,00_accX,00_accY,00_accZ,00_gyroX,00_gyroY,00_gyroZ,01_accX,01_accY,01_accZ,01_gyroX,01_gyroY,01_gyroZ,02_accX,02_accY,02_accZ,02_gyroX,02_gyroY,02_gyroZ,03_accX,03_accY,03_accZ,03_gyroX,03_gyroY,03_gyroZ,04_accX,04_accY,04_accZ,04_gyroX,04_gyroY,04_gyroZ,05_accX,05_accY,05_accZ,05_gyroX,05_gyroY,05_gyroZ,06_accX,06_accY,06_accZ,06_gyroX,06_gyroY,06_gyroZ,07_accX,07_accY,07_accZ,07_gyroX,07_gyroY,07_gyroZ,08_accX,08_accY,08_accZ,08_gyroX,08_gyroY,08_gyroZ,09_accX,09_accY,09_accZ,09_gyroX,09_gyroY,09_gyroZ,10_accX,10_accY,10_accZ,10_gyroX,10_gyroY,10_gyroZ,11_accX,11_accY,11_accZ,11_gyroX,11_gyroY,11_gyroZ,12_accX,12_accY,12_accZ,12_gyroX,12_gyroY,12_gyroZ,13_accX,13_accY,13_accZ,13_gyroX,13_gyroY,13_gyroZ,14_accX,14_accY,14_accZ,14_gyroX,14_gyroY,14_gyroZ,15_accX,15_accY,15_accZ,15_gyroX,15_gyroY,15_gyroZ,16_accX,16_accY,16_accZ,16_gyroX,16_gyroY,16_gyroZ,17_accX,17_accY,17_accZ,17_gyroX,17_gyroY,17_gyroZ,18_accX,18_accY,18_accZ,18_gyroX,18_gyroY,18_gyroZ,19_accX,19_accY,19_accZ,19_gyroX,19_gyroY,19_gyroZ,20_accX,20_accY,20_accZ,20_gyroX,20_gyroY,20_gyroZ,21_accX,21_accY,21_accZ,21_gyroX,21_gyroY,21_gyroZ,22_accX,22_accY,22_accZ,22_gyroX,22_gyroY,22_gyroZ,23_accX,23_accY,23_accZ,23_gyroX,23_gyroY,23_gyroZ,24_accX,24_accY,24_accZ,24_gyroX,24_gyroY,24_gyroZ,25_accX,25_accY,25_accZ,25_gyroX,25_gyroY,25_gyroZ,26_accX,26_accY,26_accZ,26_gyroX,26_gyroY,26_gyroZ,27_accX,27_accY,27_accZ,27_gyroX,27_gyroY,27_gyroZ,28_accX,28_accY,28_accZ,28_gyroX,28_gyroY,28_gyroZ,29_accX,29_accY,29_accZ,29_gyroX,29_gyroY,29_gyroZ,30_accX,30_accY,30_accZ,30_gyroX,30_gyroY,30_gyroZ,31_accX,31_accY,31_accZ,31_gyroX,31_gyroY,31_gyroZ,32_accX,32_accY,32_accZ,32_gyroX,32_gyroY,32_gyroZ,33_accX,33_accY,33_accZ,33_gyroX,33_gyroY,33_gyroZ,34_accX,34_accY,34_accZ,34_gyroX,34_gyroY,34_gyroZ,35_accX,35_accY,35_accZ,35_gyroX,35_gyroY,35_gyroZ,36_accX,36_accY,36_accZ,36_gyroX,36_gyroY,36_gyroZ,37_accX,37_accY,37_accZ,37_gyroX,37_gyroY,37_gyroZ,38_accX,38_accY,38_accZ,38_gyroX,38_gyroY,38_gyroZ,39_accX,39_accY,39_accZ,39_gyroX,39_gyroY,39_gyroZ,40_accX,40_accY,40_accZ,40_gyroX,40_gyroY,40_gyroZ,41_accX,41_accY,41_accZ,41_gyroX,41_gyroY,41_gyroZ,42_accX,42_accY,42_accZ,42_gyroX,42_gyroY,42_gyroZ,43_accX,43_accY,43_accZ,43_gyroX,43_gyroY,43_gyroZ,44_accX,44_accY,44_accZ,44_gyroX,44_gyroY,44_gyroZ,45_accX,45_accY,45_accZ,45_gyroX,45_gyroY,45_gyroZ,46_accX,46_accY,46_accZ,46_gyroX,46_gyroY,46_gyroZ,47_accX,47_accY,47_accZ,47_gyroX,47_gyroY,47_gyroZ,48_accX,48_accY,48_accZ,48_gyroX,48_gyroY,48_gyroZ,49_accX,49_accY,49_accZ,49_gyroX,49_gyroY,49_gyroZ,50_accX,50_accY,50_accZ,50_gyroX,50_gyroY,50_gyroZ,51_accX,51_accY,51_accZ,51_gyroX,51_gyroY,51_gyroZ,52_accX,52_accY,52_accZ,52_gyroX,52_gyroY,52_gyroZ,53_accX,53_accY,53_accZ,53_gyroX,53_gyroY,53_gyroZ,54_accX,54_accY,54_accZ,54_gyroX,54_gyroY,54_gyroZ,55_accX,55_accY,55_accZ,55_gyroX,55_gyroY,55_gyroZ,56_accX,56_accY,56_accZ,56_gyroX,56_gyroY,56_gyroZ,57_accX,57_accY,57_accZ,57_gyroX,57_gyroY,57_gyroZ,58_accX,58_accY,58_accZ,58_gyroX,58_gyroY,58_gyroZ,59_accX,59_accY,59_accZ,59_gyroX,59_gyroY,59_gyroZ,60_accX,60_accY,60_accZ,60_gyroX,60_gyroY,60_gyroZ,61_accX,61_accY,61_accZ,61_gyroX,61_gyroY,61_gyroZ,62_accX,62_accY,62_accZ,62_gyroX,62_gyroY,62_gyroZ,63_accX,63_accY,63_accZ,63_gyroX,63_gyroY,63_gyroZ,64_accX,64_accY,64_accZ,64_gyroX,64_gyroY,64_gyroZ,65_accX,65_accY,65_accZ,65_gyroX,65_gyroY,65_gyroZ,66_accX,66_accY,66_accZ,66_gyroX,66_gyroY,66_gyroZ,category
accX,0.0,-0.6019536019536019,0.0,0.0,-0.5625,0.0,-0.5848595848595849,0.0,-0.8168498168498168,0.0,-0.71875,0.0,-1.3687423687423688,0.5811965811965812,-0.94993894993895,0.0,0.0,0.0,0.0,0.9987789987789988,-2.1623931623931623,0.0,0.0,0.625,0.0,-0.8632478632478633,-4.704517704517705,0.0,0.0,0.90625,0.0,-0.7924297924297924,-6.203907203907204,0.0,0.0,1.125,0.0,-0.7521367521367521,-6.943833943833944,0.0,0.53125,1.25,-0.8229548229548229,-1.2112332112332111,-7.671550671550674,0.0,0.84375,1.5,-2.0024420024420024,-4.328449328449328,-8.368742368742371,0.0,1.5625,1.40625,0.0,-4.395604395604397,-6.882783882783882,-1.0625,2.0,1.125,1.1807081807081807,-3.4615384615384617,-5.061050061050062,-1.3125,1.53125,0.84375,0.7606837606837606,-2.5482295482295485,-4.272283272283272,-1.34375,1.0625,0.5625,0.0,-2.13064713064713,-3.6666666666666665,-1.1875,0.90625,0.0,-0.5262515262515263,-2.393162393162393,-3.05982905982906,-1.09375,1.0625,0.0,0.0,-2.737484737484737,-1.5274725274725274,-1.15625,1.125,0.0,0.0,-1.7875457875457876,0.0,-1.09375,0.96875,0.0,0.0,-0.9865689865689866,1.6068376068376071,-0.78125,0.0,0.0,-0.8095238095238095,-0.9401709401709402,2.449328449328449,-0.75,0.65625,0.0,-1.0598290598290598,0.0,4.282051282051282,-0.96875,0.9375,0.0,-0.8131868131868132,0.6178266178266179,5.409035409035409,-1.09375,0.9375,0.0,-1.3418803418803418,0.7643467643467643,5.670329670329671,-1.09375,0.53125,0.0,-1.4004884004884004,0.9987789987789988,6.181929181929183,-1.21875,0.0,0.0,-2.092796092796093,1.47985347985348,6.835164835164836,-1.3125,0.0,0.0,-2.3162393162393164,1.9267399267399268,7.072039072039073,-1.1875,0.0,0.0,-1.2136752136752136,1.6349206349206349,6.384615384615384,-0.8125,0.0,0.0,-1.2527472527472527,0.8998778998778999,4.545787545787546,0.0,0.0,0.0,0.0,0.0,3.1404151404151404,0.0,0.0,0.0,-0.6507936507936508,0.0,2.4065934065934065,0.0,0.0,0.0,0.0,0.0,2.095238095238096,0.0,0.0,0.0,0.0,0.0,1.6825396825396826,0.0,0.0,0.0,0.0,0.0,0.9645909645909646,0.0,0.0,0.0,0.0,0.0,0.0,0.0,0.0,0.0,0.0,0.0,0.0,0.0,0.0,0.0,0.0,0.0,0.0,0.0,0.0,0.0,0.0,0.0,0.0,0.0,0.0,0.0,0.0,0.0,0.0,0.0,0.0,0.0,0.0,0.0,0.0,0.0,0.0,0.0,0.0,0.0,0.0,0.0,0.0,0.0,0.0,0.0,0.0,0.0,0.0,0.0,0.0,0.0,-0.73992673992674,0.0,0.0,0.0,0.0,0.0,-0.5824175824175825,0.0,0.0,0.0,0.0,0.0,0.0,0.0,0.0,0.0,0.0,0.0,0.5470085470085471,0.0,0.0,0.0,0.0,0.0,0.5164835164835165,0.0,0.0,0.0,0.0,0.0,0.0,0.0,0.0,0.0,0.0,0.0,0.0,0.0,0.0,0.0,,,,,,,,,,,,,,,,,,,,,,,,,,,,,,,,,,,,,,,,,,,,,,,,,,,,,,,,,,,,,,,,,,,,,,,,,,,,,,,,,,,,,,,,,,,,,,,,,,,,,,,,,,,,,,,,,,,,,,,,,,,,,,,landR
accX,0.0,0.0,0.0,0.0,0.0,0.0,0.0,0.0,-0.5531135531135531,0.0,-0.6875,0.0,-2.105006105006105,0.5054945054945055,-1.5054945054945057,0.0,0.0,0.0,-1.0305250305250304,0.0,-2.318681318681319,0.0,0.0,0.0,-0.6825396825396826,0.0,-3.2710622710622714,0.0,0.0,0.0,-0.6923076923076923,0.0,-4.454212454212454,0.0,0.0,0.71875,-1.275946275946276,-1.4017094017094016,-6.2857142857142865,0.0,0.0,1.03125,-1.2686202686202686,-1.8888888888888888,-7.145299145299147,0.0,0.96875,1.09375,-1.0879120879120878,-2.4725274725274726,-7.730158730158731,-0.75,1.3125,1.1875,0.0,-2.2234432234432235,-7.147741147741147,-1.0625,1.5625,1.3125,0.7521367521367521,-2.7423687423687424,-6.529914529914531,-1.09375,1.5625,1.1875,0.8437118437118437,-2.8522588522588523,-5.542124542124542,-1.15625,1.5625,1.0,0.7130647130647131,-3.336996336996337,-4.351648351648351,-1.1875,1.59375,0.75,1.0305250305250304,-3.0463980463980462,-2.934065934065934,-1.3125,1.5,0.0,1.0634920634920637,-1.8168498168498168,-0.8864468864468864,-1.09375,0.96875,0.0,0.9682539682539684,-1.3076923076923077,0.0,-0.65625,0.53125,0.0,0.0,-2.3553113553113554,-0.6959706959706959,-0.8125,0.65625,0.0,-0.7826617826617827,-2.509157509157509,0.0,-1.21875,1.03125,0.0,-0.5384615384615384,-1.6605616605616609,1.4578754578754578,-1.4375,1.21875,0.0,0.0,-0.7997557997557998,3.1843711843711837,-1.40625,0.875,-0.59375,-0.7167277167277167,0.0,4.368742368742368,-1.1875,0.0,-0.59375,-2.5824175824175826,0.5897435897435898,5.916971916971918,-1.03125,0.0,-0.53125,-2.4273504273504267,0.8937728937728938,6.887667887667887,-0.875,0.0,0.0,-2.831501831501832,1.290598290598291,7.506715506715508,-0.84375,0.0,0.0,-2.2796092796092795,1.3601953601953602,7.815628815628816,-0.75,0.0,0.0,-2.083028083028083,1.6703296703296704,7.305250305250305,0.0,0.0,0.0,-1.5848595848595848,0.0,4.0085470085470085,0.0,0.0,0.0,-0.8693528693528694,0.0,2.291819291819292,0.0,0.0,0.0,0.0,0.0,1.31990231990232,0.0,0.0,0.0,-0.5238095238095238,0.0,0.8852258852258852,0.0,0.0,0.0,0.0,0.0,1.1819291819291822,0.0,0.0,0.0,0.0,0.0,1.115995115995116,0.0,0.0,0.0,0.0,0.0,0.873015873015873,0.0,0.0,0.0,0.0,0.0,0.0,0.0,0.0,0.0,0.0,0.0,0.0,0.0,0.0,0.0,0.0,0.0,0.0,0.0,0.0,0.0,0.0,0.0,0.0,0.0,0.0,0.0,0.0,0.0,0.0,0.0,0.0,0.0,0.0,0.0,0.0,0.0,0.0,0.0,0.0,0.0,0.0,0.0,0.0,0.0,0.0,0.0,0.0,0.0,0.0,0.0,0.0,0.0,-0.5115995115995116,0.0,0.0,0.0,0.0,0.0,-0.78998778998779,0.0,0.0,0.0,0.0,0.0,-0.5152625152625152,0.0,0.0,0.0,0.0,0.0,0.0,0.0,0.0,0.0,0.0,0.0,0.0,0.0,0.0,0.0,0.0,0.0,0.0,0.0,0.0,0.0,0.0,0.0,0.0,0.0,0.0,0.0,0.0,0.0,0.0,0.0,0.0,0.0,0.0,0.0,0.0,0.0,0.0,0.0,0.0,0.0,0.0,0.0,0.0,0.0,0.0,0.0,0.0,0.0,0.0,0.0,0.0,0.0,0.0,0.0,0.0,0.0,0.0,0.0,0.0,0.0,0.0,0.0,0.0,0.0,0.0,0.0,0.0,0.0,,,,,,,,,,,,,,,,,,,,,,,,,,,,,,,,,,,,,,,,,,,,,,,,,,,,,,,,,,,,,,,,,,,,,,,,,landR
accX,-0.7423687423687424,1.2185592185592184,-0.6874236874236874,0.59375,-0.5625,0.0,-1.1172161172161172,2.3699633699633704,-0.9853479853479854,1.6875,-0.65625,0.0,-1.9768009768009769,1.115995115995116,-2.457875457875458,2.3125,0.0,0.875,-1.8864468864468864,-4.252747252747253,-6.515262515262514,1.65625,0.0,0.875,-0.6373626373626373,-5.021978021978021,-7.984126984126984,0.0,0.90625,0.0,0.0,-3.5470085470085464,-7.056166056166056,-0.5625,0.84375,0.0,-0.6715506715506715,-2.7240537240537246,-5.461538461538462,0.0,0.84375,0.0,0.0,-2.4884004884004884,-4.185592185592186,0.0,0.71875,0.59375,0.0,-6.275946275946276,-5.747252747252747,-0.59375,0.8125,0.0,-0.5934065934065934,-5.914529914529915,-5.7716727716727725,-1.71875,1.40625,0.0,0.9279609279609279,-4.6874236874236885,-4.235653235653237,-2.03125,1.46875,0.0,1.3345543345543345,-4.12942612942613,-2.9194139194139197,-2.03125,0.96875,-0.59375,0.0,-3.542124542124542,-2.095238095238096,-1.9375,0.875,-0.65625,-0.8046398046398047,-2.5824175824175826,-0.8888888888888888,-1.90625,1.21875,-0.71875,-0.5177045177045178,-1.9047619047619049,0.7020757020757019,-1.84375,1.375,-0.6875,0.0,-0.9145299145299144,2.3040293040293043,-1.8125,1.3125,-0.65625,-0.7472527472527473,0.0,4.029304029304028,-1.75,0.84375,-0.65625,-1.978021978021978,0.9133089133089132,5.396825396825397,-1.65625,0.53125,-0.65625,-1.7826617826617828,0.9621489621489622,5.943833943833944,-1.5,0.0,-0.65625,-1.927960927960928,1.5934065934065933,6.531135531135532,-1.375,0.0,-0.6875,-1.3492063492063493,1.5494505494505495,6.53968253968254,-1.0625,0.0,-0.59375,-2.0415140415140414,1.6923076923076923,6.504273504273504,-0.8125,0.0,0.0,-1.8705738705738704,1.652014652014652,6.5335775335775335,-0.6875,0.0,0.0,-1.5531135531135531,0.9291819291819292,6.0769230769230775,-0.65625,0.0,0.0,-0.9377289377289376,1.0085470085470083,5.263736263736264,0.0,0.0,0.0,-1.3333333333333333,1.0805860805860803,4.373626373626373,0.0,0.0,0.0,-0.9584859584859584,0.7032967032967034,3.2905982905982905,0.0,0.0,0.0,-0.7521367521367521,0.0,2.533577533577533,0.0,0.0,0.0,0.0,0.0,1.7594627594627594,0.0,0.0,0.0,0.0,0.0,1.1001221001221002,0.0,0.0,0.0,0.0,0.0,0.0,0.0,0.0,0.0,-0.5335775335775336,0.0,0.0,0.0,0.0,0.0,0.0,0.0,0.0,0.0,0.0,0.0,0.0,0.0,0.0,0.0,0.0,0.0,0.0,0.0,0.0,0.0,0.0,0.0,0.0,0.0,0.0,0.0,0.0,0.0,0.0,0.0,0.0,0.0,0.0,0.0,0.0,0.0,-0.5457875457875457,0.0,0.0,0.0,0.0,0.0,0.0,0.0,0.0,0.0,0.0,0.0,0.0,0.0,0.0,0.0,0.0,0.0,0.0,0.0,0.0,0.0,0.0,0.0,0.0,0.0,0.0,0.0,0.0,0.0,0.0,0.0,0.0,0.0,0.0,0.0,0.0,0.0,0.0,0.0,0.0,0.0,-0.5018315018315018,0.0,0.0,0.0,0.0,0.0,0.0,0.0,0.0,0.0,0.0,0.0,0.0,0.0,0.0,0.0,0.0,0.0,0.0,0.0,0.0,0.0,0.0,0.0,0.0,0.0,0.0,0.0,0.0,0.0,0.0,0.0,0.0,0.0,0.0,0.0,0.0,0.0,0.0,0.0,0.0,0.0,0.0,0.0,0.0,0.0,0.0,0.0,0.0,0.0,0.0,0.0,0.0,0.0,0.0,0.0,0.0,0.0,0.0,0.0,0.0,0.0,0.0,0.0,0.0,0.0,0.0,0.0,0.0,0.0,0.0,0.0,0.0,0.0,0.0,0.0,0.0,0.0,0.0,0.0,0.0,0.0,0.0,0.0,0.0,0.0,0.0,0.0,0.0,0.0,0.0,0.0,0.0,0.0,0.0,0.0,0.0,0.0,0.0,0.0,0.0,0.0,0.0,0.0,0.0,0.0,,,,,,,,,,,,,,,,,,,,,,,,,,,,,,,landR
accX,0.0,0.0,-4.442002442002441,0.0,-0.75,-0.6875,-1.7875457875457876,-1.6166056166056166,-5.38949938949939,0.0,0.0,0.0,-1.1746031746031746,0.0,-5.504273504273504,0.0,0.0,0.0,-0.6434676434676435,0.0,-5.625152625152626,0.0,0.6875,0.0,-1.2967032967032968,-0.9157509157509156,-5.448107448107449,0.0,0.78125,0.71875,-2.1245421245421245,-3.4346764346764345,-6.473748473748474,0.0,1.09375,0.875,-1.7203907203907205,-3.3675213675213675,-5.848595848595848,-0.75,1.75,0.71875,0.0,-2.4053724053724053,-4.141636141636142,-1.34375,2.0,0.71875,1.1452991452991452,-1.3296703296703296,-3.1697191697191696,-1.0,1.53125,0.53125,1.1147741147741148,-1.7643467643467643,-3.0708180708180715,-0.625,1.1875,0.0,0.0,-3.4590964590964592,-3.404151404151404,-0.84375,1.28125,0.0,0.0,-3.903540903540904,-2.8363858363858365,-1.40625,1.5,0.0,1.0024420024420024,-2.9047619047619047,-1.177045177045177,-1.46875,1.28125,0.0,1.3052503052503053,-2.3162393162393164,0.0,-1.1875,0.75,0.0,0.0,-1.868131868131868,0.989010989010989,-1.0,0.0,0.0,-1.020757020757021,-1.8583638583638584,2.05006105006105,-1.0625,0.0,0.0,-2.0586080586080584,-1.7179487179487178,3.025641025641025,-1.40625,0.84375,-0.625,-1.2612942612942613,-0.8864468864468864,4.206349206349207,-1.53125,0.90625,-0.6875,-1.8547008547008548,0.0,6.261294261294261,-1.5625,0.75,-0.6875,-2.173382173382173,2.0573870573870567,8.556776556776558,-1.15625,0.5625,-0.5625,-1.7081807081807079,1.7814407814407816,8.097680097680097,-0.78125,0.0,0.0,-1.9523809523809523,1.5494505494505495,6.960927960927961,-0.53125,0.0,0.0,-1.7142857142857142,1.2832722832722834,6.158730158730159,0.0,0.0,0.0,-1.6385836385836383,1.0647130647130647,4.887667887667888,0.0,0.0,0.0,-1.3699633699633702,0.6727716727716728,3.1367521367521367,0.0,0.0,0.0,-1.1538461538461535,0.0,1.9584859584859584,0.0,0.0,0.0,-0.5628815628815629,0.0,1.4542124542124542,0.0,0.0,0.0,0.0,0.0,1.2161172161172158,0.0,0.0,0.0,0.0,0.0,1.020757020757021,0.0,0.0,0.0,0.0,0.0,0.0,0.0,0.0,0.0,0.0,-0.5921855921855922,-1.1819291819291822,0.0,0.0,0.0,0.0,-0.63003663003663,-1.2942612942612943,0.0,0.0,0.0,0.0,0.0,-0.8534798534798534,0.0,0.0,0.0,0.0,0.0,0.0,0.0,0.0,0.0,0.0,0.0,0.0,0.0,0.0,0.0,0.0,0.0,0.0,0.0,0.0,0.0,0.0,0.0,0.0,0.0,0.0,0.0,0.0,0.0,0.0,0.0,0.0,0.0,0.0,0.0,0.0,0.0,0.0,0.0,0.0,0.0,0.0,0.0,0.0,0.0,0.0,0.0,0.0,0.0,0.0,0.0,0.0,0.0,0.0,0.0,0.0,0.0,0.0,0.0,0.0,0.0,0.0,0.0,0.0,0.0,0.0,0.0,0.0,0.0,0.0,0.0,0.0,0.0,0.0,0.0,0.0,0.0,0.0,0.0,0.0,0.0,0.0,0.0,0.0,0.0,0.0,0.0,,,,,,,,,,,,,,,,,,,,,,,,,,,,,,,,,,,,,,,,,,,,,,,,,,,,,,,,,,,,,,,,,,,,,,,,,,,,,,,,,,,,,,,,,,,,,,,,,,,,,,,,,,,,,,,,,,,,,,,,,landR
accX,0.0,0.0,-0.6275946275946276,0.0,0.0,0.0,0.5775335775335775,0.0,-0.7606837606837606,0.0,0.0,0.0,1.47985347985348,0.0,-0.9829059829059827,0.0,-0.84375,0.0,-0.6459096459096461,0.0,-3.2661782661782666,-0.53125,-0.8125,0.0,-2.1782661782661785,0.5873015873015873,-5.277167277167277,-0.53125,0.0,0.59375,-2.189255189255189,0.0,-6.5225885225885225,0.0,0.625,1.0625,0.0,-0.9316239316239316,-6.608058608058608,-0.59375,1.0,1.125,-0.7020757020757019,-1.5531135531135531,-6.693528693528694,-0.78125,1.25,1.03125,-0.9304029304029304,-1.199023199023199,-5.9462759462759465,-0.75,1.59375,1.03125,0.0,-0.8498168498168498,-4.757020757020757,0.0,1.5,1.09375,0.0,-3.85958485958486,-5.1892551892551895,0.0,1.28125,0.875,1.1855921855921856,-3.2576312576312576,-4.627594627594628,-0.875,1.75,0.0,1.3406593406593406,-1.702075702075702,-2.645909645909646,-1.3125,1.65625,0.0,0.6971916971916972,-1.1843711843711844,-1.6385836385836383,-1.15625,1.375,0.0,0.0,0.0,0.0,-0.78125,1.25,0.0,0.0,-1.3492063492063493,0.9511599511599512,0.0,1.15625,0.0,0.0,-1.953601953601953,1.192918192918193,-0.53125,1.0625,0.0,0.0,-1.1452991452991452,1.4285714285714286,-0.90625,0.5625,-0.65625,-1.7045177045177045,0.0,2.2649572649572653,-1.0625,0.0,-0.6875,-2.2344322344322345,0.0,4.293040293040293,-1.03125,0.0,-0.5625,-2.2649572649572653,0.0,4.99023199023199,-0.9375,0.0,0.0,-2.214896214896215,0.0,5.354090354090353,-0.90625,0.0,0.0,-1.2258852258852257,0.0,5.4493284493284495,-0.8125,0.0,0.0,-1.1184371184371185,0.0,5.622710622710622,-0.71875,0.0,0.0,-1.968253968253968,0.0,6.003663003663004,-0.71875,0.0,0.0,-1.0744810744810744,0.0,6.054945054945056,0.0,0.0,0.0,-0.8693528693528694,0.0,4.987789987789989,0.0,0.0,0.0,-0.8485958485958486,0.0,3.2246642246642248,0.0,0.0,0.0,0.0,0.0,2.145299145299145,0.0,0.0,0.0,-0.6275946275946276,0.0,1.4676434676434675,0.0,0.0,0.0,-0.9633699633699634,0.0,1.4017094017094016,0.0,0.0,0.0,0.0,0.0,1.3894993894993894,0.0,0.0,0.0,0.0,0.0,0.7032967032967034,0.0,0.0,0.0,0.0,0.0,-0.8400488400488401,0.0,0.0,0.0,0.0,0.0,-1.0573870573870574,0.0,0.0,0.0,0.0,0.0,-0.8363858363858364,0.0,0.0,0.0,0.0,0.0,0.0,0.0,0.0,0.0,0.0,0.0,0.0,0.0,0.0,0.0,0.0,0.0,0.0,0.0,0.0,0.0,0.0,0.0,0.0,0.0,0.0,0.0,0.0,0.0,0.0,0.0,0.0,0.0,0.0,0.0,0.0,0.0,0.0,0.0,0.0,0.0,0.0,0.0,0.0,0.0,0.0,0.0,0.0,0.0,0.0,0.0,0.0,0.0,0.0,0.0,0.0,0.0,0.0,0.0,0.0,0.0,0.0,0.0,0.0,0.0,0.0,0.0,0.0,0.0,0.0,0.0,0.0,0.0,0.0,0.0,0.0,0.0,0.0,0.0,0.0,0.0,0.0,0.0,0.0,0.0,0.0,0.0,0.0,0.0,0.0,0.0,0.0,0.0,0.0,0.0,0.0,0.0,0.0,0.0,0.0,0.0,0.0,0.0,0.0,0.0,0.0,0.0,0.0,0.0,0.0,0.0,0.0,0.0,0.0,0.0,0.0,0.0,,,,,,,,,,,,,,,,,,,,,,,,,,,,,,,,,,,,,,,,,,,,,,,,,,,,,,,,,,,,,,,,,,,,,,,,,landR
accX,0.0,0.0,-0.6288156288156288,0.0,0.0,0.0,0.0,0.0,-1.568986568986569,0.0,0.0,0.0,0.0,0.5726495726495726,-3.1794871794871797,0.0,0.0,0.0,-0.9682539682539684,0.0,-5.236874236874237,0.0,0.0,0.0,0.0,0.0,-5.4896214896214905,0.0,0.0,0.59375,0.0,-0.5164835164835165,-4.676434676434677,0.0,0.0,0.90625,-0.9304029304029304,-2.642246642246642,-5.997557997557997,0.0,0.0,0.96875,-1.4151404151404152,-3.874236874236874,-6.84004884004884,0.0,1.0,0.78125,-0.6166056166056166,-2.2954822954822958,-5.514041514041513,-0.78125,1.5,0.0,0.0,-1.7081807081807079,-4.063492063492063,-0.875,1.53125,0.0,0.0,-0.8840048840048841,-2.838827838827839,-0.875,1.28125,0.0,0.0,-0.9047619047619048,-2.023199023199023,-0.53125,1.0,0.0,-1.485958485958486,-2.8669108669108665,-2.562881562881563,-0.6875,1.375,0.0,0.0,-2.467643467643468,-2.021978021978022,-1.0,1.46875,0.0,0.0,-1.619047619047619,0.0,-1.125,1.125,0.0,0.0,0.0,1.3797313797313795,-0.90625,0.65625,0.0,-1.3699633699633702,-0.5567765567765568,2.3638583638583643,-0.6875,0.0,0.0,-3.3272283272283274,-1.0915750915750917,2.495726495726496,-1.125,1.0625,0.0,-1.3614163614163617,0.0,4.413919413919414,-1.25,1.09375,0.0,-0.8290598290598291,0.0,5.532356532356533,-1.125,0.0,0.0,-1.8925518925518925,1.020757020757021,6.185592185592187,-0.84375,0.0,0.0,-2.0085470085470085,1.0525030525030523,6.150183150183151,0.0,0.0,0.0,-1.9242979242979243,0.0,5.1098901098901095,0.0,0.0,0.0,-1.2246642246642248,0.0,4.406593406593408,0.0,0.0,0.0,-0.5238095238095238,0.0,3.0586080586080584,0.0,0.0,0.0,-0.7167277167277167,-0.5262515262515263,1.9255189255189256,0.0,0.0,0.0,-1.0671550671550671,0.0,1.6483516483516485,0.0,0.0,0.0,-0.6373626373626373,0.0,1.8705738705738704,0.0,0.0,0.0,0.0,0.0,2.0476190476190474,0.0,0.0,-0.53125,0.0,0.0,1.8021978021978025,0.0,0.0,0.0,-1.1404151404151404,0.6898656898656899,1.4871794871794872,0.0,0.0,0.0,-0.7631257631257631,0.5470085470085471,1.3235653235653235,0.0,0.0,0.0,0.0,0.0,0.8131868131868132,0.0,0.0,0.0,0.0,0.0,0.0,0.0,0.0,0.0,0.0,-0.6007326007326007,-0.7228327228327228,0.0,0.0,0.0,0.0,-0.5543345543345544,-0.7863247863247863,0.0,0.0,0.0,0.0,0.0,0.0,0.0,0.0,0.0,1.0024420024420024,0.0,0.0,0.0,0.0,0.0,0.6739926739926739,0.0,0.0,0.0,0.0,0.0,0.0,0.0,0.0,0.0,0.0,0.0,0.0,0.0,0.0,0.0,0.0,0.0,0.0,0.0,0.0,0.0,0.0,0.0,0.0,0.0,0.0,0.0,0.0,0.0,0.0,0.0,0.0,0.0,0.0,0.0,0.0,0.0,0.0,0.0,0.0,0.0,0.0,0.0,0.0,0.0,0.0,0.0,0.0,0.0,0.0,0.0,0.0,0.0,0.0,0.0,0.0,0.0,0.0,0.0,0.0,0.0,0.0,0.0,0.0,0.0,0.0,0.0,0.0,0.0,0.0,0.0,0.0,0.0,0.0,0.0,0.0,0.0,,,,,,,,,,,,,,,,,,,,,,,,,,,,,,,,,,,,,,,,,,,,,,,,,,,,,,,,,,,,,,,,,,,,,,,,,,,,,,,,,,,,,,,,,,,,,,,,,landR
accX,0.0,0.0,-0.9218559218559218,0.0,0.0,0.0,0.9536019536019535,0.0,-2.2295482295482296,0.0,-0.5625,0.0,-0.5726495726495726,-0.5018315018315018,-4.4493284493284495,0.0,-0.53125,0.0,-0.6849816849816851,-0.8632478632478633,-6.078144078144077,0.0,0.0,0.0,-1.144078144078144,-1.3943833943833943,-6.212454212454213,0.0,0.59375,0.0,0.0,-1.1282051282051282,-5.418803418803419,-0.625,1.15625,0.0,0.8974358974358975,-0.9352869352869352,-4.532356532356532,-0.5625,1.09375,0.0,-0.6080586080586079,-1.684981684981685,-5.083028083028083,0.0,0.8125,0.0,-1.2747252747252746,-2.5311355311355306,-5.2905982905982905,0.0,1.3125,0.53125,-0.8522588522588522,-3.3748473748473753,-5.147741147741148,-0.84375,1.8125,0.0,1.0647130647130647,-2.6385836385836385,-4.00976800976801,-1.0625,1.6875,0.0,1.4383394383394383,-0.9377289377289376,-2.525030525030525,-0.78125,1.09375,0.0,0.0,-0.5921855921855922,-1.338217338217338,0.0,0.65625,0.0,-1.9010989010989008,-1.4957264957264955,-1.3931623931623929,0.0,1.0625,0.0,-1.8058608058608057,-2.208791208791209,-1.5213675213675213,-0.65625,1.78125,0.0,0.0,-2.4822954822954824,-0.6691086691086691,-1.03125,1.6875,0.0,0.0,-1.1501831501831499,1.382173382173382,-1.15625,1.15625,-0.53125,-0.8095238095238095,0.0,2.7240537240537246,-0.8125,0.71875,0.0,-1.4713064713064714,0.0,3.4810744810744816,-0.53125,0.5625,0.0,-1.9413919413919412,0.0,3.3296703296703303,-0.65625,0.90625,0.0,-0.7655677655677655,0.0,3.5152625152625148,-0.875,0.65625,-0.59375,-1.31990231990232,0.0,3.8986568986568986,-1.15625,0.0,-0.6875,-1.6202686202686205,0.0,4.249084249084248,-1.125,0.0,-0.65625,-2.3223443223443225,0.9206349206349206,5.227106227106226,-1.03125,0.0,-0.59375,-2.1123321123321124,1.4029304029304028,6.224664224664225,-0.9375,0.0,-0.5625,-1.1452991452991452,1.0622710622710625,6.117216117216118,-0.71875,0.0,0.0,-1.4920634920634919,1.0549450549450552,5.470085470085469,0.0,0.0,0.0,-1.6117216117216118,0.6959706959706959,4.177045177045176,0.0,0.0,0.0,-0.9389499389499391,0.0,2.8083028083028077,0.0,0.0,0.0,-0.7814407814407814,0.0,1.568986568986569,0.0,0.0,0.0,0.0,0.0,0.6837606837606838,0.0,0.0,0.0,0.0,-0.6019536019536019,0.0,0.0,0.0,0.0,0.0,0.0,0.0,0.0,0.0,0.0,0.0,0.0,0.0,0.0,0.0,0.0,0.0,0.0,0.0,0.0,0.0,0.0,0.0,0.0,0.0,0.0,0.0,0.0,0.5213675213675214,0.0,0.0,0.0,0.0,0.0,0.0,0.0,0.0,0.0,0.0,0.0,0.0,0.0,-0.6483516483516484,0.0,0.0,0.0,0.0,0.0,-0.5115995115995116,0.0,0.0,0.0,0.0,0.0,0.0,0.0,0.0,0.0,0.0,0.0,0.0,0.0,0.0,0.0,0.0,0.0,0.0,0.0,0.0,0.0,0.0,0.0,0.0,0.0,0.0,0.0,0.0,0.0,0.0,0.0,0.0,0.0,0.0,0.0,0.0,0.0,0.0,0.0,0.0,0.0,0.0,0.0,0.0,0.0,0.0,0.0,0.0,0.0,0.0,0.0,0.0,0.0,0.0,0.0,0.0,0.0,0.0,0.0,0.0,0.0,0.0,0.0,0.0,0.0,0.0,0.0,0.0,0.0,0.0,0.0,0.5347985347985348,0.0,0.0,0.0,,,,,,,,,,,,,,,,,,,,,,,,,,,,,,,,,,,,,,,,,,,,,,,,,,,,,,,,,,,,,,,,,,,,,,,,,,,,,,,,,,,,,,,,,,,landR
accX,0.0,0.0,0.0,0.0,-0.5625,0.0,0.0,0.9242979242979243,0.0,0.0,-0.65625,0.0,0.0,0.0,-0.9804639804639804,0.53125,0.0,0.0,0.0,-0.6837606837606838,-3.814407814407815,0.65625,0.0,0.0,0.0,-1.8644688644688645,-6.683760683760683,0.0,0.0,0.0,0.0,-1.94993894993895,-7.597069597069598,-0.65625,0.78125,0.0,-0.7216117216117216,0.0,-6.272283272283273,-0.875,1.1875,0.0,-0.8461538461538461,0.0,-5.797313797313797,-0.75,1.375,0.0,0.0,0.0,-5.0085470085470085,-0.5625,1.1875,0.0,0.0,-2.3382173382173383,-5.366300366300366,-0.65625,1.3125,0.0,0.9609279609279608,-2.7777777777777777,-2.5042735042735043,-1.125,1.375,0.0,0.0,-0.6739926739926739,-1.8632478632478635,-0.6875,1.1875,0.0,0.7728937728937729,-0.6971916971916972,-0.8669108669108669,0.0,0.90625,0.0,-0.8461538461538461,-2.9645909645909647,-1.9145299145299144,0.0,0.6875,0.0,-0.9645909645909646,-2.5347985347985347,-1.363858363858364,-0.90625,1.125,0.0,0.5702075702075702,-1.4126984126984128,0.5482295482295483,-1.15625,1.21875,0.0,0.0,0.0,1.4957264957264955,-1.09375,0.75,0.0,-0.6678876678876678,0.0,2.207570207570208,-0.78125,0.0,0.0,-1.2466422466422469,-1.5787545787545787,1.0048840048840049,0.0,0.0,0.0,-1.3772893772893773,-1.724053724053724,0.0,-0.8125,0.90625,0.0,-0.6019536019536019,-0.7277167277167277,1.7960927960927962,-1.125,1.25,0.0,0.0,0.0,2.8034188034188032,-1.21875,1.0,0.0,-0.6239316239316239,0.0,2.7411477411477403,-1.09375,0.0,0.0,-1.3711843711843712,0.0,2.844932844932845,-1.0625,0.0,0.0,-2.404151404151404,0.503052503052503,3.5677655677655684,-1.125,0.8125,0.0,-1.2698412698412698,0.8217338217338217,4.7203907203907205,-1.0,0.6875,0.0,-1.387057387057387,0.6849816849816851,4.710622710622711,-0.84375,0.0,0.0,-1.623931623931624,0.7851037851037851,4.683760683760683,-0.6875,0.0,0.0,-1.6947496947496947,1.1172161172161172,4.891330891330892,0.0,0.0,0.0,-1.7216117216117215,0.6129426129426129,3.7094017094017095,0.0,0.0,0.0,0.0,0.0,2.7875457875457874,0.0,0.0,0.0,0.0,0.0,1.5274725274725274,0.0,0.0,0.0,-0.6483516483516484,0.0,1.2783882783882785,0.0,0.0,0.0,-0.5518925518925519,0.0,1.5641025641025639,0.0,0.0,0.0,-0.6336996336996337,0.0,1.9255189255189256,0.0,0.0,0.0,-1.072039072039072,0.0,1.1843711843711844,0.0,0.0,0.0,-1.3089133089133091,0.0,0.0,0.0,0.0,0.0,0.0,-0.5091575091575091,0.0,0.0,0.0,0.0,0.0,-0.6178266178266179,-0.7484737484737485,0.0,0.0,0.0,0.0,0.0,-0.7289377289377289,0.0,0.0,0.0,0.0,0.0,-0.5384615384615384,0.0,0.0,0.0,0.0,0.0,0.0,0.0,0.0,0.0,0.0,0.0,-0.6019536019536019,0.0,0.0,0.0,0.0,0.0,0.0,0.0,0.0,0.0,0.0,0.0,0.0,0.0,0.0,0.0,0.0,0.0,0.0,0.0,0.0,0.0,0.0,0.0,0.0,0.0,0.0,0.0,0.0,0.0,0.0,0.0,0.0,0.0,0.0,0.0,-0.6361416361416361,0.0,0.0,0.0,0.0,0.0,0.0,0.0,0.0,0.0,0.0,0.0,0.0,0.0,0.0,0.0,0.0,0.0,0.0,0.0,0.0,0.0,0.0,0.0,0.0,0.0,0.0,0.0,0.0,0.0,0.5970695970695971,0.0,0.0,0.0,0.0,0.0,0.5372405372405372,0.0,0.0,0.0,0.0,0.0,0.0,0.0,0.0,0.0,,,,,,,,,,,,,,,,,,,,,,,,,,,,,,,,,,,,,,,,,,,,,,,,,,,,,,,,,,,,,,,,,,,landR
accX,0.0,0.0,-0.757020757020757,0.0,0.0,0.0,0.0,-1.6068376068376071,-1.794871794871795,0.0,0.0,0.0,0.0,-1.2967032967032968,-2.6434676434676434,0.0,0.0,0.0,0.0,-1.5384615384615383,-3.4249084249084247,-0.71875,0.0,0.0,-1.656898656898657,-0.7973137973137974,-3.9328449328449326,-0.875,0.0,0.0,-1.6349206349206349,-0.525030525030525,-3.8998778998779,-0.59375,1.15625,0.0,0.0,-1.8510378510378511,-4.289377289377289,-0.59375,1.5,0.0,0.0,-2.1746031746031744,-4.503052503052503,-0.875,1.6875,0.0,-0.5641025641025641,-1.391941391941392,-3.9743589743589753,-1.03125,1.84375,0.0,0.0,-1.1721611721611722,-2.831501831501832,-1.0625,1.65625,0.0,0.0,-0.9572649572649572,-2.04029304029304,-1.125,1.53125,0.0,0.0,-1.043956043956044,-2.0903540903540905,-1.09375,1.40625,0.0,0.0,-1.3235653235653235,-2.7313797313797314,-1.09375,1.28125,0.0,0.0,-1.3089133089133091,-2.496947496947497,-1.0625,1.3125,0.0,0.0,-1.1538461538461535,-1.6459096459096458,-1.0,1.125,0.0,0.0,-0.9926739926739928,-1.3247863247863247,-1.09375,0.8125,-0.5625,-0.7912087912087912,0.0,-0.9072039072039072,-0.96875,0.59375,-0.5625,-0.9267399267399268,0.0,-0.5750915750915749,-1.0625,0.71875,0.0,-0.6117216117216118,0.0,0.5128205128205128,-1.0625,0.71875,0.0,-1.3076923076923077,0.0,1.188034188034188,-1.15625,0.0,0.0,-1.363858363858364,0.0,2.4688644688644694,-1.15625,0.0,0.0,-1.7997557997557998,0.0,3.351648351648352,-1.03125,0.625,0.0,-1.391941391941392,0.0,4.3699633699633695,-1.0625,0.8125,0.0,-0.8937728937728938,0.0,5.285714285714286,-1.15625,0.59375,0.0,-1.3186813186813189,0.7240537240537241,5.498168498168498,-1.15625,0.0,0.0,-1.4835164835164836,0.8046398046398047,5.6593406593406606,-1.0,0.0,0.0,-1.5555555555555556,0.6471306471306472,5.4774114774114775,-0.8125,0.0,0.0,-1.031746031746032,0.0,5.05982905982906,-0.5625,0.0,0.0,0.0,0.0,4.177045177045176,0.0,0.0,0.0,0.0,0.0,3.2576312576312576,0.0,0.0,0.0,0.0,0.0,2.515262515262515,0.0,0.0,0.0,0.0,0.0,1.8412698412698407,0.0,0.0,0.0,0.0,0.0,1.4468864468864469,0.0,0.0,0.0,0.0,0.0,1.5482295482295485,0.0,0.0,0.0,0.0,-0.6336996336996337,0.873015873015873,0.0,0.0,0.0,0.0,0.0,0.0,0.0,0.0,0.0,0.0,0.0,0.0,0.0,0.0,0.0,0.0,-0.6507936507936508,-0.9059829059829059,0.0,0.0,0.0,0.0,-0.5323565323565324,-1.0341880341880345,0.0,0.0,0.0,0.0,0.0,0.0,0.0,0.0,0.0,0.0,0.0,0.0,0.0,0.0,0.0,0.0,0.0,0.0,0.0,0.0,0.0,0.0,0.0,-0.6495726495726496,0.0,0.0,0.0,0.0,0.0,-0.5177045177045178,0.0,0.0,0.0,0.0,0.0,0.0,0.0,0.0,0.0,0.0,0.0,-0.5299145299145299,0.0,0.0,0.0,0.0,0.0,0.0,0.0,0.0,0.0,0.0,0.0,0.0,0.0,0.0,0.0,0.0,0.0,0.0,0.0,0.0,0.0,0.0,0.0,0.0,0.0,0.0,0.0,0.0,0.0,0.0,0.0,0.0,0.0,0.0,0.0,0.5225885225885226,0.0,0.0,0.0,0.0,0.0,0.5054945054945055,0.0,0.0,0.0,0.0,0.0,0.8632478632478633,0.0,0.0,0.0,0.0,0.0,1.1562881562881564,0.0,0.0,0.0,-0.5970695970695971,0.0,0.8681318681318682,0.0,0.0,0.0,,,,,,,,,,,,,,,,,,,,,,,,,,,,,,,,,,,,,,,,,,,,,,,,,,,,,,,,,,,,,,,,,,,landR
accX,0.0,0.0,-0.7460317460317459,0.0,0.0,0.0,0.6507936507936508,0.0,-1.1025641025641026,0.0,-0.8125,0.0,0.0,-0.5286935286935287,-2.045177045177045,0.0,-1.125,0.0,-2.9902319902319903,-0.5763125763125763,-5.504273504273504,-0.875,-0.84375,-0.5625,-3.3736263736263736,0.0,-5.937728937728938,-1.03125,0.0,0.0,-2.6788766788766787,0.0,-5.642246642246642,-0.84375,0.96875,0.0,-0.8376068376068376,-1.3772893772893773,-4.4822954822954815,-0.65625,1.46875,0.59375,0.0,-1.8620268620268619,-3.268620268620269,-0.5625,1.28125,0.71875,-0.9816849816849816,-2.33943833943834,-3.062271062271062,0.0,1.15625,0.6875,-0.8009768009768009,-2.6544566544566544,-3.3443223443223444,-0.78125,1.59375,0.53125,0.8656898656898657,-2.2967032967032965,-2.8534798534798536,-1.09375,1.6875,0.0,0.9010989010989012,-1.9706959706959708,-2.347985347985348,-1.125,1.375,0.0,0.5775335775335775,-1.5714285714285714,-1.794871794871795,-1.0625,1.09375,0.0,0.0,-1.761904761904762,-1.6666666666666667,-0.9375,1.03125,0.0,-0.6788766788766789,-2.166056166056166,-1.4493284493284493,-1.125,1.375,0.0,0.0,-1.6312576312576312,0.0,-1.25,1.1875,-0.53125,0.0,-1.021978021978022,0.7533577533577533,-1.28125,0.75,-0.59375,-0.8400488400488401,0.0,1.656898656898657,-1.125,0.5625,-0.53125,-1.5885225885225884,0.0,2.070818070818071,-0.9375,0.65625,0.0,-2.0097680097680097,0.0,2.621489621489621,-0.90625,0.96875,0.0,-1.0525030525030523,0.0,3.1794871794871797,-0.9375,0.9375,0.0,-1.3711843711843712,0.6031746031746031,4.56043956043956,-1.09375,0.71875,0.0,-1.7045177045177045,1.1501831501831499,5.401709401709403,-1.125,0.5625,0.0,-1.8070818070818069,1.4456654456654456,5.68986568986569,-0.90625,0.0,0.0,-1.3858363858363858,1.0769230769230769,4.877899877899878,-0.625,0.0,0.0,-1.8937728937728937,0.7411477411477412,3.9169719169719173,0.0,0.0,0.0,-1.0805860805860803,0.6837606837606838,3.7851037851037854,-0.59375,0.0,0.0,-0.9633699633699634,0.7887667887667887,3.4273504273504267,0.0,0.0,0.0,-1.4481074481074483,0.7777777777777778,2.5360195360195363,0.0,0.0,0.0,-0.7692307692307693,0.0,1.1184371184371185,0.0,0.0,0.0,-0.8705738705738706,0.0,0.0,0.0,0.0,0.0,0.0,0.0,0.5274725274725275,0.0,0.0,0.0,0.0,0.5470085470085471,1.266178266178266,0.0,0.0,0.0,0.0,0.6239316239316239,1.2881562881562882,0.0,0.0,0.0,0.0,0.0,0.5995115995115995,0.0,0.0,0.0,0.0,-0.5311355311355311,0.0,0.0,0.0,0.0,0.0,-0.7301587301587301,-0.7973137973137974,0.0,0.0,0.0,0.0,0.0,-0.8034188034188035,0.0,0.0,0.0,0.0,0.0,0.0,0.0,0.0,0.0,0.0,0.0,-0.5006105006105006,0.0,0.0,0.0,0.0,0.0,-0.5616605616605617,0.0,0.0,0.0,0.0,0.0,0.0,0.0,0.0,0.0,0.0,0.0,0.0,0.0,0.0,0.0,0.0,0.0,0.0,0.0,0.0,0.0,0.0,0.0,0.0,0.0,0.0,0.0,0.0,0.0,0.0,0.0,0.0,0.0,0.0,0.0,0.0,0.0,0.0,0.0,0.0,0.0,0.0,0.0,0.0,0.0,0.0,0.0,0.0,0.0,0.0,0.0,0.0,0.0,0.0,0.0,0.0,0.0,0.0,0.0,0.0,0.0,0.0,0.0,0.0,0.0,0.5262515262515263,0.0,0.0,0.0,0.0,0.0,0.7423687423687424,0.0,0.0,0.0,,,,,,,,,,,,,,,,,,,,,,,,,,,,,,,,,,,,,,,,,,,,,,,,,,,,,,,,,,,,,,,,,,,,,,,,,,,,,,,,,,,,,landR
accX,0.7496947496947497,-0.8327228327228328,-0.6764346764346765,0.0,0.0,0.0,0.0,-1.1904761904761905,-1.5421245421245422,0.0,0.0,0.0,0.0,0.0,-1.8412698412698407,0.0,0.0,0.0,-1.249084249084249,0.0,-3.2735042735042734,0.0,0.0,0.0,-1.391941391941392,-1.702075702075702,-5.354090354090353,0.0,0.0,0.0,-1.57997557997558,-1.7448107448107448,-5.368742368742368,-0.75,0.65625,0.0,0.0,-1.9352869352869355,-4.836385836385836,-0.9375,1.09375,0.0,0.0,-1.7960927960927962,-4.557997557997559,-0.78125,1.40625,0.0,0.0,-2.291819291819292,-4.876678876678877,-0.84375,1.4375,0.0,0.0,-3.7777777777777777,-5.512820512820514,-1.3125,1.75,0.0,1.2307692307692308,-2.94993894993895,-4.021978021978022,-1.625,1.5625,0.0,0.5860805860805861,-1.4358974358974361,-2.4065934065934065,-1.375,1.21875,0.0,0.0,-0.8009768009768009,-1.8424908424908424,-0.90625,1.0625,0.0,0.0,-2.2698412698412698,-1.9609279609279608,-0.84375,1.0,0.0,-0.9853479853479854,-2.7081807081807083,-1.9511599511599511,-1.3125,1.40625,-0.625,0.0,-1.376068376068376,0.0,-1.4375,1.1875,-0.53125,0.0,-0.912087912087912,1.5604395604395604,-1.3125,0.8125,-0.53125,0.0,-0.5604395604395604,2.547008547008547,-1.09375,0.0,0.0,-1.3272283272283272,-1.358974358974359,2.131868131868132,-1.0,0.0,-0.53125,-1.5885225885225884,0.0,3.952380952380953,-1.15625,0.96875,-0.59375,-1.6837606837606838,0.7619047619047619,4.858363858363859,-1.03125,0.84375,-0.625,-2.101343101343101,0.6324786324786325,4.6422466422466435,-0.8125,0.0,-0.5625,-2.3272283272283274,0.5775335775335775,4.554334554334553,-0.71875,0.0,0.0,-2.561660561660561,0.7973137973137974,4.787545787545787,-0.75,0.0,0.0,-1.6593406593406594,0.6495726495726496,4.627594627594628,-0.875,0.5625,0.0,-1.5030525030525033,0.9474969474969476,4.611721611721611,-0.8125,0.0,0.0,-1.4566544566544566,1.2319902319902318,4.283272283272283,0.0,0.0,0.0,-1.5665445665445663,0.8937728937728938,3.687423687423687,0.0,0.0,0.0,-0.6361416361416361,0.0,2.9841269841269837,0.0,0.0,0.0,-0.9706959706959708,0.0,2.343101343101343,0.0,0.0,0.0,-0.6153846153846154,0.5445665445665445,1.94017094017094,0.0,0.0,0.0,-0.6263736263736264,0.0,1.3333333333333333,0.0,0.0,0.0,0.0,0.0,0.0,0.0,0.0,0.0,0.0,0.0,0.0,0.0,0.0,0.0,0.0,-0.6532356532356532,-0.6935286935286935,0.0,0.0,0.0,0.0,0.0,-0.6507936507936508,0.0,0.0,0.0,0.0,0.0,-0.7643467643467643,0.0,0.0,0.0,0.0,0.0,-0.8266178266178266,0.0,0.0,0.0,0.0,0.0,-0.8705738705738706,0.0,0.0,0.0,0.0,0.0,-0.6703296703296703,0.0,0.0,0.0,0.0,0.0,-0.5604395604395604,0.0,0.0,0.0,0.0,0.0,0.0,0.0,0.0,0.0,0.0,0.5347985347985348,0.0,0.0,0.0,0.0,0.0,0.0,0.0,0.0,0.0,0.0,0.0,0.0,0.0,0.0,0.0,0.0,0.0,0.0,0.0,0.0,0.0,0.0,0.0,0.0,0.0,0.0,0.0,0.0,0.0,0.0,0.0,0.0,0.0,0.0,0.0,0.0,0.0,0.0,0.0,0.0,0.0,0.0,0.0,0.0,0.0,0.0,,,,,,,,,,,,,,,,,,,,,,,,,,,,,,,,,,,,,,,,,,,,,,,,,,,,,,,,,,,,,,,,,,,,,,,,,,,,,,,,,,,,,,,,,,,,,,,,,,,,,,,landR
accX,1.0866910866910866,-1.637362637362637,-1.352869352869353,0.0,-0.9375,-0.6875,-0.5311355311355311,-1.468864468864469,-2.126984126984127,0.0,-1.25,-1.09375,-1.7582417582417582,-0.5860805860805861,-3.2197802197802203,-0.6875,-0.875,-0.84375,-2.385836385836386,0.0,-3.6312576312576312,-0.71875,0.0,-0.53125,-1.7301587301587302,0.0,-3.727716727716728,-0.59375,0.5625,0.0,-1.2210012210012209,0.0,-3.89010989010989,0.0,1.125,0.0,0.0,-2.0463980463980462,-4.774114774114773,-0.71875,1.21875,0.0,0.0,-2.606837606837607,-4.859584859584858,-1.125,1.28125,-0.5625,0.0,-2.376068376068376,-4.537240537240537,-1.34375,1.46875,-0.5625,0.0,-2.004884004884005,-3.673992673992674,-1.28125,1.46875,-0.5625,0.0,-1.7557997557997558,-2.8937728937728937,-1.0625,1.125,0.0,0.0,-2.7216117216117217,-2.973137973137973,-1.125,1.125,-0.59375,-0.6007326007326007,-3.388278388278388,-2.6971916971916974,-1.5625,1.21875,-0.71875,0.0,-1.188034188034188,0.0,-1.6875,1.09375,-0.8125,-0.9035409035409036,-1.2295482295482296,0.0,-1.34375,0.78125,-0.75,-1.358974358974359,-0.6654456654456654,1.1025641025641026,-1.25,0.65625,-0.53125,-1.612942612942613,-0.5506715506715507,2.0781440781440783,-1.1875,0.6875,0.0,-1.0488400488400489,-0.5787545787545788,2.5946275946275947,-1.21875,0.6875,0.0,-0.5433455433455433,0.0,3.731379731379731,-1.3125,0.53125,0.0,-1.1257631257631258,0.6105006105006106,4.623931623931624,-1.21875,0.0,0.0,-1.3736263736263736,0.7973137973137974,4.788766788766789,-1.0625,0.0,0.0,-1.7411477411477412,0.7521367521367521,4.705738705738706,-0.875,0.0,0.0,-1.1172161172161172,0.0,4.190476190476192,-0.75,0.0,0.0,-0.6813186813186813,0.0,3.05006105006105,-0.625,0.0,0.0,-1.2527472527472527,0.0,3.1257631257631258,-0.75,0.0,0.0,-1.9072039072039075,0.9389499389499391,3.7423687423687424,-0.6875,0.0,0.0,-1.3076923076923077,1.3540903540903542,4.21001221001221,0.0,0.0,0.0,-1.1111111111111112,0.9987789987789988,3.3760683760683765,0.0,0.0,0.0,-1.6642246642246643,0.8754578754578755,2.5445665445665444,0.0,0.0,0.0,-1.3943833943833943,0.0,2.0525030525030523,0.0,0.0,0.0,-1.2246642246642248,0.6752136752136753,2.0781440781440783,0.0,0.0,0.0,-0.5750915750915749,0.0,1.4615384615384617,0.0,0.0,0.0,0.0,0.0,0.5494505494505495,0.0,0.0,0.0,0.0,0.0,0.0,0.0,0.0,0.0,0.0,0.0,-0.7472527472527473,0.0,0.0,0.0,0.0,0.0,-0.9548229548229548,0.0,0.0,0.0,0.0,0.0,-0.6227106227106227,0.0,0.0,0.0,0.0,0.0,0.0,0.0,0.0,0.0,0.0,0.0,0.0,0.0,0.0,0.0,0.0,0.0,0.0,0.0,0.0,0.0,0.0,0.0,0.0,0.0,0.0,0.0,0.0,0.0,-0.568986568986569,0.0,0.0,0.0,0.0,0.0,-0.8986568986568987,0.0,0.0,0.0,0.0,0.0,-0.6971916971916972,0.0,0.0,0.0,0.0,0.0,0.0,0.0,0.0,0.0,0.0,0.0,0.0,0.0,0.0,0.0,0.0,0.0,0.0,0.0,0.0,0.0,0.0,0.0,0.0,0.0,0.0,0.0,0.0,0.0,0.0,0.0,0.0,0.0,0.0,0.0,0.7472527472527473,0.0,0.0,0.0,0.0,0.0,1.0048840048840049,0.0,0.0,0.0,0.0,0.0,1.3846153846153846,0.0,0.0,0.0,,,,,,,,,,,,,,,,,,,,,,,,,,,,,,,,,,,,,,,,,,,,,,,,,,,,,,,,,,,,,,,,,,,,,,,,,,,,,,,,,,,,,,,,,,,landR
accX,0.63003663003663,-0.7326007326007326,-1.2698412698412698,0.0,-0.625,0.0,-0.5103785103785103,0.0,-1.684981684981685,0.0,0.0,0.0,-1.557997557997558,0.0,-3.1562881562881566,0.0,0.0,0.0,-0.8742368742368742,-1.4090354090354091,-4.5225885225885225,0.0,0.65625,0.0,0.0,-2.1111111111111107,-5.01953601953602,-0.84375,0.875,0.0,0.0,-1.3455433455433456,-4.4993894993894985,-0.875,0.96875,0.0,0.0,-1.6923076923076923,-4.1440781440781445,-0.71875,1.375,0.0,0.0,-2.4786324786324787,-3.6996336996337003,-0.84375,1.5625,0.0,0.7838827838827839,-1.5592185592185592,-2.6080586080586077,-1.0,1.40625,0.0,0.0,-1.2393162393162394,-2.4163614163614158,-0.75,1.03125,0.0,0.0,-2.8095238095238093,-2.9816849816849818,-0.5625,1.0,0.0,0.0,-3.289377289377289,-2.5494505494505493,-0.96875,1.1875,0.0,0.0,-2.4542124542124544,-1.2039072039072038,-1.3125,1.3125,0.0,0.0,-2.0134310134310134,0.0,-1.4375,1.125,-0.53125,-0.6800976800976801,-0.8632478632478633,1.2063492063492065,-1.34375,0.8125,0.0,-0.7777777777777778,-0.7496947496947497,1.3785103785103785,-0.96875,0.5625,0.0,-1.78021978021978,-1.6459096459096458,0.7814407814407814,-0.8125,0.625,0.0,0.0,-1.3846153846153846,1.462759462759463,-1.1875,0.96875,-0.59375,-0.9401709401709402,-0.9633699633699634,2.43956043956044,-1.375,0.84375,-0.6875,-0.6886446886446886,0.0,3.5641025641025643,-1.21875,0.6875,-0.65625,-1.7606837606837606,0.0,3.9816849816849818,-0.96875,0.625,-0.59375,-1.5995115995115996,0.7509157509157509,4.6923076923076925,-0.8125,0.65625,-0.53125,-1.956043956043956,0.8656898656898657,4.934065934065933,-0.75,0.65625,0.0,-1.5128205128205128,1.164835164835165,5.201465201465202,-0.65625,0.0,0.0,-1.6300366300366298,1.293040293040293,4.963369963369964,0.0,0.0,0.0,-1.8864468864468864,1.0390720390720392,3.7423687423687424,0.0,0.0,0.0,-1.2393162393162394,0.0,1.68986568986569,0.0,0.0,0.0,-0.873015873015873,0.0,0.7264957264957265,0.0,0.0,0.0,-0.7655677655677655,0.0,0.8412698412698413,0.0,0.0,0.0,-0.6275946275946276,0.0,2.4310134310134313,0.0,0.0,0.0,0.0,0.0,2.053724053724053,0.0,0.0,0.0,0.0,0.0,1.363858363858364,0.0,0.0,0.0,0.0,0.0,1.123321123321123,0.0,0.0,0.0,0.0,0.0,0.7460317460317459,0.0,0.0,0.0,0.0,0.0,0.0,0.0,0.0,0.0,0.0,0.0,0.0,0.0,0.0,0.0,0.0,0.0,-0.6141636141636142,0.0,0.0,0.0,0.0,0.0,-0.5836385836385837,0.0,0.0,0.0,0.0,0.0,-0.5982905982905983,0.0,0.0,0.0,0.0,0.0,0.0,0.0,0.0,0.0,0.0,0.0,0.0,0.0,0.0,0.0,0.0,0.0,0.0,0.0,0.0,0.0,0.0,0.0,0.0,0.0,0.0,0.0,0.0,0.0,0.0,0.0,0.0,0.0,0.0,0.0,0.0,0.0,0.0,0.0,0.0,0.0,0.0,0.0,0.0,0.0,0.0,0.0,0.0,0.0,0.0,0.0,0.0,0.0,0.0,0.0,0.0,0.0,0.0,0.0,0.0,0.0,0.0,0.0,0.0,0.0,0.0,0.0,0.0,0.0,0.0,0.0,0.0,0.0,0.0,0.0,0.0,0.0,0.0,0.0,0.0,0.0,0.0,0.0,0.0,0.0,0.0,0.0,0.0,0.0,0.0,0.0,0.0,0.0,0.0,0.0,0.5653235653235653,0.0,0.0,0.0,,,,,,,,,,,,,,,,,,,,,,,,,,,,,,,,,,,,,,,,,,,,,,,,,,,,,,,,,,,,,,,,,,,,,,,,,landR
accX,0.0,0.0,-0.6227106227106227,0.0,0.0,0.0,0.8192918192918193,-0.8351648351648352,-0.6166056166056166,0.0,0.0,0.0,1.95970695970696,-1.4822954822954824,-1.94993894993895,-0.65625,-0.6875,0.0,-0.6007326007326007,-1.6874236874236874,-3.172161172161172,-1.25,-1.34375,-0.6875,-2.8424908424908426,-0.7777777777777778,-4.0976800976800964,-1.5,-0.625,-0.59375,-1.8669108669108667,0.0,-4.199023199023198,-1.3125,0.5625,0.0,-1.1465201465201464,-1.4676434676434675,-4.87912087912088,-1.125,1.125,0.0,-1.332112332112332,-1.6532356532356531,-4.857142857142857,-1.15625,1.4375,0.53125,-0.8192918192918193,-2.2210012210012207,-4.6129426129426125,-1.34375,1.96875,0.0,0.0,-1.5824175824175823,-3.4163614163614158,-1.375,1.875,0.0,0.0,-0.9365079365079364,-2.6727716727716726,-1.1875,1.59375,0.0,0.0,-0.9523809523809524,-2.4725274725274726,-0.96875,1.5,0.0,0.0,-1.424908424908425,-2.3675213675213675,-0.90625,1.4375,0.0,0.0,-2.05006105006105,-2.267399267399268,-1.0625,1.59375,0.0,0.0,-1.5274725274725274,-1.4041514041514038,-1.28125,1.71875,0.0,0.5152625152625152,-0.6129426129426129,0.0,-1.15625,1.3125,0.0,0.0,0.0,0.0,-0.9375,0.90625,0.0,-0.5445665445665445,-0.7155067155067155,0.0,-0.90625,0.84375,0.0,-0.663003663003663,-1.043956043956044,0.0,-1.03125,0.9375,0.0,0.0,-0.5347985347985348,1.8351648351648349,-1.0625,0.78125,-0.5625,-1.2112332112332111,0.0,2.537240537240537,-1.03125,0.59375,0.0,-1.2417582417582418,0.0,3.398046398046398,-0.96875,0.53125,0.0,-1.9731379731379728,0.0,3.761904761904762,-0.9375,0.0,0.0,-2.1465201465201464,0.8534798534798534,5.13064713064713,-0.96875,0.53125,0.0,-1.6837606837606838,0.9267399267399268,5.829059829059829,-0.71875,0.0,0.0,-1.5702075702075702,0.5470085470085471,5.631257631257633,-0.53125,0.0,0.0,-1.6764346764346765,0.0,5.004884004884005,0.0,0.0,0.0,-1.398046398046398,0.0,4.164835164835165,0.0,0.0,0.0,-1.4102564102564104,0.0,3.3907203907203907,0.0,0.0,0.0,-0.9743589743589745,0.0,2.5726495726495733,0.0,0.0,0.0,0.0,0.0,2.2869352869352872,0.0,0.0,0.0,0.0,-0.5225885225885226,1.6446886446886446,0.0,0.0,0.0,0.0,-0.5604395604395604,1.0952380952380951,0.0,0.0,0.0,0.0,0.0,0.8095238095238095,0.0,0.0,0.0,0.0,0.0,0.0,0.0,0.0,0.0,0.0,0.0,0.0,0.0,0.0,0.0,0.0,0.0,-0.6410256410256411,0.0,0.0,0.0,0.0,0.0,-1.0683760683760684,0.0,0.0,0.0,0.5653235653235653,0.0,-1.2368742368742371,0.0,0.0,0.0,0.0,0.0,-1.1587301587301588,0.0,0.0,0.0,0.0,0.0,0.0,0.0,0.0,0.0,0.0,0.0,0.0,0.0,0.0,0.0,0.0,0.0,0.0,0.0,0.0,0.0,0.0,0.0,0.0,0.0,0.0,0.0,0.0,0.0,0.0,0.0,0.0,0.0,0.0,0.0,0.0,0.0,0.0,0.0,0.0,0.0,0.0,0.0,0.0,0.0,0.0,0.0,0.0,0.0,0.0,0.0,0.0,0.0,0.0,0.0,0.0,0.0,0.0,0.0,0.0,0.0,0.0,0.0,0.0,0.0,0.0,0.0,0.0,0.0,0.0,0.0,0.0,0.0,0.0,0.0,0.0,0.0,0.0,0.0,0.0,0.0,0.0,0.0,0.0,0.0,0.0,0.0,0.0,0.0,0.0,0.0,0.0,0.0,0.0,0.0,0.0,0.0,0.0,0.0,0.0,0.0,0.0,0.0,0.0,0.0,,,,,,,,,,,,,,,,,,,,,,,,,,,,,,,,,,,,,,,,,,,,,,,,,,,,,,,,,,,,,landR
accX,0.5604395604395604,-0.6715506715506715,-1.4078144078144081,0.0,0.0,0.0,1.4285714285714286,-0.984126984126984,-1.8559218559218558,0.0,-0.84375,-0.5625,1.1062271062271063,-0.8876678876678876,-2.9926739926739927,-0.53125,-1.21875,-0.59375,-1.9304029304029304,-1.1172161172161172,-4.2735042735042725,-0.71875,0.0,0.0,-2.8742368742368742,0.0,-5.282051282051282,0.0,0.78125,0.0,-1.7252747252747254,-1.164835164835165,-5.688644688644688,0.0,1.59375,0.0,0.0,-1.7789987789987791,-4.069597069597069,-0.75,1.53125,0.0,0.0,-1.85958485958486,-3.1245421245421245,-0.78125,1.46875,0.0,0.0,-2.199023199023199,-2.8852258852258847,-0.84375,1.625,0.0,0.0,-1.1306471306471306,-1.9902319902319905,-1.0,1.5625,0.0,0.0,-1.3052503052503053,-1.9731379731379728,-0.9375,1.4375,0.0,0.5555555555555556,-1.343101343101343,-1.5665445665445663,-0.9375,1.21875,0.0,0.0,-0.9389499389499391,-1.166056166056166,-0.84375,1.09375,0.0,0.0,-1.5738705738705738,-1.4603174603174602,-0.6875,1.125,0.0,0.0,-1.21978021978022,-0.8156288156288156,-0.8125,1.25,-0.53125,0.0,0.0,0.0,-1.03125,0.90625,-0.65625,-1.382173382173382,0.0,0.0,-0.96875,0.53125,-0.71875,-1.557997557997558,0.0,0.0,-0.75,0.53125,0.0,-0.8253968253968254,-0.7606837606837606,0.0,-0.75,0.65625,0.0,0.0,-0.6947496947496947,0.5628815628815629,-0.96875,0.0,0.0,-0.6031746031746031,0.0,1.0561660561660562,-1.0625,0.0,0.0,-1.5103785103785103,0.0,1.247863247863248,-0.96875,0.0,0.0,-1.3479853479853479,0.0,2.8644688644688645,-0.9375,0.0,0.0,-1.3565323565323566,0.0,3.3553113553113554,-1.0,0.0,0.0,-1.978021978021978,0.5934065934065934,4.275946275946276,-1.1875,0.59375,0.0,-1.9645909645909645,1.242979242979243,5.781440781440781,-1.25,0.625,0.0,-1.264957264957265,1.6117216117216118,6.881562881562883,-0.96875,0.0,0.0,-1.5335775335775337,1.7692307692307692,6.1941391941391934,-0.5625,0.0,0.0,-1.4517704517704515,0.993894993894994,4.512820512820513,0.0,0.0,0.0,-1.0915750915750917,0.0,3.3174603174603177,0.0,0.0,0.0,0.0,0.0,1.6166056166056166,0.0,0.0,0.0,0.0,0.0,1.6507936507936507,0.0,0.0,0.0,0.0,0.0,1.3833943833943834,0.0,0.0,0.0,0.0,0.0,1.0158730158730158,0.0,0.0,0.0,0.0,0.0,0.0,0.0,0.0,0.0,0.0,0.0,0.0,0.0,0.0,0.0,0.0,0.0,0.0,0.0,0.0,0.0,0.0,0.0,0.0,0.0,0.0,0.0,0.0,0.0,0.0,0.0,0.0,0.0,0.0,0.0,-0.7753357753357754,0.0,0.0,0.0,0.0,0.0,-0.9230769230769232,0.0,0.0,0.0,0.0,0.0,0.0,0.0,0.0,0.0,0.0,0.0,0.0,0.0,0.0,0.0,0.0,0.0,0.0,0.0,0.0,0.0,0.0,0.0,0.0,0.0,0.0,0.0,0.0,0.0,0.0,0.0,0.0,0.0,0.0,0.0,0.0,0.0,0.0,0.0,0.0,0.0,0.0,0.0,0.0,0.0,0.0,0.0,0.0,0.0,0.0,0.0,,,,,,,,,,,,,,,,,,,,,,,,,,,,,,,,,,,,,,,,,,,,,,,,,,,,,,,,,,,,,,,,,,,,,,,,,,,,,,,,,,,,,,,,,,,,,,,,,,,,,,,,,,,,,landR
accX,0.0,-0.7118437118437119,-1.678876678876679,0.0,-0.6875,0.0,-1.332112332112332,0.0,-2.2466422466422467,0.0,-0.5625,0.0,-0.5616605616605617,0.5067155067155067,-2.8058608058608057,0.0,0.0,0.71875,0.0,0.0,-3.8339438339438336,0.0,0.0,0.875,1.4603174603174602,-2.9267399267399266,-5.945054945054944,0.0,0.78125,0.65625,0.6678876678876678,-3.687423687423687,-6.2002442002442,-1.03125,1.09375,0.0,0.0,-2.244200244200244,-4.78021978021978,-1.21875,1.40625,0.0,0.0,-1.8290598290598292,-4.550671550671551,-1.3125,1.40625,0.0,0.0,-1.1391941391941391,-4.395604395604397,-1.3125,1.125,0.0,0.8327228327228328,-0.9035409035409036,-4.213675213675214,-1.0,0.71875,0.0,0.0,-1.6727716727716728,-4.394383394383396,-0.90625,0.90625,0.0,0.0,-2.183150183150183,-4.395604395604397,-1.0625,1.28125,0.0,0.0,-1.68009768009768,-3.5470085470085464,-1.25,1.25,0.0,0.0,-1.083028083028083,-2.5579975579975582,-1.21875,1.40625,0.0,0.6275946275946276,-1.1306471306471306,-1.8424908424908424,-1.125,1.40625,0.0,0.0,-1.2686202686202686,-1.1184371184371185,-1.15625,1.0625,0.0,-1.0427350427350428,-0.7289377289377289,0.0,-1.0,1.0,0.0,-1.6312576312576312,-1.3601953601953602,1.647130647130647,-0.6875,0.59375,0.0,-2.527472527472528,-1.7643467643467643,2.051282051282051,-0.84375,0.75,0.0,-2.0183150183150182,-1.7753357753357752,3.4932844932844933,-1.15625,0.84375,0.0,-2.5128205128205128,-0.6410256410256411,5.615384615384616,-1.53125,0.84375,0.0,-2.253968253968254,0.0,6.888888888888888,-1.53125,0.6875,0.0,-2.6544566544566544,0.0,6.819291819291818,-1.4375,0.0,0.0,-1.6275946275946276,0.0,7.322344322344322,-1.40625,0.0,0.0,-1.5470085470085468,0.5347985347985348,6.857142857142858,-1.09375,0.0,0.0,-1.5897435897435896,0.757020757020757,6.283272283272282,-0.75,0.0,0.0,-0.978021978021978,0.5152625152625152,5.470085470085469,0.0,0.0,0.0,-0.6263736263736264,0.0,3.8962148962148966,0.0,0.0,0.0,-0.9926739926739928,0.0,2.958485958485958,0.0,0.0,0.0,-1.0463980463980465,0.0,2.7399267399267404,0.0,0.0,0.0,0.0,0.5848595848595849,2.623931623931624,0.0,0.0,0.0,0.0,0.0,1.47985347985348,0.0,0.0,0.0,-0.5958485958485958,0.0,0.0,0.0,0.0,0.0,0.0,0.0,-1.1367521367521367,0.0,0.0,0.0,0.0,0.0,-1.166056166056166,0.0,0.0,0.0,0.0,0.0,-0.978021978021978,0.0,0.0,0.0,0.0,0.0,-1.0818070818070815,0.0,0.0,0.0,0.0,0.0,-0.8083028083028083,0.0,0.0,0.0,0.0,0.0,-0.5054945054945055,0.0,0.0,0.0,0.0,0.0,0.0,0.0,0.0,0.0,0.0,0.0,0.0,0.0,0.0,0.0,0.0,0.0,0.0,0.0,0.0,0.0,,,,,,,,,,,,,,,,,,,,,,,,,,,,,,,,,,,,,,,,,,,,,,,,,,,,,,,,,,,,,,,,,,,,,,,,,,,,,,,,,,,,,,,,,,,,,,,,,,,,,,,,,,,,,,,,,,,,,,,,,,,,,,,,,,,,,,,,,,,,,,,,,,,,,,,landR
accX,0.9865689865689866,-1.1404151404151404,-0.7387057387057387,0.0,0.0,0.0,0.9755799755799756,0.0,-0.8241758241758241,0.0,-0.5625,0.0,0.0,0.0,-2.0,0.0,0.0,0.0,-1.037851037851038,0.0,-4.087912087912088,0.0,0.0,0.0,-0.706959706959707,-1.6971916971916972,-6.261294261294261,0.0,0.9375,0.0,-0.5274725274725275,-2.761904761904762,-6.993894993894994,-0.625,1.40625,0.0,0.0,-2.8925518925518925,-6.37973137973138,-1.1875,1.65625,0.0,-1.092796092796093,-1.5042735042735045,-5.3992673992674005,-1.25,1.59375,0.0,-0.7545787545787546,-2.407814407814408,-5.190476190476192,-1.09375,1.6875,0.0,0.8400488400488401,-2.2967032967032965,-4.037851037851038,-1.28125,1.71875,0.0,0.9914529914529916,-2.1074481074481075,-3.1709401709401708,-1.21875,1.46875,0.0,0.6752136752136753,-2.147741147741148,-2.807081807081807,-1.09375,1.15625,0.0,0.0,-2.600732600732601,-2.6984126984126986,-1.1875,1.15625,0.0,0.5115995115995116,-2.283272283272283,-1.637362637362637,-1.375,1.28125,0.0,0.0,-1.7545787545787546,0.0,-1.34375,1.0625,0.0,0.0,-1.092796092796093,1.0952380952380951,-1.15625,0.71875,0.0,0.0,-1.4713064713064714,1.6446886446886446,-0.8125,0.0,0.0,-1.5775335775335777,-2.41025641025641,1.192918192918193,-1.0,0.0,0.0,-1.199023199023199,-1.293040293040293,2.6434676434676434,-1.34375,1.09375,-0.5625,0.0,-0.5982905982905983,4.17948717948718,-1.21875,0.6875,-0.59375,-0.5103785103785103,-1.0231990231990231,4.280830280830282,-1.40625,0.0,-0.5625,-1.656898656898657,0.0,5.001221001221001,-1.375,0.0,0.0,-1.6031746031746033,0.0,5.007326007326007,-1.1875,0.0,0.0,-1.7179487179487178,0.0,5.118437118437118,-1.125,0.5625,0.0,-0.7863247863247863,0.518925518925519,5.439560439560441,-0.96875,0.0,0.0,-1.413919413919414,1.0488400488400489,5.904761904761906,-0.84375,0.0,0.0,-1.2405372405372406,0.8217338217338217,5.996336996336996,-0.84375,0.0,0.0,-1.5604395604395604,1.1013431013431014,6.230769230769232,-0.84375,0.0,0.0,-1.525030525030525,1.7753357753357752,6.258852258852259,0.0,0.0,0.0,-1.5384615384615383,1.2820512820512822,4.907203907203908,0.0,0.0,0.0,-0.6324786324786325,-0.8473748473748474,0.5518925518925519,0.0,0.0,0.0,0.0,-1.144078144078144,0.0,0.0,0.0,0.0,0.0,-0.7777777777777778,-0.8962148962148963,0.0,0.0,0.0,0.0,0.0,-1.1965811965811963,0.0,0.0,0.0,0.0,0.0,-1.1452991452991452,0.0,0.0,0.0,0.0,0.0,-1.2014652014652014,0.0,0.0,0.0,0.0,0.0,-0.8705738705738706,0.0,0.0,0.0,0.0,0.0,0.0,0.0,0.0,0.0,0.0,0.0,0.0,0.0,0.0,0.0,0.0,0.0,0.0,0.0,0.0,0.0,0.0,0.0,0.0,0.0,0.0,0.0,0.6581196581196581,0.0,0.0,0.0,0.0,0.0,0.0,0.0,0.0,0.0,0.0,0.0,0.0,0.0,0.0,0.0,0.0,0.0,0.0,0.0,0.0,0.0,0.0,0.0,0.0,0.0,0.0,0.0,0.0,0.0,0.0,0.0,0.0,0.0,0.0,0.0,0.0,0.0,0.0,0.0,0.0,0.0,,,,,,,,,,,,,,,,,,,,,,,,,,,,,,,,,,,,,,,,,,,,,,,,,,,,,,,,,,,,,,,,,,,,,,,,,,,,,,,,,,,,,,,,,,,,,,,,,,,,,,,,,,,,,,,,,,,landR
accX,0.0,0.0,0.0,0.0,-0.53125,0.0,-0.5079365079365079,0.0,0.0,0.0,-0.65625,0.0,0.0,0.0,-0.7106227106227107,0.0,-0.53125,0.0,0.8034188034188035,-0.7203907203907204,-1.9743589743589745,0.0,-0.625,0.0,0.0,-0.5628815628815629,-3.120879120879121,0.0,-0.75,0.0,-1.0537240537240538,-0.6239316239316239,-3.8656898656898657,0.0,0.0,0.0,0.0,0.0,-4.069597069597069,0.0,0.53125,0.0,1.612942612942613,-2.5946275946275947,-5.1001221001221,0.0,0.9375,0.0,1.1709401709401708,-2.1135531135531136,-4.769230769230768,-0.71875,0.625,0.0,-0.8400488400488401,-2.2014652014652016,-4.971916971916972,-0.90625,1.125,0.0,0.0,-1.6971916971916972,-4.308913308913309,-0.96875,1.40625,0.0,0.0,-1.1623931623931625,-3.4420024420024418,-0.84375,1.25,0.0,0.0,-1.3614163614163617,-2.9694749694749696,-0.78125,1.125,0.0,0.5763125763125763,-1.7826617826617828,-3.2136752136752142,-0.78125,1.09375,0.0,1.072039072039072,-1.6141636141636142,-3.102564102564102,-0.6875,0.75,0.0,0.5018315018315018,-1.8266178266178263,-3.0830280830280827,-0.65625,0.65625,0.0,0.0,-1.989010989010989,-3.1257631257631258,-0.9375,0.75,-0.5625,0.0,-1.6495726495726497,-2.417582417582417,-0.875,0.59375,-0.5625,0.0,-0.9059829059829059,-1.761904761904762,-0.8125,0.0,0.0,-0.5372405372405372,-1.4065934065934067,-1.4871794871794872,-0.8125,0.0,0.0,0.0,-0.9768009768009768,-0.5604395604395604,-1.15625,0.53125,0.0,-0.7851037851037851,-0.6349206349206349,0.5604395604395604,-1.1875,0.0,0.0,-0.6068376068376068,0.0,2.242979242979243,-1.21875,0.59375,0.0,-0.6544566544566545,0.0,2.9218559218559217,-1.15625,0.0,0.0,-1.5592185592185592,0.0,3.1916971916971923,-1.28125,0.0,0.0,-0.5543345543345544,0.0,4.058608058608058,-1.5625,0.65625,0.0,-0.9792429792429792,0.0,4.53968253968254,-1.625,0.0,-0.53125,-1.5018315018315018,0.0,4.873015873015873,-1.5,0.0,0.0,-1.4615384615384617,0.0,5.2173382173382175,-1.4375,0.53125,0.0,-0.6617826617826618,0.0,5.075702075702075,-1.375,0.0,0.0,-1.0598290598290598,0.0,5.196581196581198,-1.3125,0.0,0.0,-1.6495726495726497,0.5958485958485958,5.124542124542124,-0.6875,0.0,0.0,-1.4981684981684982,0.0,4.299145299145299,0.0,0.0,0.0,-0.7435897435897436,0.0,3.56043956043956,0.0,0.0,0.0,0.0,-0.6837606837606838,2.8608058608058613,0.0,0.0,0.0,-0.9291819291819292,0.0,2.9694749694749696,0.0,0.0,0.0,-1.387057387057387,0.0,2.518925518925519,0.0,0.0,0.0,-0.9743589743589745,0.0,2.214896214896215,0.0,0.0,0.0,0.0,0.0,1.051282051282051,0.0,0.0,0.0,0.0,0.0,0.0,0.0,0.0,0.0,0.0,0.0,0.0,0.0,0.0,0.0,0.0,0.0,0.0,0.0,0.0,0.0,0.0,0.0,0.0,0.0,0.0,0.0,0.0,0.0,0.0,0.0,0.0,0.0,0.0,0.0,0.0,0.0,0.0,0.0,0.0,0.0,0.0,0.0,0.0,0.0,0.0,0.0,0.0,0.0,0.0,0.0,0.0,0.0,0.0,0.0,0.0,0.0,0.0,0.0,0.0,0.0,0.0,0.0,0.0,0.0,0.0,0.0,0.0,0.0,0.0,0.0,0.0,0.0,0.0,0.0,0.0,0.0,0.0,0.0,0.0,0.0,0.0,0.0,0.0,0.0,0.0,0.0,0.0,0.0,0.0,0.0,0.0,0.0,0.0,0.0,0.7191697191697192,0.0,0.0,0.0,,,,,,,,,,,,,,,,,,,,,,,,,,,,,,,,,,,,,,,,,,,,,,,,,,,,,,,,,,,,,,,,,,,,,,,,,landR
accX,0.0,0.0,0.6678876678876678,0.0,-0.6875,0.0,0.0,0.0,0.0,0.0,-0.6875,0.0,0.0,0.0,0.0,0.0,-0.59375,0.0,0.0,0.0,-0.6910866910866911,0.0,0.0,0.0,0.0,-0.514041514041514,-1.800976800976801,0.0,0.0,0.0,0.0,-0.9462759462759462,-2.9328449328449326,0.0,0.0,0.0,0.0,-1.4224664224664223,-3.892551892551893,0.0,0.0,0.0,0.0,-1.4090354090354091,-4.4163614163614175,0.0,0.625,0.0,0.6691086691086691,-2.029304029304029,-5.04029304029304,0.0,0.9375,0.0,0.7057387057387058,-2.227106227106227,-5.00976800976801,0.0,0.96875,0.0,-0.5274725274725275,-1.4517704517704515,-4.203907203907204,-0.53125,0.75,0.0,-1.5164835164835164,-0.7326007326007326,-3.9230769230769234,-0.5625,0.9375,0.0,0.0,-0.5421245421245421,-3.2857142857142856,0.0,0.96875,0.0,0.0,-1.3504273504273503,-3.4322344322344316,0.0,0.0,0.0,-0.8327228327228328,-2.7826617826617825,-4.550671550671551,-0.625,0.6875,0.0,-0.6776556776556777,-2.888888888888889,-4.452991452991453,-1.125,1.34375,0.0,0.0,-1.5763125763125765,-3.051282051282051,-1.15625,1.40625,0.0,0.0,-1.4261294261294262,-2.155067155067155,-1.125,1.0625,0.0,0.0,-0.8107448107448108,-0.7350427350427351,-1.0,0.75,0.0,0.0,-1.0085470085470083,0.0,-0.9375,0.6875,0.0,-1.0952380952380951,-1.4175824175824177,0.0,-1.0625,0.96875,0.0,0.0,-0.5274725274725275,0.9194139194139194,-0.9375,0.875,0.0,0.0,0.0,1.4774114774114775,-0.75,0.0,0.0,-0.6593406593406593,0.0,1.8070818070818069,-0.5625,0.0,0.0,0.0,-1.286935286935287,0.8901098901098901,-1.03125,0.625,0.0,0.0,-0.5335775335775336,1.2405372405372406,-1.21875,0.0,-0.59375,0.0,0.0,1.3345543345543345,-1.21875,0.0,-0.5625,0.0,0.0,1.8473748473748477,-1.28125,0.0,-0.59375,-0.8107448107448108,0.0,1.8180708180708183,-1.3125,0.0,-0.625,-1.0427350427350428,0.0,1.956043956043956,-1.21875,0.0,-0.5625,-0.5103785103785103,0.0,2.004884004884005,-1.09375,0.0,0.0,-0.9010989010989012,0.0,2.3504273504273505,-1.1875,0.0,0.0,-1.6923076923076923,0.7057387057387058,3.78998778998779,-1.375,0.0,0.0,-1.9230769230769231,0.989010989010989,4.650793650793651,-1.375,0.0,0.0,-1.8778998778998781,1.293040293040293,5.439560439560441,-1.15625,0.0,0.0,-1.468864468864469,1.0122100122100122,5.626373626373627,-0.875,0.0,0.0,-1.1367521367521367,0.0,5.119658119658119,-0.65625,0.0,0.0,-1.021978021978022,0.0,4.593406593406592,0.0,0.0,0.0,-1.092796092796093,0.0,3.8461538461538463,0.0,0.0,0.0,-0.6251526251526252,0.0,2.954822954822955,0.0,0.0,0.0,0.0,-0.8571428571428571,1.8119658119658117,0.0,0.0,0.0,0.0,-0.6007326007326007,0.9536019536019535,0.0,0.0,0.0,0.0,0.0,0.0,0.0,0.0,0.0,0.0,0.0,0.0,0.0,0.0,0.0,0.0,0.0,0.0,0.0,0.0,0.0,0.0,0.0,0.0,0.0,0.0,0.0,0.0,0.0,0.0,0.0,0.0,0.0,0.0,0.0,0.0,0.0,0.0,0.0,0.0,0.0,0.0,0.0,0.0,0.0,0.0,0.0,0.0,0.0,0.0,0.0,0.0,0.0,0.0,0.0,0.0,0.0,0.0,0.0,0.0,0.0,0.0,0.0,,,,,,,,,,,,,,,,,,,,,,,,,,,,,,,,,,,,,,,,,,,,,,,,,,,,,,,,,,,,,,,,,,,,,,,,,,,,,,,,,,,,,,,,,,,landR
accX,0.0,0.0,-0.8876678876678876,0.0,0.0,0.0,0.0,0.0,-0.8229548229548229,0.0,-0.5625,0.0,0.0,0.0,-2.8962148962148966,0.0,0.0,0.0,0.0,-1.5067155067155067,-4.891330891330892,0.0,0.0,0.0,0.9645909645909646,-2.0659340659340657,-5.717948717948718,0.0,0.0,0.0,0.7875457875457875,-1.1452991452991452,-5.057387057387056,0.0,0.53125,0.0,1.1318681318681318,-1.2503052503052503,-5.075702075702075,0.0,0.75,0.0,0.6080586080586079,-1.5738705738705738,-4.996336996336996,0.0,0.625,0.0,0.0,-2.935286935286935,-5.8998778998779,0.0,0.0,0.0,-1.083028083028083,-2.642246642246642,-5.736263736263736,-0.59375,0.75,0.0,-0.9853479853479854,-2.0415140415140414,-4.442002442002441,-0.90625,1.1875,0.0,0.0,-1.6605616605616609,-3.3663003663003663,-0.875,1.375,0.0,0.0,-1.4578754578754578,-2.235653235653236,-0.65625,0.96875,0.0,0.0,-0.8388278388278388,-1.1355311355311355,0.0,0.625,0.0,-1.0195360195360197,-2.7045177045177047,-2.0244200244200243,-0.65625,0.75,0.0,-0.9853479853479854,-1.5457875457875458,-1.2625152625152625,-0.96875,0.96875,0.0,0.0,-0.8766788766788767,0.0,-0.875,0.65625,0.0,0.0,-0.9743589743589745,0.0,-0.875,0.0,0.0,-1.123321123321123,-0.5641025641025641,1.0012210012210012,-0.875,0.0,0.0,-1.2124542124542124,-0.8547008547008547,1.3028083028083028,-0.84375,0.0,0.0,-1.8070818070818069,-1.2405372405372406,0.9609279609279608,-1.125,0.75,0.0,-0.6959706959706959,-1.0451770451770452,1.5714285714285714,-1.28125,0.90625,0.0,0.0,-0.7167277167277167,2.628815628815629,-1.375,0.0,0.0,-0.7533577533577533,0.0,2.9841269841269837,-1.375,0.0,0.0,-1.290598290598291,0.0,2.9853479853479854,-1.4375,0.0,0.0,-1.442002442002442,0.0,3.1843711843711837,-1.34375,0.71875,0.0,-0.6862026862026862,0.9279609279609279,4.334554334554333,-1.28125,0.625,0.0,0.0,0.0,4.063492063492063,-1.1875,0.0,0.0,-0.6568986568986569,0.0,3.5811965811965814,-1.09375,0.0,0.0,-1.031746031746032,0.0,3.7228327228327234,-1.0625,0.0,0.0,-0.6813186813186813,0.0,4.547008547008547,-1.0625,0.53125,0.0,-0.6202686202686203,0.5079365079365079,4.516483516483516,-0.8125,0.0,0.0,-0.8901098901098901,0.7728937728937729,4.529914529914531,-0.53125,0.0,0.0,-0.9035409035409036,0.8840048840048841,4.542124542124542,0.0,0.0,0.0,-1.1013431013431014,1.010989010989011,4.00976800976801,0.0,0.0,0.0,-0.5262515262515263,0.7289377289377289,3.347985347985348,0.0,0.0,0.0,0.0,0.0,2.5579975579975582,0.0,0.0,0.0,0.0,0.0,1.0195360195360197,0.0,0.0,0.0,0.0,-0.8192918192918193,0.0,0.0,0.0,0.0,0.0,-1.021978021978022,-1.194139194139194,0.0,0.0,0.0,0.0,-0.5299145299145299,-1.0012210012210012,0.0,0.0,0.0,0.0,0.0,-0.7423687423687424,0.0,0.0,0.0,0.0,0.0,-0.7802197802197802,0.0,0.0,0.0,0.0,0.0,-0.6556776556776557,0.0,0.0,0.0,0.0,0.0,0.0,0.0,0.0,0.0,0.0,0.0,0.0,0.0,0.0,0.0,0.0,0.0,0.0,0.0,0.0,0.0,0.0,0.0,0.0,0.0,0.0,0.0,0.0,0.0,0.0,0.0,0.0,0.0,0.0,0.0,0.0,0.0,0.0,0.0,0.0,0.0,0.0,0.0,0.0,0.0,,,,,,,,,,,,,,,,,,,,,,,,,,,,,,,,,,,,,,,,,,,,,,,,,,,,,,,,,,,,,,,,,,,,,,,,,,,,,,,,,,,,,,,,,,,,,,,,,landR
accX,0.0,0.0,-0.5103785103785103,0.0,-0.5625,0.0,0.5323565323565324,0.5518925518925519,0.0,0.0,-0.875,0.0,0.0,0.0,-0.6654456654456654,0.5625,-0.96875,0.0,-0.7252747252747253,0.0,-3.330891330891331,0.0,-0.5625,0.0,-0.5946275946275946,-0.9902319902319904,-5.8840048840048835,0.0,0.0,0.0,0.0,-1.2442002442002442,-5.622710622710622,0.0,1.125,0.0,0.7484737484737485,-1.7155067155067154,-4.84004884004884,0.0,1.53125,0.5625,1.0402930402930404,-1.4395604395604396,-3.8180708180708174,-0.59375,1.21875,0.0,0.7032967032967034,-1.0695970695970696,-3.304029304029304,0.0,0.8125,0.0,0.0,-1.2515262515262515,-3.2991452991452985,0.0,0.0,0.0,-0.8864468864468864,-2.6825396825396823,-4.68986568986569,0.0,0.65625,0.0,0.0,-2.053724053724053,-4.65934065934066,-0.59375,1.21875,0.0,0.8437118437118437,-1.5433455433455434,-3.8852258852258847,-0.84375,1.03125,0.0,-0.5201465201465202,-0.6312576312576312,-2.455433455433456,-0.9375,0.6875,0.0,-0.7875457875457875,0.0,-1.4273504273504274,-0.71875,0.59375,0.0,-0.7374847374847375,-0.9609279609279608,-1.4542124542124542,-0.5625,0.625,0.0,0.0,-1.7032967032967032,-1.5543345543345544,-0.625,0.625,0.0,0.0,-2.051282051282051,-1.061050061050061,-0.75,0.0,0.0,0.0,-2.694749694749695,-0.7509157509157509,-0.96875,0.0,0.0,0.0,-3.208791208791209,0.0,-1.3125,0.0,0.0,-0.7252747252747253,-2.5995115995116,1.0329670329670328,-1.53125,0.0,0.0,-1.5396825396825398,-1.4432234432234432,2.203907203907204,-1.53125,0.71875,0.0,-0.6288156288156288,-0.9255189255189256,3.421245421245421,-1.40625,0.90625,0.0,0.0,-0.8400488400488401,4.12087912087912,-1.53125,0.65625,-0.53125,0.0,-0.6776556776556777,4.3125763125763115,-1.625,0.0,0.0,-0.6349206349206349,0.0,4.671550671550672,-1.53125,0.0,0.0,-1.4908424908424909,0.0,4.647130647130648,-1.25,0.0,0.0,-1.2307692307692308,0.7667887667887668,4.3699633699633695,-0.90625,0.625,0.0,0.0,0.0,4.148962148962149,-0.84375,0.0,0.0,-0.6739926739926739,-0.6019536019536019,3.2442002442002438,-0.9375,0.0,0.0,-1.3015873015873016,0.0,2.884004884004884,-0.90625,0.0,0.0,-1.5042735042735045,0.7826617826617827,3.664224664224663,-0.71875,0.0,0.0,-0.6874236874236874,0.9255189255189256,4.450549450549451,0.0,0.5625,0.0,0.0,0.6923076923076923,4.225885225885226,0.0,0.0,0.0,-0.9255189255189256,0.6178266178266179,3.291819291819292,0.0,0.0,0.0,-1.1001221001221002,0.0,2.36019536019536,0.0,0.0,0.0,0.0,0.0,1.271062271062271,0.0,0.0,0.0,0.0,-0.6275946275946276,0.0,0.0,0.0,0.0,0.0,-0.9731379731379732,0.0,0.0,0.0,0.0,0.0,-0.9084249084249084,-0.8815628815628815,0.0,0.0,0.0,0.0,0.0,-0.5299145299145299,0.0,0.0,0.0,0.0,0.0,0.0,0.0,0.0,0.0,0.0,0.0,0.0,0.0,0.0,0.0,0.0,0.0,0.0,0.0,0.0,0.0,0.0,0.0,0.0,0.0,0.0,0.0,0.0,0.0,0.0,0.0,0.0,0.0,0.0,0.0,0.0,0.0,0.0,0.0,0.0,0.0,0.0,0.0,0.0,0.0,0.0,0.0,0.0,0.0,0.0,0.0,0.0,0.0,0.0,0.0,0.0,0.0,0.0,0.0,0.0,0.0,0.0,0.0,0.0,0.0,0.0,0.0,0.0,0.0,0.0,0.0,0.0,0.0,0.0,0.0,,,,,,,,,,,,,,,,,,,,,,,,,,,,,,,,,,,,,,,,,,,,,,,,,,,,,,,,,,,,,,,,,,,,,,,,,,,,,,,,,,,,,landR
accX,0.0,0.0,-0.5604395604395604,0.0,0.0,0.0,0.0,0.6739926739926739,-0.8412698412698413,0.0,0.0,0.0,0.8302808302808303,0.6068376068376068,-1.2637362637362637,0.0,0.0,0.0,0.7032967032967034,-0.5531135531135531,-2.5531135531135534,0.0,0.0,0.0,0.0,-1.293040293040293,-3.383394383394384,0.0,0.0,0.0,0.0,-1.2796092796092795,-3.4090354090354085,0.0,0.0,0.0,0.0,-1.010989010989011,-3.5225885225885225,-0.625,0.0,0.0,0.0,-1.4603174603174602,-3.695970695970696,-0.59375,0.59375,0.0,0.7045177045177046,-1.8363858363858363,-3.7216117216117217,-0.59375,0.75,0.0,0.0,-2.5982905982905984,-4.156288156288157,-0.84375,0.78125,0.0,0.0,-1.326007326007326,-3.7142857142857135,-1.15625,0.84375,0.0,0.0,0.0,-3.2539682539682535,-0.8125,0.84375,0.0,0.0,0.0,-2.973137973137973,0.0,0.71875,0.0,0.0,-1.945054945054945,-3.877899877899878,0.0,0.0,0.0,-0.94993894993895,-3.247863247863248,-4.914529914529915,-0.53125,0.90625,0.0,0.0,-2.418803418803418,-3.855921855921856,-0.59375,1.09375,0.0,0.0,-2.155067155067155,-2.3943833943833943,-0.65625,0.84375,0.0,0.0,-1.6349206349206349,-1.2002442002442002,-0.625,0.0,0.0,0.0,-1.8852258852258847,-0.8498168498168498,-0.625,0.0,0.0,-1.706959706959707,-3.0305250305250304,-1.4065934065934067,-0.96875,0.0,0.0,-1.7826617826617828,-2.3553113553113554,-0.7387057387057387,-1.28125,1.03125,0.0,0.0,-1.8864468864468864,0.8937728937728938,-1.4375,1.1875,0.0,0.0,-1.6251526251526252,2.238095238095238,-1.53125,0.71875,0.0,-0.8876678876678876,0.0,3.615384615384616,-1.59375,0.5625,-0.53125,-1.092796092796093,0.0,4.305250305250305,-1.65625,0.75,-0.59375,-0.5726495726495726,0.0,4.694749694749695,-1.59375,0.75,-0.5625,-0.6520146520146519,0.0,4.493284493284493,-1.5,0.0,0.0,-1.3150183150183148,0.0,4.551892551892552,-1.375,0.0,0.0,-1.1721611721611722,0.7753357753357754,5.096459096459097,-1.28125,0.0,0.0,-1.2319902319902318,1.0366300366300367,5.498168498168498,-1.125,0.5625,0.0,-0.8998778998778999,0.7863247863247863,5.017094017094017,-0.8125,0.0,0.0,-0.7240537240537241,0.0,3.9413919413919416,-0.53125,0.0,0.0,-0.8595848595848596,0.0,2.84004884004884,0.0,0.0,0.0,-0.6666666666666666,0.0,2.0183150183150182,0.0,0.0,0.0,-0.7460317460317459,0.0,1.7765567765567765,0.0,0.0,0.0,-0.6703296703296703,0.0,1.9352869352869355,0.0,0.0,0.0,0.0,0.0,1.9108669108669107,0.0,0.0,0.0,-0.8412698412698413,0.0,2.1147741147741153,0.0,0.0,0.0,-0.8034188034188035,0.6520146520146519,2.184371184371184,0.0,0.0,0.0,-0.6715506715506715,0.0,1.536019536019536,0.0,0.0,0.0,-0.503052503052503,0.0,0.7350427350427351,0.0,0.0,0.0,0.0,-0.6849816849816851,0.0,0.0,0.0,0.0,0.0,-0.6227106227106227,-0.7716727716727717,0.0,0.0,0.0,0.0,-0.5299145299145299,-0.8620268620268621,0.0,0.0,0.0,0.0,0.0,-0.7496947496947497,0.0,0.0,0.0,0.0,0.0,-0.5091575091575091,0.0,0.0,0.0,0.0,0.0,-0.7838827838827839,0.0,0.0,0.0,0.0,0.0,0.0,0.0,0.0,0.0,0.0,0.0,0.0,0.0,0.0,0.0,0.0,0.0,0.0,0.0,0.0,0.0,0.0,0.0,0.0,0.0,0.0,0.0,0.0,0.0,0.0,0.0,0.0,0.0,0.0,0.0,0.0,0.0,0.0,0.0,0.0,0.0,0.0,0.0,0.0,0.0,0.0,0.0,0.0,0.0,0.0,0.0,0.0,0.0,0.0,0.0,0.0,0.0,0.0,0.0,0.0,0.0,0.0,0.0,0.0,0.0,0.0,0.0,0.0,0.0,,,,,,,,,,,,,,,,,,,,,,,,,,,,,,,,,,,,,,,,,,,,,,,,,,,,,,,landR
accX,0.0,0.5103785103785103,0.0,0.0,-0.75,0.0,-0.5738705738705738,0.0,0.0,0.0,-0.71875,0.0,-0.8705738705738706,0.0,-0.7203907203907204,0.0,0.0,0.0,0.0,0.0,-1.0989010989010992,0.0,0.0,0.0,0.0,0.0,-1.6752136752136753,0.0,0.0,0.0,0.0,0.0,-2.601953601953602,0.0,0.0,0.0,0.0,0.0,-4.172161172161172,0.0,0.0,0.0,0.0,-0.7289377289377289,-4.78021978021978,0.0,0.0,0.0,1.387057387057387,-1.0488400488400489,-4.741147741147741,0.0,0.5625,0.0,1.612942612942613,-1.0757020757020757,-4.333333333333333,0.0,0.0,0.0,0.8315018315018315,-0.5274725274725275,-3.9951159951159956,0.0,0.0,0.0,0.0,-1.6092796092796091,-4.984126984126983,0.0,0.0,0.0,0.0,-2.9255189255189253,-5.87057387057387,-0.59375,0.0,0.0,-0.5482295482295483,-2.8205128205128207,-5.688644688644688,-1.1875,0.8125,0.0,0.0,-1.4505494505494505,-4.181929181929182,-1.21875,0.875,0.0,0.0,-0.8876678876678876,-3.0134310134310134,-0.8125,0.71875,0.0,0.0,-1.1428571428571428,-2.1868131868131866,0.0,0.0,0.0,0.5103785103785103,-2.086691086691087,-1.7924297924297925,0.0,0.0,0.0,-0.6813186813186813,-3.888888888888889,-2.827838827838828,-0.9375,0.0,0.0,-0.9731379731379732,-2.4322344322344316,-1.948717948717949,-1.34375,0.9375,0.0,0.0,-1.6214896214896215,0.0,-1.03125,0.59375,0.0,0.0,-1.2686202686202686,0.8009768009768009,-1.0,0.0,0.0,-0.873015873015873,-1.1562881562881564,1.2527472527472527,-1.15625,0.0,0.0,-1.1257631257631258,-0.5921855921855922,1.4603174603174602,-1.375,0.0,0.0,0.0,-0.7081807081807082,1.943833943833944,-1.34375,0.5625,0.0,0.0,-1.105006105006105,2.147741147741148,-1.3125,0.0,0.0,0.0,-0.6349206349206349,2.8351648351648358,-1.5,0.0,0.0,-0.9145299145299144,0.0,3.274725274725274,-1.625,0.0,0.0,-1.1477411477411477,0.0,3.660561660561661,-1.65625,0.0,0.0,-0.6654456654456654,0.0,4.12087912087912,-1.5625,0.53125,0.0,-0.5006105006105006,0.0,4.626373626373627,-1.46875,0.0,0.0,-0.8083028083028083,0.0,5.394383394383395,-1.5,0.0,0.0,-0.8644688644688645,1.297924297924298,6.496947496947497,-1.1875,0.0,0.0,-0.8925518925518926,1.6043956043956045,6.598290598290597,-0.75,0.0,0.0,-0.6129426129426129,1.2954822954822955,6.026862026862028,0.0,0.0,0.0,-0.8192918192918193,0.7936507936507936,4.853479853479853,0.0,0.0,0.0,-0.7216117216117216,0.0,3.8424908424908426,0.0,0.0,0.0,-0.7741147741147741,0.0,2.7423687423687424,0.0,0.0,0.0,0.0,0.0,2.0061050061050056,0.0,0.0,0.0,0.0,0.0,1.1489621489621489,0.0,0.0,0.0,0.0,0.0,0.0,0.0,0.0,0.0,0.0,0.0,0.0,0.0,0.0,0.0,0.0,0.0,-0.5335775335775336,0.0,0.0,0.0,0.0,0.0,-0.5054945054945055,0.0,0.0,0.0,0.0,0.0,0.0,0.0,0.0,0.0,0.0,0.0,0.0,0.0,0.0,0.0,0.0,0.0,0.0,0.0,0.0,0.0,0.0,0.0,0.0,0.0,0.0,0.0,0.0,0.0,-0.5726495726495726,0.0,0.0,0.0,0.0,0.0,-0.514041514041514,0.0,0.0,0.0,0.0,0.0,0.0,0.0,0.0,0.0,0.0,0.0,0.0,0.0,0.0,0.0,0.0,0.0,0.0,0.0,0.0,0.0,0.0,0.0,0.0,0.0,0.0,0.0,0.0,0.0,0.7191697191697192,0.0,0.0,0.0,0.0,0.0,0.8253968253968254,0.0,0.0,0.0,0.0,0.0,0.6898656898656899,0.0,0.0,0.0,0.0,0.0,0.8363858363858364,0.0,0.0,0.0,0.0,0.0,1.164835164835165,0.0,0.0,0.0,,,,,,,,,,,,,,,,,,,,,,,,,,,,,,,,,,,,,,,,,,,,,,,,,landR
accX,0.0,0.0,0.5897435897435898,0.0,0.0,0.0,0.0,0.0,0.0,0.0,0.0,0.0,-0.5726495726495726,0.9401709401709402,0.0,0.0,0.0,0.0,0.0,0.5763125763125763,0.0,0.0,0.0,0.0,-0.7948717948717948,0.9584859584859584,-0.5445665445665445,0.0,0.0,0.0,0.0,0.0,-1.0451770451770452,0.53125,0.0,0.0,0.956043956043956,-1.0769230769230769,-2.435897435897436,0.0,0.0,0.0,1.434676434676435,-1.6996336996336996,-4.261294261294261,0.0,0.0,0.0,1.3992673992673992,-1.413919413919414,-4.914529914529915,0.0,0.0,0.0,0.0,-1.0146520146520146,-5.1562881562881575,0.0,0.71875,0.0,0.0,-0.6312576312576312,-4.833943833943834,0.0,1.0625,0.0,0.6092796092796092,-0.5372405372405372,-4.528693528693529,0.0,0.90625,0.0,0.0,0.0,-3.957264957264957,0.0,0.8125,0.0,0.9352869352869352,-0.8803418803418803,-3.804639804639805,0.0,0.0,0.0,0.0,-2.593406593406593,-4.588522588522588,0.0,0.0,0.0,0.0,-1.978021978021978,-4.264957264957265,-0.75,0.0,0.0,0.0,-0.971916971916972,-3.33943833943834,-0.5625,0.0,0.0,0.0,-1.678876678876679,-3.514041514041514,0.0,0.0,0.0,0.0,-2.5506715506715505,-3.2991452991452985,-0.75,0.0,0.0,0.0,-3.0940170940170937,-3.1514041514041518,-1.25,0.6875,0.0,0.0,-2.31013431013431,-1.9731379731379728,-1.5625,0.875,-0.5625,0.0,-0.7130647130647131,0.0,-1.5,0.59375,0.0,0.0,-1.0085470085470083,0.6166056166056166,-1.28125,0.0,0.0,0.0,-2.5177045177045176,-0.7777777777777778,-1.25,0.0,0.0,-1.1184371184371185,-2.2210012210012207,0.0,-1.59375,0.65625,0.0,0.5518925518925519,-1.9951159951159951,0.7533577533577533,-1.78125,0.90625,-0.5625,0.5054945054945055,-2.3223443223443225,1.3125763125763126,-1.78125,0.0,-0.625,-0.7997557997557998,-1.4468864468864469,2.3650793650793656,-1.875,0.0,-0.59375,-1.4041514041514038,-0.7753357753357754,3.42002442002442,-1.6875,0.0,-0.53125,-1.3785103785103785,-0.5286935286935287,4.311355311355311,-1.5,0.59375,-0.53125,-0.818070818070818,-0.663003663003663,4.927960927960927,-1.40625,0.53125,-0.53125,-1.5054945054945057,0.0,5.875457875457876,-1.375,0.0,0.0,-1.534798534798535,0.0,6.091575091575091,-1.28125,0.0,0.0,-1.3785103785103785,0.7753357753357754,6.490842490842492,-1.03125,0.0,0.0,-1.1807081807081807,0.9047619047619048,6.5103785103785095,-0.8125,0.0,0.0,-1.175824175824176,0.8852258852258852,6.12087912087912,-0.5625,0.0,0.0,-0.9023199023199024,0.5054945054945055,4.782661782661783,0.0,0.0,0.0,-0.9487179487179488,0.0,2.8253968253968256,0.0,0.0,0.0,-0.6532356532356532,0.0,1.6398046398046398,0.0,0.0,0.0,0.0,0.0,1.4334554334554337,0.0,0.0,0.0,0.0,0.5726495726495726,2.0354090354090357,0.0,0.0,0.0,-0.6349206349206349,0.8485958485958486,1.8559218559218558,0.0,0.0,0.0,-1.0964590964590966,0.7814407814407814,1.3394383394383391,0.0,0.0,0.0,0.0,0.0,0.0,0.0,0.0,0.0,0.0,-0.8376068376068376,-0.6446886446886447,0.0,0.0,0.0,0.0,0.0,0.0,0.0,0.0,0.0,0.0,0.0,0.0,0.0,0.0,0.0,0.0,0.0,0.0,0.0,0.0,0.0,0.0,0.0,-0.8205128205128205,0.0,0.0,0.0,0.0,0.0,-0.5433455433455433,0.0,0.0,0.0,0.0,0.0,0.0,0.0,0.0,0.0,0.0,0.7081807081807082,0.0,0.0,0.0,0.0,0.0,0.5641025641025641,0.6275946275946276,0.0,0.0,0.0,0.0,0.0,0.5653235653235653,0.0,0.0,0.0,0.0,0.0,0.0,0.0,0.0,0.0,0.0,0.0,0.0,0.0,0.0,0.0,0.0,0.0,0.7118437118437119,0.0,0.0,0.0,0.0,0.0,0.9377289377289376,0.0,0.0,0.0,,,,,,,,,,,,,,,,,,,,,,,,,,,,,,,,,,,,,,,,,,,,,,,,,,,,,,,landR
accX,0.0,0.0,0.0,0.0,0.0,0.0,0.0,0.0,-0.5384615384615384,0.0,0.0,0.0,-0.6581196581196581,0.5567765567765568,-1.0525030525030523,0.0,0.0,0.0,0.0,-0.5750915750915749,-1.8864468864468864,0.0,0.0,0.0,0.0,-0.6971916971916972,-2.1904761904761907,0.0,0.0,0.0,0.0,-0.5372405372405372,-2.2954822954822958,0.0,0.0,0.0,0.0,-0.8083028083028083,-2.765567765567765,0.0,0.5625,0.0,0.8083028083028083,-0.9462759462759462,-2.7826617826617825,0.0,0.5625,0.0,0.9682539682539684,-1.0879120879120878,-2.9035409035409034,0.0,0.5625,0.0,0.0,-1.5128205128205128,-3.58974358974359,0.0,0.6875,0.0,0.7191697191697192,-1.3455433455433456,-3.6495726495726495,-0.59375,0.6875,0.0,0.9169719169719168,-0.8791208791208791,-3.102564102564102,0.0,0.5625,0.0,1.3577533577533578,-0.6886446886446886,-2.947496947496948,0.0,0.0,0.0,1.326007326007326,-0.5506715506715507,-3.418803418803418,0.0,0.0,0.0,0.0,-1.6336996336996337,-4.2905982905982905,0.0,0.0,0.0,-0.6959706959706959,-2.515262515262515,-5.003663003663004,0.0,0.0,0.0,0.0,-2.2503052503052503,-3.6996336996337003,-1.03125,1.03125,-0.5625,0.0,-0.7716727716727717,-1.9267399267399268,-1.1875,0.75,-0.5625,-0.6568986568986569,0.0,-0.7936507936507936,-0.8125,0.0,0.0,-0.7643467643467643,0.0,0.0,0.0,0.0,0.0,-1.0854700854700854,0.0,0.0,0.0,0.0,0.0,0.0,-1.7741147741147743,-1.4542124542124542,0.0,0.53125,0.0,0.0,-1.5995115995115996,-1.4774114774114775,-0.625,0.625,0.0,0.0,0.0,0.0,-1.1875,0.59375,0.0,0.0,0.0,1.1172161172161172,-1.34375,0.0,0.0,-0.9865689865689866,0.0,1.1318681318681318,-1.40625,0.0,0.0,-1.5079365079365081,0.0,1.442002442002442,-1.40625,0.0,0.0,-0.6996336996336996,-0.5128205128205128,2.23931623931624,-1.4375,0.71875,0.0,0.0,0.0,3.173382173382173,-1.40625,0.0,0.0,-0.5921855921855922,-0.6422466422466423,3.216117216117216,-1.375,0.0,0.0,-0.9474969474969476,0.0,4.095238095238095,-1.5,0.5625,0.0,-1.1611721611721613,0.0,4.742368742368742,-1.5625,0.59375,0.0,-0.9597069597069596,0.0,5.142857142857143,-1.4375,0.0,0.0,-1.126984126984127,0.6886446886446886,5.423687423687423,-1.125,0.0,0.0,-0.8217338217338217,0.0,4.82051282051282,-0.84375,0.0,0.0,-1.0268620268620268,0.0,3.8083028083028077,-0.6875,0.0,0.0,-0.8376068376068376,-0.5995115995115995,3.0805860805860807,-0.625,0.0,0.0,-0.6715506715506715,-0.6617826617826618,2.3455433455433456,-0.625,0.0,0.0,0.0,-0.5091575091575091,1.7692307692307692,0.0,0.0,0.0,-1.0305250305250304,0.0,2.2295482295482296,0.0,0.0,0.0,-1.0341880341880345,1.2832722832722834,3.0781440781440783,0.0,0.0,0.0,-0.9157509157509156,1.1514041514041513,3.0024420024420024,0.0,0.0,0.0,-0.7777777777777778,0.7435897435897436,2.352869352869353,0.0,0.0,0.0,-0.6043956043956044,0.0,1.293040293040293,0.0,0.0,0.0,0.0,0.0,0.0,0.0,0.0,0.0,0.0,-0.6520146520146519,0.0,0.0,0.0,0.0,0.0,-0.8424908424908425,-0.8717948717948718,0.0,0.0,0.0,0.0,-0.8376068376068376,-1.2271062271062272,0.0,0.0,0.0,0.0,0.0,-1.26007326007326,0.0,0.0,0.0,0.0,0.0,-1.1965811965811963,0.0,0.0,0.0,0.0,0.0,-0.8620268620268621,0.0,0.0,0.0,0.0,0.0,0.0,0.0,0.0,0.0,0.0,0.0,0.0,0.0,0.0,0.0,0.0,0.0,0.0,0.0,0.0,0.0,0.0,0.0,0.0,0.0,0.0,0.0,0.0,0.0,0.0,0.0,0.0,0.0,0.0,0.0,0.0,0.0,0.0,0.0,0.0,0.0,0.5347985347985348,0.0,0.0,0.0,0.0,0.0,0.94993894993895,0.0,0.0,0.0,0.0,0.0,1.0647130647130647,0.0,0.0,0.0,0.0,0.0,0.9975579975579976,0.0,0.0,0.0,0.0,0.0,0.9181929181929182,0.0,0.0,0.0,,,,,,,,,,,,,,,,,,,,,,,,,,,,,,,landR
accX,0.0,0.0,-0.6214896214896215,0.0,0.0,0.0,0.0,0.0,-1.195360195360195,0.0,0.0,0.0,0.0,0.0,-1.8217338217338217,0.0,0.0,0.0,0.568986568986569,0.0,-2.147741147741148,0.0,0.0,0.0,0.0,0.0,-2.3626373626373627,0.0,0.0,0.0,0.0,0.0,-3.073260073260073,0.0,0.0,0.0,0.6288156288156288,-1.0427350427350428,-4.164835164835165,0.0,0.53125,0.0,1.137973137973138,-0.9865689865689866,-4.5054945054945055,0.0,0.59375,0.0,1.3504273504273503,-0.6898656898656899,-4.117216117216117,0.0,0.0,0.0,0.0,-1.6105006105006106,-4.493284493284493,0.0,0.0,0.0,0.0,-3.7973137973137967,-6.2686202686202686,0.0,0.0,0.0,0.0,-3.003663003663004,-6.175824175824176,0.0,0.875,0.0,0.0,-1.5433455433455434,-4.785103785103785,-0.75,0.875,-0.53125,-0.6251526251526252,-1.0769230769230769,-3.7094017094017095,-0.65625,0.65625,-0.5625,-0.7997557997557998,-0.7924297924297924,-2.5384615384615383,0.0,0.0,0.0,-0.6825396825396826,-1.2612942612942613,-1.9572649572649568,0.0,0.0,0.0,0.0,-4.089133089133089,-3.2295482295482296,0.0,0.0,0.0,0.0,-4.3296703296703285,-2.6178266178266183,-1.25,0.71875,0.0,0.8070818070818071,-2.8656898656898657,0.0,-1.59375,0.0,-0.5625,0.0,-1.7753357753357752,0.9304029304029304,-1.34375,0.0,-0.5625,-0.5177045177045178,-1.2991452991452992,1.5518925518925517,-1.15625,0.0,-0.5625,-0.7765567765567766,-1.52014652014652,1.6153846153846154,-1.1875,0.0,-0.625,-1.4432234432234432,-1.188034188034188,1.6092796092796091,-1.28125,0.0,-0.6875,-1.0525030525030523,-1.6385836385836383,1.6935286935286935,-1.46875,0.0,-0.71875,-1.5457875457875458,-0.7594627594627594,2.8717948717948723,-1.65625,0.0,-0.71875,-1.277167277167277,0.0,4.152625152625153,-1.75,0.53125,-0.625,-0.8986568986568987,0.6935286935286935,5.678876678876679,-1.71875,0.0,-0.5625,-0.9413919413919414,1.0146520146520146,6.249084249084248,-1.59375,0.0,0.0,-0.6666666666666666,0.8485958485958486,6.135531135531137,-1.34375,0.0,0.0,-0.5457875457875457,0.0,5.434676434676435,-1.0,0.0,0.0,0.0,0.0,4.8949938949938945,-0.71875,0.0,0.0,0.0,0.0,4.3821733821733835,-0.65625,0.0,0.0,0.0,0.0,4.4041514041514045,-0.65625,0.0,0.0,0.0,0.6068376068376068,4.454212454212454,0.0,0.0,0.0,-0.525030525030525,0.0,3.8485958485958487,0.0,0.0,0.0,0.0,0.0,2.56043956043956,0.0,0.0,0.0,0.0,-0.7008547008547008,1.043956043956044,0.0,0.0,0.0,0.0,-0.7362637362637363,0.5213675213675214,0.0,0.0,0.0,0.0,0.0,0.7435897435897436,0.0,0.0,0.0,0.0,0.0,0.0,0.0,0.0,0.0,0.0,0.0,-0.7912087912087912,0.0,0.0,0.0,0.0,-0.5836385836385837,-1.4554334554334554,0.0,0.0,0.0,0.0,0.0,-1.3174603174603174,0.0,0.0,0.0,0.0,0.0,-0.6275946275946276,0.0,0.0,0.0,0.0,0.0,0.0,0.0,0.0,0.0,0.0,0.0,0.0,0.0,0.0,0.0,0.0,0.0,0.0,0.0,0.0,0.0,0.0,0.0,0.0,0.0,0.0,0.0,0.0,0.0,0.0,0.0,0.0,0.0,0.0,0.0,0.5824175824175825,0.0,0.0,0.0,0.0,0.0,0.0,0.0,0.0,0.0,0.0,0.0,0.0,0.0,0.0,0.0,0.0,0.0,0.0,0.0,0.0,0.0,0.0,0.0,0.0,0.0,0.0,0.0,0.0,0.0,0.0,0.0,0.0,0.0,0.0,0.0,1.0683760683760684,0.0,0.0,0.0,0.0,0.0,1.2185592185592184,0.0,0.0,0.0,,,,,,,,,,,,,,,,,,,,,,,,,,,,,,,,,,,,,,,,,,,,,,,,,,,,,,,,,,,,,landR
accX,0.0,0.5409035409035409,0.0,0.0,-0.5625,0.0,0.0,0.0,0.0,0.0,-0.65625,0.0,-0.7252747252747253,0.0,-0.7924297924297924,0.0,-0.53125,0.0,-0.5738705738705738,0.0,-1.4884004884004884,0.0,0.0,0.0,0.0,0.0,-2.1098901098901104,0.0,0.0,0.0,0.0,0.0,-2.3785103785103785,0.0,0.0,0.0,0.5482295482295483,-0.5445665445665445,-2.4688644688644694,0.0,0.0,0.0,1.072039072039072,-0.8827838827838828,-3.2954822954822958,0.0,0.0,0.0,0.0,0.0,-3.5445665445665444,0.0,0.0,0.0,0.0,-0.5726495726495726,-4.150183150183151,0.0,0.0,0.0,-0.873015873015873,-1.5225885225885225,-4.910866910866911,0.0,0.75,0.0,0.0,-1.9218559218559217,-5.157509157509158,0.0,0.96875,0.0,0.0,-1.7594627594627594,-4.4896214896214905,-0.53125,0.78125,0.0,0.0,-1.2405372405372406,-3.4810744810744816,-0.53125,0.5625,0.0,0.0,-0.6568986568986569,-2.948717948717949,0.0,0.0,0.0,-1.0305250305250304,-2.426129426129426,-3.523809523809524,0.0,0.5625,0.0,0.0,-1.7179487179487178,-3.144078144078144,0.0,0.5625,0.0,0.0,-1.2112332112332111,-1.8302808302808304,0.0,0.0,0.0,0.0,-0.9084249084249084,-0.7167277167277167,0.0,0.0,0.0,-0.6947496947496947,-1.9865689865689864,-1.1172161172161172,0.0,0.0,0.0,-0.9523809523809524,-2.1978021978021984,-1.612942612942613,-0.8125,0.5625,0.0,0.0,-0.5506715506715507,0.0,-1.25,0.53125,0.0,0.0,0.0,0.0,-1.125,0.0,0.0,0.0,-0.7912087912087912,0.0,-1.0,0.0,0.0,0.0,-1.7875457875457876,-0.8192918192918193,-1.09375,0.0,0.0,0.8315018315018315,-2.3626373626373627,-1.2039072039072038,-1.3125,0.0,0.0,0.6434676434676435,-2.147741147741148,0.0,-1.5625,0.0,0.0,0.63003663003663,-1.4896214896214897,1.3015873015873016,-1.84375,0.0,0.0,0.0,-1.1562881562881564,2.2771672771672766,-1.90625,0.0,0.0,0.0,-1.0879120879120878,2.68986568986569,-1.75,0.0,-0.53125,0.0,-0.7619047619047619,3.4847374847374852,-1.6875,0.0,0.0,-0.9536019536019535,0.0,4.4371184371184365,-1.65625,0.0,0.0,-1.3687423687423688,0.0,5.1611721611721615,-1.78125,0.0,0.0,-1.6117216117216118,0.9975579975579976,6.05006105006105,-1.6875,0.53125,0.0,-1.4700854700854702,1.8168498168498168,7.177045177045177,-1.3125,0.0,0.0,-1.277167277167277,1.8913308913308915,7.09035409035409,-0.78125,0.0,0.0,-1.195360195360195,1.6043956043956045,6.032967032967032,0.0,0.0,0.0,-1.0073260073260073,1.0854700854700854,5.007326007326007,0.0,0.0,0.0,-1.0024420024420024,0.6764346764346765,3.9023199023199022,0.0,0.0,0.0,0.0,0.0,2.36019536019536,0.0,0.0,0.0,0.0,-0.5958485958485958,0.9523809523809524,0.0,0.0,0.0,0.0,-0.6434676434676435,0.0,0.0,0.0,0.0,0.0,0.0,0.0,0.0,0.0,0.0,0.0,0.0,0.5567765567765568,0.0,0.0,0.0,0.0,0.6947496947496947,0.7264957264957265,0.0,0.0,0.0,0.0,0.0,0.0,0.0,0.0,0.0,0.0,0.0,0.0,0.0,0.0,0.0,0.0,0.0,0.0,0.0,0.0,0.0,0.0,0.0,0.0,0.0,0.0,0.0,0.0,0.0,0.0,0.0,0.0,0.0,0.0,0.0,-1.010989010989011,0.0,0.0,0.0,0.0,0.0,-0.8913308913308914,0.0,0.0,0.0,0.0,0.0,0.0,0.0,0.0,0.0,0.0,0.0,0.0,0.0,0.0,0.0,0.0,0.0,0.0,0.0,0.0,0.0,0.0,0.0,0.0,0.0,0.0,0.0,0.0,0.0,0.0,0.0,0.0,0.0,0.0,0.0,0.0,0.0,0.0,0.0,0.0,0.0,0.0,0.0,0.0,0.0,0.0,0.0,0.0,0.0,0.0,0.0,0.0,0.0,0.0,0.0,0.0,0.0,,,,,,,,,,,,,,,,,,,,,,,,,,,,,,,,,,,,,landR
accX,0.9279609279609279,0.0,0.0,0.0,-0.71875,0.0,1.2258852258852257,0.0,0.0,0.0,-1.125,0.0,0.0,0.0,-2.253968253968254,0.0,-0.84375,0.0,-0.5091575091575091,-1.120879120879121,-3.947496947496948,0.0,0.0,0.0,0.0,-0.6263736263736264,-4.289377289377289,0.0,0.0,0.0,0.0,-0.9816849816849816,-3.3675213675213675,0.0,0.0,0.0,0.0,-0.8937728937728938,-2.7252747252747254,0.0,0.0,0.0,0.0,-0.8559218559218559,-2.912087912087912,0.0,0.0,0.0,0.0,-0.8266178266178266,-3.1807081807081805,0.0,0.0,0.0,0.0,-1.641025641025641,-3.7851037851037854,0.0,0.0,0.0,-0.503052503052503,-2.851037851037851,-5.223443223443224,0.0,0.0,-0.53125,-1.0891330891330893,-2.105006105006105,-4.509157509157508,0.0,0.0,-0.53125,-0.63003663003663,-1.4835164835164836,-3.781440781440781,-0.625,0.59375,0.0,-0.5934065934065934,-1.0073260073260073,-2.956043956043956,-0.75,0.53125,0.0,0.0,-1.1538461538461535,-2.527472527472528,-0.71875,0.0,0.0,-0.557997557997558,-1.8021978021978025,-2.4346764346764345,-0.8125,0.0,0.0,-1.15995115995116,-1.752136752136752,-2.268620268620269,-1.15625,0.0,0.0,0.0,-1.3614163614163617,-0.984126984126984,-1.4375,0.625,0.0,0.6849816849816851,-1.4468864468864469,0.0,-1.40625,0.5625,0.0,0.0,-1.4505494505494505,0.0,-1.3125,0.0,0.0,-0.8571428571428571,-1.0427350427350428,0.8070818070818071,-1.28125,0.0,0.0,0.0,-1.0341880341880345,1.0561660561660562,-1.40625,0.625,0.0,0.0,-1.0952380952380951,1.4407814407814408,-1.75,0.0,0.0,0.0,-0.956043956043956,2.0061050061050056,-1.78125,0.0,0.0,0.0,-0.9572649572649572,2.0207570207570207,-1.65625,0.0,0.0,0.0,-0.6568986568986569,2.4346764346764345,-1.5625,0.0,0.0,0.0,-1.2832722832722834,2.537240537240537,-1.65625,0.0,0.0,0.0,-0.7313797313797313,3.0830280830280827,-1.84375,0.0,0.0,0.0,0.0,3.694749694749695,-1.8125,0.0,0.0,0.0,0.0,4.373626373626373,-1.625,0.0,0.0,0.0,0.0,4.575091575091576,-1.375,0.0,0.0,-0.5982905982905983,0.0,4.735042735042735,-1.125,0.0,0.0,0.0,0.0,4.647130647130648,-0.90625,0.0,0.0,0.0,0.5763125763125763,4.746031746031746,-0.75,0.0,0.0,-0.7326007326007326,1.1538461538461535,4.82051282051282,-0.65625,0.0,0.0,-0.6666666666666666,0.818070818070818,4.3931623931623935,0.0,0.0,0.0,-0.7020757020757019,0.5628815628815629,3.3870573870573866,0.0,0.0,0.0,0.0,0.0,2.238095238095238,0.0,0.0,0.0,0.0,-0.7301587301587301,1.277167277167277,0.0,0.0,0.0,0.0,-0.7216117216117216,0.0,0.0,0.0,0.0,0.0,-0.5592185592185592,0.0,0.0,0.0,0.0,0.0,0.0,0.0,0.0,0.0,0.0,0.0,0.0,-0.7081807081807082,0.0,0.0,0.0,0.0,0.0,-0.5115995115995116,0.0,0.0,0.0,0.0,0.0,0.0,0.0,0.0,0.0,0.0,0.6043956043956044,0.0,0.0,0.0,0.0,0.0,0.0,0.0,0.0,0.0,0.0,0.0,0.0,0.0,0.0,0.0,0.0,0.0,0.0,0.0,0.0,0.0,0.0,0.0,0.0,0.0,0.0,0.0,0.0,0.0,0.0,0.0,0.0,0.0,0.0,0.0,0.0,0.0,0.0,0.0,0.0,0.0,0.0,0.0,0.0,0.0,0.0,0.0,0.0,0.0,0.0,0.0,0.0,0.0,0.0,0.8095238095238095,0.0,0.0,0.0,0.0,0.0,1.0427350427350428,0.0,0.0,0.0,0.0,0.0,1.321123321123321,0.0,0.0,0.0,,,,,,,,,,,,,,,,,,,,,,,,,,,,,,,,,,,,,,,,,,,,,,,,,,,,,,,,,,,,,landR
accX,0.0,0.0,-1.1135531135531136,0.0,0.0,0.0,0.0,0.0,-1.7081807081807079,0.0,0.0,0.0,0.0,0.0,-2.148962148962149,0.0,0.0,0.0,0.0,0.0,-3.4444444444444446,0.0,0.0,0.0,0.0,-0.7692307692307693,-3.874236874236874,0.0,0.0,0.0,0.7619047619047619,-0.8412698412698413,-4.390720390720391,0.0,0.0,0.0,0.0,0.0,-4.256410256410256,0.0,0.0,0.0,0.0,0.0,-4.31013431013431,0.0,0.0,0.0,-1.0341880341880345,-3.5543345543345537,-6.046398046398046,0.0,0.0,0.0,0.0,-2.664224664224664,-5.526251526251526,-0.6875,1.15625,0.0,0.0,-1.5042735042735045,-3.875457875457876,-1.0625,1.1875,0.0,0.0,-1.534798534798535,-3.1294261294261294,-0.96875,1.03125,0.0,0.0,-1.0012210012210012,-2.236874236874237,-0.90625,1.0,0.0,0.0,-1.195360195360195,-1.5396825396825398,-0.78125,0.96875,0.0,0.0,-2.559218559218559,-2.0354090354090357,-0.8125,1.0,0.0,0.0,-2.083028083028083,-1.4456654456654456,-1.1875,1.21875,0.0,0.7289377289377289,-1.8986568986568984,0.0,-1.21875,0.78125,0.0,0.0,-1.7997557997557998,0.5457875457875457,-1.0625,0.53125,0.0,0.0,-2.238095238095238,0.0,-1.03125,0.0,0.0,-0.9133089133089132,-2.4432234432234434,0.0,-1.40625,0.71875,0.0,-0.8376068376068376,-1.4713064713064714,1.4822954822954824,-1.40625,0.9375,0.0,0.0,-0.8974358974358975,2.58974358974359,-1.25,0.625,0.0,0.0,-0.8827838827838828,2.9413919413919416,-1.1875,0.0,0.0,-0.5738705738705738,-0.8424908424908425,2.6715506715506714,-1.21875,0.0,0.0,-1.1416361416361416,-0.8278388278388278,2.4224664224664223,-1.34375,0.0,-0.5625,-0.912087912087912,0.0,3.4346764346764345,-1.375,0.0,-0.53125,-0.6056166056166056,0.0,3.6105006105006106,-1.15625,0.0,0.0,-1.0293040293040292,0.0,3.652014652014652,-0.96875,0.0,0.0,-0.6581196581196581,0.0,3.068376068376069,-0.9375,0.0,0.0,0.0,0.0,3.137973137973138,-1.0625,0.0,0.0,-0.7667887667887668,0.0,3.4627594627594624,-1.0,0.0,0.0,-0.9572649572649572,0.0,3.0805860805860807,-0.75,0.0,0.0,-1.0134310134310134,0.0,2.7997557997558,0.0,0.0,0.0,-0.7081807081807082,0.0,2.68009768009768,0.0,0.0,0.0,0.0,0.0,2.388278388278388,0.0,0.0,0.0,-0.9194139194139194,0.0,2.4920634920634916,0.0,0.0,0.0,-1.1367521367521367,0.6825396825396826,2.6324786324786325,0.0,0.0,0.0,-0.7631257631257631,0.7240537240537241,2.6910866910866917,0.0,0.0,0.0,0.0,0.0,2.053724053724053,0.0,0.0,0.0,0.0,0.0,1.5274725274725274,0.0,0.0,0.0,0.0,0.0,0.8253968253968254,0.0,0.0,0.0,0.0,0.0,0.0,0.0,0.0,0.0,0.0,-0.5457875457875457,0.0,0.0,0.0,0.0,0.0,-0.6654456654456654,-0.6263736263736264,0.0,0.0,0.0,0.0,0.0,-0.8192918192918193,0.0,0.0,0.0,0.0,0.0,-0.6434676434676435,0.0,0.0,0.0,0.0,0.0,-0.5616605616605617,0.0,0.0,0.0,0.0,0.0,0.0,0.0,0.0,0.0,0.0,0.0,0.0,0.0,0.0,0.0,0.0,0.0,0.0,0.0,0.0,0.0,0.0,0.0,0.0,0.0,0.0,0.0,0.0,0.0,0.0,0.0,0.0,0.0,0.0,0.0,0.0,0.0,0.0,0.0,0.0,0.0,0.0,0.0,0.0,0.0,0.0,0.0,0.0,0.0,0.0,0.0,0.0,0.0,0.0,0.0,0.0,0.0,,,,,,,,,,,,,,,,,,,,,,,,,,,,,,,,,,,,,,,,,,,,,,,,,,,,,,,,,,,,,,,,,,,landR
accX,0.0,0.0,-0.5885225885225885,0.0,-0.53125,0.0,0.0,0.0,-1.7875457875457876,0.0,-0.5625,0.0,0.0,-0.7777777777777778,-3.1233211233211238,0.0,-0.53125,0.0,0.9096459096459096,-0.8070818070818071,-3.1062271062271063,0.0,0.0,0.0,0.0,0.0,-3.503052503052503,0.0,0.0,0.0,0.0,0.0,-3.2869352869352872,0.0,0.0,0.0,0.7008547008547008,-0.8461538461538461,-3.1538461538461537,0.0,0.0,0.0,0.6837606837606838,-0.7985347985347986,-3.2307692307692313,0.0,0.0,0.0,0.0,-1.5958485958485962,-3.88034188034188,0.0,0.0,0.0,-1.1172161172161172,-2.78998778998779,-4.846153846153847,0.0,0.0,0.0,0.0,-1.5421245421245422,-3.7118437118437115,-0.5625,0.75,0.0,0.0,-0.5433455433455433,-2.7826617826617825,-0.59375,0.8125,0.0,0.0,0.0,-1.956043956043956,0.0,0.53125,0.0,0.0,-0.967032967032967,-1.6715506715506716,0.0,0.0,0.0,-0.7716727716727717,-2.4310134310134313,-2.7313797313797314,0.0,0.0,0.0,0.0,-1.94017094017094,-1.9206349206349207,-0.625,0.0,0.0,0.0,-1.0329670329670328,-0.7545787545787546,-0.59375,0.0,0.0,0.0,-0.6507936507936508,0.0,0.0,0.0,0.0,0.0,-1.3724053724053724,0.0,0.0,0.0,0.0,0.0,-1.9658119658119655,-0.971916971916972,-0.8125,0.0,0.0,0.0,-1.4700854700854702,0.0,-1.1875,0.5625,0.0,0.0,0.0,0.7716727716727717,-1.28125,0.0,0.0,0.0,0.0,1.2881562881562882,-1.25,0.0,0.0,0.0,0.0,1.1746031746031746,-1.25,0.0,0.0,0.0,0.0,1.534798534798535,-1.3125,0.0,0.0,0.0,0.0,2.294261294261294,-1.40625,0.0,0.0,0.0,0.0,2.5360195360195363,-1.40625,0.0,0.0,0.0,0.0,2.249084249084249,-1.3125,0.0,0.0,-0.7960927960927959,0.0,1.7814407814407816,-1.34375,0.0,0.0,0.0,0.0,2.0305250305250304,-1.40625,0.0,0.0,-0.5347985347985348,0.0,2.8034188034188032,-1.5,0.0,0.0,-0.5409035409035409,0.0,3.4420024420024418,-1.46875,0.0,0.0,-0.7997557997557998,1.006105006105006,4.00976800976801,-1.3125,0.0,0.0,-0.5885225885225885,0.6568986568986569,3.776556776556777,-1.0625,0.0,0.0,-0.706959706959707,0.5006105006105006,3.5677655677655684,-0.90625,0.0,0.0,-0.518925518925519,0.0,3.4615384615384617,-0.875,0.0,0.0,-0.9035409035409036,0.7008547008547008,3.6617826617826617,-0.75,0.0,0.0,-0.9377289377289376,0.8681318681318682,3.6349206349206344,0.0,0.0,0.0,-0.8656898656898657,0.7338217338217338,3.1855921855921854,0.0,0.0,0.0,-0.9755799755799756,0.5738705738705738,2.561660561660561,0.0,0.0,0.0,-0.5335775335775336,0.0,1.915750915750916,0.0,0.0,0.0,0.0,0.0,1.5177045177045176,0.0,0.0,0.0,0.0,-0.6385836385836385,0.0,0.0,0.0,0.0,0.0,0.0,0.0,0.0,0.0,0.0,0.0,0.0,0.0,0.0,0.0,0.0,0.0,0.0,0.0,0.0,0.0,0.0,0.0,0.0,-0.6141636141636142,0.0,0.0,0.0,0.0,0.0,-0.778998778998779,0.0,0.0,0.0,0.0,0.0,-0.6507936507936508,0.0,0.0,0.0,0.0,0.0,-0.5445665445665445,0.0,0.0,0.0,0.0,0.0,-0.5384615384615384,0.0,0.0,0.0,0.0,0.0,0.0,0.0,0.0,0.0,0.0,0.0,0.0,0.0,0.0,0.0,0.0,0.0,0.0,0.0,0.0,0.0,0.0,0.0,0.0,0.0,0.0,0.0,0.0,0.0,0.0,0.0,0.0,0.0,0.0,0.0,0.0,0.0,0.0,0.0,0.0,0.0,0.0,0.0,0.0,0.0,0.0,0.0,0.0,0.0,0.0,0.0,0.0,0.0,0.0,0.0,0.0,0.0,0.0,0.0,0.0,0.0,0.0,0.0,,,,,,,,,,,,,,,,,,,,,,,,,,,,,,,,,,,,,landR
accX,0.0,0.0,0.0,0.0,0.0,0.0,0.7020757020757019,0.0,0.0,0.0,0.0,0.0,-0.9401709401709402,0.0,-1.7692307692307692,0.0,-0.53125,0.0,-1.21978021978022,-0.6507936507936508,-2.7216117216117217,0.0,0.0,0.0,0.0,-0.94993894993895,-2.8424908424908426,0.0,0.0,0.0,0.7643467643467643,-1.4078144078144081,-2.694749694749695,0.0,0.5625,0.0,1.363858363858364,-1.5616605616605617,-3.1868131868131866,0.0,0.0,0.0,0.7264957264957265,-1.3333333333333333,-3.561660561660561,0.0,0.0,0.0,0.0,-1.6459096459096458,-3.7338217338217334,0.0,0.59375,0.0,0.0,-1.266178266178266,-3.347985347985348,0.0,0.59375,0.0,0.0,-0.6727716727716728,-2.8192918192918195,0.0,0.0,0.0,0.0,-0.7326007326007326,-2.5213675213675213,0.0,0.0,0.0,0.0,-2.3870573870573866,-3.391941391941392,0.0,0.0,0.0,-1.0732600732600732,-2.087912087912088,-3.496947496947497,-0.65625,0.75,-0.59375,0.0,-1.103785103785104,-2.7020757020757022,-0.53125,0.0,-0.65625,0.0,-0.525030525030525,-1.5873015873015872,0.0,0.0,-0.53125,0.0,-0.9633699633699634,-1.2014652014652014,0.0,0.0,0.0,0.0,-1.5274725274725274,-1.4542124542124542,0.0,0.0,0.0,0.0,-1.8388278388278387,-1.6153846153846154,0.0,0.0,-0.75,-0.7264957264957265,-1.2967032967032968,-1.0036630036630036,0.0,0.53125,-1.0,0.0,-0.8473748473748474,0.0,-0.625,0.0,-0.6875,0.6178266178266179,-1.380952380952381,0.0,-0.71875,0.0,-0.59375,0.0,-1.575091575091575,0.0,-0.875,0.0,0.0,-0.7252747252747253,-1.5995115995115996,0.0,-1.125,0.0,0.0,-1.362637362637363,-1.1318681318681318,0.0,-1.40625,0.0,0.0,-0.7716727716727717,-0.8009768009768009,1.2893772893772897,-1.59375,0.0,-0.53125,-0.6092796092796092,-0.5262515262515263,2.247863247863248,-1.65625,0.0,0.0,-0.7301587301587301,0.0,2.793650793650793,-1.75,0.0,0.0,0.0,0.0,2.888888888888889,-1.75,0.0,0.0,-0.9108669108669109,0.0,3.282051282051282,-1.71875,0.0,0.0,-1.3064713064713065,0.5970695970695971,3.8913308913308913,-1.625,0.0,0.0,-0.8205128205128205,0.6349206349206349,4.719169719169718,-1.5,0.0,0.0,0.0,0.0,4.822954822954824,-1.4375,0.0,0.0,0.0,0.0,4.7374847374847375,-1.375,0.0,0.0,0.0,0.7264957264957265,4.63980463980464,-1.1875,0.0,0.0,-0.6739926739926739,1.0757020757020757,4.7094017094017095,-0.90625,0.0,0.0,-0.5543345543345544,0.8253968253968254,4.471306471306471,-0.5625,0.0,0.0,0.0,0.0,3.660561660561661,0.0,0.0,0.0,0.0,0.0,2.147741147741148,0.0,0.0,0.0,0.0,0.0,1.7936507936507935,0.0,0.0,0.0,0.0,0.0,1.1489621489621489,0.0,0.0,0.0,0.0,0.0,0.6068376068376068,0.0,0.0,0.0,0.0,0.0,0.0,0.0,0.0,0.0,0.0,0.0,0.0,0.0,0.0,0.0,0.0,0.0,0.0,0.0,0.0,0.0,0.0,0.0,0.0,0.0,0.0,0.0,0.0,0.0,0.0,0.0,0.0,0.0,0.0,0.0,0.0,0.0,0.0,0.0,0.0,0.0,0.0,0.0,0.0,0.0,0.0,0.0,0.0,0.0,0.0,0.0,0.0,0.0,0.0,0.0,0.0,0.0,0.0,0.0,-0.6862026862026862,0.0,0.0,0.0,0.0,0.0,-0.5225885225885226,0.0,0.0,0.0,0.0,0.0,0.0,0.0,0.0,0.0,0.0,0.0,0.0,0.0,0.0,0.0,0.0,0.0,0.0,0.0,0.0,0.0,0.0,0.0,0.0,0.0,0.0,0.0,0.0,0.0,0.0,0.0,0.0,0.0,,,,,,,,,,,,,,,,,,,,,,,,,,,,,,,,,,,,,,,,,,,,,,,,,,,,,,,landR
accX,0.0,0.0,0.0,0.0,0.0,0.0,0.0,0.0,0.0,0.0,0.0,0.0,0.0,0.0,-0.5934065934065934,0.0,0.0,0.0,-0.5494505494505495,0.0,-1.5543345543345544,0.0,0.0,0.0,0.0,-0.8803418803418803,-3.752136752136752,0.0,0.0,0.0,0.0,-1.4786324786324787,-4.258852258852259,0.0,0.59375,0.0,0.0,-1.7826617826617828,-3.847374847374848,0.0,0.84375,0.0,0.0,-1.661782661782662,-3.216117216117216,0.0,0.875,0.0,0.0,-1.9023199023199024,-3.6056166056166057,0.0,0.875,0.0,-0.7460317460317459,-2.3076923076923075,-3.764346764346764,-0.625,1.0,0.0,0.0,-1.31013431013431,-2.8363858363858365,-0.9375,1.03125,0.0,0.0,-0.956043956043956,-2.1111111111111107,-0.96875,0.8125,0.0,0.0,-0.57997557997558,-1.3675213675213675,-0.78125,0.625,0.0,0.0,-0.5921855921855922,-1.0195360195360197,0.0,0.0,0.0,-0.5653235653235653,-1.462759462759463,-1.4981684981684982,0.0,0.0,0.0,0.0,-1.462759462759463,-1.7423687423687424,-0.625,0.53125,0.0,0.9352869352869352,-0.8852258852258852,-1.4725274725274726,-0.53125,0.0,0.0,0.8046398046398047,-0.6935286935286935,-1.1538461538461535,0.0,0.0,0.0,0.0,-1.2112332112332111,-1.5384615384615383,0.0,0.0,0.0,-1.0415140415140416,-2.068376068376069,-2.6166056166056166,-0.90625,0.0,0.0,-0.9792429792429792,-1.0525030525030523,-1.6837606837606838,-1.15625,0.0,0.0,-0.5103785103785103,0.0,0.0,-1.03125,0.0,0.0,0.0,0.0,0.8852258852258852,-0.8125,0.0,0.0,0.0,0.0,1.2673992673992671,-0.75,0.0,0.0,0.0,0.0,1.164835164835165,-0.90625,0.0,0.0,0.0,0.0,1.0586080586080586,-1.125,0.0,0.0,0.0,0.0,1.7179487179487178,-1.15625,0.0,0.0,0.0,0.0,1.4578754578754578,-0.875,0.0,0.0,0.0,0.0,0.9194139194139194,-0.84375,0.0,0.0,0.0,-0.5543345543345544,0.8278388278388278,-0.9375,0.0,0.0,0.0,0.0,1.0525030525030523,-1.03125,0.0,0.0,0.0,0.0,1.4151404151404152,-1.0625,0.0,0.0,0.0,0.0,1.656898656898657,-1.125,0.0,0.0,0.0,0.0,1.9523809523809523,-1.1875,0.0,0.0,0.0,0.0,2.21978021978022,-1.21875,0.0,0.0,0.0,0.0,2.1074481074481075,-1.125,0.0,0.0,-0.851037851037851,0.0,2.213675213675214,-0.96875,0.0,0.0,-0.7582417582417582,0.0,2.6105006105006106,-0.90625,0.0,0.0,0.0,0.0,2.6373626373626373,-0.8125,0.0,0.0,-0.7655677655677655,0.0,2.4664224664224665,-0.71875,0.0,0.0,-0.9096459096459096,0.0,2.7020757020757022,-0.59375,0.0,0.0,-0.8827838827838828,0.0,2.8021978021978016,0.0,0.0,0.0,-0.9218559218559218,0.0,3.0549450549450547,0.0,0.0,0.0,-0.9242979242979243,0.5213675213675214,3.021978021978022,0.0,0.0,0.0,-0.5628815628815629,0.0,2.6043956043956045,0.0,0.0,0.0,-0.7997557997557998,0.0,1.6214896214896215,0.0,0.0,0.0,-0.6654456654456654,0.0,1.105006105006105,0.0,0.0,0.0,0.0,0.0,1.0012210012210012,0.0,0.0,0.0,0.0,0.0,0.8742368742368742,0.0,0.0,0.0,0.0,0.0,0.0,0.0,0.0,0.0,0.0,-0.5299145299145299,0.0,0.0,0.0,0.0,0.0,-0.5213675213675214,0.0,0.0,0.0,0.0,0.0,0.0,0.0,0.0,0.0,0.0,0.0,0.0,0.0,0.0,0.0,0.0,0.0,0.0,0.0,0.0,0.0,0.0,0.0,0.0,-0.6776556776556777,0.0,0.0,0.0,0.0,0.0,-0.8144078144078144,0.0,0.0,0.0,0.0,0.0,0.0,0.0,0.0,0.0,0.0,0.0,0.0,0.0,0.0,0.0,0.0,0.0,0.0,0.0,0.0,0.0,0.0,0.0,0.0,0.0,0.0,0.0,0.0,0.0,0.0,0.0,0.0,0.0,0.0,0.0,0.0,0.0,0.0,0.0,,,,,,,,,,,,,,,,,,,,,,,,,landR
accX,0.0,0.0,-0.7045177045177046,0.0,0.0,0.0,0.0,0.0,-1.7301587301587302,0.0,0.0,0.0,-0.7313797313797313,0.0,-2.7667887667887667,0.0,0.0,0.0,0.0,-0.6178266178266179,-3.5677655677655684,0.0,0.0,0.0,0.0,0.0,-3.5628815628815627,0.0,0.0,0.0,0.0,-0.5006105006105006,-3.1794871794871797,0.0,0.0,0.0,0.0,-0.851037851037851,-3.4273504273504267,0.0,0.5625,0.0,0.0,-1.0647130647130647,-3.664224664224663,0.0,0.59375,0.0,0.6422466422466423,-1.122100122100122,-3.4529914529914536,0.0,0.0,0.0,0.5286935286935287,-1.5286935286935286,-3.5970695970695967,0.0,0.0,0.0,0.0,-2.399267399267399,-4.238095238095238,0.0,0.0,0.0,0.0,-1.4737484737484738,-3.695970695970696,0.0,0.0,0.0,0.0,-0.8620268620268621,-2.8351648351648358,0.0,0.0,0.0,-0.5726495726495726,-0.9218559218559218,-1.3052503052503053,0.0,0.0,0.0,0.0,-1.525030525030525,-1.9645909645909645,0.0,0.0,0.0,-0.5702075702075702,-1.879120879120879,-2.326007326007326,-0.625,0.0,0.0,0.0,-1.0024420024420024,-1.4017094017094016,-1.0,0.0,0.0,0.0,0.0,0.0,-0.9375,0.0,0.0,0.0,0.0,0.0,-0.71875,0.0,0.0,0.0,-1.1819291819291822,0.0,-0.625,0.53125,0.0,0.0,-1.0036630036630036,0.0,-0.9375,0.78125,0.0,0.706959706959707,-0.5934065934065934,0.9474969474969476,-1.21875,0.65625,0.0,0.0,0.0,1.5286935286935286,-1.34375,0.0,0.0,-0.5506715506715507,0.0,1.293040293040293,-1.28125,0.0,0.0,-0.5396825396825397,0.0,1.336996336996337,-1.25,0.0,0.0,0.0,0.0,1.8522588522588523,-1.40625,0.0,0.0,-0.5286935286935287,0.0,2.675213675213675,-1.40625,0.0,0.0,0.0,0.0,2.9511599511599518,-1.34375,0.0,0.0,-0.6214896214896215,0.0,3.3296703296703303,-1.375,0.0,0.0,-1.0463980463980465,0.6410256410256411,3.813186813186813,-1.375,0.0,0.0,-0.9389499389499391,0.7460317460317459,4.083028083028083,-1.21875,0.0,0.0,0.0,0.8778998778998779,4.328449328449328,-0.875,0.0,0.0,0.0,0.0,3.836385836385837,-0.65625,0.0,0.0,-0.5970695970695971,0.0,3.195360195360196,-0.59375,0.0,0.0,-0.6410256410256411,0.0,2.9450549450549453,-0.5625,0.0,0.0,-0.5311355311355311,0.0,2.8229548229548236,0.0,0.0,0.0,-0.5653235653235653,0.0,2.621489621489621,0.0,0.0,0.0,-0.7692307692307693,0.514041514041514,2.3003663003662997,0.0,0.0,0.0,0.0,0.0,1.7643467643467643,0.0,0.0,0.0,0.0,0.0,1.4212454212454213,0.0,0.0,0.0,0.0,0.0,0.9792429792429792,0.0,0.0,0.0,0.0,0.0,0.6202686202686203,0.0,0.0,0.0,0.0,-0.6288156288156288,0.0,0.0,0.0,0.0,0.0,0.0,0.0,0.0,0.0,0.0,0.0,0.0,-0.5836385836385837,0.0,0.0,0.0,0.0,0.0,-0.5738705738705738,0.0,0.0,0.0,0.5384615384615384,-0.5238095238095238,-0.6105006105006106,0.0,0.0,0.0,0.0,0.0,0.0,0.0,0.0,0.0,0.0,0.0,0.0,0.0,0.0,0.0,0.0,0.0,0.0,0.0,0.0,0.0,0.0,0.0,0.0,0.0,0.0,0.0,0.0,0.0,0.0,0.0,0.0,0.0,0.0,0.0,0.0,0.0,0.0,0.0,0.0,0.0,0.5897435897435898,0.0,0.0,0.0,0.0,0.0,0.0,0.0,0.0,0.0,0.0,0.0,0.0,0.0,0.0,0.0,0.0,0.0,0.0,0.0,0.0,0.0,0.0,0.0,0.7081807081807082,0.0,0.0,0.0,0.0,0.0,0.7326007326007326,0.0,0.0,0.0,0.0,0.0,0.5274725274725275,0.0,0.0,0.0,,,,,,,,,,,,,,,,,,,,,,,,,,,,,,,,,,,,,,,,,,,landR
accX,0.0,0.0,-1.1489621489621489,0.0,0.0,0.0,0.0,0.0,-1.8864468864468864,0.0,0.0,0.0,0.0,-0.5409035409035409,-2.5641025641025643,0.0,0.0,0.0,0.0,0.0,-3.5409035409035408,0.0,0.0,0.0,0.7167277167277167,-1.4920634920634919,-4.388278388278389,0.0,0.0,0.0,0.0,-1.442002442002442,-4.811965811965811,0.0,0.0,0.0,0.7753357753357754,-1.2283272283272284,-4.577533577533577,0.0,0.53125,0.0,0.0,-1.31990231990232,-4.262515262515263,0.0,0.0,0.0,-0.6105006105006106,-2.155067155067155,-4.658119658119658,0.0,0.5625,0.0,-0.7875457875457875,-3.0891330891330893,-5.1440781440781445,-0.53125,0.9375,0.0,0.0,-1.5018315018315018,-3.3760683760683765,-0.59375,0.9375,0.0,0.0,0.0,-1.188034188034188,0.0,0.0,0.0,0.0,-1.2942612942612943,-1.5811965811965811,0.0,0.0,0.0,0.0,-3.0146520146520146,-2.924297924297924,0.0,0.0,0.0,0.0,-2.056166056166056,-2.3040293040293043,-0.59375,0.0,-0.5625,0.0,-1.137973137973138,-1.4725274725274726,-0.8125,0.0,-0.78125,-0.5592185592185592,0.0,0.0,-0.8125,0.0,-0.5625,0.0,0.0,0.6434676434676435,-0.59375,0.0,0.0,0.0,0.0,0.0,-0.5625,0.0,0.0,-1.4114774114774116,-0.7875457875457875,0.0,-0.84375,0.0,0.0,-1.3846153846153846,0.0,0.9621489621489622,-1.375,0.0,0.0,-0.6923076923076923,0.6446886446886447,2.793650793650793,-1.5625,0.875,0.0,0.0,0.0,2.9829059829059825,-1.40625,0.65625,0.0,0.0,0.0,2.7484737484737485,-1.40625,0.0,0.0,0.0,0.0,2.4224664224664223,-1.5625,0.0,0.0,-0.7374847374847375,0.0,2.2210012210012207,-1.65625,0.0,0.0,-0.557997557997558,0.0,2.6227106227106227,-1.625,0.5625,0.0,0.0,0.0,3.1660561660561664,-1.46875,0.0,0.0,-0.6153846153846154,0.0,2.9084249084249083,-1.3125,0.0,0.0,0.0,0.0,3.0122100122100113,-1.28125,0.0,0.0,-0.6166056166056166,0.0,3.4261294261294264,-1.25,0.0,0.0,0.0,0.0,4.156288156288157,-0.96875,0.0,0.0,0.0,0.0,3.7948717948717943,-0.65625,0.0,0.0,0.0,0.0,3.1672771672771667,-0.5625,0.0,0.0,-0.6410256410256411,0.0,2.9841269841269837,0.0,0.0,0.0,-1.0976800976800978,0.8766788766788767,3.1697191697191696,0.0,0.0,0.0,-0.9511599511599512,1.1514041514041513,3.4884004884004884,0.0,0.0,0.0,-0.9426129426129426,0.6691086691086691,2.6434676434676434,0.0,0.0,0.0,0.0,0.0,0.9328449328449328,0.0,0.0,0.0,0.0,-0.9413919413919414,0.0,0.0,0.0,0.0,0.0,-1.028083028083028,0.0,0.0,0.0,0.0,0.0,-0.818070818070818,0.0,0.0,0.0,0.0,0.0,-0.7680097680097681,-0.63003663003663,0.0,0.0,0.0,0.0,0.0,-0.7313797313797313,0.0,0.0,0.0,0.0,0.0,0.0,0.0,0.0,0.0,0.0,0.0,0.0,0.0,0.0,0.0,0.0,0.0,0.0,0.0,0.0,0.0,0.0,0.0,0.0,0.0,0.0,0.0,0.0,0.0,0.0,0.0,0.0,0.0,0.0,0.0,0.0,0.0,0.0,0.0,0.0,0.0,0.0,0.0,0.0,0.0,0.0,0.0,0.0,0.0,0.0,0.0,0.0,0.0,0.0,0.0,0.0,0.0,0.0,0.0,0.0,0.0,0.0,0.0,0.0,0.0,0.0,0.0,0.0,0.0,0.0,0.0,0.5848595848595849,0.0,0.0,0.0,0.0,0.0,0.6727716727716728,0.0,0.0,0.0,0.0,0.0,0.7619047619047619,0.0,0.0,0.0,,,,,,,,,,,,,,,,,,,,,,,,,,,,,,,,,,,,,,,,,,,,,,,,,,,,,,,landR
accX,0.0,0.0,-1.1428571428571428,0.0,0.0,0.0,0.0,0.0,-1.277167277167277,0.0,0.0,0.0,0.0,0.0,-1.6007326007326008,0.0,0.0,0.0,0.6385836385836385,-0.7130647130647131,-2.043956043956044,0.0,0.0,0.0,0.6410256410256411,-1.4126984126984128,-3.5702075702075704,0.0,0.0,0.0,0.9462759462759462,-1.0122100122100122,-4.216117216117216,0.0,0.0,0.0,1.4969474969474967,-1.465201465201465,-4.315018315018315,0.0,0.0,0.0,1.6837606837606838,-1.2442002442002442,-3.937728937728938,0.0,0.0,0.0,0.0,-0.78998778998779,-4.089133089133089,0.0,0.0,0.0,0.0,-1.6654456654456655,-5.065934065934067,0.0,0.0,0.0,0.6019536019536019,-1.2136752136752136,-3.655677655677656,0.0,0.0,0.0,0.0,-0.5775335775335775,-2.0488400488400487,0.0,0.0,0.0,-0.8547008547008547,-2.010989010989011,-2.838827838827839,0.5625,0.0,0.0,-1.794871794871795,-2.3504273504273505,-3.952380952380953,0.0,0.0,0.0,0.0,-2.004884004884005,-3.0195360195360195,0.0,0.9375,0.0,0.0,-0.9548229548229548,-1.568986568986569,-0.9375,0.8125,0.0,0.0,0.0,0.0,-1.0625,0.0,0.0,-0.9511599511599512,-0.8437118437118437,0.0,-1.0,0.0,0.0,-0.7667887667887668,-1.2356532356532357,0.0,-1.15625,0.71875,0.0,0.0,-1.0305250305250304,0.7118437118437119,-1.4375,0.84375,-0.5625,0.0,-0.6288156288156288,1.42002442002442,-1.625,0.53125,-0.59375,-0.6752136752136753,0.0,1.6581196581196582,-1.5625,0.0,0.0,-0.8376068376068376,-0.5274725274725275,1.78021978021978,-1.46875,0.0,-0.59375,-1.3162393162393162,0.0,2.031746031746032,-1.4375,0.8125,-0.5625,-1.0244200244200243,0.0,2.659340659340659,-1.40625,0.8125,0.0,-0.525030525030525,-0.5934065934065934,2.4542124542124544,-1.46875,0.0,0.0,0.0,-0.5372405372405372,2.647130647130647,-1.5625,0.0,0.0,0.0,0.0,2.8693528693528694,-1.46875,0.0,0.0,-0.7423687423687424,0.0,2.7973137973137967,-1.3125,0.0,0.0,0.0,0.0,3.0207570207570207,-1.21875,0.0,0.0,0.0,0.0,3.3443223443223444,-1.03125,0.0,0.0,0.0,0.0,2.706959706959707,-0.8125,0.0,0.0,0.0,-0.5384615384615384,2.028083028083028,-0.78125,0.0,0.0,-0.7020757020757019,-0.5128205128205128,2.324786324786325,-0.78125,0.0,0.0,-0.6837606837606838,0.7704517704517705,3.137973137973138,-0.65625,0.0,0.0,-0.9645909645909646,1.4517704517704515,3.804639804639805,-0.59375,0.0,0.0,-1.122100122100122,2.04029304029304,4.345543345543345,0.0,0.0,0.0,-1.155067155067155,1.8473748473748477,4.188034188034188,0.0,0.0,0.0,-1.321123321123321,1.352869352869353,2.9877899877899887,0.0,0.0,0.0,-0.8620268620268621,0.0,1.7130647130647132,0.0,0.0,0.0,0.0,0.0,1.0793650793650793,0.0,0.0,0.0,0.0,0.0,0.8498168498168498,0.0,0.0,0.0,0.0,0.0,0.0,0.0,0.0,0.0,0.0,-0.5616605616605617,0.0,0.0,0.0,0.0,0.0,0.0,-0.6984126984126984,0.0,0.0,0.0,0.0,0.0,-0.7460317460317459,0.0,0.0,0.0,0.0,0.0,0.0,0.0,0.0,0.0,0.0,0.0,0.0,0.0,0.0,0.0,0.0,0.5372405372405372,0.0,0.0,0.0,0.0,0.0,0.0,0.0,0.0,0.0,0.0,0.0,0.0,0.0,0.0,0.0,0.0,0.0,0.0,0.0,0.0,0.0,0.0,0.0,0.0,0.0,0.0,0.0,0.0,0.0,0.0,0.0,0.0,0.0,0.0,0.0,0.0,0.0,0.0,0.0,0.0,0.0,0.0,0.0,0.0,0.0,0.0,0.0,0.0,0.5018315018315018,0.0,0.0,0.0,0.0,0.0,0.0,0.0,0.0,0.0,0.0,0.0,0.0,0.0,0.0,0.0,,,,,,,,,,,,,,,,,,,,,,,,,,,,,,,,,,,,,,,,,,,,,,,,,landR
accX,0.7252747252747253,0.0,-0.9365079365079364,0.0,0.0,0.0,0.7387057387057387,-0.9792429792429792,-1.761904761904762,0.0,0.0,0.0,0.0,-0.7106227106227107,-1.8388278388278387,0.0,0.0,0.0,0.0,0.0,-2.484737484737485,0.0,0.0,0.0,0.0,0.0,-2.5970695970695967,0.0,0.0,0.0,0.0,0.0,-2.352869352869353,0.65625,0.0,0.0,0.0,-1.2551892551892552,-2.8803418803418803,0.875,0.0,0.0,0.0,-2.2564102564102564,-3.9938949938949935,0.625,0.0,0.0,0.0,-1.2148962148962148,-3.5641025641025643,0.0,0.0,0.0,0.0,0.0,-2.537240537240537,0.0,0.0,0.0,0.0,0.9658119658119658,-1.3699633699633702,0.0,0.0,0.0,0.9926739926739928,0.5286935286935287,-1.1733821733821734,0.0,-0.75,0.0,-1.017094017094017,-2.4945054945054945,-3.615384615384616,0.75,-1.0625,0.0,-1.4041514041514038,-3.1880341880341883,-5.0976800976800964,0.0,0.0,0.0,0.0,-1.431013431013431,-3.2185592185592187,-0.5625,0.0,0.0,0.0,0.0,-1.1697191697191698,-0.71875,0.0,0.0,0.0,0.0,0.0,0.0,0.0,0.0,-0.5433455433455433,-0.6483516483516484,-1.5103785103785103,0.0,0.0,0.0,-0.6227106227106227,-1.6483516483516485,-2.5677655677655684,0.0,0.0,0.0,0.0,-1.7985347985347986,-2.3174603174603177,-0.84375,0.6875,0.0,0.0,-1.4151404151404152,-1.3601953601953602,-1.0625,0.625,0.0,0.0,-1.271062271062271,-0.6874236874236874,-1.125,0.0,0.0,0.0,-1.092796092796093,0.0,-1.0625,0.0,0.0,0.0,-1.3357753357753357,0.0,-1.0625,0.0,0.0,-0.8473748473748474,-1.6764346764346765,-0.7912087912087912,-1.28125,0.6875,0.0,0.0,-1.8217338217338217,0.0,-1.4375,0.96875,0.0,0.0,-1.2527472527472527,0.8278388278388278,-1.53125,1.0,-0.5625,0.0,-1.2551892551892552,1.26007326007326,-1.6875,0.75,-0.5625,-0.5665445665445665,-0.5128205128205128,2.5482295482295485,-1.75,0.6875,-0.59375,-0.8217338217338217,0.0,2.8583638583638584,-1.6875,0.625,-0.625,-0.9426129426129426,0.0,3.8205128205128207,-1.59375,0.59375,-0.625,-0.7594627594627594,0.63003663003663,4.463980463980464,-1.5,0.0,-0.5625,-0.8522588522588522,1.043956043956044,4.693528693528694,-1.34375,0.0,0.0,-0.9621489621489622,1.2967032967032968,4.935286935286936,-1.21875,0.0,0.0,-1.1562881562881564,1.2747252747252746,4.774114774114773,-1.0625,0.0,0.0,-0.7191697191697192,0.7350427350427351,4.520146520146519,-0.96875,0.0,0.0,0.0,0.5347985347985348,4.130647130647131,-0.875,0.0,0.0,-0.8156288156288156,0.0,3.62026862026862,-0.65625,0.0,0.0,-0.8192918192918193,0.0,2.6984126984126986,0.0,0.0,0.0,-0.6227106227106227,0.0,1.8131868131868127,0.0,0.0,0.0,0.0,0.0,1.9474969474969477,0.0,0.0,0.0,0.0,0.0,1.953601953601953,0.0,0.0,0.0,-0.6349206349206349,0.0,1.6507936507936507,0.0,0.0,0.0,0.0,0.0,1.083028083028083,0.0,0.0,0.0,0.0,0.0,0.9755799755799756,0.0,0.0,0.0,0.0,0.0,1.031746031746032,0.0,0.0,0.0,0.0,0.0,1.2344322344322345,0.0,0.0,0.0,0.0,-0.5592185592185592,0.0,0.0,0.0,0.0,0.0,-0.6947496947496947,0.0,0.0,0.0,0.0,0.0,-0.5262515262515263,0.0,0.0,0.0,0.0,0.0,0.0,0.0,0.0,0.0,0.0,0.0,0.0,-0.5115995115995116,0.0,0.0,0.0,0.0,0.0,-0.5238095238095238,0.0,0.0,0.0,0.0,0.0,0.0,0.0,0.0,0.0,0.0,0.0,0.0,0.0,0.0,0.0,,,,,,,,,,,,,,,,,,,,,,,,,,,,,,,,,,,,,,,,,,,,,,,,,,,,,,,,,,,,,,,,,,,,,,,,,landR
accX,0.0,0.0,0.0,0.0,0.0,0.0,0.0,-0.9572649572649572,-2.652014652014652,0.0,0.0,0.0,0.0,-0.6739926739926739,-2.6202686202686203,0.0,0.0,0.0,0.0,0.0,-2.4224664224664223,0.0,0.0,0.0,0.0,0.0,-2.4713064713064714,0.0,0.0,0.0,0.0,0.0,-2.32967032967033,0.0,0.0,0.0,0.0,0.0,-2.656898656898657,0.5625,0.0,0.0,0.0,-1.5067155067155067,-3.975579975579976,0.5625,0.0,0.0,0.0,-1.3540903540903542,-4.483516483516484,0.0,0.0,0.0,0.0,-1.21001221001221,-4.1672771672771685,0.0,0.0,0.0,0.0,-2.2503052503052503,-4.435897435897437,0.0,0.0,0.0,0.0,-2.3162393162393164,-4.0,0.0,0.0,0.0,-0.8278388278388278,-2.437118437118437,-3.6007326007326013,-0.6875,0.0,0.0,-1.0415140415140416,-1.4114774114774116,-2.7753357753357752,-0.84375,0.8125,0.0,0.0,-0.7313797313797313,-1.7594627594627594,-0.71875,0.875,0.0,0.0,-0.8534798534798534,-1.2344322344322345,-0.6875,0.5625,0.0,0.0,-0.8937728937728938,-0.8876678876678876,-0.6875,0.0,0.0,-0.8021978021978022,-1.7118437118437118,-1.5421245421245422,-0.90625,0.0,0.0,-0.8998778998778999,-1.1623931623931625,-1.2246642246642248,-1.15625,0.6875,0.0,0.0,0.0,0.0,-1.09375,0.625,0.0,0.0,0.0,0.0,-0.90625,0.0,0.0,0.0,0.0,0.0,-0.78125,0.0,0.0,0.0,-0.6849816849816851,0.0,-0.78125,0.0,0.0,-0.7045177045177046,-0.8608058608058609,0.0,-0.90625,0.0,0.0,0.0,0.0,1.6971916971916972,-1.09375,0.53125,0.0,0.0,0.0,2.139194139194139,-1.125,0.0,0.0,-0.5006105006105006,0.0,2.3907203907203907,-1.0625,0.0,0.0,0.0,0.0,2.2026862026862033,-0.9375,0.0,0.0,0.0,0.0,1.8498168498168501,-0.9375,0.0,0.0,0.0,0.0,1.6837606837606838,-1.03125,0.0,0.0,0.0,0.0,2.021978021978022,-1.15625,0.0,0.0,-0.5201465201465202,0.0,2.299145299145299,-1.25,0.0,0.0,-0.6422466422466423,0.5909645909645911,2.4481074481074483,-1.25,0.0,0.0,-0.7338217338217338,0.818070818070818,2.68986568986569,-1.25,0.0,0.0,0.0,0.0,2.829059829059829,-1.1875,0.0,0.0,-0.6141636141636142,0.5567765567765568,2.8717948717948723,-0.96875,0.0,0.0,-0.6043956043956044,0.0,2.4236874236874235,-0.90625,0.0,0.0,0.0,0.0,2.5457875457875456,-0.90625,0.0,0.0,-0.5909645909645911,0.0,2.9072039072039066,-0.75,0.0,0.0,-0.7252747252747253,0.0,3.0989010989010985,-0.59375,0.0,0.0,-0.7191697191697192,0.0,3.0085470085470085,0.0,0.0,0.0,-0.6080586080586079,0.0,2.6227106227106227,0.0,0.0,0.0,0.0,0.0,2.271062271062271,0.0,0.0,0.0,0.0,-0.5421245421245421,1.746031746031746,0.0,0.0,0.0,0.0,0.0,1.5824175824175823,0.0,0.0,0.0,0.0,-0.6141636141636142,0.9743589743589745,0.0,0.0,0.0,0.0,0.0,0.6947496947496947,0.0,0.0,0.0,0.0,0.0,0.518925518925519,0.0,0.0,0.0,0.0,0.0,0.0,0.0,0.0,0.0,0.0,0.0,0.0,0.0,0.0,0.0,0.0,0.0,0.0,0.0,0.0,0.0,0.0,0.0,0.0,0.0,0.0,0.0,0.0,0.0,0.0,0.0,0.0,0.0,0.0,0.0,0.0,0.0,0.0,0.0,0.0,0.0,0.0,0.0,0.0,0.0,0.0,0.0,0.0,0.0,0.0,0.0,0.0,0.0,0.0,0.0,0.0,0.0,0.0,0.0,0.5433455433455433,0.0,0.0,0.0,,,,,,,,,,,,,,,,,,,,,,,,,,,,,,,,,,,,,,,,,,,,,,,,,,,,,,,landR
accX,0.0,-0.6227106227106227,-1.623931623931624,0.0,0.0,0.0,0.0,0.0,-1.7032967032967032,0.0,0.0,0.0,-0.8840048840048841,0.0,-2.3492063492063493,0.0,0.0,0.0,0.0,-0.8559218559218559,-2.8083028083028077,0.0,0.0,0.0,0.0,-1.177045177045177,-2.9609279609279615,0.0,0.0,0.0,0.0,-0.503052503052503,-2.495726495726496,0.0,0.65625,0.0,0.0,-0.7216117216117216,-2.5128205128205128,0.0,0.78125,0.0,0.7887667887667887,-0.5970695970695971,-2.628815628815629,0.0,0.53125,0.0,0.8461538461538461,-0.6617826617826618,-2.6666666666666665,0.0,0.0,0.0,0.0,-0.7777777777777778,-2.881562881562881,0.0,0.0,0.0,-0.7802197802197802,-1.6507936507936507,-3.5702075702075704,0.0,0.0,0.0,0.0,-1.376068376068376,-3.2967032967032965,0.0,0.0,0.0,0.0,-0.934065934065934,-2.440781440781441,0.0,0.0,0.0,0.0,0.0,-1.4884004884004884,0.0,0.0,0.0,0.0,0.0,-0.7887667887667887,0.0,0.0,0.0,0.0,-0.6129426129426129,-1.2210012210012209,0.59375,0.0,0.0,-1.5518925518925517,-2.128205128205128,-2.5482295482295485,0.0,0.0,0.0,0.0,-2.095238095238096,-2.3736263736263736,0.0,0.0,0.0,0.0,-0.7997557997557998,-0.8083028083028083,-0.625,0.0,0.0,0.0,-0.9816849816849816,-0.6166056166056166,0.0,0.0,0.0,0.0,-1.0244200244200243,-0.6862026862026862,-0.5625,0.0,0.0,0.0,-0.6410256410256411,0.0,-0.8125,0.59375,0.0,0.0,0.0,0.7155067155067155,-1.0625,0.75,0.0,0.0,0.0,1.1086691086691087,-1.125,0.53125,0.0,0.0,0.0,0.8424908424908425,-1.125,0.0,0.0,0.0,0.0,0.6862026862026862,-1.28125,0.0,0.0,0.0,0.0,1.2026862026862026,-1.40625,0.0,0.0,0.0,0.0,1.5445665445665446,-1.4375,0.0,0.0,0.0,0.0,1.6483516483516485,-1.4375,0.0,0.0,0.0,-0.525030525030525,1.7533577533577531,-1.46875,0.0,0.0,0.0,0.0,1.9987789987789988,-1.5625,0.0,-0.53125,-0.5836385836385837,0.0,2.4029304029304033,-1.53125,0.0,-0.5625,-0.8046398046398047,0.0,2.9023199023199022,-1.34375,0.0,-0.5625,-0.8485958485958486,0.0,3.115995115995116,-1.15625,0.0,0.0,-0.9010989010989012,0.0,3.2844932844932844,-1.0,0.0,0.0,-0.6129426129426129,0.0,3.615384615384616,-0.78125,0.0,0.0,-0.5860805860805861,0.0,3.725274725274725,-0.59375,0.0,0.0,-0.7692307692307693,0.0,3.2332112332112333,-0.53125,0.0,0.0,-1.0427350427350428,0.5299145299145299,3.1233211233211238,-0.53125,0.0,0.0,-1.0854700854700854,0.0,3.0927960927960934,0.0,0.0,0.0,-0.7350427350427351,0.0,2.8180708180708183,0.0,0.0,0.0,-0.7802197802197802,0.0,2.4566544566544573,0.0,0.0,0.0,0.0,0.0,1.376068376068376,0.0,0.0,0.0,0.0,0.0,0.8815628815628815,0.0,0.0,0.0,0.0,0.0,1.0964590964590966,0.0,0.0,0.0,0.0,0.0,1.105006105006105,0.0,0.0,0.0,0.0,0.0,0.7692307692307693,0.0,0.0,0.0,0.0,0.0,0.0,0.0,0.0,0.0,0.0,0.0,0.0,0.0,0.0,0.0,0.0,0.0,0.0,0.0,0.0,0.0,0.0,-0.5128205128205128,0.0,0.0,0.0,0.0,0.0,0.0,-0.5873015873015873,0.0,0.0,0.0,0.0,0.0,0.0,0.0,0.0,0.0,0.0,0.0,0.0,0.0,0.0,0.0,0.0,0.0,0.0,0.0,0.0,0.0,0.0,0.0,0.0,0.0,0.0,0.0,0.0,0.0,0.0,0.0,0.0,0.0,,,,,,,,,,,,,,,,,,,,,,,,,,,,,,,,,,,,,,,,,,,,,,,,,,,,,,,,,,,,,landR
accX,-0.6837606837606838,-0.7191697191697192,-3.681318681318681,0.0,0.0,0.0,-0.8363858363858364,-1.1501831501831499,-3.4285714285714284,0.0,0.0,0.0,0.0,-1.2551892551892552,-2.814407814407814,0.0,0.5625,0.0,0.0,-1.21001221001221,-2.1367521367521367,0.0,0.0,0.0,1.120879120879121,-1.5115995115995116,-2.340659340659341,0.0,0.0,0.0,0.0,-1.297924297924298,-2.8180708180708183,0.0,0.0,0.0,0.0,-0.6043956043956044,-2.9010989010989015,0.0,0.0,0.0,0.0,0.0,-2.9877899877899887,0.0,0.0,0.0,0.0,-0.6788766788766789,-2.838827838827839,0.0,0.0,0.0,0.0,-0.7936507936507936,-2.881562881562881,0.0,0.0,0.0,0.0,-0.8473748473748474,-2.3504273504273505,0.0,0.8125,0.0,0.0,0.0,-1.0,0.0,0.84375,0.0,0.8107448107448108,-0.6788766788766789,-1.2124542124542124,0.0,0.0,0.0,0.0,-2.452991452991453,-2.611721611721612,0.0,0.0,0.0,-1.8986568986568984,-1.8913308913308915,-2.3345543345543347,0.0,0.0,0.0,-0.7362637362637363,-1.4529914529914532,-1.5384615384615383,0.0,0.75,0.0,0.0,-1.0451770451770452,-0.6727716727716728,-0.625,0.65625,0.0,-1.0451770451770452,0.0,0.0,-0.8125,0.0,0.0,-0.7716727716727717,0.0,0.9059829059829059,-0.8125,0.0,0.0,-0.6739926739926739,0.0,0.9609279609279608,-0.65625,0.0,0.0,-0.6715506715506715,0.0,0.7374847374847375,-0.71875,0.0,0.0,-0.971916971916972,0.0,0.5103785103785103,-1.1875,0.0,0.0,0.0,0.0,1.2820512820512822,-1.4375,0.0,0.0,0.0,0.0,2.010989010989011,-1.59375,0.0,0.0,0.0,0.0,2.0378510378510377,-1.53125,0.0,0.0,0.0,0.0,1.9010989010989008,-1.46875,0.0,0.0,0.0,-0.5115995115995116,1.956043956043956,-1.375,0.0,0.0,-0.5482295482295483,0.0,2.2954822954822958,-1.28125,0.0,0.0,0.0,0.0,3.023199023199023,-1.15625,0.59375,0.0,0.0,0.0,3.189255189255189,-1.21875,0.0,0.0,0.0,-0.5653235653235653,2.913308913308913,-1.3125,0.0,0.0,-0.7008547008547008,0.0,2.7045177045177047,-1.25,0.0,0.0,-0.5311355311355311,0.0,3.096459096459097,-0.90625,0.0,0.0,0.0,0.0,2.9194139194139197,-0.75,0.0,0.0,-0.851037851037851,0.0,2.816849816849817,-0.6875,0.0,0.0,-0.9304029304029304,0.0,2.3907203907203907,-0.59375,0.0,0.0,-0.8925518925518926,0.0,2.2820512820512815,0.0,0.0,0.0,-1.2112332112332111,0.6617826617826618,2.2869352869352872,0.0,0.0,0.0,-0.8241758241758241,0.0,2.1819291819291817,0.0,0.0,0.0,-0.63003663003663,0.0,1.9719169719169718,0.0,0.0,0.0,-0.6361416361416361,0.0,1.4969474969474967,0.0,0.0,0.0,0.0,0.0,1.0305250305250304,0.0,0.0,0.0,0.0,-0.6202686202686203,0.0,0.0,0.0,0.0,0.0,-0.6446886446886447,0.0,0.0,0.0,0.0,0.0,-0.9304029304029304,0.0,0.0,0.0,0.0,0.0,-0.6984126984126984,0.0,0.0,0.0,0.0,0.0,0.0,0.0,0.0,0.0,0.0,0.0,0.0,0.0,0.0,0.0,0.0,0.0,0.0,0.0,0.0,0.0,0.0,0.0,0.0,-0.5018315018315018,0.0,0.0,0.0,0.0,0.0,-0.5286935286935287,0.0,0.0,0.0,0.0,0.0,0.0,0.0,0.0,0.0,0.0,0.0,0.0,0.0,0.0,0.0,0.0,0.0,0.0,0.0,0.0,0.0,0.0,0.0,0.0,0.0,0.0,0.0,0.0,0.0,0.0,0.0,0.0,0.0,0.0,0.0,0.894993894993895,0.0,0.0,0.0,0.0,0.0,0.6251526251526252,0.0,0.0,0.0,0.0,0.0,0.0,0.0,0.0,0.0,,,,,,,,,,,,,,,,,,,,,,,,,,,,,,,,,,,,,,,,,,,,,,,,,landR
accX,0.0,0.5518925518925519,0.0,0.0,-0.625,0.0,-0.7496947496947497,0.7484737484737485,-0.5262515262515263,0.0,-0.59375,0.0,-1.1501831501831499,-0.6275946275946276,-1.8388278388278387,0.0,0.0,0.0,0.0,0.0,-2.1868131868131866,0.0,0.0,0.0,-0.5470085470085471,0.0,-2.8363858363858365,0.0,0.0,0.0,0.0,-0.7496947496947497,-3.3565323565323566,0.0,0.8125,0.0,0.6263736263736264,-0.8107448107448108,-3.3015873015873014,0.0,0.96875,0.0,0.9328449328449328,-1.336996336996337,-3.9047619047619047,0.0,0.9375,0.0,0.0,-1.5115995115995116,-4.0427350427350435,0.0,0.8125,0.0,0.0,-2.003663003663004,-4.173382173382174,0.0,0.78125,0.0,0.0,-2.11965811965812,-3.9609279609279615,0.0,0.78125,0.0,0.0,-1.9218559218559217,-3.852258852258852,-0.53125,0.90625,0.0,0.0,-1.6446886446886446,-3.305250305250305,-0.6875,0.875,0.0,0.0,-1.4835164835164836,-2.490842490842491,-0.65625,0.59375,0.0,-0.706959706959707,0.0,-1.363858363858364,-0.625,0.0,0.0,-1.2844932844932846,-0.5860805860805861,-1.144078144078144,0.0,0.0,0.0,-0.6398046398046398,-0.8986568986568987,-0.9926739926739928,0.0,0.0,0.0,0.0,-1.2503052503052503,-1.006105006105006,0.0,0.0,0.0,0.0,-0.9987789987789988,-0.7997557997557998,0.0,0.0,0.0,0.0,-0.8412698412698413,-0.5421245421245421,0.0,0.0,0.0,-1.083028083028083,0.0,-0.5335775335775336,-0.5625,0.0,0.0,0.0,-0.7509157509157509,0.0,-0.65625,0.59375,0.0,0.0,-0.8046398046398047,0.0,-0.9375,0.0,0.0,0.0,0.0,0.9926739926739928,-1.25,0.0,0.0,0.0,0.0,1.6483516483516485,-1.375,0.0,0.0,-0.7509157509157509,0.0,1.8498168498168501,-1.28125,0.0,-0.5625,-0.7020757020757019,0.0,1.927960927960928,-1.1875,0.5625,-0.59375,0.0,-0.6617826617826618,2.025641025641025,-1.3125,0.0,-0.5625,0.0,0.0,2.247863247863248,-1.5625,0.0,-0.53125,0.0,0.0,2.4737484737484743,-1.53125,0.0,-0.5625,0.0,0.0,2.652014652014652,-1.34375,0.0,-0.59375,0.0,0.0,2.855921855921856,-1.1875,0.5625,-0.625,0.0,0.6373626373626373,3.3296703296703303,-1.125,0.53125,-0.625,0.0,0.6459096459096461,3.457875457875458,-1.125,0.0,-0.5625,-0.6068376068376068,0.7350427350427351,3.06959706959707,-1.03125,0.0,0.0,-0.7045177045177046,1.1575091575091576,2.971916971916972,-0.84375,0.0,0.0,-0.5616605616605617,0.8351648351648352,2.6971916971916974,-0.65625,0.0,0.0,-0.5824175824175825,0.6385836385836385,2.457875457875458,-0.5625,0.0,0.0,-0.7142857142857143,0.8058608058608059,2.268620268620269,-0.53125,0.0,0.0,-0.7228327228327228,0.7948717948717948,2.102564102564102,-0.53125,0.0,0.0,-0.912087912087912,1.1086691086691087,2.21978021978022,0.0,0.0,0.0,-0.8412698412698413,1.2161172161172158,2.515262515262515,0.0,0.0,0.0,-0.6349206349206349,0.8998778998778999,2.0781440781440783,0.0,0.0,0.0,0.0,0.0,1.4945054945054943,0.0,0.0,0.0,0.0,0.0,0.9951159951159952,0.0,0.0,0.0,0.0,0.0,0.5958485958485958,0.0,0.0,0.0,0.0,0.0,0.0,0.0,0.0,0.0,0.0,0.0,0.0,0.0,0.0,0.0,0.0,0.0,0.0,0.0,0.0,0.0,0.0,0.0,0.0,0.0,0.0,0.0,0.0,0.0,0.0,0.0,0.0,0.0,0.0,0.0,0.0,0.0,0.0,0.0,0.0,0.0,0.0,0.0,0.0,0.0,0.0,0.0,0.0,0.0,0.0,0.0,0.0,0.0,0.0,0.0,0.0,0.0,0.0,0.0,0.0,0.0,0.0,0.0,0.0,0.0,0.0,0.0,0.0,0.0,0.0,0.0,0.0,0.0,0.0,0.0,0.0,0.0,0.0,0.0,0.0,0.0,0.0,0.0,0.0,0.0,0.0,0.0,0.0,0.0,0.0,0.0,0.0,0.0,,,,,,,,,,,,,,,,,,,,,,,,,,,,,,,,,,,,,landR
