,00_accX,00_accY,00_accZ,00_gyroX,00_gyroY,00_gyroZ,01_accX,01_accY,01_accZ,01_gyroX,01_gyroY,01_gyroZ,02_accX,02_accY,02_accZ,02_gyroX,02_gyroY,02_gyroZ,03_accX,03_accY,03_accZ,03_gyroX,03_gyroY,03_gyroZ,04_accX,04_accY,04_accZ,04_gyroX,04_gyroY,04_gyroZ,05_accX,05_accY,05_accZ,05_gyroX,05_gyroY,05_gyroZ,06_accX,06_accY,06_accZ,06_gyroX,06_gyroY,06_gyroZ,07_accX,07_accY,07_accZ,07_gyroX,07_gyroY,07_gyroZ,08_accX,08_accY,08_accZ,08_gyroX,08_gyroY,08_gyroZ,09_accX,09_accY,09_accZ,09_gyroX,09_gyroY,09_gyroZ,10_accX,10_accY,10_accZ,10_gyroX,10_gyroY,10_gyroZ,11_accX,11_accY,11_accZ,11_gyroX,11_gyroY,11_gyroZ,12_accX,12_accY,12_accZ,12_gyroX,12_gyroY,12_gyroZ,13_accX,13_accY,13_accZ,13_gyroX,13_gyroY,13_gyroZ,14_accX,14_accY,14_accZ,14_gyroX,14_gyroY,14_gyroZ,15_accX,15_accY,15_accZ,15_gyroX,15_gyroY,15_gyroZ,16_accX,16_accY,16_accZ,16_gyroX,16_gyroY,16_gyroZ,17_accX,17_accY,17_accZ,17_gyroX,17_gyroY,17_gyroZ,18_accX,18_accY,18_accZ,18_gyroX,18_gyroY,18_gyroZ,19_accX,19_accY,19_accZ,19_gyroX,19_gyroY,19_gyroZ,20_accX,20_accY,20_accZ,20_gyroX,20_gyroY,20_gyroZ,21_accX,21_accY,21_accZ,21_gyroX,21_gyroY,21_gyroZ,22_accX,22_accY,22_accZ,22_gyroX,22_gyroY,22_gyroZ,23_accX,23_accY,23_accZ,23_gyroX,23_gyroY,23_gyroZ,24_accX,24_accY,24_accZ,24_gyroX,24_gyroY,24_gyroZ,25_accX,25_accY,25_accZ,25_gyroX,25_gyroY,25_gyroZ,26_accX,26_accY,26_accZ,26_gyroX,26_gyroY,26_gyroZ,27_accX,27_accY,27_accZ,27_gyroX,27_gyroY,27_gyroZ,28_accX,28_accY,28_accZ,28_gyroX,28_gyroY,28_gyroZ,29_accX,29_accY,29_accZ,29_gyroX,29_gyroY,29_gyroZ,30_accX,30_accY,30_accZ,30_gyroX,30_gyroY,30_gyroZ,31_accX,31_accY,31_accZ,31_gyroX,31_gyroY,31_gyroZ,32_accX,32_accY,32_accZ,32_gyroX,32_gyroY,32_gyroZ,33_accX,33_accY,33_accZ,33_gyroX,33_gyroY,33_gyroZ,34_accX,34_accY,34_accZ,34_gyroX,34_gyroY,34_gyroZ,35_accX,35_accY,35_accZ,35_gyroX,35_gyroY,35_gyroZ,36_accX,36_accY,36_accZ,36_gyroX,36_gyroY,36_gyroZ,37_accX,37_accY,37_accZ,37_gyroX,37_gyroY,37_gyroZ,38_accX,38_accY,38_accZ,38_gyroX,38_gyroY,38_gyroZ,39_accX,39_accY,39_accZ,39_gyroX,39_gyroY,39_gyroZ,40_accX,40_accY,40_accZ,40_gyroX,40_gyroY,40_gyroZ,41_accX,41_accY,41_accZ,41_gyroX,41_gyroY,41_gyroZ,42_accX,42_accY,42_accZ,42_gyroX,42_gyroY,42_gyroZ,43_accX,43_accY,43_accZ,43_gyroX,43_gyroY,43_gyroZ,44_accX,44_accY,44_accZ,44_gyroX,44_gyroY,44_gyroZ,45_accX,45_accY,45_accZ,45_gyroX,45_gyroY,45_gyroZ,46_accX,46_accY,46_accZ,46_gyroX,46_gyroY,46_gyroZ,47_accX,47_accY,47_accZ,47_gyroX,47_gyroY,47_gyroZ,48_accX,48_accY,48_accZ,48_gyroX,48_gyroY,48_gyroZ,49_accX,49_accY,49_accZ,49_gyroX,49_gyroY,49_gyroZ,50_accX,50_accY,50_accZ,50_gyroX,50_gyroY,50_gyroZ,51_accX,51_accY,51_accZ,51_gyroX,51_gyroY,51_gyroZ,52_accX,52_accY,52_accZ,52_gyroX,52_gyroY,52_gyroZ,53_accX,53_accY,53_accZ,53_gyroX,53_gyroY,53_gyroZ,54_accX,54_accY,54_accZ,54_gyroX,54_gyroY,54_gyroZ,55_accX,55_accY,55_accZ,55_gyroX,55_gyroY,55_gyroZ,56_accX,56_accY,56_accZ,56_gyroX,56_gyroY,56_gyroZ,57_accX,57_accY,57_accZ,57_gyroX,57_gyroY,57_gyroZ,58_accX,58_accY,58_accZ,58_gyroX,58_gyroY,58_gyroZ,59_accX,59_accY,59_accZ,59_gyroX,59_gyroY,59_gyroZ,60_accX,60_accY,60_accZ,60_gyroX,60_gyroY,60_gyroZ,61_accX,61_accY,61_accZ,61_gyroX,61_gyroY,61_gyroZ,62_accX,62_accY,62_accZ,62_gyroX,62_gyroY,62_gyroZ,63_accX,63_accY,63_accZ,63_gyroX,63_gyroY,63_gyroZ,64_accX,64_accY,64_accZ,64_gyroX,64_gyroY,64_gyroZ,65_accX,65_accY,65_accZ,65_gyroX,65_gyroY,65_gyroZ,66_accX,66_accY,66_accZ,66_gyroX,66_gyroY,66_gyroZ,67_accX,67_accY,67_accZ,67_gyroX,67_gyroY,67_gyroZ,68_accX,68_accY,68_accZ,68_gyroX,68_gyroY,68_gyroZ,69_accX,69_accY,69_accZ,69_gyroX,69_gyroY,69_gyroZ,70_accX,70_accY,70_accZ,70_gyroX,70_gyroY,70_gyroZ,71_accX,71_accY,71_accZ,71_gyroX,71_gyroY,71_gyroZ,72_accX,72_accY,72_accZ,72_gyroX,72_gyroY,72_gyroZ,73_accX,73_accY,73_accZ,73_gyroX,73_gyroY,73_gyroZ,74_accX,74_accY,74_accZ,74_gyroX,74_gyroY,74_gyroZ,75_accX,75_accY,75_accZ,75_gyroX,75_gyroY,75_gyroZ,76_accX,76_accY,76_accZ,76_gyroX,76_gyroY,76_gyroZ,77_accX,77_accY,77_accZ,77_gyroX,77_gyroY,77_gyroZ,78_accX,78_accY,78_accZ,78_gyroX,78_gyroY,78_gyroZ,79_accX,79_accY,79_accZ,79_gyroX,79_gyroY,79_gyroZ,category
accX,0.0,0.0,0.0,0.0,0.0,0.0,0.0,0.0,0.0,0.0,0.0,0.0,0.0,0.0,0.0,0.0,0.0,0.0,0.0,0.0,0.0,0.0,0.0,0.0,0.0,0.0,0.0,0.0,0.0,0.0,0.0,0.0,0.0,0.0,0.0,0.0,0.0,0.0,0.0,0.0,0.0,0.0,0.0,0.0,0.0,0.0,0.0,0.0,0.0,0.0,0.0,0.0,0.0,0.0,0.0,0.0,0.0,0.0,0.0,0.0,0.0,0.0,0.0,0.0,0.0,0.0,0.0,0.0,0.0,0.0,0.0,0.0,0.0,0.0,0.0,0.0,0.0,0.0,0.0,0.0,0.0,0.0,0.0,0.0,0.0,0.0,0.0,0.0,0.0,0.0,0.0,0.0,0.0,0.0,0.0,0.0,0.0,0.0,0.0,0.0,0.0,0.0,0.0,0.0,0.0,0.0,0.0,0.0,0.0,0.0,0.0,0.0,0.0,0.0,0.0,0.0,0.0,0.0,0.0,0.0,0.0,0.0,0.0,0.0,0.0,0.0,0.0,0.0,0.0,0.0,0.0,0.0,0.0,0.0,0.0,0.0,0.0,0.0,0.0,0.0,0.0,0.0,0.0,0.0,0.0,0.0,0.0,0.0,0.0,0.0,0.0,0.0,0.0,0.0,0.0,0.0,0.0,0.0,0.0,0.0,0.0,0.0,0.0,0.0,0.0,0.0,0.0,0.0,0.0,0.0,0.0,0.0,0.0,0.0,0.0,0.0,0.0,0.0,0.0,0.0,0.0,0.0,0.0,0.0,0.0,0.0,0.0,0.0,0.0,0.0,0.0,0.0,0.0,0.0,0.0,0.0,0.0,0.0,0.0,0.0,0.0,0.0,0.0,0.0,0.0,0.0,0.0,0.0,0.0,0.0,0.0,0.0,0.0,0.0,0.0,0.0,0.0,0.0,0.0,0.0,0.0,0.0,0.0,0.0,0.0,0.0,0.0,0.0,0.0,0.0,0.0,0.0,0.0,0.0,0.0,0.0,0.0,0.0,0.0,0.0,0.0,0.0,0.0,0.0,0.0,0.0,0.0,0.0,0.0,0.0,0.0,0.0,0.0,0.0,0.0,0.0,0.0,0.0,0.0,0.0,0.0,0.0,0.0,0.0,0.0,0.0,0.0,0.0,0.0,0.0,0.0,0.0,0.0,0.0,0.0,0.0,0.0,0.0,0.0,0.0,0.0,0.0,0.0,0.0,0.0,0.0,0.0,0.0,0.0,0.0,0.0,0.0,0.0,0.0,0.0,0.0,0.0,0.0,0.0,0.0,0.0,0.0,0.0,0.0,0.0,0.0,0.0,0.0,0.0,0.0,0.0,0.0,0.0,0.0,0.0,0.0,0.0,0.0,0.0,0.0,0.0,0.0,0.0,0.0,0.0,0.0,0.0,0.0,0.0,0.0,0.0,0.0,0.0,0.0,0.0,0.0,0.0,0.0,0.0,0.0,0.0,0.0,0.0,0.0,0.0,0.0,0.0,0.0,0.0,0.0,0.0,0.0,0.0,0.0,0.0,0.0,0.0,0.0,0.0,0.0,0.0,0.0,0.0,0.0,0.0,0.0,0.0,0.0,0.0,0.0,0.0,0.0,0.0,0.0,0.0,0.0,0.0,0.0,0.0,0.0,0.0,0.0,0.0,0.0,0.0,0.0,0.0,0.0,0.0,0.0,,,,,,,,,,,,,,,,,,,,,,,,,,,,,,,,,,,,,,,,,,,,,,,,,,,,,,,,,,,,,,,,,,,,,,,,,,,,,,,,,,,,,,,,,,,moveUp
accX,0.0,0.0,0.0,0.0,0.0,0.0,0.787,0.0,0.0,0.0,0.0,0.0,-0.9420000000000001,-0.624,0.0,0.0,0.0,0.0,0.0,0.0,0.0,0.0,0.0,0.0,0.0,0.0,0.0,0.0,0.0,0.0,0.0,0.0,0.0,0.0,0.0,0.0,0.0,0.0,0.0,0.0,0.0,0.0,0.0,0.0,-0.521,0.0,0.0,0.0,0.0,0.0,-0.777,0.0,0.0,0.0,0.0,0.0,-1.13,-0.542,-0.77,0.0,-1.037,0.0,-1.419,-0.539,-1.063,0.0,-1.693,0.0,-1.8359999999999999,-0.609,-1.041,0.0,-0.612,0.0,-1.4469999999999998,-1.0979999999999999,-1.58,0.0,0.0,-0.607,-1.1320000000000001,-1.821,-2.861,0.0,0.0,0.0,-1.0190000000000001,-2.6430000000000002,-4.552,-0.546,-3.0039999999999996,2.214,-1.469,-2.728,-5.254,-0.632,-4.941,3.673,-2.051,-2.397,-4.993,0.0,-5.726,2.798,-3.1,-2.279,-4.217,0.9990000000000001,-3.068,2.673,-2.7739999999999996,-2.588,-4.245,1.3840000000000001,-1.859,3.8160000000000003,-1.7269999999999999,-3.028,-4.7410000000000005,1.5330000000000001,-4.3260000000000005,5.534,-2.226,-2.511,-4.008,2.0340000000000003,-2.855,5.06,-2.231,-2.0340000000000003,-3.137,2.202,-0.5379999999999999,3.0180000000000002,-1.929,-2.251,-3.092,1.841,1.472,2.407,-0.755,-3.24,-4.044,1.3430000000000002,0.0,3.917,0.0,-3.948,-5.207999999999999,1.643,-1.268,5.008,0.0,-3.1180000000000003,-4.998,2.285,0.0,2.18,-1.225,-1.78,-4.288,2.448,2.96,-2.858,-2.414,-1.993,-4.226,1.942,5.26,-3.4989999999999997,-1.38,-3.5669999999999997,-5.142,1.251,4.126,-1.339,0.0,-4.505,-6.346,0.0,3.1310000000000002,0.0,0.0,-4.1339999999999995,-6.734,0.0,3.15,0.0,0.573,-3.134,-7.0760000000000005,0.0,0.617,-2.184,-1.839,-2.5669999999999997,-7.077999999999999,0.0,0.0,-2.204,-3.839,-2.8080000000000003,-5.7010000000000005,0.0,2.94,-0.623,-3.5610000000000004,-2.9,-4.525,0.0,3.562,0.86,-2.978,-2.296,-4.166,0.0,2.109,1.4280000000000002,-2.9619999999999997,-1.0979999999999999,-3.639,0.0,1.9180000000000001,-1.051,-3.714,0.0,-2.513,0.763,3.22,-2.9219999999999997,-4.1339999999999995,0.0,-1.568,0.6679999999999999,3.6630000000000003,-1.69,-3.174,-1.185,-1.28,0.0,2.58,0.0,-1.713,-1.337,-1.185,0.0,1.75,0.759,-0.564,-0.8690000000000001,-0.813,0.0,2.355,0.0,0.0,0.0,0.0,0.0,2.8,-1.156,-0.7490000000000001,0.0,-0.64,0.0,1.689,-0.88,-1.3019999999999998,-0.703,-0.51,0.0,1.527,0.0,-1.138,-0.757,0.0,0.0,1.585,0.0,-0.54,-0.624,0.0,0.0,1.55,-0.638,0.0,-0.507,0.0,0.0,0.9159999999999999,0.0,0.0,0.0,0.0,0.0,0.0,0.0,0.0,0.0,0.0,0.0,0.634,-0.6629999999999999,0.0,0.0,0.0,0.0,0.7240000000000001,-0.664,0.0,0.0,0.0,0.0,0.0,0.0,0.0,0.0,0.0,0.0,0.0,0.0,0.0,0.0,0.0,0.0,0.0,0.0,0.0,0.0,0.0,0.0,0.0,-0.597,0.0,0.0,0.0,0.0,0.0,0.0,0.0,0.0,0.0,0.0,0.0,0.0,0.0,0.0,0.0,0.0,0.0,0.0,0.0,0.0,0.0,0.0,0.0,-0.52,0.0,0.0,0.0,0.0,0.0,-0.73,0.0,0.0,0.0,0.0,,,,,,,,,,,,,,,,,,,,,,,,,,,,,,,,,,,,,,,,,,,,,,,,,,,,,,,,,,,,,,,,,,,,,,,,,,,,,,,,,,,,,,,,,,,,,,,,,,,,,,,,,,,,,,,,,,,moveUp
accX,0.0,-0.505,0.0,0.0,0.0,0.0,0.0,0.0,0.0,0.0,0.0,0.0,0.0,0.0,0.0,0.0,0.0,0.0,0.0,0.0,0.0,0.0,0.0,0.0,0.0,-1.357,0.0,0.0,0.0,0.0,0.0,0.0,0.0,0.0,0.0,0.0,0.0,0.619,-1.242,0.0,0.0,0.0,-0.631,0.0,-1.624,0.0,0.0,0.0,-0.52,0.0,-1.8940000000000001,0.0,0.0,0.0,-0.973,0.0,-2.131,-0.623,0.0,0.0,-1.0390000000000001,0.0,-2.4930000000000003,-0.787,0.0,0.0,-0.7929999999999999,0.0,-2.821,-0.9179999999999999,-0.695,0.0,0.0,0.973,-2.8789999999999996,-1.1,-1.364,0.0,0.0,1.499,-3.102,-1.364,-2.698,0.0,-1.922,0.841,-4.16,-1.761,-4.038,0.0,-4.058,0.769,-4.604,-2.4419999999999997,-4.5089999999999995,0.0,-3.096,1.797,-3.8139999999999996,-3.109,-4.349,0.96,-1.794,3.3489999999999998,-2.237,-3.548,-4.602,1.175,-1.659,4.654,-0.6829999999999999,-3.798,-5.271,1.147,-2.832,4.971,0.0,-3.955,-5.607,1.579,-3.81,3.927,-0.8140000000000001,-4.013,-5.103,1.96,-1.839,4.171,0.0,-3.9189999999999996,-3.9019999999999997,2.225,1.195,4.08,0.708,-3.514,-3.318,2.332,3.0810000000000004,2.319,1.093,-3.1830000000000003,-3.778,2.23,3.4419999999999997,0.0,1.061,-3.1830000000000003,-4.791,1.9680000000000002,2.26,-2.906,0.0,-3.633,-5.2,1.545,3.636,-2.126,0.534,-4.117,-4.805,0.894,4.644,-0.6679999999999999,1.035,-3.944,-4.776,0.872,4.923,-0.525,0.937,-3.238,-4.956,0.985,4.373,-2.5140000000000002,0.0,-2.623,-5.221,0.754,3.745,-4.507,-1.722,-3.112,-4.407,0.0,5.334,-3.512,-1.208,-3.545,-4.513,-0.723,5.367000000000001,-1.954,-0.65,-3.264,-4.8180000000000005,-1.11,4.986000000000001,-0.773,0.0,-2.6210000000000004,-5.205,-1.199,4.103,-0.7390000000000001,0.0,-1.931,-5.362,-1.186,1.371,-1.171,-1.574,-1.6569999999999998,-4.373,-0.968,0.531,-0.759,-2.955,-1.6159999999999999,-2.7880000000000003,-0.503,2.298,0.0,-2.937,-1.376,-1.93,0.0,2.8510000000000004,0.625,-2.248,-0.986,-1.7280000000000002,0.0,2.256,0.0,-1.538,-0.684,-1.585,0.0,1.453,0.0,-0.72,0.0,-1.3559999999999999,0.0,0.9229999999999999,-0.501,-0.735,0.0,-0.973,0.0,1.3330000000000002,-0.7,-0.624,-0.653,-0.768,0.0,1.208,-0.513,0.0,-0.6779999999999999,-0.696,0.0,0.0,0.0,0.0,0.0,0.0,0.0,0.54,0.0,0.0,0.0,0.0,0.0,0.0,-0.6559999999999999,0.0,0.0,0.0,0.0,0.0,0.0,0.0,0.0,0.0,0.0,0.575,-0.556,0.0,0.0,0.0,0.0,0.0,0.0,0.0,0.0,0.0,0.0,0.0,0.0,0.0,0.0,0.0,0.0,0.0,0.0,0.0,0.0,0.0,0.0,0.0,0.0,0.0,0.0,0.0,0.0,0.0,0.0,0.0,0.0,0.0,0.0,0.0,0.0,0.0,0.0,0.0,0.0,0.0,0.0,0.0,0.0,0.0,0.0,0.0,0.0,0.0,0.0,0.0,0.0,0.0,0.0,0.0,0.0,0.0,0.0,0.0,0.0,0.0,0.0,0.0,0.0,0.0,0.0,0.0,0.0,0.0,0.0,0.0,0.0,0.0,0.0,0.0,0.0,0.0,0.0,0.0,0.0,0.0,0.0,0.0,0.0,0.0,0.0,0.0,0.0,0.0,0.0,0.0,0.0,0.0,0.0,0.0,0.0,0.0,0.0,0.0,0.0,0.0,0.0,0.0,0.0,0.0,0.0,0.0,0.0,0.0,0.0,0.0,0.0,0.0,0.0,0.0,0.0,0.0,0.0,0.0,0.0,0.0,0.0,0.0,0.0,,,,,,,,,,,,,,,,,,,,,,,,,,,,,,,,,,,,,,,,,,,,,,,,,,,,,,,,,,,,,,,,,,,moveUp
accX,-0.505,0.0,-0.748,0.0,0.0,0.0,-0.679,0.706,0.0,0.0,0.0,0.0,0.0,-0.525,0.0,0.0,0.0,0.0,0.0,0.0,0.0,0.0,0.0,0.0,0.0,0.0,0.528,0.0,0.0,0.0,0.0,0.0,0.0,0.0,0.0,0.0,0.0,0.605,0.501,0.0,0.0,0.0,0.0,0.0,0.0,0.0,0.0,0.0,0.0,-0.688,0.0,0.0,0.0,0.0,0.0,0.0,0.0,0.0,0.0,0.0,0.0,0.0,0.0,0.0,0.0,0.0,0.0,0.0,-0.521,0.0,0.0,0.0,-0.517,0.0,-0.934,0.0,0.0,0.0,0.0,0.0,-1.3780000000000001,0.0,0.0,0.0,0.0,0.0,-1.694,0.0,-0.585,0.0,-1.2329999999999999,0.0,-2.5180000000000002,0.0,-0.755,0.0,-1.246,0.0,-2.86,0.0,-0.8240000000000001,0.0,-0.976,0.731,-2.563,-0.763,-1.123,0.0,-1.006,0.899,-2.494,-1.082,-1.723,0.0,-0.841,0.0,-2.823,-1.6840000000000002,-2.592,0.0,0.0,0.604,-2.767,-2.199,-4.387,0.0,-0.976,1.311,-1.73,-2.713,-5.796,0.0,-2.081,2.1069999999999998,0.0,-3.347,-6.91,0.0,-4.231,2.4819999999999998,0.0,-4.1819999999999995,-6.976,0.0,-3.332,5.153,1.151,-4.647,-6.707999999999999,0.0,-2.158,6.875,1.6669999999999998,-4.501,-6.585,0.0,-1.744,6.678,2.1959999999999997,-3.9610000000000003,-6.388,1.1159999999999999,-2.353,6.021,1.508,-3.091,-5.308,2.024,-2.148,4.69,0.0,-2.23,-3.673,2.279,0.5479999999999999,2.9789999999999996,0.0,-1.75,-2.778,1.97,2.9389999999999996,1.224,0.0,-1.817,-3.0639999999999996,1.693,3.991,0.0,0.0,-2.195,-3.9339999999999997,1.544,3.755,-0.9540000000000001,0.706,-2.484,-4.542,1.133,2.885,-1.256,0.8270000000000001,-2.6039999999999996,-4.524,0.0,2.6910000000000003,-1.379,0.6,-2.623,-4.372,0.0,2.969,-0.9129999999999999,0.657,-2.461,-4.488,0.0,2.602,0.0,0.0,-1.6880000000000002,-4.2330000000000005,0.0,1.993,0.0,-0.9329999999999999,-0.794,-3.425,0.835,2.7430000000000003,-0.7829999999999999,-1.517,-0.505,-2.957,0.9009999999999999,4.544,-2.406,-1.845,-1.0,-3.2760000000000002,0.544,5.039,-2.443,-1.579,-1.62,-3.937,0.0,3.1260000000000003,-0.927,-1.395,-1.6840000000000002,-4.007,0.0,1.367,0.0,-1.376,-1.24,-3.3510000000000004,0.0,2.036,-0.568,-1.5030000000000001,-1.0959999999999999,-2.932,0.0,2.6919999999999997,-0.9079999999999999,-0.9640000000000001,-1.101,-3.0180000000000002,0.0,0.0,0.569,-1.288,-0.5920000000000001,-2.456,0.0,1.232,-0.613,-1.516,0.0,-1.906,0.0,1.496,-1.198,-1.526,-0.569,-1.886,0.0,0.0,0.0,-1.518,-0.8859999999999999,-1.7619999999999998,0.0,0.0,0.0,-1.207,-0.775,-1.246,0.0,1.146,0.0,-0.7859999999999999,-0.526,-0.9420000000000001,0.0,0.782,0.0,-0.753,0.0,-0.9790000000000001,0.0,0.0,-0.501,-1.001,0.0,-0.7020000000000001,0.0,0.579,-0.501,-0.9390000000000001,0.0,0.0,0.0,0.9059999999999999,0.0,-0.585,0.0,0.0,0.0,0.561,0.0,0.0,0.0,0.0,0.0,0.0,0.0,0.0,0.0,0.0,0.0,0.0,0.0,0.0,0.0,0.0,0.0,0.0,-0.502,0.0,0.0,0.0,0.0,0.0,0.0,0.0,0.0,0.0,0.0,0.0,0.0,0.0,0.0,0.0,0.0,0.0,0.0,0.0,0.0,0.0,0.0,0.0,-0.515,0.0,0.0,0.0,0.0,0.0,-0.6559999999999999,0.0,0.0,0.0,0.0,0.0,0.0,0.0,0.0,0.0,0.0,0.0,0.0,0.0,0.0,0.0,0.0,0.0,0.0,0.0,0.0,0.0,0.0,0.0,0.0,0.0,0.0,0.0,0.0,0.0,0.0,0.0,0.0,0.0,0.0,0.0,0.0,0.0,0.0,0.0,0.0,0.0,0.0,0.0,0.0,0.0,0.0,0.0,0.0,0.0,0.0,0.0,0.0,0.0,0.0,0.0,0.0,0.0,0.0,0.0,0.0,0.0,0.0,0.0,0.0,0.0,0.0,0.0,0.0,0.0,0.0,0.0,0.0,0.0,0.0,0.0,0.0,,,,,,,,,,,,,,,,,,,,,,,,,moveUp
accX,0.0,-1.7730000000000001,-1.156,0.0,0.0,0.0,0.0,0.0,-1.109,-0.664,0.0,0.0,0.0,0.0,-1.165,-0.5760000000000001,0.0,0.0,0.0,0.893,-1.035,0.0,0.0,0.0,0.546,0.532,-0.862,0.0,-1.085,0.0,1.02,-1.626,-1.702,-1.124,-2.156,0.0,0.0,-1.082,-1.5030000000000001,-2.314,-3.392,-0.7659999999999999,-2.2430000000000003,1.159,-1.3719999999999999,-2.524,-3.781,-1.06,-4.915,2.563,-2.04,-2.265,-3.359,0.0,-5.415,3.0260000000000002,-2.7510000000000003,-1.913,-2.405,0.725,-3.0669999999999997,3.365,-2.498,-1.45,-1.893,1.4280000000000002,-1.479,0.9079999999999999,-2.5469999999999997,-1.751,-2.0780000000000003,1.483,0.752,0.0,-2.026,-2.675,-2.977,0.747,0.685,1.357,-0.856,-3.576,-4.282,0.0,-1.338,3.9419999999999997,0.0,-3.867,-4.779,0.0,-2.7119999999999997,6.063,0.917,-3.477,-4.646,0.0,-2.176,7.329,1.375,-2.6430000000000002,-4.409,1.247,0.0,3.8960000000000004,-0.64,-2.861,-4.548,1.0659999999999998,0.0,3.5660000000000003,0.0,-3.502,-5.019,0.8809999999999999,-0.517,4.113,0.0,-3.515,-5.072,1.1540000000000001,0.0,4.614,0.0,-2.532,-4.452,1.801,1.569,2.2119999999999997,0.0,-1.455,-4.26,1.9,1.811,-1.463,-0.953,-1.551,-4.638,1.541,1.189,-3.41,-1.629,-2.717,-4.796,1.091,2.063,-0.848,-1.021,-3.387,-4.09,0.5920000000000001,3.303,0.0,0.0,-2.8819999999999997,-3.725,0.0,3.029,0.0,0.5539999999999999,-2.333,-4.084,0.0,2.377,-0.514,0.0,-1.8319999999999999,-4.631,0.0,0.546,-2.134,-1.179,-1.5319999999999998,-4.478,0.0,1.465,-2.614,-2.157,-1.67,-3.3569999999999998,0.0,3.562,-1.76,-1.68,-1.864,-2.805,0.0,3.8760000000000003,-1.32,-1.09,-1.8969999999999998,-3.073,0.0,2.2569999999999997,0.0,-0.841,-1.621,-3.278,-0.584,1.557,0.0,-1.217,-0.889,-2.9730000000000003,0.0,1.034,-1.185,-2.182,-0.568,-2.359,0.0,2.8169999999999997,-1.892,-2.319,-0.955,-1.7630000000000001,0.0,3.178,-1.035,-1.73,-1.5519999999999998,-1.992,0.0,1.47,0.732,-1.247,-1.5319999999999998,-2.05,-0.561,0.993,0.9309999999999999,-0.925,-0.892,-1.527,0.0,2.122,-1.235,-1.093,-0.56,-1.171,0.0,1.98,-1.5,-1.2309999999999999,-1.0959999999999999,-1.337,0.0,0.0,0.7120000000000001,-0.93,-1.103,-1.028,0.0,0.0,1.005,-0.6729999999999999,0.0,0.0,0.0,0.92,-0.523,0.0,0.0,0.0,0.0,1.061,-0.865,0.0,0.0,0.0,0.0,0.0,0.0,-0.532,0.0,0.0,0.0,0.0,0.0,0.0,0.0,0.0,0.0,0.0,0.0,0.0,0.0,0.0,0.0,0.0,-0.6709999999999999,0.0,0.0,0.0,0.0,0.0,0.0,0.0,0.0,0.0,0.0,0.0,0.0,0.0,0.0,0.0,0.0,0.0,0.0,0.0,0.0,0.0,0.0,0.0,0.0,0.0,0.0,0.0,0.0,0.0,0.0,0.0,0.0,0.0,0.0,0.0,0.0,0.0,0.0,0.0,0.0,0.0,-0.531,0.0,0.0,0.0,0.0,0.0,-0.564,0.0,0.0,0.0,0.0,0.0,0.0,0.0,0.0,0.0,0.0,0.0,0.0,0.0,0.0,0.0,0.0,0.0,0.0,0.0,0.0,0.0,0.0,0.0,0.0,0.0,0.0,0.0,0.0,0.0,0.0,0.0,0.0,0.0,0.0,0.0,0.0,0.0,0.0,0.0,0.0,0.0,0.0,0.0,0.0,0.0,0.0,0.0,0.0,0.0,0.0,0.0,0.0,0.0,0.0,0.0,0.0,0.0,0.0,0.0,0.0,0.0,0.0,0.0,0.0,,,,,,,,,,,,,,,,,,,,,,,,,,,,,,,,,,,,,,,,,,,,,,,,,,,,,,,,,,,,,,,,,,,,,,,,,,,,,,,moveUp
accX,0.0,0.0,0.0,0.0,0.0,0.0,0.0,0.0,0.0,0.0,0.0,0.0,0.0,-0.5579999999999999,-0.608,0.0,0.0,0.0,0.0,-1.06,-1.1640000000000001,0.0,0.0,0.0,-0.6940000000000001,0.0,-1.0859999999999999,0.0,0.0,0.0,-0.506,0.0,-1.239,0.0,0.0,0.0,-0.6679999999999999,0.0,-1.4280000000000002,0.0,0.0,0.0,-1.382,0.0,-1.9680000000000002,0.0,0.0,0.0,-0.956,0.0,-2.513,-0.604,-0.5579999999999999,0.0,-0.998,0.0,-2.9130000000000003,-0.903,-0.723,0.0,0.0,0.0,-3.022,-1.24,-0.953,0.0,-0.5670000000000001,0.0,-3.19,-1.5930000000000002,-1.54,0.0,0.0,0.898,-3.165,-1.7590000000000001,-2.251,0.5579999999999999,-0.6709999999999999,0.685,-2.674,-1.9869999999999999,-3.225,0.624,-0.633,1.083,-1.716,-2.593,-4.276,0.512,-1.121,1.8430000000000002,-0.579,-3.272,-5.5489999999999995,0.0,-1.99,2.23,0.6659999999999999,-3.87,-6.861000000000001,0.0,-1.83,4.296,2.7,-4.588,-7.978,0.66,-1.77,5.874,3.759,-5.043,-8.609,1.129,-0.593,5.51,3.91,-4.843999999999999,-8.561,1.396,0.0,4.074,3.3,-4.019,-8.272,1.258,0.67,1.931,2.388,-3.085,-8.004,0.84,0.862,-0.6920000000000001,1.062,-2.563,-7.642,0.0,1.272,-1.932,0.0,-2.803,-7.047999999999999,0.0,1.8230000000000002,-0.5920000000000001,0.0,-2.64,-5.919,0.0,2.191,0.0,-0.6509999999999999,-2.052,-5.316,0.0,1.7,0.9259999999999999,-0.9129999999999999,-1.329,-4.763,0.0,0.0,0.0,-2.204,-0.8170000000000001,-3.844,0.0,0.0,0.621,-2.9389999999999996,0.0,-2.613,0.669,1.325,0.0,-2.9130000000000003,0.0,-1.871,0.96,3.0610000000000004,0.0,-2.503,0.0,-1.9409999999999998,0.9079999999999999,3.0189999999999997,0.0,-1.78,0.0,-2.367,0.636,0.826,0.0,-1.4609999999999999,0.0,-2.1919999999999997,0.508,0.0,0.0,-1.558,0.0,-1.4269999999999998,0.722,1.3130000000000002,0.0,-1.469,0.0,-1.234,0.9520000000000001,2.847,-1.053,-1.4880000000000002,0.0,-1.791,0.797,2.8480000000000003,-1.485,-1.515,0.0,-2.432,0.0,0.0,-0.667,-1.993,0.0,-2.103,0.0,0.0,0.0,-2.002,0.0,-1.271,0.6609999999999999,1.041,0.0,-1.895,0.0,-0.968,0.755,1.483,-0.612,-1.8159999999999998,0.0,-1.0270000000000001,0.711,1.452,-0.596,-1.601,0.0,-1.028,0.679,1.429,-0.83,-1.4069999999999998,0.0,-0.955,0.609,1.034,-1.068,-1.4869999999999999,0.0,-0.6809999999999999,0.0,1.284,-1.0190000000000001,-1.28,-0.552,0.0,0.0,1.52,-0.95,-1.033,-0.6459999999999999,0.0,0.0,1.024,-0.542,-0.6729999999999999,-0.555,0.0,0.0,0.7170000000000001,0.0,0.0,0.0,0.0,0.0,0.83,-0.7290000000000001,0.0,0.0,0.0,0.0,0.7,0.0,0.0,0.0,0.0,0.0,0.0,0.0,0.0,0.0,0.0,0.0,0.0,0.0,0.0,0.0,0.0,0.0,0.0,-0.579,0.0,0.0,0.0,0.0,0.0,0.0,0.0,0.0,0.0,0.0,0.0,0.0,0.0,0.0,0.0,0.0,0.0,0.0,0.0,0.0,0.0,0.0,0.0,0.0,0.0,0.0,0.0,0.0,0.0,0.0,0.0,0.0,0.0,0.0,0.0,0.0,0.0,0.0,0.0,0.0,0.0,0.0,0.0,0.0,0.0,0.0,0.0,0.0,0.0,0.0,0.0,0.0,0.0,0.0,0.0,0.0,0.0,0.0,0.0,0.0,0.0,0.0,0.0,0.0,0.0,0.0,0.0,0.0,0.0,0.0,0.0,0.0,0.0,0.0,0.0,0.0,0.0,0.0,0.0,0.0,0.0,0.0,0.0,0.0,0.507,0.0,0.0,0.0,-0.5660000000000001,0.0,0.637,0.0,0.0,0.0,-0.512,0.0,0.0,0.0,0.662,0.0,-0.8909999999999999,-0.675,0.0,0.0,1.036,0.505,-0.645,0.0,0.0,0.0,1.499,0.6920000000000001,,,,,,,,,,,,,,,,,,,,,,,,,,,,,,,,,,,,,,,,,,,,,,,,,,,,,,,moveUp
accX,-0.61,0.0,-1.122,0.0,0.0,0.0,-0.877,0.0,-0.903,0.0,-0.6940000000000001,0.0,0.0,-0.907,-0.973,0.0,-1.1159999999999999,0.0,-0.871,-1.4569999999999999,-1.73,-1.3519999999999999,-1.368,0.0,-0.98,0.0,-1.6,-2.053,-1.579,0.0,-1.406,1.0979999999999999,-1.686,-2.214,-1.761,0.0,-1.105,1.838,-1.391,-2.02,-2.015,0.0,-1.179,1.527,-1.054,-1.926,-2.481,0.0,-2.978,2.01,-1.2109999999999999,-1.673,-2.1830000000000003,0.0,-1.9580000000000002,1.639,-1.217,-1.6669999999999998,-1.9409999999999998,0.0,-1.449,1.655,-1.158,-1.911,-1.954,0.747,-0.976,2.06,-1.001,-2.221,-2.158,1.042,-1.225,2.8110000000000004,-0.718,-2.342,-2.423,0.943,-2.338,3.8110000000000004,-0.7959999999999999,-2.129,-2.0540000000000003,0.579,-1.6030000000000002,3.8710000000000004,0.0,-2.133,-1.922,0.742,-1.6369999999999998,4.209,0.0,-2.273,-1.909,1.195,0.0,4.482,0.0,-2.5140000000000002,-2.168,1.359,0.8809999999999999,4.0089999999999995,0.598,-2.833,-2.988,1.193,0.0,3.676,1.079,-3.068,-3.7319999999999998,1.004,0.0,4.09,1.288,-3.043,-3.9019999999999997,0.789,0.0,4.071000000000001,1.127,-2.833,-3.766,0.511,1.1440000000000001,3.023,0.958,-2.908,-4.146,0.0,2.227,1.3769999999999998,1.08,-3.463,-5.012,0.0,-1.043,2.738,0.0,-3.04,-5.329,0.992,0.0,1.922,-0.51,-2.158,-4.078,1.147,2.7119999999999997,0.0,-0.833,-1.71,-3.54,1.079,3.635,-1.033,-0.925,-2.023,-4.099,0.9990000000000001,2.5540000000000003,-1.24,-1.1059999999999999,-2.2430000000000003,-4.5,0.647,2.312,-1.548,-1.227,-2.037,-4.07,0.0,1.965,-1.785,-1.472,-2.025,-3.5260000000000002,0.0,2.524,-1.3359999999999999,-1.081,-2.213,-3.218,0.0,2.312,0.0,-0.606,-2.246,-3.298,-0.521,1.781,0.0,-0.565,-1.8940000000000001,-3.2260000000000004,-0.638,1.375,0.0,-0.522,-1.361,-2.989,0.0,1.166,0.0,-0.63,-1.0590000000000002,-2.668,0.0,1.265,-0.753,-0.887,-1.083,-2.305,0.0,1.5419999999999998,0.0,-0.685,-1.2429999999999999,-2.156,0.0,1.294,0.0,-0.527,-1.171,-2.145,0.0,0.937,0.7879999999999999,0.0,-0.879,-2.039,0.0,0.512,0.8390000000000001,0.0,0.0,-1.8159999999999998,0.0,1.536,-1.151,0.0,0.0,-1.6159999999999999,0.0,1.246,-1.131,-0.8420000000000001,-0.7340000000000001,-1.798,0.0,0.507,0.0,-0.632,-1.065,-1.734,0.0,0.626,0.541,0.0,-0.853,-1.401,0.0,0.95,0.0,-0.541,-0.545,-1.145,0.0,1.179,-0.8909999999999999,-0.9279999999999999,0.0,-0.9940000000000001,0.0,1.23,-1.082,-1.216,-0.568,-0.951,0.0,0.6990000000000001,-0.6,-1.1740000000000002,-0.737,-0.805,0.0,0.0,0.0,-0.9440000000000001,-0.513,0.0,0.0,0.0,0.0,-0.79,0.0,0.0,0.0,0.773,-0.867,-0.765,0.0,0.0,0.0,0.0,-0.61,-0.7290000000000001,0.0,0.0,0.0,0.0,0.0,0.0,0.0,0.0,0.0,0.0,-0.625,0.0,0.0,0.0,0.0,0.0,0.0,0.0,0.0,0.0,0.0,0.0,0.0,0.0,0.0,0.0,0.0,0.0,0.0,0.0,0.0,0.0,0.0,0.0,0.0,0.0,0.0,0.0,0.0,0.0,0.0,0.0,0.0,0.0,0.0,0.0,0.0,0.0,0.0,0.0,0.0,0.0,0.0,0.0,0.0,0.0,0.0,0.0,0.0,0.0,0.0,0.0,0.0,0.0,0.0,0.0,0.0,0.0,0.0,0.0,0.0,0.0,0.0,0.0,0.0,0.0,0.0,0.0,0.0,0.0,0.0,0.0,0.0,0.0,0.0,0.0,0.0,0.0,0.0,0.0,0.0,0.0,0.0,0.0,0.0,0.0,0.0,0.0,0.0,0.0,0.0,0.0,0.0,0.0,0.0,,,,,,,,,,,,,,,,,,,,,,,,,,,,,,,,,,,,,,,,,,,,,,,,,,,,,,,,,,,,,,,,,,,moveUp
accX,0.0,-0.861,0.0,0.0,0.0,0.0,0.0,0.0,0.0,0.0,0.0,0.0,0.0,0.0,0.0,0.0,0.0,0.0,0.0,0.0,0.0,0.0,0.0,0.0,0.0,0.0,0.0,0.0,0.0,0.0,0.0,0.0,0.0,0.0,0.0,0.0,0.0,0.0,0.0,0.0,0.0,0.0,0.0,0.0,0.0,0.0,0.0,0.0,0.0,0.0,-0.695,0.0,0.0,0.0,0.0,0.0,-1.056,0.0,-0.581,0.0,-0.622,0.0,-1.401,-0.623,-0.893,0.0,-1.246,1.085,-1.851,-0.807,-1.075,0.0,-0.525,0.841,-2.145,-0.8640000000000001,-1.2009999999999998,0.0,0.0,0.619,-2.403,-1.189,-1.756,0.0,-1.7519999999999998,1.032,-2.583,-1.659,-2.3890000000000002,0.0,-3.0789999999999997,1.8130000000000002,-2.492,-1.974,-2.571,0.0,-3.035,1.932,-2.464,-1.901,-2.345,0.925,-3.5469999999999997,1.3359999999999999,-2.725,-1.86,-2.0340000000000003,1.043,-2.839,1.5390000000000001,-2.602,-2.004,-1.61,1.234,-1.8719999999999999,1.117,-2.2769999999999997,-2.359,-1.472,1.4080000000000001,0.0,1.626,-1.484,-2.7689999999999997,-1.865,1.3330000000000002,-1.1740000000000002,3.293,0.0,-3.114,-2.6439999999999997,1.288,-2.332,4.875,0.0,-2.865,-2.883,1.817,-2.242,3.5860000000000003,-0.985,-2.449,-2.755,2.597,-0.622,1.605,-1.327,-2.762,-2.5989999999999998,2.781,1.1740000000000002,1.173,0.0,-3.523,-2.9610000000000003,2.484,1.875,1.6909999999999998,0.988,-3.945,-3.616,1.8030000000000002,1.4569999999999999,2.056,1.4609999999999999,-3.444,-4.105,1.3430000000000002,1.26,0.736,1.07,-3.142,-4.52,1.38,1.02,-1.2819999999999998,0.0,-3.5639999999999996,-4.257,1.111,2.415,-1.922,0.0,-4.077,-4.246,0.555,4.092,-1.784,1.3840000000000001,-4.186,-4.893,0.0,3.551,-0.975,1.8940000000000001,-3.783,-5.371,0.0,2.239,0.0,1.672,-2.8960000000000004,-5.29,0.0,0.725,-1.3019999999999998,0.0,-2.279,-4.388999999999999,0.0,1.237,-1.726,-0.993,-2.175,-3.515,0.0,2.395,-1.0759999999999998,-0.978,-2.017,-3.156,0.0,2.866,0.0,-0.823,-1.665,-3.068,0.0,2.7239999999999998,0.0,-0.889,-1.2990000000000002,-3.04,0.0,2.0469999999999997,-0.754,-1.2990000000000002,-1.0759999999999998,-2.736,0.0,1.743,-1.252,-1.69,-1.0859999999999999,-2.238,0.0,2.4090000000000003,-1.645,-1.8130000000000002,-1.296,-1.964,0.0,3.141,-1.6280000000000001,-1.568,-1.548,-2.1109999999999998,0.0,2.892,-1.317,-1.281,-1.76,-2.316,0.0,1.7080000000000002,0.0,-1.1,-1.659,-2.119,0.0,1.66,0.0,-1.015,-1.469,-1.811,0.0,2.1590000000000003,-1.295,-1.249,-1.7009999999999998,-1.786,-0.5870000000000001,2.056,-1.004,-1.137,-1.936,-1.8259999999999998,-0.723,1.2329999999999999,0.0,-0.94,-1.798,-1.643,-0.644,0.0,0.0,-0.846,-1.383,-1.124,0.0,0.573,0.0,0.0,-1.004,-0.6890000000000001,0.0,0.743,0.0,0.0,-0.737,0.0,0.0,0.6459999999999999,0.0,0.0,0.0,0.0,0.0,0.579,-0.516,0.0,0.0,0.0,0.0,0.0,0.0,0.0,0.0,0.0,0.0,0.0,0.0,0.0,0.0,0.0,0.0,0.0,0.0,0.0,0.0,0.0,0.0,0.0,-0.5760000000000001,0.0,0.0,0.0,0.0,0.0,0.0,0.0,0.0,0.0,0.0,0.0,0.0,0.0,0.0,0.0,0.0,0.0,0.0,0.0,0.0,0.0,0.0,0.0,0.0,0.0,0.0,0.0,0.0,0.0,0.0,0.0,0.0,0.0,0.0,0.0,0.0,0.0,0.0,0.0,0.0,0.0,0.0,0.0,0.0,0.0,0.0,0.0,0.0,0.0,0.0,0.0,0.0,0.0,0.0,0.0,0.0,0.0,0.0,0.0,0.0,0.0,0.0,0.0,0.0,0.0,0.0,0.0,0.0,0.0,0.0,0.0,0.0,0.0,0.0,0.0,0.0,0.0,0.0,0.0,0.0,0.0,0.0,0.0,0.0,0.0,0.0,0.0,0.0,0.0,-0.542,0.0,0.0,0.0,0.0,0.0,0.0,0.0,0.0,0.0,0.0,0.0,0.0,0.0,0.0,0.0,0.0,,,,,,,,,,,,,,,,,,,,,,,,,,,,,,,moveUp
accX,0.0,0.0,0.0,0.0,0.0,0.0,0.0,0.0,0.0,0.0,0.0,0.0,0.0,0.0,0.0,0.0,0.0,0.0,0.0,0.0,0.0,0.0,0.0,0.0,0.0,0.0,0.0,0.0,0.0,0.0,0.0,0.0,0.0,0.0,0.0,0.0,0.0,0.0,0.0,0.0,0.0,0.0,0.0,0.0,-0.7120000000000001,0.0,0.0,0.0,0.0,0.0,-1.097,0.0,0.0,0.0,-0.532,0.527,-1.1909999999999998,-0.5329999999999999,0.0,0.0,-0.816,0.643,-1.2990000000000002,-0.6559999999999999,0.0,0.0,-0.696,0.639,-1.288,-0.703,0.0,0.0,0.0,0.527,-1.446,-0.762,-0.532,0.0,0.0,0.622,-1.8119999999999998,-0.903,-0.95,0.0,0.0,0.0,-2.109,-1.28,-1.632,0.0,-1.537,1.274,-2.5669999999999997,-1.617,-1.975,0.0,-2.5810000000000004,1.3,-2.888,-1.969,-1.8459999999999999,0.0,-2.019,1.48,-2.447,-2.344,-1.8969999999999998,0.642,-1.436,1.124,-1.9169999999999998,-2.717,-2.344,0.612,0.0,1.671,-0.915,-2.9989999999999997,-3.1910000000000003,0.0,-1.8159999999999998,1.3530000000000002,0.0,-3.483,-3.7680000000000002,-0.568,-3.989,4.206,0.0,-3.486,-3.4219999999999997,0.0,-4.617,5.9239999999999995,0.0,-2.877,-2.343,1.4509999999999998,-1.589,5.631,0.0,-2.399,-2.011,2.387,0.662,4.4430000000000005,0.0,-2.358,-2.5860000000000003,2.292,0.0,1.5719999999999998,0.0,-3.386,-2.852,0.0,-0.845,5.107,0.611,-3.1719999999999997,-2.5660000000000003,0.797,0.0,5.127000000000001,0.5529999999999999,-2.117,-2.061,1.473,1.354,1.9980000000000002,0.0,-1.514,-2.189,1.807,2.057,-0.7909999999999999,-1.026,-2.335,-2.262,1.218,3.406,0.83,0.0,-3.324,-2.656,0.0,1.504,3.075,0.833,-3.17,-3.077,0.0,1.298,2.403,0.0,-2.186,-2.6710000000000003,0.877,2.387,-0.586,0.0,-1.929,-2.529,1.1520000000000001,3.842,-2.322,0.0,-2.582,-2.803,0.94,3.918,-1.469,0.0,-3.1660000000000004,-3.2889999999999997,0.0,2.801,0.0,0.516,-2.878,-3.321,0.0,3.073,-0.509,0.0,-2.307,-3.134,0.0,2.725,-1.5619999999999998,-0.583,-2.048,-3.2,0.0,2.7310000000000003,-2.238,-1.341,-2.155,-2.8360000000000003,0.0,3.5839999999999996,-1.874,-1.0959999999999999,-2.311,-2.487,0.0,3.6830000000000003,-1.8719999999999999,-0.853,-2.275,-2.3890000000000002,-0.74,4.016,-2.11,0.0,-2.272,-2.4330000000000003,-1.069,3.0869999999999997,-2.176,0.0,-2.274,-2.516,-1.422,2.572,-2.202,0.0,-2.3930000000000002,-2.412,-1.569,2.7569999999999997,-2.036,0.0,-2.648,-2.458,-1.7619999999999998,1.102,0.0,0.8320000000000001,-2.542,-2.484,-1.8519999999999999,0.0,0.0,0.993,-1.8719999999999999,-2.029,-1.4509999999999998,0.78,-0.7020000000000001,0.889,-1.23,-1.47,-0.9490000000000001,1.485,-1.939,0.905,-1.158,-1.443,-0.929,0.556,-0.8009999999999999,1.03,-1.301,-1.4569999999999999,-0.875,-0.578,0.664,1.2690000000000001,-0.75,-0.9259999999999999,0.0,0.0,0.546,1.518,0.0,0.0,0.0,0.565,-0.653,1.4369999999999998,0.0,-0.524,0.0,0.0,-1.207,0.8059999999999999,0.0,0.0,0.0,0.0,0.0,0.701,0.0,0.0,0.0,0.0,0.634,0.843,0.0,0.0,0.0,0.0,0.0,0.782,0.0,0.0,0.0,0.0,0.0,0.5539999999999999,0.0,0.0,0.0,0.0,0.0,0.0,0.0,0.0,0.0,0.0,0.0,0.0,0.0,0.0,0.0,0.0,0.0,-0.615,0.0,0.0,0.0,0.0,0.0,-0.5329999999999999,0.0,0.0,0.0,0.0,0.0,0.0,0.0,0.0,0.0,0.0,0.0,0.0,0.0,0.0,0.0,0.0,-0.579,0.0,0.0,0.0,0.0,0.0,0.0,0.0,0.0,0.0,0.0,0.0,0.0,0.0,0.0,0.0,0.0,0.0,0.0,0.0,0.0,0.0,0.0,0.0,0.0,0.0,0.0,0.0,0.0,0.0,0.0,0.0,0.0,0.0,0.0,0.0,0.0,0.0,0.0,0.0,0.0,0.0,0.0,0.635,0.0,0.0,0.0,0.0,0.0,0.727,0.0,0.0,0.0,0.0,0.0,0.7,0.0,0.0,0.0,0.0,0.0,0.0,0.0,0.0,0.0,0.0,0.0,0.0,0.534,0.0,0.0,-0.506,0.763,0.0,0.9129999999999999,0.7909999999999999,0.0,0.0,0.847,0.0,1.5190000000000001,1.4369999999999998,1.004,0.0,0.0,-0.763,2.096,2.012,1.45,moveUp
accX,0.0,0.0,0.0,0.0,0.0,0.0,0.0,0.546,0.0,0.0,0.0,0.0,-0.53,0.0,0.0,0.0,0.0,0.0,0.0,0.0,-0.647,0.0,0.0,0.0,-0.5760000000000001,0.0,-0.564,0.0,0.0,0.0,0.0,0.0,-0.8079999999999999,0.0,0.0,0.0,0.0,0.0,-0.701,0.0,0.0,0.0,-0.652,0.0,-0.836,0.0,0.0,0.0,-0.745,0.0,-0.9620000000000001,0.0,0.0,0.0,-0.779,0.0,-1.1440000000000001,0.0,0.0,0.0,-0.528,0.518,-1.095,-0.5720000000000001,0.0,0.0,-0.623,0.785,-1.3869999999999998,-0.647,0.0,0.0,-1.161,1.089,-1.9369999999999998,-0.6829999999999999,-0.557,0.0,-1.0979999999999999,0.9390000000000001,-2.4730000000000003,-0.747,-0.7120000000000001,0.0,-1.4269999999999998,0.515,-2.9330000000000003,-1.005,-0.971,0.0,-1.526,1.291,-2.668,-1.3559999999999999,-1.001,0.0,-0.9420000000000001,1.4040000000000001,-2.265,-1.591,-1.081,0.0,-0.804,1.4809999999999999,-2.055,-1.725,-1.403,0.0,0.0,0.91,-2.124,-1.767,-1.798,0.0,0.0,0.0,-1.923,-2.167,-2.533,0.0,-0.7879999999999999,0.561,-0.721,-2.852,-3.2510000000000003,0.0,-0.736,2.289,0.523,-3.304,-3.6489999999999996,0.0,0.0,3.208,0.9690000000000001,-3.362,-3.9930000000000003,0.0,0.0,3.765,1.113,-3.179,-4.6080000000000005,0.0,-0.982,4.784,0.925,-2.963,-4.511,0.0,-0.5770000000000001,5.136,0.973,-2.807,-4.244,0.0,1.2229999999999999,5.037,1.4169999999999998,-2.852,-4.649,0.541,1.8519999999999999,3.825,1.558,-3.003,-5.292999999999999,0.0,0.922,3.306,1.581,-2.93,-5.517,0.0,-0.925,3.6719999999999997,0.956,-2.329,-4.7330000000000005,0.0,-1.643,2.68,0.0,-1.706,-3.364,0.0,0.539,1.8869999999999998,-0.5529999999999999,-1.445,-2.525,0.9309999999999999,2.84,1.17,0.0,-1.565,-2.9760000000000004,1.157,2.978,0.897,0.0,-1.62,-3.665,0.9490000000000001,1.885,0.0,0.0,-1.4469999999999998,-3.767,0.574,0.645,-0.649,-0.561,-1.45,-3.089,0.0,1.685,0.0,0.0,-1.3730000000000002,-2.66,0.0,2.7439999999999998,0.0,0.0,-1.2429999999999999,-2.9530000000000003,0.613,2.545,0.546,0.0,-1.038,-3.315,0.627,1.97,0.0,0.0,-0.711,-3.404,0.526,1.1179999999999999,-0.564,-1.033,-0.619,-2.9219999999999997,0.0,1.505,-0.831,-1.445,-0.82,-2.425,0.5379999999999999,2.594,0.0,-1.178,-0.932,-2.423,0.532,3.775,-0.914,-0.887,-1.087,-2.883,0.0,2.675,0.0,-0.6729999999999999,-1.042,-3.11,0.0,0.616,0.0,-1.121,-0.7909999999999999,-2.455,0.0,0.7959999999999999,0.0,-1.5730000000000002,-0.7390000000000001,-1.618,0.0,3.5239999999999996,-1.335,-1.265,-1.111,-1.841,0.0,3.2680000000000002,-0.92,-0.585,-1.401,-2.263,0.0,0.0,1.7530000000000001,-0.542,-0.659,-1.6019999999999999,0.0,0.7020000000000001,0.0,-0.782,0.0,-0.698,0.675,2.8280000000000003,-1.251,-0.968,0.0,0.0,0.626,2.9189999999999996,-1.195,-0.9570000000000001,-0.638,-0.9159999999999999,0.0,1.166,0.0,-0.78,-0.877,-1.095,0.0,0.0,0.0,-0.667,-0.534,-0.568,0.0,1.124,0.0,0.0,0.0,0.0,0.0,1.521,-1.006,0.0,0.0,0.0,0.0,1.432,-1.171,0.0,0.0,0.0,0.0,0.0,0.0,0.0,-0.568,0.0,0.0,0.0,0.0,0.0,0.0,0.0,0.0,0.0,0.0,0.0,0.0,0.0,0.0,0.0,-0.688,0.0,0.0,0.0,0.0,0.0,-0.8270000000000001,0.0,0.0,0.0,0.0,0.0,0.0,0.0,0.0,0.0,0.0,0.0,0.0,0.0,0.0,0.0,0.0,0.0,0.0,0.0,0.0,0.0,0.0,0.0,0.0,0.0,0.0,0.0,0.0,0.0,-0.5329999999999999,0.0,0.0,0.0,0.0,0.0,0.0,0.0,0.0,0.0,0.0,0.0,0.0,0.0,0.0,0.0,0.0,0.0,0.0,0.0,0.0,0.0,0.0,0.0,0.0,0.0,0.0,0.0,0.0,0.0,0.0,0.0,0.0,0.0,0.0,0.0,0.0,0.0,0.0,0.0,0.0,0.0,0.0,0.0,0.0,0.0,0.0,0.0,0.0,0.0,0.0,0.0,0.0,0.0,0.0,0.0,0.0,0.0,0.0,0.0,0.0,0.0,0.0,0.0,0.0,0.0,0.0,0.0,0.0,0.0,0.0,0.0,0.0,0.0,0.0,0.0,0.0,moveUp
accX,0.0,0.0,0.0,0.0,0.0,0.0,0.0,0.0,0.0,0.0,0.0,0.0,0.0,0.0,0.0,0.0,0.0,0.0,0.0,0.0,-0.608,0.0,0.0,0.0,0.0,0.0,-0.5670000000000001,0.0,0.0,0.0,0.0,0.0,0.0,-0.5770000000000001,0.0,0.0,0.0,0.5529999999999999,0.0,-0.56,0.0,0.0,0.0,0.586,-0.509,0.0,0.0,0.0,0.0,0.524,-0.838,0.0,0.0,0.0,0.0,0.0,-1.07,-0.633,0.0,0.0,-0.519,0.53,-1.45,-0.828,-0.693,0.0,0.0,0.769,-1.517,-1.047,-1.167,0.0,0.0,0.759,-1.374,-1.399,-2.052,0.0,-0.78,1.37,-1.109,-1.74,-2.9589999999999996,0.0,-2.2119999999999997,2.307,-0.9470000000000001,-1.8259999999999998,-3.42,0.0,-4.228,2.3080000000000003,-1.285,-1.893,-3.248,0.0,-3.906,2.05,-1.68,-2.181,-2.795,0.725,-2.539,2.489,-1.179,-2.7260000000000004,-2.991,1.09,-1.6580000000000001,4.019,-0.5489999999999999,-2.793,-3.4010000000000002,0.9840000000000001,-3.0189999999999997,4.727,-0.6890000000000001,-2.555,-3.3369999999999997,0.95,-2.658,4.56,-1.0979999999999999,-2.214,-2.725,1.033,-1.774,3.867,-1.2670000000000001,-2.188,-2.294,1.347,0.0,3.6719999999999997,-0.738,-2.6069999999999998,-2.23,1.671,1.538,3.783,0.0,-3.0780000000000003,-2.8310000000000004,1.6740000000000002,0.509,4.173,0.0,-3.042,-3.21,1.021,0.0,3.435,0.0,-2.535,-2.832,0.0,1.03,2.1630000000000003,0.0,-2.414,-2.6630000000000003,0.727,1.868,1.891,0.0,-2.738,-3.07,1.28,2.373,0.7929999999999999,0.83,-3.113,-3.657,1.214,2.571,0.0,0.977,-3.1830000000000003,-4.061,0.753,2.9560000000000004,0.0,0.968,-2.9219999999999997,-4.342,0.0,3.103,-1.0170000000000001,0.598,-2.721,-4.71,0.0,2.801,-1.138,0.654,-2.7060000000000004,-5.0760000000000005,0.0,2.865,-0.963,0.0,-2.502,-5.252000000000001,0.0,2.426,-1.124,0.0,-2.138,-5.3020000000000005,0.0,2.345,-1.864,-0.7859999999999999,-1.8030000000000002,-5.046,0.0,1.531,-1.203,-1.242,-1.765,-4.569,0.0,1.639,0.0,-1.125,-1.5330000000000001,-3.905,0.0,1.695,0.0,-0.85,-1.113,-3.4419999999999997,0.0,2.039,0.0,-0.795,-0.6890000000000001,-3.0639999999999996,0.0,1.44,-0.802,-1.21,0.0,-2.841,0.0,1.077,-0.889,-1.7380000000000002,0.0,-2.249,0.0,1.6059999999999999,-0.5870000000000001,-1.4869999999999999,-0.672,-1.632,0.0,1.557,0.0,-0.965,-0.6,-1.425,0.0,1.4040000000000001,0.0,-0.522,0.0,-1.2409999999999999,0.0,1.348,0.0,0.0,0.0,-1.097,0.0,1.0859999999999999,-0.7240000000000001,-0.917,0.0,-0.868,0.0,1.18,-0.7559999999999999,-1.092,0.0,-0.6970000000000001,0.0,1.611,-0.852,-0.897,-0.614,-0.7609999999999999,0.0,1.014,0.0,-0.62,-0.593,-0.74,0.0,0.0,0.0,0.0,0.0,-0.522,0.0,0.0,0.0,-0.512,0.0,0.0,0.0,0.0,0.0,-0.7090000000000001,0.0,0.0,0.0,0.0,-0.665,-0.778,0.0,0.0,0.0,0.0,-0.597,-0.619,0.0,0.0,0.0,0.0,0.0,0.0,0.0,0.0,0.0,0.0,0.0,0.0,0.0,0.0,0.0,0.0,0.0,0.0,0.0,0.0,0.0,0.0,-0.5720000000000001,0.0,0.0,0.0,0.0,0.0,0.0,0.0,0.0,0.0,0.0,0.0,0.0,0.0,0.0,0.0,0.0,0.0,0.0,0.0,0.0,0.0,0.0,0.0,0.0,0.0,0.0,0.0,0.0,0.0,0.0,0.0,0.0,0.0,0.0,0.0,0.0,0.0,0.0,0.0,0.0,0.0,0.0,0.0,0.0,0.0,0.0,0.0,0.0,0.0,0.0,0.0,0.0,0.0,0.0,0.0,0.0,0.0,0.0,0.0,0.0,0.0,0.0,0.0,0.0,0.0,0.0,0.0,0.0,0.0,0.0,0.0,0.0,0.0,0.0,0.0,0.0,0.0,0.0,0.0,0.0,0.0,0.0,0.0,0.0,0.0,0.0,0.0,0.0,0.0,0.0,0.0,0.0,0.0,0.0,0.0,0.0,0.0,0.0,0.0,0.0,0.0,0.0,0.0,0.0,0.0,0.0,0.0,0.0,0.0,0.0,0.0,0.0,0.0,0.0,0.0,0.0,0.0,0.0,-0.6759999999999999,0.0,-0.953,0.0,0.85,0.0,-0.584,1.006,-0.9490000000000001,0.503,1.5619999999999998,0.0,moveUp
accX,0.0,0.0,-1.0390000000000001,0.0,0.0,0.0,0.0,0.705,-0.971,0.0,0.0,0.0,0.0,0.975,-0.91,0.0,0.0,0.0,-0.546,1.1320000000000001,-0.9209999999999999,0.0,0.0,0.0,-0.971,0.0,-1.058,0.0,0.0,0.0,-0.748,0.0,-0.9059999999999999,-0.535,0.0,0.0,-0.946,0.981,-0.64,-0.7829999999999999,0.0,0.0,-0.826,1.06,-0.934,-0.75,0.0,0.0,-0.5720000000000001,1.288,-1.192,-0.711,-0.595,0.0,-0.83,1.4680000000000002,-1.218,-0.725,-1.051,0.0,-1.786,0.0,-1.815,-0.9740000000000001,-1.3969999999999998,0.0,-1.9140000000000001,1.087,-1.47,-1.527,-1.3840000000000001,0.0,-2.185,1.889,-1.261,-1.692,-1.155,0.589,-1.291,2.032,-1.05,-1.6569999999999998,-1.097,0.975,0.0,2.085,-0.667,-1.825,-1.632,1.077,0.0,1.479,-0.6829999999999999,-2.302,-2.4859999999999998,0.772,0.0,1.217,-0.7140000000000001,-3.08,-3.175,0.0,-1.359,2.824,0.0,-3.444,-3.4819999999999998,0.0,-2.725,5.027,0.575,-3.0589999999999997,-3.155,0.0,-2.653,6.532,0.731,-2.285,-2.654,0.955,-1.486,6.874,0.7290000000000001,-1.65,-2.634,1.34,0.0,6.237,0.0,-1.4480000000000002,-3.282,1.321,0.0,3.628,0.0,-1.959,-3.958,1.188,-1.081,1.229,-0.965,-2.9539999999999997,-3.822,1.196,-0.6970000000000001,2.539,0.0,-3.1510000000000002,-3.162,1.182,0.0,4.086,0.805,-2.379,-2.593,1.024,1.345,3.3360000000000003,0.7190000000000001,-1.685,-2.565,0.902,1.785,1.9709999999999999,0.0,-1.492,-2.9210000000000003,0.927,1.3130000000000002,-0.6990000000000001,0.0,-1.902,-3.0589999999999997,0.825,1.46,-1.195,0.0,-2.418,-2.715,0.56,2.374,0.0,0.0,-2.31,-2.506,0.5379999999999999,3.1060000000000003,0.55,0.0,-1.827,-2.516,0.547,3.465,0.0,0.0,-1.6480000000000001,-2.844,0.53,3.344,-0.503,0.0,-1.7590000000000001,-3.264,0.0,2.5,-1.095,0.0,-1.89,-3.33,0.0,2.449,-1.416,0.0,-1.966,-3.188,0.0,3.051,-1.274,0.0,-1.85,-3.17,0.0,3.177,-0.667,0.0,-1.2109999999999999,-3.239,0.0,1.423,0.0,0.0,-0.696,-3.182,0.0,0.0,-0.625,0.0,0.0,-2.9,0.0,0.0,-1.4780000000000002,-1.11,0.0,-2.2119999999999997,0.0,1.085,-0.9420000000000001,-1.214,-0.882,-1.49,0.0,2.779,-1.109,-0.885,-1.084,-1.374,0.0,2.801,-1.1440000000000001,-0.528,-1.337,-1.857,0.0,0.996,0.0,0.0,-1.462,-2.083,0.0,0.0,0.0,0.0,-1.341,-1.7369999999999999,0.0,1.001,0.0,0.0,-1.13,-1.368,0.0,1.895,-0.965,0.0,-1.061,-1.389,0.0,1.6,-1.507,-0.618,-1.345,-1.6769999999999998,0.0,0.0,0.0,-0.531,-1.635,-1.743,0.0,0.0,1.005,-0.603,-1.219,-1.246,0.0,0.0,0.0,-0.711,-0.631,-0.67,0.0,0.8690000000000001,-0.6579999999999999,-0.7170000000000001,0.0,0.0,0.0,1.071,-1.222,-0.8340000000000001,0.0,0.0,0.0,0.9570000000000001,-1.0590000000000002,-0.818,-0.631,0.0,0.0,0.0,0.0,-0.601,-0.722,0.0,0.0,0.0,0.0,0.0,-0.544,0.0,0.0,0.0,0.0,0.0,0.0,0.0,0.0,0.0,-0.55,0.0,0.0,0.0,0.0,0.0,-0.638,0.0,0.0,0.0,0.0,0.0,0.0,0.0,0.0,0.0,0.0,0.0,0.0,0.0,0.0,0.0,0.0,0.0,0.0,0.0,0.0,0.0,0.0,0.0,0.0,0.0,0.0,0.0,0.0,0.0,0.0,0.0,0.0,0.0,0.0,0.0,0.0,0.0,0.0,0.0,0.0,0.0,0.0,0.0,0.0,0.0,0.0,0.0,0.0,0.0,0.0,0.0,0.0,0.0,0.0,0.0,0.0,0.0,0.0,0.0,0.0,0.0,0.0,0.0,0.0,0.0,0.0,0.0,0.0,0.0,0.0,0.0,0.0,0.0,0.0,0.0,0.0,0.0,0.0,0.0,0.0,0.0,0.0,0.0,0.0,0.0,0.0,0.0,0.0,0.0,0.0,0.0,0.0,0.0,0.0,0.0,0.0,0.0,0.0,0.0,0.0,0.0,0.0,0.0,0.0,0.0,0.0,0.0,0.0,0.0,0.0,0.0,0.0,0.0,0.0,0.0,0.0,0.0,0.0,0.0,0.0,0.0,0.0,0.0,0.0,moveUp
accX,0.0,0.51,0.0,0.0,0.0,0.0,0.0,0.8490000000000001,0.0,0.0,0.0,0.0,0.0,0.0,-0.6890000000000001,0.0,0.0,0.0,0.0,0.0,-0.97,0.0,0.0,0.0,-0.5920000000000001,0.506,-0.8420000000000001,0.0,0.0,0.0,-0.7,0.0,-0.775,0.0,0.0,0.0,0.0,0.0,-0.991,0.0,-0.708,0.0,0.0,0.0,-1.29,-0.596,-1.42,0.0,-1.775,0.617,-1.758,-0.9940000000000001,-1.814,0.0,-2.427,1.09,-2.1,-1.183,-1.46,0.0,-1.16,0.8690000000000001,-2.066,-1.315,-1.22,0.0,0.0,0.726,-2.112,-1.524,-1.7069999999999999,0.0,0.0,1.255,-1.827,-1.798,-2.6919999999999997,0.0,-2.449,1.7790000000000001,-1.46,-2.193,-3.576,0.0,-5.058,2.728,-1.76,-2.535,-3.409,0.0,-4.292,3.6060000000000003,-1.683,-2.622,-2.263,0.846,-1.952,3.977,-1.32,-2.516,-1.676,1.3019999999999998,0.0,3.984,-0.6459999999999999,-2.5789999999999997,-2.2840000000000003,1.412,0.995,4.073,0.735,-2.952,-3.883,1.183,-1.4609999999999999,4.404,1.6159999999999999,-3.572,-5.402,0.831,-3.91,5.855,1.214,-3.653,-5.235,0.825,-2.438,4.917,0.69,-3.1189999999999998,-4.018,1.171,0.903,2.9810000000000003,1.037,-2.767,-3.602,1.4280000000000002,2.35,1.079,1.202,-2.835,-4.338,1.4769999999999999,0.0,1.1,0.8009999999999999,-2.968,-4.798,1.295,0.0,1.8780000000000001,0.0,-2.3680000000000003,-3.6189999999999998,1.381,2.44,0.75,0.0,-1.601,-2.5340000000000003,1.584,4.281000000000001,-0.888,-0.633,-1.493,-2.75,1.625,4.367,-2.21,-1.008,-1.982,-3.55,1.204,3.503,-2.408,-0.8370000000000001,-2.693,-4.13,0.0,2.681,-1.113,-0.616,-2.841,-4.025,0.0,2.6910000000000003,0.0,-0.561,-2.4659999999999997,-3.867,0.0,2.418,0.0,0.0,-2.088,-3.94,0.0,2.136,0.0,0.0,-1.6869999999999998,-3.963,0.0,1.242,-0.623,-1.256,-1.4369999999999998,-3.52,0.0,1.406,-0.8909999999999999,-1.604,-1.445,-2.907,0.0,2.519,-0.8909999999999999,-1.258,-1.4780000000000002,-2.6919999999999997,0.0,2.839,-0.634,-0.732,-1.496,-2.827,0.0,1.379,0.0,-0.5579999999999999,-1.274,-2.641,0.0,0.0,0.973,-0.9129999999999999,-0.7929999999999999,-1.7890000000000001,0.0,1.31,0.0,-0.929,-0.501,-1.348,0.591,2.865,-1.389,-1.2109999999999999,-0.816,-1.6680000000000001,0.0,2.109,-0.825,-1.203,-1.0290000000000001,-1.791,0.0,0.5670000000000001,0.0,-1.2590000000000001,-0.726,-1.162,0.0,1.3019999999999998,0.0,-1.131,0.0,-0.7,0.0,2.36,-1.344,-0.96,-0.633,-0.885,0.0,1.389,0.0,-1.1420000000000001,-0.562,-0.836,0.0,0.782,0.0,-1.306,0.0,0.0,0.0,1.31,-0.8959999999999999,-1.084,0.0,0.0,0.0,1.349,-0.887,-0.7170000000000001,0.0,0.0,0.0,0.777,-0.525,-0.552,0.0,0.0,0.0,0.639,0.0,0.0,0.0,0.0,0.0,0.674,-0.73,0.0,0.0,0.0,0.0,0.599,-0.7609999999999999,0.0,0.0,0.0,0.0,0.0,0.0,0.0,0.0,0.0,0.0,0.0,0.0,0.0,0.0,0.0,0.0,0.0,0.0,0.0,0.0,0.0,0.0,0.0,0.0,0.0,0.0,0.0,0.0,0.0,0.0,0.0,0.0,0.0,0.0,0.0,0.0,0.0,0.0,0.0,0.0,0.0,0.0,0.0,0.0,0.0,0.0,0.0,0.0,0.0,0.0,0.0,0.0,0.0,0.0,0.0,0.0,0.0,0.0,0.0,0.0,0.0,0.0,0.0,0.0,0.0,0.0,0.0,0.0,0.0,0.0,0.0,0.0,0.0,0.0,0.0,0.0,0.0,0.0,0.0,0.0,0.0,0.0,0.0,0.0,0.0,0.0,0.0,0.0,,,,,,,,,,,,,,,,,,,,,,,,,,,,,,,,,,,,,,,,,,,,,,,,,,,,,,,,,,,,,,,,,,,,,,,,,moveUp
accX,0.0,0.519,-0.578,0.0,0.0,0.0,0.0,0.0,-0.7959999999999999,0.0,0.0,0.0,0.0,0.0,-1.126,0.0,-0.529,0.0,-0.685,0.0,-1.182,0.0,-0.843,0.0,-1.3030000000000002,0.0,-1.348,0.0,-1.095,0.0,-1.104,0.0,-1.129,-0.599,-1.4469999999999998,0.0,-0.728,0.0,-0.866,-0.733,-2.09,0.0,-1.6269999999999998,0.0,-1.143,-0.971,-3.063,0.0,-3.3960000000000004,0.0,-1.858,-1.475,-3.3689999999999998,0.0,-3.978,1.5630000000000002,-1.865,-1.925,-3.108,0.0,-4.192,2.763,-2.079,-1.828,-2.1390000000000002,1.186,-2.251,2.832,-1.7469999999999999,-1.844,-2.112,1.632,-0.841,1.94,-1.306,-2.282,-2.819,1.6380000000000001,-0.8859999999999999,1.28,-0.693,-3.075,-3.497,1.3130000000000002,-1.031,3.1639999999999997,0.0,-3.5069999999999997,-3.8339999999999996,0.732,0.0,5.391,1.195,-3.45,-4.225,0.0,0.0,6.205,1.671,-3.4,-5.02,0.0,0.0,5.888999999999999,1.6569999999999998,-3.383,-5.617999999999999,0.7070000000000001,-0.934,4.183,1.3969999999999998,-3.42,-5.729,0.8270000000000001,-1.064,2.51,1.022,-3.571,-5.232,0.0,0.0,2.8089999999999997,1.401,-3.361,-4.864,0.0,1.311,2.97,1.723,-2.759,-5.059,0.6809999999999999,1.567,2.011,1.652,-2.218,-5.496,0.723,1.047,0.0,0.915,-2.16,-5.724,0.0,0.0,-2.3569999999999998,-0.643,-2.6489999999999996,-5.067,0.0,2.052,-1.531,-0.736,-2.815,-4.607,0.0,2.638,0.0,0.0,-2.299,-4.581,0.0,1.685,0.0,0.0,-1.676,-4.437,0.0,1.176,0.0,-1.218,-1.245,-4.0089999999999995,0.0,0.9129999999999999,-0.985,-2.502,-1.083,-3.195,0.0,1.8330000000000002,-0.562,-2.889,-0.897,-2.555,0.0,1.993,0.0,-2.451,-0.624,-2.218,0.0,1.901,0.0,-2.332,0.0,-1.945,0.0,1.4580000000000002,0.0,-2.295,0.0,-1.6019999999999999,0.5760000000000001,1.101,0.0,-2.07,0.0,-1.23,0.644,0.657,0.0,-0.7090000000000001,0.0,-0.598,0.6990000000000001,1.49,0.0,-0.857,0.0,0.0,0.762,2.0669999999999997,-1.061,-1.074,0.0,-0.741,0.7340000000000001,1.567,-0.765,-1.229,0.0,-1.042,0.0,0.667,0.0,-1.185,0.0,-1.006,0.0,0.545,0.0,-1.006,0.0,-0.6709999999999999,0.618,1.27,-0.634,-1.047,0.0,-0.53,0.7020000000000001,1.443,-1.047,-1.344,0.0,-0.69,0.561,1.043,-0.7929999999999999,-1.307,-0.555,-0.7879999999999999,0.0,0.7020000000000001,0.0,-0.848,-0.648,-0.727,0.0,0.0,0.0,0.0,0.0,-0.519,0.0,0.531,0.0,0.0,0.0,0.0,0.503,0.713,-0.8909999999999999,-0.7,0.0,0.0,0.0,0.794,-0.9079999999999999,-0.748,0.0,0.0,0.0,0.61,-0.6679999999999999,0.0,0.0,0.0,0.0,0.0,0.0,0.0,0.0,0.0,0.0,0.0,0.0,0.0,0.0,0.0,0.0,0.0,0.0,0.0,0.0,0.0,0.0,0.0,0.0,0.0,0.0,0.0,0.0,0.0,0.0,0.0,0.0,0.0,0.0,0.0,0.0,0.0,0.0,0.0,0.0,0.0,0.0,0.0,0.0,0.0,0.0,0.0,0.0,0.0,0.0,0.0,0.0,0.0,0.0,0.0,0.0,0.0,0.0,0.0,0.0,0.0,0.0,0.0,0.0,0.0,0.0,0.0,0.0,0.0,0.0,0.0,0.0,0.0,0.0,0.0,0.0,0.0,0.0,0.0,0.0,0.0,0.0,0.0,0.0,0.0,0.0,0.0,0.0,0.0,0.0,0.0,0.0,0.0,0.0,0.0,0.0,0.0,0.0,0.0,0.0,0.0,0.0,0.0,0.0,0.0,0.0,0.0,0.0,0.0,0.0,0.0,0.0,0.0,0.0,0.0,0.0,0.0,0.0,-0.992,0.0,0.0,0.0,0.0,0.0,-1.1540000000000001,0.0,0.0,0.0,1.083,0.0,-1.4709999999999999,1.38,0.0,0.9890000000000001,1.631,1.015,,,,,,,,,,,,,,,,,,,,,,,,,,,,,,,,,,,,,,,,,,,,,,,,,moveUp
accX,0.0,0.0,-0.7090000000000001,-0.509,0.0,0.0,0.0,0.534,-0.759,-0.511,0.0,0.0,0.0,0.555,-0.802,0.0,0.0,0.0,0.0,0.5589999999999999,-0.652,0.0,0.0,0.0,-0.6709999999999999,0.0,-0.97,-0.51,0.0,0.0,-0.604,0.0,-0.7909999999999999,-0.632,0.0,0.0,-0.529,0.0,-0.8170000000000001,-0.662,0.0,0.0,0.0,0.725,-0.96,-0.7859999999999999,0.0,0.0,-0.86,1.0070000000000001,-1.2409999999999999,-0.867,-0.685,0.0,-0.9179999999999999,0.904,-1.2329999999999999,-0.992,-0.7609999999999999,0.0,-0.917,0.868,-1.25,-1.133,-0.897,0.0,-0.813,1.171,-1.29,-1.246,-1.158,0.0,-1.153,1.402,-1.4069999999999998,-1.41,-1.472,0.0,-1.13,1.723,-1.218,-1.8519999999999999,-1.944,0.0,0.0,1.111,0.0,-2.355,-2.4290000000000003,0.0,0.0,2.025,0.0,-2.802,-3.305,0.0,-0.821,3.2039999999999997,0.5329999999999999,-2.9589999999999996,-4.192,0.0,-1.579,2.947,0.0,-2.992,-4.571000000000001,0.0,-1.7590000000000001,3.9160000000000004,0.648,-3.3080000000000003,-4.673,0.0,-2.158,6.018,1.173,-3.5060000000000002,-4.479,0.0,-1.219,6.932,1.287,-3.2439999999999998,-4.0360000000000005,0.664,0.0,6.404,1.305,-2.822,-3.931,1.135,0.0,4.258,0.8,-2.5789999999999997,-4.169,1.111,-0.5820000000000001,2.755,0.0,-2.6630000000000003,-4.1530000000000005,0.736,-2.062,3.1660000000000004,0.0,-2.603,-3.395,0.7879999999999999,-0.946,3.715,0.787,-1.95,-2.0980000000000003,1.194,0.7040000000000001,2.685,0.747,-1.2429999999999999,-1.483,1.367,1.609,1.088,0.0,-1.227,-1.6669999999999998,1.193,1.435,0.0,0.0,-1.784,-2.033,0.823,1.26,0.985,0.0,-2.108,-2.016,0.513,0.932,1.508,0.0,-1.682,-1.651,0.0,1.248,0.667,0.0,-1.2930000000000001,-1.4080000000000001,0.747,2.113,0.0,0.0,-1.2690000000000001,-1.4769999999999999,0.995,3.0,-1.359,0.0,-1.514,-1.8769999999999998,1.114,3.325,-1.8359999999999999,0.0,-1.857,-2.3930000000000002,0.992,3.845,-1.73,0.0,-1.999,-2.734,0.0,3.988,-1.807,0.0,-2.142,-3.2710000000000004,0.0,3.19,-1.611,0.0,-2.29,-3.819,0.0,2.72,-1.4709999999999999,0.0,-2.177,-3.915,0.0,2.6719999999999997,-1.262,-0.746,-2.01,-3.737,-0.623,2.254,-0.629,-0.7959999999999999,-1.681,-3.3789999999999996,-0.743,0.8340000000000001,0.0,-1.182,-1.247,-2.6180000000000003,0.0,0.0,0.0,-1.541,-0.857,-1.607,0.0,1.305,0.0,-1.393,-0.527,-0.9990000000000001,0.0,2.214,-0.9640000000000001,-1.04,-0.5720000000000001,-0.943,0.0,3.542,-2.238,0.0,-1.122,-1.57,0.0,1.004,-0.9059999999999999,0.0,-1.265,-1.5030000000000001,-0.535,0.0,0.0,0.0,-0.8240000000000001,-0.831,0.0,1.35,0.0,0.0,-0.511,-0.696,0.0,1.528,-0.9229999999999999,0.0,-0.589,-0.8640000000000001,0.0,1.486,-1.138,0.0,-0.867,-1.033,0.0,0.0,0.0,0.0,-0.696,-0.794,0.0,0.0,0.0,0.0,0.0,0.0,0.0,0.965,-0.612,0.0,0.0,0.0,0.0,0.961,-1.083,0.0,0.0,0.0,0.0,0.84,-0.887,0.0,0.0,0.0,0.0,0.0,0.0,0.0,0.0,0.0,0.0,0.0,0.0,0.0,0.0,0.0,0.0,0.0,0.0,0.0,0.0,0.0,0.0,0.0,0.0,0.0,0.0,0.0,0.0,0.0,0.0,0.0,0.0,0.0,0.0,0.0,0.0,0.0,0.0,0.0,0.0,0.0,0.0,0.0,0.0,0.0,0.0,0.0,0.0,0.0,0.0,0.0,0.0,0.0,0.0,0.0,0.0,0.0,0.0,0.0,0.0,0.0,0.0,0.0,0.0,0.0,0.0,0.0,0.0,0.0,0.0,0.0,0.0,0.0,0.0,0.0,0.0,0.0,0.0,0.0,0.0,0.0,0.0,0.0,0.0,0.0,0.0,0.0,0.0,0.0,0.0,0.0,0.0,0.0,0.0,0.0,0.0,0.0,0.0,0.0,0.0,0.0,0.0,0.0,0.0,0.0,0.0,0.0,0.5720000000000001,0.0,0.503,0.0,0.0,0.0,0.0,-0.591,0.755,0.66,0.735,0.0,-0.823,-0.878,0.657,0.9329999999999999,0.737,,,,,,,,,,,,,,,,,,,,,,,,,moveUp
accX,0.0,1.013,-0.898,-0.703,0.0,0.0,0.0,0.917,-0.593,-0.589,0.0,0.0,0.0,0.0,0.0,0.0,0.0,0.5329999999999999,0.0,-1.137,-0.907,0.0,0.0,0.0,-0.7759999999999999,0.0,-1.0390000000000001,-0.78,-0.504,0.0,-1.3659999999999999,1.056,-1.286,-0.9059999999999999,0.0,0.0,-0.614,1.055,-1.3840000000000001,-0.991,0.0,0.0,0.0,1.347,-1.338,-1.159,-0.877,0.0,-1.788,1.261,-1.421,-1.3230000000000002,-1.399,0.0,-1.864,0.953,-1.319,-1.492,-1.574,0.0,-2.358,1.5419999999999998,-1.104,-1.8840000000000001,-1.608,0.67,-1.274,2.252,-0.662,-2.2430000000000003,-1.599,0.983,0.675,2.611,0.0,-2.414,-2.142,1.04,1.0270000000000001,2.819,0.0,-2.559,-3.4610000000000003,0.6459999999999999,-1.235,4.115,0.0,-2.665,-4.723,0.0,-4.915,4.828,-0.5760000000000001,-2.667,-4.64,0.745,-3.5239999999999996,5.52,-0.653,-2.824,-3.45,1.609,0.0,4.511,0.0,-3.048,-3.057,2.189,2.474,3.755,1.385,-3.701,-4.918,1.117,-1.298,4.034,1.479,-3.466,-5.148,0.863,-4.888,4.271,0.0,-2.685,-3.3680000000000003,1.429,-1.893,2.907,0.0,-2.136,-2.001,1.778,2.044,0.0,0.0,-2.432,-2.412,1.415,2.365,0.0,0.71,-2.9410000000000003,-3.3289999999999997,0.938,-0.742,1.74,0.7709999999999999,-2.395,-2.9189999999999996,1.324,-1.028,1.757,0.0,-1.2890000000000001,-1.755,1.791,2.209,-0.6859999999999999,0.0,-1.0,-1.6219999999999999,1.591,3.71,-2.951,0.0,-1.834,-2.42,0.792,3.091,-2.349,0.0,-2.696,-3.1319999999999997,0.0,0.0,0.0,0.0,-2.334,-2.762,0.0,0.591,1.2590000000000001,0.0,-1.2930000000000001,-1.9040000000000001,0.9440000000000001,3.085,-0.935,0.0,-1.104,-2.039,0.977,3.785,-2.86,-0.732,-1.9240000000000002,-2.6710000000000003,0.0,3.612,-2.713,-0.608,-2.79,-3.21,0.0,2.929,-1.5230000000000001,0.0,-2.907,-3.431,-0.621,2.04,-0.895,-0.585,-2.535,-3.225,-0.6709999999999999,2.699,-1.5,-0.723,-2.353,-3.24,-0.73,2.623,-1.732,-0.956,-2.391,-3.37,-0.86,2.2969999999999997,-1.102,-1.214,-2.276,-3.2089999999999996,-0.892,1.913,0.0,-1.176,-1.611,-2.8489999999999998,-0.653,1.936,0.696,-0.86,-0.7290000000000001,-2.536,0.0,2.1069999999999998,0.0,-0.5660000000000001,0.0,-2.431,0.0,1.012,-2.577,-1.758,0.0,-2.103,0.0,0.831,-3.0189999999999997,-1.547,-1.565,-1.3319999999999999,0.0,0.0,1.31,-0.816,-1.032,-0.8370000000000001,0.0,0.937,0.0,-0.515,0.0,0.0,0.0,1.376,-0.721,-0.527,0.0,0.0,0.0,0.629,0.0,-0.8220000000000001,-0.635,-0.56,0.0,0.0,0.0,-0.645,-0.649,0.0,0.0,0.8759999999999999,0.0,0.0,0.0,0.0,0.0,0.848,-0.7090000000000001,0.0,0.0,0.0,0.0,0.555,0.0,0.0,-0.546,0.0,0.0,0.0,0.0,0.0,0.0,0.0,0.0,0.0,0.0,0.0,0.0,0.0,0.0,0.0,0.0,0.0,0.0,0.0,0.0,0.0,-0.6659999999999999,0.0,0.0,0.0,0.0,0.0,-0.767,0.0,0.0,0.0,0.0,0.0,0.0,0.0,0.0,0.0,0.0,0.0,0.0,0.0,0.0,0.0,0.0,0.0,0.0,0.0,0.0,0.0,0.0,0.0,0.0,0.0,0.0,0.0,0.0,0.0,-0.535,0.0,0.0,0.0,0.0,0.0,0.0,0.0,0.0,0.0,0.0,0.0,0.0,0.0,0.0,0.0,0.0,0.0,0.0,0.0,0.0,0.0,0.0,0.0,0.0,0.0,0.0,0.0,0.0,0.0,0.0,0.0,0.0,0.0,0.0,0.0,0.0,0.0,0.0,0.0,0.0,0.0,0.0,0.0,0.0,0.0,0.0,0.0,0.0,0.0,0.0,0.0,0.0,0.0,0.0,0.0,0.0,0.0,0.0,0.0,-0.615,0.0,0.0,0.0,0.0,0.0,0.0,0.0,0.0,0.0,0.0,0.0,0.0,0.0,0.0,0.0,0.0,0.0,0.0,0.0,0.0,0.0,0.0,0.0,0.0,0.0,0.0,0.0,0.0,0.0,0.0,0.0,0.0,0.0,0.0,0.0,0.0,0.0,0.0,0.0,0.0,,,,,,,,,,,,,moveUp
accX,-0.593,0.996,-1.199,-0.511,0.0,0.0,-0.659,0.9540000000000001,-0.716,0.0,0.0,0.0,-0.9790000000000001,0.0,-0.638,0.0,0.0,0.0,-0.726,0.0,0.0,-0.534,0.0,0.0,-0.5820000000000001,0.0,0.0,0.0,0.0,0.0,0.0,0.0,-0.613,-0.633,0.0,0.0,0.0,0.932,-0.77,-0.8079999999999999,-0.55,0.0,-0.875,1.381,-1.121,-0.981,-0.904,0.0,-2.334,1.611,-1.5659999999999998,-1.139,-0.81,0.0,-2.364,1.598,-1.545,-1.3780000000000001,0.0,0.0,-1.1520000000000001,1.6219999999999999,-1.089,-1.535,-0.615,0.605,0.0,1.646,-0.83,-1.777,-1.3259999999999998,0.0,0.0,1.3840000000000001,-0.61,-2.227,-2.386,0.0,-1.725,1.89,-0.5529999999999999,-2.551,-2.622,0.0,-2.305,2.9610000000000003,-0.705,-2.6189999999999998,-2.145,0.0,-1.682,3.781,0.0,-2.516,-1.796,0.54,-0.511,3.9410000000000003,0.0,-2.492,-1.916,0.9159999999999999,0.7879999999999999,3.6,0.0,-2.738,-2.603,0.841,1.058,3.622,1.053,-3.141,-3.4819999999999998,0.0,-0.937,3.125,1.3230000000000002,-3.51,-3.572,0.0,-0.565,4.601,1.505,-3.3789999999999996,-3.031,0.0,1.682,4.867,1.985,-3.185,-4.04,0.0,1.716,3.609,1.81,-3.582,-5.393,-0.654,-0.747,2.8960000000000004,1.9240000000000002,-3.841,-6.132999999999999,-0.858,-1.729,2.358,1.244,-3.609,-5.586,-0.8420000000000001,0.0,2.145,1.138,-3.0380000000000003,-4.649,-0.847,0.993,1.379,1.3780000000000001,-2.524,-4.646,-0.713,0.674,0.682,1.345,-2.239,-5.1370000000000005,0.0,0.0,0.0,0.0,-1.986,-5.122999999999999,0.0,0.0,0.0,0.0,-1.6480000000000001,-4.337,0.0,1.29,0.0,-0.615,-1.22,-3.6489999999999996,0.0,2.4619999999999997,-0.8420000000000001,-0.518,-0.993,-3.4330000000000003,0.0,2.6439999999999997,-0.892,0.0,-0.993,-3.813,0.0,1.171,0.0,-0.8809999999999999,-0.907,-3.957,-0.581,0.0,0.0,-1.3659999999999999,-0.613,-3.387,0.0,0.0,0.0,-1.751,0.0,-2.511,0.0,1.7080000000000002,0.0,-1.85,0.0,-1.943,0.0,2.458,-1.005,-1.838,0.0,-1.9509999999999998,0.0,2.024,-0.537,-1.621,0.0,-2.12,0.0,1.423,0.0,-1.536,-0.511,-2.05,0.0,1.1059999999999999,0.0,-1.703,0.0,-1.704,0.0,1.511,-0.604,-2.021,0.0,-1.306,0.5579999999999999,2.136,-0.973,-1.778,-0.502,-1.229,0.0,1.598,0.0,-1.364,-0.77,-1.2890000000000001,0.0,1.244,0.552,-1.131,-0.645,-1.11,0.0,1.261,0.0,-1.008,0.0,-0.848,0.516,1.4509999999999998,0.0,-1.04,0.0,-0.649,0.0,1.2770000000000001,0.0,-1.071,0.0,-0.5429999999999999,0.0,1.453,0.0,-0.857,0.0,-0.527,0.0,1.305,-0.511,-0.6920000000000001,-0.504,-0.525,0.0,0.818,0.0,0.0,0.0,0.0,0.0,0.654,0.0,0.0,0.0,0.0,0.0,0.5429999999999999,0.0,-0.5670000000000001,0.0,0.0,0.0,0.777,-0.7929999999999999,-0.5539999999999999,0.0,0.0,0.0,0.519,-0.631,0.0,0.0,0.0,0.0,0.0,0.0,0.0,0.0,0.0,0.0,0.0,0.0,0.0,0.0,0.0,0.0,0.0,0.0,0.0,0.0,0.0,0.0,0.0,-0.506,0.0,0.0,0.0,0.0,0.0,0.0,0.0,0.0,0.0,0.0,0.0,0.0,0.0,0.0,0.0,0.0,0.0,0.0,0.0,0.0,0.0,0.0,0.0,0.0,0.0,0.0,0.0,0.0,0.0,0.0,0.0,0.0,0.0,0.0,0.0,0.0,0.0,0.0,0.0,0.0,0.0,0.0,0.0,0.0,0.0,0.0,0.0,0.0,0.0,0.0,0.0,0.0,0.0,0.0,0.0,0.0,0.0,0.0,0.0,0.0,0.0,0.0,0.0,0.0,0.0,0.0,0.0,0.0,0.0,0.0,0.0,0.0,0.0,0.0,0.667,0.0,,,,,,,,,,,,,,,,,,,,,,,,,,,,,,,,,,,,,,,,,,,,,,,,,,,,,,,moveUp
accX,-1.149,1.33,-1.304,-2.12,-0.94,0.0,-0.903,1.6280000000000001,-0.9490000000000001,-2.16,-1.099,0.0,0.0,1.702,-0.978,-2.178,-1.6,0.0,-0.968,1.7919999999999998,-0.87,-2.291,-2.474,0.0,-2.335,2.544,-0.7609999999999999,-2.366,-2.965,0.0,-2.592,1.335,-0.991,-2.8169999999999997,-2.864,0.537,-1.271,3.332,0.0,-3.5060000000000002,-2.668,0.0,-1.209,4.82,0.779,-3.451,-2.622,0.0,-1.3780000000000001,5.624,0.6559999999999999,-2.957,-2.65,0.594,-2.416,5.412000000000001,0.0,-2.316,-2.398,1.046,-2.126,3.242,0.0,-2.01,-1.831,1.646,0.0,2.32,0.0,-2.4419999999999997,-1.486,1.624,2.371,2.475,1.1059999999999999,-3.01,-2.0340000000000003,1.199,2.616,2.528,1.726,-3.3539999999999996,-3.0589999999999997,0.0,1.452,2.603,2.051,-3.411,-3.963,0.0,0.0,2.542,1.923,-3.199,-4.31,0.0,0.0,2.274,1.743,-3.032,-4.175,0.0,1.018,1.949,1.6980000000000002,-2.97,-4.112,0.649,1.58,0.955,1.124,-2.822,-4.207,0.601,1.807,0.0,0.0,-2.6839999999999997,-4.031000000000001,0.0,2.256,0.0,0.0,-2.45,-3.765,0.0,2.217,0.0,0.0,-2.3569999999999998,-3.681,0.0,2.565,-0.762,0.0,-2.454,-3.908,0.0,2.548,-0.528,0.0,-2.3930000000000002,-4.101,-0.602,1.8359999999999999,0.0,0.0,-1.979,-3.773,-0.655,1.415,0.0,-0.95,-1.4969999999999999,-3.094,-0.509,1.006,0.0,-1.139,-1.2570000000000001,-2.521,0.0,1.4380000000000002,-0.659,-0.988,-1.203,-2.199,0.0,2.359,-0.8859999999999999,-0.7190000000000001,-1.23,-2.329,0.0,1.608,0.0,-0.5660000000000001,-0.978,-2.392,0.0,0.8240000000000001,0.9890000000000001,-0.55,0.0,-2.103,0.0,0.0,-0.85,-1.4709999999999999,0.0,-1.6269999999999998,0.0,1.385,-2.056,-1.8230000000000002,-0.877,-1.395,0.0,2.097,-0.8490000000000001,-1.123,-1.236,-1.689,0.0,0.732,0.6920000000000001,-0.57,-0.9129999999999999,-1.5659999999999998,0.0,0.0,1.4280000000000002,0.0,0.0,-1.121,0.0,0.758,0.0,0.0,0.0,-0.9390000000000001,0.0,1.864,-2.0909999999999997,-1.0290000000000001,-0.584,-1.1440000000000001,0.0,1.751,-1.11,-0.868,-1.055,-1.425,0.0,0.0,0.815,-0.5379999999999999,-0.687,-1.104,0.0,0.0,0.0,0.0,0.0,-0.581,0.0,1.6,-1.798,-0.652,0.0,-0.649,0.0,1.943,-2.3930000000000002,-1.014,-1.028,-0.993,0.0,0.7190000000000001,-0.898,-1.163,-1.222,-0.868,0.0,0.0,0.0,-0.8320000000000001,-0.732,0.0,0.0,0.9590000000000001,0.0,0.0,0.0,0.0,0.0,0.0,-0.504,0.0,0.0,0.0,0.0,0.0,-0.632,0.0,0.0,0.0,0.0,0.0,0.0,0.0,0.0,0.0,0.0,0.0,0.0,0.0,0.0,0.0,0.0,0.0,0.0,0.0,0.0,0.0,0.0,0.0,-0.545,0.0,0.0,0.0,0.0,0.0,0.0,0.0,0.0,0.0,0.0,0.0,0.0,0.0,0.0,0.0,0.0,0.0,0.0,0.0,0.0,0.0,0.0,0.0,0.0,0.0,0.0,0.0,0.0,0.0,0.0,0.0,0.0,0.0,0.0,0.0,0.0,0.0,0.0,0.0,0.0,0.0,0.0,0.0,0.0,0.0,0.0,0.0,0.0,0.0,0.0,0.0,0.0,0.0,0.0,0.0,0.0,0.0,0.0,0.0,0.0,0.0,0.0,0.0,0.0,0.0,0.0,0.0,0.0,0.0,0.0,0.0,0.0,0.0,0.0,0.0,0.0,0.0,0.0,0.0,0.0,0.0,0.0,0.0,0.0,0.0,0.0,0.0,0.0,0.0,0.0,0.0,0.0,0.0,0.0,0.0,-0.755,0.0,0.0,0.0,0.0,-0.948,0.0,-0.584,0.0,0.657,0.0,0.0,1.0070000000000001,0.0,0.0,1.291,0.525,,,,,,,,,,,,,,,,,,,,,,,,,,,,,,,,,,,,,,,,,,,,,,,,,,,,,,,,,,,,,moveUp
accX,-0.643,0.0,-1.3880000000000001,-0.7559999999999999,0.0,0.0,-0.966,0.8959999999999999,-1.6780000000000002,-0.708,0.0,0.0,-1.115,1.92,-1.64,0.0,0.0,0.0,-1.03,0.63,-2.259,-0.728,-0.6759999999999999,0.0,-1.3769999999999998,0.0,-2.805,-1.5519999999999998,-0.858,0.0,-1.226,1.3459999999999999,-2.399,-1.9780000000000002,-1.071,0.0,-0.703,0.97,-1.9069999999999998,-2.2769999999999997,-1.4869999999999999,0.0,-0.9229999999999999,1.615,-1.0290000000000001,-2.1830000000000003,-2.021,0.0,-1.324,1.8319999999999999,-0.826,-1.915,-2.165,0.0,-2.0980000000000003,0.0,-1.052,-2.603,-2.158,0.0,-1.341,1.745,0.0,-3.236,-2.329,0.0,-0.723,2.241,0.0,-3.615,-2.8739999999999997,0.0,0.0,3.139,1.485,-3.7030000000000003,-3.593,0.515,-0.602,4.524,2.233,-3.324,-3.915,0.0,-1.306,4.363,1.969,-3.028,-3.715,0.0,0.0,3.7260000000000004,1.527,-3.2460000000000004,-3.806,0.0,1.8130000000000002,3.217,2.275,-3.742,-4.6739999999999995,0.0,1.771,2.74,2.8489999999999998,-3.955,-5.471,0.0,0.0,3.062,3.092,-3.6189999999999998,-5.462999999999999,0.0,0.0,3.053,2.41,-2.863,-4.754,0.0,0.0,2.08,1.27,-2.3819999999999997,-4.0569999999999995,0.5489999999999999,1.6340000000000001,0.626,0.639,-2.309,-3.787,0.57,2.299,0.0,0.631,-2.3,-3.7889999999999997,0.0,2.18,0.0,0.573,-1.751,-3.6260000000000003,0.0,0.748,0.0,0.0,-1.546,-3.1710000000000003,0.0,0.97,0.0,0.0,-1.652,-2.943,0.0,0.96,0.0,0.0,-1.703,-2.937,0.0,1.094,0.0,0.0,-1.5390000000000001,-2.929,0.0,1.099,0.6,0.0,-1.1640000000000001,-2.8819999999999997,0.0,0.0,0.0,0.0,-0.779,-2.74,0.0,0.0,0.0,0.0,-0.772,-2.365,0.0,0.769,0.0,0.0,-1.003,-2.09,0.0,1.7619999999999998,0.0,0.0,-1.234,-2.314,0.0,1.2429999999999999,0.535,0.0,-1.045,-2.639,0.0,0.772,0.0,-0.627,-0.536,-2.327,0.0,1.239,-0.774,-0.836,0.0,-1.903,0.0,2.121,-1.473,-0.794,-0.615,-1.8319999999999999,0.0,2.483,-1.008,-0.539,-1.139,-2.185,0.0,1.226,0.531,-1.0,-1.1340000000000001,-2.379,0.0,0.905,0.0,-1.804,-0.527,-1.8030000000000002,0.0,2.387,-1.317,-2.112,0.0,-1.288,0.0,3.49,-2.591,-2.315,-0.622,-1.496,0.0,2.1319999999999997,-0.948,-2.023,-1.193,-1.8419999999999999,-0.541,0.0,0.8959999999999999,-1.771,-0.934,-1.4269999999999998,0.0,0.0,0.0,-1.743,0.0,0.0,0.0,1.861,-0.982,-1.314,0.0,0.0,0.0,1.787,-1.242,-1.273,0.0,0.0,0.0,1.072,-0.7829999999999999,-1.137,-0.636,0.0,0.0,0.0,0.0,-0.78,-0.591,0.0,0.0,0.0,0.0,0.0,0.0,0.0,0.0,0.0,0.0,0.0,0.0,0.0,0.0,0.0,0.0,0.0,0.0,0.0,0.0,0.0,-0.502,0.0,0.0,0.0,0.0,0.0,0.0,0.0,0.0,0.0,0.0,0.0,0.0,0.0,0.0,0.0,0.0,0.0,0.0,0.0,0.0,0.0,0.0,0.0,0.0,0.0,0.0,0.0,0.0,0.0,0.0,0.0,0.0,0.0,0.0,0.0,0.0,0.0,0.0,0.0,0.0,0.0,0.0,0.0,0.0,0.0,0.0,0.0,0.0,0.0,0.0,0.0,0.0,0.0,0.0,0.0,0.0,0.0,0.0,0.0,0.0,0.0,0.0,0.0,0.0,0.0,0.0,0.0,0.0,0.0,0.0,0.0,0.0,0.0,0.0,0.0,0.0,0.0,0.0,0.0,0.0,0.0,0.0,0.0,0.0,0.0,0.0,0.0,0.0,0.0,0.0,0.0,0.0,0.0,0.0,0.0,0.0,-0.531,0.7559999999999999,0.907,0.0,,,,,,,,,,,,,,,,,,,,,,,,,,,,,,,,,,,,,,,,,,,,,,,,,,,,,,,,,,,,,,,,,,,moveUp
accX,0.0,0.958,0.0,-0.5720000000000001,-0.59,0.0,0.0,0.927,0.0,-0.56,-1.0390000000000001,0.0,-1.349,0.682,-0.893,-0.755,-1.209,0.0,-1.815,0.875,-1.305,-1.109,-1.021,0.0,-1.15,1.2790000000000001,-1.295,-1.435,-1.014,0.0,0.0,1.348,-1.024,-1.805,-1.4769999999999999,0.0,0.0,1.6030000000000002,0.0,-2.189,-2.217,0.0,-0.508,2.131,0.0,-2.4459999999999997,-2.7510000000000003,0.0,-2.117,3.1889999999999996,-0.875,-2.448,-2.208,0.0,0.0,3.3480000000000003,-0.6920000000000001,-2.375,-2.094,0.52,0.594,3.091,0.0,-2.572,-2.597,0.525,0.0,3.654,0.0,-2.9619999999999997,-3.196,0.0,-1.153,4.957,0.5489999999999999,-3.202,-3.484,0.0,-2.3890000000000002,6.1979999999999995,0.0,-2.971,-2.8810000000000002,0.516,-1.127,6.195,0.0,-2.3569999999999998,-2.028,1.01,0.8059999999999999,5.038,0.0,-2.05,-1.972,1.2429999999999999,1.7819999999999998,3.807,0.695,-2.364,-2.767,1.177,1.349,2.6039999999999996,1.274,-3.034,-3.7939999999999996,0.784,0.0,2.5810000000000004,1.268,-3.489,-4.2219999999999995,0.0,0.0,2.8169999999999997,1.205,-3.39,-3.93,0.0,0.8029999999999999,2.314,1.347,-3.053,-3.853,0.0,1.156,1.462,1.476,-2.85,-4.132,0.0,0.687,1.2009999999999998,1.348,-2.657,-4.342,0.0,0.0,0.0,0.6509999999999999,-2.307,-4.09,0.0,1.235,0.0,0.0,-2.0980000000000003,-3.707,0.0,2.267,0.0,0.0,-1.923,-3.7,0.0,2.3409999999999997,-0.526,0.0,-1.693,-3.948,0.0,1.755,-0.561,0.0,-1.3259999999999998,-3.937,0.0,1.739,-1.115,0.0,-1.047,-3.806,0.0,1.409,-1.591,-0.695,-1.075,-3.781,0.0,1.571,-1.685,-1.203,-1.3,-3.5780000000000003,0.0,1.735,-1.0190000000000001,-1.469,-1.484,-3.3539999999999996,0.0,1.36,0.0,-1.4780000000000002,-1.12,-2.8089999999999997,0.0,1.181,0.0,-1.536,-0.713,-2.374,0.0,0.773,0.0,-1.733,-0.519,-1.857,0.0,0.7390000000000001,-0.514,-1.841,-0.534,-1.3430000000000002,0.0,1.364,-0.6829999999999999,-1.7819999999999998,-0.6779999999999999,-1.199,0.0,0.9359999999999999,0.0,-1.476,-0.609,-1.003,0.0,0.892,0.0,-1.187,0.0,-0.769,0.0,1.202,-0.652,-1.022,-0.503,-0.688,0.0,1.1159999999999999,-0.573,-1.042,-0.509,-0.63,0.0,0.688,0.0,-1.081,-0.532,0.0,0.0,0.0,0.0,-0.81,0.0,0.0,0.0,0.551,0.0,0.0,0.0,0.0,0.0,0.0,0.0,0.0,0.0,0.0,0.0,0.0,0.0,0.0,0.0,0.0,0.0,0.515,0.0,0.0,0.0,0.0,0.0,0.574,-0.521,0.0,0.0,0.0,0.0,0.0,-0.509,0.0,0.0,0.0,0.0,0.0,0.0,0.0,0.0,0.0,0.0,0.0,0.0,0.0,0.0,0.0,0.0,0.0,0.0,0.0,0.0,0.0,0.0,0.0,-0.568,0.0,0.0,0.0,0.0,0.0,-0.799,0.0,0.0,0.0,0.0,0.0,0.0,0.0,0.0,0.0,0.0,-0.606,0.0,0.0,0.0,0.0,0.0,0.0,0.0,0.0,0.0,0.0,0.0,0.0,-0.502,0.0,0.0,0.0,0.0,0.0,0.0,0.0,0.0,0.0,0.0,0.0,0.0,0.0,0.0,0.0,0.0,0.0,0.0,0.0,0.0,0.0,0.0,0.0,0.0,0.0,0.0,0.0,0.0,0.0,0.0,0.0,0.0,0.0,0.0,-0.6829999999999999,-0.593,0.0,0.0,0.0,0.0,0.0,0.0,0.0,0.0,0.0,0.0,0.0,0.0,0.0,0.0,0.0,0.0,0.0,0.0,0.0,0.0,0.0,0.0,0.0,-0.8290000000000001,0.0,0.0,0.0,0.0,,,,,,,,,,,,,,,,,,,,,,,,,,,,,,,,,,,,,,,,,,,,,,,,,,,,,,,,,,,,,,,,,,,,,,,,,moveUp
accX,0.0,0.0,0.0,0.0,0.0,0.0,0.0,1.092,0.0,0.0,-0.667,0.0,-0.742,0.0,-1.113,0.0,-0.8390000000000001,0.0,0.0,0.0,-1.139,0.0,-0.904,0.0,0.0,0.7759999999999999,-0.769,-0.9109999999999999,-1.2009999999999998,0.0,0.0,0.0,-0.564,-1.125,-1.744,0.0,0.0,0.0,0.0,-1.524,-2.539,-0.698,0.728,0.0,0.7120000000000001,-2.0540000000000003,-3.533,-1.236,0.0,0.0,1.6980000000000002,-2.659,-4.726,-1.786,0.0,0.509,2.613,-3.236,-5.885,-2.252,-1.9180000000000001,2.146,3.1310000000000002,-3.5460000000000003,-6.787999999999999,-2.549,-3.471,5.303999999999999,2.8989999999999996,-3.312,-6.934,-2.349,-4.6530000000000005,5.0,3.093,-2.7030000000000003,-6.459,-1.7280000000000002,-4.415,1.314,2.137,-1.973,-5.3870000000000005,-0.634,-2.99,1.121,1.505,-1.416,-4.2410000000000005,0.748,-1.44,1.1,1.182,-0.958,-3.5460000000000003,1.1,-0.841,0.6759999999999999,1.315,-0.91,-3.842,1.0590000000000002,-1.185,0.0,1.169,-0.9109999999999999,-4.112,0.977,-1.7819999999999998,0.0,0.0,-0.9179999999999999,-3.6689999999999996,1.114,-0.855,0.0,0.0,-0.9129999999999999,-3.029,1.3159999999999998,0.8740000000000001,0.0,0.557,-1.018,-3.197,1.382,1.156,0.0,1.3130000000000002,-1.1340000000000001,-3.905,1.2209999999999999,0.0,0.0,1.44,-1.102,-4.349,0.915,-0.963,-0.8240000000000001,0.0,-1.032,-3.8960000000000004,0.708,-0.612,0.0,0.0,-0.856,-3.125,0.955,0.0,0.0,0.0,-0.59,-2.738,1.2819999999999998,1.375,0.0,0.0,0.0,-2.8360000000000003,1.348,2.362,-0.5670000000000001,0.0,0.0,-3.388,1.245,1.7919999999999998,-0.985,-0.946,0.0,-3.486,0.938,0.551,-1.177,-2.073,0.0,-2.71,0.789,1.65,-0.667,-2.124,0.0,-2.2769999999999997,1.051,3.1289999999999996,-0.67,-1.561,0.0,-2.5180000000000002,0.941,4.122,-1.045,-1.094,0.0,-3.2710000000000004,0.5529999999999999,3.18,-0.992,-1.381,-0.5379999999999999,-3.7310000000000003,0.0,1.171,0.0,-2.372,0.0,-3.112,0.0,1.358,-0.915,-3.0239999999999996,0.0,-2.335,0.0,3.764,-1.7209999999999999,-2.52,-0.956,-2.641,0.0,3.4939999999999998,-0.546,-1.597,-1.2309999999999999,-3.213,0.0,0.8959999999999999,1.785,-0.8370000000000001,-0.568,-2.8489999999999998,0.0,-0.518,1.189,-1.159,0.0,-1.256,0.507,1.93,-1.197,-1.225,0.0,-1.145,0.0,0.9059999999999999,0.0,-1.0759999999999998,-0.552,-1.179,0.0,0.0,0.0,-0.861,0.0,-0.823,0.0,0.782,0.0,-0.7290000000000001,0.0,0.0,0.0,0.655,0.0,-1.161,0.0,0.0,0.0,0.6809999999999999,-0.7120000000000001,-1.661,0.0,0.0,0.0,0.868,-1.011,-1.6780000000000002,0.0,0.0,0.0,0.58,-0.698,-1.517,0.0,0.0,0.0,0.0,0.0,-1.3419999999999999,0.0,0.0,0.0,0.0,0.0,-1.162,0.0,0.0,0.0,0.0,-0.596,-0.9209999999999999,0.0,0.0,0.0,0.0,-0.695,-0.615,0.0,0.0,0.0,0.0,0.0,0.0,0.0,0.0,0.0,0.0,0.0,0.0,0.0,0.0,0.0,0.0,0.0,0.0,0.0,0.0,0.0,0.0,0.0,0.0,0.0,0.0,0.0,0.0,0.0,0.0,0.0,0.0,0.0,0.0,0.0,0.0,0.0,0.0,0.0,0.0,0.0,0.0,0.0,0.0,0.0,0.0,0.0,0.0,0.0,0.0,0.0,0.0,0.0,0.0,0.0,0.0,0.0,0.0,0.0,0.0,0.0,0.0,0.0,0.0,0.0,0.0,0.0,0.0,0.0,0.0,0.0,0.0,0.0,0.0,0.0,0.0,-0.682,0.0,0.0,0.0,0.0,,,,,,,,,,,,,,,,,,,,,,,,,,,,,,,,,,,,,,,,,,,,,,,,,,,,,,,,,,,,,,,,,,,,,,,,,,,,,,,,,,,,,,,,,,,moveUp
accX,-0.91,1.4469999999999998,-1.43,0.0,0.0,0.606,-1.063,0.0,-2.0469999999999997,-0.9570000000000001,0.0,0.0,-0.589,0.634,-1.62,-1.524,-0.653,0.0,-1.175,1.3880000000000001,-1.306,-1.6369999999999998,-0.7909999999999999,0.0,-1.483,1.7930000000000001,-1.171,-1.5230000000000001,-0.708,0.0,-1.3940000000000001,1.66,-1.035,-1.452,-0.787,0.5870000000000001,-1.215,1.5630000000000002,-1.021,-1.587,-1.067,0.7140000000000001,-1.089,1.319,-1.147,-1.9769999999999999,-1.4169999999999998,0.5820000000000001,-1.3430000000000002,1.7180000000000002,-0.893,-2.45,-1.65,0.5429999999999999,-1.88,2.603,-0.6579999999999999,-2.608,-1.579,0.616,-0.877,2.635,0.0,-2.748,-1.8019999999999998,0.713,0.0,3.0239999999999996,0.0,-2.9189999999999996,-2.66,0.597,0.5920000000000001,3.5780000000000003,1.251,-3.2889999999999997,-3.859,0.0,0.0,4.037,2.1,-3.697,-4.92,0.0,-1.365,3.697,2.278,-4.042,-5.167000000000001,0.0,-1.76,3.615,1.912,-4.239,-4.817,0.0,-0.674,2.83,1.8519999999999999,-4.356,-4.63,0.0,0.0,2.3209999999999997,2.195,-4.312,-4.836,0.0,0.636,1.911,2.2880000000000003,-3.9989999999999997,-4.833,0.0,0.0,1.4,1.757,-3.543,-4.282,0.0,0.9470000000000001,0.6859999999999999,0.0,-3.077,-3.667,0.0,0.897,0.715,0.0,-2.877,-3.728,0.0,0.0,0.5529999999999999,0.0,-2.399,-3.403,0.0,1.003,0.0,0.0,-1.788,-2.8360000000000003,0.0,1.4240000000000002,0.0,-0.7040000000000001,-1.329,-2.51,0.0,1.5759999999999998,0.0,-0.8759999999999999,-1.156,-2.374,0.0,1.608,0.0,-1.081,-1.146,-2.3,0.0,1.6769999999999998,0.0,-1.021,-1.167,-2.235,0.0,1.722,0.0,-0.629,-1.1,-2.251,0.0,1.484,0.0,0.0,-0.9390000000000001,-2.4019999999999997,0.0,0.595,-0.91,-0.838,-0.883,-2.331,0.0,1.921,-1.63,-0.8959999999999999,-1.149,-2.07,0.0,2.803,-1.354,0.0,-1.574,-2.388,0.0,1.992,0.0,0.0,-1.8019999999999998,-2.7939999999999996,-0.88,0.82,1.1740000000000002,0.0,-1.48,-2.793,-0.8370000000000001,0.0,0.0,-0.541,-0.769,-2.4090000000000003,0.0,0.9009999999999999,-0.775,-1.35,-0.524,-1.663,0.0,2.169,-1.136,-1.389,-0.759,-1.524,0.0,1.6669999999999998,0.0,-1.247,-1.004,-1.652,0.0,1.198,0.0,-1.085,-0.9159999999999999,-1.5090000000000001,0.0,0.9420000000000001,0.0,-1.044,-0.725,-1.187,0.0,1.028,0.0,-1.169,-0.565,-0.825,0.0,1.2309999999999999,0.0,-1.311,0.0,-0.626,0.0,1.028,0.0,-1.569,0.0,0.0,0.0,0.922,0.0,-1.431,0.0,0.0,0.0,0.7879999999999999,0.0,-1.173,0.0,0.0,0.0,0.653,0.0,-0.787,0.0,0.0,0.0,0.687,0.0,-0.5489999999999999,0.0,0.0,0.0,0.0,0.0,0.0,0.0,0.0,0.0,0.0,0.0,0.0,0.0,0.0,0.0,0.0,0.0,0.0,0.0,0.0,0.0,0.0,0.0,0.0,0.0,0.0,0.0,0.0,0.0,0.0,0.0,0.0,0.0,0.0,0.0,0.0,0.0,0.0,0.0,0.0,0.0,0.0,0.0,0.0,0.0,0.0,0.0,0.0,0.0,0.0,0.0,0.0,0.0,0.0,0.0,0.0,0.0,0.0,0.0,0.0,0.0,0.0,0.0,0.0,0.0,0.0,0.0,0.0,0.0,0.0,0.0,0.0,0.0,0.0,0.0,0.0,0.0,0.0,0.0,0.0,0.0,0.0,0.0,0.0,0.0,0.0,0.0,0.0,0.0,0.0,0.0,0.0,0.0,0.0,0.0,0.0,0.0,0.0,0.0,0.0,0.0,0.0,0.0,0.0,0.0,0.0,0.0,0.0,0.0,0.0,0.0,0.0,0.0,0.0,0.0,0.0,0.0,0.0,0.0,0.0,0.619,0.0,0.0,,,,,,,,,,,,,,,,,,,,,,,,,,,,,,,,,,,,,,,,,,,,,,,,,,,,,,,,,,,,,,,,,,,,,,,,,moveUp
accX,0.0,0.0,0.0,0.0,0.0,0.0,0.0,0.868,0.0,0.0,0.0,0.0,-0.525,1.285,0.0,0.0,-0.546,0.521,-0.893,0.0,-1.5019999999999998,0.0,0.0,0.634,0.0,0.0,-1.4680000000000002,0.0,-0.622,0.0,0.0,0.903,-1.538,-0.605,-0.9359999999999999,0.0,0.0,1.117,-1.4969999999999999,-0.8059999999999999,-1.382,0.0,0.0,1.3869999999999998,-1.215,-0.9690000000000001,-1.81,0.0,-0.588,1.517,-0.805,-1.1340000000000001,-2.211,0.0,-1.072,1.589,-0.679,-1.446,-2.5860000000000003,0.0,-1.085,2.127,-0.72,-1.903,-2.805,0.0,-1.203,2.656,-0.605,-2.309,-3.023,0.0,-0.985,3.6260000000000003,0.0,-2.735,-3.222,0.0,-1.415,5.231,0.562,-3.025,-3.489,0.0,-1.761,6.487,0.7290000000000001,-2.911,-3.318,0.9520000000000001,-0.924,6.914,0.759,-2.64,-3.009,1.359,0.0,6.314,0.693,-2.524,-3.112,1.3419999999999999,0.0,5.31,0.9279999999999999,-2.72,-3.645,1.0190000000000001,0.0,4.308,1.214,-3.0869999999999997,-4.169,0.919,0.0,4.164,1.401,-3.2239999999999998,-4.211,1.072,0.0,3.964,1.76,-3.091,-4.166,0.934,0.777,2.9539999999999997,1.959,-2.927,-4.445,0.522,0.0,1.482,1.926,-2.905,-4.933,0.0,0.0,0.0,1.453,-2.96,-5.209,0.0,0.0,-0.978,1.227,-3.117,-5.1739999999999995,0.0,0.71,-0.809,1.187,-3.255,-5.024,0.0,0.747,0.0,1.381,-3.1260000000000003,-4.8660000000000005,-0.503,0.966,0.0,1.107,-2.358,-4.706,0.0,0.638,0.0,0.0,-1.4780000000000002,-4.373,0.0,0.0,0.515,-0.687,-0.542,-3.477,0.0,0.0,0.61,-1.094,0.0,-2.4659999999999997,0.607,0.0,0.0,-1.173,0.9740000000000001,-1.689,0.8859999999999999,1.314,0.0,-0.988,1.183,-1.3969999999999998,0.927,2.075,-1.308,-1.212,0.894,-1.6019999999999999,0.816,1.767,-1.4769999999999999,-1.794,0.0,-1.71,0.696,1.422,-0.778,-2.069,0.0,-1.6230000000000002,0.644,1.597,-0.581,-2.1,0.0,-1.557,0.58,1.775,-0.585,-1.974,0.0,-1.598,0.0,1.73,-0.514,-1.8159999999999998,-0.645,-1.739,0.0,0.8029999999999999,0.0,-1.906,0.0,-1.52,0.0,0.527,0.0,-2.193,0.0,-1.07,0.58,1.5119999999999998,-0.925,-2.274,0.0,-1.036,0.501,1.625,-1.026,-1.9569999999999999,-0.7879999999999999,-1.232,0.0,0.647,0.0,-1.6909999999999998,-0.785,-1.069,0.0,0.5539999999999999,0.0,-1.349,-0.594,-0.753,0.0,0.953,0.0,-1.141,-0.568,-0.687,0.0,0.9159999999999999,-0.5489999999999999,-1.014,-0.599,-0.7070000000000001,0.0,0.0,0.0,-0.9620000000000001,-0.5660000000000001,-0.556,0.0,0.0,0.0,-0.622,0.0,0.0,0.0,0.528,0.0,0.0,0.0,0.0,0.0,0.617,0.0,0.0,0.0,0.0,0.0,0.0,0.0,0.0,0.0,0.0,0.0,0.0,-0.741,0.0,0.0,0.0,0.0,0.0,-0.557,0.0,0.0,0.0,0.0,0.0,0.0,0.0,0.0,0.0,0.0,0.0,0.0,0.0,0.0,0.0,0.0,0.0,0.0,0.0,0.0,0.0,0.0,0.58,-0.857,0.0,0.0,0.0,0.0,0.0,-0.564,0.0,0.0,0.0,0.0,0.0,0.0,0.0,0.0,0.0,0.0,0.0,0.0,0.0,0.0,0.0,0.0,0.0,0.0,0.0,0.0,0.0,0.0,0.0,0.0,0.0,0.0,0.0,0.0,0.0,0.0,0.0,0.0,0.0,0.0,0.0,0.0,0.0,0.0,0.0,0.0,0.0,0.0,0.0,0.0,0.0,0.0,0.0,0.0,0.0,0.0,0.0,0.0,0.0,0.0,0.0,0.0,0.0,0.0,0.0,0.0,0.0,0.0,0.0,0.0,0.0,0.0,0.0,0.0,0.0,0.0,0.0,0.0,0.0,0.0,0.0,0.0,0.0,0.0,0.0,0.0,0.0,0.0,0.0,0.0,0.0,0.0,0.5429999999999999,0.0,-0.9570000000000001,1.041,0.0,0.0,0.915,0.0,,,,,,,,,,,,,,,,,,,,,,,,,,,,,,,,,,,,,moveUp
accX,0.0,0.0,-0.7070000000000001,-0.835,0.0,0.0,-0.602,0.792,-1.048,-0.875,-0.574,0.0,-1.511,1.226,-1.472,-0.684,-0.7090000000000001,0.0,-1.8319999999999999,1.2329999999999999,-1.4680000000000002,-0.557,-0.5429999999999999,0.0,-1.495,0.812,-1.3330000000000002,-0.7909999999999999,0.0,0.7290000000000001,-1.04,0.54,-1.2830000000000001,-1.11,-0.502,0.635,-0.904,0.672,-1.1640000000000001,-1.399,-0.792,0.5329999999999999,-0.9540000000000001,0.88,-1.073,-1.5719999999999998,-1.159,0.0,-0.9640000000000001,1.204,-0.649,-1.839,-1.568,0.0,-1.768,1.6969999999999998,0.0,-2.198,-1.561,0.0,-0.9179999999999999,2.445,0.0,-2.488,-1.619,0.665,-0.604,3.154,0.0,-2.497,-1.827,0.889,0.753,3.46,0.59,-2.495,-2.5660000000000003,0.831,0.754,3.005,0.777,-2.7889999999999997,-3.5789999999999997,0.664,0.0,3.148,1.125,-3.335,-4.353,0.0,0.0,3.783,1.729,-3.8310000000000004,-4.7139999999999995,0.0,-0.547,4.705,1.8030000000000002,-4.001,-4.744,0.0,0.0,5.229,2.207,-3.8960000000000004,-5.078,0.0,0.853,4.3919999999999995,2.65,-3.765,-5.817,-0.547,0.0,2.736,2.822,-3.6430000000000002,-6.277,-0.585,-1.278,1.337,2.468,-3.554,-5.917999999999999,-0.731,-1.41,0.765,1.61,-3.34,-4.93,-0.601,0.0,1.186,1.2670000000000001,-2.878,-4.27,0.0,1.365,1.062,1.391,-2.235,-4.294,0.0,1.178,0.5870000000000001,1.035,-1.7480000000000002,-4.37,0.0,0.0,0.0,0.0,-1.496,-3.98,0.0,0.736,0.0,-0.536,-1.403,-3.4610000000000003,0.0,1.584,0.0,0.0,-1.113,-3.241,0.0,1.744,0.0,0.0,-0.7440000000000001,-3.112,0.522,1.8980000000000001,0.0,-0.6729999999999999,0.0,-3.1860000000000004,0.589,0.775,-1.443,-1.621,0.0,-2.968,0.604,0.0,-0.946,-2.2319999999999998,-0.512,-2.484,0.667,1.2830000000000001,0.0,-1.909,-0.564,-1.8769999999999998,0.8190000000000001,2.112,0.0,-1.3780000000000001,0.0,-1.798,0.8690000000000001,2.126,0.0,-1.2890000000000001,0.0,-2.008,0.74,1.285,0.0,-1.626,0.0,-2.106,0.6920000000000001,0.805,-0.53,-2.265,0.0,-1.6640000000000001,0.757,1.575,-0.9109999999999999,-2.31,0.0,-1.153,0.8140000000000001,1.99,-0.84,-1.801,0.0,-1.1179999999999999,0.748,1.91,-0.613,-1.28,0.0,-1.238,0.536,1.4140000000000001,0.0,-0.9079999999999999,0.0,-1.3259999999999998,0.0,1.034,0.0,-0.826,0.0,-1.1340000000000001,0.5379999999999999,1.149,0.0,-1.092,0.0,-0.821,0.595,1.5219999999999998,-0.858,-1.276,0.0,-0.621,0.504,1.4569999999999999,-0.568,-1.287,0.0,-0.574,0.0,0.924,0.0,-1.0,0.0,0.0,0.0,1.222,0.0,-0.731,0.0,0.0,0.0,1.382,-0.7979999999999999,-0.602,0.0,0.0,0.0,0.917,-0.665,-0.6609999999999999,0.0,0.0,0.0,0.597,-0.606,-0.66,0.0,0.0,0.0,0.594,-0.684,-0.501,0.0,0.0,0.0,0.612,-0.752,0.0,0.0,0.0,0.0,0.0,0.0,0.0,0.0,0.0,0.0,0.0,0.0,0.0,0.0,0.0,0.0,0.0,0.0,0.0,0.0,0.0,0.0,0.0,0.0,0.0,0.0,0.0,0.0,0.0,-0.69,0.0,0.0,0.0,0.0,0.0,0.0,0.0,0.0,0.0,0.0,0.0,0.0,0.0,0.0,0.0,0.0,0.0,0.0,0.0,0.0,0.0,0.0,0.0,0.0,0.0,0.0,0.0,0.0,0.0,0.0,0.0,0.0,0.0,0.0,0.0,0.0,0.0,0.0,0.0,0.0,0.0,0.0,0.0,0.0,0.0,0.0,0.0,0.0,0.0,0.0,0.0,0.0,0.0,0.0,0.0,0.0,0.0,0.0,0.0,0.0,0.0,0.0,0.0,0.0,0.0,0.0,0.0,0.0,0.0,0.0,0.0,0.0,0.0,0.0,0.0,0.0,0.0,0.0,0.0,0.0,0.0,0.0,0.0,0.0,0.0,0.0,0.0,0.0,0.0,0.0,0.0,0.0,0.0,0.0,0.0,0.0,0.0,0.0,0.0,0.0,0.0,0.0,0.0,0.0,0.0,0.0,0.0,0.0,0.0,0.0,0.0,0.0,0.0,0.0,0.0,0.0,0.0,0.0,0.0,0.0,0.0,0.0,0.0,0.0,0.0,0.0,-0.5489999999999999,0.0,0.0,0.0,0.0,0.0,-0.981,0.0,0.0,0.0,0.0,0.0,-1.455,0.0,1.028,0.0,moveUp
accX,0.0,0.0,-0.564,-0.888,-1.089,0.0,0.0,0.5479999999999999,0.0,-1.02,-1.6880000000000002,0.0,-1.42,0.0,-1.4180000000000001,-1.528,-2.883,-0.547,-2.536,0.541,-1.36,-2.001,-3.0039999999999996,0.0,-2.375,1.411,-0.955,-2.094,-2.862,0.0,-1.879,1.97,-0.557,-1.9409999999999998,-2.8339999999999996,0.0,-1.73,2.01,0.0,-1.8330000000000002,-2.984,0.733,-1.489,2.3890000000000002,0.0,-1.885,-3.233,0.9079999999999999,-2.129,3.341,0.0,-2.0709999999999997,-3.429,1.0090000000000001,-2.519,4.641,0.0,-2.21,-3.219,1.122,-1.944,6.267,0.0,-2.219,-2.622,1.315,-0.605,7.042000000000001,0.0,-2.046,-2.063,1.308,0.0,6.627000000000001,0.0,-1.876,-2.0340000000000003,1.078,0.0,5.769,0.0,-1.956,-2.41,0.7070000000000001,-1.035,4.978,0.613,-2.189,-2.7739999999999996,0.679,-1.729,5.725,0.99,-2.144,-2.565,1.189,-1.4369999999999998,6.086,0.965,-1.494,-1.744,1.7080000000000002,0.539,4.905,0.0,-0.758,-1.091,1.869,2.373,2.969,0.0,-0.772,-1.607,1.7630000000000001,2.472,0.986,0.0,-1.495,-2.8930000000000002,1.3780000000000001,1.475,0.733,0.596,-2.4330000000000003,-3.8080000000000003,0.715,1.33,0.958,0.938,-2.911,-3.943,0.0,2.021,1.0090000000000001,1.307,-2.987,-4.1339999999999995,0.0,1.875,0.7240000000000001,1.692,-2.927,-4.771,0.0,1.161,0.0,1.795,-2.853,-5.4,-0.5660000000000001,0.7,-0.6859999999999999,1.348,-2.707,-5.575,-1.02,0.0,-1.115,0.0,-2.638,-5.005,-1.136,0.777,0.0,0.0,-2.463,-4.587,-1.001,0.644,0.0,0.0,-2.074,-4.187,-0.794,0.0,1.3219999999999998,-0.531,-1.39,-3.698,-0.518,0.0,1.69,-0.722,-0.609,-3.222,0.0,0.0,1.272,-1.114,0.0,-2.6630000000000003,0.0,0.0,0.0,-1.9269999999999998,0.0,-1.95,0.0,0.8290000000000001,0.0,-2.086,0.0,-1.54,0.0,1.1340000000000001,0.0,-1.795,0.0,-1.38,0.0,0.968,0.561,-1.47,0.0,-1.271,0.504,0.6990000000000001,0.0,-1.198,0.0,-1.1340000000000001,0.542,0.818,0.0,-0.8809999999999999,0.0,-1.125,0.546,0.5660000000000001,0.0,-0.93,0.0,-1.075,0.536,0.508,0.0,-0.946,0.0,-0.95,0.5379999999999999,0.575,0.0,-0.9329999999999999,0.0,-0.8390000000000001,0.555,0.682,0.0,-0.735,0.0,-0.821,0.535,0.594,0.0,-0.547,0.0,-0.877,0.519,0.0,0.0,0.0,0.0,-0.7879999999999999,0.5589999999999999,0.0,0.0,0.0,0.0,-0.618,0.616,0.0,0.0,-0.562,0.0,-0.5539999999999999,0.636,0.68,-0.8009999999999999,-1.062,0.0,-0.5429999999999999,0.603,0.755,-0.981,-1.179,0.0,-0.5329999999999999,0.5589999999999999,0.0,0.0,-0.91,0.0,0.0,0.541,0.0,0.0,-0.772,0.0,0.0,0.596,0.0,-0.51,-0.8690000000000001,0.0,0.0,0.593,0.9109999999999999,-1.113,-0.768,0.0,0.0,0.0,0.0,-0.598,-0.561,0.0,0.0,0.0,0.0,0.0,0.0,0.0,0.0,0.0,0.0,0.0,0.0,0.0,0.0,0.0,0.0,-0.655,0.0,0.0,0.0,0.0,0.0,-0.727,0.0,0.0,0.0,0.0,0.0,0.0,-0.5710000000000001,0.0,0.0,0.0,0.0,0.0,-0.518,0.0,0.0,0.0,0.0,0.0,0.0,0.0,0.0,0.0,0.0,0.0,0.0,0.0,0.0,0.0,0.0,0.0,0.0,0.0,0.0,0.0,0.0,0.0,0.0,0.0,0.0,0.0,0.0,0.0,0.0,0.0,0.0,0.0,0.0,0.0,0.0,0.0,0.0,0.0,0.0,0.0,0.0,0.0,0.0,0.0,0.0,0.0,0.0,0.0,0.0,0.0,0.0,0.0,0.0,0.0,0.0,0.0,0.0,0.0,0.0,0.0,0.0,0.0,0.0,0.0,0.0,0.0,0.0,0.0,0.0,0.0,0.0,0.0,0.0,0.0,0.0,0.0,0.0,0.0,0.0,0.0,-0.584,0.0,0.0,0.0,0.0,0.0,0.0,0.0,0.0,0.0,0.695,0.0,-0.634,1.083,0.0,0.0,0.8759999999999999,0.0,-1.3969999999999998,1.933,0.0,1.482,1.9809999999999999,0.831,-0.645,1.072,0.0,2.365,2.7969999999999997,1.237,,,,,,,,,,,,,,,,,,,moveUp
accX,0.0,0.579,0.0,0.0,0.0,0.0,0.0,0.586,0.615,0.0,0.0,0.0,0.0,-0.9790000000000001,0.0,0.0,0.0,0.0,0.0,0.0,0.0,0.0,0.0,0.0,0.0,0.618,0.0,0.0,0.0,0.0,0.648,0.0,-0.5589999999999999,0.0,0.0,0.0,0.0,0.518,-0.598,0.0,-0.8420000000000001,0.0,0.564,0.0,0.0,-0.6859999999999999,-1.431,0.0,0.0,0.0,0.0,-1.0170000000000001,-2.16,-0.547,-1.565,0.9420000000000001,-0.871,-1.28,-2.457,0.0,-1.682,1.314,-0.9229999999999999,-1.631,-2.637,0.0,-2.374,1.544,-1.088,-1.946,-2.679,0.0,-2.093,1.676,-0.922,-2.2769999999999997,-2.748,0.0,-1.508,2.041,0.0,-2.52,-3.167,0.0,-1.561,2.946,0.0,-2.741,-3.734,0.0,-1.847,4.152,0.9670000000000001,-2.967,-4.124,-0.672,-1.6680000000000001,5.547999999999999,1.317,-3.187,-4.516,-0.892,-1.1340000000000001,6.434,1.645,-3.5860000000000003,-5.184,-1.064,-1.273,5.921,2.315,-3.853,-5.849,-0.968,-1.9880000000000002,3.948,2.991,-3.662,-6.165,-0.618,-2.877,3.2880000000000003,2.74,-2.9419999999999997,-5.763999999999999,0.0,-2.498,2.318,2.386,-2.351,-5.071000000000001,0.0,-1.171,1.051,1.732,-2.178,-4.707,0.0,0.0,0.0,1.253,-2.094,-4.613,0.0,0.0,0.0,0.623,-1.7719999999999998,-4.374,0.0,0.816,0.0,0.0,-1.339,-4.141,0.0,1.195,0.0,0.0,-1.0759999999999998,-4.055,0.0,1.187,0.0,0.0,-0.836,-3.7969999999999997,0.0,1.156,0.0,-0.8320000000000001,-0.785,-3.69,0.0,1.4809999999999999,0.0,-1.365,-0.76,-3.5789999999999997,0.0,1.286,-0.7290000000000001,-1.6769999999999998,-0.742,-3.466,0.0,1.181,0.0,-1.296,-0.8809999999999999,-3.213,0.0,1.0170000000000001,1.093,-0.657,-0.682,-2.903,0.0,1.466,1.167,0.0,0.0,-2.747,0.0,1.052,0.7140000000000001,0.0,0.0,-2.9219999999999997,0.0,0.769,0.0,-0.7929999999999999,0.0,-2.944,0.524,0.0,0.0,-1.756,0.0,-2.678,0.625,0.5529999999999999,0.0,-2.017,0.0,-2.083,0.731,1.1079999999999999,0.0,-1.469,0.0,-1.8,0.8170000000000001,1.169,0.0,-0.685,0.0,-1.784,0.772,0.833,0.0,0.0,0.0,-1.835,0.742,0.555,0.0,-0.642,0.0,-1.844,0.789,0.0,-0.922,-1.4,0.0,-1.795,0.8140000000000001,0.0,-0.79,-1.8459999999999999,0.0,-1.511,0.773,0.885,-0.6,-1.817,0.0,-1.149,0.769,1.475,-0.818,-1.8940000000000001,0.0,-1.071,0.7240000000000001,1.679,-1.162,-2.185,0.0,-1.194,0.631,1.305,-1.33,-2.7560000000000002,0.0,-1.228,0.503,0.6609999999999999,-0.934,-3.017,0.0,-0.858,0.0,1.12,-0.591,-2.434,0.0,0.0,0.0,1.561,0.0,-1.565,0.0,0.0,0.0,1.422,0.0,-0.932,0.0,0.0,0.0,0.96,0.0,-0.619,0.0,0.0,0.0,0.879,0.0,0.0,0.0,0.0,0.0,0.821,0.0,0.0,0.0,0.0,0.0,0.0,0.0,0.0,0.0,0.0,0.0,0.0,0.0,0.0,0.0,0.0,0.0,0.0,0.0,0.0,0.0,0.0,0.0,0.0,-0.504,0.0,0.0,0.0,0.0,0.0,0.0,0.0,0.0,0.0,0.0,0.0,0.0,0.0,0.0,0.0,0.0,0.0,0.0,0.0,0.0,0.0,0.0,0.0,0.0,0.0,0.0,0.0,0.0,0.0,0.0,0.0,0.0,0.0,0.0,0.0,0.0,0.0,0.0,0.0,0.0,0.0,0.0,0.0,0.0,0.0,0.0,0.0,0.0,0.0,0.0,0.0,0.0,0.0,0.0,0.0,0.0,0.0,0.0,0.0,0.0,0.0,0.0,0.0,0.0,-0.63,0.0,0.0,0.0,0.0,0.0,-0.853,0.0,0.0,0.0,0.7340000000000001,0.0,-1.222,1.065,0.0,0.0,1.2229999999999999,0.0,0.0,0.0,0.0,0.547,1.3559999999999999,0.59,-0.609,0.0,0.0,0.687,1.643,0.731,-1.288,0.9359999999999999,0.0,1.149,2.39,1.127,,,,,,,,,,,,,,,,,,,,,,,,,,,,,,,moveUp
accX,0.0,0.0,0.0,0.0,-0.527,0.0,-0.623,0.0,-0.569,0.0,-0.574,0.0,0.0,0.0,-0.66,-0.501,-0.653,0.0,0.0,0.514,0.0,-0.706,-0.8059999999999999,0.0,0.0,0.743,0.0,-0.807,-1.256,0.0,0.0,0.0,0.0,-0.914,-1.536,0.0,0.0,0.528,0.0,-1.339,-2.0669999999999997,0.0,-2.019,1.547,-0.611,-1.6,-2.4819999999999998,0.0,-1.484,1.431,-0.7390000000000001,-1.594,-2.252,0.0,-0.93,1.45,0.0,-1.804,-2.475,0.0,-1.3119999999999998,2.408,0.0,-2.0780000000000003,-2.8710000000000004,0.0,-2.003,3.065,0.0,-2.104,-2.9160000000000004,0.0,-2.031,3.429,0.0,-2.033,-2.667,0.0,-1.5630000000000002,4.072,-0.546,-1.9809999999999999,-2.267,0.0,-1.068,4.842,0.0,-2.042,-2.164,0.0,-1.155,6.155,0.0,-2.105,-2.2880000000000003,0.0,-0.648,7.069,0.0,-2.096,-2.408,0.0,-0.505,7.119,0.508,-2.167,-2.832,0.0,-1.028,6.132000000000001,0.0,-2.3280000000000003,-3.2510000000000003,0.0,-1.038,4.912,0.0,-2.656,-3.3310000000000004,0.0,0.0,4.292,0.907,-2.906,-3.477,-0.562,0.0,3.813,1.389,-2.9189999999999996,-3.9419999999999997,0.0,0.0,3.138,1.765,-2.696,-4.4639999999999995,0.0,-0.669,1.5919999999999999,1.347,-2.351,-4.692,0.0,-1.081,0.0,0.0,-2.202,-4.18,0.0,0.782,0.515,0.556,-2.225,-3.659,0.0,1.5719999999999998,0.902,1.033,-1.986,-3.71,0.0,2.343,0.0,1.4669999999999999,-1.588,-4.026,0.0,2.18,0.0,1.704,-1.081,-4.747,0.0,0.0,-1.6280000000000001,0.0,-1.236,-4.37,0.0,0.0,-1.43,-0.535,-1.561,-3.528,0.0,1.536,0.0,0.0,-1.5390000000000001,-3.28,0.0,2.209,0.0,0.0,-1.153,-3.407,0.0,1.901,0.8190000000000001,0.0,-0.649,-3.563,0.0,1.153,0.835,0.0,0.0,-3.4160000000000004,0.0,0.0,0.0,0.0,0.0,-2.9930000000000003,0.0,0.0,-0.51,-0.657,0.0,-2.373,0.657,0.7809999999999999,-0.628,-0.542,0.0,-2.023,0.664,1.652,0.0,0.0,0.0,-2.1830000000000003,0.612,0.975,0.0,0.0,0.0,-2.224,0.6,0.665,0.0,0.0,0.0,-2.096,0.638,0.0,-0.532,-0.61,0.0,-1.75,0.659,0.0,0.0,0.0,0.0,-1.412,0.701,0.865,0.0,0.0,0.0,-1.484,0.66,0.841,0.0,0.0,0.0,-1.663,0.654,0.768,0.0,-1.136,0.0,-1.725,0.6709999999999999,0.518,-1.062,-2.199,0.0,-1.528,0.612,0.0,-1.206,-2.67,0.0,-1.048,0.579,0.6920000000000001,0.0,-2.521,0.0,-0.716,0.55,1.06,-0.679,-2.565,0.0,-0.626,0.508,0.7979999999999999,-0.573,-2.682,0.0,0.0,0.0,0.667,0.0,-2.6189999999999998,0.0,0.0,0.531,0.875,-0.65,-2.582,0.0,0.0,0.505,1.17,-0.525,-1.5590000000000002,0.0,0.0,0.0,0.919,0.0,-1.0859999999999999,0.0,0.0,0.0,0.0,0.0,-0.765,0.0,0.0,0.0,0.0,0.0,0.0,0.0,0.0,0.0,0.0,0.0,0.0,0.0,0.0,0.0,0.0,0.0,0.0,0.0,0.0,0.0,0.0,0.0,0.0,0.0,0.0,0.0,0.0,0.0,0.0,0.0,0.0,0.0,0.0,0.0,0.0,0.0,0.0,0.0,0.0,0.0,0.0,0.0,0.0,0.0,0.0,0.0,0.0,0.0,0.0,0.0,0.0,0.0,0.0,0.0,0.0,0.0,-0.514,0.0,0.0,0.0,0.0,0.0,0.0,0.0,0.0,0.0,0.0,0.0,0.0,0.0,0.0,0.0,0.0,0.0,0.0,0.0,0.0,0.0,0.0,0.0,-0.542,0.0,0.0,0.0,0.0,0.0,-0.521,0.0,0.0,0.0,0.0,0.0,0.0,0.0,0.0,0.0,0.0,0.0,0.0,0.0,0.0,0.0,0.0,0.0,,,,,,,,,,,,,,,,,,,,,,,,,,,,,,,,,,,,,,,,,,,moveUp
accX,0.0,0.0,0.0,0.0,0.0,0.0,0.0,0.0,0.0,0.0,0.0,0.0,0.0,0.0,0.0,0.0,0.0,0.0,0.0,1.012,0.0,0.0,0.0,0.0,0.0,0.547,0.0,0.0,0.0,0.0,0.0,0.0,0.0,0.0,0.0,0.0,0.0,0.0,0.0,0.0,0.0,0.0,0.0,0.608,0.0,0.0,0.0,0.0,0.0,0.809,0.0,0.0,0.0,0.0,0.0,0.667,-0.505,0.0,0.0,0.0,0.0,0.598,0.0,-0.54,0.0,0.0,0.0,0.617,-0.586,-0.715,-0.85,0.0,0.0,0.748,-0.6759999999999999,-1.015,-1.415,0.0,0.0,1.442,-0.775,-1.399,-2.044,0.0,-0.848,2.262,-0.953,-1.683,-2.511,0.0,-1.39,2.5660000000000003,-1.001,-2.006,-2.891,0.0,-1.218,2.7539999999999996,-0.684,-2.388,-3.3480000000000003,0.0,-1.569,2.8760000000000003,0.0,-2.75,-3.818,0.0,-1.381,4.1080000000000005,0.0,-2.965,-4.296,0.0,-0.617,5.649,1.3730000000000002,-3.28,-5.162999999999999,0.0,-1.412,7.311,2.509,-3.627,-5.9270000000000005,0.0,-4.101,8.412,2.219,-3.3810000000000002,-5.422000000000001,0.0,-3.557,7.156000000000001,1.4969999999999999,-2.9330000000000003,-4.603,0.0,-1.52,4.952,1.453,-2.739,-4.586,0.667,-0.603,3.2,1.973,-2.714,-5.141,0.833,-0.951,3.0639999999999996,2.495,-2.3890000000000002,-5.318,0.8240000000000001,-1.21,2.265,2.2230000000000003,-1.7990000000000002,-5.084,0.912,-0.895,0.765,1.3719999999999999,-1.564,-4.74,0.8220000000000001,0.0,-0.6829999999999999,0.915,-1.916,-4.849,0.792,0.753,-1.212,0.779,-2.218,-5.066,0.585,1.518,-1.043,0.8009999999999999,-2.133,-5.216,0.0,1.81,-0.6659999999999999,0.909,-1.8119999999999998,-5.395,0.0,1.285,-1.072,-1.2,-1.4469999999999998,-5.045,0.0,0.0,0.0,-2.06,-1.21,-4.276,0.0,0.0,-0.52,-2.5639999999999996,-0.763,-3.515,0.0,1.0979999999999999,0.0,-2.52,-0.506,-3.193,0.519,0.8140000000000001,0.0,-2.43,0.0,-3.0669999999999997,0.516,0.601,0.0,-2.6860000000000004,0.0,-2.7539999999999996,0.5489999999999999,0.674,-0.935,-3.0410000000000004,0.0,-2.338,0.589,0.924,-1.113,-3.035,0.0,-1.944,0.509,1.21,-0.759,-2.807,0.0,-1.8230000000000002,0.0,0.0,0.0,-2.6860000000000004,0.0,-1.679,0.0,0.0,0.0,-2.43,0.0,-1.155,0.511,1.229,0.0,-2.201,0.0,-0.7609999999999999,0.573,1.4869999999999999,-0.6509999999999999,-2.344,0.0,-0.721,0.0,0.889,-0.512,-2.395,0.0,-0.7120000000000001,0.0,0.0,0.0,-2.171,0.0,0.0,0.0,0.8170000000000001,0.0,-1.42,0.0,0.0,0.0,1.153,0.0,-0.823,0.0,0.0,0.0,1.25,0.0,-0.563,0.0,0.0,0.0,0.968,0.0,-0.525,0.0,0.0,0.0,0.0,0.0,-0.597,0.0,0.0,0.0,0.0,0.0,0.0,0.0,0.0,0.0,0.0,0.0,0.0,0.0,0.0,0.0,0.0,0.0,0.0,0.0,0.0,0.0,0.0,0.0,0.0,0.0,0.0,0.0,0.0,0.0,0.0,0.0,0.0,0.0,0.0,0.0,0.0,0.0,0.0,0.0,0.0,0.0,0.0,0.0,0.0,0.0,0.0,0.0,0.0,0.0,0.0,0.0,0.0,0.0,0.0,0.0,0.0,0.0,0.0,0.0,0.0,0.0,0.0,0.0,0.0,0.0,0.0,0.0,0.0,0.0,0.0,0.0,0.0,0.0,0.0,0.0,0.0,0.0,0.0,0.0,0.0,0.0,0.0,0.0,0.0,0.0,0.0,0.0,0.0,0.0,0.0,0.0,0.0,0.0,0.0,0.0,0.0,0.0,0.0,0.0,0.0,0.0,0.0,0.0,0.0,0.0,0.0,0.0,0.0,0.0,0.0,0.0,0.0,0.0,0.0,0.0,0.0,0.0,0.0,0.0,0.0,0.0,0.0,0.0,0.0,0.0,0.0,0.0,0.0,0.0,,,,,,,,,,,,,,,,,,,,,,,,,,,,,,,,,,,,,,,,,,,moveUp
accX,0.0,0.0,0.0,0.0,0.0,0.0,-0.807,0.0,0.0,0.0,0.0,0.0,0.0,0.541,0.0,0.0,0.0,0.0,-0.537,0.0,0.0,0.0,0.0,0.0,-0.5429999999999999,0.0,0.0,0.0,0.0,0.0,0.0,0.0,0.0,0.0,0.0,0.0,0.0,0.0,-0.5539999999999999,-0.5760000000000001,0.0,0.0,0.0,0.0,-1.038,-0.87,-0.977,0.0,-0.7979999999999999,0.9440000000000001,-1.109,-1.073,-1.073,0.0,-0.588,0.978,-1.227,-1.2830000000000001,-1.251,0.0,0.0,0.871,-1.304,-1.609,-1.713,0.0,0.0,1.136,-0.934,-2.09,-2.5580000000000003,0.0,-0.872,1.892,0.0,-2.536,-3.3569999999999998,0.0,-1.624,2.403,0.0,-2.9960000000000004,-3.8960000000000004,0.0,-1.608,3.315,0.72,-3.3510000000000004,-4.114,0.0,-0.9359999999999999,4.677,0.899,-3.475,-4.288,0.0,0.0,5.819,1.6130000000000002,-3.591,-4.854,0.0,0.0,6.716,2.526,-3.7680000000000002,-5.8020000000000005,0.0,-0.9640000000000001,6.52,3.4610000000000003,-3.855,-6.67,-0.516,-2.469,4.477,3.069,-3.592,-6.8629999999999995,-0.631,-3.945,2.8819999999999997,1.558,-3.1689999999999996,-5.9910000000000005,0.0,-3.03,2.944,0.6679999999999999,-2.541,-4.394,0.0,-1.401,3.0389999999999997,0.0,-1.61,-3.1630000000000003,0.9209999999999999,0.0,2.512,0.531,-0.722,-2.5610000000000004,1.4369999999999998,0.7979999999999999,1.7209999999999999,0.562,0.0,-2.592,1.538,0.6709999999999999,0.0,0.0,0.0,-2.9330000000000003,1.357,0.0,-1.474,-0.792,-0.988,-2.9960000000000004,1.034,1.135,-1.236,-0.638,-1.656,-2.853,0.77,1.758,0.0,0.0,-1.875,-2.975,0.618,1.646,0.0,0.774,-1.745,-3.2939999999999996,0.518,1.568,0.0,0.5820000000000001,-1.429,-3.5639999999999996,0.511,0.852,0.0,0.0,-1.023,-3.487,0.539,0.862,-0.705,-0.9740000000000001,-0.992,-3.057,0.579,1.756,0.0,-1.07,-0.912,-2.935,0.565,2.912,-0.584,-0.889,-0.823,-3.252,0.0,2.2569999999999997,0.0,-0.752,-0.6509999999999999,-3.431,0.0,0.863,0.0,-1.183,0.0,-3.0269999999999997,0.0,0.0,0.0,-2.186,0.0,-2.103,0.604,2.214,-1.203,-2.62,0.0,-1.8030000000000002,0.602,3.24,-1.91,-2.6839999999999997,-0.7240000000000001,-2.0669999999999997,0.0,2.155,-0.772,-2.188,-0.887,-2.066,0.0,0.985,0.7929999999999999,-1.551,0.0,-1.587,0.0,1.12,0.0,-1.5590000000000002,0.0,-1.1159999999999999,0.0,2.096,-1.778,-2.197,0.0,-1.047,0.0,1.73,-1.31,-2.33,-0.715,-0.995,0.0,0.977,0.0,-1.9909999999999999,-0.623,-0.653,0.0,0.878,0.0,-1.3869999999999998,0.0,0.0,0.0,1.188,-0.531,-0.851,0.0,0.0,0.0,1.24,0.0,-0.505,0.0,0.0,0.0,0.619,0.0,0.0,0.0,0.0,0.0,0.0,0.0,-0.626,0.0,0.0,0.0,0.0,0.0,0.0,0.0,0.0,0.0,0.568,-0.601,0.0,0.0,0.0,0.0,0.0,0.0,0.0,0.0,0.0,0.0,0.0,0.0,0.0,0.0,0.0,0.0,0.0,0.0,0.0,0.0,0.0,0.0,0.0,0.0,0.0,0.0,0.529,0.0,0.51,-0.9229999999999999,0.0,0.0,0.0,0.0,0.0,-0.535,0.0,0.0,0.0,0.0,0.0,0.0,0.0,0.0,0.0,0.0,0.0,0.0,0.0,0.0,0.0,0.0,0.0,0.0,0.0,0.0,0.0,0.0,0.0,0.0,0.0,0.0,0.0,0.0,0.0,0.0,0.0,0.0,0.0,0.0,0.0,0.0,0.0,0.0,0.0,0.0,0.0,0.0,0.0,0.0,0.0,0.0,0.0,0.0,0.0,0.0,0.0,0.0,0.0,0.0,0.0,0.0,0.0,0.0,0.0,0.0,0.0,0.0,0.0,0.0,0.0,0.0,0.0,0.0,0.0,0.0,0.0,0.0,0.0,0.0,0.0,0.0,0.659,0.0,0.0,0.0,0.0,0.0,,,,,,,,,,,,,,,,,,,,,,,,,,,,,,,,,,,,,,,,,,,,,,,,,moveUp
accX,0.0,0.0,0.0,0.0,0.0,0.0,0.0,0.0,0.0,0.0,0.0,0.0,-0.5529999999999999,0.757,0.0,0.0,0.0,0.0,0.0,0.9059999999999999,0.0,0.0,0.0,0.0,0.0,0.863,0.0,0.0,0.0,0.0,0.0,0.0,0.0,0.0,0.0,0.0,0.0,0.513,-0.52,0.0,0.0,0.0,0.0,0.7240000000000001,-0.7340000000000001,-0.5379999999999999,-0.526,0.0,0.0,0.882,-0.852,-0.7140000000000001,-0.8170000000000001,0.0,-0.866,1.589,-1.05,-0.9179999999999999,-1.226,0.0,-1.455,2.004,-1.421,-0.88,-1.409,0.0,-1.8659999999999999,1.47,-1.797,-1.1,-1.4609999999999999,0.0,-0.983,1.525,-1.228,-1.765,-1.818,0.0,0.0,2.16,0.0,-2.426,-2.74,0.0,0.0,2.7560000000000002,0.902,-2.929,-3.9360000000000004,0.0,0.0,3.795,1.7630000000000001,-3.2110000000000003,-5.1160000000000005,-0.8059999999999999,-1.036,4.06,2.267,-3.6039999999999996,-6.0329999999999995,-1.157,-1.3780000000000001,5.347,2.978,-4.155,-6.617000000000001,-1.251,-2.8289999999999997,6.6339999999999995,2.6310000000000002,-4.074,-6.232,-0.978,-2.6489999999999996,5.603,2.089,-3.44,-5.433,-0.698,-1.538,3.722,1.7209999999999999,-2.806,-4.982,0.0,-1.531,2.147,1.052,-2.3080000000000003,-4.42,0.0,-1.693,1.945,0.517,-1.704,-3.4610000000000003,0.0,-1.649,1.9669999999999999,0.0,-1.0859999999999999,-2.325,0.915,0.0,1.217,0.0,-0.758,-1.745,1.319,0.958,0.607,0.0,-0.826,-1.982,1.425,2.009,0.0,0.527,-0.997,-2.665,1.122,1.935,-0.6779999999999999,0.627,-1.192,-3.25,0.5489999999999999,1.13,-1.7630000000000001,0.0,-1.649,-3.366,0.0,1.473,-1.11,0.627,-2.017,-3.656,0.0,1.787,0.0,1.361,-1.965,-4.256,0.0,1.51,0.716,1.79,-1.4409999999999998,-4.756,0.0,0.883,0.0,1.5919999999999999,-0.8740000000000001,-4.877,0.0,-0.794,-0.731,0.0,-0.9259999999999999,-4.043,0.0,0.993,-1.317,-0.6940000000000001,-1.328,-3.562,0.0,2.18,0.0,0.0,-1.018,-3.513,0.0,0.0,1.715,0.0,0.0,-3.431,0.0,-0.628,0.0,-1.197,0.0,-2.9619999999999997,0.546,0.588,-0.802,-1.712,0.0,-2.046,0.736,2.1630000000000003,-0.7809999999999999,-1.431,0.0,-1.785,0.7,1.325,0.0,-1.04,0.0,-1.9509999999999998,0.0,0.0,0.0,-0.965,0.0,-1.702,0.513,0.929,0.0,-1.093,0.0,-1.247,0.7170000000000001,1.925,-1.3619999999999999,-1.7819999999999998,0.0,-1.138,0.6809999999999999,1.817,-1.2830000000000001,-2.435,0.0,-1.179,0.511,1.238,-0.605,-2.653,0.0,-1.067,0.0,1.079,0.0,-2.6460000000000004,0.0,-0.778,0.0,0.8540000000000001,0.0,-2.494,0.0,-0.531,0.0,1.024,0.0,-2.2569999999999997,0.0,0.0,0.0,1.22,-0.514,-1.9480000000000002,0.0,0.0,0.0,0.987,0.0,-1.5290000000000001,0.0,0.0,0.0,0.688,0.0,-1.038,0.0,0.0,0.0,0.0,0.0,-0.574,0.0,0.0,0.0,0.0,0.0,0.0,0.0,0.0,0.0,0.629,0.0,0.0,0.0,0.0,0.0,0.529,-0.509,0.0,0.0,0.0,0.0,0.0,0.0,0.0,0.0,0.0,0.0,0.0,0.0,0.0,0.0,0.0,0.0,0.0,0.0,0.0,0.0,0.0,0.0,0.0,0.0,0.0,0.0,0.0,0.0,0.0,-0.62,0.0,0.0,0.0,0.0,0.0,0.0,0.0,0.0,0.0,0.0,0.0,0.0,0.0,0.0,0.0,0.0,0.0,0.0,0.0,0.0,0.0,0.0,0.0,0.0,0.0,0.0,0.0,0.0,0.0,0.0,0.0,0.0,0.0,0.0,0.0,0.0,0.0,0.0,0.0,0.0,0.0,0.0,0.0,0.0,0.0,0.0,0.0,0.0,0.0,0.0,0.0,0.0,0.0,0.0,0.0,0.0,0.0,0.0,0.0,0.0,0.0,0.0,0.0,0.0,0.0,0.0,0.0,0.0,0.0,0.0,0.0,0.0,0.0,0.0,0.0,0.0,0.0,0.0,0.0,0.0,0.0,0.0,,,,,,,,,,,,,,,,,,,,,,,,,,,,,,,,,,,,,moveUp
accX,0.0,0.0,0.0,0.0,0.0,0.0,0.0,0.63,0.0,0.0,0.0,0.0,-0.645,0.968,0.0,0.0,0.0,0.0,0.0,1.094,0.0,0.0,0.0,0.0,0.0,0.907,0.0,0.0,0.0,0.0,0.0,0.578,0.0,0.0,0.0,0.0,-0.784,0.583,-0.687,0.0,0.0,0.0,-0.978,0.914,-0.8370000000000001,-0.504,0.0,0.0,-0.6990000000000001,1.119,-0.805,-0.569,0.0,0.0,0.0,1.166,-0.815,-0.7,-0.946,0.0,0.0,1.389,-0.6970000000000001,-1.109,-1.746,0.0,-2.135,1.9569999999999999,-1.052,-1.415,-2.371,0.0,-1.568,2.376,-0.975,-1.7109999999999999,-2.316,0.606,-0.961,2.4019999999999997,-0.8740000000000001,-2.002,-2.569,0.612,-0.99,3.182,0.0,-2.358,-3.094,0.0,-1.2919999999999998,4.56,0.0,-2.638,-3.5239999999999996,0.0,-0.934,5.388999999999999,0.5479999999999999,-2.891,-3.8110000000000004,0.0,0.0,5.254,0.805,-3.265,-4.055,0.0,0.696,5.08,1.395,-3.762,-4.503,0.0,0.0,4.688,1.794,-4.063,-4.979,-0.643,-0.737,4.439,2.2230000000000003,-4.082,-5.21,-1.18,-1.506,4.658,2.289,-3.679,-5.0569999999999995,-0.992,-1.318,4.493,2.109,-2.838,-4.498,0.0,0.0,3.165,1.6969999999999998,-1.899,-4.093,0.0,0.0,1.517,1.207,-1.334,-4.021,0.627,0.0,0.0,0.7509999999999999,-1.2409999999999999,-4.067,0.0,0.0,0.0,0.0,-1.452,-4.162,0.0,0.622,0.0,0.0,-1.604,-4.0569999999999995,0.0,0.8340000000000001,0.0,0.518,-1.571,-3.9160000000000004,0.0,0.8340000000000001,0.0,0.6509999999999999,-1.412,-3.864,0.0,0.6759999999999999,0.0,0.0,-1.168,-3.852,0.0,1.041,0.0,0.0,-0.866,-3.718,0.0,0.5820000000000001,-0.66,-0.927,-0.6609999999999999,-3.5380000000000003,0.0,0.0,0.0,-1.2429999999999999,-0.528,-3.012,0.581,0.9209999999999999,0.0,-1.278,0.0,-2.42,0.767,2.339,-0.934,-1.2109999999999999,0.0,-2.503,0.6920000000000001,2.002,-0.637,-1.197,-0.534,-2.785,0.54,0.6559999999999999,0.0,-1.339,0.0,-2.544,0.59,0.0,0.0,-1.666,0.0,-1.979,0.726,1.2790000000000001,-0.735,-1.743,0.0,-1.8619999999999999,0.775,1.514,-0.902,-1.847,0.0,-1.923,0.664,0.87,0.0,-1.726,0.0,-1.685,0.682,1.156,0.0,-1.639,0.0,-1.483,0.7240000000000001,1.5619999999999998,-0.6709999999999999,-1.6059999999999999,0.0,-1.479,0.636,1.694,-1.048,-1.767,0.0,-1.53,0.0,1.476,-0.875,-2.309,0.0,-1.409,0.0,1.064,-0.6709999999999999,-2.384,0.0,-0.973,0.0,1.459,-0.902,-2.005,0.0,-0.6729999999999999,0.0,1.611,-0.7509999999999999,-1.494,0.0,-0.595,0.0,1.176,0.0,-1.22,0.0,0.0,0.0,1.028,0.0,-1.249,0.0,0.0,0.0,1.14,-0.642,-1.058,0.0,0.0,0.0,1.045,-0.633,-0.825,0.0,0.0,0.0,1.036,-0.747,-0.594,0.0,0.0,0.0,0.552,0.0,0.0,0.0,0.0,0.0,0.0,0.0,0.0,0.0,0.0,0.0,0.0,0.0,0.0,0.0,0.0,0.0,0.0,-0.609,0.0,0.0,0.0,0.0,0.0,-0.765,0.0,0.0,0.0,0.0,0.0,0.0,0.0,0.0,0.0,0.0,0.0,0.0,0.0,0.0,0.0,0.0,0.0,0.0,0.0,0.0,0.0,0.0,0.0,0.0,0.0,0.0,0.0,0.0,0.0,0.0,0.0,0.0,0.0,0.0,0.0,0.0,0.0,0.0,0.0,0.0,0.0,0.0,0.0,0.0,0.0,0.0,0.0,0.0,0.0,0.0,0.0,0.0,0.0,0.0,0.0,0.0,0.0,0.0,0.0,0.0,0.0,0.0,0.0,0.0,0.0,0.0,0.0,0.0,0.0,0.0,0.0,0.0,0.0,0.0,0.0,0.0,0.0,0.0,0.0,0.0,0.0,0.0,0.0,0.0,0.0,0.0,0.0,0.0,0.0,0.0,0.0,0.0,0.0,0.0,0.0,0.0,0.0,0.0,0.0,0.0,0.0,0.0,-0.521,0.0,0.0,0.0,,,,,,,,,,,,,,,,,,,,,,,,,moveUp
accX,0.0,0.0,0.0,0.0,0.0,0.0,0.0,0.0,0.0,0.0,0.0,0.0,0.0,0.0,-0.759,0.0,0.0,0.0,-0.53,0.0,-0.903,0.0,0.0,0.0,-0.9159999999999999,0.6509999999999999,-0.956,-0.605,0.0,0.0,-0.718,0.619,-1.14,-0.657,0.0,0.0,-0.581,0.851,-1.308,-0.841,0.0,0.0,0.0,1.0759999999999998,-1.5130000000000001,-0.992,-1.003,0.0,-0.8440000000000001,0.9079999999999999,-1.754,-1.2770000000000001,-1.51,0.0,-1.72,1.561,-1.8869999999999998,-1.54,-1.7790000000000001,0.0,-1.2930000000000001,1.781,-1.538,-1.922,-2.222,0.0,-0.7909999999999999,2.086,-0.968,-2.483,-2.997,0.0,-1.061,2.417,0.0,-3.111,-3.838,0.0,-1.32,3.793,0.0,-3.5439999999999996,-4.5280000000000005,0.0,-1.9680000000000002,5.591,1.111,-3.673,-4.849,0.0,-1.2009999999999998,6.381,1.6540000000000001,-3.853,-5.257000000000001,0.0,0.0,5.814,2.573,-4.232,-6.022,0.0,0.0,4.62,3.1830000000000003,-4.335,-6.5329999999999995,0.0,-1.03,3.088,3.014,-4.06,-6.497999999999999,0.0,-0.973,1.588,2.679,-3.799,-6.197,0.0,-1.36,1.865,2.364,-3.29,-5.604,0.0,-1.528,2.349,1.204,-2.224,-4.442,0.915,0.7509999999999999,1.237,0.757,-1.432,-3.866,1.153,1.764,-0.52,0.0,-1.273,-3.94,0.858,1.8430000000000002,-2.271,0.0,-1.6230000000000002,-4.062,0.617,2.157,-2.404,-0.706,-1.99,-3.923,0.0,2.263,-1.463,-0.525,-2.045,-3.665,0.0,2.121,0.0,0.0,-1.7069999999999999,-3.508,0.0,1.617,0.0,0.0,-1.2,-3.273,0.0,1.6059999999999999,0.0,-0.877,-0.705,-3.0239999999999996,0.0,2.311,-1.973,-1.666,-0.7809999999999999,-2.825,0.0,2.6069999999999998,-1.796,-1.571,-1.197,-2.74,0.0,1.614,0.0,-1.183,-1.0170000000000001,-2.603,0.0,1.251,0.0,-0.868,-0.742,-2.613,0.0,0.0,0.0,-1.065,0.0,-2.472,0.0,0.519,0.0,-1.505,0.0,-1.9680000000000002,0.0,1.6769999999999998,-1.124,-1.631,0.0,-1.631,0.0,1.661,-0.7040000000000001,-1.462,-0.504,-1.7469999999999999,0.0,0.0,0.0,-1.112,-0.532,-1.696,0.0,0.0,0.0,-0.797,0.0,-1.238,0.0,0.961,-0.7509999999999999,-0.633,0.0,-0.9259999999999999,0.0,1.061,-1.425,-0.895,0.0,-0.9159999999999999,0.0,0.73,-0.8759999999999999,-0.895,0.0,-0.8859999999999999,0.0,0.0,0.0,-0.515,0.0,-0.6779999999999999,0.0,0.522,0.0,0.0,0.0,0.0,0.0,0.644,0.0,-0.555,0.0,0.0,0.0,0.616,-0.794,-1.043,0.0,0.0,0.0,0.568,-0.9440000000000001,-1.306,0.0,0.0,0.0,0.0,-0.584,-1.115,0.0,0.0,0.0,0.0,0.0,-0.7040000000000001,0.0,0.0,0.0,0.0,0.0,0.0,0.0,0.0,0.0,0.0,0.0,0.0,0.0,0.0,0.0,0.0,0.0,0.0,0.0,0.0,0.0,0.0,0.0,0.0,0.0,0.0,0.0,0.0,0.0,0.0,0.0,0.0,0.0,0.0,0.0,0.0,0.0,0.0,0.0,0.0,0.0,0.0,0.0,0.0,0.0,0.0,0.0,0.0,0.0,0.0,0.0,0.0,0.0,0.0,0.0,0.0,0.0,0.0,0.0,0.0,0.0,0.0,0.0,0.0,0.0,0.0,0.0,0.0,0.0,0.0,0.0,0.0,0.0,0.0,0.0,0.0,0.0,0.0,0.0,0.0,0.0,0.0,0.0,0.0,0.0,0.0,0.0,0.0,0.0,0.0,0.0,0.0,0.0,0.0,0.0,0.0,0.0,0.0,0.0,0.0,0.0,0.0,0.0,0.0,0.0,0.0,0.0,0.0,0.0,0.0,0.0,0.0,0.0,0.0,0.0,0.0,0.0,0.0,0.0,0.0,0.0,0.0,0.0,0.0,0.0,0.0,0.0,0.0,0.0,0.0,0.0,0.0,0.0,0.0,0.0,0.0,0.0,0.0,0.0,0.0,0.0,0.0,0.0,0.0,0.0,0.0,0.0,0.0,0.0,0.0,0.0,0.0,0.0,0.0,0.0,0.0,0.0,0.0,0.0,0.0,0.0,0.0,0.0,0.0,0.0,0.0,0.0,0.0,0.0,0.0,0.0,,,,,,,,,,,,,moveUp
accX,0.0,0.0,0.0,0.0,0.0,0.0,0.0,0.0,0.0,0.0,0.0,0.0,0.0,0.0,0.0,0.0,0.0,0.0,0.0,0.0,0.0,0.0,0.0,0.0,0.0,0.0,0.0,0.0,0.0,0.0,0.0,0.0,-0.514,0.0,0.0,0.0,0.0,0.0,-0.718,0.0,0.0,0.0,-0.585,0.0,-0.972,-0.5710000000000001,0.0,0.0,0.0,0.0,-1.185,-0.635,0.0,0.0,0.0,0.603,-1.248,-0.888,-0.836,0.0,0.0,0.8340000000000001,-1.234,-1.235,-1.38,0.0,0.0,1.0070000000000001,-1.137,-1.663,-2.135,0.0,-0.887,1.274,-1.004,-2.0540000000000003,-3.049,0.0,-2.484,2.043,-0.956,-2.38,-3.793,0.0,-3.3960000000000004,2.9389999999999996,-0.746,-2.611,-4.013999999999999,0.0,-2.383,3.5780000000000003,0.0,-2.847,-4.031000000000001,0.7829999999999999,-1.219,4.311,0.0,-3.319,-4.495,1.182,0.0,5.776,1.105,-3.832,-5.388999999999999,1.2570000000000001,-1.0190000000000001,6.5889999999999995,2.057,-4.105,-6.42,0.853,-2.8289999999999997,5.986000000000001,2.0580000000000003,-4.02,-6.731,0.0,-3.1630000000000003,4.176,1.4,-3.6630000000000003,-6.06,0.0,-2.137,2.895,0.7859999999999999,-3.3789999999999996,-5.141,0.0,-0.63,2.019,1.155,-3.29,-4.843,0.0,0.0,1.348,1.722,-3.262,-5.247000000000001,0.0,-0.838,1.147,1.835,-2.977,-5.555,0.0,-1.199,0.0,0.982,-2.249,-5.223,0.696,-0.797,0.0,0.0,-1.4869999999999999,-4.185,1.0090000000000001,0.722,-0.9059999999999999,0.0,-1.307,-4.17,1.209,2.09,-1.568,0.0,-1.2109999999999999,-4.561,1.089,2.35,-1.706,0.0,-1.113,-4.815,0.8370000000000001,1.4080000000000001,-2.076,-1.494,-1.099,-4.4639999999999995,0.652,2.0269999999999997,-2.1519999999999997,-2.182,-1.245,-4.078,0.607,2.56,-1.415,-2.186,-1.1440000000000001,-3.995,0.0,2.062,0.0,-2.206,-0.634,-3.806,0.0,1.213,0.0,-2.678,0.0,-3.133,0.695,1.344,-0.8029999999999999,-3.5839999999999996,0.579,-2.355,0.828,2.6319999999999997,-2.424,-4.32,0.0,-1.985,0.669,2.9789999999999996,-1.949,-4.4510000000000005,0.0,-1.9040000000000001,0.0,1.597,0.0,-3.8939999999999997,0.0,-1.3459999999999999,0.0,1.66,0.0,-3.391,0.0,-0.684,0.5579999999999999,2.575,-0.812,-3.1189999999999998,0.0,-0.529,0.506,2.3609999999999998,-1.036,-3.048,0.0,-0.521,0.0,1.631,-0.54,-2.859,0.0,0.0,0.0,1.455,0.0,-2.3169999999999997,0.0,0.0,0.0,1.608,0.0,-1.436,0.0,0.0,0.0,1.899,-0.5539999999999999,-0.8370000000000001,0.0,0.0,0.0,1.599,0.0,-0.54,0.0,0.0,0.0,0.897,0.0,0.0,0.0,0.0,0.0,0.0,0.0,0.0,0.0,0.0,0.0,0.557,-0.584,0.0,0.0,0.0,0.0,0.604,-0.745,0.0,0.0,0.0,0.0,0.0,-0.545,0.0,0.0,0.0,0.0,0.0,0.0,0.0,0.0,0.0,0.0,0.0,0.0,0.0,0.0,0.0,0.0,0.0,0.0,0.0,0.0,0.0,0.0,0.0,-0.588,0.0,0.0,0.0,0.0,0.0,0.0,0.0,0.0,0.0,0.0,0.0,0.0,0.0,0.0,0.0,0.0,0.0,0.0,0.0,0.0,0.0,0.0,0.0,0.0,0.0,0.0,0.0,0.0,0.0,0.0,0.0,0.0,0.0,0.0,0.0,0.0,0.0,0.0,0.0,0.0,0.0,0.0,0.0,0.0,0.0,0.0,0.0,0.0,0.0,0.0,0.0,0.0,0.0,0.0,0.0,0.0,0.0,0.0,0.0,0.0,0.0,0.0,0.0,0.0,0.0,-0.534,0.0,0.0,0.0,0.0,0.0,0.0,0.0,0.0,0.0,0.0,,,,,,,,,,,,,,,,,,,,,,,,,,,,,,,,,,,,,,,,,,,,,,,,,,,,,,,,,,,,,,,,,,,,,,,,,moveUp
accX,0.0,0.574,0.0,-0.5529999999999999,0.0,0.0,0.0,0.845,0.0,-0.508,-0.514,0.0,-0.7070000000000001,0.0,-0.575,-0.511,-0.519,0.0,0.0,0.0,-0.502,-0.653,-0.657,0.0,0.0,0.0,0.0,-0.802,-0.983,0.0,-1.0190000000000001,0.685,0.0,-0.951,-1.0659999999999998,0.0,-0.8759999999999999,0.925,-0.547,-1.175,-1.175,0.0,0.0,0.9359999999999999,0.0,-1.4969999999999999,-1.632,0.0,0.0,1.05,0.0,-1.922,-2.481,0.0,0.0,1.9380000000000002,0.0,-2.263,-3.28,0.0,-1.5959999999999999,3.466,0.893,-2.3890000000000002,-3.6860000000000004,0.0,-2.591,5.152,0.8240000000000001,-2.2569999999999997,-3.6260000000000003,0.0,-3.5060000000000002,5.83,0.0,-2.072,-3.135,0.5760000000000001,-3.763,6.58,0.0,-1.786,-2.394,1.125,-2.492,7.312,0.0,-1.517,-1.965,1.355,-0.865,7.452000000000001,0.0,-1.452,-2.199,1.089,0.0,7.068,0.0,-1.665,-2.793,0.7859999999999999,-2.09,7.332999999999999,0.0,-1.7380000000000002,-2.9730000000000003,1.014,-3.176,5.949,0.0,-1.868,-2.585,1.528,-2.305,4.527,0.0,-2.126,-2.147,1.9569999999999999,0.0,3.8080000000000003,0.662,-2.2969999999999997,-2.279,1.9480000000000002,1.8730000000000002,2.909,1.445,-2.484,-3.197,1.521,2.217,1.868,2.062,-2.7319999999999998,-4.441,0.9890000000000001,0.8690000000000001,0.0,1.7890000000000001,-3.1010000000000004,-5.09,0.574,0.0,-1.411,0.753,-3.9210000000000003,-4.913,0.0,1.77,0.0,1.4509999999999998,-4.056,-5.336,0.0,1.149,0.0,1.505,-3.784,-5.849,-0.8140000000000001,0.0,0.0,1.156,-3.28,-6.069,-0.889,-0.601,0.0,0.0,-2.7119999999999997,-5.809,-0.728,-1.042,0.0,-1.288,-2.224,-4.705,0.0,0.0,0.7509999999999999,-1.605,-1.569,-3.471,0.0,2.142,0.0,-1.5330000000000001,-0.9590000000000001,-2.9589999999999996,0.0,1.475,0.0,-1.489,-0.591,-3.013,0.0,0.6920000000000001,0.0,-1.69,0.0,-2.6889999999999996,0.598,0.8390000000000001,-0.598,-2.4730000000000003,0.0,-2.108,0.778,1.545,-1.104,-2.627,0.0,-1.496,0.838,2.187,-1.058,-2.1959999999999997,0.0,-1.3730000000000002,0.747,1.423,0.0,-1.6219999999999999,0.0,-1.454,0.637,0.986,0.0,-1.176,0.0,-1.265,0.6759999999999999,1.224,0.0,-0.946,0.0,-1.0959999999999999,0.721,1.483,-0.785,-1.093,0.0,-1.17,0.667,1.1159999999999999,-0.654,-1.166,0.0,-1.23,0.56,0.953,0.0,-0.9740000000000001,0.0,-1.147,0.55,0.652,0.0,-0.7490000000000001,0.0,-0.995,0.5539999999999999,0.87,0.0,-0.56,0.0,-0.8220000000000001,0.551,0.943,-0.5479999999999999,-0.509,0.0,-0.82,0.537,0.757,-0.5479999999999999,0.0,0.0,-0.779,0.0,0.769,0.0,-0.51,0.0,-0.66,0.0,0.907,-0.604,-1.061,0.0,-0.599,0.0,0.608,-0.772,-1.785,0.0,0.0,0.0,0.0,-0.5760000000000001,-2.103,0.0,0.0,0.0,0.586,-0.624,-1.7690000000000001,0.0,0.0,0.0,1.1059999999999999,-1.052,-1.281,0.0,0.0,0.0,0.654,-0.5579999999999999,-0.8240000000000001,0.0,0.0,0.0,0.0,0.0,0.0,0.0,0.0,0.0,0.0,0.0,0.0,0.0,0.0,0.0,0.0,0.0,0.0,0.0,0.0,0.0,0.0,0.0,0.0,0.0,0.0,0.0,0.0,0.0,0.0,0.0,0.0,0.0,0.0,0.0,0.0,0.0,0.0,0.0,0.0,0.0,0.0,0.0,0.0,0.0,0.0,0.0,0.0,0.0,0.0,0.0,0.0,0.0,0.0,0.0,0.0,0.0,0.0,0.0,0.0,0.0,0.0,0.0,0.0,0.0,0.0,0.0,0.0,0.0,0.0,0.0,0.0,0.0,0.0,0.0,0.0,0.0,0.0,0.0,0.0,0.0,0.0,0.0,0.0,0.0,0.0,0.0,0.0,0.0,0.0,0.0,0.0,0.0,0.0,0.0,0.0,0.0,0.0,0.0,0.0,0.0,0.0,0.0,0.0,0.0,,,,,,,,,,,,,,,,,,,,,,,,,,,,,,,,,,,,,,,,,,,,,,,,,,,,,,,moveUp
accX,-0.657,0.639,-0.797,-0.865,0.0,0.0,-0.8029999999999999,0.72,0.0,-0.7190000000000001,0.0,0.0,-0.653,0.0,0.0,-0.5720000000000001,0.0,0.0,0.0,0.0,0.0,-0.5710000000000001,0.0,0.0,0.0,0.0,-0.638,-0.65,0.0,0.0,-0.69,0.8390000000000001,-1.026,-0.6759999999999999,0.0,0.0,-0.852,0.7440000000000001,-1.284,-0.735,0.0,0.0,-1.421,0.647,-1.425,-0.878,0.0,0.0,-1.069,0.0,-1.444,-0.9990000000000001,0.0,0.0,0.0,0.0,-1.54,-1.203,-0.573,0.0,0.0,0.9179999999999999,-1.4340000000000002,-1.453,-1.185,0.0,-1.305,1.9369999999999998,-1.234,-1.635,-1.6640000000000001,0.0,-2.01,2.4330000000000003,-1.151,-1.791,-1.9,0.0,-1.82,1.837,-1.126,-2.0140000000000002,-2.031,0.764,-1.7409999999999999,1.411,-1.0270000000000001,-2.5140000000000002,-2.356,0.97,-1.307,2.204,0.0,-3.0180000000000002,-2.747,0.8859999999999999,-0.743,3.5380000000000003,0.0,-3.3360000000000003,-3.235,0.613,0.0,4.322,1.055,-3.5,-3.792,0.0,0.0,5.303999999999999,1.345,-3.5989999999999998,-4.441,0.0,0.0,4.993,1.379,-3.725,-5.192,0.0,-1.119,4.07,1.188,-4.08,-5.655,0.0,-1.765,4.4110000000000005,1.0659999999999998,-4.147,-5.266,0.0,0.0,4.235,0.7959999999999999,-3.5389999999999997,-4.2989999999999995,0.0,1.528,3.002,0.701,-2.96,-3.8160000000000003,0.0,2.013,1.45,0.552,-2.8789999999999996,-4.0680000000000005,0.0,1.501,0.0,0.0,-3.083,-4.3580000000000005,0.0,1.015,0.0,0.0,-2.987,-4.001,0.0,1.709,0.679,0.0,-2.0669999999999997,-3.123,0.0,2.313,0.0,0.0,-1.629,-3.0980000000000003,0.0,2.495,0.0,0.0,-1.43,-3.264,0.0,2.225,-0.8340000000000001,0.0,-1.42,-3.23,0.0,2.251,-1.685,-1.139,-1.599,-2.9619999999999997,0.0,3.022,-1.558,-1.015,-1.828,-2.935,0.0,3.4960000000000004,-0.865,0.0,-1.848,-3.1889999999999996,0.0,2.8760000000000003,0.0,0.0,-1.537,-3.2680000000000002,0.0,2.2640000000000002,0.0,-0.578,-1.105,-3.08,0.0,1.838,-1.3119999999999998,-1.5130000000000001,-1.09,-2.565,0.0,2.911,-1.699,-1.61,-1.4469999999999998,-2.441,0.0,2.9160000000000004,-0.855,-1.011,-1.605,-2.635,-0.518,1.5730000000000002,0.5710000000000001,-0.57,-1.246,-2.475,0.0,1.2009999999999998,0.0,-0.662,-0.758,-2.097,0.0,2.2969999999999997,-2.083,-1.445,-1.141,-2.0980000000000003,0.0,2.737,-2.728,-1.7630000000000001,-2.003,-2.4,-0.902,1.0270000000000001,0.0,-1.311,-2.028,-2.141,-0.807,-0.564,1.976,-0.86,-1.0,-1.167,0.0,0.8859999999999999,0.0,-0.754,0.0,-0.703,0.0,1.374,-0.637,-0.758,-0.556,-0.764,0.0,0.555,0.0,-0.711,0.0,-0.527,0.0,0.595,0.0,-0.746,0.0,0.0,0.0,0.711,-0.578,0.0,0.0,0.0,0.0,0.0,0.0,0.0,0.0,0.0,0.0,0.0,0.0,0.0,0.0,0.0,0.0,0.0,0.0,0.0,0.0,0.0,0.0,0.0,0.0,0.0,0.0,0.0,0.0,0.0,0.0,0.0,0.0,0.0,0.0,0.0,0.0,0.0,0.0,0.0,0.0,0.0,0.0,0.0,0.0,0.0,0.0,0.0,0.0,0.0,0.0,0.0,0.0,0.0,0.0,0.0,0.0,0.0,0.0,0.0,0.0,0.0,0.0,0.0,0.0,0.0,0.0,0.0,0.0,0.0,0.0,0.0,0.0,0.0,0.0,0.0,0.0,0.0,0.0,0.0,0.0,0.0,0.0,0.0,0.0,0.0,0.0,0.0,0.0,0.0,0.0,0.0,0.0,0.0,0.0,0.0,0.0,0.0,0.0,0.0,0.0,0.0,0.0,0.0,0.0,0.0,0.0,0.0,0.0,0.0,0.0,0.0,0.0,0.0,0.0,0.0,0.0,0.0,0.0,0.0,0.0,0.0,0.0,0.0,0.0,0.0,0.0,0.0,0.0,0.0,0.0,0.0,0.0,0.0,0.0,0.0,0.0,0.0,0.0,0.0,0.0,0.0,0.0,0.0,0.0,0.0,0.0,0.0,0.0,0.0,0.0,0.0,0.0,0.0,0.0,0.0,0.0,0.0,0.0,0.0,0.0,0.0,0.0,0.0,0.0,0.0,0.0,0.0,0.0,0.0,0.0,0.0,0.0,,,,,,,,,,,,,moveUp
accX,0.0,0.675,-1.054,0.0,0.0,0.0,0.0,0.0,-0.9390000000000001,-0.551,0.0,0.0,-0.502,0.0,-0.737,-0.638,0.0,0.0,0.0,0.0,0.0,-0.527,0.0,0.0,0.0,0.0,0.0,0.0,0.0,0.0,0.0,0.0,0.0,0.0,0.0,0.0,0.0,0.0,-0.611,-0.775,0.0,0.0,-0.7829999999999999,0.0,-0.8540000000000001,-0.8959999999999999,-0.5670000000000001,0.0,-0.963,0.531,-1.2009999999999998,-0.99,-0.743,0.0,-1.0959999999999999,0.711,-1.298,-1.1420000000000001,-1.0090000000000001,0.0,-1.926,1.139,-1.409,-1.29,-1.05,0.0,-1.452,1.3030000000000002,-1.1340000000000001,-1.459,-1.205,0.0,0.0,1.1340000000000001,-0.7829999999999999,-1.7790000000000001,-2.016,0.0,0.0,0.925,0.0,-2.229,-3.236,0.0,-1.063,1.452,0.0,-2.6489999999999996,-4.377,0.0,-1.585,3.105,1.09,-2.977,-5.307,0.0,-2.779,4.619,1.4140000000000001,-3.2510000000000003,-5.7170000000000005,0.0,-4.282,7.337999999999999,1.084,-3.1660000000000004,-5.301,0.0,-3.95,7.445,0.6679999999999999,-2.989,-4.601,1.0270000000000001,-2.51,5.872000000000001,0.0,-2.9,-4.169,1.474,-0.51,4.885,1.455,-2.935,-4.284,1.499,0.0,4.419,1.786,-2.6510000000000002,-4.331,1.252,0.0,3.345,1.3359999999999999,-2.161,-4.02,0.868,1.245,1.401,0.7020000000000001,-2.0180000000000002,-3.926,0.568,2.037,0.0,1.0,-2.444,-4.409,0.0,0.0,1.4340000000000002,0.0,-2.1830000000000003,-4.078,0.0,1.4409999999999998,1.03,0.0,-1.611,-3.772,0.7809999999999999,1.952,0.0,0.0,-1.239,-3.69,0.835,2.051,0.0,-0.5539999999999999,-1.3359999999999999,-3.812,0.7509999999999999,1.632,0.0,-0.752,-1.571,-4.0169999999999995,0.589,1.5830000000000002,-0.542,-1.057,-1.6640000000000001,-3.927,0.0,1.8359999999999999,0.0,-1.4080000000000001,-1.631,-3.687,0.0,2.887,-0.6709999999999999,-1.361,-1.554,-3.535,0.0,3.137,-0.713,-1.023,-1.605,-3.775,0.0,1.5030000000000001,0.0,-1.1179999999999999,-1.59,-3.97,0.0,0.0,1.252,-1.679,-1.094,-3.34,0.0,0.503,0.657,-2.05,0.0,-2.325,0.521,2.425,-1.3159999999999998,-2.039,0.0,-1.844,0.649,3.207,-1.548,-1.714,-0.89,-2.378,0.0,0.9109999999999999,0.0,-1.719,-1.219,-2.6910000000000003,0.0,0.0,1.0759999999999998,-1.8259999999999998,-0.677,-1.9040000000000001,0.0,1.5419999999999998,-0.511,-1.655,0.0,-1.0859999999999999,0.547,2.199,-1.181,-1.331,0.0,-1.111,0.0,1.187,0.0,-1.209,-0.596,-1.294,0.0,0.0,0.0,-1.181,0.0,-0.966,0.0,1.099,-0.563,-1.056,0.0,0.0,0.0,1.69,-1.169,-0.821,0.0,0.0,0.0,1.288,-1.097,-0.846,0.0,0.0,0.0,0.664,-0.767,-0.951,0.0,0.0,0.0,0.59,-0.594,-0.754,0.0,0.0,0.0,0.606,0.0,0.0,0.0,0.0,0.0,0.9179999999999999,-0.81,0.0,0.0,0.0,0.0,0.54,-0.643,0.0,0.0,0.0,0.0,0.0,-0.698,0.0,0.0,0.0,0.0,0.0,-0.561,0.0,0.0,0.0,0.0,0.0,0.0,0.0,0.0,0.0,0.0,0.0,0.0,0.0,0.0,0.0,0.0,0.0,0.0,0.0,0.0,0.0,0.0,0.0,0.0,0.0,0.0,0.0,0.0,0.0,0.0,0.0,0.0,0.0,0.0,0.0,0.0,0.0,0.0,0.0,0.0,0.0,0.0,0.0,0.0,0.0,0.0,0.0,0.0,0.0,0.0,0.0,0.0,0.0,0.0,0.0,0.0,0.0,0.0,0.0,0.0,0.0,0.0,0.0,0.0,0.0,0.0,0.0,0.0,0.0,0.0,0.0,0.0,0.0,0.0,0.0,0.0,0.0,0.0,0.0,0.0,0.0,0.0,0.0,0.0,0.0,0.0,0.0,0.0,0.0,0.0,0.0,0.0,0.0,0.0,0.0,0.0,0.0,0.0,0.0,0.0,0.0,0.0,0.0,0.0,0.0,0.0,0.0,0.0,0.0,0.0,0.0,0.0,0.0,0.0,0.0,0.0,0.0,0.0,0.0,0.0,0.0,0.0,0.0,0.0,0.0,0.0,0.0,0.0,0.0,0.0,0.0,0.0,0.0,0.0,0.0,0.0,0.0,0.0,0.0,0.0,0.0,0.0,0.0,0.0,0.0,0.0,0.551,0.0,,,,,,,moveUp
accX,-0.575,0.0,-1.06,-0.748,0.0,0.0,-0.8009999999999999,-0.6729999999999999,-1.26,-0.713,0.0,0.0,-0.738,-0.7659999999999999,-1.011,-0.9840000000000001,0.0,0.0,-0.945,0.0,-0.575,-1.095,0.0,0.0,-1.182,0.0,-0.915,-0.977,0.0,0.0,-1.225,0.0,-1.381,-0.9540000000000001,0.0,0.0,-1.128,0.8059999999999999,-1.3659999999999999,-1.04,0.0,0.0,-1.102,1.044,-1.285,-1.186,0.0,0.0,-1.1640000000000001,0.737,-1.224,-1.369,0.0,0.0,-0.929,0.968,-1.069,-1.499,0.0,0.0,-0.654,1.2930000000000001,-1.167,-1.439,0.0,0.511,0.0,1.429,-1.594,-1.391,-0.7659999999999999,0.0,0.988,1.527,-1.6480000000000001,-1.618,-1.554,0.0,0.643,1.639,-1.228,-2.298,-2.366,0.0,0.0,2.278,-0.584,-2.932,-3.015,-0.621,0.0,2.91,0.0,-3.327,-3.3789999999999996,0.0,0.0,3.335,0.532,-3.5589999999999997,-3.987,0.0,0.0,3.805,0.8909999999999999,-3.78,-4.533,0.0,0.0,4.7330000000000005,1.84,-4.078,-5.029,0.0,0.0,5.372999999999999,2.166,-4.136,-5.351,0.0,0.0,4.694,1.7830000000000001,-3.839,-5.247000000000001,0.0,0.0,3.833,1.4869999999999999,-3.429,-4.878,0.0,0.518,2.63,1.3519999999999999,-3.085,-4.529,-0.623,0.515,2.457,1.3840000000000001,-2.852,-4.19,0.0,0.0,2.667,1.263,-2.282,-3.699,0.0,0.0,2.287,0.591,-1.5430000000000001,-2.8089999999999997,0.723,1.294,1.757,0.0,-0.937,-2.05,1.0590000000000002,3.033,0.0,0.0,-0.828,-2.065,1.1440000000000001,3.815,-0.522,0.0,-1.1440000000000001,-2.563,0.9209999999999999,3.7960000000000003,-0.8220000000000001,0.0,-1.5130000000000001,-3.174,0.568,3.307,-0.716,0.604,-1.6340000000000001,-3.531,0.0,2.502,-0.943,0.0,-1.6159999999999999,-3.495,0.0,2.8560000000000003,-0.9590000000000001,0.0,-1.652,-3.568,0.0,3.128,-0.541,0.631,-1.56,-3.88,0.0,3.145,-0.557,0.873,-1.376,-4.2139999999999995,0.0,1.788,-0.647,0.0,-1.155,-4.021,0.0,1.005,-1.444,-0.981,-1.2690000000000001,-3.2569999999999997,-0.586,1.959,-1.2,-1.485,-1.574,-2.832,0.0,2.6310000000000002,0.0,-0.953,-1.62,-2.888,0.0,1.9580000000000002,0.8540000000000001,0.0,-1.2429999999999999,-2.895,0.0,1.161,1.224,0.0,-0.637,-2.582,0.0,0.64,0.607,-0.562,0.0,-2.116,0.0,0.9329999999999999,-0.7090000000000001,-1.197,0.0,-1.686,0.0,1.5730000000000002,-0.866,-1.273,-0.6729999999999999,-1.624,0.0,1.131,0.0,-1.097,-0.753,-1.5030000000000001,0.0,0.0,0.0,-0.875,0.0,-1.0759999999999998,0.0,0.0,0.0,-0.723,0.0,-0.637,0.0,0.748,-0.637,-0.62,0.0,-0.528,0.0,0.0,0.0,-0.5329999999999999,0.0,0.0,0.0,0.0,0.0,0.0,0.0,0.0,0.0,0.0,0.0,0.0,0.0,0.0,0.0,0.0,0.0,0.0,0.0,0.0,0.0,0.0,0.0,0.0,0.0,0.0,0.0,0.0,0.0,0.0,0.0,0.0,0.0,0.0,0.0,0.0,0.0,0.0,0.0,0.0,0.0,0.0,0.0,0.0,0.0,0.0,0.0,0.0,0.0,0.0,0.0,0.0,0.0,0.0,0.0,0.0,0.0,0.0,0.0,0.0,0.0,0.0,0.0,0.0,0.0,0.0,0.0,0.0,0.0,0.0,0.0,0.0,0.0,0.0,0.0,0.0,0.0,0.0,0.0,0.0,0.0,0.0,0.0,0.0,0.0,0.0,0.0,0.0,0.0,0.0,0.0,0.0,0.0,0.0,0.0,0.0,0.0,0.0,0.0,0.0,0.0,0.0,0.0,0.0,0.0,0.0,0.0,0.0,0.0,0.0,0.0,0.0,0.0,0.0,0.0,0.0,0.0,0.0,0.0,0.0,0.0,0.0,0.0,0.0,0.0,0.0,0.0,0.0,0.0,0.0,0.0,0.0,0.0,0.0,0.0,0.0,0.0,0.0,0.0,0.0,0.0,0.0,0.0,0.0,0.0,0.0,0.0,0.0,0.0,0.0,0.0,0.0,0.0,0.0,0.0,0.0,0.0,0.0,0.0,0.0,0.0,0.0,0.0,0.0,0.0,0.0,0.0,0.0,0.0,0.0,0.0,0.0,0.569,0.715,0.0,0.0,0.0,-1.09,0.0,0.0,0.0,0.722,0.0,,,,,,,moveUp
accX,-0.601,0.965,-1.3159999999999998,0.0,0.0,0.0,-0.685,1.199,-0.624,0.0,0.0,0.0,-0.594,0.877,0.0,0.0,0.0,0.0,-0.655,-1.102,-0.8340000000000001,0.0,0.0,0.0,0.0,0.0,0.0,-0.55,0.0,0.0,0.0,0.621,0.0,0.0,0.0,0.0,0.0,0.0,0.0,0.0,0.0,0.0,0.0,0.0,0.0,-0.512,0.0,0.0,0.0,0.0,0.0,-0.6890000000000001,-0.723,0.0,0.0,0.84,-0.5479999999999999,-0.82,-1.0270000000000001,0.0,-1.102,1.4280000000000002,-0.873,-0.7929999999999999,-1.103,0.0,-0.727,1.273,-1.156,-0.978,-1.48,0.0,-0.657,1.4709999999999999,-1.254,-1.276,-2.184,0.0,-0.805,1.57,-1.044,-1.723,-3.181,0.0,-1.685,1.965,0.0,-2.265,-4.1160000000000005,0.0,-3.392,2.7460000000000004,0.0,-2.676,-4.495,0.0,-4.459,3.9019999999999997,0.0,-2.786,-4.152,0.634,-3.2560000000000002,4.962,0.0,-2.9189999999999996,-3.94,0.802,-1.982,6.45,0.0,-2.938,-4.119,0.863,-1.023,7.167000000000001,1.1740000000000002,-2.904,-4.659,0.998,-1.2429999999999999,6.449,1.219,-2.795,-4.832,1.028,-1.158,4.2860000000000005,0.8140000000000001,-2.985,-4.686,0.727,-0.6579999999999999,2.286,0.516,-3.367,-4.439,0.0,0.0,2.081,1.158,-3.4589999999999996,-4.519,0.0,0.0,3.095,1.6640000000000001,-2.524,-4.495,0.754,0.0,2.302,0.0,-1.7369999999999999,-4.17,0.8029999999999999,0.0,0.0,-0.657,-1.682,-3.8360000000000003,0.695,1.389,-0.7929999999999999,-0.7,-2.176,-3.7489999999999997,0.693,1.892,0.0,0.0,-2.55,-4.095,0.602,1.4780000000000002,0.0,0.0,-2.3890000000000002,-4.209,0.0,1.3730000000000002,0.7120000000000001,0.0,-1.94,-4.136,0.0,0.78,0.0,0.0,-1.496,-4.152,0.0,0.0,0.0,-0.723,-1.227,-3.845,0.0,0.0,0.0,-1.589,-0.971,-3.236,0.524,0.684,0.0,-1.7080000000000002,-0.581,-2.502,0.825,1.2790000000000001,0.0,-1.288,0.0,-1.953,1.084,1.7380000000000002,0.0,-0.94,0.0,-1.7690000000000001,1.162,1.6980000000000002,-0.6779999999999999,-0.9359999999999999,0.0,-1.849,0.9690000000000001,1.082,-0.513,-1.25,0.0,-1.8719999999999999,0.7440000000000001,0.805,0.0,-1.794,0.0,-1.733,0.789,1.501,-0.9109999999999999,-2.193,0.0,-1.53,0.966,2.66,-2.037,-2.154,0.0,-1.601,0.946,3.603,-3.03,-1.857,-0.6890000000000001,-2.114,0.0,2.202,-1.357,-1.5490000000000002,-1.284,-2.6510000000000002,0.0,0.8370000000000001,0.0,-1.4609999999999999,-1.113,-2.4219999999999997,0.0,1.379,0.0,-1.661,-0.696,-1.936,0.0,1.538,-0.977,-1.969,-0.67,-1.855,0.0,0.0,0.0,-2.185,-0.741,-1.649,0.0,0.0,0.0,-2.102,0.0,-0.968,0.0,1.24,-0.6829999999999999,-1.577,0.0,0.0,0.0,1.715,-1.137,-1.166,-0.532,0.0,0.0,1.084,-0.569,-0.91,-0.5379999999999999,0.0,0.0,0.0,0.0,-0.7979999999999999,0.0,0.0,0.0,0.0,0.0,-0.501,0.0,0.0,0.0,0.505,-0.539,0.0,0.0,0.0,0.0,0.575,-0.5589999999999999,0.0,0.0,0.0,0.0,0.0,0.0,0.0,0.0,0.0,0.0,0.0,0.0,0.0,0.0,0.0,0.0,0.0,0.0,0.0,0.0,0.0,0.0,0.0,0.0,0.0,0.0,0.0,0.0,0.0,0.0,0.0,0.0,0.0,0.0,0.0,0.0,0.0,0.0,0.0,0.0,0.0,0.0,0.0,0.0,0.0,0.0,0.0,0.0,0.0,0.0,0.0,0.0,0.0,0.0,0.0,0.0,0.0,0.0,0.0,0.0,0.0,0.0,0.0,0.0,0.0,0.0,0.0,0.0,0.0,0.0,0.0,0.0,0.0,0.0,0.0,0.0,0.0,0.0,0.0,0.0,0.0,0.0,0.0,0.0,0.0,0.0,0.0,0.0,0.0,0.0,0.0,0.0,0.0,0.0,0.0,-0.529,0.0,0.0,0.0,0.0,0.0,0.0,0.0,0.0,0.0,0.0,0.0,0.0,0.0,0.0,0.0,0.0,0.0,0.0,0.0,0.0,0.0,0.0,0.0,0.0,0.0,0.0,0.0,0.0,0.0,-0.563,0.0,0.0,0.0,0.0,0.0,0.0,0.0,0.0,0.0,0.0,0.0,0.556,0.0,0.0,0.0,0.0,0.0,0.0,0.0,0.0,0.0,0.0,moveUp
accX,-0.537,0.0,-0.512,0.0,0.0,0.502,0.0,0.0,0.0,0.0,0.0,0.0,0.0,0.0,0.0,0.0,0.0,0.0,0.0,0.0,0.0,0.0,0.0,0.0,0.0,0.0,0.0,0.0,0.0,0.0,0.0,0.0,0.0,0.0,0.0,0.0,0.0,0.502,0.0,0.0,0.0,0.0,0.0,0.0,0.0,0.0,0.0,0.0,-0.879,0.662,-0.922,-0.6509999999999999,-0.632,0.0,-1.143,0.9620000000000001,-1.1420000000000001,-0.778,-0.574,0.0,0.0,0.9,-0.982,-0.894,-0.593,0.0,0.518,0.8079999999999999,-0.7909999999999999,-1.135,-1.061,0.0,0.815,0.647,-0.509,-1.4880000000000002,-2.002,0.0,0.0,0.93,0.0,-1.993,-3.2939999999999996,-0.56,-0.542,1.734,0.594,-2.492,-4.678,-0.6759999999999999,-1.905,2.6180000000000003,1.286,-3.049,-5.763999999999999,-0.7609999999999999,-3.287,4.63,1.442,-3.623,-6.111000000000001,-0.775,-3.372,7.734,1.192,-3.844,-5.687,0.0,-2.309,8.99,1.328,-3.572,-5.1610000000000005,0.0,-1.595,7.287999999999999,1.63,-2.985,-4.968,0.0,-1.618,5.3839999999999995,1.835,-2.4530000000000003,-4.979,0.527,-2.0469999999999997,3.33,1.445,-2.075,-4.87,0.764,-2.225,1.517,0.0,-1.97,-3.924,0.9420000000000001,-1.63,1.3730000000000002,0.0,-1.871,-3.2089999999999996,1.238,-0.976,2.189,0.0,-1.379,-2.5810000000000004,1.643,0.0,2.369,0.78,-0.8220000000000001,-2.31,1.85,0.0,1.729,0.835,-0.613,-2.502,1.9369999999999998,0.0,0.5539999999999999,0.622,-0.815,-2.858,1.8,0.0,-1.63,0.0,-1.403,-2.995,1.517,0.9940000000000001,-2.125,0.0,-1.996,-2.972,1.1909999999999998,1.8030000000000002,-0.935,0.0,-2.066,-3.162,1.0,2.303,0.0,0.7759999999999999,-1.8019999999999998,-3.6289999999999996,0.97,2.588,0.0,0.775,-1.4669999999999999,-4.2219999999999995,1.043,1.871,-1.469,0.0,-1.34,-4.313,0.76,1.641,-2.36,-1.129,-1.568,-3.9939999999999998,0.0,2.197,-2.0909999999999997,-1.538,-1.828,-3.863,0.0,2.3680000000000003,-0.955,-1.2790000000000001,-1.621,-3.725,0.0,3.063,-0.9059999999999999,-1.2819999999999998,-1.2790000000000001,-3.79,0.0,2.6430000000000002,-0.7509999999999999,-1.595,-1.0,-3.8539999999999996,0.0,1.3019999999999998,0.0,-2.432,-0.5870000000000001,-3.266,0.0,0.6809999999999999,-0.556,-3.313,0.0,-2.279,0.0,1.8530000000000002,-1.035,-3.514,0.0,-1.794,0.0,2.471,-0.956,-2.9939999999999998,-0.61,-1.7480000000000002,0.0,2.274,-0.664,-2.461,-0.6509999999999999,-1.71,0.0,2.136,-0.528,-2.165,0.0,-1.569,0.0,1.101,0.0,-2.417,0.0,-0.9740000000000001,0.0,1.656,-0.9490000000000001,-2.521,0.0,-0.501,0.0,1.646,-0.63,-1.601,-0.524,0.0,0.0,1.143,0.0,-1.128,-0.564,0.0,0.0,0.846,0.0,-0.695,0.0,0.0,0.0,0.716,0.0,0.0,0.0,0.0,0.0,0.0,0.0,0.0,0.0,0.0,0.0,0.0,0.0,0.0,0.0,0.0,0.0,0.0,0.0,0.0,0.0,0.0,0.0,0.0,0.0,0.0,0.0,0.0,0.0,0.0,0.0,0.0,0.0,0.0,0.0,0.0,0.0,0.0,0.0,0.0,0.0,0.0,0.0,0.0,0.0,0.0,0.0,0.0,0.0,0.0,0.0,0.0,0.0,0.0,0.0,0.0,0.0,0.0,0.0,0.0,-0.625,0.0,0.0,0.0,0.0,0.0,0.0,0.0,0.0,0.0,0.0,0.0,0.0,0.0,0.0,0.0,0.0,0.0,0.0,0.0,0.0,0.0,0.0,0.0,0.0,0.0,0.0,0.0,0.0,0.0,0.0,0.0,0.0,0.0,0.0,0.0,0.0,0.0,0.0,0.0,0.0,0.0,0.0,0.0,0.0,0.0,0.0,0.0,0.0,0.0,0.0,0.0,0.0,0.0,0.0,0.0,0.0,0.0,0.0,0.0,-0.613,0.0,0.0,0.0,0.0,0.0,0.0,0.0,0.0,0.0,0.0,0.0,0.0,0.0,0.0,0.0,0.0,0.0,0.0,0.0,0.0,0.0,0.0,0.0,0.0,0.0,0.0,0.0,0.0,0.0,0.0,0.0,0.0,0.0,0.0,0.0,0.0,0.0,0.0,0.0,0.0,0.0,0.0,0.0,0.0,0.0,0.0,0.0,0.0,0.0,0.0,0.0,0.0,0.0,0.0,0.0,0.0,0.0,0.0,moveUp
