,00_accX,00_accY,00_accZ,00_gyroX,00_gyroY,00_gyroZ,01_accX,01_accY,01_accZ,01_gyroX,01_gyroY,01_gyroZ,02_accX,02_accY,02_accZ,02_gyroX,02_gyroY,02_gyroZ,03_accX,03_accY,03_accZ,03_gyroX,03_gyroY,03_gyroZ,04_accX,04_accY,04_accZ,04_gyroX,04_gyroY,04_gyroZ,05_accX,05_accY,05_accZ,05_gyroX,05_gyroY,05_gyroZ,06_accX,06_accY,06_accZ,06_gyroX,06_gyroY,06_gyroZ,07_accX,07_accY,07_accZ,07_gyroX,07_gyroY,07_gyroZ,08_accX,08_accY,08_accZ,08_gyroX,08_gyroY,08_gyroZ,09_accX,09_accY,09_accZ,09_gyroX,09_gyroY,09_gyroZ,10_accX,10_accY,10_accZ,10_gyroX,10_gyroY,10_gyroZ,11_accX,11_accY,11_accZ,11_gyroX,11_gyroY,11_gyroZ,12_accX,12_accY,12_accZ,12_gyroX,12_gyroY,12_gyroZ,13_accX,13_accY,13_accZ,13_gyroX,13_gyroY,13_gyroZ,14_accX,14_accY,14_accZ,14_gyroX,14_gyroY,14_gyroZ,15_accX,15_accY,15_accZ,15_gyroX,15_gyroY,15_gyroZ,16_accX,16_accY,16_accZ,16_gyroX,16_gyroY,16_gyroZ,17_accX,17_accY,17_accZ,17_gyroX,17_gyroY,17_gyroZ,18_accX,18_accY,18_accZ,18_gyroX,18_gyroY,18_gyroZ,19_accX,19_accY,19_accZ,19_gyroX,19_gyroY,19_gyroZ,20_accX,20_accY,20_accZ,20_gyroX,20_gyroY,20_gyroZ,21_accX,21_accY,21_accZ,21_gyroX,21_gyroY,21_gyroZ,22_accX,22_accY,22_accZ,22_gyroX,22_gyroY,22_gyroZ,23_accX,23_accY,23_accZ,23_gyroX,23_gyroY,23_gyroZ,24_accX,24_accY,24_accZ,24_gyroX,24_gyroY,24_gyroZ,25_accX,25_accY,25_accZ,25_gyroX,25_gyroY,25_gyroZ,26_accX,26_accY,26_accZ,26_gyroX,26_gyroY,26_gyroZ,27_accX,27_accY,27_accZ,27_gyroX,27_gyroY,27_gyroZ,28_accX,28_accY,28_accZ,28_gyroX,28_gyroY,28_gyroZ,29_accX,29_accY,29_accZ,29_gyroX,29_gyroY,29_gyroZ,30_accX,30_accY,30_accZ,30_gyroX,30_gyroY,30_gyroZ,31_accX,31_accY,31_accZ,31_gyroX,31_gyroY,31_gyroZ,32_accX,32_accY,32_accZ,32_gyroX,32_gyroY,32_gyroZ,33_accX,33_accY,33_accZ,33_gyroX,33_gyroY,33_gyroZ,34_accX,34_accY,34_accZ,34_gyroX,34_gyroY,34_gyroZ,35_accX,35_accY,35_accZ,35_gyroX,35_gyroY,35_gyroZ,36_accX,36_accY,36_accZ,36_gyroX,36_gyroY,36_gyroZ,37_accX,37_accY,37_accZ,37_gyroX,37_gyroY,37_gyroZ,38_accX,38_accY,38_accZ,38_gyroX,38_gyroY,38_gyroZ,39_accX,39_accY,39_accZ,39_gyroX,39_gyroY,39_gyroZ,category
accX,0.0,-0.7973137973137974,2.6105006105006106,0.0,0.0,0.0,-0.9804639804639804,0.0,2.8974358974358974,0.0,0.0,0.0,-1.358974358974359,0.0,3.9853479853479854,0.0,0.0,0.0,-1.1587301587301588,-0.6398046398046398,5.0366300366300365,0.0,0.0,0.0,-1.7667887667887667,-0.8205128205128205,5.307692307692308,0.0,0.0,0.0,-2.039072039072039,0.6129426129426129,5.213675213675214,0.0,0.0,0.0,-2.5433455433455427,0.0,5.423687423687423,0.6875,0.0,0.0,-1.8974358974358971,0.0,5.211233211233211,0.84375,-0.8125,0.0,-1.1343101343101345,-0.8705738705738706,4.493284493284493,0.90625,-0.9375,0.0,0.0,-1.5763125763125765,3.7606837606837606,1.0,-0.90625,0.0,0.9438339438339438,-1.7973137973137974,3.2515262515262515,1.03125,-1.21875,0.0,0.0,-2.2625152625152625,2.5360195360195363,1.0,-1.96875,-0.71875,-2.236874236874237,-1.1074481074481075,1.3614163614163617,1.1875,-2.21875,-1.0,-2.737484737484737,-0.7460317460317459,-0.6849816849816851,1.65625,-1.4375,-0.65625,0.0,-1.3064713064713065,-2.717948717948718,1.96875,-0.875,0.0,1.3565323565323566,-1.4822954822954824,-4.892551892551894,1.84375,-1.0,0.0,0.5934065934065934,-1.2991452991452992,-5.854700854700853,1.46875,-1.03125,-0.625,-0.6605616605616605,-0.6117216117216118,-5.825396825396825,1.09375,-0.84375,-0.78125,-1.2698412698412698,0.0,-5.188034188034189,1.0,-0.75,-0.6875,-1.68009768009768,0.0,-4.932844932844934,1.09375,-0.59375,0.0,-0.5921855921855922,-0.6605616605616605,-5.253968253968254,1.0625,0.0,0.0,0.0,-0.6361416361416361,-5.043956043956044,0.8125,0.0,0.0,0.0,0.0,-4.434676434676434,0.65625,0.0,0.0,-0.7655677655677655,0.0,-3.748473748473749,0.6875,0.0,0.0,0.0,0.0,-3.2136752136752142,0.625,0.0,0.0,0.0,0.0,-2.7863247863247858,0.0,0.0,0.0,0.0,0.0,-2.326007326007326,0.0,0.0,0.0,0.0,0.0,-1.5091575091575091,0.0,0.0,0.0,0.0,0.0,-1.1062271062271063,0.0,0.0,0.0,0.8278388278388278,0.0,-1.0122100122100122,0.0,0.0,0.0,0.0,0.0,-1.7741147741147743,0.0,0.0,0.0,0.0,0.0,-2.0891330891330893,0.0,0.0,0.0,0.0,0.0,-1.537240537240537,0.0,0.0,0.0,0.0,0.0,-1.105006105006105,0.0,0.0,0.0,0.0,0.0,-1.2673992673992671,0.0,0.0,0.0,0.0,0.0,-1.4822954822954824,0.0,0.0,0.0,0.0,0.0,-2.068376068376069,0.0,0.0,0.0,0.0,-0.9377289377289376,-2.6788766788766787,0.0,0.0,0.0,,,,,,,,,,,,,land
accX,-1.3687423687423688,-0.9548229548229548,3.267399267399268,-0.6875,0.0,0.0,-1.5274725274725274,0.894993894993895,5.711843711843712,-0.53125,0.75,0.0,0.557997557997558,0.0,7.407814407814407,0.71875,0.0,0.0,0.0,-1.2673992673992671,6.448107448107447,0.875,-0.96875,0.0,-1.5555555555555556,-1.3601953601953602,4.9572649572649565,0.875,-1.25,0.0,-2.844932844932845,0.0,3.5067155067155067,1.25,-0.53125,0.0,-0.7460317460317459,0.0,2.5006105006105006,1.6875,0.0,0.0,0.9633699633699634,-1.336996336996337,1.424908424908425,1.6875,-0.90625,0.0,0.7936507936507936,-1.4603174603174602,0.0,1.25,-1.3125,0.0,0.0,-0.8058608058608059,0.0,0.875,-1.09375,0.0,0.0,0.0,0.7814407814407814,0.9375,-1.0625,0.0,-0.7496947496947497,0.8827838827838828,1.6923076923076923,1.0625,-1.25,0.0,-0.7728937728937729,0.6898656898656899,0.0,1.53125,-1.15625,0.0,-0.6422466422466423,-0.6837606837606838,-3.609279609279609,1.03125,-0.8125,0.0,1.10989010989011,0.0,-1.827838827838828,0.0,-1.1875,0.0,0.0,0.0,-0.6349206349206349,0.0,-1.3125,0.0,0.0,0.0,-1.1684981684981686,0.90625,-1.34375,0.0,0.0,-0.9389499389499391,-3.913308913308913,1.1875,-1.3125,0.0,0.0,-0.9242979242979243,-5.0256410256410255,1.0625,-1.03125,0.0,0.0,0.0,-4.677655677655678,0.78125,-0.96875,0.0,-0.8681318681318682,0.0,-4.786324786324786,0.6875,-0.84375,0.0,0.0,0.0,-4.4444444444444455,0.71875,-0.65625,0.0,0.0,0.0,-4.4554334554334565,0.71875,-0.65625,0.0,0.0,0.0,-4.349206349206349,0.0,-0.59375,0.0,0.0,0.0,-3.5775335775335777,0.0,0.0,0.0,0.0,0.5421245421245421,-3.0927960927960934,0.0,0.0,0.0,0.0,0.0,-2.8693528693528694,0.0,0.0,0.0,0.0,0.0,-2.5311355311355306,0.0,0.0,0.0,0.0,0.0,-2.0488400488400487,0.0,0.0,0.0,0.0,0.0,-1.398046398046398,0.0,0.0,0.0,0.0,0.0,-0.9413919413919414,0.0,0.0,0.0,0.0,0.0,-0.7997557997557998,0.0,0.0,0.0,0.0,0.0,-0.6141636141636142,0.0,0.0,0.0,-0.5213675213675214,0.0,-0.6739926739926739,0.0,0.0,0.0,,,,,,,,,,,,,,,,,,,,,,,,,,,,,,,,,,,,,land
accX,0.7606837606837606,-0.7667887667887668,1.1416361416361416,0.0,0.0,0.0,0.5702075702075702,-0.5079365079365079,1.557997557997558,0.0,0.0,0.0,0.0,-0.818070818070818,2.155067155067155,0.0,0.0,0.0,0.5006105006105006,-1.0525030525030523,3.3540903540903533,0.0,0.0,0.0,1.2368742368742371,0.0,5.5628815628815635,0.0,0.0,0.0,-0.9059829059829059,-0.6495726495726496,6.667887667887667,0.0,-0.6875,-0.5625,-2.687423687423687,-0.5323565323565324,6.482295482295482,0.0,-0.625,0.0,-2.0195360195360195,-1.1074481074481075,5.86080586080586,0.53125,0.0,0.0,-1.2026862026862026,-0.6617826617826618,4.9023199023199036,0.75,-0.59375,0.0,-2.0989010989010994,-1.3235653235653235,3.155067155067155,1.03125,-0.8125,0.0,-1.3772893772893773,-1.2442002442002442,2.0427350427350426,1.125,0.0,0.0,-0.7020757020757019,-1.277167277167277,1.043956043956044,0.96875,-0.5625,0.0,-1.0549450549450552,-1.8827838827838828,0.757020757020757,0.65625,-0.75,-0.625,0.0,0.0,1.7826617826617828,0.78125,-1.0625,-0.75,-1.010989010989011,0.0,0.0,1.03125,-1.03125,-0.65625,-0.6227106227106227,-1.2893772893772897,-2.433455433455433,0.9375,-0.65625,-0.53125,1.1062271062271063,-0.9169719169719168,-4.039072039072039,0.84375,-0.65625,-0.65625,1.020757020757021,0.0,-4.0537240537240535,0.6875,-0.78125,-0.90625,0.8156288156288156,0.0,-3.4053724053724053,0.71875,-0.90625,-1.0,0.0,0.0,-4.076923076923077,0.59375,-0.78125,-1.0625,0.5531135531135531,0.0,-4.073260073260073,0.59375,-0.84375,-1.1875,0.0,0.6581196581196581,-3.958485958485959,0.78125,-0.78125,-0.96875,-0.7863247863247863,0.9462759462759462,-3.3089133089133087,0.96875,-0.5625,-0.53125,0.0,0.0,-3.2771672771672766,0.96875,-0.5625,0.0,0.0,-0.7960927960927959,-2.8949938949938954,0.78125,-0.53125,0.0,0.0,0.0,-2.275946275946276,0.59375,0.0,0.0,0.0,0.503052503052503,-2.351648351648352,0.59375,0.0,0.0,0.0,0.0,-3.028083028083028,0.625,0.0,0.0,0.6129426129426129,0.0,-3.877899877899878,0.0,0.0,0.0,0.0,0.0,-3.753357753357753,0.0,0.0,0.0,0.0,0.5054945054945055,-2.8363858363858365,0.0,0.0,0.0,0.0,0.5616605616605617,-2.3321123321123323,0.0,0.0,0.0,0.0,0.0,-2.299145299145299,0.0,0.0,0.0,0.0,0.0,-2.2698412698412698,0.0,0.0,0.0,-1.0354090354090355,0.0,-1.6056166056166057,0.0,0.0,0.0,-0.8217338217338217,0.0,-1.1978021978021978,0.0,0.0,0.0,-0.57997557997558,0.0,-1.1636141636141637,0.0,0.0,0.0,-0.5091575091575091,0.0,-1.5421245421245422,0.0,0.0,0.0,-0.6642246642246642,0.0,-2.216117216117216,0.0,0.0,0.0,0.0,0.0,-2.216117216117216,0.0,0.0,0.53125,land
accX,0.7045177045177046,0.0,1.5213675213675213,0.0,0.0,0.0,0.0,0.0,2.096459096459097,0.0,0.0,0.0,-1.8608058608058609,0.8913308913308914,5.976800976800977,0.0,0.0,0.0,-1.0598290598290598,1.332112332112332,7.947496947496947,0.53125,0.0,0.0,-1.6727716727716728,0.0,7.757020757020759,0.96875,0.0,0.0,-2.115995115995116,-0.6617826617826618,7.17948717948718,0.96875,-0.625,0.0,-2.547008547008547,0.0,6.280830280830281,1.0,-0.5625,0.0,-1.9572649572649568,0.0,4.985347985347985,1.28125,0.0,0.0,-1.619047619047619,-0.73992673992674,2.3443223443223444,1.46875,0.0,0.0,-0.7728937728937729,-1.5189255189255189,-0.57997557997558,1.5,0.0,0.0,0.9279609279609279,-2.619047619047619,-2.2564102564102564,1.0,0.0,0.0,1.6495726495726497,-1.4065934065934067,-1.6019536019536018,0.0,0.0,0.0,0.0,0.0,-0.7545787545787546,0.0,-1.0625,0.0,-2.072039072039072,-0.7851037851037851,-1.534798534798535,0.53125,-0.875,0.0,0.0,-2.1611721611721606,-1.7472527472527473,0.0,0.0,0.0,1.608058608058608,-2.484737484737485,-1.4407814407814408,-0.5625,-1.25,-0.84375,0.0,0.0,0.0,0.0,-1.71875,-1.0,-1.9548229548229548,0.0,-2.474969474969475,0.0,-1.125,-0.625,-1.0158730158730158,0.0,-4.252747252747253,0.5625,0.0,0.0,0.6520146520146519,0.0,-4.529914529914531,0.8125,0.0,0.0,1.133089133089133,0.0,-5.326007326007327,0.9375,-0.625,0.0,0.8656898656898657,0.0,-5.951159951159951,1.03125,-0.625,0.0,0.0,0.0,-6.1159951159951165,0.8125,0.0,0.0,0.0,0.568986568986569,-4.984126984126983,0.6875,0.0,0.0,0.6227106227106227,0.0,-3.9047619047619047,0.0,0.0,0.0,0.5006105006105006,0.5470085470085471,-2.0366300366300365,0.0,0.0,0.0,-1.1452991452991452,0.0,-0.6556776556776557,0.53125,0.0,0.0,-1.4395604395604396,0.5054945054945055,-1.1355311355311355,0.0,0.0,0.0,-0.8693528693528694,0.6275946275946276,-1.177045177045177,0.0,0.0,0.0,0.0,0.5299145299145299,-1.3443223443223444,0.0,0.0,0.0,0.0,0.0,-2.028083028083028,0.0,0.0,0.0,0.0,0.0,-2.4737484737484743,0.0,0.0,0.0,0.0,0.0,-2.611721611721612,0.0,0.0,0.0,0.0,0.0,-2.004884004884005,0.0,0.0,0.0,0.0,0.0,-1.6214896214896215,0.0,0.0,0.0,0.0,0.0,-1.5433455433455434,0.0,0.0,0.0,-0.5396825396825397,0.0,-1.8315018315018317,0.0,0.0,0.0,-0.7032967032967034,0.6324786324786325,-1.8620268620268619,0.0,0.0,0.0,0.0,0.0,-2.330891330891331,0.0,0.53125,0.0,,,,,,,land
accX,0.514041514041514,0.0,1.6752136752136753,0.0,-0.53125,0.0,0.0,0.0,2.7142857142857144,0.0,-0.6875,0.0,-1.1465201465201464,0.6556776556776557,4.553113553113553,0.53125,0.0,0.0,-1.4920634920634919,0.8327228327228328,6.213675213675214,0.90625,0.0,0.0,-1.277167277167277,0.0,7.4273504273504285,1.03125,0.0,0.0,-1.8339438339438336,0.0,7.313797313797313,0.84375,-0.5625,0.0,-2.045177045177045,-1.6459096459096458,5.5555555555555545,0.75,0.0,0.0,-0.8803418803418803,-0.9169719169719168,3.84981684981685,0.8125,0.0,0.0,0.0,-1.4017094017094016,1.199023199023199,0.75,0.0,0.0,1.5421245421245422,-1.2112332112332111,0.0,0.59375,0.0,0.0,0.0,-0.6971916971916972,0.0,0.0,-1.25,0.0,-1.8339438339438336,-0.5982905982905983,-1.8180708180708183,0.6875,-1.21875,0.0,-0.8901098901098901,-0.5299145299145299,-3.1367521367521367,0.875,-0.53125,0.0,1.2442002442002442,-1.0244200244200243,-4.031746031746032,0.84375,0.0,0.0,1.249084249084249,-1.4615384615384617,-4.235653235653237,0.59375,-0.75,0.0,0.0,-0.7362637362637363,-3.4444444444444446,0.0,-0.96875,0.0,-0.6459096459096461,0.0,-2.413919413919414,0.0,-0.71875,0.0,0.0,0.0,-1.7997557997557998,0.53125,-0.625,0.0,0.7216117216117216,-0.5616605616605617,-1.9474969474969477,0.84375,-0.84375,-0.59375,0.0,-1.1794871794871795,-3.2967032967032965,0.75,-1.09375,-0.71875,-1.0,0.0,-4.026862026862027,0.84375,-0.9375,-0.625,-0.9035409035409036,0.0,-4.4603174603174605,1.0,-0.78125,0.0,-0.7753357753357754,0.0,-5.3809523809523805,1.0625,-0.59375,0.0,0.0,0.0,-6.096459096459097,0.78125,0.0,0.0,0.0,0.0,-5.991452991452992,0.0,0.0,0.0,0.0,0.0,-5.05006105006105,0.0,0.0,0.0,0.0,0.0,-3.9059829059829063,0.0,0.0,0.0,0.0,0.0,-3.0561660561660564,0.0,0.0,0.0,0.0,0.0,-2.021978021978022,0.0,0.0,0.0,-0.9572649572649572,0.7667887667887668,0.0,0.0,0.0,0.0,-0.7496947496947497,0.5079365079365079,0.0,0.0,0.0,0.0,-0.9438339438339438,0.5372405372405372,-0.6031746031746031,0.0,0.0,0.0,-1.1062271062271063,0.5628815628815629,-1.3308913308913308,0.0,0.0,0.0,,,,,,,,,,,,,,,,,,,,,,,,,,,,,,,,,,,,,,,,,,,land
accX,0.0,-0.9523809523809524,2.5946275946275947,0.6875,0.0,0.0,-1.5665445665445663,0.0,3.3675213675213675,0.0,0.0,0.0,-1.021978021978022,0.0,5.288156288156288,0.0,0.0,0.0,0.0,0.0,6.521367521367521,0.6875,0.0,0.0,-0.8461538461538461,-1.0427350427350428,6.451770451770452,0.0,-0.625,0.0,-1.5457875457875458,-0.9829059829059827,6.0366300366300365,0.0,0.0,0.0,-1.691086691086691,-0.568986568986569,5.727716727716727,0.59375,0.0,0.0,-0.912087912087912,-0.9377289377289376,4.238095238095238,0.875,0.0,0.0,0.0,-1.5470085470085468,1.5970695970695972,0.84375,0.0,0.53125,0.9389499389499391,-2.092796092796093,0.0,0.0,0.0,0.0,0.0,-1.0341880341880345,0.8302808302808303,0.0,-0.5625,0.0,-0.9438339438339438,0.0,1.7032967032967032,0.0,0.0,0.0,-0.7948717948717948,0.0,0.8131868131868132,0.78125,0.0,0.0,-0.5201465201465202,-1.4884004884004884,-1.9938949938949944,0.84375,0.0,0.0,0.5238095238095238,-1.4407814407814408,-3.926739926739927,0.6875,0.0,0.0,1.1709401709401708,-1.26007326007326,-2.8534798534798536,0.5625,-0.59375,0.0,0.0,-1.0976800976800978,-2.225885225885226,0.6875,-0.75,0.0,0.0,-0.873015873015873,-1.9902319902319905,0.90625,-0.6875,0.0,0.5836385836385837,-1.0866910866910866,-2.5006105006105006,1.09375,-0.8125,0.0,0.0,-1.2258852258852257,-3.7460317460317465,1.0625,-1.28125,-0.59375,-1.1245421245421243,0.0,-4.1550671550671545,1.0,-1.34375,-0.78125,-1.2222222222222223,0.0,-4.726495726495727,1.09375,-1.03125,0.0,-0.7435897435897436,0.0,-5.304029304029304,1.1875,-0.71875,0.0,0.514041514041514,-0.5921855921855922,-5.6361416361416365,1.0625,-0.5625,0.0,0.8998778998778999,-0.503052503052503,-5.532356532356533,0.6875,0.0,0.0,0.7765567765567766,0.0,-4.774114774114773,0.0,0.0,0.0,0.0,0.0,-4.111111111111111,0.0,0.0,0.0,0.0,0.0,-3.3028083028083026,0.0,0.0,0.0,-0.7020757020757019,0.0,-2.571428571428572,0.0,0.0,0.0,-1.05006105006105,0.0,-2.0695970695970702,0.0,0.0,0.0,-0.8754578754578755,0.0,-1.5567765567765568,0.0,0.0,0.0,-0.8131868131868132,0.0,-1.536019536019536,0.0,0.0,0.0,-0.9047619047619048,-0.6043956043956044,-1.8583638583638584,0.0,0.53125,0.0,-0.7765567765567766,-0.6898656898656899,-2.0,0.0,0.6875,0.0,-0.5970695970695971,-1.0329670329670328,-2.086691086691087,0.0,0.78125,0.0,,,,,,,,,,,,,,,,,,,,,,,,,,,,,,,land
accX,0.0,-0.6471306471306472,4.675213675213676,0.0,-0.875,0.0,-1.4700854700854702,0.0,4.572649572649572,0.0,-0.9375,0.0,-2.0573870573870567,0.0,5.536019536019536,0.0,0.0,0.0,-1.5934065934065933,0.6092796092796092,7.813186813186812,0.0,0.0,0.0,-0.7643467643467643,0.5946275946275946,9.057387057387057,1.125,-0.84375,0.0,-1.5189255189255189,-1.943833943833944,6.64957264957265,1.4375,-1.125,0.0,-0.5042735042735043,-2.1807081807081805,4.7765567765567765,1.46875,-0.96875,0.0,-0.5384615384615384,-1.3223443223443223,1.3418803418803418,1.71875,-0.71875,0.0,1.1355311355311355,-2.909645909645909,-1.8827838827838828,2.125,0.0,0.0,3.1428571428571432,-4.045177045177045,-2.483516483516484,1.46875,0.0,0.0,1.5824175824175823,-2.8937728937728937,-1.8925518925518925,0.0,-0.875,0.0,0.0,-0.5409035409035409,-1.3064713064713065,0.0,-0.84375,-0.71875,-0.6080586080586079,0.0,-1.9914529914529917,0.9375,-0.78125,-0.65625,0.0,-1.9108669108669107,-4.384615384615385,1.34375,-0.65625,-0.53125,0.0,-1.2673992673992671,-6.551892551892553,1.03125,-0.625,0.0,0.0,0.0,-6.385836385836386,0.65625,-0.5625,0.0,0.0,0.0,-5.347985347985348,0.6875,-0.65625,0.0,0.0,0.0,-5.131868131868131,0.625,-0.875,0.0,-1.4371184371184371,0.0,-5.126984126984127,0.53125,-0.5625,0.0,-0.9462759462759462,0.5079365079365079,-4.253968253968254,0.53125,0.0,0.0,0.0,0.0,-3.393162393162393,0.65625,-0.65625,0.0,0.0,0.0,-3.1062271062271063,0.78125,-0.65625,0.0,0.0,-0.7741147741147741,-2.935286935286935,0.5625,0.0,0.0,0.0,-0.6935286935286935,-2.483516483516484,0.0,0.0,0.0,0.0,0.0,-2.0488400488400487,0.0,0.0,0.0,-0.7326007326007326,0.0,-2.6336996336996337,0.0,0.0,0.0,-0.7301587301587301,0.0,-2.4517704517704515,0.0,0.0,0.0,0.0,-0.5421245421245421,-2.42002442002442,0.0,0.0,0.0,0.0,-0.5274725274725275,-2.2735042735042734,0.0,0.0,0.0,-0.706959706959707,0.0,-2.352869352869353,0.0,0.0,0.0,-0.8901098901098901,0.0,-2.6996336996337003,0.0,0.0,0.0,,,,,,,,,,,,,,,,,,,,,,,,,,,,,,,,,,,,,,,,,,,,,,,,,,,,,,,land
accX,0.5909645909645911,0.0,2.829059829059829,0.0,-0.96875,0.0,-0.7496947496947497,0.0,3.4652014652014653,0.0,-1.28125,0.0,-1.4017094017094016,0.0,4.136752136752137,0.0,-1.0625,0.0,-2.04029304029304,0.0,5.482295482295481,0.0,0.0,0.0,-0.6959706959706959,0.0,7.562881562881563,0.0,0.0,0.0,-0.7643467643467643,-0.757020757020757,8.05982905982906,0.0,0.0,0.0,-1.137973137973138,-1.7326007326007329,7.64957264957265,0.53125,0.0,0.0,-0.6288156288156288,-1.2893772893772897,6.891330891330893,0.8125,0.0,0.0,0.0,-1.757020757020757,4.7252747252747245,1.8125,0.0,0.0,1.4114774114774116,-3.247863247863248,1.4945054945054943,1.6875,0.0,0.0,2.8058608058608057,-3.870573870573871,0.0,0.9375,0.0,0.0,2.8485958485958487,-1.9267399267399268,2.1855921855921854,0.75,-0.75,0.0,0.0,-0.8290598290598291,2.3064713064713063,1.1875,-0.8125,0.0,-1.0085470085470083,-0.6947496947496947,-0.8534798534798534,1.8125,0.0,0.0,1.3394383394383391,-2.433455433455433,-4.377289377289378,1.59375,0.0,0.0,1.525030525030525,-1.938949938949939,-5.08058608058608,1.1875,-0.78125,0.0,0.0,0.0,-4.157509157509158,1.21875,-0.6875,-0.625,-0.5763125763125763,0.0,-3.1770451770451764,1.4375,-0.625,-0.53125,-0.7435897435897436,0.0,-2.8913308913308917,1.53125,-0.78125,0.0,-1.137973137973138,-0.5396825396825397,-2.9462759462759465,1.375,-1.0625,0.0,-1.9267399267399268,0.0,-2.9255189255189253,1.375,-1.125,0.0,-1.072039072039072,-0.7362637362637363,-3.692307692307693,1.625,-1.09375,0.0,-0.8473748473748474,-0.934065934065934,-4.543345543345543,1.59375,-1.25,0.0,-1.1562881562881564,-0.8083028083028083,-5.422466422466423,1.4375,-1.09375,0.0,0.5177045177045178,-0.9206349206349206,-6.0085470085470085,1.3125,-0.59375,0.0,2.148962148962149,-1.5030525030525033,-5.887667887667887,0.90625,-0.65625,0.0,1.7936507936507935,-1.2686202686202686,-5.302808302808303,0.0,-0.6875,0.0,0.8608058608058609,-1.061050061050061,-4.335775335775336,0.0,0.0,0.0,0.0,-0.5445665445665445,-2.93040293040293,0.0,0.0,-0.625,-0.8278388278388278,0.0,-1.3235653235653235,0.0,0.0,-0.59375,-0.7167277167277167,0.6703296703296703,-0.6410256410256411,0.0,0.0,0.0,-0.6532356532356532,0.8302808302808303,0.0,0.0,0.0,0.0,-0.94993894993895,0.7460317460317459,-0.5555555555555556,0.0,0.0,0.0,-1.1123321123321124,0.0,-1.1623931623931625,0.0,0.0,0.0,-1.0451770451770452,0.0,-1.7997557997557998,0.0,0.0,0.0,,,,,,,,,,,,,,,,,,,,,,,,,,,,,,,land
accX,0.0,-1.0244200244200243,3.710622710622711,0.0,-0.75,0.0,-2.045177045177045,-1.5518925518925517,4.015873015873016,0.0,0.0,0.0,-2.8986568986568986,-1.0915750915750917,5.346764346764347,0.0,0.0,0.0,-1.2625152625152625,0.0,7.122100122100122,0.0,0.59375,0.0,0.0,-0.9706959706959708,7.468864468864468,0.65625,0.0,0.0,0.0,-1.750915750915751,5.995115995115995,0.75,0.0,0.0,0.0,-1.1172161172161172,4.0427350427350435,0.9375,0.0,0.5625,2.3821733821733817,-1.962148962148962,0.0,1.125,0.0,0.0,2.0195360195360195,-1.9084249084249083,0.0,0.90625,-0.78125,0.0,0.0,0.0,0.0,0.75,-1.21875,0.0,-0.9230769230769232,0.0,0.0,1.09375,-1.09375,0.0,0.0,0.0,0.0,1.59375,-0.875,0.0,0.0,-1.9169719169719168,-2.117216117216117,1.75,-0.84375,0.0,0.0,-1.8058608058608057,-2.3821733821733817,1.4375,-1.09375,0.0,-0.6019536019536019,-0.9523809523809524,-1.9218559218559217,1.1875,-1.15625,0.0,-0.7814407814407814,-0.5836385836385837,-1.2722832722832722,1.375,-1.03125,0.0,-0.7350427350427351,-0.7118437118437119,-1.42002442002442,1.75,-0.96875,0.0,0.0,-2.15018315018315,-3.1916971916971923,1.96875,-1.0,0.0,0.0,-1.9133089133089132,-4.355311355311355,1.84375,-1.40625,0.0,-0.7216117216117216,-1.1526251526251523,-5.499389499389499,1.8125,-1.3125,0.0,-0.9731379731379732,0.0,-6.702075702075702,1.78125,-0.9375,0.0,0.0,-0.7057387057387058,-7.7826617826617825,1.40625,-0.71875,0.0,0.0,-0.9316239316239316,-7.865689865689865,0.84375,0.0,0.0,0.0,-0.7032967032967034,-6.628815628815629,0.0,0.0,0.0,0.0,-0.8644688644688645,-3.9829059829059825,0.0,0.65625,0.0,0.6910866910866911,0.0,-1.028083028083028,0.0,0.0,0.0,0.0,0.0,0.6959706959706959,0.0,0.0,0.0,-1.1367521367521367,0.6666666666666666,1.391941391941392,0.0,0.0,0.0,-1.1391941391941391,0.8986568986568987,1.192918192918193,0.0,0.0,0.0,-0.7435897435897436,0.6910866910866911,0.0,0.0,0.0,0.0,-0.7081807081807082,0.0,-1.9633699633699635,0.0,0.0,0.0,-0.6996336996336996,0.0,-2.330891330891331,0.0,0.0,0.0,0.0,0.0,-2.8925518925518925,0.0,0.0,0.0,,,,,,,,,,,,,,,,,,,,,,,,,,,,,,,,,,,,,,,,,,,land
accX,-2.413919413919414,0.0,5.27960927960928,0.0,0.0,0.0,-1.5616605616605617,0.0,6.262515262515263,0.0,0.84375,0.0,0.0,0.0,6.7594627594627585,0.6875,0.0,0.0,0.0,-0.7118437118437119,6.6190476190476195,0.75,0.0,0.0,-0.518925518925519,-0.6715506715506715,5.283272283272283,0.8125,-0.78125,0.0,-0.536019536019536,-0.8583638583638583,3.532356532356532,1.03125,-0.5625,0.0,1.2844932844932846,-1.6886446886446886,1.8424908424908424,1.1875,0.0,0.0,2.3553113553113554,-2.2820512820512815,0.0,0.875,-0.71875,0.0,1.6459096459096458,-1.6056166056166057,0.0,0.65625,-1.0,0.0,0.0,-0.9865689865689866,0.0,0.0,-0.90625,0.0,0.0,0.0,0.0,0.96875,-0.78125,0.0,0.0,0.0,-1.5665445665445663,1.4375,-0.65625,0.0,0.0,-1.0354090354090355,-2.7020757020757022,1.40625,-0.65625,0.0,0.0,-1.827838827838828,-2.8253968253968256,1.0,-0.75,0.0,-0.6361416361416361,-1.1965811965811963,-1.9352869352869355,0.875,-0.8125,0.0,-1.6703296703296704,0.0,-1.2527472527472527,1.25,-0.75,0.0,-2.455433455433456,0.0,-1.2942612942612943,1.75,-0.53125,0.0,-0.7020757020757019,-1.6202686202686205,-1.975579975579976,1.875,-0.59375,0.59375,0.5653235653235653,-2.7777777777777777,-3.1257631257631258,1.53125,-0.96875,0.0,0.0,-1.5506715506715507,-4.206349206349207,1.5,-1.28125,0.0,0.0,-1.84004884004884,-5.485958485958487,1.53125,-1.0625,0.0,0.8547008547008547,-2.1294261294261294,-6.3369963369963385,1.25,-0.84375,0.0,0.0,-1.6837606837606838,-6.3760683760683765,0.59375,-0.71875,0.0,0.0,-0.8290598290598291,-5.017094017094017,0.0,0.0,0.0,-0.9645909645909646,0.0,-3.2039072039072036,0.0,0.0,0.0,-1.3052503052503053,0.5299145299145299,-1.9633699633699635,0.0,0.0,0.0,-1.3858363858363858,0.6617826617826618,-1.3882783882783882,0.0,0.0,0.0,-1.4432234432234432,0.5164835164835165,-1.2844932844932846,0.0,0.0,0.0,-1.3675213675213675,0.0,-1.4566544566544566,0.0,0.0,0.0,,,,,,,,,,,,,,,,,,,,,,,,,,,,,,,,,,,,,,,,,,,,,,,,,,,,,,,,,,,,,,,,,,,land
accX,-1.6813186813186811,0.0,4.537240537240537,-0.5625,-0.5625,0.0,-1.5958485958485962,0.5958485958485958,6.141636141636143,0.0,0.0,0.0,-1.1514041514041513,0.0,7.095238095238094,0.0,-0.53125,0.0,-1.3284493284493284,-0.8144078144078144,6.6923076923076925,0.5625,0.0,0.0,-1.1843711843711844,-0.8253968253968254,5.7716727716727725,0.6875,0.0,0.5625,0.0,0.0,4.623931623931624,1.15625,0.0,0.65625,0.7765567765567766,-1.8632478632478635,2.4639804639804637,1.46875,0.0,0.6875,2.2820512820512815,-3.5396825396825395,1.0390720390720392,1.09375,0.0,0.0,1.4542124542124542,-2.8058608058608057,0.6373626373626373,0.90625,-0.71875,0.0,0.0,-1.4395604395604396,-0.5665445665445665,1.25,0.0,0.0,0.8547008547008547,-2.4993894993894994,-1.2698412698412698,1.46875,0.0,0.0,0.6043956043956044,-2.340659340659341,-1.485958485958486,1.34375,-0.90625,0.0,-0.8583638583638583,-2.064713064713065,-2.1672771672771667,1.15625,-1.21875,0.0,-1.8253968253968251,-0.5128205128205128,-2.131868131868132,1.34375,-1.1875,0.0,-0.9536019536019535,-1.2454212454212454,-3.5006105006105006,1.75,-1.09375,0.0,0.0,-2.6996336996337003,-5.568986568986569,1.5,-1.34375,0.0,-0.6141636141636142,-1.5934065934065933,-5.958485958485959,0.84375,-1.4375,0.0,-0.5262515262515263,0.0,-5.5555555555555545,0.65625,-1.15625,0.0,0.0,0.0,-5.072039072039073,1.0,-0.8125,0.0,0.7289377289377289,-0.7594627594627594,-5.920634920634921,1.25,0.0,0.53125,1.5995115995115996,-1.2991452991452992,-6.112332112332113,0.65625,0.0,0.0,0.9242979242979243,-0.6153846153846154,-4.557997557997559,0.0,0.0,0.0,0.0,0.0,-2.2515262515262515,0.0,0.0,0.0,0.0,0.0,-1.0708180708180708,0.0,0.0,0.0,-0.7045177045177046,0.5836385836385837,-0.6593406593406593,0.0,0.0,0.0,-0.7692307692307693,0.0,-1.2442002442002442,0.0,0.0,0.0,-0.5152625152625152,0.0,-0.9255189255189256,0.0,0.0,0.0,0.0,0.0,-0.8876678876678876,0.0,0.0,0.0,0.6837606837606838,0.0,-0.9987789987789988,0.0,0.0,0.0,0.5347985347985348,0.0,-1.9413919413919412,0.0,0.0,0.0,0.0,-0.525030525030525,-2.6300366300366296,0.0,0.0,0.0,0.0,0.0,-2.673992673992674,0.0,0.0,0.0,0.0,-0.6092796092796092,-2.758241758241758,0.0,0.625,0.0,,,,,,,,,,,,,,,,,,,,,,,,,,,,,,,,,,,,,,,,,,,land
accX,-2.4432234432234434,-0.503052503052503,4.177045177045176,0.0,0.0,0.0,-1.9267399267399268,0.0,5.316239316239317,0.0,0.0,0.0,0.0,-1.0708180708180708,6.0927960927960925,0.65625,0.0,0.0,0.0,-1.525030525030525,5.985347985347985,0.6875,0.0,0.0,-0.5567765567765568,-1.7191697191697193,5.128205128205129,0.6875,-0.625,0.0,-1.31013431013431,-1.0647130647130647,3.8583638583638575,0.6875,0.0,0.0,0.0,-0.5860805860805861,2.2222222222222223,0.90625,0.0,0.0,1.5702075702075702,-1.4957264957264955,0.0,1.0,0.0,0.0,1.8205128205128205,-1.8742368742368745,0.0,0.0,0.0,0.0,0.6275946275946276,-0.7814407814407814,0.993894993894994,0.0,-0.8125,-0.53125,-0.6373626373626373,0.0,1.1514041514041513,0.0,-0.90625,-0.78125,-0.8461538461538461,0.0,0.0,0.78125,-0.96875,-0.625,-1.266178266178266,-1.3565323565323566,-2.4688644688644694,0.625,-0.875,-0.71875,-1.2173382173382172,-1.0634920634920637,-2.6923076923076925,0.0,-0.96875,-0.78125,-1.8571428571428568,0.0,-1.7545787545787546,0.90625,-0.875,-0.71875,-1.0647130647130647,0.0,-2.5177045177045176,1.5,-0.84375,-0.5625,-0.9975579975579976,-0.8766788766788767,-3.9536019536019538,1.6875,-0.78125,0.0,-0.6666666666666666,-0.8937728937728938,-5.417582417582418,1.65625,-0.625,0.0,0.0,0.0,-5.742368742368742,1.5625,-0.75,0.0,0.9755799755799756,-0.6483516483516484,-6.172161172161172,1.375,-0.78125,0.0,0.0,0.0,-6.271062271062272,1.0625,-0.625,0.0,0.0,-0.6398046398046398,-5.9462759462759465,0.78125,0.0,0.0,0.0,-0.5909645909645911,-4.700854700854701,0.0,0.0,0.0,-0.912087912087912,0.0,-1.6825396825396826,0.0,0.0,0.0,-1.6275946275946276,0.0,0.0,0.0,0.0,0.0,-1.7484737484737485,0.0,0.0,0.0,0.0,0.0,-1.8510378510378511,0.5592185592185592,-0.956043956043956,0.0,0.0,0.0,-1.352869352869353,0.6080586080586079,-1.6446886446886446,0.0,0.0,0.0,-0.7948717948717948,0.0,-2.4004884004884004,0.0,0.0,0.0,0.0,0.0,-3.0109890109890114,0.0,0.0,0.0,0.0,-0.6654456654456654,-3.6312576312576312,0.0,0.53125,0.0,,,,,,,,,,,,,,,,,,,,,,,,,,,,,,,,,,,,,,,,,,,,,,,,,,,,,,,land
accX,-2.091575091575092,0.0,4.96947496947497,0.0,-0.59375,0.0,-2.3211233211233213,-0.5836385836385837,5.4041514041514045,0.75,0.0,0.625,-0.7753357753357754,-1.286935286935287,5.587301587301587,1.03125,0.0,0.6875,0.0,-1.3516483516483515,5.244200244200244,1.09375,0.0,0.71875,0.0,-0.9035409035409036,4.572649572649572,1.25,0.0,0.625,0.0,-1.2319902319902318,2.9291819291819285,1.28125,0.0,0.0,0.0,-0.9572649572649572,1.0427350427350428,1.15625,0.0,0.0,0.8437118437118437,0.0,0.0,1.09375,-0.53125,0.0,0.8656898656898657,0.0,-0.7252747252747253,0.9375,-0.65625,0.0,0.0,0.0,0.0,0.625,-0.71875,0.0,0.0,0.0,0.9682539682539684,0.8125,-0.75,0.0,-0.6263736263736264,0.0,0.0,1.125,-0.8125,0.0,0.0,0.0,-1.894993894993895,1.6875,-0.75,0.0,0.0,-1.7203907203907205,-3.9792429792429793,1.4375,-0.84375,0.0,0.0,-1.485958485958486,-3.920634920634921,0.96875,-0.75,0.0,0.0,-0.8583638583638583,-2.8192918192918195,0.78125,-0.96875,0.0,-0.9242979242979243,0.0,-1.8485958485958487,1.40625,-0.78125,0.0,0.0,-0.9536019536019535,-2.3284493284493286,1.75,-0.5625,0.0,0.0,-2.063492063492064,-3.313797313797314,1.625,-0.78125,0.0,-0.5702075702075702,-1.1965811965811963,-3.6166056166056166,1.28125,-0.9375,0.0,-0.5506715506715507,-0.7277167277167277,-3.716727716727717,1.25,-0.6875,0.0,0.0,-1.1318681318681318,-3.940170940170941,1.375,0.0,0.0,0.0,-1.575091575091575,-4.158730158730159,1.3125,0.0,0.0,0.0,-1.2637362637362637,-3.9194139194139193,1.03125,0.0,0.0,-0.8278388278388278,-0.6495726495726496,-3.1904761904761907,0.875,0.0,0.0,-1.4334554334554337,0.0,-2.5677655677655684,0.78125,0.0,0.0,0.0,0.0,-1.7423687423687424,0.5625,0.0,0.0,0.0,-0.6568986568986569,-1.2185592185592184,0.0,0.0,0.0,-0.6434676434676435,0.0,0.0,0.0,0.0,0.0,-0.8485958485958486,1.0097680097680095,0.0,0.0,0.0,0.0,-0.6617826617826618,0.818070818070818,0.0,0.0,0.0,0.0,0.0,0.0,-1.3846153846153846,0.0,0.0,0.0,-1.061050061050061,0.0,-2.652014652014652,0.0,0.0,0.0,,,,,,,,,,,,,,,,,,,,,,,,,,,,,,,,,,,,,,,,,,,land
accX,-1.0757020757020757,0.6446886446886447,5.543345543345543,0.8125,0.0,0.0,-1.1294261294261294,0.0,4.996336996336996,0.9375,0.0,0.0,-0.9316239316239316,-0.5054945054945055,3.741147741147741,0.8125,0.0,0.0,0.0,0.0,2.758241758241758,0.625,0.0,0.0,0.7777777777777778,0.0,2.004884004884005,0.65625,0.0,0.0,1.6056166056166057,-0.5518925518925519,1.5396825396825398,0.5625,0.0,0.0,0.0,-0.967032967032967,1.5115995115995116,0.0,-0.53125,0.0,-0.7142857142857143,-0.8131868131868132,1.6459096459096458,0.0,0.0,0.0,0.0,0.0,1.2332112332112333,0.0,-0.6875,0.0,0.0,0.0,-1.9169719169719168,0.59375,-0.8125,0.0,0.0,-1.3040293040293038,-0.5262515262515263,0.0,-0.875,0.0,-1.4212454212454213,0.0,0.7765567765567766,0.0,-1.03125,0.0,-2.1465201465201464,-0.6422466422466423,0.0,1.15625,-1.0,0.0,-0.6593406593406593,-1.962148962148962,-0.9462759462759462,1.5625,-0.96875,0.0,0.0,-2.4505494505494507,-3.323565323565324,1.5,-1.46875,0.0,-0.5115995115995116,-2.1086691086691087,-5.134310134310135,1.28125,-1.75,0.0,0.0,-1.4871794871794872,-5.321123321123321,1.09375,-1.5625,0.0,0.0,-1.2161172161172158,-5.457875457875458,1.1875,-1.34375,0.0,0.0,-1.363858363858364,-5.53968253968254,1.21875,-1.21875,0.0,-0.7387057387057387,-1.290598290598291,-5.373626373626373,1.03125,-0.84375,0.0,0.0,-0.9316239316239316,-4.1098901098901095,0.75,0.0,0.0,0.0,0.0,-2.7032967032967035,0.5625,0.0,0.0,-0.8351648351648352,0.0,-1.3443223443223444,0.53125,0.0,0.0,0.0,0.0,0.0,0.625,0.0,0.0,0.0,0.0,0.0,0.0,0.0,0.0,0.0,0.0,-0.7203907203907204,0.0,0.0,0.0,-1.0122100122100122,0.5885225885225885,-1.326007326007326,0.0,0.0,0.0,-0.8754578754578755,0.7216117216117216,-1.641025641025641,0.0,0.0,0.0,-0.8473748473748474,0.0,-1.967032967032967,0.0,0.0,0.0,-0.8315018315018315,0.0,-1.9181929181929185,0.0,0.0,0.0,0.0,0.0,-1.8742368742368745,0.0,0.0,0.0,0.0,0.0,-1.6092796092796091,0.0,0.0,0.0,,,,,,,,,,,,,,,,,,,,,,,,,,,,,,,,,,,,,,,,,,,,,,,,,land
accX,0.0,0.0,2.7142857142857144,0.0,-0.5625,0.0,-2.1465201465201464,0.0,3.980463980463981,0.75,0.0,0.0,-1.123321123321123,0.0,5.118437118437118,0.84375,0.0,0.0,-0.6776556776556777,-0.5885225885225885,5.778998778998778,0.875,0.0,0.0,-1.0952380952380951,-0.6654456654456654,5.68009768009768,0.9375,0.0,0.0,-0.6947496947496947,-0.5482295482295483,4.710622710622711,1.09375,0.0,0.0,0.0,0.0,3.611721611721612,1.34375,0.0,0.0,0.8864468864468864,-0.811965811965812,1.8754578754578757,1.53125,0.0,0.0,1.7448107448107448,-1.7191697191697193,0.9352869352869352,1.5,0.0,0.0,1.804639804639805,-1.6141636141636142,1.0231990231990231,1.09375,0.0,0.0,0.0,0.0,1.4676434676434675,0.78125,-0.96875,0.0,-0.6764346764346765,0.0,0.0,1.09375,-1.09375,0.0,0.0,-0.9658119658119658,-1.3699633699633702,1.40625,-1.03125,0.0,0.0,-1.4810744810744811,-2.1245421245421245,0.96875,-1.125,0.0,0.0,-0.9645909645909646,-2.275946275946276,0.75,-1.09375,0.0,-0.5433455433455433,-0.7423687423687424,-2.600732600732601,0.6875,-1.125,0.0,0.0,-0.7118437118437119,-2.0061050061050056,0.625,-1.34375,-0.59375,-1.3040293040293038,0.0,-1.4236874236874235,0.875,-1.15625,0.0,-1.6874236874236874,0.0,-1.0195360195360197,1.1875,-0.8125,0.0,0.0,-0.7704517704517705,-1.4188034188034189,1.46875,-1.03125,0.0,0.5457875457875457,-1.05006105006105,-2.0476190476190474,1.4375,-1.65625,0.0,-1.7863247863247864,-0.7472527472527473,-3.3687423687423688,1.375,-1.5,0.0,-2.155067155067155,-0.5054945054945055,-4.130647130647131,1.3125,-1.0,0.0,0.0,-0.6617826617826618,-4.356532356532357,1.28125,-0.78125,0.0,0.9694749694749696,-1.5189255189255189,-5.04029304029304,0.84375,-0.875,0.0,0.0,-1.843711843711844,-4.920634920634921,0.0,-0.53125,0.0,0.0,-0.8632478632478633,-3.7130647130647128,0.0,0.0,0.0,-1.0549450549450552,0.0,-2.412698412698413,0.0,0.0,0.0,-1.0134310134310134,0.0,-1.1489621489621489,0.0,0.53125,0.0,0.0,0.0,0.0,0.0,0.53125,0.0,0.0,0.0,0.0,0.0,0.0,0.0,-0.8803418803418803,0.0,0.0,0.0,0.0,0.0,-0.6459096459096461,0.0,0.0,0.0,0.0,0.0,0.0,0.0,0.0,0.0,0.0,0.0,-0.6495726495726496,0.0,-1.092796092796093,0.0,0.0,0.0,-1.0268620268620268,-0.5409035409035409,-2.213675213675214,0.0,0.0,0.0,,,,,,,,,,,,,,,,,,,,,,,,,land
accX,0.0,0.0,2.407814407814408,0.53125,0.0,0.0,-0.7533577533577533,-0.7777777777777778,2.9255189255189253,0.84375,0.0,0.0,-1.205128205128205,-0.8070818070818071,3.73015873015873,0.875,0.0,0.0,-0.9462759462759462,-0.9352869352869352,4.904761904761905,0.8125,0.0,0.0,-1.0354090354090355,-0.6166056166056166,5.581196581196581,0.8125,0.0,0.0,-1.0805860805860803,0.0,5.7203907203907205,1.0,0.0,0.0,-1.4297924297924298,0.0,4.706959706959707,1.3125,0.0,0.0,-1.0134310134310134,0.0,3.407814407814408,1.75,0.0,0.0,0.0,0.0,1.4810744810744811,2.0625,0.0,0.59375,1.6605616605616609,-1.2258852258852257,0.0,1.90625,0.0,0.0,1.728937728937729,-1.31013431013431,0.0,1.53125,-0.96875,0.0,0.0,-0.7802197802197802,0.0,1.34375,-1.15625,0.0,-0.7228327228327228,0.0,0.0,1.3125,-1.0,0.0,0.0,-2.547008547008547,-1.4395604395604396,1.59375,-1.09375,0.0,0.0,-2.7338217338217334,-2.393162393162393,0.9375,-1.5625,-0.59375,-1.3492063492063493,-0.7753357753357754,-1.4285714285714286,0.0,-1.65625,-0.84375,-1.9145299145299144,0.0,-0.5811965811965812,0.65625,-1.5,-0.71875,-1.1318681318681318,-0.5555555555555556,-0.6324786324786325,1.1875,-1.34375,-0.53125,-0.5225885225885226,-2.1367521367521367,-1.7875457875457876,1.40625,-1.5625,0.0,0.0,-1.6935286935286935,-2.4004884004884004,1.21875,-1.6875,-0.625,0.0,-1.9768009768009769,-3.1746031746031744,1.125,-1.71875,-0.78125,0.0,-0.9047619047619048,-3.627594627594628,1.0,-1.8125,-0.90625,-1.2808302808302807,0.0,-4.476190476190476,1.125,-1.5,-0.75,-0.8595848595848596,0.0,-5.395604395604397,1.28125,-0.78125,0.0,0.0,-0.8840048840048841,-5.443223443223443,0.8125,0.0,0.0,0.0,-1.092796092796093,-4.903540903540903,0.0,0.0,0.0,0.0,-0.8913308913308914,-3.791208791208791,0.0,0.0,0.0,0.0,-0.5860805860805861,-2.0427350427350426,0.0,0.0,0.0,0.0,0.0,-0.5921855921855922,0.0,0.0,0.0,0.0,0.0,0.0,0.0,0.0,0.0,-1.0293040293040292,0.5860805860805861,0.5238095238095238,0.0,0.0,0.0,-1.1111111111111112,0.514041514041514,0.0,0.0,0.0,0.0,-1.017094017094017,0.0,0.0,0.0,0.0,0.0,-0.8021978021978022,0.0,-0.8608058608058609,0.0,0.0,0.0,-1.0231990231990231,0.0,-1.358974358974359,0.0,0.0,0.0,,,,,,,,,,,,,,,,,,,,,,,,,,,,,,,land
accX,0.0,0.0,3.852258852258852,0.78125,-0.5625,0.0,-1.017094017094017,0.0,4.183150183150183,1.09375,-0.65625,0.0,-1.7387057387057387,-0.9328449328449328,4.7313797313797314,1.125,0.0,0.0,-1.2210012210012209,-0.6446886446886447,4.724053724053724,1.09375,0.0,0.0,0.0,-0.6935286935286935,4.365079365079366,1.03125,0.0,0.0,0.6166056166056166,0.0,3.940170940170941,1.0625,-0.5625,0.0,0.0,0.0,2.5665445665445668,1.3125,-0.71875,0.0,0.0,0.0,1.1514041514041513,1.6875,-0.5625,0.0,0.0,-0.7948717948717948,-0.6593406593406593,2.0625,0.0,0.0,1.9181929181929185,-1.8424908424908424,-0.5494505494505495,1.75,0.0,0.0,1.5335775335775337,-1.31013431013431,0.7948717948717948,1.0,-0.8125,0.0,-1.1465201465201464,0.0,1.8107448107448108,0.96875,-1.3125,-0.53125,-2.0146520146520146,0.0,1.275946275946276,1.53125,-1.21875,0.0,-1.0647130647130647,-1.2893772893772897,0.0,2.09375,-1.375,0.0,-0.7252747252747253,-2.8937728937728937,-2.409035409035409,1.84375,-1.53125,0.0,0.0,-3.0976800976800978,-3.3443223443223444,1.40625,-1.84375,0.0,0.0,-1.8119658119658117,-3.5677655677655684,1.53125,-2.03125,0.0,0.0,-2.4993894993894994,-5.251526251526252,1.53125,-1.9375,0.0,-1.4664224664224663,-2.7264957264957266,-6.455433455433456,1.125,-1.5,0.0,-1.5409035409035412,-1.6691086691086692,-6.153846153846153,0.84375,-1.0,0.0,-1.7655677655677655,-1.1245421245421243,-5.36019536019536,0.78125,0.0,0.0,-2.094017094017094,-0.8107448107448108,-3.9462759462759465,0.78125,0.0,0.625,-0.5396825396825397,-1.0671550671550671,-2.275946275946276,0.75,0.71875,0.75,2.7753357753357752,-2.37973137973138,-1.286935286935287,0.0,0.0,0.0,1.398046398046398,-1.2564102564102564,-0.6410256410256411,0.0,-0.78125,0.0,-1.3089133089133091,0.6691086691086691,-0.8083028083028083,0.0,0.0,0.0,-0.5787545787545788,0.0,-0.94993894993895,0.0,0.0,0.0,0.0,0.0,-0.5091575091575091,0.0,0.0,0.0,0.0,0.0,0.0,0.0,0.0,0.0,0.0,0.0,-0.6703296703296703,0.0,0.0,0.0,0.0,0.0,-0.9645909645909646,0.0,0.0,0.0,0.5738705738705738,-0.8363858363858364,-1.7826617826617828,0.0,0.0,0.0,0.0,-0.7655677655677655,-2.144078144078144,0.0,0.0,0.0,0.0,-0.7387057387057387,-2.3687423687423688,0.0,0.0,0.0,-0.8083028083028083,-0.6874236874236874,-2.495726495726496,0.0,0.53125,0.0,-0.6898656898656899,-0.7557997557997558,-2.1184371184371185,0.0,0.84375,0.0,,,,,,,,,,,,,,,,,,,,,,,,,land
accX,0.0,0.0,1.4529914529914532,0.6875,0.0,0.0,0.0,-0.8913308913308914,1.4493284493284493,0.6875,0.0,0.0,0.0,0.0,2.5067155067155067,0.5625,0.0,0.0,-0.6312576312576312,0.0,4.023199023199023,0.0,0.0,0.0,-1.175824175824176,0.7606837606837606,5.540903540903541,0.0,0.0,0.0,-1.1086691086691087,0.9584859584859584,6.429792429792429,0.625,0.0,0.0,-0.7619047619047619,0.0,6.3015873015873005,0.75,0.0,0.0,-1.020757020757021,0.0,5.501831501831502,1.0,-0.5625,0.0,-0.9548229548229548,0.0,4.075702075702075,1.28125,-0.65625,0.0,0.0,-0.518925518925519,1.912087912087912,1.5,-0.8125,0.0,-0.6825396825396826,-1.1257631257631258,0.0,1.5,-0.84375,0.0,0.0,-1.387057387057387,-0.7692307692307693,1.4375,-0.59375,0.0,0.0,-1.7643467643467643,-1.2722832722832722,1.28125,-0.625,0.0,0.0,-1.5177045177045176,-1.4407814407814408,1.25,-0.75,0.0,0.0,-1.266178266178266,-1.6288156288156288,1.25,-0.78125,0.0,0.0,-1.9352869352869355,-2.087912087912088,0.9375,-1.375,0.0,-0.6117216117216118,-1.3345543345543345,-2.131868131868132,0.90625,-1.59375,-0.53125,-1.431013431013431,0.0,-2.0744810744810747,1.09375,-1.59375,0.0,-1.896214896214896,0.0,-2.483516483516484,1.5,-1.3125,0.0,-0.8669108669108669,-0.9487179487179488,-3.553113553113553,1.65625,-1.03125,0.0,0.0,-1.290598290598291,-4.191697191697192,1.375,-1.21875,0.0,0.0,-1.2686202686202686,-4.514041514041514,1.0,-1.5,0.0,-0.7179487179487181,-0.5653235653235653,-4.481074481074482,0.78125,-1.21875,0.0,-0.5738705738705738,-0.5567765567765568,-4.390720390720391,0.8125,0.0,0.0,0.0,-1.5054945054945057,-4.4041514041514045,0.6875,0.0,0.0,0.7753357753357754,-1.1282051282051282,-3.2429792429792434,0.0,0.0,0.0,0.0,0.0,-1.9609279609279608,0.0,0.0,0.0,-0.9511599511599512,0.0,0.0,0.0,0.0,0.0,0.0,0.0,0.0,0.0,0.0,0.0,0.6398046398046398,0.0,0.0,0.0,0.0,0.0,0.0,0.0,0.0,0.0,0.0,0.0,0.0,0.0,-0.6129426129426129,0.0,0.0,0.0,0.0,0.0,-0.9621489621489622,0.0,0.0,0.0,0.0,0.0,-1.4590964590964588,0.0,0.0,0.0,-0.6239316239316239,0.0,-2.0573870573870567,0.0,0.0,0.0,,,,,,,,,,,,,,,,,,,,,,,,,,,,,,,land
accX,-1.84004884004884,0.0,4.611721611721611,0.84375,0.0,0.0,-1.8742368742368745,0.0,5.433455433455434,1.125,0.0,0.0,-1.2503052503052503,0.0,5.647130647130648,1.375,0.0,0.0,-0.5006105006105006,0.0,5.374847374847374,1.4375,-0.59375,0.0,0.0,0.0,4.826617826617826,1.625,-0.65625,0.0,-0.7387057387057387,0.0,3.8083028083028077,1.625,0.0,0.0,1.133089133089133,-1.7692307692307692,1.442002442002442,1.34375,0.0,0.0,1.0073260073260073,-1.031746031746032,0.6642246642246642,1.25,-0.75,0.0,0.0,-1.0891330891330893,0.0,1.375,-0.84375,0.0,0.0,-1.6092796092796091,-0.8424908424908425,1.3125,-0.8125,0.0,0.0,-1.735042735042735,-1.78998778998779,1.03125,-0.8125,0.0,0.0,-0.7350427350427351,-1.8266178266178263,0.875,-1.0625,0.0,-0.9743589743589745,-0.8754578754578755,-1.9291819291819288,0.875,-1.1875,0.0,-1.9047619047619049,0.0,-1.3028083028083028,0.8125,-1.21875,0.0,-2.1794871794871797,-0.8913308913308914,-1.2991452991452992,1.03125,-1.0,0.0,-1.3137973137973138,-1.5641025641025639,-1.6825396825396826,1.15625,-0.78125,0.0,0.0,-2.0061050061050056,-2.21001221001221,1.125,-1.0,0.0,0.0,-1.6654456654456655,-2.4920634920634916,1.25,-1.15625,0.0,0.0,-1.8937728937728937,-3.231990231990232,1.28125,-0.84375,0.0,0.0,-1.7448107448107448,-3.715506715506716,1.28125,-0.6875,0.0,1.0,-1.641025641025641,-4.27960927960928,1.125,-0.8125,0.0,0.0,-1.0757020757020757,-4.5177045177045185,0.9375,-0.78125,0.0,0.0,-0.6373626373626373,-4.38949938949939,0.75,0.0,0.0,-0.8547008547008547,0.0,-3.2954822954822958,0.65625,0.0,0.0,0.0,-0.6837606837606838,-1.953601953601953,0.5625,0.0,0.0,0.0,0.0,-0.9450549450549449,0.0,0.0,0.0,-1.105006105006105,0.0,-0.7875457875457875,0.0,0.0,0.0,-1.636141636141636,0.0,-1.0231990231990231,0.0,0.0,0.0,-1.2112332112332111,0.5604395604395604,-0.9169719169719168,0.0,0.0,0.0,0.0,0.0,-1.1318681318681318,0.0,0.0,0.0,0.0,-0.514041514041514,-1.4981684981684982,0.0,0.0,0.0,0.0,0.0,-1.5054945054945057,0.0,0.0,0.0,0.0,-0.5286935286935287,-1.608058608058608,0.0,0.0,0.0,0.0,-0.6483516483516484,-1.6312576312576312,0.0,0.59375,0.0,0.0,-0.9267399267399268,-2.1416361416361416,0.0,0.625,0.0,0.0,-1.105006105006105,-3.1001221001221,0.0,0.5625,0.0,,,,,,,,,,,,,,,,,,,,,,,,,land
accX,-0.9694749694749696,0.0,4.249084249084248,0.78125,0.0,0.0,-1.525030525030525,0.0,5.0317460317460325,0.9375,0.0,0.0,-1.7728937728937728,0.0,5.6813186813186825,1.09375,0.0,0.0,-1.0586080586080586,0.0,5.8901098901098905,1.21875,0.0,0.0,-0.7692307692307693,0.0,5.5103785103785095,1.375,0.0,0.0,-0.6715506715506715,0.0,4.599511599511598,1.5,-0.65625,0.0,-0.7338217338217338,-0.5201465201465202,2.829059829059829,1.6875,0.0,0.0,0.0,-0.5311355311355311,0.6361416361416361,1.8125,0.0,0.0,0.0,-0.8302808302808303,0.0,1.71875,0.0,0.0,1.021978021978022,-2.05982905982906,-0.8302808302808303,1.15625,-0.9375,0.0,0.5531135531135531,-1.061050061050061,0.0,0.8125,-1.40625,0.0,-0.9267399267399268,0.0,0.0,1.15625,-1.34375,0.0,-1.9169719169719168,0.0,-0.7741147741147741,1.5625,-1.0625,0.0,-1.4981684981684982,-1.336996336996337,-2.3638583638583643,1.53125,-0.96875,0.0,0.0,-1.7728937728937728,-2.9255189255189253,1.0625,-1.375,0.0,-1.3577533577533578,-1.9145299145299144,-3.207570207570208,0.625,-1.4375,0.0,-1.0805860805860803,-0.8473748473748474,-2.299145299145299,0.75,-1.375,0.0,0.0,-0.9133089133089132,-2.15995115995116,1.15625,-1.375,0.0,0.0,-1.7203907203907205,-3.611721611721612,1.125,-1.21875,0.0,1.0268620268620268,-2.1086691086691087,-4.556776556776557,1.0625,-1.09375,0.0,1.1147741147741148,-1.247863247863248,-4.6800976800976795,0.8125,-1.03125,0.0,0.6556776556776557,-0.5518925518925519,-4.637362637362638,0.78125,-0.6875,0.0,0.0,-0.7277167277167277,-4.354090354090353,0.71875,0.0,0.0,0.0,-1.7130647130647132,-3.0903540903540905,0.0,0.0,0.0,0.0,0.0,-0.6410256410256411,0.0,0.0,0.0,0.0,0.525030525030525,0.5860805860805861,0.0,0.0,0.0,0.0,0.6532356532356532,0.0,0.0,0.0,0.0,-0.7081807081807082,0.0,0.0,0.53125,0.0,0.0,-0.6178266178266179,0.0,-1.4212454212454213,0.0,0.0,0.0,-0.5775335775335775,0.0,-1.442002442002442,0.0,0.0,0.0,-0.6837606837606838,0.0,-1.2210012210012209,0.0,0.0,0.0,-0.5738705738705738,0.0,-1.15995115995116,0.0,0.0,0.0,0.0,-0.5103785103785103,-1.2026862026862026,0.0,0.0,0.0,0.0,-0.7948717948717948,-1.3540903540903542,0.0,0.0,0.0,0.0,-0.6923076923076923,-1.5335775335775337,0.0,0.0,0.0,-0.8705738705738706,0.0,-1.6715506715506716,0.0,0.0,0.0,-0.9975579975579976,0.0,-2.263736263736264,0.0,0.71875,0.0,,,,,,,,,,,,,,,,,,,land
accX,-1.0989010989010992,0.0,3.7472527472527473,0.59375,0.0,0.0,-1.188034188034188,0.0,5.373626373626373,0.625,0.0,0.0,-0.7936507936507936,0.5347985347985348,6.553113553113552,0.9375,0.0,0.0,-1.31990231990232,0.6178266178266179,6.678876678876679,1.28125,0.0,0.0,-0.8302808302808303,0.0,5.594627594627593,1.46875,0.0,0.0,-0.9169719169719168,0.0,3.8656898656898657,1.625,0.0,0.0,-0.7057387057387058,-0.9987789987789988,1.4566544566544566,1.59375,0.0,0.0,0.7350427350427351,-1.6752136752136753,0.0,1.28125,0.0,0.0,1.4700854700854702,-1.68009768009768,0.0,0.78125,-0.90625,0.0,0.0,-1.028083028083028,0.5885225885225885,0.75,-1.1875,0.0,0.0,-1.1001221001221002,0.0,0.9375,-1.375,0.0,0.0,-1.7008547008547008,-1.8144078144078144,0.90625,-1.53125,-0.59375,-0.5787545787545788,-1.5238095238095235,-2.3076923076923075,0.6875,-1.5625,-0.71875,-0.63003663003663,-0.6410256410256411,-1.5115995115995116,0.0,-1.625,-0.71875,-0.9145299145299144,0.0,-1.120879120879121,0.71875,-1.625,-0.75,-1.3553113553113554,0.0,-1.534798534798535,1.125,-1.46875,-0.65625,-0.8498168498168498,-1.4285714285714286,-2.5445665445665444,1.46875,-1.28125,0.0,-0.6617826617826618,-1.531135531135531,-3.2222222222222223,1.46875,-1.28125,0.0,-0.8522588522588522,-1.2222222222222223,-3.686202686202686,1.34375,-1.25,0.0,0.0,-1.647130647130647,-4.266178266178266,1.40625,-1.0625,0.0,0.0,-1.3162393162393162,-4.334554334554333,1.0,-1.21875,0.0,-0.8620268620268621,-1.0195360195360197,-4.7594627594627585,0.875,-0.84375,0.0,-0.9584859584859584,-0.8156288156288156,-4.91941391941392,0.6875,0.0,0.0,-0.6935286935286935,-1.0842490842490842,-4.658119658119658,0.0,0.0,0.0,-0.5152625152625152,-0.7411477411477412,-3.3272283272283274,0.0,0.0,0.0,-0.7509157509157509,0.0,-1.73992673992674,0.0,0.0,0.0,-0.6385836385836385,0.6495726495726496,0.0,0.0,0.0,0.0,0.0,0.0,0.0,0.0,0.0,0.0,0.0,0.0,0.5677655677655677,0.0,0.0,0.0,0.0,0.0,0.0,0.0,0.0,0.0,0.0,0.0,0.0,0.0,0.0,0.0,0.0,0.0,-0.6617826617826618,0.0,0.0,0.0,0.0,-1.092796092796093,-2.199023199023199,0.0,0.0,0.0,0.0,-1.0305250305250304,-2.9914529914529915,0.0,0.59375,0.0,,,,,,,,,,,,,,,,,,,,,,,,,,,,,,,,,,,,,land
accX,-1.9706959706959708,0.0,4.800976800976801,0.78125,0.0,0.0,-1.0476190476190477,0.0,5.808302808302808,0.84375,0.0,0.0,-0.7338217338217338,0.0,6.528693528693529,0.90625,0.0,0.0,-1.463980463980464,0.0,6.0927960927960925,1.125,-0.875,0.0,-1.5518925518925517,0.0,4.3931623931623935,1.28125,-0.71875,0.0,0.0,0.0,2.7326007326007327,1.4375,0.0,0.0,0.9377289377289376,-0.9951159951159952,1.0451770451770452,1.53125,0.0,0.0,0.7179487179487181,-0.9731379731379732,0.0,1.375,-0.78125,0.0,0.0,-0.5164835164835165,0.0,1.3125,-0.90625,0.0,0.0,-1.083028083028083,-0.5787545787545788,1.5,-0.84375,0.0,0.7765567765567766,-1.9084249084249083,-0.9267399267399268,1.375,-1.1875,0.0,-0.7472527472527473,-0.7216117216117216,-1.4114774114774116,1.375,-1.59375,0.0,-2.2722832722832718,-0.9536019536019535,-2.8083028083028077,1.625,-1.0625,0.0,-1.887667887667888,-0.9792429792429792,-3.36019536019536,1.6875,-0.6875,0.0,0.7387057387057387,-2.3736263736263736,-3.7960927960927964,1.3125,-1.25,0.0,0.0,-2.1184371184371185,-3.8376068376068377,0.875,-1.78125,0.0,-1.3882783882783882,-1.123321123321123,-3.507936507936508,0.875,-1.40625,0.0,-1.0293040293040292,-0.8498168498168498,-3.1465201465201464,1.125,-0.96875,0.0,0.8852258852258852,-1.9059829059829057,-3.216117216117216,1.09375,-1.0,0.0,1.26007326007326,-2.1001221001221,-3.52991452991453,0.8125,-1.25,0.0,0.0,-1.4432234432234432,-3.8351648351648353,0.59375,-1.03125,0.0,0.0,-0.7301587301587301,-3.5592185592185586,0.53125,0.0,0.0,0.0,0.0,-2.6666666666666665,0.5625,0.0,0.0,0.0,-0.6556776556776557,-1.5848595848595848,0.0,0.0,0.0,-0.6166056166056166,0.0,-1.0476190476190477,0.0,0.0,0.0,-1.031746031746032,0.0,0.0,0.0,0.0,0.0,-1.1013431013431014,0.0,0.0,0.0,0.0,0.0,-0.6788766788766789,0.0,-0.8107448107448108,0.0,0.0,0.0,0.0,0.0,-1.1831501831501832,0.0,0.0,0.0,0.0,0.0,-1.1013431013431014,0.0,0.0,0.0,0.0,0.0,-1.1904761904761905,0.0,0.0,0.0,0.0,0.0,-1.2319902319902318,0.0,0.0,0.0,0.0,-0.7289377289377289,-1.7838827838827842,0.0,0.0,0.0,0.0,-0.8595848595848596,-2.399267399267399,0.0,0.0,0.0,,,,,,,,,,,,,,,,,,,,,,,,,,,,,,,,,,,,,land
accX,-1.434676434676435,0.0,4.841269841269841,0.59375,0.0,0.0,-1.3614163614163617,-0.5238095238095238,5.4884004884004876,0.75,0.0,0.0,-0.7704517704517705,0.0,5.936507936507938,0.8125,0.0,0.0,-0.8302808302808303,0.0,5.638583638583639,0.90625,0.0,0.0,0.0,0.0,4.328449328449328,1.21875,0.0,0.0,0.0,0.0,2.418803418803418,1.53125,0.0,0.0,1.05006105006105,-1.1001221001221002,0.7973137973137974,1.4375,0.0,0.0,1.5384615384615383,-1.5567765567765568,0.0,1.03125,0.0,0.0,1.7472527472527473,-1.290598290598291,0.5128205128205128,0.71875,-0.78125,0.0,0.7387057387057387,-0.6092796092796092,1.1721611721611722,0.78125,-1.03125,0.0,0.0,0.0,0.0,1.40625,-0.78125,0.0,-0.7155067155067155,-0.9304029304029304,-1.6434676434676434,1.8125,0.0,0.0,0.0,-1.8058608058608057,-2.706959706959707,1.59375,0.0,0.0,0.0,-1.9792429792429795,-2.095238095238096,1.25,0.0,0.0,0.0,-1.0769230769230769,-0.984126984126984,1.21875,0.0,0.0,-0.6153846153846154,-0.6336996336996337,-0.7277167277167277,1.71875,0.0,0.0,-0.5433455433455433,-2.3492063492063493,-1.8778998778998781,1.875,-0.84375,0.0,0.0,-2.5457875457875456,-3.102564102564102,1.71875,-1.21875,0.0,0.0,-2.383394383394384,-4.0976800976800964,1.40625,-1.4375,0.0,-0.6410256410256411,-1.9511599511599511,-4.655677655677657,1.03125,-1.5625,0.0,-1.0354090354090355,-1.192918192918193,-4.561660561660561,0.78125,-1.4375,0.0,-1.4065934065934067,-0.8315018315018315,-4.0976800976800964,0.75,-0.9375,0.0,-0.9267399267399268,-1.1477411477411477,-3.7399267399267404,0.75,0.0,0.0,0.0,-1.2881562881562882,-3.102564102564102,0.59375,0.0,0.0,0.0,-0.978021978021978,-2.0659340659340657,0.0,0.0,0.53125,0.0,-0.6971916971916972,-1.2283272283272284,0.0,0.0,0.0,0.0,0.0,-0.5811965811965812,0.0,0.0,0.0,0.0,0.0,-0.5372405372405372,0.0,0.0,0.0,0.0,0.0,0.0,0.0,0.0,0.0,0.0,0.0,0.0,0.0,0.0,0.0,0.0,0.0,-0.5946275946275946,0.0,0.0,0.0,0.0,0.0,-0.9511599511599512,0.0,0.0,0.0,0.0,0.0,-1.462759462759463,0.0,0.0,0.0,0.0,-0.8534798534798534,-2.2722832722832718,0.0,0.0,0.0,,,,,,,,,,,,,,,,,,,,,,,,,,,,,,,,,,,,,land
accX,0.0,0.0,2.029304029304029,0.0,-0.53125,0.0,-2.189255189255189,0.0,1.948717948717949,0.0,0.0,0.0,-1.1147741147741148,0.0,3.5494505494505493,0.0,0.625,0.0,0.0,0.0,5.747252747252747,0.0,0.0,0.0,0.0,0.989010989010989,6.625152625152626,0.0,0.0,0.0,-1.4468864468864469,1.332112332112332,6.82051282051282,0.8125,-0.5625,0.0,-1.6214896214896215,0.6874236874236874,5.455433455433456,1.3125,0.0,0.0,-1.1843711843711844,0.0,3.2283272283272284,1.40625,0.0,0.0,0.0,-0.7448107448107448,1.678876678876679,1.3125,0.0,0.0,1.2063492063492065,-1.1636141636141637,1.0708180708180708,1.09375,-0.65625,0.0,0.5653235653235653,-0.7435897435897436,1.4322344322344325,1.0625,-1.03125,0.0,-1.3724053724053724,-0.9816849816849816,-0.7020757020757019,1.90625,-0.6875,0.0,0.6410256410256411,-3.216117216117216,-2.7997557997558,1.90625,0.0,0.0,1.0256410256410255,-2.9023199023199022,-2.440781440781441,1.09375,-0.96875,0.0,-0.6324786324786325,-1.3284493284493284,-1.26007326007326,0.6875,-1.28125,0.0,-1.4236874236874235,0.0,-0.5592185592185592,1.0,-1.125,0.0,-1.2820512820512822,-0.9694749694749696,-1.1025641025641026,1.625,-0.875,0.0,0.5775335775335775,-3.120879120879121,-2.652014652014652,1.75,-0.90625,0.0,0.0,-3.1001221001221,-3.1965811965811968,1.15625,-1.46875,0.0,0.0,-1.4004884004884004,-3.2148962148962146,0.875,-1.71875,0.0,-0.8021978021978022,-0.8669108669108669,-3.710622710622711,1.15625,-1.46875,0.0,0.0,-1.5995115995115996,-4.786324786324786,1.40625,-1.09375,0.0,1.5213675213675213,-3.3553113553113554,-6.065934065934067,0.5625,-1.15625,-0.59375,0.0,-1.8070818070818069,-5.769230769230768,0.0,-1.0625,-0.71875,0.0,0.0,-4.525030525030525,0.0,0.0,-0.625,-0.5311355311355311,0.0,-3.2661782661782666,0.0,0.0,0.0,-0.9572649572649572,0.0,-1.5006105006105006,0.0,0.0,0.0,-0.7081807081807082,0.0,0.0,0.0,0.0,0.0,-0.8986568986568987,0.0,1.1391941391941391,0.0,0.0,0.0,-0.9438339438339438,0.6349206349206349,1.177045177045177,0.0,0.0,0.0,-0.9829059829059827,0.6593406593406593,0.8095238095238095,0.0,0.0,0.0,-0.6263736263736264,0.0,0.0,0.0,0.0,0.0,0.0,0.0,-0.6520146520146519,0.0,0.0,0.0,0.0,-0.6178266178266179,-1.1416361416361416,0.0,0.0,0.0,0.0,-0.6385836385836385,-1.709401709401709,0.0,0.0,0.0,0.0,-0.8559218559218559,-2.294261294261294,0.0,0.0,0.0,,,,,,,,,,,,,,,,,,,,,,,,,land
accX,-0.9096459096459096,0.0,2.6996336996337003,0.0,0.0,0.0,-0.8669108669108669,0.0,4.024420024420024,0.0,0.0,0.0,-0.9523809523809524,1.5067155067155067,5.638583638583639,0.71875,0.0,0.0,-0.5042735042735043,1.192918192918193,6.384615384615384,1.0,0.0,0.0,-0.9230769230769232,0.0,6.018315018315017,1.125,0.0,0.0,-1.5299145299145298,0.0,4.987789987789989,1.09375,0.0,0.0,0.0,-0.6043956043956044,2.13064713064713,1.5625,0.0,0.53125,1.9413919413919412,-2.5775335775335777,0.0,1.625,0.0,0.0,0.0,-2.514041514041514,-0.5873015873015873,1.125,-1.15625,0.0,-1.5506715506715507,-0.9389499389499391,0.0,0.84375,-1.03125,0.0,-1.4615384615384617,0.0,-0.7973137973137974,1.28125,-0.625,0.0,0.0,-1.4273504273504274,-2.1697191697191696,1.75,0.0,0.0,1.4175824175824177,-2.5433455433455427,-2.768009768009768,1.4375,-0.84375,0.0,-0.7912087912087912,-2.0781440781440783,-2.888888888888889,0.78125,-1.5625,0.0,-1.5042735042735045,0.0,-2.7704517704517704,0.625,-1.4375,-0.5625,-0.9633699633699634,0.0,-3.2771672771672766,1.03125,-1.125,0.0,0.0,-0.8754578754578755,-4.013431013431013,1.34375,-0.9375,0.0,0.8253968253968254,-1.6727716727716728,-4.4163614163614175,0.96875,-0.875,0.0,1.2637362637362637,-1.5274725274725274,-4.0366300366300365,0.71875,-0.90625,0.0,0.989010989010989,-1.2967032967032968,-3.5396825396825395,0.65625,-0.8125,0.0,0.5494505494505495,-1.1172161172161172,-2.9975579975579976,0.65625,-0.71875,0.0,0.0,-0.8827838827838828,-2.716727716727717,0.625,0.0,0.0,-0.5885225885225885,-0.7387057387057387,-1.9133089133089132,0.0,0.0,0.0,-0.5225885225885226,-0.6532356532356532,-1.2173382173382172,0.0,0.0,0.0,-0.5115995115995116,0.0,0.0,0.0,0.0,0.0,-0.503052503052503,0.0,0.0,0.59375,0.0,0.0,0.0,-0.7606837606837606,-1.092796092796093,0.0,0.0,0.0,0.5409035409035409,-0.73992673992674,-1.195360195360195,0.0,0.0,0.0,0.0,0.0,-1.1746031746031746,0.0,0.0,0.0,0.0,0.0,-1.7203907203907205,0.0,0.0,0.0,0.0,-0.5103785103785103,-1.876678876678877,0.0,0.0,0.0,0.0,-0.6178266178266179,-1.8217338217338217,0.0,0.0,0.0,0.0,-0.5103785103785103,-1.5604395604395604,0.0,0.0,0.0,0.0,-0.5787545787545788,-1.5189255189255189,0.0,0.0,0.0,0.0,0.0,-1.8376068376068373,0.0,0.5625,0.0,,,,,,,,,,,,,,,,,,,,,,,,,,,,,,,land
accX,-1.6227106227106227,0.0,5.096459096459097,0.53125,0.0,0.0,-2.483516483516484,0.0,5.390720390720391,0.6875,0.0,0.0,-1.3650793650793651,0.0,6.157509157509158,0.96875,0.0,0.0,-1.1514041514041513,0.0,6.0317460317460325,1.1875,0.0,0.0,-0.6043956043956044,0.0,4.87057387057387,1.3125,0.0,0.0,0.0,-0.706959706959707,3.2576312576312576,1.21875,0.0,0.0,0.6495726495726496,-0.8852258852258852,2.642246642246642,1.0625,0.0,0.0,1.103785103785104,-0.5592185592185592,2.4505494505494507,1.0625,0.0,0.0,1.1306471306471306,-0.663003663003663,1.028083028083028,1.34375,0.0,0.0,1.7606837606837606,-1.5604395604395604,0.0,1.75,-0.53125,0.0,1.557997557997558,-2.4517704517704515,-1.636141636141636,1.6875,-0.6875,0.0,1.5592185592185592,-2.481074481074481,-1.6166056166056166,1.03125,-1.0,-0.59375,0.0,-1.051282051282051,-0.6202686202686203,1.1875,-1.25,-0.90625,-1.2075702075702075,-0.5934065934065934,-0.7765567765567766,1.65625,-1.25,-1.03125,-1.9181929181929185,-1.0488400488400489,-3.523809523809524,1.96875,-0.78125,-0.875,0.0,-2.208791208791209,-6.203907203907204,1.59375,-0.75,-0.5625,1.5470085470085468,-2.505494505494505,-6.4493284493284495,0.71875,-1.40625,-0.6875,0.0,-1.1062271062271063,-5.452991452991453,0.0,-1.375,-0.8125,-1.2539682539682542,0.0,-4.339438339438339,0.6875,-0.84375,0.0,-1.0866910866910866,0.0,-3.3089133089133087,0.96875,0.0,0.0,0.0,-1.3772893772893773,-2.6202686202686203,0.8125,-0.53125,0.0,0.0,-1.8168498168498168,-1.286935286935287,0.0,-0.9375,0.0,-0.6080586080586079,0.0,0.0,0.0,-0.96875,0.0,-0.6117216117216118,0.0,0.0,0.875,-0.875,0.0,-0.8400488400488401,-0.9462759462759462,-1.3174603174603174,1.0,-0.59375,0.0,0.0,-1.3540903540903542,-2.0903540903540905,0.71875,0.0,0.0,0.0,-1.0036630036630036,-1.9792429792429795,0.0,0.0,0.0,0.0,0.0,-1.6068376068376071,0.0,0.0,0.0,0.0,0.0,-1.5934065934065933,0.0,0.0,0.0,0.0,-0.8571428571428571,-1.9548229548229548,0.0,0.0,0.0,0.0,-0.9181929181929182,-1.9096459096459095,0.0,0.0,0.0,0.0,-0.6361416361416361,-1.4175824175824177,0.0,0.0,0.0,0.0,0.0,-0.9304029304029304,0.0,0.0,0.0,0.0,0.0,-0.9853479853479854,0.0,0.0,0.0,0.0,0.0,-1.3882783882783882,0.0,0.0,0.0,-0.7509157509157509,-0.7985347985347986,-2.1819291819291817,0.0,0.0,0.0,,,,,,,,,,,,,,,,,,,,,,,,,land
accX,-1.6117216117216118,0.0,4.825396825396825,0.78125,0.0,0.0,-1.4053724053724053,0.0,4.565323565323566,1.0625,0.0,0.0,-0.9865689865689866,0.0,4.461538461538462,1.09375,0.0,0.0,-0.5384615384615384,0.0,4.808302808302808,1.03125,0.0,0.0,0.0,0.0,4.837606837606837,1.15625,0.0,0.0,0.0,-0.5787545787545788,4.095238095238095,1.3125,0.0,0.0,0.0,-1.0122100122100122,1.984126984126984,1.5,-0.90625,0.0,0.0,-1.103785103785104,-0.6556776556776557,1.625,-0.625,0.0,0.6373626373626373,-1.4981684981684982,-3.003663003663004,1.5625,0.0,0.0,2.3492063492063493,-2.068376068376069,-3.189255189255189,1.28125,0.0,0.0,2.021978021978022,-1.7362637362637363,-2.1868131868131866,0.96875,-0.59375,0.0,0.0,-0.7997557997557998,-1.4810744810744811,0.90625,-0.625,0.0,-1.4004884004884004,0.0,-0.6202686202686203,1.03125,0.0,0.0,-0.8388278388278388,0.0,0.5628815628815629,1.34375,-0.53125,0.0,0.0,-1.21001221001221,0.6446886446886447,1.3125,-1.28125,0.0,0.0,-1.166056166056166,0.0,1.28125,-1.78125,-1.0,-1.5006105006105006,-0.6398046398046398,-0.7838827838827839,1.375,-1.8125,-1.03125,-2.32967032967033,0.0,-1.7155067155067154,1.71875,-1.65625,0.0,-1.21001221001221,-1.3565323565323566,-4.15995115995116,1.875,-1.3125,0.0,0.0,-2.294261294261294,-5.0866910866910855,1.46875,-1.4375,0.0,0.0,-2.148962148962149,-5.628815628815629,0.9375,-1.59375,0.0,0.0,-1.3162393162393162,-5.503052503052503,0.5625,-1.3125,0.0,0.0,-0.9951159951159952,-5.075702075702075,0.0,-0.59375,0.0,0.0,-1.4102564102564104,-4.550671550671551,0.0,0.0,0.0,0.8302808302808303,-1.6324786324786325,-2.971916971916972,0.0,0.78125,0.5625,0.978021978021978,-0.7667887667887668,-0.6862026862026862,0.0,0.65625,0.0,0.0,0.0,0.7423687423687424,0.0,0.0,0.0,-0.8534798534798534,0.5616605616605617,0.8424908424908425,0.0,0.0,0.0,-1.061050061050061,0.5372405372405372,0.0,0.0,0.0,0.0,-1.0451770451770452,0.0,0.0,0.0,0.0,0.0,-0.7814407814407814,0.0,-0.7643467643467643,0.0,0.0,0.0,0.0,0.0,-0.9365079365079364,0.0,0.0,0.0,0.0,-0.6410256410256411,-0.9523809523809524,0.0,0.0,0.0,0.0,-1.1282051282051282,-1.3492063492063493,0.0,0.0,0.0,0.0,-0.9218559218559218,-1.5103785103785103,0.0,0.0,0.0,0.0,-0.8156288156288156,-1.6300366300366298,0.0,0.625,0.0,,,,,,,,,,,,,,,,,,,,,,,,,land
accX,-1.266178266178266,0.0,5.157509157509158,1.4375,-0.625,0.0,-1.1294261294261294,0.0,4.074481074481073,1.375,0.0,0.0,0.0,0.0,3.6507936507936503,1.4375,0.0,0.0,0.0,0.0,3.148962148962149,1.53125,0.0,0.0,0.0,-0.9853479853479854,2.687423687423687,1.46875,-0.65625,0.0,0.0,-1.0879120879120878,1.8669108669108667,1.5625,-0.9375,0.0,0.7277167277167277,-1.2844932844932846,-0.9487179487179488,1.9375,-1.25,0.0,0.0,-2.4786324786324787,-3.9670329670329667,1.8125,-0.9375,0.0,0.0,-2.244200244200244,-4.3528693528693525,1.4375,0.0,0.0,1.286935286935287,-2.1233211233211238,-2.4346764346764345,1.21875,-0.625,0.0,0.0,-1.5934065934065933,-2.051282051282051,1.1875,-1.15625,0.0,-1.4285714285714286,-1.4224664224664223,-2.1721611721611715,1.25,-1.3125,0.0,-1.2796092796092795,-1.0073260073260073,-2.2612942612942613,1.3125,-1.09375,0.0,0.0,-1.0818070818070815,-2.4065934065934065,1.34375,-1.125,0.0,-0.9462759462759462,-0.8644688644688645,-2.814407814407814,1.28125,-1.28125,0.0,-1.5396825396825398,-0.6678876678876678,-3.330891330891331,1.21875,-1.0,0.0,-0.9597069597069596,-0.5897435897435898,-4.0,1.15625,0.0,0.0,0.0,-1.2393162393162394,-4.00976800976801,0.875,0.0,0.0,0.0,-0.8351648351648352,-3.382173382173382,0.0,-0.625,0.0,0.0,0.0,-2.768009768009768,0.0,0.0,0.0,0.0,-0.5470085470085471,-2.072039072039072,0.0,0.0,0.0,0.7106227106227107,-0.6483516483516484,-1.434676434676435,0.0,0.0,0.0,0.557997557997558,-0.5299145299145299,-1.105006105006105,0.0,0.0,0.0,0.0,0.0,-1.1709401709401708,0.0,0.0,0.0,0.0,0.0,-1.037851037851038,0.0,0.0,0.0,0.0,0.0,-0.7704517704517705,0.0,0.0,0.0,0.0,0.0,-0.5677655677655677,0.0,0.0,0.0,0.0,0.0,0.0,0.0,0.0,0.0,0.0,0.0,0.0,0.0,0.0,0.0,0.0,0.0,-0.5763125763125763,0.0,0.0,0.0,0.0,0.0,-1.2332112332112333,0.0,0.0,0.0,0.0,-0.7216117216117216,-1.8644688644688645,0.0,0.0,0.0,0.0,-0.7521367521367521,-2.687423687423687,0.0,0.53125,0.0,,,,,,,,,,,,,,,,,,,,,,,,,,,,,,,,,,,,,,,,,,,land
accX,0.0,0.0,1.2234432234432235,0.0,0.0,0.0,-0.7020757020757019,0.0,2.203907203907204,0.59375,0.0,0.0,-1.2295482295482296,0.6373626373626373,3.725274725274725,0.71875,0.0,0.0,-0.5824175824175825,0.6422466422466423,5.1001221001221,0.8125,0.0,0.0,-0.6788766788766789,0.0,5.609279609279609,0.75,0.0,0.0,-1.2112332112332111,0.0,6.014652014652015,0.75,0.0,0.0,-1.824175824175824,0.0,5.058608058608058,1.1875,-0.53125,0.0,-0.8083028083028083,-1.0671550671550671,3.660561660561661,1.5625,-0.59375,0.0,0.0,-1.2551892551892552,2.3772893772893773,1.71875,-0.90625,0.0,0.0,-2.2344322344322345,0.7374847374847375,1.65625,-1.09375,0.0,0.0,-1.8498168498168501,0.8827838827838828,1.375,-1.09375,0.0,0.0,-1.2087912087912087,0.8021978021978022,1.34375,-1.21875,0.0,-1.1916971916971917,-1.462759462759463,-0.6996336996336996,1.78125,-1.3125,0.0,0.0,-3.1648351648351647,-3.435897435897436,1.84375,-1.21875,0.0,0.0,-2.411477411477412,-4.1892551892551895,1.40625,-1.21875,0.0,0.0,-1.3455433455433456,-3.9438339438339436,1.3125,-1.09375,0.0,0.0,-1.3247863247863247,-3.897435897435898,1.5625,-0.90625,0.0,0.0,-1.9145299145299144,-3.9877899877899887,1.65625,-0.9375,0.0,0.0,-2.3076923076923075,-4.2405372405372415,1.25,-1.1875,0.0,0.0,-1.4810744810744811,-4.118437118437118,1.03125,-1.09375,0.0,-0.8644688644688645,-0.6935286935286935,-3.826617826617827,1.09375,-0.625,0.0,0.0,-0.8156288156288156,-3.9181929181929176,1.1875,0.0,0.0,1.6422466422466422,-1.9108669108669107,-3.8034188034188032,0.78125,-0.5625,0.0,0.0,-1.343101343101343,-3.2197802197802203,0.0,-0.71875,0.0,0.0,-0.7167277167277167,-2.6935286935286937,0.0,0.0,0.0,-0.757020757020757,0.0,-1.9108669108669107,0.0,0.0,0.0,-0.9047619047619048,0.0,-1.2588522588522588,0.0,0.0,0.0,0.0,0.0,-0.9218559218559218,0.0,0.0,0.0,0.0,0.0,-0.8046398046398047,0.0,0.0,0.0,0.0,0.0,-0.7338217338217338,0.0,0.0,0.0,0.0,0.0,-0.7655677655677655,0.0,0.0,0.0,0.0,0.0,-0.7411477411477412,0.0,0.0,0.0,0.0,0.0,-0.6532356532356532,0.0,0.0,0.0,0.0,0.0,0.0,0.0,0.0,0.0,-0.5128205128205128,0.0,-0.5421245421245421,0.0,0.0,0.0,0.0,0.0,-1.177045177045177,0.0,0.0,0.0,0.0,-0.8901098901098901,-2.145299145299145,0.0,0.0,0.0,,,,,,,,,,,,,,,,,,,land
accX,-0.6251526251526252,0.6471306471306472,5.8669108669108665,0.875,0.0,0.0,-0.6056166056166056,0.0,5.942612942612943,0.875,0.0,0.0,-0.6788766788766789,0.0,6.3369963369963385,0.84375,0.0,0.0,-0.9401709401709402,0.0,6.147741147741147,1.15625,-0.65625,0.0,-0.8815628815628815,0.0,4.918192918192919,1.65625,-0.71875,0.0,0.0,-1.4871794871794872,3.0085470085470085,1.875,-0.8125,0.0,0.5909645909645911,-2.148962148962149,0.8083028083028083,1.84375,-0.96875,0.0,0.0,-2.4505494505494507,-1.21001221001221,1.8125,-1.0625,0.0,0.7521367521367521,-3.0573870573870563,-2.0244200244200243,1.59375,-1.03125,0.0,0.0,-2.1904761904761907,-1.3601953601953602,1.40625,-1.3125,0.0,-0.7826617826617827,-2.0415140415140414,-2.028083028083028,1.5625,-1.46875,-0.5625,-0.5042735042735043,-2.717948717948718,-2.7252747252747254,1.5,-1.6875,-0.59375,-1.1123321123321124,-2.778998778998779,-3.351648351648352,1.40625,-1.78125,-0.8125,-1.514041514041514,-1.938949938949939,-3.6312576312576312,1.53125,-1.65625,-0.90625,-1.9633699633699635,-1.2954822954822955,-4.255189255189255,1.84375,-1.1875,-0.6875,-1.7765567765567765,-1.6349206349206349,-5.2747252747252755,1.78125,-0.8125,0.0,-0.6471306471306472,-2.31990231990232,-5.957264957264957,1.28125,-0.53125,0.0,0.0,-2.283272283272283,-5.576312576312577,0.625,0.0,0.0,0.0,-1.2832722832722834,-4.199023199023198,0.0,0.0,0.0,0.0,-0.9096459096459096,-2.8376068376068377,0.0,0.0,0.0,0.0,-0.6446886446886447,-1.7081807081807079,0.0,0.0,0.0,0.0,-0.6324786324786325,-1.1416361416361416,0.0,0.0,0.0,0.0,0.0,-1.1916971916971917,0.0,0.0,0.0,-0.5262515262515263,0.0,-0.6312576312576312,0.0,0.0,0.0,-0.5323565323565324,0.0,0.0,0.0,0.0,0.0,-0.7032967032967034,0.0,0.0,0.0,0.0,0.0,0.0,0.0,0.0,0.0,0.0,0.0,0.0,0.0,0.0,0.0,0.0,0.0,0.0,0.0,0.0,0.0,0.0,0.0,0.0,-0.7032967032967034,-0.5482295482295483,0.0,0.0,0.0,0.0,-0.6312576312576312,-1.0952380952380951,0.0,0.0,0.0,-0.7802197802197802,0.0,-1.8852258852258847,0.0,0.0,0.0,,,,,,,,,,,,,,,,,,,,,,,,,,,,,,,,,,,,,,,,,,,,,,,,,land
accX,-0.8131868131868132,0.0,5.965811965811965,1.125,0.0,0.0,-0.7387057387057387,0.0,5.774114774114773,1.40625,-0.5625,0.0,-0.8547008547008547,0.0,4.122100122100122,1.53125,-0.5625,0.0,-0.5323565323565324,0.0,2.6984126984126986,1.5625,0.0,0.0,0.0,0.0,2.485958485958486,1.5625,0.0,0.0,0.5555555555555556,-0.5824175824175825,2.525030525030525,1.46875,0.0,0.0,0.9755799755799756,-1.177045177045177,2.335775335775336,1.4375,-0.625,0.0,0.5567765567765568,-0.9645909645909646,0.5592185592185592,1.53125,-1.0,0.0,-0.5335775335775336,-1.083028083028083,-0.851037851037851,1.90625,-0.9375,0.0,-0.5018315018315018,-1.4517704517704515,-1.586080586080586,2.09375,0.0,0.0,0.7326007326007326,-2.245421245421245,-1.5958485958485962,1.875,0.0,0.0,1.695970695970696,-2.6105006105006106,-1.1318681318681318,1.53125,-1.40625,0.0,-0.5274725274725275,-1.5677655677655675,-1.0879120879120878,1.625,-1.90625,-0.6875,-2.5164835164835164,-1.4529914529914532,-2.0818070818070815,1.875,-1.59375,-0.53125,-2.7924297924297923,-1.0122100122100122,-2.915750915750916,2.28125,-1.03125,0.0,-1.9328449328449329,-1.6678876678876684,-4.478632478632479,2.25,-0.78125,0.0,0.0,-2.5042735042735043,-5.757020757020759,1.75,-0.8125,0.84375,1.3015873015873016,-2.7081807081807083,-6.257631257631258,1.0625,-1.0,0.6875,0.8522588522588522,-2.2246642246642248,-5.853479853479853,0.625,-0.625,0.59375,0.0,-1.661782661782662,-4.993894993894994,0.5625,0.0,0.625,0.8021978021978022,-1.691086691086691,-3.847374847374848,0.0,0.78125,0.625,0.7765567765567766,-1.5836385836385836,-2.511599511599512,0.0,0.84375,0.0,0.0,0.0,0.0,0.0,0.0,0.0,-1.6434676434676434,0.7802197802197802,0.0,0.0,0.0,0.0,-1.724053724053724,1.0366300366300367,0.0,0.0,0.0,0.0,-0.9829059829059827,0.6507936507936508,0.0,0.0,0.0,0.0,0.0,0.0,-0.934065934065934,0.0,0.0,0.0,0.0,0.0,-0.989010989010989,0.0,0.0,0.0,0.0,0.0,-0.7032967032967034,0.0,0.0,0.0,0.0,-0.5457875457875457,-0.5970695970695971,0.0,0.0,0.0,0.0,-0.78998778998779,-0.8595848595848596,0.0,0.0,0.0,0.0,-0.8168498168498168,-1.3113553113553114,0.0,0.0,0.0,,,,,,,,,,,,,,,,,,,,,,,,,,,,,,,,,,,,,,,,,,,,,,,,,land
accX,-1.3003663003663004,1.557997557997558,5.855921855921856,0.9375,0.0,0.0,-1.5054945054945057,0.8742368742368742,5.991452991452992,1.65625,-0.5625,0.0,-1.4835164835164836,-0.7557997557997558,4.814407814407813,1.90625,-0.75,0.0,-1.5702075702075702,-0.6446886446886447,3.971916971916972,1.5,0.0,0.0,-0.6056166056166056,0.0,3.965811965811966,1.21875,0.0,0.0,0.5262515262515263,0.0,3.7570207570207566,1.21875,0.0,0.0,0.7521367521367521,0.0,3.758241758241758,1.125,0.0,0.0,0.5592185592185592,0.0,2.7570207570207566,1.3125,-0.96875,0.0,0.0,0.0,0.0,1.75,-1.21875,0.0,0.0,-1.4932844932844933,-1.3357753357753357,1.9375,-1.1875,0.0,0.0,-1.4029304029304028,-1.8253968253968251,1.9375,-1.1875,0.0,0.0,-1.586080586080586,-2.2527472527472527,2.03125,-1.0,0.0,0.0,-1.7606837606837606,-2.253968253968254,2.03125,-1.21875,0.0,-0.9206349206349206,-1.3846153846153846,-2.4236874236874235,2.15625,-1.5,0.0,-2.2857142857142856,-2.012210012210012,-3.4615384615384617,2.0625,-1.375,0.0,-2.8205128205128207,-1.8083028083028083,-4.102564102564102,1.84375,-0.9375,0.0,-2.029304029304029,-1.31990231990232,-4.0,1.84375,-0.5625,0.59375,0.0,-2.2771672771672766,-4.048840048840049,1.625,-0.59375,0.75,0.7326007326007326,-2.688644688644689,-3.873015873015873,1.28125,-0.71875,0.65625,1.3308913308913308,-2.669108669108669,-3.715506715506716,1.03125,-0.71875,0.0,0.6959706959706959,-2.404151404151404,-3.783882783882784,0.78125,0.0,0.0,0.0,-1.887667887667888,-3.4884004884004884,0.65625,0.0,0.0,0.0,-1.2112332112332111,-1.321123321123321,0.0,0.0,0.0,0.0,-0.7521367521367521,0.0,0.0,0.0,0.0,-0.6153846153846154,0.0,0.0,0.0,0.0,0.0,-0.7924297924297924,0.0,0.5238095238095238,0.0,0.0,0.0,-0.6593406593406593,0.0,0.0,0.0,0.0,0.0,0.0,0.0,0.0,0.0,0.0,0.0,0.0,0.0,-1.0012210012210012,0.0,0.0,0.0,0.0,0.0,-1.1501831501831499,0.0,0.0,0.0,-0.5702075702075702,0.0,-0.8998778998778999,0.0,0.0,0.0,0.0,0.0,-0.6056166056166056,0.0,0.0,0.0,0.0,0.0,0.0,0.0,0.0,0.0,0.0,-0.6153846153846154,-0.8339438339438342,0.0,0.0,0.0,0.0,-0.7106227106227107,-1.3516483516483515,0.0,0.0,0.0,0.0,-1.037851037851038,-2.155067155067155,0.0,0.0,0.0,,,,,,,,,,,,,,,,,,,,,,,,,land
accX,-0.7606837606837606,0.5494505494505495,4.758241758241757,0.90625,0.0,0.0,-1.31990231990232,0.0,5.21001221001221,1.1875,0.0,0.0,-0.9255189255189256,0.0,5.61050061050061,1.3125,0.0,0.0,-0.6507936507936508,0.0,5.956043956043956,1.34375,0.0,0.0,0.0,0.0,5.744810744810745,1.40625,-0.59375,0.0,-1.051282051282051,0.0,4.936507936507937,1.46875,-0.71875,0.0,-0.9291819291819292,0.0,3.7191697191697193,1.78125,-0.53125,0.0,-0.6666666666666666,0.0,1.9304029304029304,2.1875,0.0,0.0,0.6410256410256411,-1.4358974358974361,0.0,2.40625,-0.59375,0.0,1.26007326007326,-2.5579975579975582,-1.094017094017094,1.59375,-1.90625,0.0,-1.2307692307692308,-0.989010989010989,-1.52014652014652,1.4375,-1.875,0.0,-3.382173382173382,0.0,-2.5506715506715505,1.9375,-0.6875,0.0,0.0,-1.5042735042735045,-3.1904761904761907,2.15625,0.0,0.0,2.253968253968254,-2.8485958485958487,-3.1807081807081805,1.90625,-1.375,0.0,0.0,-2.3003663003662997,-3.485958485958486,1.65625,-1.9375,0.0,-2.7496947496947497,-1.4664224664224663,-3.910866910866911,1.65625,-1.25,0.0,-2.84004884004884,-1.1086691086691087,-3.675213675213675,1.8125,0.0,0.0,0.0,-2.189255189255189,-3.446886446886447,1.59375,0.0,0.5625,0.7252747252747253,-2.312576312576313,-2.978021978021978,1.25,-0.625,0.0,0.0,-1.9230769230769231,-3.10989010989011,1.03125,-0.625,0.0,-0.9084249084249084,-1.3956043956043955,-2.9816849816849818,0.90625,0.0,0.53125,0.7387057387057387,-1.94017094017094,-2.421245421245421,0.78125,0.0,0.5625,1.3272283272283272,-2.235653235653236,-2.0134310134310134,0.0,0.0,0.0,0.6312576312576312,-1.3235653235653235,-1.1306471306471306,0.0,0.0,0.0,0.0,0.0,0.0,0.0,0.0,0.0,-0.7277167277167277,0.0,0.0,0.0,0.0,0.0,-0.8315018315018315,0.0,0.0,0.0,0.0,0.0,0.0,0.0,-0.5494505494505495,0.0,0.0,0.0,0.0,-0.5152625152625152,-0.6202686202686203,0.0,0.0,0.0,0.0,0.0,0.0,0.0,0.0,0.0,-0.5714285714285714,0.0,0.0,0.0,0.0,0.0,0.0,0.0,-0.5311355311355311,0.0,0.0,0.0,0.0,-0.5494505494505495,-0.9975579975579976,0.0,0.0,0.0,0.0,-0.8009768009768009,-1.4603174603174602,0.0,0.0,0.0,0.0,-1.4188034188034189,-2.1794871794871797,0.0,0.0,0.0,,,,,,,,,,,,,,,,,,,,,,,,,,,,,,,land
accX,-1.5262515262515262,0.5787545787545788,4.758241758241757,0.90625,0.0,0.0,-0.8705738705738706,0.7912087912087912,5.446886446886448,1.09375,0.0,0.0,-0.8485958485958486,1.031746031746032,6.067155067155068,1.25,0.0,0.0,-1.4004884004884004,0.9389499389499391,6.222222222222222,1.34375,-0.53125,0.0,-1.7851037851037852,0.9768009768009768,5.7435897435897445,1.46875,-0.6875,0.0,-1.5091575091575091,0.7387057387057387,4.1330891330891335,1.78125,-0.75,0.0,0.0,-0.6043956043956044,0.9633699633699634,2.0625,-0.75,0.0,0.6886446886446886,-1.7252747252747254,-1.617826617826618,1.75,-0.84375,0.0,0.7277167277167277,-1.5567765567765568,-2.455433455433456,1.59375,-0.71875,0.0,0.9035409035409036,-2.333333333333333,-2.9877899877899887,1.34375,-0.59375,0.0,0.7142857142857143,-1.9853479853479852,-2.0793650793650795,1.15625,-0.75,0.0,0.0,-1.297924297924298,-1.2625152625152625,1.3125,-0.78125,0.0,0.0,-1.7704517704517704,-1.3553113553113554,1.53125,-0.96875,0.0,0.6385836385836385,-2.289377289377289,-1.9816849816849815,1.40625,-1.59375,0.0,-0.7203907203907204,-1.6727716727716728,-2.417582417582417,1.34375,-1.78125,0.0,-1.5946275946275947,-1.442002442002442,-3.0415140415140414,1.46875,-1.53125,0.0,-1.3003663003663004,-1.8168498168498168,-3.968253968253968,1.34375,-1.28125,0.0,0.0,-2.3553113553113554,-4.4664224664224665,1.125,-1.0625,0.53125,1.3858363858363858,-2.1098901098901104,-4.752136752136752,0.78125,-0.875,0.0,0.0,-2.144078144078144,-4.728937728937728,0.5625,0.0,0.0,0.0,-1.7643467643467643,-3.978021978021978,0.0,0.0,0.0,0.0,-1.0012210012210012,-2.417582417582417,0.0,0.0,0.0,0.0,0.0,-1.010989010989011,0.0,0.0,0.0,-0.8351648351648352,0.0,0.0,0.0,0.0,0.0,0.0,0.0,1.15995115995116,0.0,0.0,0.0,-0.5848595848595849,0.0,1.2344322344322345,0.0,0.0,0.0,-0.9548229548229548,0.0,0.8705738705738706,0.0,0.0,0.0,-1.0793650793650793,0.0,0.0,0.0,0.0,0.0,0.0,0.0,0.0,0.0,0.0,0.0,0.0,-0.7606837606837606,-0.8058608058608059,0.0,0.0,0.0,0.0,-0.7167277167277167,-1.166056166056166,0.0,0.0,0.0,0.0,-0.5164835164835165,-1.5091575091575091,0.0,0.0,0.0,0.0,-0.5335775335775336,-1.7252747252747254,0.0,0.0,0.0,0.0,-0.6654456654456654,-1.8327228327228329,0.0,0.0,0.0,,,,,,,,,,,,,,,,,,,,,,,,,,,,,,,,,,,,,land
accX,0.0,0.706959706959707,6.180708180708182,1.25,0.0,0.0,-1.0598290598290598,-0.5054945054945055,5.824175824175824,1.3125,-0.75,0.0,-2.051282051282051,0.0,4.979242979242978,1.3125,-0.875,0.0,-2.7326007326007327,0.0,3.8302808302808304,1.5625,0.0,0.0,-1.2112332112332111,-0.5042735042735043,3.5347985347985347,2.09375,0.0,0.78125,1.4297924297924298,-1.8998778998779,2.6507936507936507,2.03125,0.0,0.6875,1.7008547008547008,-2.5763125763125765,0.0,1.96875,-0.8125,0.0,1.6056166056166057,-3.2490842490842486,-3.0793650793650795,1.75,-0.78125,0.0,0.9316239316239316,-3.5091575091575087,-4.859584859584858,1.25,0.0,0.0,1.4920634920634919,-2.2026862026862033,-3.4884004884004884,1.03125,0.0,0.0,0.7387057387057387,-1.4273504273504274,-2.242979242979243,1.1875,-0.53125,0.0,0.0,-0.5042735042735043,-1.5702075702075702,1.59375,0.0,0.0,-0.5213675213675214,-1.2222222222222223,-1.706959706959707,1.75,-0.53125,0.0,0.0,-2.0659340659340657,-2.3736263736263736,1.46875,-0.8125,0.0,0.0,-1.9511599511599511,-3.10989010989011,1.21875,-1.03125,0.0,0.0,-1.5543345543345544,-3.6495726495726495,1.0625,-1.09375,0.0,0.0,-1.7081807081807079,-3.5177045177045176,0.84375,-0.5625,0.0,0.7557997557997558,-1.5518925518925517,-2.965811965811966,0.71875,0.0,0.5625,1.1367521367521367,-1.2832722832722834,-2.496947496947497,0.59375,0.0,0.0,0.7802197802197802,-0.9059829059829059,-2.2222222222222223,0.5625,0.0,0.0,0.0,-0.8620268620268621,-2.010989010989011,0.53125,0.0,0.0,0.0,-0.9352869352869352,-1.9133089133089132,0.0,0.0,0.0,0.0,-0.5836385836385837,-1.5995115995115996,0.0,0.0,0.0,0.0,0.0,-1.2258852258852257,0.0,0.0,0.0,0.0,0.0,-0.9413919413919414,0.0,0.0,0.0,-0.6410256410256411,0.0,-0.5518925518925519,0.0,0.0,0.0,0.0,0.0,0.0,0.0,0.0,0.0,0.0,0.0,0.0,0.0,0.0,0.0,0.0,0.0,0.0,0.0,0.0,0.0,-0.7936507936507936,0.0,0.0,0.0,0.0,0.0,-0.7863247863247863,0.0,0.0,0.0,0.0,0.0,0.0,0.0,0.0,0.0,0.0,0.0,0.0,0.0,0.0,0.0,0.0,0.0,0.0,-0.8168498168498168,-0.6434676434676435,0.0,0.0,0.0,0.6202686202686203,-1.2332112332112333,-1.3699633699633702,0.0,0.0,0.0,0.5653235653235653,-1.037851037851038,-1.8253968253968251,0.0,0.0,0.0,,,,,,,,,,,,,,,,,,,,,,,,,land
accX,-2.0024420024420024,0.9633699633699634,6.185592185592187,1.25,0.0,0.0,-2.2063492063492065,0.0,6.045177045177045,1.4375,0.0,0.53125,-0.6092796092796092,0.0,5.498168498168498,1.5,0.0,0.5625,0.0,-0.5079365079365079,4.682539682539684,1.65625,-0.90625,0.0,-1.0793650793650793,0.0,4.317460317460317,1.875,-1.0,0.0,-1.7472527472527473,0.0,4.124542124542124,2.375,-0.75,0.59375,-0.978021978021978,-0.5946275946275946,1.9267399267399268,3.15625,0.0,0.96875,0.0,-2.4249084249084247,-1.6727716727716728,3.59375,0.0,1.15625,3.0708180708180715,-6.813186813186812,-6.307692307692308,2.4375,0.0,0.65625,3.862026862026862,-6.021978021978023,-5.814407814407813,0.90625,-1.1875,0.0,1.1184371184371185,-2.645909645909646,-3.4896214896214897,0.71875,-1.4375,0.0,-1.0012210012210012,-1.205128205128205,-2.3040293040293043,1.375,-1.09375,0.0,-1.962148962148962,-0.6776556776556777,-1.8192918192918195,2.1875,-0.53125,0.0,-2.1355311355311355,-1.912087912087912,-2.8021978021978016,2.5625,0.0,0.5625,0.0,-3.7326007326007327,-4.085470085470085,1.96875,0.0,0.9375,1.21001221001221,-2.7997557997558,-3.5494505494505493,0.90625,-1.09375,0.5625,0.0,-1.9719169719169718,-3.189255189255189,0.625,-1.15625,0.0,0.0,-1.6056166056166057,-3.0109890109890114,0.59375,-0.65625,0.0,0.0,-1.9792429792429795,-2.8485958485958487,0.59375,0.0,0.0,0.5335775335775336,-1.8937728937728937,-2.091575091575092,0.0,0.0,0.0,0.7252747252747253,-1.4505494505494505,-0.9426129426129426,0.0,0.0,0.0,0.0,-0.6483516483516484,0.0,0.0,0.0,0.0,0.0,0.0,0.0,0.0,0.0,0.0,-0.5555555555555556,0.0,0.0,0.0,0.0,0.0,-0.5970695970695971,0.0,0.0,0.0,0.0,0.0,0.0,0.0,0.0,0.0,0.0,0.0,0.0,0.0,0.0,0.0,0.0,0.0,0.0,0.0,0.0,0.0,0.0,0.0,0.0,0.0,-0.5738705738705738,0.0,0.0,0.0,0.0,-0.7216117216117216,-0.8290598290598291,0.0,0.0,0.0,0.0,-0.8815628815628815,-0.8058608058608059,0.0,0.0,0.0,0.0,-0.9975579975579976,-0.9621489621489622,0.0,0.0,0.0,0.0,-1.0146520146520146,-1.2503052503052503,0.0,0.0,0.0,0.0,-1.3797313797313795,-2.0488400488400487,0.0,0.0,0.0,,,,,,,,,,,,,,,,,,,,,,,,,,,,,,,,,,,,,land
accX,-1.1245421245421243,0.0,3.4371184371184373,0.0,0.0,0.0,-0.7387057387057387,0.0,3.6581196581196584,0.59375,0.0,0.0,0.7326007326007326,0.0,4.4603174603174605,0.5625,0.0,0.0,0.6923076923076923,0.0,5.112332112332112,0.6875,-0.65625,0.0,0.0,0.0,4.5006105006105015,1.25,-0.8125,-0.59375,0.0,0.0,2.2564102564102564,1.71875,-0.84375,0.0,1.0781440781440779,-0.8107448107448108,-1.2637362637362637,1.9375,-0.8125,0.0,1.5982905982905984,-2.8852258852258847,-5.416361416361417,1.4375,0.0,0.0,2.7106227106227108,-2.352869352869353,-5.242979242979243,0.5625,0.0,-0.625,2.0012210012210008,-0.894993894993895,-3.0781440781440783,0.0,-0.8125,-0.96875,0.0,-0.5006105006105006,-2.0354090354090357,0.53125,-0.78125,-0.8125,-1.4786324786324787,0.0,-1.2332112332112333,0.875,-0.5625,0.0,0.0,-1.2783882783882785,-1.1843711843711844,0.9375,-0.9375,-0.53125,0.0,-1.4566544566544566,-1.2185592185592184,0.8125,-1.5,-0.8125,-1.264957264957265,-0.5616605616605617,-1.3968253968253967,1.1875,-1.59375,-0.625,-2.0146520146520146,-1.0036630036630036,-2.417582417582417,1.46875,-0.96875,0.0,-1.4981684981684982,-1.5042735042735045,-3.304029304029304,1.5625,0.0,0.0,0.8534798534798534,-2.8974358974358974,-4.031746031746032,1.28125,0.0,0.53125,1.3113553113553114,-1.800976800976801,-3.0366300366300365,0.0,-0.625,0.0,0.0,-0.9438339438339438,-2.3870573870573866,0.0,-0.6875,0.0,0.0,-0.894993894993895,-1.8705738705738704,0.0,0.0,0.0,0.0,0.0,-1.0854700854700854,0.0,0.0,0.0,0.0,-0.5494505494505495,-1.120879120879121,0.0,0.0,0.0,0.9377289377289376,-0.5457875457875457,-0.9743589743589745,0.0,0.0,0.0,0.0,0.0,-0.8021978021978022,0.0,0.0,-0.5625,-1.1343101343101345,0.6202686202686203,-0.6642246642246642,0.0,0.0,-0.5625,-1.0781440781440779,0.5787545787545788,0.0,0.0,0.0,0.0,-0.7179487179487181,0.0,0.0,0.0,0.0,0.0,0.0,0.0,-0.7008547008547008,0.0,0.0,0.0,0.0,0.0,-0.6324786324786325,0.0,0.0,0.0,0.0,0.0,-0.7216117216117216,0.0,0.0,0.0,0.0,-0.5018315018315018,-1.3943833943833943,0.0,0.0,0.0,0.0,-0.8315018315018315,-2.235653235653236,0.0,0.0,0.0,0.0,-0.9816849816849816,-2.7753357753357752,0.0,0.0,0.0,,,,,,,,,,,,,,,,,,,,,,,,,,,,,,,,,,,,,land
accX,-1.0573870573870574,-0.9902319902319904,3.421245421245421,0.625,0.0,0.0,-0.8717948717948718,0.0,4.722832722832723,0.0,0.0,0.0,-0.5787545787545788,0.0,6.140415140415142,0.0,0.0,0.0,-1.0805860805860803,-0.7081807081807082,6.3247863247863245,0.0,-0.59375,0.0,-1.9719169719169718,0.0,4.9010989010989015,0.8125,-0.65625,0.0,-1.815628815628816,-0.5836385836385837,2.978021978021978,1.5,0.0,0.59375,0.0,-2.039072039072039,1.8144078144078144,1.40625,0.0,0.53125,1.8351648351648349,-3.4761904761904763,1.3064713064713065,0.8125,-0.8125,0.0,0.0,-1.6862026862026862,0.94993894993895,0.84375,-1.0625,0.0,-1.5934065934065933,-1.0891330891330893,-0.5091575091575091,1.21875,-0.625,0.0,0.0,-2.2026862026862033,-1.9963369963369964,1.125,-0.65625,0.0,0.5286935286935287,-2.715506715506716,-1.978021978021978,0.71875,-1.03125,0.0,0.0,-2.312576312576313,-2.1123321123321124,0.5625,-1.03125,-0.625,0.0,-1.735042735042735,-3.0048840048840044,0.71875,-0.90625,-0.84375,0.0,0.0,-4.136752136752137,1.125,-0.8125,-0.84375,1.431013431013431,0.0,-4.594627594627593,1.28125,-1.0625,-0.9375,1.0708180708180708,0.0,-5.474969474969474,1.09375,-1.1875,-0.9375,0.0,0.6568986568986569,-5.534798534798535,1.0,-1.25,-0.65625,0.0,0.0,-5.124542124542124,1.03125,-1.03125,0.0,-0.518925518925519,0.0,-4.208791208791209,0.875,-0.75,0.0,0.0,0.0,-2.958485958485958,0.625,-0.53125,0.0,0.0,-0.8205128205128205,-2.091575091575092,0.0,0.0,0.0,0.0,0.0,-1.2527472527472527,0.0,0.0,0.0,0.0,0.0,-1.1746031746031746,0.0,0.0,0.0,0.5006105006105006,-0.6080586080586079,-1.2283272283272284,0.0,0.0,0.0,0.0,0.0,-0.9865689865689866,0.0,0.0,0.0,0.0,0.0,-0.851037851037851,0.0,0.0,0.0,0.0,0.0,-0.9633699633699634,0.0,0.0,0.0,0.0,0.0,-1.2222222222222223,0.0,0.0,0.0,0.0,0.0,-0.9865689865689866,0.0,0.0,0.0,0.0,0.0,-0.7557997557997558,0.0,0.0,0.0,0.0,0.0,-0.7814407814407814,0.0,0.0,0.0,0.0,0.0,-1.3284493284493284,0.0,0.0,0.0,0.0,0.0,-2.311355311355311,0.0,0.0,0.0,0.0,-0.912087912087912,-3.2148962148962146,0.0,0.53125,0.0,-0.6239316239316239,-0.6446886446886447,-3.1819291819291817,-0.59375,0.65625,0.0,,,,,,,,,,,,,,,,,,,,,,,,,land
accX,-2.1111111111111107,0.0,4.84004884004884,0.65625,0.0,0.0,-2.0744810744810747,0.0,5.82051282051282,1.09375,0.0,0.0,-1.336996336996337,-1.3296703296703296,5.88034188034188,1.375,0.0,0.59375,-1.0854700854700854,-1.1978021978021978,5.363858363858364,1.1875,0.0,0.0,-1.1306471306471306,-0.956043956043956,4.6007326007325995,1.125,0.0,0.0,-0.6923076923076923,-0.7081807081807082,4.01953601953602,1.15625,0.0,0.0,0.0,-1.352869352869353,3.8766788766788767,1.15625,0.0,0.0,0.0,-1.1477411477411477,3.1514041514041518,1.34375,-0.8125,0.0,-0.6227106227106227,-0.8156288156288156,1.4786324786324787,1.5625,-0.75,0.0,0.0,-1.2967032967032968,-0.5433455433455433,1.625,-0.6875,0.0,1.8229548229548234,-1.931623931623932,-2.1575091575091574,1.34375,-1.0,0.0,1.177045177045177,-1.8705738705738704,-2.5067155067155067,1.0625,-1.25,0.0,0.0,-1.15995115995116,-2.2332112332112333,1.21875,-1.3125,0.0,-1.0329670329670328,-1.5836385836385836,-2.694749694749695,1.3125,-1.34375,0.0,-0.8974358974358975,-2.3345543345543347,-3.8009768009768017,1.21875,-1.46875,0.0,0.0,-1.7728937728937728,-4.377289377289378,1.1875,-1.65625,0.0,-1.3846153846153846,-1.1343101343101345,-4.803418803418802,1.21875,-1.40625,0.0,-0.8363858363858364,-0.7252747252747253,-4.6996336996337,1.125,-1.125,0.0,0.0,-0.9597069597069596,-4.575091575091576,1.0,-1.03125,0.0,0.0,-0.8253968253968254,-4.452991452991453,0.8125,-1.0,0.0,0.0,-0.7472527472527473,-4.16971916971917,0.65625,-0.6875,0.0,0.0,-0.7008547008547008,-3.05982905982906,0.53125,0.0,0.0,0.0,0.0,-1.5470085470085468,0.0,0.0,0.0,-0.6373626373626373,0.0,0.0,0.0,0.0,0.0,0.0,0.0,0.0,0.0,0.0,0.0,0.0,0.0,-0.5433455433455433,0.0,0.0,0.0,0.0,0.0,-1.1501831501831499,0.0,0.0,0.0,0.0,0.0,-1.804639804639805,0.0,0.0,0.0,-0.6153846153846154,0.0,-1.800976800976801,0.0,0.0,0.0,0.0,0.0,-1.4810744810744811,0.0,0.0,0.0,0.0,0.0,-1.2173382173382172,0.0,0.0,0.0,0.0,-0.6092796092796092,-1.4224664224664223,0.0,0.0,0.0,0.0,-0.5714285714285714,-1.4505494505494505,0.0,0.0,0.0,0.0,-0.6520146520146519,-1.9145299145299144,0.0,0.0,0.0,,,,,,,,,,,,,,,,,,,,,,,,,,,,,,,,,,,,,land
accX,-1.1282051282051282,-0.8705738705738706,2.2844932844932844,0.71875,0.0,0.0,-0.9389499389499391,-0.5738705738705738,3.771672771672772,0.625,0.0,0.0,-0.8803418803418803,0.0,5.061050061050062,0.65625,0.0,0.0,-1.338217338217338,0.0,5.479853479853481,0.8125,0.0,0.0,-1.5103785103785103,-0.5958485958485958,5.335775335775336,1.0,0.0,0.0,-0.9511599511599512,-1.0146520146520146,4.427350427350428,0.875,0.0,0.0,-0.6971916971916972,-0.5860805860805861,3.2967032967032965,1.03125,0.0,0.0,-0.503052503052503,-0.967032967032967,1.2405372405372406,1.1875,0.0,0.0,0.0,-1.537240537240537,0.0,0.9375,0.0,0.0,-0.978021978021978,-1.5946275946275947,1.0085470085470083,0.6875,0.0,0.0,-1.2576312576312576,0.0,1.968253968253968,0.90625,0.0,0.53125,0.0,-1.3968253968253967,0.0,1.28125,-0.78125,0.59375,1.2991452991452992,-2.7948717948717947,-2.32967032967033,1.0625,-1.1875,0.0,0.0,-1.6727716727716728,-2.8021978021978016,0.90625,-0.96875,0.0,-1.4444444444444444,0.0,-1.7912087912087913,1.03125,0.0,0.0,-0.9267399267399268,0.0,-0.5763125763125763,1.375,0.0,0.53125,1.0915750915750917,-1.2319902319902318,-0.6129426129426129,1.375,-0.9375,0.0,0.0,-1.31013431013431,-2.1074481074481075,1.09375,-1.84375,0.0,0.0,0.0,-3.496947496947497,1.25,-1.625,0.0,0.0,-0.6813186813186813,-5.195360195360196,1.53125,-1.5,0.0,0.5347985347985348,-1.242979242979243,-6.8998778998779,1.34375,-1.4375,0.0,0.7387057387057387,-1.2551892551892552,-7.35042735042735,0.75,-1.15625,0.0,0.7875457875457875,0.0,-5.882783882783882,0.0,-0.75,0.0,0.0,0.0,-4.0415140415140405,0.0,0.0,0.0,0.7142857142857143,0.0,-2.3443223443223444,0.0,0.0,0.0,1.2210012210012209,-0.9304029304029304,-1.0586080586080586,0.0,0.0,0.0,0.0,-0.7362637362637363,0.0,0.0,0.0,0.0,0.0,0.0,0.0,0.0,0.0,0.0,-0.6666666666666666,0.0,0.0,0.0,0.0,0.0,0.0,0.0,0.0,0.0,0.0,0.0,0.0,0.0,0.0,0.0,0.0,0.0,0.0,0.0,-0.6727716727716728,0.0,0.0,0.0,0.0,0.0,-1.137973137973138,0.0,0.0,0.0,0.0,-0.5885225885225885,-1.7960927960927962,0.0,0.0,0.0,0.0,-0.7423687423687424,-1.8974358974358971,0.0,0.0,0.0,0.0,-0.8070818070818071,-2.15018315018315,0.0,0.5625,0.0,0.0,-0.8693528693528694,-2.347985347985348,0.0,0.625,0.0,,,,,,,,,,,,,,,,,,,land
accX,-0.6007326007326007,0.0,4.521367521367521,1.09375,0.0,0.0,-1.4590964590964588,0.0,3.727716727716728,1.3125,0.0,0.65625,0.0,-0.8437118437118437,3.0989010989010985,1.25,0.0,0.59375,0.5311355311355311,-0.6153846153846154,3.4871794871794872,0.96875,0.0,0.0,0.0,0.0,4.150183150183151,0.90625,0.0,0.0,0.0,0.0,3.908424908424908,1.0,-0.6875,0.0,0.0,0.0,2.1404151404151404,1.4375,-0.71875,0.0,0.536019536019536,-1.2258852258852257,-0.6105006105006106,1.40625,-0.5625,0.0,1.3040293040293038,-1.175824175824176,-1.6336996336996337,1.4375,-0.59375,0.0,1.4700854700854702,-1.5494505494505495,-1.8302808302808304,1.21875,-0.71875,0.0,0.7753357753357754,-1.3235653235653235,-1.0390720390720392,1.125,-0.84375,0.0,0.0,-1.2246642246642248,0.0,1.09375,-1.125,0.0,0.0,-1.5995115995115996,0.0,1.21875,-1.34375,0.0,0.0,-1.4102564102564104,0.0,1.46875,-1.53125,-0.625,-1.05006105006105,-1.2551892551892552,-1.5115995115995116,1.65625,-1.5,-0.78125,-1.537240537240537,-0.7851037851037851,-2.4481074481074483,1.71875,-1.5625,-0.53125,-1.1636141636141637,-0.8901098901098901,-3.407814407814408,1.65625,-1.46875,0.0,0.0,-0.9181929181929182,-4.152625152625153,1.53125,-1.375,0.0,0.0,-1.0805860805860803,-5.065934065934067,1.25,-1.125,0.0,0.6141636141636142,-1.2637362637362637,-5.405372405372407,1.09375,-0.78125,0.0,1.4224664224664223,-1.3943833943833943,-5.372405372405372,0.71875,-0.59375,0.0,0.0,-0.7435897435897436,-4.787545787545787,0.0,0.0,0.0,-1.0390720390720392,0.0,-3.1660561660561664,0.0,0.0,0.0,-1.21001221001221,0.0,-1.031746031746032,0.0,0.0,0.0,0.0,-0.5750915750915749,0.0,0.0,0.0,0.0,0.0,0.0,0.8559218559218559,0.0,0.0,0.0,-1.31013431013431,0.0,0.5665445665445665,0.0,0.0,0.0,-1.4957264957264955,0.5946275946275946,0.0,0.0,0.0,0.0,-1.2002442002442002,0.5213675213675214,0.0,0.0,0.0,0.0,0.0,0.0,0.0,0.0,0.0,0.0,0.0,0.0,-0.5592185592185592,0.0,0.0,0.0,0.0,0.0,-0.9609279609279608,0.0,0.0,0.0,0.0,0.0,-1.474969474969475,0.0,0.0,0.0,,,,,,,,,,,,,,,,,,,,,,,,,,,,,,,,,,,,,,,,,,,land
accX,0.0,0.0,5.158730158730159,0.75,0.0,0.0,-1.6495726495726497,0.0,5.039072039072039,1.09375,-0.6875,0.0,-1.8608058608058609,-0.7374847374847375,4.528693528693529,1.1875,0.0,0.0,-0.9072039072039072,0.0,4.295482295482295,1.0625,0.0,0.59375,0.5067155067155067,0.0,3.58974358974359,1.0625,0.0,0.65625,1.2161172161172158,-0.9462759462759462,2.5946275946275947,1.0,0.0,0.53125,0.5958485958485958,-1.0463980463980465,2.2014652014652016,0.90625,-0.65625,0.0,0.0,0.0,1.6312576312576312,0.9375,-0.625,0.0,0.0,0.0,1.065934065934066,1.5,0.0,0.0,1.4151404151404152,-1.020757020757021,-0.6471306471306472,1.6875,-0.65625,0.0,2.0695970695970702,-1.3040293040293038,-1.7448107448107448,1.71875,-1.125,0.0,0.0,-2.145299145299145,-3.241758241758242,1.5625,-0.84375,0.0,0.0,-1.7936507936507935,-2.426129426129426,1.28125,0.0,0.0,1.4896214896214897,-1.9719169719169718,-1.2637362637362637,1.25,-0.9375,0.0,1.043956043956044,-1.5763125763125765,-0.9377289377289376,1.375,-1.625,0.0,-1.0146520146520146,-1.4151404151404152,-2.166056166056166,1.46875,-1.625,-0.59375,-2.335775335775336,-0.6117216117216118,-2.7228327228327234,1.625,-1.125,0.0,-2.2612942612942613,0.0,-2.9682539682539684,1.90625,-0.71875,0.0,0.0,-1.575091575091575,-3.753357753357753,1.71875,-0.875,0.0,0.9218559218559218,-2.1978021978021984,-4.253968253968254,0.96875,-1.3125,0.0,-0.8559218559218559,-0.7081807081807082,-3.935286935286935,0.84375,-0.75,0.0,-0.8107448107448108,-0.5225885225885226,-3.62026862026862,0.875,0.0,0.0,0.0,-1.4493284493284493,-3.8998778998779,0.90625,0.0,0.5625,2.4273504273504267,-2.6727716727716726,-3.1233211233211238,0.0,0.0,0.0,1.3724053724053724,-1.2698412698412698,-1.5665445665445663,0.0,0.0,0.0,0.0,0.0,0.0,0.0,0.0,-0.65625,-1.293040293040293,0.0,0.0,0.0,0.0,-0.625,-2.051282051282051,0.8107448107448108,0.0,0.0,0.0,0.0,-1.9963369963369964,0.6227106227106227,0.0,0.0,0.0,0.0,0.0,0.0,0.0,0.0,0.0,0.0,0.0,0.0,0.0,0.0,0.0,0.0,0.0,0.0,0.0,0.0,0.0,0.0,0.0,0.0,-0.9194139194139194,0.0,0.0,0.0,0.0,-0.6019536019536019,-1.3089133089133091,0.0,0.0,0.0,0.0,-0.7350427350427351,-1.6202686202686205,0.0,0.0,0.0,,,,,,,,,,,,,,,,,,,,,,,,,,,,,,,land
accX,-1.8974358974358971,0.0,4.907203907203908,0.71875,0.0,0.0,-0.6910866910866911,0.5677655677655677,5.763125763125763,0.6875,0.0,0.0,0.0,0.7509157509157509,5.943833943833944,1.0,0.0,0.0,-0.5152625152625152,0.0,5.122100122100122,1.25,0.0,0.0,-1.534798534798535,-0.7264957264957265,3.609279609279609,1.3125,-0.5625,0.0,-0.9987789987789988,-0.6703296703296703,1.5445665445665446,1.34375,0.0,0.0,0.0,0.0,0.0,1.59375,0.0,0.6875,-0.5445665445665445,0.0,0.0,1.8125,0.0,0.84375,0.0,0.0,0.7387057387057387,2.125,0.0,1.0,1.0293040293040292,-0.7814407814407814,0.0,2.40625,-0.96875,0.96875,0.0,-2.3638583638583643,-2.2051282051282053,2.40625,-1.25,0.8125,-0.6214896214896215,-2.9951159951159956,-3.4090354090354085,1.71875,-1.0,0.71875,-0.7435897435897436,-2.2002442002442004,-2.2979242979242978,1.40625,-0.75,0.65625,0.0,-1.3455433455433456,-1.238095238095238,1.53125,-0.96875,0.65625,0.0,-1.586080586080586,-1.2796092796092795,1.71875,-1.375,0.5625,0.8852258852258852,-2.9963369963369964,-2.505494505494505,1.5,-1.75,0.0,0.7411477411477412,-3.0891330891330893,-3.221001221001221,1.03125,-1.9375,0.0,0.0,-2.31990231990232,-3.8058608058608057,0.78125,-1.65625,0.0,0.0,-1.0012210012210012,-3.954822954822955,1.03125,-1.1875,0.0,0.0,-1.442002442002442,-5.023199023199024,1.125,-0.71875,0.0,1.0231990231990231,-2.096459096459097,-5.683760683760683,0.0,0.0,0.0,0.57997557997558,-1.5677655677655675,-4.623931623931624,0.0,0.0,0.0,0.7338217338217338,-1.1172161172161172,-3.1343101343101343,0.0,0.0,0.0,0.0,-0.8986568986568987,-1.9059829059829057,0.0,0.59375,0.0,0.0,0.0,-0.73992673992674,0.0,0.625,0.0,0.0,0.0,0.0,0.0,0.5625,0.0,-0.5628815628815629,0.5909645909645911,1.398046398046398,0.0,0.0,0.0,-0.7326007326007326,0.7484737484737485,1.5616605616605617,0.0,0.0,0.0,-0.6471306471306472,0.6727716727716728,1.3504273504273503,0.0,0.0,0.0,-0.5274725274725275,0.0,0.8632478632478633,0.0,0.0,0.0,0.0,0.0,0.0,0.0,0.0,0.0,0.0,0.0,0.0,0.0,0.0,0.0,0.0,0.0,0.0,0.0,0.0,0.0,0.0,-0.5897435897435898,-1.2246642246642248,0.0,0.0,0.0,0.6776556776556777,-1.2735042735042734,-2.525030525030525,0.0,0.0,0.0,0.0,-1.3540903540903542,-3.371184371184371,0.0,0.0,0.0,,,,,,,,,,,,,,,,,,,,,,,,,land
accX,-0.8583638583638583,-1.3943833943833943,2.2979242979242978,0.0,0.0,0.0,-1.1916971916971917,0.0,4.777777777777779,0.53125,0.0,0.0,-1.020757020757021,-0.8009768009768009,4.65934065934066,0.75,0.0,0.0,-0.8571428571428571,-0.757020757020757,4.297924297924298,0.65625,0.0,0.0,-0.6605616605616605,-0.5421245421245421,3.615384615384616,0.9375,0.0,0.0,-0.8656898656898657,-0.8852258852258852,2.5006105006105006,1.1875,0.0,0.0,0.0,-1.0158730158730158,2.4322344322344316,1.21875,0.0,0.0,0.0,-0.9450549450549449,2.0976800976800978,1.15625,0.0,0.0,0.0,0.0,2.0769230769230766,1.375,-0.53125,0.0,-1.3003663003663004,0.0,0.0,2.0,-0.65625,0.0,0.0,-1.4871794871794872,-2.827838827838828,2.34375,0.0,0.0,1.7789987789987791,-2.6043956043956045,-4.1440781440781445,1.90625,-0.5625,0.0,1.0561660561660562,-1.2234432234432235,-3.335775335775337,1.15625,-1.3125,0.0,-1.2026862026862026,0.0,-2.6373626373626373,1.46875,-1.03125,0.0,0.0,-1.021978021978022,-2.9572649572649574,1.65625,-0.90625,0.0,1.4737484737484738,-1.953601953601953,-3.3150183150183152,1.375,-1.46875,0.0,0.0,-1.5604395604395604,-3.910866910866911,1.09375,-1.40625,0.0,-0.778998778998779,0.0,-3.671550671550672,1.1875,-0.9375,0.59375,0.0,-0.5982905982905983,-3.774114774114774,1.34375,0.0,0.9375,2.241758241758242,-2.299145299145299,-3.926739926739927,0.9375,-0.71875,0.71875,0.8266178266178266,-1.953601953601953,-3.231990231990232,0.0,-0.6875,0.0,0.0,-0.6507936507936508,-2.1294261294261294,0.53125,0.0,0.59375,0.0,0.0,-1.3357753357753357,0.75,0.0,0.78125,0.9401709401709402,-1.1489621489621489,-1.5030525030525033,0.75,0.0,0.6875,1.0244200244200243,-1.10989010989011,-0.8791208791208791,0.0,0.0,0.0,0.0,0.0,-0.557997557997558,0.0,0.0,0.0,-0.8925518925518926,0.0,0.0,0.0,0.0,0.0,-0.9853479853479854,0.0,0.0,0.0,0.0,0.0,-0.6654456654456654,0.0,-0.9096459096459096,0.0,0.0,0.0,0.0,0.0,-1.1343101343101345,0.0,0.0,0.0,0.0,0.0,-0.7985347985347986,0.0,0.0,0.0,0.0,0.0,-0.6935286935286935,0.0,0.0,0.0,0.0,0.0,-1.1611721611721613,0.0,0.0,0.0,0.0,-0.5702075702075702,-1.7557997557997558,0.0,0.0,0.0,,,,,,,,,,,,,,,,,,,,,,,,,,,,,,,,,,,,,land
accX,-1.9975579975579976,0.8461538461538461,5.545787545787546,0.71875,-0.6875,0.0,-1.9658119658119655,0.0,4.638583638583639,1.25,0.0,0.0,-0.6788766788766789,-1.2942612942612943,3.8864468864468864,1.21875,0.0,0.59375,0.0,-1.021978021978022,4.256410256410256,0.875,0.0,0.0,-1.0329670329670328,0.0,4.816849816849817,0.8125,0.0,0.0,-1.021978021978022,0.0,3.809523809523809,1.3125,0.0,0.0,-1.0598290598290598,-0.8608058608058609,1.3785103785103785,1.875,-0.5625,0.0,0.0,-1.7582417582417582,-1.3174603174603174,2.09375,0.0,0.53125,0.7252747252747253,-2.192918192918193,-2.2295482295482296,1.84375,0.0,0.0,0.0,-1.4871794871794872,-1.4725274725274726,1.40625,-0.84375,0.0,0.0,-0.7667887667887668,-1.4603174603174602,1.53125,-1.03125,0.0,0.0,-1.6642246642246643,-3.0109890109890114,1.84375,-0.96875,0.0,0.0,-2.4285714285714284,-4.3418803418803416,1.46875,-0.9375,0.0,1.31013431013431,-1.931623931623932,-4.735042735042735,1.1875,-1.25,0.0,0.5787545787545788,-1.1172161172161172,-4.938949938949938,1.09375,-1.40625,0.0,-0.5860805860805861,-0.8998778998778999,-5.2686202686202686,1.125,-1.03125,0.0,-1.3296703296703296,-0.6800976800976801,-5.045177045177045,1.09375,0.0,0.65625,-0.5091575091575091,-1.0561660561660562,-4.4664224664224665,0.875,0.0,0.9375,1.195360195360195,-1.5921855921855919,-3.4896214896214897,0.5625,0.0,0.71875,1.3272283272283272,-1.31013431013431,-2.4224664224664223,0.0,0.0,0.0,0.0,-1.0793650793650793,-1.8119658119658117,0.0,0.0,0.0,0.0,-0.6642246642246642,-1.1733821733821734,0.0,0.0,0.0,1.2832722832722834,-1.1135531135531136,-0.9548229548229548,0.0,0.0,0.0,0.9377289377289376,-0.7863247863247863,-0.6385836385836385,0.0,0.0,-0.5625,-1.4920634920634919,0.5274725274725275,0.0,0.0,0.0,0.0,-1.0818070818070815,0.5445665445665445,0.0,0.0,0.0,0.0,-0.6495726495726496,0.0,0.0,0.0,0.0,0.0,0.0,0.0,0.0,0.0,0.0,0.0,0.0,0.0,-0.5775335775335775,0.0,0.0,0.0,-0.5702075702075702,0.0,0.0,0.0,0.0,0.0,0.0,0.0,0.0,0.0,0.0,0.0,0.0,0.0,-0.536019536019536,0.0,0.0,0.0,0.0,0.0,-0.8095238095238095,0.0,0.0,0.0,0.0,-0.5054945054945055,-1.4554334554334554,0.0,0.0,0.0,,,,,,,,,,,,,,,,,,,,,,,,,,,,,,,,,,,,,land
accX,-1.4456654456654456,-0.9474969474969476,3.227106227106227,0.53125,0.0,0.0,-1.286935286935287,0.0,4.258852258852259,0.78125,0.0,0.0,-0.7167277167277167,0.5824175824175825,4.7326007326007336,1.15625,0.0,0.0,0.0,0.0,3.8949938949938954,1.25,-0.71875,0.0,-0.8363858363858364,-0.5335775335775336,3.0463980463980462,1.03125,-0.90625,0.0,-1.3846153846153846,0.0,1.68009768009768,1.28125,-0.59375,0.0,0.0,-0.8522588522588522,0.0,1.65625,0.0,0.0,2.385836385836386,-2.095238095238096,-0.6263736263736264,1.4375,0.0,0.53125,1.2503052503052503,-1.6593406593406594,0.0,0.875,-0.78125,0.0,-1.2893772893772897,0.0,0.0,0.71875,-0.9375,0.0,-1.8693528693528692,0.0,0.0,1.03125,-0.6875,0.0,0.0,-0.9694749694749696,-0.7509157509157509,1.40625,-0.75,0.0,0.0,-1.5457875457875458,-2.8229548229548236,1.4375,-1.1875,0.0,-1.6141636141636142,-1.5616605616605617,-4.029304029304028,1.25,-1.1875,0.0,-1.2735042735042734,-0.9755799755799756,-3.33943833943834,1.09375,-0.8125,0.0,0.0,-1.5274725274725274,-2.873015873015873,1.15625,-0.90625,0.0,0.0,-1.5885225885225884,-2.8803418803418803,1.1875,-1.03125,0.0,0.0,-1.5396825396825398,-3.095238095238096,1.15625,-0.78125,0.0,0.0,-1.352869352869353,-2.9255189255189253,1.15625,-0.59375,0.0,0.0,-0.9316239316239316,-2.9218559218559217,1.25,0.0,0.0,0.8485958485958486,-1.3699633699633702,-3.031746031746032,1.09375,-0.59375,0.0,0.0,-1.4261294261294262,-3.21001221001221,0.71875,-0.65625,0.0,0.0,-0.6654456654456654,-2.376068376068376,0.53125,0.0,0.0,0.0,0.0,-1.733821733821734,0.59375,0.0,0.0,0.7655677655677655,-0.971916971916972,-1.5873015873015872,0.0,0.0,0.0,0.6971916971916972,-0.6800976800976801,-1.1416361416361416,0.0,0.0,0.0,-0.5628815628815629,0.0,-1.0036630036630036,0.0,0.0,0.0,0.0,0.0,-0.6715506715506715,0.0,0.0,0.0,0.0,0.0,-0.6898656898656899,0.0,0.0,0.0,0.0,0.0,-0.9230769230769232,0.0,0.0,0.0,0.0,0.0,-0.5457875457875457,0.0,0.0,0.0,0.0,0.0,0.0,0.0,0.0,0.0,0.0,0.0,-0.5006105006105006,0.0,0.0,0.0,0.0,-0.5079365079365079,-1.0769230769230769,0.0,0.0,0.0,0.0,-0.8522588522588522,-1.78021978021978,0.0,0.0,0.0,,,,,,,,,,,,,,,,,,,,,,,,,,,,,,,land
accX,-0.7252747252747253,0.0,4.117216117216117,0.53125,0.0,0.0,-1.9059829059829057,0.5396825396825397,4.921855921855922,0.625,0.0,0.0,-1.7362637362637363,0.0,5.509157509157508,0.6875,0.0,0.0,-1.1733821733821734,0.0,5.930402930402932,0.59375,0.0,0.0,-1.336996336996337,0.0,5.368742368742368,1.125,-0.65625,0.0,-1.3443223443223444,-0.78998778998779,3.8424908424908426,1.59375,-0.65625,0.0,-0.7228327228327228,-1.3162393162393162,1.2612942612942613,1.875,-0.53125,0.0,0.0,-2.435897435897436,-2.0989010989010994,1.84375,-0.5625,0.53125,1.105006105006105,-1.95970695970696,-3.533577533577533,1.5625,-0.75,0.0,0.9951159951159952,-1.8913308913308915,-3.741147741147741,1.34375,-0.875,0.0,0.0,-1.4468864468864469,-2.7326007326007327,1.15625,-1.0,0.0,-0.9926739926739928,-1.2442002442002442,-2.5103785103785103,1.375,-0.8125,0.0,1.10989010989011,-3.4481074481074483,-3.831501831501832,1.5,-0.75,0.0,0.6495726495726496,-2.351648351648352,-3.888888888888889,0.96875,-1.4375,0.0,-1.3357753357753357,-0.8021978021978022,-3.7423687423687424,0.875,-1.59375,0.0,-1.6507936507936507,0.0,-3.5091575091575087,1.21875,-1.09375,0.65625,0.0,-1.0964590964590966,-3.7887667887667886,1.4375,0.0,1.0,0.6202686202686203,-1.462759462759463,-3.9829059829059825,1.1875,0.0,1.03125,1.1355311355311355,-1.7851037851037852,-3.965811965811966,0.75,0.0,0.78125,0.9401709401709402,-1.3846153846153846,-2.9401709401709404,0.0,0.0,0.53125,0.0,0.0,-1.3663003663003663,0.0,0.0,0.0,0.0,0.0,-0.7753357753357754,0.0,0.0,0.0,0.0,0.0,-0.9609279609279608,0.0,0.0,0.0,0.6434676434676435,-0.7680097680097681,-0.7741147741147741,0.0,0.0,0.0,0.0,0.0,0.0,0.0,0.0,0.0,-0.757020757020757,0.0,-0.6849816849816851,0.0,0.0,0.0,-0.5079365079365079,0.5225885225885226,-0.6446886446886447,0.0,0.0,0.0,0.0,0.0,-1.2246642246642248,0.0,0.0,0.0,0.8742368742368742,0.0,-1.031746031746032,0.0,0.0,0.0,0.0,0.0,-1.0757020757020757,0.0,0.0,0.0,0.0,0.0,-1.2283272283272284,0.0,0.0,0.0,0.0,0.0,-1.363858363858364,0.0,0.0,0.0,0.0,-0.7008547008547008,-1.7411477411477412,0.0,0.0,0.0,0.0,-0.7448107448107448,-1.9584859584859584,0.0,0.0,0.0,0.0,-0.8974358974358975,-2.2820512820512815,0.0,0.0,0.0,0.0,-0.8717948717948718,-2.5482295482295485,0.0,0.53125,0.0,,,,,,,,,,,,,,,,,,,,,,,,,land
accX,-1.6300366300366298,0.0,5.043956043956044,0.75,0.0,0.0,-0.5421245421245421,0.0,5.715506715506716,1.09375,0.0,0.0,0.0,0.0,5.564102564102564,1.46875,-0.71875,0.0,0.0,0.0,3.7851037851037854,1.78125,-0.875,0.0,-0.9389499389499391,-0.6385836385836385,1.3736263736263736,1.75,-0.59375,0.0,-0.8852258852258852,0.0,0.7289377289377289,1.625,0.0,0.0,0.0,0.0,0.6459096459096461,1.59375,0.0,0.65625,0.8034188034188035,-0.9230769230769232,0.0,1.4375,-1.28125,0.0,-1.0329670329670328,-1.26007326007326,-1.68986568986569,1.5625,-1.3125,0.0,-1.0757020757020757,-0.934065934065934,-1.94017094017094,1.625,-0.71875,0.0,1.5482295482295485,-2.0891330891330893,-2.0793650793650795,1.78125,0.0,0.65625,3.2808302808302807,-2.687423687423687,-2.010989010989011,1.625,-1.0,0.0,2.1343101343101343,-2.3626373626373627,-2.2014652014652016,1.4375,-1.78125,0.0,0.0,-2.3174603174603177,-3.1526251526251525,1.4375,-2.03125,-0.8125,0.0,-1.5323565323565325,-3.5579975579975582,1.40625,-1.96875,-0.84375,-0.978021978021978,-1.297924297924298,-4.262515262515263,1.46875,-1.75,-0.6875,-1.0415140415140416,-1.4102564102564104,-4.851037851037852,1.3125,-1.3125,0.0,0.0,-1.5824175824175823,-4.658119658119658,0.96875,-0.78125,0.0,0.6691086691086691,-1.4395604395604396,-3.664224664224663,0.5625,0.0,0.0,0.7716727716727717,-1.3601953601953602,-2.4468864468864466,0.0,0.0,0.0,0.0,-0.6178266178266179,-1.3272283272283272,0.0,0.0,0.0,-0.8315018315018315,0.0,-0.6336996336996337,0.0,0.0,0.0,-0.9365079365079364,0.0,0.0,0.0,0.0,0.0,0.0,0.0,0.0,0.0,0.0,0.0,0.7008547008547008,0.0,0.0,0.0,0.0,0.0,0.0,0.0,0.0,0.0,0.0,0.0,0.0,0.0,-0.8742368742368742,0.0,0.0,0.0,0.0,0.0,-0.9902319902319904,0.0,0.0,0.0,0.0,0.0,-1.137973137973138,0.0,0.0,0.0,0.0,0.0,-1.1025641025641026,0.0,0.0,0.0,0.0,0.0,-1.1807081807081807,0.0,0.0,0.0,0.0,0.0,-1.5738705738705738,0.0,0.0,0.0,0.0,-0.5970695970695971,-2.0415140415140414,0.0,0.0,0.0,0.0,0.0,-2.2185592185592187,0.0,0.0,0.0,,,,,,,,,,,,,,,,,,,,,,,,,,,,,,,,,,,,,land
accX,-1.3968253968253967,0.6117216117216118,3.4627594627594624,0.0,0.0,0.0,-1.4090354090354091,0.8986568986568987,4.882783882783882,0.59375,0.0,0.0,-1.2551892551892552,0.5018315018315018,5.811965811965813,0.6875,0.0,0.0,-0.6752136752136753,0.0,6.457875457875457,0.5625,-0.71875,0.0,-0.9975579975579976,0.0,6.9242979242979255,0.78125,-1.03125,0.0,-2.763125763125763,0.0,6.01953601953602,1.125,-0.75,0.0,-2.4566544566544573,0.0,4.9230769230769225,1.5,0.0,0.0,-0.5286935286935287,-0.7936507936507936,2.1245421245421245,1.96875,-0.625,0.0,0.0,-2.6361416361416357,-1.0476190476190477,1.65625,-0.84375,0.0,0.0,-2.062271062271062,-2.144078144078144,1.46875,-0.625,0.0,0.0,-2.1367521367521367,-1.3894993894993894,1.53125,0.0,0.0,0.5323565323565324,-2.9365079365079363,-1.5396825396825398,1.59375,-0.78125,0.0,0.9951159951159952,-2.958485958485958,-2.087912087912088,1.5,-1.25,0.0,0.0,-2.354090354090354,-2.5885225885225887,1.53125,-1.71875,0.0,0.0,-1.9804639804639803,-3.5702075702075704,1.6875,-1.75,0.0,0.0,-1.5909645909645909,-4.686202686202686,1.6875,-1.71875,0.0,0.0,-1.31990231990232,-5.605616605616605,1.5625,-1.4375,0.0,0.5775335775335775,-1.6703296703296704,-6.2466422466422475,1.21875,-1.0625,0.0,0.8437118437118437,-1.2258852258852257,-5.565323565323565,0.8125,-0.71875,0.0,0.8327228327228328,-1.010989010989011,-4.476190476190476,0.5625,0.0,0.0,0.0,-0.9169719169719168,-3.0097680097680097,0.0,0.0,0.0,0.0,-0.8595848595848596,-1.4969474969474967,0.0,0.0,0.0,0.0,0.0,0.0,0.0,0.0,0.0,-0.894993894993895,0.0,0.0,0.0,0.0,0.0,-1.463980463980464,0.518925518925519,0.0,0.0,0.0,0.0,-1.0244200244200243,0.0,0.0,0.0,0.0,0.0,0.0,0.0,-0.8009768009768009,0.0,0.0,0.0,0.0,0.0,-0.6080586080586079,0.0,0.0,0.0,0.0,0.0,-0.6654456654456654,0.0,0.0,0.0,0.0,0.0,-1.0256410256410255,0.0,0.0,0.0,0.0,0.0,-1.462759462759463,0.0,0.0,0.0,0.0,-0.5164835164835165,-1.735042735042735,0.0,0.0,0.0,0.0,0.0,-1.7887667887667889,0.0,0.0,0.0,0.0,-0.5213675213675214,-2.102564102564102,0.0,0.53125,0.0,,,,,,,,,,,,,,,,,,,,,,,,,,,,,,,,,,,,,land
