,00_accX,00_accY,00_accZ,00_gyroX,00_gyroY,00_gyroZ,01_accX,01_accY,01_accZ,01_gyroX,01_gyroY,01_gyroZ,02_accX,02_accY,02_accZ,02_gyroX,02_gyroY,02_gyroZ,03_accX,03_accY,03_accZ,03_gyroX,03_gyroY,03_gyroZ,04_accX,04_accY,04_accZ,04_gyroX,04_gyroY,04_gyroZ,05_accX,05_accY,05_accZ,05_gyroX,05_gyroY,05_gyroZ,06_accX,06_accY,06_accZ,06_gyroX,06_gyroY,06_gyroZ,07_accX,07_accY,07_accZ,07_gyroX,07_gyroY,07_gyroZ,08_accX,08_accY,08_accZ,08_gyroX,08_gyroY,08_gyroZ,09_accX,09_accY,09_accZ,09_gyroX,09_gyroY,09_gyroZ,10_accX,10_accY,10_accZ,10_gyroX,10_gyroY,10_gyroZ,11_accX,11_accY,11_accZ,11_gyroX,11_gyroY,11_gyroZ,12_accX,12_accY,12_accZ,12_gyroX,12_gyroY,12_gyroZ,13_accX,13_accY,13_accZ,13_gyroX,13_gyroY,13_gyroZ,14_accX,14_accY,14_accZ,14_gyroX,14_gyroY,14_gyroZ,15_accX,15_accY,15_accZ,15_gyroX,15_gyroY,15_gyroZ,16_accX,16_accY,16_accZ,16_gyroX,16_gyroY,16_gyroZ,17_accX,17_accY,17_accZ,17_gyroX,17_gyroY,17_gyroZ,18_accX,18_accY,18_accZ,18_gyroX,18_gyroY,18_gyroZ,19_accX,19_accY,19_accZ,19_gyroX,19_gyroY,19_gyroZ,20_accX,20_accY,20_accZ,20_gyroX,20_gyroY,20_gyroZ,21_accX,21_accY,21_accZ,21_gyroX,21_gyroY,21_gyroZ,22_accX,22_accY,22_accZ,22_gyroX,22_gyroY,22_gyroZ,23_accX,23_accY,23_accZ,23_gyroX,23_gyroY,23_gyroZ,24_accX,24_accY,24_accZ,24_gyroX,24_gyroY,24_gyroZ,25_accX,25_accY,25_accZ,25_gyroX,25_gyroY,25_gyroZ,26_accX,26_accY,26_accZ,26_gyroX,26_gyroY,26_gyroZ,27_accX,27_accY,27_accZ,27_gyroX,27_gyroY,27_gyroZ,28_accX,28_accY,28_accZ,28_gyroX,28_gyroY,28_gyroZ,29_accX,29_accY,29_accZ,29_gyroX,29_gyroY,29_gyroZ,30_accX,30_accY,30_accZ,30_gyroX,30_gyroY,30_gyroZ,31_accX,31_accY,31_accZ,31_gyroX,31_gyroY,31_gyroZ,32_accX,32_accY,32_accZ,32_gyroX,32_gyroY,32_gyroZ,33_accX,33_accY,33_accZ,33_gyroX,33_gyroY,33_gyroZ,34_accX,34_accY,34_accZ,34_gyroX,34_gyroY,34_gyroZ,35_accX,35_accY,35_accZ,35_gyroX,35_gyroY,35_gyroZ,36_accX,36_accY,36_accZ,36_gyroX,36_gyroY,36_gyroZ,37_accX,37_accY,37_accZ,37_gyroX,37_gyroY,37_gyroZ,38_accX,38_accY,38_accZ,38_gyroX,38_gyroY,38_gyroZ,39_accX,39_accY,39_accZ,39_gyroX,39_gyroY,39_gyroZ,40_accX,40_accY,40_accZ,40_gyroX,40_gyroY,40_gyroZ,41_accX,41_accY,41_accZ,41_gyroX,41_gyroY,41_gyroZ,42_accX,42_accY,42_accZ,42_gyroX,42_gyroY,42_gyroZ,43_accX,43_accY,43_accZ,43_gyroX,43_gyroY,43_gyroZ,44_accX,44_accY,44_accZ,44_gyroX,44_gyroY,44_gyroZ,45_accX,45_accY,45_accZ,45_gyroX,45_gyroY,45_gyroZ,46_accX,46_accY,46_accZ,46_gyroX,46_gyroY,46_gyroZ,47_accX,47_accY,47_accZ,47_gyroX,47_gyroY,47_gyroZ,48_accX,48_accY,48_accZ,48_gyroX,48_gyroY,48_gyroZ,49_accX,49_accY,49_accZ,49_gyroX,49_gyroY,49_gyroZ,50_accX,50_accY,50_accZ,50_gyroX,50_gyroY,50_gyroZ,51_accX,51_accY,51_accZ,51_gyroX,51_gyroY,51_gyroZ,52_accX,52_accY,52_accZ,52_gyroX,52_gyroY,52_gyroZ,53_accX,53_accY,53_accZ,53_gyroX,53_gyroY,53_gyroZ,54_accX,54_accY,54_accZ,54_gyroX,54_gyroY,54_gyroZ,55_accX,55_accY,55_accZ,55_gyroX,55_gyroY,55_gyroZ,56_accX,56_accY,56_accZ,56_gyroX,56_gyroY,56_gyroZ,57_accX,57_accY,57_accZ,57_gyroX,57_gyroY,57_gyroZ,58_accX,58_accY,58_accZ,58_gyroX,58_gyroY,58_gyroZ,59_accX,59_accY,59_accZ,59_gyroX,59_gyroY,59_gyroZ,60_accX,60_accY,60_accZ,60_gyroX,60_gyroY,60_gyroZ,61_accX,61_accY,61_accZ,61_gyroX,61_gyroY,61_gyroZ,62_accX,62_accY,62_accZ,62_gyroX,62_gyroY,62_gyroZ,63_accX,63_accY,63_accZ,63_gyroX,63_gyroY,63_gyroZ,64_accX,64_accY,64_accZ,64_gyroX,64_gyroY,64_gyroZ,category
accX,-1.249084249084249,-0.5714285714285714,-1.5091575091575091,0.0,0.0,-0.5625,-0.7557997557997558,0.0,0.0,0.0,0.875,0.0,0.7277167277167277,0.0,0.8376068376068376,0.0,0.6875,0.0,0.0,0.0,0.6422466422466423,0.0,0.0,0.0,-1.0451770451770452,0.514041514041514,0.9023199023199024,0.0,0.0,0.0,-0.5909645909645911,0.0,1.575091575091575,0.0,0.0,0.0,0.0,0.0,3.1636141636141635,0.0,0.0,0.0,0.0,0.0,3.31990231990232,0.0,0.0,0.0,0.0,-0.6031746031746031,2.8339438339438336,0.0,0.0,0.0,0.0,0.0,2.7570207570207566,0.0,0.0,0.0,-0.6178266178266179,0.0,3.586080586080586,0.0,0.0,0.0,-0.5396825396825397,0.0,4.249084249084248,0.0,0.6875,0.0,0.7228327228327228,0.0,4.605616605616605,0.71875,0.0,0.0,0.0,-0.7521367521367521,3.0830280830280827,0.0,0.0,0.0,0.0,-1.4383394383394383,1.8656898656898655,-1.125,0.5625,0.53125,0.0,0.9462759462759462,4.855921855921856,-1.25,0.53125,0.5625,-1.6446886446886446,1.637362637362637,5.6984126984126995,0.0,0.0,0.625,-3.2991452991452985,-0.8376068376068376,3.1868131868131866,-0.78125,0.9375,0.875,-3.053724053724053,-2.2600732600732596,2.6324786324786325,-2.25,1.28125,1.25,-1.0329670329670328,-1.4358974358974361,4.395604395604397,-2.65625,0.0,1.15625,0.0,2.191697191697192,5.675213675213676,-0.59375,-0.78125,1.03125,-3.5494505494505493,-0.7118437118437119,2.2844932844932844,0.0,0.0,1.3125,-0.6336996336996337,-5.102564102564102,-1.5006105006105006,-0.96875,0.53125,1.34375,2.844932844932845,-1.2063492063492065,1.5396825396825398,-1.03125,-0.71875,0.0,-1.4285714285714286,0.5177045177045178,2.0781440781440783,0.5625,-1.28125,0.0,-2.89010989010989,-3.3382173382173383,-2.9706959706959712,0.6875,0.0,1.0625,2.4688644688644694,-4.1611721611721615,-5.255189255189255,0.0,-0.71875,0.59375,0.5592185592185592,-1.3907203907203909,-4.153846153846153,0.0,-0.71875,0.0,0.0,0.0,-2.5921855921855923,0.59375,0.0,0.0,1.7130647130647132,-2.383394383394384,-3.2759462759462763,0.625,0.0,0.0,1.9792429792429795,-2.6263736263736264,-4.595848595848596,0.0,-0.75,0.0,0.0,-0.8107448107448108,-4.7936507936507935,0.0,-0.625,0.0,0.0,0.0,-4.753357753357753,0.84375,-0.53125,0.0,1.78021978021978,-2.4932844932844933,-7.608058608058608,0.0,0.0,0.0,2.750915750915751,-0.7460317460317459,-7.763125763125763,0.0,-0.5625,0.0,0.8363858363858364,1.463980463980464,-6.73992673992674,0.0,0.0,0.0,0.0,0.778998778998779,-3.227106227106227,0.0,0.0,0.0,-0.6459096459096461,0.7802197802197802,-2.2735042735042734,0.0,0.0,0.0,0.0,1.5384615384615383,0.0,0.0,0.0,0.0,-0.5982905982905983,0.5018315018315018,0.0,0.0,0.0,0.0,-0.6483516483516484,0.0,-0.818070818070818,0.0,0.0,0.0,0.0,1.194139194139194,0.0,0.0,0.0,0.0,0.6361416361416361,0.0,0.0,0.0,0.0,0.0,0.8205128205128205,-0.8339438339438342,0.0,0.0,0.0,0.0,0.0,-1.9426129426129424,-1.1843711843711844,0.0,0.0,0.0,-0.5909645909645911,-0.7631257631257631,0.0,0.0,0.0,0.0,0.0,-0.8571428571428571,0.0,0.0,0.0,0.0,0.0,0.0,0.0,0.0,0.0,0.0,0.0,-1.8180708180708183,-0.989010989010989,0.0,0.0,0.0,0.0,-1.9365079365079363,-2.05006105006105,0.0,0.0,0.0,0.0,0.0,-1.4993894993894994,0.0,0.8125,0.0,1.6752136752136753,-0.8888888888888888,-2.462759462759463,0.0,0.75,0.0,,,,,,,,,,,,,,,,,,,,,,,,,,,,,,,,,,,,,,,,,,,,,,,,,,,,,,,,,,,,,,,,,,,,,,,,,,,,,,,moveDown
accX,-0.9914529914529916,0.0,-1.1172161172161172,0.0,0.0,-0.59375,0.0,0.0,0.5970695970695971,-0.53125,1.09375,-0.5625,0.9877899877899878,0.0,2.323565323565324,0.0,1.09375,0.0,1.0537240537240538,0.0,2.8363858363858365,-0.71875,0.0,0.0,0.0,0.0,3.4236874236874235,-0.78125,0.0,0.0,-1.434676434676435,0.0,3.782661782661783,-0.6875,0.0,0.0,-0.9658119658119658,0.525030525030525,4.918192918192919,0.0,0.84375,0.0,0.0,1.0048840048840049,6.604395604395603,0.0,0.65625,0.0,0.0,0.0,6.034188034188035,0.0,0.0,0.0,-0.5518925518925519,-1.4188034188034189,4.9523809523809526,0.0,0.71875,0.0,-1.0537240537240538,-0.7973137973137974,5.3699633699633695,0.0,1.1875,0.0,-0.7741147741147741,0.5787545787545788,7.188034188034187,0.0,1.28125,0.0,-0.8144078144078144,0.5042735042735043,7.910866910866911,1.34375,0.875,0.71875,-1.3736263736263736,-0.8693528693528694,5.700854700854701,1.3125,0.53125,0.96875,-2.6581196581196584,-2.2625152625152625,3.061050061050061,0.0,0.65625,1.0,-2.6105006105006106,-2.1770451770451764,2.584859584859585,0.0,0.875,1.1875,-1.0354090354090355,-2.509157509157509,3.072039072039072,-0.84375,0.53125,1.28125,0.894993894993895,-2.9426129426129437,1.0256410256410255,-1.0,0.0,1.40625,0.8644688644688645,-2.628815628815629,-1.1477411477411477,-0.59375,0.0,1.28125,0.8205128205128205,-2.5128205128205128,-2.6361416361416357,0.0,0.0,1.0,2.6996336996337003,-0.8339438339438342,-1.5152625152625152,0.5625,-0.5625,0.8125,0.5628815628815629,-1.122100122100122,-1.8778998778998781,1.09375,-1.09375,0.71875,-1.249084249084249,-2.9023199023199022,-5.559218559218558,0.75,0.0,0.84375,0.7277167277167277,-2.7704517704517704,-6.454212454212454,0.0,0.0,0.0,1.2722832722832722,-0.811965811965812,-4.08058608058608,0.0,0.0,0.0,-1.4004884004884004,-1.2185592185592184,-2.954822954822955,0.0,0.0,0.0,0.0,-3.4481074481074483,-4.2735042735042725,0.0,0.0,0.65625,0.9963369963369964,-2.537240537240537,-5.3125763125763115,0.0,0.0,0.0,0.0,-1.2210012210012209,-5.653235653235654,0.0,0.0,0.0,1.164835164835165,0.0,-5.526251526251526,0.0,0.0,0.0,1.205128205128205,0.0,-5.888888888888888,0.0,0.0,0.53125,1.800976800976801,-0.7533577533577533,-5.8058608058608066,0.0,0.0,0.0,1.195360195360195,0.0,-4.588522588522588,0.0,0.0,0.0,-1.8217338217338217,1.2442002442002442,-3.2771672771672766,0.0,0.0,-0.78125,-2.4932844932844933,1.9426129426129424,-1.4358974358974361,0.0,0.0,0.0,-1.0012210012210012,0.9401709401709402,0.0,0.0,0.0,0.0,-0.8327228327228328,0.6153846153846154,0.0,0.0,0.0,0.0,-1.3553113553113554,0.0,-1.3418803418803418,0.0,0.0,0.0,0.0,0.0,-0.9597069597069596,0.0,0.0,0.0,0.0,0.0,0.0,0.0,0.0,0.0,0.0,0.0,0.5433455433455433,0.0,0.0,0.0,0.0,-1.8424908424908424,-0.8009768009768009,0.0,0.0,0.0,0.7045177045177046,-1.4945054945054943,-0.8791208791208791,0.0,0.0,0.0,0.7435897435897436,-1.8217338217338217,-1.73992673992674,0.0,0.0,0.0,,,,,,,,,,,,,,,,,,,,,,,,,,,,,,,,,,,,,,,,,,,,,,,,,,,,,,,,,,,,,,,,,,,,,,,,,,,,,,,,,,,,,,,,,,,,,,,,,,,,,,,,,,,,,,,,,,,,,,,,,,,,,,,moveDown
accX,-1.0390720390720392,-0.7374847374847375,-0.8424908424908425,0.0,0.0,0.0,-1.647130647130647,0.0,-1.0537240537240538,0.0,0.78125,0.0,-0.5824175824175825,0.0,0.0,0.0,1.28125,0.0,1.5848595848595848,-0.5457875457875457,2.087912087912088,0.0,0.0,0.0,0.6092796092796092,-0.6593406593406593,1.7435897435897436,0.0,-0.78125,0.0,-0.8888888888888888,-0.7411477411477412,0.5372405372405372,0.0,0.0,0.0,0.0,0.525030525030525,2.045177045177045,0.0,1.03125,0.0,0.7716727716727717,0.7960927960927959,3.976800976800977,0.0,0.0,0.0,-0.7313797313797313,0.7240537240537241,3.8461538461538463,0.0,0.0,0.0,-0.9255189255189256,0.0,3.312576312576313,0.0,0.0,0.53125,-0.7484737484737485,0.0,4.3748473748473735,-0.625,0.0,0.53125,-1.8070818070818069,0.7973137973137974,5.88034188034188,0.0,0.0,0.625,-2.0354090354090357,0.0,5.7765567765567765,0.0,0.8125,0.75,-1.1575091575091576,-2.4542124542124544,4.65934065934066,-0.6875,1.0,0.875,0.0,-1.7142857142857142,4.978021978021979,-1.1875,0.0,1.0,0.0,0.0,5.864468864468863,0.0,0.0,0.96875,0.0,-1.1257631257631258,4.4151404151404146,0.0,0.0,1.03125,0.0,-3.617826617826618,0.8302808302808303,0.0,0.0,0.9375,0.0,-2.145299145299145,0.0,0.0,0.0,0.75,0.0,-0.851037851037851,0.0,0.625,0.625,1.0,1.6459096459096458,-2.5750915750915757,-0.5970695970695971,0.5625,0.0,0.90625,1.4737484737484738,-3.2857142857142856,-1.6862026862026862,0.0,0.0,0.0,-0.6275946275946276,-0.5494505494505495,-1.2783882783882785,0.0,0.0,0.0,0.0,-0.503052503052503,-2.122100122100122,0.5625,0.0,0.71875,2.1868131868131866,-4.728937728937728,-5.951159951159951,0.0,0.0,0.84375,3.0305250305250304,-2.5433455433455427,-4.853479853479853,-0.65625,0.0,0.0,0.7692307692307693,0.6434676434676435,-1.5641025641025639,0.0,0.0,0.0,0.0,-2.380952380952381,-2.8583638583638584,0.65625,0.0,0.0,1.2307692307692308,-3.776556776556777,-5.2002442002442,0.0,0.0,0.0,0.6214896214896215,-1.5506715506715507,-4.9865689865689875,0.0,0.0,-0.53125,-1.1697191697191698,1.3833943833943834,-3.4615384615384617,1.0625,0.0,0.0,0.0,-1.2356532356532357,-6.5738705738705745,0.71875,0.0,0.6875,1.0231990231990231,0.0,-6.155067155067155,0.0,0.0,0.0,0.0,1.1501831501831499,-4.590964590964591,0.0,0.0,0.0,-0.7948717948717948,0.0,-4.158730158730159,0.0,0.0,0.0,-1.0329670329670328,0.9645909645909646,-1.927960927960928,0.0,0.0,0.0,-1.9914529914529917,1.4151404151404152,-1.0073260073260073,0.0,0.0,0.0,-0.5152625152625152,0.5164835164835165,0.0,0.0,0.0,0.0,0.0,0.0,0.0,0.0,0.0,0.0,0.0,0.0,0.0,0.0,0.0,0.0,0.0,0.0,-0.568986568986569,0.0,0.0,0.0,0.8559218559218559,0.0,0.0,0.0,0.0,0.0,0.0,-0.8400488400488401,0.0,0.0,0.0,0.0,0.0,-1.3785103785103785,-1.0134310134310134,0.0,0.0,0.0,0.0,-0.5958485958485958,0.0,0.0,0.0,0.0,0.6080586080586079,-0.6984126984126984,0.0,0.0,0.0,0.0,0.5775335775335775,-0.7887667887667887,0.0,0.0,0.0,0.0,0.9328449328449328,0.0,-1.0427350427350428,0.0,0.0,0.0,,,,,,,,,,,,,,,,,,,,,,,,,,,,,,,,,,,,,,,,,,,,,,,,,,,,,,,,,,,,,,,,,,,,,,,,,,,,,,,,,,,,,,,,,,,,,,,,,,,,,,,moveDown
accX,-0.9975579975579976,0.0,0.0,0.0,0.0,0.0,0.0,0.0,0.6581196581196581,0.0,0.59375,0.0,0.0,0.0,0.0,0.0,0.59375,0.0,0.0,-0.7411477411477412,-0.6446886446886447,0.0,0.625,0.0,0.0,-1.0634920634920637,0.0,-1.1875,0.0,0.0,0.0,0.0,1.531135531135531,-1.03125,0.0,0.0,0.0,0.0,2.2234432234432235,0.0,0.0,0.0,0.0,0.0,2.5067155067155067,0.0,0.0,0.0,0.0,0.0,2.829059829059829,0.0,0.0,0.0,0.5958485958485958,0.0,3.4627594627594624,0.0,0.0,0.0,0.0,0.0,4.5738705738705745,0.0,0.0,0.0,-0.7606837606837606,0.6349206349206349,6.0757020757020745,0.0,0.0,0.0,-1.2222222222222223,0.7460317460317459,6.893772893772894,0.0,0.78125,0.0,-1.3858363858363858,0.0,6.594627594627593,0.0,0.625,0.65625,-2.4322344322344316,0.9633699633699634,6.993894993894994,0.0,0.0,1.0,-3.05006105006105,0.6568986568986569,7.101343101343101,0.0,0.0,1.21875,-3.4481074481074483,-1.0366300366300367,5.146520146520147,0.0,0.0,1.40625,-1.3846153846153846,-3.791208791208791,1.6666666666666667,0.0,0.0,1.5625,-0.7985347985347986,-5.085470085470085,-0.536019536019536,-1.3125,0.0,1.625,-0.5604395604395604,-3.0109890109890114,0.8046398046398047,-2.25,0.0,1.375,0.0,-0.7484737484737485,2.659340659340659,-1.40625,0.0,1.03125,-0.9621489621489622,-1.987789987789988,0.7985347985347986,0.0,0.0,0.84375,-0.9413919413919414,-5.763125763125763,-3.2979242979242978,0.0,0.0,0.9375,0.5006105006105006,-3.045177045177045,-3.811965811965812,-0.78125,0.0,0.59375,0.0,0.0,-1.2026862026862026,0.0,0.0,0.0,-0.8424908424908425,-2.05982905982906,-2.5873015873015874,0.0,0.0,0.0,0.0,-4.594627594627593,-5.407814407814408,0.0,0.0,0.0,0.8021978021978022,-1.0647130647130647,-4.047619047619048,-1.0,0.0,0.0,0.0,0.9755799755799756,-3.2515262515262515,0.5625,-1.0,0.0,-1.6507936507936507,-2.4432234432234434,-7.608058608058608,1.625,-0.78125,0.0,2.5836385836385842,-1.6764346764346765,-8.227106227106226,1.09375,0.0,1.03125,3.477411477411477,0.0,-7.481074481074481,0.5625,0.0,0.6875,2.2515262515262515,0.7387057387057387,-6.6007326007325995,0.625,0.0,0.625,2.6581196581196584,0.0,-6.628815628815629,1.03125,0.0,0.75,1.9987789987789988,0.0,-6.442002442002442,0.71875,0.0,0.0,0.0,0.0,-5.566544566544566,0.0,0.0,0.0,0.5555555555555556,2.2295482295482296,-2.087912087912088,0.0,0.0,0.0,-0.6886446886446886,1.684981684981685,-0.9133089133089132,0.0,0.0,0.0,-0.9829059829059827,0.9267399267399268,-0.6837606837606838,0.0,0.0,0.0,-0.6935286935286935,0.6312576312576312,-0.9279609279609279,0.0,0.0,0.0,0.0,0.0,-0.8681318681318682,0.0,0.0,0.0,0.9975579975579976,0.0,0.0,0.0,0.0,0.0,0.0,-1.612942612942613,-1.0305250305250304,0.0,0.0,0.0,0.0,-0.7814407814407814,-0.7362637362637363,-0.5625,0.0,0.0,-0.9084249084249084,0.0,0.0,0.0,0.0,0.0,0.0,0.0,1.0122100122100122,0.0,0.0,0.0,0.0,-0.9487179487179488,0.0,0.0,0.0,0.0,0.0,-1.3492063492063493,-1.083028083028083,0.0,0.0,0.0,-0.5238095238095238,0.0,-2.010989010989011,0.0,0.0,0.0,0.0,0.0,-2.004884004884005,0.0,0.0,0.0,,,,,,,,,,,,,,,,,,,,,,,,,,,,,,,,,,,,,,,,,,,,,,,,,,,,,,,,,,,,,,,,,,,,,,,,,,,,,,,,,,,,,,,,,,,moveDown
accX,-1.3565323565323566,0.7460317460317459,0.0,0.0,0.75,0.0,0.0,0.0,0.0,0.0,0.0,0.0,0.0,0.0,0.7594627594627594,0.0,0.0,0.0,0.0,-1.4554334554334554,-0.5470085470085471,-0.96875,0.0,0.0,0.0,0.0,1.3833943833943834,-1.53125,0.0,0.0,0.0,0.5518925518925519,3.1990231990231983,-1.1875,0.0,0.0,0.0,0.0,3.584859584859585,-0.5625,0.0,0.0,-0.6898656898656899,0.0,3.948717948717949,0.0,0.0,0.0,-1.017094017094017,0.0,4.57020757020757,0.0,0.0,0.0,-0.9206349206349206,0.0,5.078144078144078,0.0,0.0,0.0,0.0,-0.6666666666666666,5.971916971916972,0.0,0.84375,0.0,0.0,-0.6446886446886447,7.05006105006105,0.0,0.78125,0.0,-0.9352869352869352,0.0,7.1941391941391934,0.0,0.0,0.0,-2.5995115995116,-0.6446886446886447,5.763125763125763,1.0625,0.5625,0.0,-2.5347985347985347,-0.993894993894994,5.212454212454213,1.21875,0.8125,0.90625,-2.31990231990232,-1.5738705738705738,4.7997557997558,0.625,0.96875,1.25,-1.2454212454212454,-0.9194139194139194,6.192918192918192,0.0,1.125,1.5,-1.6202686202686205,-1.68009768009768,5.627594627594628,0.0,0.90625,1.625,-1.8473748473748477,-3.783882783882784,2.6581196581196584,0.0,0.96875,1.65625,-1.1465201465201464,-3.5946275946275947,1.065934065934066,-1.34375,1.09375,1.71875,0.6239316239316239,-2.9572649572649574,2.347985347985348,-1.90625,0.0,1.4375,-0.78998778998779,-0.9621489621489622,1.3736263736263736,-1.375,-1.3125,0.84375,-2.717948717948718,-2.323565323565324,-3.4664224664224665,0.0,-1.15625,0.78125,-1.3565323565323566,-4.588522588522588,-8.04761904761905,0.0,0.0,1.0,0.0,-1.9169719169719168,-7.224664224664225,0.0,0.0,0.71875,0.0,0.5238095238095238,-4.744810744810745,-0.5625,0.0,0.0,0.0,0.0,-3.774114774114774,0.0,0.0,0.0,1.1074481074481075,-4.09035409035409,-6.446886446886448,0.0,0.0,0.0,2.5506715506715505,-1.3931623931623929,-6.086691086691086,0.0,0.0,0.0,2.2649572649572653,1.0952380952380951,-4.8840048840048835,1.21875,-0.75,0.0,1.5152625152625152,-2.126984126984127,-7.2405372405372415,1.09375,0.0,0.0,3.283272283272283,-2.189255189255189,-7.87057387057387,0.0,0.0,0.0,2.601953601953602,0.0,-6.916971916971918,0.0,-0.65625,-0.53125,0.0,1.8034188034188037,-5.401709401709403,0.0,0.0,0.0,0.0,0.8070818070818071,-4.2283272283272275,0.0,0.0,0.0,0.0,0.9816849816849816,-2.440781440781441,0.0,0.0,0.0,-1.0390720390720392,2.235653235653236,-1.5824175824175823,0.0,0.0,0.0,-0.8168498168498168,1.0073260073260073,-1.4102564102564104,0.0,0.0,0.0,0.0,0.0,-1.4371184371184371,0.0,0.0,0.0,0.0,0.0,-1.3540903540903542,0.0,0.0,0.0,0.0,0.9902319902319904,0.0,0.0,0.0,0.0,0.0,-0.6446886446886447,0.0,0.0,0.0,0.0,0.0,-0.8449328449328449,0.0,0.0,0.0,0.0,0.0,-0.7875457875457875,-0.6227106227106227,0.0,0.0,0.0,0.6703296703296703,-0.6251526251526252,0.0,0.0,0.0,0.0,0.0,-0.8901098901098901,0.0,0.0,0.0,0.0,0.0,-0.7203907203907204,-1.4810744810744811,0.0,0.0,0.0,,,,,,,,,,,,,,,,,,,,,,,,,,,,,,,,,,,,,,,,,,,,,,,,,,,,,,,,,,,,,,,,,,,,,,,,,,,,,,,,,,,,,,,,,,,,,,,,,,,,,,,,,,,,,moveDown
accX,0.0,0.0,0.5909645909645911,0.0,0.0,0.0,0.0,0.0,0.0,0.0,0.0,0.0,-0.5470085470085471,0.0,0.0,0.0,0.0,0.0,0.0,0.0,0.0,0.0,0.6875,0.0,0.0,0.5470085470085471,2.184371184371184,0.0,0.0,0.0,0.0,0.0,2.7643467643467643,0.0,0.0,0.0,0.0,0.0,2.814407814407814,0.0,0.0,0.0,0.0,0.0,3.323565323565324,0.0,0.0,0.0,-0.6043956043956044,0.0,3.826617826617827,0.0,0.0,0.0,0.0,0.0,4.8669108669108665,0.0,0.75,0.0,0.0,0.0,5.262515262515263,0.0,0.78125,0.0,0.0,0.0,5.233211233211233,0.0,0.0,0.0,-1.3931623931623929,0.0,4.362637362637362,0.0,0.0,0.0,-2.4444444444444446,0.0,4.095238095238095,0.0,0.0,0.0,-2.614163614163614,0.6837606837606838,4.484737484737486,0.53125,1.25,0.0,-1.1733821733821734,0.0,5.085470085470085,0.78125,1.5625,0.5625,0.0,-1.7875457875457876,3.498168498168498,0.75,0.71875,0.84375,-1.7545787545787546,-3.043956043956044,1.15995115995116,0.0,0.0,0.875,-2.05982905982906,-2.5982905982905984,0.9536019536019535,-1.03125,0.625,0.9375,0.0,-0.5860805860805861,2.7032967032967035,-1.0,1.09375,1.09375,-1.175824175824176,-1.7851037851037852,1.7777777777777777,0.0,0.90625,1.15625,-1.2002442002442002,-3.347985347985348,0.0,-0.875,0.6875,1.125,-0.5396825396825397,-2.6031746031746037,0.0,-2.25,0.0,0.8125,-0.9462759462759462,0.8156288156288156,2.346764346764347,-1.0625,-0.6875,0.5625,-2.8461538461538463,0.0,1.8131868131868127,0.0,0.0,0.84375,-1.5604395604395604,-2.614163614163614,-1.5726495726495726,0.0,0.0,0.90625,0.0,-2.407814407814408,-2.8376068376068377,0.0,0.0,0.0,0.0,-0.6324786324786325,-2.335775335775336,0.0,-0.625,0.0,-1.4371184371184371,-1.6019536019536018,-3.189255189255189,0.5625,-0.5625,0.0,-0.5067155067155067,-2.9450549450549453,-4.6800976800976795,0.0,0.0,0.71875,0.0,-2.7142857142857144,-5.191697191697192,0.0,0.0,0.6875,1.4456654456654456,0.0,-4.851037851037852,1.0,-0.71875,0.53125,1.1074481074481075,-1.84004884004884,-6.518925518925519,1.28125,-0.9375,0.625,1.192918192918193,-2.3150183150183152,-8.677655677655677,0.8125,-0.625,0.75,2.8632478632478637,-0.8363858363858364,-9.072039072039072,0.0,0.0,0.59375,3.6568986568986563,2.208791208791209,-7.108669108669107,0.65625,0.0,0.0,3.3675213675213675,0.5518925518925519,-6.797313797313797,0.0,0.0,0.0,2.8046398046398044,1.3162393162393162,-4.974358974358975,0.0,0.0,-0.6875,0.6373626373626373,2.8351648351648358,-2.4590964590964592,0.0,0.0,-0.65625,0.0,3.2625152625152625,-0.5775335775335775,0.0,0.0,0.0,0.0,1.809523809523809,0.0,0.0,0.0,0.0,0.0,0.0,-1.3931623931623929,0.0,0.0,0.0,0.0,0.6373626373626373,-0.8131868131868132,0.0,0.0,0.0,0.0,0.7716727716727717,0.0,0.0,0.0,0.0,0.0,0.0,0.0,0.0,0.0,0.0,0.0,-2.343101343101343,-1.9548229548229548,0.0,0.0,0.0,0.0,-0.9914529914529916,-0.6910866910866911,0.0,0.0,0.0,-0.5067155067155067,0.0,0.0,0.0,0.0,0.0,0.0,0.0,-0.7936507936507936,0.0,0.0,0.0,0.0,0.0,-1.4029304029304028,0.0,0.0,0.0,,,,,,,,,,,,,,,,,,,,,,,,,,,,,,,,,,,,,,,,,,,,,,,,,,,,,,,,,,,,,,,,,,,,,,,,,,,,,,,,,,,,,,,,,,,moveDown
accX,0.0,0.0,1.3748473748473748,0.0,0.0,0.0,-0.8571428571428571,-0.6031746031746031,0.0,0.0,0.0,0.0,-0.8412698412698413,-1.1562881562881564,-0.9572649572649572,0.0,0.0,0.0,-1.2246642246642248,-0.5995115995115995,0.0,-0.875,0.0,0.0,-0.7692307692307693,0.0,1.3663003663003663,-0.8125,0.6875,0.0,-0.5177045177045178,0.0,2.681318681318681,0.0,0.59375,0.0,0.0,0.0,4.073260073260073,0.0,0.0,0.0,0.0,-0.7716727716727717,5.054945054945055,0.0,0.0,0.0,0.0,0.0,5.905982905982907,0.0,0.0,0.59375,-1.4969474969474967,0.0,5.304029304029304,0.0,0.0,0.0,-2.3699633699633704,0.0,5.006105006105006,0.0,0.59375,0.0,-0.9975579975579976,0.0,6.097680097680098,0.5625,0.96875,0.625,0.0,0.0,6.383394383394385,0.90625,0.53125,0.8125,-1.0732600732600732,-0.5225885225885226,5.31013431013431,0.8125,0.0,0.96875,-2.1465201465201464,0.0,5.101343101343102,0.625,0.0,0.8125,-2.7191697191697197,0.0,5.084249084249084,0.96875,0.75,0.75,-2.2295482295482296,-1.0964590964590966,4.256410256410256,1.1875,1.0625,1.09375,-1.2087912087912087,-2.7594627594627594,3.0463980463980462,0.5625,0.875,1.40625,0.0,-4.64957264957265,2.1868131868131866,0.0,0.0,1.3125,0.0,-3.8998778998779,1.164835164835165,-0.53125,0.0,1.09375,-1.2503052503052503,-3.683760683760684,0.0,-0.78125,0.0,1.21875,0.0,-4.761904761904762,-0.6349206349206349,-1.5625,0.0,0.9375,1.6153846153846154,-3.884004884004884,0.0,-1.53125,-0.78125,0.5625,0.0,-1.7997557997557998,-1.9108669108669107,0.0,-0.53125,0.0,-1.3894993894993894,-2.9865689865689866,-4.590964590964591,0.0,0.65625,0.5625,0.0,-3.877899877899878,-5.6007326007325995,-0.59375,0.78125,0.0,1.4835164835164836,-0.7912087912087912,-2.909645909645909,-0.53125,0.0,0.0,0.0,0.0,-2.1184371184371185,0.0,-0.71875,0.0,-2.0378510378510377,-3.0891330891330893,-4.175824175824176,0.0,0.0,0.0,0.0,-3.7973137973137967,-4.838827838827839,-0.65625,0.0,0.0,0.6923076923076923,0.7960927960927959,-2.761904761904762,0.0,-0.75,0.0,-1.844932844932845,-1.4896214896214897,-4.727716727716729,1.15625,0.0,0.75,1.3907203907203909,-2.249084249084249,-6.857142857142858,0.75,0.0,1.09375,3.2979242979242978,-0.9401709401709402,-7.401709401709403,0.0,-1.09375,0.65625,1.7411477411477412,1.1526251526251523,-7.13919413919414,0.53125,-0.9375,0.0,1.3540903540903542,0.5555555555555556,-6.528693528693529,0.53125,-0.59375,0.0,0.0,0.0,-5.203907203907204,0.0,0.0,0.0,-1.5897435897435896,2.8754578754578755,-2.056166056166056,0.0,0.0,0.0,-1.8608058608058609,1.8547008547008548,-1.2991452991452992,0.0,0.0,0.53125,0.0,1.1562881562881564,-1.0036630036630036,0.0,0.0,0.65625,1.380952380952381,-0.6092796092796092,-1.9853479853479852,0.0,0.0,0.0,1.0634920634920637,0.0,-1.9108669108669107,0.0,0.0,0.0,1.0634920634920637,0.0,-1.3137973137973138,0.0,0.0,0.0,0.9804639804639804,-1.137973137973138,-1.5518925518925517,0.0,0.0,0.0,0.8107448107448108,-1.4041514041514038,-1.3601953601953602,0.0,0.0,0.0,0.0,-1.3162393162393162,-1.2161172161172158,0.0,0.0,0.0,0.0,-0.5079365079365079,-0.5982905982905983,-0.5625,0.53125,0.0,,,,,,,,,,,,,,,,,,,,,,,,,,,,,,,,,,,,,,,,,,,,,,,,,,,,,,,,,,,,,,,,,,,,,,,,,,,,,,,,,,,,,,,,,,,,,,,,,,,,,,,,,,,,,moveDown
accX,0.0,0.0,0.6703296703296703,0.0,0.0,0.0,0.5970695970695971,-0.8766788766788767,0.0,0.0,0.0,0.0,0.0,0.0,0.0,0.0,0.0,0.0,-0.5335775335775336,0.0,0.0,0.0,0.0,0.0,0.0,0.0,0.0,-0.59375,0.0,0.0,0.0,0.0,1.575091575091575,-1.09375,0.0,0.0,0.0,0.0,3.6849816849816848,-0.9375,0.0,0.0,0.0,0.0,4.233211233211233,0.0,0.0,0.0,-1.0598290598290598,0.0,4.0927960927960925,0.0,0.0,0.0,-1.343101343101343,0.0,4.981684981684982,0.0,0.71875,0.0,0.0,0.0,6.108669108669107,0.0,0.6875,0.0,0.0,0.8156288156288156,6.645909645909647,0.0,0.0,0.625,-2.9267399267399266,1.5384615384615383,5.989010989010988,1.0625,0.0,0.6875,-3.4346764346764345,1.3687423687423688,5.94017094017094,1.625,1.375,0.75,-1.3052503052503053,0.0,6.542124542124543,1.5625,1.5625,0.96875,0.7887667887667887,-1.1721611721611722,5.3821733821733835,1.0,0.0,1.03125,-1.3186813186813189,0.0,3.312576312576313,0.625,0.0,1.03125,-4.028083028083028,0.0,1.3992673992673992,0.0,0.71875,1.0,-3.1086691086691087,-1.4407814407814408,1.2747252747252746,0.0,1.46875,1.3125,2.0,-3.854700854700855,1.6007326007326008,0.0,0.0,1.59375,1.2173382173382172,-2.9010989010989015,1.1697191697191698,-0.5625,-1.15625,1.03125,-3.758241758241758,-2.7643467643467643,-1.021978021978022,-0.875,0.0,1.0625,-3.5470085470085464,-2.7863247863247858,-1.6324786324786325,-1.46875,1.0625,1.375,2.086691086691087,-2.3272283272283274,-0.5091575091575091,-1.21875,0.0,1.0625,3.5909645909645915,-2.5982905982905984,-1.2722832722832722,0.0,-1.53125,0.0,-1.8461538461538465,-3.4444444444444446,-4.700854700854701,-0.75,-0.625,0.0,-1.844932844932845,-2.3492063492063493,-4.9682539682539675,-1.46875,0.0,0.0,0.0,0.0,-2.2954822954822958,-1.375,0.0,0.0,0.0,1.2393162393162394,-1.028083028083028,0.0,-0.75,0.0,0.0,-2.778998778998779,-4.565323565323566,0.0,0.0,0.0,1.6312576312576312,-3.94993894993895,-5.286935286935287,-0.90625,0.0,0.0,1.2124542124542124,1.0073260073260073,-2.7411477411477403,-0.65625,0.0,0.0,0.0,0.7326007326007326,-1.5897435897435896,0.84375,-0.75,0.0,0.0,-2.3956043956043955,-4.7313797313797314,0.9375,0.0,0.5625,2.484737484737485,-2.5213675213675213,-5.897435897435898,0.53125,-0.84375,0.0,1.2625152625152625,-0.7680097680097681,-6.5115995115995124,0.65625,-0.5625,0.0,2.1147741147741153,-0.5750915750915749,-6.094017094017093,0.59375,0.0,0.0,0.0,0.0,-4.857142857142857,0.0,0.0,-0.59375,-1.8205128205128205,2.238095238095238,-2.9963369963369964,0.0,0.0,0.0,-0.8901098901098901,1.9096459096459095,-0.9426129426129426,0.0,0.0,0.0,-0.8278388278388278,0.9328449328449328,-0.5347985347985348,0.0,0.0,0.0,-1.431013431013431,0.0,-1.413919413919414,0.0,0.0,0.0,0.0,0.0,-1.2637362637362637,0.0,0.0,0.0,0.0,0.0,0.0,0.0,0.0,0.0,0.0,-0.6117216117216118,0.0,0.0,0.0,0.0,0.0,-1.0903540903540905,0.0,0.0,0.0,0.0,0.0,-1.514041514041514,-1.2246642246642248,0.0,0.0,0.0,0.0,-0.7094017094017094,-2.1648351648351647,0.0,0.0,0.0,,,,,,,,,,,,,,,,,,,,,,,,,,,,,,,,,,,,,,,,,,,,,,,,,,,,,,,,,,,,,,,,,,,,,,,,,,,,,,,,,,,,,,,,,,,,,,,,,,,,,,,moveDown
accX,0.0,-0.8168498168498168,0.0,0.0,0.0,0.0,0.0,-1.0024420024420024,-0.6398046398046398,-0.78125,0.0,-0.6875,-0.6446886446886447,0.0,0.7851037851037851,-0.8125,0.5625,-0.53125,0.5042735042735043,-1.0231990231990231,0.5921855921855922,-0.6875,0.0,0.0,-0.7142857142857143,0.0,1.5238095238095235,-0.96875,0.0,0.0,-0.8327228327228328,0.5641025641025641,2.6825396825396823,-0.6875,0.0,0.0,0.0,0.663003663003663,4.163614163614163,0.0,0.0,0.0,0.0,0.0,4.285714285714286,0.0,0.0,0.0,-0.8547008547008547,0.0,4.4371184371184365,0.0,0.0,0.0,-1.0476190476190477,0.0,4.1892551892551895,0.0,0.0,0.0,-1.4786324786324787,0.0,4.652014652014652,0.0,0.625,0.0,-0.8754578754578755,0.0,5.2393162393162385,0.65625,0.65625,0.0,-0.6556776556776557,-1.0305250305250304,4.6129426129426125,0.6875,0.0,0.6875,-0.6642246642246642,-0.7326007326007326,4.496947496947497,0.625,0.0,0.875,-1.332112332112332,0.0,4.907203907203908,0.84375,0.0,0.8125,-2.2820512820512815,0.0,3.6666666666666665,1.0625,1.0625,0.75,-2.3650793650793656,0.0,2.6764346764346763,1.15625,1.1875,0.90625,-1.94993894993895,-0.8693528693528694,2.1245421245421245,0.65625,0.9375,1.21875,-1.4493284493284493,-1.702075702075702,1.1697191697191698,0.0,0.71875,1.4375,-1.5934065934065933,-2.0805860805860807,0.0,-0.71875,0.8125,1.40625,-0.8522588522588522,-0.8937728937728938,1.1538461538461535,0.0,0.53125,1.375,0.0,-1.8461538461538465,1.3272283272283272,0.0,0.0,1.25,0.6312576312576312,-4.238095238095238,0.0,-0.96875,0.0,1.125,1.8070818070818069,-5.295482295482295,-1.4041514041514038,-1.65625,0.0,0.75,1.4065934065934067,-2.330891330891331,0.0,-1.0625,0.0,0.0,0.0,-1.0048840048840049,0.0,0.0,0.0,0.0,-0.7985347985347986,-2.909645909645909,-0.557997557997558,0.0,0.0,0.0,-0.8901098901098901,-4.478632478632479,-1.9523809523809523,-1.75,0.0,0.0,0.0,0.9194139194139194,0.0,-0.78125,0.0,-0.59375,-2.8205128205128207,0.8241758241758241,0.0,0.75,0.0,0.0,-3.31013431013431,-2.7387057387057387,-2.8547008547008548,0.0,0.0,0.0,0.0,-3.2332112332112333,-4.153846153846153,0.0,0.0,0.0,1.1916971916971917,0.0,-6.652014652014652,0.0,-0.84375,0.0,0.0,-1.0451770451770452,-7.581196581196581,0.0,0.0,0.0,2.862026862026862,-0.5286935286935287,-5.063492063492063,0.0,0.0,0.0,1.321123321123321,0.94993894993895,-4.0427350427350435,0.0,0.0,0.0,0.9633699633699634,0.0,-4.614163614163614,0.625,0.0,0.0,1.0805860805860803,0.0,-4.355311355311355,0.5625,0.0,0.0,0.0,0.0,-4.2344322344322345,0.0,0.0,0.0,0.0,1.2161172161172158,-3.0818070818070824,0.0,0.0,0.0,-1.7118437118437118,0.7313797313797313,-3.0586080586080584,0.0,0.0,0.0,-0.9328449328449328,0.8644688644688645,-1.6666666666666667,0.0,0.0,0.0,-0.5286935286935287,0.0,-1.1123321123321124,0.0,0.0,0.0,0.0,0.0,-1.0915750915750917,0.0,0.0,0.0,0.0,0.0,-1.3907203907203909,0.0,0.0,0.0,0.0,-0.6178266178266179,-1.565323565323565,0.0,0.0,0.0,1.1355311355311355,0.0,-0.8302808302808303,0.0,0.0,0.0,1.398046398046398,0.0,-0.6923076923076923,0.0,0.0,0.0,0.9621489621489622,0.0,-1.4151404151404152,0.0,0.0,0.0,,,,,,,,,,,,,,,,,,,,,,,,,,,,,,,,,,,,,,,,,,,,,,,,,,,,,,,,,,,,,,,,,,,,,,,,,,,,,,,,,,,,,,,,,,,,,,,,,moveDown
accX,-0.5946275946275946,-0.6361416361416361,-0.6153846153846154,0.0,0.0,0.0,-1.5238095238095235,0.0,0.0,-0.8125,0.0,0.0,0.0,0.0,0.0,-1.125,0.625,0.0,0.0,0.0,1.363858363858364,-1.5,0.0,0.0,-1.0781440781440779,0.0,2.2808302808302807,-1.3125,0.0,0.0,-1.103785103785104,0.9010989010989012,4.045177045177045,-0.5625,0.0,0.53125,-1.26007326007326,0.7240537240537241,4.796092796092796,0.0,0.0,0.0,-1.3577533577533578,0.0,3.978021978021978,0.53125,0.0,0.0,-1.1343101343101345,0.0,4.199023199023198,0.65625,0.59375,0.0,-0.5628815628815629,0.0,4.5787545787545785,0.59375,0.0,0.0,-1.137973137973138,0.0,4.208791208791209,0.0,0.0,0.0,-1.6202686202686205,0.0,3.3870573870573866,0.0,0.0,0.5625,-1.8852258852258847,0.0,3.736263736263736,0.65625,0.0,0.84375,-1.9768009768009769,0.0,4.069597069597069,0.84375,0.0,0.96875,-1.5848595848595848,-0.5494505494505495,4.38949938949939,0.625,0.6875,1.09375,-1.2393162393162394,-1.0818070818070815,4.803418803418802,0.0,0.8125,1.125,-1.266178266178266,-1.3907203907203909,5.446886446886448,0.0,0.90625,1.1875,0.0,-0.9206349206349206,6.64957264957265,0.0,0.53125,1.3125,-1.21978021978022,-1.95970695970696,4.797313797313797,0.78125,0.0,1.5,0.0,-4.227106227106227,1.5396825396825398,0.0,0.0,1.625,0.0,-4.992673992673993,0.0,-1.15625,0.59375,1.25,0.6971916971916972,-3.9645909645909647,0.0,-1.65625,0.0,1.09375,0.9389499389499391,-3.7228327228327234,0.0,-1.75,0.0,0.84375,-1.1807081807081807,-2.452991452991453,-1.382173382173382,-1.65625,0.0,0.75,-1.4554334554334554,-0.5006105006105006,-2.6605616605616604,-0.9375,0.0,0.9375,1.037851037851038,0.5641025641025641,-2.915750915750916,0.0,0.0,1.0625,2.1819291819291817,-2.4224664224664223,-3.7887667887667886,0.0,0.0,0.65625,0.8131868131868132,-2.2002442002442004,-3.869352869352869,0.0,0.0,0.0,3.231990231990232,-1.5946275946275947,-6.697191697191697,0.0,0.0,0.0,2.4444444444444446,-1.2014652014652014,-6.641025641025642,0.0,-0.53125,0.0,1.3076923076923077,-0.5628815628815629,-5.284493284493284,0.0,0.0,0.0,0.568986568986569,0.0,-3.887667887667888,0.0,0.0,0.0,1.0036630036630036,0.6739926739926739,-3.207570207570208,0.0,0.0,0.0,0.0,-0.8095238095238095,-4.084249084249084,0.0,-0.53125,0.0,-0.6190476190476191,0.0,-4.05982905982906,0.0,0.0,0.0,0.0,0.0,-3.293040293040293,0.0,0.0,0.0,0.912087912087912,0.0,-3.1330891330891335,0.0,0.0,0.0,0.0,0.0,-3.7887667887667886,0.0,0.0,0.0,-1.043956043956044,0.0,-3.6495726495726495,0.0,0.0,0.0,-0.5763125763125763,0.5714285714285714,-2.380952380952381,0.0,0.0,0.0,-1.4835164835164836,1.4383394383394383,-1.391941391941392,0.0,0.0,0.0,-1.4151404151404152,0.9206349206349206,-0.8351648351648352,0.0,0.0,0.0,0.0,0.0,0.0,0.0,0.0,0.0,0.0,-0.6019536019536019,-0.8901098901098901,0.0,0.0,0.0,0.5995115995115995,0.0,-1.1782661782661783,0.0,0.0,0.0,0.9865689865689866,0.0,0.0,0.0,0.0,0.0,0.9145299145299144,0.0,-0.6813186813186813,0.0,0.0,0.0,1.010989010989011,0.0,-1.4078144078144081,0.0,0.0,0.0,1.0732600732600732,0.0,-1.271062271062271,0.0,0.0,0.0,1.4383394383394383,0.5006105006105006,-1.2112332112332111,0.0,0.0,0.0,,,,,,,,,,,,,,,,,,,,,,,,,,,,,,,,,,,,,,,,,,,,,,,,,,,,,,,,,,,,,,,,,,,,,,,,,,,,,,,,,,,,,,,,,,,moveDown
accX,-0.6068376068376068,0.0,0.6080586080586079,0.0,0.0,0.0,0.0,0.0,0.5995115995115995,0.0,0.0,0.0,-0.5616605616605617,0.0,0.0,0.0,0.0,0.0,0.0,0.0,0.0,0.0,0.0,0.0,0.0,0.0,1.5702075702075702,0.0,0.0,0.0,0.0,0.0,1.3675213675213675,0.0,0.0,0.0,0.0,0.0,3.1123321123321124,0.0,0.0,0.0,0.0,0.8156288156288156,5.321123321123321,0.0,0.0,0.0,0.0,0.0,5.448107448107449,0.0,0.0,0.0,-0.9853479853479854,0.0,5.354090354090353,0.0,0.0,0.0,-2.1245421245421245,1.1355311355311355,6.043956043956044,0.0,0.59375,0.0,-2.240537240537241,1.5018315018315018,7.2393162393162385,0.53125,1.40625,0.0,-0.9255189255189256,1.0085470085470083,8.096459096459096,0.75,1.3125,0.65625,0.0,0.0,7.2735042735042725,0.59375,0.0,0.96875,-2.1257631257631258,0.0,5.87057387057387,0.0,0.0,1.125,-4.051282051282051,0.0,5.257631257631258,0.0,0.6875,1.15625,-3.6910866910866913,0.0,5.346764346764347,0.0,1.34375,1.4375,-1.5115995115995116,-1.4945054945054943,3.9890109890109886,0.59375,1.0,1.90625,0.8131868131868132,-4.7936507936507935,0.9377289377289376,0.0,0.0,1.84375,0.0,-6.295482295482294,-1.6984126984126984,-3.0625,0.71875,1.6875,1.0329670329670328,0.8620268620268621,2.4725274725274726,-2.03125,0.0,1.3125,0.0,-1.2881562881562882,-1.5177045177045176,0.0,-1.0,0.8125,0.0,-6.122100122100122,-9.023199023199023,0.5625,-0.875,1.0625,2.2600732600732596,-4.5006105006105015,-9.010989010989011,-0.75,0.0,1.15625,3.0463980463980462,1.1416361416361416,-2.7387057387057387,-1.0625,0.0,0.59375,0.0,0.6080586080586079,-1.1355311355311355,0.0,0.0,0.0,-1.0793650793650793,-2.1355311355311355,-3.763125763125763,0.59375,0.0,0.0,0.0,-2.5531135531135534,-4.7326007326007336,0.0,0.0,0.0,0.0,1.6068376068376071,-2.7826617826617825,0.0,-0.90625,-0.625,-2.7191697191697197,0.0,-5.282051282051282,0.9375,-1.125,0.0,0.0,-2.2124542124542126,-8.494505494505495,0.59375,0.0,0.0,1.525030525030525,0.0,-5.2405372405372415,0.0,0.0,0.0,0.0,1.061050061050061,-4.020757020757022,0.0,-0.90625,0.0,-0.9413919413919414,0.0,-4.728937728937728,0.65625,-0.8125,0.0,0.0,0.0,-4.905982905982906,0.0,-0.53125,0.0,0.0,0.6422466422466423,-3.293040293040293,0.0,0.0,0.0,0.0,1.2625152625152625,-1.7863247863247864,0.0,-0.59375,0.0,1.0647130647130647,0.0,-1.8107448107448108,0.0,0.0,0.0,1.3833943833943834,0.0,-1.815628815628816,0.0,-0.53125,0.0,-1.0634920634920637,1.7130647130647132,-1.575091575091575,0.0,-0.65625,0.0,-0.9975579975579976,1.137973137973138,-0.8351648351648352,0.0,0.0,0.9375,1.017094017094017,-1.2405372405372406,-1.462759462759463,0.0,0.0,1.15625,1.4505494505494505,-0.9267399267399268,-1.2893772893772897,0.0,0.0,0.53125,0.0,-0.5347985347985348,-0.757020757020757,0.0,0.0,0.0,0.0,0.0,0.0,0.0,0.0,0.0,0.0,-1.4004884004884004,0.0,0.0,0.0,0.0,0.0,-0.7912087912087912,-0.8559218559218559,0.0,0.0,0.0,0.0,-0.6251526251526252,-1.2295482295482296,0.0,0.0,0.0,0.0,-0.8461538461538461,-1.6886446886446886,0.0,0.0,0.0,,,,,,,,,,,,,,,,,,,,,,,,,,,,,,,,,,,,,,,,,,,,,,,,,,,,,,,,,,,,,,,,,,,,,,,,,,,,,,,,,,,,,,,,,,,,,,,,,moveDown
accX,0.0,0.0,1.1782661782661783,0.0,0.0,0.0,0.0,0.0,0.0,0.59375,0.0,0.0,-1.336996336996337,0.0,-1.0586080586080586,0.0,0.0,-0.5625,-0.5897435897435898,0.0,0.0,0.0,0.0,0.0,0.0,-0.8302808302808303,-0.6361416361416361,-0.625,0.0,0.0,-0.7326007326007326,0.0,0.0,-0.90625,0.59375,0.0,0.0,0.0,1.6984126984126984,-0.53125,0.53125,0.0,0.0,0.0,3.6336996336996337,0.0,0.0,0.0,0.0,0.0,4.3528693528693525,0.0,0.0,0.0,0.0,0.0,4.572649572649572,0.0,0.0,0.0,0.0,0.0,4.888888888888889,0.0,0.0,0.0,-1.5421245421245422,1.2344322344322345,6.0134310134310125,0.0,0.0,0.0,-1.1575091575091576,1.7606837606837606,6.525030525030526,0.59375,0.0,0.0,0.0,0.7875457875457875,6.308913308913309,0.78125,0.0,0.59375,-1.5030525030525033,1.2832722832722834,5.713064713064713,0.5625,0.0,0.65625,-2.5665445665445668,1.3907203907203909,4.543345543345543,0.65625,0.0,0.71875,-2.793650793650793,1.4493284493284493,3.980463980463981,1.09375,0.71875,0.65625,-2.1514041514041518,0.0,3.708180708180708,1.46875,1.0625,0.8125,-1.1611721611721613,-1.85958485958486,2.649572649572649,1.25,0.78125,1.125,-0.6007326007326007,-3.216117216117216,1.072039072039072,0.0,0.0,1.3125,-1.1855921855921856,-1.728937728937729,0.6434676434676435,-0.8125,0.0,1.28125,-0.8913308913308914,0.0,1.2722832722832722,-0.5625,0.0,1.28125,-1.1562881562881564,-2.3150183150183152,0.0,0.0,0.0,1.28125,-0.757020757020757,-4.355311355311355,-1.0537240537240538,-1.78125,0.0,1.25,0.5384615384615384,-0.6886446886446886,0.8974358974358975,-3.15625,0.0,0.75,0.0,1.2173382173382172,1.4871794871794872,-1.21875,-1.375,0.0,-3.532356532356532,-2.8046398046398044,-2.6385836385836385,0.5625,-1.34375,0.0,-2.203907203907204,-4.112332112332112,-4.164835164835165,0.0,0.0,0.71875,1.043956043956044,-2.7228327228327234,-2.9670329670329667,-0.96875,0.0,0.0,0.0,0.0,-1.7997557997557998,-0.53125,-1.1875,0.0,-3.0109890109890114,-2.2246642246642248,-5.570207570207571,0.0,-1.25,0.0,0.0,-3.887667887667888,-7.9242979242979255,0.53125,0.0,0.0,2.15018315018315,-2.1672771672771667,-7.130647130647131,0.0,0.0,0.0,1.0122100122100122,-1.4835164835164836,-7.074481074481075,0.0,0.0,0.0,0.0,-0.5604395604395604,-6.122100122100122,0.5625,0.0,0.0,1.647130647130647,-1.815628815628816,-6.249084249084248,0.0,0.0,0.78125,3.925518925518925,-1.4090354090354091,-5.435897435897436,0.0,0.0,0.0,3.7094017094017095,1.0683760683760684,-3.935286935286935,0.0,0.0,-1.03125,0.8083028083028083,1.6141636141636142,-4.0427350427350435,0.0,0.0,-1.21875,-1.5921855921855919,2.1294261294261294,-3.936507936507936,0.0,0.0,-0.65625,-1.321123321123321,2.1672771672771667,-2.3919413919413923,0.0,0.0,0.0,0.0,1.8632478632478635,0.0,0.0,0.0,0.0,0.0,1.0158730158730158,0.0,0.0,0.0,0.0,-0.6862026862026862,-1.442002442002442,-2.669108669108669,0.0,0.0,0.0,0.0,0.0,-1.5811965811965811,0.0,0.0,0.0,0.0,0.0,0.0,0.0,0.0,0.0,0.0,0.0,0.0,0.0,0.0,0.0,0.0,0.0,0.0,0.0,0.0,0.0,0.0,0.0,-0.9157509157509156,0.0,0.0,0.0,0.0,0.0,-1.9914529914529917,0.0,0.0,0.0,,,,,,,,,,,,,,,,,,,,,,,,,,,,,,,,,,,,,,,,,,,,,,,,,,,,,,,,,,,,,,,,,,,,,,,,,,,,,,,,,,,,,,,,,,,moveDown
accX,-0.6275946275946276,-0.5006105006105006,0.7557997557997558,-0.71875,0.0,0.0,0.0,0.0,1.9804639804639803,-0.625,0.0,0.0,0.0,0.0,2.393162393162393,-0.59375,0.0,0.0,0.0,-0.6495726495726496,1.7716727716727716,-0.65625,0.0,0.0,0.0,0.0,1.94017094017094,-0.71875,0.0,0.0,0.0,0.0,2.2551892551892547,-0.625,0.0,0.0,0.0,0.0,2.728937728937729,-0.59375,0.0,0.0,0.0,0.0,3.766788766788767,0.0,0.0,0.0,0.0,0.5665445665445665,4.63980463980464,0.0,0.0,0.0,0.0,0.0,4.201465201465202,0.0,0.0,0.0,-0.7484737484737485,0.0,3.3443223443223444,0.0,0.0,0.0,-0.7814407814407814,0.0,3.725274725274725,0.0,0.0,0.65625,-0.7264957264957265,0.7838827838827839,5.258852258852259,0.0,0.0,0.625,-1.5665445665445663,0.0,4.113553113553113,0.75,0.75,0.59375,-0.9682539682539684,-1.0744810744810744,3.5494505494505493,0.0,1.21875,0.65625,0.0,0.0,4.3528693528693525,0.0,1.0,0.78125,0.0,-1.3785103785103785,3.571428571428572,0.53125,0.0,0.84375,-0.7411477411477412,-2.4920634920634916,0.8461538461538461,0.0,0.0,0.90625,-1.8669108669108667,-1.5763125763125765,0.0,-0.90625,0.59375,1.125,-1.6312576312576312,0.0,2.133089133089133,-1.28125,0.6875,1.15625,0.0,-0.518925518925519,2.9951159951159956,-0.65625,0.0,1.21875,0.0,-3.6190476190476186,0.5702075702075702,0.0,0.0,1.15625,0.0,-4.9304029304029315,-1.3724053724053724,-1.03125,0.0,1.0,0.0,-0.8485958485958486,0.6227106227106227,-1.5,0.0,0.53125,0.0,0.0,2.2612942612942613,0.0,0.0,0.0,1.4932844932844933,-4.079365079365079,-2.4065934065934065,0.71875,0.0,0.0,2.3223443223443225,-6.023199023199023,-7.3406593406593394,0.0,-0.59375,0.0,1.4969474969474967,-1.641025641025641,-5.905982905982907,-0.8125,0.0,0.0,0.7350427350427351,1.2881562881562882,-1.4737484737484738,0.0,0.0,0.0,0.0,-1.52014652014652,-2.230769230769231,0.78125,0.0,0.0,-1.485958485958486,-3.330891330891331,-4.5836385836385825,0.0,0.0,0.0,-1.4945054945054943,-1.0683760683760684,-4.881562881562882,-0.65625,0.0,0.0,-1.7582417582417582,1.5811965811965811,-3.5372405372405376,0.0,0.0,-0.53125,-3.1868131868131866,0.0,-4.63980463980464,0.75,-0.53125,0.0,-1.514041514041514,-0.7826617826617827,-5.757020757020759,0.84375,0.0,0.8125,0.7533577533577533,-1.2319902319902318,-6.054945054945056,0.0,0.0,0.9375,1.5763125763125765,0.0,-5.106227106227107,0.0,0.0,0.0,1.2564102564102564,0.0,-5.083028083028083,0.0,0.0,0.0,1.0256410256410255,0.0,-4.8327228327228315,0.0,0.0,0.0,0.9597069597069596,0.0,-2.9572649572649574,0.0,0.0,0.0,0.0,0.8070818070818071,-1.4065934065934067,0.0,0.0,0.0,0.0,0.0,-0.9438339438339438,0.0,0.0,0.0,1.1135531135531136,-1.1916971916971917,-0.7753357753357754,0.0,0.0,0.0,0.5531135531135531,0.0,-0.8901098901098901,0.0,0.0,0.0,-1.6678876678876684,0.0,-1.95970695970696,0.0,0.0,0.0,-0.9059829059829059,0.0,-1.5897435897435896,0.0,0.65625,0.75,0.0,-1.249084249084249,-0.8717948717948718,0.0,0.53125,0.0,0.0,0.0,0.0,0.0,0.0,0.0,-0.5225885225885226,0.0,0.0,0.0,0.0,0.0,0.0,0.7557997557997558,-0.5433455433455433,0.0,0.0,0.0,0.0,0.6752136752136753,-1.1428571428571428,0.59375,0.0,0.0,0.0,0.0,-2.1807081807081805,0.65625,0.0,0.5625,,,,,,,,,,,,,,,,,,,,,,,,,,,,,,,,,,,,,,,,,,,,,,,,,,,,,,,,,,,,,,,,,,,,,,,,,,,,,,,moveDown
accX,0.0,0.0,0.8302808302808303,0.0,0.53125,-0.53125,0.0,0.0,1.47985347985348,0.0,0.0,0.0,0.0,-0.6031746031746031,0.8656898656898657,0.0,0.0,0.0,0.0,0.0,0.0,-0.65625,0.0,0.0,0.0,0.0,1.2039072039072038,-0.8125,0.0,0.0,0.0,0.5164835164835165,2.2185592185592187,0.0,0.0,0.0,-0.8986568986568987,0.73992673992674,2.694749694749695,0.0,0.0,0.0,0.0,0.0,2.7863247863247858,0.0,0.65625,0.0,0.0,-0.818070818070818,2.413919413919414,0.0,0.0,0.0,0.0,-0.8449328449328449,2.89010989010989,-0.6875,0.0,0.5625,-0.7948717948717948,0.8986568986568987,5.1379731379731375,0.0,0.0,0.0,0.0,0.0,4.548229548229548,0.0,0.875,0.0,-0.5286935286935287,-0.706959706959707,3.551892551892552,0.0,0.84375,0.0,0.0,0.0,4.531135531135531,0.0,0.0,0.5625,-0.9926739926739928,0.0,4.877899877899878,0.0,0.0,0.625,-2.1147741147741153,0.0,3.5091575091575087,0.71875,0.0,0.0,-1.7557997557997558,-0.9072039072039072,2.383394383394384,0.8125,1.0625,0.65625,-1.2466422466422469,-1.3003663003663004,2.2979242979242978,0.0,1.34375,0.90625,0.0,-1.031746031746032,3.2783882783882783,0.0,0.8125,1.09375,0.0,-1.956043956043956,2.294261294261294,0.0,0.0,1.0625,-2.3345543345543347,-2.8363858363858365,0.0,0.0,-0.65625,0.9375,-3.5982905982905984,-3.211233211233212,-1.4664224664224663,-1.1875,0.0,0.9375,-1.3125763125763126,-0.6764346764346765,0.9902319902319904,-1.875,1.59375,1.21875,2.1721611721611715,0.0,2.533577533577533,-1.0,0.875,1.15625,1.4236874236874235,-3.0244200244200243,-0.8669108669108669,0.0,-0.75,0.78125,-1.4957264957264955,-3.7423687423687424,-3.9841269841269837,0.0,-0.84375,0.5625,-1.7191697191697193,-1.78998778998779,-3.2466422466422467,-1.40625,0.0,0.0,-0.6727716727716728,1.3443223443223444,0.0,-0.96875,0.0,0.0,0.0,-0.6275946275946276,-1.8205128205128205,0.71875,-0.6875,0.0,-0.9413919413919414,-3.8351648351648353,-5.915750915750916,0.78125,-0.625,0.65625,0.8144078144078144,-2.688644688644689,-4.6361416361416365,0.0,0.0,0.59375,2.1367521367521367,0.0,-2.376068376068376,0.0,0.0,0.0,0.0,0.0,-3.0183150183150182,0.65625,-1.0,0.0,0.0,-1.5702075702075702,-5.841269841269841,0.875,-0.65625,0.0,1.8754578754578757,0.0,-5.531135531135532,0.0,-0.6875,0.0,1.4554334554334554,0.5457875457875457,-4.935286935286936,0.0,-0.78125,0.0,1.2942612942612943,0.0,-4.998778998778999,0.0,-0.5625,0.0,1.9523809523809523,-0.8339438339438342,-4.9682539682539675,0.0,-0.53125,-0.65625,0.0,0.0,-3.9645909645909647,0.0,0.0,-0.84375,-1.2576312576312576,1.7203907203907205,-2.1782661782661785,0.0,0.0,0.0,-1.5677655677655675,1.0402930402930404,-1.641025641025641,0.0,0.0,0.0,-1.0134310134310134,0.0,-2.070818070818071,0.0,0.0,0.0,0.0,0.0,-1.945054945054945,0.0,0.0,0.0,0.0,0.0,-1.4090354090354091,0.0,0.0,0.0,0.0,0.0,-0.5128205128205128,0.0,0.0,0.0,-0.8571428571428571,0.0,-0.8412698412698413,0.0,0.0,0.0,-0.9768009768009768,-0.7741147741147741,-1.78021978021978,0.0,0.0,0.0,0.0,0.0,-1.5775335775335777,0.0,0.0,0.0,,,,,,,,,,,,,,,,,,,,,,,,,,,,,,,,,,,,,,,,,,,,,,,,,,,,,,,,,,,,,,,,,,,,,,,,,,,,,,,,,,,,,,,,,,,,,,,,,,,,,,,moveDown
accX,-0.811965811965812,0.0,0.0,0.0,0.0,0.0,0.0,-0.6422466422466423,0.7667887667887668,-0.5625,0.0,0.0,0.0,0.0,1.962148962148962,0.0,0.0,0.0,-0.503052503052503,0.0,1.6642246642246643,0.0,0.0,0.0,0.0,0.0,1.4786324786324787,0.0,0.0,0.0,0.0,0.0,2.1465201465201464,0.0,0.0,0.0,0.0,0.0,2.214896214896215,0.0,0.0,0.0,-0.8498168498168498,0.6336996336996337,2.728937728937729,-0.6875,0.0,0.0,-1.4358974358974361,0.9548229548229548,3.4761904761904763,-0.625,0.0,0.0,-0.7851037851037851,0.8669108669108669,4.838827838827839,0.0,0.59375,0.0,0.0,0.0,5.146520146520147,0.0,0.0,0.5625,-1.0476190476190477,0.0,4.57020757020757,0.53125,0.0,0.65625,-1.934065934065934,0.73992673992674,4.7997557997558,0.75,0.0,0.625,-2.6166056166056166,0.6764346764346765,4.431013431013431,1.09375,0.625,0.59375,-2.3284493284493286,0.0,3.5775335775335777,0.875,1.125,0.71875,0.0,-1.2881562881562882,3.9413919413919416,0.0,0.0,1.125,0.0,-1.1562881562881564,4.512820512820513,0.65625,0.0,1.15625,-1.474969474969475,-1.5164835164835164,3.5885225885225887,0.8125,0.0,1.09375,-2.283272283272283,-1.8253968253968251,2.1684981684981683,0.0,1.15625,1.09375,-1.26007326007326,-1.4835164835164836,2.5836385836385842,0.0,0.75,1.25,-1.5225885225885225,-1.5274725274725274,2.398046398046398,0.0,0.0,1.25,-2.411477411477412,-2.236874236874237,1.5103785103785103,-0.875,0.0,1.3125,-2.0989010989010994,-3.8058608058608057,0.0,-1.4375,0.6875,1.46875,2.8437118437118434,-2.025641025641025,-0.6031746031746031,0.0,0.0,1.28125,2.6166056166056166,-1.5604395604395604,-0.5299145299145299,0.71875,-0.78125,0.5625,0.0,-3.075702075702076,-2.21001221001221,0.0,-0.59375,0.0,-1.5714285714285714,-2.8669108669108665,-2.361416361416361,-0.59375,0.0,0.5625,1.338217338217338,0.0,-1.9572649572649568,0.0,0.0,0.71875,2.8608058608058613,-2.484737484737485,-3.5445665445665444,1.09375,-0.96875,0.53125,1.247863247863248,-4.318681318681318,-5.713064713064713,0.0,0.0,0.0,0.0,-2.6056166056166057,-5.006105006105006,0.0,0.0,0.0,0.0,-1.006105006105006,-3.877899877899878,0.0,0.0,0.0,0.6446886446886447,-1.3443223443223444,-4.230769230769232,0.0,-0.78125,0.0,0.0,-0.8644688644688645,-5.4371184371184365,0.5625,-0.8125,0.0,0.0,-1.1978021978021978,-6.79120879120879,0.0,0.0,0.0,0.6959706959706959,0.0,-6.492063492063493,0.0,0.0,0.0,1.1733821733821734,1.8217338217338217,-5.057387057387056,0.0,0.0,0.0,1.2112332112332111,0.0,-5.913308913308914,0.0,0.0,0.0,0.7545787545787546,0.8083028083028083,-4.926739926739927,-0.625,0.0,-0.53125,0.0,2.37973137973138,-2.43956043956044,0.0,0.0,0.0,-0.6739926739926739,1.57997557997558,-1.3052503052503053,0.0,0.0,0.0,-0.6800976800976801,0.0,-1.326007326007326,0.0,0.0,0.0,0.6996336996336996,0.0,0.0,0.0,0.0,0.0,0.9633699633699634,0.0,0.0,0.0,0.0,0.0,0.5494505494505495,-0.6605616605616605,-0.5738705738705738,0.0,0.0,0.0,0.0,0.0,-1.7912087912087913,0.0,0.0,0.0,0.0,-0.6141636141636142,-3.021978021978022,0.0,0.0,0.0,,,,,,,,,,,,,,,,,,,,,,,,,,,,,,,,,,,,,,,,,,,,,,,,,,,,,,,,,,,,,,,,,,,,,,,,,,,,,,,,,,,,,,,,,,,,,,,,,,,,,,,,,,,,,moveDown
accX,0.0,0.0,0.5201465201465202,0.0,0.0,0.0,0.0,-0.6105006105006106,0.5970695970695971,0.0,0.0,0.0,0.0,0.0,0.514041514041514,0.0,0.0,0.0,0.0,0.0,0.0,0.0,0.0,0.0,0.0,0.0,0.0,0.0,0.0,0.0,0.0,0.0,0.7118437118437119,0.0,0.0,0.0,0.0,0.0,2.0244200244200243,0.0,0.0,0.0,-0.5641025641025641,0.6239316239316239,2.761904761904762,0.0,0.0,0.0,-0.5299145299145299,0.0,3.0012210012210017,0.0,0.0,0.0,-0.6532356532356532,0.0,3.6849816849816848,0.0,0.0,0.0,0.0,0.0,4.656898656898657,0.0,0.0,0.0,-0.5470085470085471,0.7643467643467643,5.297924297924298,0.0,0.0,0.0,-1.2991452991452992,1.0402930402930404,5.332112332112332,0.5625,0.0,0.0,-1.9255189255189256,0.8437118437118437,4.671550671550672,0.8125,0.71875,0.0,-2.1770451770451764,1.0354090354090355,4.17948717948718,0.90625,1.0625,0.0,-1.4578754578754578,0.0,3.9743589743589753,0.625,0.59375,0.84375,-2.5177045177045176,0.757020757020757,4.068376068376068,0.0,0.0,1.0625,-2.5213675213675213,0.5811965811965812,4.86935286935287,0.59375,0.5625,1.15625,-2.263736263736264,0.0,4.338217338217338,0.84375,0.9375,1.15625,-1.4053724053724053,-0.8693528693528694,2.9023199023199022,0.59375,1.0625,1.25,-0.7081807081807082,-2.0085470085470085,1.4835164835164836,0.0,1.0625,1.59375,1.1355311355311355,-3.0476190476190474,1.2136752136752136,0.0,0.0,1.65625,0.7472527472527473,-2.8083028083028077,1.2234432234432235,0.0,0.0,1.53125,-1.5836385836385836,-3.5543345543345537,-0.5665445665445665,-1.21875,0.0,1.1875,-1.15995115995116,-5.415140415140415,-2.565323565323565,-2.28125,0.53125,1.40625,1.3223443223443223,-3.5409035409035408,-1.4322344322344325,-1.25,0.0,0.6875,-2.398046398046398,-2.2564102564102564,-2.13064713064713,0.0,0.0,0.5625,-0.7423687423687424,-3.715506715506716,-3.868131868131868,-0.5625,0.0,0.78125,0.0,-1.2332112332112333,-2.8522588522588523,-1.0,0.0,0.53125,0.0,0.0,-1.4188034188034189,0.0,-0.5625,0.0,-0.7875457875457875,-1.8644688644688645,-4.796092796092796,0.59375,-0.90625,0.0,1.514041514041514,-2.793650793650793,-7.5836385836385825,0.0,0.0,0.5625,3.383394383394384,-1.336996336996337,-7.249084249084248,0.0,0.0,0.0,2.514041514041514,1.297924297924298,-4.645909645909647,0.0,0.0,0.0,0.5604395604395604,0.0,-4.349206349206349,0.0,0.0,0.0,1.0390720390720392,-1.0561660561660562,-4.658119658119658,0.0,0.0,0.0,0.7826617826617827,0.0,-3.3455433455433456,0.0,0.0,0.0,0.0,1.6153846153846154,-1.2515262515262515,0.0,0.0,0.0,0.0,0.0,-0.9169719169719168,0.0,0.0,0.59375,0.0,-0.9279609279609279,-2.715506715506716,0.0,0.0,0.0,-0.6837606837606838,-0.7264957264957265,-3.346764346764347,0.0,-0.5625,0.0,-1.9658119658119655,1.4444444444444444,-1.691086691086691,0.0,0.0,0.0,-1.3467643467643469,0.0,-1.3406593406593406,0.0,0.0,0.0,0.0,-0.9584859584859584,-1.398046398046398,0.0,0.0,0.0,0.0,0.0,-1.3956043956043955,0.0,0.0,0.0,0.0,0.0,0.0,0.0,0.0,0.0,1.3492063492063493,0.0,0.0,0.0,0.0,0.0,1.3956043956043955,-1.5934065934065933,-0.706959706959707,0.0,0.0,0.0,0.0,-1.1672771672771671,-1.5873015873015872,0.0,0.0,0.0,0.0,-0.9792429792429792,-1.761904761904762,0.0,0.0,0.0,,,,,,,,,,,,,,,,,,,,,,,,,,,,,,,,,,,,,,,,,,,,,,,,,,,,,,,,,,,,,,,,,,,,,,,,,,,,,,,,,,,,,,,,,,,moveDown
accX,0.0,0.0,0.0,0.0,0.0,0.0,0.0,-1.2356532356532357,-0.7533577533577533,0.0,0.0,-0.625,-0.6483516483516484,0.0,-0.7423687423687424,0.0,0.59375,0.0,0.0,0.0,0.0,0.0,0.0,0.0,0.0,0.0,0.0,0.0,0.0,0.0,0.0,0.0,0.0,0.0,0.0,0.0,0.0,0.0,1.1794871794871795,0.0,0.0,0.0,0.0,0.0,2.5067155067155067,0.0,0.0,0.0,0.6263736263736264,0.0,3.227106227106227,0.0,0.0,0.0,0.8498168498168498,0.0,3.6971916971916974,0.0,-0.59375,0.0,0.0,0.0,3.6251526251526247,-0.53125,-0.84375,0.0,-1.7997557997557998,1.199023199023199,4.063492063492063,0.0,0.0,0.0,-2.3907203907203907,1.6288156288156288,4.848595848595847,0.0,0.0,0.0,-1.1782661782661783,1.879120879120879,6.564102564102564,0.84375,0.0,0.0,-1.264957264957265,1.6275946275946276,6.7435897435897445,1.28125,0.0,0.0,-1.2515262515262515,0.0,5.848595848595848,1.03125,0.78125,0.0,-1.094017094017094,0.0,5.3699633699633695,0.0,1.09375,0.5625,-1.2332112332112333,0.0,5.2344322344322345,0.0,0.875,0.75,-2.2967032967032965,0.0,4.289377289377289,0.0,0.5625,0.8125,-1.6971916971916972,-1.5714285714285714,3.1770451770451764,0.0,0.53125,1.03125,-1.3223443223443223,-3.0891330891330893,1.0305250305250304,-0.84375,0.0,1.40625,-0.6971916971916972,-2.5347985347985347,0.0,-1.46875,0.0,1.375,-1.021978021978022,-1.2344322344322345,0.0,-0.96875,0.0,1.25,-0.7826617826617827,-2.619047619047619,-1.7765567765567765,0.0,0.0,1.0,0.9279609279609279,-3.692307692307693,-3.3650793650793656,-0.78125,0.0,0.84375,0.6251526251526252,-1.4297924297924298,-3.0854700854700856,-0.9375,-0.625,0.0,-2.333333333333333,0.0,-2.503052503052503,0.0,-0.625,0.0,-1.7228327228327232,-1.7936507936507935,-3.8827838827838823,0.0,0.0,0.65625,2.039072039072039,-2.5995115995116,-4.978021978021979,0.0,0.0,0.8125,1.275946275946276,-2.247863247863248,-4.978021978021979,0.0,0.0,0.0,-0.7191697191697192,-0.5995115995115995,-4.166056166056166,0.0,0.0,0.0,0.0,-2.5726495726495733,-4.995115995115995,0.0,0.0,0.5625,1.5128205128205128,-2.952380952380953,-4.9010989010989015,0.0,0.0,0.0,0.0,0.0,-3.446886446886447,-0.71875,0.0,0.0,0.0,1.5006105006105006,-3.4505494505494507,0.0,0.0,0.0,1.4456654456654456,-0.5726495726495726,-5.111111111111111,0.0,0.0,0.0,0.0,0.0,-5.282051282051282,0.0,0.0,0.0,0.0,1.1684981684981686,-5.487179487179486,0.0,0.0,0.0,4.1330891330891335,0.0,-4.792429792429792,0.0,0.0,0.0,1.9768009768009769,0.0,-3.0244200244200243,-0.71875,-0.59375,-1.15625,-1.1355311355311355,2.533577533577533,-0.5531135531135531,0.0,0.0,-0.84375,-1.3968253968253967,2.015873015873016,0.0,0.0,0.0,0.0,-1.1318681318681318,1.4529914529914532,0.0,0.0,0.0,0.0,0.0,0.0,-0.9230769230769232,0.0,0.0,0.0,0.0,0.0,-0.6739926739926739,0.0,0.0,0.0,0.0,0.0,-0.5262515262515263,0.0,0.0,0.0,0.0,0.0,-0.6507936507936508,0.0,0.0,0.0,0.0,-0.5787545787545788,-1.4212454212454213,0.0,0.0,0.0,,,,,,,,,,,,,,,,,,,,,,,,,,,,,,,,,,,,,,,,,,,,,,,,,,,,,,,,,,,,,,,,,,,,,,,,,,,,,,,,,,,,,,,,,,,,,,,,,,,,,,,moveDown
accX,0.0,0.0,0.0,0.0,0.0,0.0,-1.0634920634920637,0.0,-0.5347985347985348,0.0,0.0,0.0,-0.7863247863247863,0.0,0.0,0.0,0.0,0.0,0.0,0.0,0.0,0.0,0.0,0.0,0.0,0.0,0.0,0.0,0.0,0.0,0.0,0.0,1.3357753357753357,0.0,0.0,0.0,0.0,0.0,1.3052503052503053,0.0,0.0,0.0,0.0,0.0,0.9743589743589745,0.0,0.0,0.0,0.0,-0.5909645909645911,1.144078144078144,-0.8125,0.0,0.0,0.0,0.0,2.52991452991453,-0.625,-0.53125,0.0,-1.1318681318681318,1.028083028083028,4.205128205128204,0.0,0.0,0.0,0.0,0.0,4.433455433455434,0.0,0.65625,0.0,0.0,0.0,4.479853479853481,0.0,0.625,0.0,-0.7936507936507936,0.0,5.010989010989012,0.0,0.0,0.0,-2.105006105006105,0.5115995115995116,4.4151404151404146,0.0,0.0,0.0,-2.3699633699633704,0.0,3.6190476190476186,0.0,0.71875,0.0,0.0,-1.800976800976801,3.1355311355311355,0.0,0.71875,0.78125,-0.8424908424908425,-0.6642246642246642,4.015873015873016,-0.78125,0.0,0.75,-2.5494505494505493,0.967032967032967,4.665445665445667,0.0,0.0,0.6875,-2.5921855921855923,0.0,3.5836385836385842,1.0625,0.0,0.9375,-0.6129426129426129,-1.95970695970696,1.4456654456654456,1.5625,1.15625,1.03125,1.0708180708180708,-3.4249084249084247,0.0,0.59375,0.78125,0.96875,0.0,-2.3064713064713063,0.568986568986569,-0.78125,0.0,0.8125,-1.1257631257631258,0.0,0.8461538461538461,-0.90625,-0.53125,0.59375,-2.4603174603174605,0.0,0.5934065934065934,0.0,0.0,0.625,-2.5836385836385842,-2.2905982905982905,-0.5262515262515263,0.0,0.0,0.65625,0.0,-3.937728937728938,-1.948717948717949,0.0,0.0,0.71875,0.0,-1.4383394383394383,-1.3125763125763126,-0.78125,0.0,0.65625,-1.286935286935287,0.0,-0.9084249084249084,0.0,0.0,0.53125,-1.3577533577533578,-2.1782661782661785,-2.2820512820512815,1.34375,0.5625,0.65625,0.7728937728937729,-4.498168498168498,-3.655677655677656,0.0,0.59375,0.59375,0.0,-2.004884004884005,-2.9914529914529915,-1.09375,0.0,0.0,-1.0048840048840049,1.0390720390720392,-1.3308913308913308,-0.53125,0.0,0.0,0.0,-1.2295482295482296,-2.9426129426129437,0.0,0.0,0.5625,0.0,-2.7484737484737485,-4.665445665445667,0.0,0.0,0.0,0.0,-1.2087912087912087,-5.135531135531137,-0.71875,0.0,0.0,1.485958485958486,0.78998778998779,-4.616605616605616,0.0,0.0,0.0,2.0818070818070815,0.0,-5.532356532356533,0.0,0.0,0.0,1.5470085470085468,0.0,-5.471306471306471,0.0,0.0,0.0,1.94993894993895,0.0,-4.304029304029304,0.0,0.0,0.0,2.0695970695970702,0.8608058608058609,-3.1391941391941387,0.0,-0.5625,0.0,0.0,0.0,-2.934065934065934,0.0,0.0,-0.53125,0.0,0.0,-2.3418803418803416,0.0,0.0,-0.59375,-0.6703296703296703,0.9975579975579976,-1.536019536019536,0.0,0.0,0.0,-1.387057387057387,1.4835164835164836,-0.94993894993895,0.0,0.0,0.0,-1.1294261294261294,1.2515262515262515,0.0,0.0,0.0,0.0,0.0,-1.4871794871794872,-1.8754578754578757,0.0,0.0,0.0,1.5006105006105006,-0.8876678876678876,-1.815628815628816,0.0,0.0,0.0,0.6483516483516484,0.0,-1.7411477411477412,0.0,0.0,0.0,0.0,0.0,-1.6727716727716728,0.0,0.0,0.0,,,,,,,,,,,,,,,,,,,,,,,,,,,,,,,,,,,,,,,,,,,,,,,,,,,,,,,,,,,,,,,,,,,,,,,,,,,,,,,,,,,,,,,,,,,moveDown
accX,0.0,0.0,0.0,0.0,0.0,0.0,0.0,-1.1001221001221002,0.0,0.0,0.0,0.0,-0.7545787545787546,0.0,0.0,0.0,0.53125,0.0,0.0,0.0,0.0,0.0,0.75,0.0,-0.6031746031746031,0.0,0.6971916971916972,-0.53125,0.0,0.0,-1.0634920634920637,0.0,0.7521367521367521,0.0,0.0,0.0,-1.1086691086691087,0.0,1.3675213675213675,0.0,0.0,0.0,-0.8315018315018315,0.0,2.0427350427350426,0.0,0.0,0.0,-0.57997557997558,0.0,2.5445665445665444,0.0,0.53125,0.0,0.7448107448107448,-0.8632478632478633,2.8693528693528694,0.0,0.53125,0.0,0.0,0.0,3.736263736263736,-0.65625,0.0,0.625,-1.1428571428571428,0.5958485958485958,4.096459096459096,0.0,-0.53125,0.71875,-1.5323565323565325,0.0,3.996336996336997,0.0,0.0,0.0,-0.7350427350427351,0.0,3.761904761904762,0.0,0.90625,0.0,-0.7716727716727717,-0.6800976800976801,3.2735042735042734,0.0,0.84375,0.5625,-1.123321123321123,0.0,3.913308913308913,0.0,0.0,0.71875,-1.6446886446886446,0.0,4.032967032967034,0.0,0.0,0.6875,-1.8070818070818069,0.0,3.207570207570208,0.75,0.0,0.0,-2.203907203907204,0.0,2.267399267399268,0.9375,0.71875,0.0,-0.6398046398046398,-1.9926739926739927,1.3894993894993894,0.53125,0.875,0.84375,0.6507936507936508,-2.6971916971916974,1.4456654456654456,0.0,0.0,1.21875,0.0,-1.8461538461538465,1.6385836385836383,-1.09375,0.0,1.125,-1.7863247863247864,-0.7142857142857143,2.1623931623931623,-1.0,0.0,1.03125,-2.1965811965811968,-1.0402930402930404,2.2551892551892547,0.0,0.0,1.0,0.0,-3.025641025641025,1.4224664224664223,0.0,0.0,1.3125,1.8852258852258847,-4.1098901098901095,0.6654456654456654,-0.90625,0.0,0.9375,0.0,-2.241758241758242,0.0,-0.8125,0.0,0.625,-1.678876678876679,-0.7582417582417582,0.6874236874236874,0.0,0.5625,0.8125,0.0,-1.8632478632478635,0.0,0.0,0.625,0.9375,1.7301587301587302,-3.1184371184371185,0.0,0.0,0.0,0.84375,0.9072039072039072,-2.595848595848596,-1.5543345543345544,0.0,-0.6875,0.0,0.0,-1.0,-2.687423687423687,0.0,0.0,0.0,0.0,-2.070818070818071,-4.351648351648351,0.0,0.0,0.0,1.4261294261294262,-2.8424908424908426,-5.195360195360196,0.0,-0.625,0.0,0.0,-0.8168498168498168,-4.565323565323566,0.0,-0.78125,0.0,-0.9401709401709402,1.0231990231990231,-4.450549450549451,0.0,-0.53125,0.0,0.0,0.0,-5.305250305250305,0.5625,-0.59375,0.0,0.0,0.0,-6.387057387057388,0.0,0.0,0.0,0.0,1.3150183150183148,-5.625152625152626,0.0,0.0,0.0,0.811965811965812,0.9548229548229548,-5.183150183150183,0.0,0.0,0.0,2.347985347985348,0.0,-4.648351648351649,0.0,0.0,0.0,2.94993894993895,0.0,-3.8937728937728937,0.0,0.0,0.0,2.2014652014652016,0.8095238095238095,-2.7484737484737485,0.0,0.0,-0.59375,0.5372405372405372,1.4603174603174602,-2.0134310134310134,0.0,0.0,0.0,0.0,0.9926739926739928,-1.7179487179487178,0.0,0.0,0.0,0.0,0.7045177045177046,-1.4078144078144081,0.0,0.0,0.0,0.6251526251526252,0.0,-0.7582417582417582,0.0,0.0,0.0,1.0183150183150182,0.0,0.0,0.0,0.0,0.0,0.0,0.0,-0.7216117216117216,0.0,0.0,0.0,0.0,-0.7484737484737485,-0.9426129426129426,0.0,0.0,0.0,0.0,-0.8034188034188035,-1.065934065934066,0.0,0.0,0.0,,,,,,,,,,,,,,,,,,,,,,,,,,,,,,,,,,,,,,,,,,,,,,,,,,,,,,,,,,,,,,,,,,,,,,,,,,,,,,,,,,,,,moveDown
accX,0.0,0.0,0.0,0.0,0.0,0.0,0.0,0.0,0.0,0.0,0.0,0.0,0.0,0.0,0.993894993894994,0.0,0.0,0.0,0.0,-0.6678876678876678,0.6984126984126984,0.0,0.0,0.0,0.0,-0.6813186813186813,0.0,-0.53125,0.0,0.0,0.0,-0.5372405372405372,1.3956043956043955,-0.75,0.0,0.0,0.0,0.0,2.2576312576312576,0.0,0.0,0.0,-0.5115995115995116,0.0,2.601953601953602,0.0,0.0,0.0,0.0,-0.5787545787545788,2.965811965811966,0.0,0.0,0.0,0.0,-0.778998778998779,2.976800976800977,-0.53125,0.0,0.5625,0.0,-0.9792429792429792,3.7326007326007327,-0.84375,0.0,0.59375,0.8864468864468864,-0.5323565323565324,6.006105006105006,0.0,0.0,0.65625,0.0,0.0,6.048840048840049,0.0,0.0,0.53125,-0.6361416361416361,-0.9426129426129426,2.9255189255189253,0.53125,0.0,0.59375,-1.746031746031746,-0.6129426129426129,1.0097680097680095,0.0,0.0,0.5625,-3.477411477411477,1.2417582417582418,1.6153846153846154,-0.53125,0.71875,0.625,-1.7081807081807079,2.8083028083028077,4.487179487179487,0.65625,0.96875,0.71875,0.0,1.0537240537240538,4.694749694749695,1.59375,0.0,0.71875,0.5628815628815629,-0.9536019536019535,2.8302808302808304,1.375,0.0,0.5625,-0.6227106227106227,-0.9255189255189256,1.2967032967032968,0.75,0.625,0.75,-1.4542124542124542,0.0,1.4700854700854702,0.0,0.90625,0.875,-0.7985347985347986,0.0,3.063492063492064,0.0,0.0,1.0625,0.0,-0.5848595848595849,3.357753357753358,0.0,0.0,0.90625,-1.5824175824175823,-1.7533577533577531,1.2075702075702075,0.0,0.0,0.9375,-1.5811965811965811,-3.0122100122100113,0.0,-1.15625,1.125,0.90625,-1.2307692307692308,-1.7545787545787546,0.6459096459096461,-1.78125,1.375,0.84375,0.0,0.6202686202686203,2.268620268620269,-0.84375,0.59375,0.8125,0.0,-1.094017094017094,0.0,0.0,0.0,0.84375,0.0,-2.6043956043956045,-3.155067155067155,0.0,0.0,0.75,-2.4285714285714284,-1.915750915750916,-3.1868131868131866,-0.75,0.96875,0.65625,0.0,0.0,-1.05006105006105,-0.59375,0.6875,0.0,1.31013431013431,0.0,-0.6715506715506715,0.0,0.0,0.0,0.0,-2.5347985347985347,-3.3345543345543347,0.5625,0.0,0.0,0.0,-3.4346764346764345,-4.252747252747253,0.0,0.0,0.0,0.0,0.0,-3.503052503052503,0.0,-0.8125,0.0,-0.5811965811965812,-1.6935286935286935,-6.322344322344322,0.59375,-0.65625,0.0,1.661782661782662,0.0,-6.334554334554333,0.0,0.0,0.0,2.144078144078144,0.0,-6.225885225885227,0.0,-0.59375,0.0,0.0,1.6727716727716728,-6.004884004884005,0.0,-0.625,0.0,1.4810744810744811,0.0,-6.157509157509158,0.0,0.0,0.0,2.4761904761904763,0.0,-5.026862026862027,0.0,0.0,0.0,0.9267399267399268,1.4432234432234432,-3.2551892551892547,0.0,0.0,0.0,0.0,2.092796092796093,-2.0073260073260077,0.0,0.0,0.0,0.0,0.8278388278388278,-1.332112332112332,0.0,0.0,0.0,0.5018315018315018,-0.5457875457875457,-1.3931623931623929,0.0,0.0,0.0,0.0,0.0,-0.5934065934065934,0.0,0.0,0.0,-1.3235653235653235,1.2551892551892552,0.0,0.0,0.0,0.0,0.0,0.0,0.0,0.0,0.0,0.0,1.0390720390720392,-1.4481074481074483,-1.115995115995116,0.0,0.0,0.0,1.0781440781440779,-1.5384615384615383,-1.1343101343101345,0.0,0.0,0.0,0.0,-0.8351648351648352,-1.2698412698412698,0.0,0.0,0.0,0.0,0.0,-1.6459096459096458,0.0,0.0,0.0,,,,,,,,,,,,,,,,,,,,,,,,,,,,,,,,,,,,,,,,,,,,,,,,,,,,,,,,,,,,,,,,,,,,,,,,,,,,,,,moveDown
accX,0.6312576312576312,-0.6141636141636142,1.2564102564102564,0.0,0.0,0.0,0.0,-0.9548229548229548,0.7887667887667887,0.0,0.0,0.0,0.0,-0.5286935286935287,1.031746031746032,0.0,0.0,0.0,0.0,0.0,1.4945054945054943,0.0,0.0,0.0,0.0,0.0,1.398046398046398,0.0,0.0,0.0,0.0,0.0,1.78021978021978,0.0,0.0,0.0,0.0,0.0,1.8937728937728937,0.0,0.0,0.0,0.0,0.0,2.291819291819292,0.0,0.0,0.0,0.0,0.0,2.4004884004884004,0.0,0.0,0.0,0.0,0.0,3.648351648351648,0.0,0.0,0.0,-0.8815628815628815,0.6434676434676435,4.0927960927960925,0.0,0.0,0.0,-1.2515262515262515,0.5824175824175825,4.063492063492063,0.75,0.0,0.0,-0.8937728937728938,0.0,4.073260073260073,0.75,0.9375,0.0,-1.2210012210012209,0.0,3.6849816849816848,0.53125,1.09375,0.0,-1.2637362637362637,0.0,4.387057387057388,0.625,0.75,0.65625,-1.5018315018315018,0.0,4.864468864468863,0.8125,0.59375,0.84375,-0.6776556776556777,-0.9487179487179488,4.045177045177045,0.0,0.53125,0.75,-1.9084249084249083,-0.6593406593406593,1.887667887667888,-0.9375,0.53125,0.875,-1.9694749694749696,0.5995115995115995,3.6056166056166057,-0.90625,0.0,1.0625,-1.9731379731379728,-0.7081807081807082,3.495726495726496,0.0,0.0,1.25,-0.9792429792429792,-3.9072039072039066,0.0,0.0,0.0,1.3125,0.7936507936507936,-5.954822954822955,-2.3174603174603177,-1.5625,0.0,1.4375,0.0,-1.9072039072039075,0.0,-3.375,0.0,1.09375,-0.7545787545787546,2.645909645909646,3.172161172161172,-1.9375,0.0,0.8125,-2.323565323565324,-0.6898656898656899,1.3675213675213675,0.75,0.0,0.8125,0.0,-5.742368742368742,-3.622710622710623,1.09375,0.0,1.125,0.8632478632478633,-5.942612942612943,-5.004884004884005,-0.65625,0.0,0.78125,0.0,0.0,-1.4334554334554337,-1.03125,0.0,0.0,-1.9047619047619049,-1.2576312576312576,-1.1794871794871795,0.0,0.0,0.0,-1.3186813186813189,-3.3760683760683765,-3.706959706959707,0.0,0.0,0.625,2.3028083028083026,-4.1330891330891335,-5.230769230769232,0.0,0.0,0.6875,1.7643467643467643,-1.7435897435897436,-4.827838827838828,0.0,-0.53125,0.0,0.0,-1.0622710622710625,-4.164835164835165,0.0,-0.5625,0.0,0.0,-1.8144078144078144,-4.992673992673993,0.65625,0.0,0.0,1.1111111111111112,-1.5103785103785103,-5.151404151404153,0.0,0.0,0.0,0.9316239316239316,-0.5042735042735043,-5.0427350427350435,0.0,0.0,0.0,0.5323565323565324,0.993894993894994,-4.1330891330891335,0.0,0.0,0.0,0.7216117216117216,0.0,-4.395604395604397,0.625,0.0,0.0,1.1147741147741148,0.0,-4.255189255189255,0.0,0.0,0.0,0.0,1.4993894993894994,-3.4249084249084247,0.0,0.0,0.0,0.0,1.2808302808302807,-2.94993894993895,0.0,0.0,0.0,0.0,1.0634920634920637,-1.9706959706959708,0.0,0.0,0.0,0.0,0.5006105006105006,-1.4053724053724053,0.0,0.0,0.0,0.0,0.0,-0.5958485958485958,0.0,0.0,0.0,0.0,0.0,-0.8669108669108669,0.0,0.0,0.0,0.0,-0.5372405372405372,-1.1245421245421243,0.0,0.0,0.0,0.0,-0.7533577533577533,-0.8424908424908425,0.0,0.0,0.0,0.0,-0.8156288156288156,0.0,0.0,0.0,0.0,0.0,-0.9389499389499391,0.0,0.0,0.0,0.0,1.166056166056166,-0.6459096459096461,-0.5347985347985348,0.0,0.0,0.0,,,,,,,,,,,,,,,,,,,,,,,,,,,,,,,,,,,,,,,,,,,,,,,,,,,,,,,,,,,,,,,,,,,,,,,,,,,,,,,,,,,,,,,,,,,moveDown
accX,0.0,0.0,0.0,0.0,0.0,0.0,0.0,0.0,0.0,0.0,0.0,0.0,0.0,0.0,0.8266178266178266,0.0,0.0,0.0,0.0,0.0,1.7741147741147743,0.0,0.0,0.0,-0.6385836385836385,0.0,1.724053724053724,0.0,0.0,0.0,0.0,0.0,0.8559218559218559,0.0,0.0,0.0,0.0,0.0,1.1746031746031746,-0.53125,0.0,0.0,-0.5457875457875457,0.0,2.268620268620269,-0.75,0.0,0.0,0.0,0.0,3.1770451770451764,0.0,0.0,0.0,0.0,0.0,3.5995115995116,0.0,0.0,0.0,0.0,0.0,3.9096459096459095,0.0,0.0,0.0,-0.7203907203907204,0.0,4.3821733821733835,0.0,0.0,0.0,0.0,0.0,5.2173382173382175,0.0,0.65625,0.0,0.0,-0.9609279609279608,4.78998778998779,0.71875,0.53125,0.53125,-0.6581196581196581,-1.1526251526251523,4.0647130647130645,0.71875,0.53125,0.53125,-0.7912087912087912,-0.9401709401709402,3.824175824175824,0.0,0.84375,0.6875,-0.811965811965812,-0.5848595848595849,4.440781440781441,0.0,1.03125,0.75,-1.4529914529914532,-0.8559218559218559,3.703296703296704,0.0,0.875,0.875,-1.6214896214896215,-1.6251526251526252,1.9572649572649568,0.0,0.65625,1.03125,-1.3345543345543345,-2.0366300366300365,0.5067155067155067,0.0,0.0,1.25,-1.735042735042735,-0.934065934065934,0.7692307692307693,-0.53125,0.0,1.25,-1.4371184371184371,0.0,1.684981684981685,0.0,0.0,1.28125,-1.3833943833943834,-0.8974358974358975,1.133089133089133,0.0,0.0,1.40625,-0.6141636141636142,-2.768009768009768,-0.5201465201465202,0.0,0.0,1.4375,0.0,-3.207570207570208,-0.6764346764346765,-1.71875,0.0,1.0625,1.4945054945054943,-1.1721611721611722,0.0,-1.3125,0.0,0.84375,0.0,0.0,0.8131868131868132,0.0,0.0,0.71875,-1.0073260073260073,-1.2698412698412698,-0.8473748473748474,0.0,0.0,0.875,1.5787545787545787,-3.053724053724053,-4.4261294261294255,0.0,0.0,0.75,0.811965811965812,-2.851037851037851,-5.857142857142858,0.0,0.0,0.0,0.0,0.0,-3.291819291819292,0.0,0.0,0.0,0.0,0.8327228327228328,-1.9694749694749696,0.0,0.0,0.0,0.0,-0.7521367521367521,-3.9975579975579976,0.0,-0.53125,0.0,0.5274725274725275,-2.1941391941391943,-5.57997557997558,0.0,0.0,0.0,1.1001221001221002,-0.6666666666666666,-3.5213675213675213,0.0,-0.59375,0.0,-0.5970695970695971,1.0341880341880345,-1.5665445665445663,0.59375,-0.71875,0.0,-1.2039072039072038,-0.967032967032967,-3.144078144078144,0.65625,0.0,0.0,1.5115995115995116,-1.3040293040293038,-4.05982905982906,0.0,-0.59375,0.0,1.1367521367521367,-0.7875457875457875,-4.1782661782661785,0.0,-0.71875,0.0,0.0,1.3711843711843712,-3.63003663003663,0.0,-0.53125,0.0,-0.7973137973137974,0.0,-3.945054945054945,0.0,0.0,0.0,1.4371184371184371,0.0,-3.4908424908424913,0.0,0.0,0.0,1.0134310134310134,0.0,-3.0134310134310134,0.0,0.0,0.0,0.0,0.9914529914529916,-2.2527472527472527,0.0,0.0,0.0,1.5433455433455434,0.0,-1.7789987789987791,0.0,0.0,0.0,2.05982905982906,0.0,-1.1709401709401708,0.0,0.0,0.0,0.0,0.0,-1.4041514041514038,0.0,0.0,0.0,0.0,0.0,-0.9218559218559218,0.0,0.0,0.0,0.5628815628815629,0.0,-0.7411477411477412,0.0,0.0,0.0,0.8449328449328449,0.0,-1.0341880341880345,0.0,0.0,0.0,,,,,,,,,,,,,,,,,,,,,,,,,,,,,,,,,,,,,,,,,,,,,,,,,,,,,,,,,,,,,,,,,,,,,,,,,,,,,,,,,,,,,,,,,,,moveDown
accX,0.0,-0.6105006105006106,0.0,0.0,0.0,0.0,0.0,0.0,0.5225885225885226,0.0,0.5625,0.0,0.5054945054945055,0.0,1.2967032967032968,0.0,0.0,0.0,0.5225885225885226,0.0,1.3577533577533578,0.0,0.0,0.0,0.0,0.0,0.7582417582417582,0.0,0.0,0.0,-1.120879120879121,0.0,0.0,0.0,0.0,0.0,-0.7521367521367521,-0.6275946275946276,0.0,0.0,0.0,0.0,0.0,0.0,1.5958485958485962,-0.65625,0.8125,0.0,1.2087912087912087,0.0,3.2869352869352872,-0.6875,0.59375,0.0,1.010989010989011,0.0,3.9059829059829063,-0.59375,0.0,0.5625,-0.9096459096459096,0.0,3.3162393162393164,0.0,-0.71875,0.0,-1.5970695970695972,0.0,2.9938949938949935,0.0,0.0,0.0,-1.5091575091575091,0.7130647130647131,3.1050061050061046,0.0,1.09375,0.0,0.0,0.0,3.9706959706959712,0.0,0.6875,0.0,-0.778998778998779,0.0,3.81929181929182,0.0,0.0,0.0,-1.5018315018315018,-0.7362637362637363,2.045177045177045,0.0,0.0,0.59375,-2.0134310134310134,-1.0354090354090355,0.7020757020757019,0.0,0.0,0.625,-2.426129426129426,-0.9072039072039072,0.6129426129426129,0.0,0.84375,0.6875,-1.3882783882783882,-0.5543345543345544,2.1257631257631258,0.0,0.65625,1.03125,0.0,-1.4786324786324787,2.1147741147741153,0.0,0.0,1.28125,0.0,-1.8803418803418803,1.192918192918193,0.0,-0.625,1.375,0.6971916971916972,-2.619047619047619,0.5970695970695971,-1.21875,-0.65625,1.125,-0.993894993894994,0.0,2.1978021978021984,-1.1875,0.0,1.03125,-0.9963369963369964,0.0,3.468864468864469,0.0,0.0,1.28125,-0.6373626373626373,-1.6214896214896215,2.7704517704517704,0.0,0.0,1.21875,0.0,-4.083028083028083,0.0,0.0,0.0,1.15625,1.4737484737484738,-3.2332112332112333,0.0,-0.53125,0.0,0.9375,0.0,-0.9438339438339438,1.343101343101343,0.0,0.0,0.84375,0.0,-1.266178266178266,0.0,0.0,0.0,0.90625,1.8363858363858363,-3.52014652014652,-2.8986568986568986,0.0,0.0,0.71875,2.313797313797314,-3.0061050061050065,-4.625152625152626,-0.59375,0.0,0.0,0.7106227106227107,0.0,-2.6080586080586077,0.0,0.0,0.0,-0.5592185592185592,0.8449328449328449,-1.336996336996337,0.0,0.0,0.5625,0.9255189255189256,-1.809523809523809,-2.6300366300366296,0.0,0.0,0.53125,1.3443223443223444,-1.953601953601953,-3.122100122100122,-0.75,0.0,0.0,0.5164835164835165,1.2820512820512822,-1.166056166056166,0.0,-0.59375,0.0,-0.9621489621489622,0.0,-2.4993894993894994,0.96875,0.0,0.0,0.0,-2.0073260073260077,-4.079365079365079,0.0,0.0,0.0,0.0,-1.684981684981685,-2.0183150183150182,0.0,0.0,0.0,-0.8424908424908425,-0.6959706959706959,-2.0854700854700856,0.0,0.0,0.0,0.0,-1.1343101343101345,-2.838827838827839,0.0,0.0,0.0,0.9902319902319904,-1.5665445665445663,-3.1941391941391943,0.0,0.0,0.0,0.5506715506715507,0.0,-2.1807081807081805,0.0,0.0,0.0,-1.2039072039072038,0.9047619047619048,-1.6984126984126984,0.0,0.0,0.0,-1.1245421245421243,0.0,-2.505494505494505,0.0,0.0,0.0,0.5518925518925519,0.0,-2.245421245421245,0.0,0.0,0.0,0.0,0.9609279609279608,-1.4737484737484738,0.0,0.0,0.0,-1.194139194139194,0.0,-1.3931623931623929,0.0,0.0,0.0,0.0,-0.7557997557997558,-1.695970695970696,0.0,0.0,0.0,1.1526251526251523,-0.9035409035409036,-1.7789987789987791,0.0,0.0,0.0,0.5787545787545788,0.0,-1.8205128205128205,0.0,0.0,0.0,0.5494505494505495,0.0,-1.7277167277167278,0.0,0.0,0.0,1.1135531135531136,0.0,-1.3492063492063493,0.0,0.0,0.0,0.8192918192918193,0.0,-2.004884004884005,0.0,0.0,0.0,0.6373626373626373,0.0,-2.413919413919414,0.0,0.0,0.0,,,,,,,,,,,,,,,,,,,,,,,,,,,,,,,,,,,,,,,,,,,,,,,,,,,,,,,,,,,,,moveDown
accX,0.0,-0.7741147741147741,-0.6935286935286935,0.0,0.0,0.0,0.0,-0.7179487179487181,-1.0488400488400489,0.0,0.0,0.0,0.0,0.0,-0.6581196581196581,0.0,0.0,0.0,0.0,0.0,0.0,0.0,0.0,0.0,0.0,0.0,0.0,0.0,0.0,0.0,-0.5274725274725275,0.0,0.0,0.0,0.0,0.0,0.0,0.0,0.5775335775335775,-0.53125,0.0,0.0,0.73992673992674,0.0,2.3907203907203907,-0.59375,0.0,0.0,0.0,0.0,3.669108669108669,0.0,0.0,0.0,0.0,0.6446886446886447,3.8339438339438336,0.0,0.0,0.0,-0.5091575091575091,0.0,3.5873015873015874,0.0,0.53125,0.0,0.0,0.0,4.188034188034188,0.0,0.5625,0.0,0.0,0.0,4.592185592185592,0.0,0.0,0.0,-1.73992673992674,1.1245421245421243,5.096459096459097,0.0,0.65625,0.0,-2.311355311355311,1.166056166056166,5.311355311355311,0.78125,0.625,0.0,-2.3492063492063493,0.0,4.446886446886447,0.84375,0.625,0.59375,-2.128205128205128,0.0,3.9010989010989015,0.0,0.59375,0.8125,-2.7460317460317465,0.0,3.4542124542124544,0.0,0.9375,0.90625,0.0,-0.6971916971916972,5.1147741147741135,0.0,0.0,1.15625,-0.5506715506715507,-1.5616605616605617,3.096459096459097,0.90625,0.0,1.125,-1.4078144078144081,-2.7643467643467643,0.6910866910866911,0.6875,0.0,1.0,-0.6788766788766789,-3.2515262515262515,0.0,0.0,0.0,0.90625,0.0,-2.070818070818071,0.9523809523809524,-1.0625,0.0,0.875,0.0,-1.1672771672771671,1.815628815628816,-0.84375,0.0,0.84375,0.0,-1.5067155067155067,0.0,0.0,0.0,0.8125,0.0,-2.388278388278388,-1.8376068376068373,0.0,0.0,0.625,-0.7521367521367521,-2.415140415140415,-2.4517704517704515,0.0,0.0,0.0,0.0,0.0,-0.8339438339438342,-0.6875,0.5625,0.0,0.0,0.0,0.0,0.0,0.0,0.0,-1.7057387057387057,-0.9865689865689866,-1.9426129426129424,0.53125,0.0,0.65625,-0.7472527472527473,-4.1672771672771685,-4.739926739926741,0.53125,0.0,0.90625,1.175824175824176,-2.8656898656898657,-4.111111111111111,-0.625,0.0,0.71875,0.5860805860805861,0.0,-1.984126984126984,-0.53125,0.0,0.0,-1.9328449328449329,-1.3479853479853479,-4.012210012210011,0.0,-0.5625,0.0,0.8144078144078144,-2.015873015873016,-6.180708180708182,0.0,0.0,0.90625,2.8693528693528694,-0.8412698412698413,-6.6361416361416365,0.0,0.0,0.78125,2.664224664224664,0.7765567765567766,-6.603174603174603,0.0,-0.875,0.0,1.199023199023199,0.5384615384615384,-6.787545787545787,0.625,-0.875,0.0,1.9719169719169718,0.0,-6.5054945054945055,0.0,0.0,0.0,2.477411477411477,1.1782661782661783,-4.758241758241757,0.0,0.0,0.0,1.2136752136752136,1.382173382173382,-3.051282051282051,0.0,0.0,0.0,0.6495726495726496,1.1013431013431014,-1.619047619047619,0.0,0.0,0.0,-0.6117216117216118,0.0,-1.6544566544566544,0.0,0.0,0.0,-0.6654456654456654,0.0,-1.2820512820512822,0.0,0.0,0.0,0.0,0.0,0.0,0.0,0.0,0.0,0.6544566544566545,0.0,0.514041514041514,0.0,0.0,0.0,0.0,-1.1562881562881564,0.0,0.0,0.0,0.0,0.0,-1.1062271062271063,-1.0451770451770452,0.0,0.0,0.0,0.0,-0.7936507936507936,-1.4761904761904765,0.0,0.0,0.0,,,,,,,,,,,,,,,,,,,,,,,,,,,,,,,,,,,,,,,,,,,,,,,,,,,,,,,,,,,,,,,,,,,,,,,,,,,,,,,,,,,,,,,,,,,,,,,,,moveDown
accX,0.0,0.0,0.5445665445665445,0.5625,0.0,0.0,0.0,-1.21001221001221,-0.984126984126984,0.0,0.0,0.0,0.0,-1.3968253968253967,-1.3003663003663004,0.0,0.0,0.0,0.0,0.0,0.0,0.0,0.0,0.0,0.0,0.0,1.1282051282051282,0.0,0.0,0.0,0.0,0.0,0.8595848595848596,0.0,0.0,0.0,0.0,0.0,1.4151404151404152,0.0,0.0,0.0,0.0,0.0,1.6581196581196582,0.0,0.0,0.0,0.0,0.0,2.068376068376069,0.0,0.0,0.0,0.0,0.0,1.9426129426129424,0.0,0.0,0.0,-0.7094017094017094,0.0,1.5213675213675213,0.0,0.0,0.0,-1.5115995115995116,0.0,2.075702075702076,-0.53125,0.0,0.0,-1.6141636141636142,0.7240537240537241,3.498168498168498,0.0,0.5625,0.0,-1.463980463980464,0.6214896214896215,4.153846153846153,0.0,0.59375,0.0,-0.9426129426129426,0.0,3.84004884004884,0.0,0.0,0.0,-0.8083028083028083,0.0,3.42002442002442,0.0,0.0,0.71875,-1.636141636141636,0.0,3.0793650793650795,0.0,0.0,0.8125,-2.4517704517704515,0.0,3.305250305250305,0.0,0.0,0.8125,-1.953601953601953,0.0,4.045177045177045,0.0,0.53125,0.90625,-0.5347985347985348,-1.4163614163614164,3.6312576312576312,0.0,1.09375,0.96875,0.0,-2.404151404151404,2.2124542124542126,0.0,0.90625,1.09375,0.5970695970695971,-1.6324786324786325,2.971916971916972,-0.84375,0.0,1.1875,0.0,-0.9181929181929182,3.6495726495726495,0.0,-0.71875,1.15625,-1.824175824175824,-1.4261294261294262,2.8534798534798536,0.78125,0.0,1.09375,0.0,-3.3382173382173383,0.9609279609279608,0.71875,0.0,1.03125,2.2002442002442004,-4.739926739926741,-0.5433455433455433,0.0,0.0,0.875,1.264957264957265,-2.85958485958486,0.0,-1.3125,-0.90625,0.0,-2.289377289377289,-0.9877899877899878,0.0,-0.78125,-1.09375,0.0,-1.4322344322344325,-2.625152625152625,-2.120879120879121,0.0,0.0,0.96875,1.827838827838828,-4.211233211233211,-2.89010989010989,-1.34375,0.875,0.78125,2.5457875457875456,0.0,0.0,-0.84375,0.0,0.0,-0.5909645909645911,0.9584859584859584,0.6849816849816851,0.0,0.0,0.0,0.0,-1.568986568986569,-3.36019536019536,0.71875,0.0,0.8125,1.706959706959707,-4.1037851037851025,-6.2295482295482305,0.0,0.65625,0.6875,2.6581196581196584,-0.6593406593406593,-4.0927960927960925,0.0,0.5625,0.0,1.0256410256410255,0.0,-2.242979242979243,0.0,0.0,0.0,0.0,-1.4810744810744811,-3.0,0.0,0.0,0.0,0.0,-1.6007326007326008,-3.4652014652014653,0.0,0.0,0.0,0.0,-0.8449328449328449,-3.2503052503052503,0.0,0.0,0.0,-0.7997557997557998,0.0,-3.10989010989011,0.0,0.0,0.0,-0.7619047619047619,-1.3015873015873016,-3.952380952380953,0.0,0.0,0.0,0.0,0.0,-3.6251526251526247,0.0,0.0,0.0,0.0,1.0463980463980465,-3.15995115995116,0.0,0.0,0.0,0.0,0.0,-3.3492063492063493,0.0,0.0,0.0,1.2588522588522588,-1.2295482295482296,-3.9511599511599513,0.0,0.0,-0.53125,1.0879120879120878,-0.6959706959706959,-3.4407814407814414,-0.65625,0.0,-0.96875,0.9230769230769232,0.0,0.0,0.0,0.0,-1.0625,0.0,0.0,0.0,0.0,0.0,-1.34375,-1.9255189255189256,0.9474969474969476,0.0,0.0,0.0,-0.96875,-2.5885225885225887,0.9609279609279608,-1.0903540903540905,0.0,0.0,0.0,-0.9682539682539684,0.5775335775335775,-1.1843711843711844,0.0,0.0,0.0,0.0,0.0,-0.9181929181929182,0.0,0.0,0.5625,0.0,0.0,-1.52014652014652,0.0,0.0,0.0,0.0,0.0,-1.7216117216117215,0.0,0.0,0.0,0.0,0.0,-2.095238095238096,0.0,0.0,0.0,,,,,,,,,,,,,,,,,,,,,,,,,,,,,,,,,,,,,,,,,,,,,,,,,,,,,,,,,,,,,moveDown
accX,1.2026862026862026,-1.1416361416361416,0.0,0.0,0.0,0.0,0.0,-0.8107448107448108,-0.5567765567765568,0.0,0.0,0.0,0.0,0.0,0.0,0.0,0.0,0.0,0.0,0.0,0.5592185592185592,0.0,0.0,0.0,0.0,0.0,0.6043956043956044,0.0,0.0,0.0,-0.7203907203907204,0.0,0.0,0.0,0.0,0.0,-0.6996336996336996,0.0,1.188034188034188,0.0,0.0,0.0,0.0,0.0,2.6434676434676434,-0.78125,0.5625,0.0,0.0,1.037851037851038,5.117216117216118,-0.59375,0.5625,0.0,0.5042735042735043,0.6776556776556777,5.838827838827839,0.0,0.0,0.0,0.0,0.0,5.236874236874237,0.0,0.0,0.0,0.0,0.0,5.131868131868131,0.0,0.75,0.0,0.0,0.0,5.785103785103785,0.0,1.125,0.0,0.0,0.0,5.611721611721611,0.6875,0.78125,0.0,-0.9206349206349206,-0.5433455433455433,4.197802197802199,0.625,0.6875,0.59375,0.0,-2.1367521367521367,2.7496947496947497,0.0,0.53125,0.875,0.0,-2.457875457875458,1.9413919413919412,-1.03125,0.65625,0.875,-1.144078144078144,0.0,2.483516483516484,-0.59375,1.3125,1.0,0.0,0.0,3.021978021978022,0.65625,1.03125,1.1875,0.912087912087912,-1.9853479853479852,1.5934065934065933,0.71875,0.0,1.15625,0.0,-3.238095238095238,0.0,0.0,0.0,0.96875,-1.9572649572649568,-1.8778998778998781,0.0,-0.84375,0.0,0.96875,-1.326007326007326,0.0,0.0,0.0,0.90625,1.15625,1.188034188034188,-1.8485958485958487,0.0,0.0,0.65625,0.96875,2.4688644688644694,-3.855921855921856,-1.468864468864469,-0.59375,0.0,0.0,0.0,-1.8107448107448108,-1.4896214896214897,-0.90625,0.0,0.0,-1.2210012210012209,0.5665445665445665,-1.2136752136752136,0.0,0.0,0.5625,1.1391941391941391,-2.105006105006105,-2.505494505494505,0.6875,0.0,0.5625,0.503052503052503,-2.9462759462759465,-3.1990231990231983,0.0,0.0,0.0,-1.4871794871794872,-1.3943833943833943,-2.2564102564102564,-0.5625,0.0,0.0,0.0,-0.5091575091575091,-1.0805860805860803,0.0,0.0,0.0,0.0,-1.0195360195360197,-1.4884004884004884,0.0,0.0,0.0,-1.1245421245421243,-2.8351648351648358,-3.0378510378510377,0.0,0.0,0.0,0.0,-2.9450549450549453,-2.913308913308913,0.0,0.0,0.0,0.7350427350427351,-0.7301587301587301,-1.750915750915751,0.0,-0.71875,0.0,-1.1819291819291822,0.0,-1.8998778998779,0.84375,-0.59375,0.0,0.0,-2.1648351648351647,-4.338217338217338,0.78125,0.0,0.5625,2.5775335775335777,-2.15995115995116,-4.892551892551894,0.0,0.0,0.0,0.0,0.0,-3.062271062271062,0.0,-0.53125,0.0,0.8998778998778999,-0.8241758241758241,-3.604395604395605,0.59375,0.0,0.0,1.3907203907203909,0.0,-2.8485958485958487,0.0,0.0,0.0,0.0,0.7936507936507936,-2.173382173382173,0.0,0.0,0.0,-0.9597069597069596,1.3345543345543345,-1.4908424908424909,0.0,0.0,0.0,0.0,0.0,-1.1978021978021978,0.0,0.0,0.625,1.1062271062271063,-0.7167277167277167,-1.7142857142857142,0.0,0.0,0.625,0.8803418803418803,0.0,-1.7118437118437118,0.0,0.0,0.0,0.7435897435897436,0.7912087912087912,-1.1013431013431014,0.0,0.0,0.0,0.0,0.6996336996336996,-1.1684981684981686,0.0,0.0,0.0,0.0,0.0,-1.5543345543345544,0.0,0.0,0.0,0.0,0.0,-1.4102564102564104,0.0,0.0,0.0,0.0,0.0,-1.4322344322344325,0.0,0.0,0.0,0.0,0.0,-1.5775335775335777,0.0,0.0,0.0,,,,,,,,,,,,,,,,,,,,,,,,,,,,,,,,,,,,,,,,,,,,,,,,,,,,,,,,,,,,,,,,,,,,,,,,,,,,,,,moveDown
accX,-0.6923076923076923,-0.7252747252747253,-0.7985347985347986,0.0,0.0,0.0,-0.6483516483516484,0.0,-0.5152625152625152,-0.59375,0.5625,0.0,0.0,0.0,0.6361416361416361,-0.59375,0.0,0.0,0.0,0.0,1.6874236874236874,0.0,0.0,0.0,0.0,0.0,1.2417582417582418,0.0,0.0,0.0,0.0,0.0,1.4993894993894994,0.0,0.0,0.0,0.0,0.0,2.0781440781440783,0.0,0.0,0.0,0.0,0.0,2.333333333333333,0.0,0.0,0.0,0.0,0.0,2.6764346764346763,0.0,0.0,0.0,0.0,0.0,2.851037851037851,0.0,0.0,0.0,-0.9487179487179488,0.0,3.1123321123321124,0.0,0.0,0.0,-0.8400488400488401,0.0,2.975579975579976,0.0,0.0,0.0,-0.7655677655677655,0.0,3.705738705738706,0.0,0.65625,0.0,-0.5470085470085471,0.0,4.2905982905982905,0.0,0.625,0.0,0.0,0.0,4.3699633699633695,0.0,0.0,0.0,-0.956043956043956,0.0,4.561660561660561,0.0,0.0,0.59375,-1.6666666666666667,-0.5164835164835165,3.8864468864468864,0.0,0.0,0.65625,-1.8632478632478635,-0.8840048840048841,2.9816849816849818,0.0,1.0625,0.65625,-1.0012210012210012,-1.5335775335775337,2.555555555555556,0.0,1.375,0.875,0.0,-1.4676434676434675,3.175824175824176,0.0,0.78125,0.9375,0.0,-0.8705738705738706,3.485958485958486,0.0,0.0,0.875,-2.216117216117216,-1.8656898656898655,1.871794871794872,0.0,0.0,0.875,-2.144078144078144,-3.6031746031746033,0.0,-1.4375,0.6875,0.9375,2.652014652014652,-1.2515262515262515,1.2588522588522588,-0.65625,-0.59375,0.75,-1.5384615384615383,-1.695970695970696,0.0,0.65625,-0.9375,0.0,-3.0012210012210017,-2.52991452991453,-1.7826617826617828,0.6875,0.0,0.0,0.0,-3.1391941391941387,-2.023199023199023,0.0,1.28125,0.90625,3.8217338217338215,0.0,-1.1355311355311355,0.0,0.0,0.625,0.0,-2.0976800976800978,-2.8180708180708183,1.0,-1.34375,0.0,-3.3272283272283274,-3.172161172161172,-4.388278388278389,0.71875,-0.625,0.0,-1.0293040293040292,-2.263736263736264,-3.2332112332112333,0.0,0.59375,0.59375,1.6227106227106227,0.0,-2.0476190476190474,0.0,0.0,0.0,0.0,-1.6385836385836383,-4.496947496947497,0.625,-1.125,0.0,0.0,-3.1855921855921854,-6.907203907203908,0.59375,-0.625,0.0,1.2551892551892552,-1.3186813186813189,-5.772893772893772,0.0,0.0,0.0,1.3846153846153846,0.6813186813186813,-4.142857142857143,0.0,0.0,0.0,0.6923076923076923,0.0,-3.7863247863247858,0.6875,0.0,0.0,0.0,-1.0598290598290598,-4.485958485958486,0.6875,-0.53125,0.0,0.0,0.0,-3.6910866910866913,0.0,0.0,0.0,0.0,0.9987789987789988,-2.8107448107448105,0.0,0.0,0.0,0.0,0.9084249084249084,-2.4163614163614158,0.0,0.0,0.0,0.0,0.0,-2.326007326007326,0.0,0.0,0.0,0.5238095238095238,0.0,-1.9352869352869355,0.0,0.0,0.0,0.0,0.0,-1.1062271062271063,0.0,0.0,0.0,0.0,0.0,-0.5665445665445665,0.0,0.0,0.0,0.0,-0.9230769230769232,-1.1782661782661783,0.0,0.0,0.0,0.0,-1.26007326007326,-1.4676434676434675,0.0,0.0,0.0,0.5152625152625152,0.0,-0.7387057387057387,0.0,0.0,0.0,0.0,0.0,0.0,0.0,0.0,0.0,0.0,0.0,0.0,0.0,0.0,0.0,0.0,-0.971916971916972,-1.0671550671550671,0.0,0.0,0.0,0.0,-0.557997557997558,-1.115995115995116,0.0,0.0,0.0,0.0,-0.8681318681318682,-1.706959706959707,0.0,0.0,0.0,,,,,,,,,,,,,,,,,,,,,,,,,,,,,,,,,,,,,,,,,,,,,,,,,,,,,,,,,,,,,,,,,,,,,,,,,moveDown
accX,0.0,-0.8021978021978022,0.0,0.65625,0.0,0.0,0.0,-1.0231990231990231,-1.164835164835165,0.0,0.0,0.0,-0.6593406593406593,0.0,-0.525030525030525,0.0,0.0,0.0,0.0,0.0,0.0,0.0,0.0,0.0,-0.6446886446886447,0.0,-0.7289377289377289,0.0,0.0,0.0,0.0,0.0,-0.7557997557997558,0.0,0.0,0.0,0.0,0.0,0.0,-0.875,0.0,0.0,0.0,0.0,1.6275946275946276,-0.71875,0.0,0.0,-0.6691086691086691,0.0,1.8583638583638584,0.0,0.0,0.0,-0.6080586080586079,0.0,2.3736263736263736,0.0,0.0,0.0,-0.5860805860805861,0.0,2.3162393162393164,0.0,0.75,0.0,0.0,0.0,2.8021978021978016,0.0,0.71875,0.0,0.0,0.0,3.5702075702075704,-0.53125,0.0,0.0,-1.1477411477411477,0.9633699633699634,4.317460317460317,0.0,0.0,0.0,-1.8620268620268619,0.6214896214896215,3.36996336996337,0.0,0.0,0.0,-1.7631257631257633,0.0,2.85958485958486,0.0,1.03125,0.0,0.0,-0.6532356532356532,3.1416361416361416,0.0,1.03125,0.0,0.0,0.0,3.632478632478633,0.0,0.0,0.8125,-1.5482295482295485,0.0,2.8180708180708183,0.0,-0.65625,1.0,-1.94993894993895,-0.7240537240537241,2.0024420024420024,0.0,0.0,0.90625,-2.04029304029304,-1.126984126984127,1.9694749694749696,-0.5625,1.59375,0.6875,2.4481074481074483,-1.2551892551892552,3.501831501831502,-0.96875,1.5,0.96875,1.915750915750916,-1.7045177045177045,2.9951159951159956,-0.53125,-0.96875,0.875,-2.9218559218559217,-2.1684981684981683,0.0,0.0,-1.59375,0.53125,-4.554334554334553,-2.5103785103785103,-1.3186813186813189,-0.59375,0.6875,0.0,1.534798534798535,-2.5079365079365084,0.0,-1.125,2.375,1.15625,4.396825396825397,-0.9328449328449328,1.6764346764346765,-0.78125,0.65625,1.03125,-0.5653235653235653,-1.881562881562881,-0.8888888888888888,0.0,-0.96875,0.0,-2.6434676434676434,-2.1086691086691087,-2.935286935286935,-0.71875,0.0,0.0,1.9084249084249083,-1.656898656898657,-2.3382173382173383,-1.34375,0.0,0.59375,1.7606837606837606,0.6007326007326007,0.0,-0.875,-0.78125,0.0,-3.5189255189255184,-0.8766788766788767,-0.8021978021978022,0.0,-1.03125,0.0,-1.5616605616605617,-2.139194139194139,-2.028083028083028,0.0,0.0,0.0,1.7545787545787546,-2.6434676434676434,-2.407814407814408,0.0,0.0,0.65625,0.0,0.0,-1.5897435897435896,0.0,-0.78125,0.0,-2.313797313797314,-1.0879120879120878,-2.1465201465201464,0.0,-0.8125,0.0,-0.873015873015873,-2.6312576312576312,-2.95970695970696,0.0,0.0,0.0,0.7924297924297924,-2.2612942612942613,-3.2014652014652016,0.0,-0.5625,0.0,0.5494505494505495,0.5128205128205128,-2.938949938949939,0.90625,-0.6875,0.0,0.0,-1.938949938949939,-4.803418803418802,1.03125,0.0,0.0,1.647130647130647,-1.9963369963369964,-5.628815628815629,0.0,0.0,0.0,1.4151404151404152,0.0,-4.401709401709402,0.0,-0.59375,0.0,0.0,0.0,-3.8485958485958487,0.0,0.0,0.0,0.0,0.0,-3.766788766788767,0.0,0.0,0.0,0.5103785103785103,0.0,-3.3565323565323566,0.0,0.0,0.0,0.78998778998779,0.7533577533577533,-2.3675213675213675,0.0,0.0,0.0,0.0,1.42002442002442,-1.1428571428571428,0.0,0.0,0.0,0.5201465201465202,0.0,-0.9804639804639804,0.0,0.0,0.0,0.0,-0.8412698412698413,-1.7716727716727716,0.0,0.0,0.0,0.0,0.0,-1.434676434676435,0.0,0.0,0.0,0.0,0.0,-0.7655677655677655,0.0,0.0,0.0,0.0,0.0,-0.6996336996336996,0.0,0.0,0.0,0.0,-0.9169719169719168,-1.0415140415140416,0.0,0.0,0.0,0.7863247863247863,-1.094017094017094,-1.5030525030525033,0.0,0.0,0.0,,,,,,,,,,,,,,,,,,,,,,,,,,,,,,,,,,,,,,,,,,,,,,,,,,,,,,,,,,,,,,,,,,,moveDown
accX,-0.5482295482295483,0.0,0.0,0.0,0.0,0.0,0.0,0.0,0.0,0.0,0.0,0.0,0.0,0.0,0.7484737484737485,0.0,0.0,0.0,0.0,0.0,1.8107448107448108,-0.53125,0.0,0.0,0.0,0.0,2.7753357753357752,0.0,0.0,0.0,0.0,0.0,2.139194139194139,0.0,0.0,0.0,0.0,0.0,2.120879120879121,0.0,0.0,0.0,-0.7863247863247863,0.0,3.1648351648351647,0.0,0.0,0.0,-0.7155067155067155,0.0,4.752136752136752,-0.53125,0.71875,0.0,0.0,0.6886446886446886,5.9242979242979255,0.0,0.625,0.0,-1.7973137973137974,0.0,5.118437118437118,0.0,0.0,0.5625,-2.0024420024420024,0.0,4.153846153846153,0.0,0.875,0.71875,-1.5934065934065933,-0.6434676434676435,4.164835164835165,0.0,1.15625,0.8125,-1.637362637362637,0.8583638583638583,5.31013431013431,0.0,1.0,0.90625,-1.804639804639805,0.5445665445665445,5.1892551892551895,1.125,0.0,1.125,-1.9377289377289375,-1.4884004884004884,3.1282051282051277,1.0625,0.0,1.28125,-0.9304029304029304,-3.3724053724053724,1.7045177045177045,0.0,0.59375,1.28125,0.0,-2.879120879120879,2.053724053724053,-0.5625,0.75,1.25,0.0,-0.9706959706959708,3.4908424908424913,0.0,0.0,1.15625,0.0,-2.2466422466422467,2.1770451770451764,0.0,0.0,1.25,1.037851037851038,-4.9865689865689875,0.0,0.0,0.0,1.1875,2.2588522588522593,-5.38949938949939,-1.7252747252747254,-1.3125,0.0,0.84375,0.989010989010989,-1.948717948717949,-1.4395604395604396,-0.78125,0.0,0.0,-1.021978021978022,0.0,-1.0451770451770452,0.0,0.0,0.0,0.0,-1.967032967032967,-2.305250305250305,0.0,0.0,0.53125,0.0,-1.5079365079365081,-2.5384615384615383,0.0,0.0,0.0,0.0,-1.061050061050061,-2.5702075702075704,0.0,0.0,0.0,-0.8449328449328449,0.0,-2.4517704517704515,0.0,0.0,0.0,-0.6129426129426129,-0.6581196581196581,-2.7240537240537246,0.0,0.0,0.0,0.0,0.0,-2.7472527472527477,0.0,0.0,0.0,-0.9059829059829059,0.0,-2.04029304029304,0.0,0.0,0.0,-0.8852258852258852,-0.934065934065934,-2.15995115995116,0.0,0.0,0.0,1.051282051282051,-2.647130647130647,-3.725274725274725,0.0,0.0,0.0,2.0781440781440783,-2.4029304029304033,-4.652014652014652,0.0,-0.53125,0.0,1.3663003663003663,0.0,-3.792429792429792,0.0,0.0,0.0,0.6752136752136753,-0.6813186813186813,-4.256410256410256,0.0,0.0,0.0,1.1746031746031746,0.0,-3.774114774114774,0.0,0.0,0.0,0.0,0.0,-2.4896214896214897,0.0,0.0,0.0,0.0,0.0,-2.240537240537241,0.0,0.0,0.0,-1.26007326007326,1.0854700854700854,-1.9108669108669107,0.0,0.0,0.0,-1.1514041514041513,1.4163614163614164,-1.31990231990232,0.0,0.0,0.0,0.0,0.0,-1.336996336996337,0.0,0.0,0.0,0.0,0.0,-2.061050061050061,0.0,-0.53125,0.0,0.0,0.0,-2.4737484737484743,0.0,0.0,0.0,0.0,0.0,-2.04029304029304,0.0,0.0,0.0,0.9755799755799756,0.0,-1.424908424908425,0.0,0.0,0.0,1.4664224664224663,-1.0195360195360197,-1.0866910866910866,0.0,0.0,0.0,1.123321123321123,0.0,0.0,0.0,0.0,0.0,0.0,0.0,0.0,0.0,0.0,0.0,0.0,-0.5018315018315018,-0.8461538461538461,0.0,0.0,0.0,,,,,,,,,,,,,,,,,,,,,,,,,,,,,,,,,,,,,,,,,,,,,,,,,,,,,,,,,,,,,,,,,,,,,,,,,,,,,,,,,,,,,,,,,,,moveDown
accX,0.0,-0.9975579975579976,0.0,0.0,0.0,0.0,-1.0769230769230769,0.0,0.0,0.0,0.0,0.0,0.0,-0.5311355311355311,0.0,0.0,0.0,0.0,0.0,0.0,0.0,0.0,0.0,0.0,-0.6373626373626373,0.0,0.5641025641025641,0.0,0.0,0.0,0.0,0.0,1.0085470085470083,0.0,0.0,0.0,0.0,0.0,1.5262515262515262,0.0,0.0,0.0,0.0,0.0,2.532356532356532,0.0,0.0,0.0,0.0,0.0,3.4884004884004884,0.0,0.0,0.0,0.0,0.0,3.7997557997558,0.0,0.0,0.0,-0.9133089133089132,0.0,3.642246642246642,0.0,0.0,0.0,-1.3284493284493284,0.0,3.8327228327228333,0.0,0.0,0.0,-1.2356532356532357,0.0,3.958485958485959,0.0,0.0,0.0,-1.4090354090354091,0.0,4.1001221001221,0.0,0.0,0.0,-1.465201465201465,-0.5213675213675214,4.351648351648351,0.0,0.53125,0.0,-1.4725274725274726,0.0,4.63980463980464,0.0,0.0,0.5625,-2.1880341880341883,-0.5946275946275946,3.6996336996337003,0.0,0.90625,0.78125,-1.398046398046398,-1.534798534798535,3.31990231990232,0.0,1.25,0.96875,-0.5164835164835165,-1.3833943833943834,3.5836385836385842,-0.8125,1.0,0.875,0.0,0.0,4.739926739926741,0.0,0.0,0.9375,-1.0366300366300367,-1.8827838827838828,3.2124542124542126,0.0,-0.65625,1.0625,-1.0268620268620268,-4.465201465201465,0.0,-0.65625,0.0,1.0,-1.5885225885225884,-4.733821733821734,-1.94993894993895,-1.75,0.6875,0.875,-0.7094017094017094,0.0,0.9413919413919414,-0.9375,0.8125,0.8125,0.0,0.0,2.208791208791209,0.0,0.0,0.78125,0.0,-2.93040293040293,-1.1062271062271063,0.0,-1.03125,0.84375,0.0,-4.713064713064713,-4.6800976800976795,-0.71875,0.0,0.0,0.0,0.0,-1.21978021978022,0.0,0.0,0.0,0.0,-1.326007326007326,0.0,0.53125,0.0,0.625,0.5787545787545788,-2.93040293040293,-2.274725274725274,0.0,0.0,0.75,1.9096459096459095,-3.0097680097680097,-3.4297924297924296,0.0,0.0,0.65625,1.9792429792429795,0.0,-1.7741147741147743,0.0,0.0,0.0,0.0,-2.4065934065934065,-2.5982905982905984,0.71875,-0.53125,0.0,0.0,-2.9413919413919416,-4.074481074481073,0.0,0.0,0.0,0.0,-2.0366300366300365,-4.650793650793651,0.0,0.0,0.0,0.0,0.6336996336996337,-3.864468864468865,0.0,-0.53125,0.0,0.0,0.0,-4.90964590964591,0.84375,-0.71875,0.0,0.6874236874236874,-1.2002442002442002,-6.472527472527473,0.78125,0.0,0.0,1.6776556776556777,0.0,-6.188034188034187,0.0,0.0,0.0,0.0,1.0879120879120878,-5.145299145299147,0.0,0.0,0.0,-1.5543345543345544,0.6959706959706959,-3.968253968253968,0.0,0.0,0.0,-0.7045177045177046,0.8595848595848596,-1.9145299145299144,0.0,0.0,0.0,0.7228327228327228,0.0,-0.9255189255189256,0.0,0.0,0.0,0.9291819291819292,0.0,0.0,0.0,-0.53125,0.0,0.0,-0.5213675213675214,-1.1184371184371185,0.0,0.0,0.0,-0.6996336996336996,0.6825396825396826,-0.934065934065934,0.0,0.0,0.0,-0.7655677655677655,0.0,-0.8278388278388278,0.0,0.0,0.0,0.5897435897435898,-0.557997557997558,0.0,0.0,0.0,0.0,1.0903540903540905,-1.4822954822954824,0.0,0.0,0.0,0.0,0.0,-1.1538461538461535,-1.043956043956044,0.0,0.0,0.0,-0.5372405372405372,-0.7277167277167277,-1.4871794871794872,0.0,0.0,0.0,0.0,-1.0695970695970696,-1.943833943833944,0.0,0.0,0.0,,,,,,,,,,,,,,,,,,,,,,,,,,,,,,,,,,,,,,,,,,,,,,,,,,,,,,,,,,,,,,,,,,,,,,,,,,,,,,,moveDown
accX,0.0,-0.5177045177045178,0.7753357753357754,0.0,0.0,0.0,-1.4554334554334554,-0.5738705738705738,0.0,0.0,0.0,0.0,-0.6544566544566545,-0.5274725274725275,0.0,0.0,0.71875,0.0,0.7875457875457875,-1.1135531135531136,0.0,-0.59375,0.0,0.0,0.5067155067155067,-0.5152625152625152,1.1086691086691087,-1.0625,0.0,0.0,0.0,0.5238095238095238,2.4896214896214897,0.0,-0.625,0.0,-1.3333333333333333,0.6446886446886447,2.5970695970695967,0.0,0.0,0.0,0.0,0.0,2.542124542124542,0.0,0.0,0.0,0.0,0.0,2.7985347985347984,0.0,0.0,0.0,-0.7887667887667887,0.0,3.6910866910866913,0.0,0.625,0.0,-1.1086691086691087,0.5274725274725275,4.611721611721611,0.0,0.53125,0.0,-1.5848595848595848,0.7020757020757019,5.236874236874237,0.0,0.0,0.0,-2.4444444444444446,0.0,4.2735042735042725,0.78125,0.0,0.625,-2.4017094017094016,-0.5702075702075702,3.617826617826618,0.5625,0.5625,0.78125,-2.0195360195360195,-1.4676434676434675,2.8803418803418803,0.0,0.8125,0.90625,-0.9010989010989012,0.0,5.048840048840049,0.0,0.65625,0.9375,-1.5128205128205128,-0.7692307692307693,4.549450549450549,0.0,0.53125,1.0625,-1.7741147741147743,-2.947496947496948,2.8547008547008548,0.0,0.8125,1.125,0.0,-4.42002442002442,1.3956043956043955,-1.0625,0.9375,1.1875,1.362637362637363,-1.4932844932844933,2.8571428571428568,-1.53125,0.0,1.0625,-1.4395604395604396,0.0,2.851037851037851,0.0,-0.9375,0.6875,-2.3382173382173383,-2.5457875457875456,-0.525030525030525,0.6875,0.0,0.78125,0.5641025641025641,-4.914529914529915,-3.2881562881562885,0.0,0.75,1.125,2.9645909645909647,-2.3064713064713063,-1.1819291819291822,-1.1875,0.0,1.0625,0.7032967032967034,0.0,1.2612942612942613,-0.5625,-0.78125,0.0,-1.5262515262515262,-1.1855921855921856,-1.434676434676435,0.53125,-0.84375,0.0,0.0,-4.152625152625153,-5.652014652014652,0.75,0.0,0.96875,3.708180708180708,-2.952380952380953,-5.5628815628815635,0.0,0.0,0.71875,1.3003663003663004,-0.8754578754578755,-3.4884004884004884,0.0,0.0,0.0,-1.0158730158730158,-0.6947496947496947,-3.067155067155068,0.0,0.0,0.0,0.5897435897435898,-2.6654456654456653,-4.542124542124542,0.65625,0.0,0.75,2.4542124542124544,-3.2844932844932844,-5.841269841269841,0.0,0.0,0.0,1.2515262515262515,0.0,-4.461538461538462,0.0,-0.6875,0.0,0.0,0.0,-4.825396825396825,0.59375,-0.59375,0.0,0.0,-0.6275946275946276,-5.918192918192919,0.53125,0.0,0.0,1.3406593406593406,0.0,-5.153846153846153,0.0,0.0,0.6875,1.5409035409035412,0.9865689865689866,-3.2625152625152625,0.0,0.0,0.0,0.8571428571428571,0.5738705738705738,-2.323565323565324,0.0,0.0,0.0,0.0,0.0,-2.525030525030525,0.0,0.0,0.0,0.0,0.0,-1.9792429792429795,0.0,0.0,0.0,0.0,1.0793650793650793,-0.7216117216117216,0.0,0.0,0.0,0.0,0.0,0.0,0.0,0.0,0.0,0.0,0.0,-0.5152625152625152,0.0,0.0,0.0,-0.78998778998779,0.0,-1.1489621489621489,0.0,0.0,0.0,0.0,0.0,-1.1086691086691087,0.0,0.0,0.0,1.2148962148962148,-0.9047619047619048,-1.0647130647130647,0.0,0.0,0.0,0.6984126984126984,-1.0818070818070815,-1.3846153846153846,0.0,0.0,0.0,,,,,,,,,,,,,,,,,,,,,,,,,,,,,,,,,,,,,,,,,,,,,,,,,,,,,,,,,,,,,,,,,,,,,,,,,,,,,,,,,,,,,,,,,,,,,,,,,,,,,,,,,,,,,moveDown
accX,-1.4737484737484738,-0.5836385836385837,-0.7997557997557998,0.0,0.0,0.0,-1.297924297924298,0.0,0.0,0.0,0.8125,0.0,0.0,-0.7191697191697192,0.5311355311355311,-0.53125,0.8125,0.0,1.1819291819291822,-0.5457875457875457,1.7374847374847375,-0.9375,0.0,0.0,0.0,0.0,2.347985347985348,0.0,0.0,0.0,-0.8681318681318682,0.0,2.3028083028083026,0.0,0.0,0.0,0.0,0.0,1.8131868131868127,0.0,0.75,0.0,0.0,0.0,2.3162393162393164,0.0,0.0,0.0,-1.0708180708180708,0.0,3.435897435897436,-0.5625,0.0,0.0,-1.7753357753357752,0.6202686202686203,4.1550671550671545,0.0,0.0,0.0,-1.1428571428571428,0.0,4.0989010989010985,0.0,0.96875,0.0,-0.8449328449328449,0.0,4.670329670329671,0.0,0.90625,0.53125,-1.123321123321123,0.0,5.654456654456655,0.0,0.625,0.59375,-1.6336996336996337,0.0,4.783882783882785,0.0,0.5625,0.71875,-1.0341880341880345,-1.7228327228327232,3.231990231990232,0.0,0.59375,0.875,-0.9230769230769232,-1.7777777777777777,2.7753357753357752,0.0,0.75,0.71875,-1.336996336996337,-1.42002442002442,3.1404151404151404,-0.65625,0.84375,0.71875,-0.6691086691086691,-0.9108669108669109,3.5213675213675213,0.0,0.65625,0.78125,0.0,-2.7350427350427347,1.4285714285714286,0.0,0.0,0.8125,-0.9523809523809524,-3.1697191697191696,0.0,0.0,0.0,0.84375,-1.5616605616605617,-2.1978021978021984,0.0,-0.75,0.0,0.75,0.0,-0.8424908424908425,0.6166056166056166,0.0,0.53125,0.78125,1.1575091575091576,-2.0207570207570207,-0.57997557997558,0.0,0.0,0.65625,0.0,-2.5213675213675213,-2.6385836385836385,0.0,-0.71875,0.0,0.0,-2.1697191697191696,-3.58974358974359,0.0,0.0,0.0,0.0,-0.7301587301587301,-1.953601953601953,0.0,0.0,0.0,0.6642246642246642,0.0,-1.8229548229548234,0.0,0.0,0.0,1.1111111111111112,-1.3992673992673992,-3.6568986568986563,0.0,0.0,0.75,1.5970695970695972,-2.5177045177045176,-4.819291819291818,0.0,0.0,0.0,1.73992673992674,0.0,-2.462759462759463,0.0,0.0,0.0,0.993894993894994,0.0,-1.3687423687423688,0.59375,0.0,0.0,0.0,-1.3785103785103785,-2.9047619047619047,0.71875,0.0,0.0,1.462759462759463,-2.0366300366300365,-4.551892551892552,0.0,0.0,0.0,0.8571428571428571,0.0,-4.26984126984127,0.0,0.0,0.0,0.0,1.0134310134310134,-3.8461538461538463,0.84375,0.0,0.0,0.0,0.0,-4.400488400488402,0.8125,0.0,0.59375,0.7338217338217338,0.0,-4.87912087912088,0.0,0.0,0.0,0.757020757020757,0.0,-4.471306471306471,0.0,0.0,0.0,0.0,1.3797313797313795,-2.9023199023199022,0.0,0.0,0.0,0.0,0.6727716727716728,-2.5665445665445668,0.0,-0.5625,-0.75,-1.7680097680097682,0.0,-3.2026862026862033,0.0,-0.53125,-0.84375,-3.221001221001221,0.8070818070818071,-2.8473748473748475,0.0,0.0,0.0,-1.7716727716727716,0.9536019536019535,-0.5164835164835165,0.0,0.0,0.0,0.0,0.0,0.5763125763125763,0.0,0.0,0.0,0.6422466422466423,-0.5763125763125763,0.0,0.0,0.0,0.0,0.0,-1.010989010989011,0.0,0.0,0.0,0.0,0.0,0.0,0.0,0.0,0.0,0.0,0.0,0.0,0.0,0.0,0.0,0.0,0.0,0.0,0.0,0.0,0.0,0.0,0.0,0.0,-1.0744810744810744,0.0,0.0,0.0,,,,,,,,,,,,,,,,,,,,,,,,,,,,,,,,,,,,,,,,,,,,,,,,,,,,,,,,,,,,,,,,,,,,,,,,,,,,,,,,,,,,,,,,,,,moveDown
accX,0.0,-0.5323565323565324,0.0,0.65625,0.0,0.0,0.0,0.0,-0.8217338217338217,0.0,0.0,0.0,-0.7264957264957265,0.0,-0.6007326007326007,0.0,0.0,0.0,0.0,0.7203907203907204,1.9731379731379728,-0.65625,0.625,0.0,0.0,0.0,2.6043956043956045,0.0,0.0,0.0,-0.8925518925518926,0.0,1.702075702075702,0.0,0.0,0.0,0.0,0.0,1.326007326007326,0.0,0.0,0.0,0.0,0.0,1.9365079365079363,0.0,0.0,0.0,0.0,0.0,3.1184371184371185,0.0,0.0,0.0,-0.8144078144078144,0.9096459096459096,4.5054945054945055,0.0,0.6875,0.0,-0.9902319902319904,0.6617826617826618,4.833943833943834,0.0,0.84375,0.0,-0.5482295482295483,0.0,5.0415140415140405,0.0,0.6875,0.0,-1.2002442002442002,0.8766788766788767,5.351648351648351,0.0,0.53125,0.0,-2.9963369963369964,1.8253968253968251,5.208791208791209,0.625,0.75,0.0,-3.3064713064713063,1.4590964590964588,4.665445665445667,0.9375,0.84375,0.84375,-1.9255189255189256,-0.8461538461538461,3.13064713064713,0.53125,0.65625,1.1875,0.0,-2.2857142857142856,1.7472527472527473,0.0,0.0,1.34375,0.0,-1.7155067155067154,1.4835164835164836,-0.5625,0.0,1.21875,-1.47985347985348,0.0,2.211233211233212,0.0,0.0,1.0,-2.590964590964591,0.0,1.735042735042735,0.0,0.0,0.9375,-1.57997557997558,-2.881562881562881,0.0,0.0,0.625,1.09375,0.0,-2.9536019536019538,-0.9023199023199024,-1.0625,0.0,0.96875,-0.5995115995115995,0.0,0.94993894993895,-0.8125,0.0,0.65625,-0.6849816849816851,0.0,1.4590964590964588,0.0,-0.96875,0.0,0.0,-2.752136752136752,-3.398046398046398,1.03125,0.0,0.65625,1.568986568986569,-4.742368742368742,-6.048840048840049,0.0,0.0,0.5625,2.068376068376069,-2.2808302808302807,-3.611721611721612,-0.6875,0.0,0.0,0.6568986568986569,0.0,0.0,0.0,0.0,0.0,-0.5164835164835165,-0.7448107448107448,0.0,0.0,0.0,0.0,-0.5018315018315018,-1.5457875457875458,-1.465201465201465,-0.6875,0.0,0.0,-1.6068376068376071,0.0,0.0,0.0,0.0,0.0,-1.9572649572649568,-1.2503052503052503,-2.105006105006105,0.78125,0.0,0.0,1.5286935286935286,-3.086691086691087,-4.514041514041514,0.84375,0.0,0.0,1.247863247863248,-1.4676434676434675,-5.140415140415142,0.0,-0.90625,0.0,-2.9218559218559217,1.3089133089133091,-5.177045177045176,0.65625,-0.9375,0.0,-1.586080586080586,0.0,-6.907203907203908,1.21875,0.0,1.0625,3.0170940170940175,-1.7228327228327232,-6.844932844932845,0.53125,0.0,1.34375,1.7606837606837606,0.0,-5.01953601953602,0.0,0.0,0.53125,0.0,1.8107448107448108,-2.4652014652014653,0.0,0.0,0.0,1.0976800976800978,0.0,-1.0744810744810744,0.0,0.0,0.59375,1.0463980463980465,-0.5091575091575091,-0.8595848595848596,0.0,-0.5625,0.0,0.0,0.0,-0.9633699633699634,0.0,-0.65625,0.0,0.0,0.0,-0.9145299145299144,0.0,0.0,0.0,0.0,-1.5592185592185592,-1.1501831501831499,0.0,0.0,0.0,0.8852258852258852,-2.1526251526251525,-1.4114774114774116,0.0,0.0,0.0,0.7142857142857143,-1.1672771672771671,0.0,0.0,0.0,0.0,0.0,0.0,0.0,0.0,0.0,0.0,0.0,-0.6019536019536019,-0.5604395604395604,0.0,0.0,0.0,0.6043956043956044,-0.6471306471306472,-1.652014652014652,0.0,0.0,0.0,,,,,,,,,,,,,,,,,,,,,,,,,,,,,,,,,,,,,,,,,,,,,,,,,,,,,,,,,,,,,,,,,,,,,,,,,,,,,,,,,,,,,,,,,,,,,,,,,moveDown
accX,0.0,0.0,0.9926739926739928,0.0,0.0,0.0,0.0,-0.9853479853479854,0.0,0.0,0.0,0.0,0.0,0.0,0.0,0.0,0.625,0.0,0.0,0.0,1.5836385836385836,0.0,0.0,0.0,0.0,0.0,1.9291819291819288,0.0,0.0,0.0,-0.9072039072039072,0.0,1.286935286935287,0.0,0.0,0.0,-0.9511599511599512,0.0,1.5567765567765568,0.0,0.5625,0.0,0.0,0.0,2.0427350427350426,0.0,0.0,0.0,0.0,0.0,2.8180708180708183,0.0,0.0,0.0,-1.1623931623931625,1.0732600732600732,3.3943833943833943,0.0,0.0,0.0,-1.8693528693528692,1.0085470085470083,3.4065934065934065,0.0,0.0,0.0,-1.4920634920634919,0.0,2.771672771672772,0.0,0.53125,0.0,-1.123321123321123,0.0,2.8095238095238093,0.0,0.53125,0.0,-0.8681318681318682,0.5628815628815629,4.249084249084248,0.0,0.0,0.0,-0.778998778998779,0.0,4.3479853479853485,0.0,0.0,0.0,-1.4481074481074483,0.0,2.5482295482295485,0.0,0.0,0.0,-2.2344322344322345,-1.1147741147741148,1.1904761904761905,0.0,0.0,0.65625,-2.5763125763125765,0.0,1.673992673992674,0.0,0.65625,0.90625,-1.2588522588522588,0.0,2.3418803418803416,0.0,0.0,1.09375,0.0,-2.1770451770451764,1.1855921855921856,0.0,0.0,0.9375,-1.271062271062271,-1.5067155067155067,0.6434676434676435,-0.625,0.0,0.75,-0.8217338217338217,-0.5982905982905983,0.9768009768009768,-0.8125,0.0,0.8125,0.8754578754578755,-1.6752136752136753,0.0,0.0,0.0,0.96875,2.0354090354090357,-3.485958485958486,-1.3174603174603174,0.0,0.0,0.875,2.4029304029304033,-3.615384615384616,-2.1965811965811968,-0.78125,0.0,0.0,1.2332112332112333,0.0,0.0,-1.15625,0.0,0.0,0.0,1.0402930402930404,0.0,0.0,0.0,0.0,0.0,-1.1916971916971917,-2.6043956043956045,0.875,0.0,0.53125,2.4029304029304033,-3.965811965811966,-4.654456654456656,0.71875,0.0,0.75,1.9804639804639803,-1.4737484737484738,-3.075702075702076,0.0,0.0,0.0,0.8253968253968254,0.0,-0.9206349206349206,0.0,0.0,0.0,0.0,-1.5470085470085468,-1.5885225885225884,0.0,0.0,0.0,-1.0842490842490842,-1.6654456654456655,-2.183150183150183,0.0,-0.53125,0.0,-0.9084249084249084,-0.7557997557997558,-1.7692307692307692,0.0,0.0,0.0,-0.5775335775335775,-0.5006105006105006,-1.2698412698412698,0.0,0.0,0.0,-1.5555555555555556,-0.8815628815628815,-2.3003663003662997,0.0,0.0,0.0,-1.290598290598291,-1.5982905982905984,-3.7191697191697193,0.0,0.0,0.0,0.0,-0.7655677655677655,-3.655677655677656,0.0,0.0,0.0,0.0,0.5665445665445665,-3.8962148962148966,0.53125,-0.53125,0.0,0.0,0.0,-5.417582417582418,0.78125,-0.78125,0.0,-1.8290598290598292,0.6288156288156288,-5.499389499389499,0.0,-0.59375,0.0,-1.5811965811965811,2.0085470085470085,-3.172161172161172,0.0,0.0,0.0,0.0,0.7680097680097681,-1.8168498168498168,0.0,0.0,1.03125,1.94017094017094,-0.6752136752136753,-1.5457875457875458,0.0,0.0,0.625,2.2625152625152625,-0.6312576312576312,-1.092796092796093,0.0,0.0,0.0,1.6019536019536018,0.0,0.0,0.0,0.0,0.0,1.565323565323565,0.0,0.0,0.0,0.0,0.0,1.1196581196581197,-0.9328449328449328,-0.7557997557997558,0.0,0.0,0.0,0.9975579975579976,-0.7032967032967034,-1.3699633699633702,0.0,0.0,0.0,1.2136752136752136,-0.6776556776556777,-1.362637362637363,0.0,0.0,0.0,1.5128205128205128,-1.006105006105006,-1.7179487179487178,0.0,0.0,0.0,,,,,,,,,,,,,,,,,,,,,,,,,,,,,,,,,,,,,,,,,,,,,,,,,,,,,,,,,,,,,,,,,,,,,,,,,,,,,,,,,,,,,moveDown
accX,-1.0329670329670328,0.0,0.0,0.0,0.625,0.0,0.0,-0.894993894993895,0.5738705738705738,0.0,0.59375,0.0,0.778998778998779,-0.8351648351648352,0.9902319902319904,0.0,0.0,0.0,0.0,0.0,0.7716727716727717,0.0,0.0,0.0,0.0,0.0,1.843711843711844,0.0,0.0,0.0,0.0,0.0,1.7118437118437118,0.0,0.0,0.0,0.0,0.0,1.6275946275946276,0.0,0.0,0.0,0.0,0.0,1.8412698412698407,0.0,0.0,0.0,-0.6971916971916972,0.0,2.072039072039072,0.0,0.0,0.0,-0.6483516483516484,0.0,2.5433455433455427,0.0,0.0,0.0,-0.8437118437118437,0.0,3.043956043956044,0.0,0.0,0.0,-1.0708180708180708,0.0,3.393162393162393,0.0,0.0,0.0,-1.5018315018315018,0.0,3.7448107448107453,0.0,0.0,0.0,-1.525030525030525,0.0,4.056166056166056,0.65625,0.875,0.0,-1.2148962148962148,0.0,2.8913308913308917,0.59375,1.125,0.0,-1.2283272283272284,-0.6532356532356532,2.407814407814408,0.0,0.71875,0.71875,-0.9511599511599512,-0.57997557997558,3.208791208791209,0.0,0.0,0.96875,-1.4957264957264955,0.0,3.5970695970695967,0.0,0.0,0.96875,-1.6422466422466422,-0.6837606837606838,3.507936507936508,0.0,0.53125,0.8125,-1.2942612942612943,-1.6166056166056166,2.6129426129426134,0.0,1.34375,0.71875,0.0,-2.763125763125763,2.2515262515262515,-1.0,1.0,1.0625,0.5885225885225885,-0.9816849816849816,3.0463980463980462,-1.59375,0.0,1.03125,-1.7631257631257633,-0.6996336996336996,1.9413919413919412,-0.5625,-1.0625,0.90625,-2.8412698412698414,-1.9548229548229548,0.0,0.0,0.0,0.9375,0.0,-3.655677655677656,-1.1184371184371185,0.0,1.375,1.15625,3.63003663003663,-1.9584859584859584,0.0,-1.0625,0.0,1.0625,1.0891330891330893,-0.5311355311355311,0.9804639804639804,0.0,-1.53125,0.0,-3.335775335775337,-0.8998778998778999,-0.6556776556776557,0.0,-1.5625,0.0,-2.148962148962149,-3.3015873015873014,-2.595848595848596,0.0,0.0,0.8125,0.663003663003663,-2.862026862026862,-2.31013431013431,-0.84375,0.0,0.625,1.2161172161172158,0.0,-0.9609279609279608,0.0,0.0,0.0,-0.6642246642246642,-1.4175824175824177,-2.1416361416361416,0.75,0.0,0.0,-1.3284493284493284,-3.8852258852258847,-4.213675213675214,0.0,0.0,0.0,-0.6654456654456654,-4.380952380952381,-5.0427350427350435,-0.78125,0.0,0.0,1.0427350427350428,0.0,-3.586080586080586,0.0,0.0,0.0,0.5311355311355311,0.0,-3.604395604395605,0.90625,-0.75,0.0,0.0,-1.6336996336996337,-6.09035409035409,0.96875,-0.5625,0.0,1.2417582417582418,-1.537240537240537,-7.3931623931623935,0.0,0.0,0.0,1.7252747252747254,0.0,-6.2393162393162385,0.0,0.0,0.0,0.6764346764346765,1.1978021978021978,-5.263736263736264,0.0,0.0,0.0,0.0,0.0,-4.881562881562882,0.0,0.0,0.0,0.0,0.8388278388278388,-3.2905982905982905,0.0,0.0,0.0,0.0,0.78998778998779,-1.9731379731379728,0.0,0.0,0.0,0.0,0.7228327228327228,-0.5347985347985348,0.0,0.0,0.0,-0.9914529914529916,-0.9218559218559218,-1.0048840048840049,0.0,0.0,0.0,0.0,-1.8730158730158732,-1.6434676434676434,0.0,0.0,0.0,0.0,0.0,0.0,0.0,0.0,0.0,0.0,0.0,-0.5567765567765568,0.0,0.0,0.0,0.0,0.0,-0.9902319902319904,0.0,0.0,0.0,,,,,,,,,,,,,,,,,,,,,,,,,,,,,,,,,,,,,,,,,,,,,,,,,,,,,,,,,,,,,,,,,,,,,,,,,,,,,,,,,,,,,,,,,,,,,,,,,moveDown
accX,0.5665445665445665,0.0,1.868131868131868,0.0,0.0,0.0,0.0,-0.5628815628815629,0.8681318681318682,0.0,-0.5625,0.0,0.0,-1.1172161172161172,-0.8485958485958486,0.0,0.0,0.0,0.0,0.0,0.0,0.0,0.0,0.0,0.0,0.0,0.8327228327228328,0.0,0.0,0.0,0.0,0.0,1.4725274725274726,0.0,0.0,0.0,-0.5409035409035409,0.0,1.619047619047619,0.0,0.0,0.0,-0.6984126984126984,0.0,1.8888888888888888,0.0,0.0,0.0,-0.7948717948717948,0.0,1.7741147741147743,0.0,0.0,0.0,-1.017094017094017,0.0,2.21978021978022,0.0,0.0,0.0,-0.8681318681318682,0.5714285714285714,3.415140415140415,0.0,0.0,0.0,-1.1428571428571428,0.7802197802197802,3.855921855921856,0.0,0.0,0.0,-1.6495726495726497,0.9010989010989012,3.776556776556777,0.5625,0.0,0.0,-1.617826617826618,0.0,3.3638583638583635,0.0,0.5625,0.0,-1.4822954822954824,0.0,3.2625152625152625,0.0,0.75,0.625,-0.6190476190476191,0.0,5.004884004884005,0.0,0.6875,0.75,0.0,0.0,5.551892551892551,0.59375,0.0,0.71875,-1.5677655677655675,-0.7240537240537241,3.8949938949938954,1.375,0.0,0.6875,-1.3052503052503053,-1.2588522588522588,2.542124542124542,0.84375,0.59375,0.71875,-1.934065934065934,-1.2454212454212454,1.6227106227106227,0.0,0.53125,0.90625,-1.2234432234432235,0.0,3.2771672771672766,0.0,0.0,1.03125,-0.5811965811965812,-1.1562881562881564,2.6923076923076925,0.78125,-0.53125,1.0625,0.0,-3.323565323565324,0.0,0.0,0.0,0.9375,-0.6727716727716728,-3.4908424908424913,-0.9975579975579976,-1.0,0.0,0.875,-0.5897435897435898,-1.7203907203907205,0.7594627594627594,-1.40625,0.0,0.8125,0.0,0.0,1.9267399267399268,0.0,0.0,0.71875,-1.2356532356532357,-2.7142857142857144,0.0,0.0,0.0,0.8125,-1.1343101343101345,-4.065934065934067,-1.31013431013431,-1.4375,0.0,0.71875,0.0,-1.358974358974359,-0.8827838827838828,-1.21875,0.0,0.59375,0.5323565323565324,0.5091575091575091,-0.5848595848595849,0.0,0.0,0.78125,0.5079365079365079,-2.9511599511599518,-3.33943833943834,0.0,0.0,0.84375,1.0818070818070815,-4.101343101343101,-4.260073260073259,-0.90625,0.0,0.5625,0.0,-1.4774114774114775,-2.335775335775336,-1.09375,0.0,0.0,0.0,0.5836385836385837,0.0,0.0,0.0,0.0,0.5604395604395604,-2.7704517704517704,-2.796092796092796,0.625,0.0,0.59375,1.2991452991452992,-4.1098901098901095,-5.423687423687423,0.0,0.0,0.0,1.6068376068376071,-2.148962148962149,-5.094017094017094,0.0,0.0,0.0,1.2014652014652014,0.0,-3.5262515262515266,0.59375,-0.59375,0.0,0.0,-1.804639804639805,-5.396825396825397,0.84375,0.0,0.0,0.0,-0.6788766788766789,-6.625152625152626,0.53125,0.0,0.0,1.1978021978021978,0.0,-6.5738705738705745,0.0,-0.65625,-0.625,-0.8083028083028083,1.8290598290598292,-4.366300366300366,0.0,0.0,0.0,-0.7008547008547008,0.6324786324786325,-2.7594627594627594,0.0,0.0,0.0,0.0,0.0,-1.5714285714285714,0.0,0.0,0.0,0.0,0.0,0.0,0.0,0.0,0.0,0.0,0.0,0.0,0.0,0.0,0.0,0.0,0.0,0.0,0.0,0.0,0.0,0.0,-1.5665445665445663,-1.6874236874236874,0.0,0.0,0.0,0.5616605616605617,-0.8217338217338217,-0.8278388278388278,0.0,0.0,0.0,0.5054945054945055,-0.6385836385836385,-0.757020757020757,0.0,0.0,0.0,0.0,-0.5970695970695971,-1.2075702075702075,0.0,0.0,0.0,,,,,,,,,,,,,,,,,,,,,,,,,,,,,,,,,,,,,,,,,,,,,,,,,,,,,,,,,,,,,,,,,,,,,,,,,,,,,,,,,,,,,moveDown
accX,-1.122100122100122,0.0,-1.0085470085470083,-0.78125,0.0,0.0,-1.120879120879121,0.7765567765567766,0.0,-0.9375,0.0,0.0,-0.5396825396825397,0.0,1.065934065934066,0.0,0.0,0.0,-0.6056166056166056,0.0,0.7973137973137974,0.0,0.0,0.0,0.0,-0.8351648351648352,1.122100122100122,0.0,0.0,0.0,0.0,-0.8363858363858364,1.2539682539682542,0.0,0.0,0.0,0.0,-1.0354090354090355,1.122100122100122,-0.53125,0.0,0.0,0.0,0.0,1.879120879120879,-0.5625,0.0,0.0,-1.2307692307692308,0.0,2.435897435897436,0.0,0.0,0.0,-1.4004884004884004,0.0,2.9987789987789983,0.625,0.0,0.0,-1.166056166056166,0.0,2.9413919413919416,0.65625,0.6875,0.0,-0.8339438339438342,0.0,3.3724053724053724,0.0,0.59375,0.0,-1.2136752136752136,0.0,3.888888888888889,0.0,0.0,0.6875,-1.1196581196581197,0.0,4.800976800976801,0.0,0.0,0.71875,-1.3931623931623929,0.0,5.078144078144078,0.84375,0.0,0.59375,-1.9181929181929185,-0.5641025641025641,4.327228327228327,0.8125,0.625,0.5625,-2.4993894993894994,-0.8388278388278388,3.5457875457875456,0.0,0.90625,0.84375,-1.2368742368742371,-1.4481074481074483,3.687423687423687,0.0,0.0,1.09375,0.0,-1.5824175824175823,3.495726495726496,0.0,0.0,1.09375,-0.9511599511599512,-1.5384615384615383,2.354090354090354,0.59375,0.0,0.8125,-2.3956043956043955,-2.189255189255189,0.8693528693528694,0.0,0.78125,0.6875,-1.3724053724053724,-2.625152625152625,0.0,0.0,1.125,1.21875,1.4505494505494505,-3.1330891330891335,0.9255189255189256,-0.90625,0.0,1.21875,1.442002442002442,-1.9145299145299144,1.2942612942612943,-0.78125,-1.125,0.65625,-2.034188034188034,-1.8266178266178263,0.0,0.0,-0.90625,0.0,-2.4004884004884004,-2.0573870573870567,-2.404151404151404,0.0,0.0,0.78125,1.0231990231990231,-2.357753357753358,-3.238095238095238,0.0,0.0,0.96875,2.7081807081807083,-1.6056166056166057,-2.7301587301587302,0.0,0.0,0.59375,1.5213675213675213,-2.253968253968254,-2.667887667887668,0.0,0.0,0.0,1.7179487179487178,-3.0012210012210017,-3.3638583638583635,0.0,0.0,0.0,0.5042735042735043,-1.2625152625152625,-2.37973137973138,0.0,-0.59375,0.0,-0.7631257631257631,-1.1025641025641026,-1.94017094017094,0.0,0.0,0.0,0.0,-2.5995115995116,-2.5750915750915757,0.0,0.0,0.0,-0.6422466422466423,-1.7789987789987791,-2.6312576312576312,0.0,0.0,0.0,-1.1892551892551892,0.6202686202686203,-2.101343101343101,0.0,-0.625,0.0,-1.413919413919414,-1.0634920634920637,-3.5494505494505493,0.96875,-0.59375,0.0,0.0,-1.7435897435897436,-4.663003663003662,0.90625,0.0,0.71875,0.6398046398046398,-2.318681318681319,-5.550671550671551,0.0,0.0,0.0,0.0,0.0,-3.948717948717949,0.0,0.0,0.0,0.5763125763125763,0.5775335775335775,-3.1123321123321124,0.0,0.0,0.0,1.3663003663003663,0.0,-3.5885225885225887,0.0,-0.625,0.0,-0.6959706959706959,1.103785103785104,-3.2698412698412698,0.0,-0.8125,-0.625,-1.6105006105006106,1.525030525030525,-2.619047619047619,0.0,0.0,0.0,-0.7240537240537241,1.155067155067155,-2.1611721611721606,0.0,0.0,0.0,0.8901098901098901,-0.5750915750915749,-1.2283272283272284,0.0,0.0,0.0,0.6312576312576312,-1.3308913308913308,-1.05006105006105,0.0,-0.59375,0.0,0.0,0.0,-0.6129426129426129,0.0,0.0,0.0,0.5115995115995116,0.0,0.0,0.0,0.0,0.0,0.7362637362637363,0.0,0.0,0.0,0.0,0.0,0.0,0.0,-0.8424908424908425,0.0,0.0,0.0,0.0,0.0,-0.9291819291819292,0.0,0.0,0.0,,,,,,,,,,,,,,,,,,,,,,,,,,,,,,,,,,,,,,,,,,,,,,,,,,,,,,,,,,,,,,,,,,,,,,,,,,,,,,,,,,,,,moveDown
accX,0.0,0.0,0.8632478632478633,0.0,0.0,0.0,0.0,0.0,0.7338217338217338,0.0,0.0,0.0,0.0,0.0,1.1819291819291822,0.0,0.0,0.0,0.0,0.0,2.075702075702076,0.0,0.0,0.0,0.0,0.0,2.33943833943834,0.6875,0.0,0.0,-1.2283272283272284,0.0,0.8473748473748474,0.5625,0.0,0.0,-0.663003663003663,-0.5372405372405372,0.0,0.0,0.625,0.0,0.0,0.0,1.2539682539682542,-0.59375,0.0,0.0,0.0,0.0,2.207570207570208,-0.71875,0.0,0.59375,-0.9462759462759462,0.9352869352869352,3.4236874236874235,0.0,0.0,0.53125,-1.1782661782661783,1.3186813186813189,4.62026862026862,0.75,0.0,0.0,-1.695970695970696,0.8021978021978022,3.9218559218559217,1.15625,0.8125,0.0,-1.0158730158730158,0.0,1.989010989010989,0.0,0.0,0.71875,-0.7875457875457875,0.0,2.4444444444444446,0.0,0.0,0.84375,-2.102564102564102,0.0,3.0158730158730163,0.0,0.0,0.78125,-2.5360195360195363,0.0,3.2551892551892547,0.71875,0.75,0.65625,-0.7106227106227107,-0.6898656898656899,3.383394383394384,0.6875,1.5,0.75,1.3736263736263736,-1.7533577533577531,3.3431013431013437,0.0,0.6875,0.90625,0.5470085470085471,-1.8632478632478635,2.102564102564102,0.0,-0.5625,0.84375,-1.6886446886446886,-1.286935286935287,0.8070818070818071,0.0,-0.5625,0.8125,-2.374847374847375,-1.7264957264957266,0.0,0.0,0.6875,0.90625,-1.020757020757021,-2.305250305250305,0.6385836385836385,-0.8125,1.65625,1.125,2.7020757020757022,-1.678876678876679,1.7789987789987791,-1.625,0.84375,1.34375,2.9902319902319903,-1.249084249084249,0.5946275946275946,-0.75,-1.0,0.8125,-1.0036630036630036,-1.4615384615384617,-1.3894993894993894,0.0,-1.03125,0.0,-0.5054945054945055,-2.8949938949938954,-1.989010989010989,0.0,0.0,0.625,1.7851037851037852,-1.1025641025641026,0.0,-0.9375,0.78125,0.0,1.5433455433455434,0.7594627594627594,1.962148962148962,-0.5625,0.0,0.0,-1.3956043956043955,-0.8498168498168498,0.0,0.5625,-1.15625,0.0,0.0,-3.0048840048840044,-2.9316239316239314,0.9375,0.0,0.0,1.9426129426129424,-3.6910866910866913,-3.9706959706959712,0.0,0.0,0.0,1.4847374847374848,-0.6898656898656899,-1.636141636141636,0.0,0.0,0.0,-1.382173382173382,-1.3736263736263736,-1.6874236874236874,0.84375,-0.75,0.0,-1.94993894993895,-1.9523809523809523,-2.9951159951159956,0.75,0.0,0.0,0.0,-1.8315018315018317,-3.731379731379731,0.0,0.0,0.0,0.0,0.0,-3.7460317460317465,0.0,-0.53125,0.0,-1.3015873015873016,-0.6043956043956044,-4.3137973137973145,0.5625,-0.6875,0.0,-1.6862026862026862,-1.1978021978021978,-5.5054945054945055,0.0,0.0,0.0,0.0,-1.3418803418803418,-6.450549450549451,0.0,0.0,0.0,1.4676434676434675,0.0,-4.656898656898657,0.0,-0.59375,0.0,0.0,0.0,-4.305250305250305,0.0,-0.65625,0.0,-0.518925518925519,0.0,-3.131868131868132,0.0,0.0,0.0,0.0,0.6715506715506715,-1.709401709401709,0.0,0.0,0.0,0.0,0.6556776556776557,-0.8449328449328449,0.0,0.0,0.0,0.5347985347985348,-0.5958485958485958,-0.7960927960927959,0.0,0.0,0.0,0.0,-0.5164835164835165,-0.8363858363858364,0.0,0.0,0.0,0.0,0.0,0.0,0.0,0.0,0.0,0.0,0.0,0.0,0.0,0.0,0.0,0.9865689865689866,-0.8717948717948718,0.0,0.0,0.0,0.0,0.6935286935286935,-1.5225885225885225,-1.2136752136752136,0.0,0.0,0.0,0.6471306471306472,-1.3345543345543345,-1.827838827838828,0.0,0.0,0.0,,,,,,,,,,,,,,,,,,,,,,,,,,,,,,,,,,,,,,,,,,,,,,,,,,,,,,,,,,,,,,,,,,,,,,,,,,,,,,,,,,,,,moveDown
