,00_accX,00_accY,00_accZ,00_gyroX,00_gyroY,00_gyroZ,01_accX,01_accY,01_accZ,01_gyroX,01_gyroY,01_gyroZ,02_accX,02_accY,02_accZ,02_gyroX,02_gyroY,02_gyroZ,03_accX,03_accY,03_accZ,03_gyroX,03_gyroY,03_gyroZ,04_accX,04_accY,04_accZ,04_gyroX,04_gyroY,04_gyroZ,05_accX,05_accY,05_accZ,05_gyroX,05_gyroY,05_gyroZ,06_accX,06_accY,06_accZ,06_gyroX,06_gyroY,06_gyroZ,07_accX,07_accY,07_accZ,07_gyroX,07_gyroY,07_gyroZ,08_accX,08_accY,08_accZ,08_gyroX,08_gyroY,08_gyroZ,09_accX,09_accY,09_accZ,09_gyroX,09_gyroY,09_gyroZ,10_accX,10_accY,10_accZ,10_gyroX,10_gyroY,10_gyroZ,11_accX,11_accY,11_accZ,11_gyroX,11_gyroY,11_gyroZ,12_accX,12_accY,12_accZ,12_gyroX,12_gyroY,12_gyroZ,13_accX,13_accY,13_accZ,13_gyroX,13_gyroY,13_gyroZ,14_accX,14_accY,14_accZ,14_gyroX,14_gyroY,14_gyroZ,15_accX,15_accY,15_accZ,15_gyroX,15_gyroY,15_gyroZ,16_accX,16_accY,16_accZ,16_gyroX,16_gyroY,16_gyroZ,17_accX,17_accY,17_accZ,17_gyroX,17_gyroY,17_gyroZ,18_accX,18_accY,18_accZ,18_gyroX,18_gyroY,18_gyroZ,19_accX,19_accY,19_accZ,19_gyroX,19_gyroY,19_gyroZ,20_accX,20_accY,20_accZ,20_gyroX,20_gyroY,20_gyroZ,21_accX,21_accY,21_accZ,21_gyroX,21_gyroY,21_gyroZ,22_accX,22_accY,22_accZ,22_gyroX,22_gyroY,22_gyroZ,23_accX,23_accY,23_accZ,23_gyroX,23_gyroY,23_gyroZ,24_accX,24_accY,24_accZ,24_gyroX,24_gyroY,24_gyroZ,25_accX,25_accY,25_accZ,25_gyroX,25_gyroY,25_gyroZ,26_accX,26_accY,26_accZ,26_gyroX,26_gyroY,26_gyroZ,27_accX,27_accY,27_accZ,27_gyroX,27_gyroY,27_gyroZ,28_accX,28_accY,28_accZ,28_gyroX,28_gyroY,28_gyroZ,29_accX,29_accY,29_accZ,29_gyroX,29_gyroY,29_gyroZ,30_accX,30_accY,30_accZ,30_gyroX,30_gyroY,30_gyroZ,31_accX,31_accY,31_accZ,31_gyroX,31_gyroY,31_gyroZ,32_accX,32_accY,32_accZ,32_gyroX,32_gyroY,32_gyroZ,33_accX,33_accY,33_accZ,33_gyroX,33_gyroY,33_gyroZ,34_accX,34_accY,34_accZ,34_gyroX,34_gyroY,34_gyroZ,35_accX,35_accY,35_accZ,35_gyroX,35_gyroY,35_gyroZ,36_accX,36_accY,36_accZ,36_gyroX,36_gyroY,36_gyroZ,37_accX,37_accY,37_accZ,37_gyroX,37_gyroY,37_gyroZ,38_accX,38_accY,38_accZ,38_gyroX,38_gyroY,38_gyroZ,39_accX,39_accY,39_accZ,39_gyroX,39_gyroY,39_gyroZ,40_accX,40_accY,40_accZ,40_gyroX,40_gyroY,40_gyroZ,41_accX,41_accY,41_accZ,41_gyroX,41_gyroY,41_gyroZ,42_accX,42_accY,42_accZ,42_gyroX,42_gyroY,42_gyroZ,43_accX,43_accY,43_accZ,43_gyroX,43_gyroY,43_gyroZ,44_accX,44_accY,44_accZ,44_gyroX,44_gyroY,44_gyroZ,45_accX,45_accY,45_accZ,45_gyroX,45_gyroY,45_gyroZ,46_accX,46_accY,46_accZ,46_gyroX,46_gyroY,46_gyroZ,47_accX,47_accY,47_accZ,47_gyroX,47_gyroY,47_gyroZ,48_accX,48_accY,48_accZ,48_gyroX,48_gyroY,48_gyroZ,49_accX,49_accY,49_accZ,49_gyroX,49_gyroY,49_gyroZ,50_accX,50_accY,50_accZ,50_gyroX,50_gyroY,50_gyroZ,51_accX,51_accY,51_accZ,51_gyroX,51_gyroY,51_gyroZ,52_accX,52_accY,52_accZ,52_gyroX,52_gyroY,52_gyroZ,53_accX,53_accY,53_accZ,53_gyroX,53_gyroY,53_gyroZ,54_accX,54_accY,54_accZ,54_gyroX,54_gyroY,54_gyroZ,55_accX,55_accY,55_accZ,55_gyroX,55_gyroY,55_gyroZ,56_accX,56_accY,56_accZ,56_gyroX,56_gyroY,56_gyroZ,57_accX,57_accY,57_accZ,57_gyroX,57_gyroY,57_gyroZ,58_accX,58_accY,58_accZ,58_gyroX,58_gyroY,58_gyroZ,59_accX,59_accY,59_accZ,59_gyroX,59_gyroY,59_gyroZ,category
accX,0.0,0.0,0.0,0.0,0.0,0.0,0.0,0.0,0.0,0.0,0.0,0.0,0.0,0.0,0.0,0.0,0.0,0.0,0.0,0.0,0.0,0.0,0.0,0.0,0.0,0.0,0.0,0.0,0.0,0.0,0.0,-0.6581196581196581,0.0,0.0,0.0,0.0,0.0,0.0,0.0,0.0,0.0,0.0,0.0,0.0,0.0,0.0,0.0,0.0,1.0463980463980465,-0.5750915750915749,0.0,0.53125,0.0,0.0,1.3724053724053724,-1.380952380952381,-0.7704517704517705,0.71875,0.0,0.0,1.0122100122100122,-0.8644688644688645,0.0,0.75,0.0,0.0,0.0,-0.5860805860805861,0.0,1.0625,0.9375,0.0,0.0,0.0,0.0,1.40625,1.5,0.0,0.0,0.0,-1.2637362637362637,1.96875,2.09375,0.65625,1.061050061050061,-1.4224664224664223,-2.199023199023199,2.53125,3.0625,0.84375,1.3150183150183148,-1.264957264957265,-2.4652014652014653,2.625,3.78125,0.6875,0.0,0.0,-2.1648351648351647,2.71875,4.3125,0.625,0.0,0.5421245421245421,-1.706959706959707,3.125,4.9375,0.6875,1.1721611721611722,0.0,-1.9572649572649568,3.53125,5.21875,0.6875,0.5445665445665445,0.5592185592185592,-2.213675213675214,3.46875,4.90625,0.5625,-0.94993894993895,1.2124542124542124,-1.9145299145299144,3.59375,5.15625,0.0,0.0,1.1892551892551892,-1.2087912087912087,4.28125,6.09375,0.0,3.0793650793650795,0.0,-1.010989010989011,4.84375,6.28125,0.0,3.5824175824175826,-1.166056166056166,-1.4786324786324787,4.5625,5.15625,0.0,0.6092796092796092,0.0,-1.5873015873015872,4.3125,4.5,-1.03125,1.1025641025641026,-1.031746031746032,-1.4297924297924298,4.59375,5.03125,-1.15625,2.7496947496947497,-2.0195360195360195,-0.9169719169719168,4.1875,4.15625,-1.25,2.1587301587301586,-2.659340659340659,-0.6654456654456654,4.0,3.5,-1.5625,2.6764346764346763,-2.3162393162393164,-1.1062271062271063,3.875,2.78125,-1.6875,1.6349206349206349,-2.137973137973138,-2.2185592185592187,3.6875,2.5625,-1.9375,2.3626373626373627,-3.3528693528693534,-2.6959706959706957,3.125,2.34375,-2.0625,1.9853479853479852,-3.2869352869352872,-2.2844932844932844,2.375,1.90625,-1.9375,0.7057387057387058,-1.2002442002442002,-1.2881562881562882,2.46875,1.8125,-1.71875,0.0,-0.6568986568986569,-1.1684981684981686,2.96875,1.875,-1.4375,0.6727716727716728,-1.9304029304029304,-2.0024420024420024,2.9375,1.5,-1.75,0.0,-1.9511599511599511,-3.2344322344322345,2.5,1.40625,-2.40625,0.0,-0.7533577533577533,-4.0976800976800964,2.125,1.03125,-1.78125,-1.5628815628815629,0.0,-3.8253968253968256,1.75,0.875,-0.875,0.0,-0.8595848595848596,-2.9267399267399266,1.46875,1.1875,-1.1875,0.5946275946275946,0.0,-1.568986568986569,1.5625,0.875,-1.25,0.0,0.0,-2.2783882783882783,1.8125,0.0,-1.34375,-1.6715506715506716,-1.6324786324786325,-3.9670329670329667,1.28125,0.5625,-1.34375,-1.0598290598290598,0.0,-3.5042735042735043,1.0625,0.0,-1.1875,-2.004884004884005,-0.5567765567765568,-4.0708180708180715,0.6875,0.0,-1.03125,-2.318681318681319,0.0,-3.9328449328449326,0.0,0.625,-0.875,-0.9951159951159952,1.1196581196581197,-2.877899877899878,0.0,0.0,-0.53125,-0.8620268620268621,0.0,-2.667887667887668,0.0,0.0,0.0,-1.1184371184371185,0.0,-1.8925518925518925,0.0,0.0,0.0,-0.9487179487179488,0.0,-1.6715506715506716,0.0,0.0,0.0,-0.6776556776556777,-0.5091575091575091,-1.8656898656898655,0.0,0.0,0.0,-1.192918192918193,-0.9658119658119658,-1.9719169719169718,0.0,0.0,0.0,0.0,0.0,-0.7875457875457875,0.0,0.0,0.0,0.0,0.0,-0.6605616605616605,0.0,0.0,0.0,0.0,-0.8168498168498168,-0.5421245421245421,0.0,0.0,0.0,0.0,-0.6703296703296703,-1.1196581196581197,0.0,0.0,0.0,-0.9157509157509156,0.0,-2.0854700854700856,0.0,0.0,0.0,-0.9536019536019535,-0.7838827838827839,-2.8058608058608057,0.0,0.0,0.0,0.5531135531135531,0.0,-1.0390720390720392,-0.71875,0.0,0.0,0.5604395604395604,0.0,0.0,-0.625,0.0,0.0,0.0,0.0,0.0,0.0,-0.78125,0.0,moveUp
accX,0.0,0.0,0.0,1.15625,0.53125,0.0,0.0,-0.6678876678876678,-0.8339438339438342,0.8125,0.65625,0.625,0.0,0.0,-1.1709401709401708,0.8125,1.0,0.84375,1.3785103785103785,-0.6373626373626373,-1.0708180708180708,0.90625,1.0625,0.6875,1.1538461538461535,-1.0085470085470083,-1.3540903540903542,0.84375,1.125,0.0,0.0,-0.7753357753357754,-1.9474969474969477,0.625,1.5,0.0,0.0,0.0,-2.5177045177045176,0.625,2.15625,0.65625,0.0,-0.5982905982905983,-2.8217338217338215,0.6875,2.9375,0.90625,0.6593406593406593,-0.6398046398046398,-2.67032967032967,0.875,3.3125,0.875,0.0,-0.5274725274725275,-2.313797313797314,1.25,3.8125,0.84375,0.0,0.0,-2.13064713064713,1.71875,4.53125,0.875,0.0,-0.5543345543345544,-1.8913308913308915,2.0625,4.96875,1.03125,0.0,0.0,-1.8510378510378511,2.34375,5.34375,0.90625,-0.5531135531135531,0.7863247863247863,-1.7997557997557998,2.75,5.78125,0.75,0.0,1.2124542124542124,-1.5909645909645909,3.28125,6.0625,0.53125,0.0,0.0,-1.8131868131868127,3.4375,5.84375,0.65625,-0.6520146520146519,0.6984126984126984,-1.6678876678876684,3.71875,6.28125,0.71875,0.9267399267399268,0.0,-0.8437118437118437,3.96875,6.125,0.59375,1.5787545787545787,0.0,-0.7167277167277167,4.125,5.71875,0.0,1.8901098901098898,0.0,-1.043956043956044,4.3125,5.40625,0.0,1.7704517704517704,0.0,-1.3846153846153846,4.53125,5.0,0.0,1.68986568986569,-0.503052503052503,-1.3858363858363858,4.6875,4.4375,0.0,2.4566544566544573,-1.8107448107448108,-1.8083028083028083,4.5,3.96875,0.0,3.2796092796092795,-2.351648351648352,-1.4761904761904765,3.65625,2.28125,-1.34375,-1.5286935286935286,0.7008547008547008,-1.6556776556776556,3.9375,1.84375,-1.53125,0.0,-2.758241758241758,-1.1978021978021978,3.9375,2.625,-1.0625,2.31013431013431,-1.7045177045177045,0.6117216117216118,3.28125,2.0625,-0.78125,1.2356532356532357,-1.956043956043956,0.0,3.0625,0.59375,-1.03125,-0.6129426129426129,0.0,-1.78998778998779,3.0625,0.0,-1.375,-2.0097680097680097,-0.9877899877899878,-3.852258852258852,3.1875,0.0,-1.34375,-0.8437118437118437,-1.4456654456654456,-4.7765567765567765,2.78125,0.71875,-1.34375,0.0,0.0,-4.255189255189255,2.21875,0.6875,-1.1875,-0.7155067155067155,0.0,-4.072039072039072,2.3125,0.0,-1.0625,-1.2539682539682542,0.0,-4.256410256410256,2.0625,0.0,-1.03125,-1.0769230769230769,0.0,-4.474969474969475,1.8125,0.625,-1.21875,-0.7032967032967034,0.0,-4.9975579975579985,1.5,0.0,-1.0,-1.465201465201465,0.0,-4.7594627594627585,0.875,0.0,-0.65625,-1.2612942612942613,0.0,-3.615384615384616,0.625,0.0,-0.625,0.0,0.0,-2.761904761904762,0.59375,0.5625,0.0,0.0,0.0,-2.641025641025641,0.0,0.0,0.0,-1.0451770451770452,0.0,-3.0012210012210017,0.0,0.0,-0.53125,-2.2735042735042734,0.5213675213675214,-2.9059829059829063,0.0,0.0,0.0,-0.6117216117216118,0.0,-1.728937728937729,0.0,0.0,0.0,0.0,0.0,-0.7179487179487181,0.0,0.0,0.0,-0.5921855921855922,0.0,0.0,0.0,0.0,0.0,0.0,0.0,0.0,0.0,0.0,0.0,0.0,0.0,0.0,0.0,0.0,0.0,0.0,0.0,0.0,0.0,-0.625,0.0,,,,,,,,,,,,,,,,,,,,,,,,,,,,,,,,,,,,,,,,,,,,,,,,,,,,,,,,,,,,,,,,,,,,,,,,,moveUp
accX,0.0,0.0,0.0,0.0,0.0,0.0,0.0,0.0,0.0,0.78125,0.0,0.0,0.0,-0.525030525030525,0.0,0.9375,0.0,0.0,0.0,-0.7008547008547008,-0.9401709401709402,0.6875,0.625,0.0,0.5738705738705738,0.0,-1.2527472527472527,0.0,0.71875,0.0,0.7081807081807082,0.0,-1.8864468864468864,0.0,0.96875,0.53125,0.7448107448107448,0.0,-2.0195360195360195,0.0,1.28125,0.53125,0.0,0.0,-2.267399267399268,0.0,1.8125,0.65625,0.0,0.0,-2.1257631257631258,0.6875,2.4375,0.96875,0.0,0.0,-2.117216117216117,1.0625,3.28125,1.28125,0.0,-0.7326007326007326,-2.2954822954822958,1.59375,4.375,1.71875,0.7509157509157509,-0.8046398046398047,-1.7741147741147743,1.9375,5.03125,1.71875,0.8363858363858364,-0.6703296703296703,-0.9133089133089132,2.3125,5.625,1.3125,2.0195360195360195,-1.9926739926739927,-1.2503052503052503,2.84375,5.875,0.71875,1.424908424908425,-1.3858363858363858,-1.7851037851037852,2.59375,5.375,0.625,1.4761904761904765,-0.7167277167277167,-1.8034188034188037,2.3125,4.9375,0.0,0.0,0.6544566544566545,-1.557997557997558,2.375,4.71875,0.0,-1.5421245421245422,1.8986568986568984,-1.0256410256410255,2.9375,5.21875,0.0,0.0,1.575091575091575,-1.05006105006105,3.75,6.15625,0.0,1.465201465201465,0.7680097680097681,-1.3308913308913308,3.9375,6.0625,0.0,1.3907203907203909,0.6080586080586079,-1.8315018315018317,3.71875,5.375,0.0,1.072039072039072,0.9255189255189256,-1.652014652014652,3.65625,5.0625,0.0,0.0,1.05006105006105,-1.0915750915750917,3.96875,4.96875,-0.5625,0.0,0.0,-1.4407814407814408,4.5,5.46875,0.0,2.245421245421245,-0.8192918192918193,-1.8229548229548234,4.59375,5.34375,0.0,2.783882783882784,-1.275946275946276,-2.5213675213675213,4.09375,4.3125,-0.53125,1.7387057387057387,-2.173382173382173,-2.6312576312576312,3.4375,3.3125,-0.78125,1.115995115995116,0.0,-2.183150183150183,3.1875,2.75,-0.65625,1.105006105006105,-0.912087912087912,-2.6178266178266183,3.4375,2.40625,-0.78125,1.1062271062271063,-1.3308913308913308,-3.1623931623931623,3.1875,2.0625,-1.09375,0.0,-1.2686202686202686,-3.3028083028083026,2.75,1.46875,-1.15625,0.0,-0.5531135531135531,-2.8205128205128207,2.28125,0.96875,-0.75,-0.503052503052503,0.0,-2.6581196581196584,2.09375,0.78125,-0.59375,-0.5897435897435898,-0.6764346764346765,-2.6178266178266183,1.78125,0.0,-0.625,-0.8168498168498168,0.0,-2.958485958485958,1.71875,0.71875,-0.75,0.0,0.0,-3.312576312576313,1.65625,0.6875,-0.8125,0.8876678876678876,0.0,-3.9706959706959712,1.28125,0.0,-0.71875,-0.9865689865689866,0.0,-4.137973137973138,0.75,0.0,-0.53125,0.0,0.8632478632478633,-3.1086691086691087,0.75,0.65625,0.0,0.7826617826617827,0.7179487179487181,-2.8376068376068377,0.78125,0.0,-0.5625,0.0,0.9474969474969476,-3.435897435897436,0.65625,0.0,-0.71875,-0.5970695970695971,0.6202686202686203,-3.5506715506715505,0.0,0.0,0.0,-0.5677655677655677,0.0,-3.1465201465201464,0.0,0.0,0.0,-1.3308913308913308,0.7045177045177046,-2.0195360195360195,0.0,0.0,0.0,-0.8498168498168498,0.0,-1.2173382173382172,0.0,0.0,0.0,0.0,-0.5714285714285714,-0.9328449328449328,0.0,0.0,0.0,0.0,0.0,-1.1001221001221002,0.0,0.0,0.0,-0.514041514041514,0.0,-1.4468864468864469,0.0,0.0,0.0,0.0,0.0,-0.8058608058608059,0.0,0.0,0.0,0.0,0.0,0.0,0.0,0.0,0.0,0.0,0.0,0.0,0.0,0.0,0.0,0.0,0.5518925518925519,0.0,0.0,0.0,0.0,0.0,0.0,-0.6178266178266179,0.0,0.0,0.0,0.0,0.0,0.0,0.0,0.0,0.0,,,,,,,,,,,,,,,,,,,,,,,,,,,,,,,,,,,,,moveUp
accX,0.0,0.0,0.0,0.0,0.0,0.0,0.0,0.0,0.0,0.75,0.0,0.0,0.0,0.0,0.0,0.53125,0.0,0.0,0.0,0.0,0.0,0.0,0.0,0.0,0.6251526251526252,0.0,0.0,0.53125,0.0,0.0,0.503052503052503,0.0,-0.9902319902319904,0.65625,0.53125,0.0,0.0,-0.5042735042735043,-2.2051282051282053,0.8125,0.9375,0.5625,0.7545787545787546,-0.7753357753357754,-2.483516483516484,0.6875,1.5,0.6875,0.7973137973137974,-0.5335775335775336,-2.131868131868132,0.0,1.75,0.59375,0.0,0.0,-1.7863247863247864,0.53125,2.09375,0.625,0.0,0.0,-1.5384615384615383,0.75,2.65625,0.84375,0.0,-0.7289377289377289,-1.8339438339438336,0.9375,3.09375,0.9375,-0.6446886446886447,0.0,-1.8937728937728937,1.03125,3.625,1.0,0.0,0.0,-1.4810744810744811,1.65625,4.53125,1.21875,0.5396825396825397,-0.5128205128205128,-1.5848595848595848,2.125,4.96875,1.09375,1.0708180708180708,-0.5274725274725275,-1.7594627594627594,2.15625,4.96875,0.71875,0.0,0.0,-1.9047619047619049,2.0,4.65625,0.0,-1.1282051282051282,0.984126984126984,-1.7765567765567765,2.21875,5.03125,0.65625,-1.5604395604395604,2.117216117216117,-1.2918192918192921,2.8125,5.65625,1.0,-1.2735042735042734,2.2625152625152625,-0.984126984126984,3.59375,6.46875,1.21875,1.2148962148962148,2.028083028083028,-0.7362637362637363,4.0625,6.3125,0.84375,2.1782661782661785,0.6312576312576312,-1.6459096459096458,3.84375,5.5625,0.0,1.7631257631257633,0.5457875457875457,-2.36019536019536,3.46875,5.0,0.0,1.9096459096459095,0.5518925518925519,-2.467643467643468,2.9375,4.03125,0.0,0.0,1.4090354090354091,-2.271062271062271,3.0,3.96875,0.0,0.0,1.2747252747252746,-1.52014652014652,3.5,4.125,0.0,0.956043956043956,0.9145299145299144,-1.6031746031746033,3.8125,3.875,0.0,0.6862026862026862,0.0,-2.3321123321123323,3.6875,3.71875,-0.53125,1.065934065934066,-1.1611721611721613,-2.4542124542124544,3.375,3.46875,0.0,1.641025641025641,-1.5628815628815629,-2.1575091575091574,3.03125,2.8125,0.0,1.343101343101343,-1.1807081807081807,-1.7692307692307692,2.90625,2.28125,0.0,1.4395604395604396,-0.6214896214896215,-1.6752136752136753,3.03125,1.9375,-0.59375,1.1391941391941391,-1.1294261294261294,-2.3455433455433456,2.875,1.71875,-0.90625,0.7997557997557998,-0.6752136752136753,-2.611721611721612,2.59375,1.59375,-1.0,0.0,-1.0451770451770452,-2.7338217338217334,2.28125,1.40625,-0.8125,0.0,-1.5543345543345544,-2.2185592185592187,1.9375,1.25,-0.71875,0.0,-1.1086691086691087,-1.534798534798535,1.8125,1.125,-0.84375,0.8925518925518926,0.0,-1.0915750915750917,1.96875,0.75,-1.0,0.0,0.0,-1.7936507936507935,2.0,0.0,-0.9375,-0.7667887667887668,-0.5641025641025641,-2.8131868131868134,1.625,0.0,-0.78125,0.0,0.0,-3.04029304029304,1.3125,0.0,-0.6875,0.0,0.6642246642246642,-3.474969474969475,1.15625,0.0,-0.59375,-0.8498168498168498,0.8009768009768009,-3.5506715506715505,0.96875,0.0,0.0,-0.956043956043956,0.0,-3.632478632478633,0.8125,0.0,0.0,-1.2551892551892552,0.0,-3.267399267399268,0.0,0.0,0.0,-1.4273504273504274,0.0,-2.783882783882784,0.0,0.0,0.0,-0.9804639804639804,0.0,-1.953601953601953,0.0,0.0,0.0,0.0,0.0,-0.9304029304029304,0.0,0.0,0.0,0.0,1.192918192918193,-1.006105006105006,0.0,0.0,0.0,-1.3064713064713065,0.0,-1.9365079365079363,0.0,0.0,0.0,-1.1306471306471306,-1.1794871794871795,-1.8522588522588523,0.0,0.0,0.0,0.0,0.0,0.0,0.0,0.0,0.0,0.7521367521367521,0.0,0.0,0.0,0.0,0.0,0.7545787545787546,0.0,0.0,0.0,0.0,0.0,,,,,,,,,,,,,,,,,,,,,,,,,,,,,,,,,,,,,moveUp
accX,0.0,0.0,0.0,0.0,0.0,0.0,0.0,0.0,0.0,0.84375,0.0,0.0,0.0,-0.9389499389499391,0.0,0.875,0.0,0.0,0.0,-1.017094017094017,-0.989010989010989,0.625,0.0,0.0,0.0,-0.6923076923076923,-1.4590964590964588,0.0,0.5625,0.0,0.0,0.0,-1.568986568986569,0.0,1.03125,0.0,0.0,0.0,-2.0329670329670333,0.78125,1.625,0.625,1.092796092796093,-1.0097680097680095,-2.2796092796092795,0.75,1.96875,0.625,1.4468864468864469,-1.1916971916971917,-2.236874236874237,0.59375,2.0625,0.0,0.757020757020757,-0.8339438339438342,-2.21978021978022,0.65625,2.4375,0.0,0.0,0.0,-2.313797313797314,1.0,3.0625,0.59375,0.0,-0.6495726495726496,-2.3565323565323566,1.40625,3.78125,0.71875,0.0,0.0,-1.9951159951159951,1.75,4.46875,0.78125,0.0,0.0,-1.8034188034188037,2.21875,5.03125,0.875,0.0,0.0,-1.7264957264957266,2.4375,5.40625,0.84375,0.0,0.0,-1.4468864468864469,2.6875,5.46875,0.65625,0.0,0.7020757020757019,-1.2686202686202686,3.0,5.3125,0.0,0.0,1.4761904761904765,-1.3748473748473748,3.4375,5.28125,0.0,0.0,1.4871794871794872,-2.075702075702076,3.78125,5.3125,0.0,-0.6520146520146519,1.4053724053724053,-2.94993894993895,3.5625,5.28125,0.0,0.0,2.5506715506715505,-2.3650793650793656,3.65625,5.21875,0.0,0.0,2.415140415140415,-2.087912087912088,4.25,5.53125,0.0,0.0,0.6275946275946276,-1.7838827838827842,5.03125,6.28125,0.0,4.837606837606837,-1.8302808302808304,-1.896214896214896,4.9375,5.5,0.0,4.448107448107448,-2.389499389499389,-3.0854700854700856,3.875,3.46875,-0.65625,1.3443223443223444,-1.4822954822954824,-3.225885225885226,3.375,2.96875,-0.90625,0.0,-1.3772893772893773,-2.565323565323565,3.40625,3.25,-1.0625,1.757020757020757,-2.133089133089133,-1.8986568986568984,3.46875,3.15625,-1.6875,1.192918192918193,-1.2063492063492065,-2.8046398046398044,3.25,1.875,-1.65625,-1.1489621489621489,0.0,-3.468864468864469,2.375,1.15625,-1.34375,-1.7191697191697193,0.0,-2.413919413919414,2.03125,1.46875,-1.125,0.0,0.6092796092796092,-1.7533577533577531,2.21875,1.5625,-0.78125,0.0,0.0,-2.6910866910866917,2.28125,1.1875,-1.125,0.0,0.0,-3.68009768009768,2.09375,0.71875,-1.5625,-2.2808302808302807,0.0,-4.16971916971917,1.5,0.0,-1.0,-1.3076923076923077,0.7557997557997558,-3.0769230769230766,1.15625,0.8125,-0.5625,0.0,0.0,-2.3919413919413923,1.25,0.84375,-0.59375,0.0,0.0,-2.525030525030525,1.21875,0.0,-0.78125,-1.363858363858364,0.0,-2.8058608058608057,1.0,0.0,-0.875,0.0,0.0,-2.4896214896214897,0.90625,0.65625,-0.6875,0.0,0.0,-2.3321123321123323,0.75,0.0,0.0,-1.065934065934066,0.0,-2.52991452991453,0.5625,0.0,0.0,0.0,0.5115995115995116,-1.9914529914529917,0.0,0.0,0.0,0.0,0.9975579975579976,-1.8107448107448108,0.0,0.0,0.0,-1.7216117216117215,0.0,-2.2551892551892547,0.0,0.0,0.0,-1.0244200244200243,0.0,-1.8473748473748477,0.0,0.0,0.0,0.0,-0.6556776556776557,-0.8974358974358975,0.0,0.0,0.0,0.0,0.6862026862026862,-0.8547008547008547,0.0,0.0,0.0,-1.617826617826618,0.0,-1.78021978021978,0.0,0.0,0.0,0.0,0.0,-1.4603174603174602,0.0,0.0,0.0,0.0,0.0,0.0,0.0,0.0,0.0,,,,,,,,,,,,,,,,,,,,,,,,,,,,,,,,,,,,,,,,,,,,,,,,,,,,,,,moveUp
accX,0.0,0.0,0.8241758241758241,0.0,0.0,0.0,0.0,0.0,1.10989010989011,0.96875,0.0,0.0,0.0,-1.2173382173382172,0.0,0.90625,0.0,0.0,0.0,-1.2063492063492065,-0.7350427350427351,0.0,0.0,0.0,0.0,-0.7960927960927959,-1.5164835164835164,0.0,0.0,0.0,0.0,0.0,-1.586080586080586,0.0,0.75,0.0,0.0,0.0,-2.1098901098901104,0.6875,1.46875,0.0,0.0,-0.5518925518925519,-2.435897435897436,0.75,2.28125,0.8125,0.525030525030525,0.0,-2.1111111111111107,0.78125,2.6875,0.875,0.0,0.0,-2.0134310134310134,0.90625,3.125,0.90625,0.0,0.0,-1.815628815628816,1.34375,3.78125,1.0,0.536019536019536,0.0,-1.8778998778998781,1.84375,4.53125,0.84375,0.8498168498168498,-1.391941391941392,-2.139194139194139,1.9375,4.84375,0.90625,0.6398046398046398,-0.5213675213675214,-1.7301587301587302,2.09375,5.21875,0.65625,0.0,0.0,-1.4114774114774116,2.40625,5.59375,0.0,0.0,0.514041514041514,-1.195360195360195,2.75,5.8125,0.0,0.0,0.5653235653235653,-1.6068376068376071,2.9375,5.8125,0.0,-0.6471306471306472,1.7912087912087913,-1.8229548229548234,3.09375,5.90625,0.0,0.0,1.2307692307692308,-2.291819291819292,2.96875,5.78125,0.0,1.7252747252747254,1.7826617826617828,-1.8290598290598292,2.9375,5.0625,0.0,0.0,1.8998778998779,-1.945054945054945,3.15625,4.875,0.0,-0.5958485958485958,1.387057387057387,-2.0781440781440783,3.71875,5.75,0.53125,2.58974358974359,0.0,-1.2796092796092795,3.4375,4.5,0.0,1.3186813186813189,0.6312576312576312,-1.2967032967032968,3.0625,3.0,0.0,-1.9255189255189256,1.5897435897435896,-2.230769230769231,3.0,2.75,0.0,-0.8070818070818071,0.78998778998779,-2.15995115995116,3.15625,3.46875,0.0,1.3833943833943834,0.0,-1.948717948717949,3.15625,3.3125,0.0,0.8803418803418803,0.0,-2.5103785103785103,2.84375,2.625,0.0,0.5824175824175825,0.0,-2.7191697191697197,2.5,2.09375,0.0,0.0,0.0,-2.9194139194139197,2.21875,1.6875,0.0,0.0,0.0,-2.2905982905982905,1.96875,1.65625,0.0,0.0,0.0,-1.5238095238095235,1.96875,1.625,-0.53125,0.0,0.0,-1.4908424908424909,2.09375,1.375,-0.78125,0.0,0.0,-2.340659340659341,1.96875,1.15625,-0.96875,0.0,0.5567765567765568,-2.455433455433456,1.5,0.75,-0.96875,-0.8278388278388278,1.0073260073260073,-2.0195360195360195,1.21875,0.59375,-0.625,0.0,0.0,-1.8937728937728937,1.25,0.6875,-0.53125,0.0,0.6153846153846154,-1.6495726495726497,1.125,0.625,-0.75,0.0,0.5860805860805861,-2.2002442002442004,1.15625,0.0,-0.84375,-1.6153846153846154,1.3357753357753357,-2.7887667887667886,0.8125,0.0,-0.625,-1.0598290598290598,0.9413919413919414,-2.649572649572649,0.6875,0.0,0.0,-0.9536019536019535,0.0,-1.9548229548229548,0.0,0.0,0.0,-1.1733821733821734,0.0,-1.010989010989011,0.0,0.0,0.0,0.0,0.0,-1.2735042735042734,0.0,0.0,0.0,-1.5323565323565325,1.1343101343101345,-2.3663003663003663,0.0,0.0,0.0,-1.3516483516483515,1.3406593406593406,-2.6666666666666665,0.0,0.0,0.0,-1.238095238095238,1.275946275946276,-2.062271062271062,0.0,0.0,0.0,-1.2954822954822955,0.7057387057387058,-1.927960927960928,0.0,0.0,0.0,-0.9658119658119658,0.0,-1.1978021978021978,0.0,0.0,0.0,0.0,0.0,-0.6239316239316239,0.0,0.0,0.0,,,,,,,,,,,,,,,,,,,,,,,,,,,,,,,,,,,,,,,,,,,,,,,,,,,,,,,,,,,,,moveUp
accX,0.0,0.0,0.0,0.0,0.0,0.0,0.0,0.0,0.0,0.0,0.0,0.0,0.0,0.0,0.0,0.0,0.0,0.0,0.0,0.0,0.0,0.0,0.0,0.0,0.0,0.0,-0.8253968253968254,0.0,0.0,0.0,0.0,0.0,-1.271062271062271,0.0,0.0,0.0,0.0,0.0,-2.0097680097680097,0.0,0.78125,0.0,0.5506715506715507,-0.9328449328449328,-2.709401709401709,0.0,1.21875,0.0,1.1391941391941391,-1.1697191697191698,-2.8302808302808304,0.0,1.5,0.0,1.1526251526251523,-0.8717948717948718,-2.3785103785103785,0.0,1.6875,0.0,0.0,0.0,-1.8754578754578757,0.0,2.3125,0.0,0.0,0.0,-2.063492063492064,0.53125,3.09375,0.625,0.0,0.0,-1.887667887667888,0.90625,3.875,0.875,0.5470085470085471,0.0,-1.757020757020757,1.40625,4.65625,1.0625,1.3308913308913308,-0.8437118437118437,-1.7582417582417582,1.75,5.125,0.9375,1.9108669108669107,-0.9658119658119658,-1.8913308913308915,1.71875,4.875,0.0,0.0,0.0,-1.8974358974358971,1.5625,4.5625,0.0,-1.380952380952381,1.4566544566544566,-1.2967032967032968,1.90625,5.21875,0.0,0.0,1.6202686202686205,-1.065934065934066,2.375,5.71875,0.0,-0.9963369963369964,2.343101343101343,-1.1416361416361416,2.75,5.6875,0.0,-1.9645909645909645,3.3492063492063493,-1.1245421245421243,3.15625,6.09375,0.0,0.0,2.2246642246642248,-1.746031746031746,3.375,6.53125,0.0,0.6385836385836385,3.231990231990232,-1.978021978021978,2.90625,5.78125,0.0,0.0,2.653235653235653,-2.4590964590964592,2.65625,5.3125,0.0,0.0,1.934065934065934,-2.4652014652014653,2.40625,5.375,0.0,0.5518925518925519,2.93040293040293,-1.9377289377289375,2.5625,5.625,-0.96875,1.1416361416361416,1.7155067155067154,-1.915750915750916,2.96875,5.5625,-1.15625,0.0,0.0,-2.56043956043956,3.0,5.59375,-0.8125,3.3492063492063493,0.0,-1.9023199023199024,2.75,5.3125,0.0,3.2026862026862033,-1.4273504273504274,-2.105006105006105,2.25,3.75,0.0,0.0,0.0,-1.7875457875457876,1.90625,2.875,-0.6875,1.0708180708180708,0.0,-1.5323565323565325,2.09375,2.9375,-0.53125,1.7313797313797314,-1.3797313797313795,-1.7216117216117215,2.0625,2.15625,-0.625,0.0,0.0,-2.045177045177045,1.84375,1.28125,-0.84375,-0.5763125763125763,0.0,-2.511599511599512,1.75,1.1875,0.0,0.0,0.0,-2.628815628815629,1.46875,1.09375,0.0,0.6068376068376068,0.0,-1.953601953601953,1.46875,0.625,0.0,0.0,0.0,-2.0903540903540905,1.59375,0.0,0.0,0.0,0.0,-2.600732600732601,1.53125,0.0,0.0,0.0,0.0,-2.627594627594628,1.1875,0.0,0.0,0.0,0.5396825396825397,-2.4737484737484743,0.9375,0.0,0.0,-0.9059829059829059,1.0415140415140416,-2.340659340659341,1.03125,0.0,0.0,0.0,0.0,-2.578754578754579,0.875,0.0,0.0,0.0,0.0,-2.388278388278388,0.625,0.0,0.0,-0.6520146520146519,0.0,-2.43956043956044,0.0,0.0,0.0,-0.6080586080586079,0.5518925518925519,-2.126984126984127,0.0,0.0,0.0,0.0,1.05006105006105,-1.6446886446886446,0.0,0.0,0.0,-0.9255189255189256,0.0,-2.5347985347985347,0.0,0.0,0.0,-0.9242979242979243,0.0,-2.3943833943833943,0.0,0.0,0.0,0.0,0.0,-1.6605616605616609,0.0,0.0,0.0,0.0,0.0,-0.6862026862026862,0.0,0.0,0.0,0.0,0.5311355311355311,-0.6678876678876678,0.0,0.0,0.0,0.0,0.0,-1.1489621489621489,0.0,0.0,0.0,,,,,,,,,,,,,,,,,,,,,,,,,,,,,,,,,,,,,,,,,,,moveUp
accX,0.0,-0.5860805860805861,0.0,0.0,0.0,0.0,0.0,-1.175824175824176,-0.9951159951159952,0.0,0.0,0.0,0.0,0.0,-0.9169719169719168,0.0,0.5625,0.0,1.0769230769230769,0.0,-1.4957264957264955,0.0,1.0,0.0,1.352869352869353,-0.6617826617826618,-1.728937728937729,0.0,1.09375,0.0,0.0,0.0,-2.0549450549450547,0.0,1.34375,0.0,0.0,0.0,-2.2625152625152625,0.0,2.03125,0.0,0.0,0.0,-1.868131868131868,0.0,2.5625,0.625,0.0,0.0,-1.9902319902319905,0.625,2.84375,0.71875,0.0,0.0,-1.78021978021978,0.84375,3.4375,0.90625,0.0,0.0,-1.5457875457875458,1.15625,4.03125,1.0625,0.0,0.0,-1.1965811965811963,1.53125,4.6875,1.15625,0.0,-0.7326007326007326,-0.5433455433455433,1.90625,5.1875,1.1875,1.5115995115995116,-0.9316239316239316,-0.5201465201465202,2.125,5.21875,0.84375,1.5787545787545787,-0.5470085470085471,-1.0134310134310134,2.1875,4.84375,0.0,1.8754578754578757,0.0,-2.0903540903540905,2.15625,4.3125,0.0,0.7326007326007326,0.8351648351648352,-2.4688644688644694,2.03125,3.78125,0.0,0.0,2.0659340659340657,-2.2967032967032965,2.21875,4.0,0.0,-0.6385836385836385,2.844932844932845,-2.2222222222222223,2.5625,4.375,0.0,0.0,3.2905982905982905,-2.0207570207570207,2.96875,4.875,0.0,1.0744810744810744,2.1855921855921854,-2.3772893772893773,3.125,4.8125,0.0,-0.967032967032967,3.0024420024420024,-1.9377289377289375,2.9375,4.5,0.0,-1.037851037851038,2.4517704517704515,-1.800976800976801,3.71875,5.84375,0.0,2.590964590964591,1.3748473748473748,-1.6776556776556777,3.71875,5.0625,0.0,1.691086691086691,0.8009768009768009,-2.6971916971916974,3.53125,4.46875,0.0,-0.8498168498168498,2.1514041514041518,-3.0122100122100113,3.875,5.34375,0.0,0.6459096459096461,0.8388278388278388,-2.8046398046398044,4.15625,6.125,0.0,5.231990231990231,-2.1746031746031744,-2.474969474969475,3.375,4.71875,0.0,4.705738705738706,-2.245421245421245,-2.3321123321123323,2.40625,2.6875,-1.15625,0.7008547008547008,-0.5726495726495726,-2.3675213675213675,2.1875,1.84375,-1.1875,-1.1086691086691087,0.0,-2.6935286935286937,2.1875,1.90625,-1.09375,0.0,0.0,-2.627594627594628,1.875,1.53125,-1.0,-0.7557997557997558,0.0,-2.8827838827838828,1.46875,0.84375,-0.875,-1.47985347985348,0.0,-3.067155067155068,1.21875,0.53125,-0.84375,-1.5335775335775337,0.0,-2.9462759462759465,1.15625,0.0,-0.75,-1.6837606837606838,0.5775335775335775,-3.096459096459097,1.125,0.0,0.0,-1.2551892551892552,0.6080586080586079,-3.0293040293040288,1.0,0.625,0.0,0.5763125763125763,0.7765567765567766,-2.584859584859585,0.875,0.0,0.0,0.0,0.8791208791208791,-2.8253968253968256,0.625,0.0,-0.5625,-1.6251526251526252,0.8742368742368742,-3.2600732600732596,0.0,0.0,0.0,-0.9914529914529916,0.8241758241758241,-2.47008547008547,0.0,0.0,0.0,-0.6153846153846154,0.7155067155067155,-1.3614163614163617,0.0,0.0,0.0,0.0,0.0,-0.78998778998779,0.0,0.0,0.0,0.0,0.0,-0.8937728937728938,0.0,0.0,0.0,-0.8461538461538461,0.0,-1.5103785103785103,0.0,0.0,0.0,0.0,0.514041514041514,-1.4236874236874235,0.0,0.0,0.0,0.0,0.7264957264957265,-0.8815628815628815,0.0,0.0,0.0,0.0,0.7374847374847375,-0.9731379731379732,0.0,0.0,0.0,-0.9706959706959708,0.9304029304029304,-1.3894993894993894,0.0,-0.53125,0.0,-1.144078144078144,0.0,-1.4261294261294262,0.0,0.0,0.0,,,,,,,,,,,,,,,,,,,,,,,,,,,,,,,,,,,,,,,,,,,,,,,,,,,,,,,,,,,,,moveUp
accX,0.0,-0.8534798534798534,-0.5079365079365079,0.0,0.0,0.0,0.6593406593406593,-0.7533577533577533,0.0,0.0,0.0,0.0,0.0,0.0,-0.7960927960927959,0.0,0.0,0.0,0.0,-0.5018315018315018,-1.1025641025641026,0.0,0.71875,0.0,0.9279609279609279,0.0,-1.1184371184371185,0.0,1.0,0.0,1.1965811965811963,-0.5592185592185592,-1.3907203907203909,0.0,1.0,0.0,0.7155067155067155,0.0,-1.557997557997558,0.0,1.0625,0.0,0.0,0.0,-1.8778998778998781,0.0,1.5,0.0,0.0,0.0,-1.750915750915751,0.0,2.15625,0.0,0.0,0.0,-1.5665445665445663,0.0,2.625,0.6875,0.0,0.0,-1.3540903540903542,0.6875,2.9375,0.78125,0.0,0.0,-1.4029304029304028,0.90625,3.375,0.90625,0.0,0.0,-1.4175824175824177,1.125,3.84375,0.96875,0.0,0.0,-1.5506715506715507,1.5,4.5625,0.84375,0.0,0.8253968253968254,-1.2527472527472527,1.9375,4.90625,0.75,0.5384615384615384,0.0,-1.617826617826618,2.125,4.96875,0.8125,0.5604395604395604,0.7057387057387058,-1.9181929181929185,2.03125,4.78125,0.65625,0.7521367521367521,1.424908424908425,-1.84004884004884,1.9375,4.5,0.0,0.0,2.5689865689865687,-1.8217338217338217,2.28125,4.59375,0.0,-1.4615384615384617,3.3223443223443225,-1.9511599511599511,2.90625,5.46875,0.8125,0.0,3.1184371184371185,-1.6007326007326008,3.4375,6.1875,0.84375,2.1294261294261294,2.2564102564102564,-1.6202686202686205,3.375,5.65625,0.0,1.586080586080586,2.4822954822954824,-2.199023199023199,3.25,4.875,0.0,1.0866910866910866,1.5335775335775337,-2.887667887667888,3.09375,4.46875,0.0,-0.6336996336996337,2.2295482295482296,-3.1135531135531136,3.34375,4.8125,0.0,0.0,1.7753357753357752,-2.827838827838828,3.53125,5.03125,0.0,2.0244200244200243,0.0,-2.642246642246642,3.34375,4.625,0.0,2.1416361416361416,-0.9267399267399268,-2.556776556776557,2.9375,4.09375,0.0,2.217338217338217,-1.1111111111111112,-1.6556776556776556,2.65625,3.34375,0.0,1.0268620268620268,-0.6776556776556777,-1.0073260073260073,2.78125,3.0,0.0,1.2515262515262515,-1.338217338217338,-0.7692307692307693,2.8125,2.5,-0.75,1.0598290598290598,-1.8937728937728937,-1.1978021978021978,2.40625,1.625,-0.96875,-0.5152625152625152,-1.1404151404151404,-1.746031746031746,2.09375,1.25,-0.8125,0.0,0.0,-2.0097680097680097,2.09375,1.0625,-0.65625,0.0,0.0,-2.706959706959707,1.90625,0.9375,-0.6875,0.0,0.0,-2.9072039072039066,1.65625,0.90625,-0.59375,0.0,0.0,-2.523809523809524,1.5625,0.875,0.0,0.0,0.0,-2.4920634920634916,1.5,0.5625,0.0,0.0,0.0,-2.5213675213675213,1.15625,0.0,-0.5625,0.0,0.0,-2.5177045177045176,1.03125,0.0,0.0,0.0,0.6349206349206349,-2.3553113553113554,0.90625,0.0,0.0,0.0,0.6459096459096461,-2.0378510378510377,0.78125,0.0,0.0,-0.5482295482295483,0.0,-2.1794871794871797,0.71875,0.0,0.0,-1.1355311355311355,0.0,-2.409035409035409,0.53125,0.0,0.0,0.0,0.0,-1.3308913308913308,0.0,0.0,0.0,0.0,0.0,-1.0,0.0,0.0,0.0,-0.6446886446886447,0.0,-1.3614163614163617,0.53125,0.0,0.0,-0.7973137973137974,-0.5054945054945055,-2.409035409035409,0.0,0.0,0.0,-0.9072039072039072,0.0,-2.288156288156288,0.0,0.0,0.0,-1.0561660561660562,0.5201465201465202,-1.9865689865689864,0.0,0.0,0.0,0.0,0.0,-1.21978021978022,0.0,0.0,0.0,0.0,0.0,-1.021978021978022,0.0,0.0,0.0,,,,,,,,,,,,,,,,,,,,,,,,,,,,,,,,,,,,,,,,,,,,,,,,,moveUp
accX,0.0,-0.5628815628815629,-0.7985347985347986,0.0,0.0,0.0,0.6166056166056166,0.0,-1.0757020757020757,0.0,0.0,0.0,0.6935286935286935,-0.6923076923076923,-1.7167277167277166,0.0,0.625,0.0,0.7374847374847375,0.0,-1.42002442002442,0.0,0.96875,0.0,0.6068376068376068,-0.6178266178266179,-1.6214896214896215,0.6875,1.28125,0.0,0.8608058608058609,-1.0598290598290598,-1.9230769230769231,0.0,1.375,0.0,0.5079365079365079,-0.6654456654456654,-2.0305250305250304,0.0,1.59375,0.0,0.0,0.0,-1.752136752136752,0.0,2.0,0.0,0.0,0.0,-1.5518925518925517,0.0,2.46875,0.53125,0.6080586080586079,0.0,-1.706959706959707,0.5625,2.6875,0.59375,0.0,-0.57997557997558,-1.9462759462759465,0.75,2.96875,0.59375,-0.8412698412698413,0.0,-2.092796092796093,1.0625,3.71875,0.71875,-0.6593406593406593,0.0,-1.7814407814407816,1.5,4.34375,0.9375,0.0,0.0,-1.8522588522588523,1.8125,4.6875,0.9375,0.757020757020757,0.0,-2.195360195360196,1.875,4.59375,0.59375,1.020757020757021,0.0,-2.6031746031746037,1.8125,4.46875,0.0,0.5347985347985348,0.9548229548229548,-2.3492063492063493,1.875,4.3125,0.0,0.0,1.967032967032967,-2.039072039072039,2.15625,4.40625,0.0,-1.1245421245421243,2.7191697191697197,-2.1770451770451764,2.40625,4.71875,0.0,-1.1343101343101345,3.741147741147741,-2.063492063492064,2.75,4.96875,0.0,0.0,3.571428571428572,-2.266178266178266,2.90625,5.0625,0.0,-1.2576312576312576,4.27960927960928,-0.6019536019536019,3.25,5.3125,0.0,0.0,3.0805860805860807,-0.811965811965812,3.71875,5.8125,0.0,1.6715506715506716,1.5189255189255189,-0.9902319902319904,3.65625,5.5625,0.0,1.286935286935287,0.6605616605616605,-1.4395604395604396,3.28125,4.8125,0.0,0.0,1.4725274725274726,-1.3174603174603174,3.125,4.5,0.0,0.0,1.1526251526251523,-1.5067155067155067,3.28125,4.40625,0.0,0.5042735042735043,-1.0402930402930404,-1.7191697191697193,3.0625,4.21875,0.0,1.7057387057387057,-0.5384615384615384,-0.8913308913308914,2.625,3.625,0.0,2.413919413919414,0.0,-0.8815628815628815,2.53125,2.46875,-0.59375,0.0,0.0,-2.3003663003662997,2.40625,1.25,-0.875,-1.1501831501831499,0.0,-2.485958485958486,2.1875,1.28125,-0.75,0.0,0.0,-2.266178266178266,2.0625,1.5,0.0,0.7179487179487181,0.0,-2.5995115995116,1.84375,1.15625,-0.53125,0.0,0.7106227106227107,-3.0024420024420024,1.65625,0.75,-0.71875,-0.6068376068376068,0.5775335775335775,-3.0708180708180715,1.5,0.53125,-0.59375,-0.9352869352869352,0.5860805860805861,-3.0012210012210017,1.25,0.59375,0.0,0.0,1.1514041514041513,-2.7460317460317465,1.125,0.6875,0.0,0.0,0.8693528693528694,-2.8131868131868134,1.0625,0.0,0.0,-0.8498168498168498,0.0,-2.8046398046398044,0.75,0.0,-0.53125,-1.9645909645909645,0.0,-2.1868131868131866,0.0,0.0,0.0,0.0,0.0,-1.249084249084249,0.0,0.0,0.0,0.0,0.5494505494505495,-1.238095238095238,0.0,0.0,0.0,-0.5763125763125763,1.006105006105006,-1.8730158730158732,0.0,0.0,0.0,-1.5738705738705738,1.0598290598290598,-2.415140415140415,0.0,0.0,0.0,-1.177045177045177,0.5775335775335775,-2.0695970695970702,0.0,0.0,0.0,0.0,0.0,-0.9267399267399268,0.0,0.0,0.0,0.0,0.5628815628815629,0.0,0.0,0.0,0.0,0.0,0.5531135531135531,-0.9987789987789988,0.0,0.0,0.0,-0.6666666666666666,0.0,-1.5665445665445663,0.0,0.0,0.0,-0.5921855921855922,0.0,-1.6874236874236874,0.0,0.0,0.0,,,,,,,,,,,,,,,,,,,,,,,,,,,,,,,,,,,,,,,,,,,,,,,,,,,,,,,moveUp
accX,0.0,-0.9645909645909646,0.0,0.0,0.0,0.0,0.6068376068376068,-0.5555555555555556,0.0,0.0,0.0,0.0,0.5335775335775336,-0.9914529914529916,-0.5054945054945055,0.0,0.0,0.0,0.0,-0.5091575091575091,-1.1904761904761905,0.0,0.0,0.0,0.6446886446886447,-0.6129426129426129,-1.815628815628816,0.0,0.71875,0.0,0.9096459096459096,0.0,-1.7631257631257633,0.0,1.0,0.0,1.3614163614163617,-0.5445665445665445,-1.8253968253968251,0.0,1.15625,0.0,1.6275946275946276,-0.5347985347985348,-1.8376068376068373,0.0,1.3125,0.0,1.6703296703296704,-1.2405372405372406,-2.1819291819291817,0.0,1.3125,0.0,0.0,0.0,-2.388278388278388,0.0,1.6875,0.0,-0.557997557997558,0.0,-2.343101343101343,0.90625,2.625,0.65625,0.0,0.0,-2.2722832722832718,1.53125,3.5625,1.09375,1.3235653235653235,-1.2148962148962148,-2.5702075702075704,1.75,3.9375,1.0625,1.6923076923076923,-1.155067155067155,-2.649572649572649,1.46875,3.6875,0.59375,0.6605616605616605,0.0,-2.2844932844932844,1.28125,3.46875,0.0,-0.5873015873015873,0.5995115995115995,-1.6202686202686205,1.40625,3.625,0.0,0.0,0.0,-1.0525030525030523,1.71875,4.0,0.0,-0.525030525030525,0.5213675213675214,-1.05006105006105,1.96875,4.09375,0.0,0.0,1.4542124542124542,-1.0073260073260073,2.28125,4.375,0.0,0.8266178266178266,1.5091575091575091,-1.8266178266178263,2.46875,4.21875,-0.625,-0.5909645909645911,2.8339438339438336,-2.3321123321123323,2.15625,3.5625,-0.65625,-1.6385836385836383,3.7008547008547015,-2.409035409035409,2.1875,3.65625,-0.625,-2.2332112332112333,4.851037851037852,-1.9914529914529917,2.46875,4.21875,0.0,-1.3357753357753357,4.74969474969475,-1.4676434676434675,3.03125,4.90625,0.0,0.536019536019536,2.7387057387057387,-1.5299145299145298,3.40625,5.25,0.0,4.677655677655678,0.0,-1.6837606837606838,2.375,3.46875,-1.3125,2.092796092796093,1.3943833943833943,-1.8058608058608057,1.90625,2.3125,-2.15625,-3.102564102564102,4.942612942612944,-1.9230769230769231,2.65625,3.34375,-1.71875,-3.533577533577533,3.7374847374847375,-2.2820512820512815,3.28125,4.96875,-0.53125,0.0,2.4822954822954824,-1.4884004884004884,3.46875,5.25,0.0,2.1562881562881557,0.9096459096459096,-1.4664224664224663,3.1875,4.21875,0.0,0.0,0.0,-2.511599511599512,2.8125,3.59375,-0.71875,-0.5518925518925519,0.9706959706959708,-2.6166056166056166,2.625,3.46875,-0.71875,0.0,0.5934065934065934,-2.2808302808302807,2.4375,3.0625,-0.53125,0.0,0.0,-2.083028083028083,2.09375,2.34375,-0.5625,0.0,0.0,-2.230769230769231,1.78125,1.71875,-0.875,-1.0476190476190477,0.0,-2.283272283272283,1.65625,1.40625,-0.8125,-0.9401709401709402,0.0,-2.3443223443223444,1.4375,1.21875,0.0,0.0,0.0,-2.318681318681319,1.125,0.90625,0.0,-0.6971916971916972,0.0,-1.9328449328449329,1.0,0.8125,0.0,0.0,0.0,-1.6092796092796091,0.9375,0.5625,0.0,-1.1355311355311355,0.0,-2.2600732600732596,0.8125,0.59375,0.0,0.0,0.0,-1.9743589743589745,0.6875,0.0,0.0,0.0,0.0,-1.6312576312576312,0.53125,0.0,0.0,-1.26007326007326,1.1306471306471306,-1.868131868131868,0.5625,0.0,0.0,-1.7814407814407816,0.0,-2.8253968253968256,0.0,0.0,0.0,-0.6617826617826618,0.0,-2.1074481074481075,0.0,0.0,0.0,0.0,0.0,-0.9816849816849816,0.0,0.0,0.0,-0.7521367521367521,1.4212454212454213,-0.7741147741147741,0.0,0.0,0.0,-1.0586080586080586,1.2820512820512822,-1.4090354090354091,0.0,0.0,0.0,,,,,,,,,,,,,,,,,,,,,,,,,,,,,,,,,,,,,,,,,,,,,,,,,,,,,,,,,,,,,moveUp
accX,0.0,0.0,0.0,0.0,0.0,0.0,0.0,-0.503052503052503,0.0,0.0,0.0,0.0,0.0,0.0,-0.8290598290598291,0.0,0.0,0.0,0.0,0.0,-1.1306471306471306,0.0,0.6875,0.0,0.0,0.0,-1.3748473748473748,0.0,1.15625,0.0,0.0,-0.5201465201465202,-1.5531135531135531,0.0,1.84375,0.625,0.0,-0.5848595848595849,-1.5494505494505495,0.59375,2.40625,0.875,0.0,0.0,-1.5189255189255189,0.78125,2.9375,1.0625,0.0,0.0,-1.4273504273504274,1.0625,3.59375,1.21875,0.0,0.0,-1.277167277167277,1.78125,4.4375,1.15625,0.0,0.0,-1.326007326007326,2.28125,5.375,0.84375,1.4297924297924298,-0.7228327228327228,-1.2454212454212454,2.375,5.375,0.0,1.205128205128205,-0.7704517704517705,-1.5335775335775337,2.125,4.90625,0.0,0.8498168498168498,0.0,-2.0573870573870567,1.9375,4.625,0.0,0.0,0.8034188034188035,-2.595848595848596,1.8125,4.65625,0.0,0.0,2.435897435897436,-2.31013431013431,2.15625,4.9375,0.0,-0.6813186813186813,3.1684981684981683,-2.0488400488400487,2.84375,5.5,0.65625,0.0,2.554334554334554,-2.294261294261294,3.21875,6.15625,0.59375,1.3418803418803418,2.361416361416361,-2.0793650793650795,3.34375,6.09375,0.0,2.1147741147741153,1.6422466422466422,-2.1184371184371185,3.25,5.4375,0.0,2.1135531135531136,0.9609279609279608,-2.2063492063492065,2.875,4.625,0.0,1.31013431013431,0.8815628815628815,-2.1684981684981683,2.75,4.25,0.0,0.0,1.6153846153846154,-1.7374847374847375,3.0625,4.1875,0.0,0.0,0.9255189255189256,-2.105006105006105,3.375,4.25,0.0,2.145299145299145,0.0,-2.3369963369963367,3.15625,3.59375,0.0,2.421245421245421,-0.7277167277167277,-2.645909645909646,2.71875,2.59375,0.0,0.8864468864468864,0.0,-2.449328449328449,2.4375,2.0625,0.0,0.0,0.0,-2.1575091575091574,2.5,2.40625,0.0,0.8473748473748474,0.0,-1.3907203907203909,2.59375,2.34375,0.0,1.2283272283272284,0.0,-1.684981684981685,2.59375,1.78125,-0.53125,0.0,0.0,-2.6300366300366296,2.4375,1.59375,-0.65625,-1.463980463980464,0.0,-2.8937728937728937,2.1875,2.03125,0.0,0.0,-1.0622710622710625,-1.9218559218559217,1.875,2.03125,0.0,1.5494505494505495,0.0,-0.9010989010989012,2.03125,1.28125,-0.53125,-1.290598290598291,0.514041514041514,-2.7667887667887667,2.0,0.65625,-0.59375,0.0,0.5665445665445665,-2.6959706959706957,1.75,1.0625,0.0,1.290598290598291,0.8717948717948718,-2.455433455433456,1.5625,0.75,0.0,0.0,0.0,-3.1391941391941387,1.375,0.0,0.0,0.0,0.8498168498168498,-2.978021978021978,1.125,0.0,-0.53125,0.0,0.9584859584859584,-2.9023199023199022,0.90625,0.0,0.0,0.0,0.7203907203907204,-2.6166056166056166,0.8125,0.0,0.0,-1.4542124542124542,0.0,-2.673992673992674,0.625,0.0,0.0,-1.927960927960928,0.0,-2.565323565323565,0.0,0.0,0.0,0.0,0.0,-1.6837606837606838,0.0,0.0,0.0,0.0,0.0,-1.434676434676435,0.0,0.0,0.0,-0.9731379731379732,1.021978021978022,-1.7277167277167278,0.0,0.0,0.0,-1.7765567765567765,0.5445665445665445,-2.244200244200244,0.0,0.0,0.0,0.0,0.0,-1.6654456654456655,0.0,0.0,0.0,0.0,0.0,-1.1514041514041513,0.0,0.0,0.0,,,,,,,,,,,,,,,,,,,,,,,,,,,,,,,,,,,,,,,,,,,,,,,,,,,,,,,,,,,,,,,,,,,moveUp
accX,0.0,0.0,0.0,0.625,0.0,0.0,0.0,0.0,0.0,0.75,0.0,0.0,0.0,-0.7912087912087912,-1.0048840048840049,0.0,0.5625,0.0,0.9487179487179488,-0.7924297924297924,-1.1562881562881564,0.0,0.59375,0.0,0.6373626373626373,0.0,-0.8998778998778999,0.0,0.65625,0.0,0.0,0.0,-0.9975579975579976,0.0,1.03125,0.0,0.0,0.0,-1.1538461538461535,0.0,1.46875,0.0,0.0,0.0,-1.3455433455433456,0.5625,2.09375,0.65625,0.0,0.0,-1.3943833943833943,0.65625,2.46875,0.8125,0.0,0.0,-1.3418803418803418,0.78125,2.78125,0.875,0.0,0.0,-1.465201465201465,1.09375,3.25,1.0625,-0.8449328449328449,0.0,-1.661782661782662,1.59375,4.15625,1.3125,0.0,0.0,-1.7985347985347986,2.125,5.15625,1.375,1.2820512820512822,0.0,-1.3467643467643469,2.5625,5.375,0.78125,1.5262515262515262,-0.6910866910866911,-1.8559218559218558,2.59375,5.0625,0.0,0.7851037851037851,-0.9279609279609279,-2.584859584859585,2.03125,4.4375,0.0,-0.5433455433455433,0.9536019536019535,-1.9426129426129424,2.03125,4.625,0.0,-1.1636141636141637,2.289377289377289,-1.094017094017094,2.625,5.1875,0.5625,0.0,2.3968253968253967,-0.9621489621489622,3.15625,5.25,0.0,1.695970695970696,1.4920634920634919,-1.663003663003663,3.15625,4.75,0.0,1.6214896214896215,1.2148962148962148,-2.445665445665446,2.9375,4.28125,-0.53125,0.0,2.2466422466422467,-2.656898656898657,3.03125,4.28125,-0.5625,0.6715506715506715,2.6178266178266183,-1.3455433455433456,3.25,4.46875,-0.53125,0.7863247863247863,2.347985347985348,-1.42002442002442,3.25,4.1875,-0.625,0.8205128205128205,1.6984126984126984,-1.887667887667888,3.1875,3.90625,-0.625,0.0,1.0024420024420024,-1.824175824175824,3.03125,3.59375,-0.625,-1.2722832722832722,2.1184371184371185,-0.9829059829059827,3.09375,3.9375,0.0,0.0,1.3467643467643469,-0.6715506715506715,3.84375,4.625,0.0,3.2735042735042734,-1.8327228327228329,-1.4395604395604396,3.96875,4.5,0.0,3.4261294261294264,-1.7179487179487178,-1.7838827838827842,3.1875,3.1875,-0.59375,0.78998778998779,0.0,-1.8302808302808304,2.75,2.09375,-0.78125,0.0,0.0,-2.2735042735042734,2.75,2.03125,-0.53125,0.7240537240537241,-0.912087912087912,-2.05006105006105,2.5,2.03125,-0.53125,0.9255189255189256,0.0,-1.5592185592185592,2.21875,1.5,-0.65625,-0.5921855921855922,0.0,-1.9145299145299144,2.09375,0.84375,-0.625,-1.0354090354090355,0.0,-2.6166056166056166,1.96875,0.875,-0.65625,0.0,0.0,-2.3064713064713063,1.84375,1.03125,-0.53125,0.0,0.0,-2.025641025641025,1.78125,0.6875,0.0,0.0,0.0,-2.358974358974359,1.6875,0.0,0.0,0.0,0.0,-2.868131868131868,1.5,0.0,0.0,0.0,0.5543345543345544,-2.9902319902319903,1.34375,0.0,0.0,0.0,0.0,-3.495726495726496,1.125,0.0,0.0,-0.8791208791208791,0.0,-3.021978021978022,0.78125,0.0,0.0,-0.6532356532356532,0.0,-2.137973137973138,0.53125,0.0,0.0,0.0,0.0,-1.7435897435897436,0.0,0.0,0.0,-0.6947496947496947,0.0,-1.474969474969475,0.0,0.0,0.0,0.0,0.0,-1.3418803418803418,0.0,0.0,0.0,0.0,0.503052503052503,-1.3687423687423688,0.0,0.0,0.0,-1.0647130647130647,0.0,-1.8522588522588523,0.0,0.0,0.0,0.0,0.0,-1.5030525030525033,0.0,0.0,0.0,0.0,0.0,-1.177045177045177,0.0,0.0,0.0,,,,,,,,,,,,,,,,,,,,,,,,,,,,,,,,,,,,,,,,,,,,,,,,,,,,,,,moveUp
accX,0.0,0.0,0.0,0.0,0.0,0.0,0.0,0.0,0.0,0.0,0.0,0.0,0.0,0.0,-0.7240537240537241,0.5625,0.0,0.0,0.0,0.0,-1.3186813186813189,0.78125,0.6875,0.0,0.0,0.0,-1.7838827838827842,0.9375,1.3125,0.78125,0.5995115995115995,-1.122100122100122,-1.989010989010989,0.9375,2.0,1.0625,1.8302808302808304,-1.47985347985348,-2.1562881562881557,0.6875,2.40625,1.0625,2.126984126984127,-1.3064713064713065,-1.945054945054945,0.0,2.34375,0.65625,0.9230769230769232,-0.5531135531135531,-1.537240537240537,0.0,2.28125,0.0,0.0,0.0,-1.4481074481074483,0.75,2.90625,0.0,0.0,0.0,-1.4664224664224663,1.25,3.59375,0.625,0.0,0.0,-1.7423687423687424,1.75,4.15625,0.78125,0.0,0.0,-1.5897435897435896,2.15625,4.8125,0.71875,1.2893772893772897,0.0,-1.5531135531135531,2.40625,4.90625,0.0,1.1575091575091576,0.0,-1.9926739926739927,2.3125,4.59375,0.0,0.0,0.9731379731379732,-1.68986568986569,2.21875,4.28125,0.0,0.0,1.7142857142857142,-1.4053724053724053,2.5,4.40625,0.0,0.0,1.2258852258852257,-1.746031746031746,2.8125,4.59375,0.0,0.0,2.554334554334554,-1.5909645909645909,2.90625,4.8125,0.0,0.0,2.673992673992674,-1.8852258852258847,3.1875,4.875,0.0,-1.0122100122100122,3.4236874236874235,-1.8559218559218558,3.4375,5.15625,0.0,0.0,2.6923076923076925,-1.724053724053724,3.84375,5.5625,0.0,0.7411477411477412,1.8253968253968251,-1.84004884004884,3.75,5.34375,0.0,0.5006105006105006,1.376068376068376,-1.953601953601953,3.53125,4.9375,0.0,1.0012210012210012,1.1843711843711844,-1.6727716727716728,3.5625,4.6875,0.0,1.0293040293040292,0.0,-2.0146520146520146,3.625,4.34375,0.0,0.0,0.514041514041514,-2.42002442002442,3.5625,4.4375,0.0,2.2344322344322345,0.0,-2.455433455433456,3.34375,4.03125,0.0,4.001221001221002,-0.757020757020757,-2.2051282051282053,2.78125,2.46875,-0.65625,1.442002442002442,-0.9816849816849816,-2.235653235653236,2.3125,1.65625,-0.96875,0.0,0.0,-1.824175824175824,2.28125,1.59375,-0.90625,0.0,0.0,-1.8192918192918195,2.1875,1.5,-0.84375,0.0,0.0,-1.8522588522588523,1.90625,1.375,-0.875,0.0,0.8669108669108669,-1.7081807081807079,1.90625,0.9375,-0.8125,-1.2356532356532357,0.0,-2.5445665445665444,1.6875,0.84375,-0.65625,-0.5873015873015873,0.0,-2.6764346764346763,1.40625,0.6875,-0.59375,0.0,0.0,-2.7667887667887667,1.09375,0.0,0.0,-0.9474969474969476,1.006105006105006,-2.8437118437118434,1.03125,0.0,0.0,0.0,0.0,-2.796092796092796,1.0,0.0,0.0,0.0,0.0,-2.6630036630036633,0.6875,0.0,0.0,0.0,0.0,-2.096459096459097,0.0,0.0,0.0,0.0,0.5616605616605617,-1.4676434676434675,0.0,0.0,0.0,0.0,0.8229548229548229,-1.380952380952381,0.65625,0.0,0.0,0.0,0.0,-2.0354090354090357,0.0,0.0,0.0,-0.9987789987789988,0.0,-2.122100122100122,0.0,0.0,0.0,-0.7631257631257631,0.0,-1.3089133089133091,0.0,0.0,0.0,0.0,0.6507936507936508,-0.7326007326007326,0.0,0.0,0.0,-0.7118437118437119,0.8290598290598291,-0.8278388278388278,0.0,0.0,0.0,0.0,0.0,-1.26007326007326,0.0,0.0,0.0,,,,,,,,,,,,,,,,,,,,,,,,,,,,,,,,,,,,,,,,,,,,,,,,,,,,,,,,,,,,,,,,,,,moveUp
accX,0.0,0.0,0.0,0.0,0.0,0.0,0.0,0.0,0.0,0.71875,0.0,0.0,0.0,0.0,0.0,0.6875,0.0,0.0,0.0,0.0,-0.6068376068376068,0.625,0.0,0.0,0.0,0.0,-1.0476190476190477,0.53125,0.625,0.0,0.0,0.0,-1.0561660561660562,0.0,1.03125,0.0,0.525030525030525,0.0,-0.9145299145299144,0.5625,1.34375,0.625,0.6459096459096461,0.0,-1.3174603174603174,0.6875,1.5625,0.6875,0.5274725274725275,0.0,-1.8937728937728937,0.625,1.84375,0.71875,0.0,0.0,-1.9096459096459095,0.71875,2.28125,0.78125,0.0,0.0,-2.096459096459097,1.0,2.90625,1.0,0.9682539682539684,0.0,-1.752136752136752,1.21875,3.5,1.0625,0.9169719169719168,-0.6886446886446886,-1.6581196581196582,1.34375,3.71875,0.96875,1.1416361416361416,0.0,-1.5543345543345544,1.53125,3.90625,0.0,1.2234432234432235,0.0,-1.5970695970695972,1.78125,3.8125,0.0,0.7362637362637363,-0.8913308913308914,-2.2185592185592187,1.59375,3.53125,0.0,-1.0634920634920637,0.0,-2.214896214896215,1.4375,3.75,0.0,-0.8669108669108669,1.0598290598290598,-1.5738705738705738,1.65625,4.03125,0.0,0.0,1.661782661782662,-1.2185592185592184,2.0,3.96875,0.0,0.0,1.9218559218559217,-1.3357753357753357,2.375,4.0625,0.0,0.0,1.7301587301587302,-1.4761904761904765,2.5625,4.0,0.0,0.0,2.5042735042735043,-1.5103785103785103,2.78125,4.125,0.0,0.0,3.0390720390720385,-1.5714285714285714,3.15625,4.46875,0.0,0.5128205128205128,3.0012210012210017,-1.4664224664224663,3.3125,4.34375,0.0,1.061050061050061,2.105006105006105,-1.8168498168498168,3.125,3.90625,0.0,0.0,2.6923076923076925,-1.9462759462759465,3.125,3.84375,0.0,0.0,3.1855921855921854,-2.103785103785104,3.40625,4.0625,0.0,0.0,2.2185592185592187,-2.2222222222222223,3.5625,4.09375,0.0,0.8253968253968254,1.5103785103785103,-2.358974358974359,3.40625,3.875,0.0,0.5054945054945055,1.2075702075702075,-2.37973137973138,3.3125,3.90625,0.0,0.8742368742368742,0.6507936507936508,-2.1770451770451764,3.25,3.96875,0.0,1.7594627594627594,0.0,-1.678876678876679,3.0,3.625,0.0,1.485958485958486,0.0,-1.5885225885225884,2.75,3.21875,0.0,1.927960927960928,-0.811965811965812,-1.4481074481074483,2.375,2.5,0.0,0.8864468864468864,-0.9279609279609279,-1.0842490842490842,2.0,1.65625,-0.59375,-0.6056166056166056,0.0,-0.6825396825396826,1.90625,1.4375,-0.5625,0.0,0.0,-0.7264957264957265,1.96875,1.1875,-0.53125,0.0,0.0,-1.557997557997558,1.71875,0.53125,-0.65625,-0.989010989010989,0.0,-2.527472527472528,1.4375,0.0,0.0,0.0,0.7118437118437119,-2.7545787545787546,1.3125,0.0,0.0,-1.5921855921855919,0.7741147741147741,-3.137973137973138,1.03125,0.0,0.0,-1.4493284493284493,1.0427350427350428,-2.8192918192918195,0.84375,0.0,0.0,0.0,0.5128205128205128,-2.0976800976800978,0.6875,0.5625,0.0,0.0,0.7032967032967034,-1.6691086691086692,0.5625,0.0,0.0,-0.518925518925519,0.0,-1.9010989010989008,0.53125,0.0,0.0,0.0,0.5067155067155067,-1.927960927960928,0.0,0.0,0.0,0.0,0.78998778998779,-1.7863247863247864,0.0,0.0,0.0,0.0,0.0,-1.343101343101343,0.0,0.0,0.0,0.0,0.503052503052503,0.0,0.0,0.0,0.0,0.0,0.5018315018315018,0.0,0.0,0.0,0.0,0.0,0.0,-0.818070818070818,0.0,0.0,0.0,-0.9267399267399268,0.6178266178266179,-1.123321123321123,0.0,0.0,0.0,-0.5531135531135531,0.5311355311355311,-0.7081807081807082,0.0,0.0,0.0,0.0,0.0,0.0,0.0,0.0,0.0,0.0,0.5323565323565324,0.0,0.0,0.0,0.0,,,,,,,,,,,,,,,,,,,,,,,,,,,,,,,moveUp
accX,0.0,0.0,0.0,0.0,0.0,0.0,0.0,0.0,0.0,0.65625,0.0,0.0,0.0,0.0,0.0,0.59375,0.0,0.0,0.0,0.0,-0.956043956043956,0.59375,0.0,0.0,-0.6459096459096461,0.0,-1.5421245421245422,0.6875,0.9375,0.78125,0.0,0.0,-1.9365079365079363,0.78125,1.625,1.125,0.7936507936507936,-0.9328449328449328,-2.15018315018315,0.625,2.03125,1.125,1.4945054945054943,-0.9829059829059827,-1.8498168498168501,0.53125,2.125,0.96875,1.4786324786324787,-0.5018315018315018,-1.2820512820512822,0.65625,2.09375,0.78125,0.6227106227106227,0.0,-1.1135531135531136,0.96875,2.3125,0.75,0.0,-0.7667887667887668,-1.68986568986569,1.15625,2.90625,0.8125,0.0,0.0,-1.6446886446886446,1.28125,3.375,0.84375,0.0,0.0,-1.8913308913308915,1.53125,3.90625,0.9375,0.0,0.0,-1.6886446886446886,1.875,4.25,0.9375,0.0,0.0,-1.3064713064713065,2.125,4.15625,0.0,0.0,0.0,-1.021978021978022,2.25,4.125,0.0,0.0,0.0,-0.7912087912087912,2.21875,4.0625,0.0,0.0,1.1025641025641026,0.0,2.40625,4.1875,0.0,0.0,1.463980463980464,0.0,2.59375,3.90625,0.0,0.0,1.6886446886446886,-0.8583638583638583,2.71875,3.59375,0.0,0.0,2.236874236874237,-1.0781440781440779,2.875,3.65625,0.0,0.0,2.6581196581196584,-1.144078144078144,3.15625,3.71875,-0.53125,0.0,2.659340659340659,-1.5299145299145298,3.21875,3.59375,0.0,0.514041514041514,2.6581196581196584,-2.0085470085470085,3.1875,3.375,0.0,0.0,2.9816849816849818,-2.371184371184371,3.09375,3.09375,-0.53125,-0.7997557997557998,3.792429792429792,-2.547008547008547,3.15625,3.0625,0.0,-1.4065934065934067,3.2551892551892547,-2.7545787545787546,3.4375,3.53125,0.0,-0.7985347985347986,1.6043956043956045,-2.452991452991453,3.5,4.09375,0.0,0.9511599511599512,0.0,-1.5482295482295485,3.1875,4.28125,0.0,1.9181929181929185,0.0,0.0,2.8125,3.8125,0.0,0.8229548229548229,0.0,0.0,2.65625,3.0625,0.0,0.0,0.0,-0.8815628815628815,2.59375,2.78125,0.0,0.9706959706959708,-0.8522588522588522,-0.7228327228327228,2.125,2.3125,-0.6875,0.0,0.0,0.0,1.71875,1.40625,-0.8125,0.0,0.0,-0.6678876678876678,1.71875,0.96875,-0.53125,0.0,0.0,-1.3418803418803418,1.8125,0.78125,0.0,0.0,0.0,-1.987789987789988,1.78125,0.8125,-0.5625,0.0,0.5091575091575091,-2.211233211233212,1.59375,0.59375,-0.78125,-0.6568986568986569,0.8974358974358975,-2.4224664224664223,1.53125,0.0,-0.6875,0.0,0.0,-2.2869352869352872,1.28125,0.625,0.0,0.9230769230769232,0.0,-1.8327228327228329,0.90625,0.0,0.0,0.0,0.8241758241758241,-1.8925518925518925,0.65625,0.0,0.0,-0.894993894993895,1.7716727716727716,-2.231990231990232,0.8125,0.0,0.0,0.0,0.984126984126984,-2.2283272283272284,0.8125,0.0,0.0,0.0,0.0,-2.266178266178266,0.0,0.0,0.0,-0.7985347985347986,0.6837606837606838,-1.8058608058608057,0.0,0.0,0.0,-1.0073260073260073,0.9474969474969476,-1.5091575091575091,0.0,0.0,0.0,-0.6385836385836385,0.7216117216117216,-1.2991452991452992,0.0,0.0,0.0,0.0,0.5848595848595849,-1.3553113553113554,0.0,0.0,0.0,0.0,0.536019536019536,-1.608058608058608,0.0,0.0,0.0,0.0,0.8815628815628815,-0.8827838827838828,0.0,0.0,0.0,0.0,0.5311355311355311,0.0,0.0,0.0,0.0,0.0,0.0,0.0,0.0,-0.6875,0.0,,,,,,,,,,,,,,,,,,,,,,,,,,,,,,,,,,,,,,,,,,,moveUp
accX,0.0,0.0,0.0,0.0,0.0,0.0,0.0,0.0,0.0,0.6875,0.0,0.53125,0.0,-0.7191697191697192,-1.2283272283272284,0.6875,0.0,0.71875,0.7362637362637363,-0.9621489621489622,-1.8583638583638584,0.0,0.75,0.71875,1.881562881562881,-0.9609279609279608,-1.7692307692307692,0.0,0.9375,0.625,1.7667887667887667,-1.0122100122100122,-1.4920634920634919,0.0,0.90625,0.0,1.2258852258852257,0.0,-1.380952380952381,0.0,1.03125,0.0,0.5506715506715507,-0.6043956043956044,-1.752136752136752,0.0,1.5625,0.0,0.5177045177045178,0.0,-1.7753357753357752,0.53125,2.125,0.0,0.5482295482295483,0.0,-1.8901098901098898,0.84375,2.5625,0.625,0.8485958485958486,-0.993894993894994,-2.0195360195360195,1.0,2.75,0.6875,0.6727716727716728,-1.1306471306471306,-1.9987789987789988,0.9375,2.8125,0.53125,0.0,0.0,-1.6825396825396826,1.0,3.0,0.0,0.0,0.0,-1.2808302808302807,1.28125,3.40625,0.0,0.0,0.0,-0.9792429792429792,1.6875,3.65625,0.0,0.0,0.5103785103785103,-1.2612942612942613,2.0625,3.78125,0.0,0.0,0.0,-1.5262515262515262,2.1875,3.78125,0.0,0.0,0.9877899877899878,-1.3833943833943834,2.125,3.59375,0.0,-0.6141636141636142,1.1904761904761905,-1.3785103785103785,2.1875,3.5625,0.0,0.0,1.7118437118437118,-1.1343101343101345,2.46875,3.71875,0.0,0.0,2.1587301587301586,-0.8339438339438342,2.84375,3.75,0.0,-0.6202686202686203,2.6483516483516483,-0.8363858363858364,3.0625,3.8125,0.0,-0.6043956043956044,2.687423687423687,-0.8229548229548229,3.3125,3.96875,0.0,-0.5067155067155067,2.67032967032967,0.0,3.71875,4.25,0.0,0.0,2.485958485958486,0.0,4.09375,4.3125,0.0,0.0,1.8644688644688645,-0.8620268620268621,4.375,4.46875,0.5625,1.6117216117216118,0.8595848595848596,-1.4322344322344325,4.34375,4.03125,0.59375,2.515262515262515,0.0,-2.045177045177045,3.96875,3.0625,0.0,1.5177045177045176,0.0,-2.3870573870573866,3.625,2.53125,0.0,1.5006105006105006,0.0,-2.7020757020757022,3.21875,2.15625,0.0,1.0488400488400489,0.0,-2.6654456654456653,3.0,1.9375,0.0,1.3235653235653235,0.0,-2.6764346764346763,2.71875,1.625,0.0,0.5738705738705738,0.6227106227106227,-2.758241758241758,2.28125,1.15625,0.0,0.0,0.0,-3.051282051282051,1.96875,1.25,-0.59375,0.5067155067155067,0.757020757020757,-2.404151404151404,1.84375,1.09375,-0.8125,0.0,0.0,-1.967032967032967,1.84375,1.0625,-0.9375,0.0,-1.1819291819291822,-2.0989010989010994,1.375,0.625,-0.625,0.0,1.126984126984127,-1.4236874236874235,1.15625,0.0,-0.625,-0.5787545787545788,1.623931623931624,-1.9633699633699635,1.28125,0.0,-0.5625,-0.9865689865689866,1.463980463980464,-2.4481074481074483,1.1875,0.0,0.0,-1.3711843711843712,1.1514041514041513,-2.619047619047619,0.96875,0.0,0.0,-1.3052503052503053,1.2075702075702075,-2.4017094017094016,0.75,0.0,0.0,-1.2393162393162394,0.8241758241758241,-1.6385836385836383,0.6875,0.0,0.0,0.0,0.6227106227106227,-1.0537240537240538,0.625,0.0,0.0,0.0,1.0048840048840049,-1.7863247863247864,0.0,-0.59375,0.0,-1.4126984126984128,1.413919413919414,-3.11965811965812,0.0,0.0,0.0,0.0,0.7509157509157509,-2.0476190476190474,0.0,0.0,0.0,-0.5567765567765568,1.0976800976800978,-1.137973137973138,0.0,0.0,0.0,-0.6715506715506715,1.6422466422466422,-0.9682539682539684,0.0,0.0,0.0,,,,,,,,,,,,,,,,,,,,,,,,,,,,,,,,,,,,,,,,,,,,,,,,,,,,,,,,,,,,,,,,,,,moveUp
accX,0.0,0.0,-0.5201465201465202,0.0,0.0,0.0,0.0,0.0,0.0,0.0,0.0,0.0,0.0,0.0,-0.5164835164835165,0.0,0.6875,0.53125,0.0,0.0,-0.9328449328449328,0.59375,1.03125,0.6875,1.271062271062271,-1.0976800976800978,-1.3443223443223444,0.0,1.0,0.0,0.8131868131868132,-0.73992673992674,-1.3308913308913308,0.0,1.0625,0.0,0.0,0.0,-1.4261294261294262,0.0,1.46875,0.0,0.0,0.0,-1.4126984126984128,0.0,1.9375,0.6875,0.0,0.0,-1.8461538461538465,0.84375,2.34375,0.78125,0.0,-0.5384615384615384,-2.2295482295482296,1.0625,2.75,0.8125,0.0,0.0,-2.2564102564102564,1.21875,3.21875,0.96875,-1.0134310134310134,0.5384615384615384,-2.2014652014652016,1.5625,3.96875,1.3125,0.0,0.0,-1.8901098901098898,1.96875,4.65625,1.4375,1.4371184371184371,0.0,-1.6324786324786325,2.15625,4.59375,1.03125,1.938949938949939,-0.9548229548229548,-2.0097680097680097,2.0,3.96875,0.6875,0.0,0.6605616605616605,-1.7081807081807079,2.25,3.84375,0.0,-0.9621489621489622,0.9755799755799756,-1.6422466422466422,2.75,4.34375,0.0,0.0,0.7374847374847375,-1.6581196581196582,2.875,4.46875,0.0,1.0744810744810744,1.3150183150183148,-1.6935286935286935,2.8125,4.0,0.0,0.0,2.0903540903540905,-1.956043956043956,3.0,3.84375,0.0,0.0,2.23931623931624,-2.2026862026862033,3.21875,3.90625,0.0,0.7460317460317459,1.94017094017094,-1.4871794871794872,3.03125,3.375,0.0,0.0,2.3492063492063493,-1.3577533577533578,3.0,3.28125,0.0,0.0,2.354090354090354,-1.1892551892551892,3.25,3.40625,0.0,0.6141636141636142,2.1294261294261294,-1.537240537240537,3.34375,3.125,0.0,0.0,2.523809523809524,-2.0305250305250304,3.09375,2.625,-0.59375,-1.4932844932844933,2.418803418803418,-1.945054945054945,3.0,2.59375,-0.59375,-1.2185592185592184,2.5457875457875456,-1.5103785103785103,3.25,3.0,0.0,0.0,1.387057387057387,-1.5323565323565325,3.3125,3.0,0.0,-1.2026862026862026,2.4163614163614158,-1.8021978021978025,3.09375,2.71875,0.0,-1.2087912087912087,2.0097680097680097,-1.9218559218559217,3.0625,2.78125,0.0,0.6642246642246642,0.0,-2.5677655677655684,2.875,2.53125,0.0,0.5604395604395604,0.0,-2.0805860805860807,2.03125,1.59375,0.0,0.0,1.0525030525030523,-1.9987789987789988,1.75,0.96875,0.0,-0.7313797313797313,1.2173382173382172,-1.9926739926739927,1.65625,0.71875,0.0,0.0,0.8766788766788767,-1.6678876678876684,1.53125,0.71875,0.0,0.0,0.0,-2.0476190476190474,1.40625,0.0,-0.53125,0.0,0.0,-1.6092796092796091,1.15625,0.0,0.0,0.7057387057387058,0.6935286935286935,-1.177045177045177,1.1875,0.0,0.0,0.0,1.2344322344322345,-1.575091575091575,1.15625,0.0,-0.71875,0.0,0.6227106227106227,-2.619047619047619,1.09375,0.0,-0.6875,-0.8840048840048841,1.6752136752136753,-2.3553113553113554,0.5625,0.0,0.0,-0.8339438339438342,1.4945054945054943,-2.343101343101343,0.0,0.0,0.0,-1.462759462759463,1.7582417582417582,-2.15995115995116,0.0,0.0,0.0,-1.5335775335775337,0.873015873015873,-2.2722832722832718,0.0,0.0,0.0,-1.0305250305250304,0.6202686202686203,-2.034188034188034,0.0,0.0,0.0,-1.5384615384615383,1.5323565323565325,-1.4456654456654456,0.0,0.0,0.0,,,,,,,,,,,,,,,,,,,,,,,,,,,,,,,,,,,,,,,,,,,,,,,,,,,,,,,,,,,,,,,,,,,,,,,,,,,,,,,moveUp
accX,0.0,0.0,0.0,0.59375,0.0,0.0,0.0,-0.7594627594627594,-1.5714285714285714,0.625,0.625,0.0,0.8571428571428571,-0.6959706959706959,-2.2002442002442004,0.53125,1.09375,0.625,1.5811965811965811,-0.7472527472527473,-2.183150183150183,0.0,1.34375,0.5625,0.8876678876678876,-0.7191697191697192,-2.2185592185592187,0.0,1.625,0.0,0.6288156288156288,-0.5103785103785103,-1.9377289377289375,0.0,2.09375,0.0,0.5653235653235653,0.0,-1.6068376068376071,0.0,2.4375,0.53125,0.0,0.0,-1.3540903540903542,0.0,2.6875,0.6875,0.0,0.0,-1.4053724053724053,0.90625,2.9375,0.875,0.0,0.0,-1.431013431013431,1.3125,3.3125,1.03125,0.0,0.0,-1.2625152625152625,1.78125,3.96875,1.21875,1.1465201465201464,-0.6886446886446886,-1.3284493284493284,2.0,4.15625,1.03125,1.3724053724053724,0.0,-1.6727716727716728,1.9375,3.71875,0.6875,1.0842490842490842,0.0,-2.0012210012210008,1.90625,3.34375,0.0,0.0,1.0048840048840049,-1.9768009768009769,2.03125,3.3125,0.0,0.0,1.2002442002442002,-1.8119658119658117,2.5,3.78125,0.0,0.6666666666666666,0.8791208791208791,-2.061050061050061,2.78125,4.03125,0.0,0.0,1.4322344322344325,-1.8669108669108667,2.75,3.875,0.0,0.0,1.5177045177045176,-1.6862026862026862,2.96875,4.15625,0.0,0.0,2.518925518925519,-1.061050061050061,3.46875,4.75,0.0,1.0036630036630036,2.1062271062271063,-0.8315018315018315,4.25,5.125,0.0,2.8608058608058613,1.2832722832722834,-1.7203907203907205,4.0625,4.0,0.0,1.962148962148962,1.1514041514041513,-3.2612942612942613,3.375,2.53125,-0.9375,-0.7936507936507936,2.1147741147741153,-3.920634920634921,2.84375,2.0625,-0.9375,-2.9365079365079363,3.4224664224664223,-3.753357753357753,3.09375,2.84375,0.0,-0.6556776556776557,1.746031746031746,-3.189255189255189,3.125,3.03125,0.0,1.0525030525030523,0.0,-2.435897435897436,2.84375,2.375,0.0,0.0,1.0879120879120878,-2.4444444444444446,2.6875,2.03125,-0.59375,-1.575091575091575,1.7472527472527473,-2.652014652014652,2.59375,2.03125,0.0,-1.037851037851038,0.8095238095238095,-2.687423687423687,2.125,1.71875,0.0,-1.3137973137973138,0.0,-1.9926739926739927,1.75,1.46875,0.0,-0.8974358974358975,1.0293040293040292,-1.242979242979243,1.90625,1.375,0.0,-0.7643467643467643,0.7594627594627594,-1.4261294261294262,1.90625,1.25,0.0,-0.6642246642246642,0.5494505494505495,-1.6532356532356531,1.59375,1.125,0.0,-0.6385836385836385,0.7533577533577533,-2.0476190476190474,1.1875,0.78125,0.0,-0.9621489621489622,1.1868131868131868,-1.8559218559218558,1.03125,0.65625,0.0,0.0,1.5213675213675213,-1.338217338217338,1.1875,0.0,0.0,0.0,1.072039072039072,-1.7643467643467643,1.15625,0.0,0.0,0.7692307692307693,0.8864468864468864,-2.2051282051282053,0.84375,0.0,0.0,-0.5567765567765568,1.42002442002442,-2.4029304029304033,0.5625,0.0,0.0,-1.010989010989011,1.0366300366300367,-1.7875457875457876,0.5625,0.0,0.0,0.0,0.7826617826617827,-0.8522588522588522,0.59375,0.0,0.0,0.0,0.7252747252747253,-1.0256410256410255,0.53125,0.0,0.0,-0.6642246642246642,1.1965811965811963,-1.557997557997558,0.0,0.0,0.0,-0.7667887667887668,1.2625152625152625,-1.8327228327228329,0.0,0.0,0.0,0.0,1.21001221001221,-1.0976800976800978,0.0,0.0,0.0,,,,,,,,,,,,,,,,,,,,,,,,,,,,,,,,,,,,,,,,,,,,,,,,,,,,,,,,,,,,,,,,,,,,,,,,,,,,,,,,,,,,,moveUp
accX,0.0,0.0,0.0,0.0,0.53125,0.0,0.0,0.0,-1.0256410256410255,0.9375,0.84375,0.78125,0.0,-1.0903540903540905,-2.045177045177045,0.8125,1.6875,0.9375,1.2637362637362637,-0.8815628815628815,-1.7716727716727716,0.6875,1.71875,0.65625,0.7509157509157509,-0.7045177045177046,-1.4603174603174602,0.59375,1.59375,0.0,0.0,0.0,-1.3052503052503053,0.71875,1.875,0.0,0.0,-0.6117216117216118,-1.3858363858363858,0.78125,2.1875,0.65625,0.0,-0.8669108669108669,-1.5164835164835164,0.71875,2.46875,0.59375,0.0,-0.8815628815628815,-1.7264957264957266,0.71875,2.65625,0.0,0.0,0.0,-1.442002442002442,0.90625,2.65625,0.0,-0.6703296703296703,0.0,-1.4737484737484738,1.25,2.90625,0.0,-0.7655677655677655,0.0,-1.6312576312576312,1.4375,3.25,0.5625,0.0,0.0,-1.6214896214896215,1.5625,3.46875,0.0,0.8473748473748474,0.0,-1.5775335775335777,1.6875,3.1875,0.0,0.0,0.6471306471306472,-1.7826617826617828,1.875,3.1875,0.0,-0.8253968253968254,0.9010989010989012,-1.7887667887667889,2.25,3.59375,0.0,0.0,0.0,-1.7716727716727716,2.40625,3.875,0.0,0.0,0.7289377289377289,-1.4371184371184371,2.46875,3.875,0.0,0.0,1.8021978021978025,-0.8901098901098901,2.96875,3.96875,0.0,0.0,1.3943833943833943,-0.6617826617826618,3.3125,3.96875,0.0,0.0,1.1587301587301588,-0.7838827838827839,3.4375,3.84375,0.0,0.0,0.8241758241758241,-1.290598290598291,3.46875,3.84375,0.0,0.8681318681318682,1.5848595848595848,-1.1721611721611722,3.53125,3.5,0.0,0.0,1.8778998778998781,-1.5079365079365081,3.6875,3.25,0.0,0.0,1.3894993894993894,-1.695970695970696,3.78125,3.28125,0.0,0.7619047619047619,1.3272283272283272,-1.8107448107448108,3.71875,3.0,0.0,0.0,1.5409035409035412,-1.9108669108669107,3.59375,2.75,0.0,0.6715506715506715,0.0,-2.189255189255189,3.03125,1.96875,0.0,0.0,1.586080586080586,-1.7301587301587302,2.5625,1.5625,0.0,0.0,1.9291819291819288,-1.5030525030525033,2.65625,1.5,0.0,0.0,0.9474969474969476,-2.101343101343101,2.65625,1.34375,0.0,-0.9047619047619048,0.9487179487179488,-2.1880341880341883,2.125,1.21875,-0.5625,1.175824175824176,1.4468864468864469,-1.7362637362637363,1.90625,1.15625,-0.53125,-0.5604395604395604,1.4761904761904765,-1.9242979242979243,1.71875,0.0,-0.65625,-1.0231990231990231,1.338217338217338,-1.9462759462759465,1.59375,0.5625,-0.6875,0.0,1.3223443223443223,-1.7252747252747254,1.34375,0.0,-0.6875,-1.5677655677655675,1.684981684981685,-1.6947496947496947,1.09375,0.0,-0.5625,-1.0634920634920637,0.894993894993895,-1.1013431013431014,1.03125,0.0,0.0,0.0,1.2234432234432235,-0.6007326007326007,1.0625,0.0,0.0,0.0,1.2319902319902318,-1.6544566544566544,1.09375,0.0,0.0,-0.8876678876678876,1.6996336996336996,-2.435897435897436,0.8125,0.0,0.0,-0.7289377289377289,1.586080586080586,-2.5347985347985347,0.59375,0.0,0.0,-1.4529914529914532,1.4603174603174602,-2.483516483516484,0.0,0.0,0.0,-0.6263736263736264,1.2332112332112333,-1.9023199023199024,0.0,0.0,0.0,-0.5677655677655677,1.006105006105006,-1.4761904761904765,0.0,0.0,0.0,-1.199023199023199,1.3064713064713065,-1.266178266178266,0.0,0.0,0.0,-0.6227106227106227,1.0354090354090355,-1.0549450549450552,0.0,0.0,0.0,-1.0488400488400489,1.1489621489621489,-1.126984126984127,0.0,0.0,0.0,,,,,,,,,,,,,,,,,,,,,,,,,,,,,,,,,,,,,,,,,,,,,,,,,,,,,,,,,,,,,,,,,,,,,,,,,moveUp
accX,0.0,0.0,0.0,0.59375,0.0,0.0,0.0,0.0,-0.7924297924297924,0.71875,0.0,0.0,0.0,-1.0476190476190477,-1.5433455433455434,0.0,0.59375,0.0,0.6324786324786325,0.0,-1.5531135531135531,0.0,1.125,0.0,0.6068376068376068,-0.6800976800976801,-1.6532356532356531,0.0,1.53125,0.5625,0.0,0.0,-1.5604395604395604,0.53125,1.96875,0.71875,0.0,0.0,-1.4835164835164836,0.78125,2.5,0.9375,0.0,0.0,-1.4896214896214897,1.15625,3.09375,1.15625,0.0,0.0,-1.1355311355311355,1.6875,3.75,1.375,-0.78998778998779,0.0,-0.6434676434676435,2.5,4.84375,1.875,0.9377289377289376,-0.9462759462759462,0.0,3.3125,5.78125,1.96875,2.1343101343101343,-2.2234432234432235,-1.155067155067155,3.375,5.5625,1.65625,0.9877899877899878,-0.6080586080586079,-1.4664224664224663,2.9375,5.0,1.375,0.0,0.6923076923076923,-0.989010989010989,3.1875,5.0625,1.09375,0.9230769230769232,0.0,-1.1575091575091576,3.625,5.15625,0.9375,2.1587301587301586,0.0,-1.7423687423687424,3.53125,4.75,0.0,1.4505494505494505,0.0,-1.6544566544566544,3.125,3.6875,0.0,-0.6422466422466423,1.2747252747252746,-1.5177045177045176,3.15625,3.28125,0.0,-0.9218559218559218,1.1733821733821734,-1.663003663003663,3.65625,3.9375,0.0,2.0012210012210008,0.0,-1.5262515262515262,3.96875,4.34375,0.0,3.5811965811965814,-1.105006105006105,-1.879120879120879,3.71875,3.40625,0.0,1.6971916971916972,-1.1672771672771671,-2.318681318681319,3.28125,2.0625,-0.71875,-2.474969474969475,1.26007326007326,-2.4065934065934065,3.3125,1.96875,-0.65625,-0.5470085470085471,0.0,-2.6446886446886446,3.84375,3.1875,0.0,2.5885225885225887,-1.7264957264957266,-2.289377289377289,3.46875,2.71875,0.0,0.6935286935286935,-0.7802197802197802,-2.017094017094017,2.78125,1.34375,-0.8125,-3.5286935286935286,1.21001221001221,-2.347985347985348,2.78125,1.34375,-1.09375,-1.0146520146520146,0.7301587301587301,-2.235653235653236,3.34375,2.5,-0.65625,1.568986568986569,-1.0488400488400489,-2.9438339438339436,2.6875,1.25,-0.71875,-1.3479853479853479,0.0,-3.617826617826618,2.0,0.84375,-0.625,-0.9865689865689866,0.7838827838827839,-3.2881562881562885,1.75,0.78125,0.0,-1.120879120879121,0.0,-2.4017094017094016,1.59375,0.6875,0.0,0.0,0.9645909645909646,-1.7167277167277166,1.6875,0.0,0.0,0.0,0.6324786324786325,-2.7948717948717947,1.375,0.0,0.0,-0.6239316239316239,1.6544566544566544,-3.664224664224663,0.96875,0.0,-0.53125,-1.0012210012210012,1.8974358974358971,-3.84004884004884,0.78125,0.0,0.0,0.0,1.2527472527472527,-3.326007326007326,0.65625,0.0,0.0,0.0,0.8156288156288156,-2.645909645909646,0.0,0.0,0.0,0.0,0.9365079365079364,-1.6263736263736264,0.0,0.0,0.0,0.0,1.1733821733821734,-1.4029304029304028,0.0,0.0,0.0,-1.1782661782661783,1.1123321123321124,-1.6605616605616609,0.0,0.0,0.0,-0.9645909645909646,0.8705738705738706,-1.338217338217338,0.0,0.0,0.0,0.0,0.7289377289377289,-0.6495726495726496,0.0,0.0,0.0,-0.5543345543345544,1.0647130647130647,-0.5128205128205128,0.0,0.0,0.0,-1.0244200244200243,0.8400488400488401,-0.7606837606837606,0.0,0.0,0.0,0.0,0.0,-0.6886446886446886,0.0,0.0,0.0,0.0,0.7167277167277167,-0.5811965811965812,0.0,0.0,0.0,0.0,0.7838827838827839,-0.7655677655677655,0.0,0.0,0.0,0.0,1.2442002442002442,-0.6849816849816851,0.0,0.0,0.0,0.0,0.8681318681318682,0.0,0.0,0.0,0.0,,,,,,,,,,,,,,,,,,,,,,,,,,,,,,,,,,,,,,,,,,,,,,,,,,,,,,,,,,,,,moveUp
accX,0.0,-0.5628815628815629,-0.5445665445665445,0.0,0.0,0.0,0.0,0.0,-0.6764346764346765,0.0,0.0,0.0,0.0,0.0,-1.3137973137973138,0.0,0.0,0.0,1.0463980463980465,-1.0305250305250304,-1.4896214896214897,0.0,0.71875,0.0,0.9584859584859584,-0.8876678876678876,-1.3357753357753357,0.0,0.78125,0.0,0.6849816849816851,-0.6398046398046398,-1.3882783882783882,0.0,0.96875,0.0,0.6788766788766789,0.0,-1.3504273504273503,0.0,1.28125,0.0,0.0,-0.5347985347985348,-1.752136752136752,0.0,1.6875,0.0,1.2210012210012209,-1.0341880341880345,-2.062271062271062,0.0,2.03125,0.0,1.4957264957264955,-1.462759462759463,-1.9975579975579976,0.0,1.84375,0.0,0.0,-0.7484737484737485,-1.5958485958485962,0.0,1.78125,0.0,-1.3174603174603174,0.0,-1.1868131868131868,0.625,2.8125,0.0,-0.6434676434676435,0.0,-0.8840048840048841,1.1875,3.40625,0.0,0.8095238095238095,-0.7765567765567766,-1.0976800976800978,1.34375,3.34375,0.0,0.0,0.0,-1.4578754578754578,1.3125,3.1875,0.0,0.0,0.0,-1.4676434676434675,1.53125,3.40625,0.0,0.0,0.8901098901098901,-1.4126984126984128,2.03125,3.6875,0.0,0.0,0.0,-1.9206349206349207,2.5625,4.125,0.0,1.968253968253968,-0.8205128205128205,-2.5042735042735043,2.4375,3.9375,0.0,0.8388278388278388,0.0,-2.645909645909646,2.0,3.34375,0.0,-2.267399267399268,3.412698412698413,-1.879120879120879,2.59375,4.125,0.0,-2.709401709401709,4.2393162393162385,-1.5946275946275947,3.53125,5.3125,0.59375,0.0,2.8363858363858365,-1.3614163614163617,3.8125,5.4375,0.59375,1.9035409035409037,2.2332112332112333,-2.0244200244200243,3.5,4.65625,0.0,0.5506715506715507,3.235653235653236,-2.4542124542124544,3.25,3.875,-0.625,-0.8681318681318682,3.4786324786324787,-3.1526251526251525,3.1875,3.84375,-0.53125,0.0,2.694749694749695,-3.1855921855921854,2.9375,3.625,0.0,1.2283272283272284,1.6385836385836383,-3.15995115995116,2.25,2.96875,-0.6875,0.5763125763125763,2.7484737484737485,-2.3821733821733817,1.84375,2.25,-0.90625,-1.7118437118437118,3.3675213675213675,-1.9768009768009769,2.0625,2.5,-0.6875,-2.0268620268620268,2.3162393162393164,-1.9352869352869355,2.3125,3.21875,0.0,0.7802197802197802,1.277167277167277,-1.6227106227106227,1.96875,2.6875,0.0,0.8485958485958486,1.199023199023199,-1.3052503052503053,1.40625,1.3125,-0.625,-2.4932844932844933,2.4004884004884004,-1.5836385836385836,1.4375,1.25,-0.59375,-3.1465201465201464,1.9511599511599511,-1.945054945054945,1.5625,1.96875,0.0,-1.3956043956043955,1.1746031746031746,-0.6080586080586079,1.625,2.09375,0.0,-0.5091575091575091,0.9706959706959708,-1.1843711843711844,1.5625,1.40625,0.0,-0.8693528693528694,1.1746031746031746,-1.3418803418803418,1.375,1.21875,0.0,0.0,0.9242979242979243,-1.1416361416361416,1.34375,1.21875,0.0,-0.6837606837606838,1.0964590964590966,-1.2222222222222223,1.21875,0.96875,0.0,0.6923076923076923,0.78998778998779,-1.2527472527472527,1.34375,1.0625,0.0,1.4700854700854702,0.0,-1.5494505494505495,1.125,0.0,0.0,0.0,0.568986568986569,-1.5006105006105006,0.84375,0.0,0.0,0.0,0.0,-1.266178266178266,0.78125,0.0,0.0,0.0,0.7326007326007326,-1.0451770451770452,0.71875,0.0,0.0,0.0,0.9487179487179488,-1.0622710622710625,0.71875,0.0,0.0,0.0,0.0,-1.1086691086691087,0.625,0.0,0.0,0.5543345543345544,0.0,-1.010989010989011,0.0,0.0,0.0,-1.3015873015873016,1.338217338217338,-1.2417582417582418,0.0,0.0,0.0,-0.9987789987789988,1.2454212454212454,-1.1697191697191698,0.0,0.0,0.0,0.0,0.0,-1.2161172161172158,0.0,0.0,0.0,0.0,0.5506715506715507,-1.0976800976800978,0.0,0.0,0.0,-0.557997557997558,1.164835164835165,-0.8290598290598291,0.0,0.0,0.0,0.0,1.2832722832722834,-0.8925518925518926,0.0,0.0,0.0,-0.7032967032967034,0.7826617826617827,-0.8681318681318682,0.0,0.0,0.0,,,,,,,,,,,,,,,,,,,,,,,,,,,,,,,moveUp
accX,0.0,0.0,0.0,0.59375,0.0,0.0,0.0,0.0,0.0,0.84375,0.0,0.0,0.0,0.0,0.0,0.96875,0.53125,0.625,0.0,0.0,-0.8376068376068376,1.03125,0.96875,0.84375,0.0,-0.8998778998778999,-1.6385836385836383,0.6875,1.28125,0.84375,1.006105006105006,-0.8522588522588522,-1.9474969474969477,0.0,1.46875,0.71875,0.971916971916972,0.0,-1.8144078144078144,0.0,1.625,0.6875,0.757020757020757,0.0,-1.465201465201465,0.0,1.84375,0.65625,0.7533577533577533,0.0,-1.442002442002442,0.59375,2.03125,0.625,0.7301587301587301,-0.6166056166056166,-1.5738705738705738,0.84375,2.28125,0.5625,0.0,-0.5372405372405372,-1.7545787545787546,1.15625,2.75,0.59375,0.9523809523809524,-1.017094017094017,-1.5628815628815629,1.28125,3.0,0.5625,1.3479853479853479,-0.8595848595848596,-1.4615384615384617,1.25,2.9375,0.0,0.9645909645909646,0.0,-1.2539682539682542,1.28125,2.75,0.0,0.0,0.0,-1.2161172161172158,1.59375,2.875,0.0,0.0,0.0,-1.2844932844932846,1.9375,3.25,0.0,0.0,0.5775335775335775,-1.2002442002442002,2.28125,3.625,0.0,0.0,0.7606837606837606,-1.2417582417582418,2.5625,3.875,0.0,0.0,1.3296703296703296,-1.286935286935287,2.75,3.875,0.0,0.503052503052503,1.733821733821734,-1.249084249084249,3.0,3.96875,0.0,0.0,2.5702075702075704,-1.021978021978022,3.28125,3.875,0.0,-1.641025641025641,3.5042735042735043,-1.0366300366300367,3.8125,4.25,0.0,0.0,2.351648351648352,-1.2967032967032968,4.3125,4.84375,0.59375,1.3223443223443223,1.2686202686202686,-1.3479853479853479,4.375,4.78125,0.53125,1.7936507936507935,0.8388278388278388,-1.2820512820512822,4.21875,4.21875,0.0,0.0,1.5946275946275947,-1.3479853479853479,4.21875,3.6875,0.0,0.0,-0.7142857142857143,-1.843711843711844,4.21875,3.6875,0.0,0.6886446886446886,0.0,-1.1465201465201464,3.78125,3.25,0.0,2.2625152625152625,-1.5848595848595848,-1.0525030525030523,3.28125,2.5,0.0,0.9450549450549449,0.0,-1.1123321123321124,2.65625,1.28125,-0.625,0.0,0.0,-1.4505494505494505,2.5625,0.875,-0.875,0.0,0.0,-1.678876678876679,2.46875,0.78125,-0.78125,0.0,0.0,-2.2771672771672766,2.25,0.0,-0.71875,-0.5177045177045178,0.0,-2.6434676434676434,1.90625,0.0,-0.6875,0.0,0.0,-2.3345543345543347,1.4375,0.0,-0.8125,-1.0683760683760684,0.6031746031746031,-1.7631257631257633,1.53125,0.0,-1.0625,0.0,-1.1746031746031746,-1.6678876678876684,1.34375,0.71875,-1.25,1.2002442002442002,-0.7509157509157509,-1.84004884004884,0.84375,0.0,-1.875,0.0,1.8388278388278387,-2.52014652014652,0.9375,0.0,-1.59375,-0.8461538461538461,1.6813186813186811,-3.2466422466422467,1.0,0.625,-1.03125,0.0,1.6825396825396826,-3.2759462759462763,0.75,0.0,-0.8125,0.0,1.5726495726495726,-3.1526251526251525,0.0,0.0,-0.84375,-1.9255189255189256,1.8388278388278387,-2.9316239316239314,0.0,0.0,-0.625,-1.5115995115995116,1.5091575091575091,-2.586080586080586,0.0,0.0,0.0,-1.2515262515262515,1.2783882783882785,-2.4004884004884004,0.0,0.0,0.0,-1.3150183150183148,0.9877899877899878,-2.3272283272283274,0.0,0.0,0.0,-1.122100122100122,1.144078144078144,-1.948717948717949,0.0,0.0,0.0,-1.3076923076923077,1.0341880341880345,-1.3736263736263736,0.0,0.0,0.0,-0.7557997557997558,0.0,-0.894993894993895,0.0,0.0,0.0,0.0,0.0,0.0,0.0,0.0,0.0,0.7008547008547008,0.0,-0.5726495726495726,0.0,0.0,0.0,0.0,0.6825396825396826,-0.7252747252747253,0.0,0.0,0.0,0.0,0.7155067155067155,0.0,0.0,0.0,0.0,0.6410256410256411,0.0,0.0,0.0,0.0,0.0,,,,,,,,,,,,,,,,,,,,,,,,,,,,,,,,,,,,,moveUp
accX,0.0,0.0,0.0,0.0,0.0,0.0,0.0,0.0,0.0,0.0,0.0,0.0,0.0,0.0,0.0,0.0,0.0,0.0,0.0,0.0,-0.7326007326007326,0.0,0.0,0.0,0.0,-0.6019536019536019,-1.3492063492063493,0.0,0.59375,0.0,0.0,-0.5238095238095238,-1.7728937728937728,0.0,1.0625,0.0,0.0,0.0,-1.5848595848595848,0.0,1.5,0.59375,0.6825396825396826,0.0,-1.5873015873015872,0.0,1.65625,0.625,0.7338217338217338,0.0,-1.6984126984126984,0.0,1.78125,0.53125,0.0,0.0,-1.9951159951159951,0.625,2.1875,0.625,0.0,0.0,-2.131868131868132,0.875,2.59375,0.75,0.6910866910866911,-0.6434676434676435,-2.253968253968254,1.1875,2.9375,0.75,0.5091575091575091,-0.6275946275946276,-2.4517704517704515,1.53125,3.5,0.71875,0.0,-0.5067155067155067,-2.4346764346764345,1.875,4.0625,0.625,1.2808302808302807,-0.9255189255189256,-2.3650793650793656,1.9375,3.9375,0.0,0.0,0.0,-2.0854700854700856,1.9375,3.75,0.0,0.0,0.5225885225885226,-1.9230769230769231,2.09375,3.75,0.0,0.0,1.1514041514041513,-1.9206349206349207,2.34375,3.875,0.0,0.0,1.84004884004884,-1.724053724053724,2.75,4.1875,0.0,0.0,1.8412698412698407,-1.7179487179487178,3.0625,4.40625,0.0,0.0,2.3321123321123323,-1.5384615384615383,3.375,4.59375,0.0,0.0,2.6324786324786325,-1.4774114774114775,3.71875,4.8125,0.0,0.0,2.5885225885225887,-1.3064713064713065,4.09375,4.84375,0.0,0.0,2.242979242979243,-1.4456654456654456,4.4375,4.9375,0.0,0.5873015873015873,1.387057387057387,-1.695970695970696,4.5625,4.84375,0.0,1.5885225885225884,0.0,-1.8144078144078144,4.1875,3.96875,0.0,1.6935286935286935,0.0,-1.9181929181929185,3.65625,2.78125,-0.625,0.0,1.387057387057387,-2.52991452991453,3.59375,2.1875,-0.9375,-1.8339438339438336,0.7350427350427351,-3.101343101343101,3.4375,2.5625,0.0,1.2405372405372406,0.6312576312576312,-1.691086691086691,2.90625,1.78125,0.0,-0.5286935286935287,1.017094017094017,-2.072039072039072,2.5,0.84375,-0.65625,-1.6019536019536018,1.623931623931624,-2.6324786324786325,2.40625,0.8125,-0.625,-0.8595848595848596,0.8876678876678876,-3.065934065934066,2.34375,0.96875,-0.59375,-0.8888888888888888,0.0,-2.89010989010989,1.8125,0.75,0.0,-0.9206349206349206,0.5909645909645911,-2.017094017094017,1.375,0.65625,0.0,0.0,1.3272283272283272,-1.6996336996336996,1.3125,0.0,0.0,-0.5091575091575091,1.264957264957265,-2.667887667887668,1.28125,0.0,0.0,-1.05006105006105,1.568986568986569,-3.2796092796092795,1.0,0.0,0.0,-1.15995115995116,1.463980463980464,-2.8473748473748475,0.6875,0.0,0.0,-0.9194139194139194,1.0402930402930404,-2.0976800976800978,0.0,0.0,0.0,-1.017094017094017,1.7179487179487178,-1.4090354090354091,0.0,0.0,0.0,-0.9768009768009768,0.6214896214896215,-1.2417582417582418,0.0,0.0,0.0,-0.6007326007326007,1.1062271062271063,-0.8376068376068376,0.0,0.0,0.0,0.0,1.1257631257631258,-1.164835164835165,0.0,0.0,0.0,-0.6874236874236874,1.9523809523809523,-1.4517704517704515,0.0,0.0,0.0,-1.164835164835165,1.565323565323565,-1.5396825396825398,0.0,0.0,0.0,-1.1477411477411477,1.4188034188034189,-1.2087912087912087,0.0,0.0,0.0,-0.7936507936507936,0.7167277167277167,-0.9523809523809524,0.0,0.0,0.0,0.0,0.6593406593406593,0.0,0.0,0.0,0.0,0.0,0.7020757020757019,0.0,0.0,0.0,0.0,,,,,,,,,,,,,,,,,,,,,,,,,,,,,,,,,,,,,,,,,,,,,,,,,,,,,,,,,,,,,moveUp
accX,0.0,0.0,0.0,0.0,0.0,0.0,0.0,-0.7240537240537241,-0.7472527472527473,0.0,0.0,0.0,0.6068376068376068,-0.6715506715506715,-0.6398046398046398,0.0,0.0,0.0,0.7240537240537241,0.0,-1.3394383394383391,0.0,0.0,0.0,0.5372405372405372,-0.6410256410256411,-1.8180708180708183,0.0,0.71875,0.0,0.0,-0.5702075702075702,-2.1465201465201464,0.0,1.09375,0.0,0.0,0.0,-1.984126984126984,0.0,1.46875,0.0,0.8632478632478633,0.0,-1.7252747252747254,0.0,1.8125,0.0,0.9023199023199024,-0.6849816849816851,-2.13064713064713,0.0,2.09375,0.59375,1.3345543345543345,-0.9426129426129426,-2.0085470085470085,0.0,2.4375,0.53125,0.912087912087912,-0.706959706959707,-1.815628815628816,0.53125,2.625,0.0,0.0,-0.6923076923076923,-1.5995115995115996,0.71875,2.78125,0.0,0.0,0.0,-1.1538461538461535,0.90625,2.96875,0.0,0.0,0.0,-1.2832722832722834,1.125,3.03125,0.0,0.0,0.0,-1.4371184371184371,1.28125,3.15625,0.0,-0.7887667887667887,0.8034188034188035,-1.0683760683760684,1.5,3.3125,0.0,-0.7912087912087912,1.1465201465201464,-0.8449328449328449,2.0,3.6875,0.0,0.0,0.8290598290598291,-1.010989010989011,2.25,3.75,0.0,-0.5286935286935287,1.6862026862026862,-0.9902319902319904,2.3125,3.625,0.0,-2.1562881562881557,3.457875457875458,0.0,2.78125,4.0,0.0,-1.706959706959707,2.862026862026862,-0.5054945054945055,3.78125,4.96875,1.0,1.264957264957265,1.2368742368742371,-0.7496947496947497,4.1875,5.3125,1.125,2.9609279609279615,0.0,-1.4786324786324787,3.6875,4.34375,0.0,0.0,2.9438339438339436,-1.8632478632478635,3.1875,3.1875,0.0,-1.9206349206349207,2.595848595848596,-2.7106227106227108,3.4375,3.46875,0.0,0.5824175824175825,1.7301587301587302,-2.649572649572649,3.5,3.8125,0.0,1.1306471306471306,1.8339438339438336,-2.715506715506716,3.1875,3.1875,0.0,0.0,1.8632478632478635,-2.8656898656898657,3.03125,2.75,0.0,-1.1575091575091576,1.1636141636141637,-2.5702075702075704,3.21875,3.34375,0.0,1.617826617826618,0.0,-1.6446886446886446,3.0,2.9375,0.0,2.1526251526251525,-0.5409035409035409,-1.794871794871795,2.4375,1.6875,-0.75,0.0,0.0,-2.4761904761904763,1.84375,1.03125,-0.6875,-1.5299145299145298,1.3504273504273503,-2.4310134310134313,1.75,1.4375,-0.625,0.0,1.4212454212454213,-2.1648351648351647,1.8125,1.4375,-0.625,0.0,1.3724053724053724,-1.9145299145299144,1.875,1.28125,-0.71875,0.0,0.6129426129426129,-2.0891330891330893,1.625,0.9375,-0.75,0.0,0.5897435897435898,-2.1086691086691087,1.09375,0.0,-0.625,-1.137973137973138,1.0989010989010992,-1.3357753357753357,0.9375,0.0,0.0,-0.5115995115995116,1.3479853479853479,-0.8168498168498168,1.09375,0.0,0.0,0.0,0.8717948717948718,-1.321123321123321,1.09375,0.0,0.0,0.0,0.9914529914529916,-1.6166056166056166,0.96875,0.0,0.0,0.0,1.0586080586080586,-1.7277167277167278,0.75,0.0,0.0,-0.7765567765567766,1.514041514041514,-1.7472527472527473,0.625,0.0,0.0,-1.3601953601953602,1.4395604395604396,-1.7496947496947497,0.71875,0.0,0.0,0.0,0.5653235653235653,-1.4517704517704515,0.53125,0.0,0.0,0.0,0.6251526251526252,-1.1538461538461535,0.0,0.0,0.0,0.0,1.2417582417582418,-1.0769230769230769,0.0,0.0,0.0,0.0,2.039072039072039,-1.4590964590964588,0.0,0.0,0.0,-0.7716727716727717,1.3174603174603174,-2.376068376068376,0.0,0.0,0.0,-1.1892551892551892,0.0,-2.2222222222222223,0.0,0.0,0.0,-0.5457875457875457,0.7350427350427351,-0.7374847374847375,0.0,0.0,0.0,0.0,0.7228327228327228,0.0,0.0,0.0,0.0,-0.6605616605616605,0.6715506715506715,-0.6691086691086691,0.0,0.0,0.0,0.0,0.6324786324786325,0.0,0.0,0.0,0.0,0.5238095238095238,0.8095238095238095,0.0,0.0,0.0,0.0,0.0,0.9926739926739928,0.0,0.0,0.0,0.0,,,,,,,,,,,,,,,,,,,,,,,,,moveUp
accX,0.0,0.0,0.0,0.0,0.0,0.0,0.0,0.0,0.0,0.78125,0.53125,0.0,0.0,-0.5311355311355311,-0.8644688644688645,0.84375,0.78125,0.53125,0.5567765567765568,0.0,-1.6691086691086692,0.8125,1.0,0.71875,1.5787545787545787,-1.277167277167277,-2.3162393162393164,0.0,0.875,0.0,1.3174603174603174,-1.266178266178266,-2.294261294261294,0.0,0.90625,0.0,0.6153846153846154,-0.6923076923076923,-1.9511599511599511,0.0,1.15625,0.0,0.0,0.0,-1.9169719169719168,0.0,1.5625,0.0,0.0,-0.6336996336996337,-2.1098901098901104,0.0,1.90625,0.0,0.984126984126984,-1.0964590964590966,-1.9719169719169718,0.0,1.8125,0.0,0.5811965811965812,-0.9597069597069596,-1.641025641025641,0.0,1.75,0.0,-0.9731379731379732,0.0,-1.536019536019536,0.625,2.25,0.0,-1.0818070818070815,0.0,-1.3540903540903542,1.125,2.90625,0.0,0.0,-0.5897435897435898,-1.3357753357753357,1.375,3.21875,0.0,0.0,0.0,-1.4590964590964588,1.53125,3.1875,0.0,0.0,0.0,-1.8131868131868127,1.71875,3.15625,0.0,-0.6947496947496947,0.7374847374847375,-2.0842490842490844,2.09375,3.46875,0.0,-1.115995115995116,1.1489621489621489,-2.23931623931624,2.59375,4.125,0.0,-0.5177045177045178,1.1672771672771671,-2.0415140415140414,2.84375,4.53125,0.0,0.5470085470085471,1.2454212454212454,-1.8021978021978025,2.96875,4.40625,0.0,0.5824175824175825,1.205128205128205,-1.4908424908424909,3.1875,4.21875,0.0,0.0,1.6312576312576312,-1.2942612942612943,3.34375,4.25,0.0,0.0,1.761904761904762,-1.31013431013431,3.4375,4.1875,-0.625,0.6568986568986569,1.927960927960928,-1.4896214896214897,3.3125,3.6875,-0.875,0.0,2.094017094017094,-1.8913308913308915,3.0,2.9375,-1.0,-1.0244200244200243,2.8156288156288163,-1.8778998778998781,3.1875,3.0,-0.90625,0.0,1.7912087912087913,-1.4493284493284493,3.40625,3.34375,-0.65625,1.5824175824175823,1.536019536019536,-1.5873015873015872,2.78125,2.375,-0.875,-1.9462759462759465,3.73015873015873,-1.4175824175824177,2.375,1.34375,-1.21875,-3.131868131868132,3.1623931623931623,-1.586080586080586,2.875,2.0625,-0.75,0.5543345543345544,0.5934065934065934,-1.31990231990232,2.9375,2.625,0.0,1.4041514041514038,1.887667887667888,-1.1404151404151404,2.53125,1.78125,-0.75,-0.7289377289377289,1.735042735042735,-2.2954822954822958,2.40625,1.0625,-0.90625,-1.0195360195360197,1.9719169719169718,-2.7387057387057387,2.125,0.96875,-0.75,-1.2454212454212454,1.6923076923076923,-2.5433455433455427,1.90625,1.0,-0.5625,-0.6593406593406593,1.0256410256410255,-2.103785103785104,1.75,1.0,0.0,0.0,1.3003663003663004,-1.8424908424908424,1.59375,0.84375,-0.625,0.0,1.1013431013431014,-2.5445665445665444,1.4375,0.0,-0.84375,-1.3357753357753357,1.4566544566544566,-3.2039072039072036,0.90625,0.0,-0.59375,-1.6312576312576312,1.968253968253968,-3.5128205128205128,0.59375,0.0,-0.53125,-1.4713064713064714,1.912087912087912,-3.0744810744810747,0.0,0.0,0.0,-1.5836385836385836,1.9133089133089132,-2.2515262515262515,0.0,0.0,0.0,-1.363858363858364,1.249084249084249,-1.943833943833944,0.0,0.0,0.0,-1.9047619047619049,1.352869352869353,-1.424908424908425,0.0,0.0,0.0,-1.0537240537240538,0.8363858363858364,-0.5531135531135531,0.0,0.0,0.0,0.0,0.9267399267399268,0.0,0.0,0.0,0.0,-0.5067155067155067,1.115995115995116,-0.7057387057387058,0.0,0.0,0.0,-0.5238095238095238,0.7228327228327228,-0.7313797313797313,0.0,0.0,0.0,0.0,0.5506715506715507,0.0,0.0,0.0,0.0,0.5396825396825397,0.7020757020757019,0.0,0.0,0.0,0.0,,,,,,,,,,,,,,,,,,,,,,,,,,,,,,,,,,,,,,,,,,,,,,,,,,,,,,,,,,,,,moveUp
accX,0.0,0.0,0.0,0.0,0.0,0.0,0.0,0.0,0.0,0.0,0.0,0.0,0.0,0.0,0.0,0.0,0.0,0.0,0.5641025641025641,0.0,-2.0244200244200243,0.71875,1.0,0.65625,1.5018315018315018,-0.9194139194139194,-2.1123321123321124,0.625,1.46875,0.65625,1.4017094017094016,-1.1428571428571428,-1.7741147741147743,0.0,1.5625,0.53125,0.5457875457875457,-0.5103785103785103,-1.4786324786324787,0.0,1.78125,0.0,0.6788766788766789,0.0,-1.0134310134310134,0.0,2.09375,0.59375,0.7985347985347986,0.0,-1.105006105006105,0.0,2.25,0.65625,0.6837606837606838,0.0,-1.3553113553113554,0.78125,2.375,0.6875,0.7081807081807082,-1.0915750915750917,-1.7753357753357752,1.125,2.65625,0.6875,1.0305250305250304,-1.2527472527472527,-1.5775335775335777,1.25,2.875,0.59375,0.6239316239316239,-0.5396825396825397,-1.1514041514041513,1.3125,2.875,0.0,0.0,0.0,-1.293040293040293,1.625,2.96875,0.0,0.0,0.0,-1.387057387057387,1.9375,3.0625,0.0,0.0,0.0,-1.5738705738705738,2.25,3.28125,0.0,0.0,0.0,-1.7887667887667889,2.375,3.4375,0.0,0.0,0.0,-1.525030525030525,2.5625,3.71875,0.0,0.0,0.6959706959706959,-1.380952380952381,2.875,3.84375,0.0,0.0,1.3455433455433456,-1.2466422466422469,3.25,3.875,0.0,0.0,1.6862026862026862,-1.4456654456654456,3.625,4.0,0.0,1.3223443223443223,1.4456654456654456,-1.8327228327228329,3.59375,3.65625,0.0,0.0,1.871794871794872,-2.028083028083028,3.34375,3.25,0.0,0.6593406593406593,1.8070818070818069,-2.0183150183150182,3.40625,3.34375,-0.53125,1.6153846153846154,1.73992673992674,-1.938949938949939,3.375,3.03125,-0.75,0.0,2.3028083028083026,-2.3492063492063493,3.25,2.46875,-1.0625,-1.5934065934065933,2.7313797313797314,-2.590964590964591,3.1875,2.625,-0.9375,0.0,1.7374847374847375,-1.9902319902319905,3.15625,2.8125,-0.65625,0.0,2.1526251526251525,-1.7387057387057387,3.28125,2.34375,-0.71875,-1.358974358974359,2.0903540903540905,-2.1965811965811968,3.375,2.4375,-0.75,-0.5409035409035409,1.5543345543345544,-2.6959706959706957,3.03125,2.28125,-0.875,-0.9145299145299144,1.656898656898657,-2.8766788766788767,2.625,1.84375,-0.875,-1.984126984126984,1.637362637362637,-2.816849816849817,2.21875,1.6875,-0.59375,-1.5921855921855919,1.5274725274725274,-2.2551892551892547,2.03125,1.75,0.0,0.0,0.8424908424908425,-1.7081807081807079,1.8125,1.34375,-0.59375,0.0,1.103785103785104,-1.8058608058608057,1.59375,0.9375,-0.75,-0.6410256410256411,1.0952380952380951,-2.230769230769231,1.25,0.0,-0.5625,-1.2124542124542124,1.297924297924298,-2.1746031746031744,0.9375,0.0,0.0,-1.1367521367521367,1.2832722832722834,-1.9023199023199024,0.8125,0.0,0.0,-1.0805860805860803,1.1404151404151404,-1.691086691086691,0.8125,0.0,0.0,-0.6727716727716728,0.971916971916972,-1.5286935286935286,0.875,0.0,0.0,0.0,0.57997557997558,-1.6752136752136753,0.625,0.0,0.0,0.0,0.9035409035409036,-1.5421245421245422,0.0,0.0,0.0,-0.8974358974358975,0.7973137973137974,-1.8107448107448108,0.0,0.0,0.0,-0.6752136752136753,0.8266178266178266,-1.663003663003663,0.0,0.0,0.0,-0.5885225885225885,0.9706959706959708,-1.525030525030525,0.0,0.0,0.0,0.0,1.195360195360195,-1.1623931623931625,0.0,0.0,0.0,-1.1416361416361416,1.051282051282051,-0.8705738705738706,0.0,0.0,0.0,-0.9438339438339438,0.8009768009768009,-0.5286935286935287,0.0,0.0,0.0,0.0,0.8217338217338217,0.0,0.0,0.0,0.0,-0.6800976800976801,1.0989010989010992,0.0,0.0,0.0,0.0,0.0,1.0488400488400489,0.0,0.0,0.0,0.0,,,,,,,,,,,,,,,,,,,,,,,,,,,,,,,,,,,,,,,,,,,,,,,,,moveUp
accX,0.0,0.0,0.0,0.0,0.0,0.0,0.0,0.0,0.0,0.0,0.0,0.0,0.5372405372405372,-1.26007326007326,0.0,0.0,0.0,0.0,0.0,-0.5311355311355311,0.0,0.0,0.0,0.0,0.0,0.0,-0.6166056166056166,0.0,0.0,0.0,0.0,0.0,-1.0586080586080586,0.0,0.8125,0.0,0.0,0.0,-1.3699633699633702,0.0,1.1875,0.0,0.0,0.0,-1.5103785103785103,0.0,1.65625,0.6875,0.6410256410256411,0.0,-1.387057387057387,0.0,1.9375,0.8125,0.8840048840048841,-0.5543345543345544,-1.5115995115995116,0.625,2.03125,0.71875,1.0024420024420024,-0.7643467643467643,-1.5702075702075702,0.59375,2.0625,0.5625,0.8766788766788767,-0.6862026862026862,-1.5445665445665446,0.65625,2.1875,0.0,0.6031746031746031,0.0,-1.824175824175824,0.9375,2.53125,0.0,0.0,0.0,-2.2051282051282053,1.3125,3.0,0.0,0.9926739926739928,-0.6996336996336996,-2.8095238095238093,1.53125,3.28125,0.0,1.4358974358974361,-1.2124542124542124,-3.4652014652014653,1.46875,3.1875,0.0,1.0634920634920637,-0.5115995115995116,-3.3296703296703303,1.5625,3.28125,0.0,0.8461538461538461,0.0,-3.0073260073260077,1.78125,3.4375,0.0,0.0,0.5763125763125763,-2.7350427350427347,2.0,3.8125,0.0,0.0,1.2246642246642248,-2.565323565323565,2.09375,3.96875,0.0,0.0,2.421245421245421,-2.195360195360196,2.25,3.96875,0.0,-1.5335775335775337,3.4847374847374852,-1.9328449328449329,2.65625,4.125,0.0,-2.133089133089133,3.555555555555556,-1.9975579975579976,3.125,4.6875,0.0,-0.9413919413919414,3.028083028083028,-1.8205128205128205,3.3125,4.75,0.0,0.0,2.9328449328449326,-1.7326007326007329,3.1875,4.3125,0.0,-0.9902319902319904,3.36019536019536,-1.7484737484737485,3.1875,3.90625,0.0,-1.352869352869353,3.1135531135531136,-1.9096459096459095,3.1875,3.8125,0.0,-0.8962148962148963,2.85958485958486,-1.94993894993895,3.1875,3.625,0.0,0.0,2.235653235653236,-2.1526251526251525,3.0625,3.3125,0.0,-0.8595848595848596,2.1257631257631258,-2.0805860805860807,3.21875,3.25,0.0,-0.8046398046398047,1.568986568986569,-1.3931623931623929,3.09375,2.90625,0.0,0.0,0.8034188034188035,-1.6117216117216118,2.78125,2.59375,0.0,0.0,0.0,-1.4529914529914532,2.15625,1.9375,0.0,0.0,1.4236874236874235,-0.8571428571428571,1.875,1.3125,-0.59375,-0.8131868131868132,0.0,-1.4884004884004884,1.78125,0.84375,-0.6875,-1.166056166056166,1.757020757020757,-1.3467643467643469,1.5,0.65625,0.0,-0.6214896214896215,1.5006105006105006,-1.95970695970696,1.5,0.65625,0.0,-0.6202686202686203,1.7032967032967032,-2.145299145299145,1.28125,0.53125,0.0,-0.9316239316239316,1.6117216117216118,-2.166056166056166,1.21875,0.59375,0.0,0.0,1.2344322344322345,-1.7387057387057387,1.125,0.625,0.0,0.0,0.6459096459096461,-1.0537240537240538,0.90625,0.0,0.0,0.0,1.0976800976800978,-0.6434676434676435,0.75,0.0,0.0,-0.8351648351648352,1.5384615384615383,-1.0586080586080586,0.8125,0.0,0.0,-0.5970695970695971,0.967032967032967,-1.3846153846153846,0.84375,0.0,0.0,0.0,0.8485958485958486,-1.4383394383394383,0.59375,0.0,0.0,-1.3443223443223444,1.636141636141636,-1.5470085470085468,0.0,0.0,0.0,-1.177045177045177,1.7203907203907205,-1.7423687423687424,0.0,0.0,0.0,-1.827838827838828,1.656898656898657,-1.7606837606837606,0.0,0.0,0.0,-1.2112332112332111,0.989010989010989,-1.5934065934065933,0.0,0.0,0.0,-0.8107448107448108,0.8998778998778999,-0.9181929181929182,0.0,0.0,0.0,-1.5384615384615383,1.4383394383394383,0.0,0.0,0.0,0.0,-0.73992673992674,0.6507936507936508,-0.518925518925519,0.0,0.0,0.0,0.0,0.0,0.0,0.0,0.0,0.0,0.0,0.8632478632478633,0.0,0.0,0.0,0.0,0.0,1.1843711843711844,0.0,0.0,0.0,0.0,0.0,1.1733821733821734,0.0,0.0,0.0,0.0,0.0,0.7887667887667887,0.0,0.0,0.0,0.0,,,,,,,,,,,,,,,,,,,moveUp
accX,1.0354090354090355,-0.6691086691086691,-1.094017094017094,0.0,0.0,0.0,0.7252747252747253,-0.9218559218559218,-1.6385836385836383,0.0,0.0,0.0,0.8363858363858364,-0.5836385836385837,-1.387057387057387,0.0,0.8125,0.0,1.1306471306471306,-0.6776556776556777,-1.2857142857142858,0.0,0.96875,0.0,1.1623931623931625,-0.8876678876678876,-1.4371184371184371,0.0,0.96875,0.0,0.5873015873015873,0.0,-1.3089133089133091,0.0,0.90625,0.0,0.0,0.0,-1.2210012210012209,0.0,1.0625,0.0,0.0,0.0,-1.413919413919414,0.0,1.375,0.0,0.0,0.0,-1.6385836385836383,0.0,1.71875,0.0,0.0,-0.6898656898656899,-1.6227106227106227,0.53125,1.96875,0.0,0.0,-0.5006105006105006,-1.5115995115995116,0.625,2.0625,0.0,0.0,0.0,-1.3650793650793651,0.875,2.28125,0.0,0.0,-0.7594627594627594,-1.7228327228327232,1.09375,2.625,0.0,0.0,0.0,-1.879120879120879,1.21875,2.96875,0.0,0.0,0.0,-2.0427350427350426,1.4375,3.1875,0.0,0.0,0.0,-1.9377289377289375,1.75,3.53125,0.0,0.0,0.8168498168498168,-1.4700854700854702,2.125,3.875,0.0,0.0,0.9987789987789988,-1.413919413919414,2.53125,4.09375,0.0,0.0,1.4932844932844933,-1.3150183150183148,2.65625,4.1875,0.0,0.0,2.1746031746031744,-1.3797313797313795,2.75,4.1875,0.0,0.0,2.595848595848596,-1.338217338217338,2.90625,4.15625,0.0,-0.9426129426129426,3.3772893772893773,-1.1526251526251523,3.53125,4.5,0.0,0.0,2.590964590964591,-1.0757020757020757,3.90625,4.59375,0.0,1.037851037851038,2.103785103785104,-1.1391941391941391,3.71875,4.125,0.0,0.0,2.2295482295482296,-1.6507936507936507,3.40625,3.65625,0.0,-0.9523809523809524,3.111111111111111,-1.733821733821734,3.34375,3.53125,0.0,-1.3296703296703296,3.293040293040293,-1.7155067155067154,3.625,3.875,0.0,0.0,1.8021978021978025,-1.6654456654456655,3.59375,3.6875,0.0,0.7680097680097681,0.7875457875457875,-1.612942612942613,3.28125,3.3125,0.0,1.5726495726495726,0.9951159951159952,-1.5213675213675213,2.90625,2.5,-0.75,0.0,0.6166056166056166,-2.3174603174603177,2.4375,1.8125,-0.65625,-0.9548229548229548,1.387057387057387,-2.484737484737485,2.03125,1.625,-0.625,-0.6068376068376068,1.5042735042735045,-2.203907203907204,1.84375,1.5,-0.625,-0.6007326007326007,1.092796092796093,-2.199023199023199,1.625,1.21875,-0.5625,-0.5177045177045178,0.7264957264957265,-1.931623931623932,1.3125,0.90625,-0.59375,0.0,1.271062271062271,-1.6532356532356531,1.1875,0.5625,-0.53125,-0.912087912087912,1.3650793650793651,-1.8351648351648349,1.125,0.53125,0.0,0.0,1.0561660561660562,-1.9328449328449329,0.875,0.0,0.0,0.0,1.2344322344322345,-1.7960927960927962,0.625,0.0,0.0,-1.0647130647130647,1.1892551892551892,-1.4041514041514038,0.59375,0.0,0.0,0.0,1.1562881562881564,-1.2148962148962148,0.6875,0.0,0.0,0.0,1.0854700854700854,-1.5445665445665446,0.0,0.0,0.0,0.0,1.2161172161172158,-1.7411477411477412,0.0,0.0,0.0,-1.2539682539682542,1.2258852258852257,-1.7081807081807079,0.0,0.0,0.0,-1.2576312576312576,0.557997557997558,-0.9438339438339438,0.0,0.0,0.0,0.0,0.6959706959706959,0.0,0.0,0.0,0.0,0.0,0.9768009768009768,-1.1184371184371185,0.0,0.0,0.0,-1.343101343101343,1.9328449328449329,-1.9194139194139197,0.0,0.0,0.0,-1.1684981684981686,1.8302808302808304,-1.5873015873015872,0.0,0.0,0.0,0.0,1.3846153846153846,-1.031746031746032,0.0,0.0,0.0,-0.6800976800976801,1.4908424908424909,-0.8669108669108669,0.0,0.0,0.0,,,,,,,,,,,,,,,,,,,,,,,,,,,,,,,,,,,,,,,,,,,,,,,,,,,,,,,moveUp
accX,0.0,0.0,0.0,0.65625,0.0,0.0,0.0,0.0,0.0,0.625,0.0,0.0,0.0,0.0,0.0,0.0,0.0,0.0,0.0,0.0,-0.5299145299145299,0.0,0.0,0.0,0.0,0.0,-1.336996336996337,0.0,0.75,0.0,0.0,0.0,-1.7838827838827842,0.0,1.34375,0.71875,0.0,0.0,-1.9462759462759465,0.0,1.84375,0.9375,0.9792429792429792,-0.5067155067155067,-1.9731379731379728,0.0,2.15625,1.0,1.9926739926739927,-0.7008547008547008,-1.800976800976801,0.0,2.09375,0.71875,2.7130647130647128,-1.3345543345543345,-2.1562881562881557,0.5625,1.96875,0.0,1.4371184371184371,-1.4041514041514038,-2.505494505494505,0.59375,2.25,0.0,1.1257631257631258,-1.2344322344322345,-2.455433455433456,0.0,2.4375,0.0,0.0,0.0,-2.0305250305250304,0.59375,2.6875,0.0,0.0,0.0,-1.7496947496947497,1.0,3.03125,0.0,-0.8021978021978022,0.0,-1.7643467643467643,1.4375,3.5625,0.0,0.0,0.0,-1.6214896214896215,1.53125,3.71875,0.0,0.0,0.7130647130647131,-1.4224664224664223,1.6875,3.59375,0.0,0.0,0.8852258852258852,-1.5848595848595848,1.96875,3.65625,0.0,0.0,1.3284493284493284,-1.6166056166056166,2.21875,3.90625,0.0,0.0,1.3345543345543345,-1.5775335775335777,2.46875,3.96875,0.0,0.0,2.3736263736263736,-1.5531135531135531,3.28125,4.4375,0.0,4.069597069597069,0.0,-1.1184371184371185,3.3125,4.3125,0.0,2.1404151404151404,1.2808302808302807,-1.3711843711843712,2.5,2.8125,-1.03125,-3.774114774114774,5.13064713064713,-0.984126984126984,2.71875,2.875,-1.25,-2.2246642246642248,4.3247863247863245,-0.8937728937728938,3.78125,4.375,0.0,3.096459096459097,0.6336996336996337,-1.8315018315018317,3.71875,4.125,0.0,1.1623931623931625,1.9145299145299144,-1.943833943833944,2.5,2.3125,-0.875,-2.561660561660561,5.061050061050062,-1.4822954822954824,2.46875,2.15625,-1.03125,-2.147741147741148,3.556776556776557,-1.927960927960928,3.125,3.125,0.0,0.8107448107448108,2.562881562881563,-2.1562881562881557,2.9375,3.1875,0.0,0.0,2.5946275946275947,-2.3870573870573866,2.25,2.09375,-0.71875,-2.0854700854700856,2.3382173382173383,-2.2014652014652016,1.9375,1.59375,-0.75,-2.457875457875458,2.669108669108669,-1.7277167277167278,1.84375,1.875,0.0,-1.943833943833944,2.9865689865689866,-1.4566544566544566,2.0,2.3125,0.0,-0.9462759462759462,1.6019536019536018,-1.8864468864468864,2.0,2.25,0.0,0.0,0.0,-2.1245421245421245,1.5,1.75,0.0,-0.5262515262515263,1.8510378510378511,-1.7826617826617828,0.90625,1.0,0.0,-2.1636141636141635,2.5836385836385842,-2.142857142857143,0.96875,0.8125,0.0,-1.376068376068376,1.4297924297924298,-2.1001221001221,1.03125,1.21875,0.0,0.0,0.5079365079365079,-1.463980463980464,0.78125,1.3125,0.0,1.1684981684981686,0.5445665445665445,-0.8754578754578755,0.59375,0.84375,0.0,0.0,0.8034188034188035,-0.6495726495726496,0.0,0.0,0.0,0.0,0.7277167277167277,-0.5457875457875457,0.53125,0.0,0.0,0.0,0.8156288156288156,0.0,0.6875,0.0,0.0,0.5555555555555556,0.8485958485958486,-1.0268620268620268,0.6875,0.0,0.0,0.0,0.9902319902319904,-1.3736263736263736,0.0,0.0,0.0,0.0,1.31990231990232,-1.0854700854700854,0.0,0.0,0.0,-1.4102564102564104,1.398046398046398,-1.1978021978021978,0.0,0.0,0.0,-0.57997557997558,0.9084249084249084,-1.037851037851038,0.0,0.0,0.0,0.0,0.6056166056166056,-0.8974358974358975,0.0,0.0,0.0,-1.0,1.0561660561660562,-1.277167277167277,0.0,0.0,0.0,-1.0903540903540905,1.3565323565323566,-1.3504273504273503,0.0,0.0,0.0,-0.7289377289377289,1.3479853479853479,-1.0769230769230769,0.0,0.0,0.0,-0.7106227106227107,1.0586080586080586,-0.818070818070818,0.0,0.0,0.0,,,,,,,,,,,,,,,,,,,,,,,,,,,,,,,,,,,,,moveUp
accX,0.0,0.0,0.0,0.0,0.0,0.0,0.0,0.0,0.0,0.0,0.0,0.0,0.0,0.0,0.0,0.0,0.0,0.0,0.6007326007326007,-0.5616605616605617,-0.63003663003663,0.0,0.0,0.0,0.7948717948717948,-0.8388278388278388,-1.0903540903540905,0.0,0.0,0.0,0.0,0.0,-1.2832722832722834,0.0,0.0,0.0,0.0,0.0,-1.4603174603174602,0.0,0.625,0.0,0.0,0.0,-1.619047619047619,0.0,1.15625,0.0,0.0,0.0,-1.514041514041514,0.0,1.5625,0.0,0.0,-0.5372405372405372,-1.7057387057387057,0.0,1.78125,0.0,0.7130647130647131,-0.6923076923076923,-1.636141636141636,0.0,1.875,0.0,0.0,0.0,-1.1404151404151404,0.75,2.40625,0.59375,-1.0048840048840049,0.5824175824175825,-0.9987789987789988,1.4375,3.28125,1.125,0.0,0.0,-1.247863247863248,1.8125,3.625,1.21875,1.2588522588522588,0.0,-1.6764346764346765,1.8125,3.4375,0.84375,1.0891330891330893,-0.5543345543345544,-1.8986568986568984,1.59375,3.125,0.0,0.0,0.5067155067155067,-1.6642246642246643,1.71875,3.09375,0.0,0.0,0.6239316239316239,-1.794871794871795,2.0625,3.40625,0.0,0.0,0.6544566544566545,-1.8131868131868127,2.375,3.71875,0.0,0.7118437118437119,0.9047619047619048,-1.8827838827838828,2.625,3.90625,0.0,0.6336996336996337,1.3724053724053724,-1.8070818070818069,2.75,4.0,0.0,0.0,2.31990231990232,-1.6007326007326008,3.09375,4.28125,0.0,0.0,2.0854700854700856,-1.8107448107448108,3.25,4.4375,0.0,1.242979242979243,2.565323565323565,-1.6996336996336996,3.21875,3.875,0.0,0.0,2.3846153846153846,-2.053724053724053,3.03125,3.28125,0.0,0.0,2.145299145299145,-2.1807081807081805,2.84375,3.15625,-0.59375,0.0,2.750915750915751,-1.8473748473748477,3.0,3.15625,-0.5625,0.0,3.102564102564102,-1.7667887667887667,3.0625,2.96875,-0.5625,-0.9413919413919414,3.062271062271062,-1.8827838827838828,3.125,2.9375,0.0,-1.2344322344322345,2.4285714285714284,-1.7753357753357752,3.21875,3.21875,0.0,-0.5860805860805861,2.075702075702076,-1.7448107448107448,3.125,3.0625,0.0,0.0,1.6336996336996337,-2.1257631257631258,2.78125,2.625,0.0,0.0,1.5970695970695972,-1.7496947496947497,2.3125,1.75,0.0,-1.2722832722832722,1.982905982905983,-2.13064713064713,1.875,1.1875,-0.59375,-1.338217338217338,1.8131868131868127,-2.6043956043956045,1.5625,1.0625,-0.71875,-1.9084249084249083,2.3638583638583643,-2.1465201465201464,1.1875,0.875,0.0,-0.9181929181929182,1.8290598290598292,-1.6996336996336996,1.09375,0.90625,0.0,-0.7716727716727717,1.6336996336996337,-1.656898656898657,1.03125,0.78125,0.0,0.0,1.4871794871794872,-1.6507936507936507,0.9375,0.65625,0.0,-0.73992673992674,1.5567765567765568,-1.6507936507936507,0.6875,0.0,0.0,0.0,1.8217338217338217,-1.321123321123321,0.5625,0.0,0.0,0.0,1.5982905982905984,-1.4102564102564104,0.0,0.0,0.0,-0.7435897435897436,1.5042735042735045,-1.3882783882783882,0.0,0.0,0.0,0.0,1.3296703296703296,-1.133089133089133,0.0,0.0,0.0,0.0,1.7362637362637363,-0.7582417582417582,0.0,0.0,0.0,-0.8083028083028083,1.557997557997558,-0.6581196581196581,0.0,0.0,0.0,0.0,0.7716727716727717,-0.5445665445665445,0.0,0.0,0.0,0.0,1.1477411477411477,0.0,0.0,0.0,0.0,-1.072039072039072,2.1135531135531136,0.0,0.0,0.0,0.0,-0.9902319902319904,2.1587301587301586,-0.5726495726495726,0.0,0.0,0.0,-0.6593406593406593,1.5091575091575091,-0.518925518925519,0.0,0.0,0.0,,,,,,,,,,,,,,,,,,,,,,,,,,,,,,,,,,,,,,,,,,,,,,,,,,,,,,,moveUp
accX,0.0,-0.5543345543345544,0.0,0.0,0.0,0.0,0.0,0.0,0.0,0.0,0.0,0.0,0.0,0.0,-0.8498168498168498,0.0,0.0,0.0,0.0,0.0,-1.1978021978021978,0.0,0.8125,0.0,0.0,0.0,-1.7741147741147743,0.0,1.40625,0.75,0.5494505494505495,-0.6727716727716728,-2.0586080586080584,0.0,1.8125,0.84375,1.297924297924298,-0.6129426129426129,-1.9413919413919412,0.0,1.75,0.71875,1.0366300366300367,0.0,-1.68986568986569,0.0,1.90625,0.6875,0.7521367521367521,0.0,-1.6227106227106227,0.78125,2.21875,0.78125,0.0,-0.7484737484737485,-2.053724053724053,1.03125,2.71875,0.875,0.6727716727716728,-0.8852258852258852,-2.053724053724053,1.15625,3.0625,0.875,0.5824175824175825,0.0,-1.85958485958486,1.25,3.21875,0.8125,0.0,0.0,-1.8266178266178263,1.5625,3.5,0.8125,0.0,0.0,-0.9743589743589745,2.03125,3.875,0.875,0.8339438339438342,0.0,-1.092796092796093,2.3125,3.875,0.6875,0.8095238095238095,0.5836385836385837,-1.2735042735042734,2.4375,3.625,0.0,0.0,1.020757020757021,-1.4444444444444444,2.625,3.53125,0.0,0.0,1.1514041514041513,-1.3992673992673992,3.03125,3.84375,0.0,0.0,0.7472527472527473,-1.1526251526251523,3.46875,4.125,0.53125,0.0,1.800976800976801,-0.9804639804639804,3.78125,4.28125,0.0,0.8876678876678876,1.194139194139194,-1.238095238095238,4.25,4.5625,0.625,2.6153846153846154,0.7081807081807082,-1.7264957264957266,4.28125,4.125,0.0,1.6996336996336996,0.0,-2.758241758241758,3.90625,3.1875,0.0,0.9584859584859584,1.1025641025641026,-2.5995115995116,3.1875,2.40625,-0.625,-1.362637362637363,2.6385836385836385,-2.623931623931624,3.0625,2.0,-0.84375,-1.0769230769230769,1.844932844932845,-2.827838827838828,3.03125,2.09375,-0.65625,-0.8144078144078144,2.0427350427350426,-2.399267399267399,2.6875,1.9375,-0.6875,-1.5470085470085468,2.3284493284493286,-2.1648351648351647,2.65625,1.875,-0.59375,-1.199023199023199,2.2466422466422467,-2.128205128205128,2.78125,2.125,0.0,-0.7301587301587301,1.7704517704517704,-2.227106227106227,2.65625,2.0,0.0,-0.7142857142857143,1.0781440781440779,-2.242979242979243,2.3125,1.75,0.0,0.0,0.8791208791208791,-2.288156288156288,1.90625,1.4375,0.0,-1.1526251526251523,1.8351648351648349,-2.5409035409035408,1.53125,0.90625,-0.59375,-1.8192918192918195,2.05982905982906,-2.4322344322344316,1.375,1.09375,0.0,0.0,1.0842490842490842,-1.8986568986568984,1.5,1.40625,0.0,0.0,0.0,-1.7216117216117215,1.25,0.96875,0.0,0.0,1.3186813186813189,-1.7118437118437118,1.03125,0.59375,0.0,0.0,0.8241758241758241,-1.8998778998779,0.8125,0.5625,-0.625,-0.57997557997558,1.2368742368742371,-1.5848595848595848,0.8125,0.65625,-0.5625,0.0,0.6312576312576312,-1.7008547008547008,0.625,0.0,0.0,0.0,1.0341880341880345,-1.1172161172161172,0.0,0.0,0.0,-0.8339438339438342,1.442002442002442,-1.5628815628815629,0.0,0.0,0.0,0.0,1.3711843711843712,-1.8632478632478635,0.0,0.0,0.0,-1.0036630036630036,1.7301587301587302,-2.199023199023199,0.0,0.0,0.0,-0.8083028083028083,1.3137973137973138,-1.7496947496947497,0.0,0.0,0.0,-0.9169719169719168,1.1575091575091576,-0.912087912087912,0.0,0.0,0.0,-0.5335775335775336,0.9047619047619048,-0.5628815628815629,0.0,0.0,0.0,0.0,0.8009768009768009,-0.8083028083028083,0.0,0.0,0.0,-0.6813186813186813,1.2527472527472527,-0.9023199023199024,0.0,0.0,0.0,-0.7130647130647131,1.1782661782661783,-0.78998778998779,0.0,0.0,0.0,0.0,0.8034188034188035,0.0,0.0,0.0,0.0,0.0,0.8070818070818071,0.0,0.0,0.0,0.0,,,,,,,,,,,,,,,,,,,,,,,,,,,,,,,,,,,,,,,,,,,,,,,,,moveUp
accX,0.0,0.0,-0.6275946275946276,0.59375,0.0,0.0,0.0,0.0,-0.6043956043956044,0.5625,0.0,0.0,-0.5470085470085471,0.5982905982905983,-1.065934065934066,0.59375,0.59375,0.0,0.0,0.0,-1.8608058608058609,0.8125,1.1875,0.78125,0.5518925518925519,-1.2844932844932846,-2.477411477411477,0.78125,1.84375,1.0625,1.6056166056166057,-1.5128205128205128,-2.2625152625152625,0.0,2.21875,0.9375,1.4676434676434675,-0.5702075702075702,-1.6459096459096458,0.0,2.1875,0.65625,0.0,0.0,-1.5775335775335777,0.0,2.3125,0.5625,0.0,0.0,-1.915750915750916,0.875,2.71875,0.84375,0.0,-0.8070818070818071,-2.1770451770451764,1.1875,3.34375,1.0625,0.6312576312576312,-1.0097680097680095,-2.1111111111111107,1.40625,3.75,1.0625,0.0,0.0,-1.7985347985347986,1.75,4.09375,1.0625,0.8791208791208791,0.0,-1.5885225885225884,2.1875,4.34375,0.9375,0.9145299145299144,0.0,-1.5677655677655675,2.21875,4.125,0.53125,0.7094017094017094,0.0,-1.7057387057387057,2.25,3.84375,0.0,0.5506715506715507,0.6178266178266179,-1.7203907203907205,2.21875,3.5,0.0,0.0,1.1477411477411477,-1.6874236874236874,2.34375,3.34375,0.0,-0.8266178266178266,2.1684981684981683,-1.5128205128205128,2.75,3.65625,0.0,-0.8669108669108669,2.4236874236874235,-1.6971916971916972,3.03125,3.90625,0.0,0.0,1.9743589743589745,-1.9768009768009769,3.03125,3.6875,0.0,0.0,2.388278388278388,-2.003663003663004,3.0625,3.46875,0.0,0.0,2.4517704517704515,-2.32967032967033,3.125,3.28125,0.0,-1.0195360195360197,2.7863247863247858,-2.4310134310134313,3.09375,3.125,0.0,-1.0891330891330893,3.1904761904761907,-2.4664224664224665,3.09375,3.09375,0.0,-1.2735042735042734,3.4407814407814414,-2.6178266178266183,2.96875,2.84375,0.0,-1.3748473748473748,2.227106227106227,-2.518925518925519,2.96875,3.09375,0.0,-0.9633699633699634,1.2075702075702075,-1.7387057387057387,3.125,3.40625,0.0,1.1501831501831499,0.8534798534798534,-0.7313797313797313,3.25,3.03125,0.0,0.0,1.413919413919414,-1.2124542124542124,3.15625,2.53125,0.0,-0.536019536019536,0.0,-2.7704517704517704,2.53125,2.25,0.0,0.7741147741147741,0.0,-2.0976800976800978,1.65625,1.5,0.0,0.0,0.0,-1.0024420024420024,1.28125,0.75,-0.5625,-1.4395604395604396,1.3650793650793651,-1.092796092796093,1.5,0.875,0.0,-0.5628815628815629,1.1807081807081807,-1.5164835164835164,1.5,0.96875,-0.59375,0.0,0.6593406593406593,-1.967032967032967,1.125,0.0,-0.59375,-1.0415140415140416,1.0525030525030523,-1.7545787545787546,0.96875,0.0,-0.5625,-0.7753357753357754,0.9633699633699634,-1.0415140415140416,1.125,0.65625,0.0,0.0,0.7179487179487181,-0.7728937728937729,1.1875,0.53125,0.0,0.9865689865689866,1.1074481074481075,-1.3418803418803418,1.0625,0.0,-0.75,0.0,1.247863247863248,-2.4249084249084247,0.0,0.0,-0.53125,-1.6727716727716728,2.3650793650793656,-2.7008547008547015,0.0,0.0,0.0,-0.5531135531135531,1.815628815628816,-1.4334554334554337,0.0,0.0,0.0,-0.7741147741147741,1.2442002442002442,-1.3797313797313795,0.0,0.0,0.0,0.0,1.8290598290598292,-1.2087912087912087,0.0,0.0,0.0,-0.7557997557997558,1.7643467643467643,-1.3797313797313795,0.0,0.0,0.0,-1.105006105006105,1.431013431013431,-1.5225885225885225,0.0,0.0,0.0,-0.9487179487179488,1.0879120879120878,-1.2014652014652014,0.0,0.0,0.0,-0.6434676434676435,1.3418803418803418,-0.6581196581196581,0.0,0.0,0.0,0.0,1.382173382173382,0.0,0.0,0.0,0.0,0.0,1.1672771672771671,0.0,0.0,0.0,0.0,0.0,0.6373626373626373,-0.6996336996336996,0.0,0.0,0.0,0.0,0.9621489621489622,0.0,0.0,0.0,0.0,0.0,0.9633699633699634,0.0,0.0,0.0,0.0,,,,,,,,,,,,,,,,,,,,,,,,,,,,,,,,,,,,,,,,,,,moveUp
accX,0.0,0.0,0.0,0.0,0.0,0.0,0.0,-0.5616605616605617,-0.6483516483516484,0.0,0.0,0.0,0.0,0.0,-0.7301587301587301,0.0,0.0,0.0,0.0,-0.5897435897435898,-1.4713064713064714,0.0,0.71875,0.0,0.0,-0.5457875457875457,-2.0097680097680097,0.0,1.28125,0.0,0.7032967032967034,0.0,-2.2954822954822958,0.0,1.78125,0.5625,0.8315018315018315,-0.5592185592185592,-2.4468864468864466,0.0,2.15625,0.5625,1.3797313797313795,-0.5201465201465202,-2.312576312576313,0.0,2.21875,0.0,1.1733821733821734,0.0,-1.9731379731379728,0.0,2.21875,0.0,0.5225885225885226,0.0,-1.8192918192918195,0.0,2.3125,0.0,0.0,0.0,-1.9047619047619049,0.0,2.5,0.0,0.0,0.0,-1.7606837606837606,0.5625,2.59375,0.0,0.0,0.0,-1.3785103785103785,0.90625,2.9375,0.0,0.5653235653235653,0.0,-1.5787545787545787,1.1875,3.125,0.0,1.8021978021978025,-0.9194139194139194,-1.879120879120879,1.0625,2.59375,-0.59375,-0.6825396825396826,0.0,-1.9169719169719168,1.03125,2.5625,-0.53125,-1.7936507936507935,2.1086691086691087,-1.5604395604395604,1.625,3.25,0.0,-1.465201465201465,2.217338217338217,-1.6068376068376071,2.40625,3.78125,0.0,0.0,1.5921855921855919,-0.8217338217338217,2.75,4.25,0.0,0.0,1.6593406593406594,-0.9096459096459096,2.9375,4.25,0.0,-0.536019536019536,2.606837606837607,-0.7118437118437119,3.125,4.4375,0.0,0.0,2.6263736263736264,-0.6031746031746031,3.3125,4.75,0.0,0.0,2.717948717948718,-0.5775335775335775,3.40625,4.90625,0.0,1.4896214896214897,2.347985347985348,-1.115995115995116,3.375,4.4375,0.0,0.0,3.1343101343101343,-1.5665445665445663,3.1875,3.65625,0.0,-0.525030525030525,3.15018315018315,-2.0891330891330893,3.28125,3.59375,0.0,0.0,2.36019536019536,-2.551892551892552,3.21875,3.5625,-0.5625,0.0,2.072039072039072,-2.7667887667887667,2.8125,2.96875,0.0,0.0,1.9267399267399268,-2.831501831501832,2.4375,2.5,-0.59375,-0.7863247863247863,1.6336996336996337,-2.556776556776557,2.15625,2.28125,-0.5625,-0.5824175824175825,2.47985347985348,-1.9902319902319905,2.0,2.09375,0.0,-1.2319902319902318,1.4517704517704515,-2.31013431013431,2.03125,1.78125,0.0,-1.1404151404151404,0.9621489621489622,-2.3565323565323566,1.75,1.8125,0.0,0.0,0.9377289377289376,-1.94993894993895,1.375,1.625,0.0,-0.9877899877899878,1.21978021978022,-1.293040293040293,1.125,1.21875,0.0,-0.8266178266178266,0.6056166056166056,-0.9279609279609279,1.1875,1.15625,0.0,0.0,0.0,-0.989010989010989,1.09375,1.0625,0.0,0.0,1.0793650793650793,-1.5555555555555556,0.875,0.59375,0.0,-0.8485958485958486,1.290598290598291,-2.0488400488400487,0.75,0.0,0.0,-0.8192918192918193,1.0244200244200243,-1.9963369963369964,0.65625,0.0,0.0,-0.5543345543345544,0.7545787545787546,-1.7118437118437118,0.5625,0.0,0.0,0.0,0.9877899877899878,-1.3724053724053724,0.0,0.0,0.0,0.0,0.6715506715506715,-1.3540903540903542,0.0,0.0,0.0,0.0,0.9816849816849816,-1.164835164835165,0.0,0.0,0.0,-0.757020757020757,1.2527472527472527,-1.1855921855921856,0.0,0.0,0.0,0.0,0.6739926739926739,-1.2161172161172158,0.0,0.0,0.0,0.0,0.6324786324786325,-1.2148962148962148,0.0,0.0,0.0,-0.8290598290598291,1.0183150183150182,-1.2295482295482296,0.0,0.0,0.0,-1.465201465201465,1.2796092796092795,-0.9365079365079364,0.0,0.0,0.0,-0.5177045177045178,0.978021978021978,-0.5079365079365079,0.0,0.0,0.0,0.0,0.6483516483516484,0.0,0.0,0.0,0.0,-0.6764346764346765,0.0,-0.7130647130647131,0.0,0.0,0.0,0.0,0.7338217338217338,0.0,0.0,0.0,0.0,,,,,,,,,,,,,,,,,,,,,,,,,,,,,,,,,,,,,,,,,,,moveUp
accX,-0.6336996336996337,0.0,-0.8229548229548229,0.75,0.625,0.6875,0.0,0.0,-1.2039072039072038,1.0625,1.125,1.0625,1.0964590964590966,-0.8669108669108669,-1.6837606837606838,1.03125,1.4375,1.15625,1.6874236874236874,-1.525030525030525,-1.9413919413919412,0.78125,1.5,0.8125,1.7045177045177045,-1.1965811965811963,-1.8485958485958487,0.625,1.53125,0.0,1.0818070818070815,-1.3040293040293038,-2.0366300366300365,0.0,1.65625,0.0,0.978021978021978,-1.0769230769230769,-2.0488400488400487,0.0,2.0,0.0,0.7692307692307693,0.0,-1.9413919413919412,0.0,2.125,0.0,0.0,0.0,-1.9291819291819288,0.59375,2.28125,0.0,0.0,0.0,-1.6984126984126984,0.875,2.46875,0.0,0.0,-0.5091575091575091,-1.6312576312576312,1.0625,2.8125,0.0,0.0,0.0,-1.3223443223443223,1.15625,3.0,0.0,-0.818070818070818,0.0,-0.971916971916972,1.40625,3.28125,0.0,-0.6141636141636142,0.9865689865689866,-0.8669108669108669,1.9375,3.71875,0.0,0.0,0.0,-1.2283272283272284,2.3125,3.90625,0.0,1.0647130647130647,0.5384615384615384,-1.4920634920634919,2.25,3.5625,0.0,0.0,0.7411477411477412,-1.5836385836385836,2.21875,3.15625,0.0,-0.6117216117216118,1.434676434676435,-1.4175824175824177,2.40625,3.28125,0.0,-0.6959706959706959,2.043956043956044,-1.0793650793650793,2.59375,3.59375,0.0,0.0,2.274725274725274,-1.0805860805860803,2.84375,3.65625,0.0,0.0,2.6923076923076925,-1.2063492063492065,2.9375,3.5625,0.0,0.0,3.1868131868131866,-1.6336996336996337,3.09375,3.4375,0.0,0.0,2.763125763125763,-2.2857142857142856,2.9375,3.28125,0.0,0.0,2.7704517704517704,-1.931623931623932,2.9375,3.3125,0.0,-0.9072039072039072,3.4517704517704515,-1.0366300366300367,3.3125,3.46875,0.0,0.0,2.1794871794871797,-1.205128205128205,3.28125,3.125,0.0,0.0,1.5103785103785103,-1.7032967032967032,2.84375,2.53125,0.0,0.0,1.8913308913308915,-1.8852258852258847,2.71875,2.40625,0.0,0.0,1.6105006105006106,-1.6043956043956045,2.71875,2.40625,0.0,0.0,1.0781440781440779,-1.94993894993895,2.5,2.28125,-0.53125,1.2319902319902318,1.0,-2.3650793650793656,1.9375,1.59375,-0.5625,-1.266178266178266,1.896214896214896,-2.053724053724053,1.75,1.46875,0.0,0.0,0.9010989010989012,-1.5543345543345544,1.71875,1.84375,0.0,1.2368742368742371,0.9072039072039072,-1.126984126984127,1.4375,1.3125,-0.65625,0.0,1.7997557997557998,-1.4053724053724053,1.40625,1.03125,-0.875,-0.6056166056166056,1.387057387057387,-1.7203907203907205,1.28125,0.71875,-0.53125,-0.8156288156288156,0.0,-1.5286935286935286,0.9375,0.65625,0.0,0.0,0.7838827838827839,0.0,0.78125,0.625,-0.5625,0.0,1.7423687423687424,0.0,1.0,0.0,-0.59375,-0.8998778998778999,1.3186813186813189,-1.536019536019536,0.90625,0.0,-0.53125,-0.8669108669108669,1.343101343101343,-1.8632478632478635,0.625,0.0,-0.5625,-1.1831501831501832,1.6752136752136753,-1.6593406593406594,0.59375,0.0,0.0,-0.971916971916972,1.3162393162393162,-1.5177045177045176,0.5625,0.0,0.0,-0.5177045177045178,1.10989010989011,-1.2673992673992671,0.0,0.0,0.0,-0.6507936507936508,0.9548229548229548,-1.5006105006105006,0.0,0.0,0.0,-1.083028083028083,1.7814407814407816,-1.7435897435897436,0.0,0.0,0.0,-1.3418803418803418,1.6336996336996337,-1.9218559218559217,0.0,0.0,0.0,-0.5641025641025641,0.9084249084249084,-0.6984126984126984,0.0,0.0,0.0,0.0,0.5604395604395604,0.0,0.0,0.0,0.0,0.0,0.7167277167277167,0.0,0.0,0.0,0.0,0.0,0.7240537240537241,0.0,0.0,0.0,0.0,0.0,0.9523809523809524,0.0,0.0,0.0,0.0,0.0,1.031746031746032,0.0,0.0,0.0,0.0,0.0,0.7326007326007326,0.0,0.0,0.0,0.0,,,,,,,,,,,,,,,,,,,,,,,,,,,,,,,,,,,,,moveUp
