,00_accX,00_accY,00_accZ,00_gyroX,00_gyroY,00_gyroZ,01_accX,01_accY,01_accZ,01_gyroX,01_gyroY,01_gyroZ,02_accX,02_accY,02_accZ,02_gyroX,02_gyroY,02_gyroZ,03_accX,03_accY,03_accZ,03_gyroX,03_gyroY,03_gyroZ,04_accX,04_accY,04_accZ,04_gyroX,04_gyroY,04_gyroZ,05_accX,05_accY,05_accZ,05_gyroX,05_gyroY,05_gyroZ,06_accX,06_accY,06_accZ,06_gyroX,06_gyroY,06_gyroZ,07_accX,07_accY,07_accZ,07_gyroX,07_gyroY,07_gyroZ,08_accX,08_accY,08_accZ,08_gyroX,08_gyroY,08_gyroZ,09_accX,09_accY,09_accZ,09_gyroX,09_gyroY,09_gyroZ,10_accX,10_accY,10_accZ,10_gyroX,10_gyroY,10_gyroZ,11_accX,11_accY,11_accZ,11_gyroX,11_gyroY,11_gyroZ,12_accX,12_accY,12_accZ,12_gyroX,12_gyroY,12_gyroZ,13_accX,13_accY,13_accZ,13_gyroX,13_gyroY,13_gyroZ,14_accX,14_accY,14_accZ,14_gyroX,14_gyroY,14_gyroZ,15_accX,15_accY,15_accZ,15_gyroX,15_gyroY,15_gyroZ,16_accX,16_accY,16_accZ,16_gyroX,16_gyroY,16_gyroZ,17_accX,17_accY,17_accZ,17_gyroX,17_gyroY,17_gyroZ,18_accX,18_accY,18_accZ,18_gyroX,18_gyroY,18_gyroZ,19_accX,19_accY,19_accZ,19_gyroX,19_gyroY,19_gyroZ,20_accX,20_accY,20_accZ,20_gyroX,20_gyroY,20_gyroZ,21_accX,21_accY,21_accZ,21_gyroX,21_gyroY,21_gyroZ,22_accX,22_accY,22_accZ,22_gyroX,22_gyroY,22_gyroZ,23_accX,23_accY,23_accZ,23_gyroX,23_gyroY,23_gyroZ,24_accX,24_accY,24_accZ,24_gyroX,24_gyroY,24_gyroZ,25_accX,25_accY,25_accZ,25_gyroX,25_gyroY,25_gyroZ,26_accX,26_accY,26_accZ,26_gyroX,26_gyroY,26_gyroZ,27_accX,27_accY,27_accZ,27_gyroX,27_gyroY,27_gyroZ,28_accX,28_accY,28_accZ,28_gyroX,28_gyroY,28_gyroZ,29_accX,29_accY,29_accZ,29_gyroX,29_gyroY,29_gyroZ,30_accX,30_accY,30_accZ,30_gyroX,30_gyroY,30_gyroZ,31_accX,31_accY,31_accZ,31_gyroX,31_gyroY,31_gyroZ,32_accX,32_accY,32_accZ,32_gyroX,32_gyroY,32_gyroZ,33_accX,33_accY,33_accZ,33_gyroX,33_gyroY,33_gyroZ,34_accX,34_accY,34_accZ,34_gyroX,34_gyroY,34_gyroZ,35_accX,35_accY,35_accZ,35_gyroX,35_gyroY,35_gyroZ,36_accX,36_accY,36_accZ,36_gyroX,36_gyroY,36_gyroZ,37_accX,37_accY,37_accZ,37_gyroX,37_gyroY,37_gyroZ,38_accX,38_accY,38_accZ,38_gyroX,38_gyroY,38_gyroZ,39_accX,39_accY,39_accZ,39_gyroX,39_gyroY,39_gyroZ,40_accX,40_accY,40_accZ,40_gyroX,40_gyroY,40_gyroZ,41_accX,41_accY,41_accZ,41_gyroX,41_gyroY,41_gyroZ,42_accX,42_accY,42_accZ,42_gyroX,42_gyroY,42_gyroZ,43_accX,43_accY,43_accZ,43_gyroX,43_gyroY,43_gyroZ,44_accX,44_accY,44_accZ,44_gyroX,44_gyroY,44_gyroZ,45_accX,45_accY,45_accZ,45_gyroX,45_gyroY,45_gyroZ,46_accX,46_accY,46_accZ,46_gyroX,46_gyroY,46_gyroZ,47_accX,47_accY,47_accZ,47_gyroX,47_gyroY,47_gyroZ,48_accX,48_accY,48_accZ,48_gyroX,48_gyroY,48_gyroZ,49_accX,49_accY,49_accZ,49_gyroX,49_gyroY,49_gyroZ,50_accX,50_accY,50_accZ,50_gyroX,50_gyroY,50_gyroZ,51_accX,51_accY,51_accZ,51_gyroX,51_gyroY,51_gyroZ,52_accX,52_accY,52_accZ,52_gyroX,52_gyroY,52_gyroZ,53_accX,53_accY,53_accZ,53_gyroX,53_gyroY,53_gyroZ,54_accX,54_accY,54_accZ,54_gyroX,54_gyroY,54_gyroZ,55_accX,55_accY,55_accZ,55_gyroX,55_gyroY,55_gyroZ,56_accX,56_accY,56_accZ,56_gyroX,56_gyroY,56_gyroZ,57_accX,57_accY,57_accZ,57_gyroX,57_gyroY,57_gyroZ,58_accX,58_accY,58_accZ,58_gyroX,58_gyroY,58_gyroZ,59_accX,59_accY,59_accZ,59_gyroX,59_gyroY,59_gyroZ,60_accX,60_accY,60_accZ,60_gyroX,60_gyroY,60_gyroZ,61_accX,61_accY,61_accZ,61_gyroX,61_gyroY,61_gyroZ,62_accX,62_accY,62_accZ,62_gyroX,62_gyroY,62_gyroZ,63_accX,63_accY,63_accZ,63_gyroX,63_gyroY,63_gyroZ,64_accX,64_accY,64_accZ,64_gyroX,64_gyroY,64_gyroZ,65_accX,65_accY,65_accZ,65_gyroX,65_gyroY,65_gyroZ,66_accX,66_accY,66_accZ,66_gyroX,66_gyroY,66_gyroZ,67_accX,67_accY,67_accZ,67_gyroX,67_gyroY,67_gyroZ,68_accX,68_accY,68_accZ,68_gyroX,68_gyroY,68_gyroZ,69_accX,69_accY,69_accZ,69_gyroX,69_gyroY,69_gyroZ,70_accX,70_accY,70_accZ,70_gyroX,70_gyroY,70_gyroZ,71_accX,71_accY,71_accZ,71_gyroX,71_gyroY,71_gyroZ,72_accX,72_accY,72_accZ,72_gyroX,72_gyroY,72_gyroZ,73_accX,73_accY,73_accZ,73_gyroX,73_gyroY,73_gyroZ,74_accX,74_accY,74_accZ,74_gyroX,74_gyroY,74_gyroZ,75_accX,75_accY,75_accZ,75_gyroX,75_gyroY,75_gyroZ,76_accX,76_accY,76_accZ,76_gyroX,76_gyroY,76_gyroZ,77_accX,77_accY,77_accZ,77_gyroX,77_gyroY,77_gyroZ,78_accX,78_accY,78_accZ,78_gyroX,78_gyroY,78_gyroZ,79_accX,79_accY,79_accZ,79_gyroX,79_gyroY,79_gyroZ,category
accX,-0.5820000000000001,0.0,1.535,0.0,0.0,0.0,0.0,0.0,1.5019999999999998,0.0,0.0,0.0,0.0,-0.537,0.9109999999999999,0.0,0.0,0.0,0.622,-1.028,0.0,0.0,0.0,0.0,0.0,-1.473,-1.092,0.0,0.0,0.0,0.0,-0.9229999999999999,-1.024,0.0,0.0,0.0,0.0,-0.539,0.0,0.0,0.0,0.0,0.0,0.0,0.602,0.0,0.0,0.0,0.0,-0.516,1.1540000000000001,0.0,0.0,0.0,0.0,-0.7709999999999999,1.4140000000000001,0.0,0.0,0.0,-0.9129999999999999,-0.736,1.797,0.0,0.0,0.0,-1.67,-0.6659999999999999,2.4530000000000003,0.0,0.0,0.0,-2.229,0.0,3.385,0.0,0.0,0.0,-1.829,0.0,4.426,0.0,0.0,0.0,-1.094,-0.529,5.035,0.0,0.0,0.0,0.0,-1.0590000000000002,5.1579999999999995,0.0,0.0,0.0,0.0,-1.994,4.958,0.0,-1.2930000000000001,0.0,-0.679,-1.6030000000000002,4.43,0.0,-1.902,0.0,-1.652,0.0,3.492,0.0,-1.746,0.0,-1.122,0.0,1.4369999999999998,1.357,-1.281,0.0,0.0,0.0,-0.875,1.652,-1.11,0.0,0.0,-1.4369999999999998,-2.294,1.538,-0.893,0.0,0.0,-1.3780000000000001,-2.217,1.368,-0.7859999999999999,0.0,-0.51,-0.55,-1.2,1.567,-0.687,0.0,-1.111,-0.529,-0.899,1.953,0.0,0.555,0.0,-1.3880000000000001,-1.546,2.128,-0.7170000000000001,0.0,0.0,-2.068,-2.2969999999999997,1.8359999999999999,-1.2329999999999999,0.0,-1.128,-1.4409999999999998,-2.675,1.715,-1.101,0.0,-1.7209999999999999,-1.0979999999999999,-2.9819999999999998,1.926,-0.732,0.6990000000000001,0.0,-1.7009999999999998,-3.6180000000000003,2.03,0.0,1.0759999999999998,1.49,-2.0269999999999997,-4.17,1.778,-0.608,1.043,1.131,-2.35,-4.478,1.3159999999999998,-0.718,0.7959999999999999,0.9640000000000001,-1.633,-4.369,0.9570000000000001,0.0,0.0,0.993,-1.5430000000000001,-4.301,0.72,0.0,0.0,0.6629999999999999,-1.825,-4.11,0.0,0.0,0.0,0.0,-1.146,-3.2769999999999997,0.0,0.0,0.0,0.0,-0.652,-2.397,0.0,0.0,0.0,0.0,-0.54,-1.8980000000000001,-0.54,0.0,0.0,0.0,0.0,-1.943,-0.521,0.0,0.0,0.0,-0.687,-2.4219999999999997,-0.584,0.0,0.0,0.0,-0.853,-2.6719999999999997,-0.8109999999999999,0.6,0.0,0.0,-0.675,-2.826,-1.091,0.643,0.0,0.0,-1.09,-3.1660000000000004,-1.298,0.6559999999999999,0.0,0.0,-1.179,-2.932,-1.496,0.8220000000000001,0.0,0.0,-1.012,-2.338,-1.6269999999999998,1.054,0.0,0.0,-0.738,-1.84,-1.575,1.187,0.0,0.0,-0.899,-1.6480000000000001,-1.465,1.3119999999999998,0.0,0.0,-1.166,-1.63,-1.367,1.287,0.0,0.0,-1.335,-1.453,-1.389,1.177,0.0,0.0,-1.209,-0.998,-1.53,1.125,0.0,0.0,-0.6779999999999999,0.0,-1.565,1.3159999999999998,0.0,0.0,0.0,0.0,-1.304,1.238,0.0,0.0,0.0,0.0,-1.172,1.138,0.0,0.0,0.0,0.0,-1.103,1.006,0.0,0.0,-0.677,0.0,-1.141,0.878,0.0,0.0,0.0,0.0,-1.1340000000000001,0.718,0.0,-0.937,0.0,0.654,-1.042,0.685,0.0,-0.759,0.0,1.217,-0.8270000000000001,0.643,0.0,0.0,0.0,1.246,-0.55,0.0,0.0,-0.634,0.0,1.3259999999999998,0.0,0.0,0.0,-0.995,-1.0759999999999998,1.1640000000000001,-0.574,0.0,0.0,-1.794,-1.371,1.6640000000000001,-0.93,0.0,0.0,-1.179,-0.7090000000000001,2.5580000000000003,-1.062,0.0,0.0,-1.198,0.0,3.145,-0.848,0.0,0.0,0.685,0.0,2.401,0.0,0.0,0.0,0.0,-1.625,1.176,0.0,0.0,0.0,0.0,-1.7369999999999999,1.016,-0.574,0.0,0.0,-1.452,-1.28,1.426,-0.81,0.0,0.0,-1.135,0.0,1.973,-0.608,0.0,0.0,-0.551,0.0,2.263,0.0,0.0,0.0,0.0,-0.579,2.0909999999999997,0.0,0.0,0.0,0.0,-0.958,1.651,0.0,0.0,0.0,0.0,0.0,1.22,0.0,0.0,0.0,-0.877,0.0,0.882,0.0,0.0,0.0,-0.912,0.0,0.662,0.0,0.0,0.0,0.0,0.0,0.0,0.0,0.0,0.0,0.77,0.0,-1.308,0.0,0.0,0.0,0.5429999999999999,0.0,-1.5330000000000001,0.0,0.0,0.0,0.0,0.0,-1.44,0.0,0.0,0.0,0.0,0.0,-0.8809999999999999,0.0,0.0,0.0,moveDown
accX,0.0,-1.579,-2.718,-1.1059999999999999,0.511,0.0,0.745,-1.475,-2.3930000000000002,-1.449,0.0,0.5429999999999999,0.611,-1.084,-2.072,-1.2890000000000001,0.0,0.0,0.0,-0.574,-2.7260000000000004,-0.8390000000000001,0.0,0.0,-1.143,0.0,-3.011,-0.5760000000000001,0.605,0.0,-1.6340000000000001,-1.561,-3.1639999999999997,-0.845,0.8420000000000001,0.0,-1.482,-1.661,-2.714,-1.156,1.1079999999999999,0.0,0.0,-0.763,-1.9980000000000002,-1.067,1.11,0.0,0.0,-1.104,-1.869,-0.991,0.937,0.0,0.0,-0.985,-1.349,-0.929,0.9109999999999999,0.0,-0.693,-1.034,-0.871,-0.924,1.037,0.0,0.0,-1.291,-1.1840000000000002,-1.104,0.875,0.0,0.0,-1.0170000000000001,-1.6059999999999999,-1.213,0.769,0.0,0.622,-1.045,-1.8330000000000002,-1.266,0.584,0.0,0.0,-1.048,-1.6569999999999998,-1.4409999999999998,0.579,0.0,-1.537,-0.765,-0.873,-1.537,0.9359999999999999,0.0,-1.7590000000000001,0.0,0.7909999999999999,-1.4340000000000002,1.2409999999999999,0.0,0.0,0.0,1.26,-1.1079999999999999,0.662,0.0,-1.075,-0.87,1.5019999999999998,-1.2109999999999999,0.0,0.0,-1.433,0.0,2.641,-1.5219999999999998,0.0,0.0,-1.504,0.0,3.534,-1.484,0.6559999999999999,0.0,-0.838,0.0,3.69,-1.19,0.64,0.0,-0.968,0.0,3.693,-0.897,0.0,0.0,-0.775,0.0,3.378,-0.754,0.0,0.0,-1.155,-0.841,2.931,-0.614,0.0,0.0,-0.73,0.0,2.435,-0.529,0.0,0.0,0.0,0.0,1.771,0.0,0.0,0.0,0.0,-0.768,1.07,0.0,-0.555,0.0,-1.072,-1.084,0.78,0.0,0.0,0.0,-0.8290000000000001,-0.7909999999999999,0.6779999999999999,0.0,0.0,0.0,0.0,0.0,0.0,0.0,0.0,0.0,0.0,0.0,0.0,0.0,0.0,0.0,0.0,-0.732,0.504,0.0,0.0,0.0,0.0,0.0,0.0,0.0,0.0,0.0,0.0,-0.5379999999999999,0.0,0.0,0.0,0.0,0.0,0.0,0.0,0.0,0.0,0.0,0.779,0.0,0.0,0.0,0.0,0.0,0.617,0.0,-0.8059999999999999,0.0,0.0,0.0,0.0,-0.62,-1.021,0.0,0.0,0.0,0.0,0.0,-0.551,0.0,0.0,0.0,0.0,0.0,0.0,0.0,0.0,0.0,0.0,0.0,0.0,0.0,0.0,0.0,0.0,0.0,0.0,0.0,0.0,0.0,0.0,0.0,0.0,0.0,0.0,0.0,0.0,0.0,0.0,0.0,0.0,0.0,0.0,0.0,0.0,0.0,0.0,0.0,0.0,0.0,0.0,0.0,0.0,0.0,0.0,0.0,0.0,0.0,0.0,0.0,0.0,0.0,0.0,0.0,0.0,0.0,0.0,0.0,0.0,0.0,0.0,0.0,0.0,-0.625,0.0,0.0,0.0,0.0,0.0,0.0,0.0,0.0,0.0,0.0,0.0,0.0,0.0,0.0,0.0,0.0,0.0,-0.536,0.0,0.0,0.0,0.0,-0.629,-0.57,0.0,0.0,0.525,0.0,-1.032,0.0,1.335,0.0,0.86,0.0,-0.622,0.0,3.068,0.0,0.9079999999999999,0.0,,,,,,,,,,,,,,,,,,,,,,,,,,,,,,,,,,,,,,,,,,,,,,,,,,,,,,,,,,,,,,,,,,,,,,,,,,,,,,,,,,,,,,,,,,,,,,,,,,,,,,,,,,,,,,,,,,,,,,,,,,,,,,,,,,,,,,,,,,,moveDown
accX,0.0,-0.6890000000000001,-1.212,-0.607,0.0,0.0,0.0,-0.9359999999999999,-1.515,-0.6920000000000001,0.0,0.0,-0.575,-0.8420000000000001,-1.885,-0.7340000000000001,0.0,0.0,-1.0,-0.696,-1.453,-0.708,0.0,0.0,-0.603,-0.616,-1.61,-0.6459999999999999,0.519,0.0,0.0,-1.037,-2.481,-0.7390000000000001,0.502,0.0,0.0,-1.143,-3.4189999999999996,-1.024,0.521,0.0,-0.8059999999999999,-1.587,-3.4419999999999997,-1.167,0.648,0.0,-0.6890000000000001,-1.1540000000000001,-3.284,-1.21,0.937,0.0,0.0,-1.139,-3.0260000000000002,-1.182,1.095,0.0,0.0,-1.6159999999999999,-3.135,-1.296,1.026,0.0,0.0,-1.524,-2.968,-1.496,0.8690000000000001,0.0,-0.54,-1.02,-2.693,-1.46,0.9209999999999999,0.0,-0.7829999999999999,-0.855,-2.097,-1.3030000000000002,1.133,0.0,-0.86,-1.4040000000000001,-1.41,-1.301,1.3090000000000002,0.0,0.0,-1.7009999999999998,-0.531,-1.5819999999999999,1.165,0.0,0.0,-0.98,0.0,-1.7819999999999998,0.8859999999999999,0.0,0.0,0.0,0.8390000000000001,-1.5930000000000002,0.5710000000000001,0.0,-0.581,0.0,0.0,-1.411,0.0,0.0,-0.58,-0.723,0.0,-1.4140000000000001,0.0,0.0,-0.9490000000000001,-0.647,1.113,-1.635,0.7120000000000001,0.0,0.0,0.0,2.3480000000000003,-1.485,0.653,0.0,0.0,0.0,2.755,-1.3259999999999998,0.623,0.0,-0.6759999999999999,0.0,3.142,-1.216,0.514,0.0,0.0,-0.598,3.155,-0.998,0.0,0.0,-0.715,-0.87,3.031,-0.9,0.0,0.0,-0.701,-0.669,2.826,-0.855,0.0,0.0,-0.537,-0.884,2.577,-0.615,0.0,0.0,-0.825,-1.139,2.8,-0.535,0.0,0.0,-0.621,-0.833,2.815,0.0,0.0,0.0,-0.675,-0.758,2.431,0.0,0.0,0.0,0.0,-0.6509999999999999,1.798,0.0,0.0,0.0,-0.59,-0.747,1.335,0.0,0.0,0.0,0.0,-0.684,0.7929999999999999,0.0,0.0,0.0,0.0,-0.619,0.0,0.0,0.0,0.0,0.0,0.0,0.0,0.0,0.0,0.0,0.0,0.0,0.0,0.0,0.0,0.0,0.0,0.0,0.0,0.0,0.0,0.0,0.0,0.0,0.0,0.0,0.0,0.0,0.0,0.0,-0.755,0.0,0.0,0.0,0.0,0.0,-0.8009999999999999,0.0,0.0,0.0,0.0,0.0,-0.613,0.0,0.0,0.0,0.0,0.0,0.0,0.0,0.0,0.0,0.0,0.0,0.0,0.0,0.0,0.0,0.0,0.0,0.0,0.0,0.0,0.0,0.0,0.0,0.0,0.0,0.0,0.0,0.0,0.0,0.0,0.0,0.0,0.0,0.0,0.0,0.0,0.0,0.0,0.0,0.0,0.0,0.0,0.0,0.0,0.0,0.0,0.0,0.0,0.0,0.0,0.0,0.0,0.0,0.0,0.0,0.0,0.0,0.0,0.0,0.0,0.0,0.0,0.0,0.0,0.0,0.0,0.0,0.0,0.0,0.0,0.0,0.0,0.0,0.0,0.0,0.0,0.0,0.0,0.0,0.0,0.0,-0.8220000000000001,0.0,0.62,0.0,0.0,0.0,-1.2570000000000001,0.0,1.547,0.0,0.591,0.0,-1.294,0.0,2.511,0.0,0.785,0.0,,,,,,,,,,,,,,,,,,,,,,,,,,,,,,,,,,,,,,,,,,,,,,,,,,,,,,,,,,,,,,,,,,,,,,,,,,,,,,,,,,,,,,,,,,,,,,,,,,,,,,,,,,,,,,,,,,,,,,,,,,,,,,,,,,,,,moveDown
accX,0.0,-0.726,-1.715,-0.726,0.0,0.0,0.0,-0.973,-2.2569999999999997,-0.95,0.0,0.0,-0.599,-0.68,-2.905,-1.0270000000000001,0.0,0.0,0.0,-1.344,-3.5860000000000003,-1.0959999999999999,0.0,0.0,-0.687,-1.3880000000000001,-3.5069999999999997,-1.225,0.802,0.0,0.0,-1.093,-3.225,-1.254,0.9179999999999999,0.0,0.0,-1.22,-3.0980000000000003,-1.331,0.932,0.0,-0.555,-1.097,-2.474,-1.406,0.972,0.0,0.0,0.0,-2.207,-1.22,0.904,0.0,0.0,-1.456,-2.354,-1.286,0.9159999999999999,0.0,0.0,-1.835,-2.299,-1.433,0.9009999999999999,0.0,0.0,-1.215,-2.021,-1.5430000000000001,0.797,0.0,-1.032,-1.351,-1.2830000000000001,-1.6740000000000002,0.89,0.0,-1.222,-0.8640000000000001,0.0,-1.568,1.031,0.0,0.0,0.0,0.0,-1.2990000000000002,0.9229999999999999,0.0,-0.72,-1.085,0.899,-1.399,0.823,0.0,-0.628,0.0,1.538,-1.4669999999999999,0.585,0.0,0.0,0.0,1.825,-1.3969999999999998,0.0,0.0,-0.5529999999999999,0.0,1.962,-1.295,0.0,0.0,-0.818,0.0,2.326,-1.139,0.0,0.0,-1.176,0.0,2.5580000000000003,-1.045,0.506,0.0,0.0,0.0,2.563,-0.904,0.0,0.0,0.0,-0.853,2.799,-0.94,0.0,0.0,-0.569,0.0,2.47,-0.767,0.0,0.0,-0.8959999999999999,0.0,2.122,0.0,0.0,0.0,0.0,0.0,1.744,0.0,0.0,0.0,-1.04,-0.591,1.736,0.0,0.0,0.0,-0.747,0.0,2.015,0.0,0.0,0.0,0.0,0.0,2.0140000000000002,0.0,0.0,0.0,0.0,-0.524,1.7890000000000001,0.0,0.0,0.0,0.0,-0.6709999999999999,1.054,0.0,0.0,0.0,0.0,-0.785,0.0,0.0,0.0,0.0,-0.691,0.0,0.0,0.0,0.0,0.0,-0.525,0.0,0.736,0.0,0.0,0.0,0.0,-0.5710000000000001,0.0,0.0,0.0,0.0,0.0,-1.041,0.0,0.0,0.0,0.0,0.0,-0.604,-0.5379999999999999,0.0,0.0,0.0,0.0,0.0,-0.534,0.0,0.0,0.0,0.0,0.0,-0.667,0.0,0.0,0.0,0.0,0.0,-0.8170000000000001,0.0,0.0,0.0,0.0,0.0,-0.604,0.0,0.0,0.0,0.0,0.0,0.0,0.0,0.0,0.0,0.0,0.0,0.0,0.0,0.0,0.0,0.0,0.0,0.0,0.0,0.0,0.0,0.0,0.0,0.0,0.0,0.0,0.0,0.0,0.0,0.0,0.0,0.0,0.0,0.0,0.0,0.0,0.0,0.0,0.0,0.0,0.0,0.0,0.0,0.0,0.0,0.0,0.0,0.0,0.0,0.0,0.0,0.0,0.0,0.0,0.0,0.0,0.0,0.0,0.0,0.0,0.0,0.0,0.0,0.0,-0.7090000000000001,0.0,0.0,0.0,0.0,-0.597,0.0,0.608,0.0,0.0,0.0,-0.57,0.0,1.966,0.0,0.618,0.0,-0.8220000000000001,0.0,3.5269999999999997,0.0,0.7,0.0,,,,,,,,,,,,,,,,,,,,,,,,,,,,,,,,,,,,,,,,,,,,,,,,,,,,,,,,,,,,,,,,,,,,,,,,,,,,,,,,,,,,,,,,,,,,,,,,,,,,,,,,,,,,,,,,,,,,,,,,,,,,,,,,,,,,,,,,,,,,,,,,,,,,,,,moveDown
accX,0.0,-0.835,-2.169,0.0,0.506,0.0,0.0,-0.564,-2.42,-0.55,0.66,0.503,0.0,-0.8170000000000001,-3.4789999999999996,-0.812,0.632,0.0,0.0,-1.224,-4.043,-0.982,0.716,0.0,-1.155,-1.311,-3.889,-1.071,0.997,0.0,-0.852,-2.2030000000000003,-3.487,-1.3530000000000002,1.207,0.59,0.0,-1.6159999999999999,-2.673,-1.506,1.143,0.0,0.0,-1.462,-2.41,-1.555,0.9159999999999999,0.0,0.0,-1.374,-2.1719999999999997,-1.53,0.831,0.0,0.0,-0.9440000000000001,-1.8319999999999999,-1.4480000000000002,0.893,0.0,-0.6409999999999999,-1.36,-1.54,-1.5319999999999998,0.982,0.0,0.0,-1.662,-0.779,-1.6569999999999998,1.043,0.0,0.0,-1.068,0.0,-1.6340000000000001,1.041,0.0,-0.588,-0.797,1.048,-1.534,1.015,0.0,0.0,-0.6409999999999999,1.558,-1.3519999999999999,0.872,0.0,-0.6679999999999999,0.0,1.695,-1.261,0.693,0.0,-1.046,-0.682,1.969,-1.35,0.516,0.0,-0.769,0.0,2.125,-1.338,0.527,0.0,0.0,0.0,2.3680000000000003,-1.2209999999999999,0.0,0.0,0.0,0.0,2.167,-0.943,0.0,0.0,-0.535,0.0,1.906,-0.807,0.0,0.0,0.0,0.0,1.663,-0.778,0.0,0.0,-0.693,0.0,1.536,-0.8270000000000001,0.0,0.0,-0.624,0.0,1.78,-0.804,0.0,0.0,-0.682,0.0,2.278,-0.747,0.0,0.0,0.0,0.0,2.3169999999999997,-0.524,0.0,0.0,0.0,0.0,1.913,0.0,0.0,0.0,0.0,0.0,0.0,0.0,0.0,0.0,0.0,0.0,0.0,0.0,0.0,0.0,0.0,0.0,0.0,0.0,0.0,0.0,0.0,0.0,1.05,0.0,0.0,0.0,0.0,0.0,1.47,0.0,0.0,0.0,0.0,0.0,1.141,0.0,0.0,0.0,0.0,0.0,0.635,0.0,0.0,0.0,-0.659,-0.693,0.0,0.0,0.0,0.0,-0.805,-0.612,0.0,0.0,0.0,0.0,0.0,0.0,0.795,0.0,0.0,0.0,0.0,0.0,0.6940000000000001,0.0,0.0,0.0,0.0,-0.675,0.0,0.0,0.0,0.0,0.0,0.0,0.0,0.0,0.0,0.0,0.0,0.0,-0.583,0.0,0.0,0.0,0.0,0.0,-0.764,0.0,0.0,0.0,0.0,-0.53,-0.848,0.0,0.0,0.0,0.0,0.0,0.0,0.0,0.0,0.0,0.0,0.0,0.0,0.0,0.0,0.0,0.0,0.0,0.0,0.0,0.0,0.0,0.0,0.0,0.0,0.0,0.0,0.0,0.0,0.0,-0.518,0.0,0.0,0.0,-0.602,0.0,-0.862,0.0,0.0,0.0,0.0,0.0,0.0,0.0,0.0,0.0,0.0,0.0,0.0,0.0,0.0,0.0,0.0,0.0,0.0,0.0,0.0,0.0,0.0,0.0,0.0,0.0,0.0,0.0,0.0,-0.652,0.0,0.0,0.0,0.0,0.0,0.0,0.9,0.0,0.0,0.0,-0.535,0.0,1.4269999999999998,0.0,0.0,0.0,-1.065,-0.5870000000000001,2.089,0.0,0.521,0.0,-1.556,-0.574,2.9819999999999998,0.0,0.7559999999999999,0.0,-1.46,0.0,3.687,0.0,0.9,0.0,-1.141,0.0,4.917,0.509,0.638,0.0,-1.171,0.993,5.898,1.002,0.0,0.0,-1.311,0.0,5.257000000000001,1.145,0.0,0.0,-1.4409999999999998,-1.6369999999999998,3.5189999999999997,0.973,0.0,0.0,-1.341,-0.679,3.324,1.0859999999999999,-0.604,0.0,-1.0759999999999998,0.0,2.955,1.554,-0.742,0.0,-0.903,0.0,1.699,1.745,-0.8370000000000001,0.0,,,,,,,,,,,,,,,,,,,,,,,,,,,,,,,,,,,,,,,,,,,,,,,,,,,,,,,,,,,,,,,,,,,,,,,,,,,,,,,,,,,,,moveDown
accX,0.0,-0.745,-2.131,-0.667,0.6970000000000001,0.0,0.0,-0.8109999999999999,-2.733,-0.7440000000000001,0.752,0.0,0.0,-1.422,-3.168,-0.8190000000000001,0.787,0.0,0.0,-2.104,-3.822,-1.41,0.96,0.0,0.0,-2.443,-4.692,-1.9180000000000001,1.0590000000000002,0.0,-1.097,-2.096,-4.229,-2.2159999999999997,1.236,0.0,-1.36,-1.4180000000000001,-3.023,-2.181,1.443,0.0,0.0,-1.5659999999999998,-2.4659999999999997,-2.033,1.405,0.0,0.0,-2.064,-2.0380000000000003,-2.009,1.371,0.0,0.0,-1.379,-1.062,-1.889,1.46,0.0,0.0,-1.1540000000000001,0.0,-1.7309999999999999,1.334,0.0,0.0,-1.391,0.0,-1.682,1.176,0.0,-0.7290000000000001,-0.958,0.0,-1.585,1.12,0.0,-0.98,-0.7879999999999999,0.934,-1.4369999999999998,1.078,0.0,-0.504,-0.563,1.588,-1.301,0.9109999999999999,0.0,-0.677,-1.0979999999999999,1.86,-1.334,0.722,0.0,0.0,0.0,2.182,-1.2790000000000001,0.511,0.0,-1.206,0.0,2.4090000000000003,-1.139,0.0,0.0,-1.564,0.0,2.825,-1.0859999999999999,0.0,0.0,-1.806,0.0,3.2910000000000004,-1.002,0.569,0.0,-0.93,0.0,3.134,-0.72,0.0,0.0,-0.502,0.0,2.6719999999999997,-0.5529999999999999,0.0,0.0,0.0,-0.5870000000000001,2.127,-0.541,0.0,0.0,-1.155,-0.657,1.969,-0.595,0.0,0.0,-0.9440000000000001,0.0,1.86,0.0,0.0,0.0,-0.731,0.0,1.651,0.0,0.0,0.0,-0.6409999999999999,0.0,1.4569999999999999,0.0,0.0,0.0,0.0,0.0,1.104,0.0,0.0,0.0,0.0,0.0,0.634,0.0,0.0,0.0,-0.977,0.0,0.0,0.0,0.0,0.0,0.0,0.0,0.0,0.0,0.0,0.0,0.0,0.0,0.0,0.0,0.0,0.0,0.0,0.0,0.0,0.0,0.0,0.0,0.0,0.0,0.0,0.0,0.0,0.0,0.0,0.0,0.0,0.0,0.0,0.0,0.0,0.0,-0.58,0.0,0.0,0.0,0.0,0.0,-0.619,0.0,0.0,0.0,0.0,0.0,-0.54,0.0,0.0,0.0,0.0,0.0,0.0,0.0,0.0,0.0,0.0,0.0,0.0,0.0,0.0,0.0,0.0,0.0,0.0,0.0,0.0,0.0,0.0,0.0,-0.512,0.0,0.0,0.0,0.0,0.0,0.0,0.0,0.0,0.0,0.0,0.0,0.0,0.0,0.0,0.0,0.0,0.0,0.0,0.0,0.0,0.0,0.0,0.0,0.0,0.0,0.0,0.0,0.0,0.0,0.0,0.0,0.0,0.0,0.0,0.0,0.0,0.0,0.0,0.0,0.0,0.0,0.6609999999999999,0.0,0.0,0.0,0.0,0.0,0.991,0.0,0.0,0.0,0.0,0.0,1.078,0.0,0.0,0.0,0.0,0.0,0.956,0.0,0.0,0.0,0.0,0.0,0.9,0.0,0.0,0.0,-0.8540000000000001,0.0,1.3,0.0,0.0,0.0,-1.136,-0.551,2.201,0.0,0.0,0.0,-2.678,0.871,3.594,0.0,0.622,0.0,-1.252,0.7659999999999999,4.47,0.873,0.524,0.0,-0.596,-0.9520000000000001,3.988,0.722,0.0,0.0,0.0,-0.5329999999999999,4.023,0.629,0.0,0.0,,,,,,,,,,,,,,,,,,,,,,,,,,,,,,,,,,,,,,,,,,,,,,,,,,,,,,,,,,,,,,,,,,,,,,,,,,,,,,,,,,,,,,,,,,,,,,,,,,,,,,,,,,,,,,,,,,,,,,,,,,,,,,,moveDown
accX,0.0,-0.887,-1.544,-0.642,0.0,0.0,-0.51,0.0,-1.766,-0.8390000000000001,0.0,0.0,-0.764,-0.7490000000000001,-2.279,-1.028,0.598,0.0,-0.529,-1.038,-2.336,-1.123,0.836,0.597,0.0,-1.436,-2.519,-1.13,0.977,0.503,0.0,-1.7069999999999999,-2.967,-1.216,0.857,0.0,0.0,-2.237,-3.068,-1.3869999999999998,0.797,0.0,-0.669,-2.008,-2.88,-1.6469999999999998,0.8490000000000001,0.0,-0.6859999999999999,-1.6019999999999999,-2.27,-1.681,1.16,0.0,-0.7509999999999999,-1.6640000000000001,-1.655,-1.7009999999999998,1.295,0.0,0.0,-1.4340000000000002,-0.812,-1.683,1.2209999999999999,0.0,0.0,-1.113,0.0,-1.649,0.937,0.0,0.0,-1.125,0.0,-1.645,0.7,0.0,0.0,-1.047,0.0,-1.595,0.7170000000000001,0.0,0.0,-0.851,0.0,-1.5319999999999998,0.775,0.0,0.0,-0.9470000000000001,0.532,-1.482,0.816,0.0,0.0,0.0,1.169,-1.306,0.8420000000000001,0.0,0.0,0.0,1.219,-1.078,0.726,0.0,0.0,-0.615,0.8759999999999999,-0.973,0.51,0.0,-0.732,-0.629,0.868,-1.054,0.0,0.0,-0.8859999999999999,0.0,1.331,-1.2109999999999999,0.0,0.0,-0.8059999999999999,0.0,1.7830000000000001,-1.136,0.0,0.0,0.0,0.0,1.633,-0.852,0.0,0.0,-0.894,0.0,1.5530000000000002,-0.755,0.0,0.0,-0.63,0.0,1.485,-0.763,0.0,0.0,0.0,0.0,1.2229999999999999,-0.779,0.0,0.0,-0.83,-0.531,1.3359999999999999,-0.857,0.0,0.0,-1.085,0.0,1.95,-0.8270000000000001,0.0,0.0,-1.1420000000000001,0.0,2.536,-0.601,0.0,0.0,0.0,0.0,2.198,0.0,0.0,0.0,0.0,0.0,1.131,0.0,0.0,0.0,-0.855,-0.637,0.5429999999999999,0.0,0.0,0.0,-1.5430000000000001,0.0,0.8190000000000001,0.0,0.0,0.0,-0.75,0.0,1.247,0.0,0.0,0.0,0.785,0.0,0.0,0.0,0.0,0.0,0.0,-0.8859999999999999,0.0,0.0,0.0,0.0,-0.727,-0.7490000000000001,0.0,0.0,0.0,0.0,-0.8140000000000001,0.0,0.0,0.0,0.0,0.0,0.0,0.0,0.747,0.0,0.0,0.0,0.7829999999999999,0.0,0.0,0.0,0.0,0.0,0.616,-0.718,-0.7070000000000001,0.0,0.0,0.0,0.0,-0.7859999999999999,-0.9279999999999999,0.0,0.0,0.0,-0.728,0.0,0.0,0.0,0.0,0.0,0.0,0.0,0.0,0.0,0.0,0.0,0.0,0.0,0.0,0.0,0.0,0.0,0.0,-0.652,0.0,0.0,0.0,0.0,0.0,-0.6759999999999999,0.0,0.0,0.0,0.0,-0.64,0.0,0.0,0.0,0.0,0.0,0.0,0.0,0.0,0.0,0.0,0.0,0.0,0.0,0.0,0.0,0.0,0.0,0.0,0.0,0.0,0.0,0.0,0.0,0.0,-0.545,0.0,0.0,0.0,0.0,-0.514,0.0,0.831,0.0,0.0,0.0,-0.9890000000000001,0.0,2.404,0.0,0.6940000000000001,0.0,-1.031,0.0,3.7960000000000003,0.0,0.789,0.0,-1.0170000000000001,-0.9990000000000001,4.102,0.0,0.56,0.0,,,,,,,,,,,,,,,,,,,,,,,,,,,,,,,,,,,,,,,,,,,,,,,,,,,,,,,,,,,,,,,,,,,,,,,,,,,,,,,,,,,,,,,,,,,,,,,,,,,,,,,,,,,,,,,,,,,,,,,,,,,,,,,,,,,,,,,,,,,,,,,,,moveDown
accX,0.0,-1.036,-2.2880000000000003,0.0,0.518,0.0,0.0,-1.3840000000000001,-3.109,-0.7340000000000001,0.616,0.0,-0.513,-1.768,-3.44,-1.2690000000000001,0.7040000000000001,0.0,0.0,-1.7080000000000002,-3.26,-1.577,0.764,0.0,0.0,-1.659,-2.833,-1.682,0.7979999999999999,0.0,0.0,-1.815,-2.6639999999999997,-1.675,0.8240000000000001,0.0,0.0,-1.6680000000000001,-2.4459999999999997,-1.681,0.907,0.0,0.0,-1.119,-2.3040000000000003,-1.652,0.943,0.0,0.0,-1.435,-2.2119999999999997,-1.5930000000000002,0.9570000000000001,0.0,0.0,-1.364,-1.4340000000000002,-1.607,1.044,0.0,0.579,-1.4780000000000002,-1.25,-1.528,1.067,0.0,0.564,-1.58,-1.0759999999999998,-1.567,1.028,0.0,0.0,-1.186,-0.655,-1.663,1.012,0.0,-0.757,-1.103,0.0,-1.742,1.046,0.0,-0.514,0.0,1.17,-1.585,1.15,0.0,-0.654,-0.528,1.538,-1.4909999999999999,1.015,0.0,-0.9159999999999999,0.0,2.147,-1.494,0.9570000000000001,0.0,-1.673,0.0,2.8369999999999997,-1.535,0.922,0.0,-1.095,0.0,3.719,-1.28,0.8440000000000001,0.0,0.0,0.0,3.445,-0.934,0.514,0.0,0.0,0.0,2.4730000000000003,-0.7190000000000001,0.0,0.0,-1.1079999999999999,-0.919,1.949,-0.9129999999999999,0.0,0.0,-1.714,-0.501,2.4090000000000003,-0.9790000000000001,0.516,0.0,0.0,0.596,2.202,-0.643,0.0,0.0,0.0,0.0,1.246,0.0,0.0,0.0,0.0,-0.8079999999999999,0.917,-0.635,0.0,0.0,-0.92,0.0,1.253,-0.603,0.0,0.0,-0.848,0.0,1.39,0.0,0.0,0.0,0.0,0.0,1.538,0.0,0.0,0.0,-0.547,0.0,1.546,0.0,0.0,0.0,0.0,-0.5660000000000001,1.165,0.0,0.0,0.0,-0.509,-0.594,0.858,0.0,0.0,0.0,0.0,0.0,0.0,0.0,0.0,0.0,0.0,-0.632,0.0,0.0,0.0,0.0,0.0,0.0,0.0,0.0,0.0,0.0,0.0,0.0,0.0,0.0,0.0,0.0,0.0,0.0,0.0,0.0,0.0,0.0,0.0,0.0,0.0,0.0,0.0,0.0,0.0,0.0,0.0,0.0,0.0,0.0,0.0,0.0,0.0,0.0,0.0,0.0,0.0,0.0,0.0,0.0,0.0,0.0,0.0,0.0,0.0,0.0,0.0,0.0,0.0,0.0,0.0,0.0,0.0,0.0,0.0,0.0,0.0,0.0,0.0,0.0,0.0,0.0,0.0,0.0,0.0,0.0,0.0,0.0,0.0,0.0,0.0,0.0,0.0,0.0,0.0,0.0,0.0,0.0,0.0,0.0,0.0,0.0,0.0,0.0,0.0,-0.626,0.0,0.0,0.0,0.0,0.0,0.0,0.0,0.0,0.0,0.0,-0.605,0.0,0.866,0.0,0.0,0.0,-0.696,0.0,1.66,0.0,0.527,0.0,-0.987,-1.13,1.913,0.0,0.5720000000000001,0.0,-1.3259999999999998,-1.167,3.1830000000000003,0.0,0.0,0.0,-1.4469999999999998,0.0,5.155,0.0,0.0,0.0,,,,,,,,,,,,,,,,,,,,,,,,,,,,,,,,,,,,,,,,,,,,,,,,,,,,,,,,,,,,,,,,,,,,,,,,,,,,,,,,,,,,,,,,,,,,,,,,,,,,,,,,,,,,,,,,,,,,,,,,,,,,,,,,,,,,,,,,,,,,,,,,,,,,,,,moveDown
accX,0.0,0.0,-1.93,-0.893,0.0,0.0,-0.547,-0.723,-2.403,-0.919,0.61,0.0,-0.9009999999999999,-0.8079999999999999,-2.8310000000000004,-0.9590000000000001,0.868,0.0,0.0,-1.2919999999999998,-3.113,-0.966,1.061,0.539,0.0,-2.7939999999999996,-3.228,-1.112,1.157,0.0,0.7190000000000001,-2.555,-3.147,-1.364,1.185,0.0,0.0,-1.785,-3.2889999999999997,-1.526,1.097,0.0,-1.578,-1.464,-3.002,-1.6269999999999998,1.089,0.0,-1.274,-1.167,-2.411,-1.709,1.255,0.0,-0.9229999999999999,-1.61,-1.796,-1.7180000000000002,1.35,0.0,0.0,-1.903,-1.311,-1.729,1.382,0.0,1.033,-1.9040000000000001,-1.1340000000000001,-1.7080000000000002,1.2,0.0,0.0,-1.844,-0.823,-1.72,0.9229999999999999,0.0,-0.575,-1.3730000000000002,0.0,-1.6869999999999998,0.8740000000000001,0.0,-1.082,-1.1079999999999999,0.5539999999999999,-1.663,0.9590000000000001,0.0,-0.647,-0.963,1.0959999999999999,-1.615,0.9279999999999999,0.0,-0.5820000000000001,-0.503,1.68,-1.5519999999999998,0.89,0.0,-0.71,0.0,2.089,-1.464,0.831,0.0,-0.8,-0.5479999999999999,2.329,-1.301,0.653,0.0,-0.726,0.0,2.617,-1.266,0.0,0.0,-0.888,0.0,2.5989999999999998,-1.24,0.0,0.0,-0.746,0.0,2.199,-1.074,0.0,0.0,-0.868,-0.515,1.621,-0.836,0.0,0.0,0.0,0.0,1.281,-0.6829999999999999,0.0,0.0,-1.053,-0.872,1.072,-0.748,0.0,0.0,-0.9620000000000001,0.0,1.393,-0.8,0.532,0.0,0.0,0.0,1.6059999999999999,-0.695,0.0,0.0,0.0,0.0,1.403,-0.53,0.0,0.0,0.0,0.0,1.1,0.0,0.0,0.0,-1.068,-0.5720000000000001,0.9359999999999999,0.0,0.0,0.0,-0.703,0.0,0.674,0.0,0.0,0.0,-1.102,-0.8059999999999999,0.877,0.0,0.0,0.0,0.0,0.0,1.369,0.0,0.0,0.0,0.0,0.0,1.1340000000000001,0.0,0.0,0.0,0.0,-0.738,0.644,0.0,0.0,0.0,-0.526,-1.034,0.0,0.0,0.0,0.0,-0.742,-0.698,0.64,0.0,0.0,0.0,0.0,0.0,0.9009999999999999,0.0,0.0,0.0,0.0,0.0,0.718,0.0,0.0,0.0,0.0,0.0,0.0,0.0,0.0,0.0,0.0,0.0,0.0,0.0,0.0,0.0,0.0,-0.6609999999999999,-0.804,0.0,0.0,0.0,0.0,0.0,-0.966,0.0,0.0,0.0,0.0,0.0,-0.759,0.0,0.0,0.0,0.0,0.0,-0.502,0.0,0.0,0.0,0.0,0.0,0.0,0.0,0.0,0.0,-0.536,0.0,0.695,0.0,0.0,0.0,0.0,0.0,1.03,0.0,0.0,0.0,0.55,0.0,0.871,0.0,0.0,0.0,0.0,0.0,0.55,0.0,0.0,0.0,0.0,-0.755,0.0,0.0,0.0,0.0,0.0,-1.1440000000000001,0.596,0.0,0.0,0.0,-1.296,0.0,2.306,0.0,0.0,0.0,-1.635,0.0,3.725,0.0,0.737,0.0,-0.625,0.0,4.172,0.0,0.604,0.0,,,,,,,,,,,,,,,,,,,,,,,,,,,,,,,,,,,,,,,,,,,,,,,,,,,,,,,,,,,,,,,,,,,,,,,,,,,,,,,,,,,,,,,,,,,,,,,,,,,,,,,,,,,,,,,,,,,,,,,,,,,,,,,,,,,,,,,,,,,,,,,,,,,,,,,moveDown
accX,0.0,0.0,-0.6579999999999999,0.0,0.0,0.0,0.0,0.0,-1.0290000000000001,-0.507,0.0,0.0,0.0,-0.642,-1.449,-0.5660000000000001,0.0,0.584,0.0,-0.752,-1.643,0.0,0.0,0.0,0.0,-1.099,-1.9340000000000002,0.0,0.0,0.0,0.0,-1.5519999999999998,-2.272,0.0,0.5870000000000001,0.0,0.0,-1.746,-2.6180000000000003,-0.635,0.685,0.0,0.0,-1.615,-2.803,-1.0590000000000002,0.7709999999999999,0.0,-0.586,-1.13,-2.449,-1.21,0.872,0.0,0.0,-1.225,-2.513,-1.188,1.028,0.0,0.0,-1.686,-2.733,-1.252,1.03,0.0,0.0,-1.541,-2.59,-1.4769999999999999,0.857,0.0,0.0,-1.655,-2.517,-1.621,0.89,0.0,0.0,-1.38,-2.053,-1.695,1.0859999999999999,0.0,0.665,-1.4709999999999999,-1.8230000000000002,-1.591,1.103,0.0,0.0,-1.993,-1.902,-1.53,0.972,0.0,0.0,-1.4880000000000002,-1.382,-1.6980000000000002,0.92,0.0,0.0,-1.0170000000000001,-0.5760000000000001,-1.8030000000000002,0.9540000000000001,0.0,0.0,0.0,0.0,-1.742,1.065,0.0,0.0,0.0,0.626,-1.531,1.034,0.0,-0.575,-0.506,1.063,-1.459,0.8009999999999999,0.0,-0.664,0.0,1.726,-1.585,0.6890000000000001,0.0,-0.909,0.0,2.011,-1.6030000000000002,0.534,0.0,0.0,0.0,2.394,-1.541,0.0,0.0,-0.769,0.0,2.366,-1.2770000000000001,0.0,0.0,-1.0270000000000001,0.0,2.0709999999999997,-1.094,0.0,0.0,-1.008,-0.757,1.839,-1.112,0.0,0.0,0.0,0.0,1.6669999999999998,-1.182,0.0,0.0,-0.555,0.0,1.517,-1.149,0.0,0.0,-0.792,0.0,1.531,-1.01,0.0,0.0,-0.8390000000000001,0.0,1.8019999999999998,-0.966,0.0,0.0,0.0,0.0,1.475,-0.6709999999999999,0.0,0.0,-0.6579999999999999,-0.774,1.136,-0.669,0.0,0.0,0.0,0.0,0.963,-0.604,0.0,0.0,0.0,0.0,0.732,-0.506,0.0,0.0,-0.848,-0.665,0.838,0.0,0.0,0.0,-0.631,-0.597,1.0979999999999999,0.0,0.0,0.0,0.0,-0.794,0.612,0.0,0.0,0.0,0.0,-0.698,0.841,0.0,0.0,0.0,-1.033,-0.586,1.3559999999999999,0.0,0.0,0.0,0.0,0.0,1.5630000000000002,0.0,0.0,0.0,0.0,-0.502,1.182,0.0,0.0,0.0,-0.985,-0.607,1.047,0.0,0.0,0.0,-0.603,0.0,0.899,0.0,0.0,0.0,0.0,0.0,0.555,0.0,0.0,0.0,0.0,0.0,0.513,0.0,0.0,0.0,0.0,0.0,0.0,0.0,0.0,0.0,0.0,0.0,0.0,0.0,0.0,0.0,0.0,0.0,0.0,0.0,0.0,0.0,0.0,0.0,-0.655,0.0,0.0,0.0,0.0,0.0,0.0,0.0,0.0,0.0,0.0,0.0,0.0,0.0,0.0,0.0,0.0,-0.506,0.0,0.0,0.0,0.0,0.0,0.0,0.634,0.0,0.0,0.0,-0.899,0.0,1.379,0.0,0.564,0.0,-0.8340000000000001,0.0,2.637,0.0,0.659,0.0,,,,,,,,,,,,,,,,,,,,,,,,,,,,,,,,,,,,,,,,,,,,,,,,,,,,,,,,,,,,,,,,,,,,,,,,,,,,,,,,,,,,,,,,,,,,,,,,,,,,,,,,,,,,,,,,,,,,,,,,,,,,,,,,,,,,,,,,,,,,,,,,,moveDown
accX,0.0,-0.67,-1.015,-0.541,0.0,0.0,0.0,-0.852,-1.5219999999999998,-0.748,0.529,0.5870000000000001,0.0,-1.092,-2.086,-0.9490000000000001,0.593,0.6709999999999999,0.0,-1.255,-2.081,-0.924,0.794,0.5720000000000001,0.0,-1.4280000000000002,-2.233,-0.85,0.983,0.0,-0.504,-2.287,-2.556,-0.977,1.172,0.0,0.0,-2.352,-2.456,-1.315,1.067,0.0,0.0,-1.367,-2.3040000000000003,-1.381,0.899,0.0,-0.634,-1.535,-2.65,-1.379,0.932,0.0,-0.765,-1.556,-2.8139999999999996,-1.411,1.067,0.0,0.0,-2.443,-2.2030000000000003,-1.7169999999999999,1.235,0.0,0.605,-1.889,-1.401,-1.864,1.196,0.0,0.657,-1.3459999999999999,-1.068,-1.736,1.014,0.0,0.0,-1.6740000000000002,-1.004,-1.6159999999999999,0.871,0.0,-0.5579999999999999,-0.871,0.0,-1.6680000000000001,0.925,-0.648,-0.5479999999999999,-0.914,0.0,-1.607,0.88,-0.633,-0.6629999999999999,0.0,0.779,-1.624,0.8,0.0,-0.968,0.0,1.545,-1.5030000000000001,0.795,0.0,0.0,0.0,1.774,-1.242,0.716,0.0,-0.52,0.0,1.8119999999999998,-1.133,0.635,0.0,0.0,0.0,1.541,-1.147,0.0,0.0,0.0,0.0,1.4069999999999998,-1.2209999999999999,0.0,0.0,0.0,0.0,1.126,-1.167,0.0,0.0,-1.105,0.0,1.224,-1.093,0.0,0.0,-1.072,0.0,1.62,-1.063,0.556,0.0,-1.239,0.0,2.275,-0.995,0.72,0.0,0.0,0.0,2.718,-0.8959999999999999,0.613,0.0,0.0,0.0,2.7430000000000003,-0.7859999999999999,0.0,0.0,-0.763,0.0,2.123,-0.598,0.0,0.0,-1.163,0.0,1.485,0.0,0.0,0.0,-0.8079999999999999,0.0,0.9590000000000001,0.0,0.0,0.0,0.0,0.0,0.522,0.0,0.0,0.0,0.0,-0.578,0.621,0.0,0.0,0.0,0.0,0.0,0.8029999999999999,0.0,0.0,0.0,0.0,0.0,0.8809999999999999,0.0,0.0,0.0,0.0,0.0,0.8079999999999999,0.0,0.0,0.0,0.0,0.0,0.9590000000000001,0.0,0.0,0.0,0.0,0.0,0.847,0.0,0.0,0.0,0.0,0.0,0.8859999999999999,0.0,0.0,0.0,0.0,0.0,0.6609999999999999,0.0,0.0,0.0,0.0,0.0,0.0,0.0,0.0,0.0,0.51,0.0,0.0,0.0,0.0,0.0,0.0,-0.542,-0.889,0.0,0.0,0.0,0.0,0.0,-0.665,0.0,0.0,0.0,0.0,0.0,0.0,0.0,0.0,0.0,0.0,0.0,0.0,0.0,0.0,0.0,0.0,0.0,0.0,0.0,0.0,0.0,0.0,0.0,0.0,0.0,0.0,0.0,-0.861,-1.032,0.0,0.0,0.0,0.0,-1.359,-0.848,0.0,0.0,0.853,0.0,,,,,,,,,,,,,,,,,,,,,,,,,,,,,,,,,,,,,,,,,,,,,,,,,,,,,,,,,,,,,,,,,,,,,,,,,,,,,,,,,,,,,,,,,,,,,,,,,,,,,,,,,,,,,,,,,,,,,,,,,,,,,,,,,,,,,,,,,,,,,,,,,,,,,,,,,,,,,,,,,,,,,,,,,,,,,,,,,,,,,moveDown
accX,0.0,-1.071,-2.068,-0.596,0.648,0.0,0.0,-0.932,-2.8110000000000004,-0.821,0.8009999999999999,0.59,0.0,-1.83,-3.7119999999999997,-1.094,1.043,0.512,0.0,-2.443,-3.6719999999999997,-1.325,1.391,0.0,-0.851,-2.394,-2.783,-1.452,1.5819999999999999,0.0,0.0,-1.9069999999999998,-2.2840000000000003,-1.439,1.4469999999999998,0.0,0.0,-2.242,-2.565,-1.463,1.112,0.0,-0.66,-1.732,-2.315,-1.6019999999999999,1.013,0.0,-0.96,-1.756,-2.147,-1.695,1.15,0.0,0.0,-1.4909999999999999,-1.85,-1.7069999999999999,1.232,0.0,0.0,-1.9509999999999998,-1.589,-1.744,1.173,0.0,0.0,-1.518,-0.9990000000000001,-1.665,1.06,0.0,0.0,-0.865,-0.624,-1.436,0.977,0.0,0.0,-1.5,-0.863,-1.445,0.7659999999999999,0.0,-0.9,-1.2790000000000001,0.0,-1.569,0.8740000000000001,0.0,0.0,-0.826,0.0,-1.5519999999999998,0.818,0.0,0.0,-0.564,0.565,-1.557,0.74,0.0,-0.9990000000000001,-0.9470000000000001,1.367,-1.645,0.8109999999999999,0.0,-0.9420000000000001,0.0,2.3280000000000003,-1.339,0.67,0.0,-1.885,0.0,2.515,-1.2590000000000001,0.0,0.0,-1.66,0.0,3.19,-1.284,0.6509999999999999,0.0,-1.273,0.0,3.694,-1.139,0.637,0.0,-0.938,0.0,3.7089999999999996,-0.868,0.53,0.0,0.0,0.0,2.682,-0.519,0.0,0.0,-0.8590000000000001,0.0,1.7630000000000001,0.0,0.0,0.0,-1.234,0.0,1.2990000000000002,-0.508,0.0,0.0,-0.883,0.0,1.0979999999999999,-0.513,0.0,0.0,-0.9209999999999999,0.0,1.426,0.0,0.0,0.0,-0.87,0.0,1.5090000000000001,0.0,0.0,0.0,-0.536,0.0,1.135,0.0,0.0,0.0,0.0,0.0,0.601,0.0,0.0,0.0,0.0,0.0,0.515,0.0,0.0,0.0,0.0,0.0,0.0,0.0,0.0,0.0,0.0,0.0,0.0,0.0,0.0,0.0,0.0,0.0,0.0,0.0,0.0,0.0,0.0,-0.59,0.0,0.0,0.0,0.0,0.0,0.0,0.0,0.0,0.0,0.0,0.0,0.0,0.0,0.0,0.0,0.0,0.0,0.0,0.693,0.0,0.0,0.0,0.0,0.0,0.0,0.0,0.0,0.0,0.0,-0.599,0.0,0.0,0.0,0.0,0.0,-0.516,0.0,0.0,0.0,0.0,0.0,-0.512,0.0,0.0,0.0,0.0,0.0,0.0,0.805,0.0,0.0,0.0,0.0,0.0,1.002,0.0,0.0,0.0,0.0,0.0,0.5870000000000001,0.0,0.0,0.0,0.0,0.0,0.0,0.0,0.0,0.0,-0.563,0.0,0.531,0.0,0.0,0.0,-0.657,0.0,1.082,0.0,0.0,0.0,-1.757,0.0,2.181,0.0,0.0,0.0,-2.0,0.0,3.9739999999999998,0.0,0.0,0.0,-2.512,0.0,4.567,0.0,0.0,0.0,,,,,,,,,,,,,,,,,,,,,,,,,,,,,,,,,,,,,,,,,,,,,,,,,,,,,,,,,,,,,,,,,,,,,,,,,,,,,,,,,,,,,,,,,,,,,,,,,,,,,,,,,,,,,,,,,,,,,,,,,,,,,,,,,,,,,,,,,,,,,,,,,,,,,,,,,,,,,,,,,,,,,,,,,moveDown
accX,0.501,-0.929,-1.1520000000000001,0.0,0.0,0.0,0.688,-1.135,-1.8630000000000002,-0.5820000000000001,0.578,0.0,0.0,-1.111,-2.4459999999999997,-0.8240000000000001,0.628,0.0,-1.208,-1.2670000000000001,-2.6060000000000003,-0.885,0.86,0.0,-1.536,-1.3559999999999999,-2.8289999999999997,-0.8640000000000001,1.179,0.0,-0.955,-2.141,-2.58,-0.997,1.567,0.0,0.0,-2.7569999999999997,-2.469,-1.264,1.39,0.0,0.843,-2.186,-2.476,-1.3619999999999999,1.089,0.0,0.0,-2.097,-3.085,-1.39,1.0170000000000001,0.0,-1.011,-2.418,-2.989,-1.5590000000000002,1.2770000000000001,0.0,-0.804,-2.096,-2.38,-1.662,1.54,0.0,0.0,-2.154,-2.0669999999999997,-1.784,1.364,0.0,0.0,-2.005,-1.825,-1.9240000000000002,1.04,0.0,0.0,-1.535,-1.1,-1.9509999999999998,0.99,0.0,-0.64,-0.945,0.0,-1.806,1.035,0.0,-0.809,-1.103,0.0,-1.7069999999999999,1.215,0.0,0.0,-0.872,1.102,-1.611,1.22,0.0,0.0,-0.5720000000000001,1.6980000000000002,-1.517,0.9490000000000001,0.0,0.0,0.0,2.005,-1.3840000000000001,0.711,0.0,-0.647,0.0,2.0340000000000003,-1.284,0.563,0.0,-0.654,0.0,1.8780000000000001,-1.2329999999999999,0.599,0.0,-1.455,0.0,2.009,-1.3419999999999999,0.718,0.0,-1.155,0.0,2.16,-1.27,0.701,0.0,-1.295,0.555,2.459,-1.073,0.609,0.0,-1.295,0.5589999999999999,2.2230000000000003,-0.8540000000000001,0.0,0.0,-1.347,0.0,1.733,-0.7490000000000001,0.0,0.0,-0.882,0.0,1.4909999999999999,-0.861,0.0,0.0,0.0,0.0,1.32,-0.8140000000000001,0.0,0.0,-0.903,0.0,1.281,-0.588,0.0,0.0,0.0,0.0,0.807,0.0,0.0,0.0,-0.52,-0.86,0.644,-0.565,0.0,0.0,-0.528,-0.72,1.65,-0.774,0.0,0.0,0.0,0.0,2.529,-0.6709999999999999,0.0,0.0,0.64,0.0,2.278,0.0,0.0,0.0,0.797,-0.852,0.706,0.0,0.0,0.0,0.713,-1.413,-0.638,0.0,-0.556,0.0,0.0,-1.337,-0.8809999999999999,0.0,0.0,0.0,-0.8170000000000001,0.0,0.0,0.0,0.0,0.0,0.0,0.0,0.578,0.0,0.0,0.0,1.157,0.0,0.0,0.0,0.0,0.0,0.516,-1.063,-0.63,0.0,0.0,0.0,-0.7490000000000001,-0.605,0.0,0.0,0.0,0.0,-1.225,0.0,0.0,0.0,0.0,0.0,-0.8109999999999999,0.0,1.094,0.0,0.0,0.0,0.0,0.0,1.51,0.0,0.0,0.0,0.0,0.0,1.185,0.0,0.0,0.0,0.0,0.0,0.0,0.0,0.0,0.0,-0.757,0.0,0.0,0.0,0.0,0.0,-0.612,0.0,0.0,0.0,0.0,0.0,0.0,0.0,0.0,0.0,0.0,0.0,0.0,0.0,0.0,0.0,0.0,0.0,0.0,0.0,0.58,0.0,0.0,0.0,-0.6509999999999999,0.0,1.015,0.0,0.0,0.0,-1.2770000000000001,0.0,1.77,0.0,0.0,0.0,-1.453,0.0,2.923,0.0,0.5329999999999999,0.0,-0.9079999999999999,0.0,4.171,0.6559999999999999,0.513,0.0,0.0,0.0,4.939,0.8109999999999999,0.0,0.0,,,,,,,,,,,,,,,,,,,,,,,,,,,,,,,,,,,,,,,,,,,,,,,,,,,,,,,,,,,,,,,,,,,,,,,,,,,,,,,,,,,,,,,,,,,,,,,,,,,,,,,,,,,,,,,,,,,,,,,,,,,,,,,,,,,,,,,,,,,moveDown
accX,0.0,-0.8420000000000001,-1.2570000000000001,-0.594,0.594,0.0,0.0,-1.1740000000000002,-1.973,-0.7,0.613,0.547,-1.3730000000000002,-0.6970000000000001,-2.852,-0.938,0.784,0.695,-0.91,-1.24,-3.1910000000000003,-1.051,1.054,0.867,-0.657,-1.871,-3.326,-1.136,1.255,0.915,0.0,-2.102,-3.469,-1.2429999999999999,1.335,0.75,-0.562,-2.113,-4.027,-1.349,1.285,0.503,-1.07,-3.023,-4.1160000000000005,-1.5619999999999998,1.305,0.0,-0.823,-2.443,-3.472,-1.84,1.4880000000000002,0.0,0.0,-2.324,-2.1919999999999997,-1.9869999999999999,1.739,0.0,0.821,-1.916,-1.297,-1.871,1.521,0.0,0.0,-1.6469999999999998,0.0,-1.765,1.3780000000000001,0.0,0.0,-0.532,0.0,-1.569,1.268,0.0,-0.701,-1.199,0.541,-1.725,1.067,0.0,0.0,0.0,1.401,-1.63,1.01,0.0,-0.5529999999999999,0.0,2.191,-1.47,0.919,0.0,0.0,0.0,2.193,-1.193,0.626,0.0,-0.5489999999999999,0.0,2.0540000000000003,-1.148,0.5329999999999999,0.0,-1.745,0.0,2.583,-1.258,0.742,0.0,-1.072,0.521,3.427,-1.18,0.6890000000000001,0.0,0.0,0.71,3.0789999999999997,-0.867,0.0,0.0,0.0,0.0,2.222,-0.6759999999999999,0.0,0.0,-2.095,-0.638,1.849,-0.9129999999999999,0.0,0.0,-1.756,0.0,1.923,-0.988,0.66,0.0,0.0,0.0,1.5130000000000001,-0.797,0.0,0.0,0.775,0.0,0.0,-0.598,0.0,0.0,0.0,-0.629,0.0,-0.698,0.0,0.0,0.0,0.0,0.0,-0.75,0.0,0.0,0.0,-0.528,0.0,-0.703,0.0,0.0,-0.818,0.0,0.0,-0.596,0.629,0.0,-0.632,0.0,0.773,0.0,0.7140000000000001,0.0,0.0,-0.5710000000000001,1.0190000000000001,0.0,0.0,0.0,0.0,-0.647,0.996,0.0,0.0,0.0,-1.0270000000000001,-0.595,0.9420000000000001,0.0,0.0,0.0,-1.403,0.0,1.229,0.0,0.0,0.0,0.0,0.0,1.125,0.0,0.0,0.0,0.0,0.0,0.586,0.0,0.0,0.0,0.0,0.0,0.0,0.0,0.0,0.0,0.0,0.0,0.0,0.0,0.0,0.0,0.0,0.0,0.0,0.0,0.0,0.0,0.0,0.0,0.0,0.0,0.0,0.0,0.0,0.0,0.0,0.0,0.0,0.0,0.0,0.0,0.0,0.0,0.0,0.0,0.0,0.0,0.0,0.0,0.0,0.0,0.0,0.0,0.0,0.0,0.0,0.0,0.0,0.0,0.0,0.0,0.0,0.0,0.0,0.0,0.0,0.0,0.0,0.0,0.0,0.0,0.0,0.0,0.0,0.0,-0.753,0.0,0.56,0.0,0.0,0.0,-1.094,-0.535,1.092,0.0,0.0,0.0,-0.946,0.0,2.332,0.0,0.569,0.0,-1.129,0.0,3.748,0.0,0.708,0.0,-0.9009999999999999,0.0,4.694,0.7609999999999999,0.519,0.0,-0.669,0.0,4.942,0.887,0.0,0.0,-0.953,0.0,5.07,1.015,0.0,0.0,,,,,,,,,,,,,,,,,,,,,,,,,,,,,,,,,,,,,,,,,,,,,,,,,,,,,,,,,,,,,,,,,,,,,,,,,,,,,,,,,,,,,,,,,,,,,,,,,,,,,,,,,,,,,,,,,,,,,,,,,,,,,,,,,,,,,,,,,,,,,,,,,,,,,,,moveDown
accX,0.0,-1.568,-2.275,0.0,0.621,0.0,1.268,-2.0340000000000003,-3.048,-0.785,0.615,0.0,0.615,-2.301,-4.0089999999999995,-1.23,0.575,0.0,0.0,-2.358,-4.269,-1.4340000000000002,0.8390000000000001,0.0,-0.826,-3.158,-4.256,-1.558,1.244,0.0,-0.8370000000000001,-2.93,-3.365,-1.8530000000000002,1.578,0.0,0.0,-2.762,-2.625,-2.045,1.5190000000000001,0.0,0.5660000000000001,-2.477,-1.925,-2.207,1.268,0.0,0.0,-1.952,-1.122,-2.199,1.037,0.0,0.0,-1.8019999999999998,-0.713,-2.0669999999999997,1.005,-0.513,0.0,-1.541,0.0,-1.999,0.919,-0.608,0.0,-1.0659999999999998,0.0,-1.983,0.722,-0.61,-0.797,-1.01,0.0,-1.993,0.612,-0.565,-0.696,0.0,0.976,-1.9509999999999998,0.743,-0.561,0.0,-0.6779999999999999,1.515,-1.791,0.7040000000000001,-0.5539999999999999,0.0,0.0,1.8230000000000002,-1.67,0.546,-0.73,-0.958,0.0,2.008,-1.564,0.0,-0.764,-1.083,0.0,2.525,-1.391,0.0,-0.532,-1.76,0.0,3.037,-1.296,0.547,0.0,-1.155,0.0,3.3939999999999997,-1.052,0.581,0.0,0.0,0.0,3.016,-0.639,0.0,0.0,0.0,-0.6579999999999999,1.7469999999999999,-0.544,0.0,0.0,-0.742,-1.089,1.249,-0.73,0.0,-0.634,-1.415,-0.695,1.306,-0.843,0.0,-0.662,-1.203,0.0,1.6909999999999998,-0.6890000000000001,0.0,0.0,0.0,0.0,0.987,0.0,0.0,0.0,0.0,-0.546,0.0,0.0,0.0,0.0,-0.7909999999999999,-1.202,-0.602,-0.6559999999999999,0.0,0.0,-1.3940000000000001,-0.512,0.0,-0.795,0.0,0.0,-1.12,0.0,0.9990000000000001,-0.609,0.55,0.0,-0.9520000000000001,0.0,1.6580000000000001,0.0,0.591,0.0,0.0,0.0,1.57,0.0,0.0,0.0,-0.619,-0.778,1.262,0.0,0.0,0.0,-0.628,0.0,1.271,0.0,0.0,0.0,-0.9329999999999999,0.0,1.325,0.0,0.0,0.0,0.0,0.0,0.721,0.0,0.0,0.0,0.0,-0.708,0.0,0.0,0.0,0.0,0.0,-0.6729999999999999,0.0,0.0,0.0,0.0,0.0,0.0,0.0,0.0,0.0,0.0,0.0,0.0,0.0,0.0,0.0,0.0,0.0,0.0,0.0,0.0,0.0,0.0,0.514,0.0,0.0,0.0,0.0,0.0,0.0,0.0,0.0,0.0,0.0,0.0,0.0,0.0,0.0,0.0,0.0,0.0,0.0,0.0,0.506,0.0,0.0,0.0,0.0,0.0,0.9520000000000001,0.0,0.0,0.0,-0.556,0.0,1.581,0.0,0.0,0.0,-1.156,0.0,2.455,0.0,0.0,0.0,-1.105,0.0,3.883,0.0,0.5820000000000001,0.0,-0.59,0.0,4.351,0.6859999999999999,0.0,0.0,,,,,,,,,,,,,,,,,,,,,,,,,,,,,,,,,,,,,,,,,,,,,,,,,,,,,,,,,,,,,,,,,,,,,,,,,,,,,,,,,,,,,,,,,,,,,,,,,,,,,,,,,,,,,,,,,,,,,,,,,,,,,,,,,,,,,,,,,,,,,,,,,,,,,,,,,,,,,,,,,,,,,,,,,,,,,,,,,,,,,moveDown
accX,0.0,-0.6679999999999999,-0.961,0.0,0.0,0.0,0.0,-0.8590000000000001,-1.5530000000000002,-0.505,0.0,0.0,0.0,-1.064,-1.942,-0.637,0.7070000000000001,0.0,0.0,-1.517,-2.338,-0.654,0.9109999999999999,0.0,0.0,-1.9869999999999999,-2.763,-0.723,1.07,0.0,0.0,-1.848,-3.424,-0.9079999999999999,1.193,0.0,0.0,-2.282,-3.8289999999999997,-1.145,1.214,0.0,0.0,-2.535,-3.7030000000000003,-1.405,1.409,0.0,0.0,-2.478,-2.6460000000000004,-1.676,1.49,0.0,0.715,-2.126,-1.632,-1.797,1.3530000000000002,0.0,0.983,-1.8969999999999998,-1.1740000000000002,-1.7919999999999998,1.018,0.0,0.0,-1.318,-1.052,-1.685,0.684,-0.645,0.0,-1.6880000000000002,-1.1909999999999998,-1.608,0.504,-0.706,-0.7120000000000001,-1.308,-0.9009999999999999,-1.705,0.5429999999999999,-0.792,-0.569,-0.893,0.0,-1.808,0.654,-0.722,-0.917,0.0,1.158,-1.933,0.654,-0.517,-0.602,0.0,2.126,-1.806,0.63,0.0,0.0,0.59,2.6719999999999997,-1.5719999999999998,0.568,0.0,-0.619,0.0,2.533,-1.21,0.0,0.0,-0.79,0.0,2.383,-1.081,0.0,0.0,-1.3880000000000001,0.0,2.285,-0.983,0.0,0.0,-0.975,0.0,2.457,-1.092,0.0,0.0,-0.76,0.0,2.542,-1.119,0.0,0.0,0.0,0.0,2.617,-0.9159999999999999,0.0,0.0,0.0,0.0,2.005,-0.588,0.0,0.0,0.0,0.0,1.385,0.0,0.0,0.0,-0.9259999999999999,-0.632,0.815,0.0,0.0,0.0,-0.938,0.0,0.809,-0.741,0.0,0.0,-1.087,0.0,1.183,-0.67,0.0,0.0,-0.68,0.0,1.492,0.0,0.0,0.0,0.0,0.0,1.065,0.0,0.0,0.0,0.667,-0.7609999999999999,0.0,0.0,0.0,0.0,0.0,-1.252,-0.915,0.0,0.0,0.0,-0.628,-0.7090000000000001,-0.765,-0.536,0.0,0.0,-0.992,0.0,0.0,0.0,0.0,0.0,-0.555,0.0,0.643,0.0,0.0,0.0,0.0,0.0,0.7290000000000001,0.0,0.0,0.0,0.0,-0.9990000000000001,0.0,0.0,0.0,0.0,0.0,-0.841,0.0,0.0,0.0,0.0,-0.71,0.0,0.0,0.0,0.0,0.0,-0.625,0.0,0.693,0.0,0.0,0.0,-0.5720000000000001,0.0,0.9,0.0,0.0,0.0,0.0,0.0,0.955,0.0,0.0,0.0,0.0,0.0,0.64,0.0,0.0,0.0,0.0,0.0,0.503,0.0,0.0,0.0,0.0,0.0,0.557,0.0,0.0,0.0,0.0,0.0,0.596,0.0,0.0,0.0,0.0,0.0,0.7559999999999999,0.0,0.0,0.0,-0.838,0.0,1.37,0.0,0.0,0.0,-1.5119999999999998,0.0,2.479,0.0,0.713,0.0,,,,,,,,,,,,,,,,,,,,,,,,,,,,,,,,,,,,,,,,,,,,,,,,,,,,,,,,,,,,,,,,,,,,,,,,,,,,,,,,,,,,,,,,,,,,,,,,,,,,,,,,,,,,,,,,,,,,,,,,,,,,,,,,,,,,,,,,,,,,,,,,,,,,,,,,,,,,,,,,,,,,,,,,,,,,,,,,,,,,,moveDown
accX,0.708,-1.111,-0.6659999999999999,-0.7809999999999999,0.0,0.0,0.0,-0.99,-1.014,-0.91,0.0,0.0,0.0,-0.898,-1.429,-0.9840000000000001,0.0,0.0,0.0,-1.061,-1.8519999999999999,-0.868,0.62,0.0,-0.731,-1.36,-2.345,-0.78,1.0,0.503,0.0,-1.6780000000000002,-2.742,-0.7929999999999999,1.3219999999999998,0.0,1.082,-2.123,-3.302,-0.91,1.37,0.0,0.5529999999999999,-2.722,-3.576,-1.177,1.416,0.0,0.0,-2.589,-3.048,-1.4369999999999998,1.4909999999999999,0.0,0.0,-2.0540000000000003,-2.659,-1.5330000000000001,1.449,0.0,0.0,-2.242,-2.412,-1.6840000000000002,1.34,0.0,0.0,-1.64,-1.43,-1.8,1.193,0.0,0.0,-1.226,-0.795,-1.78,0.956,0.0,0.0,-1.0759999999999998,0.0,-1.671,0.6970000000000001,-0.613,-0.898,0.0,1.044,-1.5330000000000001,0.7829999999999999,-0.679,0.0,0.0,1.266,-1.406,0.665,-0.535,-0.634,0.0,1.5190000000000001,-1.3869999999999998,0.0,0.0,0.8,0.6579999999999999,1.053,-1.249,0.0,0.0,0.0,0.0,0.594,-1.111,0.0,-0.508,-1.484,0.0,0.879,-1.189,0.0,-0.622,-1.16,0.764,1.815,-1.2790000000000001,0.0,-0.504,-0.545,0.8009999999999999,2.003,-1.094,0.0,0.0,0.6629999999999999,0.528,1.464,-0.809,0.0,0.0,0.0,0.0,0.941,-0.687,0.0,0.0,0.0,0.0,0.78,-0.765,0.0,0.0,-1.0490000000000002,0.0,1.051,-0.879,0.0,0.0,0.0,0.7170000000000001,1.2830000000000001,-0.825,0.0,0.0,0.0,0.514,0.9,-0.581,0.0,0.0,0.0,0.0,0.0,0.0,0.0,0.0,-0.9590000000000001,-0.815,0.0,0.0,0.0,0.0,-1.6540000000000001,-0.723,0.562,-0.6829999999999999,0.0,0.0,-1.531,0.0,1.6159999999999999,-0.857,0.511,0.0,-0.568,0.0,1.9140000000000001,-0.71,0.693,0.0,0.0,0.0,1.6580000000000001,0.0,0.0,0.0,0.0,-0.7070000000000001,0.91,0.0,0.0,0.0,-0.9620000000000001,-0.688,0.637,0.0,0.0,0.0,0.0,0.0,0.0,0.0,0.0,0.0,0.0,0.0,0.0,0.0,0.0,0.0,0.0,-0.588,0.0,0.0,0.0,0.0,0.0,0.0,0.0,0.0,0.0,0.0,0.0,0.0,0.631,0.0,0.0,0.0,0.0,0.0,0.935,0.0,0.0,0.0,0.0,0.0,0.858,0.0,0.0,0.0,0.0,0.0,0.0,0.0,0.0,0.0,0.0,-0.599,0.0,0.0,0.0,0.0,0.0,0.0,0.0,0.0,0.0,0.0,0.0,0.0,0.0,0.0,0.0,0.0,0.0,0.0,0.652,0.0,0.0,0.0,0.0,0.0,0.624,0.0,0.0,0.0,0.0,0.0,0.5529999999999999,0.0,0.0,0.0,-0.86,0.0,0.735,0.0,0.0,0.0,-1.516,0.0,1.3980000000000001,0.0,0.0,0.0,-1.893,0.733,2.806,0.0,0.861,0.0,-1.768,1.0490000000000002,4.461,0.507,0.943,0.0,,,,,,,,,,,,,,,,,,,,,,,,,,,,,,,,,,,,,,,,,,,,,,,,,,,,,,,,,,,,,,,,,,,,,,,,,,,,,,,,,,,,,,,,,,,,,,,,,,,,,,,,,,,,,,,,,,,,,,,,,,,,,,,,,,,,,,,,,,,,,,,,,,,,,,,,,,,,,moveDown
accX,0.0,-1.139,-1.7790000000000001,-0.596,0.0,0.0,0.0,-0.935,-2.149,-0.8140000000000001,0.0,0.0,0.0,-1.29,-2.786,-1.016,0.612,0.0,0.0,-2.043,-3.321,-1.21,0.706,0.0,1.025,-2.636,-3.912,-1.453,0.6890000000000001,0.0,0.6829999999999999,-3.415,-4.539,-1.765,0.7879999999999999,0.0,0.0,-3.6919999999999997,-4.73,-2.02,0.9309999999999999,0.0,-0.54,-3.8139999999999996,-3.969,-2.2769999999999997,1.149,0.0,-0.688,-2.7710000000000004,-2.615,-2.366,1.35,0.0,-0.8290000000000001,-2.269,-1.173,-2.318,1.45,0.0,0.0,-1.633,0.0,-2.181,1.276,0.0,0.0,-1.128,0.659,-2.0140000000000002,1.15,0.0,-0.521,-0.863,1.5,-1.839,1.038,0.0,1.032,0.0,1.4,-1.492,0.588,-0.599,0.0,-0.807,1.081,-1.492,0.0,-0.77,-0.588,-0.557,1.433,-1.531,0.0,-0.75,-1.54,0.0,1.906,-1.4669999999999999,0.0,-0.644,-0.54,0.0,1.945,-1.2919999999999998,0.0,-0.502,-1.06,0.0,1.946,-1.261,0.0,-0.501,-1.459,0.0,2.3890000000000002,-1.188,0.0,0.0,-1.811,0.0,2.945,-1.041,0.0,0.0,-0.6679999999999999,0.743,2.73,-0.6779999999999999,0.0,0.0,-0.628,0.0,2.084,-0.69,0.0,0.0,-0.516,0.0,1.815,-0.61,0.0,0.0,-0.509,0.0,1.3530000000000002,-0.5429999999999999,0.0,0.0,0.0,0.0,0.865,0.0,0.0,0.0,0.0,0.0,0.0,0.0,0.0,0.0,0.0,0.0,0.0,0.0,0.0,0.0,0.0,0.0,0.0,0.0,0.0,0.0,0.0,0.0,0.0,0.0,0.0,0.0,0.0,0.0,0.0,-0.503,0.0,0.0,0.0,0.0,0.0,0.0,0.0,0.0,-0.8420000000000001,0.0,1.006,0.0,0.0,0.0,0.0,0.0,1.348,0.0,0.0,0.0,0.0,0.0,0.9470000000000001,0.0,0.0,0.0,0.0,-0.563,0.526,0.0,0.0,0.0,-1.125,0.0,0.0,0.0,0.0,0.0,-1.242,0.0,0.9329999999999999,0.0,0.0,0.0,-1.0759999999999998,0.0,1.304,0.0,0.0,0.0,0.0,0.0,1.3869999999999998,0.0,0.0,0.0,1.393,0.0,0.0,0.0,0.0,0.0,0.562,-1.024,-0.687,0.0,-0.73,0.0,0.0,-0.773,-1.084,0.0,-0.613,0.0,-0.804,0.0,-0.574,0.0,0.0,0.0,0.0,0.0,0.0,0.0,0.0,0.0,0.0,0.0,1.4380000000000002,0.0,0.675,0.0,-1.141,0.0,2.6489999999999996,0.0,0.654,0.0,-1.732,0.0,3.8089999999999997,0.0,0.624,0.0,-2.131,1.036,4.66,0.5710000000000001,0.561,0.0,-1.681,1.994,4.888,1.213,0.0,0.0,-0.6990000000000001,0.0,3.577,1.139,0.0,0.7509999999999999,,,,,,,,,,,,,,,,,,,,,,,,,,,,,,,,,,,,,,,,,,,,,,,,,,,,,,,,,,,,,,,,,,,,,,,,,,,,,,,,,,,,,,,,,,,,,,,,,,,,,,,,,,,,,,,,,,,,,,,,,,,,,,,,,,,,,,,,,,,,,,,,,,,,,,,,,,,,,,,,,,,,,,,,,,,,,,,moveDown
accX,-0.525,-0.5660000000000001,-0.795,0.0,0.0,0.0,0.0,-0.654,-0.995,-0.508,0.574,0.0,0.0,-1.093,-1.194,-0.631,0.613,0.5379999999999999,0.84,-1.04,-1.6269999999999998,-0.6759999999999999,0.585,0.0,0.608,-1.347,-2.438,-0.7090000000000001,0.53,0.0,0.0,-1.5430000000000001,-3.395,-0.797,0.607,0.0,0.0,-1.4040000000000001,-4.007,-0.9420000000000001,0.871,0.0,0.0,-2.1069999999999998,-4.482,-0.975,1.1320000000000001,0.5539999999999999,0.0,-2.926,-3.8280000000000003,-1.125,1.413,0.628,0.0,-3.305,-2.944,-1.5959999999999999,1.679,0.589,0.877,-3.3939999999999997,-2.199,-1.892,1.554,0.0,0.581,-2.647,-1.099,-1.9980000000000002,1.3359999999999999,0.0,0.0,-1.6969999999999998,0.0,-1.825,1.1079999999999999,0.0,0.0,-1.263,0.0,-1.651,0.9470000000000001,0.0,0.0,-1.8,0.0,-1.683,0.638,-0.565,0.0,-1.541,0.0,-1.801,0.0,-0.6890000000000001,-0.946,-1.0290000000000001,0.971,-1.77,0.552,-0.721,-0.9229999999999999,0.0,1.618,-1.5519999999999998,0.6759999999999999,-0.599,-0.9009999999999999,0.0,1.949,-1.291,0.622,0.0,-1.194,0.0,2.011,-1.228,0.5720000000000001,0.0,0.0,0.0,1.857,-1.196,0.0,0.0,-1.2109999999999999,0.0,2.112,-1.365,0.0,0.0,-0.667,0.0,2.472,-1.276,0.0,0.0,-1.179,0.0,2.9410000000000003,-1.094,0.0,0.0,0.0,0.862,2.378,-0.607,0.0,0.0,0.0,0.0,1.55,0.0,0.0,0.0,-0.69,-0.84,1.123,-0.672,0.0,0.0,-0.6,0.0,1.188,-0.723,0.0,0.0,0.636,0.0,0.545,0.0,0.0,0.0,0.0,0.0,0.0,0.0,0.0,0.0,0.0,0.0,0.0,-0.509,0.0,0.0,0.0,0.0,0.0,0.0,0.0,0.0,0.0,-0.706,-0.532,-0.527,0.0,0.0,0.0,0.0,0.0,-0.593,0.0,0.0,0.0,0.0,0.593,-0.565,0.0,0.0,-0.7929999999999999,0.0,1.273,-0.524,0.0,0.0,-1.254,0.0,1.87,-0.5429999999999999,0.618,0.0,-0.6779999999999999,0.0,2.119,0.0,0.5920000000000001,0.0,0.0,0.0,1.679,0.0,0.0,0.0,0.0,0.0,0.597,0.0,0.0,0.0,0.0,-0.718,0.0,0.0,0.0,0.0,-0.6509999999999999,-0.608,0.0,0.0,0.0,0.0,0.0,0.0,0.0,0.0,0.0,0.0,0.0,0.0,0.893,0.0,0.0,0.0,0.0,0.0,1.365,0.0,0.0,0.0,0.0,0.0,1.254,0.0,0.0,0.0,0.0,-0.57,0.5329999999999999,0.0,0.0,0.0,-0.727,-0.5529999999999999,0.0,0.0,0.0,0.0,-0.736,0.0,0.0,0.0,0.0,0.0,0.0,0.0,0.0,0.0,0.0,0.0,0.0,0.0,0.0,0.0,0.0,0.0,0.0,-0.507,0.0,0.0,0.0,0.0,-0.987,-0.623,0.584,0.0,0.0,0.0,-2.17,0.0,1.993,0.0,0.0,0.0,-2.315,0.0,3.5269999999999997,0.0,0.91,0.0,-1.7309999999999999,0.0,4.5280000000000005,0.0,1.087,0.0,0.0,0.0,5.316,0.0,0.877,0.511,0.0,0.5710000000000001,5.752999999999999,0.583,0.0,0.0,-1.489,1.14,5.497999999999999,1.2890000000000001,-1.09,0.0,,,,,,,,,,,,,,,,,,,,,,,,,,,,,,,,,,,,,,,,,,,,,,,,,,,,,,,,,,,,,,,,,,,,,,,,,,,,,,,,,,,,,,,,,,,,,,,,,,,,,,,,,,,,,,,,,,,,,,,,,,,,,,,moveDown
accX,0.0,-1.2990000000000002,-1.837,-0.8,0.536,0.0,-0.518,-1.105,-2.145,-0.902,0.728,0.0,-0.682,-1.28,-2.416,-0.971,0.99,0.0,-0.569,-1.4669999999999999,-2.5839999999999996,-1.002,1.138,0.0,0.0,-1.6030000000000002,-2.741,-1.061,1.26,0.0,0.0,-2.181,-3.3110000000000004,-1.074,1.274,0.0,0.0,-3.0780000000000003,-3.88,-1.21,1.2229999999999999,0.0,-1.088,-2.508,-3.344,-1.5290000000000001,1.3630000000000002,0.0,-0.9,-1.949,-2.275,-1.6869999999999998,1.635,0.0,0.0,-1.955,-1.521,-1.72,1.7309999999999999,0.0,0.759,-2.0669999999999997,-1.15,-1.7309999999999999,1.3980000000000001,0.0,0.0,-1.875,-0.557,-1.839,1.004,0.0,0.0,-1.117,0.0,-1.902,0.882,0.0,-0.55,-1.089,0.534,-1.8130000000000002,0.8009999999999999,-0.525,-0.778,0.0,1.435,-1.715,0.934,0.0,-0.6779999999999999,0.0,2.2359999999999998,-1.472,0.924,0.0,0.0,0.0,2.042,-1.246,0.69,0.0,0.0,0.0,1.692,-1.193,0.0,0.0,-0.643,0.0,1.8840000000000001,-1.236,0.0,0.0,-1.0170000000000001,0.0,2.0980000000000003,-1.2,0.0,0.0,-0.8859999999999999,0.0,2.142,-1.058,0.0,0.0,-0.7859999999999999,0.7040000000000001,1.896,-0.794,0.0,0.0,-0.9890000000000001,0.0,1.6219999999999999,-0.685,0.0,0.0,0.0,0.0,1.203,-0.691,0.0,0.0,0.0,0.0,0.868,-0.742,0.0,0.0,-0.909,0.0,0.855,-0.8390000000000001,0.0,0.0,-1.443,0.0,1.3519999999999999,-0.742,0.0,0.0,-1.31,0.0,1.4709999999999999,0.0,0.563,0.0,0.0,0.0,0.927,0.0,0.0,0.0,0.0,0.0,0.0,0.0,0.0,0.0,0.0,-0.595,0.0,0.0,0.0,0.0,0.0,0.0,0.0,0.0,0.0,0.0,-1.238,0.0,0.0,0.0,0.0,0.0,-0.858,0.0,0.9490000000000001,0.0,0.0,0.0,-0.9440000000000001,0.0,1.693,0.0,0.0,0.0,-0.7909999999999999,0.0,2.1109999999999998,0.0,0.0,0.0,-0.586,0.0,2.221,0.0,0.0,0.0,-0.7879999999999999,0.0,1.8230000000000002,0.0,0.0,0.0,0.0,0.0,0.93,0.0,0.0,0.0,0.652,-1.0270000000000001,-1.148,0.0,-0.5820000000000001,0.0,0.0,-1.14,-1.686,0.0,-0.5489999999999999,0.0,0.0,0.0,-1.5759999999999998,0.0,0.0,0.0,0.0,0.0,-1.235,0.0,0.0,0.0,0.0,0.0,-0.8029999999999999,0.0,0.0,0.0,0.0,0.0,0.0,0.0,0.0,0.0,0.0,0.0,0.0,0.0,0.0,0.0,0.0,0.0,0.0,0.0,0.0,0.0,0.0,0.0,0.629,0.0,0.0,0.0,-0.762,0.0,1.218,0.0,0.0,0.0,-0.835,0.0,1.724,0.0,0.0,0.0,-1.215,0.0,2.195,0.0,0.0,0.0,-1.649,0.6629999999999999,3.733,0.0,0.7070000000000001,0.0,-1.005,1.178,5.251,0.5379999999999999,0.812,0.0,,,,,,,,,,,,,,,,,,,,,,,,,,,,,,,,,,,,,,,,,,,,,,,,,,,,,,,,,,,,,,,,,,,,,,,,,,,,,,,,,,,,,,,,,,,,,,,,,,,,,,,,,,,,,,,,,,,,,,,,,,,,,,,,,,,,,,,,,,,,,,,,,,,,,,,,,,,,,,,,,,,moveDown
accX,0.0,-0.9740000000000001,-1.62,-0.524,0.773,0.0,0.0,-1.021,-2.2230000000000003,-0.611,0.973,0.0,0.0,-0.93,-2.826,-0.627,1.1520000000000001,0.612,0.0,-1.7080000000000002,-3.437,-0.618,1.207,0.54,0.0,-2.483,-3.9189999999999996,-0.763,1.345,0.0,0.0,-2.759,-4.087,-0.9490000000000001,1.516,0.0,0.0,-3.158,-3.9,-1.1059999999999999,1.672,0.0,0.0,-2.77,-3.2119999999999997,-1.37,1.6740000000000002,0.0,0.0,-2.747,-2.336,-1.618,1.536,0.0,0.0,-1.916,-1.138,-1.8730000000000002,1.381,0.0,0.0,-1.806,0.0,-1.9380000000000002,1.193,0.0,0.0,-0.721,0.745,-1.936,1.0759999999999998,0.0,0.0,0.0,1.1440000000000001,-1.7169999999999999,0.889,0.0,0.0,-0.619,1.074,-1.5030000000000001,0.5579999999999999,-0.541,0.0,0.0,1.005,-1.439,0.0,-0.647,-0.544,0.0,0.851,-1.439,0.0,-0.615,-0.8590000000000001,0.0,1.234,-1.4669999999999999,0.0,0.0,-0.7440000000000001,0.563,1.72,-1.367,0.0,0.0,-0.888,0.0,1.767,-1.186,0.0,0.0,0.0,0.0,1.5959999999999999,-1.073,0.0,0.0,-0.966,0.0,1.965,-1.166,0.0,0.0,0.0,0.58,2.076,-1.123,0.0,0.0,-0.595,0.0,1.954,-0.872,0.0,0.0,0.0,0.0,1.5630000000000002,-0.7290000000000001,0.0,0.0,-0.965,0.0,1.339,-0.777,0.0,0.0,0.0,0.0,0.879,-0.8340000000000001,0.0,0.0,0.0,0.0,1.156,-0.7440000000000001,0.0,0.0,0.0,0.0,0.963,-0.637,0.0,0.0,0.0,0.0,1.061,-0.629,0.0,0.0,-0.591,0.0,1.261,-0.611,0.0,0.0,0.0,0.0,1.251,-0.562,0.0,0.0,0.0,0.0,1.271,0.0,0.0,0.0,0.0,0.0,1.064,0.0,0.0,0.0,-0.9540000000000001,-0.529,1.014,0.0,0.0,0.0,-0.8029999999999999,0.0,0.966,0.0,0.0,0.0,0.0,0.0,0.863,0.0,0.0,0.0,0.0,0.0,0.7659999999999999,0.0,0.0,0.0,0.0,0.0,0.637,0.0,0.0,0.0,0.0,0.0,0.0,0.0,0.0,0.0,0.0,0.0,0.0,0.0,0.0,0.0,0.0,-0.604,-0.601,0.0,0.0,0.0,0.0,0.0,0.0,0.0,0.0,0.0,0.0,0.0,0.0,0.0,0.0,0.0,0.0,0.0,0.0,0.0,0.0,0.0,-0.6559999999999999,0.0,0.723,0.0,0.0,0.0,-0.718,0.0,1.053,0.0,0.0,0.0,-0.5539999999999999,0.0,1.189,0.0,0.0,0.0,-0.79,0.0,2.253,0.0,0.0,0.0,0.0,0.0,3.157,0.604,0.0,0.0,0.0,0.8590000000000001,4.2010000000000005,0.892,0.0,0.0,0.0,0.868,5.362,1.13,-0.867,0.0,,,,,,,,,,,,,,,,,,,,,,,,,,,,,,,,,,,,,,,,,,,,,,,,,,,,,,,,,,,,,,,,,,,,,,,,,,,,,,,,,,,,,,,,,,,,,,,,,,,,,,,,,,,,,,,,,,,,,,,,,,,,,,,,,,,,,,,,,,,,,,,,,,,,,,,,,,,,,,,,,,,,,,,,,,,,,,,moveDown
accX,0.0,-1.197,-1.4069999999999998,0.0,0.7559999999999999,0.0,0.0,-1.159,-1.459,-0.525,0.826,0.0,-0.635,-0.9329999999999999,-1.7469999999999999,-0.594,0.895,0.0,-0.526,-1.3619999999999999,-2.2319999999999998,-0.7809999999999999,0.9309999999999999,0.0,0.0,-2.028,-2.8289999999999997,-1.06,0.96,0.569,-0.618,-1.943,-2.7030000000000003,-1.3019999999999998,1.09,0.672,-0.777,-2.044,-2.5660000000000003,-1.338,1.215,0.727,-0.5720000000000001,-2.387,-2.677,-1.416,1.182,0.708,-0.968,-2.424,-2.296,-1.57,1.189,0.682,-0.564,-1.618,-1.2209999999999999,-1.693,1.518,0.649,0.0,-1.35,0.0,-1.61,1.7469999999999999,0.0,0.0,-0.997,0.0,-1.541,1.795,0.0,0.0,-0.76,0.7190000000000001,-1.554,1.536,0.0,0.0,-0.501,1.141,-1.5390000000000001,1.2819999999999998,0.0,0.0,0.0,1.162,-1.495,1.064,0.0,0.0,0.0,1.3880000000000001,-1.4369999999999998,0.835,0.0,0.0,0.0,1.525,-1.339,0.645,0.0,-0.615,0.0,1.7519999999999998,-1.306,0.0,0.0,0.0,0.0,1.703,-1.207,0.541,0.0,0.0,0.0,1.69,-1.064,0.0,0.0,0.0,0.0,1.058,-0.899,0.0,0.0,0.0,0.0,0.62,-0.907,0.0,0.0,-0.711,0.0,0.513,-0.945,0.0,0.0,-0.6609999999999999,0.0,0.6970000000000001,-0.9440000000000001,0.0,0.0,0.0,0.0,0.725,-0.8440000000000001,0.0,0.0,0.0,0.0,0.0,-0.6679999999999999,0.0,0.0,0.65,0.0,0.0,-0.575,0.0,0.0,0.0,0.0,0.0,-0.718,0.0,0.0,0.0,0.0,0.0,-0.8390000000000001,0.0,0.0,0.0,0.0,0.0,-0.879,0.0,0.0,0.0,0.0,0.0,-0.6759999999999999,0.517,0.0,0.0,0.0,0.746,-0.657,0.504,0.0,0.0,0.0,1.321,-0.733,0.579,0.0,-0.583,0.0,1.883,-0.693,0.563,0.0,0.0,0.0,1.913,0.0,0.0,0.0,0.0,0.0,1.371,0.0,0.0,0.0,0.0,0.0,0.63,0.0,0.0,0.0,-0.594,-0.8740000000000001,0.0,0.0,0.0,0.0,-0.7809999999999999,0.0,0.0,0.0,0.0,0.0,-0.815,0.0,0.691,0.0,0.0,0.0,0.0,0.0,0.9840000000000001,0.0,0.0,0.0,0.0,0.0,1.109,0.0,0.0,0.0,0.0,0.0,0.898,0.0,0.0,0.0,-0.8859999999999999,0.0,0.75,0.0,0.0,0.0,-0.7829999999999999,0.0,0.578,0.0,0.0,0.0,0.0,0.0,0.506,0.0,0.0,0.0,0.0,0.0,0.0,0.0,0.0,0.0,0.0,0.0,0.0,0.0,0.0,0.0,0.0,0.0,0.0,0.0,0.0,0.0,-0.525,0.0,0.0,0.0,0.0,0.0,-0.726,0.0,0.993,0.0,0.0,0.0,-0.856,0.0,1.6880000000000002,0.0,0.0,0.0,-1.4880000000000002,0.0,2.532,0.0,0.667,0.0,-1.393,0.0,3.54,0.0,0.846,0.0,,,,,,,,,,,,,,,,,,,,,,,,,,,,,,,,,,,,,,,,,,,,,,,,,,,,,,,,,,,,,,,,,,,,,,,,,,,,,,,,,,,,,,,,,,,,,,,,,,,,,,,,,,,,,,,,,,,,,,,,,,,,,,,,,,,,,,,,,,,,,,,,,,,,,,,,,,,,,moveDown
accX,0.0,-1.051,-1.239,-0.7929999999999999,0.0,0.0,0.0,-0.871,-1.015,-0.9229999999999999,0.0,0.0,0.0,-0.887,-0.86,-0.9790000000000001,0.524,0.0,0.0,-1.155,-1.037,-1.003,0.0,0.0,0.0,-1.04,-1.262,-1.023,0.0,0.0,0.0,-1.088,-1.554,-1.0090000000000001,0.508,0.0,0.0,-1.3659999999999999,-2.079,-1.045,0.599,0.0,0.609,-2.2230000000000003,-2.8560000000000003,-1.246,0.562,0.0,0.716,-2.679,-3.449,-1.564,0.0,0.0,0.0,-3.0210000000000004,-3.1010000000000004,-1.962,0.615,0.0,-1.315,-1.814,-2.182,-1.962,1.024,0.0,-1.301,-1.714,-1.857,-1.797,1.3430000000000002,0.0,-0.691,-2.105,-1.423,-1.795,1.425,0.0,0.0,-1.829,-0.7979999999999999,-1.848,1.2209999999999999,0.0,0.0,-1.5030000000000001,0.0,-1.9040000000000001,0.968,0.0,-0.7440000000000001,-0.645,0.648,-1.7619999999999998,0.853,0.0,-0.9179999999999999,0.0,1.082,-1.365,0.629,0.0,-0.91,0.0,1.3130000000000002,-1.265,0.5539999999999999,0.0,-0.9129999999999999,0.0,1.4880000000000002,-1.207,0.565,0.0,-0.907,0.0,1.95,-1.178,0.635,0.0,-0.9570000000000001,0.0,2.2840000000000003,-1.136,0.6629999999999999,0.0,0.0,0.831,2.369,-1.055,0.511,0.0,-0.5710000000000001,0.0,2.408,-0.9129999999999999,0.0,0.0,-0.522,0.0,2.151,-0.767,0.0,0.0,-0.517,0.0,2.036,-0.685,0.0,0.0,0.0,0.0,1.614,-0.525,0.0,0.0,0.0,0.0,1.3359999999999999,0.0,0.0,0.0,0.0,0.0,1.082,0.0,0.0,0.0,0.0,0.0,0.915,0.0,0.0,0.0,0.0,0.0,1.117,0.0,0.0,0.0,0.0,0.0,0.711,0.0,0.0,0.0,0.0,-0.58,0.0,0.0,0.0,0.0,0.0,-0.5579999999999999,0.0,0.0,0.0,0.0,-0.508,0.0,0.0,0.0,0.0,0.0,0.0,0.0,1.206,0.0,0.0,0.0,0.0,0.0,1.585,0.0,0.0,0.0,1.023,0.0,0.867,0.0,0.0,0.0,0.0,-0.794,0.0,0.0,0.0,0.0,0.0,-0.7,-0.737,0.0,0.0,0.0,0.0,0.0,-0.552,0.0,0.0,0.0,0.0,0.0,0.0,0.0,0.0,0.0,0.872,0.0,0.0,0.0,0.0,0.0,0.0,0.0,0.0,0.0,0.0,0.0,0.0,0.0,-0.517,0.0,0.0,0.0,0.0,0.0,-0.5379999999999999,0.0,0.0,0.0,0.0,0.0,-0.53,0.0,0.0,0.0,0.0,0.0,0.0,0.0,0.0,0.0,0.0,0.0,0.504,0.0,0.0,0.0,-0.521,0.0,1.173,0.0,0.0,0.0,-0.563,0.0,1.768,0.0,0.0,0.0,0.0,0.0,2.0580000000000003,0.0,0.0,0.0,0.0,0.0,2.141,0.0,0.0,0.0,-0.5870000000000001,0.0,2.263,0.0,0.0,0.0,-1.261,0.0,3.1719999999999997,0.0,0.0,0.0,-0.777,0.0,4.131,0.7390000000000001,0.0,0.0,,,,,,,,,,,,,,,,,,,,,,,,,,,,,,,,,,,,,,,,,,,,,,,,,,,,,,,,,,,,,,,,,,,,,,,,,,,,,,,,,,,,,,,,,,,,,,,,,,,,,,,,,,,,,,,,,,,,,,,,,,,,,,,,,,,,,,,,,,,,,,,,,,,,,,,moveDown
accX,0.0,-0.9309999999999999,-0.789,-0.8340000000000001,0.542,0.0,0.0,-0.5770000000000001,-0.55,-0.7709999999999999,0.563,0.0,0.0,-0.879,-0.635,-0.728,0.5660000000000001,0.0,0.0,-0.902,-1.14,-0.777,0.568,0.0,0.0,-0.8959999999999999,-1.6119999999999999,-0.927,0.524,0.0,0.574,-1.129,-2.4619999999999997,-1.026,0.504,0.0,0.0,-2.271,-3.55,-1.361,0.6779999999999999,0.0,0.0,-2.207,-3.48,-1.565,1.061,0.0,0.0,-2.198,-2.775,-1.624,1.4280000000000002,0.0,0.0,-2.056,-1.905,-1.597,1.3969999999999998,0.0,0.0,-1.71,-1.278,-1.58,1.285,0.0,0.0,-1.1740000000000002,-1.044,-1.4580000000000002,1.1320000000000001,0.0,0.0,-1.489,-1.087,-1.504,1.003,0.0,0.0,-1.328,-0.65,-1.6380000000000001,0.858,0.0,0.0,-0.5870000000000001,0.0,-1.55,0.767,0.0,-0.7509999999999999,-0.752,0.0,-1.4669999999999999,0.7170000000000001,0.0,0.0,-0.84,0.0,-1.436,0.0,-0.5539999999999999,0.0,-0.583,0.0,-1.392,0.0,-0.657,-0.8690000000000001,0.0,0.59,-1.369,0.0,-0.629,-0.867,0.0,0.968,-1.237,0.0,-0.5660000000000001,0.0,0.0,0.652,-1.095,0.0,0.0,0.0,0.0,0.0,-1.166,0.0,-0.502,-1.5330000000000001,0.0,1.169,-1.288,0.0,0.0,-0.608,0.0,1.9380000000000002,-1.222,0.0,0.0,-0.665,0.0,2.343,-1.075,0.0,0.0,-1.3769999999999998,0.0,2.912,-0.965,0.0,0.0,-1.84,0.0,3.523,-0.9690000000000001,0.0,0.0,-1.268,0.623,3.477,-0.847,0.0,0.0,-1.103,0.574,2.802,-0.514,0.0,0.0,-0.7879999999999999,0.0,2.086,0.0,0.0,0.0,-0.6970000000000001,0.0,1.584,0.0,0.0,0.0,-0.8490000000000001,0.0,1.051,0.0,0.0,0.0,-0.55,0.0,0.731,0.0,0.0,0.0,0.0,0.0,0.0,0.0,0.0,0.0,0.0,0.0,0.0,0.0,0.0,0.0,0.0,0.0,0.517,0.0,0.0,0.0,0.0,0.0,0.52,0.0,0.0,0.0,0.5670000000000001,0.0,0.0,0.0,0.0,0.0,0.0,0.0,0.0,0.0,0.0,0.0,0.0,0.0,0.0,0.0,0.0,0.0,0.0,0.0,0.0,0.0,0.0,0.0,0.0,0.0,-0.615,0.0,0.0,0.0,0.0,-0.6559999999999999,-0.828,0.0,0.0,0.0,0.0,0.0,-0.591,0.0,0.0,0.0,0.0,0.0,0.0,0.0,0.0,0.0,0.0,0.0,0.0,0.0,0.0,0.0,0.0,0.0,0.0,0.0,0.0,0.0,0.0,0.0,0.0,0.0,0.0,0.0,0.0,0.0,0.0,0.0,0.0,0.0,0.0,0.0,0.0,0.0,0.0,0.0,0.0,0.0,0.679,0.0,0.0,0.0,-0.506,0.0,0.9490000000000001,0.0,0.0,0.0,,,,,,,,,,,,,,,,,,,,,,,,,,,,,,,,,,,,,,,,,,,,,,,,,,,,,,,,,,,,,,,,,,,,,,,,,,,,,,,,,,,,,,,,,,,,,,,,,,,,,,,,,,,,,,,,,,,,,,,,,,,,,,,,,,,,,,,,,,,,,,,,,,,,,,,,,,,,,,,,,,,,,,,,,moveDown
accX,0.0,-0.946,-1.247,-0.6459999999999999,0.0,0.0,0.0,-0.9520000000000001,-1.381,-0.8190000000000001,0.501,0.0,0.0,-0.7659999999999999,-2.355,-0.972,0.7,0.521,0.0,-1.479,-3.08,-0.9009999999999999,0.872,0.529,0.0,-2.046,-3.719,-0.888,1.3090000000000002,0.0,-0.598,-2.502,-3.7030000000000003,-0.995,1.805,0.0,0.0,-2.452,-3.0210000000000004,-1.12,2.145,0.0,0.0,-2.296,-2.34,-1.2690000000000001,2.046,0.0,0.579,-2.09,-1.537,-1.3419999999999999,1.6119999999999999,0.0,0.0,-1.5930000000000002,-0.951,-1.351,1.295,0.0,0.0,-1.431,-0.735,-1.359,1.0070000000000001,0.0,0.0,-2.3680000000000003,-0.8340000000000001,-1.6480000000000001,0.74,-0.637,0.0,-1.062,0.0,-1.827,0.675,-0.7120000000000001,-0.653,0.0,1.018,-1.66,0.6659999999999999,-0.5489999999999999,-0.7859999999999999,0.0,1.3619999999999999,-1.415,0.662,0.0,0.0,0.0,1.151,-1.262,0.0,0.0,-0.55,0.0,1.185,-1.365,0.0,-0.539,0.0,0.0,1.234,-1.4469999999999998,0.0,-0.623,-1.028,0.0,1.599,-1.455,0.0,-0.631,-0.64,0.0,1.6880000000000002,-1.255,0.0,0.0,-1.245,0.0,1.75,-1.067,0.0,0.0,-0.815,0.0,1.6640000000000001,-1.0190000000000001,0.0,0.0,0.0,0.0,1.6,-0.973,0.0,0.0,0.0,0.0,1.554,-0.9590000000000001,0.0,0.0,-0.787,0.0,1.695,-0.831,0.0,0.0,-1.368,0.0,1.875,-0.6920000000000001,0.0,0.0,-1.0090000000000001,0.0,1.784,-0.514,0.0,0.0,0.0,0.0,1.27,0.0,0.0,0.0,0.0,0.0,0.61,0.0,0.0,0.0,-1.212,-0.736,1.147,-0.605,0.0,0.0,-1.506,0.0,1.814,0.0,0.0,0.0,-0.769,0.0,2.076,0.0,0.0,0.0,0.0,0.0,1.3880000000000001,0.0,0.0,0.0,0.0,-0.619,0.7390000000000001,0.0,0.0,0.0,0.0,0.0,0.0,0.0,0.0,0.0,0.0,0.0,-0.52,0.0,0.0,0.0,-0.73,0.0,-0.6779999999999999,0.0,0.0,0.0,0.0,0.0,-0.62,0.0,0.0,0.0,0.0,0.0,-0.7120000000000001,0.0,0.0,0.0,0.0,0.0,-0.934,0.0,0.0,0.0,0.0,0.0,-1.026,0.0,0.0,0.0,0.0,0.0,-0.754,0.0,0.0,0.0,0.0,0.0,0.0,0.0,0.0,0.0,0.0,0.0,0.0,0.0,0.0,0.0,0.0,0.0,0.792,0.0,0.0,0.0,0.0,0.0,1.036,0.0,0.0,0.0,-0.645,0.0,0.9420000000000001,0.0,0.0,0.0,-0.593,0.0,1.122,0.0,0.0,0.0,-0.765,0.654,1.975,0.0,0.5429999999999999,0.0,-0.7929999999999999,0.0,3.037,0.6559999999999999,0.759,0.0,,,,,,,,,,,,,,,,,,,,,,,,,,,,,,,,,,,,,,,,,,,,,,,,,,,,,,,,,,,,,,,,,,,,,,,,,,,,,,,,,,,,,,,,,,,,,,,,,,,,,,,,,,,,,,,,,,,,,,,,,,,,,,,,,,,,,,,,,,,,,,,,,,,,,,,,,,,,,,,,,,,,,,,,,,,,,,,,,,,,,moveDown
accX,0.0,-0.6779999999999999,-0.9059999999999999,-0.594,0.0,0.0,0.0,-1.157,-1.43,-0.634,0.0,0.0,0.0,-1.2229999999999999,-2.213,-0.841,0.0,0.0,0.79,-1.63,-2.8710000000000004,-0.985,0.0,0.0,0.64,-2.338,-3.4389999999999996,-1.163,0.0,0.0,0.507,-2.6210000000000004,-3.613,-1.3419999999999999,0.705,0.0,0.0,-2.793,-3.2880000000000003,-1.494,0.94,0.0,0.0,-2.497,-2.847,-1.5819999999999999,1.14,0.0,0.0,-2.387,-2.385,-1.652,1.168,0.0,0.0,-2.594,-1.9469999999999998,-1.739,1.074,-0.516,0.0,-1.9880000000000002,-1.325,-1.9080000000000001,0.904,-0.655,-0.799,-1.7919999999999998,-0.655,-1.999,0.7859999999999999,-0.6829999999999999,-0.846,-0.9079999999999999,0.0,-1.962,0.8909999999999999,-0.6970000000000001,-1.5759999999999998,-0.547,0.95,-1.7890000000000001,1.04,-0.5760000000000001,0.0,-0.6,1.073,-1.442,0.905,-0.514,0.0,-0.557,1.1640000000000001,-1.433,0.564,-0.58,-1.143,-0.501,1.525,-1.514,0.0,-0.6970000000000001,-1.936,0.0,2.329,-1.51,0.5870000000000001,-0.643,-1.415,1.151,3.117,-1.192,0.532,0.0,-1.1320000000000001,0.6709999999999999,3.0010000000000003,-0.9,0.0,0.0,-0.963,0.0,2.562,-0.809,0.0,0.0,-1.584,0.0,2.469,-0.861,0.0,0.0,0.0,0.569,1.985,-0.696,0.0,0.0,0.0,0.0,1.35,-0.638,0.0,0.0,0.0,0.0,1.079,-0.5710000000000001,0.0,0.0,-0.752,0.0,0.862,0.0,0.0,0.0,-0.595,0.0,0.6659999999999999,0.0,0.0,0.0,0.0,0.0,0.0,0.0,0.0,0.0,0.978,0.0,0.0,0.0,0.0,0.0,0.575,0.0,-0.6759999999999999,0.0,0.0,0.0,0.0,-0.573,-0.6829999999999999,0.0,0.0,0.0,0.0,0.0,-0.6940000000000001,0.0,0.0,0.0,-0.563,0.0,0.0,0.0,0.0,0.0,0.0,0.0,0.682,0.0,0.0,0.0,0.0,0.0,1.4569999999999999,0.0,0.0,0.0,0.0,0.0,1.743,0.0,0.0,0.0,0.0,0.0,1.735,0.0,0.0,0.0,0.0,0.0,1.442,0.0,0.0,0.0,0.0,0.0,1.306,0.0,0.0,0.0,0.0,0.0,0.725,0.0,0.0,0.0,0.8590000000000001,-0.732,0.0,0.0,0.0,0.0,0.0,-0.782,-0.784,0.0,0.0,0.0,0.0,0.0,-0.534,0.0,0.0,0.0,0.0,0.0,0.0,0.0,0.0,0.0,0.0,0.0,0.0,0.0,0.0,0.0,0.0,0.0,0.5760000000000001,0.0,0.0,0.0,-0.723,0.0,1.124,0.0,0.0,0.0,-1.3769999999999998,0.0,1.8730000000000002,0.0,0.0,0.0,-1.7280000000000002,0.0,2.7239999999999998,0.0,0.7,0.0,,,,,,,,,,,,,,,,,,,,,,,,,,,,,,,,,,,,,,,,,,,,,,,,,,,,,,,,,,,,,,,,,,,,,,,,,,,,,,,,,,,,,,,,,,,,,,,,,,,,,,,,,,,,,,,,,,,,,,,,,,,,,,,,,,,,,,,,,,,,,,,,,,,,,,,,,,,,,,,,,,,,,,,,,,,,,,,,,,,,,,,,,,,moveDown
accX,0.0,-0.795,-0.7040000000000001,-0.742,0.0,0.0,0.0,-0.757,-0.935,-0.831,0.0,0.0,0.0,-0.609,-1.217,-0.87,0.0,0.0,0.0,-1.1320000000000001,-1.614,-0.836,0.0,0.0,0.0,-1.298,-2.142,-0.885,0.519,0.0,0.0,-1.767,-2.697,-0.988,0.626,0.0,0.0,-2.16,-3.17,-1.183,0.8270000000000001,0.0,0.0,-1.9969999999999999,-3.114,-1.3019999999999998,0.9890000000000001,0.0,0.0,-2.138,-3.072,-1.4140000000000001,1.17,0.0,0.0,-2.351,-2.858,-1.555,1.242,0.0,0.0,-2.222,-2.2230000000000003,-1.729,1.335,0.0,0.0,-1.876,-1.706,-1.766,1.381,0.0,0.0,-1.64,-1.182,-1.786,1.272,0.0,0.0,-1.505,-0.7090000000000001,-1.808,1.062,0.0,0.0,-1.229,0.0,-1.7719999999999998,0.866,-0.589,-0.7709999999999999,-0.594,0.522,-1.72,0.7879999999999999,-0.6559999999999999,-1.046,0.0,1.182,-1.605,0.774,-0.629,-0.7240000000000001,0.0,1.47,-1.445,0.55,-0.541,-0.977,0.0,1.815,-1.4069999999999998,0.0,0.0,-0.9259999999999999,0.0,1.956,-1.318,0.0,0.0,-0.639,0.0,1.9380000000000002,-1.226,0.0,0.0,-1.088,0.0,2.406,-1.175,0.0,0.0,-0.727,0.624,2.6860000000000004,-0.879,0.0,0.0,0.0,0.0,2.6039999999999996,-0.648,0.0,0.0,0.0,0.0,2.42,-0.545,0.0,0.0,-0.5329999999999999,0.0,2.313,-0.5429999999999999,0.0,0.0,0.0,0.652,1.9680000000000002,0.0,0.0,0.0,0.0,0.0,1.368,0.0,0.0,0.0,0.0,0.0,0.0,0.0,0.0,0.0,0.0,0.0,0.0,0.0,0.0,0.0,-0.7859999999999999,0.0,0.0,0.0,0.0,0.0,-0.996,0.0,0.0,-0.519,0.0,0.0,-0.7440000000000001,0.0,0.691,-0.502,0.0,0.0,-0.7859999999999999,0.0,1.3259999999999998,0.0,0.0,0.0,-0.557,0.0,1.776,0.0,0.0,0.0,0.0,0.0,1.589,0.0,0.0,0.0,0.0,0.0,1.008,0.0,0.0,0.0,0.0,-0.62,0.0,0.0,0.0,0.0,0.0,-0.581,0.0,0.0,0.0,0.0,0.0,-0.757,-0.802,0.0,0.0,0.0,0.879,-0.8340000000000001,-1.078,0.0,0.0,0.0,0.52,-0.8490000000000001,-1.21,0.0,0.0,0.0,0.0,-0.6990000000000001,-0.902,0.0,0.0,0.0,0.0,0.0,0.0,0.0,0.0,0.0,0.0,0.0,0.0,0.0,0.0,0.0,0.0,0.0,0.634,0.0,0.0,0.0,-1.48,0.0,1.087,0.0,0.0,0.0,-1.033,0.66,1.8219999999999998,0.0,0.61,0.0,0.0,0.789,2.36,0.0,0.675,0.0,,,,,,,,,,,,,,,,,,,,,,,,,,,,,,,,,,,,,,,,,,,,,,,,,,,,,,,,,,,,,,,,,,,,,,,,,,,,,,,,,,,,,,,,,,,,,,,,,,,,,,,,,,,,,,,,,,,,,,,,,,,,,,,,,,,,,,,,,,,,,,,,,,,,,,,,,,,,,,,,,,,,,,,,,,,,,,,,,,,,,,,,,,,moveDown
accX,0.0,0.0,0.0,0.0,0.0,0.0,0.0,0.0,0.0,-0.541,0.0,0.0,0.0,0.0,-0.83,-0.5770000000000001,0.0,0.0,0.0,-0.853,-1.338,-0.807,0.5429999999999999,0.532,0.0,-0.94,-1.683,-0.9109999999999999,0.639,0.5379999999999999,0.0,-1.0290000000000001,-1.9069999999999998,-0.975,0.685,0.0,0.0,-1.349,-2.846,-1.0590000000000002,0.871,0.0,0.0,-1.7830000000000001,-2.78,-1.182,1.1740000000000002,0.514,0.0,-1.632,-2.227,-1.36,1.263,0.0,0.501,-1.262,-1.69,-1.396,1.2209999999999999,0.0,0.0,-0.8909999999999999,-1.611,-1.328,1.141,0.0,0.0,-1.0759999999999998,-1.601,-1.385,1.064,0.0,0.0,-1.187,-1.681,-1.486,0.91,0.0,0.0,-0.9309999999999999,-1.5330000000000001,-1.574,0.865,0.0,0.0,-0.97,-1.177,-1.5830000000000002,0.963,0.0,0.0,-0.9329999999999999,-0.675,-1.53,0.95,0.0,0.0,-0.5529999999999999,0.0,-1.4909999999999999,0.85,0.0,0.0,0.0,0.0,-1.399,0.665,0.0,-0.731,0.0,0.0,-1.35,0.517,0.0,-0.525,0.0,0.0,-1.311,0.504,0.0,0.0,0.0,0.0,-1.216,0.0,0.0,0.0,0.0,0.5720000000000001,-1.224,0.0,0.0,-0.522,0.0,0.887,-1.271,0.0,-0.547,0.0,0.0,1.1740000000000002,-1.219,0.0,0.0,-0.7440000000000001,0.0,1.942,-1.236,0.0,0.0,-1.588,0.0,2.807,-1.05,0.0,0.0,0.0,0.687,2.9930000000000003,-0.737,0.562,0.0,-0.726,0.0,2.634,-0.5429999999999999,0.0,0.0,-0.882,0.0,2.685,-0.626,0.0,0.0,-0.953,0.0,2.571,-0.74,0.0,0.0,-0.679,0.551,2.639,0.0,0.0,0.0,-0.986,0.0,2.594,0.0,0.0,0.0,-1.2009999999999998,0.0,2.278,0.0,0.0,0.0,-0.505,0.0,1.676,0.0,0.0,0.0,0.0,0.0,0.738,0.0,0.0,0.0,0.0,0.0,0.0,0.0,0.0,0.0,0.0,0.0,0.0,0.0,0.0,0.0,0.0,0.0,-0.758,0.0,0.0,0.0,0.0,-0.569,-1.078,0.0,0.0,0.0,0.0,0.0,-1.052,0.0,0.0,0.0,0.0,0.0,-0.8420000000000001,0.0,0.0,0.0,0.0,0.0,-0.7170000000000001,0.0,0.0,0.0,0.0,0.0,-0.633,0.0,0.0,0.0,0.0,0.0,0.0,0.0,0.0,0.0,0.0,0.0,0.0,0.0,0.0,0.0,0.0,0.0,0.0,0.0,0.0,0.0,0.0,0.0,0.568,0.0,0.0,0.0,0.0,0.0,1.024,0.0,0.0,0.0,0.0,0.0,1.391,0.0,0.0,0.0,0.0,0.0,1.61,0.0,0.0,0.0,,,,,,,,,,,,,,,,,,,,,,,,,,,,,,,,,,,,,,,,,,,,,,,,,,,,,,,,,,,,,,,,,,,,,,,,,,,,,,,,,,,,,,,,,,,,,,,,,,,,,,,,,,,,,,,,,,,,,,,,,,,,,,,,,,,,,,,,,,,,,,,,,,,,,,,,,,,,,,,,,,,,,,,,,,,,,,,,,,,,,moveDown
accX,0.0,-0.7859999999999999,-0.885,-0.513,0.0,0.0,0.0,-1.147,-1.227,-0.846,0.0,0.0,0.0,-1.238,-1.48,-1.0979999999999999,0.0,0.5429999999999999,0.0,-0.977,-2.211,-1.1909999999999998,0.604,0.605,0.0,-1.473,-2.718,-1.205,0.685,0.0,0.0,-1.735,-2.827,-1.195,0.879,0.0,0.0,-1.9680000000000002,-2.679,-1.1159999999999999,1.172,0.0,0.0,-2.82,-3.3289999999999997,-1.139,1.337,0.0,-0.633,-3.1689999999999996,-3.338,-1.4680000000000002,1.584,0.0,0.0,-2.431,-2.43,-1.699,1.6540000000000001,0.0,0.0,-1.6969999999999998,-1.496,-1.749,1.466,0.0,0.523,-1.64,-1.084,-1.795,1.0590000000000002,0.0,0.0,-1.5930000000000002,-0.961,-1.8719999999999999,0.6679999999999999,0.0,0.0,-1.676,-0.7340000000000001,-1.9409999999999998,0.593,-0.6729999999999999,0.0,0.0,0.995,-1.933,0.614,-0.821,-0.5920000000000001,0.0,1.659,-1.6780000000000002,0.747,-0.76,0.0,0.0,1.386,-1.365,0.731,-0.601,-1.327,0.0,1.301,-1.276,0.5820000000000001,-0.511,-0.789,0.0,1.5930000000000002,-1.246,0.54,0.0,-0.59,0.0,1.841,-1.2590000000000001,0.0,0.0,0.0,0.0,1.805,-1.225,0.0,0.0,0.0,0.513,1.615,-1.156,0.0,0.0,0.0,0.0,1.044,-0.951,0.0,0.0,0.0,0.0,0.61,-0.9259999999999999,0.0,0.0,-0.7509999999999999,0.0,0.521,-0.934,0.0,0.0,-0.501,0.0,0.945,-0.98,0.0,0.0,0.0,0.0,1.04,-0.8220000000000001,0.0,0.0,0.0,0.0,1.1540000000000001,-0.722,0.0,0.0,-1.077,0.0,1.4869999999999999,-0.6809999999999999,0.0,0.0,-0.922,0.0,1.6380000000000001,-0.609,0.0,0.0,0.0,0.0,1.4509999999999998,0.0,0.0,0.0,-0.853,-0.61,1.482,0.0,0.0,0.0,-0.898,0.0,1.838,0.0,0.0,0.0,-0.925,0.0,2.062,0.0,0.0,0.0,-0.579,0.0,1.91,0.0,0.0,0.0,0.669,0.0,0.975,0.0,0.0,0.0,0.0,-0.503,0.0,0.0,0.0,0.0,0.0,-0.872,0.0,0.0,0.0,0.0,-0.519,0.0,0.0,0.0,0.0,0.0,0.0,-0.506,0.0,0.0,0.0,0.0,0.649,-0.95,0.0,0.0,0.0,0.0,0.555,-0.695,-0.579,0.0,0.0,0.0,0.0,0.0,0.0,0.0,0.0,0.0,0.0,0.0,-0.69,0.0,0.0,0.0,0.0,0.0,-0.792,0.0,0.0,0.0,0.0,0.0,-0.593,0.0,0.0,0.0,0.0,0.0,0.0,0.0,0.0,0.0,0.0,0.0,0.0,0.0,0.0,0.0,-0.564,0.0,0.0,0.0,0.0,0.0,0.0,0.0,0.562,0.0,0.0,0.0,0.0,0.0,0.6920000000000001,0.0,0.59,0.0,0.0,-0.8,0.634,0.0,0.7390000000000001,0.0,,,,,,,,,,,,,,,,,,,,,,,,,,,,,,,,,,,,,,,,,,,,,,,,,,,,,,,,,,,,,,,,,,,,,,,,,,,,,,,,,,,,,,,,,,,,,,,,,,,,,,,,,,,,,,,,,,,,,,,,,,,,,,,,,,,,,,,,,,,,,,,,,,,,,,,,,,,,,,,,,,,,,,,,,moveDown
accX,0.0,-0.594,-0.784,0.0,0.514,0.0,0.0,-0.862,-1.3090000000000002,-0.631,0.596,0.0,0.0,-0.983,-1.964,-0.7390000000000001,0.623,0.536,0.0,-1.4909999999999999,-2.9,-0.755,0.6990000000000001,0.52,0.0,-1.962,-3.159,-0.816,1.065,0.0,-0.539,-2.529,-3.2710000000000004,-0.902,1.4669999999999999,0.0,-0.7659999999999999,-2.5780000000000003,-3.065,-0.998,1.6680000000000001,0.0,0.0,-2.2769999999999997,-3.09,-1.266,1.525,0.0,-0.912,-2.3369999999999997,-2.715,-1.5390000000000001,1.446,0.0,-0.851,-2.165,-2.176,-1.695,1.4280000000000002,0.0,0.0,-2.316,-1.828,-1.8130000000000002,1.319,0.0,0.0,-2.066,-1.0759999999999998,-1.883,1.252,0.0,0.0,-1.49,0.0,-1.786,1.1,0.0,0.0,-1.525,0.0,-1.745,0.789,0.0,0.0,-1.5090000000000001,0.0,-1.804,0.653,-0.5760000000000001,-0.865,-1.225,0.0,-1.811,0.693,-0.618,-1.2229999999999999,-0.606,1.3430000000000002,-1.71,0.83,-0.5660000000000001,-1.146,0.0,1.9380000000000002,-1.464,0.852,0.0,0.0,0.0,1.58,-1.2009999999999998,0.0,0.0,0.0,0.0,0.731,-1.0759999999999998,0.0,0.0,-2.272,0.0,1.0979999999999999,-1.232,0.0,-0.585,-1.597,0.741,1.848,-1.16,0.696,0.0,-0.7609999999999999,0.86,2.022,-0.99,0.736,0.0,-1.129,0.0,2.171,-0.872,0.546,0.0,-1.291,0.0,2.637,-0.85,0.0,0.0,-1.021,0.506,2.787,-0.759,0.0,0.0,0.0,0.0,2.121,-0.5710000000000001,0.0,0.0,-0.6679999999999999,0.0,1.578,0.0,0.0,0.0,-0.688,0.0,1.186,0.0,0.0,0.0,0.0,0.0,1.115,0.0,0.0,0.0,0.0,0.0,1.133,0.0,0.0,0.0,-0.535,0.0,1.2930000000000001,0.0,0.0,0.0,0.0,0.0,1.189,0.0,0.0,0.0,-0.556,-0.505,1.156,0.0,0.0,0.0,0.0,0.0,1.11,0.0,0.0,0.0,0.0,0.0,0.706,0.0,0.0,0.0,0.0,0.0,0.0,0.0,0.0,0.0,0.0,-0.675,0.0,0.0,0.0,0.0,0.0,-0.8420000000000001,-0.777,0.0,0.0,0.0,0.0,-0.698,-0.772,0.0,0.0,0.0,0.0,0.0,0.0,0.0,0.0,0.0,0.0,0.0,0.0,0.0,0.0,0.0,0.0,0.0,0.0,0.0,0.0,0.0,0.0,0.0,0.0,0.0,0.0,0.0,0.0,0.0,0.0,0.0,0.0,0.0,-0.578,0.0,0.0,0.0,0.0,0.0,-0.67,0.0,0.971,0.0,0.0,0.0,,,,,,,,,,,,,,,,,,,,,,,,,,,,,,,,,,,,,,,,,,,,,,,,,,,,,,,,,,,,,,,,,,,,,,,,,,,,,,,,,,,,,,,,,,,,,,,,,,,,,,,,,,,,,,,,,,,,,,,,,,,,,,,,,,,,,,,,,,,,,,,,,,,,,,,,,,,,,,,,,,,,,,,,,,,,,,,,,,,,,,,,,,,,,,,,,,,,,,,moveDown
accX,0.0,-1.2209999999999999,-1.338,-0.5870000000000001,0.0,0.0,0.0,-0.9279999999999999,-1.207,-0.8240000000000001,0.0,0.0,0.0,-0.7979999999999999,-2.016,-0.9540000000000001,0.597,0.0,0.0,-1.389,-2.512,-0.9209999999999999,0.701,0.0,0.0,-2.187,-3.06,-1.105,0.855,0.0,0.0,-2.49,-3.156,-1.3559999999999999,1.101,0.0,0.0,-2.593,-3.157,-1.546,1.228,0.0,0.0,-3.0180000000000002,-3.344,-1.776,1.07,-0.557,0.0,-3.165,-3.025,-2.114,0.882,-0.659,-1.078,-2.948,-2.039,-2.399,0.894,-0.605,-0.997,-2.015,-1.002,-2.3209999999999997,1.042,-0.531,0.0,-1.642,0.0,-2.053,1.062,-0.518,0.0,-1.847,0.0,-1.865,0.873,-0.599,-0.626,-1.675,0.0,-1.825,0.851,-0.7090000000000001,0.0,-1.8330000000000002,0.0,-1.84,0.685,-0.75,-1.103,-1.155,0.0,-1.883,0.775,-0.8220000000000001,-1.338,-0.721,1.128,-1.85,0.769,-0.735,-1.4980000000000002,0.0,2.121,-1.724,0.767,-0.5820000000000001,-1.617,0.0,2.948,-1.52,0.65,0.0,0.0,0.684,2.984,-1.163,0.0,0.0,-1.903,0.0,2.888,-1.061,0.0,0.0,-1.5130000000000001,0.0,2.935,-0.943,0.0,0.0,-1.177,0.0,2.886,-0.86,0.0,0.0,-1.1909999999999998,0.0,3.1069999999999998,-0.711,0.0,0.0,0.0,0.0,2.845,0.0,0.0,0.0,0.0,0.0,2.1519999999999997,0.0,0.0,0.0,0.0,0.0,1.334,0.0,0.0,0.0,0.0,0.0,0.0,0.0,0.0,0.0,-0.826,-0.595,0.0,0.0,0.0,0.0,0.0,0.0,0.8540000000000001,0.0,0.0,0.0,0.0,0.0,1.166,0.0,0.0,0.0,0.0,0.0,1.122,0.0,0.0,0.0,0.0,-0.597,0.812,0.0,0.0,0.0,0.0,0.0,0.0,0.0,0.0,0.0,0.0,-0.677,0.0,0.0,0.0,0.0,0.0,-0.522,0.0,0.0,0.0,0.0,0.0,-0.5820000000000001,0.0,0.0,0.0,0.0,0.0,-0.52,0.0,0.0,0.0,0.0,0.631,-0.606,0.0,0.0,0.0,0.0,0.0,0.0,0.0,0.0,0.0,0.0,0.0,0.0,0.0,0.0,0.0,0.0,0.0,0.0,0.0,0.0,0.0,0.0,0.0,0.0,0.0,0.0,0.0,0.0,0.0,0.0,0.722,0.0,0.0,0.0,0.0,0.0,1.012,0.0,0.0,0.0,0.0,0.0,1.5019999999999998,0.601,0.0,0.0,,,,,,,,,,,,,,,,,,,,,,,,,,,,,,,,,,,,,,,,,,,,,,,,,,,,,,,,,,,,,,,,,,,,,,,,,,,,,,,,,,,,,,,,,,,,,,,,,,,,,,,,,,,,,,,,,,,,,,,,,,,,,,,,,,,,,,,,,,,,,,,,,,,,,,,,,,,,,,,,,,,,,,,,,,,,,,,,,,,,,,,,,,,,,,,,,,,,,,,,,,,,,moveDown
accX,0.0,-1.591,-1.506,-0.672,0.0,0.0,0.628,-1.8119999999999998,-1.767,-0.9129999999999999,0.596,0.0,0.0,-1.587,-2.428,-1.103,0.728,0.0,0.0,-2.315,-3.238,-1.138,0.841,0.0,0.0,-2.852,-3.523,-1.3230000000000002,1.018,0.0,0.0,-3.0,-3.5789999999999997,-1.665,1.166,0.0,0.0,-2.9930000000000003,-3.315,-2.001,1.156,0.0,-0.9259999999999999,-2.383,-2.369,-2.119,1.247,0.0,-0.91,-1.5330000000000001,-1.354,-2.084,1.3430000000000002,0.0,-0.556,-1.031,-0.812,-2.003,1.2690000000000001,0.0,0.0,-1.479,-0.95,-1.9140000000000001,0.983,0.0,0.0,-1.04,-0.638,-2.056,0.757,0.0,-1.237,-0.591,0.0,-2.123,1.09,0.0,0.0,0.0,0.605,-1.976,1.1440000000000001,0.0,0.54,0.0,1.237,-1.7409999999999999,0.948,0.0,-0.589,0.0,1.726,-1.564,0.8,0.0,0.0,0.0,1.9269999999999998,-1.459,0.573,0.0,-0.659,0.0,1.84,-1.416,0.0,0.0,0.0,0.0,1.515,-1.331,0.0,0.0,-1.339,0.0,1.518,-1.2890000000000001,0.0,0.0,-1.358,0.603,2.069,-1.117,0.0,0.0,-1.245,0.0,2.525,-0.9690000000000001,0.0,0.0,0.0,0.0,2.1919999999999997,-0.757,0.0,0.0,-0.792,0.0,1.996,-0.7,0.0,0.0,-0.66,0.0,1.659,-0.618,0.0,0.0,0.0,0.0,1.178,-0.552,0.0,0.0,0.0,0.0,0.508,0.0,0.0,0.0,-0.601,-0.525,0.0,0.0,0.0,0.0,-0.9640000000000001,0.0,0.0,0.0,0.0,0.0,-0.627,0.0,1.476,0.0,0.0,0.0,0.0,0.0,1.7930000000000001,0.0,0.0,0.0,0.0,0.0,1.6059999999999999,0.0,0.0,0.0,0.0,-0.6559999999999999,0.0,0.0,0.0,0.0,0.0,-0.7559999999999999,0.0,0.0,0.0,0.0,-0.7340000000000001,-0.83,0.0,0.0,0.0,0.0,0.0,0.0,0.0,0.0,0.0,0.0,1.2670000000000001,0.0,0.0,0.0,0.0,0.0,0.0,-0.534,0.0,0.0,0.0,0.0,0.0,0.0,0.0,0.0,0.0,0.0,0.0,0.0,0.703,0.0,0.0,0.0,-0.5479999999999999,0.0,1.365,0.0,0.0,0.0,0.0,0.0,1.93,0.0,0.0,0.0,0.0,0.0,0.83,0.0,0.0,0.0,0.0,-0.893,0.0,0.0,0.0,0.0,0.0,0.0,0.0,0.0,0.0,0.0,0.0,0.0,0.0,0.0,0.0,0.0,0.0,0.0,1.656,0.0,0.57,0.0,-0.858,0.56,3.505,0.0,0.0,0.0,-1.9369999999999998,0.0,4.906000000000001,0.0,0.0,0.0,,,,,,,,,,,,,,,,,,,,,,,,,,,,,,,,,,,,,,,,,,,,,,,,,,,,,,,,,,,,,,,,,,,,,,,,,,,,,,,,,,,,,,,,,,,,,,,,,,,,,,,,,,,,,,,,,,,,,,,,,,,,,,,,,,,,,,,,,,,,,,,,,,,,,,,,,,,,,,,,,,,,,,,,,,,,,,,,,,,,,,,,,,,moveDown
accX,0.0,-0.5429999999999999,-1.005,0.0,0.0,0.0,0.0,-0.799,-1.139,0.0,0.5770000000000001,0.0,0.665,-1.175,-1.251,-0.568,0.602,0.0,0.614,-1.0959999999999999,-1.6780000000000002,-0.6559999999999999,0.535,0.0,0.0,-1.476,-2.576,-0.685,0.556,0.0,0.0,-1.595,-3.177,-0.8809999999999999,0.8059999999999999,0.0,-0.58,-2.141,-3.261,-1.119,1.148,0.0,0.0,-2.3209999999999997,-3.141,-1.412,1.298,0.0,0.0,-2.492,-3.21,-1.646,1.148,0.0,-0.5579999999999999,-2.734,-3.025,-1.892,1.0090000000000001,0.0,-0.745,-2.19,-2.407,-2.033,1.09,0.0,-0.677,-2.191,-1.4040000000000001,-2.108,1.202,0.0,0.0,-1.577,0.0,-2.1919999999999997,1.207,0.0,0.763,-1.159,0.846,-2.003,1.05,0.0,0.0,-0.599,1.219,-1.798,0.8190000000000001,0.0,0.0,-0.856,1.125,-1.554,0.6,0.0,0.0,0.0,0.8290000000000001,-1.3719999999999999,0.534,-0.547,-0.8009999999999999,-0.523,0.7290000000000001,-1.374,0.0,0.0,0.0,0.0,0.728,-1.416,0.0,0.0,0.0,0.0,0.7340000000000001,-1.3969999999999998,0.0,0.0,-0.91,0.0,1.375,-1.43,0.0,0.0,0.0,0.588,1.63,-1.012,0.0,0.0,0.0,0.0,1.07,-0.9159999999999999,0.0,0.0,0.0,0.0,0.894,-0.948,0.0,0.0,0.0,0.0,0.833,-0.986,0.0,0.0,0.0,0.0,1.1740000000000002,-0.929,0.0,0.0,0.0,0.0,1.236,-0.79,0.0,0.0,0.0,0.0,1.2919999999999998,-0.679,0.0,0.0,-0.513,0.0,1.35,-0.653,0.0,0.0,0.0,0.0,1.005,0.0,0.0,0.0,0.0,0.0,0.726,0.0,0.0,0.0,-1.305,0.0,1.031,-0.551,0.521,0.0,-1.304,0.0,2.062,-0.58,0.695,0.0,-1.484,0.0,2.97,0.0,0.748,0.0,-1.2790000000000001,0.0,3.804,0.0,0.536,0.0,0.0,0.635,3.3689999999999998,0.0,0.0,0.0,0.0,0.0,1.646,0.0,-0.6709999999999999,0.0,0.0,0.0,0.0,0.0,-0.73,0.0,0.0,-0.654,-1.138,0.0,-0.537,0.0,0.0,0.0,-1.5930000000000002,0.0,0.0,0.0,0.0,0.0,-1.5730000000000002,0.0,0.0,0.0,0.8759999999999999,0.0,-1.518,0.0,0.0,0.0,0.0,0.0,-1.389,0.0,0.0,0.0,0.0,0.0,-1.053,0.0,0.0,0.0,0.0,0.0,0.0,0.0,0.0,0.0,0.0,0.0,0.0,0.0,0.0,0.0,-0.78,0.0,1.635,0.0,0.0,0.0,-0.95,0.0,2.059,0.0,0.0,0.0,0.0,0.0,2.3,0.0,0.0,0.0,0.0,0.0,2.184,0.0,0.0,0.0,,,,,,,,,,,,,,,,,,,,,,,,,,,,,,,,,,,,,,,,,,,,,,,,,,,,,,,,,,,,,,,,,,,,,,,,,,,,,,,,,,,,,,,,,,,,,,,,,,,,,,,,,,,,,,,,,,,,,,,,,,,,,,,,,,,,,,,,,,,,,,,,,,,,,,,,,,,,,,,,,,,,,,,,,,,,,,,,,,,,,moveDown
accX,0.0,0.0,-0.675,0.0,0.0,0.0,0.0,-0.8029999999999999,-1.1159999999999999,0.0,0.0,0.0,0.0,-0.8490000000000001,-1.207,-0.611,0.0,0.0,0.0,-0.875,-1.3769999999999998,-0.736,0.0,0.0,-0.642,-1.151,-1.7519999999999998,-0.7909999999999999,0.5489999999999999,0.0,-0.5529999999999999,-1.141,-1.815,-0.866,0.773,0.0,0.0,-1.176,-2.13,-0.866,0.887,0.0,0.0,-1.882,-2.807,-0.888,0.825,0.0,0.0,-2.202,-3.125,-1.093,0.8959999999999999,0.0,0.0,-2.145,-2.8360000000000003,-1.268,1.166,0.0,0.0,-1.7069999999999999,-2.355,-1.466,1.284,0.0,0.0,-1.588,-1.74,-1.5719999999999998,1.23,0.0,0.0,-1.205,-1.048,-1.6380000000000001,1.213,0.0,0.0,-1.1440000000000001,-0.862,-1.594,1.04,0.0,0.0,-0.917,-1.103,-1.531,0.784,0.0,0.0,-1.419,-1.321,-1.524,0.524,0.0,-0.701,-0.871,-0.7240000000000001,-1.683,0.551,0.0,-0.511,0.0,0.0,-1.719,0.72,0.0,0.0,0.0,0.0,-1.499,0.67,0.0,0.0,0.0,0.0,-1.367,0.601,0.0,0.0,0.0,0.9129999999999999,-1.355,0.631,0.0,0.0,0.0,1.435,-1.273,0.674,0.0,0.0,0.0,1.587,-1.149,0.0,0.0,0.0,0.0,1.706,-1.1540000000000001,0.0,-0.524,-0.7979999999999999,0.7829999999999999,1.788,-1.012,0.0,-0.521,-1.315,0.0,1.6980000000000002,-0.981,0.0,0.0,-0.7559999999999999,0.0,1.595,-0.8759999999999999,0.0,0.0,-1.4040000000000001,0.0,1.599,-0.848,0.0,0.0,-1.351,0.0,1.976,-0.7240000000000001,0.0,0.0,-1.1440000000000001,0.0,2.3890000000000002,-0.633,0.0,0.0,0.0,0.0,2.089,0.0,0.0,0.0,-0.5589999999999999,0.0,1.5659999999999998,0.0,0.0,0.0,-0.501,-0.552,0.925,0.0,0.0,0.0,-1.082,-0.509,0.9109999999999999,-0.5429999999999999,0.0,0.0,-1.244,0.0,1.466,0.0,0.0,0.0,-0.863,0.0,1.9569999999999999,0.0,0.0,0.0,0.581,0.0,1.285,0.0,0.0,0.0,0.0,-0.586,0.0,0.0,0.0,0.0,-0.6759999999999999,-0.745,0.0,0.0,0.0,0.0,-0.7979999999999999,-0.6859999999999999,0.0,0.0,0.0,0.0,0.0,0.0,0.535,0.0,0.0,0.0,0.0,0.0,0.7070000000000001,0.0,0.0,0.0,0.0,0.0,0.0,0.0,0.0,0.0,0.0,-0.6779999999999999,-0.55,0.0,0.0,0.0,0.0,0.0,-0.853,0.0,0.0,0.0,0.0,0.0,-0.81,0.0,0.0,0.0,0.0,0.0,0.0,0.0,0.0,0.0,0.0,0.0,0.0,0.0,0.0,0.0,0.0,0.0,0.958,0.0,0.0,0.0,-0.66,0.0,1.9969999999999999,0.0,0.0,0.0,-1.444,0.0,3.025,0.0,0.0,0.0,,,,,,,,,,,,,,,,,,,,,,,,,,,,,,,,,,,,,,,,,,,,,,,,,,,,,,,,,,,,,,,,,,,,,,,,,,,,,,,,,,,,,,,,,,,,,,,,,,,,,,,,,,,,,,,,,,,,,,,,,,,,,,,,,,,,,,,,,,,,,,,,,,,,,,,,,,,,,,,,,,,,,,,,,,,,,,,moveDown
accX,0.0,0.0,0.0,0.0,0.0,0.0,0.0,0.0,0.0,0.0,0.0,0.0,0.5479999999999999,-0.9740000000000001,-0.7609999999999999,0.0,0.0,0.0,0.0,-0.858,-1.37,-0.606,0.0,0.0,-0.588,-0.861,-1.814,-0.6459999999999999,0.614,0.0,0.0,-1.147,-2.414,-0.6409999999999999,0.852,0.0,0.0,-2.133,-3.069,-0.9470000000000001,1.126,0.0,0.0,-2.106,-3.1460000000000004,-1.166,1.242,0.0,0.0,-2.181,-2.969,-1.4340000000000002,1.113,0.0,0.0,-1.614,-2.479,-1.673,1.037,0.0,0.0,-1.575,-1.92,-1.825,0.975,0.0,0.0,-1.196,-1.25,-1.895,0.924,0.0,0.0,-1.178,-0.5579999999999999,-1.905,0.93,0.0,0.0,-0.9329999999999999,0.0,-1.8530000000000002,0.852,0.0,0.0,-0.897,0.0,-1.682,0.703,0.0,0.0,0.0,0.0,-1.5390000000000001,0.562,0.0,0.8690000000000001,-0.7190000000000001,0.0,-1.357,0.0,0.0,0.0,-1.192,-1.2790000000000001,-1.339,0.0,-0.579,-1.179,-0.7959999999999999,-1.1320000000000001,-1.5390000000000001,0.0,-0.574,-1.1420000000000001,0.0,0.0,-1.621,0.0,0.0,0.0,0.0,0.0,-1.486,0.639,0.0,0.0,-0.647,0.552,-1.4669999999999999,0.0,0.0,0.7609999999999999,0.0,0.0,-1.401,0.0,-0.5429999999999999,-0.5429999999999999,0.0,0.0,-1.3130000000000002,0.0,0.0,-0.775,0.0,0.0,-1.225,0.0,0.0,-0.6679999999999999,0.0,0.0,-1.306,0.0,0.0,-1.521,0.0,1.469,-1.258,0.604,0.0,-1.78,0.0,3.053,-1.287,1.103,0.0,-1.1540000000000001,0.0,4.018,-1.2009999999999998,1.255,0.0,0.0,0.0,3.435,-0.767,0.7120000000000001,0.0,-1.085,-0.546,2.785,-0.6920000000000001,0.0,0.0,-2.151,0.0,2.813,-0.8540000000000001,0.0,0.0,-1.699,0.585,3.138,-0.5760000000000001,0.0,0.0,0.0,0.655,2.572,0.0,0.0,0.0,0.618,0.0,1.3119999999999998,0.0,0.0,0.0,0.0,-0.6709999999999999,0.0,0.0,-0.513,0.0,-0.785,-0.905,0.0,0.0,0.0,0.0,-1.619,0.0,0.0,0.0,0.0,0.0,-0.687,0.0,0.8909999999999999,0.0,0.524,0.0,0.0,0.0,1.062,0.0,0.0,0.0,0.0,-0.555,0.6609999999999999,0.0,0.0,0.0,0.0,-0.89,0.0,0.0,0.0,0.0,-0.508,-0.629,0.0,0.0,0.0,0.0,0.0,0.0,0.0,0.0,0.0,0.0,0.0,-0.529,0.0,0.0,0.0,0.0,0.0,-0.633,0.0,0.0,0.0,0.0,0.0,0.0,0.0,0.0,0.0,0.0,-0.745,0.0,0.573,0.0,0.0,0.0,-1.297,0.0,1.845,0.0,0.605,0.0,-1.5730000000000002,0.0,3.409,0.726,0.722,0.0,,,,,,,,,,,,,,,,,,,,,,,,,,,,,,,,,,,,,,,,,,,,,,,,,,,,,,,,,,,,,,,,,,,,,,,,,,,,,,,,,,,,,,,,,,,,,,,,,,,,,,,,,,,,,,,,,,,,,,,,,,,,,,,,,,,,,,,,,,,,,,,,,,,,,,,,,,,,,,,,,,,,,,,,,,,,,,,,,,,,,moveDown
accX,0.0,0.0,-0.513,0.0,0.0,0.0,0.0,-0.542,-0.604,0.0,0.0,0.0,0.0,0.0,-0.505,0.0,0.0,0.0,0.0,-0.6890000000000001,-1.3980000000000001,-0.5670000000000001,0.0,0.0,0.0,-0.877,-2.1830000000000003,-0.5489999999999999,0.5539999999999999,0.0,-0.5379999999999999,-1.673,-2.9539999999999997,-0.6890000000000001,0.8270000000000001,0.0,0.0,-1.963,-3.432,-0.836,1.115,0.0,0.0,-2.1590000000000003,-4.091,-1.078,1.175,0.0,0.0,-3.013,-4.26,-1.4140000000000001,1.196,0.0,-0.909,-3.0269999999999997,-3.675,-1.694,1.364,0.0,-0.925,-2.544,-2.529,-1.77,1.621,0.0,0.0,-2.109,-1.556,-1.659,1.6269999999999998,0.0,0.0,-1.047,-0.708,-1.551,1.4169999999999998,0.0,0.0,-1.173,-0.747,-1.5190000000000001,1.1420000000000001,0.0,-0.504,-1.3869999999999998,0.0,-1.646,0.9159999999999999,0.0,0.0,0.0,0.843,-1.805,0.955,0.0,0.0,0.0,1.203,-1.675,0.797,0.0,0.0,0.0,1.079,-1.4769999999999999,0.516,0.0,0.0,0.0,0.0,-1.304,0.0,0.0,-1.246,0.0,0.511,-1.2919999999999998,0.0,0.0,-1.222,0.0,1.4469999999999998,-1.442,0.703,0.0,0.0,0.0,1.5019999999999998,-1.21,0.605,0.0,0.0,0.0,1.238,-1.072,0.0,0.0,-0.997,0.0,1.361,-1.148,0.0,0.0,-0.778,0.0,1.4869999999999999,-1.087,0.0,0.0,-0.763,0.0,1.5619999999999998,-1.0290000000000001,0.0,0.0,0.0,0.0,1.3519999999999999,-0.86,0.54,0.0,0.0,0.0,1.0290000000000001,-0.5870000000000001,0.0,0.0,-1.042,-1.026,1.0390000000000001,-0.574,0.0,0.0,-1.3530000000000002,-0.71,1.6669999999999998,-0.8320000000000001,0.847,0.0,-0.7759999999999999,0.0,2.3569999999999998,-0.8029999999999999,1.08,0.0,0.0,0.0,2.508,0.0,0.7959999999999999,0.0,0.0,0.0,1.9409999999999998,0.0,0.0,0.0,-0.8759999999999999,-0.68,1.6880000000000002,0.0,0.0,0.0,-1.655,0.0,1.767,0.0,0.0,0.0,-1.319,0.0,1.985,0.0,0.0,0.0,-0.625,0.0,1.7,0.0,0.0,0.0,-0.9420000000000001,0.0,1.089,0.0,0.0,0.0,-1.04,0.0,0.777,0.0,0.0,0.0,-0.9440000000000001,-0.6659999999999999,0.0,0.0,0.0,0.0,0.0,0.0,0.6,0.0,0.0,0.0,0.0,0.0,0.0,0.0,0.0,0.0,0.0,0.0,0.0,0.0,0.0,0.0,0.0,0.0,0.0,0.0,0.0,0.0,0.0,-0.6970000000000001,0.0,0.0,0.0,0.0,0.0,0.0,0.6579999999999999,0.0,0.0,0.0,,,,,,,,,,,,,,,,,,,,,,,,,,,,,,,,,,,,,,,,,,,,,,,,,,,,,,,,,,,,,,,,,,,,,,,,,,,,,,,,,,,,,,,,,,,,,,,,,,,,,,,,,,,,,,,,,,,,,,,,,,,,,,,,,,,,,,,,,,,,,,,,,,,,,,,,,,,,,,,,,,,,,,,,,,,,,,,,,,,,,,,,,,,,,,,,,,,,,,,,,,,,,moveDown
accX,0.0,-0.677,-0.82,0.0,0.0,0.0,0.0,-0.853,-1.135,-0.506,0.547,0.0,0.0,-0.98,-1.306,-0.667,0.698,0.0,0.0,-1.119,-1.619,-0.755,0.7909999999999999,0.0,0.0,-1.2819999999999998,-1.882,-0.7879999999999999,0.8140000000000001,0.0,0.0,-1.994,-2.353,-0.871,0.852,0.0,0.642,-2.5639999999999996,-3.139,-1.079,0.8270000000000001,0.0,0.0,-2.658,-3.715,-1.33,0.7879999999999999,0.0,-0.7490000000000001,-3.115,-3.818,-1.604,1.032,0.0,-0.996,-2.72,-3.155,-1.745,1.4040000000000001,0.0,0.0,-2.247,-2.213,-1.8319999999999999,1.432,0.0,0.0,-2.6039999999999996,-1.5390000000000001,-1.8619999999999999,1.228,0.0,0.0,-1.867,-0.7959999999999999,-1.879,1.0390000000000001,0.0,0.0,-1.495,-0.561,-1.7530000000000001,0.885,0.0,0.0,-1.558,-0.667,-1.692,0.7390000000000001,-0.59,-0.62,-1.432,0.0,-1.7630000000000001,0.644,-0.541,-0.815,-0.981,0.0,-1.745,0.64,0.0,-0.914,-0.6809999999999999,0.0,-1.626,0.7929999999999999,0.0,-0.643,0.0,1.381,-1.569,0.632,0.0,-0.634,0.0,1.936,-1.4569999999999999,0.659,0.0,-0.684,0.6829999999999999,2.061,-1.301,0.645,0.0,-1.047,0.0,1.893,-1.1059999999999999,0.569,0.0,0.0,0.0,1.633,-0.934,0.614,0.0,-0.873,0.0,1.8259999999999998,-0.927,0.632,0.0,-0.925,0.0,1.993,-0.935,0.5770000000000001,0.0,0.0,0.0,1.386,-0.7759999999999999,0.0,0.0,-1.253,0.0,1.379,-0.715,0.0,0.0,-1.455,0.0,1.777,-0.747,0.0,0.0,-0.73,0.0,2.3209999999999997,-0.7809999999999999,0.637,0.0,0.0,0.0,2.062,-0.534,0.0,0.0,0.0,0.0,1.3940000000000001,0.0,0.0,0.0,0.0,-0.578,0.858,0.0,0.0,0.0,-1.0959999999999999,-0.8170000000000001,0.8590000000000001,0.0,0.0,0.0,-0.8540000000000001,0.0,1.442,0.0,0.0,0.0,0.0,0.0,1.9269999999999998,0.0,0.0,0.0,0.0,0.0,1.756,0.0,0.0,0.0,0.0,0.0,1.061,0.0,0.0,0.0,-0.8440000000000001,-0.7390000000000001,0.6659999999999999,0.0,0.0,0.0,-0.987,-0.619,0.597,0.0,0.0,0.0,-0.598,0.0,1.0659999999999998,0.0,0.0,0.0,0.0,0.0,0.968,0.0,0.0,0.0,0.0,0.0,0.0,0.0,0.0,0.0,0.0,-0.574,0.0,0.0,0.0,0.0,-0.575,0.0,0.0,0.0,0.0,0.0,-0.523,0.0,0.63,0.0,0.0,0.0,-0.6940000000000001,0.0,1.766,0.0,0.0,0.0,-1.1159999999999999,0.0,3.016,0.0,0.0,0.0,-0.968,0.0,3.799,0.5870000000000001,0.0,0.0,-1.3359999999999999,0.0,3.8369999999999997,0.635,0.0,0.0,,,,,,,,,,,,,,,,,,,,,,,,,,,,,,,,,,,,,,,,,,,,,,,,,,,,,,,,,,,,,,,,,,,,,,,,,,,,,,,,,,,,,,,,,,,,,,,,,,,,,,,,,,,,,,,,,,,,,,,,,,,,,,,,,,,,,,,,,,,,,,,,,,,,,,,,,,,,,,,,,,,,,,,,,,,,,,,,,,,,,,,,,,,moveDown
accX,0.0,0.0,0.0,0.0,0.0,0.0,0.0,0.0,0.0,0.0,0.0,0.0,0.0,0.0,0.0,0.0,0.0,0.0,0.0,0.0,0.0,0.0,0.0,0.0,0.0,-0.645,-0.8740000000000001,0.0,0.0,0.506,0.0,-0.945,-1.294,0.0,0.586,0.0,0.0,-1.308,-1.525,-0.534,0.613,0.0,0.0,-1.475,-1.794,-0.602,0.555,0.0,0.0,-1.249,-2.0069999999999997,-0.64,0.5529999999999999,0.0,-0.647,-1.649,-2.625,-0.7190000000000001,0.7390000000000001,0.0,-1.216,-2.226,-2.972,-1.0090000000000001,1.122,0.0,0.0,-1.6969999999999998,-2.738,-1.1440000000000001,1.344,0.0,0.0,-2.044,-2.7569999999999997,-1.337,1.2990000000000002,0.0,0.0,-2.363,-2.469,-1.58,1.137,0.0,0.0,-2.259,-1.689,-1.761,1.078,0.0,0.0,-1.794,-0.7809999999999999,-1.778,1.155,0.0,0.0,-1.409,0.0,-1.693,1.078,0.0,0.5479999999999999,-0.955,0.0,-1.615,0.6990000000000001,0.0,0.531,-1.212,0.0,-1.598,0.0,0.0,0.0,-0.982,-0.606,-1.5830000000000002,0.0,0.0,-0.9009999999999999,-0.506,-0.504,-1.5219999999999998,0.545,0.0,-0.765,-0.601,0.0,-1.507,0.7829999999999999,0.0,0.0,0.0,0.0,-1.406,0.7290000000000001,0.0,0.0,0.0,0.0,-1.2329999999999999,0.0,0.0,0.0,-0.672,0.0,-1.215,0.0,0.0,-0.601,-0.705,0.0,-1.327,0.0,0.0,0.0,0.0,0.0,-1.371,0.0,0.0,0.0,0.0,0.0,-1.315,0.5820000000000001,0.0,0.0,0.0,0.0,-1.127,0.557,0.0,-0.6629999999999999,0.0,0.754,-1.176,0.637,0.0,0.0,0.0,1.236,-1.194,0.8220000000000001,0.0,-1.131,0.0,1.755,-1.1520000000000001,0.778,0.0,-0.723,0.0,2.076,-1.104,0.83,0.0,0.0,0.0,2.0380000000000003,-0.8440000000000001,0.555,0.0,-1.443,-0.669,2.7030000000000003,-0.836,0.0,0.0,-1.61,0.0,3.303,-1.036,0.635,0.0,-0.934,0.0,3.0589999999999997,-0.97,0.574,0.0,0.0,0.0,2.499,-0.6409999999999999,0.0,0.0,-1.401,0.0,2.248,-0.511,0.0,0.0,-1.5659999999999998,0.0,1.77,0.0,-0.512,0.0,-1.4869999999999999,0.0,1.273,0.0,0.0,0.0,-1.1520000000000001,0.0,1.16,0.0,0.0,0.0,-0.636,0.0,1.41,0.0,0.0,0.0,0.0,0.0,1.367,0.0,0.0,0.0,0.0,0.0,0.82,0.0,0.0,0.0,0.0,-0.75,0.0,0.0,0.0,0.0,0.0,-0.838,0.0,0.0,0.0,0.0,0.0,-0.53,0.0,0.0,0.0,0.0,0.0,0.0,0.0,0.0,0.0,0.0,0.0,0.0,0.0,0.0,0.0,0.0,0.0,0.0,0.0,0.0,0.0,0.0,0.0,0.0,0.0,0.0,0.0,0.0,-1.254,0.0,1.534,0.0,0.562,0.0,-1.5090000000000001,0.6809999999999999,3.674,0.0,0.675,0.0,,,,,,,,,,,,,,,,,,,,,,,,,,,,,,,,,,,,,,,,,,,,,,,,,,,,,,,,,,,,,,,,,,,,,,,,,,,,,,,,,,,,,,,,,,,,,,,,,,,,,,,,,,,,,,,,,,,,,,,,,,,,,,,,,,,,,,,,,,,,,,,,,,,,,,,,,,,,,moveDown
accX,0.0,-0.8220000000000001,-1.247,0.0,0.0,0.0,0.0,0.0,-1.2570000000000001,0.0,0.0,0.0,0.0,-0.56,-1.446,-0.715,0.519,0.0,-0.691,0.0,-1.655,-0.698,0.6509999999999999,0.0,-0.825,-0.645,-2.305,-0.632,0.7340000000000001,0.505,-0.764,-1.187,-2.917,-0.664,0.8759999999999999,0.561,0.0,-2.218,-2.943,-0.9159999999999999,0.9890000000000001,0.502,0.0,-2.4290000000000003,-3.013,-1.13,1.056,0.0,0.0,-2.454,-2.9939999999999998,-1.327,1.024,0.0,0.0,-2.387,-3.011,-1.5019999999999998,0.992,0.0,-0.732,-2.403,-2.6180000000000003,-1.706,1.048,0.0,0.0,-2.158,-1.735,-1.761,1.075,0.0,0.0,-1.8969999999999998,-0.856,-1.703,0.919,0.0,0.0,-1.518,0.0,-1.508,0.684,0.0,0.7040000000000001,-1.535,0.0,-1.337,0.0,0.0,0.0,-1.724,-0.604,-1.351,0.0,0.0,0.0,-1.301,-0.9740000000000001,-1.419,0.0,0.0,-0.976,-0.924,-0.8859999999999999,-1.5,0.593,0.0,-1.295,-0.5539999999999999,0.0,-1.505,0.802,0.0,0.0,0.0,0.0,-1.3559999999999999,0.7140000000000001,0.0,0.0,-0.69,0.0,-1.227,0.5660000000000001,0.0,0.0,-0.5920000000000001,0.0,-1.2109999999999999,0.657,0.0,-0.991,-0.544,0.0,-1.2670000000000001,0.8270000000000001,0.0,0.0,0.0,0.831,-1.2819999999999998,0.81,0.0,-0.8690000000000001,0.0,1.631,-1.3359999999999999,0.875,0.0,-0.8170000000000001,0.0,2.39,-1.1520000000000001,0.93,0.0,-1.183,0.5479999999999999,3.072,-0.742,0.904,0.0,-0.649,0.0,2.858,-0.71,0.7340000000000001,0.0,-1.044,0.0,2.807,-0.772,0.613,0.0,-0.998,0.0,2.6189999999999998,-0.76,0.5720000000000001,0.0,-0.512,0.0,2.075,-0.541,0.0,0.0,-0.631,0.0,1.781,0.0,0.0,0.0,0.0,0.0,1.571,0.0,0.0,0.0,0.0,0.0,1.263,0.0,0.0,0.0,0.0,0.0,1.228,0.0,0.0,0.0,0.0,0.0,1.178,0.0,0.0,0.0,0.0,0.0,1.3090000000000002,0.0,0.0,0.0,0.0,0.0,1.32,0.0,0.0,0.0,0.0,0.0,1.0390000000000001,0.0,0.0,0.0,0.0,0.0,0.5539999999999999,0.0,0.0,0.0,0.0,0.0,0.0,0.0,0.0,0.0,0.0,-0.743,0.0,0.0,0.0,0.0,0.0,-0.531,0.0,0.0,0.0,0.0,0.0,-0.727,-0.6940000000000001,0.0,0.0,0.0,0.0,-0.552,0.0,0.0,0.0,0.0,0.0,0.0,0.0,0.0,0.0,0.0,0.0,0.0,0.506,0.0,0.0,0.0,0.0,0.0,0.0,0.0,0.0,0.0,0.0,0.0,0.568,0.0,0.0,0.0,-0.503,0.0,0.961,0.0,0.0,0.0,,,,,,,,,,,,,,,,,,,,,,,,,,,,,,,,,,,,,,,,,,,,,,,,,,,,,,,,,,,,,,,,,,,,,,,,,,,,,,,,,,,,,,,,,,,,,,,,,,,,,,,,,,,,,,,,,,,,,,,,,,,,,,,,,,,,,,,,,,,,,,,,,,,,,,,,,,,,,,,,,,,,,,,,,,,,,,,,,,,,,moveDown
accX,0.0,0.0,-0.626,0.0,0.0,0.0,0.0,-0.715,-0.56,-0.575,0.5770000000000001,0.0,0.0,-0.588,-1.125,-0.792,0.5579999999999999,0.0,0.0,-0.8270000000000001,-1.568,-0.799,0.0,0.0,0.0,-1.306,-2.1319999999999997,-0.725,0.557,0.0,0.0,-2.06,-2.633,-0.774,0.809,0.0,0.0,-2.306,-2.998,-1.003,1.074,0.0,0.0,-2.511,-3.18,-1.197,1.226,0.0,0.0,-2.416,-3.0989999999999998,-1.4369999999999998,1.2930000000000001,0.0,0.0,-2.191,-2.853,-1.619,1.305,0.0,0.0,-2.471,-2.6919999999999997,-1.841,1.23,0.0,-0.912,-1.985,-1.8319999999999999,-2.032,1.287,0.0,-0.544,-1.102,-1.054,-1.9040000000000001,1.3130000000000002,0.0,0.0,-1.319,-0.7170000000000001,-1.829,1.159,0.0,0.0,-1.005,0.0,-1.704,0.96,0.0,0.0,-0.74,0.0,-1.528,0.812,0.0,-0.6459999999999999,-1.198,0.0,-1.56,0.789,0.0,-0.737,-0.943,0.0,-1.632,0.7859999999999999,0.0,0.0,-0.628,0.0,-1.621,0.6890000000000001,0.0,-0.526,0.0,0.721,-1.584,0.637,0.0,-0.976,0.0,1.359,-1.544,0.715,0.0,-0.504,0.581,1.714,-1.266,0.67,0.0,0.0,-0.589,1.215,-1.18,0.0,0.0,0.0,0.0,1.3659999999999999,-1.254,0.0,0.0,-0.742,0.0,1.7919999999999998,-1.202,0.0,0.0,-1.025,0.0,2.293,-1.038,0.78,0.0,-0.522,0.0,2.7969999999999997,-0.762,0.894,0.0,0.0,0.6809999999999999,2.736,0.0,0.667,0.0,-0.573,0.0,2.516,0.0,0.0,0.0,-0.9990000000000001,0.0,2.2880000000000003,0.0,0.0,0.0,-1.1440000000000001,0.0,1.8940000000000001,0.0,0.0,0.0,-1.094,0.0,1.2919999999999998,0.0,0.0,0.0,0.0,0.0,0.62,0.0,0.0,0.0,0.0,0.0,0.0,0.0,0.0,0.0,0.0,0.0,0.0,0.0,0.0,0.0,0.0,0.0,0.0,0.0,0.0,0.0,0.0,0.0,0.0,0.0,0.0,0.0,0.0,0.0,0.0,0.0,0.0,0.0,0.0,0.0,0.521,0.0,0.0,0.0,0.0,0.0,0.0,0.0,0.0,0.0,0.0,0.0,0.0,0.0,0.0,0.0,0.0,0.0,0.0,0.0,0.0,0.0,0.0,0.0,0.7759999999999999,0.0,0.0,0.0,0.0,0.0,1.301,0.0,0.0,0.0,0.0,0.0,1.422,0.0,0.0,0.0,0.0,0.0,1.444,0.0,0.0,0.0,,,,,,,,,,,,,,,,,,,,,,,,,,,,,,,,,,,,,,,,,,,,,,,,,,,,,,,,,,,,,,,,,,,,,,,,,,,,,,,,,,,,,,,,,,,,,,,,,,,,,,,,,,,,,,,,,,,,,,,,,,,,,,,,,,,,,,,,,,,,,,,,,,,,,,,,,,,,,,,,,,,,,,,,,,,,,,,,,,,,,,,,,,,,,,,,,,,,,,,,,,,,,moveDown
accX,0.0,-0.961,-1.3840000000000001,-0.514,0.569,0.0,0.0,-1.178,-2.137,-0.5870000000000001,0.611,0.0,-0.531,-1.527,-2.47,-0.8079999999999999,0.7040000000000001,0.0,-0.762,-1.5419999999999998,-2.48,-1.07,1.047,0.507,0.0,-1.829,-2.49,-1.097,1.31,0.631,0.0,-2.401,-2.451,-1.1179999999999999,1.247,0.552,0.0,-2.215,-2.214,-1.2329999999999999,1.04,0.504,-0.841,-2.455,-2.025,-1.2590000000000001,0.872,0.0,-1.097,-2.556,-2.137,-1.4480000000000002,0.89,0.0,-1.315,-2.3409999999999997,-1.4,-1.689,1.17,0.0,-0.7040000000000001,-1.495,0.0,-1.7790000000000001,1.5619999999999998,0.0,0.0,-1.205,0.0,-1.699,1.626,0.0,0.0,-0.597,0.6679999999999999,-1.565,1.4080000000000001,0.0,0.0,0.0,0.581,-1.4769999999999999,1.015,0.0,0.0,-0.546,0.0,-1.464,0.685,0.0,0.0,0.0,0.0,-1.485,0.5760000000000001,0.0,-0.976,0.0,0.0,-1.516,0.698,0.0,0.0,0.0,0.0,-1.3730000000000002,0.708,0.0,0.0,0.0,0.0,-1.2,0.51,0.0,-0.574,0.0,0.0,-1.162,0.602,0.0,0.0,0.0,0.0,-1.105,0.526,0.0,0.0,-0.595,-0.51,-1.131,0.0,0.0,0.9209999999999999,-1.178,-0.878,-1.3559999999999999,0.0,0.0,0.0,-0.995,0.0,-1.6840000000000002,0.0,0.0,0.0,0.0,0.532,-1.649,0.647,0.0,-1.091,0.0,1.5119999999999998,-1.4869999999999999,0.945,0.0,-0.971,0.0,2.211,-1.193,1.093,0.0,0.0,0.0,2.294,-0.9,0.838,0.0,-0.966,0.0,2.352,-0.973,0.66,0.0,-1.4469999999999998,0.0,2.63,-1.112,0.648,0.0,-1.61,0.0,3.2230000000000003,-1.024,0.726,0.0,-0.6,0.722,3.1439999999999997,-0.568,0.525,0.0,-0.7070000000000001,0.0,2.542,0.0,0.0,0.0,0.0,-0.615,1.876,0.0,0.0,0.0,-0.8109999999999999,-0.618,1.73,0.0,0.0,0.0,-0.529,0.0,1.53,0.0,0.0,0.0,-0.575,0.0,1.405,0.0,0.0,0.0,0.0,0.0,1.376,0.0,0.0,0.0,0.0,0.0,0.92,0.0,0.0,0.0,0.0,-0.883,0.0,0.0,0.0,0.0,0.0,-0.635,0.0,0.0,0.0,0.0,0.0,-0.635,0.0,0.0,0.0,0.0,0.0,-0.599,0.0,0.0,0.0,0.0,0.0,-0.721,0.0,0.0,0.0,0.0,,,,,,,,,,,,,,,,,,,,,,,,,,,,,,,,,,,,,,,,,,,,,,,,,,,,,,,,,,,,,,,,,,,,,,,,,,,,,,,,,,,,,,,,,,,,,,,,,,,,,,,,,,,,,,,,,,,,,,,,,,,,,,,,,,,,,,,,,,,,,,,,,,,,,,,,,,,,,,,,,,,,,,,,,,,,,,,,,,,,,,,,,,,,,,,,,,,,,,,,,,,,,,,,,,,,,,,,,moveDown
accX,0.0,-0.917,-1.7630000000000001,0.0,0.0,0.0,0.0,-1.546,-2.4290000000000003,-0.638,0.562,0.0,0.0,-1.222,-2.559,-0.993,0.705,0.0,0.0,-1.058,-2.003,-1.034,0.871,0.522,0.5670000000000001,-1.4,-2.2880000000000003,-0.88,0.9620000000000001,0.0,0.0,-3.015,-3.426,-0.927,0.835,0.0,-0.7509999999999999,-2.7110000000000003,-3.523,-1.321,0.973,0.0,-1.021,-1.8430000000000002,-2.784,-1.662,1.18,0.0,-0.78,-1.692,-1.984,-1.795,1.3869999999999998,0.0,-0.528,-1.893,-1.452,-1.7990000000000002,1.3840000000000001,0.0,0.0,-1.466,-0.71,-1.819,1.3219999999999998,0.0,0.0,-1.4380000000000002,-0.5429999999999999,-1.736,1.077,0.0,0.0,-1.496,0.0,-1.69,0.7879999999999999,0.0,-0.532,-1.209,0.0,-1.663,0.711,-0.502,-0.902,-0.779,0.0,-1.5959999999999999,0.6809999999999999,-0.514,-1.103,-0.647,0.0,-1.505,0.6729999999999999,0.0,-0.6890000000000001,0.0,0.522,-1.4,0.527,0.0,0.0,0.0,0.0,-1.315,0.0,0.0,-0.736,0.0,0.0,-1.253,0.0,0.0,-0.61,0.0,0.0,-1.207,0.0,0.0,-0.539,0.0,0.0,-1.232,0.0,0.0,0.0,0.0,0.0,-1.273,0.0,0.0,0.0,0.0,0.7809999999999999,-1.3419999999999999,0.0,0.0,0.0,0.0,0.5710000000000001,-1.188,0.0,0.0,-0.556,0.0,0.77,-1.136,0.0,0.0,0.0,0.0,1.015,-1.0290000000000001,0.626,0.0,-0.9470000000000001,0.0,1.6,-1.062,0.7559999999999999,0.0,0.0,0.0,1.893,-0.919,0.634,0.0,-0.684,0.0,2.396,-0.8079999999999999,0.519,0.0,-0.9179999999999999,0.0,2.682,-0.695,0.0,0.0,-1.3230000000000002,0.0,2.944,-0.552,0.0,0.0,-0.9890000000000001,0.0,2.458,0.0,0.0,0.0,-1.177,0.0,2.055,0.0,0.0,0.0,-1.089,-0.523,1.9669999999999999,0.0,0.0,0.0,0.0,0.0,1.649,0.0,0.0,0.0,-0.545,0.0,1.2770000000000001,0.0,0.0,0.0,0.0,-0.607,1.072,0.0,0.0,0.0,0.0,-0.956,0.816,0.0,0.0,0.0,0.0,-0.9640000000000001,1.105,0.0,0.0,0.0,0.0,-0.672,1.24,0.0,0.0,0.0,0.804,-0.584,1.125,0.0,0.0,0.0,0.787,-0.596,0.8009999999999999,0.62,0.0,0.0,0.0,-1.199,0.0,0.594,0.0,0.0,,,,,,,,,,,,,,,,,,,,,,,,,,,,,,,,,,,,,,,,,,,,,,,,,,,,,,,,,,,,,,,,,,,,,,,,,,,,,,,,,,,,,,,,,,,,,,,,,,,,,,,,,,,,,,,,,,,,,,,,,,,,,,,,,,,,,,,,,,,,,,,,,,,,,,,,,,,,,,,,,,,,,,,,,,,,,,,,,,,,,,,,,,,,,,,,,,,,,,,,,,,,,,,,,,,,,,,,,,,,,,,moveDown
accX,0.0,-0.9359999999999999,-0.642,-0.7020000000000001,0.0,0.0,-0.667,0.0,-0.679,-0.802,0.0,0.0,0.0,-0.732,-1.272,-0.8109999999999999,0.58,0.0,0.0,-0.8420000000000001,-1.584,-0.693,0.698,0.0,0.0,-1.6640000000000001,-2.454,-0.7490000000000001,0.782,0.0,0.0,-2.281,-3.5269999999999997,-1.025,0.9279999999999999,0.0,0.0,-2.823,-4.001,-1.34,1.246,0.0,0.0,-3.542,-3.654,-1.7690000000000001,1.686,0.0,0.0,-2.707,-1.99,-1.9,1.7719999999999998,0.0,0.0,-1.8319999999999999,-1.228,-1.9,1.649,0.0,0.0,-1.642,-1.084,-1.756,1.3330000000000002,0.0,0.0,-1.676,-1.2990000000000002,-1.631,1.052,0.0,-0.934,-1.7690000000000001,-1.03,-1.683,1.011,0.0,-1.1440000000000001,-1.3219999999999998,0.0,-1.827,1.083,0.0,-0.8590000000000001,0.0,0.5770000000000001,-1.8330000000000002,1.23,0.0,-0.88,0.0,1.082,-1.6269999999999998,1.186,0.0,-0.565,0.0,1.16,-1.403,1.023,0.0,-0.74,0.0,1.21,-1.287,0.8029999999999999,0.0,-0.608,0.0,1.444,-1.298,0.705,0.0,0.0,0.0,1.494,-1.297,0.0,0.0,0.0,0.0,1.4280000000000002,-1.237,0.0,0.0,0.0,0.0,1.159,-1.093,0.0,0.0,-0.6940000000000001,0.0,1.1520000000000001,-0.946,0.0,0.0,-0.982,0.0,1.224,-0.897,0.0,0.0,0.0,0.0,1.225,-0.887,0.521,0.0,0.0,0.0,0.991,-0.823,0.0,0.0,-0.7509999999999999,0.0,1.272,-0.767,0.0,0.0,-0.621,0.0,1.505,-0.6990000000000001,0.0,0.0,0.0,0.0,1.224,-0.564,0.0,0.0,0.608,0.0,0.0,0.0,0.0,0.0,0.0,-0.5379999999999999,0.0,0.0,0.0,0.0,0.0,-0.613,0.0,-0.506,0.0,0.0,-1.126,-0.738,0.924,-0.682,0.0,0.0,-1.4069999999999998,0.0,2.253,-0.6890000000000001,0.84,0.0,-1.358,0.0,3.485,0.0,0.991,0.0,0.0,0.0,3.596,0.0,0.541,0.0,0.0,-0.5479999999999999,3.082,0.0,0.0,0.0,0.0,-0.502,2.289,0.0,0.0,0.0,-0.8740000000000001,0.0,1.4609999999999999,0.0,0.0,0.0,-0.938,-0.754,0.0,0.0,0.0,0.0,0.0,-0.725,0.0,0.0,0.0,0.0,0.0,-1.013,-1.015,0.0,0.0,0.0,0.0,-1.041,-1.29,0.0,0.0,0.0,0.0,-0.782,-1.0070000000000001,0.0,0.0,0.0,-0.509,0.0,0.0,0.0,0.0,0.0,-0.716,0.0,0.848,0.0,0.0,0.0,,,,,,,,,,,,,,,,,,,,,,,,,,,,,,,,,,,,,,,,,,,,,,,,,,,,,,,,,,,,,,,,,,,,,,,,,,,,,,,,,,,,,,,,,,,,,,,,,,,,,,,,,,,,,,,,,,,,,,,,,,,,,,,,,,,,,,,,,,,,,,,,,,,,,,,,,,,,,,,,,,,,,,,,,,,,,,,,,,,,,,,,,,,,,,,,,,,,,,,,,,,,,moveDown
accX,0.0,-0.91,-0.93,-0.664,0.547,0.0,0.0,-0.857,-0.955,-0.836,0.733,0.0,0.0,-0.7609999999999999,-1.0859999999999999,-0.8809999999999999,0.7879999999999999,0.0,0.0,-1.123,-1.446,-0.748,0.7909999999999999,0.0,0.0,-1.5230000000000001,-2.03,-0.679,0.758,0.0,0.0,-1.758,-2.417,-0.6679999999999999,0.8340000000000001,0.0,0.579,-2.147,-3.128,-0.7959999999999999,0.8440000000000001,0.0,0.0,-3.4539999999999997,-3.872,-1.075,0.932,0.0,-0.9520000000000001,-3.178,-3.4810000000000003,-1.419,1.39,0.0,-1.031,-3.065,-2.81,-1.642,1.646,0.0,-0.742,-2.5380000000000003,-1.837,-1.824,1.6219999999999999,0.0,0.0,-2.617,-1.047,-1.922,1.238,0.0,0.0,-1.87,0.0,-1.933,0.946,0.0,0.0,-1.544,0.0,-1.869,0.774,-0.593,-0.584,-1.0590000000000002,0.0,-1.8559999999999999,0.65,-0.5770000000000001,-0.685,0.0,0.963,-1.86,0.569,-0.5379999999999999,0.0,0.595,0.987,-1.6640000000000001,0.0,0.0,-0.8640000000000001,0.0,0.76,-1.42,0.0,0.0,-1.196,0.0,0.927,-1.401,0.0,0.0,-1.021,0.508,0.85,-1.3319999999999999,0.0,0.0,-0.816,0.0,0.975,-1.272,0.0,0.0,-0.7809999999999999,0.0,1.204,-1.209,0.0,0.0,-0.5429999999999999,0.0,1.575,-1.135,0.517,0.0,0.915,0.7170000000000001,1.137,-0.898,0.0,0.0,0.0,0.0,1.0390000000000001,-0.716,0.0,0.0,0.0,0.0,0.9359999999999999,-0.8140000000000001,0.0,0.0,-0.7340000000000001,0.0,1.3119999999999998,-0.968,0.519,0.0,0.0,0.0,1.3090000000000002,-0.953,0.627,0.0,0.0,0.0,1.5230000000000001,-0.929,0.0,0.0,0.0,0.0,1.8319999999999999,-0.8959999999999999,0.0,0.0,0.0,0.0,1.8619999999999999,-0.8,0.0,0.0,0.0,0.0,1.579,-0.708,0.0,0.0,-0.5429999999999999,0.0,1.4480000000000002,-0.624,0.0,0.0,-0.735,0.0,1.632,-0.578,0.0,0.0,-0.539,0.0,1.909,-0.529,0.0,0.0,0.0,0.0,1.962,0.0,0.0,0.0,0.0,0.0,1.7109999999999999,0.0,0.0,0.0,0.0,-0.5479999999999999,1.167,0.0,0.0,0.0,-0.7120000000000001,-0.767,0.75,0.0,0.0,0.0,0.0,-0.778,0.0,0.0,0.0,0.0,0.0,0.0,0.0,0.0,0.0,0.0,0.0,0.0,0.0,0.0,0.0,0.0,0.0,-0.633,0.0,0.0,0.0,0.0,0.0,-1.423,-1.173,0.0,0.0,0.0,,,,,,,,,,,,,,,,,,,,,,,,,,,,,,,,,,,,,,,,,,,,,,,,,,,,,,,,,,,,,,,,,,,,,,,,,,,,,,,,,,,,,,,,,,,,,,,,,,,,,,,,,,,,,,,,,,,,,,,,,,,,,,,,,,,,,,,,,,,,,,,,,,,,,,,,,,,,,,,,,,,,,,,,,,,,,,,,,,,,,,,,,,,,,,,,,,,,,,,,,,,,,,,,,,,,,,,,,moveDown
accX,0.0,-0.79,-1.186,-0.518,0.0,0.0,-0.5579999999999999,-0.653,-1.3869999999999998,-0.664,0.586,0.0,0.0,-1.696,-2.26,-0.8390000000000001,0.7290000000000001,0.0,0.0,-1.9180000000000001,-2.307,-0.9590000000000001,0.833,0.0,0.0,-1.828,-2.421,-0.945,0.8540000000000001,0.0,-0.552,-1.555,-2.51,-0.9540000000000001,0.904,0.0,-0.649,-1.87,-3.0389999999999997,-1.015,1.008,0.0,-0.659,-2.6830000000000003,-3.252,-1.317,1.137,0.0,0.0,-2.96,-3.017,-1.715,1.0959999999999999,0.0,0.0,-2.376,-2.218,-1.963,1.068,0.0,0.0,-1.8090000000000002,-1.611,-1.9369999999999998,1.012,0.0,0.0,-1.7719999999999998,-1.1,-1.8659999999999999,0.9640000000000001,0.0,0.0,-1.743,-0.773,-1.774,0.9540000000000001,0.0,0.0,-1.604,0.0,-1.795,0.955,0.0,0.0,-1.091,0.0,-1.709,0.831,0.0,0.0,-0.523,0.0,-1.605,0.773,0.0,0.0,0.0,0.799,-1.4709999999999999,0.7170000000000001,0.0,0.0,0.0,0.93,-1.301,0.654,0.0,0.0,0.0,0.845,-1.2930000000000001,0.561,0.0,0.0,0.0,0.977,-1.263,0.5529999999999999,0.0,-0.531,0.0,0.815,-1.213,0.0,0.0,-0.705,0.0,0.733,-1.157,0.53,0.0,-1.926,0.0,1.288,-1.125,0.9209999999999999,0.0,-1.567,0.0,1.806,-0.9490000000000001,1.175,0.0,0.0,0.0,1.579,-0.569,0.922,0.0,-0.703,-0.608,1.218,-0.7190000000000001,0.0,0.0,-0.987,0.0,1.626,-0.915,0.527,0.0,0.0,0.0,1.841,-0.927,0.6459999999999999,0.0,0.0,0.0,1.9180000000000001,-0.846,0.0,0.0,0.0,0.0,2.013,-0.7709999999999999,0.0,0.0,0.0,0.0,1.4269999999999998,0.0,0.0,0.0,-0.606,0.0,1.15,0.0,0.0,0.0,-0.7090000000000001,0.0,1.297,0.0,0.0,0.0,0.0,0.0,1.53,0.0,0.0,0.0,0.53,0.0,1.048,0.0,0.0,0.0,0.0,0.0,0.8440000000000001,0.0,0.0,0.0,-1.325,0.0,1.045,0.0,0.0,0.0,-0.7659999999999999,0.0,1.403,0.0,0.0,0.0,0.0,0.0,1.618,0.0,0.0,0.0,0.0,0.0,1.411,0.0,0.0,0.0,0.0,0.0,1.4,0.0,0.0,0.0,-0.5770000000000001,0.0,1.113,0.0,0.0,0.0,0.0,0.0,0.6609999999999999,0.0,0.0,0.0,0.0,-0.82,0.0,0.0,0.0,0.0,0.0,-0.61,0.0,0.0,0.0,0.0,0.0,0.0,1.453,0.0,0.0,0.0,,,,,,,,,,,,,,,,,,,,,,,,,,,,,,,,,,,,,,,,,,,,,,,,,,,,,,,,,,,,,,,,,,,,,,,,,,,,,,,,,,,,,,,,,,,,,,,,,,,,,,,,,,,,,,,,,,,,,,,,,,,,,,,,,,,,,,,,,,,,,,,,,,,,,,,,,,,,,,,,,,,,,,,,,,,,,,,,,,,,,,,,,,,,,,,,,,,,,,,,,,,,,moveDown
accX,0.0,0.0,-0.961,0.0,0.0,0.0,0.0,-1.3330000000000002,-1.9480000000000002,0.0,0.527,0.0,0.0,-1.5030000000000001,-2.95,-0.76,0.664,0.58,0.746,-1.814,-3.2960000000000003,-1.0190000000000001,0.784,0.536,0.0,-2.594,-3.536,-1.202,0.847,0.0,0.0,-2.438,-3.6189999999999998,-1.389,0.993,0.0,-0.741,-2.585,-3.738,-1.4769999999999999,1.143,0.0,-0.946,-2.3080000000000003,-3.4560000000000004,-1.58,1.3619999999999999,0.0,0.0,-2.28,-2.6060000000000003,-1.725,1.4509999999999998,0.509,0.586,-2.3680000000000003,-1.876,-1.778,1.3130000000000002,0.0,0.0,-2.262,-1.025,-1.874,0.976,0.0,0.0,-1.4080000000000001,0.0,-1.805,0.7829999999999999,0.0,-1.097,-1.129,0.0,-1.7619999999999998,0.8029999999999999,0.0,-0.8390000000000001,-0.645,0.914,-1.7,0.759,0.0,0.0,0.0,0.9209999999999999,-1.525,0.585,0.0,0.0,-0.726,0.614,-1.506,0.0,0.0,-0.579,0.0,0.8909999999999999,-1.587,0.0,0.0,-0.706,0.0,1.262,-1.505,0.574,0.0,-0.799,0.6709999999999999,1.594,-1.234,0.851,0.0,0.0,0.0,1.517,-1.014,0.831,0.0,0.0,0.0,1.252,-0.91,0.602,0.0,0.0,0.0,1.392,-0.985,0.59,0.0,0.0,0.0,1.236,-1.02,0.523,0.0,0.0,0.0,1.304,-0.903,0.615,0.0,0.0,0.705,0.9259999999999999,-0.55,0.706,0.0,0.0,0.0,0.888,0.0,0.858,0.0,1.166,0.0,0.536,0.0,0.618,0.0,0.0,-0.5920000000000001,0.585,-0.565,0.589,0.0,-0.517,0.0,0.789,-0.732,0.7090000000000001,0.0,-0.637,0.0,1.43,-0.7340000000000001,0.7829999999999999,0.0,0.0,0.0,1.621,-0.631,0.584,0.0,-1.06,0.0,2.01,-0.629,0.0,0.0,-1.052,0.0,2.376,-0.573,0.0,0.0,-1.037,0.0,2.3819999999999997,0.0,0.0,0.0,-0.7040000000000001,0.0,1.912,0.0,0.0,0.0,-1.281,0.0,1.416,0.0,0.0,0.0,-0.9079999999999999,0.0,1.5930000000000002,0.0,0.0,0.0,0.0,0.0,1.422,0.0,0.0,0.0,0.0,0.0,1.179,0.0,0.0,0.0,0.0,0.0,1.186,0.0,0.0,0.0,0.0,0.0,1.088,0.0,0.0,0.0,-0.778,-0.509,1.52,0.0,0.0,0.0,-1.079,0.0,2.6830000000000003,0.0,0.0,0.0,-1.27,0.0,4.0680000000000005,0.0,0.0,0.0,-0.812,1.005,5.062,0.774,0.0,0.0,0.0,1.175,5.365,1.3840000000000001,0.0,0.0,,,,,,,,,,,,,,,,,,,,,,,,,,,,,,,,,,,,,,,,,,,,,,,,,,,,,,,,,,,,,,,,,,,,,,,,,,,,,,,,,,,,,,,,,,,,,,,,,,,,,,,,,,,,,,,,,,,,,,,,,,,,,,,,,,,,,,,,,,,,,,,,,,,,,,,,,,,,,,,,,,,,,,,,,,,,,,,,,,,,,,,,,,,,,,,,,,,,,,,,,,,,,moveDown
accX,0.0,-1.246,-1.8,-0.7909999999999999,0.0,0.0,0.0,-1.8330000000000002,-2.3280000000000003,-0.888,0.565,0.0,0.0,-2.077,-2.8080000000000003,-1.301,0.785,0.0,-1.031,-1.905,-2.7439999999999998,-1.4369999999999998,1.073,0.0,0.0,-2.09,-2.9210000000000003,-1.296,1.505,0.0,0.0,-3.1319999999999997,-3.1830000000000003,-1.255,1.535,0.0,0.0,-3.89,-3.1430000000000002,-1.416,1.435,0.0,0.0,-3.332,-2.6239999999999997,-1.7280000000000002,1.4880000000000002,0.0,0.0,-3.1180000000000003,-1.534,-1.8730000000000002,1.64,0.0,0.0,-2.276,0.0,-1.9609999999999999,1.541,-0.513,0.0,-1.817,0.0,-1.9709999999999999,1.268,-0.5760000000000001,0.0,-1.6380000000000001,0.0,-1.891,0.937,-0.612,0.0,-1.6019999999999999,0.0,-1.8030000000000002,0.655,-0.7290000000000001,-0.877,-1.041,0.611,-1.815,0.5589999999999999,-0.872,-0.73,0.0,1.013,-1.766,0.562,-0.794,0.0,-0.857,1.1520000000000001,-1.693,0.0,-0.698,0.0,0.0,1.6780000000000002,-1.778,0.0,-0.73,-0.513,0.0,1.575,-1.615,0.0,-0.6859999999999999,0.0,0.0,1.126,-1.399,0.0,-0.643,-0.509,0.0,0.902,-1.2819999999999998,0.0,-0.65,-1.138,0.0,1.204,-1.376,0.0,-0.59,-1.079,0.0,1.98,-1.245,0.5479999999999999,0.0,-0.77,0.0,2.4019999999999997,-1.045,0.586,0.0,0.0,0.0,2.2880000000000003,-0.804,0.0,0.0,0.0,0.0,1.8630000000000002,-0.63,0.0,0.0,-0.884,0.0,1.671,-0.657,0.0,0.0,-0.9109999999999999,0.0,1.624,-0.632,0.0,0.0,-0.8370000000000001,0.0,1.435,-0.512,0.0,0.0,-1.1179999999999999,0.0,1.5490000000000002,0.0,0.0,0.0,-1.564,0.0,1.899,0.0,0.0,0.0,-0.62,0.0,1.734,0.0,0.0,0.0,-0.615,0.0,1.3319999999999999,0.0,0.0,0.0,-0.631,0.0,1.2329999999999999,0.0,0.0,0.0,0.0,0.0,0.9620000000000001,0.0,0.0,0.0,-0.58,0.0,0.8370000000000001,0.0,0.0,0.0,-0.602,0.0,0.91,0.0,0.0,0.0,0.0,0.0,1.021,0.0,0.0,0.0,0.0,-0.501,0.807,0.0,0.0,0.0,0.0,0.0,0.621,0.0,0.0,0.0,0.0,-0.752,0.0,0.0,0.0,0.0,0.0,0.0,0.0,0.0,0.0,0.0,0.0,0.0,0.0,0.0,0.0,0.0,0.0,0.0,0.0,0.0,0.0,0.0,,,,,,,,,,,,,,,,,,,,,,,,,,,,,,,,,,,,,,,,,,,,,,,,,,,,,,,,,,,,,,,,,,,,,,,,,,,,,,,,,,,,,,,,,,,,,,,,,,,,,,,,,,,,,,,,,,,,,,,,,,,,,,,,,,,,,,,,,,,,,,,,,,,,,,,,,,,,,,,,,,,,,,,,,,,,,,,,,,,,,,,,,,,,,,,,,,,,,,,,,,,,,,,,,,,,,,,,,,,,,,,moveDown
accX,0.0,-1.521,-1.416,-1.072,0.54,0.0,0.0,-1.5,-1.662,-1.146,0.667,0.0,0.0,-1.834,-2.099,-1.193,0.773,0.0,0.0,-2.292,-2.405,-1.335,0.9009999999999999,0.0,0.0,-2.39,-2.327,-1.439,0.9570000000000001,0.0,0.0,-2.359,-2.998,-1.516,0.92,0.0,-0.5529999999999999,-3.117,-2.885,-1.666,1.026,0.0,-0.867,-2.516,-2.441,-1.896,1.25,0.0,-0.708,-2.207,-1.9509999999999998,-1.964,1.45,0.0,0.0,-2.234,-1.3559999999999999,-1.96,1.5319999999999998,0.0,-0.605,-1.551,0.0,-2.015,1.495,0.0,0.0,-1.274,0.0,-1.933,1.41,0.0,0.0,-0.64,0.0,-1.8030000000000002,1.274,0.0,-0.6779999999999999,-0.58,0.8290000000000001,-1.6909999999999998,1.092,0.0,0.0,0.0,0.97,-1.595,0.92,0.0,-0.65,0.0,1.301,-1.548,0.7809999999999999,0.0,-1.176,0.608,1.541,-1.4180000000000001,0.747,0.0,-0.8809999999999999,0.0,1.5659999999999998,-1.171,0.728,0.0,-0.608,0.0,1.77,-1.089,0.7390000000000001,0.0,-0.856,0.747,1.9480000000000002,-1.1079999999999999,0.745,0.0,0.0,0.0,1.167,-0.885,0.0,0.0,0.0,0.0,1.03,-0.922,0.0,0.0,-1.56,0.0,1.673,-1.074,0.0,0.0,0.0,1.178,1.681,-0.9540000000000001,0.515,0.0,-0.608,0.0,1.41,-0.706,0.0,0.0,-0.596,0.0,1.511,-0.684,0.0,0.0,-0.684,0.0,1.639,-0.7040000000000001,0.0,0.0,-0.565,0.0,1.416,-0.6559999999999999,0.0,0.0,-0.7509999999999999,0.0,1.505,-0.6459999999999999,0.0,0.0,-0.7390000000000001,0.0,1.751,-0.521,0.0,0.0,-0.782,0.0,2.097,0.0,0.0,0.0,-0.645,0.0,2.1630000000000003,0.0,0.0,0.0,0.0,0.0,2.124,0.0,0.0,0.0,0.0,0.0,1.6880000000000002,0.0,0.0,0.0,0.0,-0.5489999999999999,1.1420000000000001,0.0,0.0,0.0,0.0,0.0,0.755,0.0,0.0,0.0,0.0,-0.503,0.0,0.0,0.0,0.0,0.0,-0.711,0.0,0.0,0.0,0.0,0.0,-0.535,0.0,0.0,0.0,0.0,0.0,0.0,0.0,0.0,0.0,0.0,0.0,0.0,0.0,0.0,0.0,0.0,-0.7440000000000001,0.0,0.71,0.0,0.0,0.0,-0.521,0.0,0.875,0.0,0.0,0.0,0.0,0.0,0.93,0.0,0.0,0.0,0.0,0.0,1.13,0.615,0.0,0.0,0.0,0.0,1.008,0.687,0.0,0.0,,,,,,,,,,,,,,,,,,,,,,,,,,,,,,,,,,,,,,,,,,,,,,,,,,,,,,,,,,,,,,,,,,,,,,,,,,,,,,,,,,,,,,,,,,,,,,,,,,,,,,,,,,,,,,,,,,,,,,,,,,,,,,,,,,,,,,,,,,,,,,,,,,,,,,,,,,,,,,,,,,,,,,,,,,,,,,,,,,,,,,,,,,,,,,,,,,,,,,,,,,,,,moveDown
accX,0.0,-0.753,-0.711,-0.527,0.0,0.0,0.0,-0.8440000000000001,-0.9520000000000001,-0.552,0.0,0.0,0.0,-0.82,-1.161,-0.7,0.0,0.0,0.0,-1.141,-1.5,-0.7759999999999999,0.501,0.0,0.0,-1.226,-1.6909999999999998,-0.816,0.67,0.0,0.0,-1.673,-2.174,-0.902,0.69,0.0,0.83,-2.017,-3.065,-1.012,0.585,0.0,0.0,-3.201,-3.8960000000000004,-1.357,0.7,0.0,-0.909,-3.148,-3.533,-1.784,1.125,0.0,-1.364,-2.9589999999999996,-2.7460000000000004,-2.021,1.5030000000000001,0.0,-1.0659999999999998,-2.745,-1.9040000000000001,-2.142,1.555,0.0,-0.7909999999999999,-2.186,-0.8270000000000001,-2.144,1.4469999999999998,0.0,0.0,-1.618,0.0,-1.993,1.202,0.0,0.0,-1.5730000000000002,0.0,-1.871,0.9209999999999999,0.0,-0.565,-1.5219999999999998,0.0,-1.8840000000000001,0.8290000000000001,0.0,-1.288,0.0,0.778,-1.869,1.045,0.0,-0.875,0.0,1.251,-1.631,1.1320000000000001,0.0,0.0,0.0,1.5330000000000001,-1.453,1.065,0.0,0.0,0.0,1.449,-1.287,0.741,0.0,-0.579,0.0,1.209,-1.238,0.0,0.0,-0.763,0.0,1.012,-1.227,0.0,0.0,-0.9129999999999999,0.565,0.976,-1.251,0.0,0.0,-0.56,0.0,0.7929999999999999,-1.023,0.0,0.0,-0.589,0.0,0.841,-0.9470000000000001,0.0,0.0,-0.527,0.0,1.093,-0.948,0.0,0.0,0.0,0.0,1.2990000000000002,-0.9329999999999999,0.511,0.0,0.0,0.0,1.368,-0.878,0.0,0.0,-0.635,0.0,1.715,-0.79,0.0,0.0,-0.653,0.0,2.0069999999999997,-0.665,0.0,0.0,-0.624,0.0,2.44,-0.605,0.531,0.0,0.0,0.0,2.439,-0.5539999999999999,0.0,0.0,-0.637,0.0,2.418,-0.517,0.0,0.0,-0.636,0.0,2.237,0.0,0.0,0.0,-0.675,0.0,1.8840000000000001,0.0,0.0,0.0,-0.7440000000000001,0.0,1.4269999999999998,0.0,0.0,0.0,0.0,0.0,0.998,0.0,0.0,0.0,0.0,-0.534,0.0,0.0,0.0,0.0,0.0,-0.608,0.0,0.0,0.0,0.0,-0.775,-0.505,0.0,0.0,0.0,0.0,0.0,0.0,0.0,0.0,0.0,0.0,0.0,0.0,0.0,0.0,0.0,0.0,0.674,-0.604,0.0,0.0,0.0,0.0,0.0,0.0,0.0,0.0,0.0,0.0,0.0,-0.56,0.0,0.0,0.0,0.0,0.0,0.0,0.0,0.0,0.0,0.0,0.0,0.0,0.0,0.0,0.0,0.0,0.0,0.0,0.797,0.515,0.0,0.0,,,,,,,,,,,,,,,,,,,,,,,,,,,,,,,,,,,,,,,,,,,,,,,,,,,,,,,,,,,,,,,,,,,,,,,,,,,,,,,,,,,,,,,,,,,,,,,,,,,,,,,,,,,,,,,,,,,,,,,,,,,,,,,,,,,,,,,,,,,,,,,,,,,,,,,,,,,,,,,,,,,,,,,,,,,,,,,,,,,,,,,,,,,,,,,,,,,,,,,moveDown
accX,0.0,-1.3130000000000002,-1.489,-0.627,0.502,0.0,0.0,-1.4580000000000002,-1.619,-0.733,0.711,0.0,0.0,-1.7069999999999999,-1.8519999999999999,-0.945,0.847,0.0,0.0,-1.931,-2.416,-1.173,0.888,0.0,0.0,-1.956,-2.6860000000000004,-1.334,0.945,0.0,-0.889,-2.2119999999999997,-2.759,-1.369,1.199,0.0,-0.733,-2.69,-2.6630000000000003,-1.5,1.43,0.0,0.0,-2.826,-2.532,-1.6269999999999998,1.5,0.0,0.0,-2.447,-2.2840000000000003,-1.771,1.494,0.0,0.0,-2.9019999999999997,-1.925,-1.965,1.344,0.0,0.987,-2.639,-1.179,-2.123,0.9640000000000001,0.0,0.0,-1.939,-0.816,-2.024,0.7559999999999999,0.0,0.0,-1.4,-0.715,-1.839,0.797,-0.565,-0.7240000000000001,-1.537,-0.645,-1.7919999999999998,0.8109999999999999,-0.562,-0.6990000000000001,-1.187,0.0,-1.7730000000000001,0.828,-0.5379999999999999,-0.812,-0.5710000000000001,0.0,-1.715,0.851,-0.52,0.0,-0.581,0.0,-1.7619999999999998,0.565,0.0,0.0,0.0,0.682,-1.7269999999999999,0.0,0.0,-1.074,0.0,0.882,-1.642,0.0,-0.522,-1.004,0.0,1.101,-1.56,0.0,0.0,0.0,0.0,1.2690000000000001,-1.4069999999999998,0.52,0.0,-0.9590000000000001,0.0,1.66,-1.331,0.659,0.0,-0.5379999999999999,0.0,2.017,-1.274,0.632,0.0,-0.588,0.0,2.737,-1.083,0.649,0.0,0.755,0.0,2.516,-0.7829999999999999,0.0,0.0,0.0,0.0,1.956,-0.659,0.0,0.0,0.0,0.0,1.746,-0.7390000000000001,0.0,0.0,-0.816,0.0,1.962,-0.769,0.0,0.0,-0.7240000000000001,0.0,2.248,-0.653,0.0,0.0,-0.583,0.0,2.472,0.0,0.0,0.0,0.0,0.0,2.082,0.0,0.0,0.0,0.0,0.0,1.406,0.0,0.0,0.0,-0.537,-0.504,0.981,0.0,0.0,0.0,-0.695,-0.5760000000000001,0.715,0.0,0.0,0.0,-0.5870000000000001,0.0,0.873,0.0,0.0,0.0,0.0,0.0,0.9390000000000001,0.0,0.0,0.0,0.0,0.0,0.0,0.0,0.0,0.0,0.0,-0.516,0.0,0.0,0.0,0.0,0.0,0.0,0.0,0.0,0.0,0.0,0.0,0.0,0.0,0.0,0.0,0.0,0.0,0.0,0.0,0.0,0.0,0.0,0.0,0.0,0.0,0.0,0.0,0.0,0.0,0.0,0.0,0.0,0.0,0.0,0.0,0.0,0.861,0.0,0.0,0.0,-0.585,0.0,1.6280000000000001,0.0,0.0,0.0,,,,,,,,,,,,,,,,,,,,,,,,,,,,,,,,,,,,,,,,,,,,,,,,,,,,,,,,,,,,,,,,,,,,,,,,,,,,,,,,,,,,,,,,,,,,,,,,,,,,,,,,,,,,,,,,,,,,,,,,,,,,,,,,,,,,,,,,,,,,,,,,,,,,,,,,,,,,,,,,,,,,,,,,,,,,,,,,,,,,,,,,,,,,,,,,,,,,,,,,,,,,,,,,,,,moveDown
accX,0.0,-1.3559999999999999,-1.304,-0.525,0.0,0.0,0.0,-1.0,-1.568,-0.772,0.594,0.0,0.0,-1.409,-1.845,-1.014,0.727,0.0,0.0,-1.608,-1.9280000000000002,-1.062,0.8740000000000001,0.0,0.0,-2.069,-2.011,-1.107,1.0390000000000001,0.0,0.0,-2.185,-2.355,-1.157,1.0490000000000002,0.0,0.0,-3.275,-3.012,-1.298,0.934,0.0,0.0,-3.008,-3.1,-1.6119999999999999,0.7659999999999999,0.0,-1.413,-2.565,-2.635,-1.8630000000000002,0.841,0.0,-1.3880000000000001,-1.9409999999999998,-1.893,-1.901,1.2570000000000001,0.0,0.0,-1.6130000000000002,-1.143,-1.871,1.548,0.0,0.0,-1.722,-0.648,-1.798,1.421,0.0,0.0,-1.183,0.0,-1.712,1.1059999999999999,0.0,0.0,-0.7759999999999999,0.0,-1.624,0.873,0.0,0.0,-0.833,0.0,-1.574,0.601,0.0,0.0,-0.555,0.0,-1.557,0.531,0.0,0.0,0.0,0.0,-1.51,0.541,0.0,-0.644,0.0,0.0,-1.525,0.5329999999999999,0.0,0.0,0.0,0.0,-1.4369999999999998,0.0,0.0,0.0,0.0,0.0,-1.379,0.0,0.0,0.0,0.0,0.0,-1.307,0.529,0.0,0.0,0.0,0.536,-1.335,0.51,0.0,0.0,0.0,1.284,-1.395,0.5660000000000001,0.0,-0.65,0.0,2.174,-1.325,0.6409999999999999,0.0,0.0,0.9209999999999999,2.4930000000000003,-0.958,0.0,0.0,0.0,0.0,2.065,-0.752,0.0,0.0,-0.73,0.0,2.239,-0.853,0.0,0.0,-0.91,0.0,2.773,-0.9540000000000001,0.0,0.0,0.66,0.6409999999999999,2.532,-0.7070000000000001,0.0,0.0,0.0,0.0,1.845,0.0,0.0,0.0,-0.782,0.0,1.412,0.0,0.0,0.0,-0.894,0.0,1.281,0.0,0.0,0.0,-1.016,0.0,1.526,0.0,0.0,0.0,-0.514,0.0,1.735,0.0,0.0,0.0,0.0,0.0,1.665,0.0,0.0,0.0,0.0,0.0,1.524,0.0,0.0,0.0,-0.912,0.0,1.329,0.0,0.0,0.0,0.0,0.0,0.953,0.0,0.0,0.0,0.0,0.0,0.76,0.0,0.0,0.0,0.0,0.0,0.674,0.0,0.0,0.0,0.0,0.0,0.0,0.0,0.0,0.0,0.0,0.0,0.0,0.0,0.0,0.0,0.0,0.0,0.0,0.0,0.0,0.0,0.0,0.0,0.51,0.0,0.0,0.0,0.0,0.0,1.328,0.0,0.0,0.0,,,,,,,,,,,,,,,,,,,,,,,,,,,,,,,,,,,,,,,,,,,,,,,,,,,,,,,,,,,,,,,,,,,,,,,,,,,,,,,,,,,,,,,,,,,,,,,,,,,,,,,,,,,,,,,,,,,,,,,,,,,,,,,,,,,,,,,,,,,,,,,,,,,,,,,,,,,,,,,,,,,,,,,,,,,,,,,,,,,,,,,,,,,,,,,,,,,,,,,,,,,,,,,,,,,moveDown
