,00_accX,00_accY,00_accZ,00_gyroX,00_gyroY,00_gyroZ,01_accX,01_accY,01_accZ,01_gyroX,01_gyroY,01_gyroZ,02_accX,02_accY,02_accZ,02_gyroX,02_gyroY,02_gyroZ,03_accX,03_accY,03_accZ,03_gyroX,03_gyroY,03_gyroZ,04_accX,04_accY,04_accZ,04_gyroX,04_gyroY,04_gyroZ,05_accX,05_accY,05_accZ,05_gyroX,05_gyroY,05_gyroZ,06_accX,06_accY,06_accZ,06_gyroX,06_gyroY,06_gyroZ,07_accX,07_accY,07_accZ,07_gyroX,07_gyroY,07_gyroZ,08_accX,08_accY,08_accZ,08_gyroX,08_gyroY,08_gyroZ,09_accX,09_accY,09_accZ,09_gyroX,09_gyroY,09_gyroZ,10_accX,10_accY,10_accZ,10_gyroX,10_gyroY,10_gyroZ,11_accX,11_accY,11_accZ,11_gyroX,11_gyroY,11_gyroZ,12_accX,12_accY,12_accZ,12_gyroX,12_gyroY,12_gyroZ,13_accX,13_accY,13_accZ,13_gyroX,13_gyroY,13_gyroZ,14_accX,14_accY,14_accZ,14_gyroX,14_gyroY,14_gyroZ,15_accX,15_accY,15_accZ,15_gyroX,15_gyroY,15_gyroZ,16_accX,16_accY,16_accZ,16_gyroX,16_gyroY,16_gyroZ,17_accX,17_accY,17_accZ,17_gyroX,17_gyroY,17_gyroZ,18_accX,18_accY,18_accZ,18_gyroX,18_gyroY,18_gyroZ,19_accX,19_accY,19_accZ,19_gyroX,19_gyroY,19_gyroZ,20_accX,20_accY,20_accZ,20_gyroX,20_gyroY,20_gyroZ,21_accX,21_accY,21_accZ,21_gyroX,21_gyroY,21_gyroZ,22_accX,22_accY,22_accZ,22_gyroX,22_gyroY,22_gyroZ,23_accX,23_accY,23_accZ,23_gyroX,23_gyroY,23_gyroZ,24_accX,24_accY,24_accZ,24_gyroX,24_gyroY,24_gyroZ,25_accX,25_accY,25_accZ,25_gyroX,25_gyroY,25_gyroZ,26_accX,26_accY,26_accZ,26_gyroX,26_gyroY,26_gyroZ,27_accX,27_accY,27_accZ,27_gyroX,27_gyroY,27_gyroZ,28_accX,28_accY,28_accZ,28_gyroX,28_gyroY,28_gyroZ,29_accX,29_accY,29_accZ,29_gyroX,29_gyroY,29_gyroZ,30_accX,30_accY,30_accZ,30_gyroX,30_gyroY,30_gyroZ,31_accX,31_accY,31_accZ,31_gyroX,31_gyroY,31_gyroZ,32_accX,32_accY,32_accZ,32_gyroX,32_gyroY,32_gyroZ,33_accX,33_accY,33_accZ,33_gyroX,33_gyroY,33_gyroZ,34_accX,34_accY,34_accZ,34_gyroX,34_gyroY,34_gyroZ,35_accX,35_accY,35_accZ,35_gyroX,35_gyroY,35_gyroZ,36_accX,36_accY,36_accZ,36_gyroX,36_gyroY,36_gyroZ,37_accX,37_accY,37_accZ,37_gyroX,37_gyroY,37_gyroZ,38_accX,38_accY,38_accZ,38_gyroX,38_gyroY,38_gyroZ,39_accX,39_accY,39_accZ,39_gyroX,39_gyroY,39_gyroZ,40_accX,40_accY,40_accZ,40_gyroX,40_gyroY,40_gyroZ,41_accX,41_accY,41_accZ,41_gyroX,41_gyroY,41_gyroZ,42_accX,42_accY,42_accZ,42_gyroX,42_gyroY,42_gyroZ,43_accX,43_accY,43_accZ,43_gyroX,43_gyroY,43_gyroZ,44_accX,44_accY,44_accZ,44_gyroX,44_gyroY,44_gyroZ,45_accX,45_accY,45_accZ,45_gyroX,45_gyroY,45_gyroZ,46_accX,46_accY,46_accZ,46_gyroX,46_gyroY,46_gyroZ,47_accX,47_accY,47_accZ,47_gyroX,47_gyroY,47_gyroZ,48_accX,48_accY,48_accZ,48_gyroX,48_gyroY,48_gyroZ,49_accX,49_accY,49_accZ,49_gyroX,49_gyroY,49_gyroZ,50_accX,50_accY,50_accZ,50_gyroX,50_gyroY,50_gyroZ,category
accX,0.0,-0.8803418803418803,0.5628815628815629,-0.53125,0.0,0.0,1.1538461538461535,0.0,2.7448107448107453,-0.6875,0.0,0.0,0.0,0.0,2.9609279609279615,0.0,0.0,0.0,-1.0427350427350428,0.7057387057387058,3.411477411477412,0.0,0.0,0.84375,-1.537240537240537,-0.8559218559218559,2.956043956043956,1.0,1.28125,1.5625,-0.6239316239316239,-0.9768009768009768,2.888888888888889,1.0625,2.53125,2.28125,1.4017094017094016,0.0,3.615384615384616,1.21875,2.84375,2.78125,-0.9853479853479854,0.8571428571428571,2.976800976800977,1.84375,3.25,3.59375,-1.2735042735042734,0.0,4.076923076923077,3.25,5.21875,4.96875,1.2967032967032968,-1.9926739926739927,7.006105006105006,4.71875,7.53125,6.0,2.8473748473748475,-2.299145299145299,8.792429792429793,6.0625,8.6875,6.3125,6.0586080586080575,-4.223443223443224,8.012210012210012,6.875,8.65625,6.125,6.670329670329671,-5.253968253968254,5.7313797313797314,6.25,8.09375,4.40625,7.283272283272282,-6.6593406593406606,4.111111111111111,5.125,7.53125,3.0625,6.235653235653236,-6.4041514041514045,4.0976800976800964,4.375,7.0625,2.4375,5.6190476190476195,-5.385836385836386,5.487179487179486,4.5,6.875,2.34375,7.482295482295482,-6.074481074481075,6.152625152625152,4.78125,6.125,2.03125,7.429792429792429,-6.982905982905983,5.693528693528694,4.84375,5.0625,1.3125,7.021978021978023,-7.277167277167277,4.876678876678877,4.65625,3.71875,0.53125,5.816849816849817,-7.578754578754578,3.7191697191697193,4.3125,2.5625,0.0,4.256410256410256,-6.864468864468863,2.4652014652014653,3.90625,1.75,0.0,3.383394383394384,-5.31013431013431,1.6886446886446886,3.84375,1.28125,-0.78125,2.8034188034188032,-4.783882783882785,1.0598290598290598,3.90625,0.875,-0.90625,1.5946275946275947,-5.846153846153847,0.5787545787545788,3.71875,0.75,-1.0,2.5579975579975582,-3.532356532356532,0.0,3.625,0.0,-1.21875,0.0,-4.339438339438339,-1.5079365079365081,3.65625,0.0,-1.40625,0.0,-2.8485958485958487,-2.1526251526251525,3.46875,0.0,-1.53125,-0.6935286935286935,-1.7631257631257633,-2.4920634920634916,3.3125,0.0,-1.59375,-2.0,-2.1855921855921854,-3.449328449328449,3.25,-0.59375,-1.5625,-1.9365079365079363,-1.531135531135531,-4.267399267399267,3.15625,-0.75,-1.5,-2.525030525030525,-2.399267399267399,-5.481074481074481,2.90625,-1.0625,-1.4375,-2.9010989010989015,-1.2954822954822955,-6.531135531135532,2.5,-1.25,-1.5,-4.031746031746032,-1.122100122100122,-8.518925518925519,2.21875,-1.375,-1.4375,-5.542124542124542,-1.2588522588522588,-10.194139194139193,1.78125,-1.0625,-1.375,-6.123321123321122,0.0,-10.238095238095235,1.1875,-0.59375,-1.125,-6.766788766788768,0.0,-9.6007326007326,0.0,0.0,0.0,-5.82051282051282,1.0903540903540905,-7.622710622710622,0.0,0.0,0.0,-4.713064713064713,1.7643467643467643,-5.327228327228327,0.0,0.0,0.0,-3.5738705738705736,1.1196581196581197,-3.6593406593406588,0.0,0.0,0.0,-2.053724053724053,0.0,-2.501831501831502,0.0,0.0,0.0,-1.1343101343101345,0.6971916971916972,-1.3504273504273503,-0.53125,0.0,0.0,-0.8888888888888888,0.6654456654456654,0.0,-0.53125,0.0,0.0,-0.8461538461538461,0.7863247863247863,0.0,0.0,0.0,0.0,0.0,0.6190476190476191,0.8608058608058609,0.0,0.0,0.0,0.0,0.0,0.8547008547008547,0.0,0.0,0.0,0.0,0.0,0.8376068376068376,0.0,0.0,0.0,0.7655677655677655,0.0,0.9914529914529916,0.0,0.0,0.0,-0.5921855921855922,0.0,0.0,0.0,0.0,0.0,0.0,0.0,0.0,0.0,0.0,0.0,0.0,0.0,0.0,0.0,0.0,0.0,0.0,0.0,0.0,0.0,-0.53125,0.0,start
accX,0.0,0.0,1.3394383394383391,1.03125,0.0,0.0,-1.266178266178266,0.0,0.0,1.53125,0.96875,0.71875,-1.6935286935286935,0.0,0.0,2.09375,2.65625,1.1875,2.291819291819292,0.0,-0.8559218559218559,2.71875,4.25,1.875,4.04029304029304,-1.6117216117216118,-1.9816849816849815,2.96875,4.71875,2.1875,5.017094017094017,-2.772893772893773,-2.6446886446886446,3.0625,5.21875,1.75,4.4371184371184365,-3.0146520146520146,-2.6764346764346763,3.09375,6.09375,1.34375,3.2466422466422467,-1.6581196581196582,-1.8205128205128205,3.6875,7.71875,1.0625,3.716727716727717,-1.9267399267399268,-0.6727716727716728,4.40625,9.03125,1.03125,5.863247863247862,-2.092796092796093,0.0,4.71875,9.0625,0.8125,6.431013431013431,-1.8742368742368745,1.2026862026862026,4.9375,8.59375,0.0,5.989010989010988,-1.166056166056166,1.2002442002442002,5.3125,8.28125,0.0,5.065934065934067,-1.1697191697191698,0.8571428571428571,5.65625,8.125,0.0,5.061050061050062,-2.1611721611721606,0.6117216117216118,5.71875,7.75,0.0,4.903540903540903,-3.4224664224664223,0.0,5.46875,7.0625,0.0,5.253968253968254,-3.503052503052503,0.0,5.1875,5.90625,0.0,4.9682539682539675,-4.56043956043956,0.0,4.875,4.9375,0.0,6.018315018315017,-4.3296703296703285,0.0,4.40625,3.15625,0.0,5.5555555555555545,-5.942612942612943,-2.192918192918193,3.78125,1.625,-1.0,2.9853479853479854,-5.112332112332112,-3.1807081807081805,2.84375,0.75,-2.0,0.0,-2.4505494505494507,-3.0561660561660564,2.3125,0.65625,-2.625,0.0,-1.7167277167277166,-2.8424908424908426,2.40625,1.0625,-2.15625,1.1147741147741148,-2.5103785103785103,-3.5177045177045176,2.5625,1.03125,-1.625,0.5445665445665445,-2.2344322344322345,-3.854700854700855,2.40625,0.0,-1.96875,-2.0207570207570207,-1.3162393162393162,-4.130647130647131,2.46875,0.0,-1.96875,-2.409035409035409,-2.4432234432234434,-4.963369963369964,2.5625,0.0,-1.5,-1.8461538461538465,-3.0146520146520146,-5.185592185592187,2.1875,0.0,-1.25,-2.4822954822954824,-2.3040293040293043,-5.1098901098901095,1.84375,0.0,-1.15625,-2.5775335775335777,-1.6422466422466422,-5.5054945054945055,1.75,0.0,-1.0,-3.3028083028083026,-1.7435897435897436,-6.482295482295482,1.53125,-0.5625,-0.9375,-4.108669108669108,-1.4444444444444444,-7.411477411477412,1.0625,0.0,-0.75,-4.245421245421245,-0.5567765567765568,-7.466422466422466,0.53125,0.0,0.0,-3.4822954822954824,0.0,-6.577533577533577,0.0,0.0,0.0,-2.4603174603174605,0.8925518925518926,-4.8620268620268625,0.0,0.0,0.0,-1.376068376068376,1.1123321123321124,-3.501831501831502,0.0,0.0,0.0,-1.6764346764346765,0.0,-3.761904761904762,0.0,0.0,0.0,-1.1343101343101345,0.0,-2.333333333333333,-0.53125,0.0,0.0,0.0,0.0,-0.6239316239316239,0.0,0.0,0.0,0.0,0.0,0.5079365079365079,0.0,0.0,0.0,0.0,0.0,0.0,0.0,0.0,0.0,0.0,0.0,0.0,0.0,0.0,0.0,0.0,0.0,0.0,0.0,0.0,0.0,0.0,0.0,0.0,0.0,0.0,0.0,0.0,0.0,-1.137973137973138,0.0,0.0,0.0,-0.5641025641025641,0.0,-1.7912087912087913,0.0,0.0,0.0,-1.0976800976800978,0.0,-2.1868131868131866,0.0,0.0,0.0,-1.0805860805860803,0.0,-2.347985347985348,-0.75,0.0,0.0,,,,,,,,,,,,,,,,,,,,,,,,,start
accX,-2.094017094017094,1.4236874236874235,1.3943833943833943,2.15625,3.84375,1.625,-0.7667887667887668,1.1343101343101345,1.706959706959707,2.875,4.875,2.3125,1.0451770451770452,-1.0879120879120878,0.536019536019536,3.3125,5.75,2.375,2.126984126984127,-2.437118437118437,-0.9047619047619048,3.3125,6.59375,1.9375,3.578754578754579,-1.9377289377289375,-0.9242979242979243,3.34375,7.25,1.40625,4.898656898656898,-1.7264957264957266,-0.9242979242979243,3.5,7.5625,1.03125,4.518925518925518,-1.9938949938949944,-1.1257631257631258,3.6875,7.875,0.8125,4.262515262515263,-2.7203907203907205,0.0,3.875,8.46875,0.75,4.409035409035409,-1.6300366300366298,0.8803418803418803,4.40625,9.25,0.625,4.951159951159951,-1.2087912087912087,2.023199023199023,5.125,9.5,0.53125,5.175824175824176,-1.8754578754578757,2.669108669108669,5.78125,9.4375,0.0,6.302808302808303,-3.4065934065934065,2.58974358974359,5.8125,8.15625,0.0,5.971916971916972,-4.338217338217338,1.413919413919414,5.5,6.5625,0.0,5.960927960927961,-4.047619047619048,0.5592185592185592,5.125,5.09375,0.0,4.395604395604397,-4.921855921855922,-0.8388278388278388,4.75,3.65625,-0.5625,3.5152625152625148,-4.450549450549451,-2.056166056166056,4.125,2.46875,-0.9375,2.358974358974359,-3.1636141636141635,-1.887667887667888,3.65625,1.71875,-1.4375,0.7081807081807082,-4.128205128205129,-2.7753357753357752,3.625,1.15625,-1.59375,0.5811965811965812,-3.6214896214896215,-3.41025641025641,3.25,1.0625,-1.5625,0.0,-3.0842490842490844,-3.0390720390720385,2.96875,0.84375,-1.53125,-0.5531135531135531,-2.954822954822955,-3.584859584859585,3.03125,0.0,-1.40625,-1.3785103785103785,-3.5885225885225887,-4.705738705738706,3.03125,0.0,-1.46875,-1.3833943833943834,-3.1037851037851034,-5.0317460317460325,2.5625,0.0,-1.46875,-1.9206349206349207,-2.083028083028083,-5.2673992673992664,2.21875,0.0,-1.15625,-2.9572649572649574,-1.5482295482295485,-6.032967032967032,1.96875,0.0,-0.875,-2.7191697191697197,-0.9096459096459096,-6.451770451770452,1.75,0.0,-0.71875,-3.1868131868131866,-1.031746031746032,-7.216117216117216,1.28125,-0.625,-0.625,-3.615384615384616,-0.5946275946275946,-7.2564102564102555,0.75,-0.65625,0.0,-4.065934065934067,0.0,-6.666666666666668,0.0,0.0,0.0,-3.568986568986569,0.0,-5.452991452991453,0.0,0.0,0.0,-2.505494505494505,0.0,-4.1098901098901095,0.0,0.0,0.0,-1.7936507936507935,0.0,-3.1343101343101343,0.0,0.0,0.0,-1.678876678876679,-0.6385836385836385,-2.9706959706959712,0.0,0.0,0.0,-1.84004884004884,0.0,-2.012210012210012,0.0,0.0,0.0,-1.0427350427350428,0.0,0.0,0.0,0.0,0.0,0.0,0.0,0.0,0.0,0.0,0.0,0.0,0.0,0.518925518925519,0.0,0.0,0.0,0.0,0.0,0.78998778998779,0.0,0.0,0.0,0.0,0.0,0.9304029304029304,0.0,0.0,0.0,0.0,0.0,0.503052503052503,0.0,0.0,0.0,0.0,0.0,0.0,0.0,0.0,0.0,-0.7423687423687424,0.0,-1.195360195360195,0.0,0.0,0.0,-0.8461538461538461,0.0,-2.012210012210012,0.0,0.0,0.0,,,,,,,,,,,,,,,,,,,,,,,,,,,,,,,,,,,,,,,,,,,,,,,,,start
accX,-0.971916971916972,0.9255189255189256,0.0,2.0,3.03125,1.3125,-0.8803418803418803,0.0,0.0,2.6875,4.46875,1.65625,0.0,-0.7655677655677655,0.0,3.21875,5.9375,2.0625,1.9987789987789988,-1.4920634920634919,0.5421245421245421,3.5,7.0,2.15625,3.183150183150183,-1.8485958485958487,0.912087912087912,3.65625,7.46875,1.53125,5.293040293040293,-1.9426129426129424,1.123321123321123,3.46875,6.9375,0.875,4.989010989010988,-1.3650793650793651,0.0,3.1875,6.34375,0.0,3.1147741147741153,-1.5702075702075702,0.0,3.1875,6.5625,0.0,2.78998778998779,-0.7802197802197802,0.7277167277167277,3.46875,7.09375,0.0,3.1343101343101343,0.0,1.6544566544566544,3.9375,7.28125,0.0,3.4261294261294264,-0.6275946275946276,1.8888888888888888,4.375,7.25,0.0,3.323565323565324,-1.5128205128205128,2.0793650793650795,4.65625,7.28125,0.0,2.9230769230769234,-1.5921855921855919,2.0854700854700856,5.03125,7.40625,0.0,2.7643467643467643,-2.045177045177045,1.5616605616605617,5.28125,7.34375,0.0,3.663003663003663,-3.5824175824175826,1.1782661782661783,5.25,6.96875,0.0,5.218559218559219,-4.468864468864469,0.9133089133089132,4.78125,5.78125,0.0,4.525030525030525,-4.504273504273504,0.8901098901098901,3.625,2.28125,0.0,1.4542124542124542,-3.2490842490842486,0.6068376068376068,3.125,1.0625,-0.84375,0.0,-2.4920634920634916,0.0,3.09375,0.65625,-0.875,0.0,-3.523809523809524,-1.7863247863247864,3.09375,0.0,-0.9375,-0.6568986568986569,-3.5885225885225887,-2.3369963369963367,2.6875,0.0,-1.125,0.0,-1.0488400488400489,-1.413919413919414,2.34375,0.625,-1.21875,-0.6446886446886447,-1.0525030525030523,-1.238095238095238,2.59375,0.0,-0.90625,0.0,-2.070818070818071,-2.715506715506716,2.78125,0.0,-0.6875,0.0,-2.9023199023199022,-4.42002442002442,2.46875,0.0,-0.90625,-2.0183150183150182,-1.3186813186813189,-4.504273504273504,2.0,0.0,-1.1875,-1.6727716727716728,0.0,-4.836385836385836,2.0,0.0,-0.875,-1.094017094017094,-0.9133089133089132,-5.837606837606838,2.09375,0.0,-0.59375,-1.8693528693528692,-1.3443223443223444,-6.8669108669108665,1.5,0.0,-0.6875,-2.7191697191697197,-0.6837606837606838,-6.951159951159951,1.03125,0.0,-0.59375,-2.737484737484737,0.0,-6.2857142857142865,0.78125,0.0,0.0,-2.33943833943834,0.0,-5.783882783882784,0.53125,0.0,0.0,-2.514041514041514,0.0,-5.12087912087912,0.0,0.0,0.0,-2.0378510378510377,-0.5091575091575091,-4.5006105006105015,0.0,0.0,0.0,-1.4566544566544566,0.0,-3.561660561660561,0.0,0.0,0.0,-1.1367521367521367,0.0,-2.4053724053724053,0.0,0.0,0.0,-0.8315018315018315,0.0,-1.6935286935286935,0.0,0.0,0.0,-0.7863247863247863,0.0,-1.0744810744810744,-0.5625,0.0,0.0,-0.5128205128205128,0.0,0.0,-0.59375,0.0,0.0,0.0,0.0,0.8925518925518926,0.0,0.0,0.0,0.0,0.0,0.9169719169719168,0.0,0.0,0.0,0.0,0.0,0.5421245421245421,0.0,0.0,0.0,0.0,0.0,0.0,0.0,0.0,0.0,0.0,0.0,-0.8620268620268621,0.0,0.0,0.0,,,,,,,,,,,,,,,,,,,,,,,,,,,,,,,,,,,,,,,,,,,start
accX,0.0,0.0,0.0,1.59375,2.96875,0.84375,0.0,0.0,-1.0244200244200243,1.84375,3.40625,0.9375,1.0537240537240538,-0.5115995115995116,-1.1587301587301588,2.0625,3.96875,1.0,1.028083028083028,-0.7997557997557998,-1.4273504273504274,2.375,4.6875,1.0,1.678876678876679,-1.3137973137973138,-1.0647130647130647,2.96875,5.90625,0.53125,2.3504273504273505,-1.4334554334554337,-0.8461538461538461,3.1875,6.40625,0.0,2.3015873015873014,-1.3492063492063493,-0.7973137973137974,3.59375,7.03125,0.0,2.0146520146520146,-0.8815628815628815,0.0,4.28125,7.78125,0.0,3.1672771672771667,-0.5299145299145299,0.6910866910866911,5.125,8.25,0.0,3.483516483516484,-1.2820512820512822,1.021978021978022,5.5625,8.375,0.0,4.006105006105006,-2.0976800976800978,0.5897435897435898,5.5625,8.21875,-0.65625,2.772893772893773,-2.064713064713065,0.0,5.59375,8.15625,-0.5625,3.6666666666666665,-2.601953601953602,0.0,5.84375,7.75,0.0,4.061050061050061,-3.9951159951159956,0.0,5.8125,7.0,0.0,4.798534798534798,-5.410256410256411,0.0,5.34375,5.65625,0.0,5.184371184371185,-6.087912087912088,0.0,4.53125,3.875,-0.5625,2.7216117216117217,-3.965811965811966,-0.7631257631257631,3.625,1.59375,-1.25,1.4236874236874235,-3.3724053724053724,-1.3894993894993894,3.5625,0.59375,-1.46875,0.0,-4.297924297924298,-2.5665445665445668,3.46875,0.0,-1.3125,0.0,-3.648351648351648,-3.4249084249084247,3.03125,0.0,-1.3125,-0.6080586080586079,-3.1684981684981683,-3.5457875457875456,2.65625,0.0,-1.3125,-0.9242979242979243,-2.7216117216117217,-3.3565323565323566,2.46875,0.0,-1.375,0.0,-3.5579975579975582,-3.2002442002442004,2.34375,0.0,-1.3125,0.0,-2.578754578754579,-2.796092796092796,2.0,0.0,-1.34375,-0.9242979242979243,-1.586080586080586,-3.1282051282051277,1.90625,0.0,-1.34375,-2.3736263736263736,-2.763125763125763,-4.185592185592186,2.03125,0.0,-1.21875,-2.2283272283272284,-2.4713064713064714,-4.4822954822954815,2.0,0.0,-1.0625,-1.391941391941392,-2.267399267399268,-5.1159951159951165,1.8125,0.0,-0.78125,-2.1123321123321124,-1.7216117216117215,-5.991452991452992,1.34375,-0.6875,-0.78125,-3.115995115995116,-1.1831501831501832,-6.545787545787546,1.0625,-0.625,0.0,-3.2039072039072036,-1.1575091575091576,-6.7484737484737485,0.6875,0.0,0.0,-2.5665445665445668,-1.2967032967032968,-6.478632478632479,0.0,0.0,0.0,-2.166056166056166,-0.9706959706959708,-5.286935286935287,0.0,0.0,0.0,-1.2319902319902318,0.0,-3.586080586080586,0.0,0.0,0.0,0.0,0.0,-2.1782661782661785,0.0,0.0,0.0,-0.5115995115995116,-0.8571428571428571,-1.7606837606837606,0.0,0.0,0.0,-0.6007326007326007,-1.0244200244200243,-1.363858363858364,0.0,0.0,0.0,-0.7973137973137974,-0.8156288156288156,-0.9438339438339438,-0.59375,0.0,0.0,0.0,-0.5396825396825397,0.0,-0.5625,0.0,0.0,0.0,0.0,0.0,0.0,0.0,0.0,-0.971916971916972,-0.5494505494505495,-2.1257631257631258,-0.53125,0.0,0.0,-1.2503052503052503,-0.9963369963369964,-2.9877899877899887,-0.75,0.0,0.0,,,,,,,,,,,,,,,,,,,,,,,,,,,,,,,,,,,,,,,,,,,,,,,,,,,,,,,start
accX,0.0,0.6507936507936508,-0.78998778998779,0.84375,1.71875,0.0,0.0,0.0,-0.7948717948717948,1.4375,2.625,0.625,0.0,-0.5909645909645911,-1.2442002442002442,1.90625,4.0625,1.1875,1.1111111111111112,-1.7313797313797314,-1.398046398046398,2.15625,5.3125,1.46875,1.6642246642246643,-1.4761904761904765,-0.5067155067155067,2.4375,6.34375,1.25,1.967032967032967,-1.2539682539682542,0.6068376068376068,2.9375,7.34375,0.90625,3.7130647130647128,-1.5409035409035412,0.9853479853479854,3.5,7.9375,0.5625,3.192918192918193,-2.155067155067155,1.1684981684981686,4.03125,8.03125,0.0,1.4432234432234432,-1.0842490842490842,1.5213675213675213,4.40625,8.4375,0.0,1.5616605616605617,-0.9877899877899878,1.9462759462759465,5.21875,9.625,0.0,2.2051282051282053,-1.1489621489621489,2.305250305250305,5.53125,9.6875,0.0,4.034188034188034,-2.1965811965811968,2.275946275946276,5.625,8.96875,0.0,4.616605616605616,-3.2539682539682535,1.5958485958485962,5.4375,7.8125,0.0,4.753357753357753,-4.700854700854701,1.2307692307692308,5.0625,6.46875,0.0,5.09035409035409,-4.321123321123321,0.6373626373626373,4.875,4.9375,0.0,4.807081807081807,-4.86935286935287,0.0,4.5625,3.25,0.0,4.15995115995116,-4.979242979242978,-1.2539682539682542,4.1875,1.65625,-0.65625,1.728937728937729,-5.559218559218558,-1.8937728937728937,3.6875,0.84375,-0.84375,0.0,-4.463980463980464,-1.9865689865689864,3.375,0.71875,-0.9375,0.0,-4.0085470085470085,-2.025641025641025,3.28125,0.5625,-0.96875,0.0,-3.9975579975579976,-2.1343101343101343,3.0625,0.0,-1.125,-1.809523809523809,-4.00976800976801,-2.6056166056166057,2.5625,0.0,-1.21875,-0.6092796092796092,-1.5470085470085468,-1.9096459096459095,2.4375,0.5625,-1.28125,0.0,-1.2722832722832722,-2.3675213675213675,2.71875,0.0,-1.09375,-1.1978021978021978,-2.6959706959706957,-3.7887667887667886,2.65625,-0.53125,-1.0,-3.2051282051282053,-3.4420024420024418,-4.238095238095238,2.1875,-0.625,-1.0,-3.101343101343101,-2.0415140415140414,-3.3736263736263736,1.8125,0.0,-0.75,-1.155067155067155,-1.3663003663003663,-2.8669108669108665,1.8125,0.0,-0.53125,-0.9706959706959708,-1.2393162393162394,-3.3687423687423688,1.90625,0.0,0.0,-1.5836385836385836,-1.514041514041514,-4.837606837606837,1.78125,-0.78125,0.0,-2.4688644688644694,-1.4395604395604396,-5.907203907203908,1.4375,-0.84375,0.0,-3.5128205128205128,-1.5616605616605617,-6.118437118437117,0.9375,0.0,0.0,-1.5323565323565325,-0.6898656898656899,-4.9975579975579985,0.53125,0.0,0.0,-0.9487179487179488,-0.6239316239316239,-4.5177045177045185,0.0,0.0,0.0,-1.424908424908425,-0.8315018315018315,-4.758241758241757,0.0,0.0,0.0,-1.9731379731379728,-0.8815628815628815,-4.485958485958486,0.0,0.0,0.0,-1.728937728937729,-0.7313797313797313,-3.4664224664224665,0.0,0.0,0.0,-1.020757020757021,0.0,-2.1697191697191696,-0.53125,0.0,0.0,0.0,-0.5323565323565324,-0.993894993894994,0.0,0.0,0.0,0.0,-0.6642246642246642,0.0,0.0,0.0,0.0,0.0,-0.8278388278388278,0.0,0.0,0.0,0.0,-0.5433455433455433,-0.6691086691086691,0.0,-0.5625,0.0,0.0,0.0,0.0,0.0,0.0,0.0,0.0,0.0,0.0,0.0,0.0,0.0,0.0,0.0,0.0,-0.7777777777777778,0.0,0.0,0.0,-1.0757020757020757,-0.8205128205128205,-2.9536019536019538,-0.59375,0.0,0.0,,,,,,,,,,,,,,,,,,,,,,,,,,,,,,,start
accX,0.8534798534798534,0.0,-0.5909645909645911,0.0,1.34375,0.0,0.0,0.8620268620268621,0.0,1.0625,2.125,0.0,-0.8620268620268621,1.1001221001221002,-0.6190476190476191,1.65625,3.3125,0.5625,0.6739926739926739,-1.6507936507936507,0.0,2.1875,4.90625,1.1875,1.94993894993895,-1.1245421245421243,0.0,2.3125,5.78125,1.125,2.440781440781441,-1.0256410256410255,0.6959706959706959,2.71875,6.46875,0.875,2.7448107448107453,-1.037851037851038,0.9328449328449328,3.28125,7.125,0.0,3.5836385836385842,-1.9731379731379728,0.7777777777777778,3.6875,7.46875,0.0,4.405372405372407,-2.2857142857142856,0.7350427350427351,3.71875,7.375,0.0,2.551892551892552,-1.266178266178266,1.020757020757021,3.71875,7.0625,0.0,1.9853479853479852,-0.6910866910866911,1.6654456654456655,4.21875,7.5,0.0,1.7484737484737485,-0.8595848595848596,1.868131868131868,4.84375,8.0,0.0,2.6300366300366296,-1.5445665445665446,1.6336996336996337,5.3125,8.0625,0.0,2.8949938949938954,-2.601953601953602,0.9255189255189256,5.4375,7.53125,0.0,3.323565323565324,-3.111111111111111,0.0,5.1875,6.34375,0.0,3.9230769230769234,-4.704517704517705,-0.5653235653235653,4.625,5.1875,0.0,4.503052503052503,-4.521367521367521,0.0,4.125,3.625,0.0,3.717948717948718,-4.380952380952381,-0.7338217338217338,3.75,2.15625,0.0,2.2600732600732596,-3.9853479853479854,-1.2673992673992671,3.4375,1.15625,-0.75,0.0,-4.111111111111111,-1.7887667887667889,3.03125,0.875,-0.90625,0.0,-3.7094017094017095,-2.268620268620269,2.625,0.90625,-0.9375,0.6239316239316239,-2.763125763125763,-2.064713064713065,2.4375,0.71875,-0.84375,0.0,-2.7667887667887667,-2.15018315018315,2.34375,0.53125,-0.90625,0.6752136752136753,-2.288156288156288,-2.340659340659341,2.3125,0.0,-1.1875,0.6617826617826618,-1.3272283272283272,-2.8913308913308917,2.40625,0.0,-1.1875,-0.8534798534798534,-2.245421245421245,-4.523809523809524,2.09375,0.0,-1.125,-2.347985347985348,-1.7387057387057387,-4.4664224664224665,1.625,0.0,-0.84375,-0.9023199023199024,-0.9474969474969476,-4.286935286935287,1.5,0.0,-0.5625,-0.6459096459096461,0.0,-4.670329670329671,1.34375,0.0,-0.65625,-2.294261294261294,0.0,-5.621489621489621,1.1875,-1.0,-0.71875,-3.2905982905982905,0.0,-6.592185592185593,0.96875,-0.8125,0.0,-2.8095238095238093,-0.5079365079365079,-6.4273504273504285,0.0,0.0,0.0,-2.3626373626373627,0.0,-5.429792429792429,0.0,0.0,0.0,-2.012210012210012,0.0,-4.431013431013431,0.0,0.0,0.0,-1.6654456654456655,0.0,-3.641025641025641,0.0,0.0,0.0,-1.4786324786324787,-0.6166056166056166,-3.514041514041514,0.0,0.0,0.0,-1.7057387057387057,-0.8131868131868132,-2.94993894993895,-0.59375,0.0,0.0,-1.915750915750916,0.0,-1.7814407814407816,-0.875,0.0,0.0,-1.199023199023199,0.0,-0.6935286935286935,-0.8125,0.0,0.0,-0.7509157509157509,0.0,0.0,-0.78125,0.0,0.0,-0.5897435897435898,0.0,0.0,-0.78125,0.0,0.0,-0.8205128205128205,0.0,-0.7045177045177046,-0.875,0.0,0.0,,,,,,,,,,,,,,,,,,,,,,,,,,,,,,,,,,,,,,,,,,,,,,,,,,,,,,,start
accX,3.031746031746032,0.0,-0.8913308913308914,0.6875,1.09375,0.0,0.6837606837606838,0.9829059829059827,-0.6959706959706959,0.96875,1.71875,0.0,-1.9255189255189256,1.728937728937729,-0.9951159951159952,1.75,3.59375,0.96875,-0.6361416361416361,0.0,-1.133089133089133,2.40625,5.5,1.46875,1.982905982905983,-1.0183150183150182,-1.0451770451770452,2.59375,6.40625,1.25,2.768009768009768,-1.3687423687423688,-0.9194139194139194,2.6875,6.875,0.875,2.2954822954822958,-1.5763125763125765,-0.9792429792429792,2.71875,7.53125,0.78125,1.7216117216117215,-0.8778998778998779,-0.5494505494505495,3.03125,8.375,0.96875,0.8376068376068376,0.0,0.5103785103785103,3.625,9.4375,1.1875,2.045177045177045,0.0,2.061050061050061,4.53125,10.09375,1.15625,3.311355311355311,-0.7142857142857143,2.8205128205128207,5.09375,9.84375,1.0,4.045177045177045,-1.3833943833943834,2.385836385836386,5.3125,9.125,0.75,3.2283272283272284,-2.3785103785103785,2.063492063492064,5.5,7.96875,0.78125,4.556776556776557,-3.294261294261294,0.7130647130647131,5.25,6.84375,0.71875,5.047619047619048,-4.918192918192919,0.0,4.625,5.09375,0.0,4.294261294261294,-4.145299145299147,-0.6129426129426129,3.8125,3.21875,0.0,2.5067155067155067,-3.2808302808302807,-1.4383394383394383,3.3125,1.625,-0.65625,0.0,-2.4432234432234434,-2.2295482295482296,3.09375,0.8125,-0.71875,-0.8852258852258852,-2.9511599511599518,-2.6129426129426134,3.0,0.71875,-0.65625,-0.6507936507936508,-3.2124542124542126,-2.31013431013431,2.75,0.96875,-0.5625,0.8217338217338217,-2.3015873015873014,-1.7228327228327232,2.625,1.0,-0.65625,0.0,-2.1257631257631258,-1.661782661782662,2.59375,0.5625,-0.8125,0.0,-2.393162393162393,-2.13064713064713,2.5,0.0,-0.75,-0.8205128205128205,-2.155067155067155,-2.31013431013431,2.375,0.0,-0.65625,-0.9645909645909646,-1.6691086691086692,-2.63980463980464,2.34375,0.0,-0.625,-1.52014652014652,-2.323565323565324,-2.8754578754578755,2.15625,0.0,-0.65625,-0.6691086691086691,-1.7789987789987791,-2.743589743589744,2.0,0.0,-0.6875,-0.5714285714285714,-1.4224664224664223,-3.0842490842490844,1.96875,-0.71875,-0.75,-1.7472527472527473,-1.2039072039072038,-4.211233211233211,1.78125,-0.84375,-0.71875,-2.935286935286935,-1.0708180708180708,-5.113553113553113,1.46875,-0.59375,-0.59375,-3.003663003663004,0.0,-5.186813186813186,1.21875,0.0,0.0,-2.2295482295482296,0.0,-4.94993894993895,0.90625,0.0,0.0,-2.4346764346764345,0.0,-4.826617826617826,0.625,0.0,0.0,-2.514041514041514,0.0,-4.553113553113553,0.0,0.0,0.0,-2.407814407814408,0.0,-4.470085470085469,0.0,0.0,0.0,-2.0463980463980462,0.0,-4.401709401709402,0.0,0.0,0.0,-1.7484737484737485,0.0,-3.8461538461538463,0.0,0.0,0.0,-1.343101343101343,0.0,-2.9841269841269837,-0.6875,0.0,0.0,-1.2551892551892552,0.0,-2.195360195360196,-0.8125,0.0,0.0,-1.1697191697191698,0.0,-1.5286935286935286,-0.90625,0.0,0.0,-0.6898656898656899,0.0,-1.0268620268620268,-1.03125,0.0,0.0,,,,,,,,,,,,,,,,,,,,,,,,,,,,,,,,,,,,,,,,,,,,,,,,,,,,,,,,,,,,,start
accX,0.0,1.0036630036630036,-1.051282051282051,0.6875,1.1875,0.0,0.6739926739926739,0.0,-0.568986568986569,1.1875,1.8125,0.0,0.0,0.0,-0.5042735042735043,1.3125,2.34375,0.625,0.0,0.9951159951159952,0.0,1.53125,2.96875,0.8125,0.0,0.0,-0.8437118437118437,2.125,4.0,1.15625,0.8742368742368742,-0.7594627594627594,-1.3455433455433456,2.6875,5.1875,1.34375,1.7545787545787546,-1.9584859584859584,-1.2148962148962148,3.1875,6.6875,1.125,3.5482295482295485,-2.417582417582417,-0.6373626373626373,3.46875,7.96875,0.0,3.936507936507936,-2.095238095238096,0.0,3.6875,8.59375,0.0,4.083028083028083,-1.7545787545787546,0.0,3.65625,8.375,-0.6875,4.494505494505495,-1.5299145299145298,0.557997557997558,3.53125,7.6875,-0.875,3.9975579975579976,0.0,0.0,3.46875,6.71875,-1.0625,2.029304029304029,0.0,0.5714285714285714,3.8125,6.375,-1.09375,0.9108669108669109,0.0,0.0,4.25,6.4375,-0.90625,1.120879120879121,0.0,0.0,4.71875,6.3125,-0.71875,0.0,-1.2454212454212454,0.0,4.9375,6.25,-0.53125,0.6996336996336996,-3.0268620268620268,-1.0964590964590966,4.75,6.15625,0.0,1.2307692307692308,-3.816849816849817,-1.2576312576312576,4.375,5.78125,0.0,2.4566544566544573,-4.205128205128204,-0.8937728937728938,3.96875,4.71875,0.0,4.124542124542124,-4.373626373626373,-0.8522588522588522,3.5625,2.71875,0.0,0.0,-3.622710622710623,-1.6971916971916972,3.25,0.0,-0.6875,-1.8180708180708183,-3.980463980463981,-2.4542124542124544,3.0625,0.0,-0.59375,-0.6923076923076923,-3.1843711843711837,-2.7924297924297923,2.8125,0.65625,-0.625,0.0,-3.1684981684981683,-2.8058608058608057,2.59375,0.75,-0.71875,0.0,-2.9023199023199022,-2.547008547008547,2.28125,0.53125,-0.65625,0.0,-2.128205128205128,-2.3846153846153846,2.125,0.0,-0.5625,0.0,-1.6031746031746033,-3.236874236874237,2.15625,0.0,-0.65625,-0.5115995115995116,-1.6715506715506716,-4.1672771672771685,2.03125,0.0,-0.75,-1.0134310134310134,-1.0,-4.501831501831502,1.75,0.0,-0.5625,-0.9975579975579976,-0.9572649572649572,-4.3760683760683765,1.53125,0.0,0.0,0.0,-1.1147741147741148,-4.095238095238095,1.40625,0.0,0.0,-0.7521367521367521,-0.8424908424908425,-4.043956043956044,1.1875,0.0,0.0,-1.2515262515262515,-0.6398046398046398,-4.467643467643468,0.96875,0.0,0.0,-1.7692307692307692,-0.5286935286935287,-4.926739926739927,0.65625,-0.53125,0.0,-2.2722832722832718,0.0,-4.871794871794871,0.0,0.0,0.0,-1.9511599511599511,0.0,-4.721611721611722,0.0,0.0,0.0,-1.8571428571428568,-0.5299145299145299,-4.38949938949939,0.0,0.0,0.0,-1.7704517704517704,0.0,-3.6727716727716726,0.0,0.0,0.0,-1.4126984126984128,0.0,-3.0293040293040288,0.0,0.0,0.0,-1.4432234432234432,0.0,-2.6105006105006106,-0.625,0.0,0.0,-1.761904761904762,0.0,-2.0268620268620268,-0.75,0.0,0.0,-1.5213675213675213,0.0,-1.382173382173382,-0.84375,0.0,0.0,-0.7533577533577533,0.0,-0.967032967032967,-0.96875,0.0,0.0,,,,,,,,,,,,,,,,,,,,,,,,,,,,,,,,,,,,,,,,,,,,,,,,,start
accX,-1.0769230769230769,0.8827838827838828,-1.0561660561660562,1.40625,2.40625,0.5625,0.0,0.0,-0.6752136752136753,1.53125,3.4375,1.0,0.0,0.0,-0.6410256410256411,1.8125,4.1875,1.1875,0.5531135531135531,-1.0329670329670328,0.0,2.0625,5.0625,1.09375,2.935286935286935,-1.144078144078144,1.0537240537240538,2.875,6.09375,1.03125,3.507936507936508,-1.2014652014652014,1.8827838827838828,3.75,6.78125,0.75,4.9975579975579985,-3.3638583638583635,1.1013431013431014,4.53125,7.15625,0.0,4.163614163614163,-2.8522588522588523,0.0,4.4375,7.125,-0.90625,3.507936507936508,-2.0842490842490844,0.0,4.25,7.15625,-1.4375,2.84981684981685,-1.6947496947496947,0.0,4.03125,7.15625,-1.4375,3.126984126984127,-0.9230769230769232,0.0,3.8125,6.8125,-1.3125,2.3492063492063493,0.0,0.0,3.875,6.1875,-1.3125,1.6837606837606838,0.0,-0.7032967032967034,4.28125,5.6875,-1.375,0.9951159951159952,-1.0268620268620268,-1.2551892551892552,4.46875,5.4375,-1.28125,0.5177045177045178,-2.8437118437118434,-1.7887667887667889,4.375,5.4375,-1.03125,0.73992673992674,-3.75946275946276,-1.0488400488400489,4.0625,5.46875,-0.78125,2.2722832722832718,-2.578754578754579,0.0,4.15625,4.71875,-0.71875,3.111111111111111,-2.9291819291819285,-1.2234432234432235,4.1875,3.34375,-0.59375,2.241758241758242,-4.494505494505495,-2.289377289377289,3.65625,2.125,-0.53125,0.0,-4.914529914529915,-2.838827838827839,2.90625,1.65625,-0.65625,0.0,-3.1965811965811968,-2.214896214896215,2.625,1.40625,-0.78125,0.5006105006105006,-2.0818070818070815,-1.9963369963369964,2.75,1.0,-0.71875,0.5763125763125763,-2.909645909645909,-2.312576312576313,2.625,0.0,-0.65625,0.0,-3.5763125763125765,-3.155067155067155,2.09375,0.0,-0.8125,-0.6019536019536019,-1.8070818070818069,-3.6666666666666665,1.90625,-0.53125,-1.0,-1.871794871794872,-0.9426129426129426,-4.062271062271062,1.96875,0.0,-0.875,-1.931623931623932,-0.8766788766788767,-4.202686202686203,1.96875,0.0,-0.5625,-0.8656898656898657,-1.1391941391941391,-4.681318681318682,1.125,0.0,-0.5625,-1.5506715506715507,0.0,-4.427350427350428,0.84375,0.0,-0.5625,-1.5677655677655675,0.0,-4.572649572649572,0.9375,0.0,0.0,-1.3540903540903542,-0.6727716727716728,-4.822954822954824,0.875,0.0,0.0,-1.5848595848595848,-1.1452991452991452,-4.974358974358975,0.5625,0.0,0.0,-2.3956043956043955,-0.8363858363858364,-4.672771672771673,0.0,0.0,0.0,-2.4896214896214897,-0.5653235653235653,-4.017094017094017,0.0,0.0,0.0,-1.5934065934065933,0.0,-3.067155067155068,0.0,0.0,0.0,-1.15995115995116,-0.6166056166056166,-2.326007326007326,0.0,0.0,0.0,-1.5286935286935286,-1.0390720390720392,-2.010989010989011,0.0,0.0,0.0,-1.6434676434676434,-0.8485958485958486,-1.7496947496947497,-0.65625,0.0,0.0,-1.442002442002442,0.0,-1.6434676434676434,-0.875,0.0,0.0,-0.7338217338217338,0.0,-1.8571428571428568,-1.03125,0.0,0.0,0.0,0.0,-2.490842490842491,-1.25,0.0,0.0,,,,,,,,,,,,,,,,,,,,,,,,,,,,,,,,,,,,,,,,,,,,,,,,,,,,,,,,,,,,,start
accX,0.6373626373626373,0.0,-0.9218559218559218,0.9375,1.71875,0.0,0.6495726495726496,0.0,-0.6507936507936508,1.15625,2.3125,0.5625,0.8827838827838828,0.0,-0.967032967032967,1.40625,3.03125,0.84375,0.5042735042735043,0.0,-1.188034188034188,1.65625,3.8125,1.03125,1.0732600732600732,-0.5665445665445665,-1.7179487179487178,1.90625,4.875,1.15625,1.8559218559218558,-1.199023199023199,-1.6825396825396826,2.3125,6.40625,0.96875,2.8034188034188032,-1.463980463980464,-1.0647130647130647,2.65625,7.1875,0.0,3.145299145299145,-1.2295482295482296,0.0,3.1875,7.6875,0.0,3.304029304029304,-1.0586080586080586,0.0,3.65625,7.875,0.0,3.678876678876679,-0.9768009768009768,0.6092796092796092,3.9375,7.65625,-0.59375,3.792429792429792,-0.9218559218559218,0.0,4.0625,7.15625,-0.71875,2.783882783882784,-0.7435897435897436,0.0,4.15625,6.65625,-0.78125,2.481074481074481,-0.8327228327228328,0.0,4.28125,6.28125,-0.84375,2.096459096459097,-0.8083028083028083,-0.6825396825396826,4.46875,5.8125,-0.84375,1.761904761904762,-1.1709401709401708,-1.3186813186813189,4.59375,5.28125,-0.75,1.3272283272283272,-2.189255189255189,-1.6532356532356531,4.5625,4.78125,-0.59375,0.8253968253968254,-3.231990231990232,-1.8205128205128205,4.375,4.5,0.0,0.0,-3.31990231990232,-0.7338217338217338,4.15625,4.375,0.0,2.7423687423687424,-3.5702075702075704,0.0,3.9375,3.78125,0.0,3.216117216117216,-3.975579975579976,-0.9108669108669109,3.6875,2.34375,0.0,1.3235653235653235,-4.112332112332112,-1.5079365079365081,3.3125,1.09375,-0.53125,-0.5347985347985348,-3.7350427350427347,-2.1514041514041518,3.0,0.59375,-0.75,-0.757020757020757,-3.192918192918193,-2.189255189255189,2.78125,0.71875,-0.75,0.0,-2.9853479853479854,-2.393162393162393,2.65625,0.78125,-0.625,0.0,-2.498168498168498,-2.6178266178266183,2.53125,0.53125,-0.59375,0.0,-2.2185592185592187,-3.1184371184371185,2.4375,0.0,-0.59375,-1.0805860805860803,-2.42002442002442,-3.6129426129426134,2.21875,0.0,-0.65625,-1.0671550671550671,-2.021978021978022,-3.965811965811966,2.03125,0.0,-0.59375,0.0,-1.7374847374847375,-4.255189255189255,1.75,0.0,0.0,-0.6532356532356532,-1.3455433455433456,-4.844932844932845,1.625,-0.625,0.0,-1.1746031746031746,-1.3015873015873016,-5.6178266178266165,1.40625,-0.5625,0.0,-1.1623931623931625,-1.05006105006105,-6.155067155067155,1.0625,0.0,0.0,-1.6654456654456655,-1.1404151404151404,-6.676434676434678,0.5625,0.0,0.0,-2.147741147741148,-0.5726495726495726,-6.621489621489621,0.0,0.0,0.0,-2.3724053724053724,0.0,-5.9865689865689875,0.0,0.0,0.0,-2.2857142857142856,0.0,-5.117216117216118,0.0,0.0,0.0,-1.7875457875457876,0.0,-4.140415140415141,-0.65625,0.0,0.0,-2.11965811965812,-0.6471306471306472,-3.8009768009768017,-0.9375,0.0,0.0,-2.094017094017094,-0.5982905982905983,-2.915750915750916,-1.21875,0.0,0.0,,,,,,,,,,,,,,,,,,,,,,,,,,,,,,,,,,,,,,,,,,,,,,,,,,,,,,,,,,,,,,,,,,,,,,,,,start
accX,0.0,1.1575091575091576,-1.123321123321123,1.125,2.09375,0.0,-1.271062271062271,0.9792429792429792,-0.9731379731379732,1.59375,3.40625,0.75,-1.5726495726495726,0.7362637362637363,-0.7240537240537241,1.90625,4.84375,1.34375,1.3150183150183148,0.0,-0.6385836385836385,2.0625,5.84375,1.21875,3.7496947496947497,-2.101343101343101,0.0,2.34375,6.28125,1.03125,4.1001221001221,-1.8290598290598292,1.061050061050061,2.625,6.75,0.5625,3.940170940170941,-1.568986568986569,1.7973137973137974,3.15625,7.25,0.0,2.948717948717949,-1.4786324786324787,2.0305250305250304,3.75,7.71875,0.0,2.3015873015873014,-1.3333333333333333,1.8485958485958487,4.1875,8.1875,0.0,2.888888888888889,-0.9291819291819292,1.7716727716727716,4.40625,8.28125,-0.5625,2.750915750915751,-0.9902319902319904,1.3308913308913308,4.46875,8.0,-0.53125,2.9975579975579976,-1.0793650793650793,0.8962148962148963,4.4375,7.5,0.0,3.413919413919414,-1.474969474969475,0.0,4.28125,6.59375,0.0,2.9365079365079363,-1.733821733821734,0.0,4.28125,5.53125,0.0,2.5677655677655684,-2.669108669108669,0.0,4.1875,4.5,0.0,1.637362637362637,-2.769230769230769,-0.8717948717948718,4.09375,3.40625,-0.53125,1.514041514041514,-3.717948717948718,-1.3394383394383391,3.8125,2.90625,-0.5625,1.1465201465201464,-3.9609279609279615,-1.4358974358974361,3.40625,2.40625,-0.59375,1.3650793650793651,-3.1916971916971923,-1.0195360195360197,3.25,1.875,-0.5625,1.1843711843711844,-3.2710622710622714,-0.6813186813186813,3.25,1.25,-0.59375,1.05006105006105,-3.694749694749695,-1.2527472527472527,3.125,0.78125,-0.78125,0.0,-3.831501831501832,-1.7814407814407816,2.875,0.0,-0.9375,0.0,-2.485958485958486,-2.1074481074481075,2.78125,0.0,-0.8125,-0.536019536019536,-2.3663003663003663,-2.8376068376068377,2.78125,0.0,-0.71875,-1.31013431013431,-2.938949938949939,-3.4285714285714284,2.5,0.0,-0.90625,-1.2222222222222223,-2.3064713064713063,-3.8949938949938954,2.1875,0.0,-0.96875,-2.0463980463980462,-1.8937728937728937,-4.4493284493284495,1.84375,0.0,-0.96875,-2.183150183150183,0.0,-5.583638583638583,1.78125,0.0,-0.6875,-2.6605616605616604,0.0,-6.763125763125763,1.625,-0.6875,0.0,-3.8009768009768017,-0.5091575091575091,-7.467643467643467,1.0625,-0.65625,0.0,-3.954822954822955,0.0,-6.848595848595848,0.0,0.0,0.0,-3.1904761904761907,0.0,-5.593406593406592,0.0,0.0,0.0,-1.94993894993895,0.6141636141636142,-4.567765567765568,0.0,0.0,0.0,-1.6141636141636142,0.5384615384615384,-3.9987789987789983,0.0,0.0,0.0,-2.4432234432234434,0.0,-3.8815628815628815,0.0,0.0,0.0,-1.7313797313797314,0.0,-3.7851037851037854,0.0,0.0,0.0,-1.5164835164835164,0.0,-3.318681318681319,-0.78125,0.0,0.0,-1.52014652014652,0.0,-2.8424908424908426,-1.0625,0.0,0.0,-1.0354090354090355,0.0,-2.8253968253968256,-1.34375,0.0,0.0,,,,,,,,,,,,,,,,,,,,,,,,,,,,,,,,,,,,,,,,,,,,,,,,,,,,,,,,,,,,,,,,,,,,,,,,,start
accX,0.0,0.7387057387057387,0.0,1.1875,2.09375,0.0,0.0,0.6178266178266179,0.0,1.5,2.71875,0.78125,-1.4261294261294262,0.5470085470085471,0.0,2.0,3.75,1.21875,-0.7753357753357754,-0.978021978021978,0.0,2.65625,5.59375,1.625,0.9377289377289376,-1.5567765567765568,0.0,2.875,6.15625,1.59375,2.826617826617827,-1.9230769230769231,0.0,2.71875,6.0625,1.25,2.4945054945054945,-2.045177045177045,0.0,2.6875,6.09375,1.0,2.8229548229548236,-2.028083028083028,0.0,2.875,6.1875,0.71875,3.7448107448107453,-1.5152625152625152,1.0415140415140416,3.34375,6.0625,0.0,3.7753357753357752,-1.4737484737484738,1.5262515262515262,3.84375,5.78125,-0.53125,2.8156288156288163,-1.4029304029304028,1.1318681318681318,4.28125,5.84375,-1.03125,2.6617826617826617,-1.9926739926739927,0.0,4.375,5.90625,-1.21875,1.5811965811965811,-1.2515262515262515,0.0,4.59375,6.125,-1.25,1.5677655677655675,-0.7606837606837606,0.0,5.0,6.15625,-1.1875,1.5592185592185592,-1.2588522588522588,0.0,5.1875,5.6875,-0.9375,1.5592185592185592,-1.9352869352869355,0.0,5.125,5.3125,-0.71875,1.8571428571428568,-2.8302808302808304,0.0,4.8125,4.78125,-0.65625,2.0903540903540905,-3.0818070818070824,0.0,4.46875,3.96875,-0.6875,2.728937728937729,-3.240537240537241,-0.568986568986569,4.28125,2.96875,-0.75,2.4236874236874235,-3.5921855921855923,-1.5299145299145298,3.90625,1.6875,-0.8125,1.123321123321123,-3.115995115995116,-2.6507936507936507,3.375,0.625,-1.03125,-0.8913308913308914,-2.481074481074481,-3.4090354090354085,2.9375,0.0,-1.1875,-1.575091575091575,-2.128205128205128,-3.6849816849816848,2.71875,0.6875,-1.125,0.0,-2.199023199023199,-3.4420024420024418,2.59375,1.09375,-1.125,0.0,-2.6300366300366296,-2.8095238095238093,2.28125,0.84375,-1.15625,-0.63003663003663,-1.7557997557997558,-2.763125763125763,2.0,0.0,-1.125,-1.9694749694749696,-1.3028083028083028,-3.3321123321123323,2.0,0.0,-0.875,-3.267399267399268,-1.094017094017094,-4.026862026862027,1.90625,0.0,-0.6875,-3.155067155067155,-1.6764346764346765,-4.473748473748474,1.46875,0.0,0.0,-1.5421245421245422,-1.1538461538461535,-4.1550671550671545,0.96875,0.0,0.0,-0.7411477411477412,0.0,-3.8021978021978016,0.875,-0.625,0.0,-1.8217338217338217,0.0,-4.328449328449328,1.03125,-0.875,0.0,-2.496947496947497,0.0,-5.3577533577533565,0.96875,-0.75,0.0,-2.474969474969475,-0.9926739926739928,-6.471306471306471,0.0,-0.5625,0.0,-2.561660561660561,-0.536019536019536,-6.4884004884004876,0.0,0.0,0.0,-2.6129426129426134,0.0,-5.7313797313797314,-0.625,0.0,0.0,-2.225885225885226,0.0,-5.2002442002442,-0.75,0.0,0.0,-2.335775335775336,0.0,-4.991452991452992,-1.0,0.0,0.0,-3.267399267399268,0.0,-3.5665445665445668,-1.46875,0.0,0.0,-1.9023199023199024,0.0,-2.5067155067155067,-1.6875,0.59375,0.6875,,,,,,,,,,,,,,,,,,,,,,,,,,,,,,,,,,,,,,,,,,,,,,,,,,,,,,,,,,,,,,,,,,,start
accX,2.496947496947497,0.0,-2.1001221001221,1.0625,2.40625,0.0,2.213675213675214,0.0,-1.7326007326007329,1.1875,3.03125,0.59375,1.7484737484737485,-0.7118437118437119,-2.139194139194139,1.59375,4.0,0.71875,2.0769230769230766,-0.8424908424908425,-2.145299145299145,1.84375,5.03125,0.0,2.346764346764347,-1.94993894993895,-1.8986568986568984,2.1875,6.125,0.0,3.2979242979242978,-2.374847374847375,0.0,2.53125,6.8125,0.0,2.5286935286935286,-2.1611721611721606,0.9255189255189256,3.09375,7.46875,-0.53125,2.115995115995116,-1.5470085470085468,1.6275946275946276,3.6875,8.125,-0.5625,2.131868131868132,-0.8327228327228328,2.235653235653236,4.34375,8.4375,-0.53125,1.1636141636141637,0.0,2.474969474969475,5.09375,8.46875,0.0,0.9035409035409036,0.0,2.3846153846153846,5.90625,8.71875,0.0,0.5604395604395604,0.0,2.0146520146520146,6.71875,9.0625,0.0,2.7411477411477403,-2.7863247863247858,0.0,7.125,8.9375,0.0,6.528693528693529,-4.8840048840048835,-1.1709401709401708,6.59375,7.5,0.0,7.576312576312577,-6.63980463980464,-2.5396825396825395,5.09375,4.71875,0.0,5.21978021978022,-4.577533577533577,-2.8803418803418803,3.65625,2.03125,-1.09375,0.8095238095238095,-3.584859584859585,-3.0573870573870563,3.0,0.71875,-1.59375,-1.1819291819291822,-2.68986568986569,-2.954822954822955,3.0,1.375,-1.3125,-0.8095238095238095,-3.5482295482295485,-2.2979242979242978,2.8125,1.8125,-0.96875,0.5409035409035409,-4.294261294261294,-1.3601953601953602,2.53125,1.46875,-0.96875,0.0,-4.330891330891331,0.0,2.28125,0.875,-1.25,-0.8644688644688645,-4.371184371184371,0.0,2.21875,0.5625,-1.34375,0.0,-2.6910866910866917,0.0,2.53125,0.0,-1.09375,-1.525030525030525,-3.064713064713065,-0.9450549450549449,2.71875,0.0,-0.71875,-1.8107448107448108,-3.3504273504273505,-2.2783882783882783,2.5625,0.0,0.0,-1.2454212454212454,-2.347985347985348,-3.023199023199023,2.3125,-0.75,0.0,-1.5030525030525033,-1.6446886446886446,-3.782661782661783,2.1875,-1.0,0.0,-1.7680097680097682,-0.8998778998778999,-4.9023199023199036,2.03125,-1.125,0.0,-1.4529914529914532,-1.120879120879121,-7.478632478632479,1.59375,-1.125,0.0,-2.2649572649572653,-0.5702075702075702,-8.087912087912088,0.90625,-1.0625,0.0,-2.8083028083028077,0.0,-7.727716727716727,0.0,-0.71875,0.0,-2.6959706959706957,0.0,-6.965811965811965,0.0,0.0,0.0,-1.6288156288156288,0.0,-6.010989010989012,0.0,0.0,0.0,-1.264957264957265,0.0,-5.36019536019536,0.0,0.0,0.0,-1.5702075702075702,0.0,-5.1159951159951165,-0.59375,0.0,0.0,-1.7631257631257633,0.0,-4.473748473748474,-0.75,0.0,0.0,-1.7228327228327232,0.0,-3.678876678876679,-0.84375,0.0,0.0,-1.6007326007326008,0.0,-3.131868131868132,-1.03125,0.0,0.0,-1.1196581196581197,0.0,-2.765567765567765,-1.21875,0.0,0.0,-1.1062271062271063,0.0,-2.47985347985348,-1.5,0.0,0.5625,-1.4407814407814408,0.0,-2.389499389499389,-1.65625,0.0,0.71875,,,,,,,,,,,,,,,,,,,,,,,,,,,,,,,,,,,,,,,,,,,,,,,,,,,,,,,,,,,,,start
accX,1.8376068376068373,0.0,-0.8449328449328449,0.78125,1.875,0.0,2.029304029304029,0.0,0.0,0.9375,2.15625,0.0,1.1489621489621489,0.0,0.0,1.15625,2.65625,0.625,1.6446886446886446,0.0,-1.006105006105006,1.46875,3.40625,0.71875,2.743589743589744,-1.5506715506715507,-1.21978021978022,1.75,4.03125,0.53125,2.7448107448107453,-1.4713064713064714,-1.0183150183150182,1.78125,4.53125,0.0,2.192918192918193,-1.092796092796093,-0.9877899877899878,2.1875,5.46875,0.0,1.57997557997558,0.0,0.0,2.90625,6.40625,0.0,3.3809523809523814,0.0,0.0,3.625,6.59375,-0.71875,4.2405372405372415,0.0,0.6117216117216118,4.125,6.09375,-1.09375,3.8986568986568986,-0.8131868131868132,0.0,4.5,5.59375,-1.3125,2.8437118437118434,-1.824175824175824,-0.971916971916972,4.5,5.5,-1.5,1.4957264957264955,-1.7411477411477412,-1.7606837606837606,4.3125,5.84375,-1.71875,1.5628815628815629,-1.3003663003663004,-1.3333333333333333,4.3125,6.375,-1.8125,1.876678876678877,-1.2124542124542124,-0.7496947496947497,4.5625,6.5,-1.78125,2.6507936507936507,-1.6715506715506716,0.0,4.8125,6.03125,-1.59375,2.3821733821733817,-3.1880341880341883,-0.536019536019536,4.8125,5.4375,-1.34375,1.8608058608058609,-3.1709401709401708,-0.9731379731379732,4.59375,4.53125,-1.0625,1.4468864468864469,-3.78998778998779,-1.0305250305250304,4.34375,3.71875,-0.875,1.652014652014652,-3.887667887667888,-1.0952380952380951,3.75,2.75,-0.75,1.8547008547008548,-2.8669108669108665,-1.1477411477411477,3.3125,1.53125,-0.78125,0.0,-3.0903540903540905,-1.4700854700854702,3.15625,0.0,-0.78125,-1.4566544566544566,-3.0390720390720385,-1.8266178266178263,2.90625,0.0,-0.71875,-1.9145299145299144,-3.695970695970696,-1.7814407814407816,2.625,0.0,-0.71875,-1.1135531135531136,-2.6788766788766787,-2.0427350427350426,2.25,0.0,-0.875,-1.3724053724053724,-2.537240537240537,-2.2612942612942613,2.15625,0.0,-1.0,-1.0146520146520146,-1.133089133089133,-2.4322344322344316,2.1875,0.0,-0.9375,-1.8705738705738704,-1.975579975579976,-3.5470085470085464,2.28125,-0.65625,-0.65625,-1.85958485958486,-1.6141636141636142,-4.726495726495727,2.03125,-0.84375,-0.625,-2.1623931623931623,-0.873015873015873,-5.730158730158731,1.65625,-1.0625,-0.625,-3.2307692307692313,-0.5934065934065934,-6.559218559218558,1.46875,-0.9375,0.0,-3.407814407814408,-0.6141636141636142,-6.9413919413919425,1.15625,-0.65625,0.0,-3.289377289377289,-0.9035409035409036,-6.920634920634921,0.6875,0.0,0.0,-2.9511599511599518,-0.912087912087912,-6.492063492063493,0.0,0.0,0.0,-2.7399267399267404,0.0,-5.827838827838828,0.0,0.0,0.0,-2.611721611721612,0.0,-5.170940170940171,0.0,0.0,0.0,-2.293040293040293,0.0,-4.827838827838828,0.0,0.0,0.0,-1.938949938949939,0.0,-4.695970695970696,-0.6875,0.0,0.0,-2.225885225885226,0.0,-4.2295482295482305,-1.0625,0.0,0.0,-2.126984126984127,0.0,-3.4481074481074483,-1.375,0.0,0.59375,,,,,,,,,,,,,,,,,,,,,,,,,,,,,,,,,,,,,,,,,,,,,,,,,,,,,,,,,,,,,,,,,,,start
accX,-0.8107448107448108,0.0,-1.7277167277167278,0.8125,1.84375,0.0,-0.5115995115995116,0.0,-1.6544566544566544,1.15625,2.625,0.0,1.2210012210012209,0.0,-1.7716727716727716,1.15625,2.84375,0.0,0.8693528693528694,-0.6056166056166056,-1.5738705738705738,1.34375,3.5,0.0,1.3736263736263736,-1.7631257631257633,-1.978021978021978,1.6875,4.46875,0.0,1.887667887667888,-1.8229548229548234,-1.7973137973137974,1.75,5.1875,0.0,1.7960927960927962,-1.4713064713064714,-1.2735042735042734,1.96875,5.84375,0.0,1.0634920634920637,0.0,0.0,2.46875,6.53125,0.0,1.6642246642246643,-0.5787545787545788,0.0,3.21875,7.375,-0.78125,2.6092796092796093,-0.6813186813186813,0.0,3.78125,7.90625,-1.09375,3.758241758241758,-0.9951159951159952,0.0,3.96875,7.75,-1.3125,2.3418803418803416,0.0,0.0,3.90625,7.3125,-1.5,1.9377289377289375,0.0,0.0,3.9375,7.15625,-1.5,1.1477411477411477,1.1343101343101345,0.0,4.25,6.875,-1.4375,1.10989010989011,0.0,0.0,4.65625,6.625,-1.1875,0.7863247863247863,-1.5824175824175823,-0.6007326007326007,4.6875,6.09375,-0.875,1.413919413919414,-2.313797313797314,-0.9304029304029304,4.53125,5.5,-0.6875,2.4420024420024418,-3.485958485958486,-1.1074481074481075,4.125,4.40625,-0.71875,2.9401709401709404,-4.083028083028083,-0.9816849816849816,3.625,2.875,-0.78125,2.5873015873015874,-4.197802197802199,-1.3943833943833943,3.15625,1.4375,-0.875,0.7875457875457875,-4.1843711843711855,-2.1819291819291817,2.71875,0.0,-1.0,-1.0647130647130647,-3.7045177045177047,-2.407814407814408,2.375,0.0,-1.09375,-1.7081807081807079,-3.0769230769230766,-2.0769230769230766,2.3125,0.0,-1.03125,-1.3284493284493284,-2.399267399267399,-2.166056166056166,2.40625,0.625,-0.9375,-0.5531135531135531,-2.6996336996337003,-2.5665445665445668,2.3125,0.0,-0.84375,-1.2319902319902318,-2.9951159951159956,-2.614163614163614,2.09375,0.0,-0.90625,-1.5677655677655675,-2.311355311355311,-2.6996336996337003,1.96875,0.0,-0.8125,-1.4017094017094016,-0.9096459096459096,-4.333333333333333,2.03125,-0.78125,-0.75,-1.8315018315018317,-1.286935286935287,-5.9462759462759465,1.84375,-1.09375,-0.65625,-3.2429792429792434,-1.1196581196581197,-6.992673992673992,1.3125,-1.15625,-0.65625,-4.1037851037851025,0.0,-7.278388278388277,0.8125,-0.8125,0.0,-3.678876678876679,0.0,-6.914529914529915,0.0,0.0,0.0,-2.9890109890109886,-0.5873015873015873,-6.363858363858364,0.0,0.0,0.0,-2.498168498168498,-0.7008547008547008,-5.8669108669108665,0.0,0.0,0.0,-2.8217338217338215,-0.7643467643467643,-5.395604395604397,0.0,0.0,0.0,-2.769230769230769,-0.7643467643467643,-4.567765567765568,-0.8125,0.0,0.0,-2.477411477411477,-0.8424908424908425,-3.2954822954822958,-1.0625,0.0,0.0,-1.7423687423687424,-0.7313797313797313,-1.9658119658119655,-1.21875,0.0,0.5625,,,,,,,,,,,,,,,,,,,,,,,,,,,,,,,,,,,,,,,,,,,,,,,,,,,,,,,,,,,,,,,,,,,,,,,,,,,,,,,start
accX,0.0,0.8815628815628815,-0.9902319902319904,0.875,1.25,0.0,-0.6214896214896215,0.0,-1.3406593406593406,1.25,2.21875,0.65625,0.0,-1.144078144078144,-2.2954822954822958,1.4375,3.5625,0.875,2.2234432234432235,-1.6483516483516485,-1.9658119658119655,1.34375,4.46875,0.6875,3.101343101343101,-1.195360195360195,-1.3748473748473748,1.09375,4.125,0.0,1.3479853479853479,0.0,-1.2014652014652014,1.5,4.6875,0.0,0.8424908424908425,-0.7264957264957265,-1.115995115995116,2.15625,5.78125,0.0,2.075702075702076,-0.9694749694749696,-0.73992673992674,2.65625,6.4375,0.0,2.1794871794871797,0.0,0.0,3.1875,6.84375,0.0,0.757020757020757,0.0,0.0,3.84375,7.625,0.0,0.7460317460317459,0.0,-0.6862026862026862,4.125,8.3125,0.0,2.3675213675213675,0.0,0.0,4.25,8.3125,0.0,4.089133089133089,0.0,0.0,4.34375,7.34375,0.0,3.0586080586080584,0.0,0.0,4.625,6.46875,-0.5625,2.7326007326007327,-1.5738705738705738,-0.94993894993895,4.5,5.65625,-0.71875,1.5079365079365081,-1.953601953601953,-1.4615384615384617,4.34375,5.34375,-0.84375,2.7240537240537246,-2.913308913308913,-1.376068376068376,3.65625,4.25,-0.9375,1.9108669108669107,-1.967032967032967,-1.2405372405372406,3.375,3.03125,-1.0,0.7753357753357754,-2.253968253968254,-1.5018315018315018,3.21875,2.3125,-0.9375,1.1343101343101345,-2.3382173382173383,-1.7545787545787546,3.0,1.96875,-0.96875,1.3846153846153846,-1.6251526251526252,-1.7496947496947497,2.84375,1.40625,-1.03125,0.6984126984126984,-2.559218559218559,-2.1782661782661785,2.875,0.71875,-1.15625,0.0,-2.8095238095238093,-2.388278388278388,2.75,0.0,-1.25,-0.8803418803418803,-2.8803418803418803,-2.5531135531135534,2.4375,0.0,-1.3125,-1.4493284493284493,-1.3992673992673992,-2.9035409035409034,2.28125,0.0,-1.34375,-1.6068376068376071,-1.0598290598290598,-3.4945054945054945,2.40625,0.0,-1.3125,-1.915750915750916,-1.5555555555555556,-3.892551892551893,2.40625,0.0,-1.21875,-2.829059829059829,-2.2246642246642248,-4.36019536019536,2.125,0.0,-1.09375,-3.227106227106227,-1.5286935286935286,-4.7374847374847375,1.40625,0.0,-0.90625,-3.5409035409035408,0.0,-4.5103785103785095,1.21875,0.0,-0.71875,-3.456654456654457,0.0,-4.427350427350428,1.28125,0.0,0.0,-3.5677655677655684,0.0,-4.5445665445665435,1.21875,0.0,0.0,-3.948717948717949,-0.8473748473748474,-4.931623931623932,0.9375,0.0,0.0,-3.6166056166056166,-0.6092796092796092,-4.771672771672772,0.53125,0.0,0.0,-3.028083028083028,0.0,-4.362637362637362,0.0,0.0,0.0,-3.0329670329670333,0.0,-4.373626373626373,0.0,0.0,0.0,-2.687423687423687,0.0,-4.4163614163614175,0.0,0.0,0.0,-2.004884004884005,0.0,-4.368742368742368,-0.59375,0.0,0.0,-1.122100122100122,0.0,-3.976800976800977,-1.0625,0.0,0.0,,,,,,,,,,,,,,,,,,,,,,,,,,,,,,,,,,,,,,,,,,,,,,,,,,,,,,,,,,,,,,,,,,,,,,,,,start
accX,0.0,0.5470085470085471,-1.794871794871795,0.96875,1.5,0.0,-1.948717948717949,1.5091575091575091,-1.9255189255189256,1.5625,2.9375,0.53125,-1.586080586080586,0.8083028083028083,-1.868131868131868,2.0625,4.28125,1.0625,1.9951159951159951,-1.7326007326007329,-1.4456654456654456,2.34375,5.75,1.09375,2.851037851037851,-2.0244200244200243,-0.8571428571428571,2.46875,6.375,0.59375,3.2661782661782666,-1.9963369963369964,0.0,2.53125,6.75,0.0,2.9890109890109886,-1.967032967032967,0.0,2.625,6.9375,0.0,0.9853479853479854,-1.1172161172161172,0.0,2.8125,7.34375,0.0,0.0,0.0,0.5677655677655677,3.375,8.28125,0.0,2.4383394383394386,0.0,1.4908424908424909,4.09375,9.15625,0.0,4.305250305250305,0.0,1.7435897435897436,4.40625,8.625,0.0,3.468864468864469,-0.6666666666666666,1.5238095238095235,4.59375,7.625,-0.6875,1.8620268620268619,-0.5286935286935287,0.9755799755799756,4.84375,7.0,-0.71875,1.3272283272283272,-0.7301587301587301,0.0,5.15625,6.65625,-0.6875,2.8925518925518925,-3.0573870573870563,0.0,5.15625,5.9375,-0.625,3.075702075702076,-3.8913308913308913,-1.037851037851038,4.59375,3.90625,-0.75,3.147741147741148,-4.185592185592186,-1.2735042735042734,4.03125,2.40625,-0.9375,1.3601953601953602,-3.5482295482295485,-1.5567765567765568,3.71875,1.28125,-1.125,0.0,-3.120879120879121,-1.746031746031746,3.625,0.90625,-1.0625,0.0,-3.382173382173382,-1.9230769230769231,3.375,0.5625,-1.03125,0.0,-3.3492063492063493,-2.15018315018315,3.09375,0.0,-1.15625,-1.2014652014652014,-3.4481074481074483,-2.593406593406593,2.71875,0.0,-1.25,-1.4590964590964588,-2.688644688644689,-2.8571428571428568,2.40625,0.0,-1.15625,-2.333333333333333,-2.0976800976800978,-2.844932844932845,2.28125,0.0,-1.125,-2.1587301587301586,-1.297924297924298,-3.1355311355311355,2.21875,-0.625,-0.96875,-2.5836385836385842,-1.271062271062271,-3.910866910866911,2.0625,-1.03125,-0.875,-4.412698412698413,-1.8192918192918195,-5.802197802197803,1.15625,-1.28125,-0.8125,-4.8669108669108665,0.0,-5.570207570207571,0.8125,-0.875,-0.5625,-4.258852258852259,0.0,-5.452991452991453,0.78125,0.0,0.0,-3.4786324786324787,0.0,-5.424908424908424,0.625,0.0,0.0,-3.1746031746031744,-0.6007326007326007,-5.277167277167277,0.0,0.0,0.0,-3.628815628815629,-0.6251526251526252,-4.963369963369964,0.0,0.0,0.0,-3.474969474969475,0.0,-4.599511599511598,0.0,0.0,0.0,-3.1672771672771667,-0.5054945054945055,-4.236874236874237,0.0,0.0,0.0,-2.7704517704517704,-0.9010989010989012,-3.88034188034188,-0.59375,0.0,0.0,-2.4725274725274726,-0.7924297924297924,-3.274725274725274,-0.90625,0.0,0.53125,-1.9255189255189256,0.0,-2.5164835164835164,-1.15625,0.0,0.59375,-0.9096459096459096,0.0,-2.0854700854700856,-1.28125,0.0,0.625,,,,,,,,,,,,,,,,,,,,,,,,,,,,,,,,,,,,,,,,,,,,,,,,,,,,,,,,,,,,,,,,,,,,,,,,,,,,,,,start
accX,1.103785103785104,0.0,-2.0525030525030523,1.625,4.40625,1.4375,2.5360195360195363,-0.6556776556776557,-1.746031746031746,1.625,5.125,1.4375,2.8949938949938954,-1.1623931623931625,-1.4175824175824177,1.65625,5.46875,1.09375,3.47008547008547,-1.4847374847374848,-1.5384615384615383,1.90625,5.8125,0.8125,4.086691086691086,-2.031746031746032,-1.4273504273504274,2.03125,6.15625,0.0,4.84004884004884,-2.768009768009768,-1.0891330891330893,2.15625,6.25,0.0,5.043956043956044,-2.192918192918193,-0.6593406593406593,2.28125,6.28125,-0.78125,4.3003663003663,-1.6324786324786325,0.0,2.78125,6.15625,-1.5625,3.3211233211233213,-0.7582417582417582,0.0,3.34375,6.125,-1.90625,2.4468864468864466,-0.7338217338217338,0.0,3.78125,6.21875,-2.0,3.1343101343101343,-0.9682539682539684,-0.7203907203907204,3.8125,5.84375,-2.03125,3.4004884004884004,-0.9206349206349206,-1.120879120879121,3.625,4.9375,-2.125,1.7533577533577531,0.0,-1.3956043956043955,3.625,4.3125,-2.15625,0.0,0.0,-1.7301587301587302,3.78125,4.125,-2.0,-1.0573870573870574,-0.7338217338217338,-2.253968253968254,3.96875,4.46875,-1.75,-0.8620268620268621,-1.05006105006105,-2.3785103785103785,4.0625,4.65625,-1.5,-0.5738705738705738,-1.4383394383394383,-2.4871794871794872,4.125,4.53125,-1.15625,0.0,-1.8534798534798536,-2.7399267399267404,4.1875,4.25,-0.84375,0.0,-3.1904761904761907,-3.1794871794871797,4.03125,4.0625,-0.53125,2.3650793650793656,-3.21001221001221,-2.4004884004884004,3.21875,2.78125,-0.6875,0.9291819291819292,-2.750915750915751,-2.2551892551892547,2.6875,1.125,-1.0,-1.987789987789988,-2.1111111111111107,-2.376068376068376,2.46875,0.0,-1.09375,-3.0354090354090357,-1.4664224664224663,-2.7863247863247858,2.46875,0.0,-0.875,-2.877899877899878,-1.6947496947496947,-3.1904761904761907,2.4375,0.0,-0.625,-1.7777777777777777,-1.934065934065934,-3.9145299145299135,2.1875,0.0,-0.625,-1.6837606837606838,-1.362637362637363,-4.108669108669108,1.65625,0.0,-0.8125,-2.0073260073260077,0.0,-4.108669108669108,1.34375,-0.65625,-0.78125,-2.8412698412698414,0.0,-4.822954822954824,1.3125,-0.9375,-0.53125,-3.1086691086691087,0.0,-5.63980463980464,1.15625,-0.8125,0.0,-2.973137973137973,-0.6166056166056166,-5.926739926739928,0.8125,-0.625,0.0,-2.800976800976801,-0.6214896214896215,-5.7313797313797314,0.0,0.0,0.0,-2.9633699633699635,0.0,-5.346764346764347,0.0,0.0,0.0,-2.642246642246642,0.0,-4.778998778998779,0.0,0.0,0.0,-2.235653235653236,0.0,-4.186813186813187,0.0,0.0,0.0,-2.091575091575092,0.0,-3.748473748473749,-0.59375,0.0,0.0,-2.231990231990232,-0.5372405372405372,-3.2515262515262515,-0.875,0.0,0.0,-1.8192918192918195,0.0,-2.4017094017094016,-1.15625,0.0,0.0,-1.5238095238095235,0.0,-1.9523809523809523,-1.4375,0.0,0.625,,,,,,,,,,,,,,,,,,,,,,,,,,,,,,,,,,,,,,,,,,,,,,,,,,,,,,,,,,,,,,,,,,,,,,,,,,,,,,,start
accX,0.7692307692307693,0.5555555555555556,-1.065934065934066,1.5,2.0625,0.0,0.6422466422466423,0.0,-1.5115995115995116,1.40625,2.5625,0.0,0.0,0.0,-1.945054945054945,1.5,3.3125,0.0,0.0,-0.7350427350427351,-2.3907203907203907,1.46875,3.9375,0.53125,0.0,0.0,-2.2014652014652016,1.75,4.71875,0.0,0.8693528693528694,-1.2075702075702075,-2.2185592185592187,1.8125,5.15625,0.0,1.1672771672771671,-1.1135531135531136,-1.843711843711844,1.78125,5.375,0.0,0.6275946275946276,-0.8534798534798534,-2.1709401709401708,1.90625,5.6875,0.0,2.9572649572649574,-1.21978021978022,-0.5335775335775336,2.6875,6.5625,0.0,3.4261294261294264,-1.3150183150183148,0.0,3.1875,6.6875,-0.84375,2.68009768009768,-0.9853479853479854,0.0,3.53125,6.65625,-1.1875,1.194139194139194,0.0,0.0,3.8125,6.71875,-1.3125,1.1684981684981686,0.6178266178266179,0.0,4.15625,7.0,-1.28125,1.7362637362637363,0.0,0.0,4.5,6.75,-1.25,0.0,0.0,0.0,4.71875,6.3125,-1.21875,0.0,-1.1868131868131868,-0.934065934065934,5.0,6.40625,-1.0625,1.531135531135531,-2.533577533577533,-1.1025641025641026,5.03125,6.3125,-0.8125,3.945054945054945,-3.8583638583638575,-1.290598290598291,4.8125,5.28125,-0.8125,4.667887667887668,-4.978021978021979,-2.0903540903540905,4.15625,3.3125,-1.03125,2.8351648351648358,-4.763125763125763,-2.94993894993895,2.9375,0.0,-1.5625,0.0,-3.3675213675213675,-3.371184371184371,2.5,0.0,-1.84375,-3.0146520146520146,-2.9987789987789983,-3.1746031746031744,2.40625,0.0,-1.84375,-3.1514041514041518,-2.768009768009768,-2.9853479853479854,2.59375,0.9375,-1.5,-0.9975579975579976,-2.41025641025641,-2.8986568986568986,2.625,0.96875,-1.1875,0.0,-2.495726495726496,-3.5225885225885225,2.53125,0.0,-1.15625,-1.4822954822954824,-3.0170940170940175,-4.681318681318682,2.1875,0.0,-1.21875,-2.7448107448107453,-2.3089133089133087,-5.184371184371185,1.71875,0.0,-1.25,-2.9255189255189253,-1.3137973137973138,-5.157509157509158,1.4375,-0.65625,-1.03125,-3.6361416361416365,-0.9474969474969476,-5.446886446886448,1.25,-0.71875,-0.71875,-4.231990231990232,-0.8827838827838828,-5.781440781440781,1.03125,0.0,0.0,-3.772893772893773,-1.1452991452991452,-5.744810744810745,0.71875,0.0,0.0,-3.1660561660561664,-1.094017094017094,-5.096459096459097,0.0,0.0,0.0,-2.7228327228327234,-0.8107448107448108,-4.677655677655678,0.0,0.0,0.0,-2.335775335775336,-0.6678876678876678,-4.443223443223443,0.0,0.0,0.0,-2.5409035409035408,-0.8717948717948718,-4.1550671550671545,-0.625,0.0,0.0,-2.855921855921856,-0.5909645909645911,-3.3162393162393164,-0.84375,0.0,0.0,-2.0366300366300365,0.0,-2.5506715506715505,-0.9375,0.53125,0.53125,-1.0573870573870574,0.0,-2.1184371184371185,-1.03125,0.53125,0.59375,-0.9035409035409036,0.0,-2.023199023199023,-1.1875,0.0,0.59375,-0.9963369963369964,-0.5494505494505495,-2.034188034188034,-1.28125,0.0,0.625,-1.2832722832722834,-0.5115995115995116,-2.0207570207570207,-1.4375,0.0,0.71875,-1.1868131868131868,-0.63003663003663,-1.9768009768009769,-1.59375,0.0,0.84375,,,,,,,,,,,,,,,,,,,,,,,,,,,,,,,,,,,,,,,,,,,,,,,,,,,,,,,start
accX,1.6398046398046398,-0.557997557997558,-2.3907203907203907,1.5625,3.625,1.125,1.8693528693528692,-0.9658119658119658,-2.04029304029304,1.53125,4.09375,0.96875,1.6288156288156288,-1.0476190476190477,-2.1562881562881557,1.625,4.71875,0.75,1.7472527472527473,-1.434676434676435,-2.4822954822954824,1.84375,5.5625,0.59375,2.4310134310134313,-1.7118437118437118,-2.1709401709401708,2.0,6.1875,0.0,2.627594627594628,-1.336996336996337,-1.57997557997558,2.1875,6.625,0.0,3.2442002442002438,-1.0097680097680095,-0.9450549450549449,2.59375,6.8125,-0.625,3.147741147741148,-1.0268620268620268,-1.0683760683760684,3.125,6.9375,-1.03125,3.1074481074481075,-1.4371184371184371,-1.264957264957265,3.375,6.625,-1.40625,2.7130647130647128,-1.1746031746031746,-1.2832722832722834,3.3125,6.4375,-1.53125,2.4652014652014653,0.0,-1.1587301587301588,3.375,6.125,-1.59375,1.7704517704517704,0.0,-0.9572649572649572,3.75,5.84375,-1.71875,0.0,0.7960927960927959,-0.9133089133089132,4.40625,6.0625,-1.625,0.0,0.0,-1.2515262515262515,4.84375,6.3125,-1.3125,1.0879120879120878,-2.175824175824176,-1.68986568986569,4.78125,5.90625,-1.0,1.5006105006105006,-3.0024420024420024,-2.017094017094017,4.5,5.0,-0.875,0.9645909645909646,-3.4285714285714284,-2.5042735042735043,4.28125,4.15625,-0.78125,0.5384615384615384,-3.5103785103785103,-2.4432234432234434,4.1875,3.59375,-0.71875,1.647130647130647,-4.271062271062272,-2.4884004884004884,3.875,2.78125,-0.9375,1.84004884004884,-4.8046398046398044,-2.95970695970696,3.25,1.71875,-1.3125,-1.1367521367521367,-3.231990231990232,-2.515262515262515,2.4375,0.78125,-1.34375,-1.6947496947496947,-2.887667887667888,-2.073260073260073,2.34375,0.625,-1.25,-0.8669108669108669,-2.192918192918193,-2.0976800976800978,2.40625,0.5625,-1.125,-0.6288156288156288,-2.6605616605616604,-2.8046398046398044,2.34375,0.0,-1.09375,-1.4554334554334554,-2.214896214896215,-3.4993894993894994,2.125,0.0,-1.125,-2.294261294261294,-1.3162393162393162,-4.2283272283272275,1.9375,-0.6875,-1.0,-2.555555555555556,-1.2356532356532357,-5.295482295482295,1.875,-0.75,-0.78125,-3.0329670329670333,-0.8791208791208791,-6.047619047619048,1.59375,-0.71875,-0.65625,-2.9865689865689866,-0.8107448107448108,-6.493284493284492,1.28125,-0.59375,0.0,-2.78998778998779,-0.9157509157509156,-6.716727716727718,0.90625,-0.53125,0.0,-3.216117216117216,0.0,-6.3418803418803416,0.0,0.0,0.0,-2.7826617826617825,-0.5274725274725275,-5.724053724053724,0.0,0.0,0.0,-2.2014652014652016,-0.9010989010989012,-5.045177045177045,0.0,0.0,0.0,-1.7252747252747254,-0.7423687423687424,-4.391941391941391,0.0,0.0,0.0,-1.7106227106227103,-0.7228327228327228,-4.006105006105006,-0.625,0.0,0.0,-1.271062271062271,-0.5946275946275946,-3.5396825396825395,-0.8125,0.0,0.0,-1.4407814407814408,-0.8998778998778999,-3.0122100122100113,-1.03125,0.0,0.0,-0.9743589743589745,-0.9853479853479854,-2.417582417582417,-1.3125,0.0,0.53125,,,,,,,,,,,,,,,,,,,,,,,,,,,,,,,,,,,,,,,,,,,,,,,,,,,,,,,,,,,,,,,,,,,,,,,,,,,,,,,start
accX,0.0,0.5543345543345544,-1.8644688644688645,0.6875,1.15625,0.0,0.0,0.0,-2.173382173382173,0.875,2.09375,0.0,0.0,0.0,-2.5579975579975582,0.90625,2.78125,0.0,0.0,0.0,-2.8656898656898657,1.0,3.59375,0.53125,-0.7203907203907204,-1.1123321123321124,-3.1282051282051277,1.1875,4.875,0.59375,1.4004884004884004,-1.881562881562881,-2.3846153846153846,1.03125,5.34375,0.0,1.5115995115995116,-1.290598290598291,-2.0146520146520146,1.0,5.375,0.0,0.0,0.0,-2.0085470085470085,1.875,6.90625,0.0,1.8021978021978025,-0.7851037851037851,0.0,2.65625,8.03125,0.0,2.8339438339438336,0.0,0.9169719169719168,3.28125,8.40625,0.0,3.1074481074481075,0.0,0.8986568986568987,3.625,8.15625,-0.8125,2.457875457875458,0.0,0.9487179487179488,3.9375,7.8125,-1.0625,1.5995115995115996,0.8021978021978022,0.5946275946275946,4.125,7.5625,-1.03125,1.3223443223443223,0.7960927960927959,0.6349206349206349,4.34375,7.34375,-0.96875,0.8742368742368742,0.0,0.0,4.84375,7.15625,-0.9375,2.1001221001221,-1.5225885225885225,0.0,5.0625,6.4375,-0.84375,2.4713064713064714,-3.3748473748473753,-1.352869352869353,4.71875,5.3125,-0.75,2.6959706959706957,-2.881562881562881,-1.7142857142857142,4.0,3.90625,-0.6875,2.33943833943834,-2.6715506715506714,-2.1697191697191696,3.59375,2.53125,-0.78125,1.4505494505494505,-2.9963369963369964,-2.5494505494505493,3.1875,1.09375,-1.0,0.0,-3.5457875457875456,-2.84004884004884,2.8125,0.875,-1.09375,0.0,-3.3150183150183152,-2.6996336996337003,2.5,0.75,-1.15625,-0.6849816849816851,-3.5189255189255184,-2.291819291819292,2.28125,0.71875,-1.21875,-0.6739926739926739,-2.975579975579976,-1.9853479853479852,2.3125,0.5625,-1.25,-0.7167277167277167,-2.8656898656898657,-2.3504273504273505,2.28125,0.0,-1.21875,-1.7863247863247864,-3.4371184371184373,-2.705738705738706,2.0625,0.0,-1.15625,-2.404151404151404,-3.175824175824176,-2.655677655677656,1.875,0.0,-1.03125,-2.0854700854700856,-2.253968253968254,-2.7362637362637363,1.875,0.0,-0.875,-2.115995115995116,-1.4273504273504274,-3.062271062271062,1.9375,0.0,-0.75,-2.4713064713064714,-1.8864468864468864,-3.7326007326007327,1.75,-0.59375,-0.625,-2.346764346764347,-1.8376068376068373,-4.3589743589743595,1.3125,-0.75,0.0,-3.028083028083028,-0.5848595848595849,-5.304029304029304,0.84375,-0.625,0.0,-2.7106227106227108,-0.5213675213675214,-5.316239316239317,0.75,0.0,0.0,-2.15018315018315,-0.9584859584859584,-5.440781440781442,0.53125,0.0,0.0,-2.490842490842491,-1.1025641025641026,-5.565323565323565,0.0,0.0,0.0,-2.8827838827838828,-0.9010989010989012,-5.213675213675214,0.0,0.0,0.0,-2.288156288156288,-0.5860805860805861,-4.4371184371184365,0.0,0.0,0.0,-1.4713064713064714,-0.6227106227106227,-3.6141636141636138,-0.5625,0.0,0.0,-0.9975579975579976,-0.9450549450549449,-3.1672771672771667,-0.71875,0.0,0.0,-1.6752136752136753,-1.0964590964590966,-2.8083028083028077,-1.0,0.0,0.0,-1.6593406593406594,-0.8876678876678876,-2.437118437118437,-1.25,0.0,0.0,,,,,,,,,,,,,,,,,,,,,,,,,,,,,,,,,,,,,,,,,,,,,,,,,,,,,,,,,,,,,start
accX,-0.6214896214896215,1.1721611721611722,-0.6642246642246642,1.46875,2.6875,0.84375,0.7753357753357754,0.0,-0.9352869352869352,1.78125,3.8125,1.28125,1.5836385836385836,-0.7264957264957265,-1.3943833943833943,1.875,4.4375,1.375,2.1684981684981683,-0.9316239316239316,-1.380952380952381,1.9375,4.96875,1.1875,2.380952380952381,-1.2185592185592184,-1.0231990231990231,2.21875,5.71875,0.90625,4.328449328449328,-1.3894993894993894,0.0,2.53125,6.21875,0.0,4.4664224664224665,-2.0842490842490844,-0.8302808302808303,2.59375,6.125,0.0,3.0293040293040288,-1.7692307692307692,-1.4102564102564104,2.40625,6.1875,-0.53125,1.9462759462759465,-0.7228327228327228,-0.9658119658119658,2.71875,7.0,-0.625,1.4554334554334554,0.0,0.0,3.34375,7.78125,-0.65625,1.0329670329670328,1.0952380952380951,0.8986568986568987,4.03125,8.4375,-0.65625,2.235653235653236,0.0,0.9926739926739928,4.34375,8.5,0.0,2.8925518925518925,-0.8327228327228328,0.9218559218559218,4.46875,8.125,0.0,4.04029304029304,-1.7594627594627594,0.5067155067155067,4.4375,6.96875,0.0,4.252747252747253,-2.056166056166056,0.0,4.46875,5.40625,-0.65625,2.6178266178266183,-3.0525030525030523,0.0,4.375,4.1875,-0.75,1.0598290598290598,-3.887667887667888,-1.3333333333333333,4.03125,3.6875,-0.65625,1.1452991452991452,-3.873015873015873,-1.647130647130647,3.6875,3.25,-0.5625,1.956043956043956,-3.781440781440781,-1.2832722832722834,3.1875,2.4375,-0.65625,0.73992673992674,-3.272283272283272,-1.2735042735042734,2.96875,1.03125,-0.90625,0.0,-2.8754578754578755,-1.5164835164835164,2.71875,0.625,-1.09375,-1.586080586080586,-2.78998778998779,-1.3943833943833943,2.625,0.5625,-0.96875,0.0,-2.800976800976801,-1.5238095238095235,2.40625,0.6875,-0.84375,-0.6800976800976801,-2.601953601953602,-1.2857142857142858,2.09375,0.0,-0.90625,-1.0805860805860803,-1.0244200244200243,-1.1245421245421243,2.125,0.0,-0.84375,-0.8388278388278388,-1.5433455433455434,-2.1684981684981683,2.53125,0.0,-0.71875,-0.894993894993895,-2.3418803418803416,-3.6495726495726495,2.5,-0.625,-0.71875,-1.6446886446886446,-2.1575091575091574,-4.825396825396825,2.03125,-0.84375,-0.875,-2.31990231990232,0.0,-4.9023199023199036,1.65625,-0.78125,-0.84375,-2.3382173382173383,0.0,-5.282051282051282,1.6875,-0.6875,-0.53125,-2.358974358974359,-0.873015873015873,-6.141636141636143,1.40625,-0.71875,0.0,-2.8351648351648358,-1.137973137973138,-6.736263736263736,0.84375,-0.6875,0.0,-3.8351648351648353,-0.7582417582417582,-6.387057387057388,0.0,0.0,0.0,-3.15018315018315,0.0,-5.344322344322343,0.0,0.0,0.0,-2.1404151404151404,0.0,-4.494505494505495,0.0,0.0,0.0,-2.268620268620269,0.0,-4.2967032967032965,0.0,0.0,0.0,-2.274725274725274,-0.6288156288156288,-4.4896214896214905,0.0,0.0,0.0,-2.2063492063492065,-0.7423687423687424,-4.716727716727717,-0.59375,0.0,0.0,-2.5164835164835164,-0.6092796092796092,-4.487179487179487,-0.9375,0.0,0.0,-2.115995115995116,-0.6739926739926739,-3.694749694749695,-1.15625,0.0,0.0,-1.0366300366300367,-0.818070818070818,-2.687423687423687,-1.3125,0.0,0.0,,,,,,,,,,,,,,,,,,,,,,,,,,,,,,,,,,,,,,,,,,,,,,,,,,,,,,,,,,,,,start
accX,-0.5152625152625152,2.1514041514041518,-1.1636141636141637,1.3125,2.53125,0.6875,0.0,1.043956043956044,-1.0647130647130647,1.65625,3.28125,1.15625,1.6446886446886446,-0.5763125763125763,-1.4261294261294262,1.4375,3.46875,1.1875,0.9181929181929182,-0.5042735042735043,-1.7680097680097682,1.34375,3.9375,1.21875,0.5763125763125763,0.0,-1.761904761904762,1.75,5.0,1.21875,2.6349206349206344,-1.0293040293040292,-1.4969474969474967,2.03125,5.46875,0.96875,2.1538461538461537,-1.4004884004884004,-1.4065934065934067,2.28125,5.8125,0.625,2.2869352869352872,-1.4969474969474967,-1.4407814407814408,2.6875,6.375,0.0,2.4517704517704515,-1.0561660561660562,0.0,3.15625,6.84375,-0.625,0.8583638583638583,0.0,0.7326007326007326,3.71875,7.34375,-0.8125,1.5531135531135531,0.0,0.8559218559218559,4.21875,7.96875,-0.6875,1.3675213675213675,0.0,0.7057387057387058,4.46875,8.0,-0.625,1.1587301587301588,0.5238095238095238,0.5494505494505495,4.65625,7.9375,-0.5625,1.7008547008547008,0.0,0.5934065934065934,4.78125,7.65625,0.0,2.133089133089133,-1.3785103785103785,0.0,4.84375,7.125,0.0,2.0085470085470085,-2.1416361416361416,0.0,4.78125,6.21875,0.0,2.389499389499389,-2.8534798534798536,0.0,4.625,5.21875,0.0,2.8925518925518925,-3.483516483516484,-0.7521367521367521,4.28125,4.03125,0.0,3.1233211233211238,-4.3296703296703285,-1.2808302808302807,3.75,2.5625,0.0,2.1904761904761907,-4.25030525030525,-2.0012210012210008,2.78125,0.0,-0.71875,0.0,-3.1782661782661785,-2.1526251526251525,2.4375,0.0,-0.875,-1.2295482295482296,-2.340659340659341,-1.8534798534798536,2.4375,0.0,-0.75,0.0,-2.346764346764347,-1.673992673992674,2.5,0.0,-0.6875,0.0,-3.0183150183150182,-1.6886446886446886,2.3125,0.0,-0.84375,0.0,-2.924297924297924,-1.6837606837606838,2.03125,0.0,-0.9375,-1.0329670329670328,-1.7326007326007329,-1.8827838827838828,2.03125,0.0,-0.90625,-1.5518925518925517,-1.3272283272283272,-2.242979242979243,2.1875,0.0,-0.84375,-1.5494505494505495,-1.5286935286935286,-2.84981684981685,2.1875,0.0,-0.71875,-1.3748473748473748,-1.956043956043956,-3.2661782661782666,1.875,-0.5625,-0.65625,-1.0561660561660562,-1.2466422466422469,-3.561660561660561,1.625,-0.90625,-0.75,-2.0183150183150182,-0.5054945054945055,-4.225885225885226,1.59375,-1.0,-0.65625,-2.9694749694749696,0.0,-5.001221001221001,1.46875,-0.53125,0.0,-2.421245421245421,-0.9316239316239316,-4.83028083028083,1.09375,0.0,0.0,-2.305250305250305,-0.5006105006105006,-4.271062271062272,0.6875,0.0,0.0,-2.586080586080586,0.0,-4.185592185592186,0.0,0.0,0.0,-2.5128205128205128,0.0,-4.385836385836386,0.0,0.0,0.0,-2.5995115995116,0.0,-4.735042735042735,0.0,0.0,0.0,-2.2551892551892547,-0.6532356532356532,-4.941391941391942,0.0,0.0,0.0,-2.673992673992674,0.0,-4.733821733821734,0.0,0.0,0.0,-2.6544566544566544,-0.5421245421245421,-3.9743589743589753,-0.71875,0.0,0.0,-1.987789987789988,-0.7557997557997558,-2.7118437118437115,-0.96875,0.0,0.53125,-1.2991452991452992,-0.6605616605616605,-1.9426129426129424,-1.1875,0.0,0.5625,,,,,,,,,,,,,,,,,,,,,,,,,,,,,,,,,,,,,,,,,,,,,,,,,,,,,,,start
accX,0.7045177045177046,0.9511599511599512,-2.1404151404151404,1.40625,2.875,0.96875,2.1367521367521367,0.0,-2.1904761904761907,1.5625,3.34375,1.15625,1.8901098901098898,0.0,-2.1623931623931623,1.78125,3.78125,1.15625,1.7045177045177045,-0.6532356532356532,-2.1868131868131866,1.9375,4.4375,0.96875,2.05982905982906,-0.9609279609279608,-2.0,1.96875,5.15625,0.75,2.1526251526251525,-1.0256410256410255,-1.4529914529914532,2.09375,5.875,0.0,2.073260073260073,-0.934065934065934,-0.7631257631257631,2.46875,6.46875,0.0,2.1904761904761907,-0.9352869352869352,0.0,3.21875,7.25,0.0,2.6984126984126986,-0.6275946275946276,0.5641025641025641,3.75,7.3125,-0.5625,3.2051282051282053,-0.5531135531135531,0.5958485958485958,4.09375,6.875,-0.9375,2.8522588522588523,-0.706959706959707,0.0,4.15625,6.34375,-1.28125,1.028083028083028,0.0,-1.0451770451770452,4.09375,6.46875,-1.5625,0.0,0.6556776556776557,-1.2075702075702075,4.21875,6.78125,-1.625,0.0,0.5763125763125763,-1.2173382173382172,4.4375,6.9375,-1.375,0.5982905982905983,0.0,-1.2405372405372406,4.53125,6.78125,-1.125,1.2844932844932846,-1.3736263736263736,-1.5677655677655675,4.34375,6.21875,-0.9375,1.967032967032967,-1.887667887667888,-1.6459096459096458,4.125,5.21875,-0.90625,2.4322344322344316,-2.7863247863247858,-1.4517704517704515,3.8125,3.9375,-0.90625,1.8803418803418803,-3.073260073260073,-1.3956043956043955,3.375,2.28125,-0.9375,0.0,-2.4065934065934065,-1.4774114774114775,3.0625,1.5,-0.875,0.0,-2.411477411477412,-1.7448107448107448,2.8125,0.96875,-0.875,-0.6507936507936508,-2.3675213675213675,-1.8913308913308915,2.53125,0.6875,-0.84375,-0.7680097680097681,-1.8388278388278387,-1.290598290598291,2.28125,0.75,-0.875,0.0,-1.8498168498168501,-1.0695970695970696,2.25,0.71875,-0.84375,0.0,-1.7667887667887667,-1.2551892551892552,2.21875,0.0,-0.84375,-0.7448107448107448,-1.7277167277167278,-1.7496947496947497,2.15625,0.0,-0.875,-1.5995115995115996,-1.5445665445665446,-2.274725274725274,1.96875,-0.5625,-0.8125,-1.9548229548229548,-0.7106227106227107,-2.9218559218559217,1.78125,-0.625,-0.78125,-2.4920634920634916,0.0,-3.258852258852259,1.6875,0.0,-0.71875,-2.2210012210012207,-0.6190476190476191,-3.335775335775337,1.625,0.0,0.0,-1.05006105006105,-0.7765567765567766,-3.6446886446886446,1.46875,0.0,0.0,-1.84004884004884,-0.9462759462759462,-4.1611721611721615,1.15625,-0.59375,0.0,-2.9230769230769234,-0.5115995115995116,-4.678876678876679,0.84375,0.0,0.0,-3.3492063492063493,0.0,-4.716727716727717,0.65625,0.0,0.0,-2.58974358974359,0.0,-4.4664224664224665,0.0,0.0,0.0,-1.575091575091575,0.0,-3.9621489621489614,0.0,0.0,0.0,-1.474969474969475,0.0,-4.137973137973138,0.0,0.0,0.0,-1.5482295482295485,0.0,-4.468864468864469,0.0,0.0,0.0,-1.9926739926739927,0.0,-4.82051282051282,0.0,0.0,0.0,-1.8290598290598292,0.0,-4.7484737484737485,-0.75,0.0,0.0,-1.8742368742368745,0.0,-4.387057387057388,-1.09375,0.0,0.0,-1.205128205128205,0.0,-3.5885225885225887,-1.375,0.0,0.0,,,,,,,,,,,,,,,,,,,,,,,,,,,,,,,,,,,,,,,,,,,,,,,,,,,,,,,start
accX,-1.4932844932844933,1.21978021978022,-2.2564102564102564,2.09375,4.75,1.4375,0.0,0.0,-1.9230769230769231,2.375,6.0,1.5,2.1855921855921854,-1.4615384615384617,-1.7155067155067154,2.15625,6.375,1.375,3.1465201465201464,-1.5189255189255189,-1.1623931623931625,2.03125,6.21875,0.8125,4.241758241758242,-1.2942612942612943,0.0,1.96875,5.6875,0.0,3.877899877899878,-1.1562881562881564,0.0,2.03125,5.3125,-0.75,1.534798534798535,-0.7496947496947497,0.0,2.40625,6.09375,-1.125,2.1147741147741153,-1.2808302808302807,0.5702075702075702,2.71875,7.0,-1.03125,3.043956043956044,-0.5286935286935287,1.0989010989010992,3.0,7.15625,-1.03125,2.8363858363858365,0.0,1.1721611721611722,3.34375,6.71875,-1.21875,1.4603174603174602,0.0,0.7631257631257631,3.6875,6.25,-1.21875,1.1794871794871795,0.0,0.0,3.9375,6.03125,-1.125,1.0695970695970696,0.0,0.0,4.03125,5.625,-1.125,0.0,0.0,-0.9609279609279608,4.0625,5.03125,-1.03125,-0.6544566544566545,-0.8974358974358975,-1.2686202686202686,4.0625,4.59375,-0.8125,-1.9047619047619049,-0.8534798534798534,-1.3308913308913308,4.15625,4.6875,0.0,0.7435897435897436,-2.091575091575092,-1.7411477411477412,4.34375,4.9375,0.0,3.2698412698412698,-3.3992673992673987,-2.131868131868132,4.03125,4.09375,0.0,3.9426129426129437,-4.272283272283272,-1.7387057387057387,2.75,1.34375,0.0,1.5836385836385836,-3.628815628815629,-1.2673992673992671,2.15625,0.0,-0.8125,-0.8815628815628815,-2.2771672771672766,-1.195360195360195,2.15625,0.0,-0.8125,-2.445665445665446,-2.3907203907203907,-1.1416361416361416,2.28125,0.0,-0.65625,-0.757020757020757,-2.8156288156288163,-1.2136752136752136,2.21875,0.53125,-0.65625,0.0,-2.358974358974359,-1.1709401709401708,2.125,0.0,-0.8125,0.0,-1.881562881562881,-1.7106227106227103,2.1875,0.0,-0.75,-1.0708180708180708,-1.2783882783882785,-2.5775335775335777,2.28125,-0.8125,-0.71875,-1.9902319902319905,-1.8656898656898655,-3.938949938949939,2.09375,-0.71875,-0.78125,-1.7606837606837606,-1.5592185592185592,-4.792429792429792,1.71875,-0.59375,-0.75,-2.0244200244200243,-1.0903540903540905,-5.014652014652015,1.4375,0.0,-0.59375,-2.227106227106227,0.0,-4.9865689865689875,1.25,0.0,0.0,-1.7863247863247864,0.0,-5.315018315018316,1.09375,0.0,0.0,-2.4310134310134313,-0.514041514041514,-5.992673992673992,0.75,-0.65625,0.0,-3.4322344322344316,0.0,-6.326007326007326,0.0,-0.59375,0.0,-3.824175824175824,0.0,-6.2002442002442,0.0,0.0,0.0,-2.9035409035409034,0.0,-5.684981684981684,0.0,0.0,0.0,-2.67032967032967,0.0,-5.119658119658119,-0.71875,0.0,0.0,-2.8949938949938954,0.0,-4.527472527472527,-1.0625,0.0,0.0,-2.7887667887667886,0.0,-3.813186813186813,-1.40625,0.0,0.0,-1.6715506715506716,0.0,-3.05982905982906,-1.71875,0.0,0.6875,-1.1562881562881564,0.0,-2.9169719169719173,-1.96875,0.0,0.8125,,,,,,,,,,,,,,,,,,,,,,,,,,,,,,,,,,,,,,,,,,,,,,,,,,,,,,,,,,,,,,,,,,,start
accX,2.039072039072039,0.0,-1.0818070818070815,0.0,0.0,0.0,-1.122100122100122,1.2551892551892552,-1.9072039072039075,0.65625,1.1875,0.0,-1.984126984126984,1.1147741147741148,-2.578754578754579,1.3125,3.0625,0.0,0.0,-0.9816849816849816,-2.687423687423687,1.71875,4.75,1.03125,1.7081807081807079,-1.5445665445665446,-2.0024420024420024,1.5625,5.5,1.125,1.9169719169719168,-1.2002442002442002,-1.2234432234432235,1.625,5.78125,0.875,1.5006105006105006,-1.2942612942612943,-0.5262515262515263,2.0625,6.28125,0.59375,2.122100122100122,-1.3492063492063493,0.0,2.59375,6.875,0.0,2.0695970695970702,-0.8473748473748474,0.0,3.0,7.25,-0.625,1.8620268620268619,-1.115995115995116,0.0,3.4375,7.5625,-1.09375,2.115995115995116,-0.8742368742368742,0.0,3.625,7.75,-1.28125,1.5335775335775337,0.0,0.0,3.71875,7.375,-1.34375,1.3028083028083028,0.9902319902319904,0.0,3.96875,7.03125,-1.28125,0.7826617826617827,0.0,0.0,4.125,6.71875,-1.125,1.0463980463980465,0.0,-0.5738705738705738,4.0625,6.3125,-0.96875,1.4041514041514038,-0.9157509157509156,-0.9035409035409036,4.0,5.71875,-0.875,1.3089133089133091,-1.3113553113553114,-1.474969474969475,3.9375,4.90625,-0.8125,1.5323565323565325,-2.411477411477412,-1.7155067155067154,3.78125,4.15625,-0.8125,0.6495726495726496,-2.976800976800977,-1.7118437118437118,3.5625,3.78125,-0.6875,1.9584859584859584,-3.1648351648351647,-1.5286935286935286,3.25,3.09375,-0.65625,2.973137973137973,-3.0549450549450547,-1.5909645909645909,2.9375,1.875,-0.90625,1.7057387057387057,-3.681318681318681,-1.8363858363858363,2.5,0.78125,-1.125,-0.9706959706959708,-2.9316239316239314,-1.7704517704517704,2.21875,0.0,-1.125,-0.5738705738705738,-2.0146520146520146,-1.876678876678877,2.125,0.53125,-1.1875,-0.9255189255189256,-2.7142857142857144,-1.7606837606837606,2.0625,0.0,-1.28125,-0.7716727716727717,-2.1086691086691087,-1.7973137973137974,1.90625,0.0,-1.21875,-0.7509157509157509,-1.1074481074481075,-2.3699633699633704,1.90625,0.0,-1.09375,-1.4603174603174602,-0.9755799755799756,-3.5543345543345537,2.0625,0.0,-1.03125,-1.9365079365079363,-0.8388278388278388,-4.935286935286936,2.03125,0.0,-0.875,-2.2722832722832718,-1.0415140415140416,-6.020757020757022,1.6875,0.0,-0.75,-2.227106227106227,0.0,-6.295482295482294,1.25,0.0,-0.65625,-2.6446886446886446,0.0,-6.311355311355312,0.9375,0.0,0.0,-2.9059829059829063,0.0,-6.586080586080586,0.6875,0.0,0.0,-2.8424908424908426,0.0,-6.2735042735042725,0.0,0.0,0.0,-2.7484737484737485,0.0,-5.755799755799756,0.0,0.0,0.0,-2.7228327228327234,0.0,-5.21001221001221,-0.53125,0.0,0.0,-2.498168498168498,0.0,-4.540903540903541,-0.6875,0.0,0.0,-2.207570207570208,-0.5006105006105006,-4.185592185592186,-0.9375,0.0,0.0,-2.227106227106227,0.0,-3.561660561660561,-1.28125,0.0,0.0,-1.6593406593406594,0.0,-2.8998778998779,-1.53125,0.0,0.0,-1.7582417582417582,0.0,-3.0354090354090357,-1.8125,0.0,0.53125,,,,,,,,,,,,,,,,,,,,,,,,,,,,,,,,,,,,,,,,,,,,,,,,,,,,,,,,,,,,,start
accX,0.0,0.6361416361416361,-1.7411477411477412,0.0,1.125,0.0,-1.1294261294261294,0.8669108669108669,-1.8864468864468864,0.8125,2.46875,0.0,-1.7496947496947497,0.5494505494505495,-2.062271062271062,1.375,4.28125,0.84375,0.0,-0.6813186813186813,-2.166056166056166,1.71875,5.5,1.0625,1.4273504273504274,-2.025641025641025,-2.2698412698412698,1.5625,5.75,0.96875,1.3968253968253967,-1.7326007326007329,-1.9572649572649568,1.53125,5.90625,0.6875,0.5262515262515263,-0.9145299145299144,-1.2698412698412698,2.0625,6.59375,0.0,0.0,0.0,-0.536019536019536,2.9375,7.53125,0.0,0.0,0.0,0.0,3.8125,8.53125,0.0,1.525030525030525,-0.6776556776556777,0.0,4.3125,8.96875,0.0,2.947496947496948,-0.8315018315018315,0.0,4.46875,8.625,-0.96875,2.686202686202686,0.0,1.0683760683760684,4.53125,7.1875,-1.59375,1.2332112332112333,0.0,0.0,4.65625,6.6875,-1.59375,1.1428571428571428,0.0,0.0,4.71875,6.375,-1.25,2.1880341880341883,-1.2368742368742371,-1.021978021978022,4.5625,5.59375,-1.0625,1.9010989010989008,-1.7387057387057387,-1.6007326007326008,4.25,4.375,-1.09375,0.9865689865689866,-1.702075702075702,-1.7533577533577531,3.9375,3.4375,-1.09375,0.5958485958485958,-2.354090354090354,-2.0989010989010994,3.8125,2.84375,-1.03125,0.6800976800976801,-2.440781440781441,-2.6263736263736264,3.59375,2.4375,-0.96875,0.8693528693528694,-2.8327228327228333,-2.8034188034188032,3.21875,1.8125,-1.03125,0.0,-2.9365079365079363,-2.5006105006105006,2.8125,1.0625,-1.15625,-1.083028083028083,-1.5506715506715507,-1.975579975579976,2.625,0.6875,-1.15625,-1.5543345543345544,-2.102564102564102,-2.1294261294261294,2.75,0.71875,-0.96875,-0.6275946275946276,-1.7753357753357752,-2.503052503052503,2.5625,0.65625,-1.0,-1.0329670329670328,-2.1514041514041518,-2.8717948717948723,2.21875,0.0,-0.96875,-1.7191697191697193,-1.2783882783882785,-3.131868131868132,1.9375,0.0,-0.84375,-1.2564102564102564,-0.6788766788766789,-3.3272283272283274,1.9375,0.0,-0.71875,-2.015873015873016,-0.6886446886446886,-3.641025641025641,1.90625,0.0,-0.65625,-1.9267399267399268,-0.993894993894994,-4.4603174603174605,1.625,0.0,-0.5625,-2.0573870573870567,-1.0732600732600732,-4.973137973137973,1.125,0.0,-0.625,-2.6923076923076925,-0.7411477411477412,-5.365079365079366,0.59375,-0.5625,-0.53125,-3.5164835164835164,0.0,-5.2344322344322345,0.0,0.0,0.0,-3.5042735042735043,0.0,-5.1001221001221,0.0,0.0,0.0,-3.514041514041514,0.0,-4.967032967032966,0.0,0.0,0.0,-2.231990231990232,-0.5567765567765568,-4.468864468864469,0.0,0.0,0.0,-2.1819291819291817,0.0,-4.156288156288157,-0.71875,0.0,0.0,-3.0085470085470085,0.0,-3.9010989010989015,-1.0,0.0,0.0,-2.645909645909646,0.0,-3.7985347985347984,-1.15625,0.0,0.59375,-1.8461538461538465,0.0,-3.8107448107448105,-1.34375,0.0,0.75,-1.010989010989011,0.0,-3.683760683760684,-1.625,0.0,0.8125,-0.9816849816849816,-0.8278388278388278,-3.467643467643468,-1.9375,-0.84375,0.84375,-3.247863247863248,-0.6520146520146519,-2.831501831501832,-2.28125,-1.25,1.03125,,,,,,,,,,,,,,,,,,,,,,,,,,,,,,,,,,,,,,,,,,,,,,,,,,,,,,,start
accX,1.6105006105006106,-1.4456654456654456,-1.691086691086691,1.5625,4.09375,1.0,1.6227106227106227,-0.9877899877899878,-1.3492063492063493,1.53125,4.78125,0.96875,1.7252747252747254,-1.0903540903540905,-0.9829059829059827,1.65625,5.3125,0.9375,2.5946275946275947,-1.8827838827838828,-0.9816849816849816,2.0,5.6875,0.8125,4.105006105006105,-2.6996336996337003,-0.9133089133089132,2.21875,5.75,0.0,3.3724053724053724,-2.642246642246642,-0.6263736263736264,2.15625,5.5625,0.0,1.4090354090354091,-1.4358974358974361,0.0,2.40625,5.90625,0.0,1.6288156288156288,-0.8876678876678876,0.5299145299145299,3.0625,6.78125,0.0,2.827838827838828,0.0,1.0647130647130647,3.75,7.1875,-0.5625,2.4932844932844933,0.0,1.1416361416361416,4.40625,6.875,-1.03125,1.3833943833943834,-0.5604395604395604,0.0,4.8125,6.59375,-1.25,0.5567765567765568,-0.6593406593406593,0.0,5.09375,6.78125,-1.0,2.1807081807081805,-1.537240537240537,-0.9865689865689866,4.875,6.125,-0.78125,1.948717948717949,-1.5592185592185592,-1.4322344322344325,4.875,5.1875,-0.75,2.0842490842490844,-2.737484737484737,-1.6971916971916972,4.59375,4.09375,-0.6875,1.4444444444444444,-3.525030525030525,-1.987789987789988,4.25,3.15625,-0.6875,1.3992673992673992,-3.2466422466422467,-1.984126984126984,3.90625,2.1875,-0.8125,1.1318681318681318,-3.4725274725274726,-2.3443223443223444,3.46875,1.15625,-0.875,0.0,-4.0366300366300365,-2.5213675213675213,2.96875,0.0,-0.90625,-0.6275946275946276,-3.388278388278388,-2.4310134310134313,2.6875,0.0,-0.96875,-0.9829059829059827,-2.8376068376068377,-2.498168498168498,2.59375,0.0,-1.09375,-1.1123321123321124,-2.095238095238096,-2.6935286935286937,2.625,0.0,-1.125,-1.637362637362637,-2.42002442002442,-3.1978021978021984,2.53125,0.0,-1.0625,-2.383394383394384,-1.3992673992673992,-4.2686202686202686,2.21875,0.0,-1.0625,-2.641025641025641,-0.6581196581196581,-4.568986568986569,2.03125,0.0,-0.9375,-2.971916971916972,-1.0793650793650793,-4.763125763125763,1.90625,0.0,-0.78125,-2.793650793650793,-1.0683760683760684,-4.94017094017094,1.5625,0.0,-0.625,-2.688644688644689,0.0,-5.032967032967034,1.09375,0.0,-0.53125,-3.053724053724053,0.0,-5.09035409035409,0.78125,0.0,0.0,-3.3162393162393164,0.0,-5.0927960927960925,0.59375,0.0,0.0,-2.9816849816849818,0.0,-5.175824175824176,0.0,0.0,0.0,-3.1391941391941387,-0.6581196581196581,-5.318681318681318,0.0,0.0,0.0,-3.2905982905982905,-0.5042735042735043,-5.085470085470085,0.0,0.0,0.0,-3.1233211233211238,-0.5091575091575091,-4.509157509157508,-0.78125,0.0,0.0,-3.1001221001221,-0.5555555555555556,-3.6446886446886446,-1.21875,0.0,0.0,-2.688644688644689,-0.5396825396825397,-2.768009768009768,-1.4375,0.0,0.5625,-1.884004884004884,-0.5958485958485958,-2.244200244200244,-1.71875,0.0,0.65625,0.0,-0.5543345543345544,-1.931623931623932,-2.15625,-0.78125,0.625,,,,,,,,,,,,,,,,,,,,,,,,,,,,,,,,,,,,,,,,,,,,,,,,,,,,,,,,,,,,,,,,,,,,,,,,,,,,,,,start
accX,0.0,0.8913308913308914,-2.0476190476190474,0.0,0.78125,0.0,-1.6727716727716728,1.3272283272283272,-2.4920634920634916,1.03125,2.25,0.0,-0.6385836385836385,0.0,-2.4652014652014653,1.71875,4.21875,0.65625,2.333333333333333,-2.4065934065934065,-2.5531135531135534,1.84375,5.40625,0.75,2.8583638583638584,-2.7387057387057387,-2.4468864468864466,1.46875,5.53125,0.0,0.8278388278388278,-1.565323565323565,-1.9035409035409037,1.5,6.21875,0.0,0.5934065934065934,-1.1025641025641026,-1.380952380952381,1.875,6.96875,0.0,1.4358974358974361,-0.8058608058608059,-0.7753357753357754,2.375,7.25,0.0,1.0915750915750917,-0.6520146520146519,0.0,2.90625,7.53125,-0.875,1.4261294261294262,-0.6703296703296703,0.0,3.25,7.65625,-1.03125,2.192918192918193,-0.7606837606837606,-0.7106227106227107,3.34375,7.3125,-1.125,2.4822954822954824,0.0,-0.6446886446886447,3.5,6.65625,-1.28125,2.0061050061050056,0.0,-0.818070818070818,3.6875,6.0,-1.34375,0.0,0.7094017094017094,-1.0622710622710625,3.96875,5.71875,-1.25,0.0,0.0,-1.2673992673992671,4.28125,5.625,-1.125,0.0,-0.9682539682539684,-0.9267399267399268,4.46875,5.25,-0.875,1.275946275946276,-2.2295482295482296,-0.9731379731379732,4.375,4.8125,-0.75,1.984126984126984,-1.8669108669108667,-0.9584859584859584,4.1875,3.96875,-0.71875,1.7557997557997558,-2.9682539682539684,-1.663003663003663,4.0625,2.875,-0.84375,0.8046398046398047,-3.175824175824176,-2.2612942612942613,3.71875,2.0,-1.03125,0.0,-2.7496947496947497,-2.6300366300366296,3.3125,1.375,-1.15625,0.0,-2.398046398046398,-3.2002442002442004,3.03125,1.0,-1.15625,-0.7826617826617827,-2.571428571428572,-3.47985347985348,2.6875,0.6875,-1.25,-1.5189255189255189,-2.2979242979242978,-3.2625152625152625,2.40625,0.0,-1.34375,-2.268620268620269,-1.750915750915751,-3.1001221001221,2.1875,0.0,-1.21875,-2.884004884004884,-1.3418803418803418,-3.5457875457875456,2.09375,0.0,-1.03125,-2.8058608058608057,-0.9377289377289376,-4.158730158730159,2.0,0.0,-0.78125,-2.975579975579976,-0.9169719169719168,-5.123321123321123,1.6875,0.0,-0.6875,-2.9841269841269837,-0.6971916971916972,-5.637362637362638,1.21875,-0.65625,0.0,-3.326007326007326,-0.5115995115995116,-5.6642246642246645,0.78125,-0.625,0.0,-3.0024420024420024,0.0,-5.238095238095238,0.0,0.0,0.0,-2.9450549450549453,0.0,-4.838827838827839,0.0,0.0,0.0,-2.2698412698412698,0.0,-4.2344322344322345,0.0,0.0,0.0,-2.208791208791209,0.0,-4.307692307692308,0.0,0.0,0.0,-2.3223443223443225,0.0,-4.547008547008547,0.0,0.0,0.0,-2.8021978021978016,0.0,-4.6984126984126995,-0.75,0.0,0.0,-3.2649572649572653,0.0,-4.272283272283272,-1.0625,0.0,0.0,-2.686202686202686,0.0,-3.7130647130647128,-1.28125,0.0,0.0,-1.2087912087912087,-0.7008547008547008,-2.844932844932845,-1.6875,0.0,0.0,-1.4774114774114775,-0.5616605616605617,-2.4639804639804637,-2.09375,-0.875,0.0,-2.8766788766788767,0.0,-2.36019536019536,-2.625,-1.75,0.5625,,,,,,,,,,,,,,,,,,,,,,,,,,,,,,,,,,,,,,,,,,,,,,,,,,,,,,,,,,,,,start
accX,1.31013431013431,0.0,-0.9255189255189256,1.125,2.28125,0.0,0.6654456654456654,0.0,-1.1489621489621489,1.34375,2.90625,0.0,0.0,0.0,-1.3882783882783882,1.8125,4.15625,0.53125,0.6251526251526252,0.0,-1.2820512820512822,2.15625,5.0,0.53125,2.087912087912088,-1.3394383394383391,-1.177045177045177,2.1875,5.25,0.0,2.5213675213675213,-1.5787545787545787,-1.2014652014652014,2.15625,5.25,0.0,1.6349206349206349,-1.006105006105006,-1.2283272283272284,2.59375,5.6875,-0.625,2.1904761904761907,-1.534798534798535,0.0,3.0,6.875,-0.6875,2.93040293040293,-1.155067155067155,0.0,3.21875,6.96875,-0.875,2.249084249084249,-0.568986568986569,0.5775335775335775,3.53125,6.78125,-1.09375,1.5628815628815629,0.0,0.6019536019536019,3.90625,6.8125,-1.1875,1.6117216117216118,0.0,0.6324786324786325,4.21875,6.90625,-1.1875,2.142857142857143,-1.3443223443223444,0.0,4.34375,6.78125,-1.125,1.9914529914529917,-1.6886446886446886,0.0,4.28125,6.28125,-1.03125,2.8083028083028077,-2.3956043956043955,0.0,4.21875,5.4375,-0.96875,2.752136752136752,-2.9413919413919416,0.0,4.0625,4.21875,-1.03125,1.4835164835164836,-3.446886446886447,-1.028083028083028,3.78125,3.1875,-1.125,0.0,-3.3015873015873014,-1.2796092796092795,3.53125,2.90625,-1.09375,0.8241758241758241,-2.8437118437118434,-0.9755799755799756,3.71875,2.8125,-1.03125,1.7643467643467643,-3.8180708180708174,-1.1257631257631258,3.5625,1.875,-1.03125,1.7045177045177045,-3.532356532356532,-1.238095238095238,3.3125,0.75,-1.125,0.0,-4.031746031746032,-1.6886446886446886,3.0,0.0,-1.21875,-0.5396825396825397,-2.656898656898657,-2.426129426129426,2.90625,0.0,-1.28125,-1.5567765567765568,-2.274725274725274,-2.9365079365079363,2.90625,0.0,-1.21875,-1.7545787545787546,-1.8547008547008548,-3.683760683760684,2.96875,0.0,-1.03125,-2.3321123321123323,-2.137973137973138,-5.155067155067155,2.6875,-0.5625,-0.9375,-2.8302808302808304,-1.9926739926739927,-5.847374847374848,2.125,0.0,-0.84375,-4.3528693528693525,-2.1746031746031744,-5.531135531135532,1.40625,0.0,-0.5625,-2.4310134310134313,0.0,-4.170940170940171,1.40625,0.0,0.0,-1.1819291819291822,0.0,-4.308913308913309,1.5,0.0,0.0,-3.2295482295482296,-0.7631257631257631,-6.584859584859585,1.0,-1.03125,0.0,-4.274725274725275,0.0,-6.567765567765568,0.0,-0.59375,0.0,-3.556776556776557,0.0,-5.641025641025642,0.0,0.0,0.0,-1.5970695970695972,0.0,-4.829059829059829,0.0,0.0,0.0,-1.15995115995116,0.0,-4.912087912087912,0.0,0.0,0.0,-2.012210012210012,-0.5775335775335775,-5.344322344322343,0.0,0.0,0.0,-3.3846153846153846,-0.6910866910866911,-5.242979242979243,-0.90625,0.0,0.0,-2.761904761904762,0.0,-4.398046398046398,-1.1875,0.0,0.5625,-1.1306471306471306,-0.6153846153846154,-3.7802197802197797,-1.40625,0.65625,0.625,0.0,-0.7350427350427351,-3.449328449328449,-1.6875,0.0,0.0,-1.2332112332112333,-0.7118437118437119,-3.4420024420024418,-2.03125,-1.25,0.0,,,,,,,,,,,,,,,,,,,,,,,,,,,,,,,,,,,,,,,,,,,,,,,,,,,,,,,,,,,,,start
accX,1.2063492063492065,0.8998778998778999,-0.8266178266178266,0.875,0.96875,0.59375,0.5103785103785103,0.5286935286935287,-0.7326007326007326,1.1875,1.75,0.71875,0.0,0.0,0.0,1.34375,2.46875,0.875,0.984126984126984,0.0,0.0,1.25,2.625,1.125,2.333333333333333,-0.7167277167277167,0.0,1.1875,2.65625,0.9375,1.3565323565323566,0.0,0.0,1.09375,2.53125,0.59375,0.0,0.0,-0.7851037851037851,1.25,3.0625,0.53125,0.0,0.0,-1.3699633699633702,1.65625,4.0625,0.78125,1.8974358974358971,-0.9133089133089132,-1.0561660561660562,1.96875,4.8125,0.65625,1.9413919413919412,-1.0305250305250304,-0.7912087912087912,2.1875,5.28125,0.0,3.5128205128205128,-2.3223443223443225,-1.0390720390720392,2.34375,5.625,0.0,3.5372405372405376,-1.9658119658119655,-0.984126984126984,2.15625,5.46875,-0.53125,2.0525030525030523,-0.8595848595848596,0.0,2.1875,5.3125,-0.8125,1.4236874236874235,0.0,0.0,2.53125,5.5625,-0.78125,1.4847374847374848,0.0,0.7423687423687424,3.03125,6.03125,-0.71875,2.7765567765567765,0.0,0.9829059829059827,3.71875,5.875,-0.9375,2.8864468864468864,0.0,0.5653235653235653,3.84375,5.125,-1.09375,1.1709401709401708,0.0,0.0,4.03125,4.9375,-1.125,-0.5396825396825397,0.0,-0.503052503052503,4.21875,5.34375,-0.875,0.9645909645909646,-1.2185592185592184,-0.5628815628815629,4.25,5.28125,-0.71875,2.266178266178266,-1.6446886446886446,0.0,4.21875,4.53125,-0.78125,2.0146520146520146,-2.4420024420024418,-0.5164835164835165,4.15625,3.65625,-0.84375,1.362637362637363,-2.884004884004884,-0.8669108669108669,4.03125,3.09375,-0.78125,1.133089133089133,-3.627594627594628,-0.8583638583638583,3.71875,2.65625,-0.65625,1.5079365079365081,-3.4383394383394386,-0.7057387057387058,3.40625,2.09375,-0.6875,1.3406593406593406,-3.6141636141636138,-0.5873015873015873,3.21875,1.46875,-0.875,0.514041514041514,-3.189255189255189,-0.6385836385836385,3.0625,0.96875,-0.78125,0.0,-2.763125763125763,-1.3882783882783882,2.9375,0.0,-0.71875,0.0,-2.85958485958486,-1.623931623931624,2.6875,0.0,-0.78125,-0.6019536019536019,-2.271062271062271,-1.8205128205128205,2.53125,0.0,-0.84375,-1.2026862026862026,-2.0818070818070815,-1.7777777777777777,2.375,0.0,-0.875,-1.4676434676434675,-1.827838827838828,-2.4053724053724053,2.40625,-0.53125,-0.75,-1.4078144078144081,-1.6019536019536018,-3.3284493284493286,2.1875,-0.5625,-0.75,-1.3772893772893773,-0.6520146520146519,-3.8058608058608057,1.9375,-0.71875,-0.78125,-2.155067155067155,-0.6446886446886447,-4.598290598290598,1.8125,-0.90625,-0.71875,-2.590964590964591,-1.398046398046398,-5.1892551892551895,1.5625,-0.8125,-0.53125,-2.606837606837607,-1.0097680097680095,-4.815628815628815,1.15625,-0.5625,0.0,-2.8803418803418803,-0.7631257631257631,-4.3247863247863245,0.9375,0.0,0.0,-2.4065934065934065,-0.6275946275946276,-4.108669108669108,0.875,0.0,0.0,-2.2588522588522593,-0.7118437118437119,-4.177045177045176,0.8125,-0.53125,0.0,-2.9865689865689866,-1.1355311355311355,-4.934065934065933,0.625,-0.59375,0.0,-3.8339438339438336,-1.728937728937729,-5.875457875457876,0.0,0.0,0.0,-3.4285714285714284,-1.2612942612942613,-5.5335775335775335,0.0,0.0,0.0,-2.5164835164835164,-1.0012210012210012,-5.102564102564102,0.0,0.0,0.0,-2.6056166056166057,-1.2185592185592184,-5.202686202686203,-0.90625,0.0,0.0,-3.189255189255189,-0.9902319902319904,-4.8327228327228315,-1.25,0.0,0.0,-2.7667887667887667,-0.7142857142857143,-4.398046398046398,-1.4375,0.0,0.625,-2.2246642246642248,-0.8547008547008547,-4.029304029304028,-1.75,0.0,0.78125,-1.462759462759463,-1.0085470085470083,-3.4737484737484734,-2.25,0.0,0.90625,,,,,,,,,,,,,start
accX,0.989010989010989,0.0,-1.9267399267399268,1.21875,2.96875,0.0,1.1086691086691087,0.0,-2.21001221001221,1.15625,3.28125,0.0,0.5323565323565324,-0.7826617826617827,-2.214896214896215,1.1875,3.9375,0.0,1.238095238095238,-1.6251526251526252,-2.330891330891331,1.25,4.5625,0.0,1.6141636141636142,-1.978021978021978,-2.2722832722832718,1.3125,4.9375,0.0,1.3015873015873016,-1.3162393162393162,-1.868131868131868,1.59375,5.34375,0.0,0.8608058608058609,-1.1111111111111112,-1.7277167277167278,2.09375,6.0,-0.8125,0.0,0.0,-1.3333333333333333,2.5625,6.71875,-1.21875,0.0,0.0,-1.3516483516483515,3.03125,7.53125,-1.21875,-0.7936507936507936,0.6849816849816851,-1.2234432234432235,3.65625,8.3125,-1.0625,1.413919413919414,1.1978021978021978,0.5897435897435898,3.84375,8.03125,-1.15625,0.0,1.6874236874236874,0.5091575091575091,4.125,7.75,-1.15625,0.514041514041514,0.8669108669108669,0.0,4.34375,7.75,-0.96875,1.7191697191697193,0.0,0.0,4.28125,7.25,-0.875,0.8547008547008547,-1.0122100122100122,-0.9059829059829059,4.25,6.3125,-0.8125,1.7887667887667889,-1.586080586080586,-1.1819291819291822,4.15625,5.59375,-0.71875,3.2649572649572653,-2.518925518925519,-1.3882783882783882,3.90625,4.34375,-0.78125,2.3956043956043955,-3.3663003663003663,-1.8608058608058609,3.53125,2.75,-1.03125,1.0158730158730158,-3.11965811965812,-2.483516483516484,2.96875,1.6875,-1.28125,0.0,-2.216117216117216,-2.4590964590964592,2.53125,1.0,-1.28125,-1.2307692307692308,-1.8205128205128205,-2.2295482295482296,2.375,0.78125,-1.15625,-0.8156288156288156,-1.7960927960927962,-1.9975579975579976,2.34375,0.96875,-1.03125,0.0,-2.411477411477412,-1.6227106227106227,2.03125,0.59375,-1.125,0.0,-1.8376068376068373,-1.3577533577533578,1.875,0.0,-1.21875,-0.8888888888888888,-0.7887667887667887,-1.7228327228327232,1.96875,0.0,-1.125,-2.0793650793650795,-0.9316239316239316,-2.1111111111111107,2.03125,0.0,-0.90625,-2.0085470085470085,-1.2368742368742371,-2.7252747252747254,1.875,0.0,-0.8125,-1.1697191697191698,-0.8534798534798534,-3.358974358974359,1.53125,0.0,-0.90625,-2.275946275946276,-0.6923076923076923,-3.389499389499389,1.1875,0.0,-0.8125,-1.9865689865689864,0.6935286935286935,-3.4224664224664223,1.3125,-0.53125,-0.59375,-2.253968253968254,0.0,-4.146520146520147,1.4375,-0.65625,0.0,-2.935286935286935,0.0,-5.233211233211233,1.21875,-0.65625,0.0,-3.371184371184371,-0.6117216117216118,-6.05982905982906,0.0,0.0,0.0,-2.393162393162393,0.0,-5.4664224664224665,0.0,0.0,0.0,-1.915750915750916,0.0,-5.396825396825397,0.0,0.0,0.0,-2.199023199023199,-0.5372405372405372,-5.455433455433456,0.0,0.0,0.0,-2.5213675213675213,-1.0561660561660562,-5.057387057387056,-0.84375,0.0,0.0,-2.0976800976800978,-0.7704517704517705,-3.642246642246642,-1.28125,0.0,0.5625,-1.4383394383394383,0.0,-2.249084249084249,-1.46875,0.0,0.65625,-0.8669108669108669,0.0,-1.7252747252747254,-1.4375,0.0,0.65625,-0.5372405372405372,0.0,-2.0427350427350426,-1.46875,0.0,0.6875,,,,,,,,,,,,,,,,,,,,,,,,,,,,,,,,,,,,,,,,,,,,,,,,,,,,,,,,,,,,,start
accX,0.0,0.6666666666666666,-1.3443223443223444,1.25,2.8125,0.0,0.0,0.0,-1.575091575091575,1.5625,3.78125,0.90625,1.0549450549450552,-0.9487179487179488,-1.4078144078144081,1.78125,4.6875,1.03125,1.7301587301587302,-1.188034188034188,-0.8827838827838828,2.0,5.53125,0.9375,1.7484737484737485,-1.376068376068376,0.0,2.46875,6.40625,0.71875,3.0,-1.5286935286935286,0.0,2.9375,7.15625,0.0,3.0854700854700856,-1.7863247863247864,0.0,3.1875,7.28125,0.0,2.948717948717949,-1.7655677655677655,0.0,3.21875,7.21875,-0.59375,2.324786324786325,-0.5995115995115995,0.0,3.15625,6.96875,-0.8125,1.7875457875457876,0.0,0.0,3.4375,6.875,-0.84375,1.15995115995116,0.0,0.0,3.96875,7.0625,-0.78125,1.9987789987789988,0.7484737484737485,0.0,4.3125,6.6875,-0.78125,1.5873015873015872,0.0,0.0,4.5,6.28125,-0.78125,0.8791208791208791,0.0,-1.1111111111111112,4.53125,6.09375,-0.59375,1.4505494505494505,-1.4163614163614164,-1.4456654456654456,4.375,5.75,0.0,1.8925518925518925,-1.9010989010989008,-1.641025641025641,4.1875,5.0625,0.0,2.578754578754579,-2.7496947496947497,-1.9963369963369964,3.8125,4.09375,0.0,3.2185592185592187,-3.514041514041514,-1.9719169719169718,3.21875,2.78125,-0.59375,2.330891330891331,-2.855921855921856,-1.9169719169719168,2.78125,1.625,-0.84375,0.8095238095238095,-2.1355311355311355,-1.968253968253968,2.5625,1.21875,-0.90625,0.0,-2.064713064713065,-1.968253968253968,2.4375,1.15625,-1.0,0.5115995115995116,-2.0525030525030523,-2.0476190476190474,2.03125,0.875,-1.0,0.0,-1.4871794871794872,-0.9536019536019535,1.65625,0.6875,-1.0,0.0,-0.971916971916972,0.0,1.71875,0.0,-1.03125,0.0,-1.2722832722832722,-0.8803418803418803,1.96875,0.0,-1.0,-0.9951159951159952,-1.623931623931624,-1.967032967032967,2.09375,0.0,-0.9375,-2.103785103785104,-1.3247863247863247,-2.8376068376068377,1.9375,0.0,-0.90625,-2.05006105006105,-0.7045177045177046,-3.9536019536019538,1.8125,0.0,-0.8125,-2.351648351648352,0.0,-4.809523809523808,1.6875,-0.53125,-0.71875,-2.7765567765567765,0.0,-5.616605616605615,1.53125,-0.65625,-0.53125,-2.763125763125763,0.0,-5.965811965811965,1.3125,-0.65625,0.0,-3.3223443223443225,0.0,-6.1330891330891335,0.9375,-0.71875,0.0,-3.703296703296704,0.0,-5.8840048840048835,0.59375,0.0,0.0,-2.7863247863247858,0.0,-5.2747252747252755,0.0,0.0,0.0,-2.4566544566544573,0.0,-5.006105006105006,0.0,0.0,0.0,-2.244200244200244,0.0,-5.170940170940171,0.0,0.0,0.0,-1.7374847374847375,0.0,-4.951159951159951,-0.78125,0.0,0.0,-1.7448107448107448,0.0,-4.507936507936508,-1.125,0.0,0.0,-2.2222222222222223,0.0,-4.012210012210011,-1.28125,0.0,0.0,-1.7142857142857142,0.0,-3.4163614163614158,-1.4375,0.0,0.0,-1.4871794871794872,0.0,-2.8632478632478637,-1.6875,0.0,0.0,,,,,,,,,,,,,,,,,,,,,,,,,,,,,,,,,,,,,,,,,,,,,,,,,,,,,,,,,,,,,start
accX,-1.656898656898657,1.105006105006105,-1.94993894993895,1.34375,2.6875,0.0,-2.1355311355311355,0.8840048840048841,-2.681318681318681,1.71875,4.5,0.75,-1.043956043956044,0.0,-1.7387057387057387,2.0,5.6875,1.15625,1.3186813186813189,-0.7118437118437119,-1.4700854700854702,2.15625,5.96875,1.15625,2.52014652014652,-1.9902319902319905,-1.7448107448107448,2.125,6.09375,0.6875,2.1746031746031744,-2.23931623931624,-2.075702075702076,2.09375,6.46875,0.0,2.1941391941391943,-1.4505494505494505,-1.3956043956043955,2.3125,6.875,-0.625,1.4529914529914532,-0.8241758241758241,-1.2063492063492065,2.8125,7.3125,-1.09375,2.36019536019536,-1.0732600732600732,0.0,3.125,7.21875,-1.34375,1.8034188034188037,0.0,0.0,3.1875,7.0,-1.375,0.5409035409035409,0.6288156288156288,0.0,3.34375,7.0625,-1.25,1.10989010989011,1.6349206349206349,0.0,3.78125,7.34375,-1.1875,1.0122100122100122,1.6703296703296704,0.0,4.28125,7.1875,-1.1875,1.3418803418803418,0.0,0.0,4.6875,6.96875,-1.125,1.7826617826617828,-1.2222222222222223,-1.1575091575091576,4.625,6.375,-0.90625,2.398046398046398,-2.148962148962149,-1.7789987789987791,4.125,5.53125,-0.8125,2.1880341880341883,-2.3223443223443225,-1.871794871794872,3.6875,4.4375,-1.0,1.2564102564102564,-1.5030525030525033,-1.537240537240537,3.53125,3.5,-1.09375,1.4993894993894994,-2.527472527472528,-2.0268620268620268,3.5625,2.75,-1.03125,0.8083028083028083,-3.2954822954822958,-2.518925518925519,3.25,1.90625,-1.03125,-0.6349206349206349,-2.7020757020757022,-2.7948717948717947,2.53125,1.5,-1.15625,-0.6825396825396826,-1.9792429792429795,-2.3321123321123323,2.375,1.375,-1.03125,-0.6227106227106227,-1.8742368742368745,-1.4481074481074483,2.4375,1.0,-0.9375,0.0,-1.876678876678877,-1.3736263736263736,2.5,0.0,-0.84375,-1.0366300366300367,-2.3785103785103785,-1.94017094017094,2.28125,0.0,-0.8125,-2.505494505494505,-1.514041514041514,-2.586080586080586,2.09375,0.0,-0.71875,-2.7252747252747254,-0.971916971916972,-2.888888888888889,2.09375,0.0,-0.53125,-1.9084249084249083,-0.7728937728937729,-2.9645909645909647,2.0,0.0,0.0,-0.5518925518925519,-0.7411477411477412,-3.211233211233212,1.84375,-0.5625,0.0,-0.984126984126984,-0.7948717948717948,-4.207570207570208,1.5625,-1.15625,0.0,-2.245421245421245,-0.7960927960927959,-5.456654456654457,1.1875,-1.1875,0.0,-3.3345543345543347,0.0,-6.1050061050061055,0.71875,0.0,0.0,-1.3308913308913308,0.0,-5.814407814407813,0.0,0.0,0.0,-1.5995115995115996,0.0,-5.691086691086691,0.0,0.0,0.0,-2.2295482295482296,0.0,-5.68986568986569,0.0,0.0,0.0,-2.2905982905982905,-0.6788766788766789,-5.473748473748474,-0.53125,0.0,0.0,-2.4481074481074483,-1.0463980463980465,-4.741147741147741,-0.9375,0.0,0.0,-2.409035409035409,-0.7460317460317459,-3.5128205128205128,-1.34375,0.0,0.0,-1.242979242979243,0.0,-2.3003663003662997,-1.625,0.0,0.65625,,,,,,,,,,,,,,,,,,,,,,,,,,,,,,,,,,,,,,,,,,,,,,,,,,,,,,,,,,,,,,,,,,,,,,,,,start
accX,-1.3015873015873016,1.037851037851038,-3.1062271062271063,1.1875,1.96875,0.0,-0.9072039072039072,0.0,-2.952380952380953,1.375,3.6875,0.8125,1.896214896214896,-0.7472527472527473,-2.6788766788766787,1.5,4.625,1.09375,3.0927960927960934,-1.6886446886446886,-3.0366300366300365,1.21875,4.4375,0.84375,3.0293040293040288,-1.8229548229548234,-2.7203907203907205,0.875,4.21875,0.0,2.1746031746031744,-1.195360195360195,-2.189255189255189,0.625,4.0625,0.0,0.0,0.0,-2.183150183150183,0.78125,4.59375,0.0,-0.9658119658119658,0.0,-1.5409035409035412,1.4375,6.09375,0.0,1.5995115995115996,-1.3003663003663004,-0.6214896214896215,2.21875,7.46875,0.0,2.8095238095238093,-1.2967032967032968,0.0,2.8125,7.625,-1.21875,2.954822954822955,-1.2612942612942613,0.0,2.9375,7.03125,-1.6875,1.8986568986568984,0.0,-0.7081807081807082,3.09375,6.5,-1.875,0.0,0.7252747252747253,-1.2881562881562882,3.34375,6.78125,-1.8125,0.0,1.1892551892551892,-1.7081807081807079,3.4375,7.09375,-1.71875,0.0,1.73992673992674,-1.678876678876679,3.53125,6.8125,-1.71875,0.0,2.0549450549450547,-1.78021978021978,3.78125,6.4375,-1.59375,-0.7667887667887668,0.9987789987789988,-1.894993894993895,4.15625,6.625,-1.28125,-1.7692307692307692,0.0,-2.2771672771672766,4.375,7.28125,-0.875,1.1318681318681318,-2.340659340659341,-2.346764346764347,4.0,7.15625,-0.59375,4.791208791208791,-3.85958485958486,-1.9963369963369964,3.125,5.34375,-0.78125,4.548229548229548,-3.467643467643468,-1.4481074481074483,2.5,3.28125,-1.25,0.0,-2.9890109890109886,-0.6654456654456654,2.1875,1.53125,-1.5,-0.9462759462759462,-1.815628815628816,-0.8485958485958486,2.375,1.34375,-1.3125,-0.5958485958485958,-3.3760683760683765,-0.8778998778998779,2.40625,1.40625,-1.0625,0.557997557997558,-2.5103785103785103,-0.7582417582417582,2.09375,1.09375,-1.125,0.0,-1.7313797313797314,-0.7582417582417582,2.0625,0.53125,-1.3125,-0.8998778998778999,-1.398046398046398,-1.4468864468864469,2.28125,0.0,-1.21875,-1.2295482295482296,-1.7704517704517704,-2.625152625152625,2.40625,0.0,-1.03125,-1.7643467643467643,-1.6605616605616609,-3.924297924297924,2.21875,0.0,-0.96875,-2.268620268620269,-0.6251526251526252,-4.3992673992674005,1.90625,0.0,-0.875,-1.5995115995115996,0.0,-4.927960927960927,1.90625,0.0,-0.625,-2.0842490842490844,-0.956043956043956,-5.518925518925519,1.8125,0.0,0.0,-2.6129426129426134,-0.9902319902319904,-5.818070818070817,1.5,0.0,0.0,-2.627594627594628,-1.2405372405372406,-5.859584859584858,0.8125,0.0,0.0,-1.7692307692307692,-0.7521367521367521,-5.346764346764347,0.0,0.0,0.0,-1.844932844932845,0.0,-5.206349206349207,0.0,0.0,0.0,-1.6324786324786325,0.0,-5.518925518925519,0.0,0.0,0.0,-1.1746031746031746,-1.205128205128205,-6.085470085470085,0.0,0.0,0.0,-2.0427350427350426,-1.3137973137973138,-6.592185592185593,-0.875,0.0,0.0,-2.8363858363858365,-0.9609279609279608,-6.111111111111112,-1.375,0.0,0.0,-1.8852258852258847,-0.9157509157509156,-4.7484737484737485,-1.625,0.0,0.0,0.0,-1.1111111111111112,-3.3418803418803416,-1.78125,0.0,0.0,0.0,-1.358974358974359,-2.7387057387057387,-1.9375,-1.15625,0.0,-0.8400488400488401,-1.144078144078144,-2.7753357753357752,-2.1875,-1.90625,0.0,,,,,,,,,,,,,,,,,,,,,,,,,,,,,,,,,,,,,,,,,,,start
accX,0.0,0.8485958485958486,-1.6275946275946276,0.96875,1.53125,0.0,-0.6117216117216118,0.6214896214896215,-1.7655677655677655,1.03125,2.3125,0.625,-0.6361416361416361,0.0,-1.7765567765567765,1.21875,3.1875,0.8125,0.5726495726495726,0.0,-2.333333333333333,1.40625,4.03125,0.84375,1.1245421245421243,-1.3785103785103785,-3.075702075702076,1.375,4.75,0.59375,2.015873015873016,-1.8473748473748477,-3.0390720390720385,1.21875,5.125,0.0,2.253968253968254,-1.794871794871795,-2.5103785103785103,1.09375,5.21875,0.0,1.10989010989011,-1.2124542124542124,-2.6483516483516483,1.28125,5.6875,0.0,0.8534798534798534,-1.3174603174603174,-2.418803418803418,1.59375,6.4375,0.0,2.8046398046398044,-1.122100122100122,0.0,2.15625,7.03125,-1.03125,2.010989010989011,-0.5921855921855922,0.0,2.625,7.0625,-1.46875,2.283272283272283,0.0,0.0,2.96875,6.96875,-1.78125,1.5286935286935286,0.7448107448107448,-0.7985347985347986,2.96875,6.4375,-1.90625,1.1196581196581197,1.3028083028083028,-1.0854700854700854,2.96875,5.90625,-1.90625,0.0,2.0195360195360195,-1.3992673992673992,3.03125,5.40625,-1.875,0.0,1.5775335775335777,-1.6056166056166057,3.25,5.125,-1.78125,-1.321123321123321,0.7887667887667887,-2.1074481074481075,3.5,5.125,-1.625,-1.1904761904761905,0.0,-2.653235653235653,3.53125,5.53125,-1.34375,0.0,-0.7728937728937729,-2.6373626373626373,3.3125,5.53125,-1.09375,1.7924297924297925,-1.809523809523809,-2.147741147741148,3.09375,4.71875,-1.0,1.006105006105006,-1.7203907203907205,-2.1245421245421245,2.8125,3.75,-1.03125,0.7045177045177046,-1.6971916971916972,-2.189255189255189,2.90625,3.09375,-1.03125,0.0,-1.9096459096459095,-2.1684981684981683,2.9375,2.9375,-0.9375,1.2454212454212454,-2.5946275946275947,-2.4505494505494507,2.8125,2.40625,-0.96875,0.7680097680097681,-3.211233211233212,-2.8180708180708183,2.34375,1.78125,-1.0625,-0.7142857142857143,-2.5750915750915757,-2.1623931623931623,2.125,1.59375,-1.0,-0.6605616605616605,-1.6605616605616609,-1.5518925518925517,2.34375,1.46875,-0.6875,0.0,-2.1623931623931623,-1.6923076923076923,2.4375,1.125,-0.71875,0.0,-2.5006105006105006,-2.4481074481074483,2.21875,0.53125,-0.84375,-0.9181929181929182,-2.3211233211233213,-3.3284493284493286,1.75,0.0,-0.90625,-1.4175824175824177,-0.9279609279609279,-3.411477411477412,1.6875,0.0,-0.6875,-1.7826617826617828,-0.7374847374847375,-3.8815628815628815,1.75,0.0,0.0,-2.0744810744810747,-1.3186813186813189,-4.925518925518926,1.25,0.0,0.0,-2.483516483516484,-0.8034188034188035,-4.523809523809524,0.59375,0.0,0.0,-2.2576312576312576,0.0,-3.9938949938949935,0.0,0.0,0.0,-1.8180708180708183,0.0,-3.774114774114774,0.0,0.0,0.0,-1.5262515262515262,-1.0390720390720392,-3.9951159951159956,0.0,0.0,0.0,-1.5482295482295485,-1.4725274725274726,-4.4151404151404146,0.0,0.0,0.0,-2.095238095238096,-0.8620268620268621,-4.4371184371184365,0.0,0.0,0.0,-2.0695970695970702,-0.7802197802197802,-4.186813186813187,-0.625,0.0,0.0,-1.6288156288156288,-1.1135531135531136,-3.7191697191697193,-0.8125,0.0,0.0,-1.4957264957264955,-1.2258852258852257,-3.1978021978021984,-1.09375,0.0,0.0,-0.5152625152625152,-1.4542124542124542,-2.4468864468864466,-1.375,-0.8125,0.0,0.0,-1.2442002442002442,-1.5018315018315018,-1.6875,-1.84375,0.0,,,,,,,,,,,,,,,,,,,,,,,,,,,,,,,,,,,,,,,,,,,start
accX,0.0,1.2246642246642248,-1.8424908424908424,0.0,1.3125,0.0,-0.8388278388278388,1.043956043956044,-1.989010989010989,0.78125,2.21875,0.0,0.0,0.706959706959707,-1.9572649572649568,1.03125,3.15625,0.6875,1.0256410256410255,0.0,-2.2954822954822958,1.3125,4.15625,0.9375,3.4371184371184373,-2.0427350427350426,-2.2967032967032965,1.34375,4.4375,0.8125,3.418803418803418,-1.8510378510378511,-2.326007326007326,0.6875,3.9375,0.0,1.5177045177045176,-1.1514041514041513,-2.4249084249084247,0.6875,4.3125,0.0,0.0,0.0,-2.034188034188034,1.28125,5.5,0.0,0.0,0.0,-1.21978021978022,2.0625,6.78125,-0.5625,1.534798534798535,-0.6410256410256411,-1.0366300366300367,2.53125,7.15625,-0.875,2.3162393162393164,-1.1684981684981686,-1.2954822954822955,2.5,6.8125,-1.25,2.199023199023199,-0.6471306471306472,-1.7228327228327232,2.28125,6.28125,-1.59375,0.7179487179487181,1.0073260073260073,-1.6727716727716728,2.3125,6.0,-1.6875,-1.1477411477411477,2.586080586080586,-1.6715506715506716,2.6875,6.21875,-1.53125,-1.6813186813186811,2.8949938949938954,-1.7118437118437118,3.09375,6.75,-1.1875,0.0,2.4432234432234434,-1.6153846153846154,3.25,6.71875,-1.03125,0.0,1.1855921855921856,-1.6275946275946276,3.3125,6.3125,-0.875,0.0,0.6507936507936508,-0.8278388278388278,3.4375,5.53125,-0.75,-1.1868131868131868,0.0,-0.989010989010989,3.5625,5.65625,0.0,0.0,-1.3296703296703296,-1.4041514041514038,3.5625,5.9375,0.0,4.202686202686203,-2.4224664224664223,-1.6153846153846154,3.21875,5.15625,0.0,4.667887667887668,-2.9890109890109886,-1.6141636141636142,2.5625,3.0,-0.625,1.0805860805860803,-2.230769230769231,-1.5665445665445663,1.9375,1.15625,-1.09375,-1.7826617826617828,-0.6227106227106227,-1.5335775335775337,1.9375,0.9375,-1.1875,-1.1025641025641026,-0.8107448107448108,-1.9255189255189256,2.34375,1.40625,-0.90625,0.0,-1.9938949938949944,-2.6923076923076925,2.40625,1.5625,-0.6875,0.0,-1.9084249084249083,-2.956043956043956,1.9375,1.28125,-0.8125,-1.0390720390720392,-1.194139194139194,-2.3968253968253967,1.5625,0.96875,-0.90625,-1.26007326007326,-1.0,-1.7277167277167278,1.65625,0.9375,-0.71875,0.0,-0.6678876678876678,-1.636141636141636,1.84375,0.0,-0.6875,0.0,-1.1807081807081807,-2.4420024420024418,1.71875,0.0,-0.78125,-1.2747252747252746,-0.9450549450549449,-3.47985347985348,1.46875,-0.53125,-0.875,-2.1526251526251525,0.0,-4.0305250305250295,1.28125,0.0,-0.78125,-2.3968253968253967,0.0,-4.367521367521366,1.09375,0.0,0.0,-2.245421245421245,0.0,-4.4896214896214905,0.875,0.0,0.0,-2.1526251526251525,0.0,-4.5836385836385825,0.65625,0.0,0.0,-2.0415140415140414,0.0,-4.53968253968254,0.0,0.0,0.0,-2.139194139194139,0.0,-4.593406593406592,0.0,0.0,0.0,-1.9474969474969477,0.0,-4.7484737484737485,0.0,0.0,0.0,-2.3455433455433456,-0.73992673992674,-4.9291819291819285,0.0,0.0,0.0,-2.952380952380953,-0.6092796092796092,-4.015873015873016,-0.84375,0.0,0.0,-1.9108669108669107,-0.8717948717948718,-3.411477411477412,-1.1875,0.0,0.0,-1.205128205128205,-0.8315018315018315,-2.851037851037851,-1.53125,0.0,0.53125,0.0,-0.9291819291819292,-2.5750915750915757,-1.75,-0.65625,0.0,,,,,,,,,,,,,,,,,,,,,,,,,,,,,,,,,,,,,,,,,,,start
accX,0.7045177045177046,1.0537240537240538,-2.1355311355311355,0.75,0.0,0.0,0.6923076923076923,0.5286935286935287,-2.1098901098901104,0.8125,0.875,0.0,1.0769230769230769,0.0,-1.6654456654456655,0.5625,1.03125,0.0,0.0,0.7423687423687424,-1.8498168498168501,0.65625,1.53125,0.0,0.0,0.0,-2.9792429792429798,1.09375,3.59375,0.65625,1.0561660561660562,-1.3186813186813189,-3.1697191697191696,0.96875,4.5625,0.84375,1.3418803418803418,-1.7032967032967032,-3.467643467643468,0.75,5.21875,0.84375,0.8608058608058609,-1.242979242979243,-2.7313797313797314,0.90625,6.09375,0.71875,1.398046398046398,-1.0366300366300367,-1.1807081807081807,1.4375,7.125,0.0,1.5885225885225884,-0.5274725274725275,0.0,2.03125,7.78125,0.0,1.8827838827838828,-1.0463980463980465,0.0,2.625,8.25,0.0,2.1684981684981683,-1.293040293040293,-0.8913308913308914,2.75,8.3125,0.0,2.0073260073260077,0.0,0.0,2.71875,8.0,0.0,1.4920634920634919,2.2600732600732596,0.0,3.0625,7.59375,-0.59375,0.0,2.5006105006105006,0.0,3.625,7.1875,-0.6875,-0.9084249084249084,1.4700854700854702,-0.7448107448107448,4.3125,7.25,0.0,0.0,0.0,-1.1587301587301588,4.4375,7.03125,0.0,2.6581196581196584,-1.4163614163614164,-0.9413919413919414,4.34375,5.75,0.0,2.245421245421245,-2.1257631257631258,-1.2161172161172158,4.15625,4.40625,0.0,1.2515262515262515,-3.1672771672771667,-1.7838827838827842,3.875,3.65625,0.0,0.5555555555555556,-3.227106227106227,-2.0781440781440783,3.6875,3.3125,0.0,0.6971916971916972,-3.3162393162393164,-2.087912087912088,3.53125,3.125,0.0,1.8742368742368745,-3.8986568986568986,-1.978021978021978,3.1875,2.4375,-0.625,2.184371184371184,-4.083028083028083,-1.7997557997557998,2.71875,1.4375,-0.90625,0.0,-3.4322344322344316,-1.6251526251526252,2.46875,0.8125,-1.0625,-0.5836385836385837,-2.495726495726496,-1.6605616605616609,2.5,0.6875,-0.9375,0.0,-2.590964590964591,-2.11965811965812,2.5,0.0,-0.90625,-2.7045177045177047,-2.2905982905982905,-4.007326007326007,2.125,0.0,-0.90625,-2.1184371184371185,-1.4175824175824177,-4.074481074481073,1.90625,0.0,-0.625,-1.398046398046398,-1.0402930402930404,-3.903540903540904,1.8125,0.0,0.0,-0.8278388278388278,-1.1318681318681318,-4.406593406593408,1.84375,0.0,0.0,-1.0390720390720392,-1.3113553113553114,-5.785103785103785,1.59375,-0.65625,0.0,-2.6263736263736264,-0.7277167277167277,-6.566544566544566,1.15625,-0.78125,0.0,-2.881562881562881,0.0,-6.484737484737486,0.78125,0.0,0.0,-1.978021978021978,0.0,-5.655677655677656,0.5625,0.0,0.0,-0.8901098901098901,0.0,-5.12087912087912,0.0,0.0,0.0,-1.0586080586080586,0.0,-5.122100122100122,0.0,0.0,0.0,-1.6556776556776556,0.0,-5.494505494505495,0.0,-0.5625,0.0,-2.3968253968253967,0.0,-5.565323565323565,-0.65625,0.0,0.0,-2.028083028083028,0.0,-4.992673992673993,-1.1875,0.0,0.0,-1.4224664224664223,0.0,-4.174603174603175,-1.5,0.0,0.0,-0.7155067155067155,0.0,-3.3003663003662997,-1.8125,0.0,0.0,,,,,,,,,,,,,,,,,,,,,,,,,,,,,,,,,,,,,,,,,,,,,,,,,,,,,,,start
