,00_accX,00_accY,00_accZ,00_gyroX,00_gyroY,00_gyroZ,01_accX,01_accY,01_accZ,01_gyroX,01_gyroY,01_gyroZ,02_accX,02_accY,02_accZ,02_gyroX,02_gyroY,02_gyroZ,03_accX,03_accY,03_accZ,03_gyroX,03_gyroY,03_gyroZ,04_accX,04_accY,04_accZ,04_gyroX,04_gyroY,04_gyroZ,05_accX,05_accY,05_accZ,05_gyroX,05_gyroY,05_gyroZ,06_accX,06_accY,06_accZ,06_gyroX,06_gyroY,06_gyroZ,07_accX,07_accY,07_accZ,07_gyroX,07_gyroY,07_gyroZ,08_accX,08_accY,08_accZ,08_gyroX,08_gyroY,08_gyroZ,09_accX,09_accY,09_accZ,09_gyroX,09_gyroY,09_gyroZ,10_accX,10_accY,10_accZ,10_gyroX,10_gyroY,10_gyroZ,11_accX,11_accY,11_accZ,11_gyroX,11_gyroY,11_gyroZ,12_accX,12_accY,12_accZ,12_gyroX,12_gyroY,12_gyroZ,13_accX,13_accY,13_accZ,13_gyroX,13_gyroY,13_gyroZ,14_accX,14_accY,14_accZ,14_gyroX,14_gyroY,14_gyroZ,15_accX,15_accY,15_accZ,15_gyroX,15_gyroY,15_gyroZ,16_accX,16_accY,16_accZ,16_gyroX,16_gyroY,16_gyroZ,17_accX,17_accY,17_accZ,17_gyroX,17_gyroY,17_gyroZ,18_accX,18_accY,18_accZ,18_gyroX,18_gyroY,18_gyroZ,19_accX,19_accY,19_accZ,19_gyroX,19_gyroY,19_gyroZ,20_accX,20_accY,20_accZ,20_gyroX,20_gyroY,20_gyroZ,21_accX,21_accY,21_accZ,21_gyroX,21_gyroY,21_gyroZ,22_accX,22_accY,22_accZ,22_gyroX,22_gyroY,22_gyroZ,23_accX,23_accY,23_accZ,23_gyroX,23_gyroY,23_gyroZ,24_accX,24_accY,24_accZ,24_gyroX,24_gyroY,24_gyroZ,25_accX,25_accY,25_accZ,25_gyroX,25_gyroY,25_gyroZ,26_accX,26_accY,26_accZ,26_gyroX,26_gyroY,26_gyroZ,27_accX,27_accY,27_accZ,27_gyroX,27_gyroY,27_gyroZ,28_accX,28_accY,28_accZ,28_gyroX,28_gyroY,28_gyroZ,29_accX,29_accY,29_accZ,29_gyroX,29_gyroY,29_gyroZ,30_accX,30_accY,30_accZ,30_gyroX,30_gyroY,30_gyroZ,31_accX,31_accY,31_accZ,31_gyroX,31_gyroY,31_gyroZ,32_accX,32_accY,32_accZ,32_gyroX,32_gyroY,32_gyroZ,33_accX,33_accY,33_accZ,33_gyroX,33_gyroY,33_gyroZ,34_accX,34_accY,34_accZ,34_gyroX,34_gyroY,34_gyroZ,35_accX,35_accY,35_accZ,35_gyroX,35_gyroY,35_gyroZ,36_accX,36_accY,36_accZ,36_gyroX,36_gyroY,36_gyroZ,37_accX,37_accY,37_accZ,37_gyroX,37_gyroY,37_gyroZ,38_accX,38_accY,38_accZ,38_gyroX,38_gyroY,38_gyroZ,39_accX,39_accY,39_accZ,39_gyroX,39_gyroY,39_gyroZ,40_accX,40_accY,40_accZ,40_gyroX,40_gyroY,40_gyroZ,41_accX,41_accY,41_accZ,41_gyroX,41_gyroY,41_gyroZ,42_accX,42_accY,42_accZ,42_gyroX,42_gyroY,42_gyroZ,43_accX,43_accY,43_accZ,43_gyroX,43_gyroY,43_gyroZ,44_accX,44_accY,44_accZ,44_gyroX,44_gyroY,44_gyroZ,45_accX,45_accY,45_accZ,45_gyroX,45_gyroY,45_gyroZ,46_accX,46_accY,46_accZ,46_gyroX,46_gyroY,46_gyroZ,47_accX,47_accY,47_accZ,47_gyroX,47_gyroY,47_gyroZ,category
accX,0.0,0.0,0.0,0.0,0.0,0.0,0.0,0.0,0.0,0.0,0.0,0.0,0.0,0.0,0.0,0.0,0.0,0.0,0.0,0.0,-0.7887667887667887,0.0,-0.65625,0.0,-2.142857142857143,0.0,-2.253968253968254,0.0,-0.5625,0.0,-1.017094017094017,0.0,-4.0537240537240535,0.0,0.0,0.0,0.5677655677655677,-1.0793650793650793,-4.543345543345543,-0.96875,-1.75,0.0,1.7875457875457876,-1.3553113553113554,-4.118437118437118,-1.71875,-4.0625,-0.6875,-3.542124542124542,0.0,-2.323565323565324,-2.28125,-6.625,-1.3125,-7.653235653235654,0.5543345543345544,-1.800976800976801,-2.28125,-7.375,-0.9375,-5.750915750915752,0.0,-1.5323565323565325,-2.09375,-7.15625,0.0,-2.025641025641025,0.0,0.0,-2.28125,-7.90625,0.0,0.0,2.1294261294261294,2.7887667887667886,-2.71875,-9.875,0.0,-3.8376068376068377,5.170940170940171,3.663003663003663,-2.875,-11.1875,0.0,-4.236874236874237,1.5213675213675213,2.409035409035409,-2.28125,-10.0,0.0,-3.1684981684981683,0.8339438339438342,0.9291819291819292,-1.15625,-7.9375,0.0,0.0,0.0,0.0,0.0,-6.46875,0.65625,1.0329670329670328,-1.0256410256410255,0.0,0.0,-6.9375,0.65625,0.0,-0.5445665445665445,0.0,0.0,-6.875,0.0,-0.8302808302808303,0.0,-1.0854700854700854,0.0,-6.21875,0.0,-1.1684981684981686,0.0,-2.5921855921855923,0.0,-5.59375,0.0,-2.2722832722832718,0.0,-2.623931623931624,0.0,-5.0625,0.0,-1.5677655677655675,0.8705738705738706,-1.884004884004884,0.0,-4.84375,0.6875,-0.7716727716727717,1.4676434676434675,-3.0415140415140414,0.0,-4.375,0.875,0.0,0.8009768009768009,-5.482295482295481,0.75,-3.6875,1.0625,0.518925518925519,0.0,-6.293040293040294,0.0,-3.3125,1.125,-1.103785103785104,0.5347985347985348,-5.550671550671551,0.0,-2.5,1.21875,0.0,0.6691086691086691,-4.241758241758242,0.0,-2.09375,1.5,0.5372405372405372,0.9426129426129426,-1.6324786324786325,0.625,-2.15625,1.6875,-0.7533577533577533,0.0,-2.105006105006105,0.84375,-2.1875,1.84375,0.0,-0.8034188034188035,-3.3736263736263736,0.875,-1.53125,2.0625,2.6434676434676434,-1.343101343101343,-3.6971916971916974,0.59375,-1.0625,2.03125,3.2332112332112333,-1.0451770451770452,-3.8229548229548236,0.0,-0.78125,1.8125,4.970695970695972,-1.3052503052503053,-4.0366300366300365,0.0,0.0,1.59375,5.94017094017094,-1.4090354090354091,-4.261294261294261,0.0,0.0,1.1875,5.559218559218558,-1.103785103785104,-4.083028083028083,0.0,0.0,0.65625,4.551892551892552,0.0,-3.1086691086691087,-0.53125,0.0,0.0,3.68009768009768,0.9658119658119658,-1.5836385836385836,0.0,0.0,0.0,2.523809523809524,0.8876678876678876,-0.7960927960927959,0.0,0.0,0.0,1.6324786324786325,0.7191697191697192,0.0,0.0,0.0,0.0,1.0891330891330893,0.0,0.0,0.0,0.0,0.0,,,,,,,,,,,,,,,,,,,,,,,,,,,,,,,,,,,,,,,,,,,startR
accX,-0.9487179487179488,-0.5531135531135531,-1.2307692307692308,-1.0625,-0.78125,0.0,-1.3247863247863247,0.6422466422466423,0.0,-1.125,-1.75,0.0,-3.772893772893773,0.9975579975579976,-1.8083028083028083,-0.8125,-2.125,0.0,-2.4273504273504267,0.0,-3.561660561660561,-0.65625,-2.21875,0.59375,0.0,-1.2442002442002442,-3.695970695970696,-1.28125,-3.1875,0.75,0.0,0.0,-2.0818070818070815,-2.25,-4.9375,0.0,-1.0256410256410255,0.8473748473748474,0.0,-2.96875,-7.34375,0.0,-1.8730158730158732,2.5079365079365084,2.1562881562881557,-2.90625,-8.65625,0.0,-3.8180708180708174,4.553113553113553,2.5775335775335777,-2.53125,-8.8125,0.0,-3.446886446886447,5.736263736263736,1.5970695970695972,-2.59375,-8.71875,0.65625,-1.3699633699633702,4.95970695970696,1.7301587301587302,-2.84375,-8.78125,0.59375,-1.188034188034188,2.958485958485958,2.3382173382173383,-2.75,-8.5,0.0,-3.120879120879121,2.7851037851037854,2.5445665445665444,-1.90625,-7.40625,0.0,-1.4481074481074483,2.2051282051282053,0.811965811965812,-0.8125,-6.125,1.03125,2.3015873015873014,0.0,-0.7655677655677655,-0.6875,-6.21875,1.03125,2.2002442002442004,-1.0329670329670328,-0.6471306471306472,-1.375,-7.0625,0.0,-1.612942612942613,0.778998778998779,0.0,-1.3125,-6.53125,0.0,-1.5873015873015872,1.5873015873015872,-1.0683760683760684,0.0,-4.75,0.71875,4.361416361416361,0.0,-2.7350427350427347,0.0,-4.3125,1.4375,0.0,0.0,-3.5384615384615383,0.0,-4.53125,0.625,-3.0158730158730163,2.283272283272283,-3.045177045177045,0.0,-3.4375,0.0,0.0,2.238095238095238,-1.7789987789987791,0.0,-2.59375,0.84375,-1.0708180708180708,2.4383394383394386,-1.031746031746032,0.0,-2.71875,0.8125,-1.0769230769230769,1.1611721611721613,-2.1135531135531136,0.59375,-2.46875,1.0,-0.7472527472527473,0.0,-3.382173382173382,0.53125,-2.03125,1.0,-0.518925518925519,0.0,-2.947496947496948,0.0,-1.90625,0.875,-1.5763125763125765,1.2527472527472527,-2.283272283272283,0.0,-1.78125,0.90625,-1.2283272283272284,0.7106227106227107,-2.2808302808302807,0.0,-1.375,1.1875,0.0,0.0,-2.4383394383394386,0.0,-1.09375,1.375,1.0708180708180708,-0.7777777777777778,-2.36019536019536,0.0,-1.1875,1.21875,0.7362637362637363,0.0,-2.275946275946276,0.0,-1.0,1.25,0.5091575091575091,0.0,-2.3345543345543347,0.0,0.0,1.53125,1.3015873015873016,-0.8803418803418803,-2.627594627594628,0.6875,0.0,1.75,4.5054945054945055,-2.025641025641025,-2.4273504273504267,0.0,0.0,1.53125,5.643467643467643,-1.794871794871795,-1.9804639804639803,0.0,0.0,0.90625,4.637362637362638,-1.0732600732600732,-1.9963369963369964,0.0,0.0,0.0,3.2527472527472527,0.0,-1.8608058608058609,0.0,0.0,0.0,2.509157509157509,0.0,-1.4957264957264955,0.0,0.0,0.0,2.8986568986568986,0.0,-1.0854700854700854,0.0,0.0,0.0,2.3455433455433456,0.0,-0.7680097680097681,0.0,0.0,0.0,1.1916971916971917,0.0,0.0,0.0,0.0,0.0,0.5567765567765568,0.0,0.0,0.0,0.0,0.0,0.0,0.0,0.0,0.0,0.0,0.0,0.0,0.0,0.0,0.0,0.0,0.0,,,,,,,,,,,,,,,,,,,,,,,,,startR
accX,-0.8608058608058609,0.0,-1.0915750915750917,-1.3125,-2.34375,-0.5625,-1.321123321123321,0.0,-0.7887667887667887,-1.4375,-3.65625,0.0,-1.4700854700854702,-0.8669108669108669,-1.133089133089133,-2.3125,-5.3125,0.0,-3.23931623931624,0.0,0.0,-3.0625,-6.40625,0.0,-5.518925518925519,2.283272283272283,1.0891330891330893,-3.125,-6.5,0.0,-5.015873015873017,4.326007326007327,1.4713064713064714,-2.5,-6.0,0.0,-2.727716727716728,5.131868131868131,1.3162393162393162,-2.15625,-6.09375,0.0,-1.6654456654456655,6.738705738705739,0.0,-2.5,-7.0,0.0,-0.7667887667887668,6.1941391941391934,0.8937728937728938,-2.6875,-7.21875,0.625,0.0,3.874236874236874,1.6691086691086692,-2.65625,-7.59375,0.0,-1.3028083028083028,2.532356532356532,2.323565323565324,-2.5625,-8.21875,-0.71875,-3.7960927960927964,2.096459096459097,2.056166056166056,-2.0625,-8.3125,-0.5625,-3.675213675213675,1.750915750915751,0.8229548229548229,-1.25,-7.375,0.0,0.0,0.0,-0.5384615384615384,-0.59375,-6.3125,0.0,0.7948717948717948,-1.061050061050061,-0.8815628815628815,-0.8125,-6.28125,0.0,-0.6398046398046398,0.6715506715506715,-1.0805860805860803,-1.03125,-6.65625,-0.59375,-2.1868131868131866,1.0964590964590966,-2.3736263736263736,0.0,-6.03125,0.0,-2.7973137973137967,1.2857142857142858,-3.3785103785103785,0.0,-4.71875,0.0,-2.4542124542124544,0.0,-4.017094017094017,0.59375,-3.0625,0.8125,0.984126984126984,0.0,-3.3992673992673987,0.59375,-2.34375,0.875,1.4737484737484738,0.0,-3.3663003663003663,0.5625,-2.53125,0.71875,1.083028083028083,0.0,-3.5628815628815627,0.53125,-2.4375,0.65625,0.0,0.5787545787545788,-3.6568986568986563,0.5625,-2.0,0.71875,1.1587301587301588,0.0,-3.3943833943833943,0.0,-1.8125,0.71875,1.1904761904761905,0.9462759462759462,-3.2967032967032965,0.53125,-1.78125,0.75,1.4932844932844933,0.0,-4.067155067155067,0.0,-1.625,0.875,1.376068376068376,0.7032967032967034,-4.511599511599512,0.0,-1.1875,1.0,1.7985347985347986,0.9474969474969476,-4.474969474969475,0.625,-0.5625,1.15625,2.214896214896215,0.6105006105006106,-4.396825396825397,0.625,0.0,1.21875,2.9291819291819285,0.0,-4.01953601953602,0.0,0.0,1.1875,4.625152625152626,0.0,-3.36996336996337,0.0,0.0,0.5625,2.4249084249084247,0.568986568986569,-1.4188034188034189,0.0,0.0,0.0,1.2161172161172158,0.9792429792429792,0.0,0.0,0.0,0.0,0.0,0.6446886446886447,0.0,0.0,0.0,0.0,1.1636141636141637,0.0,0.7020757020757019,0.0,0.0,0.0,0.6568986568986569,0.0,1.1111111111111112,0.0,0.0,0.0,0.0,0.0,1.0158730158730158,0.0,0.0,0.0,-0.568986568986569,0.0,0.5616605616605617,0.0,0.0,0.0,0.0,0.0,0.0,0.0,0.0,0.0,0.0,-0.5152625152625152,0.0,0.0,0.0,0.0,0.0,0.0,0.0,0.0,0.0,0.0,0.0,0.0,0.0,0.0,0.0,0.0,,,,,,,,,,,,,,,,,,,,,,,,,,,,,,,,,,,,,startR
accX,-2.5921855921855923,0.0,-2.4468864468864466,0.0,-0.65625,0.0,-2.4053724053724053,-0.7753357753357754,-2.5641025641025643,-0.5625,-0.75,0.0,-0.9755799755799756,-1.7252747252747254,-3.053724053724053,-1.21875,-1.6875,0.0,1.0634920634920637,-1.7912087912087913,-1.6007326007326008,-2.0625,-3.8125,0.0,0.0,0.0,0.0,-2.375,-5.9375,0.0,-5.735042735042735,0.0,-0.6153846153846154,-2.03125,-6.46875,0.0,-2.3003663003662997,0.0,0.0,-1.84375,-6.125,0.71875,1.4822954822954824,0.9242979242979243,0.0,-1.875,-7.1875,0.65625,-0.5885225885225885,3.025641025641025,2.0744810744810747,-2.34375,-9.46875,0.0,-4.211233211233211,5.727716727716727,2.4249084249084247,-2.71875,-10.21875,0.0,-4.471306471306471,2.533577533577533,1.0915750915750917,-2.46875,-8.75,0.53125,-1.3406593406593406,1.7692307692307692,0.0,-1.90625,-7.1875,0.65625,0.0,0.9267399267399268,0.0,-1.5,-7.0625,0.0,-1.3040293040293038,0.0,0.0,-1.375,-7.4375,0.0,-1.6703296703296704,0.0,-0.7374847374847375,-0.96875,-6.8125,0.5625,-1.2087912087912087,0.0,-1.8144078144078144,0.0,-5.375,0.0,-1.10989010989011,0.0,-2.533577533577533,0.0,-3.90625,0.6875,0.0,0.0,-2.7887667887667886,0.0,-3.03125,1.0,1.7228327228327232,0.0,-2.318681318681319,0.0,-3.40625,0.78125,0.9450549450549449,0.5409035409035409,-2.023199023199023,0.0,-3.59375,0.0,-0.8107448107448108,0.8021978021978022,-2.2954822954822958,0.0,-3.125,0.53125,-0.851037851037851,0.0,-2.8058608058608057,0.0,-2.34375,0.75,0.993894993894994,0.0,-3.065934065934066,0.0,-2.25,0.90625,3.021978021978022,-0.7411477411477412,-2.7814407814407813,0.0,-2.75,0.5625,0.8156288156288156,1.1355311355311355,-2.6507936507936507,0.0,-2.59375,0.0,-1.1916971916971917,1.8229548229548234,-3.0329670329670333,0.0,-1.75,0.65625,0.0,1.4969474969474967,-2.8913308913308917,0.0,-1.03125,1.0,1.0976800976800978,1.47985347985348,-2.8693528693528694,0.0,-0.8125,1.125,1.9194139194139197,0.5677655677655677,-3.2576312576312576,0.0,-0.75,1.03125,1.6507936507936507,0.0,-2.8937728937728937,0.0,0.0,1.0,2.404151404151404,0.0,-2.409035409035409,0.0,0.0,1.0625,3.0891330891330893,0.0,-2.0781440781440783,0.0,0.0,1.0,3.5775335775335777,-0.5067155067155067,-1.7484737484737485,0.0,0.0,0.8125,3.844932844932845,-0.7020757020757019,-1.3601953601953602,0.0,0.0,0.0,2.4664224664224665,0.0,-0.873015873015873,0.0,0.0,0.0,1.536019536019536,0.0,0.0,0.0,0.0,0.0,0.8131868131868132,0.0,0.0,0.0,0.0,0.0,0.0,0.0,0.0,0.0,0.0,0.0,0.0,0.0,0.0,0.0,0.0,0.0,0.0,0.0,0.0,0.0,0.0,0.0,0.0,0.0,0.0,0.0,0.0,0.0,-0.5494505494505495,0.0,0.0,0.0,0.0,0.0,-0.5115995115995116,0.0,0.0,0.0,0.0,0.0,0.0,0.0,0.0,0.0,0.0,0.0,,,,,,,,,,,,,,,,,,,,,,,,,startR
accX,-1.0024420024420024,0.0,-1.3797313797313795,-0.6875,-0.59375,0.0,0.0,0.6141636141636142,-1.6691086691086692,-0.71875,-1.375,0.0,-1.8363858363858363,0.0,-2.8473748473748475,-0.75,-1.6875,0.0,-1.9365079365079363,-1.3455433455433456,-3.072039072039072,-1.03125,-1.9375,0.0,-1.514041514041514,-1.3223443223443223,-2.0903540903540905,-1.625,-2.375,0.0,-0.8852258852258852,0.0,-0.9157509157509156,-2.0,-3.15625,0.0,1.5702075702075702,-0.6678876678876678,0.0,-2.0,-4.40625,0.0,1.3504273504273503,0.0,0.0,-2.15625,-6.46875,0.0,-3.31013431013431,0.0,1.2161172161172158,-2.28125,-8.34375,-0.96875,-7.995115995115995,1.2893772893772897,1.2515262515262515,-2.40625,-8.25,-0.75,-6.494505494505495,4.409035409035409,1.2747252747252746,-2.21875,-6.84375,0.0,-1.0012210012210012,7.852258852258853,1.3479853479853479,-1.90625,-6.0625,0.9375,1.1697191697191698,4.362637362637362,2.207570207570208,-1.96875,-6.71875,0.8125,0.8608058608058609,2.3272283272283274,2.94993894993895,-1.875,-7.40625,0.0,0.0,1.7081807081807079,2.683760683760684,-1.34375,-7.46875,0.0,-1.1452991452991452,1.4542124542124542,2.483516483516484,-0.8125,-7.4375,0.0,-3.68986568986569,0.6410256410256411,0.0,0.0,-5.96875,0.0,-2.42002442002442,-0.8021978021978022,-2.5067155067155067,0.0,-4.03125,0.9375,3.7936507936507935,-1.1623931623931625,-1.9023199023199024,0.0,-4.28125,0.0,5.266178266178266,-0.8803418803418803,0.0,-0.96875,-6.0,-0.71875,0.0,0.0,0.8766788766788767,-1.0625,-6.59375,-1.21875,-5.213675213675214,2.3870573870573866,-0.6007326007326007,0.0,-4.90625,0.0,-4.8058608058608066,1.9108669108669107,-2.415140415140415,0.5625,-2.59375,0.625,2.5384615384615383,-1.175824175824176,-3.1184371184371185,0.0,-2.625,0.625,2.5409035409035408,-0.8083028083028083,-2.2625152625152625,0.0,-3.625,0.0,-3.4261294261294264,2.3443223443223444,-2.4737484737484743,0.0,-2.75,0.0,-0.9633699633699634,0.8962148962148963,-2.8205128205128207,0.0,-1.875,0.71875,0.8302808302808303,0.0,-2.7887667887667886,0.0,-1.96875,0.78125,0.0,0.0,-2.474969474969475,0.0,-2.15625,0.0,-1.0183150183150182,1.4017094017094016,-1.9230769230769231,0.0,-1.65625,0.53125,0.0,1.037851037851038,-1.879120879120879,0.0,-1.125,0.8125,1.8583638583638584,0.0,-2.293040293040293,0.53125,-1.09375,0.8125,1.468864468864469,0.0,-2.63980463980464,0.0,-1.25,0.625,1.3907203907203909,0.0,-2.935286935286935,0.0,-1.09375,0.53125,1.21001221001221,0.5824175824175825,-2.831501831501832,0.0,-0.75,0.53125,1.1978021978021978,0.6117216117216118,-2.440781440781441,0.0,0.0,0.59375,2.028083028083028,0.0,-2.288156288156288,0.0,0.0,0.625,2.6092796092796093,0.0,-2.1343101343101343,0.0,0.0,0.0,2.6056166056166057,0.0,-1.7545787545787546,0.0,0.0,0.0,2.043956043956044,0.0,-1.1672771672771671,0.0,0.0,0.0,0.6043956043956044,0.5641025641025641,-0.5946275946275946,0.0,0.0,0.0,0.0,0.6935286935286935,0.0,0.0,0.0,0.0,0.0,0.0,0.0,0.0,0.0,0.0,0.6703296703296703,0.0,0.0,0.0,0.0,0.0,0.0,0.0,0.0,0.0,0.0,0.0,-1.0818070818070815,0.0,0.0,0.0,0.0,0.0,-1.0671550671550671,0.0,0.0,0.0,0.0,0.0,0.0,0.0,0.0,0.0,0.0,0.0,startR
accX,-1.5506715506715507,0.0,-2.412698412698413,0.0,-0.6875,0.0,-1.968253968253968,0.0,-2.542124542124542,-0.78125,-1.3125,0.0,-3.6471306471306466,0.7753357753357754,-3.272283272283272,-1.0625,-1.8125,0.0,-3.8815628815628815,0.0,-3.7399267399267404,-1.125,-1.78125,0.84375,-2.52014652014652,-1.2515262515262515,-3.869352869352869,-1.28125,-1.875,0.96875,-3.1367521367521367,-0.6239316239316239,-2.9926739926739927,-1.75,-2.71875,0.6875,-1.9645909645909645,-0.5018315018315018,-2.145299145299145,-2.1875,-3.6875,0.8125,0.8620268620268621,0.0,-1.092796092796093,-2.78125,-5.6875,0.8125,0.0,2.227106227106227,1.3687423687423688,-3.125,-7.90625,0.625,-4.474969474969475,4.842490842490842,2.455433455433456,-2.75,-8.125,1.03125,-2.36019536019536,5.0415140415140405,0.6691086691086691,-2.5625,-7.6875,1.3125,2.765567765567765,2.8547008547008548,0.0,-3.71875,-8.53125,0.71875,4.158730158730159,1.8205128205128205,3.5824175824175826,-4.53125,-9.96875,0.0,-0.8009768009768009,3.0891330891330893,5.36019536019536,-3.65625,-9.46875,0.0,-2.2588522588522593,2.5311355311355306,2.8021978021978016,-2.15625,-7.5,0.0,1.6715506715506716,0.0,0.6837606837606838,-1.53125,-6.5625,0.78125,3.412698412698413,-1.8522588522588523,0.0,-1.9375,-6.71875,0.0,-3.1746031746031744,1.9865689865689864,-0.8852258852258852,-1.3125,-5.8125,0.0,0.5934065934065934,0.0,-2.1746031746031744,0.0,-4.34375,0.59375,1.6666666666666667,0.0,-2.0744810744810747,0.0,-3.9375,0.625,1.0012210012210012,-1.434676434676435,-2.4615384615384617,0.0,-3.90625,0.0,-0.8131868131868132,0.0,-2.4688644688644694,-0.625,-3.75,0.0,0.0,1.4517704517704515,-2.515262515262515,0.0,-2.96875,0.0,1.1843711843711844,0.0,-3.0940170940170937,0.0,-2.3125,0.0,1.3894993894993894,0.0,-3.0842490842490844,0.0,-2.03125,0.53125,1.5128205128205128,-0.5824175824175825,-3.294261294261294,0.0,-1.8125,0.0,0.5824175824175825,0.0,-2.288156288156288,0.0,-1.75,0.0,1.3333333333333333,0.0,-1.2319902319902318,0.0,-1.53125,0.0,1.47985347985348,0.5213675213675214,-0.5897435897435898,0.0,-1.75,0.0,0.0,0.984126984126984,-0.7802197802197802,0.0,-1.46875,0.0,0.0,0.8595848595848596,-1.5592185592185592,0.0,-0.90625,0.71875,0.6422466422466423,0.6263736263736264,-2.1782661782661785,0.59375,0.0,0.90625,1.9926739926739927,0.0,-2.554334554334554,0.0,0.0,0.84375,3.5213675213675213,-0.6727716727716728,-2.383394383394384,0.0,0.0,0.53125,2.199023199023199,0.0,-2.1684981684981683,0.0,0.0,0.0,0.9829059829059827,0.6715506715506715,-2.0586080586080584,0.0,0.0,0.0,0.8192918192918193,0.8583638583638583,-1.4334554334554337,0.0,0.0,0.5625,1.5445665445665446,0.0,-0.912087912087912,0.0,0.0,0.53125,2.1941391941391943,-0.5018315018315018,-0.5726495726495726,0.0,0.0,0.0,0.7020757020757019,0.0,0.0,0.0,0.0,0.0,-0.6727716727716728,0.7350427350427351,0.0,0.0,0.0,0.0,0.0,0.0,0.0,0.0,0.0,0.0,0.6520146520146519,-0.6947496947496947,0.0,0.0,0.0,0.0,0.0,-0.6007326007326007,0.0,0.0,0.0,0.0,-0.5885225885225885,0.0,0.0,0.0,0.0,0.0,-0.7045177045177046,0.0,0.0,0.0,0.0,0.0,-0.5531135531135531,0.0,0.0,0.0,0.0,0.0,,,,,,,startR
accX,-1.4505494505494505,0.0,-2.23931623931624,-0.65625,0.0,0.0,-1.9792429792429795,0.0,-2.2002442002442004,-0.6875,0.0,0.0,-3.1575091575091574,0.0,-2.4517704517704515,-0.75,0.0,0.0,-2.225885225885226,0.0,-2.5396825396825395,-0.90625,0.0,0.0,-1.0964590964590966,0.0,-2.6336996336996337,-1.3125,-0.8125,0.6875,0.0,0.0,-2.7973137973137967,-1.625,-1.6875,0.65625,-0.5885225885225885,0.0,-2.8962148962148966,-1.90625,-2.53125,0.0,0.0,-0.8229548229548229,-2.496947496947497,-2.40625,-3.65625,0.0,1.020757020757021,0.0,-0.9059829059829059,-2.8125,-5.21875,0.0,1.8034188034188037,0.9853479853479854,1.0476190476190477,-3.03125,-7.125,0.0,0.7155067155067155,1.1355311355311355,2.413919413919414,-3.5,-8.9375,-1.34375,-4.4322344322344325,5.048840048840049,2.1587301587301586,-3.40625,-9.0,-1.40625,-5.304029304029304,8.091575091575091,1.1514041514041513,-2.71875,-7.8125,0.0,-3.0085470085470085,7.885225885225887,0.9926739926739928,-1.9375,-6.5625,0.75,-0.8485958485958486,5.146520146520147,0.0,-1.21875,-5.8125,1.46875,1.4884004884004884,2.462759462759463,-1.6556776556776556,-0.9375,-5.09375,1.375,2.9316239316239314,1.4383394383394383,-1.5213675213675213,-1.0625,-4.9375,0.65625,2.2344322344322345,1.5885225885225884,0.0,-1.40625,-5.6875,0.0,-0.6275946275946276,2.7142857142857144,0.0,-1.40625,-6.21875,0.0,-2.68009768009768,2.965811965811966,-0.5995115995115995,-0.75,-5.6875,0.0,-1.5482295482295485,0.9914529914529916,-2.647130647130647,0.0,-4.25,1.15625,0.7802197802197802,0.0,-3.4627594627594624,0.0,-3.125,1.25,4.824175824175824,-1.9377289377289375,-2.7203907203907205,-1.03125,-4.09375,0.0,3.782661782661783,-0.8888888888888888,-1.6666666666666667,-1.28125,-4.84375,0.0,1.3699633699633702,0.0,-1.843711843711844,-1.125,-4.5,0.0,0.0,0.7423687423687424,-2.128205128205128,-0.6875,-3.4375,0.0,0.0,0.0,-2.2796092796092795,0.0,-2.75,0.0,1.967032967032967,-0.7496947496947497,-2.216117216117216,-0.8125,-2.9375,0.0,1.2014652014652014,0.0,-1.126984126984127,-1.0625,-3.125,0.0,0.0,1.8266178266178263,-1.1684981684981686,-0.5625,-2.5625,0.0,0.7020757020757019,0.7179487179487181,-2.023199023199023,0.0,-2.03125,0.0,2.1367521367521367,0.0,-2.0573870573870567,0.0,-2.0,0.0,0.5421245421245421,0.0,-2.2283272283272284,-0.53125,-1.65625,0.0,0.0,1.2185592185592184,-2.142857142857143,0.0,-0.84375,0.5625,1.7997557997557998,0.0,-2.0586080586080584,0.0,0.0,0.65625,1.9108669108669107,0.0,-2.031746031746032,0.0,0.0,0.5625,1.4297924297924298,0.0,-1.7155067155067154,0.0,0.0,0.0,0.8840048840048841,0.0,-0.9035409035409036,0.0,0.0,0.0,0.0,0.0,0.0,0.0,0.0,0.0,0.6031746031746031,0.0,0.0,0.0,0.53125,0.0,1.0293040293040292,0.0,-0.5396825396825397,0.0,0.0,0.0,0.0,0.0,0.0,0.0,0.0,0.0,0.0,0.0,0.0,0.0,0.0,0.0,,,,,,,,,,,,,,,,,,,,,,,,,,,,,,,startR
accX,-2.3772893772893773,0.0,-2.9853479853479854,-0.65625,-1.21875,0.0,-2.440781440781441,0.0,-2.694749694749695,-0.9375,-1.4375,0.0,-1.5909645909645909,0.0,-2.4932844932844933,-1.125,-1.71875,0.0,0.0,-0.7863247863247863,-1.8925518925518925,-1.4375,-2.6875,0.0,0.0,0.0,-1.3663003663003663,-1.75,-3.8125,0.0,-2.1746031746031744,0.0,-0.8620268620268621,-1.9375,-4.5,0.0,-2.9267399267399266,0.8571428571428571,-0.57997557997558,-2.0,-4.875,0.0,-0.5848595848595849,0.0,0.0,-2.1875,-5.5,0.0,-2.3553113553113554,1.0476190476190477,0.0,-2.375,-5.96875,0.0,-2.8913308913308917,2.978021978021978,0.5482295482295483,-2.3125,-5.78125,0.0,-1.5396825396825398,5.202686202686203,0.5518925518925519,-2.125,-5.15625,0.625,1.3663003663003663,6.400488400488402,0.9694749694749696,-2.0,-5.1875,0.0,2.32967032967033,5.754578754578755,1.2612942612942613,-2.1875,-6.5,0.0,-2.203907203907204,4.450549450549451,1.1575091575091576,-2.375,-7.5,0.0,-3.3724053724053724,2.9914529914529915,0.0,-1.90625,-6.375,0.0,0.0,1.5726495726495726,0.0,-1.5,-5.0,0.0,2.4444444444444446,1.3076923076923077,0.0,-1.46875,-5.28125,0.0,0.0,1.0012210012210012,1.1587301587301588,-1.78125,-6.5625,-0.6875,-4.3748473748473735,2.6507936507936507,0.0,-0.78125,-4.96875,0.0,-2.137973137973138,1.3833943833943834,-2.0525030525030523,0.0,-3.1875,0.75,4.315018315018315,-1.4041514041514038,-2.5750915750915757,0.0,-3.71875,0.0,4.851037851037852,-1.968253968253968,-1.5152625152625152,-1.21875,-5.21875,-0.75,-2.1514041514041518,1.2393162393162394,0.0,-1.28125,-4.9375,-0.8125,-6.7484737484737485,4.2905982905982905,-0.956043956043956,0.0,-2.40625,0.0,-0.8009768009768009,1.7191697191697193,-2.3028083028083026,0.75,-1.25,1.375,5.644688644688644,-1.7301587301587302,-2.6336996336996337,0.0,-2.65625,0.59375,1.2515262515262515,-0.5616605616605617,-2.4725274725274726,-0.53125,-3.09375,0.0,-2.1855921855921854,1.8131868131868127,-2.0024420024420024,0.0,-2.03125,0.0,-1.4432234432234432,2.4932844932844933,-1.575091575091575,0.0,-1.0625,0.875,1.7484737484737485,0.0,-1.641025641025641,0.0,-1.28125,0.84375,0.6898656898656899,0.0,-2.1855921855921854,0.0,-1.53125,0.59375,0.6056166056166056,0.0,-2.4822954822954824,0.0,-1.0,0.6875,1.290598290598291,0.0,-2.139194139194139,0.53125,0.0,0.78125,1.5396825396825398,0.0,-1.9035409035409037,0.53125,0.0,0.71875,1.9010989010989008,0.0,-2.2564102564102564,0.0,0.0,0.625,1.4920634920634919,0.0,-2.21978021978022,0.0,-0.53125,0.0,1.1318681318681318,0.5470085470085471,-1.8144078144078144,0.0,0.0,0.0,0.6288156288156288,0.5091575091575091,-1.4676434676434675,0.0,0.0,0.0,0.9523809523809524,0.0,-1.0744810744810744,0.0,0.0,0.0,0.7484737484737485,0.0,-0.6788766788766789,0.0,0.0,0.0,0.6361416361416361,0.0,-0.6471306471306472,0.0,0.0,0.0,0.0,0.0,-0.536019536019536,0.0,0.0,0.0,0.0,0.0,-0.5103785103785103,0.0,0.0,0.0,,,,,,,,,,,,,,,,,,,,,,,,,,,,,,,startR
accX,-2.2735042735042734,-0.9304029304029304,-4.424908424908424,-0.75,-0.59375,0.0,-1.9926739926739927,0.0,-3.5042735042735043,-1.0625,-0.65625,0.0,-1.534798534798535,0.0,-2.340659340659341,-1.21875,-1.125,0.0,0.0,-0.6031746031746031,-2.1147741147741153,-1.625,-2.34375,0.0,1.0793650793650793,-0.6642246642246642,-1.6056166056166057,-2.125,-4.0,0.0,-2.758241758241758,0.0,-0.8571428571428571,-2.3125,-4.5625,0.0,-4.504273504273504,1.3699633699633702,-0.6007326007326007,-2.0,-4.0625,0.59375,-2.086691086691087,1.2625152625152625,0.0,-1.65625,-4.09375,0.96875,0.0,0.0,-0.8559218559218559,-2.0,-5.4375,0.0,-1.2026862026862026,1.5531135531135531,-0.5775335775335775,-2.46875,-5.96875,0.0,-2.128205128205128,3.924297924297924,0.0,-2.71875,-5.96875,0.0,-1.7435897435897436,5.831501831501831,0.0,-2.65625,-5.5,0.0,0.0,6.7765567765567765,0.9609279609279608,-2.3125,-5.1875,0.0,1.6007326007326008,5.915750915750916,1.1355311355311355,-1.96875,-5.5,0.0,0.0,4.366300366300366,0.8547008547008547,-1.875,-6.09375,0.0,0.0,3.0927960927960934,0.5457875457875457,-1.9375,-6.15625,0.0,-1.2368742368742371,2.6080586080586077,0.9511599511599512,-1.9375,-6.125,0.0,-2.7362637362637363,2.3650793650793656,0.7423687423687424,-1.46875,-5.65625,0.0,-1.7435897435897436,1.4004884004884004,-0.5396825396825397,-0.65625,-4.28125,0.90625,2.3150183150183152,-0.8840048840048841,-1.5470085470085468,0.0,-3.4375,1.03125,5.354090354090353,-1.7863247863247864,0.0,-1.375,-5.0625,0.0,1.8083028083028083,0.0,0.0,-1.46875,-5.6875,-0.625,-1.7533577533577531,1.5396825396825398,-0.5006105006105006,-0.75,-4.625,0.0,-2.4029304029304033,2.139194139194139,-1.5018315018315018,0.0,-2.84375,0.5625,1.5189255189255189,-0.557997557997558,-2.3772893772893773,0.0,-2.28125,0.8125,3.477411477411477,-0.8461538461538461,-2.0183150183150182,0.0,-3.09375,0.0,2.4297924297924296,0.0,-2.0073260073260077,-0.90625,-3.65625,0.0,-0.5811965811965812,1.7973137973137974,-1.9133089133089132,-0.5625,-2.875,0.0,-1.434676434676435,2.1770451770451764,-2.31013431013431,0.0,-1.625,0.5625,1.7814407814407816,0.0,-1.9426129426129424,0.0,-1.46875,0.65625,1.6446886446886446,0.0,-1.6935286935286935,0.0,-1.65625,0.0,0.0,1.1965811965811963,-1.103785103785104,0.0,-1.6875,0.0,0.0,1.1562881562881564,-1.4090354090354091,0.0,-1.125,0.53125,1.3284493284493284,0.0,-1.8083028083028083,0.0,-0.71875,0.71875,1.0402930402930404,0.0,-2.166056166056166,0.0,0.0,0.65625,1.706959706959707,0.0,-2.4065934065934065,0.0,0.0,0.6875,2.3064713064713063,0.0,-2.0268620268620268,0.0,0.0,0.59375,2.0463980463980462,0.0,-1.8229548229548234,0.0,0.0,0.0,2.0415140415140414,0.0,-1.5885225885225884,0.0,0.0,0.0,1.434676434676435,0.0,-1.2893772893772897,0.0,0.0,0.0,0.7973137973137974,0.0,-0.8376068376068376,0.0,0.0,0.0,0.6105006105006106,0.0,0.0,0.0,0.0,0.0,0.5811965811965812,0.0,0.0,0.0,0.0,0.0,0.0,0.0,0.0,0.0,0.0,0.0,,,,,,,,,,,,,,,,,,,,,,,,,startR
accX,-1.9010989010989008,0.0,-4.493284493284493,-0.8125,-1.125,0.0,-1.612942612942613,0.0,-4.107448107448107,-1.28125,-1.46875,0.0,-0.9877899877899878,0.0,-3.910866910866911,-1.78125,-1.96875,0.0,-0.971916971916972,0.0,-2.93040293040293,-2.0,-2.59375,0.0,-2.4285714285714284,0.5323565323565324,-2.1343101343101343,-2.03125,-2.90625,0.0,-2.7753357753357752,-0.7094017094017094,-2.010989010989011,-2.25,-2.84375,0.0,-1.0085470085470083,0.0,-1.0744810744810744,-2.5625,-3.25,0.0,0.0,0.0,0.0,-2.90625,-4.21875,0.0,-0.7264957264957265,2.421245421245421,1.3614163614163617,-2.9375,-6.21875,0.0,-2.175824175824176,3.829059829059829,0.7802197802197802,-2.40625,-6.65625,0.0,-1.8925518925518925,3.47008547008547,-0.5091575091575091,-2.21875,-6.625,0.0,0.0,4.808302808302808,0.0,-2.78125,-6.96875,-0.6875,2.096459096459097,3.627594627594628,2.8205128205128207,-3.53125,-8.59375,-1.125,0.0,1.175824175824176,4.837606837606837,-3.875,-10.0625,-1.71875,-3.021978021978022,0.9474969474969476,3.137973137973138,-3.0625,-9.3125,-2.0625,-2.796092796092796,0.9304029304029304,0.5445665445665445,-1.6875,-7.34375,-1.46875,-1.1416361416361416,0.0,-0.6568986568986569,-0.9375,-5.9375,-0.75,0.0,0.0,-0.5433455433455433,-0.75,-5.53125,-0.625,0.0,0.5421245421245421,0.0,-0.6875,-5.8125,-0.90625,-2.717948717948718,0.7484737484737485,-2.0549450549450547,0.0,-4.6875,-0.65625,-3.56043956043956,1.1001221001221002,-3.5091575091575087,0.0,-2.90625,0.0,0.0,0.9829059829059827,-3.101343101343101,0.5625,-2.21875,0.59375,0.7301587301587301,0.0,-2.7448107448107453,0.0,-2.28125,0.59375,0.7496947496947497,0.0,-2.9194139194139197,0.0,-2.3125,0.5625,0.7765567765567766,0.0,-2.9108669108669107,0.0,-2.09375,0.59375,0.6752136752136753,0.6263736263736264,-2.7252747252747254,0.0,-1.71875,0.65625,1.6105006105006106,0.0,-2.627594627594628,0.0,-1.71875,0.59375,1.115995115995116,0.0,-2.0427350427350426,0.0,-1.875,0.0,0.0,1.2539682539682542,-1.7728937728937728,0.0,-1.59375,0.625,0.0,0.6459096459096461,-2.2185592185592187,0.6875,-1.03125,0.84375,1.3296703296703296,0.0,-2.5409035409035408,0.53125,-0.6875,0.84375,1.931623931623932,0.0,-2.6434676434676434,0.0,0.0,0.71875,1.9938949938949944,0.0,-2.4505494505494507,0.0,0.0,0.6875,2.1123321123321124,0.0,-2.1111111111111107,0.0,0.0,0.5625,2.4786324786324787,0.0,-1.641025641025641,0.0,0.0,0.0,1.684981684981685,0.0,-1.2063492063492065,0.0,0.0,0.0,1.0390720390720392,0.0,-0.8583638583638583,0.0,0.0,0.0,0.0,0.0,0.0,0.0,0.0,0.0,0.0,0.0,0.0,0.0,0.0,0.0,0.9023199023199024,-0.6422466422466423,0.0,0.0,0.0,0.0,0.5164835164835165,-0.514041514041514,0.0,0.0,0.0,0.0,,,,,,,,,,,,,,,,,,,,,,,,,,,,,,,,,,,,,,,,,,,startR
accX,-2.7460317460317465,-0.5299145299145299,-4.1159951159951165,-0.96875,-0.6875,0.0,-2.418803418803418,0.0,-3.1037851037851034,-1.21875,-0.75,0.0,-1.7435897435897436,0.0,-2.625152625152625,-1.375,-0.96875,0.0,-0.6825396825396826,-0.9072039072039072,-2.1233211233211238,-1.8125,-1.75,0.0,0.0,-0.9023199023199024,-1.382173382173382,-2.1875,-2.8125,0.0,-1.9206349206349207,0.0,-0.57997557997558,-2.28125,-3.53125,0.0,-1.9743589743589745,1.0463980463980465,-0.5738705738705738,-2.28125,-3.90625,0.0,-0.6117216117216118,1.3357753357753357,0.0,-2.4375,-4.625,0.0,0.5531135531135531,2.1233211233211238,0.6068376068376068,-2.65625,-6.0,0.0,-3.272283272283272,3.9194139194139193,1.6581196581196582,-2.75,-6.625,0.0,-6.366300366300366,6.252747252747253,2.0463980463980462,-2.40625,-5.90625,0.0,-3.4737484737484734,6.738705738705739,1.2551892551892552,-2.1875,-5.3125,1.125,1.8571428571428568,4.9682539682539675,1.7264957264957266,-2.4375,-6.40625,1.125,0.7423687423687424,3.407814407814408,2.68986568986569,-2.46875,-6.875,0.0,-0.7326007326007326,2.669108669108669,2.191697191697192,-1.71875,-6.3125,0.0,1.020757020757021,2.034188034188034,0.0,-1.3125,-5.90625,0.5625,0.0,0.9365079365079364,0.0,-1.09375,-5.90625,0.0,0.0,0.5921855921855922,-1.028083028083028,-1.0,-5.375,0.0,1.387057387057387,0.0,-1.391941391941392,-0.875,-4.65625,0.53125,3.507936507936508,0.0,-0.778998778998779,-1.03125,-4.75,0.0,2.4945054945054945,0.0,-0.8290598290598291,-1.15625,-5.375,0.0,0.7081807081807082,0.0,-1.4529914529914532,-1.1875,-5.59375,-0.65625,0.0,0.0,-1.7680097680097682,-1.1875,-5.125,-0.71875,0.0,0.0,-1.6703296703296704,-1.09375,-4.53125,-0.59375,0.0,1.2161172161172158,-1.5909645909645909,-0.875,-4.03125,0.0,-1.271062271062271,2.0976800976800978,-2.131868131868132,0.0,-3.15625,0.0,-0.6764346764346765,1.2612942612942613,-3.195360195360196,0.0,-1.6875,0.8125,1.5042735042735045,0.0,-3.7863247863247858,0.0,-1.28125,0.90625,2.1684981684981683,0.0,-3.578754578754579,0.0,-1.1875,0.6875,1.6605616605616609,0.0,-3.003663003663004,0.0,-0.90625,0.65625,1.4761904761904765,0.0,-2.23931623931624,0.0,0.0,0.71875,2.3369963369963367,0.0,-2.0854700854700856,0.0,0.0,0.65625,2.584859584859585,0.0,-1.7533577533577531,0.0,-0.65625,0.0,1.2185592185592184,0.0,-1.3272283272283272,0.0,0.0,0.0,0.7374847374847375,0.0,-0.7191697191697192,0.0,0.0,0.0,0.9804639804639804,0.0,0.0,0.0,0.0,0.53125,0.9365079365079364,0.0,0.0,0.0,0.0,0.53125,1.326007326007326,0.0,0.0,0.0,0.0,0.0,1.3553113553113554,-0.7045177045177046,-0.7582417582417582,0.0,0.0,0.0,0.0,0.0,0.0,0.0,0.0,0.0,0.0,0.0,0.0,0.0,0.0,0.0,0.0,0.0,0.0,0.0,0.0,0.0,0.0,0.0,0.0,0.0,0.53125,0.0,,,,,,,,,,,,,,,,,,,,,,,,,,,,,,,startR
accX,-1.656898656898657,0.0,-2.57997557997558,-0.84375,-0.65625,0.0,-1.4481074481074483,-0.5934065934065934,-3.021978021978022,-1.15625,-1.0,0.0,-1.0683760683760684,0.0,-2.5775335775335777,-1.4375,-1.40625,0.0,0.0,0.0,-2.3663003663003663,-1.71875,-2.0,0.59375,-1.6752136752136753,0.0,-2.3821733821733817,-1.78125,-2.53125,0.0,-1.338217338217338,-1.0683760683760684,-2.2600732600732596,-1.78125,-2.59375,0.0,0.0,-0.5860805860805861,-1.0695970695970696,-2.1875,-3.09375,0.0,2.8962148962148966,0.0,0.0,-2.875,-5.8125,0.0,2.0207570207570207,2.5750915750915757,2.5494505494505493,-2.9375,-8.03125,0.0,-2.8913308913308917,3.824175824175824,2.683760683760684,-2.5,-8.34375,-0.5625,-4.371184371184371,4.816849816849817,1.166056166056166,-2.28125,-7.15625,0.0,0.0,5.934065934065933,1.3907203907203909,-2.28125,-7.125,0.0,1.5738705738705738,5.001221001221001,2.717948717948718,-2.0625,-7.8125,0.0,-1.376068376068376,3.93040293040293,2.4884004884004884,-1.25,-7.15625,0.0,-1.5555555555555556,1.912087912087912,0.0,-0.5625,-5.6875,0.59375,1.7277167277167278,0.0,-1.3553113553113554,-0.78125,-5.3125,0.0,2.340659340659341,0.0,-0.8925518925518926,-1.25,-5.78125,0.0,0.0,0.7875457875457875,-0.5763125763125763,-1.15625,-5.5,0.0,0.0,0.6886446886446886,-0.8437118437118437,-0.71875,-4.6875,0.0,1.362637362637363,-1.0952380952380951,-1.962148962148962,-0.75,-4.4375,0.0,0.0,0.0,-1.3614163614163617,-1.1875,-4.5625,-0.65625,-1.6459096459096458,1.4884004884004884,-1.0305250305250304,-1.1875,-4.28125,0.0,-2.192918192918193,1.7716727716727716,-1.6727716727716728,-0.53125,-3.125,0.0,-0.5482295482295483,0.5665445665445665,-2.4432234432234434,0.0,-1.78125,0.75,1.6996336996336996,-1.0085470085470083,-3.0476190476190474,0.0,-1.21875,1.0,2.1367521367521367,-0.663003663003663,-2.6300366300366296,0.0,-1.46875,0.75,0.9963369963369964,0.0,-1.9743589743589745,0.0,-1.59375,0.53125,0.6776556776556777,0.989010989010989,-1.4957264957264955,0.0,-1.28125,0.53125,1.3992673992673992,0.0,-1.47985347985348,0.0,-0.90625,0.75,1.934065934065934,0.0,-1.7118437118437118,0.0,-0.71875,0.71875,1.9914529914529917,0.0,-1.5531135531135531,0.0,-0.8125,0.0,1.4456654456654456,0.0,-1.1245421245421243,0.0,-0.8125,0.0,0.6959706959706959,0.8595848595848596,-0.5103785103785103,0.0,-0.5625,0.0,0.7264957264957265,0.7313797313797313,-0.5653235653235653,0.0,0.0,0.5625,1.266178266178266,0.0,-0.7948717948717948,0.0,0.0,0.53125,1.4114774114774116,0.0,-0.8571428571428571,0.0,0.0,0.0,1.8656898656898655,0.0,-0.7802197802197802,0.0,0.0,0.0,1.468864468864469,0.0,-0.5238095238095238,0.0,0.0,0.0,0.6923076923076923,0.0,0.0,0.0,0.0,0.0,0.0,0.0,0.0,0.0,0.0,0.0,0.0,0.0,0.0,0.0,0.0,0.0,0.7851037851037851,0.0,0.0,0.0,0.0,0.0,0.0,0.0,0.0,0.0,0.0,0.0,,,,,,,,,,,,,,,,,,,,,,,,,,,,,,,startR
accX,0.0,0.0,-2.85958485958486,-1.625,-2.3125,0.0,0.5641025641025641,-1.1868131868131868,-2.062271062271062,-2.09375,-3.71875,0.0,-2.1794871794871797,0.0,-1.4383394383394383,-2.5625,-4.90625,0.0,-3.7570207570207566,0.0,-1.3150183150183148,-2.65625,-4.8125,0.0,-1.9902319902319905,0.0,-0.6886446886446886,-2.53125,-4.28125,0.0,0.0,0.7704517704517705,0.0,-2.46875,-4.65625,0.0,-2.2576312576312576,1.4407814407814408,0.8962148962148963,-2.40625,-5.46875,0.0,-2.63980463980464,3.4236874236874235,0.9145299145299144,-2.0625,-5.40625,0.5625,0.0,4.411477411477412,0.6166056166056166,-1.625,-5.21875,1.0625,1.9255189255189256,4.5628815628815635,0.0,-1.84375,-5.875,0.0,-2.5641025641025643,6.0,1.2698412698412698,-2.4375,-6.40625,0.0,-5.039072039072039,7.288156288156288,0.57997557997558,-1.59375,-4.6875,1.21875,-1.8058608058608057,5.450549450549451,-0.5885225885225885,-0.875,-3.53125,2.25,4.162393162393163,2.421245421245421,-0.5115995115995116,-1.28125,-4.53125,1.5625,4.880341880341881,0.0,0.0,-2.375,-6.34375,0.0,-0.7777777777777778,1.3846153846153846,0.6727716727716728,-2.5625,-6.40625,0.0,-2.9181929181929176,2.8083028083028077,0.0,-1.59375,-4.71875,0.0,1.2332112332112333,1.155067155067155,-1.2026862026862026,-0.9375,-3.875,0.71875,3.3150183150183152,0.0,-1.2039072039072038,-1.03125,-4.4375,0.0,2.415140415140415,-1.1282051282051282,-0.8901098901098901,-1.53125,-5.0625,0.0,-0.7289377289377289,0.7912087912087912,-1.0024420024420024,-1.125,-4.1875,0.0,0.0,1.2417582417582418,-1.7472527472527473,0.0,-3.15625,0.0,2.7851037851037854,-1.3882783882783882,-2.294261294261294,-0.78125,-3.65625,0.0,1.4615384615384617,-0.663003663003663,-1.709401709401709,-1.46875,-4.21875,-0.75,-0.7216117216117216,1.3028083028083028,-1.4432234432234432,-1.46875,-3.875,-0.8125,-1.5543345543345544,2.5702075702075704,-1.695970695970696,-0.71875,-2.75,0.0,0.0,1.380952380952381,-2.4725274725274726,0.0,-1.5,0.0,1.9242979242979243,0.0,-3.003663003663004,0.0,-0.96875,0.65625,2.58974358974359,-0.5628815628815629,-3.241758241758242,0.0,-0.71875,0.53125,2.4590964590964592,0.0,-2.4932844932844933,0.0,-0.5625,0.0,1.5763125763125765,0.5494505494505495,-1.6556776556776556,0.0,0.0,0.0,1.051282051282051,0.8351648351648352,-0.7912087912087912,0.0,0.0,0.0,2.0525030525030523,0.0,0.0,0.0,0.0,0.0,2.5225885225885225,0.0,-0.7179487179487181,0.0,0.0,0.0,1.3882783882783882,0.0,-0.6349206349206349,0.0,0.0,0.0,0.0,0.5702075702075702,0.0,0.0,0.0,0.0,0.0,0.5091575091575091,0.0,0.0,0.0,0.0,0.0,0.0,0.0,0.0,0.0,0.0,0.0,0.0,0.0,0.0,0.0,0.0,,,,,,,,,,,,,,,,,,,,,,,,,,,,,,,,,,,,,,,,,,,,,,,,,,,,,,,startR
accX,-3.1807081807081805,0.6813186813186813,-4.219780219780221,-1.125,-0.90625,0.0,-2.514041514041514,0.0,-3.4908424908424913,-1.40625,-1.09375,0.0,-1.5531135531135531,0.0,-2.8180708180708183,-1.71875,-1.75,0.0,-0.5750915750915749,-0.5995115995115995,-2.2844932844932844,-2.125,-2.90625,0.0,-0.956043956043956,-0.7106227106227107,-1.6556776556776556,-2.5,-4.0625,-0.5625,-3.5347985347985347,0.0,-1.1428571428571428,-2.5625,-4.34375,-0.65625,-3.3076923076923075,0.7814407814407814,-0.5702075702075702,-2.75,-4.5625,0.0,4.896214896214897,0.8168498168498168,2.1465201465201464,-3.125,-6.5,0.0,2.667887667887668,1.286935286935287,4.0927960927960925,-3.125,-9.15625,-1.5625,-4.075702075702075,2.225885225885226,4.1391941391941405,-3.03125,-10.5,-2.5,-4.548229548229548,5.570207570207571,2.7448107448107453,-2.78125,-9.3125,-2.09375,-1.4456654456654456,2.166056166056166,2.2808302808302807,-2.15625,-8.15625,-1.34375,-1.2246642246642248,1.52014652014652,1.5299145299145298,-1.4375,-7.625,-0.9375,-1.7216117216117215,-0.6800976800976801,0.0,-0.96875,-7.15625,-0.59375,-0.6434676434676435,-1.5274725274725274,-0.6898656898656899,-1.21875,-6.625,-0.71875,-0.5616605616605617,-0.6617826617826618,0.0,-1.25,-5.96875,-1.0,0.0,0.5262515262515263,0.0,-1.0,-5.34375,-0.96875,-0.9377289377289376,1.3064713064713065,0.5384615384615384,-0.53125,-4.8125,-0.8125,-2.128205128205128,2.139194139194139,0.5702075702075702,0.0,-3.90625,0.0,-3.0525030525030523,1.3772893772893773,-0.8290598290598291,0.8125,-2.8125,0.0,-1.9938949938949944,0.6568986568986569,-2.105006105006105,0.875,-2.0,0.625,0.0,0.6947496947496947,-1.7692307692307692,0.78125,-1.84375,0.6875,1.7704517704517704,0.0,-1.4554334554334554,0.0,-2.375,0.0,0.518925518925519,1.1404151404151404,-0.8693528693528694,0.0,-2.6875,0.0,-0.8742368742368742,1.0964590964590966,-1.5470085470085468,0.65625,-2.21875,0.0,0.0,0.0,-2.84004884004884,0.65625,-1.75,0.5625,1.3345543345543345,0.0,-2.937728937728938,0.0,-1.8125,0.0,0.7728937728937729,0.0,-2.3150183150183152,0.0,-1.75,0.0,0.9255189255189256,0.8620268620268621,-2.1746031746031744,0.0,-1.59375,0.0,1.144078144078144,0.0,-2.2210012210012207,0.625,-1.46875,0.0,1.286935286935287,-0.7606837606837606,-3.8339438339438336,0.0,-0.96875,0.0,1.5543345543345544,0.0,-3.2954822954822958,0.0,-0.59375,0.0,1.927960927960928,0.0,-2.4224664224664223,0.0,0.0,0.0,2.2783882783882783,0.0,-1.9926739926739927,0.0,0.0,0.0,2.652014652014652,0.0,-1.9072039072039075,0.0,0.0,0.0,1.8107448107448108,0.0,-1.5836385836385836,0.0,0.0,0.0,1.1538461538461535,0.0,-0.8388278388278388,0.0,0.0,0.0,1.4505494505494505,0.0,0.0,0.0,0.0,0.0,1.5909645909645909,0.0,0.0,0.0,0.0,0.0,1.1404151404151404,0.0,0.0,0.0,0.0,0.0,0.6043956043956044,0.0,0.0,0.0,0.0,0.0,0.0,0.0,0.0,0.0,0.0,0.0,0.0,0.0,0.0,0.0,0.0,0.0,0.0,0.0,0.0,0.0,0.0,0.0,0.0,0.0,0.0,0.0,0.0,0.0,-0.5946275946275946,0.0,0.0,0.0,0.0,0.0,,,,,,,,,,,,,startR
accX,-2.137973137973138,-0.9242979242979243,-5.566544566544566,-1.0625,-0.75,0.0,-2.571428571428572,0.0,-4.495726495726496,-1.3125,-1.03125,0.0,-3.1807081807081805,0.0,-3.8180708180708174,-1.53125,-1.21875,0.0,-3.2869352869352872,0.0,-3.936507936507936,-1.625,-1.3125,0.65625,-2.1086691086691087,-0.8315018315018315,-4.05006105006105,-2.03125,-1.6875,0.78125,-2.52014652014652,-1.5335775335775337,-3.3565323565323566,-2.5625,-2.0,0.71875,-2.6043956043956045,-0.6459096459096461,-1.9914529914529917,-2.65625,-2.21875,0.59375,0.0,-1.0793650793650793,-0.5811965811965812,-2.8125,-3.15625,0.0,1.4017094017094016,0.0,0.7032967032967034,-3.03125,-4.84375,0.0,-0.7167277167277167,1.7179487179487178,1.4395604395604396,-2.875,-5.96875,0.0,-2.6129426129426134,2.7533577533577533,1.166056166056166,-2.65625,-6.28125,0.0,-4.017094017094017,3.525030525030525,0.8534798534798534,-2.4375,-5.375,0.78125,1.943833943833944,5.035409035409035,1.3956043956043955,-2.28125,-5.59375,1.0,3.947496947496948,5.747252747252747,1.752136752136752,-2.09375,-6.625,0.875,2.7326007326007327,3.8913308913308913,1.1367521367521367,-2.25,-7.90625,0.0,0.0,1.7728937728937728,0.0,-2.5625,-8.28125,-0.90625,0.0,1.2148962148962148,0.0,-2.40625,-7.625,-0.84375,0.0,1.3785103785103785,0.0,-1.90625,-6.875,-0.625,0.0,1.4871794871794872,-0.6568986568986569,-1.15625,-6.0,0.0,1.123321123321123,0.0,-1.8180708180708183,-0.71875,-5.28125,0.0,2.484737484737485,-1.164835164835165,-2.7997557997558,-0.9375,-4.96875,0.0,2.2722832722832718,0.0,-1.9865689865689864,-1.4375,-5.25,0.0,0.8168498168498168,0.6923076923076923,-1.608058608058608,-1.4375,-5.25,-0.8125,-1.3614163614163617,1.5567765567765568,-1.6336996336996337,-0.59375,-3.9375,0.0,-1.3174603174603174,1.678876678876679,-1.678876678876679,0.0,-2.6875,0.0,1.5628815628815629,0.0,-2.5689865689865687,0.0,-2.1875,0.5625,1.968253968253968,0.0,-2.8107448107448105,0.0,-2.15625,0.0,0.6617826617826618,0.7435897435897436,-3.025641025641025,0.0,-1.65625,0.5625,1.9731379731379728,0.0,-2.6727716727716726,0.0,-1.46875,0.65625,2.554334554334554,0.0,-1.7826617826617828,0.0,-1.65625,0.5625,0.9133089133089132,0.0,-1.3894993894993894,0.0,-1.3125,0.0,0.63003663003663,0.0,-1.358974358974359,0.0,-0.5625,0.65625,2.017094017094017,0.568986568986569,-1.1257631257631258,0.0,0.0,0.71875,2.642246642246642,0.0,-1.264957264957265,0.0,0.0,0.5625,1.8559218559218558,0.0,-1.2967032967032968,0.0,0.0,0.0,1.6507936507936507,0.0,-0.984126984126984,0.0,0.0,0.0,1.5897435897435896,0.0,-0.8998778998778999,0.0,0.0,0.0,1.5897435897435896,0.0,-0.8742368742368742,0.0,0.0,0.0,0.8095238095238095,0.0,-0.5409035409035409,0.0,0.0,0.0,0.0,0.0,0.0,0.0,0.0,0.0,,,,,,,,,,,,,,,,,,,,,,,,,,,,,,,,,,,,,,,,,,,,,,,,,startR
accX,-1.1477411477411477,-1.5006105006105006,-3.611721611721612,-1.3125,-1.125,0.0,-2.4029304029304033,0.0,-2.664224664224664,-1.96875,-1.625,0.0,-1.6324786324786325,0.0,-1.9218559218559217,-2.09375,-1.71875,0.0,0.0,0.0,-1.5921855921855919,-2.03125,-1.96875,0.75,0.0,0.0,-1.6019536019536018,-1.875,-2.5625,0.75,-1.6263736263736264,-1.9206349206349207,-2.7557997557997562,-1.8125,-2.90625,0.5625,-0.8034188034188035,-1.6312576312576312,-2.064713064713065,-2.28125,-2.8125,0.0,1.5775335775335777,0.0,0.0,-2.75,-3.21875,0.0,2.8583638583638584,1.5848595848595848,1.0158730158730158,-2.875,-4.375,0.0,2.84981684981685,2.761904761904762,1.3772893772893773,-2.75,-5.8125,0.0,-1.7533577533577531,2.4786324786324787,0.5860805860805861,-2.65625,-7.0,-0.78125,-2.9365079365079363,4.0647130647130645,0.0,-2.8125,-5.78125,0.0,1.5238095238095235,5.815628815628816,0.8253968253968254,-2.6875,-5.5625,0.0,4.771672771672772,5.854700854700853,2.4993894993894994,-2.46875,-6.75,-0.5625,2.2588522588522593,3.851037851037851,2.9670329670329667,-2.15625,-7.65625,-1.09375,-2.3492063492063493,3.1294261294261294,1.575091575091575,-1.46875,-6.65625,-0.59375,-2.5286935286935286,2.7203907203907205,-0.7350427350427351,-0.8125,-4.875,0.0,2.023199023199023,1.7594627594627594,-0.8290598290598291,-0.625,-4.53125,0.0,3.240537240537241,1.2002442002442002,0.0,-0.78125,-5.375,0.0,1.5067155067155067,0.0,0.0,-0.875,-5.75,0.0,0.0,0.0,-1.1562881562881564,-1.125,-5.375,0.0,0.0,0.0,-1.2307692307692308,-1.125,-4.6875,0.0,0.9157509157509156,0.0,-1.3345543345543345,-0.9375,-4.3125,0.0,-1.6434676434676434,1.4114774114774116,-0.7045177045177046,-0.75,-3.96875,0.0,0.0,0.0,-1.3186813186813189,0.0,-3.25,0.0,0.0,0.0,-1.9096459096459095,0.0,-2.65625,0.0,0.0,0.0,-2.068376068376069,0.0,-2.0625,0.0,1.3772893772893773,0.0,-2.33943833943834,0.0,-1.71875,0.0,1.2466422466422469,0.0,-2.4932844932844933,0.0,-1.5625,0.0,1.5921855921855919,0.0,-2.6581196581196584,0.0,-1.1875,0.0,3.3992673992673987,-0.78998778998779,-2.851037851037851,0.0,-0.96875,0.0,2.965811965811966,0.0,-2.21978021978022,0.0,-1.40625,0.0,0.0,0.7008547008547008,-1.6031746031746033,0.0,-1.34375,0.0,0.0,0.978021978021978,-1.115995115995116,0.0,-0.5625,0.0,0.7020757020757019,0.5897435897435898,-0.6105006105006106,0.0,0.0,0.0,1.2063492063492065,0.0,-0.5909645909645911,0.0,0.0,0.0,1.608058608058608,0.0,-0.6764346764346765,0.0,0.0,0.0,0.5518925518925519,0.0,0.0,0.0,0.0,0.0,,,,,,,,,,,,,,,,,,,,,,,,,,,,,,,,,,,,,,,,,,,,,,,,,,,,,,,,,,,,,startR
accX,0.0,0.0,-1.8632478632478635,-1.21875,-0.71875,0.0,0.0,0.0,-2.092796092796093,-1.59375,-1.25,0.0,0.0,0.0,-1.9365079365079363,-1.9375,-1.84375,0.0,-1.290598290598291,0.0,-1.557997557997558,-2.03125,-2.125,0.0,-1.565323565323565,0.0,-1.2148962148962148,-2.125,-2.40625,0.0,-0.6642246642246642,0.0,-0.7985347985347986,-2.15625,-2.90625,0.0,0.0,0.0,-0.5421245421245421,-2.34375,-3.65625,0.0,-1.1452991452991452,1.1074481074481075,0.0,-2.46875,-4.28125,0.0,-3.2991452991452985,1.8107448107448108,0.0,-2.28125,-4.03125,0.59375,-3.5091575091575087,2.4590964590964592,0.0,-1.9375,-3.53125,1.59375,1.1391941391941391,1.7667887667887667,0.0,-1.875,-4.0625,1.46875,0.0,2.6092796092796093,0.0,-2.28125,-4.875,0.75,-1.8327228327228329,4.188034188034188,0.0,-2.375,-4.71875,0.0,0.0,5.118437118437118,0.0,-1.96875,-3.75,1.0,3.887667887667888,4.017094017094017,0.0,-1.8125,-3.71875,1.09375,5.410256410256411,3.0390720390720385,0.6825396825396826,-2.21875,-5.28125,0.0,1.2258852258852257,2.5067155067155067,0.7667887667887668,-2.6875,-6.5,-0.53125,-0.8485958485958486,2.6630036630036633,0.0,-2.59375,-6.0,-0.6875,0.5482295482295483,2.2051282051282053,0.0,-1.875,-4.6875,0.0,3.5873015873015874,0.8253968253968254,0.0,-1.34375,-4.125,0.0,4.021978021978022,0.0,0.0,-1.53125,-4.90625,0.0,1.2014652014652014,-0.7655677655677655,0.0,-2.375,-5.96875,-1.21875,-1.3015873015873016,0.818070818070818,0.5457875457875457,-2.15625,-5.3125,-1.09375,-2.1233211233211238,2.05982905982906,0.0,-1.34375,-4.0625,0.0,0.0,1.0964590964590966,0.0,-0.75,-3.4375,0.0,0.0,0.0,-0.5018315018315018,-0.65625,-3.3125,0.0,0.8705738705738706,-0.6593406593406593,-0.7863247863247863,-0.90625,-3.375,0.0,0.0,0.0,-0.8083028083028083,-0.90625,-3.15625,0.0,-0.5885225885225885,1.3565323565323566,-0.8913308913308914,0.0,-2.375,0.0,0.0,0.8095238095238095,-1.3247863247863247,0.0,-1.78125,0.0,1.2234432234432235,0.0,-1.1697191697191698,0.0,-1.65625,0.0,0.9145299145299144,0.0,-1.0451770451770452,0.0,-1.46875,0.0,1.3968253968253967,0.0,-1.7606837606837606,0.0,-1.15625,0.65625,2.6324786324786325,0.0,-2.455433455433456,0.0,-0.59375,0.59375,2.769230769230769,-0.7435897435897436,-2.1880341880341883,0.0,0.0,0.0,2.5824175824175826,-0.6398046398046398,-1.794871794871795,0.0,-0.53125,0.0,1.9987789987789988,0.0,-1.2466422466422469,0.0,-0.6875,0.0,0.7411477411477412,0.7460317460317459,-0.6923076923076923,0.0,-0.59375,0.0,0.7765567765567766,0.0,0.0,0.0,0.0,0.0,0.706959706959707,0.0,0.0,0.0,0.0,0.0,,,,,,,,,,,,,,,,,,,,,,,,,,,,,,,,,,,,,,,,,,,,,,,,,startR
accX,-0.5311355311355311,-0.6459096459096461,-1.2942612942612943,-1.90625,-3.28125,0.0,0.0,0.0,0.0,-2.03125,-4.53125,0.0,-2.9426129426129437,0.0,0.0,-2.375,-5.53125,0.0,-4.5738705738705745,0.0,-0.7460317460317459,-2.4375,-5.34375,0.0,-3.9621489621489614,1.0305250305250304,-0.6043956043956044,-2.25,-4.6875,0.0,-3.5409035409035408,2.072039072039072,0.0,-1.90625,-4.3125,0.59375,-0.9474969474969476,3.131868131868132,0.0,-1.59375,-4.0,1.0,0.9267399267399268,4.747252747252747,0.0,-1.625,-4.6875,1.15625,0.5909645909645911,7.004884004884005,0.0,-2.0625,-5.8125,0.0,-2.9365079365079363,5.951159951159951,0.7411477411477412,-1.96875,-5.5625,0.0,-2.8937728937728937,4.694749694749695,0.0,-1.34375,-4.5,0.84375,0.5860805860805861,2.7203907203907205,0.0,-1.0625,-4.34375,1.25,4.05006105006105,0.9951159951159952,1.1257631257631258,-1.34375,-5.59375,0.0,1.557997557997558,0.0,0.8449328449328449,-1.5625,-6.0,0.0,-1.5482295482295485,1.2893772893772897,0.0,-1.21875,-5.1875,0.0,-1.912087912087912,1.8070818070818069,-1.137973137973138,0.0,-3.5,0.8125,0.5213675213675214,1.0598290598290598,-1.7277167277167278,0.0,-2.46875,1.09375,4.4774114774114775,-1.1562881562881564,-1.934065934065934,0.0,-3.09375,0.71875,4.4603174603174605,-1.3076923076923077,-0.9218559218559218,-1.15625,-4.46875,0.0,1.2893772893772897,0.6385836385836385,0.0,-1.28125,-4.875,-0.75,-1.2307692307692308,1.804639804639805,-1.1489621489621489,0.0,-3.25,0.0,2.915750915750916,-0.956043956043956,-2.404151404151404,0.0,-3.125,0.0,0.8070818070818071,0.0,-1.0537240537240538,-1.0,-3.8125,0.0,-2.68986568986569,2.1794871794871797,0.0,-0.96875,-3.5625,-0.6875,-2.7814407814407813,2.5482295482295485,-0.8021978021978022,0.0,-2.46875,0.0,-0.7411477411477412,1.2319902319902318,-1.1904761904761905,0.0,-1.5625,0.65625,1.1343101343101345,0.0,-1.5714285714285714,0.0,-1.53125,0.65625,1.1172161172161172,0.0,-1.7582417582417582,0.0,-1.875,0.0,0.0,0.9157509157509156,-1.3614163614163617,0.0,-2.0,0.0,-0.5518925518925519,1.3479853479853479,-1.4407814407814408,0.0,-1.5,0.0,0.7264957264957265,0.0,-1.8485958485958487,0.0,-0.875,0.78125,2.115995115995116,-0.6593406593406593,-2.330891330891331,0.0,-0.625,0.78125,2.3968253968253967,0.0,-2.217338217338217,0.0,-0.78125,0.0,1.6141636141636142,0.0,-2.15995115995116,0.0,-0.53125,0.0,0.6642246642246642,0.0,-2.0695970695970702,0.0,0.0,0.0,0.9768009768009768,0.0,-1.8034188034188037,0.0,0.0,0.5625,2.6031746031746037,-0.5958485958485958,-1.5384615384615383,0.0,0.0,0.0,,,,,,,,,,,,,,,,,,,,,,,,,,,,,,,,,,,,,,,,,,,,,,,,,,,,,,,,,,,,,,,,,,,startR
accX,-1.8864468864468864,-0.7374847374847375,-2.912087912087912,-1.09375,-1.0625,0.0,-0.9389499389499391,-0.8925518925518926,-2.6971916971916974,-1.40625,-1.6875,0.0,0.0,-1.8302808302808304,-2.385836385836386,-2.03125,-2.6875,0.59375,-1.4761904761904765,-0.6971916971916972,-2.1465201465201464,-2.21875,-3.21875,0.0,-3.067155067155068,0.0,-2.053724053724053,-2.09375,-3.0,0.0,-1.9951159951159951,0.0,-1.7631257631257633,-2.03125,-2.78125,0.59375,0.8046398046398047,-0.8229548229548229,-0.8083028083028083,-2.40625,-3.6875,0.0,2.0463980463980462,0.0,0.8705738705738706,-2.71875,-5.5625,0.0,0.0,0.8888888888888888,1.3833943833943834,-2.59375,-6.625,-0.65625,-2.8864468864468864,2.4603174603174605,-1.2454212454212454,-2.25,-5.46875,0.0,0.7948717948717948,4.1440781440781445,0.0,-2.46875,-5.40625,0.0,0.0,7.018315018315017,1.1025641025641026,-2.59375,-6.4375,0.0,-2.291819291819292,5.461538461538462,0.6971916971916972,-2.09375,-6.15625,0.875,0.9523809523809524,2.683760683760684,0.0,-1.40625,-4.84375,1.375,4.177045177045176,1.133089133089133,0.0,-1.34375,-4.65625,0.78125,3.1465201465201464,1.0525030525030523,0.0,-1.65625,-5.65625,0.0,0.0,0.9658119658119658,0.0,-1.71875,-6.375,-0.625,-1.6251526251526252,1.1904761904761905,-0.5079365079365079,-1.28125,-5.53125,0.0,1.5018315018315018,0.568986568986569,-1.061050061050061,-0.71875,-4.25,0.0,4.343101343101344,-1.3785103785103785,-1.380952380952381,-0.71875,-4.375,0.0,1.815628815628816,-0.503052503052503,-0.7863247863247863,-1.34375,-5.25,-0.75,0.0,0.8925518925518926,-0.9609279609279608,-1.25,-4.875,-0.625,-1.9181929181929185,2.326007326007326,-1.4871794871794872,0.0,-3.4375,0.0,0.0,1.1147741147741148,-1.9975579975579976,0.0,-2.59375,0.0,0.5384615384615384,0.0,-1.6971916971916972,0.0,-2.53125,0.0,0.0,0.0,-1.5934065934065933,-0.65625,-2.46875,0.0,0.0,1.3040293040293038,-1.4957264957264955,0.0,-1.96875,0.0,0.0,1.1587301587301588,-1.7936507936507935,0.0,-1.375,0.625,2.1404151404151404,0.0,-1.7472527472527473,0.0,-1.4375,0.5625,1.943833943833944,0.0,-1.7277167277167278,0.0,-1.75,0.0,0.7240537240537241,0.0,-1.336996336996337,0.0,-1.78125,0.0,0.0,1.1709401709401708,-0.7606837606837606,0.0,-1.34375,0.0,0.0,1.1184371184371185,-0.5421245421245421,0.0,-0.6875,0.75,1.9377289377289375,-0.6373626373626373,-1.514041514041514,0.0,-0.71875,0.6875,2.15995115995116,-0.7545787545787546,-2.094017094017094,0.0,-0.625,0.0,2.263736263736264,0.0,-1.7301587301587302,0.0,-0.59375,0.0,1.2698412698412698,0.0,-1.3174603174603174,0.0,0.0,0.0,0.8253968253968254,0.0,-1.0024420024420024,0.0,0.0,0.0,1.2356532356532357,0.0,-0.9536019536019535,0.0,0.0,0.0,,,,,,,,,,,,,,,,,,,,,,,,,,,,,,,,,,,,,,,,,,,,,,,,,,,,,,,startR
accX,-0.8009768009768009,-0.9792429792429792,-2.862026862026862,-1.65625,-2.15625,0.0,-1.352869352869353,-1.1294261294261294,-2.5433455433455427,-2.09375,-3.0,0.0,-3.0488400488400487,0.0,-2.3724053724053724,-2.40625,-3.28125,0.0,-3.496947496947497,0.0,-1.8742368742368745,-2.21875,-2.90625,0.0,-1.7789987789987791,0.0,-1.6459096459096458,-2.0,-2.6875,0.6875,-1.619047619047619,-0.6129426129426129,-2.1147741147741153,-1.96875,-3.125,1.0,-2.5995115995116,0.0,-1.9853479853479852,-2.21875,-3.0625,1.03125,0.0,0.0,-1.321123321123321,-2.71875,-2.78125,1.125,4.970695970695972,1.5995115995115996,0.0,-3.09375,-5.15625,0.0,3.7045177045177047,4.495726495726496,2.4713064713064714,-3.0625,-7.28125,-0.59375,-2.5128205128205128,5.935286935286936,2.115995115995116,-2.53125,-7.21875,-0.625,-4.588522588522588,6.415140415140415,0.0,-1.78125,-5.5,0.0,0.0,4.713064713064713,0.0,-1.625,-4.8125,1.1875,3.912087912087912,3.0366300366300365,0.5592185592185592,-1.90625,-5.8125,0.65625,3.1257631257631258,1.7167277167277166,1.3333333333333333,-2.09375,-6.8125,0.0,0.0,1.2527472527472527,0.0,-1.75,-6.21875,0.0,-0.9658119658119658,0.8693528693528694,-1.1807081807081807,-1.3125,-4.75,0.0,2.761904761904762,0.0,-1.1831501831501832,-1.34375,-4.59375,0.0,4.549450549450549,0.0,0.0,-1.59375,-5.625,0.0,-1.9511599511599511,0.6862026862026862,-2.2783882783882783,-1.125,-4.875,0.0,0.0,0.0,-3.0415140415140414,-0.59375,-3.28125,0.0,3.5347985347985347,-0.8547008547008547,-2.94993894993895,0.0,-2.875,0.0,2.954822954822955,-1.0231990231990231,-2.094017094017094,-0.875,-3.5625,0.0,-0.6471306471306472,0.0,-1.0427350427350428,-1.1875,-4.0,-0.75,-2.8241758241758244,2.2527472527472527,0.0,-0.90625,-3.1875,0.0,0.0,0.8803418803418803,-1.0903540903540905,0.0,-1.90625,0.0,1.938949938949939,0.0,-1.6349206349206349,0.0,-1.75,0.65625,0.8815628815628815,0.0,-1.9548229548229548,0.0,-1.84375,0.0,0.0,0.0,-1.73992673992674,0.0,-1.46875,0.0,0.0,0.6715506715506715,-1.3308913308913308,0.0,-0.84375,0.0,1.4285714285714286,0.0,-1.242979242979243,0.0,-0.625,0.5625,1.2210012210012209,0.0,-1.2515262515262515,0.0,-0.625,0.0,1.7142857142857142,-0.5128205128205128,-1.338217338217338,0.0,-0.59375,0.0,1.164835164835165,0.0,-1.0793650793650793,0.0,0.0,0.0,0.851037851037851,0.0,-0.8144078144078144,0.0,0.0,0.0,0.0,0.0,-0.9035409035409036,0.0,0.0,0.0,1.4151404151404152,0.0,-1.1184371184371185,0.0,0.0,0.0,,,,,,,,,,,,,,,,,,,,,,,,,,,,,,,,,,,,,,,,,,,,,,,,,,,,,,,,,,,,,,,,,,,startR
accX,-1.2332112332112333,-1.4261294261294262,-3.836385836385837,-1.0625,-1.09375,0.0,-1.7301587301587302,-0.7863247863247863,-3.4444444444444446,-1.5625,-1.34375,0.0,-1.9377289377289375,0.0,-2.8083028083028077,-1.78125,-1.5625,0.0,-0.5934065934065934,0.0,-2.3455433455433456,-1.9375,-2.09375,0.59375,0.5909645909645911,0.0,-2.0012210012210008,-2.1875,-3.25,0.0,0.0,0.0,-1.3772893772893773,-2.53125,-4.375,0.0,-1.5531135531135531,0.5995115995115995,-0.7289377289377289,-2.6875,-4.6875,0.0,-1.0024420024420024,1.3064713064713065,0.0,-2.65625,-4.78125,0.0,1.387057387057387,2.103785103785104,1.1306471306471306,-2.53125,-5.5,0.0,2.021978021978022,2.122100122100122,1.4175824175824177,-2.625,-6.5625,-0.59375,-0.5921855921855922,4.306471306471306,1.7032967032967032,-2.8125,-6.8125,-0.84375,-0.7423687423687424,6.9413919413919425,1.9426129426129424,-2.65625,-6.65625,0.0,0.0,5.7533577533577525,1.2271062271062272,-2.15625,-6.8125,0.0,0.0,2.515262515262515,0.0,-1.90625,-6.34375,0.0,0.0,1.927960927960928,0.0,-1.84375,-5.71875,0.0,0.7448107448107448,1.2002442002442002,0.0,-1.625,-5.375,0.0,0.0,1.0366300366300367,0.6813186813186813,-1.5,-5.4375,0.0,-1.3882783882783882,1.2271062271062272,0.5946275946275946,-1.125,-5.28125,0.0,-0.5482295482295483,0.0,0.0,-0.59375,-4.5625,0.0,0.9963369963369964,0.0,-0.6324786324786325,-0.59375,-4.25,0.0,0.9169719169719168,0.0,0.0,-0.90625,-4.5,0.0,0.0,0.0,0.0,-1.03125,-4.78125,-0.6875,-0.873015873015873,0.7484737484737485,-0.8632478632478633,-0.90625,-4.71875,-0.59375,-0.811965811965812,0.6886446886446886,-1.293040293040293,0.0,-3.9375,0.0,-0.8217338217338217,0.78998778998779,-1.4969474969474967,0.0,-2.59375,0.0,0.0,0.8852258852258852,-1.47985347985348,0.0,-2.0,0.0,0.9279609279609279,0.6849816849816851,-1.9181929181929185,0.0,-1.78125,0.0,1.9035409035409037,0.0,-2.115995115995116,0.0,-1.9375,0.0,0.6825396825396826,0.6019536019536019,-2.045177045177045,0.0,-1.65625,0.0,0.0,0.8559218559218559,-1.5934065934065933,0.0,-1.25,0.0,1.3284493284493284,0.5311355311355311,-1.2588522588522588,0.0,-1.125,0.0,1.7264957264957266,0.5262515262515263,-1.0244200244200243,0.0,-1.125,0.0,1.2393162393162394,0.0,-1.5970695970695972,0.0,-0.9375,0.0,1.3504273504273503,0.0,-2.1294261294261294,0.0,-0.625,0.0,1.9902319902319905,0.0,-2.043956043956044,0.0,-0.625,0.0,0.9108669108669109,0.0,-1.3846153846153846,0.0,0.0,0.0,0.989010989010989,0.0,-1.0903540903540905,0.0,0.0,0.0,1.984126984126984,0.0,-0.993894993894994,0.0,0.0,0.0,1.9548229548229548,-0.5470085470085471,-0.9865689865689866,0.0,0.0,0.0,,,,,,,,,,,,,,,,,,,,,,,,,,,,,,,,,,,,,,,,,,,,,,,,,,,,,,,startR
accX,-0.63003663003663,0.0,-1.3467643467643469,-2.0,-2.78125,0.0,-1.7997557997557998,0.0,-1.1855921855921856,-2.09375,-3.34375,0.0,-2.4737484737484743,0.0,-0.8998778998778999,-2.15625,-3.3125,0.0,-2.0305250305250304,0.0,0.0,-2.125,-3.21875,0.0,-1.1965811965811963,0.8766788766788767,0.0,-2.0625,-3.28125,0.71875,-2.293040293040293,1.1318681318681318,0.0,-1.9375,-3.28125,0.90625,-1.4993894993894994,1.9768009768009769,0.0,-1.875,-2.9375,0.9375,0.0,2.6849816849816848,0.0,-1.84375,-3.03125,1.03125,2.5689865689865687,3.4371184371184373,0.0,-2.0625,-3.96875,1.0625,1.3272283272283272,4.343101343101344,1.2393162393162394,-2.34375,-5.5,0.71875,0.0,4.604395604395603,1.2210012210012209,-2.40625,-6.09375,0.0,-0.6007326007326007,4.7765567765567765,1.1428571428571428,-2.3125,-5.75,0.0,1.0012210012210012,4.388278388278389,0.9768009768009768,-2.09375,-5.75,0.0,1.5531135531135531,3.412698412698413,1.0598290598290598,-1.9375,-6.0625,0.0,0.0,2.094017094017094,0.0,-1.6875,-5.6875,0.0,0.0,1.0952380952380951,-0.5848595848595849,-1.40625,-4.84375,0.0,1.95970695970696,0.7777777777777778,-0.8083028083028083,-1.28125,-4.5,0.0,3.407814407814408,0.0,-0.6239316239316239,-1.4375,-5.0,0.0,2.7924297924297923,0.0,0.0,-1.75,-5.71875,-0.875,0.0,0.0,0.5946275946275946,-1.625,-5.65625,-1.0,0.0,0.0,-0.5164835164835165,-1.3125,-4.8125,-0.6875,0.0,0.568986568986569,-1.332112332112332,-0.90625,-3.78125,0.0,-0.7179487179487181,0.9316239316239316,-1.5128205128205128,-0.5625,-3.03125,0.0,-0.984126984126984,1.0561660561660562,-1.2466422466422469,0.0,-2.65625,0.0,0.0,0.9206349206349206,-1.4444444444444444,0.0,-2.21875,0.0,0.0,0.0,-1.7081807081807079,0.0,-1.84375,0.0,0.6190476190476191,0.0,-1.6300366300366298,0.0,-1.53125,0.53125,0.6617826617826618,0.0,-1.4542124542124542,0.0,-1.28125,0.53125,1.0463980463980465,0.0,-1.4395604395604396,0.0,-1.03125,0.625,1.6056166056166057,-0.5201465201465202,-1.656898656898657,0.0,-0.84375,0.59375,1.7838827838827842,-0.5067155067155067,-1.5604395604395604,0.0,-0.78125,0.0,1.2356532356532357,0.0,-1.4407814407814408,0.0,-0.65625,0.0,1.2112332112332111,0.0,-1.0671550671550671,0.0,0.0,0.0,0.8400488400488401,0.5311355311355311,-0.6031746031746031,0.0,0.0,0.0,1.126984126984127,0.5567765567765568,-0.5164835164835165,0.0,0.0,0.0,1.6691086691086692,0.0,-0.8644688644688645,0.0,0.0,0.0,1.6214896214896215,0.0,-1.122100122100122,0.0,0.0,0.0,,,,,,,,,,,,,,,,,,,,,,,,,,,,,,,,,,,,,,,,,,,,,,,,,,,,,,,,,,,,,,,,,,,startR
accX,-1.1245421245421243,0.0,-2.075702075702076,-1.40625,-1.9375,0.0,-1.083028083028083,-0.6422466422466423,-1.915750915750916,-1.75,-2.9375,0.0,-1.6117216117216118,-0.8583638583638583,-1.8705738705738704,-2.15625,-3.71875,0.0,-1.9902319902319905,-0.7203907203907204,-1.0757020757020757,-2.34375,-4.09375,0.0,-1.2246642246642248,0.0,0.0,-2.34375,-4.5,0.0,-4.0024420024420015,1.462759462759463,0.0,-2.03125,-4.09375,0.0,-3.5225885225885225,1.7826617826617828,-1.2173382173382172,-1.84375,-3.40625,0.5625,-2.1123321123321124,1.537240537240537,-1.3785103785103785,-2.21875,-3.4375,1.1875,-1.5726495726495726,3.241758241758242,0.0,-2.5625,-3.5625,1.5,0.0,4.786324786324786,0.9255189255189256,-2.46875,-3.65625,1.5625,4.126984126984127,5.954822954822955,2.142857142857143,-2.34375,-5.1875,1.125,3.5836385836385842,5.7985347985347975,3.0085470085470085,-2.3125,-7.09375,0.0,-3.0109890109890114,4.162393162393163,0.0,-2.4375,-6.53125,0.0,0.0,3.4725274725274726,-0.6324786324786325,-2.09375,-5.21875,0.71875,2.649572649572649,2.484737484737485,0.0,-1.875,-5.15625,0.6875,0.6398046398046398,1.9902319902319905,0.0,-1.78125,-6.03125,0.0,-0.6727716727716728,0.0,-1.4493284493284493,-1.4375,-5.65625,0.0,1.2686202686202686,0.0,-1.9609279609279608,-1.3125,-4.65625,0.0,4.140415140415141,-0.9816849816849816,-1.636141636141636,-1.21875,-4.3125,0.0,3.731379731379731,-0.7557997557997558,-0.9450549450549449,-1.3125,-4.90625,0.0,1.6862026862026862,0.0,0.0,-1.5,-5.625,-0.71875,-0.9145299145299144,0.0,-0.5079365079365079,-1.5625,-5.625,-0.90625,-2.211233211233212,1.4615384615384617,-1.3846153846153846,-1.15625,-4.5,-0.625,-1.978021978021978,1.757020757020757,-1.827838827838828,0.0,-2.53125,0.0,0.0,0.8315018315018315,-1.8620268620268619,0.0,-2.0625,0.625,1.3076923076923077,0.0,-1.4871794871794872,0.0,-2.125,0.53125,0.6373626373626373,0.0,-1.6642246642246643,0.0,-1.875,0.0,0.0,0.0,-1.927960927960928,0.0,-1.46875,0.625,0.7142857142857143,0.0,-1.881562881562881,0.0,-1.09375,0.71875,1.1782661782661783,0.0,-1.7167277167277166,0.0,-0.90625,0.75,1.332112332112332,0.0,-1.915750915750916,0.0,-0.65625,0.625,1.5177045177045176,0.0,-1.7301587301587302,0.0,0.0,0.53125,1.6678876678876684,0.0,-1.6031746031746033,0.0,0.0,0.0,1.9133089133089132,0.0,-1.4664224664224663,0.0,0.0,0.0,1.326007326007326,0.0,-0.9633699633699634,0.0,0.0,0.0,0.7081807081807082,0.0,-0.5811965811965812,0.0,0.0,0.0,0.8339438339438342,0.0,-0.5653235653235653,0.0,0.0,0.0,,,,,,,,,,,,,,,,,,,,,,,,,,,,,,,,,,,,,,,,,,,,,,,,,,,,,,,,,,,,,,,,,,,startR
accX,-1.4761904761904765,-0.9829059829059827,-3.0293040293040288,-1.0,-0.6875,0.0,-0.6239316239316239,-1.0744810744810744,-2.4249084249084247,-1.34375,-1.46875,0.0,-1.9743589743589745,-0.6556776556776557,-2.4871794871794872,-1.65625,-2.0625,0.0,-2.8974358974358974,-1.0268620268620268,-2.7008547008547015,-1.9375,-2.3125,0.0,-2.621489621489621,-1.137973137973138,-1.9792429792429795,-2.5,-2.5,0.6875,2.4017094017094016,-1.1868131868131868,0.0,-2.8125,-4.15625,0.0,0.0,-0.8632478632478633,1.6068376068376071,-2.875,-5.90625,0.0,-3.2283272283272284,0.0,1.0805860805860803,-2.65625,-6.34375,0.0,-3.0378510378510377,0.8095238095238095,0.0,-2.3125,-5.625,0.0,0.7716727716727717,2.5995115995116,0.0,-2.28125,-5.3125,0.625,2.681318681318681,5.577533577533577,2.063492063492064,-2.59375,-6.6875,0.0,-2.010989010989011,6.409035409035409,2.495726495726496,-2.625,-7.78125,0.0,-3.525030525030525,4.457875457875458,0.9914529914529916,-2.03125,-6.75,0.0,-0.8498168498168498,2.7313797313797314,0.0,-1.28125,-5.09375,0.65625,2.029304029304029,1.6935286935286935,-0.6068376068376068,-1.125,-4.625,1.0,1.8498168498168501,1.31013431013431,0.0,-1.40625,-5.25,0.0,-0.7216117216117216,1.4004884004884004,0.0,-1.3125,-5.0625,0.0,-1.1746031746031746,1.3455433455433456,-1.1294261294261294,-0.75,-3.8125,0.0,1.0976800976800978,0.5921855921855922,-1.7594627594627594,-0.53125,-3.21875,0.78125,2.9926739926739927,0.0,-1.5177045177045176,-0.78125,-3.625,0.0,3.388278388278388,-1.0183150183150182,-1.2722832722832722,-1.3125,-4.4375,0.0,2.340659340659341,-0.7435897435897436,-0.8351648351648352,-1.65625,-4.84375,0.0,0.6043956043956044,0.8095238095238095,-1.0146520146520146,-1.25,-4.1875,0.0,0.0,1.0488400488400489,-1.9462759462759465,-0.75,-3.21875,0.0,1.3540903540903542,0.0,-2.245421245421245,-0.71875,-2.8125,0.0,3.05006105006105,-0.8522588522588522,-1.6544566544566544,-1.09375,-3.28125,0.0,1.0671550671550671,0.5811965811965812,-0.6984126984126984,-1.0625,-3.3125,0.0,-1.2625152625152625,1.8620268620268619,-0.8107448107448108,0.0,-2.28125,0.0,1.166056166056166,0.0,-1.8669108669108667,0.0,-1.09375,0.75,2.844932844932845,-1.0671550671550671,-2.0415140415140414,0.0,-1.15625,0.53125,1.9633699633699635,0.0,-1.647130647130647,0.0,-1.5,0.0,0.8681318681318682,0.0,-1.5616605616605617,0.0,-1.34375,0.0,0.0,0.0,-1.2466422466422469,0.0,-0.8125,0.0,1.2026862026862026,0.0,-0.8241758241758241,0.0,0.0,0.0,1.485958485958486,0.0,-0.5982905982905983,0.0,0.0,0.0,1.537240537240537,0.0,-0.5494505494505495,0.0,0.0,0.0,0.8217338217338217,0.0,0.0,0.0,0.0,0.0,0.0,0.0,0.0,0.0,0.0,0.0,0.0,0.0,0.0,0.0,0.0,0.0,,,,,,,,,,,,,,,,,,,,,,,,,,,,,,,,,,,,,,,,,,,,,,,,,,,,,,,startR
accX,-2.2576312576312576,-0.6336996336996337,-3.115995115995116,-1.25,-1.3125,0.0,-2.0463980463980462,0.0,-2.426129426129426,-1.5625,-1.875,0.0,-0.967032967032967,0.0,-1.8632478632478635,-2.0,-2.9375,0.0,-1.1501831501831499,-0.9584859584859584,-1.2637362637362637,-2.375,-4.375,0.0,-5.185592185592187,-1.3064713064713065,-0.8998778998778999,-2.78125,-5.15625,0.0,-7.0256410256410255,0.7094017094017094,-0.7533577533577533,-2.625,-3.96875,0.0,-2.778998778998779,0.8473748473748474,-0.8644688644688645,-2.28125,-2.65625,0.90625,2.3821733821733817,0.0,-0.6691086691086691,-2.5,-3.28125,1.28125,2.1941391941391943,2.4639804639804637,1.4822954822954824,-3.21875,-6.375,0.0,-2.2698412698412698,5.958485958485959,2.311355311355311,-2.71875,-6.5,0.0,-2.1526251526251525,7.94993894993895,1.9084249084249083,-1.9375,-6.03125,0.0,0.0,5.346764346764347,1.1013431013431014,-1.75,-6.15625,0.0,-0.8021978021978022,2.887667887667888,1.1147741147741148,-2.09375,-6.40625,0.0,-2.0073260073260077,2.36019536019536,0.0,-1.875,-5.5,0.84375,0.0,1.8827838827838828,0.0,-1.4375,-4.46875,1.21875,4.017094017094017,0.0,0.0,-1.4375,-4.875,0.59375,3.3162393162393164,0.0,0.0,-1.78125,-5.6875,0.0,0.0,0.0,0.0,-1.5625,-5.15625,0.0,0.0,0.0,-1.9084249084249083,-1.03125,-3.9375,0.6875,3.926739926739927,-0.5775335775335775,-1.6544566544566544,-1.03125,-3.90625,0.0,1.1782661782661783,-0.6568986568986569,-1.2820512820512822,-1.40625,-4.75,-0.53125,0.0,0.0,-1.2124542124542124,-1.4375,-4.5625,0.0,0.6739926739926739,0.5457875457875457,-1.8473748473748477,-1.0625,-3.84375,0.0,1.8217338217338217,0.0,-2.034188034188034,-0.8125,-3.34375,0.0,1.52014652014652,0.0,-1.6666666666666667,-0.75,-3.125,0.0,0.6581196581196581,0.0,-1.0305250305250304,-0.8125,-3.03125,0.0,-0.5970695970695971,0.9218559218559218,-1.3577533577533578,-0.53125,-2.4375,0.0,0.0,0.5311355311355311,-1.868131868131868,0.0,-1.5,0.0,0.8693528693528694,0.0,-2.062271062271062,0.0,-0.8125,0.6875,1.7887667887667889,0.0,-1.9145299145299144,0.0,0.0,0.78125,1.9694749694749696,0.0,-1.3443223443223444,0.0,0.0,0.65625,1.962148962148962,0.0,-0.9023199023199024,0.0,0.0,0.0,2.2588522588522593,0.0,-0.7655677655677655,0.0,0.0,0.0,1.881562881562881,0.0,0.0,0.0,0.0,0.0,1.5641025641025639,0.0,0.0,0.0,0.0,0.0,0.8803418803418803,0.0,0.0,0.0,0.0,0.0,0.6373626373626373,0.0,0.0,0.0,0.0,0.0,0.8034188034188035,0.0,0.0,0.0,0.0,0.0,,,,,,,,,,,,,,,,,,,,,,,,,,,,,,,,,,,,,,,,,,,,,,,,,,,,,,,,,,,,,startR
accX,-2.266178266178266,-0.6471306471306472,-2.525030525030525,-2.0,-1.4375,0.0,-1.5555555555555556,0.0,-0.9987789987789988,-2.25,-1.75,0.0,-1.4566544566544566,1.0305250305250304,-0.5445665445665445,-1.84375,-2.46875,0.0,-0.9426129426129426,0.6056166056166056,-1.0708180708180708,-1.65625,-3.03125,0.0,-2.0805860805860807,-1.3675213675213675,-1.7496947496947497,-2.0625,-3.375,0.0,-1.85958485958486,-1.1733821733821734,-1.1111111111111112,-2.625,-3.59375,0.0,0.0,0.0,0.0,-2.71875,-4.125,0.0,0.6105006105006106,1.9768009768009769,1.4932844932844933,-2.5625,-5.03125,0.0,1.3894993894993894,3.5482295482295485,1.6642246642246643,-2.5,-6.21875,-0.625,1.5848595848595848,4.753357753357753,1.8730158730158732,-3.09375,-7.84375,-1.375,-2.669108669108669,5.507936507936507,2.5213675213675213,-3.25,-7.96875,-1.40625,-3.4249084249084247,3.5677655677655684,1.84004884004884,-2.625,-6.78125,-0.6875,0.0,2.1904761904761907,1.5677655677655675,-1.9375,-5.90625,0.0,2.126984126984127,1.092796092796093,1.9731379731379728,-1.53125,-6.34375,-0.75,0.0,0.0,0.8595848595848596,-1.59375,-6.9375,-1.125,-2.5164835164835164,0.9010989010989012,0.0,-1.3125,-6.5,-1.0,-2.9023199023199022,1.7387057387057387,-1.641025641025641,-0.53125,-4.90625,0.0,-1.652014652014652,1.4969474969474967,-2.3565323565323566,0.0,-3.21875,0.0,0.5164835164835165,0.6129426129426129,-2.0244200244200243,0.0,-2.625,0.75,1.6324786324786325,0.0,-1.7277167277167278,0.0,-2.875,0.0,1.3699633699633702,0.0,-1.57997557997558,0.0,-3.40625,0.0,0.0,0.5067155067155067,-1.8547008547008548,0.0,-3.40625,0.0,-0.8083028083028083,0.706959706959707,-1.8327228327228329,0.0,-2.625,0.0,0.0,0.0,-1.4444444444444444,0.0,-1.84375,0.0,1.5445665445665446,0.0,-1.166056166056166,0.0,-1.65625,0.625,2.3663003663003663,0.0,-0.8192918192918193,0.0,-2.46875,0.0,0.0,1.1843711843711844,-0.6373626373626373,0.0,-2.34375,0.0,-1.017094017094017,1.0915750915750917,-1.5738705738705738,0.0,-1.40625,0.5625,0.6092796092796092,0.0,-2.323565323565324,0.0,-0.78125,0.78125,2.426129426129426,-0.5567765567765568,-2.0085470085470085,0.0,-1.0,0.625,2.881562881562881,-0.7741147741147741,-1.7960927960927962,0.0,-1.40625,0.0,1.2148962148962148,0.0,-1.0647130647130647,0.0,-1.40625,0.0,0.0,1.15995115995116,-0.6654456654456654,0.0,-0.875,0.0,0.6336996336996337,0.0,-1.3162393162393162,0.0,0.0,0.59375,1.4835164835164836,0.0,-1.8937728937728937,0.0,0.0,0.59375,2.7387057387057387,-0.7557997557997558,-1.9181929181929185,0.0,0.0,0.0,1.8498168498168501,0.0,-1.636141636141636,0.0,0.0,0.0,0.9609279609279608,0.0,-0.757020757020757,0.0,0.0,0.0,0.8095238095238095,0.0,-0.57997557997558,0.0,0.0,0.0,1.3540903540903542,0.0,0.0,0.0,0.0,0.0,1.1892551892551892,0.0,0.0,0.0,0.0,0.0,,,,,,,,,,,,,,,,,,,,,,,,,,,,,,,,,,,,,,,,,,,startR
accX,-2.021978021978022,0.0,-1.735042735042735,-1.75,-2.53125,0.0,-2.1245421245421245,-0.5885225885225885,-1.982905982905983,-1.9375,-2.8125,0.0,-3.467643467643468,0.0,-2.2246642246642248,-2.125,-2.6875,0.0,-0.7350427350427351,0.0,-1.0781440781440779,-2.375,-2.6875,0.5625,1.3699633699633702,0.0,0.0,-2.4375,-3.75,0.0,0.8046398046398047,0.0,0.0,-2.5625,-5.25,0.0,-3.6263736263736255,1.4590964590964588,0.0,-2.59375,-5.6875,0.0,-3.8156288156288163,3.3968253968253967,0.0,-2.34375,-4.75,0.0,0.0,4.714285714285714,0.5604395604395604,-2.125,-4.0625,1.34375,4.021978021978022,5.474969474969474,1.3040293040293038,-1.96875,-4.6875,1.25,1.199023199023199,4.704517704517705,1.5030525030525033,-2.0,-6.0625,0.0,-2.1575091575091574,3.173382173382173,0.0,-1.875,-5.75,0.0,-0.7960927960927959,3.025641025641025,-0.5567765567765568,-1.53125,-4.25,0.71875,4.631257631257632,1.413919413919414,0.0,-1.3125,-3.75,0.96875,5.1379731379731375,1.0329670329670328,0.5470085470085471,-1.78125,-5.3125,0.0,1.0818070818070815,0.5738705738705738,0.5262515262515263,-2.15625,-6.5625,-0.8125,-1.1452991452991452,1.1013431013431014,-0.7863247863247863,-1.6875,-5.3125,0.0,0.0,0.6129426129426129,-1.706959706959707,-1.28125,-4.28125,0.0,3.449328449328449,-0.5054945054945055,-0.9951159951159952,-1.46875,-4.75,0.0,3.68009768009768,-1.5445665445665446,0.0,-1.96875,-5.8125,-1.25,0.7252747252747253,0.0,0.9597069597069596,-2.0,-6.03125,-1.625,-2.3943833943833943,1.8937728937728937,0.0,-1.1875,-4.75,-1.125,-3.4163614163614158,2.675213675213675,-1.4407814407814408,0.0,-2.96875,0.0,-1.1575091575091576,1.531135531135531,-2.1611721611721606,0.0,-1.9375,0.6875,0.8400488400488401,0.0,-2.6630036630036633,0.0,-1.71875,0.65625,1.6507936507936507,0.0,-1.8034188034188037,0.0,-2.0625,0.0,0.0,1.0964590964590966,-0.967032967032967,0.0,-1.40625,0.5625,0.8705738705738706,0.0,-1.4542124542124542,0.0,-1.0,0.96875,1.7106227106227103,-0.5347985347985348,-2.5457875457875456,0.0,-0.84375,0.875,1.6825396825396826,0.0,-2.9511599511599518,0.0,-0.59375,0.71875,2.039072039072039,0.0,-2.5811965811965814,0.0,0.0,0.625,2.166056166056166,0.0,-1.652014652014652,0.0,0.0,0.5625,2.763125763125763,0.0,-0.8400488400488401,0.0,0.0,0.0,2.189255189255189,0.0,0.0,0.0,0.0,0.0,1.31990231990232,0.0,0.0,0.0,0.0,0.0,0.6019536019536019,0.0,0.0,0.0,0.0,0.0,0.6874236874236874,0.0,0.0,0.0,0.0,0.0,0.5067155067155067,0.0,0.0,0.0,0.0,0.0,0.0,0.0,0.0,0.0,0.0,0.0,,,,,,,,,,,,,,,,,,,,,,,,,,,,,,,,,,,,,,,,,,,,,,,,,,,,,,,startR
accX,-2.15995115995116,-0.9072039072039072,-2.131868131868132,-2.375,-4.03125,0.0,-3.495726495726496,0.0,-1.275946275946276,-2.71875,-4.5625,0.0,-3.418803418803418,1.352869352869353,0.0,-2.78125,-4.40625,0.0,-0.9951159951159952,1.5665445665445663,0.0,-2.375,-4.3125,0.59375,0.5091575091575091,1.2637362637362637,0.0,-2.21875,-5.25,0.5625,-1.9792429792429795,2.7802197802197797,0.5177045177045178,-2.71875,-6.03125,0.0,-3.694749694749695,5.5787545787545785,0.7667887667887668,-2.53125,-4.84375,0.53125,-0.5494505494505495,6.973137973137972,0.9401709401709402,-2.125,-4.5,1.28125,3.086691086691087,6.789987789987791,1.3882783882783882,-1.625,-5.28125,0.9375,0.9572649572649572,4.065934065934067,0.978021978021978,-1.40625,-5.75,0.53125,-1.3028083028083028,1.8803418803418803,0.0,-1.46875,-4.875,0.65625,0.6019536019536019,1.8669108669108667,-0.6666666666666666,-1.375,-4.03125,1.03125,4.261294261294261,1.7484737484737485,0.0,-1.21875,-4.5625,0.6875,3.9511599511599513,1.051282051282051,0.0,-1.28125,-5.625,0.0,0.0,0.0,-0.5750915750915749,-1.46875,-5.53125,0.0,-1.0158730158730158,0.0,-1.761904761904762,-1.46875,-4.15625,0.0,2.623931623931624,0.0,-1.5763125763125765,-1.375,-3.6875,0.0,2.84981684981685,-1.956043956043956,0.0,-1.84375,-5.25,-0.96875,-0.6520146520146519,0.0,0.0,-2.03125,-5.6875,-1.40625,-2.3675213675213675,1.115995115995116,0.0,-1.875,-5.09375,-1.34375,-3.1648351648351647,2.2771672771672766,-0.9352869352869352,-1.15625,-3.75,-0.75,-0.7057387057387058,1.3540903540903542,-1.534798534798535,0.0,-2.4375,0.0,1.619047619047619,0.0,-2.2515262515262515,0.0,-2.28125,0.0,0.8253968253968254,0.0,-2.6581196581196584,0.0,-2.46875,0.0,-0.8424908424908425,0.9157509157509156,-2.4481074481074483,0.0,-1.84375,0.0,0.0,1.0805860805860803,-1.6336996336996337,0.0,-0.9375,0.5625,1.5787545787545787,0.0,-0.73992673992674,0.0,-0.5625,0.8125,2.1404151404151404,0.0,0.0,0.0,-0.8125,0.75,1.3601953601953602,0.0,0.0,0.0,-0.9375,0.625,0.6471306471306472,0.0,-0.8681318681318682,0.0,0.0,0.53125,1.0647130647130647,0.6703296703296703,-0.6336996336996337,0.0,0.0,0.0,1.612942612942613,0.0,-0.6178266178266179,0.0,0.0,0.0,1.5396825396825398,0.0,-0.9450549450549449,0.0,0.0,0.0,1.4615384615384617,0.0,-0.978021978021978,0.0,0.0,0.0,1.1477411477411477,0.0,-1.020757020757021,0.0,0.0,0.0,0.8937728937728938,0.0,-0.7692307692307693,0.0,0.0,0.0,0.0,0.0,0.0,0.0,0.0,0.0,0.0,0.0,-0.5506715506715507,0.0,0.0,0.0,0.6117216117216118,0.0,-0.6007326007326007,0.0,0.0,0.0,0.5311355311355311,0.0,-0.5286935286935287,0.0,0.0,0.0,-0.5067155067155067,0.0,-0.5054945054945055,0.0,0.0,0.0,,,,,,,,,,,,,,,,,,,,,,,,,,,,,,,,,,,,,,,,,,,startR
accX,-1.083028083028083,0.0,-2.2527472527472527,-1.625,-1.5625,0.0,-1.442002442002442,0.0,-2.415140415140415,-1.78125,-1.875,0.0,-0.5445665445665445,-1.144078144078144,-2.3492063492063493,-2.0,-2.65625,0.0,0.0,-1.2991452991452992,-1.5616605616605617,-2.5625,-4.3125,0.0,-1.3284493284493284,0.5006105006105006,0.0,-2.75,-5.28125,0.0,-4.396825396825397,1.5396825396825398,0.0,-2.375,-4.75,0.0,-2.976800976800977,1.5848595848595848,-0.6642246642246642,-2.125,-4.1875,0.625,-0.8485958485958486,0.9438339438339438,-0.7264957264957265,-2.3125,-4.5,0.8125,0.5592185592185592,2.7875457875457874,0.7716727716727717,-3.0,-6.15625,0.59375,-0.6910866910866911,5.915750915750916,1.205128205128205,-2.84375,-6.5625,0.0,-1.0671550671550671,6.266178266178267,0.0,-2.40625,-6.09375,0.0,0.0,5.014652014652015,0.0,-2.1875,-5.59375,0.0,0.5750915750915749,3.1245421245421245,0.0,-2.0625,-5.5,0.0,1.8498168498168501,1.7326007326007329,0.0,-2.0625,-5.59375,0.59375,3.5164835164835164,0.8376068376068376,0.0,-1.75,-5.53125,0.0,3.6312576312576312,-0.5347985347985348,-0.5836385836385837,-1.71875,-5.875,0.0,1.2576312576312576,0.0,0.0,-2.1875,-6.59375,-1.15625,0.0,0.0,0.0,-2.34375,-6.8125,-1.25,0.0,0.5738705738705738,0.0,-1.96875,-6.375,-1.03125,0.0,0.0,-1.166056166056166,-1.0625,-5.5,-0.78125,-1.006105006105006,0.5262515262515263,-1.95970695970696,-0.75,-3.875,-0.53125,0.0,0.5457875457875457,-2.2283272283272284,-0.5625,-2.9375,0.0,0.0,1.242979242979243,-1.953601953601953,0.0,-2.375,0.0,0.6190476190476191,0.8327228327228328,-1.9242979242979243,0.0,-2.03125,0.0,0.7142857142857143,0.8290598290598291,-1.4468864468864469,0.0,-1.8125,0.0,0.8070818070818071,0.0,-1.321123321123321,0.0,-1.5625,0.53125,1.2332112332112333,0.0,-1.6251526251526252,0.0,-1.34375,0.0,1.463980463980464,0.0,-1.6398046398046398,0.0,-1.25,0.0,1.463980463980464,0.5372405372405372,-1.382173382173382,0.0,-1.15625,0.0,1.2442002442002442,0.5555555555555556,-1.4114774114774116,0.0,-0.96875,0.0,1.0671550671550671,0.568986568986569,-1.362637362637363,0.0,-0.71875,0.0,1.1404151404151404,0.5372405372405372,-1.8339438339438336,0.0,0.0,0.0,2.445665445665446,0.0,-1.6385836385836383,0.0,0.0,0.0,1.5274725274725274,0.0,-1.1477411477411477,0.0,-0.5625,0.0,0.6019536019536019,0.0,-0.5982905982905983,0.0,0.0,0.0,0.7680097680097681,0.0,0.0,0.0,0.0,0.0,1.126984126984127,0.0,0.0,0.0,0.0,0.0,1.8473748473748477,-0.6288156288156288,-0.568986568986569,0.0,0.0,0.0,0.7313797313797313,0.0,-0.8046398046398047,0.0,0.0,0.0,0.0,0.0,-0.6862026862026862,0.0,0.0,0.0,0.0,0.0,0.0,0.0,0.0,0.0,0.0,0.0,0.0,0.0,0.0,0.0,0.0,0.0,0.0,0.0,0.0,0.0,,,,,,,,,,,,,,,,,,,,,,,,,,,,,,,startR
accX,1.3907203907203909,-1.3675213675213675,-2.9169719169719173,-1.75,-3.0,0.0,0.0,-1.3968253968253967,-2.4468864468864466,-2.375,-4.78125,0.0,-2.274725274725274,0.0,-1.7851037851037852,-3.09375,-5.875,0.53125,-1.9633699633699635,0.7020757020757019,-0.5750915750915749,-3.15625,-6.21875,0.84375,0.0,0.0,0.0,-3.0625,-6.5,0.8125,0.0,-0.5824175824175825,0.0,-3.09375,-7.3125,0.0,-3.172161172161172,1.2246642246642248,1.3174603174603174,-3.1875,-7.3125,-0.65625,-4.086691086691086,5.474969474969474,1.5787545787545787,-2.8125,-6.34375,0.0,-1.0146520146520146,7.970695970695972,1.5934065934065933,-2.34375,-5.96875,1.1875,4.4444444444444455,4.970695970695972,2.9804639804639805,-2.25,-7.53125,0.0,1.4029304029304028,0.0,3.1123321123321124,-2.34375,-8.59375,0.0,-2.173382173382173,-0.7704517704517705,1.6825396825396826,-2.21875,-7.59375,0.0,-0.7863247863247863,0.0,0.7863247863247863,-1.53125,-6.34375,0.0,1.6947496947496947,0.8461538461538461,0.0,-0.875,-5.84375,0.0,3.147741147741148,0.0,0.0,-1.0,-6.65625,0.0,0.0,-1.2551892551892552,0.0,-1.5,-6.96875,-0.625,-0.7912087912087912,-1.1318681318681318,-0.5567765567765568,-1.65625,-6.25,-0.8125,-1.8424908424908424,1.15995115995116,-0.8559218559218559,-1.0625,-4.875,0.0,-2.2954822954822958,1.6727716727716728,-1.4493284493284493,0.0,-2.5625,0.0,-0.7545787545787546,0.5115995115995116,-1.6862026862026862,0.53125,-2.03125,0.96875,0.0,0.0,-2.4688644688644694,0.0,-2.0625,0.96875,0.0,0.0,-2.9291819291819285,0.0,-2.0,0.875,0.0,0.0,-3.1355311355311355,0.0,-1.5625,0.96875,1.1416361416361416,0.0,-2.6227106227106227,0.0,-1.25,0.96875,0.7301587301587301,0.0,-2.0781440781440783,0.0,-1.09375,0.8125,1.2527472527472527,0.5714285714285714,-1.938949938949939,0.0,-1.0625,0.8125,1.1526251526251523,0.6886446886446886,-2.509157509157509,0.0,-1.03125,0.875,1.137973137973138,0.0,-3.0549450549450547,0.0,-0.8125,0.875,1.3772893772893773,0.0,-2.8632478632478637,0.0,-0.5625,0.875,1.0818070818070815,0.0,-2.1684981684981683,0.0,0.0,0.84375,1.3614163614163617,0.0,-1.188034188034188,0.0,0.0,0.8125,2.1098901098901104,0.0,-0.536019536019536,0.0,0.0,0.6875,2.7032967032967035,0.0,0.0,0.0,0.0,0.0,1.978021978021978,0.0,0.0,0.0,0.0,0.0,1.1001221001221002,0.0,-0.7057387057387058,0.0,0.0,0.0,1.1904761904761905,0.0,-0.6898656898656899,0.0,0.0,0.0,1.9230769230769231,0.0,-0.6446886446886447,0.0,0.0,0.0,1.2344322344322345,0.0,-0.5958485958485958,0.0,0.0,0.0,0.0,0.0,-0.7582417582417582,0.0,0.0,0.0,,,,,,,,,,,,,,,,,,,,,,,,,,,,,,,,,,,,,,,,,,,,,,,,,,,,,,,startR
accX,0.0,-1.028083028083028,-1.7032967032967032,-2.25,-3.125,0.0,-0.8571428571428571,0.0,-0.6263736263736264,-2.5,-4.46875,0.0,-3.4029304029304033,1.4297924297924298,-0.8803418803418803,-2.34375,-4.6875,0.0,-3.5445665445665444,0.0,-1.5567765567765568,-2.34375,-4.21875,0.8125,-0.8571428571428571,-0.6288156288156288,-1.2246642246642248,-2.8125,-4.4375,0.78125,1.1575091575091576,0.0,0.0,-3.40625,-5.65625,0.0,0.7472527472527473,2.4444444444444446,2.305250305250305,-3.5625,-6.75,0.0,-2.352869352869353,5.661782661782662,2.927960927960928,-3.0,-6.53125,0.0,-2.6971916971916974,7.197802197802197,2.343101343101343,-2.28125,-5.59375,0.59375,0.0,5.551892551892551,1.2857142857142858,-2.0,-5.03125,0.875,3.7045177045177047,3.1782661782661785,0.8937728937728938,-2.84375,-6.5,0.0,0.6483516483516484,2.7667887667887667,2.313797313797314,-3.1875,-7.59375,-0.65625,-0.6959706959706959,1.9865689865689864,1.264957264957265,-2.46875,-7.03125,-0.8125,0.0,0.934065934065934,0.0,-1.78125,-6.125,-0.59375,0.5115995115995116,0.0,0.0,-1.6875,-5.875,0.0,0.78998778998779,-0.5006105006105006,0.5860805860805861,-2.0625,-6.3125,-0.78125,0.0,0.0,1.0647130647130647,-2.15625,-6.46875,-1.21875,-1.5677655677655675,1.2893772893772897,0.5445665445665445,-1.53125,-5.84375,-1.125,-2.8534798534798536,1.205128205128205,-0.9328449328449328,-0.75,-4.5,-0.59375,-1.8620268620268619,0.9450549450549449,-1.8376068376068373,0.0,-2.9375,0.0,1.061050061050061,0.0,-2.0805860805860807,0.0,-2.21875,0.0,1.2307692307692308,0.0,-2.4310134310134313,0.0,-2.125,0.59375,1.0525030525030523,0.0,-2.7472527472527477,0.0,-1.6875,0.625,1.6678876678876684,0.0,-2.7887667887667886,0.0,-1.46875,0.5625,1.205128205128205,0.0,-2.318681318681319,0.0,-1.28125,0.0,0.8608058608058609,0.0,-1.6092796092796091,0.0,-1.03125,0.5625,1.363858363858364,0.6190476190476191,-1.3663003663003663,0.0,-0.84375,0.625,1.9133089133089132,0.0,-1.5970695970695972,0.0,-0.8125,0.5625,1.4578754578754578,0.0,-1.575091575091575,0.0,-0.6875,0.0,0.7948717948717948,0.0,-1.3785103785103785,0.0,0.0,0.0,0.8925518925518926,0.0,-1.175824175824176,0.0,0.0,0.0,1.4261294261294262,0.0,-1.1416361416361416,0.0,0.0,0.0,1.8754578754578757,0.0,-1.0561660561660562,0.0,0.0,0.0,0.557997557997558,0.0,0.0,0.0,0.0,0.0,0.0,0.518925518925519,0.0,0.0,0.0,0.0,0.7606837606837606,0.0,0.0,0.0,0.0,0.0,0.6019536019536019,0.0,0.0,0.0,0.0,0.0,0.0,0.0,0.0,0.0,0.0,0.0,0.0,0.0,-0.6007326007326007,0.0,0.0,0.0,,,,,,,,,,,,,,,,,,,,,,,,,,,,,,,,,,,,,,,,,,,,,,,,,,,,,,,startR
accX,-3.0061050061050065,0.0,-4.3003663003663,-1.09375,0.0,0.0,0.0,-2.1294261294261294,-3.1855921855921854,-1.71875,-2.125,0.0,0.0,-0.9706959706959708,-2.7338217338217334,-2.46875,-3.53125,0.0,-2.484737484737485,0.6373626373626373,-2.1135531135531136,-2.8125,-4.375,0.0,-4.686202686202686,0.0,-2.36019536019536,-2.4375,-4.03125,0.0,-2.95970695970696,-0.7289377289377289,-2.1514041514041518,-2.25,-3.21875,0.0,2.6336996336996337,-2.2515262515262515,-0.5396825396825397,-2.6875,-3.59375,0.59375,3.13064713064713,0.0,2.5433455433455427,-3.5,-5.6875,0.0,1.1782661782661783,3.3650793650793656,3.89010989010989,-3.375,-7.21875,0.0,-1.636141636141636,5.936507936507938,2.7448107448107453,-2.625,-7.34375,-0.65625,-2.606837606837607,6.2686202686202686,0.5873015873015873,-1.96875,-6.40625,-0.59375,-0.9682539682539684,5.266178266178266,0.0,-1.875,-5.46875,0.0,1.0293040293040292,4.1672771672771685,0.8485958485958486,-2.09375,-5.5625,0.0,2.8327228327228333,3.2185592185592187,1.3443223443223444,-2.0,-6.0,0.0,1.8974358974358971,2.235653235653236,1.0854700854700854,-1.71875,-6.125,0.0,1.05006105006105,0.0,0.0,-1.65625,-5.75,-0.78125,0.8986568986568987,0.0,-0.5506715506715507,-1.65625,-5.40625,0.0,2.9059829059829063,0.0,0.0,-1.625,-5.5,0.0,4.1782661782661785,-0.5775335775335775,0.0,-1.59375,-6.03125,-0.84375,2.393162393162393,0.0,1.0598290598290598,-1.59375,-6.5,-1.46875,0.0,-0.5726495726495726,0.5054945054945055,-1.53125,-6.125,-1.625,-2.025641025641025,0.0,0.0,-1.25,-5.0,-1.125,-2.7924297924297923,2.1636141636141635,-1.0073260073260073,-0.5625,-3.5625,0.0,-1.948717948717949,2.2954822954822958,-1.2307692307692308,0.0,-2.3125,0.0,1.192918192918193,-0.8669108669108669,-2.37973137973138,0.0,-1.78125,0.9375,0.9059829059829059,0.0,-2.1978021978021984,0.0,-1.8125,0.71875,0.0,0.0,-1.915750915750916,0.0,-1.5,0.6875,0.5067155067155067,0.0,-1.3345543345543345,0.0,-1.09375,0.875,1.1794871794871795,0.0,-0.971916971916972,0.0,-0.9375,0.875,1.387057387057387,0.0,-1.336996336996337,0.0,-0.8125,0.8125,1.9645909645909645,0.0,-1.948717948717949,0.0,-0.6875,0.75,1.7216117216117215,0.0,-2.412698412698413,0.0,-0.53125,0.625,1.9145299145299144,0.0,-2.0305250305250304,0.0,0.0,0.0,1.5946275946275947,0.5409035409035409,-1.4517704517704515,0.0,0.0,0.0,1.2698412698412698,0.0,-1.0586080586080586,0.0,0.0,0.0,1.57997557997558,0.0,-0.6568986568986569,0.0,0.0,0.0,1.652014652014652,0.0,0.0,0.0,0.0,0.0,1.2234432234432235,0.0,-0.5592185592185592,0.0,0.0,0.0,0.8144078144078144,0.0,0.0,0.0,0.0,0.0,0.5238095238095238,0.0,0.0,0.0,0.0,0.0,0.0,0.0,0.0,0.0,0.0,0.0,0.5311355311355311,0.0,0.0,0.0,0.0,0.0,0.5457875457875457,0.0,0.0,0.0,0.0,0.0,0.0,0.0,0.0,0.0,0.0,0.0,,,,,,,,,,,,,,,,,,,,,,,,,startR
accX,-1.2686202686202686,0.0,-3.8376068376068377,-0.9375,-0.96875,0.0,0.0,-0.6361416361416361,-3.23931623931624,-1.5,-1.875,0.0,-0.5653235653235653,-0.7887667887667887,-3.4993894993894994,-2.15625,-2.875,0.0,-0.9169719169719168,-0.5506715506715507,-2.7667887667887667,-2.53125,-3.78125,0.0,-1.8363858363858363,0.0,-2.067155067155068,-2.59375,-4.4375,0.0,-5.227106227106226,0.514041514041514,-1.8608058608058609,-2.5625,-3.90625,0.0,-3.910866910866911,0.0,-2.091575091575092,-2.625,-3.125,1.125,0.0,0.0,0.0,-3.0625,-3.6875,1.375,2.868131868131868,1.5030525030525033,1.7472527472527473,-3.34375,-5.40625,0.78125,1.6288156288156288,3.43956043956044,2.688644688644689,-3.21875,-6.625,0.0,0.0,4.925518925518926,2.0769230769230766,-3.21875,-7.03125,-0.625,-1.2991452991452992,5.725274725274725,0.5177045177045178,-3.28125,-6.40625,0.0,0.0,6.0085470085470085,1.3772893772893773,-2.9375,-6.15625,0.0,1.275946275946276,4.192918192918193,0.6800976800976801,-2.25,-5.6875,0.0,1.264957264957265,2.2844932844932844,0.0,-1.78125,-5.28125,0.0,0.63003663003663,1.4884004884004884,-0.5091575091575091,-1.78125,-5.15625,0.0,0.0,1.3247863247863247,-0.8339438339438342,-1.65625,-4.84375,0.0,0.0,1.0293040293040292,-1.2136752136752136,-1.28125,-4.0625,0.0,2.236874236874237,0.5421245421245421,-1.061050061050061,-1.0,-3.53125,0.0,3.741147741147741,-0.9536019536019535,-1.1123321123321124,-1.0,-3.75,0.0,1.661782661782662,0.0,0.0,-1.5,-4.53125,-0.625,0.0,0.6935286935286935,0.0,-1.71875,-4.6875,-0.96875,0.0,0.5115995115995116,0.0,-1.3125,-4.1875,-0.65625,0.0,0.8717948717948718,0.0,-0.96875,-3.875,0.0,-1.0036630036630036,0.8742368742368742,0.0,-0.59375,-3.25,0.0,-1.413919413919414,1.332112332112332,-0.5274725274725275,0.0,-2.40625,0.0,0.0,0.5445665445665445,-1.0854700854700854,0.0,-1.875,0.59375,1.485958485958486,0.0,-1.8070818070818069,0.0,-1.875,0.65625,2.0695970695970702,0.0,-2.053724053724053,0.0,-1.9375,0.0,1.0341880341880345,0.0,-1.975579975579976,0.0,-1.6875,0.0,0.9401709401709402,0.7289377289377289,-1.652014652014652,0.0,-1.40625,0.0,0.6849816849816851,0.9804639804639804,-1.4163614163614164,0.0,-1.0625,0.625,0.6813186813186813,0.6605616605616605,-1.7887667887667889,0.0,-0.53125,0.78125,1.9059829059829057,0.0,-2.305250305250305,0.0,0.0,0.78125,2.6178266178266183,0.0,-1.8266178266178263,0.0,0.0,0.0,2.0183150183150182,0.0,-1.0427350427350428,0.0,0.0,0.0,1.608058608058608,0.0,-0.5262515262515263,0.0,0.0,0.0,1.1904761904761905,0.0,-0.5238095238095238,0.0,0.0,0.0,1.8119658119658117,0.0,-0.6739926739926739,0.0,0.0,0.0,2.445665445665446,-0.6007326007326007,-0.6605616605616605,0.0,0.0,0.0,,,,,,,,,,,,,,,,,,,,,,,,,,,,,,,,,,,,,,,,,,,,,,,,,startR
accX,-0.9218559218559218,-0.8705738705738706,-2.4884004884004884,-1.1875,-1.09375,0.0,0.0,-0.7130647130647131,-2.192918192918193,-1.625,-1.875,0.0,0.0,0.0,-2.025641025641025,-1.9375,-2.9375,0.0,-2.1111111111111107,0.0,-1.94017094017094,-2.15625,-3.8125,0.0,-3.0158730158730163,-1.3736263736263736,-1.7716727716727716,-2.40625,-3.65625,0.0,-1.31990231990232,-0.7863247863247863,-0.5628815628815629,-2.6875,-3.3125,0.53125,1.2222222222222223,0.0,0.6068376068376068,-2.625,-3.71875,0.0,0.8571428571428571,0.9645909645909646,1.2918192918192921,-2.5,-4.9375,0.0,0.0,1.673992673992674,0.7765567765567766,-2.4375,-5.8125,0.0,-2.324786324786325,2.2905982905982905,0.0,-2.625,-5.9375,0.0,-3.0805860805860807,5.888888888888888,0.6568986568986569,-2.6875,-5.25,0.0,-0.6556776556776557,7.471306471306471,0.6434676434676435,-1.9375,-4.0,0.6875,2.8473748473748475,7.009768009768009,1.275946275946276,-1.9375,-4.71875,0.0,4.164835164835165,4.067155067155067,1.8180708180708183,-2.40625,-6.375,0.0,0.0,2.1978021978021984,2.1001221001221,-2.65625,-6.96875,-1.1875,-2.1904761904761907,1.8742368742368745,1.3186813186813189,-2.1875,-5.9375,-0.90625,-2.241758241758242,2.2649572649572653,0.0,-1.40625,-4.625,0.0,0.0,1.1404151404151404,0.0,-1.0,-4.15625,0.0,1.5018315018315018,0.0,0.0,-1.03125,-4.34375,0.0,1.065934065934066,0.0,0.0,-1.09375,-4.375,0.0,0.9328449328449328,0.0,0.0,-0.90625,-4.0,0.0,1.031746031746032,0.0,0.0,-0.5625,-3.625,0.0,1.9474969474969477,0.0,-0.6483516483516484,-0.5625,-3.6875,0.0,1.103785103785104,0.0,0.0,-1.15625,-4.34375,-0.65625,-1.1062271062271063,1.0476190476190477,0.0,-0.90625,-4.125,-0.78125,-1.9902319902319905,1.684981684981685,-0.757020757020757,0.0,-3.15625,0.0,0.0,0.7289377289377289,-1.5433455433455434,0.0,-2.15625,0.0,1.5726495726495726,0.0,-1.636141636141636,0.0,-2.03125,0.0,1.3308913308913308,0.0,-1.2588522588522588,0.0,-2.1875,0.0,0.0,0.967032967032967,-1.0073260073260073,0.0,-2.0625,0.0,0.0,0.8144078144078144,-1.1477411477411477,0.0,-1.5625,0.0,0.7191697191697192,0.6007326007326007,-1.105006105006105,0.53125,-1.21875,0.5625,1.4725274725274726,0.0,-1.5702075702075702,0.5625,-1.15625,0.5625,1.5958485958485962,0.0,-1.7423687423687424,0.0,-1.1875,0.0,0.8815628815628815,0.6617826617826618,-1.4945054945054943,0.0,-0.96875,0.0,0.0,0.568986568986569,-1.3968253968253967,0.0,-0.59375,0.0,0.7008547008547008,0.0,-1.1636141636141637,0.0,0.0,0.53125,1.1746031746031746,0.0,-1.3833943833943834,0.0,0.0,0.0,1.8351648351648349,0.0,-1.4957264957264955,0.0,0.0,0.0,2.1562881562881557,0.0,-1.4871794871794872,0.0,0.0,0.0,0.8925518925518926,0.0,-1.1526251526251523,0.0,0.0,0.0,0.0,0.7704517704517705,-0.6788766788766789,0.0,0.0,0.0,0.0,0.6141636141636142,0.0,0.0,0.0,0.0,1.943833943833944,-0.5567765567765568,0.0,0.0,0.0,0.0,1.565323565323565,-0.6361416361416361,-0.6459096459096461,0.0,0.0,0.0,,,,,,,,,,,,,,,,,,,startR
accX,-3.0097680097680097,0.0,-5.166056166056166,-0.75,-1.25,0.0,-2.449328449328449,0.0,-4.6996336996337,-1.1875,-1.5625,0.0,-2.133089133089133,-0.8046398046398047,-4.1147741147741135,-1.875,-2.0625,0.0,-2.649572649572649,0.0,-3.274725274725274,-2.15625,-2.15625,0.6875,-1.2222222222222223,0.0,-2.274725274725274,-2.34375,-2.53125,0.0,0.5042735042735043,0.0,-0.7704517704517705,-2.59375,-3.5625,0.0,0.0,0.0,0.0,-2.78125,-4.75,-0.5625,-2.184371184371184,0.0,0.5421245421245421,-3.0625,-5.34375,0.0,-3.2564102564102564,2.347985347985348,1.3162393162393162,-2.875,-5.375,0.0,-1.242979242979243,2.796092796092796,0.7728937728937729,-2.75,-6.0625,0.0,-2.694749694749695,4.742368742368742,0.6043956043956044,-2.78125,-6.03125,0.0,-2.7948717948717947,6.258852258852259,0.9194139194139194,-2.5625,-5.375,0.0,-0.7619047619047619,6.792429792429793,1.3894993894993894,-2.1875,-4.84375,0.78125,1.3223443223443223,5.306471306471306,1.6336996336996337,-1.75,-4.875,0.9375,1.1672771672771671,2.070818070818071,0.8253968253968254,-1.5,-5.3125,0.53125,0.0,0.8913308913308914,0.0,-1.71875,-5.40625,0.0,0.0,1.7203907203907205,0.0,-1.65625,-4.9375,0.0,1.757020757020757,1.2991452991452992,0.0,-1.15625,-4.40625,0.0,3.593406593406593,0.0,0.0,-1.09375,-4.71875,0.0,1.9584859584859584,0.0,0.0,-1.53125,-5.65625,0.0,-0.6935286935286935,0.8620268620268621,0.0,-1.375,-5.125,-0.65625,0.0,1.072039072039072,-1.0048840048840049,-0.875,-4.28125,0.0,1.8388278388278387,0.0,-1.094017094017094,-0.84375,-4.4375,0.0,1.6776556776556777,0.0,-0.5006105006105006,-1.15625,-5.0,-0.90625,-1.7472527472527473,1.7411477411477412,0.0,-0.8125,-4.28125,-0.625,-3.147741147741148,2.601953601953602,-1.5238095238095235,0.0,-2.78125,0.0,0.0,1.3406593406593406,-2.045177045177045,0.0,-2.25,0.59375,0.9658119658119658,0.0,-2.2857142857142856,0.0,-2.28125,0.0,0.5311355311355311,0.0,-2.2820512820512815,0.0,-2.09375,0.0,0.0,0.5091575091575091,-1.84004884004884,0.0,-1.8125,0.5625,0.0,1.037851037851038,-1.3345543345543345,0.0,-1.4375,0.71875,1.3272283272283272,0.5225885225885226,-1.2735042735042734,0.53125,-1.34375,0.78125,1.0549450549450552,-0.9035409035409036,-2.374847374847375,0.0,-1.0625,0.59375,2.266178266178266,0.0,-1.6251526251526252,0.0,-0.71875,0.0,1.7130647130647132,0.0,-0.9426129426129426,0.0,-0.75,0.0,1.0366300366300367,0.0,-0.7802197802197802,0.0,-0.59375,0.0,1.126984126984127,0.0,-0.6190476190476191,0.0,0.0,0.0,1.4981684981684982,0.0,0.0,0.0,0.0,0.0,0.9450549450549449,0.0,0.0,0.0,-0.65625,0.0,0.5274725274725275,0.525030525030525,-0.5042735042735043,0.0,0.0,0.0,0.503052503052503,0.0,-0.8290598290598291,0.0,0.0,0.0,1.290598290598291,0.0,-1.2161172161172158,0.0,0.0,0.0,1.474969474969475,-0.6263736263736264,-1.7496947496947497,0.0,0.0,0.0,1.376068376068376,-0.6178266178266179,-1.746031746031746,0.0,0.0,0.0,0.0,0.0,-1.2344322344322345,0.0,0.0,0.0,,,,,,,,,,,,,,,,,,,startR
accX,-1.3894993894993894,-0.7252747252747253,-3.58974358974359,-1.0625,-1.84375,0.0,-1.702075702075702,-1.0598290598290598,-2.31013431013431,-1.5,-2.625,0.0,-3.912087912087912,0.0,-1.934065934065934,-1.9375,-3.1875,0.0,-4.0818070818070815,0.0,-1.7814407814407816,-1.9375,-3.125,0.875,-3.346764346764347,0.0,-1.9511599511599511,-1.78125,-2.78125,1.0625,0.0,-1.2368742368742371,-1.9792429792429795,-1.96875,-2.9375,0.59375,1.8986568986568984,-1.6214896214896215,-0.5299145299145299,-2.6875,-4.6875,0.0,0.0,0.0,1.3711843711843712,-2.96875,-5.9375,0.0,-2.072039072039072,3.1770451770451764,1.962148962148962,-2.59375,-5.9375,0.0,0.0,5.3760683760683765,1.6300366300366298,-2.15625,-6.15625,0.5625,2.5665445665445668,6.020757020757022,1.623931623931624,-2.5,-7.53125,0.0,-0.6593406593406593,4.4603174603174605,2.086691086691087,-2.875,-7.96875,0.0,-2.271062271062271,3.4871794871794872,1.9694749694749696,-2.5625,-6.71875,0.8125,1.0354090354090355,3.1648351648351647,1.4175824175824177,-1.875,-5.8125,1.25,4.2905982905982905,2.216117216117216,1.8363858363858363,-1.5,-6.40625,0.5625,2.8522588522588523,-0.8864468864468864,1.133089133089133,-1.96875,-7.375,0.0,0.9230769230769232,-1.9474969474969477,1.0708180708180708,-2.40625,-7.15625,0.0,-1.0122100122100122,1.4017094017094016,-0.7851037851037851,-1.5625,-5.75,0.0,0.0,0.5836385836385837,-1.1086691086691087,-0.9375,-4.90625,0.0,0.0,0.0,-0.8962148962148963,-0.96875,-4.9375,0.0,-1.9584859584859584,0.7264957264957265,0.0,-1.1875,-4.875,0.0,-2.9059829059829063,1.968253968253968,-0.6935286935286935,-0.8125,-4.03125,0.0,-1.4896214896214897,1.5982905982905984,-1.3455433455433456,0.0,-2.90625,0.0,0.0,0.5201465201465202,-1.8070818070818069,0.0,-2.34375,0.6875,0.8046398046398047,0.0,-1.9096459096459095,0.0,-2.21875,0.78125,0.0,0.0,-1.5897435897435896,0.0,-2.21875,0.625,0.0,0.0,-1.2625152625152625,0.0,-1.71875,0.59375,1.4175824175824177,0.0,-1.1367521367521367,0.0,-1.3125,0.78125,1.290598290598291,0.0,-1.6605616605616609,0.0,-1.5,0.65625,0.0,0.0,-2.3418803418803416,0.0,-1.03125,0.71875,0.5067155067155067,0.0,-2.1294261294261294,0.53125,-0.53125,0.78125,1.678876678876679,0.0,-1.9059829059829057,0.0,0.0,0.75,1.8180708180708183,0.0,-1.7045177045177045,0.0,-0.65625,0.625,1.3711843711843712,0.0,-2.0012210012210008,0.0,-0.5625,0.59375,1.1343101343101345,0.0,-2.231990231990232,0.0,0.0,0.625,1.6300366300366298,0.0,-1.978021978021978,0.0,0.0,0.59375,1.623931623931624,0.0,-1.5531135531135531,0.0,0.0,0.0,1.9230769230769231,0.0,-1.1465201465201464,0.0,0.0,0.0,1.5738705738705738,0.0,-1.061050061050061,0.0,0.0,0.0,0.7631257631257631,0.0,-1.2075702075702075,0.0,0.0,0.0,0.984126984126984,0.0,-0.8840048840048841,0.0,0.53125,0.0,1.3308913308913308,0.0,-0.6153846153846154,0.0,0.0,0.0,0.6898656898656899,0.0,0.0,0.0,0.0,0.0,,,,,,,,,,,,,,,,,,,,,,,,,,,,,,,startR
accX,-1.3296703296703296,-0.6251526251526252,-2.3626373626373627,-1.15625,-1.03125,0.0,0.0,-0.5665445665445665,-1.6092796092796091,-1.71875,-2.84375,0.0,-1.6398046398046398,0.0,-1.1306471306471306,-2.15625,-4.03125,0.0,-1.8131868131868127,0.0,-0.8412698412698413,-2.375,-4.5625,0.0,-0.9291819291819292,-0.7997557997557998,0.0,-2.625,-5.0,0.0,-1.6825396825396826,0.0,0.5262515262515263,-2.71875,-5.53125,0.0,-1.8058608058608057,1.5518925518925517,0.6910866910866911,-2.65625,-5.75,0.0,-1.485958485958486,3.543345543345543,0.7240537240537241,-2.6875,-5.90625,0.0,-0.7472527472527473,6.09035409035409,0.9926739926739928,-2.71875,-6.28125,0.5625,-2.3003663003662997,8.18070818070818,1.6105006105006106,-2.75,-6.6875,0.53125,-2.623931623931624,5.473748473748474,1.2954822954822955,-2.5,-6.03125,0.625,-1.3443223443223444,4.201465201465202,1.1257631257631258,-2.0,-4.875,0.875,0.8315018315018315,3.195360195360196,0.8095238095238095,-1.53125,-4.125,1.21875,2.6092796092796093,2.1465201465201464,0.7814407814407814,-1.4375,-4.75,0.8125,1.95970695970696,1.0573870573870574,0.8217338217338217,-1.71875,-5.65625,0.0,-1.0268620268620268,0.0,0.0,-1.59375,-5.03125,0.0,-1.6263736263736264,1.380952380952381,0.0,-1.03125,-3.71875,0.59375,0.0,1.0647130647130647,-0.7448107448107448,-0.59375,-2.875,1.15625,3.910866910866911,0.0,-0.8522588522588522,-0.75,-3.46875,0.84375,3.6617826617826617,-0.8608058608058609,0.0,-1.28125,-4.59375,0.0,0.0,0.0,-1.0085470085470083,-1.34375,-4.21875,0.0,-0.6483516483516484,0.5543345543345544,-1.332112332112332,-0.9375,-3.0625,0.0,0.5811965811965812,0.7521367521367521,-0.8424908424908425,-0.625,-2.5625,0.0,2.7203907203907205,-0.7728937728937729,-0.6190476190476191,-0.75,-3.0,0.0,0.0,0.0,0.0,-0.53125,-2.6875,0.0,-0.6068376068376068,0.8205128205128205,-1.2063492063492065,0.0,-1.9375,0.65625,1.1025641025641026,0.0,-1.7448107448107448,0.0,-1.53125,0.75,1.9633699633699635,-0.8278388278388278,-1.809523809523809,0.0,-1.65625,0.59375,0.6593406593406593,0.0,-1.5518925518925517,0.0,-1.84375,0.0,0.7020757020757019,0.0,-1.3443223443223444,0.0,-1.46875,0.0,1.6593406593406594,0.0,-1.2967032967032968,0.0,-1.3125,0.0,1.8058608058608057,0.0,-1.2442002442002442,0.0,-1.34375,0.0,1.2039072039072038,0.0,-1.4114774114774116,0.0,-1.25,0.0,1.1611721611721613,0.0,-1.4566544566544566,0.0,-0.9375,0.0,1.424908424908425,0.0,-1.4261294261294262,0.0,-0.71875,0.0,1.884004884004884,0.0,-1.21001221001221,0.0,-0.75,0.0,1.072039072039072,0.0,-0.8144078144078144,0.0,-0.8125,0.0,0.0,0.5421245421245421,-0.5152625152625152,0.0,0.0,0.0,0.0,0.6471306471306472,-0.6605616605616605,0.0,0.0,0.0,1.2466422466422469,0.0,-1.0293040293040292,0.0,0.0,0.0,2.4884004884004884,-0.757020757020757,-1.3040293040293038,0.0,0.0,0.0,1.1111111111111112,0.0,-1.3296703296703296,0.0,0.0,0.0,0.6007326007326007,0.0,-1.194139194139194,0.0,0.0,0.0,,,,,,,,,,,,,,,,,,,,,,,,,,,,,,,startR
accX,-1.9426129426129424,-1.1306471306471306,-2.8302808302808304,-1.5,-1.3125,0.0,-1.881562881562881,0.0,-2.061050061050061,-1.78125,-1.375,0.0,-1.2673992673992671,0.0,-1.4529914529914532,-1.875,-1.71875,0.6875,-0.8192918192918193,-0.7875457875457875,-1.072039072039072,-2.0,-2.3125,0.65625,-0.7557997557997558,-1.391941391941392,-1.1184371184371185,-2.25,-3.0625,0.0,-1.5103785103785103,-0.6715506715506715,-0.5323565323565324,-2.59375,-3.5625,0.0,-1.431013431013431,0.0,0.0,-3.03125,-4.03125,0.0,0.0,0.873015873015873,1.0488400488400489,-3.40625,-4.9375,0.0,0.0,2.627594627594628,2.1257631257631258,-3.375,-6.0,0.0,-3.5909645909645915,4.826617826617826,2.3443223443223444,-2.78125,-5.71875,0.0,-5.063492063492063,6.553113553113552,0.0,-1.6875,-3.65625,0.9375,0.0,6.2002442002442,1.4774114774114775,-1.84375,-3.96875,1.40625,0.0,6.796092796092796,1.5726495726495726,-1.84375,-4.375,1.375,0.73992673992674,5.985347985347985,0.7557997557997558,-1.375,-4.0625,1.09375,1.6202686202686205,4.1843711843711855,0.0,-1.125,-3.96875,0.6875,2.5665445665445668,2.358974358974359,-0.6532356532356532,-1.4375,-4.625,0.0,3.1697191697191696,1.1147741147741148,0.0,-2.21875,-5.8125,0.0,0.0,1.52014652014652,1.2258852258852257,-2.71875,-6.59375,0.0,-1.9768009768009769,1.5164835164835164,0.9328449328449328,-2.34375,-6.0625,-0.75,-1.1782661782661783,0.9597069597069596,0.0,-1.78125,-5.125,0.0,0.0,0.0,0.0,-1.4375,-4.625,0.0,0.0,0.0,0.0,-1.15625,-4.28125,0.0,1.4786324786324787,0.0,-0.7545787545787546,-0.9375,-4.125,0.0,0.8852258852258852,0.0,-0.8937728937728938,-0.875,-4.125,0.0,-0.63003663003663,0.0,-1.1465201465201464,-0.84375,-3.71875,0.0,-1.1074481074481075,0.6117216117216118,-0.978021978021978,-0.8125,-3.125,0.0,-0.7008547008547008,1.376068376068376,-0.8754578754578755,0.0,-2.4375,0.0,1.6007326007326008,0.0,-1.3601953601953602,0.0,-2.40625,0.0,0.8778998778998779,0.6068376068376068,-1.871794871794872,0.0,-2.1875,0.0,0.0,0.6068376068376068,-2.584859584859585,0.0,-1.4375,0.78125,0.6764346764346765,0.0,-2.7020757020757022,0.0,-0.8125,0.9375,1.7680097680097682,0.0,-2.115995115995116,0.0,-0.78125,0.875,1.5506715506715507,0.0,-1.2161172161172158,0.0,-0.8125,0.75,1.0415140415140416,0.0,-0.5518925518925519,0.0,-0.71875,0.8125,1.824175824175824,0.0,-0.6788766788766789,0.0,-0.75,0.71875,1.3736263736263736,0.0,-1.1001221001221002,0.0,-0.71875,0.625,1.3272283272283272,0.0,-1.1672771672771671,0.0,-0.53125,0.59375,1.6068376068376071,-0.5225885225885226,-1.0305250305250304,0.0,0.0,0.5625,1.8705738705738704,0.0,-0.9291819291819292,0.0,0.0,0.0,1.8522588522588523,0.0,-1.2796092796092795,0.0,0.0,0.0,1.7362637362637363,0.0,-1.8852258852258847,0.0,0.0,0.0,1.7130647130647132,0.0,-2.0073260073260077,0.0,0.0,0.0,1.205128205128205,0.0,-1.809523809523809,0.0,0.0,0.0,0.9218559218559218,0.0,-1.4017094017094016,0.0,0.0,0.0,1.7960927960927962,0.0,-1.3162393162393162,0.0,0.0,0.0,1.8290598290598292,0.0,-0.9645909645909646,0.0,0.0,0.0,,,,,,,,,,,,,startR
accX,-3.3785103785103785,-1.103785103785104,-2.5103785103785103,-0.8125,-0.625,0.0,-1.1172161172161172,0.0,-1.815628815628816,-0.96875,-0.75,0.0,-1.7387057387057387,0.0,-1.7716727716727716,-1.21875,-1.3125,0.0,-2.0463980463980462,0.0,-2.312576312576313,-1.3125,-1.5,0.0,-2.357753357753358,-0.7557997557997558,-2.2210012210012207,-1.5,-1.4375,0.0,-1.9242979242979243,-0.8632478632478633,-1.7264957264957266,-1.8125,-1.4375,0.0,1.0793650793650793,-1.5848595848595848,-0.8827838827838828,-2.21875,-1.90625,0.0,2.727716727716728,-0.7387057387057387,0.7704517704517705,-2.8125,-3.6875,0.0,-1.4102564102564104,0.7948717948717948,1.881562881562881,-2.8125,-5.78125,0.0,-4.622710622710622,2.291819291819292,0.9877899877899878,-2.15625,-5.09375,0.0,-3.4322344322344316,2.6630036630036633,0.0,-1.90625,-4.34375,0.59375,1.0293040293040292,3.1294261294261294,0.0,-2.4375,-5.03125,0.78125,2.122100122100122,5.0769230769230775,1.3699633699633702,-3.09375,-6.40625,0.0,-1.7130647130647132,7.183150183150183,2.0659340659340657,-2.8125,-6.1875,0.0,-2.9047619047619047,6.666666666666668,0.94993894993895,-2.0,-4.8125,0.0,0.0,4.158730158730159,0.0,-1.75,-4.3125,1.1875,3.065934065934066,1.3052503052503053,0.0,-2.4375,-5.15625,0.96875,2.84981684981685,0.6910866910866911,0.9877899877899878,-2.78125,-5.5,0.0,0.0,1.065934065934066,0.6361416361416361,-2.46875,-4.90625,0.0,-0.5958485958485958,2.2625152625152625,0.0,-1.4375,-3.53125,0.0,3.2527472527472527,0.0,0.0,-1.875,-4.375,0.0,1.3406593406593406,0.0,0.0,-2.46875,-5.25,-1.03125,-1.247863247863248,1.5677655677655675,1.105006105006105,-2.375,-5.28125,-1.28125,-1.3308913308913308,1.881562881562881,0.0,-1.53125,-4.375,-0.78125,0.0,0.6398046398046398,0.0,-0.8125,-3.59375,0.0,0.0,0.0,-0.6483516483516484,-0.625,-3.34375,0.0,0.0,0.5836385836385837,-1.2588522588522588,-0.65625,-3.1875,0.0,0.0,0.8840048840048841,-2.32967032967033,0.0,-2.46875,0.0,1.2686202686202686,0.0,-2.8046398046398044,0.0,-1.71875,0.59375,3.0378510378510377,-1.072039072039072,-2.6349206349206344,0.0,-1.40625,0.5625,1.7753357753357752,0.0,-1.938949938949939,0.0,-1.53125,0.0,0.9230769230769232,0.568986568986569,-1.4053724053724053,0.0,-0.875,0.0,1.8205128205128205,0.6214896214896215,-1.4224664224664223,0.0,-0.53125,0.53125,2.3565323565323566,0.0,-1.8644688644688645,0.0,0.0,0.0,2.9572649572649574,-0.5738705738705738,-1.9816849816849815,0.0,0.0,0.0,2.294261294261294,0.0,-1.8119658119658117,0.0,0.0,0.0,1.4285714285714286,0.0,-1.1343101343101345,0.0,0.0,0.0,0.7948717948717948,0.0,-0.5177045177045178,0.0,0.0,0.0,0.0,0.0,0.0,0.0,0.0,0.0,0.8595848595848596,0.0,0.0,0.0,0.0,0.0,1.4810744810744811,-0.7643467643467643,0.0,0.0,0.0,0.0,,,,,,,,,,,,,,,,,,,,,,,,,,,,,,,,,,,,,,,,,,,startR
accX,-3.312576312576313,0.9194139194139194,-4.907203907203908,-1.21875,-1.625,0.0,-3.5177045177045176,1.5738705738705738,-3.81929181929182,-1.40625,-1.84375,0.0,-3.240537240537241,1.332112332112332,-2.965811965811966,-1.34375,-1.96875,0.0,-1.9255189255189256,0.0,-2.3003663003662997,-1.5,-2.21875,0.0,-1.3174603174603174,0.0,-1.3577533577533578,-1.875,-2.9375,0.0,-1.896214896214896,0.0,-0.7643467643467643,-2.15625,-3.46875,0.0,-1.8534798534798536,0.9474969474969476,0.0,-2.375,-4.03125,0.0,-1.967032967032967,1.8730158730158732,0.0,-2.09375,-4.34375,0.0,0.0,0.0,-0.9523809523809524,-2.21875,-4.65625,0.0,0.0,2.537240537240537,0.0,-2.90625,-5.71875,-0.84375,-1.5714285714285714,5.706959706959706,0.9230769230769232,-2.96875,-6.03125,-1.28125,-2.8913308913308917,8.235653235653237,1.1452991452991452,-2.4375,-5.65625,-0.90625,0.0,6.308913308913309,0.0,-1.6875,-5.0625,0.0,1.3467643467643469,2.9108669108669107,0.0,-1.78125,-5.4375,0.0,0.0,1.8180708180708183,0.0,-2.34375,-6.03125,-1.03125,-1.5897435897435896,1.4224664224664223,0.0,-2.25,-5.9375,-1.09375,0.0,1.5189255189255189,0.0,-1.625,-5.15625,0.0,1.0537240537240538,0.0,-0.9047619047619048,-1.15625,-4.6875,0.0,2.305250305250305,-1.5775335775335777,-1.0964590964590966,-1.21875,-4.6875,-0.75,0.7484737484737485,0.0,0.0,-1.65625,-5.15625,-1.125,0.0,1.10989010989011,0.0,-0.96875,-4.53125,-0.65625,0.0,1.9548229548229548,-0.6788766788766789,0.0,-3.75,0.0,1.6727716727716728,0.9829059829059827,-1.1282051282051282,0.0,-3.59375,0.0,0.9352869352869352,-1.4884004884004884,-2.6825396825396823,0.0,-3.4375,0.0,0.6385836385836385,-0.5921855921855922,-2.515262515262515,-0.53125,-2.90625,0.0,0.6263736263736264,1.6666666666666667,-1.3565323565323566,0.0,-2.34375,0.0,0.9279609279609279,1.199023199023199,-1.3785103785103785,0.0,-1.84375,0.65625,2.04029304029304,0.5115995115995116,-1.3443223443223444,0.59375,-1.78125,0.8125,2.324786324786325,-1.3882783882783882,-2.087912087912088,0.0,-1.84375,0.0,1.7667887667887667,-1.2173382173382172,-2.2124542124542126,0.0,-1.5625,0.0,1.9352869352869355,0.7142857142857143,-1.094017094017094,0.0,-1.25,0.0,1.5714285714285714,0.5592185592185592,-1.673992673992674,0.0,-0.84375,0.0,2.7228327228327234,0.0,-1.7582417582417582,0.0,-0.625,0.5625,2.289377289377289,0.0,-1.8339438339438336,0.0,-0.59375,0.0,2.2735042735042734,0.0,-1.1147741147741148,0.0,-0.53125,0.0,1.6166056166056166,0.6764346764346765,-0.5824175824175825,0.0,0.0,0.0,1.275946275946276,0.5604395604395604,-0.5238095238095238,0.0,0.0,0.0,1.192918192918193,0.0,-0.5860805860805861,0.0,0.0,0.0,0.7960927960927959,0.0,-0.8669108669108669,0.0,0.0,0.0,,,,,,,,,,,,,,,,,,,,,,,,,,,,,,,,,,,,,,,,,,,,,,,,,,,,,,,startR
accX,-2.4468864468864466,0.0,-3.3443223443223444,0.0,0.0,0.0,-2.294261294261294,0.0,-2.7264957264957266,-0.53125,0.0,0.0,-1.463980463980464,0.0,-2.2649572649572653,-0.65625,0.0,0.0,-0.663003663003663,0.0,-2.6300366300366296,-0.65625,-0.65625,0.0,-0.9755799755799756,-0.8876678876678876,-3.2039072039072036,-0.90625,-1.25,0.0,-0.8595848595848596,-1.0256410256410255,-2.750915750915751,-1.5625,-2.0,0.0,-1.8461538461538465,0.0,-1.4285714285714286,-2.4375,-3.0625,0.0,-1.5115995115995116,0.8498168498168498,0.0,-2.4375,-3.21875,0.0,0.0,1.0354090354090355,0.0,-2.21875,-3.625,0.0,1.709401709401709,0.0,0.0,-2.375,-4.59375,-0.5625,1.0390720390720392,0.7594627594627594,0.6166056166056166,-2.6875,-5.53125,-1.0625,-2.669108669108669,3.173382173382173,1.2612942612942613,-2.71875,-5.625,-0.78125,-3.88034188034188,5.034188034188034,0.8986568986568987,-2.3125,-4.46875,0.0,0.6385836385836385,5.454212454212454,1.0952380952380951,-2.03125,-4.21875,0.5625,4.854700854700853,4.945054945054945,1.5396825396825398,-2.34375,-5.53125,0.0,3.4725274725274726,4.288156288156288,2.3455433455433456,-2.875,-6.96875,-1.65625,-2.0305250305250304,4.537240537240537,2.5763125763125765,-2.6875,-6.65625,-1.75,-3.0818070818070824,4.5103785103785095,1.641025641025641,-1.75,-5.09375,-0.71875,2.7643467643467643,2.9059829059829063,0.0,-1.0625,-4.90625,0.0,0.525030525030525,0.0,0.0,-1.4375,-5.65625,-0.84375,-0.5115995115995116,0.0,0.0,-1.9375,-5.8125,-1.21875,-1.85958485958486,2.017094017094017,0.0,-1.625,-5.25,-1.0625,-1.1123321123321124,1.844932844932845,0.0,-0.71875,-4.15625,0.0,0.0,0.0,-0.8021978021978022,0.0,-3.6875,0.0,0.0,-1.3772893772893773,-1.2808302808302807,0.0,-3.78125,0.0,0.0,-0.6800976800976801,-0.9072039072039072,-0.84375,-3.78125,0.0,0.0,0.0,-0.7423687423687424,-0.84375,-3.65625,0.0,0.0,0.0,-1.21001221001221,0.0,-3.25,0.0,1.0744810744810744,0.0,-1.5958485958485962,0.0,-2.8125,0.0,1.1709401709401708,0.0,-1.8986568986568984,0.0,-2.53125,0.0,2.1355311355311355,0.0,-2.37973137973138,0.0,-2.09375,0.0,1.2503052503052503,0.6752136752136753,-2.5164835164835164,0.0,-1.53125,0.0,1.380952380952381,0.73992673992674,-2.2869352869352872,0.0,-1.03125,0.0,1.9096459096459095,0.0,-1.7106227106227103,0.0,-0.90625,0.53125,2.242979242979243,0.0,-1.2246642246642248,0.0,-0.90625,0.0,2.191697191697192,0.0,-0.8461538461538461,0.0,-0.84375,0.0,2.244200244200244,0.0,-0.7032967032967034,0.0,-0.90625,0.0,1.5531135531135531,0.5738705738705738,-0.5115995115995116,0.0,-0.875,0.0,0.0,0.8034188034188035,-0.7045177045177046,0.0,0.0,0.0,0.0,0.0,-0.6947496947496947,0.0,0.0,0.0,0.9145299145299144,0.0,0.0,0.0,0.0,0.53125,2.0549450549450547,0.0,0.0,0.0,0.0,0.0,1.2942612942612943,0.0,-1.0366300366300367,0.0,0.0,0.0,1.0293040293040292,0.0,-1.2124542124542124,0.0,0.0,0.0,,,,,,,,,,,,,,,,,,,,,,,,,startR
accX,-3.3150183150183152,-1.534798534798535,-5.111111111111111,0.0,-1.03125,0.0,-2.6666666666666665,-2.064713064713065,-4.742368742368742,-0.8125,-1.46875,0.0,-1.9694749694749696,-1.9230769230769231,-4.147741147741148,-1.375,-2.0625,0.0,-3.2124542124542126,-1.010989010989011,-2.78998778998779,-1.75,-2.40625,0.65625,-4.428571428571429,-0.5738705738705738,-2.5811965811965814,-1.75,-1.875,1.09375,-4.01953601953602,-0.7008547008547008,-2.56043956043956,-1.59375,-0.96875,1.03125,-1.1843711843711844,-1.105006105006105,-2.2466422466422467,-1.625,-1.15625,0.78125,1.0195360195360197,-1.7277167277167278,-1.7191697191697193,-2.03125,-2.625,0.5625,0.0,-1.3931623931623929,0.0,-2.5,-4.125,0.0,-2.561660561660561,0.0,0.0,-2.53125,-4.40625,0.875,0.9389499389499391,0.0,-0.7704517704517705,-2.28125,-4.625,0.9375,-1.8693528693528692,0.9474969474969476,-0.5299145299145299,-2.375,-5.125,0.0,-3.525030525030525,3.851037851037851,-0.6202686202686203,-2.1875,-4.59375,0.5625,-1.3601953601953602,5.346764346764347,-0.8229548229548229,-1.71875,-3.71875,1.375,3.0744810744810747,5.473748473748474,-0.5152625152625152,-1.5625,-3.8125,1.78125,4.575091575091576,4.304029304029304,0.0,-2.0,-5.5,1.28125,0.9548229548229548,3.2063492063492065,0.5787545787545788,-2.46875,-6.75,0.0,-1.3992673992673992,2.9145299145299144,0.0,-2.25,-6.25,0.0,0.0,1.5702075702075702,-0.8058608058608059,-1.5625,-5.03125,0.0,2.5384615384615383,0.9523809523809524,0.0,-1.375,-4.875,0.9375,3.37973137973138,0.0,0.0,-1.46875,-5.46875,0.53125,0.5592185592185592,0.0,-0.5225885225885226,-1.6875,-5.96875,-0.5625,-0.9279609279609279,0.5433455433455433,-0.9255189255189256,-1.4375,-4.9375,0.0,-0.6288156288156288,1.0805860805860803,-1.3724053724053724,-0.875,-3.96875,0.0,0.7191697191697192,0.0,-1.7533577533577531,0.0,-3.28125,0.0,2.207570207570208,-0.7509157509157509,-2.347985347985348,-0.53125,-3.1875,0.0,2.291819291819292,-0.9291819291819292,-2.2600732600732596,-0.875,-3.3125,0.0,1.2368742368742371,0.0,-2.0769230769230766,-0.8125,-2.84375,0.0,0.0,0.6532356532356532,-1.6153846153846154,-0.53125,-2.09375,0.0,1.0415140415140416,0.8608058608058609,-1.4945054945054943,0.0,-1.53125,0.625,2.571428571428572,0.0,-1.4188034188034189,0.0,-1.5625,0.59375,2.5079365079365084,-0.7912087912087912,-1.7875457875457876,0.0,-1.625,0.0,1.021978021978022,0.0,-1.6153846153846154,0.0,-1.25,0.0,1.271062271062271,0.8595848595848596,-0.5677655677655677,0.0,0.0,0.0,2.7545787545787546,0.0,-0.7008547008547008,0.0,0.0,0.0,3.031746031746032,-0.8705738705738706,-1.1733821733821734,0.0,-0.6875,0.0,1.1892551892551892,0.0,-0.8644688644688645,0.0,-0.9375,0.0,0.0,0.7838827838827839,-0.5274725274725275,0.0,0.0,0.0,0.0,0.6617826617826618,0.0,0.0,0.0,0.0,0.967032967032967,0.0,0.0,0.0,0.0,0.0,,,,,,,,,,,,,,,,,,,,,,,,,,,,,,,,,,,,,,,,,,,,,,,,,startR
