,00_accX,00_accY,00_accZ,00_gyroX,00_gyroY,00_gyroZ,01_accX,01_accY,01_accZ,01_gyroX,01_gyroY,01_gyroZ,02_accX,02_accY,02_accZ,02_gyroX,02_gyroY,02_gyroZ,03_accX,03_accY,03_accZ,03_gyroX,03_gyroY,03_gyroZ,04_accX,04_accY,04_accZ,04_gyroX,04_gyroY,04_gyroZ,05_accX,05_accY,05_accZ,05_gyroX,05_gyroY,05_gyroZ,06_accX,06_accY,06_accZ,06_gyroX,06_gyroY,06_gyroZ,07_accX,07_accY,07_accZ,07_gyroX,07_gyroY,07_gyroZ,08_accX,08_accY,08_accZ,08_gyroX,08_gyroY,08_gyroZ,09_accX,09_accY,09_accZ,09_gyroX,09_gyroY,09_gyroZ,10_accX,10_accY,10_accZ,10_gyroX,10_gyroY,10_gyroZ,11_accX,11_accY,11_accZ,11_gyroX,11_gyroY,11_gyroZ,12_accX,12_accY,12_accZ,12_gyroX,12_gyroY,12_gyroZ,13_accX,13_accY,13_accZ,13_gyroX,13_gyroY,13_gyroZ,14_accX,14_accY,14_accZ,14_gyroX,14_gyroY,14_gyroZ,15_accX,15_accY,15_accZ,15_gyroX,15_gyroY,15_gyroZ,16_accX,16_accY,16_accZ,16_gyroX,16_gyroY,16_gyroZ,17_accX,17_accY,17_accZ,17_gyroX,17_gyroY,17_gyroZ,18_accX,18_accY,18_accZ,18_gyroX,18_gyroY,18_gyroZ,19_accX,19_accY,19_accZ,19_gyroX,19_gyroY,19_gyroZ,20_accX,20_accY,20_accZ,20_gyroX,20_gyroY,20_gyroZ,21_accX,21_accY,21_accZ,21_gyroX,21_gyroY,21_gyroZ,22_accX,22_accY,22_accZ,22_gyroX,22_gyroY,22_gyroZ,23_accX,23_accY,23_accZ,23_gyroX,23_gyroY,23_gyroZ,24_accX,24_accY,24_accZ,24_gyroX,24_gyroY,24_gyroZ,25_accX,25_accY,25_accZ,25_gyroX,25_gyroY,25_gyroZ,26_accX,26_accY,26_accZ,26_gyroX,26_gyroY,26_gyroZ,27_accX,27_accY,27_accZ,27_gyroX,27_gyroY,27_gyroZ,28_accX,28_accY,28_accZ,28_gyroX,28_gyroY,28_gyroZ,29_accX,29_accY,29_accZ,29_gyroX,29_gyroY,29_gyroZ,30_accX,30_accY,30_accZ,30_gyroX,30_gyroY,30_gyroZ,31_accX,31_accY,31_accZ,31_gyroX,31_gyroY,31_gyroZ,32_accX,32_accY,32_accZ,32_gyroX,32_gyroY,32_gyroZ,33_accX,33_accY,33_accZ,33_gyroX,33_gyroY,33_gyroZ,34_accX,34_accY,34_accZ,34_gyroX,34_gyroY,34_gyroZ,35_accX,35_accY,35_accZ,35_gyroX,35_gyroY,35_gyroZ,36_accX,36_accY,36_accZ,36_gyroX,36_gyroY,36_gyroZ,37_accX,37_accY,37_accZ,37_gyroX,37_gyroY,37_gyroZ,38_accX,38_accY,38_accZ,38_gyroX,38_gyroY,38_gyroZ,39_accX,39_accY,39_accZ,39_gyroX,39_gyroY,39_gyroZ,40_accX,40_accY,40_accZ,40_gyroX,40_gyroY,40_gyroZ,41_accX,41_accY,41_accZ,41_gyroX,41_gyroY,41_gyroZ,42_accX,42_accY,42_accZ,42_gyroX,42_gyroY,42_gyroZ,43_accX,43_accY,43_accZ,43_gyroX,43_gyroY,43_gyroZ,44_accX,44_accY,44_accZ,44_gyroX,44_gyroY,44_gyroZ,45_accX,45_accY,45_accZ,45_gyroX,45_gyroY,45_gyroZ,46_accX,46_accY,46_accZ,46_gyroX,46_gyroY,46_gyroZ,47_accX,47_accY,47_accZ,47_gyroX,47_gyroY,47_gyroZ,48_accX,48_accY,48_accZ,48_gyroX,48_gyroY,48_gyroZ,49_accX,49_accY,49_accZ,49_gyroX,49_gyroY,49_gyroZ,50_accX,50_accY,50_accZ,50_gyroX,50_gyroY,50_gyroZ,51_accX,51_accY,51_accZ,51_gyroX,51_gyroY,51_gyroZ,52_accX,52_accY,52_accZ,52_gyroX,52_gyroY,52_gyroZ,53_accX,53_accY,53_accZ,53_gyroX,53_gyroY,53_gyroZ,54_accX,54_accY,54_accZ,54_gyroX,54_gyroY,54_gyroZ,55_accX,55_accY,55_accZ,55_gyroX,55_gyroY,55_gyroZ,56_accX,56_accY,56_accZ,56_gyroX,56_gyroY,56_gyroZ,57_accX,57_accY,57_accZ,57_gyroX,57_gyroY,57_gyroZ,58_accX,58_accY,58_accZ,58_gyroX,58_gyroY,58_gyroZ,59_accX,59_accY,59_accZ,59_gyroX,59_gyroY,59_gyroZ,60_accX,60_accY,60_accZ,60_gyroX,60_gyroY,60_gyroZ,61_accX,61_accY,61_accZ,61_gyroX,61_gyroY,61_gyroZ,62_accX,62_accY,62_accZ,62_gyroX,62_gyroY,62_gyroZ,63_accX,63_accY,63_accZ,63_gyroX,63_gyroY,63_gyroZ,64_accX,64_accY,64_accZ,64_gyroX,64_gyroY,64_gyroZ,65_accX,65_accY,65_accZ,65_gyroX,65_gyroY,65_gyroZ,66_accX,66_accY,66_accZ,66_gyroX,66_gyroY,66_gyroZ,67_accX,67_accY,67_accZ,67_gyroX,67_gyroY,67_gyroZ,68_accX,68_accY,68_accZ,68_gyroX,68_gyroY,68_gyroZ,69_accX,69_accY,69_accZ,69_gyroX,69_gyroY,69_gyroZ,70_accX,70_accY,70_accZ,70_gyroX,70_gyroY,70_gyroZ,71_accX,71_accY,71_accZ,71_gyroX,71_gyroY,71_gyroZ,72_accX,72_accY,72_accZ,72_gyroX,72_gyroY,72_gyroZ,73_accX,73_accY,73_accZ,73_gyroX,73_gyroY,73_gyroZ,74_accX,74_accY,74_accZ,74_gyroX,74_gyroY,74_gyroZ,75_accX,75_accY,75_accZ,75_gyroX,75_gyroY,75_gyroZ,76_accX,76_accY,76_accZ,76_gyroX,76_gyroY,76_gyroZ,77_accX,77_accY,77_accZ,77_gyroX,77_gyroY,77_gyroZ,78_accX,78_accY,78_accZ,78_gyroX,78_gyroY,78_gyroZ,79_accX,79_accY,79_accZ,79_gyroX,79_gyroY,79_gyroZ,category
accX,0.0,0.0,0.0,0.0,0.0,0.0,0.0,0.0,0.0,0.0,0.0,0.0,0.0,0.0,0.0,0.0,0.0,0.0,0.0,0.0,0.0,0.0,0.0,0.0,0.0,0.0,0.0,0.0,0.0,0.0,0.0,0.0,0.0,0.0,0.0,0.0,0.0,0.0,0.0,0.0,0.0,0.0,0.7440000000000001,-0.7709999999999999,0.0,0.0,0.0,0.0,1.0979999999999999,-1.113,0.0,0.0,0.0,0.0,0.59,-0.539,0.0,0.0,0.0,0.0,0.0,0.0,0.0,0.0,0.0,0.0,0.0,0.0,0.0,0.0,0.0,0.0,0.0,0.0,0.0,0.0,0.0,0.0,0.0,0.0,-0.58,0.0,0.0,0.0,0.0,0.0,-0.659,0.0,0.0,0.0,0.0,0.0,-0.5760000000000001,0.0,0.0,0.0,0.0,0.0,0.0,0.0,0.0,0.0,0.0,0.0,0.0,0.0,0.0,0.0,0.0,0.0,0.0,0.0,0.0,0.0,0.0,0.0,0.0,0.0,0.0,0.0,0.0,0.0,0.0,0.0,0.0,0.0,0.0,0.0,0.0,0.0,0.0,0.0,0.0,0.0,0.0,0.0,0.0,0.0,0.0,0.0,0.0,0.0,0.0,0.0,0.0,0.0,0.0,0.0,0.0,0.0,0.0,0.0,0.0,0.0,0.0,0.0,0.0,0.0,0.0,0.0,0.0,0.0,0.0,0.0,0.0,0.0,0.0,0.0,0.0,0.0,0.0,0.0,0.0,0.0,0.0,0.0,0.0,0.0,0.0,0.0,0.0,0.0,0.0,0.0,0.0,0.0,0.0,0.0,0.0,0.0,0.0,0.0,0.0,0.0,0.0,0.0,0.0,0.0,0.0,0.0,0.0,0.0,0.0,0.0,0.0,0.0,0.0,0.0,0.0,0.0,0.0,0.0,0.0,0.0,0.0,0.0,0.0,0.0,0.0,0.0,0.0,0.0,0.0,0.0,0.0,0.0,0.0,0.0,0.7120000000000001,-0.647,0.0,0.0,0.0,0.0,1.411,-1.202,-0.631,-0.868,-0.831,0.0,0.0,0.0,-0.7929999999999999,-1.45,-1.541,0.0,-1.135,0.9059999999999999,-0.866,-1.5659999999999998,-1.568,0.0,-1.28,1.117,-0.7559999999999999,-1.197,-0.9229999999999999,0.579,0.0,0.0,-0.547,-0.857,0.0,0.7040000000000001,0.0,0.0,0.0,-0.8109999999999999,0.0,0.638,0.0,0.0,0.0,-0.71,0.0,0.0,-0.503,0.0,0.0,0.0,0.0,0.0,0.0,0.0,0.0,0.0,0.0,0.0,0.0,0.0,0.0,0.0,0.0,0.0,0.0,0.0,0.0,0.0,0.0,0.0,0.0,-0.636,0.0,0.0,0.0,0.0,0.0,-0.652,0.0,0.0,0.0,0.0,0.0,0.0,0.0,0.0,0.0,0.0,0.0,0.0,0.0,0.0,0.0,0.0,0.0,0.0,0.0,0.0,0.0,0.0,0.0,0.0,0.0,0.0,0.0,0.0,0.0,0.0,0.0,0.0,0.0,0.0,0.0,0.0,0.0,0.0,0.0,0.0,0.0,0.0,0.0,0.0,0.0,0.0,0.0,0.0,0.0,0.0,0.0,0.0,0.0,0.0,0.0,0.0,0.0,0.0,0.0,0.0,0.0,0.0,0.0,0.0,0.0,0.0,0.0,0.0,0.0,0.0,0.0,0.0,0.0,0.0,0.0,0.0,0.0,0.0,0.0,0.0,0.0,0.0,0.0,0.0,0.0,0.0,0.0,0.0,0.0,0.0,0.0,0.0,0.0,0.0,0.0,0.0,0.0,0.0,0.0,0.0,0.0,0.0,0.0,0.0,0.0,0.0,0.0,0.0,0.0,0.0,0.0,0.0,0.0,0.0,0.0,0.0,0.0,0.0,0.0,0.0,0.0,0.0,0.0,0.0,0.0,0.0,0.0,0.0,0.0,0.0,0.0,0.0,0.0,0.0,0.0,0.0,0.0,0.0,0.0,0.0,0.0,0.0,0.0,0.0,0.0,0.0,0.0,0.0,0.0,0.0,0.0,0.0,0.0,0.0,0.0,0.0,0.0,0.0,0.0,0.0,0.0,0.0,0.0,0.0,0.0,0.0,0.0,0.0,0.0,0.0,0.0,0.0,moveDown
accX,0.0,0.0,-0.607,-0.52,0.0,0.0,0.0,0.0,0.0,0.0,0.0,0.0,0.0,0.516,0.0,0.0,0.0,0.0,0.0,0.0,0.0,0.0,0.0,0.0,0.0,0.0,0.0,0.0,0.0,0.0,0.0,0.0,0.0,0.0,0.0,0.0,0.0,0.0,0.0,0.0,0.0,0.0,0.0,0.0,0.0,0.0,0.0,0.0,0.0,0.0,0.0,0.0,0.0,0.0,0.0,0.0,0.0,0.0,0.0,0.0,0.0,0.0,0.0,0.0,0.0,0.0,0.0,0.0,0.0,0.0,0.0,0.0,0.0,0.0,0.0,0.0,0.0,0.0,0.0,0.0,0.0,0.0,0.0,0.0,0.0,0.0,0.0,0.0,0.0,0.0,0.0,0.0,0.0,0.0,0.0,0.0,0.0,0.0,0.0,0.0,0.0,0.0,0.0,0.0,-0.5429999999999999,0.0,0.0,0.0,0.0,0.0,0.0,0.0,0.0,0.0,0.0,0.0,0.0,0.0,0.0,0.0,0.0,0.0,0.0,0.0,0.0,0.0,0.0,0.0,0.0,0.0,0.0,0.0,0.0,0.0,0.0,0.0,0.0,0.0,0.0,0.0,0.0,0.0,-0.655,0.0,0.0,0.0,0.0,0.0,-0.753,0.0,-0.59,0.0,0.0,0.0,-0.595,0.0,-0.5670000000000001,0.0,0.0,0.0,0.0,0.0,0.0,0.0,0.0,0.0,0.0,0.0,0.0,0.0,0.0,0.0,0.0,0.0,0.0,0.0,0.0,0.0,0.0,0.0,0.0,0.0,0.0,0.0,0.0,0.0,0.0,0.0,0.0,0.0,0.0,0.0,0.0,0.0,0.0,0.0,0.0,0.0,0.0,0.0,0.0,0.0,0.0,0.0,0.0,0.0,0.0,0.0,0.0,0.0,0.0,0.0,0.0,0.0,0.0,0.0,0.0,0.0,0.504,0.0,0.0,0.0,0.0,0.0,0.0,0.0,0.0,0.0,0.0,0.0,0.0,0.0,0.0,0.0,0.0,0.0,0.0,0.0,0.0,0.0,0.0,0.0,0.0,0.0,0.0,0.0,0.0,0.0,0.0,0.0,0.0,0.0,0.0,0.0,0.0,0.0,0.0,0.0,0.0,0.0,0.0,0.0,0.0,0.0,0.0,0.0,0.0,0.0,0.0,0.0,0.0,0.0,-0.529,0.0,0.0,0.0,0.0,0.0,-0.524,0.0,0.0,0.0,0.0,0.0,-0.55,0.0,0.0,0.0,0.0,0.0,-0.534,0.0,0.0,0.0,0.0,0.0,-0.565,0.0,0.0,0.0,0.0,0.0,-0.527,0.0,0.0,0.0,0.0,-0.517,-0.569,0.0,0.0,0.0,0.0,0.0,0.0,0.0,0.0,0.0,0.0,0.0,0.0,0.0,0.0,0.0,0.0,0.0,0.0,0.0,0.0,0.0,0.0,0.0,0.0,0.0,0.0,0.0,0.0,0.0,0.0,0.0,0.0,0.0,0.0,0.0,0.0,0.0,0.0,0.0,0.0,0.0,0.0,0.0,0.0,0.0,0.0,0.0,0.0,0.0,0.0,0.0,0.0,0.0,0.0,0.0,0.0,0.0,0.0,0.0,0.0,0.0,0.0,0.0,0.0,0.0,0.0,0.0,0.0,0.0,0.0,0.0,0.0,0.0,0.0,0.0,0.0,0.0,0.0,0.0,0.0,0.0,0.0,0.0,0.0,0.0,0.0,0.0,0.0,0.0,0.0,0.0,0.0,0.0,0.0,0.0,0.0,0.0,0.0,0.0,0.0,0.0,0.0,0.0,0.0,0.0,0.0,0.0,0.0,0.0,0.0,0.0,0.0,0.0,0.0,0.0,0.0,0.0,,,,,,,,,,,,,,,,,,,,,,,,,,,,,,,,,,,,,,,,,,,,,,,,,,,,,,,moveDown
accX,0.0,-0.596,0.0,0.0,0.0,0.0,-1.008,-0.8440000000000001,0.0,0.0,0.0,0.0,-1.052,-1.032,-0.7959999999999999,0.0,0.0,0.0,0.0,0.0,-1.088,0.0,0.0,0.0,0.0,-0.94,-1.662,0.0,0.0,0.0,0.0,-0.634,-1.8030000000000002,0.0,0.0,0.0,0.0,0.0,-2.105,0.0,0.0,0.0,0.0,-0.573,-2.637,0.0,0.0,0.0,0.0,-1.338,-3.611,0.0,0.0,0.0,-0.7879999999999999,-1.6,-4.26,0.0,0.0,0.0,-1.169,-0.818,-3.966,0.0,0.0,0.0,-0.871,-0.561,-4.03,0.0,0.569,0.0,-1.156,-0.773,-3.967,0.0,0.0,0.0,-1.975,-0.852,-3.4339999999999997,0.0,0.0,0.0,-2.305,-1.324,-3.2230000000000003,0.0,0.637,0.0,-1.348,-1.3159999999999998,-2.92,-0.647,1.042,0.0,-1.041,-1.5430000000000001,-2.32,-0.809,1.064,0.0,-1.158,-1.325,-1.249,-1.0859999999999999,1.053,0.0,-1.122,-0.7929999999999999,0.0,-1.2890000000000001,1.165,0.0,-0.8390000000000001,-0.643,0.0,-1.163,1.2919999999999998,0.0,-0.825,-0.8190000000000001,1.784,-1.3230000000000002,1.3659999999999999,0.0,0.0,0.0,3.0589999999999997,-1.52,1.369,0.0,0.0,0.0,4.102,-1.527,1.265,0.0,0.0,0.0,5.176,-1.415,1.105,0.0,0.0,0.0,6.122000000000001,-1.189,0.888,0.0,0.0,0.875,6.013,-0.703,0.0,0.0,0.0,0.0,4.963,0.0,0.0,0.0,0.0,0.0,3.9619999999999997,0.0,0.0,0.0,0.0,0.0,3.425,0.0,0.0,0.0,0.0,0.0,2.73,0.0,0.0,0.0,0.0,0.0,2.13,0.0,0.0,0.0,0.0,0.0,1.464,0.0,0.0,0.0,0.0,-0.6859999999999999,0.6779999999999999,0.0,0.0,0.0,-0.634,-0.6609999999999999,0.0,0.0,0.0,0.0,0.0,0.0,0.0,0.0,0.0,0.0,0.0,0.0,0.0,0.0,0.0,0.0,0.0,0.0,-0.547,0.0,0.0,0.0,0.0,0.0,-0.812,0.0,0.0,0.0,0.0,-0.539,-0.8270000000000001,0.0,0.0,0.0,,,,,,,,,,,,,,,,,,,,,,,,,,,,,,,,,,,,,,,,,,,,,,,,,,,,,,,,,,,,,,,,,,,,,,,,,,,,,,,,,,,,,,,,,,,,,,,,,,,,,,,,,,,,,,,,,,,,,,,,,,,,,,,,,,,,,,,,,,,,,,,,,,,,,,,,,,,,,,,,,,,,,,,,,,,,,,,,,,,,,,,,,,,,,,,,,,,,,,,,,,,,,,,,,,,,,,,,,,,,,,,,,,,,,,,,,,,,,,,,,,,,,,,moveDown
accX,0.0,-0.575,0.0,0.0,0.0,0.0,0.0,0.0,0.0,0.0,0.0,0.0,0.0,0.0,0.0,0.0,0.0,0.0,0.0,0.0,0.573,0.0,0.0,0.0,0.0,-0.7290000000000001,0.0,0.0,0.0,0.0,0.0,-1.167,-0.7559999999999999,0.0,0.0,0.0,0.0,-1.012,-1.5090000000000001,0.0,0.0,0.0,0.0,-0.639,-1.8230000000000002,0.0,0.0,0.0,0.0,-0.841,-2.347,0.0,0.0,0.0,0.0,-1.112,-3.9739999999999998,0.0,0.0,0.0,0.0,-0.735,-4.529,0.0,0.0,0.0,-0.574,-1.256,-5.0680000000000005,0.0,0.0,0.0,-1.146,-1.182,-4.595,0.0,0.0,0.0,-1.8880000000000001,-1.4509999999999998,-4.35,0.0,0.611,0.0,-1.855,-1.109,-4.004,0.0,0.9309999999999999,0.0,-1.6569999999999998,-1.234,-3.083,-0.526,1.1079999999999999,0.0,-1.207,-1.036,-2.445,-0.754,1.055,0.0,-1.348,-0.682,-1.653,-0.826,0.943,0.0,-1.3559999999999999,-0.792,-1.03,-0.789,1.052,0.0,-0.907,-1.285,-0.515,-0.902,1.169,0.0,-0.893,-0.9790000000000001,0.7829999999999999,-1.188,1.238,0.0,-0.691,0.0,2.176,-1.47,1.348,0.0,0.0,0.0,3.452,-1.544,1.371,0.0,0.0,0.0,3.7680000000000002,-1.2830000000000001,1.135,0.0,0.0,0.0,4.368,-0.976,0.799,0.0,0.0,0.0,4.468,-0.951,0.687,0.0,0.0,0.0,4.345,-0.94,0.628,0.0,0.0,0.0,4.12,-0.799,0.59,0.0,0.0,0.0,4.2989999999999995,-0.5539999999999999,0.0,0.0,0.515,0.0,3.903,0.0,0.0,0.0,0.0,-0.578,2.9560000000000004,0.0,0.0,0.0,-0.726,-0.758,1.92,0.0,0.0,0.0,0.0,-0.6559999999999999,1.591,0.0,0.0,0.0,0.0,0.0,1.208,0.0,0.0,0.0,0.0,0.0,0.903,0.0,0.0,0.0,0.0,0.0,0.0,0.0,0.0,0.0,0.0,0.0,0.0,0.0,0.0,0.0,,,,,,,,,,,,,,,,,,,,,,,,,,,,,,,,,,,,,,,,,,,,,,,,,,,,,,,,,,,,,,,,,,,,,,,,,,,,,,,,,,,,,,,,,,,,,,,,,,,,,,,,,,,,,,,,,,,,,,,,,,,,,,,,,,,,,,,,,,,,,,,,,,,,,,,,,,,,,,,,,,,,,,,,,,,,,,,,,,,,,,,,,,,,,,,,,,,,,,,,,,,,,,,,,,,,,,,,,,,,,,,,,,,,,,,,,,,,,,,,,,,,,,,,,,,,,,,,,,,moveDown
accX,0.0,-0.659,0.0,0.0,0.0,0.0,0.0,0.0,0.0,0.0,0.0,0.0,0.0,0.0,-0.703,0.0,0.0,0.0,0.0,0.0,0.0,0.0,0.0,0.0,0.0,-0.6659999999999999,0.0,0.0,0.0,0.0,0.0,-0.963,-0.8059999999999999,0.0,0.0,0.0,0.0,-0.5539999999999999,-1.287,0.0,0.0,0.0,0.0,-0.596,-1.896,0.0,0.0,0.0,0.0,0.0,-2.188,0.0,0.0,0.0,0.0,0.0,-2.6069999999999998,0.0,0.0,0.0,0.0,0.0,-3.59,0.0,0.0,0.0,-1.26,-0.7390000000000001,-4.395,0.0,0.0,0.0,-1.285,0.0,-4.645,0.0,0.684,0.0,-0.718,0.0,-5.186,0.0,0.6779999999999999,0.0,-0.555,-1.271,-4.872,0.0,0.0,0.0,-0.797,-1.642,-3.845,0.0,0.0,0.0,-2.011,-1.255,-2.8560000000000003,0.0,0.0,0.0,-1.9780000000000002,-0.7490000000000001,-1.933,-0.569,0.963,0.0,-0.965,-0.662,0.0,-0.7759999999999999,1.176,0.0,0.0,-0.7240000000000001,1.882,-1.3419999999999999,0.937,0.0,-0.521,0.0,2.504,-1.2570000000000001,0.892,0.0,0.0,0.0,2.9189999999999996,-1.172,1.126,0.0,0.0,0.0,3.3139999999999996,-1.295,1.222,0.0,0.0,0.0,4.3180000000000005,-1.375,1.072,0.0,0.0,0.6920000000000001,4.467,-1.185,0.899,0.0,0.0,0.0,3.43,-0.6509999999999999,0.573,0.0,0.0,-0.7240000000000001,2.55,0.0,0.0,0.0,-0.7040000000000001,-0.795,2.065,-0.531,0.0,0.0,0.0,0.0,2.392,-0.627,0.5429999999999999,0.0,0.0,0.0,2.79,0.0,0.513,0.0,0.0,0.0,2.153,0.0,0.0,0.0,0.0,0.0,1.162,0.0,0.0,0.0,-1.038,-0.7490000000000001,0.0,0.0,0.0,0.0,0.0,0.0,0.851,0.0,0.0,0.0,0.0,0.0,1.135,0.0,0.0,0.0,0.0,0.0,0.7490000000000001,0.0,0.0,0.0,-0.511,-0.684,0.0,0.0,0.0,0.0,-0.779,-1.138,0.0,0.0,0.0,0.0,,,,,,,,,,,,,,,,,,,,,,,,,,,,,,,,,,,,,,,,,,,,,,,,,,,,,,,,,,,,,,,,,,,,,,,,,,,,,,,,,,,,,,,,,,,,,,,,,,,,,,,,,,,,,,,,,,,,,,,,,,,,,,,,,,,,,,,,,,,,,,,,,,,,,,,,,,,,,,,,,,,,,,,,,,,,,,,,,,,,,,,,,,,,,,,,,,,,,,,,,,,,,,,,,,,,,,,,,,,,,,,,,,,,,,,,,,,,,,,,,,,,,,,,,,,,,moveDown
accX,0.0,0.0,0.0,0.0,0.0,0.0,0.0,0.0,0.0,0.0,0.0,0.0,0.0,0.0,-0.5539999999999999,0.0,0.0,0.0,0.0,0.0,0.0,0.0,0.0,0.0,0.0,0.0,0.0,0.0,0.0,0.0,-0.963,-1.113,-0.63,0.0,0.0,0.0,0.0,0.0,0.0,0.0,0.0,0.0,0.0,0.0,0.0,0.0,0.0,0.0,0.0,0.0,0.0,0.0,0.0,0.0,0.0,-0.522,-0.7609999999999999,0.0,0.0,0.0,0.0,-0.7090000000000001,-1.025,0.0,0.0,0.0,0.0,0.0,-0.703,0.0,0.0,0.0,0.0,0.0,-0.764,0.0,0.0,0.0,0.0,0.0,-1.587,0.0,0.0,0.0,0.0,0.0,-2.8089999999999997,0.0,0.0,0.0,0.0,0.0,-3.9360000000000004,0.0,0.0,0.0,0.0,0.0,-4.855,0.0,0.0,0.0,0.0,0.0,-5.754,0.0,0.0,0.0,-0.579,0.0,-6.207999999999999,0.0,0.0,0.0,-1.6869999999999998,-0.57,-6.428,0.0,0.0,0.0,-1.554,-1.187,-5.882000000000001,0.0,0.0,0.0,-1.401,-1.7990000000000002,-4.363,0.0,0.0,0.0,-1.5230000000000001,-1.594,-2.8510000000000004,0.0,0.0,0.0,-2.418,-1.317,0.0,-0.618,0.7509999999999999,0.0,-1.8980000000000001,-0.97,1.9040000000000001,-1.101,1.1059999999999999,0.0,-0.565,-0.748,2.891,-1.401,1.025,0.0,-0.633,0.0,3.695,-1.43,0.9209999999999999,0.0,-0.542,0.0,4.919,-1.301,0.946,0.0,0.0,0.0,5.7379999999999995,-1.094,0.861,0.0,0.0,0.0,5.806,-0.9259999999999999,0.5870000000000001,0.0,0.0,0.0,5.037,-0.644,0.0,0.0,-0.53,0.0,4.378,-0.5429999999999999,0.0,0.0,0.0,0.0,3.0839999999999996,-0.588,0.0,0.0,0.0,0.0,2.2769999999999997,0.0,0.0,0.0,0.0,0.0,1.465,0.0,0.0,0.0,0.0,0.0,0.501,0.0,0.0,0.0,-0.937,-0.865,0.0,0.0,0.0,0.0,-0.562,0.0,0.0,0.0,0.521,0.0,0.0,0.0,0.955,0.0,0.542,0.0,0.0,0.0,1.002,0.0,0.0,0.0,-0.64,-0.5920000000000001,0.0,0.0,0.0,0.0,,,,,,,,,,,,,,,,,,,,,,,,,,,,,,,,,,,,,,,,,,,,,,,,,,,,,,,,,,,,,,,,,,,,,,,,,,,,,,,,,,,,,,,,,,,,,,,,,,,,,,,,,,,,,,,,,,,,,,,,,,,,,,,,,,,,,,,,,,,,,,,,,,,,,,,,,,,,,,,,,,,,,,,,,,,,,,,,,,,,,,,,,,,,,,,,,,,,,,,,,,,,,,,,,,,,,,,,,,,,,,,,,,,,,,,,,,,moveDown
accX,0.0,0.0,0.0,0.0,0.0,0.0,0.0,0.0,0.607,0.0,0.0,0.0,0.0,0.0,0.0,0.0,0.0,0.0,-0.782,0.0,0.0,0.0,0.0,0.0,-0.636,0.0,0.0,0.0,0.0,0.0,0.0,0.0,0.0,0.0,0.0,0.0,0.0,0.0,0.0,0.0,0.0,0.0,0.0,0.0,-0.5870000000000001,0.0,0.0,0.0,0.0,0.0,-0.905,0.0,0.0,0.0,0.0,0.0,-1.375,0.0,0.0,0.0,0.0,0.0,-2.095,0.0,0.0,0.0,0.0,0.0,-2.925,0.0,0.0,0.0,0.0,-0.639,-3.7,0.0,0.0,0.0,0.0,0.0,-4.231,0.0,0.0,0.0,0.0,0.0,-5.385,0.0,0.0,0.0,0.0,-0.946,-5.659,0.0,0.0,0.0,0.0,-0.9420000000000001,-5.012,0.0,0.0,0.0,-0.743,-1.351,-5.067,0.0,0.0,0.0,-1.681,-1.865,-4.8260000000000005,0.0,0.0,0.0,-1.258,-2.008,-3.569,0.0,0.54,0.0,-1.02,-1.4169999999999998,-2.14,-0.679,0.0,0.0,-1.7619999999999998,-0.951,-0.716,-0.782,0.0,0.0,-1.8230000000000002,0.0,0.687,-0.905,0.584,0.0,-0.997,-0.518,1.686,-1.126,0.745,0.0,-0.741,-0.535,2.28,-1.3,0.6729999999999999,0.0,-0.818,0.0,3.1830000000000003,-1.4580000000000002,0.639,0.0,-1.258,0.0,4.622,-1.579,0.8809999999999999,0.0,-0.833,0.529,5.425,-1.4980000000000002,1.026,0.0,0.0,1.053,5.875,-1.12,0.91,0.0,0.0,0.775,5.195,-0.5770000000000001,0.547,0.0,0.0,0.0,4.287,0.0,0.0,0.0,0.0,-0.513,3.135,0.0,0.0,0.0,0.0,-0.605,2.234,0.0,0.0,0.0,0.0,0.0,2.123,0.0,0.0,0.0,0.0,0.0,2.003,0.0,0.0,0.0,-0.6809999999999999,-0.659,0.955,0.0,0.0,0.0,-0.889,-0.645,0.0,0.0,0.557,0.0,,,,,,,,,,,,,,,,,,,,,,,,,,,,,,,,,,,,,,,,,,,,,,,,,,,,,,,,,,,,,,,,,,,,,,,,,,,,,,,,,,,,,,,,,,,,,,,,,,,,,,,,,,,,,,,,,,,,,,,,,,,,,,,,,,,,,,,,,,,,,,,,,,,,,,,,,,,,,,,,,,,,,,,,,,,,,,,,,,,,,,,,,,,,,,,,,,,,,,,,,,,,,,,,,,,,,,,,,,,,,,,,,,,,,,,,,,,,,,,,,,,,,,,,,,,,,,,,,,,moveDown
accX,0.0,0.0,0.0,0.0,0.0,0.0,0.0,0.0,0.0,0.0,0.0,0.0,0.0,0.0,0.0,0.0,0.0,0.0,0.0,0.0,0.0,0.0,0.0,0.0,0.0,0.0,0.0,0.0,0.0,0.0,0.0,0.0,0.0,0.0,0.0,0.0,0.0,0.0,-0.653,0.0,0.0,0.0,0.0,0.0,-0.883,0.0,0.0,0.0,0.0,0.0,-1.082,0.0,0.0,0.0,0.0,0.0,-1.7719999999999998,0.0,0.0,0.0,0.0,0.0,-2.752,0.0,0.0,0.0,0.0,0.0,-3.2319999999999998,0.0,0.0,0.0,0.0,0.0,-3.4419999999999997,0.0,0.526,0.0,0.0,0.0,-3.7689999999999997,0.0,0.0,0.0,0.0,0.0,-4.316,0.0,0.0,0.0,-0.653,-0.9229999999999999,-4.6419999999999995,0.0,0.0,0.0,-1.454,-0.9059999999999999,-4.718999999999999,0.0,0.0,0.0,-1.5390000000000001,-0.9620000000000001,-4.127,0.0,0.747,0.0,-1.001,0.0,-2.855,-0.762,0.9590000000000001,0.0,-0.747,0.0,-2.085,-0.8059999999999999,0.8740000000000001,0.0,-0.807,0.0,-1.839,-0.5760000000000001,0.6859999999999999,0.0,-0.621,-0.9690000000000001,-1.419,-0.5720000000000001,0.622,0.0,-0.9740000000000001,-1.607,-1.0,-0.833,0.609,0.0,-1.575,-1.28,0.0,-1.207,0.888,0.0,-1.217,-0.545,1.061,-1.399,1.32,0.0,0.0,-0.6940000000000001,2.8169999999999997,-1.4340000000000002,1.455,0.0,0.0,0.0,3.5410000000000004,-1.511,1.1159999999999999,0.0,0.0,0.0,3.156,-1.31,0.654,0.0,-1.018,-0.5579999999999999,3.15,-1.08,0.517,0.0,-1.2690000000000001,-0.701,3.861,-1.182,1.036,0.0,0.0,0.0,5.194,-1.01,0.9490000000000001,0.0,0.0,0.0,5.252000000000001,0.0,0.0,0.0,0.0,0.0,4.148,0.0,0.0,0.0,-0.779,-0.927,2.928,0.0,0.0,0.0,-0.875,-0.511,2.0140000000000002,0.0,0.0,0.0,0.0,0.0,1.6840000000000002,0.0,0.0,0.0,0.0,0.0,1.6680000000000001,0.0,0.0,0.0,,,,,,,,,,,,,,,,,,,,,,,,,,,,,,,,,,,,,,,,,,,,,,,,,,,,,,,,,,,,,,,,,,,,,,,,,,,,,,,,,,,,,,,,,,,,,,,,,,,,,,,,,,,,,,,,,,,,,,,,,,,,,,,,,,,,,,,,,,,,,,,,,,,,,,,,,,,,,,,,,,,,,,,,,,,,,,,,,,,,,,,,,,,,,,,,,,,,,,,,,,,,,,,,,,,,,,,,,,,,,,,,,,,,,,,,,,,,,,,,,,,,,,,,,,,,,,,,,,,moveDown
accX,0.0,-0.612,0.0,0.0,0.0,0.0,0.0,0.0,0.0,0.0,0.0,0.0,0.0,0.0,0.0,0.0,0.0,0.0,0.0,0.0,0.0,0.0,0.0,0.0,0.0,0.0,0.0,0.0,0.0,0.0,0.0,0.0,0.0,0.0,0.0,0.0,0.0,-0.607,-0.594,0.0,0.0,0.0,0.0,0.0,-0.637,0.0,0.0,0.0,0.0,0.0,-0.737,0.0,0.0,0.0,0.0,0.0,-1.215,0.0,0.0,0.0,0.0,0.0,-1.579,0.0,0.0,0.0,-0.526,-0.65,-1.973,0.0,0.0,0.0,0.0,-0.691,-2.436,0.0,0.0,0.0,0.0,-0.638,-2.786,0.0,0.512,0.0,0.0,0.0,-3.5669999999999997,0.0,0.54,0.0,-0.6920000000000001,-0.542,-4.341,0.0,0.0,0.0,-1.4569999999999999,-0.51,-3.861,0.0,0.546,0.0,-1.794,-0.7090000000000001,-2.532,0.0,0.664,0.0,-1.7990000000000002,0.0,-1.003,0.0,0.742,0.0,-0.7340000000000001,0.0,-0.6,0.0,0.711,0.0,0.0,-0.794,-0.7440000000000001,0.0,0.0,0.0,-0.579,-1.4909999999999999,-0.973,0.0,0.0,0.0,-1.005,-1.0659999999999998,-0.857,-0.8590000000000001,0.664,0.0,-0.675,-0.997,0.0,-1.175,1.0979999999999999,0.0,0.0,-0.7859999999999999,0.0,-1.435,1.275,0.0,0.0,0.0,0.7070000000000001,-1.43,1.072,0.0,0.0,0.0,1.0759999999999998,-1.162,0.8959999999999999,0.0,0.0,0.0,1.23,-0.963,0.955,0.0,-0.511,0.0,2.016,-1.073,1.13,0.0,0.0,0.0,3.0269999999999997,-1.1420000000000001,1.158,0.0,0.0,0.0,3.9989999999999997,-1.109,0.9229999999999999,0.0,0.0,0.0,2.76,-0.687,0.0,0.0,0.0,0.0,2.113,0.0,0.0,0.0,-1.143,0.0,2.345,-0.55,0.0,0.0,0.0,0.0,3.173,-0.6759999999999999,0.723,0.0,0.0,0.0,3.5039999999999996,-0.51,0.0,0.0,0.0,0.0,2.7560000000000002,0.0,0.0,0.0,0.0,0.0,1.5959999999999999,0.0,0.0,0.0,-0.753,-0.857,0.575,0.0,0.0,0.0,,,,,,,,,,,,,,,,,,,,,,,,,,,,,,,,,,,,,,,,,,,,,,,,,,,,,,,,,,,,,,,,,,,,,,,,,,,,,,,,,,,,,,,,,,,,,,,,,,,,,,,,,,,,,,,,,,,,,,,,,,,,,,,,,,,,,,,,,,,,,,,,,,,,,,,,,,,,,,,,,,,,,,,,,,,,,,,,,,,,,,,,,,,,,,,,,,,,,,,,,,,,,,,,,,,,,,,,,,,,,,,,,,,,,,,,,,,,,,,,,,,,,,,moveDown
accX,0.0,-0.833,-1.063,0.0,0.0,0.0,-0.551,0.0,-0.953,0.0,0.0,0.0,0.0,0.0,-0.9690000000000001,0.0,0.0,0.0,0.0,0.0,-1.16,0.0,0.0,0.0,0.0,0.0,-1.6280000000000001,0.0,0.0,0.0,0.0,-0.6559999999999999,-1.5759999999999998,0.0,0.0,0.0,0.0,0.0,-1.3619999999999999,0.0,0.0,0.0,0.0,-0.578,-1.6480000000000001,0.0,0.0,0.0,0.0,-0.877,-2.049,0.0,0.0,0.0,-0.5429999999999999,0.0,-1.724,0.0,0.0,0.0,-0.731,0.0,-1.44,0.0,0.0,0.0,-0.9229999999999999,0.0,-1.2790000000000001,0.0,0.502,0.0,0.0,0.0,-1.386,0.0,0.0,0.0,0.0,-0.564,-2.044,0.0,0.0,0.0,-0.512,-1.2009999999999998,-2.605,0.0,0.0,0.0,-1.217,-1.305,-2.148,0.0,0.601,0.0,0.0,-1.0759999999999998,-1.8630000000000002,0.0,0.691,0.0,0.0,-1.178,-2.002,0.0,0.0,0.0,0.0,-1.304,-1.93,-0.58,0.0,0.0,-1.656,-0.7709999999999999,-0.861,-0.772,0.0,0.0,-1.276,0.0,0.0,-0.9840000000000001,0.853,0.0,0.0,0.0,1.327,-1.078,0.836,0.0,0.0,0.0,1.324,-1.0090000000000001,0.616,0.0,-0.556,0.0,2.0340000000000003,-0.945,0.5760000000000001,0.0,0.0,0.0,2.5639999999999996,-0.889,0.698,0.0,0.0,0.0,2.5,-0.768,0.679,0.0,0.0,0.0,2.06,-0.541,0.0,0.0,0.0,0.0,2.08,0.0,0.0,0.0,0.0,0.0,2.432,0.0,0.0,0.0,0.0,0.0,2.376,-0.524,0.0,0.0,0.0,0.0,1.617,0.0,0.0,0.0,0.0,0.0,0.99,0.0,0.0,0.0,-0.5379999999999999,0.0,0.922,0.0,0.0,0.0,0.0,0.0,0.922,0.0,0.0,0.0,0.0,0.0,0.93,0.0,0.509,0.0,0.0,0.0,1.0759999999999998,0.0,0.0,0.0,0.0,0.0,1.033,0.0,0.0,0.0,0.0,0.0,0.909,0.0,0.0,0.0,0.0,-0.564,0.6990000000000001,0.0,0.0,0.0,0.0,0.0,0.747,0.0,0.0,0.0,0.0,0.0,0.8170000000000001,0.0,0.0,0.0,0.0,0.0,0.0,0.0,0.0,0.0,0.0,-0.971,-0.684,0.0,0.0,0.0,,,,,,,,,,,,,,,,,,,,,,,,,,,,,,,,,,,,,,,,,,,,,,,,,,,,,,,,,,,,,,,,,,,,,,,,,,,,,,,,,,,,,,,,,,,,,,,,,,,,,,,,,,,,,,,,,,,,,,,,,,,,,,,,,,,,,,,,,,,,,,,,,,,,,,,,,,,,,,,,,,,,,,,,,,,,,,,,,,,,,,,,,,,,,,,,,,,,,,,,,,,,,,,,,,,,,,,,,,,,,,,moveDown
accX,0.0,0.0,0.0,0.0,0.0,0.0,0.0,0.0,0.0,0.0,0.0,0.0,-0.594,-0.588,-0.59,0.0,0.0,0.0,0.0,0.0,0.0,0.0,0.0,0.0,0.0,0.0,0.0,0.0,0.0,0.0,0.0,0.0,0.0,0.0,0.0,0.0,0.0,0.0,0.0,0.0,0.0,0.0,0.0,0.0,-0.7609999999999999,0.0,0.0,0.0,0.0,0.0,-1.0859999999999999,0.0,0.0,0.0,0.0,0.0,-1.692,0.0,0.0,0.0,0.0,0.0,-2.404,0.0,0.0,0.0,0.0,0.0,-2.7289999999999996,0.0,0.0,0.0,0.0,0.0,-2.767,0.0,0.0,0.0,0.0,0.0,-3.032,0.0,0.0,0.0,0.515,0.0,-3.429,0.0,0.0,0.0,0.0,0.0,-4.119,0.0,0.0,0.0,-0.9470000000000001,-1.4609999999999999,-4.18,0.0,0.0,0.0,-0.841,-0.937,-4.019,0.0,0.701,0.0,0.0,-1.01,-3.074,-0.639,0.6679999999999999,0.0,0.0,-0.816,-1.9080000000000001,-0.902,0.0,0.0,0.0,0.0,-0.9790000000000001,-0.797,0.0,0.0,-1.5119999999999998,0.0,0.0,-0.632,0.0,0.0,-0.7709999999999999,0.0,0.759,-0.679,0.595,0.0,0.0,-0.522,1.358,-0.882,0.0,0.0,-0.595,0.0,1.646,-0.9940000000000001,0.0,0.0,0.0,0.0,1.547,-0.9590000000000001,0.0,0.0,0.0,0.0,2.114,-1.021,0.0,0.0,0.0,0.0,2.468,-1.04,0.0,0.0,0.0,0.0,2.352,-0.8590000000000001,0.0,0.0,0.0,0.0,1.9,-0.6729999999999999,0.0,0.0,-0.5489999999999999,0.0,1.8730000000000002,-0.613,0.0,0.0,-0.6779999999999999,0.0,1.916,-0.6559999999999999,0.0,0.0,0.0,0.0,1.716,-0.53,0.0,0.0,0.0,0.0,1.605,0.0,0.0,0.0,0.0,0.0,1.8519999999999999,0.0,0.0,0.0,0.0,0.0,1.8430000000000002,0.0,0.0,0.0,0.0,0.0,1.456,0.0,0.0,0.0,0.0,0.0,1.013,0.0,0.0,0.0,0.0,0.0,0.8320000000000001,0.0,0.0,0.0,0.0,0.0,0.8540000000000001,0.0,0.0,0.0,0.0,0.0,1.047,0.0,0.0,0.0,0.0,0.0,0.966,0.0,0.0,0.0,0.0,0.0,0.595,0.0,0.0,0.0,0.0,0.0,0.0,0.0,0.0,0.0,,,,,,,,,,,,,,,,,,,,,,,,,,,,,,,,,,,,,,,,,,,,,,,,,,,,,,,,,,,,,,,,,,,,,,,,,,,,,,,,,,,,,,,,,,,,,,,,,,,,,,,,,,,,,,,,,,,,,,,,,,,,,,,,,,,,,,,,,,,,,,,,,,,,,,,,,,,,,,,,,,,,,,,,,,,,,,,,,,,,,,,,,,,,,,,,,,,,,,,,,,,,,,,,,,,,,,,,,moveDown
accX,0.0,0.0,0.0,0.0,0.0,0.0,-0.626,0.0,-0.526,0.0,0.0,0.0,-0.838,0.0,0.0,0.0,0.0,0.0,-0.501,0.0,0.0,0.0,0.0,0.0,0.0,0.675,0.0,0.711,0.0,0.0,0.0,-0.68,-1.186,0.852,0.0,0.0,0.0,-2.178,-2.031,0.527,0.0,0.0,0.0,-2.34,-2.6660000000000004,0.0,0.0,0.0,0.0,-1.063,-2.447,0.0,0.518,0.0,0.0,-0.588,-2.144,0.0,0.642,0.0,0.0,-0.872,-2.21,0.0,0.607,0.0,0.5429999999999999,-1.754,-2.253,0.0,0.0,0.0,0.0,-1.239,-2.2359999999999998,0.0,0.0,0.0,0.0,-1.43,-3.1180000000000003,-0.5760000000000001,0.0,-0.516,0.0,-1.4680000000000002,-3.897,-0.72,0.0,0.0,0.0,-2.229,-3.7230000000000003,-1.287,0.0,0.0,0.0,-1.4780000000000002,-2.427,-1.755,0.0,0.0,-0.956,0.0,-1.393,-1.618,0.0,0.0,-1.3730000000000002,0.0,-1.0859999999999999,-1.217,0.7090000000000001,0.0,-0.682,0.0,-0.94,-0.975,0.745,0.0,0.0,-1.037,-1.012,-1.026,0.0,0.0,-0.74,-1.202,-0.561,-1.3019999999999998,0.535,0.0,-1.048,0.0,0.66,-1.442,0.915,0.0,0.0,0.0,1.466,-1.337,1.079,0.0,0.0,0.0,2.478,-1.251,0.973,0.0,0.0,0.0,3.708,-1.186,0.741,0.0,0.0,0.0,3.989,-1.119,0.6559999999999999,0.0,-0.597,0.0,4.27,-1.109,0.648,0.0,0.0,0.0,4.151,-0.9940000000000001,0.609,0.0,0.0,0.0,3.322,-0.599,0.0,0.0,0.0,0.0,2.142,0.0,0.0,0.0,-0.5920000000000001,-0.561,1.376,0.0,0.0,0.0,0.0,-0.782,0.8740000000000001,0.0,0.0,0.0,0.0,-0.504,1.0490000000000002,-0.502,0.0,0.0,0.0,0.0,1.401,-0.564,0.0,0.0,0.0,0.0,1.339,0.0,0.0,0.0,-0.506,0.0,0.716,0.0,0.0,0.0,0.0,-1.203,0.0,0.0,0.0,0.0,0.0,-1.026,0.0,0.0,0.0,0.0,0.0,0.0,0.0,0.0,0.0,0.0,0.0,0.0,0.0,0.0,0.0,0.0,0.0,-0.532,0.0,0.0,0.0,0.0,0.0,-0.547,0.0,0.0,0.0,0.0,0.0,0.0,0.0,0.0,0.0,0.0,0.0,0.0,0.0,0.0,0.0,0.0,0.0,0.0,0.0,0.0,0.0,0.0,0.0,0.0,0.0,0.0,0.0,0.0,,,,,,,,,,,,,,,,,,,,,,,,,,,,,,,,,,,,,,,,,,,,,,,,,,,,,,,,,,,,,,,,,,,,,,,,,,,,,,,,,,,,,,,,,,,,,,,,,,,,,,,,,,,,,,,,,,,,,,,,,,,,,,,,,,,,,,,,,,,,,,,,,,,,,,,,,,,,,,,,,,,,,,,,,,,,,,,,,,,,,,,,,,,,,,,,,,,,,,,moveDown
accX,0.0,0.0,-0.736,0.0,0.0,0.0,0.0,0.0,-0.797,0.0,0.0,0.0,0.0,0.0,-0.64,0.0,0.0,0.0,0.0,0.0,-0.713,0.0,0.0,0.0,0.0,0.758,-0.6679999999999999,0.53,0.0,0.0,0.0,-0.5710000000000001,-1.6,0.575,0.0,0.0,0.0,-0.96,-2.53,0.0,0.0,0.0,-0.586,-1.828,-3.33,0.0,0.591,0.0,0.0,-1.156,-3.365,0.0,0.7120000000000001,0.0,0.0,-1.145,-3.6519999999999997,-0.507,0.655,0.0,0.0,-1.591,-3.614,-0.682,0.614,0.0,-0.72,-1.2309999999999999,-2.87,-0.7659999999999999,0.6459999999999999,0.0,0.0,-0.679,-2.363,-0.653,0.0,0.0,0.0,-1.5419999999999998,-2.813,-0.711,0.0,0.0,-1.585,-2.04,-2.9560000000000004,-1.138,0.518,0.0,-1.943,-0.8,-1.953,-1.3519999999999999,1.1520000000000001,0.0,-0.867,0.0,-0.5539999999999999,-1.317,1.3530000000000002,0.0,0.0,0.0,0.7809999999999999,-1.2790000000000001,1.025,0.0,0.0,0.0,0.705,-1.105,0.56,0.0,0.0,0.0,0.0,-0.852,0.0,0.0,-1.183,0.0,0.0,-0.91,0.787,0.0,-0.522,0.0,0.65,-0.94,0.9990000000000001,0.0,0.0,-0.8270000000000001,0.542,-1.011,0.762,0.0,0.0,-0.542,1.153,-1.128,0.632,0.0,-0.9640000000000001,0.0,1.982,-1.136,0.7390000000000001,0.0,-0.517,0.0,2.657,-0.988,0.7609999999999999,0.0,0.0,0.0,2.7110000000000003,-0.7979999999999999,0.0,0.0,-0.6659999999999999,0.0,3.19,-0.753,0.0,0.0,0.0,0.0,2.9530000000000003,-0.691,0.0,0.0,0.0,0.0,2.51,-0.519,0.0,0.0,0.0,0.0,1.921,0.0,0.0,0.0,0.0,0.0,1.527,0.0,0.0,0.0,0.0,-0.586,0.961,0.0,0.0,0.0,0.0,-0.5579999999999999,0.0,0.0,0.0,0.0,0.0,0.0,0.0,0.0,0.0,0.0,-0.5329999999999999,0.0,0.0,0.0,0.0,0.0,0.0,0.0,0.7140000000000001,0.0,0.0,0.0,0.0,0.0,1.3019999999999998,0.0,0.0,0.0,0.0,0.0,1.5019999999999998,0.0,0.0,0.0,0.0,0.0,1.473,0.0,0.0,0.0,0.0,0.0,0.996,0.0,0.0,0.0,0.0,-0.9309999999999999,0.0,0.0,0.0,0.0,0.0,-0.846,-0.52,0.0,0.0,0.0,,,,,,,,,,,,,,,,,,,,,,,,,,,,,,,,,,,,,,,,,,,,,,,,,,,,,,,,,,,,,,,,,,,,,,,,,,,,,,,,,,,,,,,,,,,,,,,,,,,,,,,,,,,,,,,,,,,,,,,,,,,,,,,,,,,,,,,,,,,,,,,,,,,,,,,,,,,,,,,,,,,,,,,,,,,,,,,,,,,,,,,,,,,,,,,,,,,,,,,,,,,,,,,,,,,,,,,,,,,,,,,moveDown
accX,0.0,0.0,0.0,0.0,0.0,0.0,0.0,0.0,-0.611,0.0,0.0,0.0,0.0,-0.627,-0.9670000000000001,0.0,0.0,0.0,0.0,0.0,-0.682,0.0,0.0,0.0,0.0,0.0,0.0,0.0,0.0,0.0,0.0,-0.557,-0.523,0.0,0.0,0.0,-0.5770000000000001,-0.7559999999999999,-0.741,0.0,0.0,0.0,0.0,0.0,-0.868,0.0,0.0,0.0,0.0,0.0,-0.9420000000000001,0.0,0.0,0.0,0.0,0.0,-1.365,0.0,0.0,0.0,0.0,0.0,-2.035,0.0,0.0,0.0,0.0,-0.645,-3.0189999999999997,0.0,0.0,0.0,0.0,-1.141,-4.146,0.0,0.0,0.0,0.0,-0.965,-4.664,0.0,0.0,0.0,-0.544,-0.85,-4.462,0.0,0.0,0.0,0.0,-1.172,-4.102,0.0,0.0,0.0,-0.602,-1.115,-3.553,0.0,0.0,0.0,-1.851,-1.179,-3.3310000000000004,0.0,0.0,0.0,-2.364,-1.768,-3.234,-0.7559999999999999,0.75,0.0,-1.665,-1.682,-1.949,-1.219,1.186,0.0,-0.855,-0.7829999999999999,0.0,-1.4669999999999999,1.244,0.0,0.0,0.0,1.3719999999999999,-1.376,0.9540000000000001,0.0,0.0,0.0,2.029,-1.182,0.773,0.0,0.0,0.0,2.569,-1.128,0.758,0.0,0.0,0.0,2.905,-1.078,0.735,0.0,0.0,0.0,3.2110000000000003,-1.082,0.66,0.0,0.0,0.0,4.106,-1.0759999999999998,0.631,0.0,0.0,0.71,4.626,-0.764,0.532,0.0,0.575,0.557,3.679,0.0,0.0,0.0,0.0,0.0,1.771,0.0,0.0,0.0,-0.773,0.0,1.403,0.0,0.0,0.0,0.0,0.0,1.44,-0.527,0.0,0.0,0.0,0.0,1.663,0.0,0.0,0.0,0.0,0.0,1.5290000000000001,0.0,0.0,0.0,-0.55,0.0,1.237,0.0,0.0,0.0,0.0,-0.5720000000000001,0.953,0.0,0.0,0.0,0.0,-0.618,0.768,0.0,0.0,0.0,0.0,0.0,0.674,0.0,0.0,0.0,0.0,0.0,0.7040000000000001,0.0,0.0,0.0,0.0,0.0,0.868,0.0,0.0,0.0,0.0,0.0,0.6709999999999999,0.0,0.0,0.0,0.0,-0.501,0.0,0.0,0.0,0.0,-0.614,0.0,0.0,0.0,0.0,0.0,0.0,0.0,0.0,0.0,0.0,0.0,0.0,0.0,0.0,0.0,0.0,0.0,0.0,0.0,0.0,0.0,0.0,0.0,0.0,0.0,0.0,0.0,0.0,0.0,0.0,0.0,-0.555,0.0,0.0,0.0,0.0,0.0,0.0,0.0,0.0,0.0,,,,,,,,,,,,,,,,,,,,,,,,,,,,,,,,,,,,,,,,,,,,,,,,,,,,,,,,,,,,,,,,,,,,,,,,,,,,,,,,,,,,,,,,,,,,,,,,,,,,,,,,,,,,,,,,,,,,,,,,,,,,,,,,,,,,,,,,,,,,,,,,,,,,,,,,,,,,,,,,,,,,,,,,,,,,,,,,,,,,,,,,,,,moveDown
accX,0.0,-0.833,-0.9490000000000001,0.0,0.0,0.0,0.0,-0.659,-0.961,-0.6579999999999999,0.0,0.0,0.0,0.0,-0.998,-0.722,0.0,0.0,0.0,0.0,-1.371,-0.523,0.0,0.0,0.0,0.0,-2.137,0.0,0.52,0.0,0.0,-0.866,-2.45,0.0,0.77,0.0,0.0,-1.435,-2.436,0.0,0.795,0.0,0.691,-1.4880000000000002,-2.445,0.0,0.0,0.0,0.0,-1.204,-2.674,0.0,0.0,0.0,0.0,-1.0979999999999999,-2.91,0.0,0.0,-0.519,-0.691,-1.244,-3.222,0.0,0.0,0.0,-0.987,-1.297,-3.1519999999999997,-0.563,0.0,0.0,-0.64,-1.536,-2.694,-0.8059999999999999,0.5379999999999999,0.0,0.0,-1.3130000000000002,-1.798,-1.078,0.0,0.0,0.0,-0.755,-1.228,-1.1,0.0,0.0,-1.088,0.0,0.0,-0.9179999999999999,0.0,0.0,-0.8540000000000001,0.0,0.0,-0.6940000000000001,0.0,0.0,0.0,0.0,0.608,-0.607,0.0,0.0,0.0,0.0,0.695,-0.652,0.0,0.0,0.0,0.0,1.09,-0.733,0.0,0.0,0.0,0.0,1.442,-0.773,0.0,0.0,-0.525,0.0,2.0069999999999997,-0.82,0.511,0.0,0.0,0.0,2.559,-0.8190000000000001,0.0,0.0,0.0,0.0,2.792,-0.71,0.0,0.0,0.0,0.526,2.8939999999999997,-0.547,0.0,0.0,0.0,0.0,2.347,0.0,0.0,0.0,0.0,0.0,1.939,0.0,0.0,0.0,0.0,0.0,2.009,-0.5379999999999999,0.0,0.0,0.0,0.0,2.033,-0.506,0.0,0.0,0.0,0.0,1.047,0.0,0.0,0.0,0.0,0.0,0.927,0.0,0.0,0.0,0.0,0.0,0.9279999999999999,0.0,0.0,0.0,0.0,0.0,1.169,0.0,0.0,0.0,0.0,0.0,1.469,0.0,0.0,0.0,0.0,0.0,1.318,0.0,0.0,0.0,0.0,0.0,0.773,0.0,0.0,0.0,0.0,-0.6940000000000001,0.0,0.0,0.0,0.0,0.0,-0.7340000000000001,0.0,0.0,0.0,0.0,0.0,0.0,0.0,0.0,0.0,0.0,0.0,0.0,0.0,0.0,0.0,0.0,0.0,0.0,0.0,0.0,0.0,0.0,0.0,-0.569,0.0,0.0,0.0,0.0,0.0,0.0,-0.545,0.0,0.0,0.0,0.0,0.0,0.0,0.0,0.0,0.0,,,,,,,,,,,,,,,,,,,,,,,,,,,,,,,,,,,,,,,,,,,,,,,,,,,,,,,,,,,,,,,,,,,,,,,,,,,,,,,,,,,,,,,,,,,,,,,,,,,,,,,,,,,,,,,,,,,,,,,,,,,,,,,,,,,,,,,,,,,,,,,,,,,,,,,,,,,,,,,,,,,,,,,,,,,,,,,,,,,,,,,,,,,,,,,,,,,,,,,,,,,,,,,,,,,,,,,,,moveDown
accX,0.0,0.0,-1.3130000000000002,0.0,0.0,0.0,0.679,0.0,-1.59,0.0,0.0,0.0,0.0,0.0,-1.9,0.0,0.0,0.0,-0.526,0.0,-1.945,0.0,0.0,0.0,0.0,0.0,-1.911,0.0,0.0,0.0,0.0,-0.618,-2.37,0.0,0.509,0.0,-0.645,-0.8590000000000001,-2.444,0.0,0.595,0.0,0.0,0.0,-2.023,0.0,0.706,0.0,0.0,0.0,-2.02,0.0,0.546,0.0,0.0,-0.625,-2.17,0.0,0.0,0.0,0.0,0.0,-2.07,0.0,0.0,0.0,0.0,-0.773,-2.637,0.0,0.0,0.0,0.0,-1.7830000000000001,-2.568,0.0,0.0,0.0,-1.294,-1.173,-1.776,-0.7859999999999999,0.0,0.0,-2.096,0.0,-0.983,-0.868,0.644,0.0,-1.055,0.0,0.0,-0.852,0.8170000000000001,0.0,0.0,0.0,1.2229999999999999,-0.799,0.615,0.0,0.0,0.0,1.3090000000000002,-0.59,0.0,0.0,0.0,0.0,0.0,0.0,0.0,0.0,-0.9490000000000001,-0.77,0.0,0.0,0.654,0.0,-0.67,-0.8240000000000001,0.848,-0.782,0.8759999999999999,0.0,0.0,0.0,1.8219999999999998,-0.836,0.763,0.0,0.0,0.0,1.906,0.0,0.0,0.0,0.0,0.0,1.8519999999999999,0.0,0.0,0.0,0.0,0.0,1.743,0.0,0.0,0.0,0.0,0.0,1.2819999999999998,0.0,0.0,0.0,0.0,0.0,0.732,0.0,0.0,0.0,0.0,0.0,0.9159999999999999,0.0,0.0,0.0,0.0,0.0,1.358,0.0,0.0,0.0,0.0,0.0,1.679,0.0,0.0,0.0,0.0,0.0,0.752,0.0,0.0,0.0,0.0,0.0,0.0,0.0,0.0,0.0,0.0,0.0,0.0,0.0,0.0,0.0,0.0,0.0,1.135,-0.563,0.521,0.0,0.0,0.0,1.41,-0.624,0.0,0.0,0.0,0.0,1.266,-0.506,0.0,0.0,0.0,0.0,0.904,0.0,0.0,0.0,-0.684,-0.502,0.0,0.0,0.0,0.0,0.0,-0.589,0.6970000000000001,0.0,0.0,0.0,0.0,0.0,1.104,0.0,0.0,0.0,0.0,0.0,1.115,0.0,0.0,0.0,0.0,0.0,0.8290000000000001,0.0,0.0,0.0,0.0,-0.56,0.0,0.0,0.0,0.0,0.0,-0.963,0.0,0.0,0.0,0.0,0.0,0.0,0.0,0.0,0.0,0.0,0.0,0.0,0.0,0.0,0.0,0.0,,,,,,,,,,,,,,,,,,,,,,,,,,,,,,,,,,,,,,,,,,,,,,,,,,,,,,,,,,,,,,,,,,,,,,,,,,,,,,,,,,,,,,,,,,,,,,,,,,,,,,,,,,,,,,,,,,,,,,,,,,,,,,,,,,,,,,,,,,,,,,,,,,,,,,,,,,,,,,,,,,,,,,,,,,,,,,,,,,,,,,,,,,,,,,,,,,,,,,,,,,,,,moveDown
accX,0.0,-0.725,-2.108,0.0,0.602,0.0,0.0,-0.519,-2.032,0.0,0.59,0.0,-0.5539999999999999,-0.642,-2.384,0.0,0.585,0.0,0.0,-0.958,-3.305,0.0,0.565,0.0,-0.9229999999999999,-1.9580000000000002,-4.253,0.0,0.0,0.0,-2.998,-1.222,-3.895,-0.833,0.645,0.0,-2.002,0.0,-1.901,-1.153,1.2409999999999999,0.0,0.0,0.0,0.0,-0.922,1.043,0.0,0.0,0.0,0.0,-0.743,0.747,0.0,-0.64,0.0,0.0,-0.685,0.665,0.0,-0.879,-0.983,0.632,-0.965,0.737,0.0,0.0,0.0,1.218,-0.977,0.634,0.0,0.0,0.0,1.185,-0.7509999999999999,0.0,0.0,0.0,0.0,0.0,-0.575,0.0,0.0,-0.519,-0.56,0.0,-0.63,0.0,0.0,-0.9209999999999999,-0.55,0.0,-0.816,0.561,0.0,0.0,0.0,0.0,-0.846,0.6779999999999999,0.0,0.0,0.0,0.513,-0.7140000000000001,0.603,0.0,0.0,0.0,0.7190000000000001,-0.6659999999999999,0.5760000000000001,0.0,0.0,0.0,0.774,-0.618,0.581,0.0,0.0,0.0,0.83,-0.585,0.6459999999999999,0.0,0.0,0.0,0.9990000000000001,-0.654,0.682,0.0,0.0,0.0,1.3730000000000002,-0.742,0.644,0.0,0.0,0.0,2.16,-0.6709999999999999,0.631,0.0,0.0,0.0,2.497,0.0,0.0,0.0,0.0,0.0,2.07,0.0,0.0,0.0,0.0,0.0,1.2919999999999998,0.0,0.0,0.0,-0.74,0.0,1.196,0.0,0.0,0.0,0.0,0.0,1.304,0.0,0.0,0.0,0.0,0.0,1.082,0.0,0.0,0.0,0.0,0.0,0.506,0.0,0.0,0.0,0.0,0.0,0.0,0.0,0.0,0.0,-0.625,0.0,0.735,0.0,0.0,0.0,0.0,0.0,0.83,0.0,0.0,0.0,0.0,0.0,0.0,0.0,0.0,0.0,0.0,0.0,0.0,0.0,0.0,0.0,0.0,0.0,0.0,0.0,0.0,0.0,0.0,-0.509,0.0,0.0,0.0,0.0,0.0,-0.511,0.0,0.0,0.0,0.0,0.0,0.0,0.0,0.0,0.0,0.0,0.0,0.0,0.0,0.0,0.0,0.0,0.0,0.0,0.0,0.0,0.0,0.0,0.0,0.0,0.0,0.0,0.0,0.0,0.0,0.0,0.0,0.0,0.0,0.0,0.0,0.0,0.0,0.0,0.0,0.0,0.0,0.0,0.0,0.0,0.0,0.0,0.0,0.0,0.0,0.0,0.0,0.0,0.0,0.0,0.0,0.0,0.0,0.0,0.0,0.0,0.0,0.0,0.0,0.0,0.0,0.0,0.0,0.0,0.0,0.0,0.0,0.0,0.61,0.0,0.0,0.0,0.0,0.0,0.542,0.0,0.0,0.0,0.0,0.0,0.0,0.0,0.0,0.0,0.0,0.0,0.0,0.0,0.0,0.0,0.0,0.0,0.599,0.0,0.0,0.0,,,,,,,,,,,,,,,,,,,,,,,,,,,,,,,,,,,,,,,,,,,,,,,,,,,,,,,,,,,,,,,,,,,,,,,,,,,,,,,,,,,,,,,,,,,,,,,,,,,,,,,,,,,,,,,,,,,,,,,,,,,,,,,,,,,,,,,,,,,,,,,,,,,,,,,moveDown
accX,0.0,-1.262,-2.081,0.0,0.0,0.0,0.0,-0.701,-1.964,-0.524,0.0,0.0,-0.579,0.0,-1.574,-0.575,0.0,0.0,-0.594,0.0,-1.071,0.0,0.0,0.0,0.0,0.0,-1.045,0.0,0.0,0.0,0.0,-1.115,-1.975,0.0,0.0,0.0,-0.633,-1.847,-2.084,0.0,0.0,0.0,-0.696,-1.284,-1.669,-0.715,0.0,0.0,0.0,0.0,-1.2329999999999999,-0.669,0.0,0.0,0.0,0.0,-1.305,0.0,0.0,0.0,0.0,0.0,-1.318,0.0,0.0,0.0,-0.835,-0.941,-1.9269999999999998,0.0,0.0,0.0,-0.5670000000000001,-0.887,-2.245,-0.541,0.0,0.0,-0.7559999999999999,-0.927,-2.182,-0.732,0.589,0.0,-0.71,-0.69,-1.4780000000000002,-0.867,0.8079999999999999,0.0,0.0,-0.763,-0.9420000000000001,-0.897,0.763,0.0,0.0,0.0,0.0,-0.852,0.7090000000000001,0.0,-0.526,0.0,0.0,-0.7070000000000001,0.721,0.0,0.0,0.0,0.0,-0.617,0.718,0.0,-0.789,0.0,0.698,-0.7390000000000001,0.8390000000000001,0.0,-0.722,0.0,1.732,-0.879,1.058,0.0,0.0,0.0,2.7880000000000003,-0.8859999999999999,1.006,0.0,0.0,0.0,2.8369999999999997,-0.682,0.652,0.0,0.0,0.0,2.638,0.0,0.0,0.0,0.0,0.0,2.448,0.0,0.0,0.0,0.0,0.0,2.374,0.0,0.0,0.0,0.0,0.0,2.323,-0.5529999999999999,0.0,0.0,0.0,0.0,2.3,0.0,0.0,0.0,0.0,0.0,2.086,0.0,0.0,0.0,0.0,0.0,1.415,0.0,0.0,0.0,0.0,0.0,0.706,0.0,0.0,0.0,0.0,0.0,0.0,0.0,0.0,0.0,0.0,0.0,0.6779999999999999,0.0,0.0,0.0,0.0,0.0,0.735,0.0,0.0,0.0,0.0,0.0,0.956,0.0,0.0,0.0,0.0,0.0,0.74,0.0,0.0,0.0,0.0,-0.718,0.552,0.0,0.0,0.0,0.0,0.0,0.0,0.0,0.0,0.0,0.0,0.0,0.0,0.0,0.0,0.0,0.0,0.0,0.0,0.0,0.0,0.0,0.0,-0.515,-0.581,0.0,0.0,0.0,0.0,0.0,0.0,0.0,0.0,0.0,0.0,0.0,0.0,0.0,0.0,0.0,,,,,,,,,,,,,,,,,,,,,,,,,,,,,,,,,,,,,,,,,,,,,,,,,,,,,,,,,,,,,,,,,,,,,,,,,,,,,,,,,,,,,,,,,,,,,,,,,,,,,,,,,,,,,,,,,,,,,,,,,,,,,,,,,,,,,,,,,,,,,,,,,,,,,,,,,,,,,,,,,,,,,,,,,,,,,,,,,,,,,,,,,,,,,,,,,,,,,,,,,,,,,,,,,,,,,,,,,,,,,,,moveDown
accX,0.0,-0.746,0.0,0.0,0.0,0.0,-0.85,0.0,0.0,0.0,0.0,0.0,0.0,0.0,0.0,0.0,0.0,0.0,0.0,0.0,0.0,0.0,0.0,0.0,0.0,0.0,0.0,0.0,0.0,0.0,0.0,-0.9359999999999999,-0.855,0.0,0.0,0.0,0.0,0.0,-0.966,0.0,0.0,0.0,0.0,0.0,-1.354,0.0,0.0,0.0,0.0,0.0,-1.744,0.0,0.0,0.0,0.0,-0.605,-2.27,0.0,0.0,0.0,0.0,-0.764,-2.7539999999999996,0.0,0.0,0.0,0.0,-1.07,-3.641,0.0,0.0,0.0,0.0,-1.76,-4.421,0.0,0.0,0.0,-0.6579999999999999,-1.393,-3.912,-0.7959999999999999,0.5329999999999999,0.0,-0.809,0.0,-3.083,-0.948,0.67,0.0,-0.775,0.0,-2.998,-0.637,0.713,0.0,-0.778,-1.081,-3.0839999999999996,-0.623,0.66,0.0,-1.3619999999999999,-1.535,-3.009,-0.86,0.8390000000000001,0.0,-1.536,-1.324,-2.155,-1.123,1.147,0.0,-0.87,-0.956,-0.904,-1.217,1.129,0.0,0.0,-0.5660000000000001,0.0,-1.114,0.9,0.0,-0.6659999999999999,-0.703,0.0,-1.074,0.701,0.0,-0.889,0.0,0.6859999999999999,-1.052,0.718,0.0,-0.846,0.0,0.868,-1.01,0.852,0.0,-0.506,-0.7,1.225,-1.02,0.802,0.0,0.0,0.0,2.303,-1.0490000000000002,0.706,0.0,0.0,0.0,2.8360000000000003,-0.9690000000000001,0.563,0.0,0.0,0.0,3.194,-0.797,0.0,0.0,0.0,0.0,3.043,-0.665,0.0,0.0,0.0,0.0,2.6239999999999997,-0.5920000000000001,0.0,0.0,0.0,0.0,2.399,-0.531,0.0,0.0,-0.895,0.0,2.215,0.0,0.0,0.0,-0.537,0.0,2.17,0.0,0.0,0.0,0.0,0.0,2.228,-0.513,0.0,0.0,0.0,0.0,2.009,0.0,0.0,0.0,0.0,0.0,1.7469999999999999,0.0,0.0,0.0,0.0,0.0,1.439,0.0,0.0,0.0,0.0,0.0,1.204,0.0,0.0,0.0,0.0,0.0,1.124,0.0,0.0,0.0,0.0,0.0,1.141,0.0,0.0,0.0,0.0,0.0,0.649,0.0,0.0,0.0,0.0,0.0,0.0,0.0,0.0,0.0,0.0,0.0,0.0,0.0,0.0,0.0,0.0,0.0,0.0,0.0,0.0,0.0,0.0,0.0,0.0,0.0,0.0,0.0,0.0,0.0,0.0,0.0,0.0,0.0,0.0,0.0,0.0,0.0,0.0,0.0,,,,,,,,,,,,,,,,,,,,,,,,,,,,,,,,,,,,,,,,,,,,,,,,,,,,,,,,,,,,,,,,,,,,,,,,,,,,,,,,,,,,,,,,,,,,,,,,,,,,,,,,,,,,,,,,,,,,,,,,,,,,,,,,,,,,,,,,,,,,,,,,,,,,,,,,,,,,,,,,,,,,,,,,,,,,,,,,,,,,,,,,,,,,,,,,,,,,,,,moveDown
accX,-0.623,0.0,0.0,0.0,0.0,0.0,-0.7809999999999999,0.0,0.0,0.0,0.0,0.0,-0.594,0.0,0.0,0.0,0.0,0.0,0.0,0.0,0.0,0.0,0.0,0.0,0.0,0.0,0.0,0.0,0.0,0.0,0.0,0.0,0.0,0.0,0.0,0.0,0.0,0.0,-0.6609999999999999,0.0,0.0,0.0,0.0,-0.589,-1.203,0.0,0.0,0.0,0.0,-0.61,-1.5959999999999999,0.0,0.0,0.0,0.0,0.0,-1.6769999999999998,0.0,0.0,0.0,0.0,-0.6940000000000001,-1.7619999999999998,0.0,0.0,0.0,0.618,-1.077,-2.01,0.0,0.0,0.0,0.0,-0.9990000000000001,-2.387,0.0,0.0,0.0,-0.547,-0.669,-2.6719999999999997,0.0,0.0,0.0,-0.902,-1.013,-2.968,0.0,0.0,0.0,-0.66,-1.776,-3.3169999999999997,0.0,0.5660000000000001,0.0,0.0,-2.36,-3.3539999999999996,-0.545,0.607,0.0,0.0,-2.4090000000000003,-2.9360000000000004,-0.937,0.0,0.0,-1.339,-1.2009999999999998,-2.083,-1.247,0.0,0.0,-1.7380000000000002,0.0,-1.464,-0.899,0.644,0.0,-1.126,-0.9690000000000001,-1.236,-0.747,0.888,0.0,-0.586,-1.589,-1.024,-0.963,0.855,0.0,0.0,-1.786,-0.787,-1.376,0.602,0.0,-0.745,-0.9279999999999999,0.0,-1.58,0.536,0.0,-0.8909999999999999,0.0,0.8340000000000001,-1.3,0.772,0.0,-0.5529999999999999,0.0,1.8330000000000002,-1.105,1.07,0.0,0.0,0.0,2.7769999999999997,-1.12,1.138,0.0,0.0,0.0,3.352,-1.1159999999999999,0.95,0.0,0.7440000000000001,0.0,2.971,-1.037,0.0,0.0,0.0,0.0,2.387,-0.91,0.0,0.0,0.0,0.0,2.376,-0.873,0.0,0.0,0.0,0.0,2.6319999999999997,-0.9109999999999999,0.748,0.0,0.0,0.0,2.508,-0.7340000000000001,0.693,0.0,0.0,0.0,1.578,-0.519,0.0,0.0,-0.529,0.0,1.4909999999999999,-0.516,0.0,0.0,0.0,0.0,1.537,-0.544,0.0,0.0,0.0,0.0,1.319,-0.524,0.0,0.0,0.0,0.0,0.992,0.0,0.0,0.0,0.0,0.0,0.927,0.0,0.0,0.0,0.0,0.0,1.203,0.0,0.0,0.0,0.0,0.0,1.298,0.0,0.0,0.0,0.0,-0.5710000000000001,1.104,0.0,0.0,0.0,0.0,-0.65,0.773,0.0,0.0,0.0,-0.5489999999999999,-0.579,0.0,0.0,0.0,0.0,0.0,0.0,0.0,0.0,0.0,0.0,0.0,-0.795,0.0,0.0,0.0,0.0,0.0,0.0,0.0,0.0,0.0,0.0,0.0,0.0,0.0,0.0,0.0,0.0,0.0,0.0,0.0,0.0,0.0,0.0,,,,,,,,,,,,,,,,,,,,,,,,,,,,,,,,,,,,,,,,,,,,,,,,,,,,,,,,,,,,,,,,,,,,,,,,,,,,,,,,,,,,,,,,,,,,,,,,,,,,,,,,,,,,,,,,,,,,,,,,,,,,,,,,,,,,,,,,,,,,,,,,,,,,,,,,,,,,,,,,,,,,,,,,,,,,,,,,,,,,,,,,,,,moveDown
accX,0.0,0.0,-0.664,0.0,0.0,0.0,0.0,0.0,-0.7090000000000001,0.0,0.0,0.0,0.0,0.0,-0.5870000000000001,0.0,0.0,0.0,0.0,0.0,-0.631,0.0,0.0,0.0,-0.8320000000000001,0.0,-1.4169999999999998,0.0,0.0,0.0,0.0,0.0,-1.5730000000000002,0.0,0.0,0.0,0.0,0.0,-1.6280000000000001,0.0,0.0,0.0,0.0,0.0,-1.496,0.0,0.0,0.0,0.0,0.0,-1.3630000000000002,0.0,0.0,0.0,0.0,0.0,-1.992,0.0,0.0,0.0,-0.627,-0.863,-3.0780000000000003,0.0,0.0,0.0,-0.5670000000000001,-0.795,-3.3110000000000004,0.0,0.5710000000000001,0.0,0.0,-0.5670000000000001,-3.049,0.0,0.653,0.0,0.0,-0.5539999999999999,-2.9210000000000003,-0.563,0.0,0.0,-0.579,0.0,-2.87,-0.652,0.0,0.0,-1.242,0.0,-3.057,-0.624,0.0,0.0,-1.167,-0.618,-3.176,-0.526,0.7340000000000001,0.0,-0.847,-0.963,-2.6439999999999997,-0.5870000000000001,0.945,0.0,-0.521,-0.772,-1.456,-0.789,0.9590000000000001,0.0,0.0,0.0,0.0,-0.878,0.873,0.0,0.0,0.0,0.0,-0.526,0.583,0.0,-0.531,0.0,0.0,0.0,0.0,0.0,-0.992,-1.044,0.0,0.0,0.0,0.0,-1.073,-0.987,1.147,-0.821,0.7120000000000001,0.0,-0.805,-0.631,2.173,-1.094,0.88,0.0,0.0,0.0,2.451,-1.018,0.772,0.0,0.0,0.0,2.6319999999999997,-0.753,0.575,0.0,0.0,0.0,2.2640000000000002,0.0,0.0,0.0,0.0,-0.565,2.053,0.0,0.0,0.0,0.0,0.0,2.336,-0.648,0.602,0.0,0.0,0.0,2.793,-0.8059999999999999,0.7070000000000001,0.0,0.0,0.0,3.049,-0.7090000000000001,0.547,0.0,0.0,0.0,2.9810000000000003,0.0,0.0,0.0,0.0,0.0,2.238,0.0,0.0,0.0,0.0,0.0,1.436,0.0,0.0,0.0,-0.563,0.0,0.9329999999999999,0.0,0.0,0.0,0.0,0.0,0.9470000000000001,0.0,0.0,0.0,0.0,0.0,1.351,0.0,0.0,0.0,0.0,0.0,1.933,0.0,0.0,0.0,0.0,0.0,2.013,0.0,0.0,0.0,0.0,0.0,1.426,0.0,0.0,0.0,-0.731,0.0,0.507,0.0,0.0,0.0,-0.591,-0.61,0.0,0.0,0.0,0.0,0.0,-0.525,0.0,0.0,0.0,0.0,0.0,0.0,0.0,0.0,0.0,0.0,0.0,-0.545,0.0,0.0,0.0,0.0,0.0,0.0,0.0,0.0,0.0,0.0,0.0,0.0,0.0,0.0,0.0,0.0,0.0,0.0,0.0,0.0,0.0,0.0,0.0,0.0,0.0,0.0,0.0,0.0,,,,,,,,,,,,,,,,,,,,,,,,,,,,,,,,,,,,,,,,,,,,,,,,,,,,,,,,,,,,,,,,,,,,,,,,,,,,,,,,,,,,,,,,,,,,,,,,,,,,,,,,,,,,,,,,,,,,,,,,,,,,,,,,,,,,,,,,,,,,,,,,,,,,,,,,,,,,,,,,,,,,,,,,,,,,,,,,,,,,,moveDown
accX,0.0,0.0,0.0,0.0,0.0,0.0,0.0,0.0,0.0,0.0,0.0,0.0,0.0,0.0,0.0,0.0,0.0,0.0,0.0,0.0,0.0,0.0,0.0,0.0,0.0,-0.588,0.0,0.0,0.0,0.0,0.0,-0.636,0.0,0.0,0.0,0.0,0.0,0.0,0.0,0.0,0.0,0.0,0.0,0.0,0.0,0.0,0.0,0.0,0.0,0.0,0.0,0.0,0.0,0.0,0.0,0.0,0.0,0.0,0.0,0.0,0.0,0.0,-0.6679999999999999,0.0,0.0,0.0,0.0,0.0,-1.33,0.0,0.0,0.0,0.0,0.0,-1.745,0.0,0.0,0.0,0.0,0.0,-1.9180000000000001,0.0,0.0,0.0,0.0,0.0,-2.642,0.0,0.0,0.0,0.0,-0.508,-3.802,0.0,0.0,0.0,0.0,-1.3730000000000002,-4.696000000000001,0.0,0.0,0.0,0.0,-1.18,-4.849,-0.578,0.0,0.0,-0.537,-0.961,-5.07,-0.654,0.544,0.0,0.0,-1.699,-5.476,-0.731,0.0,0.0,-0.7979999999999999,-1.291,-4.6610000000000005,-1.1159999999999999,0.0,-0.523,-1.921,0.0,-3.05,-0.728,0.0,0.0,-1.75,-0.557,-1.974,-0.521,0.5539999999999999,0.0,-1.4369999999999998,-1.7830000000000001,-1.1179999999999999,-1.1159999999999999,0.69,0.0,-1.617,-1.166,0.0,-1.71,0.9059999999999999,0.0,-1.2990000000000002,0.0,1.935,-1.617,1.12,0.0,-0.644,0.0,2.739,-1.208,1.102,0.0,0.0,0.0,2.8989999999999996,-0.9309999999999999,0.9259999999999999,0.0,0.0,-0.588,3.005,-0.872,0.813,0.0,0.0,-0.573,3.012,-0.848,0.693,0.0,0.0,-0.52,3.28,-0.83,0.5539999999999999,0.0,0.0,0.0,3.4160000000000004,-0.682,0.0,0.0,0.0,0.0,3.372,0.0,0.0,0.0,0.0,0.0,2.806,0.0,0.0,0.0,0.0,-0.591,1.6580000000000001,0.0,0.0,0.0,-0.544,-0.53,0.993,0.0,0.0,0.0,-0.642,0.0,0.8340000000000001,0.0,0.0,0.0,0.0,0.0,1.381,-0.565,0.544,0.0,0.0,0.0,1.892,0.0,0.0,0.0,0.0,0.0,2.2840000000000003,0.0,0.0,0.0,0.0,0.0,2.0180000000000002,0.0,0.0,0.0,-0.622,0.0,1.7730000000000001,0.0,0.0,0.0,0.0,0.0,1.798,0.0,0.0,0.0,0.0,0.0,1.776,0.0,0.0,0.0,0.0,0.0,1.2790000000000001,0.0,0.0,0.0,-0.502,-0.575,0.0,0.0,0.0,0.0,0.0,-0.8,-0.902,0.0,0.0,0.0,0.0,-0.632,-1.0090000000000001,0.0,0.0,0.0,0.0,0.0,-0.741,0.0,0.0,0.0,,,,,,,,,,,,,,,,,,,,,,,,,,,,,,,,,,,,,,,,,,,,,,,,,,,,,,,,,,,,,,,,,,,,,,,,,,,,,,,,,,,,,,,,,,,,,,,,,,,,,,,,,,,,,,,,,,,,,,,,,,,,,,,,,,,,,,,,,,,,,,,,,,,,,,,,,,,,,,,,,,,,,,,,,,,,,,,,,,,,,,,,,,,moveDown
accX,0.0,-0.625,0.0,0.0,0.0,0.0,0.0,0.0,0.0,0.0,0.0,0.0,0.0,0.0,0.0,0.0,0.0,0.0,0.0,0.0,0.0,0.0,0.0,0.0,0.0,0.0,0.0,0.0,0.0,0.0,0.0,0.0,0.0,0.0,0.0,0.0,0.0,0.0,0.0,0.0,0.0,0.0,0.0,0.0,-0.555,0.0,0.0,0.0,0.0,0.0,-0.792,0.0,0.0,0.0,0.0,0.0,-0.9940000000000001,0.0,0.0,0.0,0.0,0.0,-1.4069999999999998,0.0,0.0,0.0,0.0,0.0,-1.7619999999999998,0.0,0.0,0.0,0.0,0.0,-2.1069999999999998,0.0,0.0,0.0,0.0,-0.51,-2.8280000000000003,0.0,0.0,0.0,0.0,-0.914,-3.906,0.0,0.0,0.0,0.0,-1.229,-4.284,0.0,0.0,0.0,-0.511,-1.198,-3.915,0.0,0.648,0.0,0.0,-0.905,-3.427,-0.544,0.621,0.0,-0.9359999999999999,-0.675,-3.125,-0.53,0.501,0.0,-1.3619999999999999,-1.033,-3.228,0.0,0.0,0.0,-1.699,-1.9409999999999998,-2.858,0.0,0.607,0.0,-1.328,-1.11,-1.4380000000000002,-0.813,0.868,0.0,0.0,0.0,0.0,-0.985,1.016,0.0,0.0,0.0,0.0,-0.863,0.524,0.0,0.0,0.0,0.0,-0.868,0.0,0.0,-0.938,0.0,0.0,-0.8809999999999999,0.0,0.0,-0.847,0.0,0.937,-1.038,0.733,0.0,0.0,0.0,1.716,-1.147,0.858,0.0,0.0,0.0,2.465,-1.104,0.745,0.0,0.0,0.0,2.6689999999999996,-0.852,0.599,0.0,0.0,0.0,2.615,-0.659,0.504,0.0,0.0,-0.527,2.593,-0.706,0.0,0.0,0.0,-0.532,2.822,-0.905,0.514,0.0,0.0,0.0,3.2510000000000003,-0.833,0.0,0.0,0.0,0.0,3.386,0.0,0.0,0.0,0.0,0.0,3.033,0.0,0.0,0.0,0.0,-0.624,2.227,0.0,0.0,0.0,0.0,-0.818,1.632,0.0,0.0,0.0,0.0,0.0,1.337,0.0,0.0,0.0,0.0,0.0,1.023,0.0,0.0,0.0,0.0,0.0,0.621,0.0,0.0,0.0,0.0,0.0,0.0,0.0,0.0,0.0,0.0,0.0,0.0,0.0,0.0,0.0,0.0,0.0,0.0,0.0,0.0,0.0,0.0,0.0,0.0,0.0,0.0,0.0,,,,,,,,,,,,,,,,,,,,,,,,,,,,,,,,,,,,,,,,,,,,,,,,,,,,,,,,,,,,,,,,,,,,,,,,,,,,,,,,,,,,,,,,,,,,,,,,,,,,,,,,,,,,,,,,,,,,,,,,,,,,,,,,,,,,,,,,,,,,,,,,,,,,,,,,,,,,,,,,,,,,,,,,,,,,,,,,,,,,,,,,,,,,,,,,,,,,,,,,,,,,,,,,,,,moveDown
accX,0.0,0.0,0.0,0.0,0.0,0.0,0.0,0.0,0.0,0.0,0.0,0.0,0.0,0.0,0.0,0.0,0.0,0.0,0.0,0.0,0.0,0.0,0.0,0.0,0.0,0.0,0.0,0.0,0.0,0.0,0.0,-0.81,-1.0390000000000001,0.0,0.0,0.0,0.0,0.0,-1.0290000000000001,0.0,0.0,0.0,0.0,0.0,-0.715,0.0,0.0,0.0,0.0,0.0,0.0,0.0,0.0,0.0,0.0,0.0,0.0,0.0,0.0,0.0,0.0,0.0,0.0,0.0,0.0,0.0,0.0,0.0,0.0,0.0,0.0,0.0,0.0,0.0,0.0,0.0,0.0,0.0,0.0,0.0,-0.607,0.0,0.0,0.0,0.0,0.0,0.0,0.0,0.0,0.0,0.0,0.0,-0.547,0.0,0.0,0.0,0.0,0.0,-0.8859999999999999,0.0,0.0,0.0,0.0,0.0,-1.172,0.0,0.0,0.0,0.0,0.0,-1.771,0.0,0.0,0.0,0.0,0.0,-2.553,0.0,0.0,0.0,0.0,0.0,-3.158,0.0,0.0,0.0,0.0,0.0,-3.247,0.0,0.0,0.0,0.0,0.0,-3.555,0.0,0.0,0.0,0.0,0.0,-3.818,0.0,0.0,0.0,-0.503,0.0,-3.661,0.0,0.0,0.0,-0.938,0.0,-2.8280000000000003,0.0,0.0,0.0,-0.8490000000000001,-0.506,-2.269,0.0,0.0,0.0,0.0,0.0,-1.78,0.0,0.0,0.0,-0.525,0.0,-1.103,0.0,0.0,0.0,-0.536,0.0,0.0,0.0,0.0,0.0,-0.562,0.0,0.0,0.0,0.521,0.0,-1.06,0.0,1.3030000000000002,0.0,0.675,0.0,-0.823,0.0,2.206,0.0,0.764,0.0,0.0,0.534,2.821,0.0,0.659,0.0,0.0,0.0,2.395,0.0,0.0,0.0,0.0,0.0,2.52,0.0,0.0,0.0,-0.883,0.0,2.8680000000000003,0.0,0.588,0.0,0.0,0.0,3.128,-0.65,0.6940000000000001,0.0,0.0,0.0,3.2939999999999996,-0.6459999999999999,0.0,0.0,0.0,0.0,2.673,0.0,0.0,0.0,0.0,0.0,2.112,0.0,0.0,0.0,-0.679,0.0,1.48,0.0,0.0,0.0,-0.574,-0.598,1.2229999999999999,0.0,0.0,0.0,0.0,0.0,1.666,0.0,0.0,0.0,0.0,0.0,1.9140000000000001,0.0,0.0,0.0,0.0,0.0,1.412,0.0,0.0,0.0,-0.7909999999999999,-0.589,0.0,0.0,0.0,0.0,-1.0859999999999999,-0.9440000000000001,0.0,0.0,0.0,0.0,0.0,-0.7659999999999999,0.0,0.0,0.0,0.0,0.51,0.0,0.0,0.0,0.0,0.0,0.0,0.0,-0.55,0.0,0.0,0.0,0.0,0.0,-0.633,0.0,0.0,0.0,0.0,0.0,0.0,0.0,0.0,0.0,0.0,0.0,0.0,0.0,0.0,0.0,,,,,,,,,,,,,,,,,,,,,,,,,,,,,,,,,,,,,,,,,,,,,,,,,,,,,,,,,,,,,,,,,,,,,,,,,,,,,,,,,,,,,,,,,,,,,,,,,,,,,,,,,,,,,,,,,,,,,,,,,,,,,,,,,,,,,,,,,,,,,,,,,,,,,,,,,,,,,moveDown
accX,0.0,0.0,-0.8170000000000001,0.0,0.0,0.0,-0.525,0.0,-0.54,0.0,0.0,0.0,0.0,0.0,0.0,0.0,0.0,0.0,0.0,0.0,0.0,0.0,0.0,0.0,0.0,0.0,-0.772,0.0,0.0,0.0,0.0,-1.531,-2.151,0.0,0.0,0.0,0.0,-2.023,-2.76,0.0,0.0,0.0,0.0,-1.103,-2.162,0.0,0.0,0.0,0.0,0.0,-1.167,-0.6509999999999999,0.0,0.0,0.0,0.0,-0.631,-0.524,0.534,0.0,0.0,0.0,-0.982,0.0,0.0,0.0,0.0,0.0,-1.538,0.0,0.0,0.0,-1.062,-0.945,-1.845,0.0,0.0,0.0,-0.884,-0.784,-1.4669999999999999,0.0,0.0,0.0,0.0,0.0,-0.996,0.0,0.0,0.0,0.0,0.0,-0.631,0.0,0.0,0.0,0.0,0.0,-0.53,0.0,0.0,0.0,0.0,0.0,-0.9059999999999999,0.0,0.0,0.0,0.0,0.0,-1.805,0.0,0.0,0.0,-0.634,-0.929,-2.133,0.0,0.0,0.0,-1.199,-0.9229999999999999,-1.851,-0.512,0.0,0.0,-0.621,-0.536,-1.162,-0.857,0.89,0.0,0.0,-0.618,-0.775,-0.9259999999999999,0.731,0.0,0.0,-0.586,0.0,-0.992,0.0,0.0,0.0,0.0,0.0,-1.0090000000000001,0.513,0.0,0.0,0.0,1.023,-0.934,0.675,0.0,0.0,0.0,1.5230000000000001,-0.872,0.755,0.0,0.0,0.0,2.003,-0.873,0.693,0.0,0.0,0.0,2.438,-0.8240000000000001,0.569,0.0,0.0,0.0,2.419,-0.698,0.0,0.0,0.0,0.0,2.242,-0.547,0.0,0.0,0.0,0.0,1.6340000000000001,0.0,0.0,0.0,-0.53,0.0,1.69,-0.607,0.0,0.0,-0.5760000000000001,0.0,1.9140000000000001,-0.607,0.0,0.0,0.0,0.0,1.506,0.0,0.0,0.0,0.0,0.0,0.838,0.0,0.0,0.0,0.0,0.0,0.523,0.0,0.0,0.0,-0.6920000000000001,0.0,0.0,0.0,0.0,0.0,-0.748,0.0,0.585,0.0,0.0,0.0,0.0,0.0,0.695,0.0,0.0,0.0,0.0,0.0,1.013,0.0,0.0,0.0,0.0,0.0,1.171,0.0,0.0,0.0,0.0,0.0,1.124,0.0,0.0,0.0,0.0,-0.7929999999999999,0.782,0.0,0.0,0.0,0.0,-0.8390000000000001,0.0,-0.5579999999999999,0.0,0.0,0.0,0.0,0.0,0.0,0.0,0.0,0.0,-0.619,0.0,0.0,0.0,0.0,0.0,-0.8420000000000001,0.0,0.0,0.0,0.0,0.0,0.0,0.0,0.0,0.0,0.0,0.0,0.0,0.0,0.0,0.0,0.0,,,,,,,,,,,,,,,,,,,,,,,,,,,,,,,,,,,,,,,,,,,,,,,,,,,,,,,,,,,,,,,,,,,,,,,,,,,,,,,,,,,,,,,,,,,,,,,,,,,,,,,,,,,,,,,,,,,,,,,,,,,,,,,,,,,,,,,,,,,,,,,,,,,,,,,,,,,,,,,,,,,,,,,,,,,,,,,,,,,,,moveDown
accX,0.0,0.0,0.0,0.0,0.0,0.0,0.0,0.0,0.0,0.0,0.0,0.0,0.0,0.0,0.0,0.0,0.0,0.0,0.0,0.0,0.0,0.0,0.0,0.0,0.0,0.0,0.0,0.0,0.0,0.0,0.0,0.0,0.0,0.0,0.0,0.0,0.0,0.0,-0.7140000000000001,0.0,0.0,0.0,0.0,0.0,-1.1079999999999999,0.0,0.0,0.0,0.0,0.0,-1.719,0.0,0.0,0.0,0.0,0.0,-2.022,0.0,0.0,0.0,0.0,0.0,-2.722,0.0,0.0,0.0,0.0,0.0,-3.09,0.0,0.0,0.0,0.0,0.0,-3.681,0.0,0.0,0.0,0.0,0.0,-3.739,0.0,0.0,0.0,0.0,0.0,-3.897,0.0,0.0,0.0,0.0,0.0,-3.952,0.0,0.0,0.0,-1.053,-0.6559999999999999,-3.178,0.0,0.0,0.0,-1.149,-0.537,-2.178,0.0,0.0,0.0,-0.688,0.0,-1.4609999999999999,0.0,0.0,0.0,0.0,0.0,-0.97,0.0,0.0,0.0,0.0,0.0,-0.872,0.0,0.0,0.0,-0.867,0.0,0.0,0.0,0.0,0.0,-1.3319999999999999,0.0,0.5710000000000001,0.0,0.513,0.0,-1.219,0.0,1.751,-0.534,0.772,0.0,0.0,0.0,2.577,-0.5329999999999999,0.726,0.0,0.0,0.0,2.577,0.0,0.0,0.0,0.0,0.0,2.798,0.0,0.0,0.0,-0.802,0.0,2.969,-0.575,0.0,0.0,0.0,0.0,3.135,-0.632,0.64,0.0,0.0,0.0,2.887,0.0,0.0,0.0,0.0,0.0,2.6310000000000002,0.0,0.0,0.0,0.0,0.0,1.7309999999999999,0.0,0.0,0.0,-0.5489999999999999,0.0,1.056,0.0,0.0,0.0,0.0,-0.569,0.748,0.0,0.0,0.0,0.0,0.0,1.115,-0.638,0.0,0.0,0.0,0.0,1.222,0.0,0.0,0.0,0.0,0.0,1.088,0.0,0.0,0.0,-0.605,-0.5670000000000001,0.615,0.0,0.0,0.0,-0.955,-0.831,0.0,-0.703,0.723,0.0,0.0,0.0,0.787,-0.879,0.754,0.0,0.0,0.0,1.025,-0.613,0.0,0.0,0.0,0.0,0.0,0.0,0.0,0.0,0.0,-0.7829999999999999,0.0,0.0,0.0,0.0,0.0,-0.626,0.0,0.0,0.0,0.0,0.0,0.0,0.0,0.0,0.0,0.0,0.0,0.0,0.0,0.0,0.0,0.0,,,,,,,,,,,,,,,,,,,,,,,,,,,,,,,,,,,,,,,,,,,,,,,,,,,,,,,,,,,,,,,,,,,,,,,,,,,,,,,,,,,,,,,,,,,,,,,,,,,,,,,,,,,,,,,,,,,,,,,,,,,,,,,,,,,,,,,,,,,,,,,,,,,,,,,,,,,,,,,,,,,,,,,,,,,,,,,,,,,,,,,,,,,,,,,,,,,,,,,,,,,,,moveDown
accX,0.0,0.0,0.0,0.0,0.0,0.0,0.0,0.0,0.0,0.0,0.0,0.0,0.0,0.0,0.0,0.0,0.0,0.0,-0.642,0.0,-0.767,0.0,0.0,0.0,0.0,0.0,-0.591,0.0,0.0,0.0,0.0,0.0,-0.8370000000000001,0.0,0.0,0.0,0.0,-1.175,-1.454,0.0,0.0,0.0,0.0,-0.853,-1.232,0.0,0.0,0.0,0.0,0.0,-0.917,0.0,0.0,0.0,0.0,0.0,0.0,0.0,0.0,0.0,0.0,0.0,0.0,0.0,0.0,0.0,0.0,0.0,0.0,0.0,0.0,0.0,0.0,-0.51,-1.0759999999999998,0.0,0.0,0.0,0.0,-0.608,-1.4880000000000002,0.0,0.0,0.0,0.0,0.0,-1.065,0.0,0.0,0.0,0.0,0.0,-0.727,0.0,0.0,0.0,0.638,0.0,-1.4480000000000002,0.0,0.0,0.0,0.607,0.0,-3.114,0.0,0.0,0.0,-1.469,-1.589,-4.5360000000000005,0.0,0.0,0.0,-0.9470000000000001,0.0,-3.545,-0.6809999999999999,0.878,0.0,0.6,0.0,-3.1260000000000003,0.0,0.799,0.0,0.58,-0.573,-3.5210000000000004,0.0,0.0,0.0,0.0,0.0,-2.945,-0.56,0.0,0.0,-1.3630000000000002,0.0,-1.635,-0.511,0.0,0.0,-1.3430000000000002,0.0,0.0,0.0,0.7879999999999999,0.0,-0.523,0.0,0.0,0.0,0.8370000000000001,0.0,0.0,-0.738,0.524,0.0,0.526,0.0,0.0,-1.1640000000000001,0.97,-0.508,0.0,0.0,-0.833,-0.701,1.7280000000000002,-0.6679999999999999,0.0,0.0,-0.555,0.0,2.372,-0.685,0.616,0.0,0.0,0.0,2.273,0.0,0.0,0.0,0.0,-0.5579999999999999,2.316,0.0,0.0,0.0,0.0,0.0,2.668,-0.586,0.0,0.0,0.0,0.0,2.785,-0.618,0.527,0.0,0.0,0.0,2.6710000000000003,-0.541,0.0,0.0,0.0,0.0,2.613,0.0,0.0,0.0,0.0,0.0,2.367,0.0,0.0,0.0,-0.74,0.0,1.9080000000000001,0.0,0.0,0.0,-0.5489999999999999,-0.581,1.1640000000000001,0.0,0.0,0.0,0.0,-0.735,0.63,0.0,0.0,0.0,0.0,0.0,0.642,0.0,0.0,0.0,0.0,0.0,0.7829999999999999,0.0,0.0,0.0,0.0,0.0,0.6759999999999999,0.0,0.0,0.0,0.0,0.0,0.0,0.0,0.0,0.0,0.0,0.0,0.0,0.0,0.0,0.0,0.0,0.0,0.0,0.0,0.0,0.0,0.0,0.0,0.0,0.0,0.0,0.0,0.0,-0.5660000000000001,0.0,0.0,0.0,0.0,0.0,0.0,0.0,0.0,0.0,0.0,0.0,0.0,0.0,0.0,0.0,0.0,0.0,0.0,0.0,0.0,0.0,0.0,0.0,0.0,0.0,0.0,0.0,0.0,0.0,0.0,0.0,0.0,0.0,0.0,,,,,,,,,,,,,,,,,,,,,,,,,,,,,,,,,,,,,,,,,,,,,,,,,,,,,,,,,,,,,,,,,,,,,,,,,,,,,,,,,,,,,,,,,,,,,,,,,,,,,,,,,,,,,,,,,,,,,,,,,,,,,,,,,,,,,,,,,,,,,,,,,,,,,,,,,,,,,,,,,,,moveDown
accX,0.0,0.0,0.0,0.0,0.0,0.0,0.0,0.0,-0.573,0.0,0.0,0.0,0.0,0.0,-0.5589999999999999,0.0,0.0,0.0,0.0,0.0,-0.696,0.0,0.0,0.0,0.0,0.0,-0.92,0.0,0.0,0.0,0.0,-0.831,-1.5,0.0,0.0,0.0,0.0,-0.5720000000000001,-1.8769999999999998,0.0,0.0,0.0,0.0,0.0,-2.298,0.0,0.0,0.0,0.0,-0.618,-2.229,0.0,0.0,0.0,0.0,0.0,-1.82,0.0,0.0,0.0,0.0,0.0,-1.675,0.0,0.645,0.0,0.0,-0.503,-1.578,0.0,0.556,0.0,0.0,0.0,-1.482,-0.65,0.0,0.0,0.0,0.0,-1.5319999999999998,-0.615,0.0,0.0,0.0,0.0,-2.394,0.0,0.0,0.0,0.0,0.0,-3.032,0.0,0.0,0.0,-0.61,-1.167,-3.134,0.0,0.609,0.0,-0.633,-1.138,-2.3680000000000003,-0.861,0.785,0.0,0.0,0.0,-1.611,-1.04,0.7090000000000001,0.0,0.0,0.0,-1.071,-0.953,0.598,0.0,0.0,0.0,-0.971,-0.713,0.565,0.0,0.0,0.0,0.0,-0.528,0.626,0.0,0.0,0.0,0.0,0.0,0.679,0.0,0.0,-0.609,0.632,0.0,0.649,0.0,0.0,-0.812,0.687,-0.629,0.546,0.0,0.0,-0.716,1.034,-0.805,0.503,0.0,0.0,0.0,1.6740000000000002,-0.866,0.561,0.0,0.0,0.0,2.334,-0.792,0.615,0.0,0.0,0.0,2.342,-0.518,0.0,0.0,0.0,0.0,2.605,0.0,0.0,0.0,0.0,0.0,2.9360000000000004,0.0,0.0,0.0,0.0,0.0,2.6710000000000003,0.0,0.0,0.0,0.0,0.0,2.158,0.0,0.0,0.0,0.0,0.0,1.355,0.0,0.0,0.0,0.0,0.0,1.129,0.0,0.0,0.0,0.0,0.0,0.986,0.0,0.0,0.0,0.0,0.0,1.1320000000000001,0.0,0.0,0.0,0.0,0.0,1.413,0.0,0.0,0.0,-0.53,0.0,1.473,0.0,0.0,0.0,0.0,0.0,0.7979999999999999,0.0,0.0,0.0,0.0,-0.722,0.0,0.0,0.0,0.0,0.0,0.0,0.0,0.0,0.0,0.0,0.0,0.0,0.0,0.0,0.0,0.0,0.0,0.0,0.0,0.0,0.0,0.0,0.0,0.0,0.0,0.0,0.0,0.0,0.0,-0.726,0.0,0.0,0.0,0.0,0.0,0.0,0.0,0.0,0.0,0.0,0.0,0.0,0.0,0.0,0.0,0.0,0.0,0.0,0.0,0.0,0.0,0.0,0.0,0.0,0.0,0.0,0.0,0.0,,,,,,,,,,,,,,,,,,,,,,,,,,,,,,,,,,,,,,,,,,,,,,,,,,,,,,,,,,,,,,,,,,,,,,,,,,,,,,,,,,,,,,,,,,,,,,,,,,,,,,,,,,,,,,,,,,,,,,,,,,,,,,,,,,,,,,,,,,,,,,,,,,,,,,,,,,,,,,,,,,,,,,,,,,,,,,,,,,,,,moveDown
accX,0.0,0.0,0.0,0.0,0.0,0.0,0.0,0.0,0.0,0.0,0.0,0.0,0.0,0.0,0.0,0.0,0.0,0.0,0.0,0.0,0.0,0.0,0.0,0.0,0.0,0.0,-0.617,0.0,0.0,0.0,0.0,0.0,-0.607,0.0,0.0,0.0,0.0,0.0,0.0,0.0,0.0,0.0,0.0,0.0,-0.563,0.0,0.0,0.0,0.0,0.0,-0.955,0.0,0.0,0.0,0.0,0.0,-2.093,0.0,0.0,0.0,0.0,0.0,-3.0210000000000004,0.0,0.0,0.0,0.0,0.0,-2.795,0.0,0.664,0.0,0.0,0.0,-2.329,0.0,0.698,0.0,0.0,0.0,-2.5469999999999997,0.0,0.0,0.0,0.0,-0.736,-3.5060000000000002,0.0,0.0,0.0,-1.11,-0.804,-3.945,-0.614,0.0,0.0,-1.626,0.0,-3.7960000000000003,-0.664,0.927,0.0,-1.092,0.0,-3.4539999999999997,-0.59,1.119,0.0,-0.617,-0.894,-3.3689999999999998,-0.639,0.932,0.0,-1.1440000000000001,-0.847,-2.392,-0.693,0.815,0.0,-1.294,-0.51,-1.055,-0.665,0.841,0.0,0.0,0.0,-0.914,-0.5489999999999999,0.7490000000000001,0.0,-0.7879999999999999,-0.6709999999999999,-0.51,-0.578,0.7340000000000001,0.0,-0.932,0.0,0.0,-0.653,0.7020000000000001,0.0,-0.789,0.0,1.3330000000000002,-0.519,0.612,0.0,0.0,0.0,1.724,0.0,0.0,0.0,0.0,0.0,1.881,0.0,0.0,0.0,-0.5579999999999999,0.0,2.182,0.0,0.0,0.0,-0.522,0.0,2.276,0.0,0.0,0.0,0.0,0.0,2.319,0.0,0.0,0.0,0.0,0.0,2.07,0.0,0.0,0.0,0.0,-0.5720000000000001,1.766,0.0,0.0,0.0,0.0,-0.509,1.3659999999999999,0.0,0.0,0.0,0.0,0.0,1.716,0.0,0.0,0.0,0.568,0.0,2.271,0.0,0.573,0.0,0.8109999999999999,0.0,2.1319999999999997,0.0,0.0,0.0,0.0,0.0,1.966,0.0,0.0,0.0,0.0,0.0,1.579,0.0,0.0,0.0,0.0,0.0,1.163,0.0,0.0,0.0,0.0,0.0,1.185,-0.535,0.0,0.0,0.0,0.0,1.435,-0.627,0.516,0.0,0.0,0.0,1.314,0.0,0.0,0.0,0.0,0.0,0.8759999999999999,0.0,0.0,0.0,-0.61,0.0,0.0,0.0,0.0,0.0,-0.738,0.0,0.0,0.0,0.0,0.0,0.0,0.0,-0.58,0.0,0.0,0.0,0.0,-0.616,-0.611,0.0,0.0,0.0,0.0,-0.5589999999999999,-0.8690000000000001,-0.545,0.0,0.0,0.0,0.0,-1.0170000000000001,-0.637,0.0,0.0,0.0,0.0,-0.762,-0.637,0.0,0.0,,,,,,,,,,,,,,,,,,,,,,,,,,,,,,,,,,,,,,,,,,,,,,,,,,,,,,,,,,,,,,,,,,,,,,,,,,,,,,,,,,,,,,,,,,,,,,,,,,,,,,,,,,,,,,,,,,,,,,,,,,,,,,,,,,,,,,,,,,,,,,,,,,,,,,,,,,,,,,,,,,,,,,,,,,,,,,,,,,,,,moveDown
accX,0.0,0.0,0.0,0.0,0.0,0.0,0.0,0.0,0.0,0.0,0.0,0.0,-0.502,-0.5529999999999999,0.0,0.0,0.0,0.0,-0.672,0.0,0.0,0.0,0.0,0.0,-0.603,0.0,0.0,0.0,0.0,0.0,0.0,0.0,-0.847,0.0,0.0,0.0,0.0,0.0,-1.3119999999999998,0.0,0.0,0.0,0.0,0.0,-1.962,0.0,0.0,0.0,0.0,0.0,-2.306,0.0,0.0,0.0,0.0,0.0,-2.461,0.0,0.0,0.0,0.0,0.0,-2.6210000000000004,0.0,0.535,0.0,0.0,-0.518,-2.674,0.0,0.0,0.0,0.0,-0.6629999999999999,-3.063,-0.602,0.0,0.0,0.0,0.0,-3.415,-0.59,0.517,0.0,0.0,0.0,-3.365,0.0,0.633,0.0,0.0,0.0,-3.247,0.0,0.502,0.0,0.0,-0.76,-2.8939999999999997,0.0,0.0,0.0,-0.8079999999999999,-0.745,-1.913,0.0,0.0,0.0,-1.111,-0.919,-1.943,0.0,0.0,0.0,0.0,-0.991,-2.356,0.0,0.604,0.0,0.0,-1.14,-2.319,-0.5379999999999999,0.56,0.0,-1.034,-0.8140000000000001,-1.469,-0.6629999999999999,0.5489999999999999,0.0,-1.6019999999999999,-0.642,0.0,-0.695,0.682,0.0,-1.976,-0.584,0.0,-0.638,0.85,0.0,-1.956,-1.031,1.182,-0.745,0.968,0.0,-1.521,-0.779,1.6580000000000001,-0.758,0.914,0.0,-1.306,0.0,2.3280000000000003,-0.777,0.813,0.0,-1.495,0.0,3.2760000000000002,-0.792,0.812,0.0,-1.054,0.0,3.7960000000000003,-0.6990000000000001,0.755,0.0,-0.578,0.0,4.056,-0.613,0.0,0.0,0.0,0.505,3.8930000000000002,-0.511,0.0,0.0,0.0,0.0,2.873,0.0,0.0,0.0,0.0,0.0,1.776,0.0,0.0,0.0,0.0,0.0,1.15,0.0,0.0,0.0,0.0,0.0,0.963,0.0,0.0,0.0,0.0,0.0,1.1520000000000001,0.0,0.0,0.0,0.0,0.0,1.124,0.0,0.0,0.0,0.0,0.0,0.613,0.0,0.0,0.0,0.0,0.0,0.0,0.0,0.0,0.0,-0.5670000000000001,0.0,0.0,0.0,0.503,0.0,0.0,0.0,0.0,0.0,0.897,0.0,0.524,0.0,0.747,0.0,0.9790000000000001,0.0,0.9309999999999999,0.0,0.9359999999999999,0.0,0.0,0.0,,,,,,,,,,,,,,,,,,,,,,,,,,,,,,,,,,,,,,,,,,,,,,,,,,,,,,,,,,,,,,,,,,,,,,,,,,,,,,,,,,,,,,,,,,,,,,,,,,,,,,,,,,,,,,,,,,,,,,,,,,,,,,,,,,,,,,,,,,,,,,,,,,,,,,,,,,,,,,,,,,,,,,,,,,,,,,,,,,,,,,,,,,,,,,,,,,,,,,,,,,,,,,,,,,,,,,,,,,,,,,,moveDown
accX,0.0,0.0,0.0,0.0,0.0,0.0,0.511,0.0,0.0,0.0,0.0,0.0,0.0,0.0,0.0,0.0,0.0,0.0,-0.9159999999999999,0.0,0.0,0.0,0.0,0.0,0.0,0.0,0.0,0.0,0.0,0.0,0.0,0.0,0.0,0.0,0.0,0.0,0.0,0.0,0.0,0.0,0.0,0.0,0.506,0.0,-0.945,0.0,0.0,0.0,0.0,0.0,-1.489,0.0,0.0,0.0,0.0,-0.675,-2.031,0.0,0.0,0.0,0.0,0.0,-1.807,0.0,0.0,0.0,0.0,0.0,-1.7,0.0,0.0,0.0,0.647,0.0,-1.7919999999999998,0.0,0.0,0.0,0.759,0.0,-2.019,0.0,0.0,0.0,0.0,0.0,-2.6519999999999997,0.0,0.0,0.0,0.0,-0.542,-3.3789999999999996,0.0,0.0,0.0,0.0,-1.091,-3.678,0.0,0.0,0.0,0.544,-1.189,-3.7489999999999997,0.0,0.0,0.0,0.0,-1.597,-3.359,-0.759,0.0,-0.521,0.0,-0.512,-2.608,-0.815,0.0,-0.507,-0.971,0.0,-1.98,0.0,0.0,0.0,-0.6779999999999999,0.0,-1.4480000000000002,0.0,0.588,0.0,0.0,-0.871,-1.317,0.0,0.638,0.0,0.0,-1.17,-1.1540000000000001,-0.7140000000000001,0.725,0.0,0.0,-1.185,-0.8540000000000001,-1.148,0.7390000000000001,0.0,0.0,-0.638,0.0,-1.5619999999999998,0.802,0.0,0.0,0.0,1.238,-1.4069999999999998,0.815,0.0,-0.772,0.0,2.9389999999999996,-1.236,0.871,0.0,-0.602,0.0,3.427,-1.1440000000000001,0.875,0.0,0.0,0.0,3.551,-1.047,0.745,0.0,0.0,0.0,3.0980000000000003,-0.8959999999999999,0.0,0.0,0.0,0.0,2.8480000000000003,-0.8,0.0,0.0,-0.526,0.0,2.6039999999999996,-0.6920000000000001,0.0,0.0,0.0,0.0,2.23,-0.526,0.0,0.0,0.0,-0.662,1.734,0.0,0.0,0.0,0.0,-0.775,1.371,0.0,0.0,0.0,0.0,0.0,1.2229999999999999,-0.585,0.0,0.0,-0.752,0.0,1.063,0.0,0.0,0.0,0.0,0.0,0.887,0.0,0.0,0.0,0.0,-0.68,0.6829999999999999,0.0,0.0,0.0,0.0,0.0,0.785,0.0,0.0,0.0,-0.6890000000000001,0.0,0.7879999999999999,0.0,0.0,0.0,-0.946,0.0,0.573,0.0,0.0,0.0,0.0,0.0,0.621,0.0,0.0,0.0,0.0,0.0,0.519,0.0,0.0,0.0,,,,,,,,,,,,,,,,,,,,,,,,,,,,,,,,,,,,,,,,,,,,,,,,,,,,,,,,,,,,,,,,,,,,,,,,,,,,,,,,,,,,,,,,,,,,,,,,,,,,,,,,,,,,,,,,,,,,,,,,,,,,,,,,,,,,,,,,,,,,,,,,,,,,,,,,,,,,,,,,,,,,,,,,,,,,,,,,,,,,,,,,,,,,,,,,,,,,,,,,,,,,,,,,,,,moveDown
accX,0.0,0.0,0.0,0.0,0.0,0.0,0.0,0.0,0.0,0.0,0.0,0.0,0.0,0.0,0.0,0.0,0.0,0.0,0.0,0.0,0.0,0.0,0.0,0.0,0.0,0.0,0.0,0.0,0.0,0.0,0.0,0.0,0.0,0.0,0.0,0.0,0.0,0.0,0.0,0.0,0.0,0.0,0.0,0.0,0.0,0.0,0.0,0.0,0.0,0.0,0.0,0.0,0.0,0.0,0.0,0.0,0.0,0.0,0.0,0.0,0.0,0.0,-0.536,0.0,0.0,0.0,0.0,0.0,-0.887,0.0,0.0,0.0,0.0,0.0,-1.077,0.0,0.0,0.0,0.0,0.0,-1.026,0.0,0.0,0.0,0.0,0.0,-1.138,0.0,0.0,0.0,0.0,0.0,-1.595,0.0,0.0,0.0,0.0,0.0,-1.865,0.0,0.0,0.0,0.0,0.0,-1.972,0.0,0.0,0.0,-0.6,-0.584,-1.702,0.0,0.513,0.0,-0.518,0.0,-0.79,0.0,0.638,0.0,0.0,0.0,0.0,0.0,0.622,0.0,0.0,0.0,0.0,0.0,0.0,0.0,0.0,0.0,-1.177,0.0,0.0,0.0,0.0,-0.826,-2.06,0.0,0.0,0.0,0.0,0.0,-2.164,0.0,0.0,0.0,0.0,0.0,-2.141,0.0,0.0,0.0,0.506,0.0,-3.658,0.0,0.0,0.0,-1.34,-1.766,-4.378,0.0,0.0,0.0,-1.954,-1.423,-3.806,-0.591,0.0,0.0,-1.092,0.0,-2.29,-0.9570000000000001,1.004,0.0,0.0,0.0,-1.168,-0.91,1.139,0.0,0.0,0.0,0.0,-0.8029999999999999,0.924,0.0,-0.5539999999999999,0.0,0.0,-0.7829999999999999,0.733,0.0,-0.748,0.0,0.77,-0.8079999999999999,0.753,0.0,0.0,0.0,1.504,-0.8690000000000001,0.8640000000000001,0.0,0.0,0.0,2.428,-0.8759999999999999,0.9079999999999999,0.0,0.0,0.0,2.6889999999999996,-0.7959999999999999,0.728,0.0,0.0,0.0,3.0589999999999997,-0.667,0.0,0.0,-0.62,0.0,3.1,-0.545,0.0,0.0,-0.655,0.0,3.037,0.0,0.0,0.0,0.0,0.0,2.917,-0.5589999999999999,0.0,0.0,0.0,0.0,2.658,-0.596,0.0,0.0,0.0,0.0,1.939,0.0,0.0,0.0,-0.5479999999999999,-0.578,1.306,0.0,0.0,0.0,-0.799,-0.85,0.871,0.0,0.0,0.0,-0.652,-0.816,0.784,-0.66,0.0,0.0,0.0,0.0,1.104,-0.826,0.508,0.0,0.0,0.0,1.547,-0.5720000000000001,0.0,0.0,-0.5529999999999999,0.0,1.686,0.0,0.0,0.0,0.0,-0.7070000000000001,1.048,0.0,0.0,0.0,0.0,-1.153,0.0,0.0,0.0,0.0,0.0,0.0,0.0,0.0,0.0,0.0,,,,,,,,,,,,,,,,,,,,,,,,,,,,,,,,,,,,,,,,,,,,,,,,,,,,,,,,,,,,,,,,,,,,,,,,,,,,,,,,,,,,,,,,,,,,,,,,,,,,,,,,,,,,,,,,,,,,,,,,,,,,,,,,,,,,,,,,,,,,,,,,,,,,,,,,,,,,,,,,,,,,,,,,,moveDown
accX,0.0,0.0,0.0,0.0,0.0,0.0,0.0,0.0,0.0,0.0,0.0,0.0,0.0,0.0,0.0,0.0,0.0,0.0,0.0,0.0,0.0,0.0,0.0,0.0,0.0,0.0,0.0,0.0,0.0,0.0,0.0,0.0,0.0,0.0,0.0,0.0,0.0,0.0,0.0,0.0,0.0,0.0,0.0,0.0,0.0,0.0,0.0,0.0,0.0,-0.515,-0.897,0.0,0.0,0.0,-0.84,-0.78,-1.4069999999999998,0.0,0.0,0.0,0.0,0.0,-1.264,0.0,0.0,0.0,0.0,0.0,-0.856,0.0,0.0,0.0,0.0,0.0,-0.8029999999999999,0.0,0.0,0.0,0.0,0.0,-1.064,0.0,0.0,0.0,0.0,0.0,-1.621,0.0,0.0,0.0,0.0,-0.6779999999999999,-1.829,0.0,0.0,0.0,-0.885,-1.0979999999999999,-1.885,0.0,0.0,0.0,-0.866,-0.662,-1.768,0.0,0.5379999999999999,0.0,0.0,0.0,-1.639,0.0,0.0,0.0,0.0,0.0,-2.445,0.0,0.0,0.0,-0.62,-0.7829999999999999,-3.49,0.0,0.0,0.0,-1.238,-0.81,-3.3139999999999996,-0.547,0.7390000000000001,0.0,0.0,0.0,-2.255,-0.679,1.317,0.0,1.222,-1.321,-2.214,-0.775,1.161,0.0,0.0,-1.069,-2.151,-1.161,0.0,0.0,-1.321,0.0,-1.755,-1.252,0.0,0.0,-1.5819999999999999,0.0,-0.956,-1.026,0.866,0.0,0.0,0.0,0.0,-0.981,1.246,0.0,0.0,-0.981,0.0,-0.882,0.9059999999999999,0.0,0.0,-0.7809999999999999,0.0,-0.976,0.508,0.0,-1.348,0.0,0.6679999999999999,-1.1740000000000002,0.5579999999999999,0.0,-1.54,0.0,1.511,-1.3130000000000002,0.9279999999999999,0.0,0.0,0.0,2.003,-1.197,1.158,0.0,0.0,0.0,2.407,-0.961,0.9740000000000001,0.0,0.0,0.0,2.742,-0.8420000000000001,0.746,0.0,-0.564,0.0,2.752,-0.81,0.6,0.0,-0.789,0.0,2.9589999999999996,-0.715,0.556,0.0,0.0,0.0,3.033,-0.687,0.5539999999999999,0.0,0.0,0.0,2.708,-0.6459999999999999,0.0,0.0,0.0,0.0,2.096,0.0,0.0,0.0,-0.98,-0.5760000000000001,1.286,0.0,0.0,0.0,-1.3319999999999999,-0.693,1.129,-0.563,0.0,0.0,0.0,-0.845,1.881,-0.8959999999999999,0.626,0.0,0.0,0.0,2.6289999999999996,-1.107,0.0,0.0,0.0,1.028,3.177,-0.56,0.0,0.0,0.0,0.0,2.291,0.0,0.0,0.0,0.0,-0.763,0.67,0.0,0.0,0.0,0.0,-1.392,-1.11,0.0,0.0,0.0,,,,,,,,,,,,,,,,,,,,,,,,,,,,,,,,,,,,,,,,,,,,,,,,,,,,,,,,,,,,,,,,,,,,,,,,,,,,,,,,,,,,,,,,,,,,,,,,,,,,,,,,,,,,,,,,,,,,,,,,,,,,,,,,,,,,,,,,,,,,,,,,,,,,,,,,,,,,,,,,,,,,,,,,,,,,,,,,,,,,,,,,,,,,,,,,,moveDown
accX,0.0,-0.836,0.0,0.0,0.0,0.0,0.0,0.0,0.0,0.0,0.0,0.0,0.0,0.0,0.0,0.0,0.0,0.0,0.0,0.0,0.0,0.0,0.0,0.0,0.0,0.0,0.0,0.0,0.0,0.0,0.0,0.0,0.0,0.0,0.0,0.0,0.0,0.0,0.0,0.0,0.0,0.0,0.0,0.0,0.0,0.0,0.0,0.0,0.0,0.0,-0.7140000000000001,0.0,0.0,0.0,0.0,0.0,-1.173,0.0,0.0,0.0,0.0,0.0,-1.806,0.0,0.0,0.0,0.0,0.0,-2.352,0.0,0.0,0.0,-0.542,0.0,-2.2840000000000003,0.0,0.0,0.0,0.0,0.0,-2.225,0.0,0.0,0.0,0.0,-0.532,-2.62,0.0,0.0,0.0,0.0,-0.9570000000000001,-2.668,0.0,0.0,0.0,-0.556,-1.169,-2.309,0.0,0.0,0.0,-1.2209999999999999,-0.649,-1.587,0.0,0.0,0.0,-1.03,0.0,-0.9079999999999999,0.0,0.5379999999999999,0.0,-0.9,0.0,0.0,0.0,0.746,0.0,0.0,0.0,0.0,0.0,0.0,0.0,0.0,-1.318,-1.28,0.0,0.0,0.0,-0.638,-0.9420000000000001,-1.278,0.0,0.0,0.0,-0.997,-0.68,-1.3530000000000002,0.0,0.0,0.0,-0.591,-0.81,-1.5519999999999998,0.0,0.0,0.0,0.0,-1.048,-1.905,-0.556,0.0,0.0,-0.855,-0.52,-1.4040000000000001,-0.7759999999999999,0.563,0.0,0.0,0.0,-0.6559999999999999,-0.9209999999999999,0.8079999999999999,0.0,0.0,0.0,0.0,-0.9259999999999999,0.8859999999999999,0.0,0.0,0.0,0.65,-0.951,0.91,0.0,0.0,0.0,0.898,-0.94,0.888,0.0,0.0,0.0,1.165,-0.94,0.7390000000000001,0.0,0.0,0.0,1.7690000000000001,-1.001,0.679,0.0,0.0,0.0,1.912,-0.9309999999999999,0.703,0.0,0.0,0.0,2.185,-0.83,0.647,0.0,0.0,0.0,2.148,-0.7440000000000001,0.532,0.0,0.0,0.0,2.064,-0.7,0.0,0.0,0.0,0.0,2.02,-0.809,0.0,0.0,0.0,0.0,2.07,-0.8190000000000001,0.0,0.0,0.0,0.0,1.871,-0.7040000000000001,0.0,0.0,0.0,0.0,1.501,-0.574,0.0,0.0,-0.51,0.0,1.17,0.0,0.0,0.0,-0.9790000000000001,-0.608,0.845,-0.5660000000000001,0.0,0.0,0.0,-0.534,0.797,-0.631,0.0,0.0,0.0,0.0,1.003,-0.565,0.0,0.0,0.0,0.0,1.109,0.0,0.0,0.0,0.0,0.0,0.863,0.0,0.0,0.0,-0.54,-0.775,0.0,0.0,0.0,0.0,0.0,-0.787,0.0,0.0,0.0,0.0,,,,,,,,,,,,,,,,,,,,,,,,,,,,,,,,,,,,,,,,,,,,,,,,,,,,,,,,,,,,,,,,,,,,,,,,,,,,,,,,,,,,,,,,,,,,,,,,,,,,,,,,,,,,,,,,,,,,,,,,,,,,,,,,,,,,,,,,,,,,,,,,,,,,,,,,,,,,,,,,,,,,,,,,,,,,,,,,,,,,,,,,,,,moveDown
accX,0.0,0.0,0.0,0.0,0.0,0.0,0.0,0.0,0.0,0.0,0.0,0.0,0.0,0.0,0.0,0.0,0.0,0.0,0.0,0.0,0.0,0.0,0.0,0.0,0.0,0.0,0.0,0.0,0.0,0.0,0.0,0.0,0.0,0.0,0.0,0.0,0.0,0.0,0.0,0.0,0.0,0.0,0.0,0.0,0.0,0.0,0.0,0.0,0.0,0.0,0.0,0.0,0.0,0.0,0.0,0.0,0.0,0.0,0.0,0.0,0.0,0.0,0.0,0.0,0.0,0.0,0.0,-0.557,-0.772,0.0,0.0,0.0,0.0,-0.63,-1.094,0.0,0.0,0.0,0.0,0.0,-1.048,0.0,0.0,0.0,0.0,0.0,-1.1540000000000001,0.0,0.0,0.0,0.0,0.0,-1.7630000000000001,0.0,0.0,0.0,0.0,0.0,-2.895,0.0,0.0,0.0,0.0,-1.217,-3.6489999999999996,0.0,0.0,0.0,0.0,-0.9490000000000001,-2.7889999999999997,-0.621,0.5870000000000001,0.0,0.6940000000000001,0.0,-1.993,-0.6579999999999999,0.0,0.0,0.0,0.523,-2.678,0.0,0.0,0.0,-1.193,0.0,-3.363,0.0,0.0,0.0,-1.169,-0.703,-3.8510000000000004,0.0,0.0,0.0,-1.024,-1.466,-3.844,0.0,0.535,0.0,-0.8540000000000001,-1.837,-3.2510000000000003,-0.7140000000000001,0.711,0.0,-1.0959999999999999,-1.411,-2.185,-0.941,0.677,0.0,-1.673,-1.046,-1.288,-0.971,0.639,0.0,-1.9569999999999999,-0.721,0.0,-0.903,0.773,0.0,-1.6640000000000001,0.0,0.765,-0.875,0.9540000000000001,0.0,-0.879,-0.517,1.251,-0.8370000000000001,0.956,0.0,-0.514,-0.685,1.499,-0.831,0.728,0.0,-0.7709999999999999,0.0,2.069,-0.8959999999999999,0.552,0.0,-0.603,0.0,2.281,-0.889,0.595,0.0,0.0,0.0,2.549,-0.7929999999999999,0.634,0.0,0.0,0.0,3.123,-0.833,0.634,0.0,0.0,0.0,3.3360000000000003,-0.83,0.565,0.0,0.0,0.0,3.31,-0.722,0.0,0.0,0.0,0.0,2.98,-0.605,0.0,0.0,0.0,0.0,2.355,-0.555,0.0,0.0,0.0,0.0,1.597,-0.568,0.0,0.0,0.0,0.0,1.315,-0.691,0.0,0.0,0.0,0.0,1.389,-0.7,0.0,0.0,0.0,0.0,1.561,-0.5429999999999999,0.0,0.0,0.0,0.0,1.44,0.0,0.0,0.0,0.0,0.0,1.217,0.0,0.0,0.0,0.0,0.0,0.503,0.0,0.0,0.0,0.0,0.0,0.0,0.0,0.0,0.0,-0.7090000000000001,-0.589,-0.7929999999999999,0.0,0.0,0.0,0.0,-0.583,-0.8340000000000001,0.0,0.535,0.0,0.0,-0.594,-0.5379999999999999,0.0,0.0,0.0,,,,,,,,,,,,,,,,,,,,,,,,,,,,,,,,,,,,,,,,,,,,,,,,,,,,,,,,,,,,,,,,,,,,,,,,,,,,,,,,,,,,,,,,,,,,,,,,,,,,,,,,,,,,,,,,,,,,,,,,,,,,,,,,,,,,,,,,,,,,,,,,,,,,,,,,,,,,,,,,,,,,,,,,,,,,,,,,,,,,,moveDown
accX,0.0,0.0,0.0,0.0,0.0,0.0,0.0,0.0,0.0,0.0,0.0,0.0,0.0,0.0,0.0,0.0,0.0,0.0,0.0,0.0,0.0,0.0,0.0,0.0,0.0,0.0,0.0,0.0,0.0,0.0,0.0,0.0,0.0,0.0,0.0,0.0,0.0,0.0,0.0,0.0,0.0,0.0,0.0,0.0,0.0,0.0,0.0,0.0,0.0,0.0,0.0,0.0,0.0,0.0,0.0,-0.5539999999999999,0.0,0.0,0.0,0.0,0.0,0.0,0.0,0.0,0.0,0.0,0.0,0.0,0.0,0.0,0.0,0.0,0.0,0.0,0.0,0.0,0.0,0.0,0.0,0.0,0.0,0.0,0.0,0.0,0.0,0.0,-0.706,0.0,0.0,0.0,0.0,0.0,-1.1440000000000001,0.0,0.0,0.0,0.0,0.0,-1.514,0.0,0.0,0.0,0.0,0.0,-1.953,0.0,0.0,0.0,0.0,-0.5820000000000001,-2.9139999999999997,0.0,0.0,0.0,0.6759999999999999,0.0,-3.569,0.0,0.0,0.0,0.5589999999999999,0.0,-4.691,0.0,0.0,0.0,-0.7559999999999999,-1.395,-5.736000000000001,0.0,0.0,0.0,-1.983,-2.233,-6.081,0.0,0.0,0.0,-1.815,-1.693,-5.0360000000000005,-0.584,1.056,0.0,-1.391,-1.5419999999999998,-3.005,-0.865,1.3259999999999998,0.0,-0.608,-0.652,-1.064,-1.138,1.2,0.0,0.0,0.0,0.0,-1.089,0.846,0.0,-0.72,0.0,0.8759999999999999,-0.857,0.597,0.0,-1.0290000000000001,0.0,1.173,-0.7440000000000001,0.5670000000000001,0.0,-0.653,0.0,1.8119999999999998,-0.887,0.7190000000000001,0.0,0.0,0.0,2.18,-0.97,0.711,0.0,0.0,0.0,2.552,-0.9209999999999999,0.5770000000000001,0.0,0.0,0.0,2.445,-0.812,0.0,0.0,0.0,0.0,2.215,-0.743,0.0,0.0,0.0,0.0,2.017,-0.847,0.0,0.0,0.0,0.0,2.436,-0.9490000000000001,0.609,0.0,0.0,0.0,3.27,-1.003,0.6890000000000001,0.0,0.604,0.0,3.359,-0.885,0.0,0.0,0.0,0.0,2.45,-0.56,0.0,0.0,-0.8390000000000001,0.0,1.4480000000000002,0.0,0.0,0.0,-0.62,-0.501,0.8959999999999999,0.0,0.0,0.0,0.0,-0.589,1.021,0.0,0.0,0.0,0.0,0.0,1.255,0.0,0.0,0.0,0.0,0.0,1.14,0.0,0.0,0.0,,,,,,,,,,,,,,,,,,,,,,,,,,,,,,,,,,,,,,,,,,,,,,,,,,,,,,,,,,,,,,,,,,,,,,,,,,,,,,,,,,,,,,,,,,,,,,,,,,,,,,,,,,,,,,,,,,,,,,,,,,,,,,,,,,,,,,,,,,,,,,,,,,,,,,,,,,,,,,,,,,,,,,,,,,,,,,,,,,,,,,,,,,,,,,,,,,,,,,,,,,,,,,,,,,,,,,,,,moveDown
accX,-0.61,0.0,0.0,0.0,0.0,0.0,-0.557,-0.519,0.0,0.0,0.0,0.0,0.0,0.0,0.0,0.0,0.0,0.0,0.0,0.0,0.0,0.0,0.0,0.0,0.0,0.0,0.0,0.0,0.0,0.0,0.0,-0.532,0.0,0.0,0.0,0.0,0.0,0.0,0.0,0.0,0.0,0.0,0.0,0.0,0.0,0.0,0.0,0.0,0.0,0.0,0.0,0.0,0.0,0.0,0.0,0.0,0.0,0.0,0.0,0.0,0.0,0.0,-0.613,0.0,0.0,0.0,0.0,0.0,-0.98,0.0,0.0,0.0,0.0,0.0,-1.3319999999999999,0.0,0.0,0.0,0.0,0.0,-1.88,0.0,0.0,0.0,0.0,0.0,-2.291,0.0,0.0,0.0,0.0,0.0,-2.6519999999999997,0.0,0.0,0.0,0.0,-0.527,-2.847,0.0,0.0,0.0,0.0,0.0,-3.013,0.0,0.0,0.0,0.0,0.0,-3.378,0.0,0.0,0.0,-0.5379999999999999,-0.8540000000000001,-4.103,0.0,0.0,0.0,-1.195,-1.171,-4.127,-0.636,0.5379999999999999,0.0,-0.799,-0.779,-3.325,-0.8059999999999999,0.64,0.0,0.0,-0.912,-3.095,-0.934,0.0,0.0,-1.172,-1.5130000000000001,-2.758,-1.268,0.0,-0.55,-1.449,-0.601,-1.749,-1.496,0.556,0.0,-1.167,0.0,-0.64,-1.433,0.772,0.0,0.0,0.0,0.0,-1.331,0.877,0.0,0.0,0.0,0.8340000000000001,-1.254,0.7759999999999999,0.0,-0.8170000000000001,0.0,1.4180000000000001,-1.141,0.73,0.0,-0.809,0.0,1.5930000000000002,-0.937,0.7290000000000001,0.0,-0.621,0.0,1.8530000000000002,-0.883,0.774,0.0,-0.594,0.0,2.18,-0.8320000000000001,0.7340000000000001,0.0,-0.521,0.0,2.623,-0.8109999999999999,0.6920000000000001,0.0,-0.615,0.0,3.305,-0.735,0.7140000000000001,0.0,0.0,0.0,3.733,-0.5329999999999999,0.662,0.0,0.0,0.0,3.625,0.0,0.0,0.0,0.0,0.0,3.458,0.0,0.0,0.0,-0.5720000000000001,0.0,3.1010000000000004,0.0,0.0,0.0,-0.91,-0.682,2.316,0.0,0.0,0.0,0.0,-1.055,1.535,0.0,0.0,0.0,0.0,-0.9179999999999999,1.301,0.0,0.0,0.0,0.0,0.0,1.415,0.0,0.0,0.0,0.0,0.0,1.426,0.0,0.0,0.0,0.0,0.0,1.368,0.0,0.0,0.0,0.0,0.0,1.056,0.0,0.0,0.0,0.0,0.0,0.0,0.0,0.0,0.0,0.0,0.0,0.0,0.0,0.0,0.0,0.0,-0.529,0.0,0.0,0.0,0.0,,,,,,,,,,,,,,,,,,,,,,,,,,,,,,,,,,,,,,,,,,,,,,,,,,,,,,,,,,,,,,,,,,,,,,,,,,,,,,,,,,,,,,,,,,,,,,,,,,,,,,,,,,,,,,,,,,,,,,,,,,,,,,,,,,,,,,,,,,,,,,,,,,,,,,,,,,,,,,,,,,,,,,,,,,,,,,,,,,,,,,,,,,,,,,,,,moveDown
accX,0.0,-0.6729999999999999,0.0,0.0,0.0,0.0,0.0,0.0,0.0,0.0,0.0,0.0,0.0,0.0,0.0,0.0,0.0,0.0,0.0,0.0,0.0,0.0,0.0,0.0,0.0,0.0,0.0,0.0,0.0,0.0,0.0,0.0,0.0,0.0,0.0,0.0,0.0,0.0,0.0,0.0,0.0,0.0,0.0,0.0,0.0,0.0,0.0,0.0,0.0,0.0,0.0,0.0,0.0,0.0,0.0,0.0,0.0,0.0,0.0,0.0,0.0,0.0,-0.608,0.0,0.0,0.0,0.0,0.0,-0.561,0.0,0.0,0.0,0.0,0.0,-0.545,0.0,0.0,0.0,0.0,0.0,-0.89,0.0,0.0,0.0,0.0,0.0,-1.585,0.0,0.0,0.0,0.0,0.0,-1.729,0.0,0.0,0.0,0.0,0.0,-1.439,0.0,0.0,0.0,0.0,-0.5489999999999999,-1.6380000000000001,0.0,0.0,0.0,0.0,0.0,-1.911,0.0,0.0,0.0,0.0,0.0,-2.25,0.0,0.0,0.0,0.0,0.0,-2.456,0.0,0.0,0.0,0.0,0.0,-2.885,0.0,0.0,0.0,0.0,-0.8640000000000001,-3.4539999999999997,0.0,0.0,0.0,-1.8459999999999999,-1.8,-3.679,0.0,0.0,0.0,-1.939,-1.578,-3.8339999999999996,0.0,0.0,0.0,-1.3519999999999999,-1.463,-3.4219999999999997,-0.7120000000000001,0.6729999999999999,0.0,-1.301,-1.147,-1.9769999999999999,-1.166,0.8170000000000001,0.0,-1.295,0.0,0.0,-1.365,1.01,0.0,-1.261,0.624,0.69,-1.12,1.217,0.0,-0.95,0.0,1.141,-0.669,1.359,0.0,-0.653,0.0,1.5219999999999998,0.0,1.386,0.0,0.0,-0.738,2.045,0.0,1.383,0.0,0.0,-0.706,2.8280000000000003,-0.965,1.1420000000000001,0.0,0.0,0.0,3.112,-1.392,0.858,0.0,0.0,0.0,2.239,-1.127,0.609,0.0,0.0,0.0,1.9909999999999999,-0.612,0.0,0.0,0.0,-0.57,2.102,0.0,0.531,0.0,0.0,-0.75,2.136,-0.735,0.6779999999999999,0.0,0.0,0.0,2.6510000000000002,-1.0090000000000001,0.701,0.0,0.0,0.0,3.0,-0.948,0.618,0.0,0.0,0.0,2.44,-0.61,0.0,0.0,0.0,0.0,1.5519999999999998,0.0,0.0,0.0,-0.894,-0.804,0.679,0.0,0.0,0.0,-1.0979999999999999,-0.71,0.0,0.0,0.0,0.0,-0.715,0.0,0.9990000000000001,-0.525,0.0,0.0,0.0,0.0,1.966,0.0,0.529,0.0,0.0,0.5770000000000001,2.487,0.0,0.0,0.0,-0.525,0.0,2.19,0.0,0.0,0.0,0.0,-1.048,1.228,0.0,0.0,0.0,0.0,-0.615,0.713,0.0,0.0,0.0,0.0,0.0,0.0,0.0,0.0,0.0,,,,,,,,,,,,,,,,,,,,,,,,,,,,,,,,,,,,,,,,,,,,,,,,,,,,,,,,,,,,,,,,,,,,,,,,,,,,,,,,,,,,,,,,,,,,,,,,,,,,,,,,,,,,,,,,,,,,,,,,,,,,,,,,,,,,,,,,,,,,,,,,,,,,,,,,,,,,,,,,,,,,,,,,,,,,,,,moveDown
accX,0.0,0.0,0.0,0.0,0.0,0.0,0.0,0.0,0.0,0.0,0.0,0.0,0.0,0.0,0.0,0.0,0.0,0.0,0.0,0.0,0.0,0.0,0.0,0.0,0.0,0.0,0.0,0.0,0.0,0.0,-0.512,0.0,0.0,0.0,0.0,0.0,0.0,0.0,0.0,0.0,0.0,0.0,0.0,0.0,0.0,0.0,0.0,0.0,0.0,0.0,0.0,0.0,0.0,0.0,0.0,0.0,-0.64,0.0,0.0,0.0,0.0,0.0,-0.924,0.0,0.0,0.0,0.0,0.0,-1.385,0.0,0.0,0.0,0.0,0.0,-1.618,0.0,0.0,0.0,0.0,0.0,-2.07,0.0,0.0,0.0,0.0,0.0,-2.226,0.0,0.0,0.0,0.0,0.0,-2.394,0.0,0.0,0.0,0.0,-0.736,-2.82,0.0,0.0,0.0,0.0,-0.86,-3.324,0.0,0.502,0.0,0.0,-0.948,-3.987,-0.632,0.0,0.0,-0.648,-0.9059999999999999,-4.394,-0.762,0.0,0.0,-1.4880000000000002,-0.838,-3.661,-0.7909999999999999,0.545,0.0,-0.899,-0.623,-2.872,-0.715,0.7170000000000001,0.0,0.0,-0.5379999999999999,-2.59,-0.5489999999999999,0.522,0.0,-1.327,-1.04,-2.314,0.0,0.0,0.0,-2.6860000000000004,-1.307,-2.1390000000000002,-0.613,0.0,0.0,-1.663,-0.685,-1.1640000000000001,-0.943,1.117,0.0,0.0,-0.799,0.0,-1.0290000000000001,1.208,0.0,0.0,-0.731,0.0,-1.127,0.825,0.0,-0.687,0.0,0.955,-1.182,0.642,0.0,-0.852,0.0,1.433,-1.034,0.684,0.0,-0.5539999999999999,0.0,1.867,-0.826,0.858,0.0,0.0,0.0,2.846,-0.851,0.98,0.0,0.0,0.0,3.2769999999999997,-0.905,0.938,0.0,0.0,0.0,2.872,-0.89,0.59,0.0,0.0,0.0,2.825,-0.802,0.0,0.0,-1.112,0.0,3.147,-0.764,0.557,0.0,-0.7959999999999999,0.0,3.503,-0.767,0.7559999999999999,0.0,0.0,0.0,3.2960000000000003,-0.7,0.0,0.0,0.0,0.0,3.128,-0.581,0.0,0.0,-1.033,0.0,2.135,-0.532,0.0,0.0,-0.93,0.0,1.63,-0.5479999999999999,0.0,0.0,-0.679,0.0,1.518,-0.5920000000000001,0.0,0.0,0.0,0.0,1.722,0.0,0.0,0.0,0.0,0.0,1.4369999999999998,0.0,0.0,0.0,0.0,0.0,0.7959999999999999,0.0,0.0,0.0,0.0,-0.68,0.0,0.0,0.0,0.0,0.0,-0.9940000000000001,-0.743,0.0,0.0,0.0,,,,,,,,,,,,,,,,,,,,,,,,,,,,,,,,,,,,,,,,,,,,,,,,,,,,,,,,,,,,,,,,,,,,,,,,,,,,,,,,,,,,,,,,,,,,,,,,,,,,,,,,,,,,,,,,,,,,,,,,,,,,,,,,,,,,,,,,,,,,,,,,,,,,,,,,,,,,,,,,,,,,,,,,,,,,,,,,,,,,,,,,,,,,,,,,,,,,,,,moveDown
accX,0.0,0.0,0.0,0.0,0.0,0.0,0.0,0.0,0.0,0.0,0.0,0.0,0.0,0.0,0.0,0.0,0.0,0.0,0.0,0.0,0.0,0.0,0.0,0.0,0.0,0.0,0.0,0.0,0.0,0.0,0.0,0.0,0.0,0.0,0.0,0.0,0.0,0.0,0.0,0.0,0.0,0.0,0.0,0.0,0.0,0.0,0.0,0.0,0.0,-0.624,-0.823,0.0,0.0,0.0,0.0,0.0,-1.1079999999999999,0.0,0.0,0.0,0.0,0.0,-1.361,0.0,0.0,0.0,0.0,0.0,-1.761,0.0,0.0,0.0,0.0,0.0,-2.31,0.0,0.0,0.0,0.0,-0.522,-2.7030000000000003,0.0,0.0,0.0,0.0,0.0,-2.373,0.0,0.0,0.0,0.0,0.0,-1.808,0.0,0.598,0.0,0.0,0.0,-1.944,0.0,0.0,0.0,0.0,0.0,-2.702,0.0,0.0,0.0,-0.6809999999999999,0.0,-3.673,0.0,0.0,0.0,-1.217,-0.746,-4.504,0.0,0.0,0.0,-1.444,-1.0270000000000001,-3.846,0.0,0.9059999999999999,0.0,-1.224,-0.8809999999999999,-2.461,-0.511,1.135,0.0,-0.501,0.0,-1.776,0.0,1.01,0.0,-0.682,0.0,-1.165,0.0,0.614,0.0,-1.109,-0.682,-0.9009999999999999,0.0,0.0,0.0,-1.662,-1.266,-1.175,0.0,0.0,0.0,-1.33,-0.753,-0.73,-0.5770000000000001,0.762,0.0,-1.307,0.0,0.0,-0.7809999999999999,0.9259999999999999,0.0,0.0,0.0,0.8809999999999999,-0.8029999999999999,0.993,0.0,0.0,0.0,1.3940000000000001,-0.703,0.7979999999999999,0.0,0.0,0.0,1.8980000000000001,-0.731,0.634,0.0,-0.794,0.0,2.385,-1.06,0.8,0.0,0.0,0.0,3.009,-1.087,1.105,0.0,0.0,0.0,3.715,-0.9009999999999999,0.8140000000000001,0.0,0.975,0.0,3.2560000000000002,-0.598,0.0,0.0,0.0,0.0,2.872,-0.619,0.0,0.0,-0.987,-0.552,2.636,-0.826,0.5660000000000001,0.0,0.0,0.0,2.866,-0.706,0.643,0.0,0.7290000000000001,0.0,2.9589999999999996,0.0,0.0,0.0,0.0,0.0,2.375,0.0,0.0,0.0,-0.625,-0.725,1.515,0.0,0.0,0.0,-0.784,-0.818,1.11,0.0,0.0,0.0,,,,,,,,,,,,,,,,,,,,,,,,,,,,,,,,,,,,,,,,,,,,,,,,,,,,,,,,,,,,,,,,,,,,,,,,,,,,,,,,,,,,,,,,,,,,,,,,,,,,,,,,,,,,,,,,,,,,,,,,,,,,,,,,,,,,,,,,,,,,,,,,,,,,,,,,,,,,,,,,,,,,,,,,,,,,,,,,,,,,,,,,,,,,,,,,,,,,,,,,,,,,,,,,,,,,,,,,,,,,,,,,,,,,,moveDown
accX,0.0,0.0,0.0,0.0,0.0,0.0,0.0,0.0,0.0,0.0,0.0,0.0,0.0,0.0,0.0,0.0,0.0,0.0,0.0,0.0,0.0,0.0,0.0,0.0,0.0,0.0,0.0,0.0,0.0,0.0,0.0,0.0,0.0,0.0,0.0,0.0,0.0,0.0,0.0,0.0,0.0,0.0,0.0,0.0,0.0,0.0,0.0,0.0,0.0,0.0,0.0,0.0,0.0,0.0,0.0,0.0,0.0,0.0,0.0,0.0,0.0,0.0,0.0,0.0,0.0,0.0,0.0,0.0,0.0,0.0,0.0,0.0,0.0,0.0,-0.703,0.0,0.0,0.0,0.0,0.0,-1.089,0.0,0.0,0.0,0.0,0.0,-1.464,0.0,0.0,0.0,0.0,0.0,-1.4969999999999999,0.0,0.0,0.0,0.0,0.0,-1.4069999999999998,0.0,0.0,0.0,0.0,-0.515,-2.045,0.0,0.0,0.0,0.0,0.0,-2.477,0.0,0.0,0.0,0.0,0.0,-2.696,0.0,0.0,0.0,0.0,0.0,-3.273,0.0,0.0,0.0,-0.514,0.0,-3.9,0.0,0.0,0.0,-1.103,-1.125,-4.053999999999999,0.0,0.7070000000000001,0.0,-0.738,-0.7070000000000001,-3.365,-0.6779999999999999,0.997,0.0,-0.757,0.0,-2.278,-0.853,1.092,0.0,-0.762,0.0,-1.715,-0.759,1.061,0.0,-0.899,0.0,-1.538,-0.653,1.093,0.0,-0.584,-0.5920000000000001,-1.275,-0.6509999999999999,1.224,0.0,0.0,-0.642,0.0,-0.902,1.32,0.0,0.0,0.0,0.8290000000000001,-1.153,1.258,0.0,0.0,0.0,1.4509999999999998,-1.052,0.907,0.0,0.0,0.0,1.504,-0.85,0.7559999999999999,0.0,0.0,0.0,1.8230000000000002,-0.753,0.695,0.0,0.0,0.0,1.901,-0.6,0.601,0.0,0.0,0.0,2.0669999999999997,-0.539,0.516,0.0,0.0,0.0,2.43,0.0,0.0,0.0,0.0,0.0,2.456,0.0,0.0,0.0,-0.5920000000000001,-0.623,2.249,0.0,0.0,0.0,0.0,-0.8059999999999999,1.905,0.0,0.0,0.0,0.0,0.0,1.5859999999999999,0.0,0.0,0.0,-0.795,0.0,1.101,0.0,0.0,0.0,-1.002,0.0,1.1320000000000001,0.0,0.0,0.0,-0.821,0.0,1.114,0.0,0.0,0.0,0.0,-0.682,0.701,0.0,0.0,0.0,0.0,-0.792,0.0,0.0,0.0,0.0,-0.55,0.0,0.7290000000000001,0.0,0.0,0.0,-0.7490000000000001,0.0,1.256,0.0,0.0,0.0,,,,,,,,,,,,,,,,,,,,,,,,,,,,,,,,,,,,,,,,,,,,,,,,,,,,,,,,,,,,,,,,,,,,,,,,,,,,,,,,,,,,,,,,,,,,,,,,,,,,,,,,,,,,,,,,,,,,,,,,,,,,,,,,,,,,,,,,,,,,,,,,,,,,,,,,,,,,,,,,,,,,,,,,,,,,,,,,,,,,,,,,,,,,,,,,,,,,,,,moveDown
accX,0.0,0.0,0.0,0.0,0.0,0.0,0.0,0.0,0.0,0.0,0.0,0.0,0.0,0.0,0.0,0.0,0.0,0.0,0.0,0.0,0.0,0.0,0.0,0.0,0.0,0.0,0.0,0.0,0.0,0.0,0.0,0.0,0.0,0.0,0.0,0.0,0.0,-0.653,0.0,0.0,0.0,0.0,0.0,-0.8759999999999999,-0.547,0.0,0.0,0.0,0.0,0.0,0.0,0.0,0.0,0.0,0.0,0.0,0.0,0.0,0.0,0.0,0.0,0.0,0.0,0.0,0.0,0.0,0.0,0.0,0.0,0.0,0.0,0.0,0.0,0.0,0.0,0.0,0.0,0.0,0.0,0.0,0.0,0.0,0.0,0.0,0.0,0.0,-1.072,0.0,0.0,0.0,0.0,0.0,-2.234,0.0,0.0,0.0,0.0,0.0,-3.42,0.0,0.0,0.0,0.0,0.0,-3.964,0.0,0.0,0.0,0.0,-0.6,-4.136,0.0,0.531,0.0,0.0,0.0,-4.033,-0.575,0.616,0.0,0.0,0.0,-3.782,-0.547,0.623,0.0,-0.5770000000000001,-0.53,-3.7,0.0,0.625,0.0,-1.037,-1.369,-3.9930000000000003,0.0,0.62,0.0,-1.281,-1.574,-3.647,0.0,0.738,0.0,-1.005,-0.986,-2.427,-0.7190000000000001,0.836,0.0,-1.125,0.0,-1.5130000000000001,-0.684,0.792,0.0,-1.013,0.0,0.0,-0.653,0.716,0.0,-0.7240000000000001,0.0,0.0,-0.585,0.0,0.0,-0.892,0.0,0.938,0.0,0.0,0.0,-1.295,0.0,1.161,0.0,0.5539999999999999,0.0,-0.982,0.0,1.412,-0.591,0.7509999999999999,0.0,0.0,0.0,1.317,-0.643,0.7140000000000001,0.0,0.0,0.0,1.5,-0.733,0.599,0.0,0.0,0.0,1.695,-0.682,0.0,0.0,0.0,0.0,1.919,-0.602,0.0,0.0,0.0,0.0,1.778,-0.561,0.0,0.0,0.0,-0.529,1.626,-0.7,0.5489999999999999,0.0,0.0,0.0,1.764,-0.858,0.547,0.0,0.0,0.0,1.9809999999999999,-0.863,0.0,0.0,0.0,0.0,2.186,-0.6659999999999999,0.0,0.0,-0.5770000000000001,0.0,2.017,0.0,0.0,0.0,-0.509,0.0,1.588,0.0,0.0,0.0,0.0,-0.552,1.575,0.0,0.0,0.0,0.0,0.0,1.367,0.0,0.0,0.0,0.0,0.0,1.11,0.0,0.0,0.0,0.0,0.0,1.166,0.0,0.0,0.0,0.0,0.0,1.3159999999999998,0.0,0.0,0.0,0.0,0.0,1.511,0.0,0.0,0.0,0.0,0.0,1.605,0.0,0.0,0.0,0.0,0.0,1.2209999999999999,0.0,0.0,0.0,0.0,-0.573,0.0,0.0,0.0,0.0,0.0,-0.6459999999999999,0.0,0.0,0.0,0.0,0.0,-0.563,-0.5329999999999999,0.0,0.0,0.0,,,,,,,,,,,,,,,,,,,,,,,,,,,,,,,,,,,,,,,,,,,,,,,,,,,,,,,,,,,,,,,,,,,,,,,,,,,,,,,,,,,,,,,,,,,,,,,,,,,,,,,,,,,,,,,,,,,,,,,,,,,,,,,,,,,,,,,,,,,,,,,,,,,,,,,,,,,,,,,,,,,moveDown
accX,0.0,0.0,-0.544,0.0,0.0,0.0,0.0,0.0,0.0,0.0,0.0,0.0,0.0,0.0,0.0,0.0,0.0,0.0,0.0,0.0,0.0,0.0,0.0,0.0,0.0,0.0,0.0,0.0,0.0,0.0,0.0,0.0,0.0,0.0,0.0,0.0,-0.552,-0.624,0.0,0.575,0.511,0.0,0.0,-0.9329999999999999,-0.746,0.535,0.755,0.0,0.9009999999999999,-0.996,-1.14,0.0,0.747,0.0,0.0,-0.966,-1.3880000000000001,0.0,0.562,0.0,0.0,-0.6729999999999999,-1.3159999999999998,0.0,0.569,0.0,0.0,0.0,-0.9740000000000001,0.0,0.61,0.0,0.0,0.0,-0.748,0.0,0.605,0.0,0.9570000000000001,0.0,-1.194,0.0,0.0,0.0,0.743,-0.604,-1.867,0.0,0.0,0.0,0.0,-0.807,-2.533,0.0,0.0,0.0,0.0,-0.738,-2.819,-0.605,0.0,0.0,0.0,-0.624,-2.9939999999999998,-0.695,0.0,0.0,0.0,0.0,-3.2089999999999996,-0.628,0.0,0.0,-0.847,0.0,-3.02,0.0,0.0,0.0,-0.934,0.0,-2.823,0.0,0.74,0.0,-0.637,-0.868,-2.845,0.0,0.993,0.0,0.0,-1.405,-2.549,0.0,1.0490000000000002,0.0,-0.565,-1.24,-1.367,-0.532,1.102,0.0,0.0,-0.922,-0.501,-0.7140000000000001,0.9129999999999999,-0.613,0.0,-0.8270000000000001,0.0,-0.833,0.6890000000000001,-0.687,0.0,-0.509,0.0,-0.929,0.0,-0.598,-0.526,0.0,1.023,-0.8959999999999999,0.0,0.0,0.0,0.0,1.204,-0.826,0.0,0.0,0.0,0.0,1.354,-0.755,0.0,0.0,-0.534,0.0,1.96,-0.898,0.0,0.0,-0.757,0.0,2.7430000000000003,-1.071,0.0,0.0,0.0,0.0,2.6439999999999997,-1.063,0.0,0.0,0.0,0.0,2.169,-0.9640000000000001,0.0,0.0,-1.035,0.0,2.207,-0.858,0.0,0.0,-1.4,0.0,2.339,-0.759,0.0,0.0,-0.687,0.0,1.919,-0.6629999999999999,0.0,0.0,0.0,0.0,1.7790000000000001,-0.7340000000000001,0.0,0.0,-1.285,0.0,1.7590000000000001,-0.6579999999999999,0.0,0.0,-1.129,0.0,1.672,0.0,0.0,0.0,0.0,0.0,1.4380000000000002,0.0,0.0,0.0,0.0,-0.674,1.213,0.0,0.0,0.0,0.0,0.0,0.9520000000000001,0.0,0.0,0.0,-0.9279999999999999,0.0,0.856,0.0,0.0,0.0,-0.65,0.0,0.586,0.0,0.0,0.0,0.0,-0.65,0.0,0.0,0.0,0.0,0.0,0.0,0.0,0.0,0.0,0.0,0.0,0.0,0.0,0.0,0.0,0.0,0.0,0.0,0.0,0.0,0.0,0.0,,,,,,,,,,,,,,,,,,,,,,,,,,,,,,,,,,,,,,,,,,,,,,,,,,,,,,,,,,,,,,,,,,,,,,,,,,,,,,,,,,,,,,,,,,,,,,,,,,,,,,,,,,,,,,,,,,,,,,,,,,,,,,,,,,,,,,,,,,,,,,,,,,,,,,,,,,,,,,,,,,,,,,,,,,,,,,,,,,,,,,,,,,,moveDown
accX,0.0,0.0,0.0,0.0,0.0,0.0,0.0,0.0,0.0,0.0,0.0,0.0,0.0,0.0,0.0,0.0,0.0,0.0,0.0,0.0,0.0,0.0,0.0,0.0,0.0,0.0,0.0,0.0,0.0,0.0,0.0,0.0,0.0,0.0,0.0,0.0,0.0,0.0,0.0,0.0,0.0,0.0,0.0,0.0,0.0,0.0,0.0,0.0,0.0,0.0,-0.524,0.0,0.0,0.0,0.0,0.0,-0.652,0.0,0.0,0.0,0.0,0.0,-0.599,0.0,0.0,0.0,0.0,0.0,0.0,0.0,0.0,0.0,0.0,0.0,0.0,0.0,0.0,0.0,0.0,0.0,-0.8059999999999999,0.0,0.0,0.0,0.0,0.0,-1.198,0.0,0.0,0.0,0.0,0.0,-1.268,0.0,0.0,0.0,0.0,0.0,-1.2109999999999999,0.0,0.0,0.0,0.0,0.0,-1.415,0.0,0.0,0.0,0.0,0.0,-2.066,0.0,0.0,0.0,0.0,0.0,-2.65,0.0,0.0,0.0,0.0,0.0,-3.0439999999999996,0.0,0.0,0.0,0.0,-0.574,-3.364,0.0,0.0,0.0,0.0,-0.873,-3.5660000000000003,0.0,0.0,0.0,0.0,-0.564,-3.6830000000000003,0.0,0.0,0.0,-1.496,-1.482,-3.98,0.0,0.0,0.0,-2.302,-1.8,-3.7880000000000003,-0.541,0.8759999999999999,0.0,-1.733,-1.074,-2.812,-0.85,1.136,0.0,-0.754,-0.87,-1.88,-0.9890000000000001,1.006,0.0,-0.769,0.0,-0.892,-0.9209999999999999,0.8809999999999999,0.0,-1.121,0.0,0.0,-0.7240000000000001,0.955,0.0,-0.775,0.0,0.8320000000000001,-0.59,1.012,0.0,0.0,0.0,1.854,-0.669,0.93,0.0,0.0,0.0,3.072,-0.902,0.588,0.0,0.0,0.0,3.318,-0.89,0.0,0.0,0.0,0.0,3.448,-0.8490000000000001,0.563,0.0,0.0,0.0,3.1189999999999998,-0.836,0.5770000000000001,0.0,0.0,0.0,2.95,-0.86,0.0,0.0,0.0,0.0,2.67,-0.733,0.0,0.0,0.0,0.0,2.351,-0.5710000000000001,0.0,0.0,0.0,0.0,1.4980000000000002,0.0,0.0,0.0,0.0,0.0,0.935,0.0,0.0,0.0,0.0,0.0,0.6859999999999999,-0.551,0.0,0.0,0.0,0.0,0.743,-0.5720000000000001,0.0,0.0,0.0,0.0,0.767,0.0,0.0,0.0,-0.517,0.0,0.552,0.0,0.0,0.0,0.0,0.0,0.512,0.0,0.0,0.0,0.0,0.0,0.0,0.0,0.0,0.0,0.0,0.0,0.0,0.0,0.0,0.0,,,,,,,,,,,,,,,,,,,,,,,,,,,,,,,,,,,,,,,,,,,,,,,,,,,,,,,,,,,,,,,,,,,,,,,,,,,,,,,,,,,,,,,,,,,,,,,,,,,,,,,,,,,,,,,,,,,,,,,,,,,,,,,,,,,,,,,,,,,,,,,,,,,,,,,,,,,,,,,,,,,,,,,,,,,,,,,,,,,,,,,,,,,,,,,,,moveDown
accX,0.0,0.0,0.0,0.0,0.0,0.0,0.0,0.0,0.0,0.0,0.0,0.0,0.0,0.0,0.0,0.0,0.0,0.0,0.0,0.0,0.0,0.0,0.0,0.0,0.0,0.0,0.575,0.0,-0.502,0.0,0.0,0.0,0.0,0.629,-0.613,0.0,0.0,0.0,0.0,0.647,-0.604,0.0,0.0,0.0,0.0,0.609,0.0,0.0,0.0,0.0,-0.644,0.0,0.0,0.0,0.0,0.0,-0.688,0.0,0.0,0.0,0.0,0.0,-0.722,0.0,0.0,0.0,0.0,0.0,-0.83,0.535,0.0,0.0,0.0,0.0,-1.147,0.557,0.0,0.0,-0.731,0.0,-1.618,0.0,0.0,0.0,-0.61,0.0,-1.815,0.0,0.0,0.0,0.0,0.0,-2.478,0.0,0.0,0.0,0.0,0.0,-3.22,0.0,0.0,0.0,0.0,-1.103,-4.269,0.0,0.511,0.0,0.0,-1.704,-4.579,0.0,0.594,0.0,-0.532,-1.8419999999999999,-4.397,0.0,0.618,0.0,-0.823,-1.76,-3.7769999999999997,0.0,0.66,0.0,-0.95,-1.6769999999999998,-3.1060000000000003,-0.551,0.722,0.0,-1.159,-1.871,-2.841,-0.745,0.7809999999999999,0.0,-0.789,-1.466,-1.6780000000000002,-0.9009999999999999,0.862,0.0,-0.975,-1.3119999999999998,-0.669,-1.124,0.797,0.0,-0.83,-0.98,0.0,-1.304,0.835,0.0,0.0,0.0,1.054,-1.381,0.86,0.0,0.0,0.0,1.495,-1.339,0.809,0.0,0.0,0.0,1.7630000000000001,-1.28,0.758,0.0,0.0,0.0,1.9869999999999999,-1.31,0.852,0.0,0.0,0.0,2.847,-1.4040000000000001,0.982,0.0,0.0,0.0,3.638,-1.515,1.05,0.0,0.0,0.0,3.634,-1.472,0.9229999999999999,0.0,0.0,0.617,3.384,-1.159,0.743,0.0,0.0,0.0,2.622,-0.8270000000000001,0.657,0.0,-0.586,0.0,2.378,-0.8340000000000001,0.8109999999999999,0.0,0.0,0.0,2.437,-0.951,0.907,0.0,0.0,0.0,2.385,-0.871,0.614,0.0,0.0,0.0,2.171,-0.65,0.0,0.0,0.0,0.0,1.6640000000000001,0.0,0.0,0.0,0.0,-0.685,1.113,0.0,0.0,0.0,0.0,-0.51,0.731,0.0,0.0,0.0,0.0,0.0,0.551,0.0,0.0,0.0,,,,,,,,,,,,,,,,,,,,,,,,,,,,,,,,,,,,,,,,,,,,,,,,,,,,,,,,,,,,,,,,,,,,,,,,,,,,,,,,,,,,,,,,,,,,,,,,,,,,,,,,,,,,,,,,,,,,,,,,,,,,,,,,,,,,,,,,,,,,,,,,,,,,,,,,,,,,,,,,,,,,,,,,,,,,,,,,,,,,,,,,,,,,,,,,,,,,,,,,,,,,,,,,,,,,,,,,,,,,,,,moveDown
accX,0.0,0.0,0.0,0.0,0.0,0.0,0.0,0.0,0.0,0.0,0.0,0.0,0.0,0.0,0.0,0.0,0.0,0.0,0.0,0.0,0.0,0.0,0.0,0.0,0.0,0.0,0.0,0.0,0.0,0.0,-0.89,-0.9440000000000001,-0.725,0.0,0.0,0.0,0.0,0.0,-0.718,0.0,0.0,0.0,0.0,0.0,-0.9109999999999999,0.0,0.0,0.0,0.0,0.0,-1.3559999999999999,0.0,0.0,0.0,0.0,0.0,-1.8030000000000002,0.0,0.0,0.0,0.0,0.0,-2.5860000000000003,0.0,0.0,0.0,0.0,-0.853,-3.214,0.0,0.0,0.0,-0.58,-0.5589999999999999,-3.237,-0.5329999999999999,0.0,0.0,-0.517,0.0,-2.955,-0.524,0.522,0.0,-0.551,0.0,-3.034,0.0,0.5329999999999999,0.0,0.0,0.0,-2.843,0.0,0.0,0.0,-0.631,-0.718,-3.949,0.0,0.0,0.0,-1.3940000000000001,-1.0070000000000001,-3.679,0.0,0.65,0.0,-0.914,-0.5670000000000001,-2.719,-0.574,0.987,0.0,0.0,0.0,-1.849,-0.602,1.0290000000000001,0.0,0.0,0.0,-0.845,-0.565,0.9059999999999999,0.0,-0.574,0.0,0.0,-0.54,0.879,0.0,0.0,0.0,0.0,-0.5820000000000001,0.9109999999999999,0.0,0.0,0.0,0.778,-0.628,0.8420000000000001,0.0,0.0,0.0,0.973,-0.703,0.764,0.0,0.0,0.0,1.024,-0.693,0.586,0.0,-0.733,0.0,1.811,-0.8270000000000001,0.643,0.0,-0.6809999999999999,0.0,2.701,-0.998,0.868,0.0,0.0,0.524,3.325,-1.036,1.0170000000000001,0.0,0.6609999999999999,0.0,2.861,-0.7290000000000001,0.7140000000000001,0.0,0.0,0.0,1.8659999999999999,0.0,0.0,0.0,0.0,0.0,1.544,0.0,0.0,0.0,-0.637,0.0,1.335,-0.578,0.0,0.0,0.0,0.0,1.646,-0.74,0.7,0.0,0.0,0.0,2.591,-0.816,0.736,0.0,0.0,0.0,2.6489999999999996,-0.7090000000000001,0.0,0.0,0.0,0.0,2.313,-0.54,0.0,0.0,-0.8490000000000001,0.0,1.7530000000000001,0.0,0.0,0.0,-0.909,0.0,1.597,-0.512,0.0,0.0,-0.639,0.0,1.501,-0.5720000000000001,0.0,0.0,0.0,0.0,1.444,0.0,0.0,0.0,-0.5589999999999999,0.0,1.22,0.0,0.0,0.0,-0.601,0.0,0.7609999999999999,0.0,0.0,0.0,0.0,-0.583,0.0,0.0,0.0,0.0,0.0,-0.685,0.0,0.0,0.0,0.0,0.0,0.0,-0.645,0.0,0.0,0.0,,,,,,,,,,,,,,,,,,,,,,,,,,,,,,,,,,,,,,,,,,,,,,,,,,,,,,,,,,,,,,,,,,,,,,,,,,,,,,,,,,,,,,,,,,,,,,,,,,,,,,,,,,,,,,,,,,,,,,,,,,,,,,,,,,,,,,,,,,,,,,,,,,,,,,,,,,,,,,,,,,,,,,,,,,,,,,,,,,,,,,,,,,,,,,,,,,,,,,,,,,,,,moveDown
accX,0.0,0.0,0.0,0.0,0.0,0.0,0.0,0.0,0.0,0.0,0.0,0.0,0.0,0.0,0.0,0.0,0.0,0.0,0.0,0.0,0.0,0.0,0.0,0.0,0.0,0.0,0.0,0.0,0.0,0.0,0.0,0.0,0.0,0.0,0.0,0.0,0.0,0.0,0.0,0.0,0.0,0.0,0.0,0.0,0.0,0.0,0.0,0.0,0.0,0.0,-0.75,0.0,0.0,0.0,0.0,0.0,-1.1440000000000001,0.0,0.0,0.0,0.0,0.0,-1.4140000000000001,0.0,0.0,0.0,0.0,0.0,-2.1959999999999997,0.0,0.0,0.0,0.0,0.0,-2.804,0.0,0.0,0.0,0.0,0.0,-3.236,0.0,0.0,0.0,0.0,0.0,-3.238,0.0,0.0,0.0,0.0,0.0,-3.138,0.0,0.0,0.0,-0.525,-0.6970000000000001,-3.255,0.0,0.0,0.0,-0.575,-0.645,-3.323,0.0,0.0,0.0,-0.701,0.0,-2.94,0.0,0.0,0.0,-0.8009999999999999,0.0,-2.519,0.0,0.0,0.0,-1.258,-0.508,-1.933,0.0,0.0,0.0,-1.605,-1.621,-1.858,0.0,0.0,0.0,-1.374,-1.83,-1.847,0.0,0.0,0.0,-0.872,-1.227,-1.419,-0.711,0.7609999999999999,0.0,-0.614,-0.622,0.0,-0.9009999999999999,0.9179999999999999,0.0,0.0,0.0,0.705,-0.892,0.9440000000000001,0.0,0.0,0.0,0.915,-0.7659999999999999,0.688,0.0,0.0,0.0,1.3230000000000002,-0.655,0.0,0.0,-0.557,0.0,1.8,-0.695,0.502,0.0,0.0,0.0,2.024,-0.795,0.6990000000000001,0.0,0.0,0.0,2.305,-0.8029999999999999,0.7040000000000001,0.0,0.0,0.0,2.504,-0.7829999999999999,0.605,0.0,0.0,0.0,2.81,-0.833,0.6459999999999999,0.0,0.0,0.0,2.99,-0.825,0.619,0.0,0.0,0.0,2.805,-0.731,0.541,0.0,0.0,0.0,2.5980000000000003,-0.508,0.0,0.0,0.0,0.0,2.246,0.0,0.0,0.0,0.0,0.0,1.839,-0.507,0.0,0.0,-0.51,0.0,1.271,0.0,0.0,0.0,0.0,0.0,1.3659999999999999,0.0,0.0,0.0,0.0,0.0,1.196,0.0,0.0,0.0,-0.521,-0.753,0.951,0.0,0.0,0.0,-0.875,-0.638,0.7809999999999999,0.0,0.0,0.0,0.0,-0.6759999999999999,0.6679999999999999,0.0,0.0,0.0,0.0,-0.535,0.613,-0.505,0.0,0.0,0.0,0.0,0.722,0.0,0.0,0.0,0.0,0.0,0.6629999999999999,0.0,0.0,0.0,0.0,-0.551,0.0,0.0,0.0,0.0,,,,,,,,,,,,,,,,,,,,,,,,,,,,,,,,,,,,,,,,,,,,,,,,,,,,,,,,,,,,,,,,,,,,,,,,,,,,,,,,,,,,,,,,,,,,,,,,,,,,,,,,,,,,,,,,,,,,,,,,,,,,,,,,,,,,,,,,,,,,,,,,,,,,,,,,,,,,,,,,,,,,,,,,,,,,,,,,,,,,,,,,,,,,,,,,,moveDown
accX,0.0,0.0,0.0,0.0,0.0,0.0,0.0,0.0,0.0,0.0,0.0,0.0,0.0,0.0,0.0,0.0,0.0,0.0,0.0,0.0,0.0,0.0,0.0,0.0,0.0,0.0,0.0,0.0,0.0,0.0,0.0,-0.934,0.0,0.0,0.0,0.0,0.0,-0.624,0.0,0.0,0.0,0.0,0.0,0.0,-0.539,0.0,0.0,0.0,0.0,0.0,-0.513,0.0,0.0,0.0,0.0,0.0,-0.6459999999999999,0.0,0.0,0.0,0.0,0.0,-1.2309999999999999,0.0,0.0,0.0,0.0,0.0,-2.266,0.0,0.0,0.0,0.0,0.0,-3.3710000000000004,0.0,0.0,0.0,0.0,-0.5539999999999999,-4.302,0.0,0.0,0.0,0.0,-0.701,-4.279,0.0,0.0,0.0,0.0,0.0,-3.966,0.0,0.0,0.0,-0.5710000000000001,0.0,-3.641,0.0,0.0,0.0,0.0,0.0,-3.248,0.0,0.0,0.0,-0.514,-0.8859999999999999,-3.5980000000000003,0.536,0.0,0.0,-1.882,-2.528,-3.637,0.0,0.0,0.0,-2.454,-2.138,-3.1260000000000003,0.0,0.0,0.0,-1.453,-0.91,-1.565,-0.875,0.902,0.0,-0.54,0.0,0.0,-0.965,1.028,0.0,0.0,0.0,1.0190000000000001,-0.835,0.823,0.0,0.0,0.0,1.38,-0.569,0.0,0.0,0.0,0.0,1.321,0.0,0.0,0.0,-0.5660000000000001,-0.907,1.1440000000000001,0.0,0.0,0.0,-0.555,-0.914,1.22,-0.773,0.51,0.0,0.0,-0.562,1.43,-0.905,0.5539999999999999,0.0,0.0,0.0,2.378,-0.929,0.545,0.0,0.0,0.0,2.7289999999999996,-0.8029999999999999,0.0,0.0,0.0,0.0,2.403,-0.627,0.0,0.0,0.0,0.0,2.147,-0.623,0.0,0.0,-0.501,0.0,2.241,-0.784,0.525,0.0,0.0,0.0,2.2230000000000003,-0.8240000000000001,0.502,0.0,0.0,0.0,1.829,-0.627,0.0,0.0,0.0,0.0,1.194,0.0,0.0,0.0,-0.675,0.0,0.909,0.0,0.0,0.0,0.0,0.0,1.048,0.0,0.647,0.0,0.0,-0.809,1.215,0.0,0.0,0.0,0.0,-0.622,1.131,0.0,0.0,0.0,0.0,0.0,0.789,0.0,0.0,0.0,0.0,0.0,0.5489999999999999,0.0,0.0,0.0,0.0,-1.207,0.0,0.0,0.0,0.0,,,,,,,,,,,,,,,,,,,,,,,,,,,,,,,,,,,,,,,,,,,,,,,,,,,,,,,,,,,,,,,,,,,,,,,,,,,,,,,,,,,,,,,,,,,,,,,,,,,,,,,,,,,,,,,,,,,,,,,,,,,,,,,,,,,,,,,,,,,,,,,,,,,,,,,,,,,,,,,,,,,,,,,,,,,,,,,,,,,,,,,,,,,,,,,,,,,,,,,,,,,,,,,,,,,,,,,,,moveDown
accX,0.0,0.0,0.0,0.0,0.0,0.0,0.0,0.0,0.0,0.0,0.0,0.0,0.0,0.0,0.0,0.0,0.0,0.0,0.0,0.0,0.0,0.0,0.0,0.0,0.0,0.0,-0.555,0.0,0.0,0.0,0.0,0.0,-0.836,0.0,0.0,0.0,0.0,0.0,0.0,0.0,0.0,0.0,0.0,0.0,0.0,0.0,0.0,0.0,0.0,0.0,0.0,0.0,0.0,0.0,0.0,0.0,0.0,0.0,0.0,0.0,0.0,0.0,-0.591,0.0,0.0,0.0,0.0,0.0,-1.169,0.0,0.0,0.0,0.0,0.0,-1.3980000000000001,0.0,0.0,0.0,0.0,0.0,-1.785,0.0,0.0,0.0,0.0,0.0,-2.169,0.0,0.0,0.0,0.0,0.0,-2.5,0.0,0.0,0.0,0.0,0.0,-3.051,0.0,0.0,0.0,0.0,0.0,-3.7439999999999998,0.0,0.0,0.0,-0.527,0.0,-3.847,0.0,0.0,0.0,0.0,0.0,-3.78,0.0,0.0,0.0,-0.8140000000000001,-0.594,-4.053,0.0,0.0,0.0,-0.941,-0.614,-3.707,0.0,0.5589999999999999,0.0,-1.085,-0.631,-2.917,0.0,0.725,0.0,0.0,0.0,-2.2159999999999997,0.0,0.684,0.0,0.0,0.0,-1.371,0.0,0.531,0.0,0.0,0.0,-0.6729999999999999,0.0,0.0,0.0,0.0,0.0,0.0,0.0,0.0,0.0,0.0,-0.665,0.534,0.0,0.0,0.0,-0.5820000000000001,-0.649,1.193,-0.6509999999999999,0.522,0.0,0.0,0.0,1.93,-0.7929999999999999,0.687,0.0,0.0,0.0,2.34,-0.7040000000000001,0.642,0.0,0.0,0.0,2.375,-0.528,0.0,0.0,0.0,0.0,2.758,-0.574,0.0,0.0,0.0,0.0,2.931,-0.728,0.525,0.0,0.0,0.0,2.6430000000000002,-0.73,0.0,0.0,0.0,0.0,2.083,-0.529,0.0,0.0,0.0,0.0,2.182,0.0,0.0,0.0,-0.695,0.0,2.309,-0.649,0.0,0.0,0.0,0.0,2.23,-0.782,0.636,0.0,0.0,0.0,1.787,-0.648,0.0,0.0,0.0,0.0,1.854,0.0,0.0,0.0,-0.518,0.0,1.73,0.0,0.0,0.0,0.0,0.0,1.524,0.0,0.0,0.0,0.0,0.0,1.652,0.0,0.0,0.0,0.0,0.0,1.6580000000000001,0.0,0.0,0.0,0.0,0.0,1.13,0.0,0.0,0.0,-0.7240000000000001,-1.071,0.0,0.0,0.0,0.0,,,,,,,,,,,,,,,,,,,,,,,,,,,,,,,,,,,,,,,,,,,,,,,,,,,,,,,,,,,,,,,,,,,,,,,,,,,,,,,,,,,,,,,,,,,,,,,,,,,,,,,,,,,,,,,,,,,,,,,,,,,,,,,,,,,,,,,,,,,,,,,,,,,,,,,,,,,,,,,,,,,,,,,,,,,,,,,,,,,,,,,,,,,,,,,,,,,,,,,moveDown
accX,0.0,0.0,0.0,0.0,0.0,0.0,0.0,0.0,0.0,0.0,0.0,0.0,0.0,-0.502,-0.6629999999999999,0.0,0.0,0.0,0.0,0.0,-0.604,0.0,0.0,0.0,0.0,0.0,-0.904,0.0,0.0,0.0,0.0,0.0,-1.392,0.0,0.0,0.0,0.0,0.0,-1.962,0.0,0.0,0.0,0.0,0.0,-2.4459999999999997,0.0,0.0,0.0,0.0,0.0,-2.793,0.0,0.53,0.0,0.0,0.0,-2.7310000000000003,0.0,0.52,0.0,0.0,0.0,-2.552,0.0,0.0,0.0,0.0,0.0,-2.612,0.0,0.0,0.0,-1.173,-1.1520000000000001,-3.505,0.0,0.0,0.0,-0.79,-0.943,-3.7110000000000003,-0.532,0.6679999999999999,0.0,0.0,0.0,-3.545,-0.507,0.6920000000000001,0.0,0.0,0.0,-2.948,0.0,0.67,0.0,0.0,0.0,-1.963,0.0,0.0,0.0,0.0,0.0,-1.286,0.0,0.0,0.0,-1.119,-0.8759999999999999,-1.423,0.0,0.0,0.0,-1.704,-0.8590000000000001,-1.052,-0.62,0.748,0.0,-1.015,-0.593,0.0,-0.8759999999999999,1.048,0.0,0.0,0.0,0.0,-0.955,0.9890000000000001,0.0,0.0,0.0,1.177,-1.006,0.7509999999999999,0.0,0.0,0.0,1.899,-0.919,0.624,0.0,-0.6509999999999999,0.0,2.168,-0.731,0.645,0.0,-0.591,0.0,2.414,-0.737,0.659,0.0,-0.519,0.0,2.735,-0.746,0.6509999999999999,0.0,0.0,0.0,2.85,-0.7709999999999999,0.53,0.0,0.0,0.0,2.8989999999999996,-0.733,0.0,0.0,0.0,0.0,2.398,-0.5379999999999999,0.0,0.0,-0.583,0.0,1.995,0.0,0.0,0.0,-0.604,-0.68,1.6440000000000001,-0.528,0.0,0.0,0.0,-0.613,1.7630000000000001,-0.6679999999999999,0.0,0.0,0.0,0.0,1.6540000000000001,-0.615,0.0,0.0,0.0,0.0,0.987,0.0,0.0,0.0,0.0,-0.605,0.561,0.0,0.0,0.0,0.0,-0.622,0.0,0.0,0.0,0.0,0.0,0.0,0.5670000000000001,0.0,0.0,0.0,0.0,0.0,0.996,0.0,0.0,0.0,0.0,0.0,1.274,0.0,0.0,0.0,0.0,0.0,1.06,0.0,0.0,0.0,0.0,0.0,0.828,0.0,0.0,0.0,0.0,0.0,0.6970000000000001,0.0,0.0,0.0,0.0,0.0,0.0,0.0,0.0,0.0,,,,,,,,,,,,,,,,,,,,,,,,,,,,,,,,,,,,,,,,,,,,,,,,,,,,,,,,,,,,,,,,,,,,,,,,,,,,,,,,,,,,,,,,,,,,,,,,,,,,,,,,,,,,,,,,,,,,,,,,,,,,,,,,,,,,,,,,,,,,,,,,,,,,,,,,,,,,,,,,,,,,,,,,,,,,,,,,,,,,,,,,,,,,,,,,,,,,,,,,,,,,,,,,,,,,,,,,,moveDown
accX,0.0,-0.682,0.0,0.0,0.0,0.0,0.0,0.0,0.0,0.0,0.0,0.0,0.0,0.0,0.0,0.0,0.0,0.0,0.0,0.0,0.0,0.0,0.0,0.0,0.0,0.0,0.0,0.0,0.0,0.0,0.0,0.0,0.0,0.0,0.0,0.0,0.0,-0.846,-0.6709999999999999,0.0,0.0,0.0,0.0,0.0,-1.198,0.0,0.0,0.0,0.0,0.0,-1.5659999999999998,0.0,0.0,0.0,0.0,0.0,-1.476,0.0,0.0,0.0,0.0,0.0,-1.297,0.0,0.0,0.0,0.0,0.0,-1.855,0.0,0.0,0.0,0.0,-0.539,-2.733,0.0,0.0,0.0,0.0,-0.622,-3.0439999999999996,0.0,0.0,0.0,-0.5760000000000001,0.0,-2.938,0.0,0.522,0.0,-0.649,0.0,-3.258,0.0,0.611,0.0,0.0,0.0,-3.537,0.0,0.0,0.0,-0.611,-0.51,-3.1239999999999997,0.0,0.0,0.0,-0.711,0.0,-2.576,0.0,0.0,0.0,-1.228,0.0,-1.774,0.0,0.0,0.0,-0.907,-0.574,-1.581,0.0,0.0,0.0,-0.7829999999999999,-1.02,-1.453,0.0,0.0,0.0,0.0,-0.6859999999999999,-1.247,0.0,0.0,0.0,0.0,-0.792,0.0,0.0,0.0,0.0,0.0,-0.522,0.0,0.0,0.0,0.0,0.0,0.0,0.652,0.0,0.0,0.0,0.0,0.0,0.0,0.0,0.0,0.0,0.0,-0.546,0.0,0.0,0.0,0.0,-0.516,0.0,0.0,-0.74,0.7659999999999999,0.0,0.0,0.0,0.643,-1.003,0.9229999999999999,0.0,0.0,0.0,1.355,-1.168,0.888,0.0,0.0,0.925,2.657,-1.006,0.7859999999999999,0.0,0.0,0.772,2.697,-0.7390000000000001,0.62,0.0,0.0,0.0,2.693,-0.6809999999999999,0.5760000000000001,0.0,0.0,0.0,2.947,-0.804,0.594,0.0,0.0,0.602,3.1889999999999996,-0.92,0.609,0.0,0.0,0.708,3.216,-0.743,0.0,0.0,0.0,0.0,2.638,0.0,0.0,0.0,-0.59,0.0,1.933,0.0,0.0,0.0,-0.581,0.0,1.4869999999999999,0.0,0.0,0.0,0.0,0.0,1.419,-0.54,0.0,0.0,0.0,0.0,1.368,-0.505,0.0,0.0,0.0,0.0,0.941,0.0,0.0,0.0,0.0,0.0,0.0,0.0,0.0,0.0,0.0,-1.101,-0.601,0.0,0.0,0.0,-0.504,-0.971,-1.006,0.0,0.0,0.0,0.0,0.0,-0.9279999999999999,-0.642,0.0,0.0,0.0,0.0,-0.606,-0.53,0.532,0.0,0.0,0.0,0.0,0.0,0.0,0.0,0.0,0.0,0.0,0.0,0.0,0.0,0.0,0.0,0.0,0.0,0.0,0.0,0.0,0.0,0.0,0.0,0.0,0.0,,,,,,,,,,,,,,,,,,,,,,,,,,,,,,,,,,,,,,,,,,,,,,,,,,,,,,,,,,,,,,,,,,,,,,,,,,,,,,,,,,,,,,,,,,,,,,,,,,,,,,,,,,,,,,,,,,,,,,,,,,,,,,,,,,,,,,,,,,,,,,,,,,,,,,,,,,,,,,,,,,,,,,,,,moveDown
accX,0.0,-0.601,0.0,0.0,0.0,0.0,0.0,-0.617,0.0,0.0,0.0,0.0,0.0,0.0,0.0,0.0,0.0,0.0,0.0,0.0,0.0,0.0,0.0,0.0,0.0,0.0,0.0,0.0,0.0,0.0,0.0,0.0,-0.5670000000000001,0.0,0.0,0.0,0.0,0.0,-0.526,0.0,0.0,0.0,0.0,0.0,0.0,0.0,0.0,0.0,0.0,0.0,0.0,0.0,0.0,0.0,0.0,0.0,0.0,0.0,0.0,0.0,0.0,0.0,-0.552,0.0,0.0,0.0,0.0,0.0,-0.992,0.0,0.0,0.0,0.0,0.0,-1.317,0.0,0.0,0.0,0.0,0.0,-1.27,0.0,0.0,0.0,0.0,0.0,-1.579,0.0,0.0,0.0,0.0,0.0,-2.048,0.0,0.0,0.0,0.0,0.0,-2.545,0.0,0.0,0.0,0.0,0.0,-3.19,0.0,0.0,0.0,0.0,0.0,-3.795,0.0,0.0,0.0,0.0,0.0,-3.966,0.0,0.0,0.0,0.0,0.0,-3.61,0.0,0.0,0.0,-0.902,-0.9259999999999999,-3.5189999999999997,0.0,0.0,0.0,-1.232,-1.4169999999999998,-3.2260000000000004,-0.7,0.644,0.0,-1.251,-0.888,-2.509,-0.894,0.792,0.0,-1.178,-0.625,-1.48,-0.9009999999999999,0.852,0.0,-1.053,0.0,0.0,-0.82,0.7959999999999999,0.0,-0.644,-0.76,0.0,-0.794,0.675,0.0,-1.056,-0.858,0.9109999999999999,-1.083,0.772,0.0,0.0,0.0,1.9140000000000001,-1.161,0.775,0.0,0.0,0.0,2.013,-1.0590000000000002,0.639,0.0,0.0,0.0,2.244,-0.893,0.0,0.0,-0.713,0.0,2.548,-0.925,0.556,0.0,0.0,0.0,3.0389999999999997,-1.036,0.758,0.0,0.0,0.0,2.992,-0.9179999999999999,0.664,0.0,0.563,0.0,2.201,-0.565,0.0,0.0,0.0,0.0,1.365,0.0,0.0,0.0,-1.226,-0.9109999999999999,0.9990000000000001,0.0,0.0,0.0,-0.541,0.0,1.252,-0.8170000000000001,0.657,0.0,0.0,0.0,1.859,-0.809,0.665,0.0,0.0,0.0,2.1,0.0,0.0,0.0,0.0,0.0,1.78,0.0,0.0,0.0,-0.54,-0.514,1.209,0.0,0.0,0.0,-0.595,-0.679,0.596,0.0,0.0,0.0,0.0,-0.5870000000000001,0.598,0.0,0.0,0.0,,,,,,,,,,,,,,,,,,,,,,,,,,,,,,,,,,,,,,,,,,,,,,,,,,,,,,,,,,,,,,,,,,,,,,,,,,,,,,,,,,,,,,,,,,,,,,,,,,,,,,,,,,,,,,,,,,,,,,,,,,,,,,,,,,,,,,,,,,,,,,,,,,,,,,,,,,,,,,,,,,,,,,,,,,,,,,,,,,,,,,,,,,,,,,,,,,,,,,,,,,,,,,,,,,,,,,,,,moveDown
accX,0.0,-0.703,0.0,0.0,0.0,0.0,-0.76,0.0,0.0,0.0,0.0,0.0,0.0,0.0,0.0,0.0,0.0,0.0,0.0,0.0,0.0,0.0,0.0,0.0,0.0,0.0,0.0,0.0,0.0,0.0,0.0,0.0,0.0,0.0,0.0,0.0,-0.725,-0.757,0.0,0.0,0.0,0.0,0.0,0.0,0.0,0.0,0.0,0.0,0.0,0.0,0.0,0.0,0.0,0.0,0.0,0.0,0.0,0.0,0.0,0.0,0.0,0.0,0.0,0.0,0.0,0.0,1.726,0.67,-1.382,0.838,0.0,0.0,2.036,0.0,-3.168,1.411,-0.58,0.0,1.067,-0.9329999999999999,-3.594,1.546,-0.642,0.0,0.0,-1.311,-2.975,1.412,0.0,0.0,0.0,-1.295,-1.8769999999999998,1.188,0.0,-0.602,0.0,-0.804,-0.986,1.069,0.0,-0.703,0.0,-0.546,-1.204,1.306,0.0,-0.8029999999999999,0.0,-1.187,-1.2590000000000001,1.368,0.0,-0.993,-1.416,-0.9259999999999999,-0.527,1.109,0.0,-1.069,-1.369,0.0,0.0,0.9109999999999999,0.615,-0.971,-0.557,0.75,0.9059999999999999,0.8740000000000001,0.988,-0.855,0.5760000000000001,0.815,1.0070000000000001,0.897,0.903,-0.91,1.871,0.0,0.741,0.8740000000000001,0.0,-1.219,1.607,0.0,0.612,0.618,0.0,-1.421,0.815,0.745,0.741,0.0,-0.513,-1.255,0.6920000000000001,1.881,0.733,0.0,0.0,-0.995,1.4380000000000002,1.396,0.0,0.0,0.0,-0.877,1.565,1.012,0.0,0.565,-0.542,-0.927,1.411,0.622,0.0,0.524,-0.7559999999999999,-0.955,1.2109999999999999,0.0,-0.807,0.0,-0.945,-0.8809999999999999,0.7490000000000001,0.0,-0.972,0.0,-1.072,-0.764,0.0,0.635,-1.038,0.0,-0.975,-0.6559999999999999,0.0,0.6679999999999999,-1.196,0.0,-0.629,0.0,0.0,0.0,-1.334,0.0,0.0,0.0,0.0,-0.521,-1.208,0.0,0.0,0.0,0.0,-0.762,-1.023,0.0,0.0,0.0,0.0,-1.119,-0.943,-0.514,0.0,0.0,0.0,-1.2309999999999999,-0.638,-0.607,0.0,0.0,0.0,-1.037,0.0,-0.667,0.0,0.0,-0.583,-0.8859999999999999,0.0,-0.6679999999999999,0.0,0.0,0.0,-0.948,0.527,-0.596,0.528,0.0,-1.656,0.0,1.679,0.0,0.0,0.0,-0.6920000000000001,0.0,2.246,0.0,0.0,0.0,-0.6920000000000001,-1.04,1.7109999999999999,0.0,0.0,0.0,-0.995,-0.645,0.998,0.0,0.0,0.0,0.0,-0.741,0.9009999999999999,0.0,0.0,0.0,0.0,-0.807,0.868,0.0,0.0,0.0,0.0,-0.623,0.619,0.0,0.0,0.0,0.0,-0.8420000000000001,0.0,0.0,0.0,0.0,1.4269999999999998,-1.122,0.0,0.0,0.0,0.0,0.0,0.0,0.0,0.0,0.0,0.0,0.0,0.0,0.529,0.0,0.0,0.0,0.0,0.0,0.7390000000000001,0.0,0.0,0.0,0.0,0.0,1.095,0.0,0.0,0.0,0.61,-0.757,1.4580000000000002,0.0,0.0,0.0,0.0,0.0,1.21,0.0,0.0,0.0,-0.894,0.0,0.809,0.0,0.0,0.0,-0.877,-0.873,0.608,0.0,0.0,0.0,-0.9940000000000001,-1.181,0.0,0.0,0.0,0.0,-1.101,-1.252,-0.5589999999999999,0.0,0.0,0.0,-0.755,-1.2830000000000001,0.0,0.0,0.0,0.0,-0.758,-1.189,0.0,0.0,0.0,0.0,-0.598,0.0,0.0,0.0,0.0,0.0,-0.654,0.0,0.0,0.0,0.0,0.0,-0.515,0.0,0.0,0.0,0.0,0.0,0.0,0.0,0.0,0.0,0.0,0.0,0.0,-1.0490000000000002,0.0,0.0,0.0,0.0,0.0,0.0,0.0,0.0,0.0,0.0,-0.816,0.0,0.0,0.0,0.0,0.0,0.0,0.0,0.0,0.0,0.0,0.0,0.0,0.0,0.0,0.0,0.0,0.0,0.0,0.0,0.0,0.0,0.0,0.0,0.0,0.0,0.0,0.0,0.0,0.0,0.0,0.0,-0.7190000000000001,0.0,0.0,0.0,0.0,0.0,-1.044,0.0,-0.532,0.0,0.0,0.0,-0.6409999999999999,0.0,-0.599,0.0,0.0,0.0,0.0,0.0,-0.547,0.0,0.0,0.0,0.0,0.0,0.0,0.0,,,,,,,moveDown
