,00_accX,00_accY,00_accZ,00_gyroX,00_gyroY,00_gyroZ,01_accX,01_accY,01_accZ,01_gyroX,01_gyroY,01_gyroZ,02_accX,02_accY,02_accZ,02_gyroX,02_gyroY,02_gyroZ,03_accX,03_accY,03_accZ,03_gyroX,03_gyroY,03_gyroZ,04_accX,04_accY,04_accZ,04_gyroX,04_gyroY,04_gyroZ,05_accX,05_accY,05_accZ,05_gyroX,05_gyroY,05_gyroZ,06_accX,06_accY,06_accZ,06_gyroX,06_gyroY,06_gyroZ,07_accX,07_accY,07_accZ,07_gyroX,07_gyroY,07_gyroZ,08_accX,08_accY,08_accZ,08_gyroX,08_gyroY,08_gyroZ,09_accX,09_accY,09_accZ,09_gyroX,09_gyroY,09_gyroZ,10_accX,10_accY,10_accZ,10_gyroX,10_gyroY,10_gyroZ,11_accX,11_accY,11_accZ,11_gyroX,11_gyroY,11_gyroZ,12_accX,12_accY,12_accZ,12_gyroX,12_gyroY,12_gyroZ,13_accX,13_accY,13_accZ,13_gyroX,13_gyroY,13_gyroZ,14_accX,14_accY,14_accZ,14_gyroX,14_gyroY,14_gyroZ,15_accX,15_accY,15_accZ,15_gyroX,15_gyroY,15_gyroZ,16_accX,16_accY,16_accZ,16_gyroX,16_gyroY,16_gyroZ,17_accX,17_accY,17_accZ,17_gyroX,17_gyroY,17_gyroZ,18_accX,18_accY,18_accZ,18_gyroX,18_gyroY,18_gyroZ,19_accX,19_accY,19_accZ,19_gyroX,19_gyroY,19_gyroZ,20_accX,20_accY,20_accZ,20_gyroX,20_gyroY,20_gyroZ,21_accX,21_accY,21_accZ,21_gyroX,21_gyroY,21_gyroZ,22_accX,22_accY,22_accZ,22_gyroX,22_gyroY,22_gyroZ,23_accX,23_accY,23_accZ,23_gyroX,23_gyroY,23_gyroZ,24_accX,24_accY,24_accZ,24_gyroX,24_gyroY,24_gyroZ,25_accX,25_accY,25_accZ,25_gyroX,25_gyroY,25_gyroZ,26_accX,26_accY,26_accZ,26_gyroX,26_gyroY,26_gyroZ,27_accX,27_accY,27_accZ,27_gyroX,27_gyroY,27_gyroZ,28_accX,28_accY,28_accZ,28_gyroX,28_gyroY,28_gyroZ,29_accX,29_accY,29_accZ,29_gyroX,29_gyroY,29_gyroZ,30_accX,30_accY,30_accZ,30_gyroX,30_gyroY,30_gyroZ,31_accX,31_accY,31_accZ,31_gyroX,31_gyroY,31_gyroZ,32_accX,32_accY,32_accZ,32_gyroX,32_gyroY,32_gyroZ,33_accX,33_accY,33_accZ,33_gyroX,33_gyroY,33_gyroZ,34_accX,34_accY,34_accZ,34_gyroX,34_gyroY,34_gyroZ,35_accX,35_accY,35_accZ,35_gyroX,35_gyroY,35_gyroZ,36_accX,36_accY,36_accZ,36_gyroX,36_gyroY,36_gyroZ,37_accX,37_accY,37_accZ,37_gyroX,37_gyroY,37_gyroZ,38_accX,38_accY,38_accZ,38_gyroX,38_gyroY,38_gyroZ,39_accX,39_accY,39_accZ,39_gyroX,39_gyroY,39_gyroZ,40_accX,40_accY,40_accZ,40_gyroX,40_gyroY,40_gyroZ,41_accX,41_accY,41_accZ,41_gyroX,41_gyroY,41_gyroZ,42_accX,42_accY,42_accZ,42_gyroX,42_gyroY,42_gyroZ,43_accX,43_accY,43_accZ,43_gyroX,43_gyroY,43_gyroZ,44_accX,44_accY,44_accZ,44_gyroX,44_gyroY,44_gyroZ,45_accX,45_accY,45_accZ,45_gyroX,45_gyroY,45_gyroZ,46_accX,46_accY,46_accZ,46_gyroX,46_gyroY,46_gyroZ,47_accX,47_accY,47_accZ,47_gyroX,47_gyroY,47_gyroZ,48_accX,48_accY,48_accZ,48_gyroX,48_gyroY,48_gyroZ,49_accX,49_accY,49_accZ,49_gyroX,49_gyroY,49_gyroZ,50_accX,50_accY,50_accZ,50_gyroX,50_gyroY,50_gyroZ,51_accX,51_accY,51_accZ,51_gyroX,51_gyroY,51_gyroZ,category
accX,0.0,0.0,0.0,0.0,0.0,0.0,0.0,0.0,0.0,0.0,0.0,0.0,0.0,0.0,0.0,0.0,0.0,0.0,0.0,0.0,0.0,0.0,0.0,0.0,0.0,-0.8803418803418803,-0.6935286935286935,0.0,0.0,0.0,0.0,-0.9914529914529916,-1.3137973137973138,0.0,0.0,0.0,0.0,0.0,-0.8681318681318682,-1.1875,0.5625,0.0,0.5384615384615384,0.0,0.568986568986569,-1.09375,0.0,0.0,0.0,0.6031746031746031,0.8498168498168498,0.0,0.0,0.0,0.6080586080586079,0.0,0.0,0.0,0.0,0.0,0.9572649572649572,0.0,0.0,0.0,0.0,0.0,1.5848595848595848,0.0,0.0,0.0,0.0,0.0,1.7741147741147743,0.0,0.0,0.0,0.0,0.0,2.053724053724053,0.0,0.0,0.0,0.0,0.0,2.3272283272283274,0.0,0.0,0.0,0.0,0.0,3.0329670329670333,0.0,0.0,0.0,0.0,0.0,3.727716727716728,-0.6642246642246642,0.0,0.0,0.0,0.0,4.0818070818070815,-0.9035409035409036,0.0,0.0,0.0,0.0,4.833943833943834,-0.9206349206349206,0.0,0.0,0.0,0.0,4.677655677655678,-0.971916971916972,0.0,0.0,0.0,-0.6875,4.177045177045176,-0.8107448107448108,-0.8058608058608059,0.0,0.0,-0.8125,3.753357753357753,-1.4810744810744811,-2.1245421245421245,0.0,0.0,-0.96875,4.01953601953602,-2.7411477411477403,-1.9133089133089132,0.0,0.0,-1.125,2.9169719169719173,-2.656898656898657,-1.424908424908425,0.0,0.0,-1.15625,1.2820512820512822,-2.1770451770451764,-0.7765567765567766,0.0,0.0,-1.21875,1.3687423687423688,-3.6446886446886446,-0.7203907203907204,0.0,0.59375,-1.40625,2.231990231990232,-4.848595848595847,0.0,0.0,0.0,-1.65625,0.0,-3.5628815628815627,0.8229548229548229,-0.53125,0.0,-1.9375,-2.1721611721611715,-2.183150183150183,0.5738705738705738,0.0,0.0,-2.15625,-3.5726495726495733,-1.5848595848595848,0.0,0.0,0.0,-2.0,-4.323565323565323,-2.305250305250305,0.0,0.0,0.0,-1.78125,-5.073260073260073,-2.3174603174603177,0.0,0.0,-0.75,-1.59375,-6.130647130647131,-1.1807081807081807,0.0,0.0,0.0,-1.375,-5.490842490842492,-1.537240537240537,1.264957264957265,0.0,0.0,-1.28125,-5.014652014652015,-1.531135531135531,1.5054945054945057,0.0,0.0,-1.25,-6.0537240537240535,-0.851037851037851,1.2087912087912087,0.0,0.0,-0.96875,-6.242979242979241,0.0,1.9206349206349207,0.0,0.0,-0.78125,-5.996336996336996,-0.9108669108669109,2.0097680097680097,0.0,0.0,-0.625,-5.570207570207571,-0.9401709401709402,1.6971916971916972,0.0,0.0,0.0,-4.565323565323566,0.0,1.57997557997558,0.0,0.0,0.0,-4.018315018315018,-1.0549450549450552,0.0,0.0,0.0,0.0,,,,,,,,,,,,,,,,,,,,,,,,,,,,,,,,,,,,,,,,,,,,,,,,,,,,,,,,,,,,,,,,,,,movNegX
accX,-0.8424908424908425,-0.5433455433455433,0.0,0.0,0.0,0.0,-1.017094017094017,0.0,-0.9706959706959708,0.0,0.0,0.0,-0.6019536019536019,0.0,0.0,0.0,0.0,0.0,0.0,0.0,0.503052503052503,0.0,0.0,0.0,0.5042735042735043,0.0,0.7289377289377289,0.0,0.0,0.0,0.6336996336996337,-0.9902319902319904,0.0,0.0,0.0,0.0,0.8266178266178266,-1.10989010989011,-1.1892551892551892,-0.90625,0.0,0.0,1.4725274725274726,0.6227106227106227,0.0,-0.71875,0.0,0.0,1.2539682539682542,0.7118437118437119,0.8717948717948718,0.0,0.0,0.0,1.5409035409035412,0.0,-0.6642246642246642,0.0,0.0,0.0,2.0366300366300365,0.0,-1.043956043956044,0.0,0.0,0.0,2.283272283272283,-0.5958485958485958,-1.0915750915750917,0.0,0.0,0.0,3.289377289377289,-0.5396825396825397,0.0,0.0,0.0,0.0,2.5177045177045176,-0.6947496947496947,0.0,0.0,0.0,0.0,2.7606837606837606,-0.6422466422466423,-0.6288156288156288,0.0,0.0,-0.65625,2.8376068376068377,-1.5641025641025639,0.0,0.0,0.0,-0.8125,1.5470085470085468,-1.7924297924297925,-0.9987789987789988,0.0,0.0,-1.0,1.5115995115995116,-2.010989010989011,-1.0134310134310134,0.0,0.0,-1.125,1.8266178266178263,-2.0073260073260077,-0.5323565323565324,0.0,0.0,-1.25,0.0,-0.9951159951159952,-0.6129426129426129,0.0,0.0,-1.375,0.0,-1.4590964590964588,-0.8827838827838828,0.0,0.0,-1.34375,1.010989010989011,-2.4761904761904763,0.0,0.0,0.0,-1.28125,0.0,-2.877899877899878,0.503052503052503,0.0,0.0,-1.34375,-0.5470085470085471,-2.8327228327228333,0.0,0.0,0.0,-1.46875,-1.2783882783882785,-3.667887667887668,-0.7289377289377289,0.0,0.0,-1.59375,-2.954822954822955,-3.8986568986568986,-0.8937728937728938,0.0,-0.53125,-1.8125,-4.854700854700853,-3.208791208791209,0.0,0.0,-0.53125,-1.9375,-5.688644688644688,-1.7411477411477412,0.0,0.0,0.0,-1.8125,-5.199023199023199,-1.85958485958486,-0.6190476190476191,0.0,0.0,-1.65625,-5.614163614163614,-1.9218559218559217,0.0,-0.625,0.0,-1.4375,-7.233211233211232,0.0,1.3504273504273503,-0.53125,0.0,-1.3125,-8.098901098901099,0.0,1.6556776556776556,0.0,0.0,-1.1875,-6.954822954822955,-0.7448107448107448,1.4822954822954824,0.0,0.0,-0.875,-6.768009768009768,-1.1855921855921856,1.4969474969474967,0.0,0.0,-0.5625,-7.04029304029304,-0.5457875457875457,2.340659340659341,-0.5625,0.0,0.0,-7.123321123321122,0.0,1.9853479853479852,0.0,0.0,0.0,-5.7985347985347975,-1.3675213675213675,1.1086691086691087,0.0,0.0,0.0,,,,,,,,,,,,,,,,,,,,,,,,,,,,,,,,,,,,,,,,,,,,,,,,,,,,,,,,,,,,,,,,,,,,,,,,,,,,,,,,,,,,,,,,,,,movNegX
accX,0.8595848595848596,-0.6654456654456654,-0.663003663003663,0.0,0.0,0.0,0.0,0.0,-0.6459096459096461,0.0,0.0,0.0,0.5567765567765568,0.0,0.7704517704517705,0.0,0.0,0.0,0.0,0.0,0.7411477411477412,0.0,0.0,0.0,0.0,0.0,0.0,0.0,0.0,0.0,0.0,0.0,-0.8571428571428571,0.0,0.0,0.0,0.0,0.0,-0.6581196581196581,0.0,0.0,0.0,0.8412698412698413,0.0,0.0,-0.59375,0.0,0.0,0.9511599511599512,0.0,0.0,0.0,0.0,0.0,0.7851037851037851,0.0,0.0,0.0,0.0,0.0,1.0818070818070815,0.0,-0.6434676434676435,0.0,0.0,0.0,1.3943833943833943,0.0,-0.8888888888888888,0.0,0.0,0.0,1.5286935286935286,0.0,-0.9548229548229548,0.0,0.0,0.0,1.4810744810744811,-0.8485958485958486,-0.9377289377289376,0.0,0.0,-0.59375,1.3956043956043955,-0.9633699633699634,-0.7887667887667887,0.0,0.0,-0.84375,0.9438339438339438,-0.7203907203907204,-0.6373626373626373,0.0,0.0,-0.96875,0.0,0.0,-0.9694749694749696,0.0,0.0,-1.03125,0.0,-0.9377289377289376,-1.1343101343101345,0.0,0.0,-1.0625,0.0,-1.3687423687423688,-0.9511599511599512,0.0,0.0,-1.125,-0.6336996336996337,-0.978021978021978,-0.8693528693528694,0.0,0.0,-1.1875,0.0,-1.3223443223443223,-0.5531135531135531,0.0,0.0,-1.1875,0.6312576312576312,-1.8229548229548234,0.0,0.0,0.0,-1.25,0.0,-2.266178266178266,0.0,0.0,0.0,-1.4375,-0.993894993894994,-2.318681318681319,0.0,0.0,0.0,-1.6875,-2.1941391941391943,-2.1684981684981683,-0.6459096459096461,0.0,0.0,-1.71875,-2.33943833943834,-2.7338217338217334,-0.5164835164835165,0.0,0.0,-1.625,-2.323565323565324,-3.0891330891330893,0.0,0.0,0.0,-1.5625,-3.2124542124542126,-2.5506715506715505,0.0,0.0,0.0,-1.625,-4.633699633699634,-1.938949938949939,-0.8852258852258852,0.0,0.0,-1.71875,-4.954822954822955,-1.7179487179487178,-0.503052503052503,0.0,0.0,-1.5625,-4.855921855921856,-1.9304029304029304,0.0,0.0,0.0,-1.40625,-6.13919413919414,-1.5934065934065933,0.5372405372405372,0.0,0.0,-1.3125,-6.631257631257633,-1.6715506715506716,0.0,0.0,0.0,-1.3125,-6.667887667887667,-1.7667887667887667,0.6617826617826618,0.0,0.0,-1.09375,-7.493284493284492,-0.9242979242979243,0.9291819291819292,0.0,0.0,-0.9375,-7.652014652014652,-0.5665445665445665,0.5164835164835165,0.0,0.0,-0.78125,-7.321123321123321,0.0,0.0,0.0,0.0,-0.53125,-6.611721611721611,0.0,0.0,0.0,0.0,0.0,,,,,,,,,,,,,,,,,,,,,,,,,,,,,,,,,,,,,,,,,,,,,,,,,,,,,,,,,,,,,,,,,,,,,,,,,,,,,,,,,,,,,movNegX
accX,-1.0195360195360197,0.0,0.0,0.0,0.0,0.0,0.0,-1.0647130647130647,-0.7008547008547008,0.65625,0.0,0.0,0.0,-0.8400488400488401,-1.4456654456654456,0.0,0.0,0.0,0.0,-0.7728937728937729,-1.9291819291819288,0.0,0.0,0.0,0.7057387057387058,0.0,-0.7020757020757019,-0.53125,0.0,0.0,0.7338217338217338,0.0,0.0,0.0,0.0,0.0,0.8156288156288156,0.0,-0.6996336996336996,0.0,0.0,0.0,1.1074481074481075,0.0,-0.8363858363858364,0.0,0.0,0.0,1.2417582417582418,0.0,-0.6031746031746031,0.0,0.0,0.0,0.8437118437118437,0.0,-0.7484737484737485,0.0,0.0,0.0,1.0891330891330893,0.0,-1.0891330891330893,0.0,0.0,0.0,1.0390720390720392,-0.7081807081807082,-1.2881562881562882,0.0,0.0,-0.5625,0.0,0.0,-1.336996336996337,0.0,0.0,-0.625,0.6434676434676435,0.0,-0.7057387057387058,0.0,0.0,-0.625,1.0537240537240538,-0.5372405372405372,0.0,0.0,0.0,-0.59375,1.1477411477411477,-1.1367521367521367,-0.57997557997558,0.0,0.0,-0.78125,0.5445665445665445,-1.962148962148962,-0.9194139194139194,0.0,0.0,-1.0625,0.7863247863247863,-1.967032967032967,0.0,0.0,0.0,-1.1875,0.6446886446886447,-1.3907203907203909,0.0,0.0,0.0,-1.21875,0.7582417582417582,-2.1562881562881557,0.0,0.0,0.0,-1.25,-0.5946275946275946,-2.518925518925519,-0.7741147741147741,0.0,0.0,-1.53125,-1.9242979242979243,-2.393162393162393,-1.2063492063492065,0.0,0.0,-1.625,-2.1355311355311355,-2.04029304029304,-0.7362637362637363,0.0,0.0,-1.6875,-2.244200244200244,-2.0244200244200243,0.0,0.0,0.0,-1.5625,-3.3565323565323566,-2.4993894993894994,0.0,0.0,0.0,-1.5,-3.4517704517704515,-2.3076923076923075,0.0,0.0,0.0,-1.46875,-4.258852258852259,-2.623931623931624,0.0,0.0,0.0,-1.59375,-5.433455433455434,-2.031746031746032,0.7533577533577533,0.0,0.0,-1.40625,-5.411477411477412,-1.9255189255189256,0.5079365079365079,0.0,0.0,-1.4375,-6.094017094017093,-2.2771672771672766,0.0,0.0,0.0,-1.34375,-7.507936507936507,-1.5238095238095235,0.0,0.0,0.0,-1.15625,-8.581196581196581,-0.8620268620268621,0.0,0.0,0.0,-1.0625,-7.561660561660561,-0.7765567765567766,0.5873015873015873,0.0,0.0,-0.9375,-5.855921855921856,-1.1526251526251523,0.8925518925518926,0.0,0.0,-0.65625,-5.947496947496947,-0.7594627594627594,0.9047619047619048,0.0,0.0,0.0,-6.288156288156288,0.0,0.7655677655677655,0.0,0.0,0.0,,,,,,,,,,,,,,,,,,,,,,,,,,,,,,,,,,,,,,,,,,,,,,,,,,,,,,,,,,,,,,,,,,,,,,,,,,,,,,,,,,,,,,,,,,,,,,,,,movNegX
accX,0.5714285714285714,0.0,0.0,0.0,0.0,0.0,0.0,0.0,0.0,0.0,0.0,0.0,0.0,0.0,-0.525030525030525,0.0,0.0,0.0,0.0,0.0,-0.8473748473748474,-0.78125,0.0,0.0,0.0,0.0,0.0,0.0,0.0,0.0,0.0,0.0,0.0,0.0,0.0,0.0,0.8278388278388278,0.0,0.0,0.0,0.0,0.0,1.3064713064713065,0.0,0.0,0.0,0.0,0.0,1.1892551892551892,0.0,-0.6617826617826618,0.0,0.0,0.0,1.2942612942612943,-0.6520146520146519,0.0,0.0,0.0,0.0,0.7057387057387058,0.0,0.0,0.0,0.0,-0.625,0.0,0.0,-0.6739926739926739,0.0,0.0,-0.625,0.0,0.0,-0.5665445665445665,0.0,0.0,-0.6875,0.0,-0.5763125763125763,-0.7203907203907204,0.0,0.0,-0.75,0.7606837606837606,-0.5982905982905983,0.0,0.0,0.0,-0.8125,0.8827838827838828,-0.9914529914529916,0.0,0.0,0.0,-0.875,0.0,-1.1892551892551892,-0.6507936507936508,0.0,0.0,-1.125,0.0,-1.5457875457875458,0.0,0.0,0.0,-1.25,0.6129426129426129,-0.6996336996336996,0.0,0.0,0.0,-1.15625,0.0,-1.4114774114774116,-0.5262515262515263,0.0,0.0,-1.15625,-1.21978021978022,-1.8632478632478635,-1.2893772893772897,0.0,0.0,-1.40625,-1.5763125763125765,-2.1465201465201464,-1.5506715506715507,0.0,0.0,-1.46875,-1.5225885225885225,-2.4603174603174605,-1.126984126984127,0.0,0.0,-1.375,-2.41025641025641,-1.290598290598291,0.0,0.0,0.0,-1.3125,-3.117216117216117,-1.8547008547008548,-0.7753357753357754,0.0,0.0,-1.34375,-3.617826617826618,-2.503052503052503,-1.376068376068376,0.0,0.0,-1.5,-4.08058608058608,-1.9816849816849815,-1.4945054945054943,0.0,0.0,-1.5,-3.4542124542124544,-2.7338217338217334,-1.0818070818070815,0.0,0.0,-1.5,-4.37973137973138,-3.1672771672771667,-0.7094017094017094,0.0,0.0,-1.53125,-5.188034188034189,-2.4786324786324787,0.0,0.0,0.0,-1.5625,-6.174603174603175,-2.0573870573870567,0.9706959706959708,0.0,0.0,-1.59375,-7.604395604395603,-1.4102564102564104,1.3064713064713065,0.0,0.0,-1.5,-8.9010989010989,-0.6471306471306472,1.4188034188034189,0.0,0.0,-1.28125,-9.305250305250306,0.7338217338217338,1.7008547008547008,0.0,0.0,-0.96875,-9.135531135531137,0.57997557997558,1.2173382173382172,0.0,0.0,-0.625,-7.973137973137972,0.0,1.123321123321123,0.0,0.0,0.0,-6.514041514041513,-1.017094017094017,0.8107448107448108,0.0,0.0,0.0,,,,,,,,,,,,,,,,,,,,,,,,,,,,,,,,,,,,,,,,,,,,,,,,,,,,,,,,,,,,,,,,,,,,,,,,,,,,,,,,,,,,,,,,,,,movNegX
accX,1.7692307692307692,0.0,0.6263736263736264,0.0,0.0,0.0,1.6324786324786325,-0.5824175824175825,0.0,0.0,0.0,0.0,0.5738705738705738,0.0,-0.63003663003663,0.0,0.0,0.0,0.0,0.0,-1.4188034188034189,0.0,0.0,0.0,0.0,0.0,-0.8864468864468864,-0.53125,0.0,0.0,0.0,0.0,-0.5177045177045178,0.0,0.0,0.0,0.0,-0.5616605616605617,-1.4981684981684982,0.0,0.0,0.0,1.0586080586080586,-0.9304029304029304,-1.6764346764346765,0.0,0.0,0.0,1.4969474969474967,-0.6752136752136753,-0.9633699633699634,-0.5625,0.0,0.0,1.1746031746031746,0.0,-0.7289377289377289,0.0,0.0,0.0,0.8241758241758241,0.0,-0.9365079365079364,0.0,0.0,-0.5625,0.8437118437118437,-0.5567765567765568,-0.8168498168498168,0.0,0.0,-0.5625,0.8473748473748474,-0.9084249084249084,-0.5470085470085471,0.0,0.0,-0.65625,0.0,-0.5323565323565324,-0.5177045177045178,0.0,0.0,-0.625,0.0,0.0,0.0,0.0,0.0,-0.75,-0.9108669108669109,0.0,0.0,0.0,0.0,-0.8125,-0.8339438339438342,-0.6153846153846154,0.0,0.0,0.0,-1.0,0.0,-1.1501831501831499,0.0,0.0,0.0,-1.03125,0.0,-0.9914529914529916,0.5567765567765568,0.0,0.0,-1.125,-0.8290598290598291,-0.7667887667887668,0.0,0.0,0.0,-1.125,-1.3833943833943834,-0.6080586080586079,0.0,0.0,0.0,-1.125,-1.1978021978021978,-0.9621489621489622,0.0,0.0,0.0,-1.15625,0.0,-1.2368742368742371,0.0,0.0,0.0,-1.28125,-1.3150183150183148,-1.1965811965811963,-0.7020757020757019,0.0,0.0,-1.40625,-2.051282051282051,-1.5714285714285714,-1.2234432234432235,0.0,0.0,-1.40625,-2.5579975579975582,-1.7655677655677655,-1.3614163614163617,0.0,0.0,-1.28125,-2.4664224664224665,-1.9804639804639803,-1.336996336996337,0.0,0.0,-1.28125,-3.061050061050061,-1.5897435897435896,-1.0366300366300367,0.0,0.0,-1.28125,-3.238095238095238,-1.1074481074481075,0.0,0.0,0.0,-1.1875,-2.793650793650793,-1.1904761904761905,0.0,0.0,0.0,-1.09375,-3.3382173382173383,-1.8852258852258847,0.0,0.0,0.0,-1.09375,-4.478632478632479,-1.7680097680097682,0.0,0.0,0.0,-1.25,-5.844932844932845,-0.9633699633699634,-0.6752136752136753,0.0,0.0,-1.1875,-5.280830280830282,-0.8974358974358975,-0.6275946275946276,0.0,0.0,-0.96875,-5.0317460317460325,-1.1294261294261294,0.0,0.0,0.0,-0.875,-5.976800976800977,-0.6617826617826618,0.0,0.0,0.0,-0.75,-5.661782661782662,0.0,0.6398046398046398,0.0,0.0,-0.65625,,,,,,,,,,,,,,,,,,,,,,,,,,,,,,,,,,,,,,,,,,,,,,,,,,,,,,,,,,,,,,,,,,,,,,,,,,,,,,,,,,,,,,,,,,,movNegX
accX,1.1892551892551892,0.0,0.5164835164835165,0.0,0.0,0.0,0.6654456654456654,0.0,0.0,0.0,0.0,0.0,0.0,0.0,0.0,0.0,0.0,0.0,0.8376068376068376,-0.6910866910866911,0.0,0.0,0.0,0.0,1.0146520146520146,0.0,0.0,0.0,0.0,0.0,0.0,0.0,0.0,0.0,0.0,0.0,1.2417582417582418,0.0,0.0,0.0,0.0,0.0,1.5299145299145298,-1.0244200244200243,-0.9047619047619048,0.0,0.0,0.0,1.3772893772893773,-0.7875457875457875,-0.6642246642246642,0.0,0.0,0.0,1.4273504273504274,-0.7203907203907204,0.0,0.0,0.0,0.0,1.3028083028083028,-0.873015873015873,-0.6178266178266179,0.0,0.0,-0.53125,1.0024420024420024,-0.7533577533577533,-0.7374847374847375,0.0,0.0,-0.59375,0.9926739926739928,-0.7423687423687424,-0.5470085470085471,0.0,0.0,-0.6875,0.6129426129426129,-0.6336996336996337,0.0,0.0,0.0,-0.78125,0.6031746031746031,0.0,0.0,0.0,0.0,-0.8125,0.0,-0.8278388278388278,0.0,0.0,0.0,-1.0,0.0,-0.9548229548229548,-0.6605616605616605,0.0,0.0,-1.21875,-0.6813186813186813,-1.1904761904761905,-0.811965811965812,0.0,0.0,-1.1875,0.0,-1.3174603174603174,-0.6214896214896215,0.0,0.0,-1.1875,-0.5347985347985348,-1.5763125763125765,-0.5714285714285714,0.0,0.0,-1.15625,-0.6886446886446886,-1.9230769230769231,-0.7130647130647131,0.0,0.0,-1.1875,-0.5824175824175825,-2.0354090354090357,-0.5347985347985348,0.0,0.0,-1.3125,-1.5409035409035412,-1.4945054945054943,-0.6166056166056166,0.0,0.0,-1.5,-1.9474969474969477,-1.4175824175824177,-0.5604395604395604,0.0,0.0,-1.4375,-2.305250305250305,-1.8070818070818069,-0.8131868131868132,0.0,0.0,-1.4375,-3.065934065934066,-1.8144078144078144,-0.8632478632478633,0.0,0.0,-1.4375,-2.4615384615384617,-1.1428571428571428,0.0,0.0,0.0,-1.28125,-1.2722832722832722,-1.827838827838828,0.0,0.0,0.0,-1.1875,-2.2210012210012207,-2.070818070818071,0.0,0.0,0.0,-1.25,-4.31990231990232,-1.3516483516483515,0.0,0.0,0.0,-1.375,-4.4212454212454215,-0.7484737484737485,0.0,0.0,0.0,-1.375,-4.4371184371184365,-1.122100122100122,0.0,0.0,0.0,-1.25,-5.150183150183151,-0.5347985347985348,0.0,0.0,0.0,-1.03125,-5.37973137973138,-0.8717948717948718,0.0,0.0,0.0,-1.0,-5.84004884004884,-1.26007326007326,0.0,0.0,0.0,-1.0,-6.587301587301588,-0.8754578754578755,0.0,0.0,0.0,-0.75,-6.554334554334553,-0.8327228327228328,0.0,0.0,0.0,-0.53125,-6.0818070818070815,-0.5262515262515263,0.0,0.0,0.0,0.0,,,,,,,,,,,,,,,,,,,,,,,,,,,,,,,,,,,,,,,,,,,,,,,,,,,,,,,,,,,,,,,,,,,,,,,,,,,,,,,,,,,,,movNegX
accX,1.1306471306471306,0.0,-0.6202686202686203,0.0,0.0,0.0,1.2002442002442002,0.0,0.0,0.0,0.0,0.0,1.7716727716727716,0.0,1.1562881562881564,0.0,0.0,0.0,1.424908424908425,-0.6043956043956044,0.0,0.0,0.0,0.0,0.873015873015873,0.0,-1.0195360195360197,0.0,0.0,0.0,0.0,0.0,-0.8986568986568987,0.0,0.0,0.0,0.5885225885225885,0.0,-1.0598290598290598,0.0,0.0,0.0,0.0,0.0,-0.9242979242979243,-0.65625,0.0,0.0,0.0,0.0,-0.5824175824175825,0.0,0.0,0.0,0.7960927960927959,0.0,0.0,0.0,0.0,0.0,0.7289377289377289,0.0,0.0,0.0,0.0,0.0,1.1868131868131868,-0.6568986568986569,0.0,0.0,0.0,0.0,1.3553113553113554,-1.0158730158730158,-0.5054945054945055,0.0,0.0,-0.5625,0.0,-0.7557997557997558,-0.5921855921855922,0.0,0.0,-0.65625,0.0,0.0,0.0,0.0,0.0,-0.71875,0.0,0.0,0.0,0.0,0.0,-0.875,0.5946275946275946,-1.2942612942612943,0.0,0.0,0.0,-1.0,0.0,-1.3125763125763126,-0.8266178266178266,0.0,0.0,-1.09375,-0.6214896214896215,-0.8058608058608059,-0.7826617826617827,0.0,0.0,-1.125,-0.5604395604395604,-0.6703296703296703,0.0,0.0,0.0,-1.09375,0.0,-1.5323565323565325,0.0,0.0,0.0,-1.15625,0.0,-2.3174603174603177,-0.6593406593406593,0.0,0.0,-1.3125,-0.6263736263736264,-2.0146520146520146,-0.5177045177045178,0.0,0.0,-1.40625,-1.7167277167277166,-1.3846153846153846,-0.6813186813186813,0.0,0.0,-1.5,-0.9706959706959708,-1.0805860805860803,-1.4432234432234432,0.0,0.0,-1.28125,-1.4578754578754578,-1.6971916971916972,-1.3443223443223444,0.0,0.0,-1.28125,-2.1697191697191696,-1.956043956043956,-0.6605616605616605,0.0,0.0,-1.3125,-2.1074481074481075,-2.207570207570208,0.0,0.0,0.65625,-1.40625,-2.6129426129426134,-2.4481074481074483,0.0,0.0,0.53125,-1.4375,-2.7240537240537246,-2.642246642246642,-0.5860805860805861,0.0,0.0,-1.34375,-5.2747252747252755,-1.8376068376068373,-0.9792429792429792,0.0,-0.5625,-1.5,-7.3015873015873005,-0.6520146520146519,-0.8070818070818071,0.0,0.0,-1.4375,-6.958485958485959,-0.9523809523809524,-0.5665445665445665,0.0,0.0,-1.21875,-6.975579975579977,-0.8144078144078144,-0.57997557997558,0.0,0.0,-1.125,-6.736263736263736,0.0,0.0,0.0,0.0,-1.125,-6.142857142857142,-0.7545787545787546,0.0,0.0,0.0,-1.0,-6.214896214896215,-1.188034188034188,0.0,0.0,0.0,-0.75,-6.3406593406593394,-0.9694749694749696,0.0,0.0,0.0,-0.59375,-6.12942612942613,-1.010989010989011,0.63003663003663,0.0,0.0,0.0,-5.859584859584858,-0.7191697191697192,1.0732600732600732,0.0,0.0,0.0,,,,,,,,,,,,,,,,,,,,,,,,,,,,,,,,,,,,,,,,,,,,,,,,,,,,,,,,,,,,,,,,,,,,,,,,,movNegX
accX,0.9804639804639804,0.0,1.0818070818070815,0.5625,0.0,0.0,0.7851037851037851,0.0,0.0,0.6875,-0.53125,0.0,0.0,0.0,-1.656898656898657,0.0,0.0,0.0,0.0,0.0,-1.8058608058608057,0.0,0.0,0.0,0.0,0.0,-0.8852258852258852,0.0,0.0,0.0,0.0,0.0,0.0,0.0,0.0,0.0,0.0,0.0,-0.8205128205128205,0.0,0.0,0.0,0.7301587301587301,0.0,-0.9768009768009768,0.0,0.0,0.0,1.0805860805860803,-0.5445665445665445,-0.6214896214896215,0.0,0.0,0.0,0.9597069597069596,0.0,0.0,0.0,0.0,0.0,0.9242979242979243,0.0,0.0,0.0,0.0,0.0,0.9658119658119658,-0.8559218559218559,-0.7557997557997558,0.0,0.0,0.0,0.0,-0.9694749694749696,-1.1123321123321124,0.0,0.0,-0.5625,0.5909645909645911,-0.9096459096459096,-0.7423687423687424,0.0,0.0,-0.59375,1.043956043956044,-0.6520146520146519,0.0,0.0,0.0,-0.65625,0.0,0.0,0.0,0.0,0.0,-0.75,0.0,-0.9206349206349206,0.0,0.0,0.0,-0.9375,0.0,-1.3247863247863247,0.0,0.0,0.0,-1.125,0.0,-1.010989010989011,0.5445665445665445,0.0,0.0,-1.21875,0.0,-0.8864468864468864,0.0,0.0,0.0,-1.28125,-0.7350427350427351,-1.1843711843711844,0.0,0.0,0.0,-1.25,0.0,-1.8547008547008548,0.0,0.0,0.0,-1.34375,-0.9108669108669109,-1.7777777777777777,0.0,0.0,0.0,-1.53125,-2.0134310134310134,-1.2368742368742371,0.0,0.0,0.0,-1.40625,-1.536019536019536,-1.7448107448107448,-0.5592185592185592,0.0,0.0,-1.4375,-1.468864468864469,-2.537240537240537,-0.9389499389499391,0.0,0.0,-1.5625,-2.426129426129426,-1.4481074481074483,-1.1562881562881564,0.0,0.0,-1.625,-3.507936507936508,-0.5323565323565324,-1.4664224664224663,0.0,0.0,-1.59375,-3.4224664224664223,-1.4810744810744811,-1.4554334554334554,0.0,0.0,-1.5,-4.567765567765568,-1.5836385836385836,-0.6153846153846154,0.0,0.0,-1.34375,-5.523809523809524,-1.2954822954822955,0.0,0.0,0.0,-1.21875,-4.616605616605616,-1.5628815628815629,0.6019536019536019,0.0,0.0,-1.1875,-5.091575091575091,-1.7863247863247864,0.0,0.0,0.0,-1.15625,-5.926739926739928,-1.7448107448107448,0.0,0.0,0.0,-1.1875,-6.313797313797313,-1.7789987789987791,0.0,0.0,0.0,-1.0625,-7.126984126984127,-1.1684981684981686,0.6886446886446886,0.0,0.0,-0.84375,,,,,,,,,,,,,,,,,,,,,,,,,,,,,,,,,,,,,,,,,,,,,,,,,,,,,,,,,,,,,,,,,,,,,,,,,,,,,,,,,,,,,,,,,,,,,,,,,movNegX
accX,1.3394383394383391,0.7057387057387058,0.0,0.53125,0.0,0.0,0.7350427350427351,0.0,-1.105006105006105,0.53125,0.0,0.0,0.0,-0.6459096459096461,-2.84004884004884,0.0,0.0,0.0,0.6800976800976801,-0.8400488400488401,-2.4224664224664223,0.0,0.8125,0.0,1.4114774114774116,0.0,-1.636141636141636,-0.875,0.5625,0.0,1.565323565323565,0.0,0.0,-0.65625,0.0,0.0,1.2796092796092795,0.0,0.0,0.0,0.0,0.0,0.9951159951159952,0.0,0.0,0.0,0.0,0.0,0.6043956043956044,0.0,-0.57997557997558,0.0,0.0,0.0,0.0,0.0,-1.1147741147741148,0.0,0.0,0.0,0.0,0.0,-1.2551892551892552,0.0,0.0,0.0,0.0,0.0,-0.9352869352869352,0.0,0.0,-0.53125,0.9829059829059827,-0.6349206349206349,0.0,0.0,0.0,-0.625,0.0,-0.8144078144078144,0.0,0.0,0.0,-0.8125,-0.503052503052503,-0.5775335775335775,0.0,0.0,0.0,-0.90625,-0.6043956043956044,-0.5726495726495726,0.0,0.0,0.0,-1.0,0.0,-1.115995115995116,0.0,0.0,0.0,-1.03125,-0.7130647130647131,-0.8229548229548229,0.0,0.0,0.0,-1.15625,-0.6703296703296703,-0.6459096459096461,0.0,0.0,0.0,-1.125,-0.8498168498168498,-0.7716727716727717,0.5750915750915749,0.0,0.0,-1.1875,-1.3748473748473748,-0.9633699633699634,0.0,0.0,0.0,-1.1875,-1.9194139194139197,-0.8632478632478633,0.0,0.0,0.0,-1.25,-1.3223443223443223,-1.0183150183150182,-0.6739926739926739,0.0,0.0,-1.21875,-0.9914529914529916,-0.7667887667887668,0.0,0.0,0.0,-1.21875,-1.1672771672771671,-1.15995115995116,0.0,0.0,0.0,-1.125,-2.2295482295482296,-1.205128205128205,-0.8656898656898657,0.0,0.0,-1.1875,-2.263736263736264,-1.3565323565323566,-1.3052503052503053,0.0,0.0,-1.25,-1.9938949938949944,-1.0427350427350428,-0.7594627594627594,0.0,0.0,-1.21875,-1.815628815628816,-1.1978021978021978,0.0,0.0,0.0,-1.0,-2.0818070818070815,-0.8754578754578755,0.0,0.0,0.0,-1.0625,-2.467643467643468,-1.2503052503052503,0.0,0.0,0.0,-1.15625,-3.7326007326007327,-2.1184371184371185,0.0,0.0,0.0,-1.34375,-5.6190476190476195,-1.7973137973137974,-0.6092796092796092,0.0,0.0,-1.375,-6.032967032967032,-1.641025641025641,-0.7777777777777778,0.0,0.0,-1.28125,-6.37973137973138,-0.8559218559218559,-0.5274725274725275,0.0,0.0,-1.125,-6.645909645909647,0.0,0.0,0.0,0.0,-0.90625,-6.039072039072039,0.0,0.0,0.0,0.0,-0.75,-5.527472527472527,0.0,0.7838827838827839,0.0,0.0,-0.5625,,,,,,,,,,,,,,,,,,,,,,,,,,,,,,,,,,,,,,,,,,,,,,,,,,,,,,,,,,,,,,,,,,,,,,,,,,,,,,,,,,,,,movNegX
accX,1.637362637362637,-0.5811965811965812,0.0,0.5625,0.0,0.0,1.5677655677655675,-1.103785103785104,-1.21001221001221,0.0,0.0,0.0,1.1172161172161172,0.0,-1.115995115995116,0.0,0.0,0.0,1.5592185592185592,0.0,0.0,0.0,0.0,0.0,1.3394383394383391,0.0,0.0,0.0,0.0,0.0,0.9902319902319904,0.0,-0.5714285714285714,0.0,0.0,0.0,1.0244200244200243,0.0,0.0,0.0,0.0,0.0,0.971916971916972,0.0,0.0,0.0,0.0,0.0,0.7619047619047619,0.0,0.0,0.0,0.0,0.0,0.8815628815628815,0.0,-0.6446886446886447,0.0,0.0,-0.59375,0.8583638583638583,-0.6410256410256411,-0.503052503052503,0.0,0.0,-0.65625,0.0,-0.6605616605616605,-0.7203907203907204,0.0,0.0,-0.71875,0.0,0.0,-0.7875457875457875,0.0,0.0,-0.84375,0.0,0.0,-0.7020757020757019,0.0,0.0,-0.96875,0.0,-0.7814407814407814,0.0,0.0,0.0,-1.0,0.0,-0.9816849816849816,0.0,0.0,0.0,-1.15625,-0.7533577533577533,-0.9169719169719168,0.0,0.0,0.0,-1.25,-0.993894993894994,-0.9865689865689866,-0.5763125763125763,0.0,0.0,-1.25,-1.238095238095238,0.0,0.0,0.0,0.0,-1.1875,-1.4981684981684982,0.0,0.0,0.0,0.0,-1.03125,0.0,-1.3235653235653235,0.0,0.0,0.0,-1.03125,0.0,-2.664224664224664,-0.8998778998778999,0.0,0.0,-1.25,-1.4725274725274726,-2.5128205128205128,-1.1684981684981686,0.0,0.0,-1.34375,-2.9853479853479854,-1.3418803418803418,-0.63003663003663,0.0,0.0,-1.34375,-2.0586080586080584,-1.358974358974359,0.0,0.0,0.0,-1.21875,-0.6495726495726496,-2.687423687423687,0.5128205128205128,0.0,0.0,-1.25,-1.442002442002442,-3.0488400488400487,0.0,0.0,-0.5625,-1.5,-4.716727716727717,-1.761904761904762,-0.7167277167277167,0.0,0.0,-1.625,-5.362637362637362,-0.7374847374847375,-0.9755799755799756,0.0,0.0,-1.5,-3.6239316239316235,-1.8253968253968251,0.0,0.0,0.0,-1.34375,-3.3650793650793656,-2.6349206349206344,0.0,0.0,0.0,-1.4375,-5.599511599511598,-0.8449328449328449,0.6532356532356532,0.0,0.0,-1.4375,-7.084249084249084,0.0,0.0,0.0,0.0,-1.25,-8.377289377289378,0.0,0.0,0.0,0.0,-1.03125,-8.770451770451771,1.4603174603174602,0.0,0.0,0.0,-0.6875,-7.562881562881563,0.9377289377289376,0.0,0.0,0.0,0.0,-6.827838827838828,0.0,0.7301587301587301,0.0,0.0,0.0,,,,,,,,,,,,,,,,,,,,,,,,,,,,,,,,,,,,,,,,,,,,,,,,,,,,,,,,,,,,,,,,,,,,,,,,,,,,,,,,,,,,,,,,,,,movNegX
accX,1.8229548229548234,0.0,0.0,0.0,0.0,0.0,1.78021978021978,0.0,0.0,0.53125,0.0,0.0,2.3846153846153846,-1.105006105006105,-1.5470085470085468,0.0,0.0,0.0,0.5763125763125763,0.0,-1.0231990231990231,0.0,0.0,0.0,0.8925518925518926,0.0,-0.5909645909645911,0.0,0.0,0.0,1.1367521367521367,0.0,0.0,0.0,0.0,0.0,1.1672771672771671,0.0,0.0,0.0,0.0,0.0,1.094017094017094,-0.5396825396825397,-0.6007326007326007,0.0,0.0,0.0,0.8742368742368742,0.0,0.0,0.0,0.0,-0.53125,0.0,0.0,-0.6727716727716728,0.0,0.0,-0.5625,0.0,-0.5738705738705738,-0.9377289377289376,0.0,0.0,-0.625,0.8009768009768009,-1.1196581196581197,-0.9010989010989012,0.0,0.0,-0.71875,0.6947496947496947,-0.9438339438339438,-0.5811965811965812,0.0,0.0,-0.8125,0.0,0.0,0.0,0.0,0.0,-0.96875,-1.0866910866910866,0.0,-0.8205128205128205,0.0,0.0,-1.03125,-0.5934065934065934,-0.7094017094017094,-0.9401709401709402,0.0,0.0,-0.875,0.0,-1.4395604395604396,0.0,0.0,0.0,-1.0,0.0,-1.3443223443223444,0.0,0.0,0.0,-1.15625,0.0,-1.3272283272283272,0.0,0.0,0.0,-1.25,-1.0244200244200243,-1.0085470085470083,0.0,0.0,0.0,-1.3125,-1.462759462759463,-0.8021978021978022,0.0,0.0,0.0,-1.25,-0.7521367521367521,-0.9658119658119658,0.0,0.0,0.0,-1.15625,-1.0256410256410255,-1.85958485958486,-0.6642246642246642,0.0,0.0,-1.1875,-3.1709401709401708,-1.617826617826618,-1.5396825396825398,0.0,0.0,-1.375,-3.42002442002442,-1.9230769230769231,-1.413919413919414,0.0,0.0,-1.375,-1.8253968253968251,-2.4444444444444446,-0.5201465201465202,0.0,0.0,-1.40625,-1.7484737484737485,-2.2466422466422467,0.5335775335775336,0.0,-0.53125,-1.46875,-4.395604395604397,-1.5323565323565325,0.9328449328449328,0.0,-0.53125,-1.5625,-5.935286935286936,-1.5323565323565325,0.0,0.0,0.0,-1.625,-5.733821733821733,-1.735042735042735,0.0,0.0,0.0,-1.65625,-5.7264957264957275,-1.2039072039072038,0.6471306471306472,0.0,0.0,-1.46875,-6.559218559218558,0.0,0.5103785103785103,0.0,0.0,-1.28125,-6.888888888888888,-1.2698412698412698,-0.5738705738705738,0.0,0.0,-1.15625,-6.95970695970696,-2.1355311355311355,-0.9877899877899878,0.0,0.0,-1.03125,-6.981684981684983,-1.4297924297924298,-0.6105006105006106,0.0,0.0,-0.875,-6.384615384615384,-0.7777777777777778,0.0,0.0,0.0,-0.6875,-6.479853479853481,-0.7509157509157509,0.8302808302808303,0.0,0.0,-0.5625,,,,,,,,,,,,,,,,,,,,,,,,,,,,,,,,,,,,,,,,,,,,,,,,,,,,,,,,,,,,,,,,,,,,,,,,,,,,,,,,,,,,,,,,,,,movNegX
accX,0.934065934065934,0.0,0.0,0.59375,0.0,0.0,0.6153846153846154,0.0,-0.7936507936507936,0.625,0.0,0.0,0.9694749694749696,-0.9829059829059827,-1.2954822954822955,0.0,0.0,0.0,0.6703296703296703,-0.8705738705738706,-1.9291819291819288,-0.5625,0.0,0.0,0.7032967032967034,0.0,0.0,-0.53125,0.0,0.0,0.0,0.0,0.0,0.0,0.0,0.0,0.0,0.0,-0.6837606837606838,0.0,0.0,0.0,0.0,0.0,-0.9133089133089132,0.0,0.0,0.0,0.0,0.0,-0.8742368742368742,0.0,0.0,0.0,0.0,0.0,-0.912087912087912,0.0,0.0,0.0,0.0,0.0,-0.9633699633699634,0.0,0.0,0.0,0.525030525030525,-0.7155067155067155,-0.9023199023199024,0.0,0.0,-0.5625,0.6495726495726496,-0.9365079365079364,-0.934065934065934,0.0,0.0,-0.59375,0.0,0.0,-0.7643467643467643,0.0,0.0,-0.65625,0.0,-0.5384615384615384,-0.7509157509157509,0.0,0.0,-0.6875,0.0,-0.7802197802197802,-0.6691086691086691,0.0,0.0,-0.78125,-0.706959706959707,0.0,-0.5921855921855922,0.0,0.0,-0.84375,-0.7680097680097681,0.0,0.0,0.0,0.0,-0.78125,0.0,-0.7887667887667887,0.0,0.0,0.0,-0.90625,-1.05006105006105,-0.6898656898656899,0.0,0.0,0.0,-0.9375,-1.1123321123321124,0.0,0.0,0.0,0.0,-1.03125,-0.7032967032967034,-1.0305250305250304,0.0,0.0,0.0,-1.15625,-0.8009768009768009,-1.0451770451770452,0.0,0.0,0.0,-1.09375,-0.7985347985347986,-0.6654456654456654,0.0,0.0,0.0,-1.125,-1.7594627594627594,-1.242979242979243,-0.7753357753357754,0.0,0.0,-1.25,-2.94993894993895,-0.6092796092796092,-1.0244200244200243,0.0,0.0,-1.28125,-2.358974358974359,-0.5457875457875457,-0.63003663003663,0.0,0.0,-1.15625,0.0,-2.145299145299145,0.0,0.0,0.0,-1.0,-0.5921855921855922,-2.0366300366300365,0.0,0.0,0.0,-1.0625,-3.9438339438339436,0.0,0.0,0.0,0.0,-1.3125,-4.207570207570208,0.0,0.663003663003663,0.0,0.0,-1.3125,-3.7008547008547015,-0.7924297924297924,0.0,0.59375,0.0,-1.28125,-4.225885225885226,-1.531135531135531,0.0,0.0,0.0,-1.21875,-4.4664224664224665,-1.8473748473748477,-0.7081807081807082,0.0,0.0,-1.21875,-4.921855921855922,-1.5470085470085468,0.0,0.0,0.0,-1.25,-5.586080586080586,-1.3492063492063493,-0.6593406593406593,0.0,0.0,-1.15625,-6.818070818070817,-1.6507936507936507,-1.1831501831501832,0.0,0.0,-1.0625,-7.0366300366300365,-1.5409035409035412,-1.4175824175824177,0.0,0.0,-0.90625,-6.721611721611723,-0.811965811965812,0.0,0.0,0.0,-0.8125,-6.384615384615384,0.0,0.5299145299145299,0.0,0.0,-0.5625,,,,,,,,,,,,,,,,,,,,,,,,,,,,,,,,,,,,,,,,,,,,,,,,,,,,,,,,,,,,,,,,,,,,,,,,,movNegX
accX,2.0793650793650795,0.0,0.5372405372405372,0.0,0.0,0.59375,2.025641025641025,0.0,0.6739926739926739,0.0,0.0,0.0,2.2979242979242978,-0.9487179487179488,0.0,0.0,0.0,0.0,1.8632478632478635,0.0,0.0,0.0,0.0,0.0,1.6971916971916972,0.0,1.1611721611721613,0.0,0.0,0.0,0.978021978021978,0.0,0.0,0.0,0.0,0.0,1.006105006105006,-0.5213675213675214,-0.5567765567765568,0.0,0.0,0.0,0.0,0.0,-0.6849816849816851,0.0,0.0,0.0,0.0,0.0,0.0,0.0,0.0,0.0,0.0,0.0,-0.6605616605616605,0.0,0.0,0.0,0.0,0.0,-1.2454212454212454,0.0,0.0,0.0,0.8192918192918193,0.0,-1.0488400488400489,0.0,0.0,0.0,1.5189255189255189,0.0,0.0,0.0,0.0,0.0,1.1636141636141637,0.0,0.0,0.0,0.0,0.0,0.5665445665445665,0.0,-0.7081807081807082,0.0,0.0,-0.59375,0.8168498168498168,-0.6593406593406593,-0.7545787545787546,0.0,0.0,-0.625,0.8034188034188035,-0.9584859584859584,-0.6190476190476191,0.0,0.0,-0.75,0.0,-0.6739926739926739,-0.7814407814407814,0.0,0.0,-0.8125,0.0,0.0,-0.7875457875457875,0.0,0.0,-0.84375,0.0,-0.6080586080586079,-0.6923076923076923,0.0,0.0,-0.90625,0.5067155067155067,-1.2466422466422469,0.0,0.0,0.0,-1.0,-0.7179487179487181,-1.1782661782661783,-0.8669108669108669,0.0,0.0,-1.0,-0.9145299145299144,-1.021978021978022,-1.0525030525030523,0.0,0.0,-1.03125,0.0,-1.188034188034188,-0.8144078144078144,0.0,0.53125,-1.09375,0.0,-1.5848595848595848,0.0,0.0,0.0,-1.15625,-0.7533577533577533,-1.733821733821734,0.0,0.0,0.0,-1.28125,-0.8571428571428571,-1.326007326007326,0.0,0.0,0.0,-1.28125,-0.7252747252747253,-1.7936507936507935,0.0,0.0,0.0,-1.375,-1.982905982905983,-1.5445665445665446,0.0,0.0,0.0,-1.34375,-2.868131868131868,-1.586080586080586,0.0,0.0,0.0,-1.3125,-2.2869352869352872,-1.68009768009768,0.0,0.0,0.0,-1.375,-2.2063492063492065,-1.619047619047619,0.0,0.0,0.0,-1.375,-3.975579975579976,-1.0305250305250304,0.0,0.0,0.0,-1.375,-5.717948717948718,0.0,0.0,0.0,0.0,-1.34375,-5.260073260073259,0.0,0.0,0.0,0.0,-1.3125,-5.869352869352869,0.0,0.0,0.0,0.0,-1.125,-6.196581196581197,0.0,0.0,0.0,0.0,-0.90625,-6.0647130647130645,-1.26007326007326,-0.7020757020757019,0.0,0.0,-0.875,-6.615384615384616,0.0,-0.9206349206349206,0.0,0.0,-0.71875,-5.682539682539683,0.0,-1.1892551892551892,0.0,0.0,-0.53125,-5.625152625152626,-0.6691086691086691,-1.115995115995116,0.0,0.0,0.0,-6.148962148962148,-1.3394383394383391,-1.0195360195360197,0.0,0.0,0.0,,,,,,,,,,,,,,,,,,,,,,,,,,,,,,,,,,,,,,,,,,,,,,,,,,,,,,,,,,,,,movNegX
accX,0.6446886446886447,0.0,0.0,0.0,0.0,0.0,0.0,0.0,0.0,0.0,0.0,0.0,0.8681318681318682,0.0,0.0,0.0,0.0,0.0,0.663003663003663,-0.6251526251526252,-0.8205128205128205,0.0,0.0,0.0,0.6080586080586079,-0.5006105006105006,-1.1892551892551892,0.0,0.0,0.0,0.7448107448107448,0.0,0.0,0.0,0.0,0.0,0.5323565323565324,0.0,0.0,0.0,0.0,0.0,0.5335775335775336,-0.5494505494505495,-0.9487179487179488,0.0,0.0,0.0,1.0647130647130647,0.0,0.0,0.0,0.0,0.0,1.2344322344322345,-0.5726495726495726,0.0,0.0,0.0,-0.59375,0.5641025641025641,0.0,0.0,0.0,0.0,-0.6875,0.0,0.0,-0.7777777777777778,0.0,0.0,-0.75,0.0,0.0,-0.6727716727716728,0.0,0.0,-0.84375,0.0,0.0,0.0,0.0,0.0,-0.84375,0.0,0.0,0.0,0.0,0.0,-0.90625,0.0,-0.503052503052503,0.0,0.0,0.0,-0.90625,0.0,0.0,0.0,0.0,0.0,-0.96875,-0.5873015873015873,0.0,0.0,0.0,0.0,-1.09375,-1.5775335775335777,0.0,-0.7655677655677655,0.0,0.0,-1.0625,-1.4224664224664223,-1.1306471306471306,-0.9658119658119658,0.0,0.625,-0.875,0.0,-1.31013431013431,0.0,0.0,0.71875,-0.90625,-0.5848595848595849,-1.661782661782662,0.0,0.0,0.0,-0.96875,-1.5897435897435896,-1.565323565323565,-0.5067155067155067,0.0,0.0,-1.09375,-1.2124542124542124,-2.0427350427350426,0.0,0.0,0.0,-1.125,-1.0451770451770452,-1.9230769230769231,0.0,0.0,0.0,-1.125,-0.5873015873015873,-1.9768009768009769,0.0,0.0,0.0,-1.09375,-1.809523809523809,-1.7851037851037852,0.0,0.0,0.0,-1.25,-3.324786324786325,-1.195360195360195,-1.0146520146520146,0.0,0.0,-1.34375,-3.4481074481074483,-0.9450549450549449,-1.2857142857142858,0.0,0.0,-1.3125,-3.415140415140415,0.0,-1.5628815628815629,0.0,0.0,-1.21875,-4.3296703296703285,0.0,-1.0744810744810744,0.0,0.0,-1.09375,-4.63980463980464,-0.7203907203907204,-0.6202686202686203,0.0,0.0,-1.21875,-5.5115995115995124,-1.9365079365079363,-0.851037851037851,0.0,0.0,-1.3125,-5.987789987789987,-1.968253968253968,0.0,0.0,0.0,-1.28125,-6.2173382173382175,-1.413919413919414,0.5873015873015873,0.0,0.0,-1.09375,-6.435897435897436,0.0,1.3931623931623929,0.0,0.0,-0.84375,-6.357753357753358,0.0,1.1001221001221002,0.0,0.0,-0.59375,-6.126984126984127,-0.6544566544566545,0.0,0.0,0.0,0.0,,,,,,,,,,,,,,,,,,,,,,,,,,,,,,,,,,,,,,,,,,,,,,,,,,,,,,,,,,,,,,,,,,,,,,,,,,,,,,,,,,,,,movNegX
accX,1.7643467643467643,-0.5555555555555556,-1.7130647130647132,0.0,0.0,0.0,2.5042735042735043,0.0,0.0,0.0,0.0,0.0,2.649572649572649,0.0,0.0,0.0,0.0,0.0,0.9438339438339438,0.0,0.0,0.0,0.0,0.0,0.0,0.0,-0.7179487179487181,0.0,0.0,0.0,0.0,0.0,-0.6923076923076923,0.0,0.0,0.0,0.6336996336996337,0.0,0.0,0.0,0.0,0.0,0.811965811965812,0.0,0.0,0.0,0.0,0.0,0.0,0.0,0.0,0.0,0.0,0.0,0.0,0.0,-0.73992673992674,0.0,0.0,0.0,0.0,0.0,-0.8058608058608059,0.0,0.0,0.0,0.0,0.0,0.0,0.0,0.0,0.0,0.0,0.0,-0.6092796092796092,0.0,0.0,0.0,0.0,0.0,-0.6849816849816851,0.0,0.0,-0.53125,0.0,0.0,-0.6288156288156288,0.0,0.0,-0.53125,0.7594627594627594,-0.6190476190476191,0.0,0.0,0.0,-0.625,0.0,0.0,0.0,0.0,0.0,-0.75,0.0,-0.6556776556776557,-0.6764346764346765,0.0,0.0,-0.8125,0.0,-0.9023199023199024,0.0,0.0,0.0,-0.84375,0.0,-0.8827838827838828,0.0,0.0,0.0,-0.96875,0.0,-0.5531135531135531,0.0,0.0,0.0,-1.0,0.0,-0.5531135531135531,0.0,0.0,0.0,-1.0625,0.0,-0.6398046398046398,0.0,0.0,0.0,-1.0625,-0.8888888888888888,-1.0952380952380951,-0.706959706959707,0.0,0.0,-1.03125,-0.7680097680097681,-1.1111111111111112,-0.6568986568986569,0.0,0.0,-1.0625,-0.9963369963369964,-0.6703296703296703,0.0,0.0,0.0,-1.15625,-1.4957264957264955,-0.851037851037851,0.0,0.0,0.0,-1.125,-1.7448107448107448,-1.2026862026862026,-0.6153846153846154,0.0,0.0,-1.09375,-0.9047619047619048,-1.8034188034188037,0.0,0.0,0.0,-1.21875,-1.8901098901098898,-1.9304029304029304,0.0,0.0,0.0,-1.1875,-3.8571428571428568,-0.8217338217338217,0.0,0.0,0.0,-1.25,-1.2442002442002442,-1.1404151404151404,0.0,0.53125,0.0,-1.1875,-0.5555555555555556,-1.7032967032967032,0.0,0.0,0.0,-1.40625,-4.301587301587301,-1.137973137973138,-0.9829059829059827,0.0,-0.5625,-1.625,-6.719169719169719,0.0,-2.023199023199023,0.0,0.0,-1.5625,-7.16971916971917,0.0,-2.398046398046398,0.0,0.0,-1.34375,-6.37973137973138,-0.8717948717948718,-1.868131868131868,0.0,0.0,-1.09375,-5.2905982905982905,-1.10989010989011,-0.9609279609279608,0.0,0.0,-0.875,-4.481074481074482,-1.0891330891330893,0.0,0.0,0.0,-0.75,-5.0317460317460325,-0.7948717948717948,0.6227106227106227,0.0,0.0,-0.71875,-5.673992673992674,-0.6910866910866911,0.525030525030525,0.0,0.0,-0.59375,-6.024420024420023,-0.6959706959706959,0.0,0.0,0.0,0.0,-5.865689865689865,0.0,0.0,0.0,0.0,0.0,,,,,,,,,,,,,,,,,,,,,,,,,,,,,,,,,,,,,,,,,,,,,,,,,,,,,,,movNegX
accX,0.8095238095238095,0.0,-0.7887667887667887,0.0,0.0,0.0,0.8998778998778999,0.0,0.0,0.0,0.0,0.0,0.9987789987789988,0.0,0.7777777777777778,0.0,0.0,0.0,0.0,0.0,0.0,0.0,0.0,0.0,0.0,0.0,0.0,0.0,0.0,0.0,0.0,0.0,-0.7484737484737485,0.0,0.0,0.0,0.0,0.0,-0.7313797313797313,0.0,0.0,0.0,0.0,0.0,0.0,0.0,0.0,0.0,0.8534798534798534,0.0,0.0,0.0,0.0,0.0,1.2344322344322345,-0.6153846153846154,-0.5921855921855922,0.0,0.0,0.0,1.3357753357753357,0.0,-0.7289377289377289,0.0,0.0,0.0,1.4542124542124542,0.0,-0.6886446886446886,0.0,0.0,0.0,0.63003663003663,0.0,-1.0683760683760684,0.0,0.0,0.0,0.0,0.0,-1.0854700854700854,0.0,0.0,-0.53125,0.6910866910866911,-0.9072039072039072,-0.8717948717948718,0.0,0.0,-0.625,0.7191697191697192,-1.0231990231990231,-0.5421245421245421,0.0,0.0,-0.75,0.0,-0.6324786324786325,0.0,0.0,0.0,-0.84375,0.0,-0.8388278388278388,0.0,0.0,0.0,-0.875,0.6910866910866911,-1.4407814407814408,0.0,0.0,0.0,-1.0,-0.5921855921855922,-1.1831501831501832,0.0,0.0,0.0,-1.09375,0.0,-0.9694749694749696,0.0,0.0,0.65625,-1.0625,1.0525030525030523,-1.1001221001221002,0.9169719169719168,0.0,0.0,-1.125,-0.8339438339438342,-0.8608058608058609,0.0,0.0,0.0,-1.1875,-2.5824175824175826,-1.2112332112332111,-1.3064713064713065,0.0,0.0,-1.1875,-2.0,-1.945054945054945,-1.619047619047619,0.0,0.0,-1.1875,-1.0366300366300367,-2.3089133089133087,-0.7106227106227107,0.0,0.0,-1.15625,-1.6153846153846154,-2.0012210012210008,0.0,0.0,0.0,-1.25,-2.7313797313797314,-1.4102564102564104,0.0,0.0,0.0,-1.3125,-3.045177045177045,-1.6654456654456655,0.0,0.0,0.0,-1.34375,-3.844932844932845,-1.3931623931623929,0.5836385836385837,0.0,0.0,-1.375,-4.931623931623932,0.0,0.9658119658119658,0.0,0.0,-1.3125,-4.797313797313797,0.0,0.0,0.0,0.0,-1.09375,-4.328449328449328,-1.4505494505494505,-1.1807081807081807,0.0,0.0,-0.90625,-4.654456654456656,-1.6349206349206349,-1.1404151404151404,0.0,0.0,-0.96875,-4.42979242979243,-1.0744810744810744,0.0,0.0,0.0,-1.03125,-4.4212454212454215,-0.9743589743589745,0.0,0.0,0.0,-1.03125,-5.678876678876679,-1.2991452991452992,-0.5067155067155067,0.0,0.0,-0.78125,-6.727716727716727,-2.0854700854700856,-1.3699633699633702,0.0,0.0,-0.625,,,,,,,,,,,,,,,,,,,,,,,,,,,,,,,,,,,,,,,,,,,,,,,,,,,,,,,,,,,,,,,,,,,,,,,,,,,,,,,,,,,,,movNegX
accX,2.9682539682539684,0.0,0.0,0.0,0.0,0.0,3.695970695970696,0.0,0.9987789987789988,0.5625,0.0,0.0,2.2551892551892547,0.0,0.0,0.53125,0.0,0.0,0.0,0.0,-1.271062271062271,0.0,0.0,0.0,0.0,0.0,-1.4542124542124542,0.0,0.0,0.0,0.9096459096459096,0.0,0.0,0.0,0.0,0.0,0.0,0.0,0.0,0.0,0.0,0.0,0.0,0.0,0.0,0.0,0.0,0.0,0.0,0.0,0.0,0.0,0.0,0.0,0.0,0.0,0.0,0.0,0.0,0.0,0.0,0.0,0.0,0.0,0.0,0.0,0.0,0.0,0.0,0.0,0.0,0.0,0.7619047619047619,0.0,-0.6520146520146519,0.0,0.0,0.0,0.9450549450549449,-0.6654456654456654,-0.6947496947496947,0.0,0.0,0.0,0.0,0.0,-0.706959706959707,0.0,0.0,-0.625,0.0,0.0,-0.9401709401709402,0.0,0.0,0.0,0.7765567765567766,-0.8144078144078144,-1.0244200244200243,0.0,0.0,-0.5625,0.0,0.0,-0.7130647130647131,0.0,0.0,-0.6875,0.0,0.0,0.0,0.0,0.0,-0.78125,0.0,-0.6849816849816851,0.0,0.0,0.0,-0.78125,0.0,-0.8888888888888888,0.0,0.0,0.0,-0.84375,0.0,-0.6483516483516484,0.0,0.0,0.0,-0.90625,-1.1526251526251523,0.0,0.0,0.0,0.0,-0.96875,-1.4725274725274726,0.0,0.0,0.0,0.0,-0.90625,0.0,-0.9926739926739928,0.0,0.0,0.0,-0.8125,1.1111111111111112,-1.989010989010989,0.0,0.0,0.0,-0.84375,0.8351648351648352,-2.05982905982906,0.5152625152625152,0.0,0.0,-0.96875,-1.0879120879120878,-1.195360195360195,0.0,0.0,0.0,-1.03125,-2.7997557997558,-0.5164835164835165,-0.7289377289377289,0.0,0.0,-1.09375,-2.1868131868131866,-1.8656898656898655,-1.2686202686202686,0.0,0.0,-1.03125,0.0,-2.7423687423687424,0.0,0.0,0.5625,-1.0625,0.0,-2.2234432234432235,0.0,0.0,0.0,-1.15625,-3.505494505494505,-0.8217338217338217,0.0,0.0,0.0,-1.34375,-4.551892551892552,0.0,0.0,0.0,0.0,-1.21875,-3.681318681318681,-1.5384615384615383,-0.5238095238095238,0.0,0.0,-1.21875,-3.216117216117216,-2.0842490842490844,0.0,0.0,0.0,-1.1875,-4.78021978021978,-0.5311355311355311,0.0,0.0,0.0,-1.375,-5.6813186813186825,0.0,0.0,0.0,0.0,-1.34375,-5.424908424908424,-0.9877899877899878,0.0,0.0,0.0,-1.1875,-6.31013431013431,-0.8986568986568987,-0.8498168498168498,0.0,0.0,-0.96875,-6.935286935286936,0.0,-1.2075702075702075,0.0,0.0,-0.75,-6.271062271062272,0.0,-0.8827838827838828,0.0,0.0,-0.59375,-5.727716727716727,-0.8266178266178266,0.0,0.0,0.0,-0.53125,-5.735042735042735,-1.0195360195360197,0.0,0.0,0.0,0.0,-5.91941391941392,-0.8815628815628815,0.0,0.0,0.0,0.0,,,,,,,,,,,,,,,,,,,,,,,,,,,,,,,,,,,,,,,,,,,movNegX
accX,1.0891330891330893,0.0,0.0,0.53125,0.0,0.0,1.3687423687423688,0.0,0.0,0.0,0.0,0.0,1.3858363858363858,0.0,0.0,0.0,0.0,0.0,0.8998778998778999,0.0,0.0,0.0,0.0,0.0,0.0,-0.7338217338217338,-1.4481074481074483,0.0,0.0,0.0,0.0,0.0,-1.2954822954822955,-0.5625,0.0,0.0,0.6117216117216118,0.0,0.0,0.0,0.0,0.0,0.5201465201465202,0.0,0.0,0.0,0.0,0.0,0.0,0.0,-0.9755799755799756,0.0,0.0,0.0,0.0,0.0,-1.4993894993894994,0.0,0.0,0.0,0.5885225885225885,0.0,-0.6776556776556777,0.0,0.0,0.0,0.5054945054945055,0.0,0.0,0.0,0.0,0.0,0.0,0.0,-0.7301587301587301,0.0,0.0,0.0,0.6996336996336996,-0.6752136752136753,-0.9230769230769232,0.0,0.0,0.0,0.5262515262515263,-0.5775335775335775,-0.6568986568986569,0.0,0.0,-0.625,0.0,0.0,0.0,0.0,0.0,-0.6875,0.0,0.0,0.0,0.0,0.0,-0.75,0.0,0.0,0.0,0.0,0.0,-0.78125,0.0,-0.5103785103785103,-0.5506715506715507,0.0,0.0,-0.90625,-0.8522588522588522,-0.6117216117216118,-0.6129426129426129,0.0,0.0,-0.9375,-0.5238095238095238,-0.7411477411477412,0.0,0.0,0.0,-0.96875,-0.8998778998778999,-0.7228327228327228,0.0,0.0,0.0,-0.96875,-1.5409035409035412,-0.5653235653235653,0.0,0.0,0.0,-0.96875,-1.1477411477411477,-1.0488400488400489,0.0,0.0,0.0,-1.0,-0.7264957264957265,-0.9645909645909646,0.0,0.0,0.0,-1.03125,0.0,-0.9914529914529916,0.0,0.0,0.0,-0.96875,-1.5262515262515262,-1.3833943833943834,0.0,0.0,0.0,-1.125,-2.0793650793650795,-0.8778998778998779,0.0,0.0,0.0,-1.15625,-1.2454212454212454,-1.0402930402930404,0.0,0.0,0.0,-1.03125,-0.8046398046398047,-1.9523809523809523,0.0,0.0,0.0,-1.0,-2.3369963369963367,-1.7545787545787546,-0.8522588522588522,0.0,0.0,-1.25,-2.9621489621489623,-0.9706959706959708,-0.5982905982905983,0.0,0.0,-1.34375,-2.600732600732601,-0.8241758241758241,0.0,0.0,0.0,-1.28125,-1.9731379731379728,-0.7936507936507936,0.0,0.0,0.0,-1.25,-3.2625152625152625,-0.8608058608058609,0.0,0.0,0.0,-1.3125,-4.575091575091576,-0.7667887667887668,0.0,0.0,0.0,-1.25,-4.941391941391942,-0.6019536019536019,0.0,0.0,0.0,-1.09375,-5.627594627594628,0.0,0.0,0.0,0.0,-1.0625,-6.015873015873016,-0.8144078144078144,-1.0598290598290598,0.0,0.0,-0.9375,-5.846153846153847,-1.6141636141636142,-1.8180708180708183,0.0,0.0,-0.8125,-5.565323565323565,-1.343101343101343,-1.6691086691086692,0.0,0.0,-0.625,-4.64957264957265,-1.051282051282051,-0.8241758241758241,0.0,0.0,-0.53125,-4.365079365079366,-0.5665445665445665,0.0,0.0,0.0,0.0,-4.905982905982906,-0.5970695970695971,0.0,0.0,0.0,0.0,-4.511599511599512,-0.8498168498168498,0.0,0.0,0.0,0.0,,,,,,,,,,,,,,,,,,,,,,,,,,,,,,,,,,,,,,,,,,,movNegX
accX,1.5238095238095235,0.0,0.0,0.0,0.0,0.0,1.0549450549450552,0.0,0.0,0.0,0.0,0.0,0.8278388278388278,0.0,0.6752136752136753,0.0,0.0,0.0,0.0,0.0,0.0,0.0,0.0,0.0,0.0,0.0,-0.5726495726495726,0.0,0.0,0.0,0.6410256410256411,0.0,0.0,0.0,0.0,0.0,1.0647130647130647,0.0,0.0,0.0,0.0,0.0,0.0,0.0,0.0,0.0,0.0,0.0,0.0,0.0,-0.7155067155067155,0.0,0.0,0.0,0.0,0.0,-0.7203907203907204,0.0,0.0,0.0,0.5006105006105006,0.0,-0.5433455433455433,0.0,0.0,0.0,0.6849816849816851,0.0,0.0,0.0,0.0,0.0,0.5848595848595849,0.0,0.0,0.0,0.0,0.0,0.7655677655677655,0.0,-0.5384615384615384,0.0,0.0,0.0,0.9242979242979243,-0.7228327228327228,-0.8913308913308914,0.0,0.0,0.0,0.0,0.0,-0.7521367521367521,0.0,0.0,-0.59375,0.7557997557997558,-0.5836385836385837,0.0,0.0,0.0,-0.71875,0.0,-0.5067155067155067,-0.6166056166056166,0.0,0.0,-0.8125,0.0,-0.7020757020757019,-0.9682539682539684,0.0,0.0,-0.9375,0.0,-0.8986568986568987,-0.7020757020757019,0.0,0.0,-1.0,0.0,-0.6971916971916972,0.0,0.0,0.0,-1.03125,-1.192918192918193,-0.5323565323565324,0.0,0.0,0.0,-1.0625,-1.3137973137973138,-0.6190476190476191,-0.6556776556776557,0.0,0.0,-1.09375,-0.851037851037851,-0.984126984126984,-0.7313797313797313,0.0,0.0,-1.03125,0.0,-1.6715506715506716,0.0,0.0,0.0,-1.03125,0.0,-1.5421245421245422,0.0,0.0,0.0,-1.125,-0.7631257631257631,-0.9255189255189256,0.0,0.0,0.0,-1.1875,-1.3284493284493284,-0.7960927960927959,0.0,0.0,0.0,-1.21875,-2.2210012210012207,-1.4163614163614164,-0.8388278388278388,0.0,0.0,-1.21875,-2.0415140415140414,-1.7753357753357752,-1.1611721611721613,0.0,0.0,-1.125,-0.6153846153846154,-2.051282051282051,0.0,0.0,0.0,-1.09375,-0.6385836385836385,-1.887667887667888,0.7448107448107448,0.0,0.0,-1.21875,-2.1562881562881557,-1.2612942612942613,0.6837606837606838,0.0,0.0,-1.4375,-3.63980463980464,-1.3418803418803418,0.0,0.0,0.0,-1.65625,-4.131868131868131,-0.5958485958485958,-1.343101343101343,0.0,0.0,-1.40625,-4.125763125763126,-0.7252747252747253,-1.4224664224664223,0.0,0.0,-1.125,-4.2393162393162385,-1.3272283272283272,-0.8705738705738706,0.0,0.0,-1.0625,-5.330891330891331,-1.5665445665445663,-0.8803418803418803,0.0,0.0,-1.03125,-5.423687423687423,-1.247863247863248,-0.7057387057387058,0.0,0.0,-0.9375,-4.896214896214897,-1.2075702075702075,0.0,0.0,0.0,-0.8125,-6.205128205128204,-0.6459096459096461,0.0,0.0,0.0,-0.65625,-5.451770451770452,-1.462759462759463,0.0,0.0,0.0,-0.5625,-5.423687423687423,-1.4908424908424909,0.0,0.0,0.0,0.0,-5.242979242979243,-0.8693528693528694,0.0,0.0,0.0,0.0,-5.21978021978022,-0.536019536019536,0.5775335775335775,0.0,0.0,0.0,,,,,,,,,,,,,,,,,,,,,,,,,,,,,,,,,,,,,,,,,,,movNegX
accX,0.0,0.0,-0.5665445665445665,0.0,0.0,0.0,0.0,0.0,0.0,0.0,0.0,0.0,0.0,0.0,0.0,0.0,0.0,0.0,0.0,0.0,-0.5604395604395604,0.0,0.0,0.0,0.0,0.0,-0.6642246642246642,0.0,0.0,0.0,0.0,0.0,-0.8290598290598291,-0.59375,0.0,0.0,0.0,0.0,0.0,-0.59375,0.0,0.0,0.0,0.0,0.0,0.0,0.0,0.0,0.6617826617826618,0.0,0.0,0.0,0.0,0.0,0.0,-0.5201465201465202,-1.1733821733821734,0.0,0.0,0.0,0.0,0.0,-0.9035409035409036,0.0,0.0,0.0,0.9096459096459096,0.0,0.0,0.0,0.0,-0.53125,1.2222222222222223,-0.5445665445665445,0.0,0.0,0.0,-0.5625,0.5006105006105006,0.0,0.0,0.0,0.0,-0.65625,0.0,-0.6153846153846154,-0.5702075702075702,0.0,0.0,-0.8125,0.0,-0.5787545787545788,0.0,0.0,0.0,-0.96875,0.0,0.0,0.0,0.0,0.0,-0.96875,-1.6874236874236874,0.0,0.0,0.0,0.0,-1.03125,-1.2515262515262515,-0.5738705738705738,-0.6862026862026862,0.0,0.0,-1.0,0.0,-1.2942612942612943,0.0,0.0,0.0,-1.03125,0.0,-1.6984126984126984,0.0,0.0,0.0,-0.96875,0.0,-1.2673992673992671,0.9365079365079364,0.0,0.0,-1.0,-0.5518925518925519,-0.9877899877899878,0.6178266178266179,0.0,0.0,-1.25,-1.647130647130647,-1.0085470085470083,0.0,0.0,0.0,-1.15625,-2.195360195360196,-1.4456654456654456,-1.2832722832722834,0.0,0.0,-1.21875,-2.173382173382173,-1.1587301587301588,-1.2136752136752136,0.0,0.0,-1.15625,-1.1904761904761905,-1.8461538461538465,-0.7179487179487181,0.0,0.0,-1.25,-2.1514041514041518,-2.0427350427350426,-0.8144078144078144,0.0,0.0,-1.28125,-3.2344322344322345,-1.8217338217338217,-0.9230769230769232,0.0,0.0,-1.3125,-3.335775335775337,-1.3846153846153846,0.0,0.0,0.0,-1.3125,-3.4542124542124544,-1.031746031746032,0.0,0.0,0.0,-1.1875,-3.8376068376068377,-0.9450549450549449,0.0,0.0,0.0,-1.125,-4.650793650793651,-0.5286935286935287,-0.7655677655677655,0.0,0.0,-1.09375,-5.666666666666668,0.0,-0.912087912087912,0.0,0.0,-1.09375,-6.422466422466423,0.0,-0.9035409035409036,0.0,0.0,-0.84375,-5.733821733821733,-0.7973137973137974,0.0,0.0,0.0,-0.625,-5.0927960927960925,-1.166056166056166,0.0,0.0,0.0,-0.59375,-6.047619047619048,-0.7960927960927959,0.0,0.0,0.0,-0.5625,-5.754578754578755,0.0,0.0,0.0,0.0,0.0,-5.584859584859585,-1.2967032967032968,0.0,0.0,0.0,0.0,,,,,,,,,,,,,,,,,,,,,,,,,,,,,,,,,,,,,,,,,,,,,,,,,,,,,,,,,,,,,,,,,,,,,,,,,movNegX
accX,0.7118437118437119,0.0,0.0,0.0,0.0,0.0,0.5006105006105006,0.0,0.5213675213675214,0.65625,0.0,0.0,0.0,0.0,0.0,0.0,0.0,0.0,0.0,-1.0122100122100122,-1.0634920634920637,0.0,0.0,0.0,0.0,0.0,-1.3992673992673992,-0.71875,0.0,0.0,0.0,0.557997557997558,0.0,0.0,0.0,0.0,0.0,0.0,0.0,0.0,0.0,0.0,0.0,0.0,0.0,0.0,0.0,0.0,0.0,0.0,-1.1477411477411477,0.0,0.0,0.0,0.0,0.0,-1.133089133089133,0.0,0.0,0.0,0.0,0.0,-0.8644688644688645,0.0,0.0,0.0,0.5665445665445665,0.0,0.0,0.0,0.0,-0.53125,0.9450549450549449,0.0,0.0,0.0,0.0,-0.65625,0.7020757020757019,-0.6202686202686203,0.0,0.0,0.0,-0.875,-0.8937728937728938,0.0,0.0,0.0,0.0,-0.90625,-0.5958485958485958,0.0,0.0,0.0,0.0,-0.8125,0.0,-0.5836385836385837,0.0,0.0,0.0,-0.8125,0.0,-0.5531135531135531,0.0,0.0,0.0,-0.9375,-0.6117216117216118,0.0,0.0,0.0,0.0,-1.03125,-0.8144078144078144,-0.6788766788766789,0.0,0.0,0.0,-1.03125,-0.6019536019536019,-1.3724053724053724,0.0,0.0,0.0,-1.0,0.0,-1.6092796092796091,0.0,0.0,0.0,-1.03125,0.0,-1.1916971916971917,0.0,0.0,0.0,-1.1875,-1.1318681318681318,-0.7997557997557998,0.0,0.0,0.0,-1.28125,-2.2771672771672766,-1.1794871794871795,0.0,0.0,0.0,-1.28125,-1.728937728937729,-1.7277167277167278,-0.5873015873015873,0.0,0.0,-1.125,-0.967032967032967,-1.868131868131868,0.0,0.0,0.0,-1.15625,-2.791208791208791,-1.575091575091575,0.0,0.0,0.0,-1.25,-4.249084249084248,-1.2783882783882785,-0.6385836385836385,0.0,0.0,-1.125,-3.172161172161172,-1.1697191697191698,0.0,0.0,0.0,-1.0625,-3.0170940170940175,-0.9035409035409036,0.7765567765567766,0.0,0.0,-1.0625,-3.9670329670329667,0.0,0.0,0.0,0.0,-0.96875,-3.652014652014652,-0.8327228327228328,0.0,0.0,0.0,-0.875,-3.533577533577533,-1.3797313797313795,-1.051282051282051,0.0,0.0,-1.0,-5.253968253968254,-0.8778998778998779,-1.275946275946276,0.0,0.0,-1.0625,-5.087912087912088,-0.8009768009768009,-1.1404151404151404,0.0,0.0,-0.84375,-3.2783882783882783,-1.6092796092796091,-0.6422466422466423,0.0,0.0,-0.625,-2.6849816849816848,-2.4884004884004884,0.0,0.0,0.0,-0.75,-5.13919413919414,-1.7423687423687424,0.0,0.0,0.0,-0.78125,-6.512820512820514,0.0,0.0,0.0,0.0,-0.625,-6.329670329670329,0.0,0.0,0.0,0.0,0.0,,,,,,,,,,,,,,,,,,,,,,,,,,,,,,,,,,,,,,,,,,,,,,,,,,,,,,,,,,,,,,,,,,,movNegX
accX,1.4993894993894994,0.5042735042735043,0.0,0.0,0.0,0.0,1.1782661782661783,0.0,0.0,0.0,0.0,0.0,1.3943833943833943,0.0,0.0,0.0,0.0,0.0,1.3223443223443223,0.0,0.0,0.0,0.0,0.0,1.3565323565323566,0.0,0.0,0.0,0.0,0.0,0.8559218559218559,-0.5079365079365079,-0.7326007326007326,0.0,0.0,0.0,0.0,0.0,-0.706959706959707,0.0,0.0,0.0,0.0,0.0,0.0,0.0,0.0,0.0,0.0,0.0,0.0,0.0,0.0,0.0,0.0,0.0,-0.5995115995115995,0.0,0.0,0.0,0.0,0.0,-0.5054945054945055,0.0,0.0,0.0,0.0,0.0,0.0,0.0,0.0,0.0,0.0,0.0,0.0,0.0,0.0,0.0,0.0,-0.536019536019536,-0.8424908424908425,0.0,0.0,0.0,0.0,0.0,-0.9450549450549449,0.0,0.0,-0.625,0.0,0.0,-0.5592185592185592,0.0,0.0,-0.59375,0.0,0.0,0.0,0.0,0.0,-0.65625,0.0,0.0,0.0,0.0,0.0,-0.6875,0.0,-0.8778998778998779,-0.9658119658119658,0.0,0.0,-0.8125,0.0,-1.028083028083028,0.0,0.0,0.0,-0.875,0.0,-0.7423687423687424,0.0,0.0,0.0,-0.96875,-0.5836385836385837,0.0,0.0,0.0,0.0,-1.03125,-1.8864468864468864,0.0,-0.8229548229548229,0.0,0.0,-1.03125,-1.9987789987789988,0.0,-1.1257631257631258,0.0,0.5625,-1.03125,-0.5482295482295483,-0.5616605616605617,0.0,0.0,0.0,-0.96875,0.0,-0.9047619047619048,0.0,0.0,0.0,-1.0625,-1.4322344322344325,-0.7777777777777778,0.0,0.0,0.0,-1.15625,-2.47008547008547,-0.6996336996336996,-0.5726495726495726,0.0,0.0,-1.15625,-2.004884004884005,-1.0683760683760684,-0.5128205128205128,0.0,0.53125,-1.09375,0.0,-1.9291819291819288,0.0,0.0,0.0,-1.125,-3.304029304029304,-0.6654456654456654,0.0,0.0,0.0,-1.21875,-4.301587301587301,0.0,-0.5115995115995116,0.0,0.0,-1.21875,-3.1660561660561664,-1.2564102564102564,-0.912087912087912,0.0,0.0,-1.09375,-2.247863247863248,-2.283272283272283,-0.525030525030525,0.0,0.0,-1.03125,-3.1123321123321124,-1.336996336996337,0.0,0.0,0.0,-1.125,-3.507936507936508,0.0,0.0,0.0,0.0,-1.15625,-3.7191697191697193,0.0,0.0,0.0,0.0,-1.03125,-4.496947496947497,0.0,-0.5091575091575091,0.0,0.0,-0.875,-4.383394383394384,-1.2258852258852257,-0.7008547008547008,0.0,0.0,-0.59375,-5.0695970695970685,-1.2417582417582418,0.0,0.0,0.0,-0.625,-6.3992673992674005,-0.5592185592185592,0.0,0.0,0.0,-0.65625,-6.3809523809523805,-0.7167277167277167,-0.5860805860805861,0.0,0.0,0.0,-6.214896214896215,-0.8205128205128205,-0.6666666666666666,0.0,0.0,0.0,-6.304029304029304,-0.8327228327228328,-0.6532356532356532,0.0,0.0,0.0,,,,,,,,,,,,,,,,,,,,,,,,,,,,,,,,,,,,,,,,,,,,,,,,,movNegX
accX,0.0,0.0,0.0,0.0,0.0,0.0,-0.6178266178266179,0.0,-1.1782661782661783,0.0,0.0,0.0,0.0,0.0,-1.123321123321123,0.0,0.0,0.0,0.978021978021978,0.0,0.0,0.0,0.0,0.0,1.4737484737484738,0.0,0.0,0.0,0.0,0.0,0.8083028083028083,0.0,0.0,0.0,0.0,0.0,0.0,0.0,-0.6166056166056166,0.0,0.0,0.0,0.0,0.0,-0.9877899877899878,0.0,0.0,0.0,0.0,0.0,-0.894993894993895,0.0,0.0,0.0,0.0,0.0,-0.6910866910866911,0.0,0.0,0.0,0.0,0.0,-0.7533577533577533,0.0,0.0,0.0,0.5641025641025641,0.0,-0.5555555555555556,0.0,0.0,0.0,0.0,0.0,-0.6984126984126984,0.0,0.0,-0.53125,0.6691086691086691,-0.6788766788766789,-0.8669108669108669,0.0,0.0,0.0,0.984126984126984,-0.78998778998779,-0.7008547008547008,0.0,0.0,-0.53125,0.0,0.0,-0.5445665445665445,0.0,0.0,-0.75,0.0,0.0,-0.7631257631257631,0.0,0.0,-0.84375,0.0,0.0,-0.6935286935286935,0.0,0.0,-0.8125,0.7032967032967034,-0.7606837606837606,0.0,0.0,0.0,-0.90625,0.0,0.0,0.0,0.0,0.0,-1.09375,-0.6776556776556777,0.0,0.0,0.0,0.0,-1.09375,-0.6031746031746031,0.0,0.0,0.0,0.0,-1.0625,-0.5482295482295483,-0.8485958485958486,0.0,0.0,0.0,-1.09375,0.0,-0.9706959706959708,0.0,0.0,0.0,-1.09375,0.0,-1.2185592185592184,0.0,0.0,0.0,-1.1875,-1.463980463980464,-0.6874236874236874,0.0,0.0,0.0,-1.15625,-1.8913308913308915,0.0,0.0,0.0,0.0,-1.0625,-1.42002442002442,-0.8925518925518926,0.0,0.0,0.0,-1.125,-2.1855921855921854,-1.277167277167277,-0.7509157509157509,0.0,0.0,-1.15625,-2.673992673992674,-0.9450549450549449,-0.7484737484737485,0.0,0.0,-1.03125,-1.2991452991452992,-0.9963369963369964,-0.5934065934065934,0.0,0.0,-1.03125,-1.5396825396825398,-1.4932844932844933,0.0,0.0,0.0,-1.09375,-3.1526251526251525,-1.065934065934066,0.0,0.0,0.0,-1.0625,-3.2295482295482296,-0.9706959706959708,0.0,0.0,0.0,-1.0,-2.1526251526251525,-2.103785103785104,0.0,0.0,0.0,-1.125,-3.117216117216117,-1.7557997557997558,0.0,0.0,0.0,-1.15625,-3.934065934065934,-1.2588522588522588,0.0,0.0,0.0,-1.15625,-4.766788766788767,-0.557997557997558,0.0,0.0,0.0,-0.96875,-4.609279609279608,0.0,0.0,0.0,0.0,-0.75,-4.6874236874236885,0.0,0.0,0.0,0.0,-0.75,-4.979242979242978,0.0,0.0,0.0,0.0,-0.6875,-5.13919413919414,0.0,0.0,0.0,0.0,-0.5625,-4.892551892551894,0.0,0.0,0.0,0.0,0.0,-4.1892551892551895,-0.6605616605616605,0.0,0.0,0.0,0.0,,,,,,,,,,,,,,,,,,,,,,,,,,,,,,,,,,,,,,,,,,,,,,,,,movNegX
accX,1.4505494505494505,0.0,0.0,0.0,0.0,0.0,0.9902319902319904,0.0,0.0,0.0,0.0,0.0,0.6532356532356532,-0.5433455433455433,0.0,0.0,0.0,0.0,0.7118437118437119,0.0,0.0,0.0,0.0,0.0,0.5665445665445665,0.0,0.0,0.0,0.0,0.0,0.0,0.0,0.0,0.0,0.0,0.0,0.0,0.0,0.0,0.0,0.0,0.0,0.0,0.0,-0.6056166056166056,0.0,0.0,0.0,0.0,0.0,0.0,0.0,0.0,0.0,0.0,0.0,0.0,0.0,0.0,0.0,0.5067155067155067,0.0,0.0,0.0,0.0,0.0,0.0,0.0,-0.6495726495726496,0.0,0.0,0.0,0.6898656898656899,0.0,0.0,0.0,0.0,0.0,0.8217338217338217,0.0,0.0,0.0,0.0,0.0,0.5811965811965812,0.0,0.0,0.0,0.0,-0.59375,0.8852258852258852,-0.5970695970695971,0.0,0.0,0.0,-0.65625,0.7301587301587301,-0.6800976800976801,0.0,0.0,0.0,-0.71875,-0.5714285714285714,0.0,-0.5958485958485958,0.0,0.0,-0.84375,-0.9181929181929182,0.0,-0.663003663003663,0.0,0.0,-0.84375,0.0,0.0,-0.5115995115995116,0.0,0.0,-0.75,0.0,-0.7130647130647131,-0.5604395604395604,0.0,0.0,-0.90625,-1.0561660561660562,-0.6434676434676435,-0.8693528693528694,0.0,0.0,-0.96875,-1.5238095238095235,-0.7167277167277167,-1.0390720390720392,0.0,0.0,-1.0,-1.0097680097680095,-0.5714285714285714,-0.503052503052503,0.0,0.0,-0.9375,0.0,-1.0634920634920637,0.0,0.0,0.0,-0.875,0.0,-1.3577533577533578,0.0,0.0,0.0,-0.96875,-1.568986568986569,-1.1123321123321124,-0.5213675213675214,0.0,0.0,-1.15625,-2.2954822954822958,0.0,0.0,0.0,0.0,-1.15625,-1.8424908424908424,0.0,0.0,0.0,0.0,-0.90625,-0.7387057387057387,-1.881562881562881,0.0,0.0,0.0,-0.78125,-1.3076923076923077,-2.584859584859585,-0.984126984126984,0.0,0.0,-0.96875,-1.5848595848595848,-2.2295482295482296,-0.5641025641025641,0.0,0.0,-1.09375,-1.7912087912087913,-1.78998778998779,0.0,0.0,0.0,-1.15625,-2.440781440781441,-1.1391941391941391,0.7423687423687424,0.0,0.0,-1.15625,-3.568986568986569,-1.1282051282051282,0.0,0.0,0.0,-1.125,-3.937728937728938,-1.4505494505494505,-0.8766788766788767,0.0,0.0,-1.15625,-3.5579975579975582,-0.9633699633699634,0.0,0.0,0.0,-1.0,-3.664224664224663,0.0,0.0,0.0,0.0,-0.78125,-4.299145299145299,0.0,0.0,0.0,0.0,-0.6875,-4.0927960927960925,-1.1123321123321124,0.0,0.0,0.0,-0.75,-3.676434676434676,-1.9938949938949944,-0.6642246642246642,0.0,0.0,-0.875,-4.78021978021978,-0.8559218559218559,0.0,0.0,0.0,-0.71875,-5.597069597069598,0.0,0.0,0.0,0.0,0.0,-5.630036630036631,0.0,-0.6007326007326007,0.0,0.0,0.0,-5.112332112332112,-0.5079365079365079,0.0,0.0,0.0,0.0,,,,,,,,,,,,,,,,,,,,,,,,,,,,,,,,,,,,,,,,,,,movNegX
accX,0.6886446886446886,0.0,0.7423687423687424,0.0,0.0,0.0,0.0,0.0,0.0,0.0,0.0,0.0,0.0,0.0,0.0,0.0,0.0,0.0,0.0,0.0,0.0,-0.53125,0.0,0.0,0.0,0.0,0.0,0.0,0.0,0.0,-0.5592185592185592,0.0,0.0,0.0,0.0,0.0,0.0,0.0,0.0,0.0,0.0,0.0,0.0,0.0,0.0,0.0,0.0,0.0,0.0,0.0,0.0,0.0,0.0,0.0,0.0,0.0,0.0,0.0,0.0,0.0,0.0,0.0,0.0,0.0,0.0,0.0,0.0,0.0,-0.6117216117216118,0.0,0.0,0.0,0.5177045177045178,0.0,-0.6691086691086691,0.0,0.0,0.0,0.6984126984126984,0.0,0.0,0.0,0.0,-0.5625,0.0,0.0,0.0,0.0,0.0,-0.625,0.5225885225885226,-0.8034188034188035,0.0,0.0,0.0,-0.65625,1.2271062271062272,-1.2234432234432235,0.0,0.0,0.0,-0.75,0.0,-0.6202686202686203,0.0,0.0,0.0,-0.84375,-0.9536019536019535,0.0,0.0,0.0,0.0,-0.875,-0.8559218559218559,-0.5054945054945055,0.0,0.0,0.0,-0.9375,0.6654456654456654,-1.6275946275946276,0.0,0.0,0.0,-0.8125,-2.241758241758242,-0.5286935286935287,0.0,-0.53125,-0.6875,-0.96875,-1.757020757020757,-0.9255189255189256,0.0,0.0,0.0,-1.09375,0.0,-1.3699633699633702,0.0,0.0,0.6875,-1.21875,-1.6813186813186811,0.0,0.0,0.0,0.0,-1.21875,-0.8827838827838828,-0.9511599511599512,0.0,0.0,0.0,-1.03125,0.0,-1.7582417582417582,0.0,0.0,0.0,-1.09375,-2.2820512820512815,-1.5482295482295485,0.0,0.0,0.0,-1.3125,-1.887667887667888,-1.9169719169719168,0.0,0.0,0.71875,-1.40625,-1.4188034188034189,-1.9365079365079363,0.0,0.0,0.0,-1.40625,-3.4432234432234434,-1.2271062271062272,0.0,0.0,0.0,-1.375,-5.286935286935287,-0.536019536019536,-0.6532356532356532,0.0,0.0,-1.375,-5.004884004884005,-0.778998778998779,-0.9242979242979243,0.0,0.0,-1.3125,-4.844932844932845,-1.1135531135531136,-0.9584859584859584,0.0,0.0,-1.1875,-4.962148962148962,-0.8998778998778999,-0.6068376068376068,0.0,0.0,-0.9375,-5.3577533577533565,0.0,0.0,0.0,0.0,-0.875,-5.942612942612943,0.0,0.0,0.0,0.0,-0.84375,-6.241758241758242,-0.6825396825396826,-0.7191697191697192,0.0,0.0,-0.65625,-5.472527472527473,-0.9047619047619048,-0.6434676434676435,0.0,0.0,0.0,-4.7997557997558,-0.8156288156288156,0.0,0.0,0.0,0.0,,,,,,,,,,,,,,,,,,,,,,,,,,,,,,,,,,,,,,,,,,,,,,,,,,,,,,,,,,,,,,,,,,,,,,,,,movNegX
accX,-0.6031746031746031,0.0,0.7191697191697192,0.0,0.0,0.0,0.0,0.0,0.0,0.59375,0.0,0.0,0.0,-0.9157509157509156,-0.7606837606837606,0.0,0.0,0.0,-0.7460317460317459,-0.5836385836385837,-1.3113553113553114,0.0,0.0,0.0,-0.6715506715506715,0.0,-0.6459096459096461,-0.59375,0.0,0.0,0.0,0.0,0.0,0.0,0.0,0.0,0.0,0.0,0.0,0.0,0.0,0.0,0.0,0.0,0.0,0.0,0.0,0.0,0.6532356532356532,0.0,0.0,0.0,0.0,0.0,0.9377289377289376,0.0,-0.557997557997558,0.0,0.0,0.0,0.9511599511599512,0.0,0.0,0.0,0.0,0.0,1.2454212454212454,0.0,0.0,0.0,0.0,0.0,1.78021978021978,-0.8315018315018315,0.0,0.0,0.0,0.0,1.7753357753357752,-1.1819291819291822,0.0,0.0,0.0,0.0,1.557997557997558,-0.9328449328449328,0.0,0.0,0.0,-0.65625,1.175824175824176,0.0,0.0,0.0,0.0,-0.78125,0.0,-0.6715506715506715,0.0,0.0,0.0,-0.875,0.0,-1.0073260073260073,0.0,0.0,0.0,-0.9375,0.0,-1.2075702075702075,-0.6068376068376068,0.0,0.0,-1.09375,0.0,-0.9743589743589745,0.0,0.0,0.0,-1.1875,-1.0231990231990231,-0.5421245421245421,0.0,0.0,0.0,-1.3125,-0.7875457875457875,-0.7619047619047619,0.0,0.0,0.65625,-1.25,0.0,-1.5738705738705738,0.0,0.0,0.625,-1.25,0.0,-1.6764346764346765,0.0,0.0,0.0,-1.3125,-1.9267399267399268,-0.6715506715506715,-0.7936507936507936,0.0,0.0,-1.28125,-1.8192918192918195,-0.934065934065934,-0.9304029304029304,0.0,0.0,-1.25,-1.871794871794872,-1.8510378510378511,-1.017094017094017,0.0,0.0,-1.3125,-3.361416361416361,-1.297924297924298,-0.8888888888888888,0.0,0.59375,-1.09375,-1.4835164835164836,-1.9377289377289375,0.0,0.0,0.0,-1.0,-1.2356532356532357,-1.7643467643467643,0.0,0.0,0.0,-1.15625,-3.3858363858363862,-0.9645909645909646,0.0,0.0,0.0,-1.25,-4.474969474969475,-0.6336996336996337,0.0,0.0,0.0,-1.25,-4.422466422466423,-0.8034188034188035,0.0,0.0,0.0,-0.96875,-3.9926739926739927,-1.3479853479853479,0.0,0.0,0.0,-0.90625,-4.951159951159951,0.0,0.0,0.0,0.0,-0.9375,-6.4493284493284495,0.0,0.0,0.0,0.0,-0.75,-5.661782661782662,-0.6251526251526252,-0.5470085470085471,0.0,0.0,0.0,-4.586080586080586,-1.4029304029304028,-0.8034188034188035,0.0,0.0,0.0,-4.31990231990232,-1.103785103785104,0.0,0.0,0.0,0.0,-4.525030525030525,-0.7301587301587301,0.0,0.0,0.0,0.0,,,,,,,,,,,,,,,,,,,,,,,,,,,,,,,,,,,,,,,,,,,,,,,,,,,,,,,,,,,,,,,,,,,,,,,,,movNegX
accX,1.4835164835164836,0.0,0.0,0.0,0.0,0.0,0.0,0.0,0.0,0.5625,0.0,0.0,0.0,-0.6617826617826618,-1.0158730158730158,0.0,0.0,0.0,0.0,-0.6764346764346765,-1.2148962148962148,0.0,0.0,0.0,0.0,0.6739926739926739,0.0,-0.90625,0.0,0.0,0.0,0.5848595848595849,0.9328449328449328,0.0,0.0,0.0,-0.5494505494505495,0.0,0.0,0.0,0.0,0.0,0.0,0.0,-0.5152625152625152,0.0,0.0,0.0,0.0,0.0,0.0,0.0,0.0,0.0,0.6996336996336996,0.0,0.0,0.0,0.0,0.0,0.5592185592185592,0.0,-0.6129426129426129,0.0,0.0,0.0,0.0,0.0,-1.2405372405372406,0.0,0.0,0.0,0.0,0.0,-1.26007326007326,0.0,0.0,0.0,0.8766788766788767,0.0,-0.7277167277167277,0.0,0.0,0.0,1.0305250305250304,0.0,0.0,0.0,0.0,0.0,0.0,0.0,-0.7631257631257631,0.0,0.0,-0.59375,0.0,0.0,-1.6336996336996337,0.0,0.0,-0.65625,0.8217338217338217,-0.6837606837606838,-1.1404151404151404,0.0,0.0,-0.65625,2.2063492063492065,-1.1367521367521367,0.0,0.0,0.0,-0.59375,1.5396825396825398,-1.1025641025641026,0.811965811965812,0.0,0.0,-0.78125,0.0,-1.0134310134310134,0.0,0.0,0.0,-1.03125,0.0,-1.1965811965811963,0.0,0.0,0.0,-1.15625,0.0,-1.1062271062271063,0.0,0.0,0.0,-1.125,-1.3992673992673992,-0.894993894993895,0.0,0.0,0.0,-1.125,-1.7545787545787546,-1.144078144078144,0.0,0.0,0.0,-1.0,-1.3956043956043955,-1.122100122100122,0.0,0.0,0.0,-1.09375,-1.5885225885225884,-0.9645909645909646,0.0,0.0,0.53125,-1.1875,-1.7643467643467643,-0.6935286935286935,0.0,0.0,0.53125,-1.03125,0.0,-1.3858363858363858,0.0,0.0,0.0,-1.0,-1.072039072039072,-1.6434676434676434,0.0,0.0,0.0,-1.125,-2.5641025641025643,-1.3076923076923077,0.0,0.0,0.0,-1.1875,-2.509157509157509,-1.3785103785103785,0.0,0.0,0.0,-1.28125,-2.227106227106227,-1.8217338217338217,0.0,0.0,0.0,-1.1875,-3.2051282051282053,-1.3076923076923077,0.0,0.0,0.0,-1.25,-4.754578754578755,-0.7692307692307693,0.0,0.0,0.0,-1.21875,-4.907203907203908,-0.5982905982905983,-0.7081807081807082,0.0,0.0,-1.0625,-4.095238095238095,-0.9279609279609279,-0.8131868131868132,0.0,0.0,-0.84375,-2.9291819291819285,-1.6288156288156288,-0.5995115995115995,0.0,0.0,-0.8125,-4.456654456654457,-1.1294261294261294,-0.5128205128205128,0.0,0.0,-0.90625,-6.112332112332113,-0.6691086691086691,-0.6605616605616605,0.0,0.0,-0.78125,-6.142857142857142,-0.6837606837606838,-0.5445665445665445,0.0,0.0,-0.53125,-5.525030525030526,0.0,0.0,0.0,0.0,0.0,-5.468864468864468,0.0,0.0,0.0,0.0,0.0,,,,,,,,,,,,,,,,,,,,,,,,,,,,,,,,,,,,,,,,,,,,,,,,,,,,,,,movNegX
accX,0.9706959706959708,0.0,0.0,0.0,0.0,0.0,0.0,0.0,-0.8693528693528694,0.0,0.0,0.0,0.0,0.0,-0.5384615384615384,0.0,0.0,0.0,0.0,0.0,0.0,0.0,0.0,0.0,0.0,0.0,0.0,0.0,0.0,0.0,0.0,0.0,0.0,0.0,0.0,0.0,0.0,0.0,-0.7460317460317459,0.0,0.0,0.0,0.0,0.0,-0.568986568986569,0.0,0.0,0.0,0.0,0.0,0.0,0.0,0.0,0.0,0.0,0.0,-0.6153846153846154,0.0,0.0,0.0,0.0,0.0,-0.7631257631257631,0.0,0.0,0.0,0.5067155067155067,0.0,0.0,0.0,0.0,0.0,0.9279609279609279,0.0,0.0,0.0,0.0,0.0,0.7631257631257631,0.0,0.0,0.0,0.0,0.0,0.0,-0.5958485958485958,0.0,0.0,0.0,-0.59375,1.2454212454212454,-0.6862026862026862,0.0,0.0,0.0,-0.65625,0.5946275946275946,0.0,0.0,0.0,0.0,-0.65625,0.0,0.0,-0.5091575091575091,0.0,0.0,-0.75,0.0,-0.5286935286935287,-0.503052503052503,0.0,0.0,-0.84375,0.0,-1.0781440781440779,0.0,0.0,0.0,-1.0,0.0,-0.8620268620268621,0.0,0.0,0.0,-0.96875,-0.6837606837606838,-0.8070818070818071,0.0,0.0,0.0,-0.96875,-0.7216117216117216,-0.5787545787545788,0.0,0.0,0.0,-0.96875,-1.0134310134310134,-0.8742368742368742,0.0,0.0,0.0,-1.03125,-1.0647130647130647,-0.8376068376068376,0.0,0.0,0.0,-1.09375,-0.5335775335775336,-1.3968253968253967,0.0,0.0,0.0,-1.0625,-0.9584859584859584,-1.3797313797313795,0.0,0.0,0.0,-1.15625,-1.42002442002442,-1.1916971916971917,-0.5555555555555556,0.0,0.0,-1.0625,-1.3894993894993894,-1.4969474969474967,-0.6324786324786325,0.0,0.0,-1.0625,-2.2124542124542126,-1.3003663003663004,-0.5653235653235653,0.0,0.0,-1.1875,-2.445665445665446,-1.7106227106227103,0.0,0.0,0.0,-1.25,-1.6825396825396826,-1.4395604395604396,0.0,0.0,0.0,-1.15625,-1.3015873015873016,-1.0024420024420024,0.0,0.0,0.0,-1.09375,-2.7557997557997562,-0.6617826617826618,0.0,0.0,0.0,-1.25,-3.9877899877899887,-0.6935286935286935,-0.5054945054945055,0.0,0.0,-1.15625,-3.7289377289377286,-0.9914529914529916,0.0,0.0,0.0,-1.09375,-3.087912087912088,-1.382173382173382,0.0,0.0,0.0,-0.96875,-4.035409035409035,-1.1807081807081807,0.0,0.0,0.0,-0.875,-5.255189255189255,-0.9059829059829059,0.0,0.0,0.0,-0.9375,-5.465201465201465,-0.6984126984126984,0.0,0.0,0.0,-0.75,-5.147741147741148,0.0,0.0,0.0,0.0,-0.53125,-5.435897435897436,0.0,-0.6422466422466423,0.0,0.0,0.0,-5.388278388278389,0.0,-0.9023199023199024,0.0,0.0,0.0,-4.631257631257632,-0.5506715506715507,-0.5238095238095238,0.0,0.0,0.0,,,,,,,,,,,,,,,,,,,,,,,,,,,,,,,,,,,,,,,,,,,,,,,,,movNegX
accX,1.876678876678877,0.0,0.5433455433455433,0.0,0.0,0.0,1.020757020757021,0.0,0.0,0.0,0.0,0.0,0.0,0.0,-0.8205128205128205,0.0,0.0,0.0,0.6349206349206349,0.0,0.0,0.0,0.0,0.0,0.7411477411477412,0.0,0.0,0.0,0.0,0.0,1.0695970695970696,0.0,0.0,0.0,0.0,0.0,0.9255189255189256,0.0,0.0,0.0,0.0,0.0,0.0,-0.5372405372405372,0.0,0.0,0.0,0.0,0.0,-0.5982905982905983,-0.9304029304029304,0.0,0.0,0.0,0.0,0.0,-1.0415140415140416,0.0,0.0,0.0,0.0,0.0,-0.7545787545787546,0.0,0.0,0.0,0.8388278388278388,0.0,0.0,0.0,0.0,0.0,0.8876678876678876,-0.7435897435897436,0.0,0.0,0.0,0.0,0.8046398046398047,-0.6886446886446886,-0.5641025641025641,0.0,0.0,-0.5625,1.0781440781440779,-0.5457875457875457,-0.503052503052503,0.0,0.0,-0.5625,0.8913308913308914,0.0,0.0,0.0,0.0,-0.65625,0.0,0.0,0.0,0.0,0.0,-0.75,-0.6483516483516484,0.0,-0.7203907203907204,0.0,0.0,-0.875,-0.5457875457875457,0.0,-0.7619047619047619,0.0,0.0,-0.78125,0.0,0.0,0.0,0.0,0.0,-0.78125,0.0,0.0,0.5958485958485958,0.0,0.0,-0.8125,0.0,-0.7460317460317459,0.0,0.0,0.0,-1.03125,-0.9792429792429792,-1.0024420024420024,0.0,0.0,0.0,-1.03125,-1.0036630036630036,0.0,0.0,0.0,0.0,-0.875,0.0,-0.6959706959706959,0.0,0.0,0.0,-0.78125,0.0,-0.7655677655677655,0.0,0.0,0.0,-0.84375,-0.7496947496947497,-1.3601953601953602,0.0,0.0,0.0,-1.125,-1.21978021978022,-1.5665445665445663,-0.5238095238095238,0.0,0.0,-1.3125,-1.4163614163614164,-1.0366300366300367,0.0,0.0,0.0,-1.125,-0.8095238095238095,-1.3540903540903542,-0.9255189255189256,0.0,0.0,-1.0625,-1.0024420024420024,-1.9206349206349207,-1.1562881562881564,0.0,0.0,-1.21875,-2.6300366300366296,-0.6813186813186813,0.0,0.0,0.0,-1.34375,-1.6141636141636142,-1.338217338217338,0.0,0.0,0.0,-1.25,-2.407814407814408,-1.0085470085470083,0.0,0.0,0.0,-1.28125,-3.7374847374847375,-0.7716727716727717,-0.7094017094017094,0.0,0.0,-1.21875,-5.134310134310135,0.0,-0.7020757020757019,0.0,0.0,-1.3125,-3.9694749694749696,-0.9609279609279608,0.0,0.0,0.0,-1.15625,-3.2234432234432235,-1.6336996336996337,0.0,0.0,0.0,-1.0625,-3.965811965811966,-1.413919413919414,-0.8095238095238095,0.0,0.0,-1.0,-4.461538461538462,-1.1074481074481075,-0.5274725274725275,0.0,0.0,-0.90625,-5.029304029304028,-0.6593406593406593,0.0,0.0,0.0,-0.875,-4.833943833943834,0.0,0.0,0.0,0.0,-0.71875,-4.174603174603175,-0.7533577533577533,-0.63003663003663,0.0,0.0,-0.5625,-4.614163614163614,-1.1428571428571428,-0.7057387057387058,0.0,0.0,0.0,-5.085470085470085,-0.9010989010989012,0.0,0.0,0.0,0.0,-4.786324786324786,0.0,0.6581196581196581,0.0,0.0,0.0,,,,,,,,,,,,,,,,,,,,,,,,,,,,,,,,,,,,,movNegX
accX,1.2405372405372406,0.0,-0.536019536019536,0.0,0.0,0.0,1.2637362637362637,0.5934065934065934,0.0,0.0,0.0,0.0,1.0073260073260073,0.0,0.0,0.0,0.0,0.0,0.9572649572649572,-0.5128205128205128,0.0,0.0,0.0,0.0,0.6703296703296703,-0.6361416361416361,-0.6166056166056166,0.0,0.0,0.0,0.0,0.0,-0.5982905982905983,0.0,0.0,0.0,0.0,0.0,0.0,0.0,0.0,0.0,0.0,0.0,0.0,0.0,0.0,0.0,0.0,0.0,0.0,0.0,0.0,0.0,0.0,0.0,0.0,0.0,0.0,0.0,0.0,0.0,0.0,0.0,0.0,0.0,0.6263736263736264,-0.5763125763125763,0.0,0.0,0.0,0.0,0.8534798534798534,0.0,0.0,0.0,0.0,0.0,0.6605616605616605,0.0,0.0,0.0,0.0,-0.5625,-0.5665445665445665,0.0,0.0,0.0,0.0,-0.75,-0.5299145299145299,0.0,0.0,0.0,0.0,-0.78125,0.0,-0.7118437118437119,-0.8388278388278388,0.0,0.0,-0.78125,0.0,-1.021978021978022,-0.984126984126984,0.0,0.0,-0.8125,0.0,-1.0305250305250304,-0.6178266178266179,0.0,0.0,-0.90625,-0.7326007326007326,-0.8327228327228328,0.0,0.0,0.0,-0.96875,-0.7521367521367521,-0.7728937728937729,0.0,0.0,0.0,-1.0,-0.978021978021978,-0.9169719169719168,0.0,0.0,0.0,-1.0625,-1.137973137973138,-0.6776556776556777,0.0,0.0,0.0,-1.125,-0.6459096459096461,-1.2857142857142858,-1.0964590964590966,0.0,0.0,-1.03125,-0.6666666666666666,-1.7179487179487178,-0.9181929181929182,0.0,0.0,-1.03125,-0.7045177045177046,-1.3748473748473748,-0.5323565323565324,0.0,0.0,-0.96875,0.0,-1.3455433455433456,0.0,0.0,0.0,-1.03125,0.0,-1.2820512820512822,-0.6288156288156288,0.0,0.0,-1.125,-1.750915750915751,-1.6923076923076923,-1.4065934065934067,0.0,0.0,-1.21875,-2.0207570207570207,-1.6227106227106227,-1.3052503052503053,0.0,0.0,-1.21875,-1.4517704517704515,-1.8339438339438336,-0.7191697191697192,0.0,0.0,-1.1875,-1.953601953601953,-2.0097680097680097,0.0,0.0,0.0,-1.28125,-3.553113553113553,-1.2722832722832722,0.0,0.0,0.0,-1.375,-4.299145299145299,-0.9316239316239316,0.0,0.0,0.0,-1.28125,-4.1843711843711855,-0.7960927960927959,0.0,0.0,0.0,-1.0625,-3.7094017094017095,-1.3247863247863247,0.0,0.0,0.0,-1.09375,-4.989010989010988,-1.1672771672771671,0.0,0.0,0.0,-1.15625,-5.921855921855923,-1.336996336996337,-0.9572649572649572,0.0,0.0,-1.0625,-5.586080586080586,-0.8766788766788767,-0.6312576312576312,0.0,0.0,-0.6875,-4.697191697191697,-0.7435897435897436,0.0,0.0,0.0,0.0,-5.264957264957265,0.0,0.0,0.0,0.0,0.0,-5.4371184371184365,0.0,0.0,0.0,0.0,0.0,,,,,,,,,,,,,,,,,,,,,,,,,,,,,,,,,,,,,,,,,,,,,,,,,,,,,,,,,,,,,movNegX
accX,1.9169719169719168,0.0,0.6336996336996337,0.0,0.0,0.0,1.006105006105006,0.0,0.0,0.5625,0.0,0.0,1.2393162393162394,-1.1697191697191698,-1.144078144078144,0.0,0.0,0.0,0.0,0.0,-1.0598290598290598,-0.53125,0.0,0.0,0.0,0.0,0.0,-0.53125,0.0,0.0,0.0,0.0,0.5531135531135531,0.0,0.0,0.0,0.0,0.0,0.0,0.0,0.0,0.0,0.0,0.0,0.0,0.0,0.0,0.0,0.0,0.0,0.0,0.0,0.0,0.0,0.0,0.0,0.0,0.0,0.0,0.0,0.0,0.0,-0.6251526251526252,0.0,0.0,0.0,0.0,0.0,-0.6605616605616605,0.0,0.0,0.0,0.6068376068376068,-0.5115995115995116,0.0,0.0,0.0,0.0,0.7924297924297924,-0.6043956043956044,0.0,0.0,0.0,0.0,0.0,0.0,0.0,0.0,0.0,-0.5625,0.0,0.0,0.0,0.0,0.0,-0.65625,-0.7509157509157509,0.0,-0.6727716727716728,0.0,0.0,-0.75,-0.5103785103785103,0.0,-0.8302808302808303,0.0,0.0,-0.71875,0.0,0.0,0.0,0.0,0.0,-0.75,0.0,-0.5787545787545788,0.0,0.0,0.0,-0.8125,0.0,-1.1367521367521367,0.0,0.0,0.0,-0.9375,0.0,-1.120879120879121,0.0,0.0,0.0,-1.09375,-0.7875457875457875,-0.8693528693528694,-0.6434676434676435,0.0,0.0,-1.03125,-1.413919413919414,-0.8754578754578755,-0.6849816849816851,0.0,0.0,-1.125,-1.195360195360195,-1.2808302808302807,-0.7460317460317459,0.0,0.0,-1.1875,-0.6007326007326007,-1.575091575091575,-0.518925518925519,0.0,0.0,-1.21875,0.0,-1.8559218559218558,0.0,0.0,0.0,-1.28125,-1.746031746031746,-1.4468864468864469,0.0,0.0,0.0,-1.40625,-3.2222222222222223,-1.0,-0.7142857142857143,0.0,0.0,-1.375,-2.6715506715506714,-0.9804639804639804,-0.7509157509157509,0.0,0.0,-1.3125,-1.4713064713064714,-1.968253968253968,-0.5665445665445665,0.0,0.0,-1.25,-1.8888888888888888,-1.8351648351648349,0.0,0.0,0.0,-1.25,-3.4273504273504267,-1.352869352869353,-0.6361416361416361,0.0,0.0,-1.28125,-4.180708180708181,-0.9194139194139194,-0.5921855921855922,0.0,0.0,-1.15625,-3.514041514041514,-1.3418803418803418,0.0,0.0,0.0,-1.09375,-3.096459096459097,-1.5726495726495726,0.0,0.0,0.0,-1.09375,-3.761904761904762,-1.7387057387057387,-0.7716727716727717,0.0,0.0,-1.03125,-4.842490842490842,-1.380952380952381,-0.7997557997557998,0.0,0.0,-0.96875,-5.297924297924298,-1.0525030525030523,-0.5115995115995116,0.0,0.0,-0.8125,-4.520146520146519,-1.537240537240537,0.0,0.0,0.0,-0.6875,-4.402930402930403,-1.1538461538461535,0.5470085470085471,0.0,0.0,-0.625,-4.800976800976801,-0.7545787545787546,0.0,0.0,0.0,-0.5625,-4.7936507936507935,-0.912087912087912,0.0,0.0,0.0,0.0,-4.962148962148962,-0.9279609279609279,0.0,0.0,0.0,0.0,,,,,,,,,,,,,,,,,,,,,,,,,,,,,,,,,,,,,,,,,,,,,,,,,movNegX
accX,0.0,0.0,0.0,0.0,0.0,0.0,0.6263736263736264,-0.5543345543345544,0.0,0.0,0.0,0.0,0.5042735042735043,0.0,0.0,0.0,0.0,0.0,0.0,0.0,0.0,0.0,0.0,0.0,0.0,0.0,-0.6410256410256411,0.0,0.0,0.0,0.0,0.0,0.0,0.0,0.0,0.0,0.0,0.0,0.0,0.0,0.0,0.0,0.0,-0.6056166056166056,-0.9255189255189256,0.0,0.0,0.0,0.0,0.0,-0.6544566544566545,-0.5625,0.0,0.0,0.5909645909645911,0.5054945054945055,0.0,0.0,0.0,0.0,0.0,0.0,0.0,0.0,0.0,0.0,0.0,-0.6019536019536019,-0.7863247863247863,0.0,0.0,0.0,0.7289377289377289,-0.7032967032967034,-0.7216117216117216,0.0,0.0,-0.53125,0.0,0.0,0.0,0.0,0.0,-0.5625,0.0,0.0,0.0,0.0,0.0,-0.625,0.0,0.0,0.0,0.0,0.0,-0.6875,0.6556776556776557,-0.8083028083028083,-0.7423687423687424,0.0,0.0,-0.84375,0.0,0.0,0.0,0.0,0.0,-0.84375,0.0,-0.5555555555555556,0.0,0.0,0.0,-0.96875,0.0,-0.757020757020757,0.0,0.0,0.0,-1.0625,0.0,-1.017094017094017,0.0,0.0,0.0,-1.28125,-1.4090354090354091,0.0,0.0,0.0,0.0,-1.25,-1.2551892551892552,-0.57997557997558,0.0,0.0,0.0,-1.15625,-1.5592185592185592,-0.9316239316239316,0.0,0.0,0.0,-1.09375,-1.9010989010989008,-1.3943833943833943,-0.7875457875457875,0.0,0.0,-1.0625,-1.4481074481074483,-1.6544566544566544,0.0,0.0,0.0,-1.15625,-1.934065934065934,-1.3162393162393162,0.0,0.0,0.0,-1.28125,-2.873015873015873,0.0,-0.5506715506715507,0.0,0.0,-1.21875,-2.213675213675214,0.0,-0.6556776556776557,0.0,0.0,-1.125,-1.8705738705738704,-1.5958485958485962,-1.0891330891330893,0.0,0.0,-1.09375,-2.8485958485958487,-1.6666666666666667,-1.4126984126984128,0.0,0.0,-1.125,-3.6166056166056166,-0.873015873015873,-0.9035409035409036,0.0,0.0,-1.09375,-3.1562881562881566,-0.5934065934065934,0.0,0.0,0.0,-1.09375,-2.9816849816849818,-1.5873015873015872,-0.6031746031746031,0.0,0.0,-0.9375,-4.007326007326007,-1.7594627594627594,-1.10989010989011,0.0,0.0,-0.875,-4.663003663003662,-0.8827838827838828,-0.7838827838827839,0.0,0.0,-0.875,-3.963369963369964,-1.0793650793650793,0.0,0.0,0.0,-0.78125,-4.261294261294261,-1.4395604395604396,0.0,0.0,0.0,-0.65625,-4.7374847374847375,-1.362637362637363,0.0,0.0,0.0,-0.59375,-5.035409035409035,-0.9926739926739928,0.0,0.0,0.0,-0.59375,-5.056166056166056,0.0,0.5152625152625152,0.0,0.0,0.0,-5.0976800976800964,0.0,0.9975579975579976,0.0,0.0,0.0,-5.151404151404153,0.0,0.6556776556776557,0.0,0.0,0.0,,,,,,,,,,,,,,,,,,,,,,,,,,,,,,,,,,,,,,,,,,,,,,,,,,,,,,,movNegX
accX,0.7484737484737485,0.0,-0.5286935286935287,0.0,0.0,0.0,1.1746031746031746,-0.7521367521367521,0.0,0.0,0.0,0.0,1.4578754578754578,0.0,0.0,0.0,0.0,0.0,0.9597069597069596,0.0,0.0,0.0,0.0,0.0,0.0,0.0,-0.7960927960927959,0.0,0.0,0.0,0.0,0.0,-0.6471306471306472,0.0,0.0,0.0,0.0,0.0,-0.7557997557997558,0.0,0.0,0.0,0.0,0.0,-0.9377289377289376,0.0,0.0,0.0,0.5738705738705738,0.0,-0.5750915750915749,0.0,0.0,0.0,0.0,0.0,0.0,0.0,0.0,0.0,-0.7106227106227107,0.0,-0.6703296703296703,0.0,0.0,0.0,0.0,0.0,-0.7606837606837606,0.0,0.0,0.0,0.0,0.0,0.0,0.0,0.0,0.0,0.0,0.0,0.0,0.0,0.0,0.0,0.0,0.0,0.0,0.0,0.0,-0.53125,0.0,0.0,0.0,0.0,0.0,0.0,0.0,-0.6910866910866911,0.0,0.0,0.0,-0.5625,0.0,-0.6312576312576312,0.0,0.0,0.0,-0.59375,0.0,0.0,0.0,0.0,0.0,-0.59375,-0.5091575091575091,0.0,0.0,0.0,0.0,-0.6875,0.0,0.0,0.0,0.0,0.0,-0.8125,0.0,-0.7252747252747253,0.0,0.0,0.0,-0.875,0.0,-0.8717948717948718,0.0,0.0,0.0,-0.84375,0.0,-0.8534798534798534,0.0,0.0,0.0,-0.90625,-1.0476190476190477,0.0,0.0,0.0,0.0,-1.03125,-1.6764346764346765,0.0,0.0,0.0,0.0,-0.96875,0.0,-1.2612942612942613,-0.5067155067155067,0.0,0.0,-1.0,0.0,-1.1367521367521367,0.0,0.0,0.0,-0.96875,-1.0781440781440779,-1.1001221001221002,0.0,0.0,0.0,-0.96875,-1.5641025641025639,-0.8278388278388278,0.0,0.0,0.0,-0.96875,-0.7264957264957265,-0.9645909645909646,0.0,0.0,0.0,-0.90625,0.0,-1.6227106227106227,0.0,0.0,0.0,-1.0625,-1.78998778998779,-1.2551892551892552,0.0,0.0,0.0,-1.15625,-3.111111111111111,0.0,-0.7020757020757019,0.0,0.0,-1.0625,-2.0854700854700856,0.0,-0.568986568986569,0.0,0.0,-0.9375,-1.531135531135531,-1.0048840048840049,-0.8424908424908425,0.0,0.0,-0.96875,-2.1880341880341883,-1.619047619047619,0.0,0.0,0.0,-1.0,-2.0134310134310134,-1.4163614163614164,0.0,0.0,0.0,-0.9375,-3.5384615384615383,-0.8144078144078144,0.0,0.0,0.0,-0.96875,-4.363858363858364,-0.8046398046398047,0.0,0.0,0.0,-1.0,-4.495726495726496,-0.7765567765567766,-0.9816849816849816,0.0,0.0,-0.96875,-4.592185592185592,-0.5763125763125763,-0.8888888888888888,0.0,0.0,-0.78125,-4.4322344322344325,-0.5555555555555556,0.0,0.0,0.0,-0.65625,-4.896214896214897,-0.6617826617826618,0.0,0.0,0.0,-0.59375,-4.582417582417582,-0.5054945054945055,0.0,0.0,0.0,0.0,-4.754578754578755,0.0,0.0,0.0,0.0,0.0,-5.001221001221001,0.0,0.0,0.0,0.0,0.0,,,,,,,,,,,,,,,,,,,,,,,,,,,,,,,movNegX
accX,0.0,0.0,0.0,0.0,0.0,0.0,0.0,-0.7326007326007326,-0.6862026862026862,0.0,0.0,0.0,0.0,0.0,-0.8840048840048841,0.0,0.0,0.0,0.0,0.0,0.0,0.0,0.0,0.0,0.0,0.0,0.0,0.0,0.0,0.0,0.0,0.0,0.0,0.0,0.0,0.0,0.0,0.0,0.0,0.0,0.0,0.0,0.6581196581196581,0.0,0.0,0.0,0.0,0.0,0.0,0.0,0.0,0.0,0.0,0.0,0.6043956043956044,0.0,0.0,0.0,0.0,0.0,0.0,0.0,0.0,0.0,0.0,0.0,0.0,0.0,-0.6813186813186813,0.0,0.0,0.0,0.0,0.0,-0.6947496947496947,0.0,0.0,0.0,0.0,0.0,-0.5555555555555556,0.0,0.0,-0.5625,0.0,-0.514041514041514,0.0,0.0,0.0,-0.65625,0.0,-0.6166056166056166,0.0,0.0,0.0,-0.71875,0.0,0.0,0.0,0.0,0.0,-0.75,-1.0598290598290598,0.0,0.0,0.0,0.0,-0.84375,-0.7875457875457875,0.0,0.0,0.0,0.0,-0.90625,-0.5567765567765568,-0.5006105006105006,0.0,0.0,0.0,-0.8125,0.0,-1.0525030525030523,-0.5042735042735043,0.0,0.0,-0.84375,0.0,-1.2014652014652014,0.0,0.0,0.0,-0.9375,0.0,-1.1697191697191698,0.0,0.0,0.0,-0.96875,-0.7496947496947497,-0.7728937728937729,0.0,0.0,0.0,-1.0,-1.7985347985347986,-0.8986568986568987,-0.6862026862026862,0.0,0.0,-1.0,-1.391941391941392,-1.2368742368742371,-0.6984126984126984,0.0,0.0,-1.09375,-1.0427350427350428,-1.21978021978022,0.0,0.0,0.0,-1.0,-2.021978021978022,-1.1843711843711844,0.0,0.0,0.0,-0.96875,-2.31013431013431,-0.8644688644688645,0.0,0.0,0.0,-1.0,-1.652014652014652,-1.1001221001221002,0.0,0.0,0.0,-1.03125,-1.7374847374847375,-1.144078144078144,0.503052503052503,0.0,0.0,-0.90625,-1.7594627594627594,-0.9230769230769232,0.0,0.0,0.0,-0.90625,-3.2283272283272284,-0.7179487179487181,-0.6593406593406593,0.0,0.0,-0.9375,-4.2576312576312585,-0.7594627594627594,-0.5909645909645911,0.0,0.0,-0.9375,-2.855921855921856,-0.9194139194139194,0.0,0.0,0.0,-0.90625,-3.294261294261294,-0.8595848595848596,0.0,0.0,0.0,-0.875,-4.647130647130648,-0.7973137973137974,0.0,0.0,0.0,-0.84375,-5.5335775335775335,-0.7741147741147741,0.0,0.0,0.0,-0.71875,-5.772893772893772,0.0,0.0,0.0,0.0,-0.53125,-5.282051282051282,0.0,0.0,0.0,0.0,0.0,-4.82051282051282,0.0,0.0,0.0,0.0,0.0,-3.5347985347985347,-1.8058608058608057,-0.6556776556776557,0.0,0.0,0.0,,,,,,,,,,,,,,,,,,,,,,,,,,,,,,,,,,,,,,,,,,,,,,,,,,,,,,,,,,,,,movNegX
accX,0.0,0.0,0.0,0.0,0.0,0.0,0.0,0.0,0.0,0.59375,0.0,0.0,0.0,-0.6776556776556777,-1.017094017094017,0.59375,0.0,0.0,0.0,-0.6568986568986569,-1.7387057387057387,0.0,0.0,0.0,0.0,0.0,-0.993894993894994,0.0,0.0,0.0,0.5775335775335775,0.0,0.0,0.0,0.0,0.0,0.5653235653235653,0.0,-0.5152625152625152,0.0,0.0,0.0,1.3345543345543345,-1.021978021978022,-1.0036630036630036,0.0,0.0,0.0,1.3663003663003663,0.0,-0.5152625152625152,0.0,0.0,0.0,0.6459096459096461,0.0,0.0,0.0,0.0,0.0,0.0,0.0,0.0,0.0,0.0,0.0,0.5225885225885226,-0.6178266178266179,-0.851037851037851,0.0,0.0,-0.59375,0.0,0.0,0.0,0.0,0.0,-0.6875,0.0,0.0,0.0,0.0,0.0,-0.625,0.0,0.0,0.0,0.0,0.0,-0.78125,0.0,0.0,0.0,0.0,0.0,-0.84375,0.0,0.0,0.0,0.0,0.0,-0.84375,0.0,-0.6959706959706959,0.0,0.0,0.0,-0.8125,0.0,-1.4920634920634919,0.0,0.0,0.0,-0.84375,0.0,-1.5006105006105006,0.0,0.0,0.0,-1.03125,-0.6251526251526252,-1.144078144078144,0.0,0.0,0.0,-1.1875,-0.7838827838827839,-0.9536019536019535,0.0,0.0,0.0,-1.125,-0.9304029304029304,-1.5506715506715507,0.0,0.0,0.0,-1.09375,-1.4676434676434675,-1.6202686202686205,-0.6129426129426129,0.0,0.0,-1.125,-2.6544566544566544,-1.103785103785104,-0.8034188034188035,0.0,0.0,-1.21875,-2.1684981684981683,0.0,0.0,0.0,0.53125,-1.1875,-1.7484737484737485,-1.3076923076923077,0.0,0.0,0.0,-1.1875,-2.2735042735042734,-1.5433455433455434,0.0,0.0,0.0,-1.21875,-2.7985347985347984,-1.5030525030525033,-0.6251526251526252,0.0,0.0,-1.21875,-3.2197802197802203,-1.0989010989010992,-0.7411477411477412,0.0,0.0,-1.0625,-2.474969474969475,-1.8888888888888888,0.0,0.0,0.0,-1.0,-2.778998778998779,-1.8620268620268619,0.0,0.0,0.0,-1.0625,-4.119658119658118,-0.9914529914529916,0.0,0.0,0.0,-1.0625,-4.321123321123321,-0.7191697191697192,0.0,0.0,0.0,-0.96875,-5.703296703296704,-0.5934065934065934,0.0,0.0,0.0,-0.8125,-6.31013431013431,-0.7643467643467643,-0.5934065934065934,0.0,0.0,-0.65625,-5.582417582417582,-0.9230769230769232,-0.818070818070818,0.0,0.0,0.0,-5.763125763125763,0.0,-0.5726495726495726,0.0,0.0,0.0,-5.391941391941391,0.0,-0.5763125763125763,0.0,0.0,0.0,-4.067155067155067,-0.9218559218559218,0.0,0.0,0.0,0.0,-3.8669108669108665,-0.9609279609279608,0.0,0.0,0.0,0.0,,,,,,,,,,,,,,,,,,,,,,,,,,,,,,,,,,,,,,,,,,,,,,,,,,,,,,,,,,,,,,,,,,,movNegX
accX,-0.6642246642246642,0.5177045177045178,0.0,0.0,0.0,0.0,0.0,0.0,0.7606837606837606,0.71875,0.0,0.0,0.5848595848595849,-0.8339438339438342,0.0,0.0,-0.5625,0.0,0.0,-0.6202686202686203,-0.8327228327228328,0.0,0.0,0.0,-1.0293040293040292,0.0,-0.9413919413919414,0.0,0.0,0.0,0.0,0.0,-0.536019536019536,0.0,0.0,0.0,0.6275946275946276,0.0,0.0,0.0,0.0,0.0,0.0,0.0,-0.5604395604395604,0.0,0.0,0.0,0.0,-0.5592185592185592,-0.7753357753357754,0.0,0.0,0.0,0.8034188034188035,0.0,-0.6019536019536019,0.0,0.0,0.0,1.4713064713064714,-0.5470085470085471,0.0,0.0,0.0,0.0,1.3028083028083028,0.0,0.0,0.0,0.0,0.0,0.9194139194139194,0.0,0.0,0.0,0.0,-0.59375,0.7997557997557998,-0.5604395604395604,0.0,0.0,0.0,-0.6875,0.5531135531135531,-0.5873015873015873,0.0,0.0,0.0,-0.8125,0.0,-0.7533577533577533,0.0,0.0,0.0,-0.8125,0.6153846153846154,-0.8571428571428571,0.0,0.0,0.0,-0.90625,0.8266178266178266,-1.0122100122100122,0.0,0.0,0.0,-0.96875,0.0,-0.7948717948717948,0.0,0.0,0.0,-1.125,-0.518925518925519,0.0,0.0,0.0,0.0,-1.25,0.8754578754578755,-1.2356532356532357,-1.1404151404151404,0.0,0.0,-1.09375,0.0,-2.1135531135531136,-1.8131868131868127,0.0,0.0,-0.875,0.0,-2.5579975579975582,-1.5604395604395604,0.0,0.0,-1.15625,0.7875457875457875,-2.5311355311355306,0.0,0.0,1.46875,-1.5,1.525030525030525,-2.8937728937728937,0.7777777777777778,0.0,1.21875,-1.71875,-1.6996336996336996,-2.23931623931624,0.0,0.0,0.0,-1.84375,-5.020757020757022,-1.6495726495726497,0.0,0.0,0.0,-1.84375,-5.152625152625153,-1.5518925518925517,0.0,0.0,0.0,-1.8125,-4.083028083028083,-1.938949938949939,0.0,0.0,0.0,-1.71875,-5.362637362637362,-1.42002442002442,-0.5421245421245421,0.0,0.0,-1.53125,-6.2564102564102555,-1.3113553113553114,-0.7509157509157509,0.0,0.0,-1.4375,-4.768009768009769,-1.8131868131868127,0.0,0.0,0.0,-1.25,-4.304029304029304,-2.039072039072039,0.0,0.0,-0.5625,-1.09375,-6.713064713064713,-1.1501831501831499,-1.2405372405372406,0.0,-0.65625,-1.0625,-7.305250305250305,0.0,-1.4774114774114775,0.0,0.0,-0.9375,-5.418803418803419,-1.1709401709401708,-0.8095238095238095,0.0,0.0,-0.6875,-4.283272283272283,-1.9731379731379728,0.0,0.0,0.0,0.0,-4.912087912087912,-1.2722832722832722,0.0,0.0,0.0,0.0,-4.283272283272283,-1.2222222222222223,0.5616605616605617,0.0,0.0,0.0,-3.642246642246642,-1.8803418803418803,0.0,0.0,0.0,0.0,-4.594627594627593,-1.1709401709401708,0.6080586080586079,0.0,0.0,0.0,-5.0134310134310125,-0.9389499389499391,0.0,0.0,0.0,0.0,-3.8571428571428568,-1.2783882783882785,0.0,0.0,0.0,0.0,,,,,,,,,,,,,,,,,,,,,,,,,,,,,,,,,,,,,,,,,,,,,,,,,,,,,,,movNegX
accX,0.0,0.0,0.0,0.0,0.0,0.0,0.0,0.0,0.0,0.0,0.0,0.0,0.0,0.0,0.0,0.0,0.0,0.0,0.0,0.0,-0.6471306471306472,0.0,0.0,0.0,0.0,-0.6715506715506715,-1.0073260073260073,-0.65625,0.0,0.0,0.0,0.0,0.0,-0.53125,0.0,0.0,0.0,0.0,0.0,0.0,0.0,0.0,0.0,0.0,-0.7179487179487181,0.0,0.0,0.0,0.0,-0.5970695970695971,-1.2454212454212454,0.0,0.0,0.0,1.1282051282051282,-0.8583638583638583,-1.0122100122100122,0.0,0.0,0.0,1.5225885225885225,-0.7643467643467643,-0.5738705738705738,0.0,0.0,0.0,1.3748473748473748,0.0,0.0,0.0,0.0,0.0,0.0,0.0,0.0,0.0,0.0,0.0,0.6532356532356532,0.0,0.0,0.0,0.0,0.0,1.2014652014652014,-0.7606837606837606,0.0,0.0,0.0,-0.53125,0.7533577533577533,-0.5567765567765568,0.0,0.0,0.0,-0.59375,0.0,0.0,0.0,0.0,0.0,-0.65625,0.6056166056166056,0.0,0.0,0.0,0.0,-0.65625,0.934065934065934,-1.352869352869353,0.0,0.0,0.0,-0.78125,1.1306471306471306,-1.5555555555555556,0.0,0.0,0.0,-0.90625,0.5274725274725275,-1.0158730158730158,0.0,0.0,0.0,-1.0625,-1.2637362637362637,0.0,0.0,0.0,0.0,-1.03125,1.3345543345543345,-2.915750915750916,0.0,0.0,0.53125,-1.15625,0.0,-2.5775335775335777,-0.5079365079365079,0.0,0.0,-1.375,-1.4847374847374848,-1.568986568986569,-0.7582417582417582,0.0,0.0,-1.46875,-2.9841269841269837,-0.7045177045177046,-1.1294261294261294,0.0,0.0,-1.4375,-3.0805860805860807,-1.3675213675213675,-1.363858363858364,0.0,0.0,-1.21875,-2.3150183150183152,-2.039072039072039,-0.8376068376068376,0.0,0.0,-1.125,-1.619047619047619,-2.1965811965811968,0.0,0.0,0.0,-1.25,-1.8974358974358971,-2.4468864468864466,0.0,0.0,0.0,-1.1875,-2.5689865689865687,-1.73992673992674,0.0,0.0,0.0,-1.125,-3.421245421245421,-1.7826617826617828,0.0,0.0,0.0,-1.21875,-4.496947496947497,-1.5274725274725274,0.0,0.0,0.0,-1.4375,-3.792429792429792,-2.1721611721611715,0.0,0.0,0.0,-1.3125,-3.73015873015873,-1.8656898656898655,0.0,0.0,0.0,-1.1875,-5.454212454212454,-1.286935286935287,-0.7326007326007326,0.0,0.0,-1.09375,-6.245421245421245,-1.021978021978022,-0.6202686202686203,0.0,0.0,-1.0625,-6.2295482295482305,-0.6727716727716728,0.0,0.0,0.0,-0.9375,-5.605616605616605,0.0,0.0,0.0,0.0,-0.65625,-5.604395604395603,0.0,0.0,0.0,0.0,0.0,-5.8901098901098905,-0.6336996336996337,-0.6495726495726496,0.0,0.0,0.0,-5.459096459096459,-0.7460317460317459,0.0,0.0,0.0,0.0,,,,,,,,,,,,,,,,,,,,,,,,,,,,,,,,,,,,,,,,,,,,,,,,,,,,,,,,,,,,,movNegX
accX,0.0,0.0,0.0,0.0,0.0,0.0,0.0,0.0,0.0,0.0,0.0,0.0,0.0,-0.5470085470085471,0.0,0.0,0.0,0.0,0.0,0.0,0.0,0.0,0.0,0.0,0.0,0.0,0.0,0.0,0.0,0.0,0.6874236874236874,0.0,0.0,0.0,0.0,0.0,0.557997557997558,0.0,0.0,0.0,0.0,0.0,0.9157509157509156,0.0,0.0,0.0,0.0,0.0,1.1196581196581197,0.0,0.0,0.0,0.0,0.0,1.3467643467643469,0.0,0.0,0.0,0.0,0.0,1.021978021978022,0.0,0.0,0.0,0.0,0.0,0.7179487179487181,-0.5103785103785103,0.0,0.0,0.0,0.0,0.6105006105006106,0.0,-0.5714285714285714,0.0,0.0,0.0,1.0146520146520146,0.0,0.0,0.0,0.0,-0.59375,0.9768009768009768,-0.7533577533577533,0.0,0.0,0.0,-0.65625,0.0,0.0,0.0,0.0,0.0,-0.65625,0.0,0.0,0.0,0.0,0.0,-0.75,0.0,0.0,0.0,0.0,0.0,-0.8125,0.0,-0.7142857142857143,0.0,0.0,0.0,-0.90625,-0.5372405372405372,-0.8876678876678876,0.0,0.0,0.0,-0.96875,0.0,-1.0085470085470083,0.0,0.0,0.0,-1.0625,0.0,-1.0634920634920637,0.0,0.0,0.0,-1.125,0.0,-1.1074481074481075,0.0,0.0,0.0,-1.125,0.0,-1.3711843711843712,0.0,0.0,0.0,-1.09375,-1.4529914529914532,-0.6483516483516484,0.0,0.0,0.0,-1.15625,-2.333333333333333,0.0,0.0,0.0,0.0,-1.0625,-1.7326007326007329,-0.94993894993895,0.0,0.0,0.0,-1.03125,-1.2136752136752136,-1.462759462759463,0.0,0.0,0.0,-0.96875,-2.4383394383394386,-1.647130647130647,0.557997557997558,0.0,0.0,-1.15625,-3.131868131868132,-1.2112332112332111,0.5384615384615384,0.0,0.0,-1.28125,-3.0744810744810747,-2.0012210012210008,0.0,0.0,0.0,-1.125,-3.404151404151404,-1.8888888888888888,0.0,0.0,0.0,-1.1875,-4.1001221001221,-1.0293040293040292,0.0,0.0,0.0,-1.1875,-5.173382173382174,0.0,0.5592185592185592,0.0,0.0,-1.15625,-5.8058608058608066,0.0,0.0,0.0,0.0,-0.8125,-5.208791208791209,0.0,0.0,0.0,0.0,0.0,-4.504273504273504,0.0,0.0,0.0,0.0,0.0,-3.9511599511599513,0.0,0.0,0.0,0.0,0.0,-3.778998778998779,-0.5225885225885226,0.0,0.0,0.0,0.0,-4.1843711843711855,0.0,0.0,0.0,0.0,0.0,,,,,,,,,,,,,,,,,,,,,,,,,,,,,,,,,,,,,,,,,,,,,,,,,,,,,,,,,,,,,,,,,,,,,,,,,movNegX
accX,-0.5616605616605617,0.0,0.0,0.0,0.0,0.0,0.0,0.0,0.0,0.0,0.0,0.0,0.0,0.0,0.0,0.0,0.0,0.0,0.0,-1.1892551892551892,-1.1001221001221002,0.0,0.0,0.0,0.0,0.0,-0.6471306471306472,-0.53125,0.0,0.0,0.0,0.0,0.0,0.0,0.0,0.0,0.0,0.0,0.0,0.0,0.0,0.0,0.0,0.0,-0.7582417582417582,0.0,0.0,0.0,0.0,0.0,-0.8913308913308914,0.0,0.0,0.0,0.0,0.0,0.0,0.0,0.0,0.0,0.0,0.0,0.0,0.0,0.0,0.0,0.8498168498168498,0.0,0.0,0.0,0.0,0.0,1.4810744810744811,-0.5946275946275946,0.0,0.0,0.0,0.0,1.05006105006105,0.0,0.0,0.0,0.0,0.0,0.0,0.0,0.0,0.0,0.0,-0.5625,0.0,0.0,0.0,0.0,0.0,-0.75,0.0,-0.6617826617826618,0.0,0.0,0.0,-0.78125,0.0,-0.514041514041514,0.0,0.0,0.0,-0.8125,-0.5555555555555556,0.0,-0.7411477411477412,0.0,0.0,-0.8125,-0.5299145299145299,0.0,-0.7032967032967034,0.0,0.0,-0.8125,0.0,-0.8485958485958486,0.0,0.0,0.0,-0.84375,0.0,-1.123321123321123,-0.5567765567765568,0.0,0.0,-1.03125,-0.63003663003663,-0.757020757020757,-0.8473748473748474,0.0,0.0,-1.03125,0.0,0.0,-0.5421245421245421,0.0,0.0,-0.96875,0.0,0.0,0.0,0.0,0.0,-0.90625,0.0,-1.0549450549450552,0.0,0.0,0.0,-0.96875,0.0,-1.3736263736263736,0.0,0.0,0.0,-1.03125,-0.7106227106227107,-1.249084249084249,0.0,0.0,0.0,-1.1875,-1.691086691086691,0.0,0.0,0.0,0.0,-1.15625,-1.4725274725274726,-1.0549450549450552,0.0,0.0,0.0,-1.1875,-1.5946275946275947,-1.5824175824175823,0.0,0.0,0.0,-1.15625,-1.7142857142857142,-0.6202686202686203,0.0,0.0,0.0,-0.96875,-0.7228327228327228,0.6532356532356532,0.0,0.0,0.0,-0.8125,0.0,0.0,0.0,0.0,0.0,-0.75,-1.3797313797313795,-1.5494505494505495,0.0,0.0,-0.59375,-0.6875,-3.4432234432234434,-3.023199023199023,-0.6959706959706959,0.0,0.0,-0.9375,-4.244200244200244,-1.7631257631257633,0.0,0.0,0.0,-1.0625,-3.5482295482295485,-0.7680097680097681,0.8962148962148963,0.0,0.0,-1.0625,-4.808302808302808,0.0,0.6141636141636142,0.0,-0.5625,-0.90625,-6.7081807081807066,-0.5006105006105006,-0.6178266178266179,0.0,0.0,-0.53125,-3.9865689865689866,0.0,0.0,0.0,0.0,0.0,-3.291819291819292,-1.1404151404151404,0.0,0.0,0.0,0.0,-4.3137973137973145,-0.9633699633699634,0.0,0.0,0.0,0.0,-4.995115995115995,0.0,0.0,0.0,0.0,0.0,,,,,,,,,,,,,,,,,,,,,,,,,,,,,,,,,,,,,,,,,,,,,,,,,movNegX
accX,-0.6019536019536019,0.0,-0.9743589743589745,0.0,0.0,0.0,0.0,0.0,0.0,0.0,0.0,0.0,0.0,0.0,0.0,0.0,0.0,0.0,0.0,0.0,0.0,0.0,0.0,0.0,-0.5702075702075702,0.0,-0.5641025641025641,0.0,0.0,0.0,0.0,0.0,0.0,0.0,0.0,0.0,0.5274725274725275,0.0,0.0,0.0,0.0,0.0,0.0,-0.5946275946275946,0.0,0.0,0.0,0.0,0.0,0.0,-0.7973137973137974,0.0,0.0,0.0,0.0,0.0,-0.7582417582417582,0.0,0.0,0.0,0.6984126984126984,0.0,0.0,0.0,0.0,0.0,0.6068376068376068,0.0,0.0,0.0,0.0,0.0,0.7472527472527473,0.0,0.0,0.0,0.0,0.0,0.6654456654456654,0.0,0.0,0.0,0.0,0.0,0.6459096459096461,0.0,0.0,0.0,0.0,0.0,0.0,0.0,0.0,0.0,0.0,0.0,0.0,0.0,0.0,0.0,0.0,0.0,-0.5543345543345544,0.0,-0.6947496947496947,0.0,0.0,-0.5625,0.0,0.0,-0.6178266178266179,0.0,0.0,-0.59375,1.051282051282051,0.0,0.0,0.0,0.0,-0.59375,1.2442002442002442,-1.037851037851038,0.0,0.0,0.0,-0.65625,0.0,-0.9072039072039072,-0.7191697191697192,0.0,0.0,-0.8125,0.0,-0.8192918192918193,-1.0488400488400489,0.0,0.0,-0.96875,0.0,-1.3736263736263736,-0.8302808302808303,0.0,0.0,-1.0,0.0,-1.4700854700854702,0.0,0.0,0.0,-0.96875,-1.2881562881562882,-0.8742368742368742,-0.5079365079365079,0.0,0.0,-1.21875,-1.879120879120879,-0.7777777777777778,0.0,0.0,0.0,-1.25,-1.2454212454212454,-1.8351648351648349,0.0,0.0,0.0,-1.21875,-1.2588522588522588,-1.678876678876679,0.0,0.0,0.0,-1.28125,-2.214896214896215,-0.6105006105006106,0.0,0.0,0.0,-1.3125,-2.9010989010989015,0.0,0.0,0.0,0.0,-1.125,-2.5763125763125765,-0.7826617826617827,0.0,0.0,0.0,-1.125,-2.236874236874237,-1.9633699633699635,0.0,0.0,0.0,-1.0625,-3.1355311355311355,-1.3137973137973138,0.0,0.0,0.0,-0.90625,-2.490842490842491,-0.6703296703296703,0.8681318681318682,0.0,0.0,-0.875,-2.3687423687423688,-0.6971916971916972,1.1428571428571428,0.0,0.0,-0.96875,-3.4713064713064714,-1.557997557997558,0.0,0.0,0.0,-0.96875,-3.927960927960928,-1.9291819291819288,-1.2747252747252746,0.0,0.0,-0.875,-4.1098901098901095,-1.2991452991452992,-0.6361416361416361,0.0,0.0,-0.78125,-4.3003663003663,-0.6312576312576312,0.0,0.0,0.0,-0.6875,-4.158730158730159,-0.5958485958485958,0.0,0.0,0.0,-0.625,-5.252747252747253,0.0,0.0,0.0,0.0,0.0,-5.251526251526252,0.0,0.0,0.0,0.0,0.0,-3.31013431013431,-0.8302808302808303,0.0,0.0,0.0,0.0,-2.7643467643467643,-1.6727716727716728,-0.78998778998779,0.0,0.0,0.0,-3.725274725274725,-1.4090354090354091,-0.6666666666666666,0.0,0.0,0.0,,,,,,,,,,,,,,,,,,,,,,,,,,,,,,,,,,,,,movNegX
accX,0.0,0.0,0.0,0.0,0.0,0.0,0.0,0.0,0.0,0.0,0.0,0.0,0.0,-0.9743589743589745,0.0,0.0,0.0,0.0,0.0,0.0,0.0,0.0,0.0,0.0,0.0,0.0,0.0,0.0,0.0,0.0,0.0,0.0,0.0,0.0,0.0,0.0,0.0,-0.6361416361416361,-1.1892551892551892,0.0,0.0,0.0,0.0,0.0,-0.5396825396825397,0.0,0.0,0.0,0.0,0.0,0.0,0.0,0.0,0.0,0.0,0.0,0.0,0.0,0.0,0.0,0.0,-0.7142857142857143,-0.7460317460317459,0.0,0.0,0.0,0.5641025641025641,-0.6776556776556777,-0.6593406593406593,0.0,0.0,0.0,0.0,0.0,0.0,0.0,0.0,0.0,0.0,0.0,0.0,0.0,0.0,-0.5625,0.5421245421245421,-0.6202686202686203,0.0,0.0,0.0,-0.6875,0.6446886446886447,-0.956043956043956,0.0,0.0,0.0,-0.75,0.0,0.0,0.0,0.0,0.0,-0.84375,-0.5457875457875457,0.0,-0.5457875457875457,0.0,0.0,-0.84375,0.0,0.0,-0.5335775335775336,0.0,0.0,-0.875,0.0,0.0,0.0,0.0,0.0,-0.875,0.0,-1.0073260073260073,0.0,0.0,0.0,-0.78125,0.7838827838827839,-1.6459096459096458,0.0,0.0,0.0,-0.84375,0.0,-1.293040293040293,0.5091575091575091,0.0,0.0,-1.0,-1.641025641025641,-0.6666666666666666,0.6080586080586079,0.0,0.0,-1.09375,-2.2869352869352872,-1.0622710622710625,0.0,0.0,0.0,-1.15625,-1.2307692307692308,-1.2918192918192921,0.0,0.0,0.0,-1.25,-1.4065934065934067,-1.4407814407814408,-0.978021978021978,0.0,0.0,-1.28125,-2.791208791208791,-0.9975579975579976,-1.2295482295482296,0.0,0.0,-1.28125,-3.0769230769230766,-0.6251526251526252,-0.989010989010989,0.0,0.0,-1.25,-2.073260073260073,-1.4175824175824177,-0.5860805860805861,0.0,0.0,-1.15625,-2.0476190476190474,-1.3724053724053724,0.0,0.0,0.0,-1.125,-3.0769230769230766,0.0,0.6935286935286935,0.0,0.0,-1.21875,-2.9706959706959712,0.0,0.6373626373626373,0.0,0.0,-1.21875,-3.43956043956044,-0.6520146520146519,0.0,0.0,0.0,-1.0625,-4.085470085470085,-1.0769230769230769,0.0,0.0,0.0,-0.875,-3.945054945054945,-1.0195360195360197,0.0,0.0,0.0,-0.71875,-4.023199023199023,0.0,0.0,0.0,0.0,-0.6875,-4.162393162393163,-0.5738705738705738,0.0,0.0,0.0,-0.65625,-4.023199023199023,-1.4505494505494505,0.0,0.0,0.0,-0.59375,-4.4603174603174605,-1.4676434676434675,0.0,0.0,0.0,0.0,-4.715506715506716,-1.092796092796093,0.0,0.0,0.0,0.0,-4.758241758241757,-0.8888888888888888,-0.5274725274725275,0.0,0.0,0.0,,,,,,,,,,,,,,,,,,,,,,,,,,,,,,,,,,,,,,,,,,,,,,,,,,,,,,,,,,,,,movNegX
accX,0.0,0.0,0.0,0.0,0.0,0.0,0.0,0.0,0.5665445665445665,0.0,0.0,0.0,1.144078144078144,-1.297924297924298,0.0,0.0,0.0,0.0,0.0,0.0,-0.706959706959707,0.0,0.0,0.0,-0.5995115995115995,0.0,0.0,0.0,0.0,0.0,0.0,0.0,0.0,0.0,0.0,0.0,0.0,0.0,0.0,0.0,0.0,0.0,0.0,0.0,-0.7118437118437119,0.0,0.0,0.0,0.5628815628815629,0.0,-0.8253968253968254,0.0,0.0,0.0,0.0,0.0,0.0,0.0,0.0,0.0,0.8070818070818071,0.0,0.0,0.0,0.0,0.0,1.3894993894993894,0.0,0.0,0.0,0.0,0.0,1.0463980463980465,0.0,0.0,0.0,0.0,0.0,0.5042735042735043,0.0,0.0,0.0,0.0,0.0,0.8339438339438342,-0.514041514041514,0.0,0.0,0.0,-0.5625,0.5506715506715507,-0.7203907203907204,-0.5128205128205128,0.0,0.0,-0.6875,0.0,0.0,-0.7582417582417582,0.0,0.0,-0.6875,-0.5409035409035409,0.0,0.0,0.0,0.0,-0.71875,0.0,-0.5604395604395604,0.0,0.0,0.0,-0.8125,0.0,-1.0073260073260073,0.0,0.0,0.0,-0.84375,-0.7863247863247863,0.0,0.0,0.0,0.0,-0.96875,-0.6068376068376068,0.0,0.0,0.0,0.0,-0.90625,0.0,-0.7277167277167277,0.7008547008547008,0.0,0.0,-0.9375,-0.6031746031746031,-0.8547008547008547,0.0,0.0,0.0,-1.0,-0.5995115995115995,-0.9548229548229548,0.0,0.0,0.0,-1.0625,-1.5897435897435896,-0.7179487179487181,-0.8632478632478633,0.0,0.0,-1.3125,-1.871794871794872,-0.5091575091575091,-0.6031746031746031,0.0,0.0,-1.25,-1.637362637362637,-0.7374847374847375,0.0,0.0,0.0,-1.125,-1.1575091575091576,-0.8778998778998779,0.0,0.0,0.0,-1.03125,-0.9914529914529916,-0.9658119658119658,0.5592185592185592,0.0,0.0,-1.125,-1.984126984126984,-0.6056166056166056,0.0,0.0,0.0,-1.25,-1.3931623931623929,-0.967032967032967,0.0,0.0,0.0,-1.15625,-1.4774114774114775,-1.6971916971916972,0.0,0.0,0.0,-1.125,-2.884004884004884,-1.4407814407814408,-0.9865689865689866,0.0,0.0,-1.125,-2.978021978021978,-1.194139194139194,-0.8925518925518926,0.0,0.0,-1.15625,-3.388278388278388,-0.9462759462759462,-0.503052503052503,0.0,0.0,-1.09375,-4.153846153846153,0.0,0.0,0.0,0.0,-0.9375,-4.124542124542124,-0.5555555555555556,0.0,0.0,0.0,-0.8125,-4.0818070818070815,-0.9462759462759462,0.0,0.0,0.0,-0.71875,-4.151404151404152,-0.7728937728937729,0.0,0.0,0.0,-0.65625,-4.448107448107448,0.0,0.0,0.0,0.0,-0.5625,-4.306471306471306,-0.7094017094017094,0.0,0.0,0.0,0.0,-4.004884004884005,-1.0268620268620268,-0.7863247863247863,0.0,0.0,0.0,-3.9047619047619047,-0.8498168498168498,0.0,0.0,0.0,0.0,-3.892551892551893,0.0,0.0,0.0,0.0,0.0,,,,,,,,,,,,,,,,,,,,,,,,,,,,,,,,,,,,,,,,,,,movNegX
accX,-0.7448107448107448,0.0,-0.5067155067155067,0.0,0.0,0.0,0.0,0.0,0.0,0.0,0.0,0.0,0.7008547008547008,0.0,0.5335775335775336,0.0,0.0,0.0,1.4090354090354091,-0.5555555555555556,0.8962148962148963,0.0,0.0,0.0,0.0,-0.8547008547008547,0.0,0.0,0.0,0.0,0.0,0.0,-0.6727716727716728,0.0,0.0,0.0,0.0,0.0,0.0,0.0,0.0,0.0,0.0,0.0,0.0,0.0,0.0,0.0,0.568986568986569,0.0,0.0,0.0,0.0,0.0,0.5824175824175825,-0.7448107448107448,-0.8144078144078144,0.0,0.0,0.0,0.5921855921855922,0.0,0.0,0.0,0.0,0.0,1.3040293040293038,0.0,0.0,0.0,0.0,0.0,0.8522588522588522,0.0,0.0,0.0,0.0,0.0,0.0,0.0,0.0,0.0,0.0,-0.625,0.0,0.0,-0.6886446886446886,0.0,0.0,-0.75,0.0,-0.5543345543345544,-1.010989010989011,0.0,0.0,-0.625,0.0,-0.7277167277167277,-0.8876678876678876,0.0,0.0,-0.625,0.0,-0.6117216117216118,-1.020757020757021,0.0,0.0,-0.78125,-1.103785103785104,0.0,-1.1062271062271063,0.0,0.0,-0.84375,0.0,-0.7142857142857143,-0.7667887667887668,0.0,0.0,-0.875,0.6666666666666666,-1.0268620268620268,0.0,0.0,0.0,-0.96875,-0.8315018315018315,-0.6996336996336996,-0.6739926739926739,0.0,0.0,-1.09375,-0.6031746031746031,-0.7411477411477412,-0.5702075702075702,0.0,0.0,-1.09375,0.0,-0.6080586080586079,0.0,0.0,0.0,-1.0625,-0.9792429792429792,-0.8424908424908425,0.0,0.0,0.0,-1.09375,-1.192918192918193,-1.2442002442002442,0.0,0.0,0.0,-1.21875,-0.7765567765567766,-1.3015873015873016,1.0744810744810744,0.0,0.0,-1.3125,-2.3687423687423688,-0.5738705738705738,0.8046398046398047,0.0,0.0,-1.25,-2.948717948717949,-0.9450549450549449,0.0,0.0,0.0,-1.28125,-2.525030525030525,-1.4444444444444444,0.0,0.0,0.0,-1.25,-3.687423687423687,-1.133089133089133,-1.0085470085470083,0.0,0.0,-1.15625,-3.978021978021978,-0.6862026862026862,-1.2698412698412698,0.0,0.0,-1.09375,-2.667887667887668,-0.7704517704517705,0.0,0.0,0.0,-1.0,-1.5384615384615383,-1.1245421245421243,0.9645909645909646,0.0,0.0,-0.90625,-1.9230769230769231,-0.6886446886446886,1.5054945054945057,0.0,0.0,-0.84375,-3.593406593406593,0.0,0.6043956043956044,0.0,0.0,-0.9375,-3.5677655677655684,-1.0231990231990231,0.0,0.0,0.0,-0.78125,-3.5445665445665444,-1.199023199023199,0.0,0.0,0.0,-0.71875,-4.072039072039072,-0.8009768009768009,0.0,0.0,0.0,-0.65625,-4.766788766788767,0.0,0.0,0.0,0.0,-0.625,-5.3699633699633695,0.0,-0.6849816849816851,0.0,0.0,-0.53125,-4.910866910866911,0.0,-0.6105006105006106,0.0,0.0,0.0,-4.638583638583639,0.0,-0.8595848595848596,0.0,0.0,0.0,,,,,,,,,,,,,,,,,,,,,,,,,,,,,,,,,,,,,,,,,,,,,,,,,,,,,,,movNegX
accX,0.0,0.5091575091575091,0.0,0.0,0.0,0.0,0.0,0.0,0.9023199023199024,0.75,0.0,0.0,-0.536019536019536,-1.31990231990232,-1.431013431013431,0.71875,0.0,0.0,-0.5311355311355311,-1.0683760683760684,-2.207570207570208,0.0,0.0,0.0,0.0,0.0,0.0,-0.84375,0.0,0.0,0.0,0.0,0.9865689865689866,0.0,0.0,0.0,0.0,-0.5409035409035409,0.0,0.0,0.0,0.0,0.8009768009768009,-0.9328449328449328,-0.8876678876678876,0.0,0.0,0.0,0.0,0.0,-0.6495726495726496,0.0,0.0,0.0,0.8595848595848596,0.0,0.0,0.0,0.0,0.0,0.0,0.0,0.0,0.0,0.0,0.0,-0.6434676434676435,0.0,0.0,0.0,0.0,-0.53125,0.0,0.0,0.0,0.0,0.0,0.0,0.0,0.0,0.0,0.0,0.0,0.0,0.0,0.0,0.0,0.0,0.0,0.0,0.0,-0.5067155067155067,0.0,0.0,0.0,-0.78125,-0.5177045177045178,0.0,0.0,0.0,0.0,-0.84375,0.0,-0.5445665445665445,0.0,0.0,0.0,-0.6875,0.0,0.0,0.0,0.0,0.0,-0.6875,-0.6947496947496947,0.0,0.0,0.0,0.0,-0.8125,-0.6434676434676435,0.0,0.0,0.0,0.0,-0.9375,0.0,-0.8046398046398047,0.0,0.0,0.0,-0.90625,0.0,-1.194139194139194,0.0,0.0,0.0,-0.84375,-0.8107448107448108,-1.1526251526251523,-0.6214896214896215,0.0,0.0,-0.875,-1.1807081807081807,0.0,0.0,0.0,0.0,-0.84375,0.0,-0.9242979242979243,0.0,0.0,0.0,-0.875,0.0,-1.7655677655677655,-0.6886446886446886,0.0,0.0,-1.03125,-1.3797313797313795,-1.4126984126984128,-0.9133089133089132,0.0,0.0,-1.0,-2.128205128205128,-0.5506715506715507,-0.6556776556776557,0.0,0.0,-0.9375,-1.9523809523809523,0.0,0.0,0.0,0.0,-0.875,-1.266178266178266,-1.21001221001221,0.0,0.0,0.0,-0.9375,-1.95970695970696,-1.9743589743589745,0.0,0.0,0.0,-1.03125,-2.8534798534798536,-1.5677655677655675,-0.5702075702075702,0.0,0.0,-0.96875,-2.6666666666666665,-0.5665445665445665,0.0,0.0,0.0,-0.6875,-2.208791208791209,-0.7619047619047619,0.0,0.0,0.0,-0.71875,-4.25030525030525,-0.993894993894994,0.0,0.0,0.0,-0.8125,-5.196581196581198,0.0,0.5396825396825397,0.0,0.0,-0.84375,-4.947496947496949,0.0,1.0744810744810744,0.0,0.0,-0.53125,-4.401709401709402,0.0,0.8461538461538461,0.0,0.0,0.0,-3.8437118437118434,0.0,0.0,0.0,0.0,0.0,-2.8253968253968256,0.0,0.0,0.0,0.0,0.0,-2.33943833943834,-1.4090354090354091,0.0,0.0,0.0,0.0,,,,,,,,,,,,,,,,,,,,,,,,,,,,,,,,,,,,,,,,,,,,,,,,,,,,,,,,,,,,,movNegX
accX,0.0,0.0,-0.7619047619047619,0.0,0.0,0.0,0.0,0.0,0.0,0.0,0.0,0.0,0.0,0.0,0.0,0.0,0.0,0.0,0.0,-0.6068376068376068,-0.7924297924297924,0.0,0.0,0.0,0.6031746031746031,0.0,0.0,0.0,0.0,0.0,0.7777777777777778,0.0,0.0,0.0,0.0,0.0,0.9523809523809524,0.0,-0.6617826617826618,0.0,0.0,0.0,1.2551892551892552,0.0,-0.6471306471306472,0.0,0.0,0.0,1.1489621489621489,0.0,0.0,0.0,0.0,0.0,0.9743589743589745,0.0,0.0,0.0,0.0,0.0,1.2295482295482296,0.0,0.0,0.0,0.0,0.0,1.3333333333333333,0.0,0.0,0.0,0.0,0.0,1.358974358974359,-0.6007326007326007,0.0,0.0,0.0,0.0,1.1697191697191698,-0.5079365079365079,0.0,0.0,0.0,-0.53125,0.8424908424908425,-0.6178266178266179,0.0,0.0,0.0,-0.625,0.514041514041514,-0.6556776556776557,0.0,0.0,0.0,-0.78125,0.0,0.0,0.0,0.0,0.0,-0.84375,0.8058608058608059,-0.8095238095238095,0.0,0.0,0.0,-0.9375,0.0,-1.1514041514041513,-0.525030525030525,0.0,0.0,-1.0625,-0.8656898656898657,-0.7838827838827839,0.0,0.0,0.0,-1.125,-1.2539682539682542,-0.6507936507936508,0.0,0.0,0.0,-1.125,-0.9963369963369964,-0.9194139194139194,0.0,0.0,0.0,-1.03125,-0.9267399267399268,-1.8131868131868127,0.0,0.0,0.0,-1.03125,-0.8876678876678876,-1.7252747252747254,0.0,0.0,0.0,-1.1875,-0.9987789987789988,-1.15995115995116,0.0,0.0,0.0,-1.25,-2.0793650793650795,0.0,0.0,0.0,0.0,-1.21875,-3.1391941391941387,0.0,0.0,0.0,0.0,-1.0,-1.1257631257631258,-1.6984126984126984,0.0,0.0,0.0,-1.03125,-0.7118437118437119,-2.0354090354090357,0.0,0.0,0.0,-1.125,-1.5897435897435896,-1.0085470085470083,0.5470085470085471,0.0,0.0,-1.1875,-2.3174603174603177,-0.5506715506715507,0.0,0.0,0.0,-1.1875,-2.1697191697191696,-1.2881562881562882,0.0,0.0,0.0,-1.0625,-2.6581196581196584,-2.2246642246642248,-0.5409035409035409,0.0,0.0,-1.0625,-3.5164835164835164,-1.9694749694749696,0.0,0.0,0.0,-1.0625,-3.6727716727716726,-1.0903540903540905,0.6019536019536019,0.0,0.0,-1.15625,-4.0427350427350435,0.0,0.7423687423687424,0.0,0.0,-1.03125,-4.36019536019536,0.0,0.0,0.0,0.0,-0.8125,-4.021978021978022,-1.0586080586080586,-0.8253968253968254,0.0,0.0,-0.625,-4.78998778998779,-0.6092796092796092,-0.9047619047619048,0.0,0.0,0.0,-4.493284493284493,0.0,-0.6556776556776557,0.0,0.0,0.0,-3.272283272283272,-0.5518925518925519,0.0,0.0,0.0,0.0,-3.5177045177045176,-1.006105006105006,0.0,0.0,0.0,0.0,,,,,,,,,,,,,,,,,,,,,,,,,,,,,,,,,,,,,,,,,,,,,,,,,,,,,,,,,,,,,movNegX
accX,0.0,0.0,0.0,0.0,0.0,0.0,0.0,0.0,0.0,0.0,0.0,0.0,0.0,0.0,0.0,0.0,0.0,0.0,0.0,-0.557997557997558,0.0,0.0,0.0,0.0,0.0,0.0,0.0,0.0,0.0,0.0,0.0,0.0,0.0,0.0,0.0,0.0,0.0,0.0,0.0,0.0,0.0,0.0,0.0,0.0,0.0,0.0,0.0,0.0,0.6837606837606838,0.0,0.0,0.0,0.0,0.0,1.4126984126984128,-0.6617826617826618,0.0,0.0,0.0,0.0,1.6495726495726497,-0.5836385836385837,0.0,0.0,0.0,0.0,1.0952380952380951,0.0,0.0,0.0,0.0,0.0,0.8168498168498168,0.0,0.0,0.0,0.0,0.0,0.7313797313797313,0.0,0.0,0.0,0.0,-0.59375,0.9157509157509156,0.0,0.0,0.0,0.0,-0.53125,0.7765567765567766,-0.5262515262515263,0.0,0.0,0.0,-0.59375,0.7448107448107448,0.0,0.0,0.0,0.0,-0.625,0.0,0.0,0.0,0.0,0.0,-0.8125,0.0,0.0,0.0,0.0,0.0,-0.9375,0.0,-0.7277167277167277,-0.7997557997557998,0.0,0.0,-0.9375,0.0,-0.9145299145299144,-0.7912087912087912,0.0,0.0,-0.96875,-0.8583638583638583,-1.0415140415140416,-0.8742368742368742,0.0,0.0,-1.0625,0.0,-1.3089133089133091,-0.7435897435897436,0.0,0.0,-1.125,0.6080586080586079,-2.0989010989010994,0.0,0.0,0.0,-1.1875,0.0,-1.9792429792429795,0.0,0.0,0.0,-1.34375,-1.7924297924297925,-1.3223443223443223,0.0,0.0,0.0,-1.5,-1.967032967032967,-1.065934065934066,0.0,0.0,0.0,-1.4375,-1.761904761904762,-2.0097680097680097,0.0,0.0,0.0,-1.375,-2.52014652014652,-1.9255189255189256,0.0,0.0,0.0,-1.28125,-2.6483516483516483,-1.608058608058608,0.5054945054945055,0.0,0.0,-1.40625,-3.5738705738705736,-1.1868131868131868,0.0,0.0,0.0,-1.3125,-4.012210012210011,-1.7155067155067154,-0.7619047619047619,0.0,0.0,-1.1875,-3.897435897435898,-2.0744810744810747,0.0,0.0,0.0,-1.0625,-3.9645909645909647,-1.724053724053724,0.5738705738705738,0.0,0.0,-1.125,-4.377289377289378,-1.2185592185592184,1.1623931623931625,0.0,0.0,-1.1875,-4.565323565323566,-1.568986568986569,0.0,0.0,0.0,-1.03125,-5.459096459096459,-1.5518925518925517,0.0,0.0,0.0,-0.9375,-6.6996336996337,-0.6446886446886447,0.0,0.0,0.0,-0.75,-7.811965811965813,0.7032967032967034,0.5604395604395604,0.0,0.0,-0.53125,-6.869352869352869,0.5311355311355311,0.8351648351648352,0.0,0.0,0.0,-4.854700854700853,0.0,0.5274725274725275,0.0,0.0,0.0,-4.197802197802199,-0.9645909645909646,0.0,0.0,0.0,0.0,-4.61050061050061,-1.3736263736263736,0.0,0.0,0.0,0.0,,,,,,,,,,,,,,,,,,,,,,,,,,,,,,,,,,,,,,,,,,,,,,,,,,,,,,,movNegX
accX,-0.9694749694749696,0.5921855921855922,0.0,0.0,0.0,0.0,0.0,0.6874236874236874,0.6373626373626373,0.625,0.0,0.0,0.0,0.0,0.0,0.0,0.0,0.0,0.0,-1.5494505494505495,-1.1843711843711844,0.0,0.0,0.0,0.0,-0.9706959706959708,-1.0805860805860803,-0.90625,0.0,0.0,0.0,0.0,0.5433455433455433,0.0,0.0,0.0,0.0,0.0,0.0,0.0,0.0,0.0,0.6666666666666666,0.0,0.0,0.0,0.0,0.0,1.3504273504273503,-0.5592185592185592,0.0,0.0,0.0,0.0,1.6825396825396826,0.0,0.0,0.0,0.0,0.0,1.336996336996337,0.0,0.0,0.0,0.0,0.0,1.3907203907203909,0.0,0.0,0.0,0.0,0.0,2.84004884004884,-1.2417582417582418,0.0,0.0,0.0,0.0,1.7777777777777777,-0.9426129426129426,0.518925518925519,0.0,0.0,-0.625,-0.7545787545787546,0.0,-0.6532356532356532,0.0,0.0,-0.75,0.0,-0.5750915750915749,-1.1843711843711844,0.0,0.0,-0.75,0.0,-0.9377289377289376,-1.043956043956044,0.0,0.0,-0.8125,0.0,-0.8852258852258852,-0.5213675213675214,0.0,0.0,-1.03125,-0.6141636141636142,-0.9304029304029304,0.0,0.0,0.0,-1.15625,-0.7032967032967034,-0.8791208791208791,0.0,0.0,0.0,-1.25,-1.061050061050061,-0.6336996336996337,0.0,0.0,0.0,-1.28125,-1.4078144078144081,-0.778998778998779,-0.6446886446886447,0.0,0.0,-1.1875,-1.362637362637363,-0.7912087912087912,-0.6703296703296703,0.0,0.0,-1.125,-0.9316239316239316,-1.0561660561660562,0.0,0.0,0.0,-1.125,-0.9572649572649572,-1.2796092796092795,0.0,0.0,0.0,-1.15625,-1.5238095238095235,-1.1709401709401708,0.0,0.0,0.0,-1.21875,-1.7387057387057387,-0.7423687423687424,0.0,0.0,0.0,-1.1875,-1.9377289377289375,-1.0231990231990231,0.0,0.0,0.0,-1.15625,-1.5726495726495726,-1.9365079365079363,0.0,0.0,0.0,-1.09375,-0.9059829059829059,-1.656898656898657,0.0,0.0,0.0,-1.0625,-2.1709401709401708,-0.6581196581196581,0.9694749694749696,0.0,0.0,-1.09375,-1.8901098901098898,-1.4737484737484738,1.1001221001221002,0.0,0.0,-1.125,-1.6727716727716728,-1.809523809523809,0.0,0.0,0.0,-1.0625,-2.4945054945054945,-1.0293040293040292,-0.9462759462759462,0.0,0.0,-0.9375,-3.1245421245421245,0.0,-0.6764346764346765,0.0,0.0,-0.8125,-3.6581196581196584,0.0,0.0,0.0,0.0,-0.78125,-3.764346764346764,-0.7203907203907204,0.0,0.0,0.0,-0.75,-3.0073260073260077,-1.9938949938949944,-0.6166056166056166,0.0,0.0,-0.71875,-3.632478632478633,-1.5054945054945057,-0.7594627594627594,0.0,0.0,-0.625,-4.7704517704517695,0.0,0.0,0.0,0.0,0.0,-5.0769230769230775,1.0366300366300367,1.1184371184371185,0.0,0.0,0.0,-4.256410256410256,0.0,0.0,0.0,0.0,0.0,-3.1978021978021984,-1.1062271062271063,-0.7094017094017094,0.0,0.0,0.0,,,,,,,,,,,,,,,,,,,,,,,,,,,,,,,,,,,,,,,,,,,,,,,,,,,,,,,movNegX
accX,0.0,0.0,0.0,0.0,0.0,0.0,-0.7032967032967034,0.0,-0.6031746031746031,0.0,0.0,0.0,0.0,0.0,0.0,0.0,0.0,0.0,0.0,0.0,0.0,0.0,0.0,0.0,0.0,0.0,0.0,0.0,0.0,0.0,0.0,0.0,0.0,0.0,0.0,0.0,0.0,0.0,0.0,0.0,0.0,0.0,0.0,-0.6910866910866911,-0.7008547008547008,0.0,0.0,0.0,0.0,0.0,-0.8156288156288156,-0.5625,0.0,0.0,0.0,0.0,0.0,0.0,0.0,0.0,0.0,0.0,0.0,0.0,0.0,0.0,0.7155067155067155,0.0,-0.7191697191697192,0.0,0.0,0.0,1.0268620268620268,-0.5409035409035409,-1.1526251526251523,0.0,0.0,0.0,1.4847374847374848,-0.6532356532356532,-0.8205128205128205,0.0,0.0,0.0,1.092796092796093,0.0,0.0,0.0,0.0,0.0,1.122100122100122,-0.5921855921855922,0.0,0.0,0.0,0.0,1.7167277167277166,-1.1245421245421243,-0.6031746031746031,0.0,0.0,-0.53125,0.7814407814407814,-0.7057387057387058,0.0,0.0,0.0,-0.8125,0.0,-0.6605616605616605,-0.557997557997558,0.0,0.0,-0.875,0.757020757020757,-1.2087912087912087,0.0,0.0,0.0,-0.90625,0.0,-0.8901098901098901,0.0,0.0,0.0,-1.0625,0.0,0.0,0.7692307692307693,0.0,0.0,-1.0625,0.0,0.0,0.0,0.0,0.0,-1.09375,1.468864468864469,-2.398046398046398,-0.5592185592185592,0.0,0.5625,-1.0,0.8278388278388278,-3.3443223443223444,-1.0036630036630036,0.0,0.0,-1.09375,-2.216117216117216,-1.5177045177045176,0.0,0.0,0.0,-1.40625,-3.283272283272283,-0.7728937728937729,0.0,0.0,0.5625,-1.46875,-2.5689865689865687,-2.0476190476190474,0.0,0.0,0.75,-1.40625,-2.763125763125763,-2.7948717948717947,-0.5006105006105006,0.0,0.0,-1.25,-3.601953601953602,-1.9938949938949944,0.0,0.0,0.0,-1.21875,-3.8669108669108665,-0.6410256410256411,0.525030525030525,0.0,0.0,-1.25,-4.468864468864469,-0.9926739926739928,0.0,0.0,0.0,-1.25,-3.75946275946276,-2.380952380952381,-0.5396825396825397,0.0,0.0,-1.125,-2.6910866910866917,-2.2808302808302807,0.0,0.0,0.0,-1.125,-3.8058608058608057,-0.7533577533577533,0.0,0.0,0.0,-1.09375,-4.532356532356532,-0.9450549450549449,-0.7008547008547008,0.0,0.0,-1.0625,-4.8107448107448105,-1.5128205128205128,-0.9768009768009768,0.0,0.0,-1.03125,-4.650793650793651,-0.9072039072039072,0.0,0.0,0.0,-0.78125,-4.124542124542124,-0.5213675213675214,0.0,0.0,0.0,-0.59375,-5.05982905982906,0.0,0.0,0.0,0.0,-0.625,-4.703296703296704,-0.9487179487179488,-1.0769230769230769,0.0,0.0,-0.625,-4.305250305250305,-1.4810744810744811,-1.3724053724053724,0.0,0.0,0.0,-4.410256410256411,-0.9865689865689866,-0.8449328449328449,0.0,0.0,0.0,-3.8766788766788767,-0.9768009768009768,0.0,0.0,0.0,0.0,-3.122100122100122,-1.192918192918193,0.7374847374847375,0.0,0.0,0.0,-4.006105006105006,-1.434676434676435,0.0,0.0,0.0,0.0,,,,,,,,,,,,,,,,,,,,,,,,,,,,,,,,,,,,,movNegX
accX,0.5079365079365079,0.8034188034188035,0.0,0.0,0.0,0.0,0.8131868131868132,-0.5702075702075702,0.0,0.875,0.0,0.0,0.7057387057387058,-1.2185592185592184,-1.065934065934066,0.0,0.0,0.0,0.0,-0.7130647130647131,-1.894993894993895,-0.65625,0.0,0.0,0.0,0.0,-0.5421245421245421,-0.65625,0.0,0.0,0.0,0.0,0.8070818070818071,0.0,0.0,0.0,0.0,0.0,0.0,0.0,0.0,0.0,0.0,-0.7533577533577533,-0.8058608058608059,0.0,0.0,0.0,0.0,-0.5763125763125763,-0.6459096459096461,0.0,0.0,0.0,0.0,0.0,0.0,0.0,0.0,0.0,0.0,0.0,0.0,0.0,0.0,0.0,0.0,0.0,-0.6056166056166056,0.0,0.0,0.0,0.8009768009768009,-0.5653235653235653,0.0,0.0,0.0,0.0,0.7032967032967034,-0.6288156288156288,0.0,0.0,0.0,0.0,0.0,-0.5311355311355311,0.0,0.0,0.0,-0.5625,0.0,-0.6422466422466423,-0.5164835164835165,0.0,0.0,-0.625,0.0,-0.5299145299145299,0.0,0.0,0.0,-0.625,0.0,-0.5946275946275946,-0.8070818070818071,0.0,0.0,-0.71875,-0.6105006105006106,-0.8156288156288156,-1.1172161172161172,0.0,0.0,-0.75,0.0,-0.5641025641025641,-0.7167277167277167,0.0,0.0,-0.75,0.0,0.0,0.0,0.0,0.0,-0.78125,0.0,0.0,0.0,0.0,0.0,-0.84375,-0.5604395604395604,-0.6019536019536019,0.0,0.0,0.0,-0.9375,-0.5702075702075702,-1.1733821733821734,-1.0451770451770452,0.0,0.0,-1.15625,-1.3333333333333333,-0.6752136752136753,-0.6105006105006106,0.0,0.0,-1.15625,-1.8901098901098898,0.0,0.0,0.0,0.0,-1.03125,-1.3418803418803418,0.0,0.0,0.0,0.0,-0.90625,0.0,0.0,0.0,0.0,0.0,-0.84375,0.0,-2.388278388278388,0.0,0.0,0.0,-0.875,0.0,-1.931623931623932,0.0,0.0,0.0,-1.0625,-0.9389499389499391,-1.3736263736263736,0.0,0.0,0.0,-1.28125,-1.3308913308913308,-1.0085470085470083,0.0,0.0,0.0,-1.3125,-2.075702075702076,-1.7826617826617828,0.0,0.0,0.0,-1.3125,-2.340659340659341,-2.2002442002442004,0.0,0.0,0.0,-1.3125,-2.6984126984126986,-1.5030525030525033,0.0,0.0,0.0,-1.375,-3.225885225885226,-0.8437118437118437,0.0,0.0,0.0,-1.5,-3.8583638583638575,-0.9169719169719168,-0.6153846153846154,0.0,0.0,-1.34375,-3.2698412698412698,-1.8913308913308915,-1.3858363858363858,0.0,0.0,-1.09375,-1.9975579975579976,-2.57997557997558,-0.6166056166056166,0.0,0.0,-0.90625,-2.3785103785103785,-2.056166056166056,0.5567765567765568,0.0,0.0,-1.0,-3.725274725274725,-1.3711843711843712,0.5982905982905983,0.0,0.0,-1.25,-4.345543345543345,-0.8131868131868132,0.0,0.0,0.0,-1.15625,-4.422466422466423,0.0,0.0,0.0,0.0,-0.84375,-4.3137973137973145,0.6507936507936508,0.0,0.0,0.0,-0.59375,-4.390720390720391,1.1709401709401708,0.0,0.0,0.0,0.0,-4.037851037851038,0.0,0.0,0.0,0.0,0.0,-3.5641025641025643,-1.5079365079365081,0.0,0.0,0.0,-0.53125,-4.195360195360196,0.0,0.0,0.0,0.0,-0.59375,-4.518925518925518,0.8620268620268621,0.0,0.0,0.0,0.0,-4.424908424908424,0.0,-0.6153846153846154,0.0,0.0,0.0,-3.6507936507936503,0.0,0.0,0.0,0.0,0.0,-3.0293040293040288,-0.9902319902319904,0.0,0.0,0.0,0.0,movNegX
