,00_accX,00_accY,00_accZ,00_gyroX,00_gyroY,00_gyroZ,01_accX,01_accY,01_accZ,01_gyroX,01_gyroY,01_gyroZ,02_accX,02_accY,02_accZ,02_gyroX,02_gyroY,02_gyroZ,03_accX,03_accY,03_accZ,03_gyroX,03_gyroY,03_gyroZ,04_accX,04_accY,04_accZ,04_gyroX,04_gyroY,04_gyroZ,05_accX,05_accY,05_accZ,05_gyroX,05_gyroY,05_gyroZ,06_accX,06_accY,06_accZ,06_gyroX,06_gyroY,06_gyroZ,07_accX,07_accY,07_accZ,07_gyroX,07_gyroY,07_gyroZ,08_accX,08_accY,08_accZ,08_gyroX,08_gyroY,08_gyroZ,09_accX,09_accY,09_accZ,09_gyroX,09_gyroY,09_gyroZ,10_accX,10_accY,10_accZ,10_gyroX,10_gyroY,10_gyroZ,11_accX,11_accY,11_accZ,11_gyroX,11_gyroY,11_gyroZ,12_accX,12_accY,12_accZ,12_gyroX,12_gyroY,12_gyroZ,13_accX,13_accY,13_accZ,13_gyroX,13_gyroY,13_gyroZ,14_accX,14_accY,14_accZ,14_gyroX,14_gyroY,14_gyroZ,15_accX,15_accY,15_accZ,15_gyroX,15_gyroY,15_gyroZ,16_accX,16_accY,16_accZ,16_gyroX,16_gyroY,16_gyroZ,17_accX,17_accY,17_accZ,17_gyroX,17_gyroY,17_gyroZ,18_accX,18_accY,18_accZ,18_gyroX,18_gyroY,18_gyroZ,19_accX,19_accY,19_accZ,19_gyroX,19_gyroY,19_gyroZ,20_accX,20_accY,20_accZ,20_gyroX,20_gyroY,20_gyroZ,21_accX,21_accY,21_accZ,21_gyroX,21_gyroY,21_gyroZ,22_accX,22_accY,22_accZ,22_gyroX,22_gyroY,22_gyroZ,23_accX,23_accY,23_accZ,23_gyroX,23_gyroY,23_gyroZ,24_accX,24_accY,24_accZ,24_gyroX,24_gyroY,24_gyroZ,25_accX,25_accY,25_accZ,25_gyroX,25_gyroY,25_gyroZ,26_accX,26_accY,26_accZ,26_gyroX,26_gyroY,26_gyroZ,27_accX,27_accY,27_accZ,27_gyroX,27_gyroY,27_gyroZ,28_accX,28_accY,28_accZ,28_gyroX,28_gyroY,28_gyroZ,29_accX,29_accY,29_accZ,29_gyroX,29_gyroY,29_gyroZ,30_accX,30_accY,30_accZ,30_gyroX,30_gyroY,30_gyroZ,31_accX,31_accY,31_accZ,31_gyroX,31_gyroY,31_gyroZ,32_accX,32_accY,32_accZ,32_gyroX,32_gyroY,32_gyroZ,33_accX,33_accY,33_accZ,33_gyroX,33_gyroY,33_gyroZ,34_accX,34_accY,34_accZ,34_gyroX,34_gyroY,34_gyroZ,35_accX,35_accY,35_accZ,35_gyroX,35_gyroY,35_gyroZ,36_accX,36_accY,36_accZ,36_gyroX,36_gyroY,36_gyroZ,37_accX,37_accY,37_accZ,37_gyroX,37_gyroY,37_gyroZ,38_accX,38_accY,38_accZ,38_gyroX,38_gyroY,38_gyroZ,39_accX,39_accY,39_accZ,39_gyroX,39_gyroY,39_gyroZ,40_accX,40_accY,40_accZ,40_gyroX,40_gyroY,40_gyroZ,41_accX,41_accY,41_accZ,41_gyroX,41_gyroY,41_gyroZ,42_accX,42_accY,42_accZ,42_gyroX,42_gyroY,42_gyroZ,43_accX,43_accY,43_accZ,43_gyroX,43_gyroY,43_gyroZ,44_accX,44_accY,44_accZ,44_gyroX,44_gyroY,44_gyroZ,45_accX,45_accY,45_accZ,45_gyroX,45_gyroY,45_gyroZ,46_accX,46_accY,46_accZ,46_gyroX,46_gyroY,46_gyroZ,category
accX,0.0,0.0,0.0,0.0,0.0,0.0,0.0,-0.6019536019536019,-0.525030525030525,0.0,0.0,0.0,0.0,0.0,0.0,0.0,0.0,0.0,0.0,0.0,0.0,0.0,0.0,0.0,0.0,-0.6520146520146519,0.0,-0.53125,0.0,0.0,0.0,0.0,0.0,0.0,0.0,0.0,0.0,0.0,0.0,0.0,0.0,0.0,0.0,-1.1172161172161172,0.0,0.0,0.0,0.0,0.0,-2.0976800976800978,-1.2075702075702075,0.0,0.0,0.0,0.0,-3.2564102564102564,-1.827838827838828,0.0,0.0,0.0,0.0,-3.1343101343101343,-1.0549450549450552,-0.75,0.0,0.0,0.7264957264957265,-2.6263736263736264,0.0,0.0,0.0,0.0,0.0,-3.686202686202686,0.0,0.0,0.0,0.0,0.0,-4.483516483516484,-1.0256410256410255,0.0,-0.59375,0.0,-1.4603174603174602,-3.9926739926739927,-1.3040293040293038,-0.6875,0.0,0.0,-2.238095238095238,-3.6984126984126986,-0.7301587301587301,0.0,0.53125,0.0,0.0,-3.8058608058608057,0.6898656898656899,0.0,0.0,0.0,0.0,-2.965811965811966,1.363858363858364,0.0,-0.625,0.0,0.0,-2.978021978021978,1.4407814407814408,0.0,0.0,0.0,-0.6642246642246642,-2.6971916971916974,0.8852258852258852,-0.53125,0.0,0.0,0.0,-2.5311355311355306,1.144078144078144,0.0,0.59375,0.0,0.8974358974358975,-2.4163614163614158,1.4017094017094016,0.0,0.0,0.0,0.6471306471306472,-1.188034188034188,1.343101343101343,0.0,0.0,0.0,1.0989010989010992,-1.7545787545787546,0.0,-0.75,0.0,0.0,0.0,0.0,0.5054945054945055,-0.875,0.0,0.0,-0.8742368742368742,3.101343101343101,1.678876678876679,0.0,0.0,0.0,-1.194139194139194,3.868131868131868,1.3650793650793651,0.0,0.0,0.0,-1.3296703296703296,4.106227106227107,0.0,0.0,0.0,0.0,0.0,4.609279609279608,-0.8192918192918193,-0.53125,0.0,0.0,-0.9267399267399268,6.358974358974358,0.0,0.0,0.0,0.0,0.0,4.308913308913309,-0.8168498168498168,0.0,0.0,0.0,1.68986568986569,3.346764346764347,-1.0781440781440779,0.0,0.0,0.0,1.0586080586080586,4.2735042735042725,0.0,0.0,0.0,0.0,-0.5225885225885226,5.124542124542124,0.0,0.0,0.71875,0.0,-1.623931623931624,6.433455433455434,0.6056166056166056,0.0,0.65625,0.0,-1.4163614163614164,5.947496947496947,1.0463980463980465,0.0,0.0,0.0,0.0,3.8608058608058613,0.0,0.0,0.0,0.0,,,,,,,,,,,,,,,,,,,,,,,,,,,,,,,,,,,,,,,,,,,,,,,,,,,,,,,,,,,,,movNegY
accX,0.0,-0.8424908424908425,0.0,0.0,0.0,0.0,-1.0952380952380951,-1.3015873015873016,-1.0732600732600732,0.0,0.0,0.0,-2.52991452991453,0.0,-0.6654456654456654,0.0,0.0,0.0,0.0,0.0,0.0,0.0,0.59375,0.0,1.4004884004884004,-1.2295482295482296,0.6422466422466423,0.0,0.0,0.0,0.0,-1.1318681318681318,0.0,0.0,0.0,0.0,0.0,-1.5836385836385836,-0.6178266178266179,0.0,0.0,0.0,1.3357753357753357,-3.2759462759462763,-1.3345543345543345,0.0,0.0,0.0,0.0,-3.43956043956044,-1.1306471306471306,0.0,-0.625,0.0,-0.6398046398046398,-2.8131868131868134,0.0,0.0,0.0,0.0,-0.8144078144078144,-3.021978021978022,0.0,0.0,0.0,0.0,0.0,-3.236874236874237,0.0,-0.8125,0.0,0.0,0.0,-4.020757020757022,0.0,-0.75,0.0,0.0,-0.7435897435897436,-5.1440781440781445,-0.6031746031746031,0.0,0.0,0.0,-0.8400488400488401,-4.0927960927960925,0.0,-0.625,0.0,0.0,0.0,-3.3015873015873014,1.938949938949939,0.0,0.0,0.0,0.0,-3.870573870573871,1.0134310134310134,0.0,-0.625,0.0,-1.0952380952380951,-4.556776556776557,0.0,-0.53125,0.0,0.0,-0.5641025641025641,-4.766788766788767,0.0,-0.65625,0.0,0.0,0.0,-2.625152625152625,1.565323565323565,-0.71875,0.0,0.0,0.6398046398046398,-0.6556776556776557,3.0818070818070824,-0.625,0.0,0.0,0.0,0.5946275946275946,2.3968253968253967,-0.65625,0.0,0.0,0.0,0.7264957264957265,2.244200244200244,-0.59375,0.0,0.0,0.0,1.0622710622710625,1.1855921855921856,0.0,0.0,0.0,-0.5201465201465202,2.133089133089133,0.9242979242979243,0.0,0.0,0.0,1.0244200244200243,4.199023199023198,0.6996336996336996,0.0,0.0,0.0,0.0,6.6984126984126995,-0.7997557997557998,0.0,0.0,0.0,-0.9682539682539684,7.792429792429793,-1.5543345543345544,0.6875,0.5625,-0.75,-2.347985347985348,7.676434676434678,-1.5164835164835164,0.71875,1.1875,-0.78125,-3.0134310134310134,7.526251526251526,-2.1684981684981683,0.5625,1.125,0.0,-1.9694749694749696,7.785103785103785,-1.612942612942613,0.0,0.65625,0.0,0.7765567765567766,6.068376068376068,0.0,0.0,0.59375,0.0,1.192918192918193,4.771672771672772,0.7448107448107448,0.0,0.0,0.0,0.503052503052503,3.5006105006105006,0.0,0.0,0.0,0.0,-1.1697191697191698,3.7655677655677655,-0.9963369963369964,0.0,-0.5625,0.0,-1.2368742368742371,2.590964590964591,-2.083028083028083,0.0,0.0,0.0,,,,,,,,,,,,,,,,,,,,,,,,,,,,,,,,,,,,,,,,,,,,,,,,,,,,,,,,,,,,,,,,,,,movNegY
accX,0.0,0.0,0.5286935286935287,0.0,0.0,0.0,-0.984126984126984,-0.7802197802197802,0.0,0.0,0.0,0.0,-1.95970695970696,-0.8803418803418803,-0.8852258852258852,0.0,0.0,0.0,0.0,-1.6312576312576312,-0.73992673992674,0.0,0.0,0.0,1.0708180708180708,-1.3418803418803418,0.0,-0.5625,0.0,0.0,0.5628815628815629,-1.2161172161172158,0.0,0.0,0.0,0.0,0.0,-1.1916971916971917,-0.9059829059829059,0.0,0.0,0.0,0.0,-1.0024420024420024,-0.6996336996336996,0.0,0.0,0.0,0.5262515262515263,-1.3553113553113554,0.0,0.0,-0.5625,0.0,-0.5054945054945055,-1.5763125763125765,0.0,0.0,0.0,0.0,-0.757020757020757,-2.1855921855921854,-0.6935286935286935,0.0,0.0,0.0,0.0,-3.551892551892552,-1.2026862026862026,0.0,0.0,0.0,-0.7704517704517705,-3.5409035409035408,-1.0158730158730158,0.0,0.0,0.0,-1.0622710622710625,-2.8974358974358974,0.0,0.0,0.59375,0.0,0.9072039072039072,-4.362637362637362,-0.7142857142857143,0.0,0.5625,0.0,1.2332112332112333,-5.231990231990231,0.0,-0.65625,-0.625,0.0,-1.5335775335775337,-3.4725274725274726,0.9914529914529916,-1.28125,-1.09375,0.0,-2.7484737484737485,-2.9145299145299144,1.7716727716727716,-0.875,0.0,0.0,-0.5506715506715507,-4.7704517704517695,1.6324786324786325,0.0,0.5625,0.0,0.5836385836385837,-4.263736263736264,0.0,0.0,0.0,0.0,0.0,-2.4725274725274726,1.2808302808302807,-0.75,0.0,0.0,0.0,-2.004884004884005,1.2612942612942613,-0.6875,0.0,0.0,-0.6092796092796092,-1.264957264957265,1.4957264957264955,0.0,0.0,0.0,-1.1514041514041513,0.0,1.4468864468864469,0.0,0.0,0.0,0.0,0.9951159951159952,0.7338217338217338,0.0,0.0,0.0,0.0,3.0793650793650795,0.0,0.0,-0.5625,0.0,0.0,4.1330891330891335,0.0,0.0,0.0,0.0,-0.5946275946275946,4.62026862026862,-0.7728937728937729,0.53125,0.0,0.0,0.0,5.503052503052503,-1.382173382173382,0.0,0.0,0.0,0.0,6.0818070818070815,-0.7728937728937729,0.0,0.0,0.0,-2.092796092796093,6.763125763125763,0.0,0.0,0.0,-0.75,-1.4126984126984128,6.7997557997558,-0.7741147741147741,0.71875,0.625,-0.625,-1.21978021978022,6.245421245421245,-1.4334554334554337,0.0,0.0,0.0,0.0,4.854700854700853,-1.120879120879121,0.0,0.0,0.0,0.8620268620268621,4.931623931623932,0.818070818070818,0.0,0.0,0.0,0.0,4.700854700854701,1.326007326007326,0.0,0.0,0.0,0.5323565323565324,3.2954822954822958,0.0,0.0,0.0,0.0,,,,,,,,,,,,,,,,,,,,,,,,,,,,,,,,,,,,,,,,,,,,,,,,,,,,,,,,,,,,,movNegY
accX,0.0,0.0,0.0,0.0,0.0,0.0,0.0,-1.195360195360195,0.0,0.71875,0.0,0.0,0.0,-2.1465201465201464,0.0,0.0,0.0,0.0,0.0,-2.028083028083028,-0.956043956043956,0.0,0.0,0.0,0.0,-1.3956043956043955,-0.6739926739926739,-0.84375,0.0,0.0,0.0,-1.0402930402930404,0.0,0.0,0.0,0.0,0.6043956043956044,-2.122100122100122,0.0,0.0,0.0,0.0,1.1404151404151404,-2.8107448107448105,0.0,0.0,0.0,0.0,0.0,-2.3443223443223444,0.0,0.0,0.0,0.0,-1.5506715506715507,-2.2063492063492065,0.0,0.0,0.0,0.0,-1.021978021978022,-2.6166056166056166,0.0,0.0,0.0,0.0,0.0,-3.0488400488400487,0.0,0.0,0.0,0.0,0.5115995115995116,-4.04029304029304,0.0,0.0,0.0,0.0,0.0,-3.924297924297924,0.0,0.0,0.0,0.0,0.0,-2.6178266178266183,0.6862026862026862,0.0,0.0,0.0,-0.525030525030525,-2.9328449328449326,0.8266178266178266,0.0,0.0,0.0,-0.6398046398046398,-4.407814407814408,0.0,0.0,0.0,0.0,-0.8766788766788767,-4.9865689865689875,-0.5775335775335775,-0.875,0.0,0.0,-0.8192918192918193,-3.137973137973138,0.0,-0.8125,0.0,0.0,0.5592185592185592,-2.445665445665446,0.8473748473748474,0.0,0.0,0.0,1.9255189255189256,-2.527472527472528,0.8620268620268621,0.0,0.0,0.0,0.9914529914529916,-2.1880341880341883,0.6178266178266179,0.0,0.0,0.0,-0.5921855921855922,-0.7814407814407814,0.0,-0.5625,0.0,0.0,-1.266178266178266,1.5482295482295485,1.321123321123321,0.0,0.0,0.0,0.0,3.0354090354090357,1.975579975579976,0.0,0.0,0.0,-0.6910866910866911,4.401709401709402,1.6446886446886446,0.0,0.0,-0.625,0.0,4.062271062271062,0.0,0.0,0.0,0.0,0.0,4.778998778998779,0.0,0.0,0.0,-0.625,-1.4163614163614164,6.553113553113552,0.0,0.0,1.03125,0.0,0.0,7.221001221001222,0.0,0.53125,0.78125,0.0,-0.5262515262515263,6.887667887667887,0.0,0.75,0.8125,0.0,-0.7753357753357754,6.184371184371184,0.0,0.75,1.0625,0.0,0.0,4.84004884004884,-0.7948717948717948,0.0,0.71875,0.0,0.0,5.559218559218558,0.0,0.0,0.0,0.0,,,,,,,,,,,,,,,,,,,,,,,,,,,,,,,,,,,,,,,,,,,,,,,,,,,,,,,,,,,,,,,,,,,,,,,,,,,,,,,movNegY
accX,0.0,0.0,0.851037851037851,0.0,0.0,0.0,0.0,-0.7423687423687424,1.1001221001221002,0.0,0.0,0.0,0.0,-1.6227106227106227,0.0,0.0,0.0,0.0,0.0,-1.5946275946275947,-1.2820512820512822,0.0,0.0,0.0,-0.5152625152625152,-1.4774114774114775,-1.3601953601953602,-0.6875,0.0,0.0,-0.5702075702075702,-2.21978021978022,-1.0903540903540905,-0.53125,0.0,0.0,0.7142857142857143,-3.855921855921856,-1.2210012210012209,0.0,0.0,0.0,1.424908424908425,-3.632478632478633,-0.7484737484737485,0.0,0.0,0.0,0.0,-2.5213675213675213,0.7167277167277167,0.0,-0.71875,0.0,-0.8388278388278388,-2.7203907203907205,0.0,0.0,-0.625,0.0,-1.9865689865689864,-4.4603174603174605,-1.4371184371184371,0.0,0.0,0.0,-1.6434676434676434,-6.289377289377289,-1.8376068376068373,0.0,0.0,0.65625,0.0,-5.173382173382174,-0.6446886446886447,0.0,0.0,0.0,1.4835164835164836,-2.958485958485958,1.6043956043956045,-0.59375,0.0,0.53125,0.0,-1.815628815628816,1.9792429792429795,0.0,0.0,0.0,-2.004884004884005,-2.8852258852258847,0.5982905982905983,0.0,0.0,0.0,-2.3418803418803416,-2.2967032967032965,0.5824175824175825,-0.65625,0.65625,0.0,0.0,0.0,2.705738705738706,-0.84375,0.0,0.0,0.0,0.0,2.9670329670329667,-0.90625,-0.625,0.0,-0.9291819291819292,0.8827838827838828,2.358974358974359,0.0,-0.6875,0.0,-0.8363858363858364,0.0,1.0036630036630036,0.0,0.0,-0.65625,0.0,-0.5641025641025641,0.0,0.0,0.0,-0.625,0.0,0.7106227106227107,0.6495726495726496,0.0,0.0,-0.59375,,,,,,,,,,,,,,,,,,,,,,,,,,,,,,,,,,,,,,,,,,,,,,,,,,,,,,,,,,,,,,,,,,,,,,,,,,,,,,,,,,,,,,,,,,,,,,,,,,,,,,,,,,,,,,,,,,,,,,,,,,,,,,,,,,,,,,,,,,,,,,,,,movNegY
accX,0.0,0.0,0.989010989010989,0.8125,0.0,0.0,0.0,-1.1819291819291822,0.0,0.59375,0.0,0.0,0.0,-1.2564102564102564,-1.1465201465201464,0.0,0.0,0.0,-1.1526251526251523,-1.0024420024420024,-1.1147741147741148,0.0,0.0,0.0,-0.5372405372405372,-0.8852258852258852,-0.6080586080586079,-0.625,0.0,0.0,0.6739926739926739,-0.6385836385836385,0.0,0.0,0.0,0.0,0.5543345543345544,-1.5714285714285714,0.0,0.0,0.0,0.0,0.0,-2.155067155067155,-0.6849816849816851,0.0,0.0,0.0,0.0,-2.4236874236874235,-0.9084249084249084,0.0,0.0,0.0,0.0,-2.505494505494505,-0.5824175824175825,0.0,0.0,0.0,-0.5531135531135531,-2.484737484737485,0.0,0.0,0.0,0.0,0.0,-2.4761904761904763,0.0,0.0,0.0,0.0,0.0,-2.311355311355311,0.7252747252747253,0.0,0.0,0.0,0.0,-3.669108669108669,0.0,0.0,0.0,0.0,0.0,-3.8949938949938954,0.0,0.0,0.0,0.0,0.5909645909645911,-2.1001221001221,1.5518925518925517,0.0,0.0,0.0,0.0,-1.424908424908425,2.227106227106227,0.0,0.0,0.0,-0.934065934065934,-2.2051282051282053,1.1465201465201464,0.0,0.0,0.0,-2.021978021978022,-3.1037851037851034,0.0,0.0,0.0,0.0,-0.778998778998779,-3.398046398046398,-0.7533577533577533,-0.53125,0.0,0.0,0.0,-1.8608058608058609,0.0,-0.875,0.0,0.0,0.0,-1.2673992673992671,0.7863247863247863,-0.78125,0.0,0.0,0.0,-1.73992673992674,0.6752136752136753,-0.625,0.0,0.0,0.0,-2.655677655677656,1.010989010989011,0.0,0.0,0.0,0.0,-1.2844932844932846,0.7252747252747253,0.0,0.0,0.0,0.0,1.7252747252747254,0.0,0.0,0.0,0.0,0.6959706959706959,3.467643467643468,-0.7350427350427351,0.0,0.0,-0.75,0.0,3.991452991452992,0.0,0.0,0.0,-0.84375,0.0,4.219780219780221,0.0,0.0,0.0,-0.78125,-2.8656898656898657,7.142857142857142,0.0,0.0,0.0,-0.84375,-3.0085470085470085,9.197802197802195,0.7094017094017094,0.6875,1.0,-1.0,-2.976800976800977,8.974358974358974,0.0,1.0,1.03125,-0.90625,-2.4224664224664223,8.145299145299145,0.0,0.0,0.9375,0.0,-2.655677655677656,8.300366300366301,0.0,0.0,0.53125,0.0,-1.0122100122100122,6.1037851037851025,0.0,0.0,0.0,0.0,1.647130647130647,3.642246642246642,0.0,0.0,0.0,0.65625,,,,,,,,,,,,,,,,,,,,,,,,,,,,,,,,,,,,,,,,,,,,,,,,,,,,,,,,,,,,,,,,,,,movNegY
accX,-1.462759462759463,0.0,0.5152625152625152,0.59375,0.0,0.0,0.0,0.0,1.0757020757020757,0.9375,0.0,0.0,0.5909645909645911,-1.8693528693528692,0.0,0.75,0.0,0.0,0.0,-2.1465201465201464,-2.357753357753358,0.0,0.0,0.0,-1.2148962148962148,-0.8547008547008547,-1.8998778998779,-1.125,0.0,0.0,0.0,-1.120879120879121,-0.7643467643467643,-0.75,0.0,0.0,1.072039072039072,-1.9108669108669107,0.0,0.0,0.0,0.0,1.2112332112332111,-3.0122100122100113,-0.8522588522588522,0.0,0.0,0.0,0.0,-3.388278388278388,-1.531135531135531,0.0,0.0,0.0,-0.9804639804639804,-3.4615384615384617,-1.2625152625152625,0.0,0.0,0.0,-1.3235653235653235,-3.667887667887668,0.0,0.0,0.0,0.0,0.0,-3.067155067155068,0.9035409035409036,0.0,0.0,0.0,0.6043956043956044,-3.7020757020757022,0.7326007326007326,0.0,0.0,0.0,0.0,-4.136752136752137,0.0,0.0,0.0,0.0,-0.5714285714285714,-3.501831501831502,1.4065934065934067,0.0,0.0,0.0,-1.2796092796092795,-3.7509157509157514,1.105006105006105,0.0,0.0,0.0,-2.8864468864468864,-4.013431013431013,-0.7057387057387058,-1.0625,0.0,0.0,-2.3638583638583643,-2.915750915750916,0.0,-1.40625,0.6875,0.0,0.0,-1.7130647130647132,2.5579975579975582,-0.84375,0.0,0.0,1.6446886446886446,-0.8547008547008547,3.065934065934066,0.0,0.0,0.0,1.1697191697191698,0.0,2.3150183150183152,0.0,0.0,0.0,0.0,0.0,0.0,0.0,0.0,0.0,-0.6605616605616605,1.0231990231990231,0.0,0.0,0.0,0.0,-1.0683760683760684,2.769230769230769,1.2722832722832722,0.0,0.0,0.0,-0.5213675213675214,3.3540903540903533,1.3772893772893773,0.65625,0.0,0.0,1.485958485958486,3.1672771672771667,0.0,0.6875,0.0,0.0,1.2014652014652014,4.971916971916972,0.8400488400488401,0.65625,0.0,-0.59375,0.0,6.409035409035409,1.061050061050061,0.75,0.9375,-0.90625,-1.6691086691086692,8.247863247863247,0.9010989010989012,1.0625,0.84375,-0.75,-3.2515262515262515,7.501831501831503,-0.8107448107448108,0.96875,0.0,0.0,-3.0781440781440783,6.732600732600732,-2.498168498168498,0.0,0.6875,0.0,0.0,4.443223443223443,-1.5567765567765568,0.0,0.5625,0.0,0.8021978021978022,4.1611721611721615,-1.0634920634920637,0.65625,0.0,0.0,1.188034188034188,2.8644688644688645,-2.13064713064713,0.53125,0.0,0.0,,,,,,,,,,,,,,,,,,,,,,,,,,,,,,,,,,,,,,,,,,,,,,,,,,,,,,,,,,,,,,,,,,,,,,,,,,,,,,,movNegY
accX,-1.362637362637363,0.0,-0.5873015873015873,0.0,0.0,0.0,0.0,-1.1013431013431014,0.5152625152625152,0.90625,0.0,0.0,0.0,-2.6031746031746037,-0.525030525030525,0.6875,0.0,0.0,0.0,-2.9816849816849818,-1.912087912087912,-0.53125,0.0,0.0,-0.8083028083028083,-1.4175824175824177,-0.971916971916972,-1.375,0.0,0.0,0.0,-1.7912087912087913,0.0,-0.78125,0.0,0.0,0.5567765567765568,-3.868131868131868,-0.971916971916972,0.0,0.0,0.0,1.4896214896214897,-4.048840048840049,-0.9352869352869352,0.0,0.0,0.0,0.8437118437118437,-3.3748473748473753,0.0,0.0,0.0,0.0,-0.6752136752136753,-2.709401709401709,0.0,0.0,-0.6875,0.0,-1.8021978021978025,-3.525030525030525,0.0,0.0,0.0,0.0,-1.3882783882783882,-4.074481074481073,0.0,0.0,0.0,0.0,-0.8815628815628815,-3.4810744810744816,0.0,0.0,0.0,0.0,0.0,-2.457875457875458,1.843711843711844,0.0,0.0,0.0,0.0,-2.271062271062271,2.1233211233211238,0.0,-0.53125,0.0,-0.8534798534798534,-3.411477411477412,0.0,0.0,-0.75,0.0,-2.0659340659340657,-3.289377289377289,0.0,-0.53125,0.0,0.0,-1.0195360195360197,-2.8363858363858365,0.5470085470085471,-0.625,0.0,-0.5625,0.0,-2.361416361416361,0.6459096459096461,0.0,0.0,0.0,0.0,-1.4273504273504274,0.5982905982905983,0.0,0.0,0.0,-0.6495726495726496,0.6190476190476191,1.175824175824176,0.0,0.0,0.0,-0.78998778998779,1.5054945054945057,1.10989010989011,0.0,0.0,0.0,0.0,0.5665445665445665,0.0,0.0,0.0,0.0,0.0,0.5335775335775336,0.0,0.0,0.0,0.0,0.0,2.1636141636141635,1.5042735042735045,0.0,0.0,0.0,1.2246642246642248,2.6849816849816848,1.188034188034188,0.0,0.0,0.0,1.122100122100122,3.7008547008547015,0.5775335775335775,0.5625,0.0,0.0,0.0,5.039072039072039,0.0,0.6875,0.0,0.0,-1.3272283272283272,6.185592185592187,-0.5860805860805861,0.65625,1.0,0.0,-2.705738705738706,7.2564102564102555,-0.9462759462759462,0.53125,1.0,0.0,-3.6825396825396814,8.45054945054945,0.0,0.8125,0.65625,0.0,-2.593406593406593,7.168498168498169,0.0,0.9375,0.625,0.0,-0.8547008547008547,5.043956043956044,0.0,0.84375,0.0,0.53125,1.0366300366300367,2.3943833943833943,-1.586080586080586,0.0,0.0,0.8125,0.8547008547008547,1.4786324786324787,-1.912087912087912,0.0,0.0,0.71875,1.4737484737484738,0.0,-2.7081807081807083,0.0,0.0,0.0,,,,,,,,,,,,,,,,,,,,,,,,,,,,,,,,,,,,,,,,,,,,,,,,,,,,,,,,,,,,,,,,,,,movNegY
accX,-0.6654456654456654,-1.4395604395604396,0.0,0.0,0.0,0.0,-0.5946275946275946,-1.5213675213675213,0.0,0.0,0.0,0.0,-0.9230769230769232,-1.2442002442002442,0.0,0.0,0.0,0.0,0.0,-2.191697191697192,0.0,0.0,0.0,0.0,1.1147741147741148,-3.0415140415140414,-1.031746031746032,0.0,0.0,0.0,0.0,-3.8376068376068377,-0.9853479853479854,0.0,0.0,0.0,0.0,-4.346764346764346,-0.5115995115995116,0.0,0.0,0.0,0.0,-4.084249084249084,0.0,0.0,0.0,0.0,0.0,-3.7997557997558,0.0,0.0,0.0,0.0,0.0,-3.511599511599512,0.6446886446886447,0.0,-0.5625,0.0,-0.8986568986568987,-4.295482295482295,0.0,0.0,0.0,0.0,-1.3797313797313795,-4.781440781440781,0.0,0.0,0.0,0.0,0.0,-2.8998778998779,1.3186813186813189,0.0,0.0,0.0,-0.9462759462759462,-3.4652014652014653,1.1709401709401708,0.0,0.0,0.0,-1.326007326007326,-3.8205128205128207,0.525030525030525,0.0,0.0,0.0,-1.6581196581196582,-2.2002442002442004,1.2148962148962148,0.0,0.0,0.0,-0.5103785103785103,-0.6275946275946276,1.750915750915751,0.0,0.0,0.0,0.0,0.0,0.9450549450549449,0.0,0.53125,0.0,0.6312576312576312,-0.9010989010989012,0.0,0.0,0.53125,0.0,0.0,0.0,0.0,0.0,0.0,0.0,-0.8766788766788767,1.7594627594627594,0.7020757020757019,0.0,0.0,0.0,0.0,3.13064713064713,1.6385836385836383,0.0,0.0,0.0,0.6483516483516484,2.8766788766788767,1.137973137973138,0.0,0.0,0.0,0.6385836385836385,3.15995115995116,0.0,0.0,0.0,0.0,0.0,3.94993894993895,-0.9328449328449328,0.0,0.0,0.0,0.0,4.026862026862027,-1.7326007326007329,0.0,0.0,0.0,0.0,4.506715506715507,-1.7228327228327232,0.5625,0.0,0.0,-0.6092796092796092,4.478632478632479,-2.326007326007326,0.5625,0.0,0.0,-1.0305250305250304,4.750915750915751,-1.8266178266178263,0.0,0.0,0.0,0.0,4.079365079365079,-0.5897435897435898,0.0,0.0,0.0,0.0,4.733821733821734,0.0,0.0,0.0,0.0,-1.5030525030525033,7.5054945054945055,1.702075702075702,0.0,0.0,0.0,-1.3418803418803418,7.16971916971917,2.4884004884004884,0.0,0.0,0.0,-0.6190476190476191,3.5372405372405376,0.0,0.75,0.0,0.0,,,,,,,,,,,,,,,,,,,,,,,,,,,,,,,,,,,,,,,,,,,,,,,,,,,,,,,,,,,,,,,,,,,,,,,,,,,,,,,movNegY
accX,-0.9096459096459096,-1.1367521367521367,0.0,0.0,0.0,0.0,-1.7814407814407816,-0.5824175824175825,0.0,0.0,0.0,0.0,-0.9426129426129426,-0.663003663003663,0.5726495726495726,0.0,0.0,0.0,0.0,-1.4041514041514038,0.9450549450549449,0.0,0.0,0.0,0.6642246642246642,-2.4004884004884004,0.0,0.0,0.0,0.0,0.0,-2.4517704517704515,-1.2588522588522588,-0.625,0.0,0.0,0.0,-2.3150183150183152,-0.9584859584859584,-0.53125,0.0,0.0,0.0,-2.816849816849817,-0.7692307692307693,0.0,0.0,0.0,0.0,-2.948717948717949,-0.5787545787545788,0.0,0.0,0.0,-0.6129426129426129,-2.93040293040293,0.0,0.0,0.0,0.0,-1.1123321123321124,-3.2808302808302807,0.0,0.0,0.0,0.0,-1.2356532356532357,-3.5042735042735043,0.0,-0.59375,0.0,0.0,-0.7448107448107448,-2.5445665445665444,0.6105006105006106,-0.65625,0.0,0.0,-0.5628815628815629,-2.0659340659340657,1.266178266178266,0.0,0.0,0.0,0.6617826617826618,-3.847374847374848,0.7252747252747253,0.0,0.0,0.0,1.534798534798535,-4.251526251526252,0.0,0.0,-0.5625,0.0,0.0,-2.9890109890109886,0.818070818070818,0.0,0.0,0.0,-0.8986568986568987,-2.1684981684981683,0.6520146520146519,0.0,0.0,0.0,-0.934065934065934,-1.7924297924297925,0.8339438339438342,0.0,0.0,0.0,-0.5201465201465202,-1.9804639804639803,0.0,0.0,0.0,0.0,0.0,-1.8608058608058609,0.0,-0.5625,0.0,0.0,-0.757020757020757,-0.5323565323565324,0.0,-0.5625,0.0,0.0,0.0,0.0,1.0402930402930404,0.0,0.0,0.0,0.9377289377289376,0.0,0.5958485958485958,0.0,0.0,0.0,1.3492063492063493,0.5115995115995116,0.0,0.0,0.0,0.0,0.0,2.496947496947497,0.0,0.0,0.0,0.0,0.0,4.86935286935287,0.8107448107448108,0.0,0.0,0.0,0.0,4.836385836385836,0.0,0.0,0.0,0.0,0.0,4.305250305250305,-1.0231990231990231,0.0,0.0,0.0,-0.5995115995115995,3.533577533577533,-2.554334554334554,0.0,0.0,-0.71875,-1.4017094017094016,5.6984126984126995,0.0,0.0,1.21875,-0.71875,-2.7020757020757022,7.9181929181929185,0.8241758241758241,0.0,0.59375,0.0,-2.527472527472528,8.07081807081807,1.1733821733821734,0.0,0.0,0.0,-1.061050061050061,5.504273504273504,0.0,0.0,0.0,0.0,0.0,2.547008547008547,-0.9682539682539684,0.0,0.0,0.0,1.3577533577533578,1.6715506715506716,-0.6605616605616605,0.0,0.0,0.59375,1.0793650793650793,1.84004884004884,0.0,0.0,0.0,0.0,1.1465201465201464,0.9816849816849816,-0.6752136752136753,0.0,0.0,0.0,0.8461538461538461,0.8693528693528694,-1.0561660561660562,0.0,0.0,0.0,,,,,,,,,,,,,,,,,,,,,,,,,,,,,,,,,,,,,,,,,,,,,,,,,movNegY
accX,0.0,0.0,0.9035409035409036,0.59375,0.0,0.0,0.9242979242979243,-1.2735042735042734,0.0,0.71875,0.0,0.0,0.0,-1.9242979242979243,-1.7411477411477412,0.0,0.0,0.0,-0.7313797313797313,-1.5323565323565325,-2.323565323565324,-0.8125,0.0,0.0,0.0,-0.6459096459096461,-0.9365079365079364,-1.0,0.0,0.0,0.6263736263736264,-1.3052503052503053,0.0,0.0,0.0,0.0,1.9145299145299144,-2.4822954822954824,0.0,0.0,0.0,0.0,1.0427350427350428,-2.814407814407814,-0.9572649572649572,0.0,0.0,0.0,0.0,-2.8339438339438336,-1.0122100122100122,0.0,-0.5625,0.0,-1.3699633699633702,-3.1428571428571432,-1.05006105006105,0.0,0.0,0.0,-0.9316239316239316,-3.023199023199023,0.0,0.0,0.0,0.0,0.0,-3.667887667887668,0.0,0.0,0.0,0.0,0.0,-4.501831501831502,0.0,0.0,0.0,0.0,-0.6886446886446886,-4.57020757020757,1.2539682539682542,0.0,0.0,0.0,-1.8363858363858363,-3.1135531135531136,1.6556776556776556,0.0,0.0,0.0,-1.746031746031746,-2.021978021978022,1.7008547008547008,0.0,1.0,0.0,-1.020757020757021,-1.927960927960928,1.1428571428571428,0.0,1.03125,0.0,-0.8241758241758241,-1.7277167277167278,0.9987789987789988,0.0,0.5625,0.0,0.0,-1.5518925518925517,1.006105006105006,0.0,0.0,0.0,0.7264957264957265,-0.8229548229548229,0.8290598290598291,0.0,0.0,0.0,1.8559218559218558,0.0,1.1831501831501832,0.0,0.0,0.0,1.5409035409035412,0.0,0.9853479853479854,0.0,0.0,0.0,0.0,0.6178266178266179,0.7802197802197802,0.0,0.0,0.0,1.0476190476190477,1.7545787545787546,0.0,0.0,0.0,0.0,1.809523809523809,1.336996336996337,-1.3540903540903542,0.0,-1.0,0.0,1.0366300366300367,2.474969474969475,-1.26007326007326,0.0,-0.625,0.0,0.9877899877899878,2.9682539682539684,-1.4188034188034189,0.0,0.0,-0.59375,0.0,3.7985347985347984,-1.2344322344322345,0.0,0.0,-0.84375,-2.245421245421245,5.865689865689865,-1.120879120879121,0.0,0.53125,-0.84375,-3.122100122100122,7.08058608058608,-0.8437118437118437,0.0,0.8125,-0.71875,-2.63980463980464,7.748473748473748,0.0,-0.6875,1.0625,0.0,-1.6288156288156288,8.184371184371184,2.288156288156288,0.0,0.0,0.0,-3.398046398046398,7.670329670329671,1.73992673992674,0.0,0.0,0.0,-0.7826617826617827,4.086691086691086,0.0,0.0,0.0,0.0,1.2295482295482296,1.8644688644688645,-0.6532356532356532,0.0,0.0,0.0,1.3724053724053724,0.9157509157509156,-0.6239316239316239,0.0,0.0,0.0,1.0024420024420024,0.78998778998779,-0.8547008547008547,0.0,0.0,0.0,,,,,,,,,,,,,,,,,,,,,,,,,,,,,,,,,,,,,,,,,,,,,,,,,,,,,,,,,,,,,movNegY
accX,-0.9230769230769232,0.0,-0.6800976800976801,0.0,0.0,0.0,0.0,0.0,0.0,0.0,0.0,0.0,0.7802197802197802,-1.565323565323565,0.0,0.0,0.0,0.0,0.0,-2.5982905982905984,-1.3540903540903542,0.0,0.0,0.0,-1.0525030525030523,-2.606837606837607,-1.4493284493284493,-0.625,0.0,0.0,0.0,-2.772893772893773,-0.6043956043956044,-0.75,0.0,0.0,1.1746031746031746,-3.3809523809523814,-0.5836385836385837,-0.59375,0.0,0.0,0.0,-3.6935286935286937,-1.5628815628815629,0.0,0.0,0.0,-0.7387057387057387,-3.5152625152625148,-1.5225885225885225,0.0,0.0,0.0,0.0,-3.4420024420024418,0.0,0.0,0.0,0.0,-0.6715506715506715,-3.503052503052503,0.7326007326007326,0.0,0.0,0.0,-1.083028083028083,-3.240537240537241,0.7912087912087912,0.0,0.0,0.0,-1.2881562881562882,-2.31990231990232,0.9072039072039072,0.0,0.0,0.0,-0.894993894993895,-2.1343101343101343,1.1111111111111112,0.0,0.0,0.0,0.0,-2.7606837606837606,1.1404151404151404,0.0,0.0,0.0,-1.3614163614163617,-2.4615384615384617,1.2991452991452992,0.0,0.0,0.0,-1.7130647130647132,-1.9267399267399268,1.1196581196581197,0.0,0.0,0.0,-0.6532356532356532,-1.8705738705738704,0.0,0.0,0.0,0.0,0.0,-1.8058608058608057,0.0,0.0,0.0,0.0,0.967032967032967,-1.1001221001221002,0.5299145299145299,-0.625,0.0,0.0,1.3687423687423688,1.661782661782662,1.7435897435897436,-0.6875,0.0,0.53125,0.0,2.1880341880341883,1.468864468864469,0.0,0.0,0.0,0.0,1.4407814407814408,0.0,0.53125,0.0,0.0,0.5323565323565324,1.6214896214896215,0.0,0.0,0.0,0.0,0.0,3.1282051282051277,0.0,0.0,0.0,0.0,0.0,4.855921855921856,-0.6849816849816851,0.0,0.0,0.0,0.0,4.735042735042735,-1.637362637362637,0.0,0.5625,0.0,0.0,4.785103785103785,-1.5738705738705738,0.0,0.875,0.0,-0.6727716727716728,5.329670329670329,0.0,0.0,0.875,0.0,0.0,5.691086691086691,0.8803418803418803,0.0,0.75,0.0,0.0,5.592185592185592,0.7045177045177046,0.0,0.59375,0.0,0.0,5.665445665445667,0.8803418803418803,0.0,0.5625,0.0,0.0,5.045177045177045,1.809523809523809,0.0,0.0,0.0,0.6691086691086691,3.357753357753358,1.2844932844932846,0.0,0.0,0.0,1.137973137973138,1.7716727716727716,0.0,0.0,0.0,0.0,,,,,,,,,,,,,,,,,,,,,,,,,,,,,,,,,,,,,,,,,,,,,,,,,,,,,,,,,,,,,,,,,,,,,,,,,movNegY
accX,0.0,1.0,0.0,0.0,0.0,0.0,0.0,0.0,1.4383394383394383,1.09375,0.0,0.0,0.0,-2.426129426129426,-0.956043956043956,0.0,0.0,0.0,0.0,-2.0146520146520146,-1.7081807081807079,-0.84375,0.0,0.0,0.0,-1.4822954822954824,-0.8229548229548229,-1.15625,0.0,0.0,0.0,-0.6971916971916972,0.0,0.0,0.0,0.0,0.811965811965812,-2.7973137973137967,-0.6190476190476191,0.0,0.0,0.0,2.064713064713065,-3.4444444444444446,-0.5201465201465202,0.0,0.0,0.0,0.0,-3.3003663003662997,-1.192918192918193,0.0,-0.625,0.0,-1.0647130647130647,-2.669108669108669,-1.514041514041514,0.0,0.0,0.0,0.0,-3.3162393162393164,-0.778998778998779,0.0,0.0,0.0,0.0,-3.087912087912088,0.0,0.0,-0.625,0.0,-0.5091575091575091,-2.7875457875457874,0.0,0.0,-0.78125,0.0,-1.608058608058608,-2.727716727716728,0.0,0.0,0.0,0.0,-0.7350427350427351,-2.578754578754579,0.0,0.0,-0.5625,0.0,0.0,-2.36019536019536,0.9157509157509156,-0.84375,-1.375,0.0,-1.6031746031746033,-1.4078144078144081,1.5042735042735045,-0.71875,-1.4375,0.0,-2.4297924297924296,-0.5201465201465202,1.4212454212454213,0.0,0.0,0.0,-1.4151404151404152,-0.9597069597069596,1.1855921855921856,0.0,0.78125,0.0,0.7619047619047619,-0.7728937728937729,1.623931623931624,0.0,0.65625,0.0,0.8656898656898657,0.0,2.1782661782661785,0.0,0.0,0.0,0.0,0.8376068376068376,1.0451770451770452,0.0,0.0,0.0,0.0,0.0,0.0,0.0,0.0,0.0,0.0,0.0,-0.8595848595848596,0.0,0.5625,0.0,0.0,0.0,0.0,0.0,0.0,0.0,1.0842490842490842,0.5995115995115995,0.0,0.0,0.0,0.0,1.2466422466422469,1.0793650793650793,0.0,0.0,0.0,0.0,0.8766788766788767,0.6495726495726496,-1.6288156288156288,0.0,0.0,0.0,0.0,1.7741147741147743,-2.481074481074481,0.0,0.0,-1.0,0.0,3.1538461538461537,-2.3663003663003663,0.0,0.0,-0.71875,0.0,5.15995115995116,-1.0231990231990231,0.0,0.0,-0.59375,-3.2625152625152625,6.979242979242978,0.0,0.0,0.875,-0.5625,-2.8925518925518925,6.13919413919414,-0.9304029304029304,0.0,0.625,0.0,-1.7252747252747254,6.4774114774114775,0.0,-0.65625,0.0,0.0,0.0,5.611721611721611,1.7594627594627594,0.0,0.0,0.0,1.3748473748473748,2.625152625152625,1.6300366300366298,0.0,0.0,0.0,0.0,1.4700854700854702,-0.7252747252747253,0.0,0.0,0.0,0.0,1.0769230769230769,-1.0537240537240538,0.0,0.0,0.0,0.0,1.2173382173382172,0.0,0.0,0.0,0.0,0.0,0.9829059829059827,0.0,0.0,0.0,0.0,,,,,,,,,,,,,,,,,,,,,,,,,,,,,,,,,,,,,,,,,,,movNegY
accX,0.0,0.0,0.0,0.0,0.0,0.0,0.0,0.7277167277167277,0.5921855921855922,0.625,0.0,0.0,0.0,-0.5054945054945055,0.0,0.71875,0.0,0.0,0.0,-1.975579975579976,-1.4945054945054943,0.0,0.0,0.0,0.0,-1.9963369963369964,-1.7191697191697193,-0.84375,0.0,0.0,0.0,-1.3772893772893773,-0.9621489621489622,-1.0625,0.0,0.0,0.0,-0.7277167277167277,0.0,-0.65625,0.0,0.0,0.0,-1.3223443223443223,0.0,0.0,0.0,0.0,0.5409035409035409,-2.1978021978021984,-0.818070818070818,0.0,0.0,0.0,0.0,-2.9633699633699635,-1.387057387057387,0.0,0.0,0.0,0.0,-3.3003663003662997,-1.4847374847374848,0.0,0.0,0.0,0.0,-2.9670329670329667,0.0,0.0,0.0,0.0,-1.6117216117216118,-2.5506715506715505,0.0,0.0,0.0,0.0,0.0,-3.5665445665445668,0.0,0.0,0.0,0.0,1.2967032967032968,-4.336996336996338,0.0,-0.5625,0.0,0.0,0.0,-3.862026862026862,-0.5763125763125763,-1.1875,0.0,0.0,-1.9230769230769231,-2.483516483516484,0.6446886446886447,-1.15625,0.0,0.0,-1.3113553113553114,-1.0134310134310134,1.9804639804639803,-0.5625,0.0,0.0,0.0,-0.8302808302808303,1.5103785103785103,0.0,0.0,0.0,0.7277167277167277,-2.010989010989011,0.8913308913308914,0.0,0.0,0.0,0.0,-1.8315018315018317,0.7142857142857143,0.0,0.0,0.0,-1.0183150183150182,0.0,1.1965811965811963,0.0,0.0,0.0,0.8888888888888888,0.0,1.6459096459096458,0.0,0.0,0.0,1.1709401709401708,0.0,0.8498168498168498,0.0,0.0,0.0,0.9621489621489622,0.0,0.0,0.0,-0.5625,0.0,0.0,0.7142857142857143,0.0,0.0,0.0,0.0,0.0,1.1391941391941391,0.0,0.5625,0.0,0.0,0.0,1.5482295482295485,0.0,0.75,0.0,0.0,0.0,2.717948717948718,-0.6251526251526252,0.75,0.0,0.0,0.0,2.421245421245421,-1.9010989010989008,0.0,0.0,0.0,-0.7802197802197802,4.244200244200244,-0.8192918192918193,0.0,0.0,0.0,-2.023199023199023,6.368742368742367,1.3748473748473748,0.0,0.84375,-0.59375,-2.6666666666666665,6.53968253968254,1.205128205128205,0.6875,1.21875,-0.59375,-1.7753357753357752,6.304029304029304,1.028083028083028,0.65625,0.71875,0.0,-1.3907203907203909,5.317460317460316,0.0,0.5625,0.0,0.0,0.0,3.131868131868132,-2.1074481074481075,0.0,0.0,0.0,0.0,3.051282051282051,-1.0293040293040292,0.0,0.0,0.0,,,,,,,,,,,,,,,,,,,,,,,,,,,,,,,,,,,,,,,,,,,,,,,,,,,,,,,,,,,,,movNegY
accX,0.0,0.0,0.0,0.0,0.0,0.0,0.6556776556776557,-0.7887667887667887,0.0,0.0,0.0,0.0,0.0,-1.6398046398046398,-1.0781440781440779,0.0,0.0,0.0,0.0,-0.7863247863247863,-1.0085470085470083,-0.6875,0.0,0.0,0.0,0.0,0.0,0.0,0.0,0.0,0.0,-0.6068376068376068,0.0,0.0,0.0,0.0,0.0,-1.5409035409035412,-0.5958485958485958,0.0,0.0,0.0,0.0,-2.142857142857143,-1.1526251526251523,0.0,0.0,0.0,0.0,-2.056166056166056,-0.8864468864468864,-0.5625,0.0,0.0,0.0,-2.1135531135531136,0.0,0.0,0.0,0.0,0.0,-2.9010989010989015,-0.7008547008547008,0.0,0.0,0.0,0.0,-3.2808302808302807,-0.8815628815628815,0.0,0.0,0.5625,0.0,-3.346764346764347,-0.8937728937728938,-0.71875,0.0,0.0,-1.362637362637363,-3.1782661782661785,-0.7423687423687424,0.0,0.0,0.0,-0.6764346764346765,-4.057387057387056,-0.8302808302808303,0.0,0.0,0.625,0.0,-3.6568986568986563,0.0,0.0,0.0,0.53125,0.0,-3.0329670329670333,0.7631257631257631,0.0,0.0,0.59375,-1.0,-1.9352869352869355,0.6495726495726496,0.0,0.0,0.0,-0.9597069597069596,-1.5433455433455434,0.0,0.0,0.0,0.0,0.0,0.0,1.804639804639805,0.0,0.0,0.0,0.0,0.0,1.9145299145299144,0.0,-0.59375,0.0,0.0,0.0,1.4932844932844933,0.0,-0.71875,0.0,0.0,0.0,0.9987789987789988,0.0,-0.90625,0.0,0.0,1.5824175824175823,1.9951159951159951,0.0,-0.75,0.0,0.9023199023199024,2.5531135531135534,0.9279609279609279,0.875,0.0,-0.53125,0.7435897435897436,1.7203907203907205,-1.0561660561660562,0.75,0.0,-0.78125,0.0,1.3223443223443223,-1.7387057387057387,0.0,0.0,-0.6875,0.0,1.1807081807081807,-0.6324786324786325,0.0,0.0,0.0,0.0,2.1855921855921854,0.0,0.0,0.0,0.0,0.0,2.039072039072039,-0.9548229548229548,0.0,0.0,-0.78125,0.811965811965812,2.354090354090354,-0.8131868131868132,0.0,0.0,-0.71875,0.8241758241758241,3.9230769230769234,0.0,0.0,0.0,-0.5625,0.0,4.112332112332112,0.0,0.0,0.0,-0.75,-0.7191697191697192,4.728937728937728,0.0,0.0,0.625,-0.90625,-1.3540903540903542,5.454212454212454,0.0,0.0,0.0,-0.625,-2.1074481074481075,6.186813186813188,0.7582417582417582,0.0,0.0,0.0,-0.7631257631257631,5.494505494505495,1.5494505494505495,0.0,0.0,0.0,-0.525030525030525,3.7472527472527473,0.8913308913308914,0.0,0.0,0.0,0.0,2.0903540903540905,0.0,0.0,0.0,0.0,,,,,,,,,,,,,,,,,,,,,,,,,,,,,,,,,,,,,,,,,,,,,,,,,movNegY
accX,0.0,0.0,0.0,0.0,0.0,0.0,0.0,0.0,0.0,0.53125,0.0,0.0,-0.5006105006105006,-0.5848595848595849,-0.5518925518925519,0.0,0.0,0.0,0.0,-1.0525030525030523,-1.3308913308913308,0.0,0.0,0.0,0.5018315018315018,-1.177045177045177,-1.2124542124542124,-0.5625,0.0,0.0,0.0,0.0,-0.5323565323565324,0.0,0.0,0.0,0.0,-0.9304029304029304,0.0,0.0,0.0,0.0,0.894993894993895,-1.8498168498168501,-0.6043956043956044,0.0,0.0,0.0,0.0,-1.9987789987789988,-0.6605616605616605,0.0,0.0,0.0,-0.912087912087912,-2.0415140415140414,-0.7460317460317459,0.0,0.0,0.0,-1.1318681318681318,-1.824175824175824,-0.5763125763125763,0.0,0.0,0.0,-0.5433455433455433,-1.3125763125763126,0.0,0.0,0.0,0.0,0.0,-1.7753357753357752,0.7655677655677655,0.0,0.0,0.0,0.8083028083028083,-2.4603174603174605,0.0,0.0,-0.625,0.0,0.0,-3.2759462759462763,0.0,0.0,-0.65625,0.0,-0.5177045177045178,-3.4297924297924296,-0.8608058608058609,0.0,0.0,0.0,-0.9426129426129426,-2.1123321123321124,0.0,0.0,0.0,0.0,-0.7557997557997558,-1.3333333333333333,0.7582417582417582,0.0,0.0,0.0,-0.9279609279609279,-2.0097680097680097,0.0,0.0,0.0,0.0,-1.3186813186813189,-2.105006105006105,-0.5421245421245421,0.0,0.0,0.0,-1.238095238095238,-1.6153846153846154,0.0,0.0,0.0,0.0,0.0,-1.1135531135531136,1.15995115995116,0.0,0.0,0.0,0.8595848595848596,-0.9804639804639804,1.3235653235653235,0.0,0.0,0.0,0.0,-0.6373626373626373,0.0,0.0,0.0,0.0,0.0,-0.9511599511599512,-0.8388278388278388,0.0,0.0,0.65625,1.123321123321123,0.0,0.0,0.0,0.0,0.65625,0.6288156288156288,2.393162393162393,1.0195360195360197,0.0,0.0,0.0,0.9597069597069596,1.9804639804639803,0.0,0.0,0.6875,0.0,1.1196581196581197,2.0207570207570207,-0.7289377289377289,0.0,0.59375,0.0,0.0,2.5641025641025643,0.0,0.0,0.0,0.0,-0.8827838827838828,4.264957264957265,0.0,0.0,0.0,0.0,0.0,3.8766788766788767,0.0,0.0,0.0,-0.59375,0.5763125763125763,3.1135531135531136,-1.3394383394383391,0.0,0.0,-0.53125,0.0,3.4822954822954824,0.0,-0.96875,0.0,0.0,0.0,4.150183150183151,1.4188034188034189,-0.75,0.0,0.0,-1.9572649572649568,4.123321123321123,0.0,0.0,0.0,0.0,-1.021978021978022,3.175824175824176,-2.1904761904761907,0.0,0.0,0.0,-1.8778998778998781,4.704517704517705,-1.0561660561660562,0.0,0.0,0.0,-1.6349206349206349,5.764346764346764,1.4407814407814408,0.0,0.0,0.0,0.0,3.877899877899878,1.343101343101343,0.53125,0.0,0.0,0.0,2.6361416361416357,0.0,0.0,0.0,0.0,-1.2258852258852257,2.495726495726496,-0.706959706959707,0.0,-0.625,0.0,,,,,,,,,,,,,,,,,,,,,,,,,,,,,,,movNegY
accX,0.0,0.0,0.0,0.0,0.0,0.0,0.0,0.0,0.0,0.0,0.0,0.0,0.0,-0.8217338217338217,0.0,0.0,0.0,0.0,-0.5201465201465202,-1.2515262515262515,-0.8461538461538461,0.0,0.0,0.0,0.0,-0.7777777777777778,-0.8571428571428571,0.0,0.0,0.0,0.0,0.0,0.0,0.0,0.0,0.0,0.0,-0.7631257631257631,0.0,0.0,0.0,0.0,-0.5128205128205128,-1.321123321123321,-0.6617826617826618,0.0,0.0,0.0,0.0,-1.8302808302808304,-0.967032967032967,0.0,0.0,0.0,0.6727716727716728,-2.3968253968253967,-0.9084249084249084,0.0,0.0,0.0,0.0,-2.4224664224664223,-0.9853479853479854,0.0,0.0,0.0,0.0,-2.2796092796092795,0.0,0.0,0.0,0.0,0.0,-1.249084249084249,0.0,0.0,0.0,0.0,-0.7289377289377289,-1.3076923076923077,0.0,0.0,0.0,0.0,-0.7594627594627594,-1.967032967032967,0.0,0.0,0.0,0.0,0.0,-2.879120879120879,0.0,-0.65625,0.0,0.0,-0.6800976800976801,-2.070818070818071,0.0,-0.71875,0.0,0.0,-1.0341880341880345,-1.3064713064713065,0.0,0.0,0.0,0.0,0.0,-1.7667887667887667,0.5921855921855922,0.0,0.0,0.0,0.0,-3.0024420024420024,0.0,0.0,0.0,0.0,0.0,-2.070818070818071,0.0,0.0,0.0,0.0,0.0,-1.0976800976800978,0.6739926739926739,0.0,0.0,0.0,0.0,-0.993894993894994,0.0,0.0,0.0,0.0,0.0,0.0,0.0,0.0,0.0,0.0,0.0,0.0,0.6520146520146519,0.0,0.0,0.0,0.0,0.5885225885225885,0.9462759462759462,0.0,0.0,0.0,0.0,0.0,0.0,0.0,0.0,0.0,0.0,0.0,0.0,0.0,0.0,0.0,0.0,2.131868131868132,0.6471306471306472,0.0,0.0,0.0,0.0,3.4822954822954824,0.7228327228327228,0.0,0.0,0.0,0.0,2.675213675213675,0.0,0.0,0.0,0.0,1.0085470085470083,1.678876678876679,-1.293040293040293,0.0,0.0,0.0,0.0,3.10989010989011,0.0,0.0,0.0,0.0,-1.1257631257631258,4.197802197802199,-0.5213675213675214,0.0,0.0,0.0,0.0,3.41025641025641,-1.1013431013431014,0.0,0.0,0.0,0.9536019536019535,2.514041514041514,-1.5213675213675213,0.0,0.0,0.0,1.4871794871794872,2.467643467643468,0.0,0.0,0.0,0.0,0.6605616605616605,3.4945054945054945,0.0,0.0,0.0,0.0,0.0,3.924297924297924,-0.6361416361416361,0.0,0.0,0.0,0.0,4.362637362637362,0.0,0.0,0.6875,-0.59375,0.0,4.588522588522588,1.5091575091575091,0.0,0.0,0.0,-1.525030525030525,4.148962148962149,1.242979242979243,0.0,0.0,0.0,-1.0695970695970696,2.518925518925519,0.0,0.0,0.0,0.0,,,,,,,,,,,,,,,,,,,,,,,,,movNegY
accX,0.0,-0.6349206349206349,0.0,0.0,0.0,0.0,0.0,-0.5201465201465202,0.0,0.0,0.0,0.0,0.0,-0.9584859584859584,0.0,0.0,0.0,0.0,0.0,-1.05006105006105,0.0,0.0,0.0,0.0,0.0,-0.9352869352869352,0.0,0.0,0.0,0.0,0.0,-0.7228327228327228,0.0,0.0,0.0,0.0,-0.5873015873015873,-1.3772893772893773,0.0,0.0,0.0,0.0,0.0,-2.029304029304029,-1.1819291819291822,0.0,0.0,0.0,0.0,-2.5665445665445668,-0.9963369963369964,0.0,0.0,0.0,0.0,-3.1526251526251525,-0.7521367521367521,0.0,0.0,0.0,0.0,-3.52991452991453,-0.8131868131868132,0.0,0.0,0.0,0.0,-3.311355311355311,-0.9413919413919414,0.0,0.0,0.0,-0.7484737484737485,-3.111111111111111,-0.7533577533577533,-0.59375,0.0,0.0,-0.5445665445665445,-2.750915750915751,0.0,0.0,0.0,0.0,0.0,-2.6178266178266183,0.8351648351648352,0.0,0.0,0.0,-0.8009768009768009,-2.4481074481074483,0.0,0.0,0.0,0.0,-0.9548229548229548,-2.2576312576312576,0.0,0.0,0.0,0.0,0.0,-1.4004884004884004,0.8412698412698413,0.0,0.0,0.0,0.0,-2.025641025641025,1.6886446886446886,0.0,0.0,0.0,-0.6105006105006106,-1.982905982905983,1.0805860805860803,0.0,0.0,0.0,-0.956043956043956,-1.7814407814407816,0.0,0.0,0.0,0.0,0.0,-1.3492063492063493,0.0,0.0,0.0,0.0,0.0,0.0,1.1147741147741148,0.0,0.0,0.0,0.7387057387057387,0.5982905982905983,1.434676434676435,0.0,0.0,0.0,0.0,0.0,0.8974358974358975,0.0,0.0,0.0,0.0,0.0,0.0,0.0,0.0,0.0,0.0,2.247863247863248,1.2271062271062272,0.0,0.0,0.0,0.0,2.6825396825396823,0.0,0.0,0.0,0.0,0.0,2.2576312576312576,-0.9377289377289376,0.0,0.0,0.0,0.0,2.175824175824176,-0.6324786324786325,0.0,0.0,0.0,0.0,1.9804639804639803,-1.3479853479853479,0.0,0.0,0.0,0.6349206349206349,1.95970695970696,-1.424908424908425,0.0,0.0,0.0,0.0,2.927960927960928,-1.1123321123321124,0.0,0.0,0.0,-0.6996336996336996,3.4346764346764345,-1.1623931623931625,0.0,0.0,0.0,0.0,2.380952380952381,-0.7387057387057387,0.0,0.0,0.0,0.6727716727716728,2.0427350427350426,-0.8852258852258852,0.0,0.0,0.0,0.5421245421245421,2.9829059829059825,-0.9194139194139194,0.0,0.0,0.0,0.0,4.549450549450549,0.9743589743589745,0.0,0.0,0.0,-1.2527472527472527,4.932844932844934,1.5604395604395604,0.0,0.0,0.0,-0.5702075702075702,3.1391941391941387,0.6166056166056166,0.0,0.0,0.0,0.0,1.5616605616605617,0.0,0.0,0.0,0.0,0.0,1.3833943833943834,0.0,0.0,0.0,0.0,,,,,,,,,,,,,,,,,,,,,,,,,,,,,,,movNegY
accX,0.0,0.0,0.0,0.0,0.0,0.0,0.0,0.0,0.0,0.0,0.0,0.0,0.5897435897435898,-0.5067155067155067,0.0,0.59375,0.0,0.0,0.0,-1.6263736263736264,-0.6605616605616605,0.0,-0.625,0.0,0.0,-2.347985347985348,-2.087912087912088,-0.53125,0.0,0.0,0.0,-1.8327228327228329,-1.5946275946275947,-0.75,0.0,0.0,0.6813186813186813,-2.1514041514041518,0.0,0.0,0.0,0.0,0.7020757020757019,-2.9841269841269837,-0.6434676434676435,0.0,0.0,0.0,0.0,-3.2783882783882783,-1.188034188034188,-0.71875,0.0,0.0,0.934065934065934,-2.9963369963369964,0.0,-0.8125,0.0,0.0,0.0,-3.1147741147741153,0.0,-0.65625,-0.9375,0.0,0.0,-2.7472527472527477,0.0,-0.6875,-1.125,0.0,-2.354090354090354,-2.0134310134310134,0.0,-0.5625,0.0,0.0,-1.8144078144078144,-1.9206349206349207,0.0,0.0,0.0,0.0,0.7692307692307693,-2.9218559218559217,0.7826617826617827,0.0,0.0,0.0,1.205128205128205,-2.6581196581196584,1.1538461538461535,0.0,0.0,0.0,-0.8449328449328449,-0.978021978021978,0.6398046398046398,0.0,0.0,0.0,-0.7814407814407814,-0.6275946275946276,0.8021978021978022,0.0,0.0,0.0,0.0,-1.3150183150183148,0.5921855921855922,0.0,0.0,0.0,-1.3724053724053724,-1.4590964590964588,0.6739926739926739,0.0,0.0,0.0,-0.9621489621489622,-0.5763125763125763,0.5482295482295483,0.0,0.0,0.0,0.0,0.0,0.0,0.0,0.0,0.0,0.7826617826617827,0.9987789987789988,0.0,0.0,0.0,0.0,0.0,0.6617826617826618,0.0,0.0,0.0,0.0,0.0,0.5286935286935287,0.0,0.0,0.0,0.0,0.0,0.8058608058608059,0.0,0.0,0.0,0.0,0.0,0.993894993894994,-0.6788766788766789,0.0,0.0,0.0,1.020757020757021,0.7826617826617827,-0.5592185592185592,0.0,0.0,0.0,0.8034188034188035,1.1978021978021978,-0.6263736263736264,0.0,0.0,0.0,0.0,1.6349206349206349,-0.8021978021978022,0.0,0.0,0.0,0.6605616605616605,2.128205128205128,-1.94993894993895,0.0,0.0,0.0,0.0,5.428571428571429,-0.5323565323565324,-0.75,0.0,0.0,-2.404151404151404,9.345543345543346,2.52014652014652,0.0,0.0,0.0,-1.4957264957264955,8.54945054945055,2.9084249084249083,0.75,0.65625,0.0,0.0,5.814407814407813,2.242979242979243,0.6875,0.0,0.0,-1.1074481074481075,4.964590964590965,2.133089133089133,0.0,-0.78125,0.5625,0.0,1.876678876678877,0.0,0.875,0.0,0.0,2.1868131868131866,-2.399267399267399,-3.4420024420024418,1.03125,0.0,0.0,,,,,,,,,,,,,,,,,,,,,,,,,,,,,,,,,,,,,,,,,,,,,,,,,,,,,,,movNegY
accX,0.0,0.0,0.9365079365079364,0.0,0.0,0.0,0.0,0.0,0.0,0.8125,0.0,0.0,0.0,-1.6605616605616609,0.0,0.53125,-0.90625,0.0,-0.8901098901098901,-2.253968253968254,-2.1111111111111107,0.0,0.0,0.0,-1.0122100122100122,-1.192918192918193,-1.3565323565323566,-0.90625,0.53125,0.0,0.0,-0.5982905982905983,0.0,0.0,0.0,0.0,0.0,-1.4884004884004884,0.0,0.0,0.0,0.0,0.5970695970695971,-1.967032967032967,-0.7496947496947497,0.0,0.0,0.0,0.5763125763125763,-1.9853479853479852,-0.7155067155067155,-0.65625,0.0,0.0,0.0,-1.8852258852258847,-0.5628815628815629,-0.5625,0.0,0.0,0.0,-2.0061050061050056,0.0,0.0,0.0,0.0,-0.6202686202686203,-2.23931623931624,0.0,0.0,0.0,0.0,0.0,-1.982905982905983,0.0,0.0,0.0,0.0,0.0,-1.5103785103785103,0.8168498168498168,0.0,0.0,0.0,0.0,-1.4957264957264955,1.2442002442002442,0.0,0.0,0.0,0.0,-1.398046398046398,0.8156288156288156,0.0,0.0,0.0,0.0,-2.062271062271062,0.0,0.0,0.0,0.0,-1.7631257631257633,-1.5152625152625152,0.0,0.0,0.0,0.0,-1.2002442002442002,-1.21001221001221,0.6178266178266179,0.0,0.5625,0.0,0.0,0.0,0.6263736263736264,0.0,0.0,0.0,0.0,-0.6129426129426129,0.5213675213675214,0.0,0.0,0.0,0.0,-1.5592185592185592,0.0,0.0,0.0,0.0,0.0,-1.5836385836385836,0.0,0.0,0.0,0.0,-0.6214896214896215,0.0,0.0,0.0,0.0,0.0,1.0976800976800978,0.5787545787545788,0.0,0.0,0.0,0.0,0.8449328449328449,0.0,0.6752136752136753,0.0,0.0,0.0,-0.6178266178266179,1.0891330891330893,0.6190476190476191,0.0,0.0,0.0,-0.9389499389499391,1.8339438339438336,0.0,0.0,0.0,0.0,0.0,1.948717948717949,-0.6019536019536019,0.0,0.0,0.0,0.0,2.9609279609279615,0.0,0.0,0.0,0.0,1.103785103785104,1.706959706959707,0.0,0.0,0.0,0.0,0.8278388278388278,1.3186813186813189,-0.8485958485958486,0.0,0.0,0.0,0.0,2.619047619047619,-1.4615384615384617,0.0,0.0,0.0,0.0,4.076923076923077,-1.2637362637362637,0.0,0.0,0.0,0.0,4.7203907203907205,0.0,0.0,0.0,0.0,0.0,4.637362637362638,0.0,0.0,0.0,0.0,0.0,3.877899877899878,-0.8669108669108669,0.0,0.0,0.0,0.0,3.0195360195360195,-1.164835164835165,0.0,0.0,0.0,1.3467643467643469,2.3211233211233213,0.0,0.0,0.0,0.0,0.7435897435897436,3.0134310134310134,0.0,0.0,0.0,0.0,0.0,3.5470085470085464,0.9059829059829059,0.0,0.0,0.0,,,,,,,,,,,,,,,,,,,,,,,,,,,,,,,,,,,,,movNegY
accX,0.0,0.0,0.0,0.0,0.0,0.0,0.0,0.0,0.0,0.0,0.0,0.0,-0.7765567765567766,0.0,0.0,0.0,0.0,0.0,-0.8766788766788767,-0.5494505494505495,-0.8205128205128205,0.0,0.0,0.0,0.0,-0.7045177045177046,-0.5494505494505495,0.0,0.0,0.0,0.0,-1.0463980463980465,0.0,0.0,0.0,0.0,0.0,-1.709401709401709,-0.7973137973137974,0.0,0.0,0.0,0.0,-2.6349206349206344,-1.1868131868131868,0.0,0.0,0.0,0.0,-2.37973137973138,-0.9072039072039072,-0.6875,0.0,0.0,0.0,-1.8778998778998781,0.0,0.0,0.0,0.0,0.0,-2.1111111111111107,0.0,0.0,0.0,0.0,0.0,-2.8522588522588523,0.0,0.0,0.0,0.0,0.0,-2.4236874236874235,0.0,0.0,0.0,0.0,0.0,-1.7032967032967032,0.8925518925518926,0.0,0.0,0.0,0.0,-2.075702075702076,1.1538461538461535,0.0,0.0,0.0,0.0,-2.3003663003662997,0.7557997557997558,0.0,0.0,0.0,-0.7057387057387058,-1.514041514041514,0.0,0.0,0.0,0.0,-0.9914529914529916,-0.7863247863247863,0.8107448107448108,0.0,0.0,0.0,0.0,-1.5164835164835164,0.0,0.0,0.0,0.0,0.0,-2.5873015873015874,0.0,0.0,-0.53125,0.0,-1.3235653235653235,-2.709401709401709,-1.3064713064713065,0.0,0.0,0.0,-2.333333333333333,-1.8424908424908424,-1.1709401709401708,0.0,0.0,0.0,-1.4993894993894994,-0.5702075702075702,0.0,0.0,0.0,0.0,-0.5860805860805861,-0.5494505494505495,0.0,0.0,0.0,0.0,0.9768009768009768,-1.5189255189255189,0.0,-0.5625,0.0,0.0,0.0,-0.6214896214896215,0.0,0.0,0.0,0.0,-1.2014652014652014,0.9816849816849816,0.0,0.0,0.53125,0.0,0.7203907203907204,2.6605616605616604,0.0,0.0,0.0,0.0,0.0,3.52991452991453,0.8021978021978022,0.0,0.0,0.0,0.0,3.703296703296704,0.0,0.0,0.0,0.0,0.5653235653235653,2.7423687423687424,0.0,0.0,0.0,0.0,2.238095238095238,2.6092796092796093,0.0,0.0,0.0,0.0,1.1623931623931625,4.777777777777779,1.2063492063492065,-0.6875,0.0,0.0,0.0,5.213675213675214,0.0,0.0,0.0,0.0,0.0,4.661782661782662,0.0,0.0,0.0,0.0,-0.8522588522588522,4.811965811965811,0.0,0.0,0.0,0.0,0.0,4.411477411477412,0.6312576312576312,0.0,0.0,0.0,0.0,4.017094017094017,0.0,0.0,0.0,0.0,0.0,3.653235653235653,0.0,0.0,0.0,0.0,1.0341880341880345,3.2991452991452985,0.0,0.0,0.0,0.0,1.094017094017094,2.844932844932845,0.8766788766788767,0.0,0.0,0.0,,,,,,,,,,,,,,,,,,,,,,,,,,,,,,,,,,,,,movNegY
accX,0.0,0.5738705738705738,0.6923076923076923,0.0,0.0,0.0,0.0,0.0,0.6214896214896215,0.625,0.0,0.0,0.0,-1.8315018315018317,-0.7606837606837606,0.0,0.0,0.0,0.0,-1.1172161172161172,-1.3833943833943834,0.0,0.0,0.0,-0.6483516483516484,-0.6019536019536019,-0.5543345543345544,-0.8125,0.0,0.0,0.0,-0.5164835164835165,0.0,-0.59375,0.0,0.0,0.6739926739926739,-1.5396825396825398,0.0,0.0,0.0,0.0,1.4114774114774116,-2.0854700854700856,0.0,0.0,0.0,0.0,0.0,-2.2551892551892547,-0.6727716727716728,0.0,0.0,0.0,-0.514041514041514,-2.477411477411477,-1.0048840048840049,0.0,0.0,0.0,0.0,-2.6092796092796093,-1.0622710622710625,0.0,0.0,0.0,0.0,-2.3687423687423688,-0.568986568986569,0.0,0.0,0.0,0.0,-2.5128205128205128,0.0,0.0,0.0,0.0,0.7863247863247863,-3.551892551892552,-1.0341880341880345,0.0,-0.53125,0.0,0.0,-4.418803418803419,-1.531135531135531,0.0,0.0,0.0,-0.8376068376068376,-3.5482295482295485,-0.7838827838827839,-0.5625,0.0,0.0,-0.7484737484737485,-2.555555555555556,0.6959706959706959,0.0,0.0,0.0,-1.1294261294261294,-2.0769230769230766,0.9413919413919414,0.0,0.0,0.0,-0.8021978021978022,-1.3418803418803418,1.2454212454212454,0.0,0.0,0.0,-0.8791208791208791,0.0,1.5592185592185592,0.0,0.0,0.0,-0.5934065934065934,-0.6593406593406593,1.380952380952381,0.0,0.0,0.0,0.0,0.0,1.5934065934065933,0.0,0.0,0.0,0.0,0.0,1.9768009768009769,0.0,0.0,0.0,0.0,0.0,2.2234432234432235,0.0,0.0,0.0,0.0,0.0,1.5738705738705738,0.0,0.0,0.0,0.0,1.0744810744810744,1.5628815628815629,0.0,0.0,0.0,0.5299145299145299,0.5885225885225885,1.092796092796093,0.75,0.0,0.0,0.0,0.63003663003663,0.0,0.625,0.0,0.0,0.9487179487179488,0.7106227106227107,0.0,0.0,0.0,0.0,1.0329670329670328,2.0488400488400487,0.0,0.0,0.0,0.0,0.0,2.627594627594628,0.0,0.6875,0.0,0.0,-0.9682539682539684,2.291819291819292,-2.9365079365079363,0.0,0.0,0.0,-1.4371184371184371,2.5677655677655684,-2.404151404151404,0.0,0.0,0.0,-1.5018315018315018,3.318681318681319,-2.13064713064713,0.0,0.0,0.0,0.0,2.8913308913308917,-2.133089133089133,0.0,0.53125,0.0,0.0,3.2539682539682535,-0.818070818070818,0.0,0.0,0.0,0.0,3.0024420024420024,-0.7252747252747253,0.0,0.0,0.0,0.0,2.122100122100122,-2.41025641025641,0.0,0.0,0.0,0.0,2.214896214896215,-2.3626373626373627,-0.8125,0.5625,0.0,-0.5323565323565324,4.180708180708181,1.8974358974358971,-1.1875,0.0,0.0,-0.7887667887667887,4.78998778998779,2.5445665445665444,0.0,0.0,0.0,0.0,3.617826617826618,1.3174603174603174,0.0,0.0,0.0,0.0,1.673992673992674,0.5006105006105006,0.0,0.0,0.0,,,,,,,,,,,,,,,,,,,,,,,,,movNegY
accX,0.0,0.0,0.0,0.0,0.0,0.0,0.0,0.0,0.8656898656898657,0.0,0.0,0.0,-0.8253968253968254,0.0,0.0,0.5625,0.0,0.0,0.0,-1.3540903540903542,-1.0415140415140416,0.0,0.0,0.0,0.6373626373626373,-1.2319902319902318,-0.7936507936507936,-0.625,0.0,0.0,0.0,0.0,0.7362637362637363,-0.6875,0.0,0.0,0.0,-0.536019536019536,0.63003663003663,0.0,0.0,0.0,0.0,-1.6385836385836383,0.0,0.0,0.0,0.0,0.6984126984126984,-2.3015873015873014,-0.9877899877899878,0.0,0.0,0.0,-0.5299145299145299,-1.975579975579976,-0.9462759462759462,0.0,0.0,0.0,-0.8742368742368742,-2.2625152625152625,-1.1001221001221002,-0.5625,0.0,0.0,0.0,-2.1111111111111107,-0.6654456654456654,-0.65625,0.0,0.0,0.0,-2.3907203907203907,0.0,0.0,0.0,0.0,0.0,-3.1404151404151404,0.0,0.0,0.0,0.0,0.0,-3.41025641025641,0.0,-0.53125,0.0,0.0,0.0,-2.5079365079365084,0.0,-0.5625,0.0,0.0,0.0,-2.091575091575092,0.6544566544566545,0.0,0.0,0.0,0.0,-2.4432234432234434,0.8400488400488401,0.0,0.0,0.0,0.0,-3.3162393162393164,0.0,0.0,0.0,0.0,0.0,-2.743589743589744,0.0,0.0,0.0,0.0,-0.7814407814407814,-0.6837606837606838,0.9474969474969476,0.0,0.0,0.0,0.0,0.0,1.0256410256410255,0.0,0.0,0.0,0.0,-1.3504273504273503,0.0,0.0,0.0,0.0,0.0,-1.6544566544566544,0.0,0.0,0.0,0.0,0.0,-0.5506715506715507,0.8083028083028083,0.0,0.0,0.0,0.0,1.103785103785104,0.9450549450549449,0.0,0.0,0.0,0.6568986568986569,1.3479853479853479,0.7496947496947497,0.0,0.0,0.0,1.249084249084249,0.0,0.0,0.0,0.0,0.0,0.0,0.8644688644688645,0.0,0.0,0.0,0.0,0.0,2.518925518925519,0.0,0.0,0.0,0.0,-0.7960927960927959,3.532356532356532,0.0,0.0,0.53125,0.0,0.0,3.1294261294261294,0.0,0.0,0.0,0.0,0.0,3.8107448107448105,-0.5775335775335775,0.0,0.0,0.0,-0.8400488400488401,4.05982905982906,-1.4004884004884004,0.0,0.53125,0.0,0.6666666666666666,5.637362637362638,1.746031746031746,0.0,0.0,0.0,0.0,5.593406593406592,1.4603174603174602,0.0,0.0,0.0,1.0122100122100122,4.163614163614163,0.0,0.0,0.0,0.0,0.73992673992674,3.9023199023199022,0.5873015873015873,0.0,0.0,0.0,0.0,3.0329670329670333,0.0,0.0,0.0,0.0,0.0,2.3284493284493286,-0.6483516483516484,0.0,0.0,0.0,0.0,2.758241758241758,0.0,0.0,0.0,0.0,-0.5201465201465202,2.5775335775335777,0.0,0.0,0.0,0.0,,,,,,,,,,,,,,,,,,,,,,,,,,,,,,,movNegY
accX,0.0,-0.6727716727716728,0.0,0.0,0.0,0.0,0.0,-0.5115995115995116,-0.5311355311355311,0.0,0.0,0.0,-0.7777777777777778,0.0,0.0,0.0,0.0,0.0,0.0,0.0,0.0,0.0,0.0,0.0,0.0,-1.126984126984127,0.0,0.0,0.0,0.0,0.0,-1.1514041514041513,-0.6153846153846154,0.0,0.0,0.0,0.0,-1.1526251526251523,0.0,0.0,0.0,0.0,0.0,-1.2796092796092795,0.0,0.0,0.0,0.0,0.0,-1.2747252747252746,0.0,0.0,0.0,0.0,0.0,-2.1978021978021984,-0.7741147741147741,0.0,0.0,0.0,0.0,-2.873015873015873,-1.2234432234432235,0.0,0.0,0.0,0.0,-2.952380952380953,-1.0244200244200243,-0.53125,0.0,0.0,0.0,-2.6336996336996337,0.0,0.0,0.0,0.0,-0.5885225885225885,-1.9902319902319905,0.0,0.0,0.0,0.0,0.0,-2.283272283272283,0.0,0.0,0.0,0.0,0.0,-2.7997557997558,-0.5592185592185592,0.0,0.0,0.0,0.0,-3.2148962148962146,0.0,-0.6875,0.0,0.0,0.0,-2.4346764346764345,0.568986568986569,-0.625,0.0,0.0,0.0,-1.8473748473748477,0.8083028083028083,-0.65625,0.0,0.0,0.0,-0.6434676434676435,1.26007326007326,0.0,0.0,0.0,-0.9682539682539684,0.0,0.6434676434676435,0.0,0.0,0.0,-1.031746031746032,0.0,0.0,0.0,0.0,0.0,-0.7264957264957265,0.0,0.0,0.0,0.0,0.0,0.0,0.6971916971916972,0.5653235653235653,0.0,0.0,0.0,0.0,1.442002442002442,0.8339438339438342,0.0,0.0,0.0,-1.1916971916971917,2.031746031746032,0.0,0.0,0.0,0.0,0.0,1.5177045177045176,0.0,0.0,0.0,0.0,0.0,1.7741147741147743,0.6642246642246642,0.0,0.0,0.0,0.9963369963369964,2.183150183150183,1.1147741147741148,0.0,0.0,0.0,1.0244200244200243,2.7411477411477403,0.8986568986568987,0.0,0.0,0.0,0.5457875457875457,2.1233211233211238,0.0,0.0,0.0,0.0,0.0,1.8705738705738704,-0.6923076923076923,0.0,0.0,0.0,1.4761904761904765,1.617826617826618,0.0,0.0,0.0,0.0,0.7435897435897436,2.15018315018315,0.8437118437118437,0.0,0.0,0.0,0.0,2.483516483516484,0.0,0.0,0.0,-0.625,0.0,3.748473748473749,0.0,0.0,0.0,0.0,-2.31013431013431,6.202686202686203,1.0427350427350428,0.0,0.0,0.0,-3.1587301587301586,6.206349206349207,0.9853479853479854,0.0,0.0,0.0,-2.6666666666666665,4.628815628815629,0.0,0.6875,0.0,0.0,-1.4481074481074483,2.7106227106227108,-0.9218559218559218,0.53125,0.0,0.0,0.0,1.2063492063492065,-0.7936507936507936,0.0,0.0,0.59375,1.0757020757020757,0.0,-0.8559218559218559,0.0,0.0,0.65625,,,,,,,,,,,,,,,,,,,,,,,,,,,,,,,movNegY
accX,-0.6752136752136753,0.0,0.0,0.0,0.0,0.0,0.0,0.0,0.0,0.53125,0.0,0.0,0.0,-0.984126984126984,-1.2356532356532357,0.0,0.0,0.0,0.0,-1.7863247863247864,-1.4664224664224663,0.0,0.0,0.0,0.0,0.0,-0.5885225885225885,-0.78125,0.0,0.0,0.0,-0.6849816849816851,0.0,0.0,0.0,0.0,0.6996336996336996,-1.912087912087912,-0.6703296703296703,0.0,0.0,0.0,0.8437118437118437,-2.706959706959707,-1.4920634920634919,0.0,0.0,0.0,0.0,-2.5726495726495733,-1.4090354090354091,0.0,0.0,0.0,-0.73992673992674,-1.9902319902319905,-0.6703296703296703,0.0,0.0,0.0,-1.1868131868131868,-1.5409035409035412,0.0,0.0,0.0,0.0,0.0,-2.7545787545787546,0.0,0.0,0.0,0.0,0.0,-3.065934065934066,0.0,-0.65625,0.0,0.0,0.0,-2.2612942612942613,0.0,0.0,0.0,0.0,-1.0952380952380951,-1.7765567765567765,0.0,0.0,0.0,0.0,-0.6410256410256411,-2.2857142857142856,0.0,0.0,0.0,0.0,-0.6935286935286935,-2.192918192918193,0.0,0.0,0.0,0.0,-0.7765567765567766,-1.2136752136752136,0.9548229548229548,0.0,0.0,0.0,-1.1086691086691087,0.0,1.092796092796093,0.0,0.0,0.0,-1.1709401709401708,-1.2124542124542124,0.0,0.0,0.0,0.0,0.0,-1.7716727716727716,0.0,0.0,0.0,0.0,0.9316239316239316,-1.5323565323565325,1.037851037851038,-0.53125,0.0,0.0,0.0,0.0,0.6776556776556777,-0.65625,0.0,0.0,-0.6141636141636142,1.387057387057387,1.2612942612942613,0.0,0.0,0.0,-1.3296703296703296,1.7167277167277166,1.5433455433455434,0.0,0.0,0.0,-0.6837606837606838,0.0,0.0,0.0,0.0,0.0,0.0,0.0,0.0,0.0,0.0,0.0,0.8266178266178266,1.2307692307692308,0.8925518925518926,-0.71875,-0.53125,0.625,0.0,3.75946275946276,1.915750915750916,0.0,0.0,0.0,0.0,3.736263736263736,1.0097680097680095,0.84375,0.0,0.0,0.9047619047619048,2.4884004884004884,0.0,0.84375,0.0,0.0,0.0,1.0842490842490842,-1.4212454212454213,0.0,0.0,0.0,1.1807081807081807,0.873015873015873,0.0,0.0,0.0,0.0,0.5958485958485958,3.8632478632478633,0.0,0.0,0.0,0.0,0.0,4.326007326007327,0.0,0.0,0.0,0.0,0.0,3.884004884004884,0.0,0.0,0.65625,0.0,0.0,4.2405372405372415,0.0,0.0,0.0,0.0,0.0,4.366300366300366,0.8559218559218559,0.0,0.0,0.0,0.6715506715506715,3.3028083028083026,0.0,0.65625,0.0,0.0,1.4383394383394383,1.6043956043956045,-1.0842490842490842,0.65625,0.0,0.0,0.6996336996336996,2.6202686202686203,0.0,0.0,0.0,0.0,-1.3748473748473748,3.6214896214896215,0.0,0.0,0.0,0.0,-0.7094017094017094,2.527472527472528,0.0,0.0,0.0,0.0,,,,,,,,,,,,,,,,,,,,,,,,,movNegY
accX,0.0,0.0,-0.7692307692307693,0.0,0.0,0.0,0.0,0.0,0.0,0.0,0.0,0.0,0.0,0.0,0.0,0.0,0.0,0.0,0.0,-1.164835164835165,0.0,0.0,0.0,0.0,0.0,-1.8925518925518925,-0.9401709401709402,0.0,0.0,0.0,-0.5409035409035409,-1.1587301587301588,-0.9633699633699634,-0.5625,0.0,0.0,0.0,-0.8229548229548229,0.0,0.0,0.0,0.0,0.0,-1.652014652014652,0.0,0.0,0.0,0.0,0.0,-2.9145299145299144,-1.126984126984127,0.0,0.0,0.0,0.0,-2.6483516483516483,-0.9438339438339438,-0.5625,0.0,0.0,0.0,-1.9633699633699635,0.0,0.0,0.0,0.0,-0.8522588522588522,-2.2002442002442004,0.0,0.0,0.0,0.0,0.0,-2.774114774114774,-0.5457875457875457,0.0,-0.875,0.0,-1.9413919413919412,-2.9902319902319903,-0.8547008547008547,0.0,-0.71875,0.0,-2.3956043956043955,-3.1330891330891335,-0.9377289377289376,0.0,0.59375,0.0,0.0,-3.6141636141636138,0.0,0.0,1.0,0.0,3.0903540903540905,-4.4993894993894985,0.0,0.0,0.0,0.0,0.0,-2.5824175824175826,0.5396825396825397,0.0,0.0,0.0,-1.7374847374847375,-1.1782661782661783,0.934065934065934,0.0,0.0,0.0,-0.978021978021978,-0.7936507936507936,1.0708180708180708,0.0,0.0,0.0,0.0,-1.6422466422466422,0.6581196581196581,0.0,0.0,0.0,-0.5995115995115995,-0.9426129426129426,0.0,-0.59375,0.0,0.0,-0.978021978021978,1.1916971916971917,1.4774114774114775,0.0,0.0,0.0,-0.6385836385836385,1.2735042735042734,1.5811965811965811,0.0,0.0,0.0,0.0,0.6727716727716728,0.7728937728937729,0.0,0.0,0.0,1.3467643467643469,0.0,0.6483516483516484,0.0,0.0,0.0,0.0,1.083028083028083,0.0,0.0,0.0,0.0,-0.9072039072039072,2.706959706959707,0.0,0.0,0.0,0.0,0.0,2.4444444444444446,0.0,0.0,0.0,0.0,0.6862026862026862,1.3162393162393162,0.0,0.0,0.0,0.0,0.6800976800976801,0.7423687423687424,-0.8595848595848596,0.0,0.0,0.0,0.0,1.6202686202686205,-0.8571428571428571,0.0,0.0,0.0,0.0,2.4639804639804637,0.0,0.0,0.0,0.0,-1.2796092796092795,3.8376068376068377,0.0,0.53125,0.0,0.0,-0.5079365079365079,2.241758241758242,-1.083028083028083,0.0,0.0,0.0,0.6520146520146519,1.0879120879120878,-1.8363858363858363,0.0,0.0,0.0,0.9010989010989012,0.8461538461538461,-2.0695970695970702,0.0,0.0,0.0,1.1062271062271063,1.4871794871794872,0.0,0.0,0.0,0.0,-0.6642246642246642,3.7387057387057383,0.0,0.0,0.0,0.0,-1.1623931623931625,4.8498168498168495,1.4969474969474967,0.0,0.0,0.0,-0.934065934065934,3.561660561660561,1.4554334554334554,0.0,0.0,0.0,-1.0586080586080586,1.6971916971916972,0.0,0.0,0.0,0.0,0.0,0.0,-0.9902319902319904,0.0,0.0,0.0,0.6239316239316239,0.0,0.0,-0.5625,0.0,0.0,,,,,,,,,,,,,,,,,,,movNegY
accX,0.0,-0.6935286935286935,0.0,0.0,0.0,0.0,0.5213675213675214,-0.8107448107448108,0.0,0.0,0.0,0.0,0.0,-1.065934065934066,-0.7032967032967034,0.0,0.0,0.0,0.0,-1.2295482295482296,-0.9572649572649572,0.0,0.0,0.0,0.0,-0.9768009768009768,-0.5555555555555556,0.0,0.0,0.0,0.0,-1.442002442002442,-0.6813186813186813,0.0,0.0,0.0,0.0,-2.2026862026862033,-0.9145299145299144,0.0,0.0,0.0,0.0,-2.768009768009768,-0.934065934065934,0.0,0.0,0.0,0.0,-2.7008547008547015,-0.7094017094017094,0.0,0.0,0.0,0.0,-2.404151404151404,0.0,0.0,0.0,0.0,-0.5836385836385837,-2.2234432234432235,-0.5103785103785103,0.0,0.0,0.0,-0.6251526251526252,-2.561660561660561,0.0,0.0,0.0,0.0,0.0,-3.0378510378510377,0.0,0.0,0.0,0.0,-0.8009768009768009,-2.4725274725274726,0.0,0.0,0.0,0.0,0.0,-2.421245421245421,0.0,0.0,0.0,0.0,0.0,-1.537240537240537,0.6263736263736264,0.0,0.0,0.0,0.0,0.0,1.0134310134310134,0.0,0.0,0.0,-0.8217338217338217,0.0,0.7545787545787546,0.0,0.0,0.0,-1.1391941391941391,-0.8864468864468864,0.0,0.0,0.0,0.0,-0.6971916971916972,-1.286935286935287,0.0,0.0,0.0,0.0,0.0,-0.9523809523809524,0.0,0.0,0.0,0.0,0.0,0.0,0.0,0.0,0.0,0.0,0.0,0.0,0.5115995115995116,0.0,0.0,0.0,0.0,0.0,0.518925518925519,0.0,0.0,0.0,0.8058608058608059,0.0,0.956043956043956,0.0,0.0,0.0,0.0,1.2173382173382172,1.5543345543345544,0.0,0.0,0.0,0.0,1.2857142857142858,1.6434676434676434,0.0,0.0,0.0,0.5409035409035409,0.0,0.7655677655677655,0.0,0.0,0.0,0.0,0.8302808302808303,-0.7081807081807082,0.0,0.0,0.0,-0.6825396825396826,2.1697191697191696,-0.7704517704517705,0.0,0.0,0.0,0.0,2.937728937728938,-0.6263736263736264,0.0,0.0,0.0,0.6166056166056166,1.5299145299145298,-1.0293040293040292,0.0,0.0,0.0,1.3736263736263736,2.5079365079365084,-0.7216117216117216,0.0,-0.71875,0.53125,-0.7680097680097681,5.735042735042735,0.514041514041514,0.0,0.0,0.0,1.1526251526251523,3.772893772893773,0.0,1.4375,0.53125,0.0,0.9768009768009768,2.094017094017094,-1.031746031746032,0.9375,0.0,0.0,-1.3724053724053724,3.673992673992674,0.0,0.0,0.0,0.0,-0.8070818070818071,3.678876678876679,0.0,0.0,0.0,0.0,0.8669108669108669,0.8559218559218559,-0.8437118437118437,0.90625,0.0,0.0,0.0,0.0,-2.879120879120879,0.0,0.0,0.0,-0.9169719169719168,2.216117216117216,-1.3699633699633702,-0.71875,0.0,0.0,-0.5531135531135531,3.173382173382173,1.4236874236874235,0.0,0.0,0.0,0.0,2.0989010989010994,1.3345543345543345,0.0,0.0,0.0,,,,,,,,,,,,,,,,,,,,,,,,,movNegY
accX,0.518925518925519,0.0,0.0,0.0,0.0,0.0,0.0,0.0,0.0,0.0,0.0,0.0,-0.5531135531135531,-0.7509157509157509,0.0,0.0,0.0,0.0,0.0,-0.9658119658119658,0.0,0.0,0.0,0.0,0.0,-1.1343101343101345,-0.6544566544566545,0.0,0.0,0.0,0.0,0.0,0.0,0.0,0.0,0.0,0.0,-1.1086691086691087,0.0,0.0,0.0,0.0,0.0,-1.6642246642246643,-0.9902319902319904,0.0,0.0,0.0,0.0,-2.028083028083028,-1.3992673992673992,0.0,0.0,0.0,-0.6324786324786325,-2.070818070818071,-1.0256410256410255,0.0,0.0,0.0,0.0,-2.312576312576313,-0.5555555555555556,0.0,0.0,0.0,0.0,-2.1562881562881557,0.0,0.0,0.0,0.0,0.0,-2.312576312576313,0.0,0.0,0.0,0.0,0.0,-2.4725274725274726,0.0,0.0,0.0,0.0,0.0,-2.68009768009768,0.0,0.0,0.0,0.0,0.0,-2.688644688644689,0.0,0.0,0.0,0.0,-0.8522588522588522,-2.3174603174603177,0.0,0.0,0.0,0.0,-1.2222222222222223,-1.968253968253968,0.0,0.0,0.0,0.0,0.0,-2.5921855921855923,0.0,0.0,0.0,0.0,0.0,-2.518925518925519,0.0,0.0,0.0,0.0,0.5714285714285714,-1.931623931623932,0.9267399267399268,0.0,0.0,0.0,0.0,-0.7509157509157509,1.326007326007326,0.0,0.0,0.0,0.0,0.0,1.006105006105006,0.0,0.0,0.0,-0.6080586080586079,0.0,0.0,0.0,0.0,0.0,-0.5616605616605617,0.0,0.0,0.0,0.0,0.0,1.4529914529914532,0.0,0.0,-0.625,-0.53125,0.0,1.2783882783882785,1.2417582417582418,0.0,-0.8125,-0.96875,0.0,-1.2063492063492065,3.326007326007326,0.0,0.0,0.0,0.0,0.0,3.025641025641025,0.0,0.0,0.0,0.0,1.5958485958485962,3.1233211233211238,0.8620268620268621,0.0,0.0,0.0,0.0,4.9584859584859595,1.537240537240537,-0.53125,0.0,0.0,-0.7741147741147741,6.087912087912088,2.4664224664224665,0.0,0.0,0.0,-1.0818070818070815,5.241758241758243,1.652014652014652,0.75,0.0,0.0,-2.1709401709401708,3.638583638583639,-0.5934065934065934,0.84375,0.0,0.0,0.0,1.6422466422466422,-1.9194139194139197,0.0,0.0,0.0,0.0,2.9963369963369964,-1.122100122100122,0.0,0.0,0.0,0.0,2.7643467643467643,0.0,0.53125,0.0,0.0,1.4664224664224663,1.6288156288156288,-0.5006105006105006,0.625,0.0,0.0,1.1306471306471306,2.6263736263736264,0.0,0.0,0.0,0.0,0.0,3.4285714285714284,0.8205128205128205,0.0,0.0,0.0,0.0,2.7387057387057387,0.8400488400488401,0.0,0.0,0.0,0.0,0.0,-1.1514041514041513,0.0,0.0,0.0,0.0,0.6910866910866911,-2.1672771672771667,0.0,0.0,0.0,,,,,,,,,,,,,,,,,,,,,,,,,movNegY
accX,0.0,-1.4810744810744811,-1.5934065934065933,0.0,0.0,0.0,-0.7802197802197802,-0.7594627594627594,-0.7912087912087912,0.0,0.0,0.0,-0.5079365079365079,0.0,0.0,0.0,0.0,0.0,0.0,-1.3296703296703296,0.0,0.0,0.0,0.0,0.0,-2.63980463980464,-1.1868131868131868,0.0,0.0,0.0,-0.5213675213675214,-2.515262515262515,-1.4175824175824177,-0.96875,0.0,0.0,0.0,-1.6483516483516485,0.0,-0.84375,0.0,0.0,0.0,-1.84004884004884,0.5567765567765568,0.0,0.0,0.0,0.7289377289377289,-2.5763125763125765,0.0,0.0,0.0,0.0,0.57997557997558,-2.7643467643467643,0.0,0.0,0.0,0.0,-0.8095238095238095,-2.415140415140415,0.0,0.0,0.0,0.0,-1.4407814407814408,-2.3565323565323566,0.0,0.0,0.0,0.0,-1.0402930402930404,-1.7374847374847375,0.0,0.0,0.0,0.0,-0.7289377289377289,-1.8888888888888888,0.6129426129426129,0.0,0.0,0.0,0.0,-2.8827838827838828,0.6910866910866911,0.0,0.0,0.0,0.0,-3.120879120879121,0.0,0.0,0.0,0.0,0.0,-2.4004884004884004,0.0,0.0,0.0,0.0,0.0,-2.6336996336996337,0.5531135531135531,0.0,0.0,0.0,0.0,-2.562881562881563,1.031746031746032,0.0,0.0,0.0,0.0,-2.1343101343101343,0.0,0.0,0.0,0.0,0.0,-1.5482295482295485,0.0,0.0,0.0,0.0,0.0,-0.971916971916972,0.0,0.0,0.0,0.0,0.0,0.0,0.78998778998779,0.0,0.0,0.0,0.0,0.0,1.5335775335775337,0.0,0.0,0.0,1.31013431013431,0.6214896214896215,0.7765567765567766,0.0,0.0,0.0,0.0,1.8632478632478635,0.0,0.0,0.0,0.0,-0.7179487179487181,3.0891330891330893,0.0,0.0,0.0,0.0,-0.8217338217338217,3.455433455433456,-0.6739926739926739,0.0,0.0,0.0,0.0,3.063492063492064,-1.0964590964590966,0.0,0.0,0.0,0.0,3.2295482295482296,-1.0354090354090355,0.0,0.0,0.0,-0.8717948717948718,3.6031746031746033,-1.8986568986568984,0.0,0.0,0.0,0.0,3.1135531135531136,-1.7423687423687424,0.0,0.0,0.0,0.0,3.5543345543345537,-1.1074481074481075,0.0,0.59375,0.0,-0.536019536019536,3.927960927960928,-0.63003663003663,0.0,0.6875,0.0,-0.8315018315018315,4.407814407814408,0.0,0.0,0.65625,0.0,0.0,4.753357753357753,1.3724053724053724,0.0,0.0,0.0,0.7582417582417582,3.7387057387057383,1.4456654456654456,0.0,0.0,0.0,0.5201465201465202,3.0927960927960934,1.47985347985348,0.0,0.0,0.0,0.0,2.2722832722832718,0.6153846153846154,0.0,0.0,0.0,,,,,,,,,,,,,,,,,,,,,,,,,,,,,,,,,,,,,,,,,,,,,,,,,movNegY
accX,0.0,-0.6019536019536019,0.0,0.625,0.0,0.0,0.6141636141636142,-1.5592185592185592,-0.7716727716727717,0.0,0.0,0.0,0.0,-1.1978021978021978,-1.0268620268620268,0.0,0.0,0.0,-0.5518925518925519,-1.1672771672771671,-0.78998778998779,-0.53125,0.0,0.0,0.0,0.0,0.0,0.0,0.0,0.0,0.0,-1.1916971916971917,0.0,0.0,0.0,0.0,0.0,-2.128205128205128,-0.7680097680097681,0.0,0.0,0.0,-0.7032967032967034,-2.092796092796093,-1.1172161172161172,0.0,0.0,0.0,-0.5396825396825397,-1.7826617826617828,0.0,0.0,0.0,0.0,0.0,-1.7362637362637363,0.0,0.0,0.0,0.0,0.0,-2.9511599511599518,-0.7851037851037851,0.0,0.0,0.0,-0.978021978021978,-3.389499389499389,-1.6275946275946276,-0.625,0.0,0.0,-0.8901098901098901,-2.415140415140415,-0.5702075702075702,-0.65625,0.0,0.0,-0.6312576312576312,-1.975579975579976,0.6568986568986569,0.0,0.0,0.0,0.0,-2.9438339438339436,0.0,0.0,0.0,0.0,0.0,-2.927960927960928,0.0,-0.53125,0.0,0.0,-1.31990231990232,-2.3443223443223444,0.57997557997558,0.0,0.0,0.0,-0.6788766788766789,-2.4615384615384617,0.7362637362637363,0.0,0.0,0.0,0.0,-2.554334554334554,0.8803418803418803,0.0,0.0,0.0,0.0,-1.4603174603174602,0.6898656898656899,0.0,0.0,0.0,0.0,-1.1294261294261294,1.321123321123321,0.0,0.0,0.0,0.5860805860805861,-1.05006105006105,1.3345543345543345,0.0,0.0,0.0,0.0,-1.1257631257631258,0.9169719169719168,0.0,0.0,0.0,0.0,0.0,0.0,0.0,0.0,0.0,0.0,0.9792429792429792,0.5115995115995116,0.0,0.0,0.0,0.0,0.956043956043956,0.0,0.0,0.0,0.0,0.0,1.1746031746031746,0.0,0.0,0.0,0.0,0.0,1.6654456654456655,-0.6031746031746031,0.0,0.0,0.0,0.0,1.9694749694749696,-0.6715506715506715,0.0,0.0,0.0,0.7435897435897436,2.5286935286935286,0.0,0.0,0.0,0.0,-1.0415140415140416,2.9572649572649574,-1.0708180708180708,0.0,0.0,0.0,-1.166056166056166,3.2026862026862033,-1.6446886446886446,0.0,0.0,0.0,-0.7912087912087912,3.0854700854700856,-1.4017094017094016,0.0,0.0,0.0,-1.647130647130647,4.3247863247863245,-0.8974358974358975,0.0,0.0,0.0,-1.525030525030525,4.888888888888889,0.6471306471306472,0.0,0.0,0.0,-1.0842490842490842,3.433455433455433,0.9523809523809524,0.0,0.0,0.0,1.2161172161172158,1.0402930402930404,0.0,0.0,0.0,0.0,1.5604395604395604,0.9548229548229548,0.0,0.0,0.0,0.0,0.0,1.8266178266178263,-0.514041514041514,0.0,0.0,0.0,-0.7912087912087912,3.8180708180708174,0.8351648351648352,0.0,0.5625,0.0,-1.619047619047619,4.761904761904762,2.3821733821733817,0.0,0.0,0.0,-0.8791208791208791,2.9975579975579976,1.568986568986569,0.0,0.0,0.0,0.5115995115995116,0.7057387057387058,0.0,0.0,0.0,0.0,0.0,0.6825396825396826,-1.4175824175824177,0.0,-0.53125,0.0,,,,,,,,,,,,,,,,,,,movNegY
accX,0.0,-0.9365079365079364,-0.5213675213675214,0.0,0.0,0.0,0.0,-0.78998778998779,-0.6214896214896215,0.0,0.0,0.0,0.0,-0.6862026862026862,-0.8840048840048841,0.0,0.0,0.0,0.0,0.0,0.0,0.0,0.0,0.0,0.0,-1.020757020757021,0.0,0.0,0.0,0.0,0.5567765567765568,-1.8363858363858363,-1.0488400488400489,0.0,0.0,0.0,0.0,-1.8632478632478635,-1.105006105006105,0.0,0.0,0.0,0.0,-1.2783882783882785,0.0,-0.5625,0.0,0.0,-0.7997557997557998,-1.0549450549450552,0.0,0.0,0.0,0.0,0.0,-1.7692307692307692,0.0,0.0,0.0,0.0,0.6532356532356532,-2.8021978021978016,-0.6239316239316239,0.0,0.0,0.0,0.0,-2.8424908424908426,-0.6984126984126984,0.0,0.0,0.0,-0.6495726495726496,-1.684981684981685,0.0,0.0,0.0,0.0,-0.818070818070818,-1.4957264957264955,0.0,0.0,0.0,0.0,0.0,-2.1684981684981683,0.0,0.0,0.0,0.0,0.0,-3.0085470085470085,0.0,0.0,0.0,0.0,0.0,-2.5311355311355306,0.0,0.0,0.0,0.0,0.0,-1.5702075702075702,0.0,0.0,0.0,0.0,-0.8437118437118437,-1.380952380952381,0.0,0.0,0.0,0.0,0.0,-1.9609279609279608,0.0,0.0,0.0,0.0,0.5860805860805861,-1.9267399267399268,0.9731379731379732,0.0,0.0,0.0,0.0,-1.2295482295482296,1.442002442002442,0.0,0.0,0.0,0.0,-0.5409035409035409,0.8009768009768009,0.0,0.0,0.0,0.0,0.0,0.7155067155067155,0.0,0.0,0.0,0.0,0.0,0.6178266178266179,0.0,0.0,0.0,0.0,0.0,1.1172161172161172,0.0,0.0,0.0,0.0,1.3455433455433456,0.0,0.0,0.0,0.0,0.0,2.2649572649572653,0.0,0.0,0.0,0.0,0.7472527472527473,2.3028083028083026,0.6654456654456654,0.0,0.0,0.0,1.3015873015873016,2.0781440781440783,0.0,0.0,0.0,0.625,1.010989010989011,1.3882783882783882,-1.761904761904762,0.0,0.0,0.0,1.612942612942613,0.7081807081807082,-2.3223443223443225,0.0,0.0,0.0,1.656898656898657,1.2210012210012209,-2.0781440781440783,0.0,0.0,0.0,0.5286935286935287,2.547008547008547,-2.0781440781440783,0.0,0.0,0.0,-0.5995115995115995,4.528693528693529,-0.9010989010989012,0.0,0.0,0.0,-0.9230769230769232,6.84004884004884,1.7228327228327232,0.0,0.0,0.0,-1.7045177045177045,8.148962148962147,3.101343101343101,0.0,0.0,0.0,-0.9975579975579976,7.26007326007326,3.0854700854700856,0.5625,0.0,0.0,-0.8522588522588522,6.111111111111112,2.4566544566544573,0.6875,0.0,0.0,-0.967032967032967,4.0708180708180715,0.7557997557997558,0.65625,0.0,0.5625,0.0,1.3833943833943834,-0.6007326007326007,0.0,-0.59375,0.75,1.7533577533577531,-0.5824175824175825,-1.6385836385836383,0.0,-0.65625,0.75,,,,,,,,,,,,,,,,,,,,,,,,,,,,,,,movNegY
accX,0.0,0.0,0.0,0.0,0.0,0.0,0.0,0.0,0.0,0.0,0.0,0.0,0.0,0.0,0.0,0.0,0.0,0.0,0.0,-1.4822954822954824,-1.0048840048840049,0.0,0.0,0.0,0.0,-0.9401709401709402,-0.9487179487179488,0.0,0.0,0.0,0.0,-0.7045177045177046,-0.6910866910866911,0.0,0.0,0.0,0.0,0.0,0.0,0.0,0.0,0.0,0.0,-1.6483516483516485,-0.5470085470085471,0.0,0.0,0.0,0.7643467643467643,-2.728937728937729,-1.0488400488400489,0.0,0.0,0.0,0.0,-2.0476190476190474,0.0,-0.6875,0.0,0.0,0.0,-1.2393162393162394,0.0,0.0,0.0,0.0,-0.7448107448107448,-1.6288156288156288,0.0,0.0,0.0,0.0,-0.5299145299145299,-2.421245421245421,-0.8974358974358975,0.0,0.0,0.0,-0.7362637362637363,-2.034188034188034,-0.514041514041514,0.0,0.0,0.0,0.0,-1.7777777777777777,0.525030525030525,0.0,0.0,0.0,0.0,-1.6275946275946276,0.6752136752136753,0.0,0.0,0.0,-0.7057387057387058,-0.8864468864468864,0.8278388278388278,0.0,0.0,0.0,-1.3028083028083028,-0.94993894993895,0.0,0.0,0.0,0.0,-0.9413919413919414,-1.5616605616605617,0.0,0.0,0.0,0.0,0.0,-1.876678876678877,0.0,0.0,0.0,0.0,0.5714285714285714,-1.4041514041514038,0.0,0.0,0.0,0.0,0.5836385836385837,-0.7741147741147741,0.0,0.0,0.0,0.0,0.0,0.0,0.5860805860805861,0.0,0.0,0.0,0.0,0.0,0.9731379731379732,0.0,0.0,0.0,0.0,0.0,0.0,0.0,0.0,0.0,0.0,0.0,0.0,0.0,0.0,0.0,0.0,0.7289377289377289,0.0,0.0,0.0,0.0,-0.6910866910866911,1.9474969474969477,0.6642246642246642,0.0,0.0,0.0,0.0,1.84004884004884,0.0,0.0,0.0,0.0,0.7973137973137974,0.9365079365079364,0.0,0.0,-0.59375,0.0,-0.989010989010989,3.1623931623931623,0.0,0.0,-0.75,0.0,0.7448107448107448,1.8705738705738704,-1.205128205128205,0.71875,0.0,0.0,2.515262515262515,1.2673992673992671,-0.8437118437118437,0.0,0.0,0.0,0.0,3.694749694749695,0.9609279609279608,0.0,-1.28125,0.0,-3.131868131868132,4.827838827838828,0.0,0.71875,0.0,0.0,-2.2002442002442004,3.9438339438339436,-2.455433455433456,0.625,0.0,0.0,-2.3174603174603177,5.443223443223443,-0.8473748473748474,-0.59375,0.0,0.0,-2.4945054945054945,6.1562881562881575,1.2271062271062272,0.0,0.0,0.53125,0.0,2.4004884004884004,0.0,0.0,0.625,0.0,2.7399267399267404,0.0,-0.8547008547008547,0.0,0.0,0.625,0.9877899877899878,0.0,-0.8229548229548229,0.0,0.0,0.625,0.8998778998778999,1.0256410256410255,0.0,0.0,0.0,0.0,0.0,2.7118437118437115,1.2551892551892552,0.0,0.71875,0.0,,,,,,,,,,,,,,,,,,,,,,,,,movNegY
accX,-0.7191697191697192,0.0,-1.0305250305250304,-0.59375,0.0,0.0,0.0,0.0,0.0,0.0,0.0,0.0,0.0,0.0,1.0097680097680095,0.53125,0.0,0.0,-0.7741147741147741,-1.1514041514041513,-0.5970695970695971,0.0,0.0,0.0,0.0,-1.706959706959707,-1.4542124542124542,0.0,0.0,0.0,0.8070818070818071,-0.7582417582417582,0.0,-0.5625,0.0,0.0,0.0,0.0,0.9267399267399268,0.0,0.0,0.0,0.0,-0.7179487179487181,0.0,0.0,0.0,0.0,-0.5042735042735043,-1.8168498168498168,-1.684981684981685,0.0,0.0,0.0,0.0,-1.9242979242979243,-1.3284493284493284,-0.65625,0.0,0.0,0.0,0.0,0.0,0.0,0.0,0.0,0.0,-1.3882783882783882,0.0,0.0,0.0,0.0,0.5274725274725275,-2.5921855921855923,-1.332112332112332,0.0,0.0,0.0,0.0,-3.4456654456654463,-1.9169719169719168,-0.6875,0.0,0.0,-0.6166056166056166,-2.3785103785103785,-0.8717948717948718,-0.59375,0.0,0.0,-1.3064713064713065,-1.5567765567765568,0.0,0.0,0.0,0.0,-1.3089133089133091,-1.5054945054945057,0.0,0.0,0.0,0.0,-0.7216117216117216,-1.7557997557997558,0.0,0.0,0.0,0.0,0.0,-2.404151404151404,0.0,0.0,0.0,0.0,0.0,-1.9706959706959708,0.8192918192918193,0.0,0.0,0.0,-1.0329670329670328,-1.10989010989011,0.6910866910866911,0.0,0.0,0.0,0.0,-1.05006105006105,0.0,0.0,0.0,0.0,0.0,-1.4493284493284493,0.0,0.0,0.0,0.0,0.0,-0.8827838827838828,1.1501831501831499,0.0,0.0,0.0,0.0,0.0,1.1025641025641026,0.0,0.0,0.0,0.0,0.0,0.7045177045177046,0.0,0.0,0.0,0.0,0.8547008547008547,1.0048840048840049,0.0,0.0,0.0,-0.706959706959707,2.1416361416361416,1.3540903540903542,0.0,0.0,0.0,-1.1306471306471306,2.0378510378510377,0.5396825396825397,0.75,0.0,0.0,-0.6434676434676435,1.6666666666666667,-0.5311355311355311,0.78125,0.0,0.0,0.0,1.794871794871795,0.0,0.53125,0.0,0.0,0.0,2.4713064713064714,0.0,0.65625,0.0,0.0,0.0,2.619047619047619,-1.195360195360195,1.0625,0.0,0.0,0.0,2.52991452991453,-2.086691086691087,0.90625,0.0,0.0,0.0,2.6312576312576312,-1.8376068376068373,0.0,0.0,0.0,0.0,3.814407814407815,0.0,0.0,0.0,0.0,0.0,4.202686202686203,0.0,0.0,0.0,0.0,0.0,3.7350427350427347,0.0,0.0,0.0,0.0,0.6593406593406593,3.2698412698412698,0.0,0.0,0.0,0.0,0.0,2.4896214896214897,-0.5628815628815629,0.0,0.0,0.0,0.0,1.809523809523809,-1.0549450549450552,0.0,0.0,0.0,0.0,2.43956043956044,0.0,0.0,0.0,0.0,-0.6959706959706959,2.5384615384615383,0.0,0.0,0.0,0.0,-0.5714285714285714,1.6862026862026862,0.0,0.0,0.0,0.0,,,,,,,,,,,,,,,,,,,movNegY
accX,0.0,-1.0818070818070815,-0.7802197802197802,0.0,0.0,0.0,0.0,-1.1245421245421243,-1.4529914529914532,0.0,0.0,0.0,-0.5628815628815629,-0.6214896214896215,-1.3406593406593406,-0.625,0.0,0.0,0.0,-0.5506715506715507,0.0,0.0,0.0,0.0,0.0,0.0,0.7533577533577533,0.0,0.0,0.0,0.0,-1.557997557997558,0.0,0.0,0.0,0.0,0.0,-2.5702075702075704,-1.3150183150183148,0.0,0.0,0.0,0.0,-2.225885225885226,-0.6971916971916972,-1.03125,0.0,0.0,0.0,-0.7948717948717948,0.8571428571428571,-0.59375,0.0,0.0,-0.7435897435897436,-1.462759462759463,0.5274725274725275,0.0,0.0,0.0,-0.7728937728937729,-2.5494505494505493,-0.5213675213675214,0.0,0.0,0.0,0.0,-2.84004884004884,-0.9902319902319904,-0.53125,0.0,0.0,-0.7216117216117216,-2.073260073260073,0.0,-0.625,0.0,0.0,-0.9572649572649572,-1.2295482295482296,1.2344322344322345,0.0,0.0,0.0,-1.568986568986569,-1.5775335775335777,1.1245421245421243,0.0,0.0,0.0,0.0,-2.47008547008547,0.8717948717948718,0.0,0.0,0.0,-0.5286935286935287,-1.9719169719169718,0.7655677655677655,0.0,0.0,0.0,0.0,-1.5482295482295485,0.8351648351648352,0.0,0.0,0.0,0.0,-0.6398046398046398,1.5433455433455434,0.0,0.0,0.0,-0.8070818070818071,-0.8864468864468864,1.0085470085470083,0.0,0.0,0.0,0.6214896214896215,0.0,0.971916971916972,0.0,0.0,0.0,0.0,0.0,0.7338217338217338,0.0,0.0,0.0,0.0,0.0,0.0,0.0,0.0,0.0,0.0,0.0,-0.6129426129426129,0.53125,0.0,0.0,0.0,1.0415140415140416,-1.7667887667887667,0.0,0.0,0.0,0.0,2.2649572649572653,-0.9755799755799756,0.0,0.0,0.0,-0.5885225885225885,2.6434676434676434,0.0,0.0,0.0,0.0,-1.0964590964590966,2.6996336996337003,-0.57997557997558,0.53125,0.0,0.0,0.0,1.6984126984126984,-1.2319902319902318,0.0,0.0,0.0,0.6471306471306472,1.5738705738705738,-1.6398046398046398,0.0,0.0,0.0,0.0,4.063492063492063,0.0,0.0,0.0,0.0,-1.5225885225885225,5.056166056166056,0.7985347985347986,0.65625,1.25,-0.6875,-2.015873015873016,3.0427350427350426,-2.5396825396825395,1.28125,1.34375,-0.6875,-0.9829059829059827,2.043956043956044,-3.7692307692307687,0.0,0.59375,0.0,-1.0244200244200243,4.147741147741148,0.0,-0.96875,0.0,0.625,0.0,3.804639804639805,1.5616605616605617,0.0,0.0,0.0,2.389499389499389,0.6825396825396826,0.0,0.78125,0.0,0.0,2.0891330891330893,0.0,-1.6813186813186811,0.0,0.0,0.0,0.0,3.655677655677656,0.8205128205128205,-1.03125,0.0,0.0,0.0,4.819291819291818,3.3626373626373627,0.0,0.0,0.0,-1.1489621489621489,3.3553113553113554,1.4578754578754578,0.5625,0.0,0.0,0.0,0.9304029304029304,-0.778998778998779,0.0,0.0,0.0,,,,,,,,,,,,,,,,,,,,,,,,,,,,,,,movNegY
accX,0.0,0.0,0.0,0.5625,0.0,0.0,0.7374847374847375,-1.362637362637363,-1.2783882783882785,0.0,0.0,0.0,0.7326007326007326,-0.7594627594627594,-0.6788766788766789,0.0,0.0,0.0,0.0,0.0,0.0,0.0,0.0,0.0,0.0,0.0,0.0,0.0,0.0,0.0,0.0,-1.7216117216117215,-1.0598290598290598,0.0,0.0,0.0,-0.6080586080586079,-1.6544566544566544,-1.2796092796092795,0.0,0.0,0.0,-0.8803418803418803,-1.3150183150183148,-0.7240537240537241,0.0,0.0,0.0,-0.5164835164835165,-1.2368742368742371,0.0,0.0,0.0,0.0,0.0,-2.117216117216117,-0.7106227106227107,0.0,0.0,0.0,0.0,-2.715506715506716,-1.0366300366300367,-0.71875,0.0,0.0,0.0,-1.978021978021978,0.0,-0.59375,0.0,0.0,-0.6398046398046398,-2.4004884004884004,0.0,0.0,0.0,0.0,0.0,-3.1343101343101343,0.0,0.0,0.0,0.0,0.0,-3.061050061050061,0.0,-0.9375,0.0,0.0,0.0,-3.1294261294261294,0.0,-1.0,0.0,0.0,0.0,-3.263736263736264,0.0,-0.75,0.0,0.0,-0.9267399267399268,-2.958485958485958,0.0,0.0,0.0,0.0,-1.8656898656898655,-1.8363858363858363,0.0,0.0,0.6875,0.0,-1.5482295482295485,0.0,0.6410256410256411,0.0,0.78125,0.0,-0.7338217338217338,0.5836385836385837,1.6007326007326008,0.0,0.0,0.0,0.0,0.0,2.021978021978022,0.0,0.0,0.0,0.0,0.0,1.9304029304029304,0.0,0.0,0.0,0.0,1.5628815628815629,1.52014652014652,0.0,0.0,0.0,0.0,1.6727716727716728,1.7130647130647132,0.0,0.0,0.0,1.1526251526251523,0.8461538461538461,1.2002442002442002,0.0,0.0,0.0,0.0,1.242979242979243,0.0,0.0,0.0,0.0,0.0,1.065934065934066,-0.8815628815628815,0.0,0.0,0.0,0.6739926739926739,1.1391941391941391,-0.5384615384615384,0.0,0.0,0.0,0.7094017094017094,0.9267399267399268,-0.5054945054945055,0.0,0.0,0.0,0.0,0.0,-1.695970695970696,0.0,0.0,0.0,0.5470085470085471,0.0,-2.1538461538461537,0.0,0.0,0.0,0.0,1.3699633699633702,-1.534798534798535,-0.5625,0.0,0.0,0.5445665445665445,1.724053724053724,-0.7130647130647131,-0.875,0.0,0.0,-0.8083028083028083,2.84004884004884,0.6349206349206349,-0.71875,0.0,0.0,-1.78021978021978,3.067155067155068,0.0,0.0,0.0,0.0,-2.0549450549450547,3.0830280830280827,0.0,0.625,0.0,0.0,-2.0793650793650795,1.7814407814407816,-1.6666666666666667,0.78125,1.09375,0.0,-1.3418803418803418,2.324786324786325,-0.9768009768009768,0.0,0.65625,0.0,-2.33943833943834,3.5347985347985347,1.164835164835165,0.0,0.0,0.0,0.5152625152625152,1.1147741147741148,1.0952380952380951,0.0,0.0,0.0,1.4358974358974361,0.0,0.6666666666666666,0.0,0.0,0.0,0.568986568986569,0.6703296703296703,0.0,0.0,0.0,0.0,0.0,1.3956043956043955,1.105006105006105,0.0,0.0,0.0,,,,,,,,,,,,,,,,,,,movNegY
accX,0.0,-0.5543345543345544,-1.2258852258852257,0.0,0.0,0.0,0.0,0.0,-0.5335775335775336,0.0,0.0,0.0,0.6691086691086691,0.0,0.73992673992674,0.0,-0.625,0.0,0.0,-1.3894993894993894,0.0,0.0,0.0,0.0,-0.5054945054945055,-2.083028083028083,-1.5836385836385836,-0.53125,0.0,0.0,-0.5909645909645911,-1.2332112332112333,-1.358974358974359,-0.96875,0.0,0.0,0.0,0.0,0.0,0.0,0.0,0.0,-0.7289377289377289,-1.321123321123321,0.0,0.0,0.0,0.0,-0.7924297924297924,-2.374847374847375,-1.1978021978021978,0.0,0.0,0.0,0.0,-2.288156288156288,-0.7081807081807082,0.0,0.0,0.0,0.0,-1.9853479853479852,0.0,0.0,0.0,0.0,-0.6178266178266179,-2.096459096459097,0.0,0.0,0.0,0.0,-0.9157509157509156,-2.4932844932844933,0.0,0.0,0.0,0.0,-1.1416361416361416,-2.8205128205128207,0.0,0.0,0.0,0.0,-0.7277167277167277,-2.6544566544566544,0.0,0.0,0.0,0.0,0.0,-1.800976800976801,0.0,0.0,0.0,0.0,-1.0134310134310134,-0.9658119658119658,0.0,0.0,0.0,0.0,-1.5177045177045176,0.0,0.8742368742368742,0.0,0.0,0.0,-1.4236874236874235,-0.8290598290598291,0.6837606837606838,0.0,0.0,0.0,0.0,-0.9658119658119658,0.6105006105006106,0.0,0.0,0.0,0.0,-0.5128205128205128,0.9413919413919414,0.0,0.0,0.0,-0.5079365079365079,0.8656898656898657,1.3308913308913308,0.0,0.0,0.0,-0.6495726495726496,1.1611721611721613,1.3137973137973138,0.0,0.0,0.0,0.0,0.0,0.0,0.0,0.0,0.0,0.8608058608058609,1.1733821733821734,1.876678876678877,0.0,0.0,0.0,0.0,1.5177045177045176,1.5396825396825398,0.0,0.0,0.0,0.0,0.7008547008547008,0.0,0.5625,0.0,0.0,0.7594627594627594,0.0,-1.746031746031746,0.5625,0.0,0.0,0.0,0.9072039072039072,-1.2783882783882785,0.0,0.0,0.0,0.5897435897435898,1.9584859584859584,0.0,0.0,0.0,0.0,0.0,1.5518925518925517,-1.6642246642246643,0.0,0.0,0.0,0.0,0.0,-3.449328449328449,0.0,0.0,0.0,0.0,0.6837606837606838,-2.8034188034188032,0.0,0.0,0.0,0.0,1.7496947496947497,-1.537240537240537,0.0,0.0,0.0,-2.0366300366300365,3.565323565323565,-1.0073260073260073,0.9375,1.09375,-1.1875,-1.5763125763125765,3.8351648351648353,-1.205128205128205,1.0625,1.78125,-1.21875,-2.028083028083028,5.452991452991453,0.0,0.0,0.90625,-0.65625,-2.9401709401709404,8.351648351648352,2.6092796092796093,-0.5625,0.0,0.0,-2.068376068376069,6.903540903540903,3.706959706959707,0.0,0.0,0.0,0.6398046398046398,2.5689865689865687,1.7924297924297925,0.0,0.0,0.0,1.7301587301587302,-0.8498168498168498,-1.0329670329670328,0.0,-0.90625,0.53125,1.4456654456654456,-1.2722832722832722,-2.3504273504273505,0.0,-0.71875,0.0,,,,,,,,,,,,,,,,,,,,,,,,,,,,,,,movNegY
accX,-0.7094017094017094,0.0,0.0,0.0,0.0,0.0,-0.6202686202686203,0.0,-0.8253968253968254,0.0,0.0,0.0,0.0,-1.0463980463980465,0.0,0.0,0.0,0.0,0.0,-2.144078144078144,-0.8205128205128205,0.0,0.0,0.0,0.0,-2.1111111111111107,-1.0842490842490842,0.0,0.0,0.0,0.0,-1.5042735042735045,-0.5995115995115995,0.0,0.0,0.0,-1.2893772893772897,-1.4969474969474967,-0.9487179487179488,-0.6875,0.0,0.0,-2.485958485958486,-1.0634920634920637,-1.1123321123321124,-0.78125,0.0,0.0,-1.47985347985348,-0.7960927960927959,0.0,-0.5625,0.0,0.0,0.0,-1.195360195360195,1.0854700854700854,0.0,0.0,0.0,0.0,-1.6031746031746033,1.0244200244200243,0.0,0.0,0.0,-0.7008547008547008,-1.5262515262515262,0.6434676434676435,0.0,0.0,0.0,-0.5006105006105006,-1.2576312576312576,0.6349206349206349,0.0,0.0,0.0,0.0,-1.0415140415140416,0.7521367521367521,0.0,0.0,0.0,0.0,-1.4725274725274726,0.8461538461538461,0.0,0.0,0.0,0.0,-1.6092796092796091,0.6532356532356532,0.0,0.0,0.0,0.0,-1.0463980463980465,0.8608058608058609,0.0,0.0,0.0,0.0,0.0,1.0573870573870574,0.0,0.0,0.0,0.0,0.0,1.0866910866910866,0.0,0.0,0.0,0.0,0.0,0.7863247863247863,0.0,0.0,0.0,0.0,-1.0586080586080586,0.0,0.0,0.0,0.0,0.7130647130647131,0.0,0.6471306471306472,0.0,0.0,0.0,1.3223443223443223,0.956043956043956,1.5103785103785103,0.0,0.0,0.0,0.9059829059829059,1.275946275946276,1.4151404151404152,0.5625,0.0,0.0,0.5543345543345544,0.525030525030525,-1.2551892551892552,0.5625,0.0,0.0,0.8693528693528694,-0.5995115995115995,-2.389499389499389,0.0,0.0,0.0,0.5909645909645911,1.4432234432234432,-1.0488400488400489,0.0,0.0,0.0,0.0,1.9181929181929185,0.0,0.0,0.0,0.0,0.0,2.1123321123321124,-1.485958485958486,0.53125,0.0,0.0,0.0,1.9304029304029304,-2.831501831501832,0.0,0.0,0.0,0.0,2.913308913308913,-1.568986568986569,0.0,0.0,0.0,0.0,3.695970695970696,0.0,0.0,0.0,0.0,0.0,3.2344322344322345,0.0,0.90625,0.0,0.0,0.0,3.8217338217338215,0.0,0.90625,0.0,0.0,-1.2527472527472527,5.067155067155066,0.0,0.0,0.0,0.0,-1.8107448107448108,4.78021978021978,1.1343101343101345,0.65625,0.0,0.0,-0.9377289377289376,2.1526251526251525,-1.4700854700854702,0.71875,0.0,0.0,-0.5555555555555556,1.2820512820512822,-2.6996336996337003,0.0,0.0,0.0,-0.6837606837606838,2.47008547008547,-0.9438339438339438,0.0,0.0,0.0,0.0,3.3724053724053724,1.0683760683760684,0.0,0.53125,0.0,,,,,,,,,,,,,,,,,,,,,,,,,,,,,,,,,,,,,,,,,,,movNegY
accX,0.0,0.0,-0.5958485958485958,0.0,0.0,0.0,0.757020757020757,0.0,0.0,0.0,0.0,0.0,0.0,-0.6312576312576312,0.0,0.0,0.0,0.0,-0.7985347985347986,-1.061050061050061,-1.5152625152625152,0.0,0.0,0.0,0.0,-1.0634920634920637,-1.2014652014652014,-0.71875,0.0,0.0,0.0,-0.6068376068376068,0.0,0.0,0.0,0.0,0.0,-0.557997557997558,0.0,0.0,0.0,0.0,0.0,-1.2612942612942613,-0.5653235653235653,0.0,0.0,0.0,0.5433455433455433,-2.554334554334554,-1.2368742368742371,0.0,0.0,0.0,0.0,-2.743589743589744,-1.2332112332112333,-0.5625,0.0,0.0,0.0,-1.6483516483516485,0.0,0.0,0.0,0.0,0.0,-0.8778998778998779,0.0,0.0,0.0,0.0,0.0,-1.10989010989011,0.0,0.0,0.0,0.0,0.0,-1.8522588522588523,0.0,0.0,0.0,0.0,-0.6312576312576312,-1.8974358974358971,-0.8656898656898657,-0.6875,0.0,0.0,0.0,-1.1196581196581197,0.0,-0.53125,0.0,0.0,0.0,0.0,1.2344322344322345,0.0,0.0,0.0,-1.0146520146520146,0.0,0.6874236874236874,0.0,0.0,0.0,-1.463980463980464,-0.9450549450549449,0.0,0.0,0.0,0.0,-0.956043956043956,-1.0915750915750917,0.0,0.0,0.0,0.0,0.0,-0.9352869352869352,0.5225885225885226,0.0,0.0,0.0,0.0,-0.9047619047619048,1.0256410256410255,0.0,0.0,0.0,0.7533577533577533,-0.8412698412698413,1.2124542124542124,0.0,0.0,0.0,0.0,-0.78998778998779,0.6422466422466423,0.0,0.0,0.0,0.0,0.0,0.8974358974358975,0.0,0.0,0.0,0.0,0.0,1.05006105006105,0.0,0.0,0.0,0.6349206349206349,0.0,0.7216117216117216,0.0,0.0,0.0,0.0,0.0,0.0,0.0,0.0,0.0,0.0,0.8925518925518926,0.0,0.0,0.0,0.0,0.0,0.9230769230769232,0.0,0.0,0.0,0.0,0.0,2.0366300366300365,0.0,0.0,0.0,0.0,-0.9181929181929182,2.0244200244200243,-0.8608058608058609,0.0,0.0,0.0,0.0,0.5372405372405372,-2.4615384615384617,0.0,0.0,0.0,0.0,0.6373626373626373,-2.495726495726496,0.0,-0.6875,0.0,-0.9401709401709402,2.1623931623931623,-1.9365079365079363,0.0,0.0,0.0,1.0634920634920637,1.6642246642246643,-1.52014652014652,-0.65625,0.0,0.0,1.4847374847374848,2.4713064713064714,0.0,-1.71875,0.0,0.0,-1.4151404151404152,5.512820512820514,2.103785103785104,-1.75,-0.8125,0.0,-1.1245421245421243,5.0244200244200234,1.2612942612942613,0.0,0.0,0.0,0.0,4.472527472527473,0.6471306471306472,0.0,0.625,-0.5625,0.0,5.732600732600732,3.189255189255189,0.0,0.0,0.0,-2.211233211233212,7.418803418803419,4.63980463980464,0.0,0.0,0.0,-1.5628815628815629,4.251526251526252,2.7472527472527477,0.90625,0.0,0.0,0.0,0.7362637362637363,0.0,0.59375,-0.59375,0.0,0.5396825396825397,0.0,-1.4786324786324787,0.0,-0.625,0.0,1.1416361416361416,0.0,-1.358974358974359,0.0,0.0,0.0,,,,,,,movNegY
accX,0.0,0.0,0.0,0.0,0.0,0.0,0.0,0.0,0.0,0.0,0.0,0.0,0.0,-1.0415140415140416,0.0,0.0,0.0,0.0,0.0,-1.5323565323565325,-1.2014652014652014,0.0,0.0,0.0,0.0,-1.2539682539682542,-0.6935286935286935,0.0,0.0,0.0,0.0,-1.5555555555555556,-0.6727716727716728,0.0,0.0,0.0,0.0,-1.7631257631257633,-0.9365079365079364,-0.53125,0.0,0.0,0.0,-1.8656898656898655,-0.9267399267399268,-0.5625,0.0,0.0,0.5372405372405372,-1.912087912087912,0.0,0.0,0.0,0.0,0.0,-1.7582417582417582,0.0,0.0,0.0,0.0,-0.5164835164835165,-2.045177045177045,0.0,0.0,0.0,0.0,-0.6544566544566545,-2.3553113553113554,-0.5152625152625152,0.0,0.0,0.0,-0.6080586080586079,-1.8620268620268619,0.0,0.0,0.0,0.0,-0.5067155067155067,-1.21001221001221,0.6666666666666666,0.0,0.0,0.0,-0.6080586080586079,-1.1062271062271063,0.9853479853479854,0.0,0.0,0.0,0.0,-1.6141636141636142,0.0,0.0,0.0,0.0,0.0,-1.78021978021978,0.0,0.0,0.0,0.0,-0.9450549450549449,-0.6227106227106227,0.5152625152625152,0.0,0.0,0.0,0.0,0.0,1.4774114774114775,0.0,0.0,0.0,1.1672771672771671,-0.5848595848595849,1.7411477411477412,0.0,0.0,0.0,0.0,-1.1501831501831499,0.0,0.0,0.0,0.0,0.7545787545787546,0.0,0.0,0.0,0.0,0.0,0.0,0.6385836385836385,-0.5726495726495726,0.0,0.0,0.0,0.0,0.0,-1.3052503052503053,0.0,0.0,0.0,0.0,0.0,-0.7179487179487181,0.0,0.0,0.0,0.0,1.0183150183150182,0.0,0.0,0.0,0.0,0.0,1.2063492063492065,0.0,0.0,0.0,0.0,-0.5286935286935287,1.5335775335775337,0.0,0.0,0.0,0.0,-1.0671550671550671,1.1807081807081807,0.0,0.0,0.0,0.0,0.0,0.0,-1.3284493284493284,0.0,0.0,0.0,0.8168498168498168,0.0,0.0,-0.53125,0.0,0.0,0.0,0.0,0.0,0.0,-0.5625,0.0,0.0,0.8620268620268621,-0.8485958485958486,0.0,0.0,0.0,1.0451770451770452,0.0,-0.9450549450549449,0.0,0.96875,-0.65625,1.2039072039072038,1.4297924297924298,0.0,-0.90625,0.59375,0.0,-2.595848595848596,5.5115995115995124,0.8632478632478633,0.0,0.0,0.0,-2.947496947496948,5.494505494505495,0.5347985347985348,0.78125,1.3125,-0.6875,-1.242979242979243,4.6007326007325995,0.9633699633699634,0.78125,1.3125,0.0,-1.120879120879121,4.590964590964591,1.945054945054945,0.0,0.5625,0.0,-1.673992673992674,4.543345543345543,2.244200244200244,-0.53125,0.0,0.5625,-1.010989010989011,2.8669108669108665,1.8424908424908424,0.0,0.53125,0.0,1.0122100122100122,0.7594627594627594,0.0,0.53125,0.0,0.0,0.5286935286935287,0.8302808302808303,0.0,0.0,0.0,0.0,,,,,,,,,,,,,,,,,,,,,,,,,movNegY
accX,-0.8339438339438342,-0.9462759462759462,-0.5665445665445665,0.0,0.0,0.0,0.0,-1.9365079365079363,-1.293040293040293,0.0,0.0,0.0,0.0,-0.7350427350427351,0.0,0.0,0.0,0.0,0.0,0.0,0.0,0.0,0.0,0.0,0.0,-0.7094017094017094,0.0,0.0,0.0,0.0,0.0,-2.0073260073260077,-0.9157509157509156,0.0,0.0,0.0,0.0,-2.240537240537241,-1.7484737484737485,-0.75,0.0,0.0,0.0,-1.3907203907203909,-0.9902319902319904,-1.0,0.0,0.0,0.0,-1.2222222222222223,0.0,0.0,0.0,0.0,-0.6092796092796092,-2.0305250305250304,-0.5970695970695971,0.0,0.0,0.0,0.0,-1.8522588522588523,0.0,0.0,0.0,0.0,0.0,-1.9474969474969477,0.0,-0.53125,0.0,0.0,0.0,-2.3724053724053724,0.0,-0.625,0.0,0.0,-0.6214896214896215,-1.9242979242979243,0.0,0.0,0.0,0.0,-0.663003663003663,-1.3076923076923077,0.7045177045177046,0.0,0.0,0.0,-0.8156288156288156,-1.0366300366300367,0.0,0.0,0.0,0.0,-0.7582417582417582,-1.4529914529914532,0.0,0.0,0.0,0.0,-0.5042735042735043,-1.3357753357753357,0.0,-0.59375,0.0,0.0,0.0,-1.2637362637362637,0.993894993894994,0.0,0.0,0.0,0.0,-0.9169719169719168,1.0525030525030523,0.0,0.0,0.0,0.0,-0.7326007326007326,0.0,0.0,0.0,0.0,0.0,-0.8046398046398047,0.0,0.0,0.0,0.0,0.0,0.0,0.6568986568986569,0.0,0.0,0.0,0.0,0.5482295482295483,-0.5384615384615384,0.0,0.0,0.0,0.57997557997558,0.0,-0.5506715506715507,0.0,0.0,0.0,-0.8498168498168498,0.8876678876678876,0.0,0.0,0.0,0.0,0.0,1.21978021978022,0.0,0.0,0.0,0.0,1.0757020757020757,0.0,-0.8693528693528694,0.0,0.0,0.0,0.7826617826617827,0.9548229548229548,0.0,0.0,0.0,0.0,-0.6886446886446886,3.0109890109890114,0.6666666666666666,0.0,0.0,0.0,0.0,3.227106227106227,0.7728937728937729,0.0,0.0,0.0,0.0,2.5262515262515257,0.0,0.0,0.0,0.0,1.2857142857142858,1.565323565323565,0.0,0.0,0.0,0.0,1.5006105006105006,0.0,0.0,0.0,-0.84375,0.0,0.0,1.1013431013431014,0.0,0.0,0.0,0.0,-1.0097680097680095,2.5775335775335777,0.0,0.0,0.625,-0.59375,-1.434676434676435,2.763125763125763,0.0,0.0,0.0,0.0,-1.8290598290598292,3.2905982905982905,0.7032967032967034,0.0,0.0,0.0,-0.8449328449328449,3.6849816849816848,1.199023199023199,0.0,0.0,0.0,-0.8083028083028083,4.245421245421245,1.0097680097680095,0.0,0.0,0.0,0.0,3.663003663003663,1.061050061050061,0.625,0.0,0.0,0.0,2.1123321123321124,-0.7997557997557998,0.0,0.0,0.0,-0.6422466422466423,2.686202686202686,-1.2185592185592184,0.0,0.0,0.0,,,,,,,,,,,,,,,,,,,,,,,,,movNegY
accX,0.0,0.0,0.9291819291819292,0.0,0.0,0.0,0.0,0.0,0.5811965811965812,0.0,0.0,0.0,0.0,-1.1697191697191698,0.0,0.0,0.0,0.0,-0.5958485958485958,-1.5018315018315018,-0.7240537240537241,0.0,0.0,0.0,-1.2503052503052503,-0.9682539682539684,-1.343101343101343,-0.625,0.0,0.0,-1.0036630036630036,0.0,0.0,-0.5625,0.0,0.0,0.0,0.0,0.0,0.0,0.0,0.0,0.6446886446886447,-1.387057387057387,0.0,0.0,0.0,0.0,0.0,-1.9731379731379728,-1.4993894993894994,0.0,0.0,0.0,0.0,-0.8656898656898657,-1.242979242979243,-0.53125,0.0,0.0,0.0,0.0,0.0,0.0,0.0,0.0,0.0,-0.8827838827838828,0.0,0.0,0.0,0.0,0.0,-1.2576312576312576,0.0,0.0,0.0,0.0,-0.5543345543345544,-1.6593406593406594,0.0,0.0,0.0,0.0,0.0,-1.5677655677655675,0.0,0.0,0.0,0.0,0.0,-0.7496947496947497,0.0,0.0,0.0,0.0,0.0,-1.1086691086691087,-0.6739926739926739,0.0,0.0,0.0,0.0,-1.2344322344322345,-0.5848595848595849,0.0,0.0,0.0,-0.6703296703296703,-1.21001221001221,0.0,0.0,0.0,0.0,0.0,-1.0537240537240538,0.5592185592185592,0.0,0.0,0.0,0.0,0.0,0.0,0.0,0.0,0.0,0.0,0.0,0.0,0.0,0.65625,0.0,0.0,0.0,0.0,0.0,0.0,0.0,0.0,-1.4456654456654456,0.0,0.0,0.0,0.0,0.0,-1.115995115995116,0.8229548229548229,0.0,0.0,0.0,0.8363858363858364,-1.010989010989011,1.264957264957265,0.0,0.0,0.0,0.0,0.0,0.5482295482295483,0.0,0.0,0.0,0.0,0.0,0.0,0.0,0.0,0.0,0.0,0.0,0.7912087912087912,0.0,0.0,0.0,0.0,-0.5372405372405372,0.0,0.0,-0.5625,0.0,0.5836385836385837,0.0,-0.6031746031746031,0.0,0.0,0.0,-0.5775335775335775,1.0769230769230769,0.0,0.0,0.0,0.0,0.0,0.0,0.0,0.0,0.0,0.0,0.9816849816849816,0.0,0.0,-0.53125,-0.71875,0.0,0.0,1.0964590964590966,-0.7191697191697192,-0.625,-0.78125,0.0,-0.9768009768009768,3.023199023199023,0.0,0.0,0.0,0.0,0.0,2.288156288156288,0.0,0.0,0.53125,0.0,0.0,2.6617826617826617,0.5482295482295483,0.0,0.0,0.0,-2.043956043956044,3.9462759462759465,0.0,0.0,0.0,0.0,-0.9169719169719168,3.6971916971916974,-1.47985347985348,0.0,0.0,0.0,-1.2942612942612943,4.627594627594628,-0.6434676434676435,0.0,0.8125,0.0,0.0,5.173382173382174,1.7228327228327232,0.0,1.0625,0.0,-1.4615384615384617,6.86080586080586,2.7216117216117217,0.0,0.0,0.0,-2.056166056166056,6.650793650793651,2.715506715506716,0.65625,0.0,0.0,0.0,3.8461538461538463,1.2417582417582418,0.75,0.0,0.0,0.8815628815628815,2.1697191697191696,0.0,0.0,0.0,0.0,,,,,,,movNegY
accX,0.0,-0.7203907203907204,0.0,0.0,0.0,0.0,0.0,-1.1562881562881564,0.0,0.0,0.0,0.0,0.0,-1.010989010989011,0.0,0.0,0.0,0.0,-0.5262515262515263,-1.122100122100122,-1.0744810744810744,0.0,0.0,0.0,0.0,-1.4884004884004884,-1.0757020757020757,0.0,0.0,0.0,0.0,-1.4468864468864469,-0.7521367521367521,0.0,0.0,0.0,0.0,-1.0427350427350428,0.0,0.0,0.0,0.0,0.9279609279609279,-2.15018315018315,-0.5128205128205128,0.0,0.0,0.0,0.7985347985347986,-2.768009768009768,-1.0134310134310134,0.0,0.0,0.0,0.0,-1.876678876678877,-0.7765567765567766,-0.53125,0.0,0.0,-1.431013431013431,-0.8400488400488401,0.0,0.0,0.0,0.0,-1.5445665445665446,-1.3137973137973138,0.0,0.0,0.0,0.0,0.0,-2.1416361416361416,0.0,0.0,0.0,0.0,0.0,-2.649572649572649,0.5372405372405372,0.0,0.0,0.0,0.0,-1.800976800976801,0.9194139194139194,0.0,0.0,0.0,-0.6691086691086691,0.0,1.3308913308913308,0.0,0.0,0.0,-0.6691086691086691,-0.6593406593406593,0.7301587301587301,0.0,0.0,0.0,-0.6385836385836385,-1.7655677655677655,0.0,0.0,0.0,0.0,0.0,-2.1404151404151404,0.0,0.0,0.0,0.0,0.0,0.0,0.9963369963369964,0.0,0.0,0.0,0.0,0.5628815628815629,1.297924297924298,0.0,0.65625,0.0,0.0,0.0,0.0,0.0,0.53125,0.0,0.0,-0.7045177045177046,0.0,0.0,0.0,0.0,0.0,-0.8278388278388278,0.0,0.0,0.0,0.0,0.57997557997558,0.0,0.0,0.0,0.0,0.0,0.0,1.2271062271062272,0.0,0.0,0.0,0.0,0.0,0.7387057387057387,-0.8632478632478633,0.0,0.0,0.0,0.0,0.7533577533577533,0.0,0.0,0.0,0.0,0.0,0.0,-0.9096459096459096,0.0,0.0,0.0,0.0,1.5457875457875458,-2.144078144078144,0.0,0.0,0.0,0.0,3.3956043956043955,-1.5506715506715507,0.0,0.0,0.0,0.0,3.111111111111111,-0.7484737484737485,0.0,0.0,0.0,0.0,2.8864468864468864,-1.0036630036630036,-0.53125,0.0,0.0,0.5763125763125763,5.582417582417582,2.045177045177045,-1.3125,0.0,0.0,-1.0964590964590966,7.1660561660561655,3.543345543345543,0.0,0.0,0.0,-0.8608058608058609,5.266178266178266,0.7753357753357754,1.125,0.875,0.0,0.6874236874236874,3.5286935286935286,-1.1391941391941391,0.5625,0.5625,0.0,-1.2942612942612943,6.1892551892551895,1.2967032967032968,-0.71875,0.0,0.0,,,,,,,,,,,,,,,,,,,,,,,,,,,,,,,,,,,,,,,,,,,,,,,,,,,,,,,movNegY
accX,0.0,0.0,0.0,0.0,0.0,0.0,0.0,0.0,0.0,0.0,0.0,0.0,0.0,-0.7582417582417582,0.0,0.0,0.0,0.0,-0.5909645909645911,-0.6239316239316239,-0.8974358974358975,0.0,0.0,0.0,-0.6422466422466423,0.0,-0.8632478632478633,0.0,0.0,0.0,0.0,0.0,0.0,0.0,0.0,0.0,0.0,-0.9157509157509156,-0.5482295482295483,0.0,0.0,0.0,0.6251526251526252,-1.9572649572649568,-1.0549450549450552,0.0,0.0,0.0,0.6324786324786325,-2.083028083028083,-0.971916971916972,0.0,0.0,0.0,0.7997557997557998,-2.3345543345543347,-1.0463980463980465,0.0,0.0,0.0,0.0,-1.84004884004884,-1.1355311355311355,0.0,0.0,0.0,-1.3943833943833943,-0.8620268620268621,-0.6483516483516484,0.0,0.0,0.0,-1.4444444444444444,-1.4175824175824177,0.0,0.0,0.0,0.0,0.0,-2.0854700854700856,0.0,0.0,0.0,0.0,0.0,-2.0989010989010994,0.0,0.0,0.0,0.0,0.0,-1.968253968253968,0.0,0.0,0.0,0.0,0.0,-1.7252747252747254,0.6312576312576312,0.0,0.0,0.0,-0.6764346764346765,-1.3308913308913308,0.5921855921855922,0.0,0.0,0.0,-0.5323565323565324,-1.144078144078144,0.0,0.0,0.0,0.0,0.0,-0.7496947496947497,0.8693528693528694,0.0,0.0,0.0,0.0,0.0,0.8998778998778999,0.0,0.0,0.0,0.0,0.0,0.5811965811965812,0.0,0.0,0.0,0.0,0.0,0.0,0.0,0.0,0.59375,1.6459096459096458,-0.5115995115995116,0.0,0.0,0.0,0.0,0.993894993894994,0.0,0.8376068376068376,0.0,0.0,0.0,0.0,1.8107448107448108,1.9218559218559217,0.0,0.0,0.0,0.0,2.235653235653236,1.4590964590964588,0.0,0.0,0.0,0.6996336996336996,1.4468864468864469,0.0,0.0,0.0,0.0,1.2686202686202686,1.4578754578754578,0.0,0.0,-0.78125,0.0,0.5335775335775336,2.346764346764347,0.0,0.0,-0.53125,0.0,0.0,2.7753357753357752,0.0,0.53125,0.0,0.0,1.1367521367521367,1.6593406593406594,-1.5128205128205128,0.0,0.0,0.0,1.175824175824176,1.286935286935287,-1.652014652014652,0.0,-0.5625,0.0,0.0,1.9072039072039075,-1.8412698412698407,0.0,0.0,0.0,0.0,2.816849816849817,-1.4371184371184371,0.0,0.0,0.0,0.0,2.9010989010989015,-1.1684981684981686,0.0,0.0,0.0,-0.5164835164835165,3.0903540903540905,-1.3064713064713065,-1.03125,0.0,0.0,0.0,5.335775335775336,2.2564102564102564,0.0,0.0,0.0,-1.297924297924298,6.061050061050061,1.5665445665445663,0.78125,0.8125,-0.5625,0.0,4.772893772893774,0.0,0.59375,0.65625,0.0,-1.4053724053724053,6.135531135531137,2.029304029304029,-0.5625,0.0,0.0,0.0,5.12942612942613,3.433455433455433,0.0,0.0,0.0,1.6117216117216118,0.7680097680097681,0.9304029304029304,0.6875,-0.75,0.0,,,,,,,,,,,,,,,,,,,,,,,,,movNegY
accX,0.0,0.0,0.0,0.0,0.0,0.0,-0.6593406593406593,-0.5726495726495726,-0.8815628815628815,0.0,0.0,0.0,0.0,0.0,-0.7289377289377289,0.0,0.0,0.0,0.6483516483516484,-0.9877899877899878,0.0,0.0,0.0,0.0,0.6336996336996337,-1.120879120879121,0.0,0.0,0.0,0.0,0.0,0.0,0.0,0.0,0.0,0.0,-0.6275946275946276,-0.6190476190476191,0.0,0.0,0.0,0.0,-1.10989010989011,-0.5653235653235653,-0.8034188034188035,0.0,0.0,0.0,-1.2442002442002442,-0.8363858363858364,-0.6556776556776557,0.0,0.0,0.0,-0.9621489621489622,-1.5323565323565325,-0.8437118437118437,0.0,0.0,0.0,0.7716727716727717,-1.7277167277167278,0.0,0.0,0.0,0.0,1.2503052503052503,-1.4261294261294262,0.8388278388278388,0.0,0.0,0.0,0.0,-1.434676434676435,0.0,0.0,0.0,0.0,-0.6556776556776557,-1.2881562881562882,0.0,0.0,0.0,0.0,0.0,-1.6141636141636142,0.0,0.0,0.0,0.0,0.0,-1.750915750915751,0.0,0.0,0.0,0.0,0.0,-2.1343101343101343,0.0,0.0,0.0,0.0,0.0,-1.8559218559218558,0.0,0.0,0.0,0.0,-0.934065934065934,-1.3052503052503053,0.0,0.0,0.0,0.0,-1.2503052503052503,-1.0305250305250304,0.0,0.0,0.0,0.0,0.0,-1.5238095238095235,0.0,0.0,0.53125,0.0,0.0,-1.6263736263736264,-0.6410256410256411,0.0,0.0,0.0,0.0,-1.0622710622710625,0.0,0.0,0.0,0.0,-0.7826617826617827,0.0,0.0,0.0,0.0,0.0,-0.5567765567765568,0.0,0.0,0.0,0.65625,0.0,0.0,0.0,0.0,0.0,0.5625,0.0,1.1257631257631258,0.0,0.5433455433455433,0.0,0.0,0.0,1.678876678876679,0.0,0.7374847374847375,0.0,0.0,0.0,0.0,1.95970695970696,0.0,0.0,0.0,0.0,0.0,1.5934065934065933,0.0,0.0,0.0,0.0,0.0,1.5006105006105006,-1.264957264957265,0.0,0.0,0.0,1.0183150183150182,1.7326007326007329,-0.8461538461538461,0.0,0.0,0.0,0.0,3.8534798534798536,0.0,0.0,0.0,0.0,0.0,3.467643467643468,0.0,0.0,0.53125,0.0,0.0,2.7387057387057387,-0.5567765567765568,0.0,0.0,0.0,0.0,3.4383394383394386,0.0,-0.75,-0.71875,0.0,0.0,4.1672771672771685,0.0,0.0,0.0,0.0,-2.3174603174603177,5.891330891330893,-0.9279609279609279,0.75,0.0,0.0,-3.0769230769230766,6.575091575091576,0.6898656898656899,1.0,0.625,0.0,-0.8437118437118437,4.0976800976800964,0.0,0.0,0.0,0.0,-1.0647130647130647,4.262515262515263,1.8571428571428568,-0.9375,0.0,0.875,0.536019536019536,2.399267399267399,2.025641025641025,0.0,0.0,0.625,2.455433455433456,0.0,-0.6324786324786325,0.0,0.0,0.0,,,,,,,,,,,,,,,,,,,,,,,,,movNegY
accX,0.0,0.0,0.0,0.0,0.0,0.0,0.0,0.0,0.0,0.0,0.0,0.0,0.0,-0.5372405372405372,-0.5457875457875457,0.0,0.0,0.0,0.0,0.0,-0.5567765567765568,0.0,0.0,0.0,0.0,-0.5115995115995116,0.0,0.0,0.0,0.0,0.0,0.0,0.0,0.0,0.0,0.0,0.0,0.0,0.0,0.0,0.0,0.0,0.0,-1.4761904761904765,-1.0915750915750917,0.0,0.0,0.0,0.0,-1.4065934065934067,-1.2967032967032968,0.0,0.0,0.0,0.0,-1.1282051282051282,-0.8632478632478633,0.0,0.0,0.0,0.0,-1.6923076923076923,-1.0708180708180708,0.0,0.0,0.0,0.0,-2.191697191697192,-1.4542124542124542,0.0,0.0,0.0,0.0,-2.84004884004884,-1.3235653235653235,-0.625,0.0,0.0,0.6263736263736264,-2.8803418803418803,0.0,-0.8125,0.0,0.0,0.0,-2.3626373626373627,0.0,-0.78125,0.0,0.0,-1.617826617826618,-1.5115995115995116,0.0,0.0,0.0,0.0,-0.9010989010989012,-1.8559218559218558,0.0,0.0,0.0,0.0,0.5372405372405372,-2.413919413919414,0.0,-0.5625,0.0,0.0,0.0,-2.5103785103785103,0.0,-0.65625,0.0,0.0,-0.9487179487179488,-1.6336996336996337,0.8461538461538461,0.0,0.0,0.0,-0.5384615384615384,-1.321123321123321,0.9230769230769232,0.0,0.0,0.0,-0.5824175824175825,-1.1367521367521367,0.0,0.0,0.0,0.0,0.0,-1.8021978021978025,-0.5384615384615384,0.0,0.0,0.0,1.0134310134310134,-2.7997557997558,-0.5555555555555556,-0.59375,0.0,0.0,1.0366300366300367,-2.3455433455433456,0.0,-0.53125,0.0,0.0,0.0,0.0,1.7594627594627594,0.0,0.0,0.0,0.0,0.9914529914529916,1.9548229548229548,0.0,0.5625,-0.53125,0.0,0.0,0.0,0.0,0.0,0.0,-1.164835164835165,1.1135531135531136,-0.5506715506715507,0.0,0.0,0.0,-1.2295482295482296,2.9804639804639805,1.2747252747252746,0.0,0.0,0.0,0.0,3.4407814407814414,2.217338217338217,0.0,0.0,0.0,-1.5958485958485962,4.170940170940171,0.0,0.0,0.0,0.0,-1.7716727716727716,4.096459096459096,-0.5787545787545788,0.0,0.53125,0.0,0.0,3.1050061050061046,0.0,0.0,0.0,0.0,-0.5103785103785103,3.8009768009768017,0.6336996336996337,0.0,0.0,0.0,0.0,3.05982905982906,0.0,0.0,0.625,0.0,0.6007326007326007,3.272283272283272,0.9218559218559218,0.0,0.0,0.0,-1.2173382173382172,4.351648351648351,1.3504273504273503,0.0,0.0,0.0,-0.8913308913308914,2.5177045177045176,-1.7081807081807079,0.96875,0.65625,0.0,-0.7912087912087912,3.0012210012210017,-1.6031746031746033,0.0,0.0,0.0,-1.4529914529914532,5.03052503052503,1.7960927960927962,0.0,0.0,0.0,1.1575091575091576,2.3040293040293043,2.1086691086691087,0.0,0.0,0.0,0.8705738705738706,1.338217338217338,0.0,0.0,0.0,0.0,0.0,2.0586080586080584,0.0,0.0,0.0,0.0,0.0,1.4236874236874235,0.0,0.0,0.0,0.0,1.6446886446886446,0.0,0.0,0.0,0.0,0.0,,,,,,,movNegY
accX,0.0,0.0,0.5555555555555556,0.625,0.0,0.0,-0.5384615384615384,-0.9304029304029304,-0.7155067155067155,0.0,0.0,0.0,-0.6617826617826618,-0.8278388278388278,-1.3394383394383391,0.0,0.0,0.0,0.0,0.0,0.0,-0.65625,0.0,0.0,0.0,0.0,1.4554334554334554,0.0,0.0,0.0,0.0,-1.0366300366300367,0.0,0.0,0.0,0.0,-1.010989010989011,-1.3443223443223444,-1.5726495726495726,0.0,0.0,0.0,-0.9584859584859584,-1.2625152625152625,-1.177045177045177,0.0,0.0,0.0,0.0,-0.9682539682539684,0.0,0.0,0.0,0.0,0.0,-1.9719169719169718,0.0,0.0,0.0,0.0,0.5225885225885226,-2.294261294261294,-0.6593406593406593,0.0,0.0,0.0,0.0,-2.547008547008547,-1.0293040293040292,0.0,0.0,0.0,-1.1452991452991452,-1.8925518925518925,-0.5873015873015873,0.0,0.0,0.0,-1.42002442002442,-1.7362637362637363,0.0,0.0,0.0,0.0,-0.5885225885225885,-1.4713064713064714,0.0,0.0,0.0,0.0,0.0,-1.85958485958486,0.0,0.0,0.0,0.0,-1.0891330891330893,-1.752136752136752,0.0,0.0,0.0,0.0,-0.9914529914529916,-1.6349206349206349,0.0,0.0,0.0,0.0,0.0,-1.5091575091575091,0.8742368742368742,0.0,0.0,0.0,0.0,-1.6678876678876684,0.757020757020757,0.0,0.0,0.0,0.0,-1.4407814407814408,0.5213675213675214,0.0,0.0,0.0,-1.565323565323565,-0.9523809523809524,0.0,0.0,0.5625,0.0,-0.6556776556776557,-0.9242979242979243,0.0,0.0,0.0,0.0,0.0,-0.7973137973137974,0.0,0.0,0.0,0.0,0.0,-0.5726495726495726,0.0,0.0,0.0,0.0,-1.0366300366300367,0.5262515262515263,0.0,0.0,0.0,0.0,0.0,0.0,0.0,0.0,0.78125,0.0,0.0,-0.818070818070818,0.0,0.0,0.0,0.0,0.0,-0.778998778998779,0.0,0.0,0.0,0.0,0.0,0.7411477411477412,0.6214896214896215,0.0,0.53125,0.0,0.0,2.3040293040293043,1.695970695970696,0.6875,1.03125,0.0,0.0,2.9743589743589745,1.2026862026862026,0.90625,1.03125,0.0,0.9218559218559218,2.063492063492064,0.0,0.0,0.0,0.0,1.5299145299145298,1.5824175824175823,-0.5567765567765568,0.0,0.0,0.0,1.1782661782661783,2.47985347985348,0.0,0.0,0.0,0.0,1.7423687423687424,2.7423687423687424,0.0,0.0,0.0,0.0,0.0,2.948717948717949,0.0,0.0,0.0,0.0,-1.7533577533577531,4.04029304029304,0.0,0.0,0.0,0.0,-1.6556776556776556,3.0854700854700856,-1.4896214896214897,0.0,0.0,0.0,0.0,2.9694749694749696,-1.2893772893772897,0.0,0.0,0.59375,-1.021978021978022,3.8986568986568986,0.0,0.0,0.0,0.625,-1.006105006105006,3.9438339438339436,0.0,0.0,0.0,0.0,-0.8754578754578755,4.523809523809524,1.037851037851038,0.0,0.71875,0.0,0.6910866910866911,2.8229548229548236,1.238095238095238,0.0,0.0,0.0,,,,,,,,,,,,,,,,,,,movNegY
accX,-1.332112332112332,0.0,0.0,-0.5625,0.0,0.0,0.0,0.5225885225885226,1.6202686202686205,0.0,0.0,0.0,0.7680097680097681,-1.2002442002442002,0.0,0.53125,0.0,0.0,0.0,-2.004884004884005,-1.9914529914529917,0.0,0.0,0.0,0.0,-0.5421245421245421,-1.0757020757020757,-0.78125,0.0,0.0,-0.6117216117216118,0.0,-0.5531135531135531,0.0,0.0,0.0,0.0,-1.065934065934066,-1.043956043956044,0.0,0.0,0.0,0.5494505494505495,-2.0476190476190474,-0.8974358974358975,0.0,0.0,0.0,0.525030525030525,-2.4786324786324787,-0.5726495726495726,0.0,0.0,0.0,0.0,-2.2026862026862033,-0.503052503052503,0.0,0.0,0.0,0.5311355311355311,-2.3650793650793656,0.0,0.0,0.0,0.0,0.7985347985347986,-2.5164835164835164,0.0,-0.53125,-0.5625,0.0,-1.2539682539682542,-1.9633699633699635,0.0,0.0,0.0,0.0,-0.6031746031746031,-2.357753357753358,-0.7350427350427351,0.0,0.0,0.0,0.5445665445665445,-2.283272283272283,0.0,-0.6875,-0.625,0.0,0.0,-2.095238095238096,0.5811965811965812,-0.59375,-0.59375,0.0,-1.1135531135531136,-1.84004884004884,0.6764346764346765,0.0,0.0,0.0,-1.978021978021978,-1.4761904761904765,0.0,0.0,0.0,0.0,-1.0097680097680095,-0.8534798534798534,0.0,0.0,0.0,0.0,0.0,-0.5885225885225885,1.326007326007326,0.0,0.0,0.0,0.0,0.0,1.5946275946275947,0.0,0.0,0.0,-0.8034188034188035,0.0,0.9804639804639804,0.0,0.59375,0.0,-0.6898656898656899,-0.8400488400488401,0.0,0.0,0.71875,0.0,0.0,-0.5433455433455433,0.0,0.0,0.0,0.0,0.0,0.6581196581196581,0.7362637362637363,0.0,0.0,0.0,-0.6678876678876678,1.4847374847374848,1.2185592185592184,0.0,0.0,0.0,-0.6483516483516484,1.1965811965811963,1.0915750915750917,0.0,0.0,0.0,-0.7423687423687424,1.120879120879121,0.6324786324786325,0.0,0.0,0.0,0.6129426129426129,0.706959706959707,0.0,0.0,0.53125,0.0,1.0073260073260073,1.326007326007326,0.0,0.0,0.0,0.0,1.0818070818070815,1.424908424908425,0.0,0.0,0.0,0.0,1.3125763125763126,1.1111111111111112,-2.2820512820512815,0.0,0.78125,0.0,1.968253968253968,1.188034188034188,-1.6666666666666667,0.0,0.0,0.0,0.0,3.717948717948718,0.0,0.0,0.0,0.0,-0.5213675213675214,3.1990231990231983,-0.6031746031746031,0.0,0.53125,0.0,1.2515262515262515,0.9804639804639804,-1.5067155067155067,0.0,0.0,0.0,1.2075702075702075,1.271062271062271,0.0,-0.6875,0.0,0.0,-1.0244200244200243,3.638583638583639,0.0,-0.75,0.0,0.0,-0.503052503052503,3.496947496947497,0.5628815628815629,0.0,0.53125,0.0,1.0805860805860803,1.9914529914529917,0.6678876678876678,0.0,0.0,0.0,0.0,2.075702075702076,0.8998778998778999,-0.53125,0.0,0.0,0.0,3.2857142857142856,1.0073260073260073,-0.59375,0.0,0.0,-0.5775335775335775,3.086691086691087,0.8656898656898657,0.0,-0.59375,0.0,,,,,,,,,,,,,,,,,,,,,,,,,movNegY
accX,0.0,-0.6227106227106227,0.0,0.0,0.0,0.0,0.5518925518925519,0.0,0.0,0.0,0.0,0.0,0.8974358974358975,0.0,1.4395604395604396,0.84375,0.0,0.0,0.0,-1.4871794871794872,-0.5531135531135531,1.28125,-0.65625,0.0,0.0,-2.7252747252747254,-2.7985347985347984,0.0,0.0,0.0,0.0,-1.5262515262515262,-1.6336996336996337,-0.90625,0.0,0.0,0.0,-0.6312576312576312,0.0,0.0,0.0,0.0,-0.63003663003663,-0.9731379731379732,0.0,0.0,0.0,0.0,1.0085470085470083,-2.217338217338217,0.0,0.0,0.0,0.0,1.120879120879121,-2.7106227106227108,-0.9975579975579976,-0.6875,0.0,0.0,-0.7142857142857143,-2.266178266178266,-1.4529914529914532,-0.84375,0.0,0.0,-1.879120879120879,-1.7997557997557998,-1.028083028083028,-0.5625,0.0,0.0,-0.5775335775335775,-1.3711843711843712,0.0,0.0,0.625,0.0,0.557997557997558,-1.7362637362637363,0.0,0.0,0.0,0.0,0.6715506715506715,-2.0134310134310134,0.0,0.0,0.0,0.0,-0.7228327228327228,-1.887667887667888,0.0,-0.5625,0.0,0.0,-2.1367521367521367,-0.8168498168498168,0.0,0.0,0.0,0.0,-1.9377289377289375,-0.5946275946275946,0.7704517704517705,0.0,0.5625,0.0,-0.7912087912087912,-1.3772893772893773,0.7106227106227107,0.0,0.5625,0.0,0.0,-2.2649572649572653,0.0,0.0,0.0,0.0,0.0,-1.5677655677655675,0.5921855921855922,0.0,0.0,0.0,0.0,0.0,1.4261294261294262,0.0,0.0,0.0,-0.9181929181929182,0.0,0.6422466422466423,0.0,0.5625,0.0,0.0,0.0,0.7728937728937729,0.0,0.625,0.0,1.0097680097680095,-0.5641025641025641,1.4664224664224663,0.0,0.0,0.0,0.0,0.0,1.809523809523809,0.0,0.0,0.0,0.0,0.6092796092796092,1.4395604395604396,0.0,0.0,0.0,0.0,0.984126984126984,1.028083028083028,0.0,0.0,0.0,0.0,0.6373626373626373,0.0,0.0,0.0,0.0,0.0,0.9084249084249084,0.0,0.0,0.0,0.0,0.6678876678876678,0.9829059829059827,0.5201465201465202,0.875,0.0,0.0,1.5115995115995116,0.0,-2.1697191697191696,0.625,-0.78125,0.0,0.0,1.1672771672771671,-3.1526251526251525,0.0,0.0,0.0,-1.7142857142857142,3.4481074481074483,-2.1233211233211238,0.0,0.84375,-0.53125,0.0,3.2185592185592187,0.0,0.0,1.09375,0.0,-0.6190476190476191,2.3724053724053724,-1.103785103785104,0.0,0.0,0.0,0.0,1.9096459096459095,-2.1465201465201464,0.0,0.0,0.0,-0.8437118437118437,3.6129426129426134,-1.0793650793650793,-0.71875,0.0,0.0,-0.6398046398046398,5.249084249084249,1.4102564102564104,0.0,0.78125,0.0,0.0,4.974358974358975,2.21978021978022,0.0,0.0,0.0,-2.6715506715506714,5.8107448107448105,1.7118437118437118,0.0,0.0,0.0,-2.6446886446886446,5.05982905982906,1.7130647130647132,0.0,0.0,0.0,0.0,1.413919413919414,0.0,0.53125,0.0,0.0,0.9450549450549449,0.0,-1.277167277167277,0.0,0.0,0.0,0.0,0.8229548229548229,-0.6507936507936508,0.0,0.0,0.0,,,,,,,,,,,,,movNegY
accX,0.0,-0.6825396825396826,-1.4151404151404152,0.0,0.0,0.0,-0.7619047619047619,0.0,0.0,0.0,0.0,0.0,0.0,0.0,0.0,0.0,0.0,0.0,0.0,-1.6825396825396826,-0.5177045177045178,0.0,0.0,0.0,0.6593406593406593,-1.7765567765567765,-1.1855921855921856,0.0,0.0,0.0,0.0,-1.2893772893772897,-1.0573870573870574,0.0,0.0,0.0,-0.757020757020757,-1.4969474969474967,-1.2637362637362637,0.0,0.0,0.0,0.0,-1.7606837606837606,-1.126984126984127,0.0,0.0,0.0,0.0,-1.709401709401709,-0.5482295482295483,0.0,0.0,0.0,0.0,-1.94017094017094,0.0,0.0,0.0,0.0,0.0,-2.3076923076923075,0.0,0.0,0.0,0.0,-0.6837606837606838,-2.288156288156288,0.0,0.0,0.0,0.0,0.0,-2.010989010989011,0.0,0.0,0.0,0.0,0.6190476190476191,-1.8107448107448108,0.0,-0.625,0.0,0.0,0.6813186813186813,-1.7106227106227103,0.9108669108669109,0.0,0.0,0.0,-0.7948717948717948,-1.6996336996336996,0.5201465201465202,0.0,0.0,0.0,-0.6874236874236874,-1.68009768009768,0.0,0.0,0.0,0.0,0.0,-1.4383394383394383,0.0,0.0,0.0,0.0,0.0,-0.6043956043956044,0.0,0.0,0.0,0.0,-1.0256410256410255,0.0,0.0,0.0,0.0,0.0,0.0,-0.57997557997558,0.0,0.0,0.0,0.0,0.0,-1.6556776556776556,0.0,0.0,0.0,0.0,0.0,-0.9963369963369964,0.5201465201465202,0.0,0.0,0.0,-0.5128205128205128,0.0,0.8925518925518926,0.0,0.0,0.0,-0.5885225885225885,0.0,0.0,0.0,0.0,0.0,0.0,0.0,0.0,0.0,0.0,0.0,-1.166056166056166,0.0,0.0,0.0,0.0,0.0,-0.6361416361416361,1.3748473748473748,0.0,0.0,0.0,0.0,0.5018315018315018,1.7216117216117215,0.8424908424908425,0.0,0.0,0.0,1.358974358974359,1.1892551892551892,1.205128205128205,0.0,0.0,0.0,0.6666666666666666,1.7582417582417582,1.155067155067155,0.0,0.0,0.0,0.0,2.324786324786325,0.0,0.65625,0.0,0.0,-0.6166056166056166,2.9975579975579976,0.0,0.6875,0.0,0.0,1.2918192918192921,2.385836385836386,0.0,0.0,0.75,0.0,2.9633699633699635,2.6984126984126986,2.0818070818070815,0.0,0.0,0.0,0.0,3.3076923076923075,1.5555555555555556,0.0,0.0,0.0,0.0,1.7362637362637363,-1.15995115995116,1.21875,0.0,0.0,0.0,0.5567765567765568,-2.551892551892552,0.0,0.75,0.0,0.0,2.501831501831502,0.0,-0.53125,0.0,0.0,-1.5384615384615383,3.4639804639804637,0.0,0.0,0.0,0.0,-0.5665445665445665,2.094017094017094,-0.9548229548229548,0.53125,0.0,0.0,0.0,1.2112332112332111,-1.290598290598291,0.0,0.0,0.0,0.5006105006105006,0.7387057387057387,-1.0561660561660562,0.0,0.0,0.0,0.6800976800976801,0.8864468864468864,-0.5299145299145299,-0.625,0.0,0.0,0.7130647130647131,1.0427350427350428,0.0,0.0,0.0,0.0,0.8791208791208791,0.6568986568986569,0.0,0.0,0.0,0.0,1.0683760683760684,0.5042735042735043,0.6666666666666666,0.0,0.0,0.0,movNegY
accX,0.0,0.0,0.0,0.0,0.0,0.0,0.0,0.0,0.0,0.0,0.0,0.0,0.0,-1.7582417582417582,-0.8046398046398047,0.0,0.0,0.0,0.6617826617826618,-2.483516483516484,-1.1709401709401708,-0.65625,0.0,0.0,0.0,-0.6166056166056166,0.0,-0.65625,0.0,0.0,-0.6764346764346765,0.0,0.7631257631257631,0.0,0.0,0.0,0.0,-1.3907203907203909,0.0,0.0,0.0,0.0,0.0,-3.2625152625152625,-1.2954822954822955,0.0,0.0,0.0,0.0,-2.829059829059829,-0.9548229548229548,-0.65625,0.0,0.0,0.0,-2.1233211233211238,0.0,0.0,0.0,0.0,0.0,-2.33943833943834,0.0,0.0,0.0,0.0,-0.6349206349206349,-2.9218559218559217,-0.7814407814407814,0.0,0.0,0.0,-0.8107448107448108,-2.9694749694749696,-1.1367521367521367,-0.6875,0.0,0.0,-1.1282051282051282,-2.1868131868131866,-0.6483516483516484,-0.6875,0.0,0.0,-0.8632478632478633,-2.625152625152625,0.0,0.0,0.0,0.0,0.0,-3.1330891330891335,0.0,0.0,0.0,0.0,0.5457875457875457,-3.52991452991453,0.0,0.0,0.0,0.0,0.0,-2.351648351648352,0.63003663003663,0.0,0.0,0.0,-1.192918192918193,-1.3833943833943834,0.7582417582417582,0.0,0.0,0.0,-1.2356532356532357,-1.8339438339438336,0.6703296703296703,0.0,0.625,0.0,0.0,-2.3626373626373627,0.0,0.0,0.0,0.0,0.5347985347985348,-1.398046398046398,1.0598290598290598,0.0,0.0,0.0,0.0,-1.3443223443223444,0.0,0.0,0.0,0.0,-0.7753357753357754,-0.7338217338217338,-0.5763125763125763,0.0,0.0,0.0,-0.6190476190476191,0.0,0.5286935286935287,0.0,0.53125,0.0,0.7765567765567766,0.7106227106227107,1.0427350427350428,0.0,0.0,0.0,1.2747252747252746,0.0,0.7448107448107448,0.0,0.0,0.0,0.0,2.2246642246642248,1.144078144078144,0.0,0.0,0.0,0.6190476190476191,2.095238095238096,0.0,0.0,0.0,0.0,0.0,3.9938949938949935,0.0,0.0,0.0,0.0,-0.8803418803418803,4.719169719169718,1.525030525030525,0.0,0.0,0.0,0.0,3.324786324786325,0.0,0.75,0.75,0.0,-1.1404151404151404,3.2246642246642248,-1.4493284493284493,0.0,0.0,0.0,-1.8424908424908424,4.655677655677657,0.0,0.0,0.0,0.0,0.0,4.38949938949939,2.4297924297924296,0.0,0.0,0.0,0.0,2.948717948717949,0.934065934065934,0.59375,0.0,0.0,0.5677655677655677,2.128205128205128,-0.5225885225885226,0.0,0.0,0.53125,-1.4432234432234432,3.5995115995116,0.0,0.0,0.0,0.0,0.0,1.0427350427350428,-1.105006105006105,0.6875,0.0,0.0,1.7472527472527473,0.0,-1.8888888888888888,0.0,0.0,0.0,0.0,2.33943833943834,0.0,-0.625,0.0,0.0,0.0,2.652014652014652,2.04029304029304,0.0,0.0,0.0,0.0,0.0,0.0,0.71875,0.0,0.0,1.2356532356532357,-1.7545787545787546,-2.004884004884005,0.0,0.0,0.0,0.0,0.0,-1.4700854700854702,0.0,0.0,0.0,,,,,,,,,,,,,movNegY
