,00_accX,00_accY,00_accZ,00_gyroX,00_gyroY,00_gyroZ,01_accX,01_accY,01_accZ,01_gyroX,01_gyroY,01_gyroZ,02_accX,02_accY,02_accZ,02_gyroX,02_gyroY,02_gyroZ,03_accX,03_accY,03_accZ,03_gyroX,03_gyroY,03_gyroZ,04_accX,04_accY,04_accZ,04_gyroX,04_gyroY,04_gyroZ,05_accX,05_accY,05_accZ,05_gyroX,05_gyroY,05_gyroZ,06_accX,06_accY,06_accZ,06_gyroX,06_gyroY,06_gyroZ,07_accX,07_accY,07_accZ,07_gyroX,07_gyroY,07_gyroZ,08_accX,08_accY,08_accZ,08_gyroX,08_gyroY,08_gyroZ,09_accX,09_accY,09_accZ,09_gyroX,09_gyroY,09_gyroZ,10_accX,10_accY,10_accZ,10_gyroX,10_gyroY,10_gyroZ,11_accX,11_accY,11_accZ,11_gyroX,11_gyroY,11_gyroZ,12_accX,12_accY,12_accZ,12_gyroX,12_gyroY,12_gyroZ,13_accX,13_accY,13_accZ,13_gyroX,13_gyroY,13_gyroZ,14_accX,14_accY,14_accZ,14_gyroX,14_gyroY,14_gyroZ,15_accX,15_accY,15_accZ,15_gyroX,15_gyroY,15_gyroZ,16_accX,16_accY,16_accZ,16_gyroX,16_gyroY,16_gyroZ,17_accX,17_accY,17_accZ,17_gyroX,17_gyroY,17_gyroZ,18_accX,18_accY,18_accZ,18_gyroX,18_gyroY,18_gyroZ,19_accX,19_accY,19_accZ,19_gyroX,19_gyroY,19_gyroZ,20_accX,20_accY,20_accZ,20_gyroX,20_gyroY,20_gyroZ,21_accX,21_accY,21_accZ,21_gyroX,21_gyroY,21_gyroZ,22_accX,22_accY,22_accZ,22_gyroX,22_gyroY,22_gyroZ,23_accX,23_accY,23_accZ,23_gyroX,23_gyroY,23_gyroZ,24_accX,24_accY,24_accZ,24_gyroX,24_gyroY,24_gyroZ,25_accX,25_accY,25_accZ,25_gyroX,25_gyroY,25_gyroZ,26_accX,26_accY,26_accZ,26_gyroX,26_gyroY,26_gyroZ,27_accX,27_accY,27_accZ,27_gyroX,27_gyroY,27_gyroZ,28_accX,28_accY,28_accZ,28_gyroX,28_gyroY,28_gyroZ,29_accX,29_accY,29_accZ,29_gyroX,29_gyroY,29_gyroZ,30_accX,30_accY,30_accZ,30_gyroX,30_gyroY,30_gyroZ,31_accX,31_accY,31_accZ,31_gyroX,31_gyroY,31_gyroZ,32_accX,32_accY,32_accZ,32_gyroX,32_gyroY,32_gyroZ,33_accX,33_accY,33_accZ,33_gyroX,33_gyroY,33_gyroZ,34_accX,34_accY,34_accZ,34_gyroX,34_gyroY,34_gyroZ,35_accX,35_accY,35_accZ,35_gyroX,35_gyroY,35_gyroZ,36_accX,36_accY,36_accZ,36_gyroX,36_gyroY,36_gyroZ,37_accX,37_accY,37_accZ,37_gyroX,37_gyroY,37_gyroZ,38_accX,38_accY,38_accZ,38_gyroX,38_gyroY,38_gyroZ,39_accX,39_accY,39_accZ,39_gyroX,39_gyroY,39_gyroZ,40_accX,40_accY,40_accZ,40_gyroX,40_gyroY,40_gyroZ,41_accX,41_accY,41_accZ,41_gyroX,41_gyroY,41_gyroZ,42_accX,42_accY,42_accZ,42_gyroX,42_gyroY,42_gyroZ,43_accX,43_accY,43_accZ,43_gyroX,43_gyroY,43_gyroZ,44_accX,44_accY,44_accZ,44_gyroX,44_gyroY,44_gyroZ,45_accX,45_accY,45_accZ,45_gyroX,45_gyroY,45_gyroZ,46_accX,46_accY,46_accZ,46_gyroX,46_gyroY,46_gyroZ,47_accX,47_accY,47_accZ,47_gyroX,47_gyroY,47_gyroZ,48_accX,48_accY,48_accZ,48_gyroX,48_gyroY,48_gyroZ,49_accX,49_accY,49_accZ,49_gyroX,49_gyroY,49_gyroZ,category
accX,0.0,-0.757020757020757,-1.2307692307692308,0.0,0.0,0.0,-0.5311355311355311,-1.391941391941392,-2.393162393162393,-1.03125,0.0,-0.625,-1.0866910866910866,0.0,-1.1245421245421243,-1.0625,0.84375,0.0,0.0,0.0,0.8766788766788767,0.0,0.0,0.0,0.0,-0.5299145299145299,0.0,0.0,0.0,0.0,0.0,0.0,0.0,-0.53125,0.0,0.0,0.0,0.0,1.2503052503052503,0.0,0.0,0.0,0.0,0.0,1.9474969474969477,0.0,0.0,0.0,0.0,0.0,2.230769230769231,0.0,0.0,0.0,0.0,-0.6275946275946276,2.627594627594628,0.0,0.0,0.0,0.0,-0.6532356532356532,3.6935286935286937,0.0,0.0,0.0,-0.5848595848595849,-0.6398046398046398,4.405372405372407,0.0,0.0,0.0,0.0,0.0,5.518925518925519,0.0,0.0,0.0,0.0,-0.8351648351648352,6.0757020757020745,0.0,0.0,0.0,0.0,-1.68986568986569,5.787545787545787,0.0,0.0,0.0,0.0,-1.4786324786324787,5.88034188034188,0.0,0.0,0.0,0.0,-0.7130647130647131,6.280830280830281,0.0,0.0,0.0,-1.3162393162393162,0.0,6.418803418803419,0.90625,0.0,0.0,-1.3650793650793651,-0.6520146520146519,5.938949938949939,1.28125,0.96875,0.0,0.0,-1.2954822954822955,5.877899877899878,1.375,0.71875,0.0,0.0,-1.3956043956043955,4.4822954822954815,1.15625,0.5625,0.0,0.0,-1.4322344322344325,3.5482295482295485,0.875,0.0,0.625,0.0,-1.7875457875457876,-0.7435897435897436,0.84375,0.0,0.6875,0.0,-2.6129426129426134,-3.1843711843711837,0.78125,0.0,0.65625,0.0,-1.7631257631257633,-5.6361416361416365,0.6875,0.0,0.59375,0.9316239316239316,-1.8131868131868127,-7.516483516483516,0.0,0.0,0.59375,0.6764346764346765,-0.7606837606837606,-8.179487179487179,0.0,0.0,0.53125,0.7594627594627594,0.0,-7.3699633699633695,0.59375,0.0,0.5625,0.7912087912087912,0.0,-7.3870573870573875,0.9375,0.0,0.53125,1.321123321123321,-0.6739926739926739,-7.346764346764346,1.0,0.0,0.0,2.0549450549450547,-1.2112332112332111,-6.6361416361416365,0.59375,0.0,0.0,0.0,0.0,-5.271062271062272,0.0,-0.5625,0.0,-0.9853479853479854,1.092796092796093,-3.8339438339438336,0.0,0.0,0.0,0.0,0.0,-2.515262515262515,0.53125,0.0,0.0,1.266178266178266,-0.6336996336996337,-2.5164835164835164,0.0,0.0,0.0,-0.6349206349206349,0.0,-2.8327228327228333,0.0,-0.59375,0.0,-2.117216117216117,0.7008547008547008,-1.896214896214896,0.0,-0.53125,0.0,-1.2698412698412698,0.0,-1.2185592185592184,0.0,0.0,0.0,0.0,0.0,-1.1526251526251523,0.53125,0.0,0.0,0.0,-1.0,-1.5262515262515262,0.53125,0.0,0.0,,,,,,,,,,,,,,,,,,,,,,,,,,,,,,,,,,,,,,,,,,,,,,,,,,,,,,,,,,,,,movNegZ
accX,0.0,0.0,-0.6849816849816851,0.0,0.0,0.0,0.0,0.0,-0.6739926739926739,0.0,0.0,0.0,0.0,-0.9242979242979243,-0.5763125763125763,0.0,0.0,0.0,0.0,0.0,0.0,0.0,0.0,0.0,0.0,-0.5347985347985348,0.0,-0.5625,0.0,0.0,0.0,0.0,0.9792429792429792,-0.6875,0.0,0.0,0.0,0.0,2.3040293040293043,-0.53125,0.0,0.0,0.0,-0.568986568986569,3.1086691086691087,0.0,0.0,0.0,0.0,-0.8632478632478633,3.4236874236874235,0.0,0.0,0.0,0.0,-1.1782661782661783,3.8608058608058613,0.0,0.0,0.0,0.0,-1.537240537240537,4.567765567765568,0.0,0.0,0.0,0.7411477411477412,-1.3089133089133091,5.592185592185592,0.0,0.0,0.0,0.0,-1.0818070818070815,5.673992673992674,0.0,0.0,0.0,-0.8205128205128205,0.0,5.749694749694751,0.0,0.0,0.0,-0.6056166056166056,0.0,5.792429792429793,0.9375,0.625,0.0,0.0,-0.7765567765567766,5.702075702075702,1.0625,0.0,0.0,0.0,-1.2673992673992671,5.334554334554333,0.9375,0.0,0.0,0.0,-1.31013431013431,4.035409035409035,0.65625,0.0,0.0,0.0,-1.9633699633699635,2.7948717948717947,0.0,0.0,0.0,-1.7374847374847375,-0.7435897435897436,2.5311355311355306,0.65625,0.0,0.0,-1.7826617826617828,0.0,2.1538461538461537,1.28125,1.25,0.5625,0.0,0.0,1.0647130647130647,1.375,1.1875,0.5625,0.0,0.0,0.0,1.4375,0.8125,0.0,0.0,0.0,-1.8119658119658117,1.5625,0.65625,0.625,1.1135531135531136,-0.8485958485958486,-3.2649572649572653,1.40625,0.0,0.65625,1.608058608058608,-1.8034188034188037,-4.943833943833944,0.65625,0.0,0.0,0.0,0.0,-5.046398046398046,0.0,0.0,0.0,0.0,1.1452991452991452,-3.5152625152625148,0.75,0.0,0.0,0.7863247863247863,-0.7094017094017094,-5.007326007326007,1.15625,0.59375,0.0,4.435897435897437,-3.694749694749695,-7.46031746031746,0.0,0.0,0.0,1.1025641025641026,-0.6251526251526252,-5.87912087912088,0.0,-1.15625,0.0,-2.527472527472528,2.335775335775336,-4.1147741147741135,0.9375,0.0,0.0,-0.6410256410256411,0.0,-4.644688644688644,1.78125,0.96875,0.0,2.4346764346764345,-2.7704517704517704,-5.9010989010989015,0.78125,0.0,0.0,1.175824175824176,-1.0354090354090355,-4.247863247863248,0.0,-0.71875,0.0,-2.844932844932845,1.9377289377289375,-2.2857142857142856,0.0,0.0,0.0,-3.0708180708180715,1.5567765567765568,-2.0695970695970702,0.78125,0.0,0.0,0.0,-0.8144078144078144,-3.404151404151404,0.0,0.0,0.0,-1.338217338217338,0.0,-2.034188034188034,0.0,-0.5625,0.0,-1.0818070818070815,0.0,-1.8144078144078144,0.0,0.0,0.0,0.0,0.0,-2.004884004884005,0.0,0.0,0.0,,,,,,,,,,,,,,,,,,,,,,,,,,,,,,,,,,,,,,,,,,,,,,,,,,,,,,,movNegZ
accX,0.0,-0.6837606837606838,0.0,0.0,0.0,0.0,0.0,-1.0048840048840049,0.0,0.0,0.0,0.0,-0.8363858363858364,0.0,0.0,0.0,0.0,0.0,0.0,0.0,1.47985347985348,0.0,0.0,0.0,0.0,0.0,1.0012210012210012,0.0,0.0,0.0,-0.5177045177045178,-1.2087912087912087,0.0,0.0,0.0,0.0,0.0,-0.9169719169719168,1.761904761904762,-0.71875,0.0,0.0,0.0,-0.6617826617826618,3.6568986568986563,-0.6875,0.0,0.0,0.0,-0.8705738705738706,4.096459096459096,0.0,0.0,0.0,-0.9108669108669109,-1.1636141636141637,3.897435897435898,0.0,0.0,0.0,-1.3467643467643469,-1.3540903540903542,4.177045177045176,0.0,0.0,0.0,0.0,-1.5103785103785103,5.368742368742368,0.0,0.6875,0.0,0.9133089133089132,-1.2832722832722834,5.874236874236875,0.0,0.0,0.0,0.7411477411477412,-1.1123321123321124,5.6593406593406606,0.53125,0.0,0.0,-0.5079365079365079,-1.0573870573870574,5.532356532356533,0.71875,0.0,0.0,-1.321123321123321,-0.6874236874236874,5.3992673992674005,1.03125,0.0,0.0,0.0,-0.6483516483516484,5.37973137973138,1.40625,0.75,0.0,0.0,-1.0354090354090355,4.4371184371184365,1.46875,0.0,0.0,-0.8644688644688645,-1.3675213675213675,3.43956043956044,1.25,0.0,0.0,-1.1086691086691087,-0.568986568986569,2.7985347985347984,1.09375,0.0,0.0,-1.0268620268620268,0.0,1.7777777777777777,1.3125,0.0,0.0,0.0,-1.3601953601953602,0.0,1.375,0.75,0.5625,1.0085470085470083,-2.0525030525030523,-1.8083028083028083,1.21875,0.0,0.625,0.0,-1.5995115995115996,-4.472527472527473,0.90625,0.0,0.0,0.0,0.0,-5.406593406593408,0.59375,0.0,0.0,0.0,-0.6923076923076923,-5.824175824175824,0.71875,0.0,0.0,0.0,-1.4505494505494505,-6.446886446886448,0.875,0.0,0.0,1.1147741147741148,-2.039072039072039,-6.557997557997558,0.75,0.0,0.0,1.8534798534798536,-1.2747252747252746,-5.998778998778999,0.0,0.0,0.0,1.1147741147741148,0.0,-5.482295482295481,0.84375,0.0,0.0,0.0,-0.6410256410256411,-5.984126984126984,0.8125,0.0,0.0,0.6446886446886447,-1.1575091575091576,-5.971916971916972,0.0,0.0,0.0,0.5628815628815629,0.0,-4.261294261294261,0.0,0.0,0.0,-1.0256410256410255,0.6312576312576312,-3.2600732600732596,0.0,0.0,0.0,-1.120879120879121,0.0,-3.1562881562881566,0.625,0.0,0.0,0.0,0.0,-3.1880341880341883,0.0,0.0,0.0,0.0,0.0,-2.3675213675213675,0.0,0.0,0.0,-1.2087912087912087,0.57997557997558,-1.68986568986569,0.0,0.0,0.0,-1.431013431013431,0.0,-1.709401709401709,0.0,0.0,0.0,0.0,0.0,-1.7643467643467643,0.0,0.0,0.0,0.0,-0.5860805860805861,-1.4700854700854702,0.0,0.0,0.0,,,,,,,,,,,,,,,,,,,,,,,,,,,,,,,,,,,,,,,,,,,,,,,,,,,,,,,movNegZ
accX,-0.5299145299145299,0.5934065934065934,0.8901098901098901,0.0,0.0,0.0,0.0,0.0,0.7387057387057387,0.0,0.0,0.0,-0.5677655677655677,0.0,0.0,0.0,0.0,0.0,0.0,-0.5995115995115995,0.0,0.0,0.0,0.0,0.0,-0.7130647130647131,0.7032967032967034,0.0,0.0,0.0,0.0,-0.5958485958485958,0.7887667887667887,0.0,0.0,0.0,0.0,0.0,1.525030525030525,0.0,0.0,0.0,-0.5067155067155067,-0.778998778998779,2.2796092796092795,0.0,0.0,0.0,0.0,-0.9633699633699634,3.1855921855921854,0.0,0.0,0.0,0.6788766788766789,-0.9658119658119658,3.5543345543345537,0.0,0.0,0.0,0.0,-1.4847374847374848,3.2881562881562885,0.0,0.0,0.0,0.0,-1.4920634920634919,3.637362637362637,0.0,0.0,0.0,0.0,-1.1245421245421243,4.677655677655678,0.0,0.53125,0.0,0.757020757020757,-0.8217338217338217,5.814407814407813,0.6875,0.0,0.0,1.5189255189255189,-1.2942612942612943,6.018315018315017,0.71875,0.0,0.0,0.5958485958485958,-1.2087912087912087,5.230769230769232,0.65625,0.0,0.0,0.0,-0.514041514041514,4.9523809523809526,0.90625,0.0,0.0,0.0,0.0,5.2686202686202686,1.34375,0.0,0.0,0.0,-0.8998778998778999,4.074481074481073,1.0625,0.0,0.0,-2.3284493284493286,0.0,2.765567765567765,1.21875,0.0,0.0,0.0,0.0,2.2612942612942613,1.9375,1.09375,0.0,0.0,-2.0097680097680097,0.5775335775335775,2.15625,1.0625,0.0,0.0,-2.915750915750916,-1.094017094017094,1.9375,0.78125,0.0,0.7655677655677655,-2.208791208791209,-2.1343101343101343,1.625,0.90625,0.0,1.6459096459096458,-2.490842490842491,-3.3064713064713063,1.375,0.71875,0.0,1.7448107448107448,-2.0891330891330893,-4.1098901098901095,0.9375,0.0,0.0,0.0,-1.0549450549450552,-4.936507936507937,0.875,0.0,0.0,-0.6556776556776557,-1.0451770451770452,-6.398046398046397,0.9375,0.0,0.0,0.0,-0.8485958485958486,-7.052503052503053,0.75,0.59375,0.0,1.2283272283272284,-1.536019536019536,-7.052503052503053,0.59375,0.0,0.0,0.0,-1.0012210012210012,-6.749694749694751,0.0,0.0,0.0,-1.0195360195360197,-0.6556776556776557,-6.974358974358975,0.0,0.0,0.0,0.0,-0.9096459096459096,-6.203907203907204,0.0,0.5625,0.0,0.0,-0.9682539682539684,-5.0989010989010985,0.0,0.0,0.0,0.6459096459096461,-0.7765567765567766,-4.1782661782661785,0.0,0.0,0.0,0.0,0.0,-3.52991452991453,0.0,0.0,0.0,-0.6898656898656899,0.0,-2.645909645909646,0.0,0.0,0.0,0.7887667887667887,-0.8852258852258852,-1.9023199023199024,0.0,0.0,0.0,0.0,0.0,-1.2454212454212454,0.0,0.0,0.0,-1.1575091575091576,0.0,-1.1465201465201464,0.0,0.0,0.0,,,,,,,,,,,,,,,,,,,,,,,,,,,,,,,,,,,,,,,,,,,,,,,,,,,,,,,,,,,,,movNegZ
accX,0.0,0.0,1.0476190476190477,0.0,0.0,0.0,0.0,-0.63003663003663,0.7533577533577533,0.0,0.0,0.0,0.0,0.0,1.1807081807081807,0.0,0.0,0.0,0.0,0.0,1.4297924297924298,0.0,0.0,0.0,0.0,0.0,1.6971916971916972,0.0,0.0,0.0,-0.57997557997558,-0.5482295482295483,1.4188034188034189,0.0,0.0,0.0,0.0,-0.9511599511599512,1.663003663003663,0.0,0.0,0.0,0.0,-0.6800976800976801,2.385836385836386,0.0,0.0,0.0,0.0,-0.7960927960927959,2.8461538461538463,0.0,0.0,0.0,0.0,-1.194139194139194,3.1538461538461537,0.0,0.0,0.0,0.5006105006105006,-1.4444444444444444,3.6495726495726495,0.0,0.0,0.0,1.1587301587301588,-1.4969474969474967,4.576312576312576,0.0,0.0,0.0,0.8144078144078144,-1.5177045177045176,4.976800976800976,0.0,0.0,0.0,0.0,-1.2454212454212454,5.0818070818070815,0.625,0.0,0.0,0.0,-0.8009768009768009,4.3992673992674005,0.78125,0.0,0.0,0.0,-1.1672771672771671,4.186813186813187,0.75,0.0,0.0,0.0,-1.3479853479853479,4.36019536019536,0.6875,0.0,0.0,0.6019536019536019,-0.9621489621489622,4.905982905982906,0.84375,0.0,0.0,0.0,0.0,3.954822954822955,1.03125,0.0,0.0,-1.2612942612942613,0.0,2.796092796092796,1.25,0.0,0.0,-1.5811965811965811,0.0,2.346764346764347,1.53125,0.6875,0.0,-0.5433455433455433,-0.9865689865689866,1.7326007326007329,1.5625,0.75,0.0,0.0,-1.0012210012210012,0.0,1.3125,0.0,0.0,0.0,-0.5445665445665445,0.0,1.1875,0.0,0.0,0.0,-0.7960927960927959,-0.7301587301587301,1.21875,0.71875,0.0,0.7350427350427351,-1.1025641025641026,-1.5115995115995116,1.21875,0.65625,0.0,1.3052503052503053,-1.1868131868131868,-3.33943833943834,0.9375,0.0,0.0,0.0,-0.8192918192918193,-4.6129426129426125,0.6875,0.0,0.0,-0.7106227106227107,0.0,-4.807081807081807,0.5625,0.0,0.0,-1.1135531135531136,0.0,-4.82051282051282,0.71875,0.0,0.0,0.0,0.0,-5.827838827838828,0.78125,0.0,0.0,1.5995115995115996,-1.1526251526251523,-5.87912087912088,0.65625,0.0,0.0,1.6031746031746033,-1.7863247863247864,-5.688644688644688,0.0,0.0,0.0,0.0,-0.818070818070818,-5.68986568986569,0.0,0.0,0.0,0.5128205128205128,0.0,-5.278388278388278,0.65625,0.0,0.0,0.9365079365079364,-1.5177045177045176,-4.301587301587301,0.0,0.0,0.0,1.020757020757021,0.0,-2.783882783882784,0.0,0.0,0.0,0.0,0.0,-1.6935286935286935,0.0,-0.6875,0.0,-1.8461538461538465,0.0,-1.8852258852258847,0.0,-0.71875,0.0,-2.3162393162393164,0.0,-2.774114774114774,0.0,0.0,0.0,-1.0598290598290598,0.0,-2.6984126984126986,0.0,0.0,0.0,0.0,-0.6996336996336996,-2.411477411477412,0.0,0.0,0.0,,,,,,,,,,,,,,,,,,,,,,,,,,,,,,,,,,,,,,,,,,,,,,,,,movNegZ
accX,0.0,-0.8363858363858364,0.6153846153846154,0.0,0.0,0.0,-0.5811965811965812,0.0,0.0,0.0,0.0,0.0,0.0,0.0,0.7435897435897436,0.0,0.0,0.0,0.0,-1.0586080586080586,0.7863247863247863,0.0,0.0,0.0,0.0,-1.0024420024420024,1.0231990231990231,0.0,0.0,0.0,0.0,-0.6886446886446886,1.7985347985347986,-0.53125,0.0,0.0,0.0,-1.0329670329670328,2.8107448107448105,0.0,0.0,0.0,0.6336996336996337,-1.0305250305250304,3.495726495726496,0.0,0.0,0.0,0.0,-1.4090354090354091,3.4261294261294264,0.0,0.0,0.0,0.0,-0.9902319902319904,3.617826617826618,0.0,0.0,0.0,0.0,-0.9523809523809524,3.6214896214896215,0.0,0.0,0.0,0.0,-1.3186813186813189,3.6349206349206344,0.0,0.0,0.0,-0.5506715506715507,-1.4884004884004884,3.720390720390721,0.0,0.0,0.0,0.6361416361416361,-1.1526251526251523,4.678876678876679,0.0,0.0,0.0,0.0,0.0,5.589743589743589,0.0,0.0,0.0,-0.7191697191697192,0.0,5.719169719169719,0.8125,0.0,0.0,-1.2222222222222223,-0.6349206349206349,4.537240537240537,1.1875,0.0,0.0,-0.5604395604395604,-1.2124542124542124,3.04029304029304,1.03125,0.53125,0.0,-0.8021978021978022,-0.6886446886446886,2.398046398046398,0.59375,0.0,0.0,-2.826617826617827,1.065934065934066,2.7118437118437115,1.0625,0.8125,0.0,-2.503052503052503,1.0329670329670328,1.7203907203907205,1.84375,1.65625,0.0,0.0,-0.6019536019536019,0.0,1.6875,1.25,0.71875,1.1074481074481075,-2.004884004884005,-1.8473748473748477,0.875,0.5625,0.8125,1.10989010989011,-0.6483516483516484,-2.9682539682539684,0.5625,0.0,0.6875,0.6837606837606838,0.503052503052503,-3.5457875457875456,1.0,0.0,0.0,0.0,0.0,-5.014652014652015,1.1875,0.0,0.0,0.0,-1.0134310134310134,-6.418803418803419,0.875,0.0,0.0,1.4725274725274726,-1.7106227106227103,-6.956043956043956,0.0,0.0,0.0,1.8644688644688645,-0.9633699633699634,-6.789987789987791,0.0,0.0,0.0,0.7057387057387058,0.0,-5.94993894993895,0.6875,0.0,0.0,0.0,0.0,-6.114774114774113,0.90625,0.0,0.0,1.1892551892551892,-0.6593406593406593,-5.777777777777778,0.71875,0.0,0.0,1.120879120879121,-0.9487179487179488,-5.095238095238095,0.0,0.0,0.0,0.0,0.0,-3.606837606837607,0.0,0.0,0.0,-1.0805860805860803,0.5714285714285714,-2.649572649572649,0.0,0.0,0.0,-0.5286935286935287,0.5262515262515263,-2.4993894993894994,0.0,0.0,0.0,,,,,,,,,,,,,,,,,,,,,,,,,,,,,,,,,,,,,,,,,,,,,,,,,,,,,,,,,,,,,,,,,,,,,,,,,,,,,,,,,,,,,movNegZ
accX,0.0,-0.7814407814407814,0.0,0.0,0.0,0.0,0.6544566544566545,-1.31990231990232,0.0,0.0,0.0,0.0,0.6898656898656899,-1.2796092796092795,0.0,0.0,0.0,0.0,0.0,-0.8962148962148963,0.0,0.0,0.0,0.0,0.0,-0.5225885225885226,0.0,0.0,0.0,0.0,0.0,-0.5262515262515263,1.188034188034188,0.0,0.0,0.0,0.0,-0.8583638583638583,2.1562881562881557,0.0,0.0,0.0,0.0,-1.0012210012210012,2.7020757020757022,0.0,0.0,0.0,0.0,-0.7362637362637363,3.6727716727716726,0.0,0.0,0.0,0.0,-1.0647130647130647,3.6336996336996337,0.0,0.0,0.0,-1.293040293040293,-1.3003663003663004,3.4420024420024418,0.0,0.0,0.0,-0.5079365079365079,-1.5164835164835164,4.3296703296703285,0.0,0.0,0.0,0.6678876678876678,-0.8840048840048841,5.483516483516484,0.0,0.0,0.0,0.7533577533577533,0.0,5.557997557997558,0.59375,0.0,0.0,0.0,-1.0402930402930404,4.791208791208791,0.59375,0.0,0.0,-0.7338217338217338,-1.5836385836385836,4.018315018315018,0.0,0.0,0.0,0.0,-0.8705738705738706,4.548229548229548,0.53125,0.0,0.0,0.0,-1.1721611721611722,4.277167277167277,0.8125,0.0,0.0,0.0,-0.956043956043956,3.474969474969475,0.0,-0.75,0.0,-3.0830280830280827,0.8571428571428571,2.3675213675213675,0.0,-0.59375,0.0,-2.323565323565324,0.6166056166056166,1.4529914529914532,1.3125,0.78125,0.0,0.9304029304029304,-1.5067155067155067,0.7142857142857143,1.8125,1.09375,0.65625,2.3626373626373627,-3.0415140415140414,-0.8986568986568987,1.53125,0.0,0.78125,1.9523809523809523,-2.1062271062271063,-3.1636141636141635,1.0,0.0,0.5625,0.0,0.0,-4.355311355311355,0.90625,0.0,0.0,0.0,-0.8339438339438342,-4.412698412698413,1.28125,0.0,0.0,1.8864468864468864,-2.1746031746031744,-5.433455433455434,1.1875,0.59375,0.0,2.3150183150183152,-1.5262515262515262,-6.772893772893772,0.53125,0.0,0.0,0.5018315018315018,0.0,-6.670329670329671,0.0,0.0,0.0,-1.0793650793650793,0.6544566544566545,-5.9694749694749705,0.71875,0.0,0.0,0.0,0.0,-6.125763125763125,0.875,0.59375,0.0,1.3577533577533578,-1.0818070818070815,-6.390720390720391,0.0,0.0,0.0,0.0,0.5836385836385837,-4.637362637362638,0.0,0.0,0.0,-1.4468864468864469,0.9975579975579976,-3.336996336996337,0.78125,0.0,0.0,0.0,0.0,-3.7228327228327234,0.625,0.0,0.0,0.7057387057387058,-1.0586080586080586,-3.9743589743589753,0.0,0.0,0.0,-0.6153846153846154,0.0,-3.122100122100122,0.0,0.0,0.0,-0.9157509157509156,0.0,-2.0195360195360195,0.0,0.0,0.0,0.0,0.0,-2.31013431013431,0.0,0.0,0.0,,,,,,,,,,,,,,,,,,,,,,,,,,,,,,,,,,,,,,,,,,,,,,,,,,,,,,,,,,,,,,,,,,,movNegZ
accX,0.0,-0.6251526251526252,0.5433455433455433,0.0,0.0,0.0,0.0,0.0,1.192918192918193,0.0,0.0,0.0,0.0,0.0,1.2344322344322345,0.0,0.0,0.0,0.0,0.0,0.8424908424908425,0.0,0.0,0.0,0.0,-1.061050061050061,0.0,0.0,0.0,0.0,0.0,-0.5152625152625152,0.0,-0.53125,0.0,0.0,0.0,0.0,1.0976800976800978,0.0,0.0,0.0,0.0,0.0,1.266178266178266,0.0,0.0,0.0,0.0,-0.7936507936507936,1.1294261294261294,0.0,0.0,0.0,0.0,-0.9181929181929182,1.525030525030525,0.0,0.0,0.0,0.0,-1.3028083028083028,2.0183150183150182,0.0,0.0,0.0,0.0,-1.4297924297924298,2.862026862026862,0.0,0.0,0.0,0.6263736263736264,-1.7997557997557998,3.5006105006105006,0.0,0.0,0.0,0.0,-1.3748473748473748,3.8717948717948723,0.0,0.0,0.0,-0.7203907203907204,-0.7203907203907204,4.5006105006105015,0.0,0.0,0.0,-0.5164835164835165,-1.020757020757021,4.887667887667888,0.59375,0.0,0.0,0.0,-1.5555555555555556,4.625152625152626,0.78125,0.0,0.0,0.0,-2.063492063492064,3.774114774114774,0.0,0.0,0.0,0.0,-1.6984126984126984,3.4004884004884004,0.0,0.0,0.0,-0.7167277167277167,-0.967032967032967,3.9462759462759465,0.5625,0.0,0.0,-0.7960927960927959,-0.6935286935286935,4.390720390720391,1.1875,0.0,0.0,0.0,-1.4590964590964588,2.023199023199023,0.875,0.0,0.0,0.0,-0.6593406593406593,2.253968253968254,0.0,0.0,0.0,-1.5470085470085468,0.0,1.8498168498168501,0.8125,0.0,0.0,-0.9572649572649572,0.0,0.0,1.46875,0.53125,0.0,0.0,-0.8608058608058609,-1.3052503052503053,1.46875,0.84375,0.0,0.0,-0.9926739926739928,-1.4322344322344325,0.90625,0.53125,0.0,0.8473748473748474,-1.0854700854700854,-1.8705738705738704,0.5625,0.0,0.0,0.0,0.0,-2.958485958485958,0.71875,0.0,0.0,0.0,0.0,-3.455433455433456,0.90625,0.0,0.0,0.0,0.0,-3.2503052503052503,0.9375,0.0,0.0,0.5128205128205128,0.0,-4.697191697191697,0.6875,0.0,0.0,0.0,0.0,-5.31013431013431,0.0,0.0,0.0,0.0,0.0,-4.927960927960927,0.65625,0.0,0.0,0.0,0.0,-4.561660561660561,0.90625,0.53125,0.0,1.2087912087912087,0.0,-4.837606837606837,0.78125,0.0,0.0,0.0,0.0,-5.4273504273504285,0.625,0.0,0.0,-1.1855921855921856,0.0,-5.658119658119658,0.5625,0.0,0.0,0.0,0.0,-4.985347985347985,0.59375,0.0,0.0,0.6898656898656899,0.0,-4.391941391941391,0.0,0.0,0.0,0.0,0.0,-3.63980463980464,0.0,0.0,0.0,,,,,,,,,,,,,,,,,,,,,,,,,,,,,,,,,,,,,,,,,,,,,,,,,,,,,,,movNegZ
accX,-0.6849816849816851,0.0,0.0,0.0,0.0,0.0,0.0,0.0,0.6068376068376068,0.0,0.0,0.0,0.0,-0.6202686202686203,0.7032967032967034,0.0,0.0,0.0,0.0,-0.6862026862026862,0.0,0.0,0.0,0.0,0.0,-0.6642246642246642,0.0,0.0,0.0,0.0,0.0,-0.6752136752136753,1.5006105006105006,0.0,0.0,0.0,0.0,-0.6459096459096461,2.268620268620269,0.0,0.0,0.0,0.0,-1.3846153846153846,2.213675213675214,0.0,0.0,0.0,0.0,-1.9352869352869355,2.452991452991453,0.0,0.0,0.0,0.0,-2.0085470085470085,3.0109890109890114,0.0,0.0,0.0,0.0,-1.2222222222222223,4.018315018315018,0.0,0.0,0.0,0.0,-0.6935286935286935,4.766788766788767,0.0,0.0,0.0,0.7545787545787546,-1.0891330891330893,4.970695970695972,0.0,0.0,0.0,0.0,-1.382173382173382,4.338217338217338,0.53125,0.0,0.0,0.0,-1.8229548229548234,3.937728937728938,0.625,0.0,0.0,0.0,-1.286935286935287,3.8852258852258847,0.0,0.0,0.0,0.0,-0.7142857142857143,4.124542124542124,0.53125,0.0,0.0,0.0,-0.6984126984126984,4.028083028083028,0.78125,0.0,0.0,-0.6251526251526252,-1.05006105006105,3.361416361416361,1.0625,0.0,0.0,0.0,-2.1123321123321124,1.887667887667888,0.65625,0.0,0.0,0.0,-1.9926739926739927,1.0244200244200243,0.0,-0.6875,0.0,-2.1416361416361416,0.0,1.1086691086691087,0.0,0.0,0.0,-2.421245421245421,1.249084249084249,1.2551892551892552,1.4375,1.4375,0.0,0.0,0.0,0.0,1.71875,1.53125,0.0,1.1587301587301588,-1.3956043956043955,-2.385836385836386,0.0,0.0,0.53125,0.0,0.0,-2.924297924297924,0.0,0.0,0.0,0.0,0.0,-3.8962148962148966,1.125,0.6875,0.0,0.0,-1.2820512820512822,-5.582417582417582,1.25,0.0,0.0,0.0,-1.752136752136752,-5.957264957264957,0.5625,0.0,0.0,0.0,0.5018315018315018,-5.122100122100122,0.0,0.0,0.0,0.0,0.7472527472527473,-5.0317460317460325,0.78125,0.0,0.0,1.4188034188034189,-1.4383394383394383,-5.926739926739928,1.1875,0.0,0.0,1.2673992673992671,-2.195360195360196,-6.1159951159951165,0.53125,0.0,0.0,0.0,0.0,-5.112332112332112,0.0,0.0,0.0,0.0,0.0,-3.958485958485959,0.0,0.53125,0.0,0.0,0.0,-3.2063492063492065,0.0,0.6875,0.0,0.6043956043956044,0.0,-3.1416361416361416,0.0,0.0,0.0,0.0,0.0,-2.6373626373626373,0.0,0.0,0.0,,,,,,,,,,,,,,,,,,,,,,,,,,,,,,,,,,,,,,,,,,,,,,,,,,,,,,,,,,,,,,,,,,,,,,,,,movNegZ
accX,0.0,-0.7631257631257631,0.8058608058608059,0.0,0.0,0.0,0.0,0.0,1.6691086691086692,-0.53125,0.0,0.0,0.0,0.0,1.1257631257631258,-0.59375,0.0,0.0,-1.0634920634920637,0.0,1.0244200244200243,-0.5625,0.0,0.0,-0.7802197802197802,-0.6727716727716728,1.68009768009768,0.0,0.0,0.0,0.0,-1.2991452991452992,1.84004884004884,0.0,0.0,0.0,0.9108669108669109,-1.6996336996336996,1.6874236874236874,0.0,0.0,0.0,0.0,-1.5995115995115996,1.2954822954822955,0.0,0.0,0.0,-0.8437118437118437,-1.0769230769230769,1.9413919413919412,0.0,0.0,0.0,0.0,-0.6056166056166056,2.973137973137973,0.0,0.0,0.0,0.5201465201465202,-0.9792429792429792,3.6007326007326013,0.0,0.0,0.0,0.7924297924297924,-1.380952380952381,3.3553113553113554,0.0,0.0,0.0,0.5970695970695971,-1.68986568986569,3.4273504273504267,0.0,0.0,0.0,0.0,-0.6764346764346765,4.387057387057388,0.0,0.0,0.0,0.0,0.757020757020757,4.915750915750916,0.90625,0.0,0.0,-0.5433455433455433,0.0,3.2649572649572653,1.0625,0.0,0.0,-1.0573870573870574,-1.15995115995116,2.166056166056166,0.78125,0.0,0.0,-0.9816849816849816,-1.6422466422466422,2.855921855921856,0.0,0.0,0.0,-0.7081807081807082,0.0,3.5726495726495733,0.875,0.0,0.0,0.0,0.5531135531135531,3.0708180708180715,1.40625,0.6875,0.0,0.0,0.0,1.9328449328449329,1.28125,0.0,0.0,-0.7631257631257631,-1.4175824175824177,1.4444444444444444,1.0,0.0,0.0,-0.525030525030525,-1.6654456654456655,0.8376068376068376,0.96875,0.0,0.0,1.5115995115995116,-1.9645909645909645,0.0,0.875,0.0,0.0,1.0793650793650793,-1.1477411477411477,0.0,0.90625,0.0,0.0,-0.6605616605616605,0.0,-1.037851037851038,1.15625,0.0,0.0,-1.0732600732600732,0.0,-2.445665445665446,1.34375,0.5625,0.0,1.4493284493284493,-1.21978021978022,-3.1465201465201464,0.875,0.0,0.0,1.0952380952380951,-1.1965811965811963,-3.8424908424908426,0.0,-0.84375,0.0,-2.814407814407814,0.9658119658119658,-4.794871794871796,0.6875,0.0,0.0,0.6007326007326007,-1.0329670329670328,-5.029304029304028,1.3125,0.65625,0.0,1.3553113553113554,-1.7582417582417582,-6.6007326007325995,0.625,0.0,0.0,0.0,0.0,-6.307692307692308,0.0,0.0,0.0,0.5421245421245421,0.0,-5.173382173382174,0.0,0.0,0.0,1.137973137973138,-0.8046398046398047,-4.831501831501831,0.84375,0.0,0.0,0.8925518925518926,-1.534798534798535,-5.087912087912088,0.625,0.0,0.0,0.6862026862026862,-0.6214896214896215,-4.0708180708180715,0.0,0.0,0.0,0.0,0.0,-2.7570207570207566,0.0,0.0,0.0,,,,,,,,,,,,,,,,,,,,,,,,,,,,,,,,,,,,,,,,,,,,,,,,,,,,,,,,,,,,,,,,,,,,,,,,,movNegZ
accX,0.0,-0.971916971916972,0.557997557997558,0.96875,-0.5625,0.0,-0.6654456654456654,-1.884004884004884,0.0,0.8125,-0.59375,0.0,0.0,-1.6349206349206349,-0.7509157509157509,0.0,0.0,0.0,0.0,-1.006105006105006,0.0,-0.75,0.65625,0.0,0.0,-1.0879120879120878,1.5763125763125765,-0.78125,0.0,0.0,0.0,-1.5164835164835164,1.7228327228327232,0.0,0.0,0.0,0.0,-1.673992673992674,1.5567765567765568,-0.53125,0.0,0.0,0.0,-1.6678876678876684,2.1648351648351647,-0.65625,0.0,0.0,0.0,-1.391941391941392,2.9316239316239314,-0.625,0.0,0.0,0.0,-1.6251526251526252,3.335775335775337,0.0,0.0,0.0,0.0,-2.1343101343101343,2.8253968253968256,0.0,0.0,0.0,0.0,-1.943833943833944,3.0073260073260077,0.0,0.0,0.0,0.0,-1.2576312576312576,4.078144078144078,0.0,0.0,0.0,0.0,-0.8070818070818071,5.078144078144078,0.5625,0.0,0.0,-0.6935286935286935,-1.6288156288156288,4.42979242979243,0.875,0.0,0.0,0.0,-2.15995115995116,3.4725274725274726,0.0,0.0,0.0,-0.8925518925518926,-0.6739926739926739,3.84981684981685,0.0,0.0,0.0,-1.1623931623931625,0.0,5.135531135531137,1.125,0.0,0.0,-1.871794871794872,0.0,3.888888888888889,1.71875,0.59375,0.0,-0.5433455433455433,-1.894993894993895,1.8388278388278387,1.40625,0.5625,0.0,0.0,-2.527472527472528,0.7545787545787546,0.625,0.0,0.0,-0.8766788766788767,-0.851037851037851,1.321123321123321,0.90625,0.0,0.0,0.0,0.0,0.7155067155067155,1.71875,0.0,0.0,1.0488400488400489,-1.8021978021978025,-1.809523809523809,1.53125,0.0,0.0,0.0,-2.452991452991453,-3.771672771672772,0.0,0.0,0.0,-2.1941391941391943,0.7912087912087912,-2.915750915750916,0.5625,0.0,0.0,-1.8327228327228329,2.542124542124542,-1.4884004884004884,1.4375,0.84375,0.0,0.0,0.5665445665445665,-2.9670329670329667,1.65625,0.0,0.0,1.3296703296703296,-2.0012210012210008,-5.317460317460316,0.90625,0.0,0.0,0.0,-1.431013431013431,-6.054945054945056,0.0,0.0,0.0,0.0,0.0,-5.212454212454213,0.65625,0.0,0.0,1.8217338217338217,0.0,-4.719169719169718,0.84375,0.0,0.0,1.4896214896214897,-1.1001221001221002,-5.3418803418803416,0.75,0.0,0.0,0.0,-0.7277167277167277,-6.643467643467643,0.0,0.0,0.0,-0.8803418803418803,0.0,-6.083028083028082,0.0,0.0,0.0,0.0,0.0,-4.406593406593408,0.0,0.0,0.0,0.8827838827838828,-0.6483516483516484,-3.04029304029304,0.0,0.0,0.0,0.0,0.0,-1.912087912087912,0.0,0.0,0.0,-1.1135531135531136,0.0,-1.3003663003663004,0.0,0.0,0.0,-1.164835164835165,0.0,-1.2673992673992671,0.0,0.0,0.0,,,,,,,,,,,,,,,,,,,,,,,,,,,,,,,,,,,,,,,,,,,,,,,,,,,,,,,,,,,,,movNegZ
accX,0.0,-1.1294261294261294,1.0781440781440779,0.0,0.0,0.0,0.0,-1.1306471306471306,0.0,0.0,0.0,0.0,0.0,0.0,1.290598290598291,-0.59375,0.0,0.0,-0.6507936507936508,0.0,1.5079365079365081,0.0,0.0,0.0,-0.5177045177045178,-0.5531135531135531,1.2136752136752136,0.0,0.0,0.0,0.0,-1.010989010989011,1.2087912087912087,0.0,0.0,0.0,0.0,-1.2747252747252746,1.021978021978022,0.0,0.0,0.0,0.0,-0.94993894993895,1.4371184371184371,-0.59375,0.0,0.0,0.0,-0.63003663003663,2.614163614163614,0.0,0.0,0.0,0.0,-1.0634920634920637,2.8339438339438336,0.0,0.0,0.0,0.0,-1.4920634920634919,2.5811965811965814,0.0,0.0,0.0,0.0,-1.2857142857142858,2.6166056166056166,0.0,0.0,0.0,0.0,-1.4700854700854702,3.3296703296703303,0.0,0.0,0.0,0.7619047619047619,-1.0989010989010992,4.074481074481073,0.0,0.0,0.0,0.0,-0.7887667887667887,3.675213675213675,0.0,0.0,0.0,0.0,-1.1575091575091576,2.9194139194139197,0.0,0.0,0.0,0.0,-1.442002442002442,2.7191697191697197,0.0,0.0,0.0,-0.8583638583638583,-1.4407814407814408,2.9633699633699635,0.5625,0.0,0.0,-1.0537240537240538,-0.9304029304029304,2.6715506715506714,0.625,0.0,0.0,0.0,-0.757020757020757,2.241758241758242,0.625,0.0,0.0,0.0,-0.5518925518925519,2.503052503052503,0.6875,0.0,0.0,-0.7997557997557998,0.0,2.621489621489621,1.1875,0.59375,0.0,-0.6202686202686203,0.0,1.709401709401709,1.375,0.875,0.0,0.0,-0.6886446886446886,0.0,0.90625,0.6875,0.0,1.0134310134310134,0.0,0.0,0.59375,0.0,0.65625,0.6398046398046398,0.0,0.0,0.84375,0.0,0.5625,0.0,0.0,0.0,1.15625,0.0,0.0,0.0,-1.1489621489621489,-2.1526251526251525,1.09375,0.0,0.0,0.7057387057387058,-1.7374847374847375,-3.067155067155068,0.5625,0.0,0.0,1.3467643467643469,-0.5213675213675214,-3.05982905982906,0.0,0.0,0.0,-0.6471306471306472,0.0,-3.7118437118437115,0.0,0.0,0.0,-1.0122100122100122,0.0,-4.686202686202686,0.5625,0.0,0.0,0.8217338217338217,-1.122100122100122,-4.317460317460317,0.0,0.0,0.0,1.5274725274725274,0.0,-3.870573870573871,0.0,0.0,0.0,0.0,1.1538461538461535,-3.8937728937728937,0.625,0.0,0.0,-0.934065934065934,0.7704517704517705,-3.9462759462759465,0.96875,0.0,0.0,0.0,-0.9035409035409036,-4.3748473748473735,0.8125,0.0,0.0,1.8632478632478635,-1.2967032967032968,-5.063492063492063,0.0,0.0,0.0,1.2295482295482296,-0.6117216117216118,-4.763125763125763,0.0,0.0,0.0,-1.0634920634920637,0.0,-3.855921855921856,0.0,0.0,0.0,-0.8827838827838828,0.7667887667887668,-2.9633699633699635,0.53125,0.0,0.0,,,,,,,,,,,,,,,,,,,,,,,,,,,,,,,,,,,,,,,,,,,,,,,,,,,,,,,movNegZ
accX,0.0,0.0,2.413919413919414,0.0,0.0,0.0,0.6031746031746031,-1.4285714285714286,1.5775335775335777,0.0,0.0,0.0,0.0,-0.9426129426129426,1.5897435897435896,0.0,0.0,0.0,0.0,-0.568986568986569,1.709401709401709,0.0,0.0,0.0,0.0,0.0,1.4993894993894994,-0.71875,0.0,0.0,0.0,0.0,2.7985347985347984,-0.5625,0.0,0.0,0.0,-0.8473748473748474,2.8547008547008548,0.0,0.0,0.0,0.0,-1.3186813186813189,2.8253968253968256,0.0,0.0,0.0,0.0,-1.1782661782661783,3.101343101343101,0.0,0.0,0.0,0.0,-1.537240537240537,2.971916971916972,0.0,0.0,0.0,0.0,-1.525030525030525,2.6178266178266183,0.0,0.0,0.0,0.0,-0.9975579975579976,3.095238095238096,0.0,0.0,0.0,1.326007326007326,-1.192918192918193,3.7655677655677655,0.0,0.0,0.0,0.0,-1.2783882783882785,3.6666666666666665,0.0,-0.5625,0.0,-1.728937728937729,-0.7875457875457875,2.758241758241758,0.625,0.0,0.0,-0.8974358974358975,-0.6031746031746031,1.9523809523809523,0.75,0.65625,0.0,0.0,0.0,2.4884004884004884,0.71875,0.0,0.0,-0.9975579975579976,0.0,2.2332112332112333,0.8125,0.0,0.0,-2.1709401709401708,-0.6239316239316239,1.10989010989011,0.90625,0.0,0.0,-1.3150183150183148,-1.2417582417582418,0.0,0.96875,0.625,0.0,0.0,-1.376068376068376,0.8791208791208791,0.75,0.8125,0.0,0.0,-0.6288156288156288,1.7594627594627594,0.84375,0.0,0.0,0.0,0.0,0.6324786324786325,1.1875,0.5625,0.0,0.0,-1.3797313797313795,-0.9536019536019535,1.03125,0.8125,0.0,0.0,-1.2918192918192921,-1.5128205128205128,0.53125,0.0,0.0,0.0,0.0,-0.6862026862026862,0.59375,0.0,0.0,1.5299145299145298,0.0,-0.7704517704517705,0.90625,0.0,0.0,1.2405372405372406,-0.7704517704517705,-2.498168498168498,0.53125,0.0,0.0,-2.1855921855921854,0.557997557997558,-3.653235653235653,0.0,-0.59375,0.0,-1.968253968253968,0.7264957264957265,-3.0012210012210017,0.0,0.0,0.0,0.6862026862026862,0.0,-2.642246642246642,0.0,0.0,0.0,0.5347985347985348,0.0,-3.632478632478633,0.0,0.0,0.5625,0.0,0.0,-4.247863247863248,0.5625,0.0,0.0,0.5470085470085471,0.0,-4.1611721611721615,0.625,0.53125,0.0,2.496947496947497,-0.8632478632478633,-4.003663003663004,0.0,0.0,0.0,1.7545787545787546,0.0,-3.6910866910866913,0.0,0.0,0.0,-1.1782661782661783,0.7387057387057387,-3.3345543345543347,0.0,0.0,0.0,-2.418803418803418,0.8498168498168498,-3.980463980463981,0.625,0.0,0.0,0.0,0.0,-3.948717948717949,0.0,0.0,0.0,0.8803418803418803,0.0,-3.2869352869352872,0.0,0.0,0.0,-0.873015873015873,0.0,-2.84004884004884,0.0,0.0,0.0,,,,,,,,,,,,,,,,,,,,,,,,,,,,,,,,,,,,,,,,,,,,,,,,,,,,,,,movNegZ
accX,0.0,-1.0134310134310134,0.9218559218559218,-0.6875,0.0,0.0,0.0,-0.6715506715506715,1.8998778998779,0.0,0.0,0.0,0.0,-0.8571428571428571,2.389499389499389,0.0,0.0,0.0,0.0,-1.21978021978022,1.8461538461538465,0.0,0.0,0.0,0.0,-1.2173382173382172,1.5494505494505495,-0.8125,0.0,0.0,0.0,-0.7228327228327228,2.283272283272283,-0.84375,0.0,0.0,0.0,-0.5152625152625152,2.8705738705738706,0.0,0.0,0.0,-0.7374847374847375,-0.8595848595848596,2.4542124542124544,0.0,0.0,0.0,0.0,-1.6605616605616609,1.9304029304029304,0.0,0.0,0.0,0.0,-1.8888888888888888,2.1855921855921854,0.0,0.0,0.0,-0.5921855921855922,-1.0622710622710625,3.240537240537241,0.0,0.0,0.0,0.0,-1.3076923076923077,3.7496947496947497,0.0,0.0,0.0,1.3724053724053724,-1.9352869352869355,3.971916971916972,0.0,-0.8125,0.0,-0.5103785103785103,-1.2698412698412698,2.7240537240537246,0.0,0.0,0.0,-0.5262515262515263,-1.037851037851038,2.9536019536019538,0.0,0.0,0.0,0.0,-1.57997557997558,3.604395604395605,0.6875,0.0,0.0,0.0,-1.2515262515262515,3.31990231990232,0.71875,0.0,0.0,0.0,-0.8888888888888888,2.240537240537241,0.71875,0.0,0.0,0.0,0.0,2.56043956043956,0.8125,0.0,0.0,0.0,0.0,3.3174603174603177,1.25,0.59375,0.0,0.0,-1.3785103785103785,1.8205128205128205,1.59375,0.0,0.0,0.0,-1.9267399267399268,0.0,1.15625,0.0,0.0,-0.6227106227106227,0.0,1.3052503052503053,0.65625,0.0,0.0,0.0,0.0,2.3907203907203907,1.34375,0.625,0.0,0.7057387057387058,-1.1709401709401708,0.5787545787545788,2.0,0.78125,0.0,0.6166056166056166,-2.6581196581196584,-1.4395604395604396,1.46875,0.0,0.0,-0.5860805860805861,-1.7326007326007329,-2.293040293040293,0.65625,0.0,0.0,0.0,-0.9914529914529916,-2.9084249084249083,0.65625,0.0,0.0,1.1831501831501832,-1.9902319902319905,-3.664224664224663,0.96875,0.53125,0.0,0.0,-1.709401709401709,-4.151404151404152,0.59375,0.0,0.0,-0.6678876678876678,0.0,-4.488400488400488,0.0,0.0,0.0,2.68986568986569,-2.1623931623931623,-5.2967032967032965,0.0,0.0,0.0,0.6031746031746031,-0.6739926739926739,-4.676434676434677,-0.78125,-0.5625,0.0,-4.299145299145299,2.915750915750916,-2.8522588522588523,0.0,0.0,0.0,-1.7496947496947497,1.3064713064713065,-2.8253968253968256,1.0,1.3125,0.0,2.873015873015873,-0.9755799755799756,-3.642246642246642,0.96875,0.84375,0.59375,0.6776556776556777,-0.9047619047619048,-5.0866910866910855,0.0,-0.5625,0.0,-1.3406593406593406,0.503052503052503,-4.7374847374847375,0.0,0.0,0.0,-0.6019536019536019,0.6727716727716728,-3.2283272283272284,0.625,0.0,0.0,0.0,0.0,-3.021978021978022,0.0,0.0,0.0,1.1428571428571428,-0.851037851037851,-2.9230769230769234,0.0,-0.53125,0.0,,,,,,,,,,,,,,,,,,,,,,,,,,,,,,,,,,,,,,,,,,,,,,,,,,,,,,,movNegZ
accX,0.0,0.0,2.844932844932845,0.0,0.0,0.0,0.5482295482295483,-1.4090354090354091,2.934065934065934,0.0,0.0,0.0,0.0,-1.7875457875457876,1.752136752136752,0.0,0.0,0.0,0.0,-1.4285714285714286,1.1978021978021978,-0.5625,0.0,0.0,-0.7997557997557998,0.0,1.9658119658119655,-0.65625,0.0,0.0,-0.6153846153846154,0.0,3.065934065934066,0.0,0.0,0.0,0.0,-0.8815628815628815,2.7948717948717947,0.0,0.0,0.0,0.0,-2.095238095238096,2.42002442002442,0.0,0.0,0.0,0.0,-1.5836385836385836,2.7924297924297923,0.0,0.0,0.0,0.0,0.0,3.3724053724053724,0.0,0.0,0.0,0.0,-0.6056166056166056,2.2588522588522593,0.0,0.0,0.0,0.0,-1.7741147741147743,1.912087912087912,0.0,0.0,0.0,0.0,-1.9352869352869355,2.56043956043956,0.0,0.0,0.0,0.0,-0.9682539682539684,2.954822954822955,0.0,0.0,0.0,0.0,-0.5885225885225885,2.7448107448107453,0.71875,0.0,0.0,-0.5103785103785103,-0.6410256410256411,2.578754578754579,0.9375,0.0,0.0,0.0,-1.3748473748473748,2.7997557997558,0.78125,0.0,0.0,0.8131868131868132,-1.4322344322344325,3.2527472527472527,0.625,0.0,0.0,0.0,-1.0463980463980465,2.8632478632478637,0.75,0.0,0.0,-1.123321123321123,-0.851037851037851,1.8571428571428568,1.03125,0.0,0.0,-1.3492063492063493,-0.5494505494505495,1.3443223443223444,1.25,0.6875,0.0,0.0,-0.873015873015873,0.818070818070818,1.125,0.6875,0.0,0.0,-0.7619047619047619,0.0,1.03125,0.0,0.0,0.5641025641025641,-2.5286935286935286,-0.7289377289377289,1.03125,0.0,0.0,1.68009768009768,-2.2625152625152625,-1.3736263736263736,0.75,0.625,0.0,0.9755799755799756,0.0,-1.1733821733821734,0.59375,0.0,0.0,-1.2881562881562882,0.0,-1.5421245421245422,1.0,0.0,0.0,-0.8644688644688645,-1.4065934065934067,-2.888888888888889,1.15625,0.0,0.0,1.0293040293040292,-2.357753357753358,-3.7020757020757022,0.65625,0.5625,0.0,1.0964590964590966,-0.6129426129426129,-3.235653235653236,0.0,0.0,0.0,-1.0952380952380951,0.989010989010989,-3.1514041514041518,0.5625,0.0,0.0,-2.3675213675213675,0.8791208791208791,-4.289377289377289,0.96875,0.0,0.0,0.0,-0.9194139194139194,-4.452991452991453,0.75,1.0625,0.0,3.5372405372405376,-1.6459096459096458,-4.0085470085470085,0.0,0.65625,0.0,0.0,0.9072039072039072,-3.5836385836385842,0.0,0.0,0.0,-2.010989010989011,0.9621489621489622,-4.0256410256410255,0.75,0.0,0.0,0.0,-1.1062271062271063,-4.5177045177045185,1.09375,0.78125,0.0,1.3467643467643469,-1.1916971916971917,-4.459096459096459,0.0,0.0,0.0,-1.0134310134310134,0.0,-3.971916971916972,0.0,0.0,0.0,-1.4871794871794872,0.5091575091575091,-3.1697191697191696,0.0,0.0,0.0,0.0,0.0,-2.5103785103785103,0.0,0.0,0.0,0.5409035409035409,-1.0427350427350428,-2.42002442002442,0.0,0.0,0.0,,,,,,,,,,,,,,,,,,,,,,,,,,,,,,,,,,,,,,,,,,,,,,,,,movNegZ
accX,0.0,-1.1172161172161172,2.028083028083028,-0.6875,0.0,0.0,0.0,-1.4285714285714286,2.2600732600732596,-0.53125,0.0,0.0,0.0,-0.9279609279609279,2.36019536019536,0.0,0.0,0.0,0.0,-1.1135531135531136,1.948717948717949,0.0,0.0,0.0,0.7387057387057387,-1.21001221001221,2.023199023199023,0.0,0.0,0.0,0.0,-0.818070818070818,2.6300366300366296,0.0,0.0,0.0,-0.8498168498168498,0.0,2.57997557997558,0.0,0.0,0.0,0.0,-0.6666666666666666,2.6056166056166057,0.0,0.0,0.0,0.0,-1.247863247863248,2.352869352869353,0.0,0.0,0.0,0.0,-1.7887667887667889,2.2722832722832718,0.0,0.0,0.0,0.0,-1.2722832722832722,2.6507936507936507,0.0,0.0,0.0,-0.5873015873015873,0.0,2.8302808302808304,0.0,0.0,0.0,0.0,-1.1452991452991452,2.7338217338217334,0.0,0.0,0.0,0.0,-1.2673992673992671,2.5689865689865687,0.0,0.0,0.0,0.0,-0.6959706959706959,2.9914529914529915,0.0,0.0,0.0,0.0,-0.6092796092796092,2.7326007326007327,0.53125,0.0,0.0,0.0,-1.1721611721611722,1.7118437118437118,0.0,0.0,0.0,-1.2002442002442002,-1.1184371184371185,1.5811965811965811,0.59375,0.0,0.0,-0.8302808302808303,-0.912087912087912,2.5873015873015874,0.96875,0.6875,0.0,0.7423687423687424,-1.1001221001221002,2.238095238095238,1.03125,0.59375,0.0,0.8424908424908425,-1.1978021978021978,1.2686202686202686,0.6875,0.0,0.0,-0.5445665445665445,-0.8327228327228328,1.1489621489621489,0.6875,0.0,0.0,-0.9291819291819292,-0.8669108669108669,1.8205128205128205,1.15625,0.75,0.0,0.536019536019536,-0.9584859584859584,1.1697191697191698,1.40625,0.90625,0.0,0.6910866910866911,-0.7924297924297924,0.0,1.1875,0.0,0.0,0.0,0.0,0.0,0.90625,0.0,0.0,-1.1355311355311355,0.0,0.0,1.0,0.0,0.0,0.5286935286935287,-1.21001221001221,0.0,1.15625,0.625,0.0,1.4212454212454213,-1.4713064713064714,0.0,1.09375,0.0,0.0,0.0,-1.1013431013431014,-0.8791208791208791,0.9375,0.0,0.0,-0.8852258852258852,-0.8083028083028083,-2.1355311355311355,0.6875,0.0,0.0,0.0,-0.5299145299145299,-2.6727716727716726,0.0,0.0,0.0,0.5616605616605617,0.0,-2.240537240537241,0.0,0.0,0.0,0.0,0.0,-1.8925518925518925,0.0,0.0,0.0,-0.5738705738705738,0.0,-2.4713064713064714,0.0,0.0,0.0,0.0,0.0,-3.2442002442002438,0.0,0.0,0.0,-0.9853479853479854,0.8363858363858364,-2.7924297924297923,0.0,0.0,0.0,-1.6312576312576312,0.5604395604395604,-3.025641025641025,0.96875,0.0,0.0,0.0,-0.8547008547008547,-3.971916971916972,0.5625,0.0,0.0,-0.7863247863247863,0.0,-3.189255189255189,0.0,0.0,0.0,0.0,0.0,-3.0427350427350426,0.65625,0.0,0.0,0.7814407814407814,-0.5006105006105006,-2.7887667887667886,0.71875,0.0,0.0,0.0,-0.8058608058608059,-3.1880341880341883,0.0,0.0,0.0,-1.021978021978022,0.0,-2.9462759462759465,0.0,0.0,0.0,0.0,0.0,-2.4420024420024418,0.0,0.0,0.0,0.0,0.0,-1.9047619047619049,0.0,0.0,0.0,0.0,0.0,-2.1367521367521367,0.0,0.0,0.0,,,,,,,,,,,,,,,,,,,movNegZ
accX,0.7704517704517705,-1.2673992673992671,2.6336996336996337,0.0,0.0,0.0,0.0,-1.21978021978022,2.5702075702075704,-0.84375,0.0,0.0,0.0,0.0,3.1562881562881566,-0.71875,0.0,0.0,-0.6068376068376068,0.0,3.361416361416361,0.0,0.0,0.0,0.0,-0.5995115995115995,2.705738705738706,0.0,0.0,0.0,0.0,-1.0866910866910866,1.6324786324786325,0.0,0.0,0.0,0.0,-1.0244200244200243,1.3846153846153846,0.0,0.0,0.0,0.0,-0.8315018315018315,2.3736263736263736,-0.65625,0.0,0.0,0.0,-0.8376068376068376,2.95970695970696,0.0,0.0,0.0,0.0,-0.6800976800976801,2.6910866910866917,0.0,0.0,0.0,0.0,-0.9426129426129426,2.0805860805860807,0.0,0.0,0.0,-0.8302808302808303,-0.9755799755799756,1.9963369963369964,0.0,0.0,0.0,-1.4078144078144081,-0.7582417582417582,2.483516483516484,0.0,0.0,0.0,-0.5054945054945055,-0.7191697191697192,3.0158730158730163,0.53125,0.53125,0.0,0.6275946275946276,-1.188034188034188,2.5213675213675213,0.6875,0.5625,0.0,0.0,-1.0622710622710625,2.1880341880341883,0.0,0.0,0.0,-0.8974358974358975,-0.5103785103785103,2.496947496947497,0.0,0.0,0.0,0.0,-0.8656898656898657,2.656898656898657,0.75,0.0,0.0,0.0,-0.9877899877899878,2.1404151404151404,0.8125,0.0,0.0,-0.7374847374847375,-0.5824175824175825,1.5262515262515262,0.875,0.0,0.0,-1.2503052503052503,-0.7777777777777778,1.0769230769230769,1.0,0.0,0.0,0.0,-1.3565323565323566,0.7619047619047619,0.625,0.0,0.0,0.0,-0.8534798534798534,0.503052503052503,0.53125,0.0,0.0,-1.6947496947496947,0.0,0.8778998778998779,1.09375,0.53125,0.0,0.0,-0.6800976800976801,1.4078144078144081,1.4375,1.03125,0.0,1.95970695970696,-1.9548229548229548,0.6385836385836385,0.96875,0.0,0.0,0.0,-1.2442002442002442,-0.6507936507936508,0.65625,0.0,0.0,-1.2832722832722834,0.0,-1.1062271062271063,1.125,0.0,0.0,0.0,-0.5274725274725275,-1.4029304029304028,1.5,0.59375,0.0,1.7875457875457876,-1.9792429792429795,-2.3455433455433456,1.0,0.0,0.0,0.851037851037851,-1.3931623931623929,-2.63980463980464,0.0,0.0,0.0,-1.0854700854700854,0.0,-2.485958485958486,0.5625,0.0,0.0,-0.6849816849816851,0.0,-2.1782661782661785,0.9375,0.0,0.0,0.7973137973137974,-1.1013431013431014,-2.523809523809524,0.71875,0.0,0.0,1.2857142857142858,-1.3504273504273503,-2.399267399267399,0.0,0.0,0.0,0.0,-0.5824175824175825,-2.2967032967032965,0.0,0.0,0.0,0.0,0.0,-2.445665445665446,0.53125,0.0,0.0,0.0,-0.5665445665445665,-2.621489621489621,0.0,0.0,0.0,0.0,0.0,-2.9401709401709404,0.0,0.0,0.0,0.0,0.0,-2.9438339438339436,0.53125,0.0,0.0,0.0,0.0,-3.1562881562881566,0.71875,0.0,0.0,0.0,-0.5421245421245421,-3.622710622710623,0.5625,0.0,0.0,-0.5323565323565324,-0.6031746031746031,-3.4664224664224665,0.0,0.0,0.0,0.0,0.0,-2.717948717948718,0.0,0.0,0.0,0.0,0.0,-2.2026862026862033,0.0,0.0,0.0,0.0,0.0,-2.207570207570208,0.0,0.0,0.0,,,,,,,,,,,,,,,,,,,,,,,,,movNegZ
accX,0.0,0.0,2.4945054945054945,0.0,0.0,0.0,0.6764346764346765,-1.061050061050061,1.7851037851037852,-0.71875,0.0,0.0,0.0,-0.5763125763125763,1.9474969474969477,-0.84375,0.0,0.0,0.0,0.0,3.207570207570208,0.0,0.0,0.0,0.0,0.0,3.2148962148962146,0.0,0.0,0.0,0.0,-1.2832722832722834,1.809523809523809,0.0,0.0,0.0,0.0,-0.9365079365079364,2.0818070818070815,0.0,0.0,0.0,0.0,-0.6947496947496947,2.5213675213675213,0.0,0.0,0.0,0.0,-1.133089133089133,1.9951159951159951,0.0,0.0,0.0,0.0,-1.5177045177045176,1.5262515262515262,0.0,0.0,0.0,0.0,-0.971916971916972,1.8412698412698407,0.0,0.0,0.0,0.0,0.0,2.0427350427350426,0.0,0.0,0.0,-1.431013431013431,0.0,1.8620268620268619,0.0,0.0,0.0,-0.8742368742368742,-0.7228327228327228,1.7594627594627594,0.65625,0.5625,0.0,0.7582417582417582,-1.7264957264957266,1.7252747252747254,0.65625,0.0,0.0,0.0,-1.4615384615384617,1.8339438339438336,0.0,0.0,0.0,-0.8681318681318682,-0.6971916971916972,1.975579975579976,0.0,0.0,0.0,-1.072039072039072,0.0,1.9719169719169718,0.0,0.0,0.0,0.0,-1.338217338217338,1.800976800976801,0.90625,0.71875,0.0,-0.5567765567765568,-1.2039072039072038,1.661782661782662,0.78125,0.0,0.0,0.0,-0.6507936507936508,2.0573870573870567,0.59375,0.0,0.0,0.0,0.0,1.8937728937728937,0.0,0.59375,0.0,0.0,0.0,1.376068376068376,0.71875,0.0,0.0,-1.1025641025641026,-0.6031746031746031,0.6288156288156288,0.96875,0.0,0.0,-0.8498168498168498,-0.9987789987789988,0.5177045177045178,0.90625,0.0,0.0,0.0,-0.811965811965812,0.7863247863247863,0.78125,0.59375,0.0,0.0,0.0,0.7643467643467643,0.875,0.0,0.0,0.0,0.0,0.8656898656898657,1.21875,0.71875,0.0,1.155067155067155,-1.271062271062271,-0.5677655677655677,1.21875,0.65625,0.625,0.7277167277167277,-0.7411477411477412,-2.3003663003662997,0.53125,0.0,0.59375,-0.5152625152625152,0.0,-2.072039072039072,0.59375,0.0,0.5625,0.0,0.0,-0.7252747252747253,0.9375,0.75,0.0,1.85958485958486,-1.4468864468864469,-1.0622710622710625,0.8125,0.0,0.0,1.3174603174603174,-0.706959706959707,-2.505494505494505,0.0,-0.6875,0.0,-2.525030525030525,1.3076923076923077,-3.2332112332112333,0.53125,0.0,0.0,-2.8302808302808304,0.8327228327228328,-3.1660561660561664,1.0625,0.9375,0.0,1.9145299145299144,-1.7118437118437118,-3.7472527472527473,0.59375,0.0,0.59375,2.58974358974359,-2.0695970695970702,-3.9291819291819285,0.0,-1.25,0.0,-0.7680097680097681,0.0,-3.688644688644689,0.0,0.0,0.0,-1.3052503052503053,0.0,-3.211233211233212,1.1875,0.78125,0.0,1.4432234432234432,-1.3492063492063493,-4.174603174603175,0.90625,0.0,0.0,1.6752136752136753,-1.3956043956043955,-4.744810744810745,0.0,-0.625,0.0,-0.8656898656898657,-0.503052503052503,-4.9230769230769225,0.0,0.0,0.0,,,,,,,,,,,,,,,,,,,,,,,,,,,,,,,,,,,,,,,,,,,movNegZ
accX,0.0,0.0,3.0854700854700856,0.0,0.0,0.0,0.5274725274725275,-0.9389499389499391,2.9328449328449326,0.0,0.0,0.0,0.0,-2.015873015873016,1.7277167277167278,0.0,0.0,0.0,-0.8840048840048841,-1.1587301587301588,1.757020757020757,-0.625,0.0,0.0,-1.1721611721611722,0.0,2.681318681318681,0.0,0.875,0.0,0.9621489621489622,-0.6764346764346765,2.7753357753357752,0.0,0.0,0.0,1.3418803418803418,-2.0769230769230766,1.5531135531135531,0.0,-0.5625,0.0,-0.6495726495726496,-1.5396825396825398,0.8595848595848596,0.0,0.0,0.0,-0.811965811965812,-0.6593406593406593,1.442002442002442,0.0,0.0,0.0,0.0,-1.1807081807081807,2.0195360195360195,0.0,0.0,0.0,0.6178266178266179,-1.4456654456654456,2.399267399267399,0.0,0.0,0.0,0.0,-0.7875457875457875,2.457875457875458,0.0,0.0,0.0,0.0,-0.6556776556776557,2.376068376068376,0.0,0.0,0.0,-0.8864468864468864,-0.8376068376068376,2.1623931623931623,0.0,0.0,0.0,-1.2026862026862026,-0.8144078144078144,2.1343101343101343,0.0,0.0,0.0,0.0,0.0,2.6483516483516483,0.78125,0.0,0.0,-0.5311355311355311,-1.2466422466422469,1.6422466422466422,0.6875,0.0,0.0,-1.1855921855921856,-1.706959706959707,0.7802197802197802,0.65625,0.0,0.0,0.0,-1.3479853479853479,1.264957264957265,0.78125,0.75,0.0,0.9023199023199024,-1.3284493284493284,1.4395604395604396,0.90625,0.0,0.0,0.0,-1.0561660561660562,0.9108669108669109,0.9375,0.0,0.0,-1.122100122100122,-1.4725274725274726,0.0,1.03125,0.0,0.0,0.0,-1.3223443223443223,0.0,1.15625,0.78125,0.0,2.879120879120879,-2.1343101343101343,0.0,1.03125,0.0,0.5625,1.7484737484737485,-1.656898656898657,0.0,0.65625,-0.71875,0.0,-1.1025641025641026,-0.8058608058608059,0.0,0.875,-0.6875,0.0,-1.7594627594627594,0.0,-0.7179487179487181,1.625,0.0,0.0,0.0,-1.0293040293040292,-1.9719169719169718,1.8125,0.90625,0.0,0.8290598290598291,-1.0805860805860803,-2.354090354090354,1.09375,0.0,0.0,-0.5811965811965812,0.0,-1.8229548229548234,0.59375,0.0,0.0,-0.8754578754578755,0.0,-1.3846153846153846,0.84375,0.0,0.0,0.993894993894994,-1.5787545787545787,-1.7326007326007329,1.125,0.625,0.0,1.9938949938949944,-1.9096459096459095,-2.509157509157509,0.96875,0.0,0.0,0.8400488400488401,-1.2576312576312576,-2.879120879120879,0.625,0.0,0.0,-1.42002442002442,0.0,-3.1978021978021984,0.625,0.0,0.0,-1.4065934065934067,0.0,-3.43956043956044,0.8125,0.0,0.0,0.0,-1.0305250305250304,-3.0805860805860807,0.59375,0.0,0.0,1.043956043956044,-1.1391941391941391,-2.590964590964591,0.0,0.0,0.0,0.0,0.0,-2.8217338217338215,0.0,0.0,0.0,-1.5128205128205128,0.5396825396825397,-3.505494505494505,0.65625,0.0,0.0,0.0,-0.63003663003663,-4.010989010989012,0.0,0.0,0.0,1.3235653235653235,-1.286935286935287,-3.710622710622711,0.0,0.0,0.0,0.0,0.0,-2.6434676434676434,0.0,-0.65625,0.0,-1.3797313797313795,0.0,-2.796092796092796,0.0,0.0,0.0,-0.8827838827838828,0.0,-2.9230769230769234,0.0,0.0,0.0,0.0,0.0,-3.025641025641025,0.0,0.0,0.0,0.0,-0.6373626373626373,-3.3382173382173383,0.0,0.0,0.0,0.0,0.0,-3.1660561660561664,0.0,0.0,0.0,,,,,,,,,,,,,movNegZ
accX,0.0,0.0,3.293040293040293,0.0,0.0,0.0,0.0,0.0,2.2783882783882783,0.0,0.0,0.0,-0.9218559218559218,-1.15995115995116,0.7557997557997558,0.0,0.0,0.0,-0.6092796092796092,-0.5873015873015873,0.7838827838827839,0.0,0.0,0.0,0.0,-0.7313797313797313,1.5775335775335777,0.0,0.0,0.0,0.0,0.0,2.031746031746032,0.0,0.0,0.0,0.0,-0.8608058608058609,2.383394383394384,0.0,0.0,0.0,0.0,-1.4126984126984128,2.6483516483516483,0.0,0.0,0.0,0.0,-1.4896214896214897,2.7203907203907205,0.0,0.0,0.0,0.0,-0.7045177045177046,3.5726495726495733,0.0,0.0,0.0,0.0,-0.8034188034188035,3.622710622710623,0.0,0.0,0.0,0.0,-1.2893772893772897,2.9926739926739927,0.0,0.0,0.0,0.0,-1.5604395604395604,2.8522588522588523,0.0,0.0,0.0,0.0,-1.0329670329670328,3.5006105006105006,0.59375,0.0,0.0,0.0,-1.2393162393162394,3.6910866910866913,0.8125,0.0,0.0,0.0,-1.3345543345543345,3.068376068376069,0.8125,0.0,0.0,-1.2722832722832722,-1.5433455433455434,2.1684981684981683,0.8125,0.0,0.0,-1.3772893772893773,-0.8107448107448108,2.2564102564102564,1.25,0.71875,0.0,0.0,-1.0402930402930404,2.6349206349206344,1.5625,0.625,0.0,0.0,-1.2148962148962148,2.0695970695970702,1.59375,0.0,0.0,-0.5470085470085471,-1.7667887667887667,0.0,1.0,0.53125,0.0,0.6837606837606838,-1.15995115995116,0.0,0.84375,0.0,0.0,0.0,-0.9474969474969476,0.0,1.15625,0.0,0.0,-0.94993894993895,-1.352869352869353,-2.2783882783882783,1.5625,0.0,0.0,0.0,-2.388278388278388,-3.9645909645909647,1.5,0.8125,0.0,1.8620268620268619,-2.457875457875458,-3.2002442002442004,0.90625,0.53125,0.0,1.332112332112332,-1.4444444444444444,-1.945054945054945,0.75,0.0,0.0,-1.1306471306471306,0.0,-3.0891330891330893,0.96875,0.0,0.0,-1.293040293040293,-0.8534798534798534,-4.111111111111111,1.125,0.0,0.0,1.5592185592185592,-2.1074481074481075,-3.7887667887667886,0.75,0.0,0.0,0.6190476190476191,-0.8192918192918193,-3.1330891330891335,0.0,-0.59375,0.0,-1.4163614163614164,0.0,-3.4249084249084247,0.0,0.0,0.0,-1.0012210012210012,0.0,-3.8962148962148966,0.75,0.0,0.0,1.2515262515262515,-1.9951159951159951,-3.9938949938949935,0.6875,0.0,0.0,0.7521367521367521,-1.3724053724053724,-3.617826617826618,0.0,-0.71875,0.0,-1.9719169719169718,0.6532356532356532,-3.11965811965812,0.0,-0.625,0.0,-2.137973137973138,0.6544566544566545,-2.525030525030525,0.0,0.0,0.0,0.0,-0.8070818070818071,-2.6056166056166057,0.53125,0.0,0.0,1.3748473748473748,-1.1294261294261294,-2.073260073260073,0.0,0.0,0.0,0.0,0.0,-1.4908424908424909,0.0,0.0,0.0,-1.1514041514041513,0.6984126984126984,-1.2515262515262515,0.0,0.0,0.0,0.0,0.0,-1.5518925518925517,0.0,0.0,0.0,0.5811965811965812,-1.2637362637362637,-2.323565323565324,0.0,0.0,0.0,,,,,,,,,,,,,,,,,,,,,,,,,,,,,,,,,,,,,,,,,,,movNegZ
accX,-0.6862026862026862,0.0,1.978021978021978,0.0,0.0,0.0,-0.6336996336996337,0.0,2.4053724053724053,0.0,0.0,0.0,0.0,-0.8656898656898657,1.4786324786324787,0.0,0.0,0.0,0.0,-1.1636141636141637,1.6056166056166057,0.0,0.0,0.0,0.0,-1.0134310134310134,1.982905982905983,0.0,0.0,0.0,0.0,-0.8498168498168498,2.091575091575092,0.0,0.0,0.0,0.0,-1.3797313797313795,1.5128205128205128,0.0,0.0,0.0,0.0,-1.8217338217338217,1.326007326007326,0.0,0.0,0.0,0.0,-1.912087912087912,1.647130647130647,0.0,0.0,0.0,0.0,-1.2014652014652014,2.0146520146520146,0.0,0.0,0.0,0.0,-0.5042735042735043,2.6935286935286937,0.0,0.0,0.0,0.0,0.0,2.9914529914529915,0.5625,0.0,0.0,0.0,-1.2112332112332111,2.4993894993894994,0.0,0.0,0.0,0.0,-1.5189255189255189,2.23931623931624,0.0,0.0,0.0,0.0,-0.9816849816849816,2.4053724053724053,0.0,0.0,0.0,0.0,0.0,2.94993894993895,0.0,0.0,0.0,-0.8168498168498168,-0.6312576312576312,2.619047619047619,0.84375,0.0,0.0,-1.3333333333333333,-0.984126984126984,1.8168498168498168,1.0,0.0,0.0,0.0,-1.0354090354090355,0.8070818070818071,0.90625,0.0,0.0,0.6813186813186813,-0.6129426129426129,0.7252747252747253,0.84375,0.0,0.0,-0.7228327228327228,0.0,0.7130647130647131,1.09375,0.0,0.0,-1.271062271062271,-0.6605616605616605,0.0,1.34375,0.0,0.0,0.0,-1.2796092796092795,-0.8205128205128205,1.15625,0.0,0.0,0.0,-0.7264957264957265,-1.3394383394383391,1.0625,0.0,0.0,-1.3675213675213675,-0.9401709401709402,-2.063492063492064,1.09375,0.0,0.0,-1.1452991452991452,-1.4371184371184371,-1.7594627594627594,1.09375,1.1875,0.0,1.9230769230769231,-1.7313797313797314,-0.8009768009768009,0.0,0.0,0.0,0.5238095238095238,-0.5873015873015873,-1.321123321123321,0.0,-1.78125,0.0,-3.7289377289377286,0.0,-2.774114774114774,0.0,-1.125,0.0,-2.1904761904761907,0.0,-2.7081807081807083,1.21875,0.875,0.0,1.2686202686202686,-1.6349206349206349,-2.3565323565323566,1.25,1.46875,0.0,2.3907203907203907,-2.1416361416361416,-2.1782661782661785,0.0,0.0,0.0,0.0,-0.7216117216117216,-2.2344322344322345,0.0,-0.71875,0.0,-1.7326007326007329,0.6068376068376068,-1.724053724053724,0.0,0.0,0.0,0.0,0.0,-1.3357753357753357,0.75,0.59375,0.0,0.8791208791208791,0.0,-1.948717948717949,0.8125,0.59375,0.0,0.0,0.0,-2.498168498168498,0.59375,0.0,0.0,0.0,0.0,-2.52014652014652,0.0,0.0,0.0,0.0,0.0,-1.6166056166056166,0.53125,0.0,0.0,0.0,-0.6422466422466423,-1.6019536019536018,0.59375,0.0,0.0,0.0,0.0,-1.9731379731379728,0.0,0.0,0.0,-0.5177045177045178,0.0,-2.0244200244200243,0.0,0.0,0.0,-0.5152625152625152,0.0,-1.824175824175824,0.0,0.0,0.0,0.0,-0.6556776556776557,-2.1648351648351647,0.0,0.0,0.0,0.0,-0.8046398046398047,-2.411477411477412,0.0,0.0,0.0,0.0,-0.7411477411477412,-2.3687423687423688,0.0,0.0,0.0,,,,,,,,,,,,,,,,,,,,,,,,,movNegZ
accX,0.0,-1.31990231990232,1.5482295482295485,0.0,0.0,0.0,0.0,-0.6007326007326007,0.984126984126984,-0.59375,0.0,0.0,0.0,0.0,2.385836385836386,-0.65625,0.0,0.0,0.0,0.0,3.0268620268620268,0.0,0.0,0.0,0.0,-0.5641025641025641,2.23931623931624,0.0,0.0,0.0,-0.5433455433455433,-0.993894993894994,1.2466422466422469,0.0,0.0,0.0,-1.0891330891330893,-0.6886446886446886,0.9487179487179488,0.0,0.0,0.0,0.0,-0.6544566544566545,2.225885225885226,0.0,0.0,0.0,0.0,-1.0805860805860803,2.9169719169719173,0.0,0.0,0.0,0.0,-1.586080586080586,2.4737484737484743,0.0,0.0,0.0,-0.8583638583638583,-0.9267399267399268,2.4249084249084247,0.0,0.0,0.0,0.0,-1.0757020757020757,2.477411477411477,0.0,0.0,0.0,0.8742368742368742,-1.4285714285714286,3.0183150183150182,0.0,0.0,0.0,0.0,-1.3015873015873016,3.073260073260073,0.0,0.0,0.0,-0.8302808302808303,0.0,2.9511599511599518,0.0,0.0,0.0,-0.8058608058608059,0.0,3.06959706959707,0.84375,0.0,0.0,0.0,-1.1819291819291822,2.7496947496947497,0.65625,0.0,0.0,0.0,-1.0293040293040292,2.884004884004884,0.0,0.0,0.0,-1.120879120879121,0.0,2.1782661782661785,0.78125,0.0,0.0,-1.1672771672771671,0.0,1.7008547008547008,1.09375,0.65625,0.0,0.0,-1.3540903540903542,1.6678876678876684,0.90625,0.0,0.0,0.0,-0.778998778998779,0.7509157509157509,0.8125,-0.53125,0.0,0.0,-0.525030525030525,-0.6642246642246642,0.625,-0.65625,0.0,0.0,0.0,0.0,0.59375,0.0,0.0,0.0,-0.5848595848595849,0.7301587301587301,0.96875,0.0,0.0,1.1623931623931625,-1.3833943833943834,0.0,1.34375,0.0,0.0,1.3699633699633702,-2.051282051282051,-1.9096459096459095,0.96875,0.0,0.0,0.0,-0.9743589743589745,-1.9328449328449329,0.5625,0.0,0.0,-0.7240537240537241,0.0,-0.7338217338217338,0.71875,0.0,0.0,0.0,0.0,-0.5152625152625152,0.9375,0.0,0.0,0.7728937728937729,-0.7216117216117216,-1.1184371184371185,0.8125,0.0,0.0,0.0,0.0,-1.092796092796093,0.71875,0.0,0.0,0.0,0.0,-0.5299145299145299,0.71875,0.0,0.0,-0.993894993894994,0.0,-1.4224664224664223,0.96875,0.0,0.0,-0.5848595848595849,0.0,-2.0744810744810747,0.8125,0.0,0.0,-1.1514041514041513,0.0,-2.0378510378510377,0.0,0.0,0.0,-0.7313797313797313,0.0,-2.68009768009768,0.0,0.0,0.0,0.0,-1.0952380952380951,-3.8669108669108665,0.65625,0.0,0.0,0.0,-1.4615384615384617,-4.8107448107448105,0.0,0.0,0.0,-1.4566544566544566,-0.63003663003663,-5.136752136752137,0.0,0.0,0.0,0.0,0.0,-4.427350427350428,0.0,0.0,0.0,0.0,-1.1025641025641026,-3.8424908424908426,0.0,0.0,0.0,0.0,-1.177045177045177,-3.495726495726496,0.0,0.0,0.0,0.0,-0.557997557997558,-3.240537240537241,0.0,0.0,0.0,0.0,0.0,-2.4945054945054945,0.0,0.0,0.0,0.0,0.0,-1.800976800976801,0.0,0.0,0.0,0.0,-0.7704517704517705,-1.7753357753357752,0.0,0.0,0.0,,,,,,,,,,,,,,,,,,,movNegZ
accX,0.0,0.5555555555555556,1.884004884004884,-0.875,0.0,0.0,-0.6092796092796092,1.3687423687423688,2.8962148962148966,0.0,0.0,0.0,0.0,-0.5995115995115995,3.0549450549450547,0.0,0.0,0.0,0.0,-0.9426129426129426,1.9169719169719168,0.0,0.0,0.0,0.0,0.0,1.9352869352869355,-0.59375,0.0,0.0,0.0,0.0,2.147741147741148,-0.59375,0.0,0.0,0.0,0.0,2.3455433455433456,0.0,0.0,0.0,-1.21001221001221,-0.7692307692307693,2.083028083028083,0.0,0.0,0.0,-1.0,-0.6813186813186813,1.6398046398046398,0.0,0.0,0.0,0.0,-0.7936507936507936,1.8424908424908424,0.0,0.0,0.0,0.0,-1.2234432234432235,2.1562881562881557,0.0,0.0,0.0,0.0,-1.4810744810744811,2.245421245421245,0.0,0.0,0.0,-0.9682539682539684,0.0,2.6483516483516483,0.0,0.0,0.0,-0.5775335775335775,-0.6312576312576312,3.1684981684981683,0.0,0.0,0.0,0.0,-1.5164835164835164,3.102564102564102,0.5625,0.0,0.0,0.0,-1.8693528693528692,3.183150183150183,0.0,0.0,0.0,0.0,-1.1794871794871795,3.4993894993894994,0.0,0.0,0.0,-0.5201465201465202,-0.8217338217338217,2.89010989010989,0.65625,0.0,0.0,-0.6605616605616605,-1.5482295482295485,2.6153846153846154,0.84375,0.0,0.0,0.0,-1.85958485958486,2.89010989010989,0.84375,0.625,0.0,1.6483516483516485,-1.5995115995115996,2.93040293040293,0.8125,0.0,0.0,0.0,-0.7496947496947497,1.8253968253968251,0.96875,-0.59375,0.0,-1.68009768009768,-0.6251526251526252,0.8705738705738706,1.34375,0.59375,0.0,0.7765567765567766,-1.9035409035409037,1.568986568986569,1.25,0.875,0.0,2.9706959706959712,-1.804639804639805,2.404151404151404,0.875,-0.5625,0.0,-1.0879120879120878,0.0,1.1978021978021978,1.4375,-0.6875,0.0,-3.095238095238096,-0.9658119658119658,-1.3418803418803418,2.0,0.96875,0.0,-0.5763125763125763,-2.5396825396825395,-2.2612942612942613,1.625,1.53125,0.0,2.2344322344322345,-2.490842490842491,-1.7142857142857142,0.71875,0.0,0.0,2.0842490842490844,-1.4884004884004884,-1.1184371184371185,0.0,-0.9375,0.0,-2.2527472527472527,0.0,-1.9352869352869355,0.59375,0.0,0.0,-2.477411477411477,0.0,-2.709401709401709,1.125,0.96875,0.0,0.0,-1.1416361416361416,-2.335775335775336,0.90625,0.78125,0.0,1.568986568986569,-1.290598290598291,-1.9987789987789988,0.0,0.0,0.0,0.0,-0.525030525030525,-2.2185592185592187,0.0,0.0,0.0,-1.0708180708180708,0.0,-3.0415140415140414,0.65625,0.0,0.0,0.0,-0.9413919413919414,-3.1526251526251525,0.75,0.59375,0.0,1.5885225885225884,-1.809523809523809,-3.669108669108669,0.0,0.0,0.0,0.0,0.0,-4.576312576312576,0.0,0.0,0.0,-2.175824175824176,0.0,-4.645909645909647,0.0,0.0,0.0,-0.5482295482295483,0.0,-3.3736263736263736,0.0,0.0,0.0,0.5274725274725275,-1.2820512820512822,-2.7362637362637363,0.0,0.0,0.0,0.0,-0.7533577533577533,-3.075702075702076,0.0,0.0,0.0,-0.663003663003663,0.0,-3.0244200244200243,0.0,0.0,0.0,-1.5115995115995116,0.0,-2.4786324786324787,0.0,0.0,0.0,1.2686202686202686,-1.020757020757021,-1.4969474969474967,0.0,0.0,0.0,0.6471306471306472,-0.7032967032967034,-1.0732600732600732,0.0,0.0,0.0,-0.9450549450549449,0.0,-1.4615384615384617,0.0,-0.53125,0.0,-1.0549450549450552,0.0,-2.0305250305250304,0.0,0.0,0.0,,,,,,,movNegZ
accX,0.0,-2.225885225885226,1.9694749694749696,0.0,0.0,0.0,0.0,-0.7875457875457875,0.7680097680097681,0.0,0.0,0.0,0.0,0.0,1.3418803418803418,0.0,0.0,0.0,-0.7826617826617827,-0.6727716727716728,1.5482295482295485,0.0,0.0,0.0,0.0,0.0,1.31013431013431,0.0,0.0,0.0,0.0,0.0,1.2991452991452992,0.0,0.0,0.0,0.0,0.0,2.1904761904761907,0.0,0.0,0.0,-0.5909645909645911,-0.7667887667887668,2.5128205128205128,0.0,0.0,0.0,0.0,-1.382173382173382,2.3663003663003663,0.0,0.0,0.0,0.0,-1.5189255189255189,2.311355311355311,0.0,0.0,0.0,0.0,-1.5433455433455434,2.31990231990232,0.0,0.0,0.0,0.0,-0.6739926739926739,3.3076923076923075,0.0,0.0,0.0,-0.778998778998779,-0.6385836385836385,2.9609279609279615,0.0,0.0,0.0,0.0,-1.358974358974359,1.975579975579976,0.59375,0.0,0.0,0.0,-1.4615384615384617,1.7423687423687424,0.0,0.0,0.0,0.0,-0.6971916971916972,2.3040293040293043,0.0,0.0,0.0,0.0,-0.6068376068376068,1.9511599511599511,0.0,0.0,0.0,0.0,-1.4383394383394383,0.9511599511599512,0.78125,0.0,0.0,0.9230769230769232,-2.3321123321123323,0.8742368742368742,0.53125,0.0,0.0,0.7557997557997558,-1.5030525030525033,1.4908424908424909,0.0,0.0,0.0,-0.8901098901098901,0.0,1.2112332112332111,0.0,0.0,0.0,-1.6764346764346765,-0.5347985347985348,0.0,0.9375,0.0,0.0,0.0,-1.286935286935287,0.0,1.03125,0.90625,0.0,0.9035409035409036,-1.7936507936507935,0.7606837606837606,0.78125,0.75,0.0,0.0,-1.264957264957265,-0.6361416361416361,0.65625,0.0,0.0,-1.5006105006105006,0.0,-0.9768009768009768,0.6875,0.0,0.0,-1.1684981684981686,0.0,0.0,0.90625,0.75,0.0,2.217338217338217,-2.225885225885226,0.5738705738705738,0.0,0.71875,0.0,4.858363858363859,-2.1074481074481075,1.3699633699633702,0.0,-1.5625,0.0,-0.557997557997558,0.5836385836385837,0.8156288156288156,0.0,-1.5,0.0,-3.3736263736263736,1.1684981684981686,0.0,1.65625,0.59375,0.0,0.0,0.0,-1.6593406593406594,1.8125,1.40625,0.0,3.717948717948718,-2.9743589743589745,-3.687423687423687,0.78125,0.0,0.0,0.9829059829059827,-1.194139194139194,-3.7020757020757022,0.0,-1.28125,0.0,-2.380952380952381,0.0,-3.641025641025641,1.03125,0.0,0.0,-1.6752136752136753,0.0,-4.012210012210011,1.15625,1.125,0.0,1.5445665445665446,-1.434676434676435,-4.046398046398046,0.59375,0.0,0.0,2.728937728937729,-1.5836385836385836,-3.42002442002442,0.0,-0.90625,0.0,0.0,0.0,-3.2612942612942613,0.0,-0.6875,0.0,-1.9108669108669107,0.0,-3.996336996336997,0.75,0.0,0.0,0.0,-0.8168498168498168,-3.807081807081807,0.0,0.0,0.0,0.9816849816849816,-0.6556776556776557,-2.715506715506716,0.0,-0.53125,0.0,-1.1147741147741148,0.6190476190476191,-2.0793650793650795,0.0,-0.71875,0.0,-2.7301587301587302,1.0757020757020757,-2.2210012210012207,0.0,0.0,0.0,-0.7643467643467643,0.0,-2.0976800976800978,0.0,0.75,0.0,1.2087912087912087,-1.3736263736263736,-1.4163614163614164,0.0,0.0,0.0,0.0,-0.5177045177045178,-0.8156288156288156,-0.53125,0.0,0.0,0.0,0.0,-0.7557997557997558,0.0,0.0,0.0,,,,,,,,,,,,,movNegZ
accX,0.0,0.0,3.5763125763125765,0.0,0.0,0.0,0.0,-0.9108669108669109,2.131868131868132,0.0,0.0,0.0,0.0,-1.3162393162393162,0.6849816849816851,0.0,0.0,0.0,0.0,-0.9987789987789988,1.4383394383394383,0.0,0.0,0.0,0.0,-0.6068376068376068,2.5067155067155067,0.0,0.0,0.0,0.0,0.0,2.452991452991453,0.0,0.0,0.0,0.0,0.0,1.948717948717949,0.0,0.0,0.0,-0.7680097680097681,0.0,1.6398046398046398,0.0,0.0,0.0,-0.5286935286935287,-0.568986568986569,1.7924297924297925,0.0,0.0,0.0,0.0,-0.9059829059829059,2.1721611721611715,0.0,0.0,0.0,0.0,-0.8876678876678876,2.43956043956044,0.0,0.0,0.0,0.0,-1.1172161172161172,2.061050061050061,0.0,0.0,0.0,0.0,0.0,2.8156288156288163,0.0,0.0,0.0,0.0,-0.7533577533577533,3.5750915750915757,0.0,0.0,0.0,0.0,-1.363858363858364,2.621489621489621,0.65625,0.0,0.0,0.0,-1.321123321123321,1.8901098901098898,0.53125,0.0,0.0,0.0,-0.9157509157509156,1.5714285714285714,0.0,0.0,0.0,0.0,-0.5347985347985348,2.3846153846153846,0.0,0.0,0.0,-0.6923076923076923,-0.5164835164835165,2.4761904761904763,0.0,0.0,0.0,-1.1257631257631258,-1.1672771672771671,1.5885225885225884,0.9375,0.0,0.0,0.0,-2.0586080586080584,0.6129426129426129,0.9375,1.0,0.0,2.467643467643468,-2.0012210012210008,1.2393162393162394,0.0,0.0,0.0,0.0,-0.5262515262515263,2.0,0.0,-1.0,0.0,-2.2295482295482296,0.0,0.9804639804639804,0.71875,0.0,0.0,-1.7753357753357752,-1.21001221001221,0.0,1.4375,1.3125,0.0,1.126984126984127,-2.0329670329670333,-0.9047619047619048,1.15625,1.75,0.0,1.8168498168498168,-1.3052503052503053,0.0,0.0,0.0,0.0,-0.5018315018315018,0.0,0.0,0.0,0.0,0.0,-0.6239316239316239,-0.7509157509157509,-0.525030525030525,1.0625,0.53125,0.0,0.8522588522588522,-1.122100122100122,-1.3479853479853479,1.25,1.28125,0.0,2.3089133089133087,-1.0476190476190477,-1.3565323565323566,0.875,0.5625,0.0,0.9804639804639804,0.0,-1.8693528693528692,0.0,-1.0625,0.0,-2.457875457875458,0.0,-3.62026862026862,0.0,-1.34375,0.0,-2.457875457875458,0.0,-4.208791208791209,0.75,0.0,0.0,0.63003663003663,-1.05006105006105,-2.8253968253968256,0.0,1.125,0.0,2.4566544566544573,-0.6349206349206349,-1.4713064713064714,0.0,0.0,0.0,0.0,0.0,-2.4652014652014653,0.0,-1.0625,0.0,-2.409035409035409,0.0,-3.553113553113553,0.0,0.0,0.0,-1.6398046398046398,-0.7130647130647131,-3.4236874236874235,0.0,0.84375,0.0,1.2820512820512822,-0.9365079365079364,-2.7948717948717947,0.0,0.0,0.0,0.0,0.0,-2.717948717948718,0.0,-0.5625,0.0,-2.070818070818071,0.0,-3.335775335775337,0.0,0.0,0.0,-2.0463980463980462,0.0,-3.10989010989011,0.0,0.8125,0.0,0.0,-0.6544566544566545,-2.6849816849816848,0.0,0.8125,0.0,0.5848595848595849,-0.7936507936507936,-2.807081807081807,0.0,0.0,0.0,,,,,,,,,,,,,,,,,,,,,,,,,,,,,,,movNegZ
accX,0.0,-1.2747252747252746,1.938949938949939,0.0,-0.53125,0.0,0.0,-1.0231990231990231,1.4615384615384617,0.0,0.0,0.0,0.0,-0.6007326007326007,1.1721611721611722,0.0,0.0,0.0,-0.5335775335775336,0.0,0.9084249084249084,0.0,0.625,0.0,0.0,0.0,1.636141636141636,0.0,0.5625,0.0,0.0,0.0,1.968253968253968,0.0,0.0,0.0,0.0,0.0,1.4224664224664223,0.0,0.0,0.0,0.0,-0.9731379731379732,0.8754578754578755,0.0,0.0,0.0,0.0,-0.7875457875457875,1.2564102564102564,0.0,0.0,0.0,0.0,0.0,2.075702075702076,0.0,0.0,0.0,0.0,0.0,2.271062271062271,0.0,0.0,0.0,0.0,-1.0183150183150182,1.7912087912087913,0.0,0.0,0.0,0.5103785103785103,-1.9633699633699635,1.3467643467643469,0.0,0.0,0.0,0.9316239316239316,-1.0158730158730158,2.133089133089133,0.0,-0.6875,0.0,-0.9157509157509156,0.0,2.9010989010989015,0.0,0.0,0.0,-1.733821733821734,0.0,1.4835164835164836,0.875,0.84375,0.0,0.0,-1.5970695970695972,1.1831501831501832,0.0,0.6875,0.0,0.0,-0.8021978021978022,2.496947496947497,0.0,0.0,0.0,0.0,-0.6105006105006106,3.318681318681319,0.0,0.0,0.0,-0.8522588522588522,-0.8852258852258852,2.6654456654456653,0.78125,0.0,0.0,-0.6654456654456654,-1.0341880341880345,2.2234432234432235,1.125,0.6875,0.0,0.0,-1.0354090354090355,1.9731379731379728,1.25,1.09375,0.0,0.8205128205128205,-1.1868131868131868,1.2442002442002442,1.375,1.0,0.0,0.7887667887667887,-2.04029304029304,0.0,1.28125,0.0,0.0,0.0,-2.333333333333333,-0.7094017094017094,0.8125,0.0,0.0,-0.9291819291819292,-1.398046398046398,-1.266178266178266,0.0,0.0,0.0,0.0,0.0,-0.8998778998778999,0.59375,0.0,0.0,0.0,-0.6556776556776557,-0.9096459096459096,1.0,0.0,0.0,0.0,-1.6031746031746033,-1.7484737484737485,0.90625,0.0,0.0,0.0,-1.4835164835164836,-2.7045177045177047,0.0,0.0,0.0,0.0,0.0,-2.3272283272283274,0.0,0.0,0.0,0.0,0.0,-1.6495726495726497,0.59375,0.0,0.0,0.0,-0.6141636141636142,-2.4664224664224665,0.78125,0.0,0.0,0.0,-0.894993894993895,-3.4908424908424913,0.0,0.0,0.0,0.0,0.0,-3.404151404151404,0.0,0.0,0.0,0.0,0.0,-2.4017094017094016,0.0,0.0,0.0,-0.5641025641025641,0.0,-2.6630036630036633,0.0,0.0,0.0,-0.8901098901098901,-0.6691086691086691,-3.433455433455433,0.53125,0.0,0.0,0.5604395604395604,-1.0195360195360197,-3.2442002442002438,0.0,0.65625,0.0,1.0964590964590966,-0.9975579975579976,-3.1037851037851034,0.0,0.0,0.0,0.0,0.0,-3.235653235653236,0.0,-0.53125,0.0,-1.4065934065934067,0.0,-3.7887667887667886,0.0,0.0,0.0,-0.8937728937728938,-0.5079365079365079,-3.601953601953602,0.0,0.625,0.0,0.0,-0.8974358974358975,-3.208791208791209,0.0,0.6875,0.0,1.1172161172161172,-0.9304029304029304,-2.8803418803418803,0.0,0.0,0.0,,,,,,,,,,,,,,,,,,,,,,,,,,,,,,,movNegZ
accX,0.0,-0.7875457875457875,2.1062271062271063,-1.03125,0.0,0.0,0.0,-0.5763125763125763,3.5164835164835164,0.0,0.0,0.0,0.0,-0.5775335775335775,3.0158730158730163,0.0,0.0,0.0,0.0,-0.9242979242979243,1.5299145299145298,0.0,0.0,0.0,-0.8827838827838828,-0.5909645909645911,0.8681318681318682,0.0,0.0,0.0,-0.8229548229548229,-0.7118437118437119,1.2173382173382172,0.0,0.65625,0.0,0.0,-1.021978021978022,1.7045177045177045,0.0,0.0,0.0,0.7387057387057387,-1.0244200244200243,2.483516483516484,0.0,0.0,0.0,0.6874236874236874,-0.7423687423687424,2.6959706959706957,0.0,-0.6875,0.0,-1.1489621489621489,-0.5372405372405372,2.126984126984127,0.0,0.0,0.0,-1.1721611721611722,0.0,2.5360195360195363,0.0,0.78125,0.0,0.0,-0.6324786324786325,3.4053724053724053,0.65625,0.71875,0.0,1.1257631257631258,-1.0586080586080586,3.4322344322344316,0.5625,0.0,0.0,0.5995115995115995,-1.6263736263736264,2.2869352869352872,0.0,-0.75,0.0,-1.6459096459096458,-0.6800976800976801,1.9377289377289375,0.0,0.0,0.0,-2.126984126984127,0.0,2.791208791208791,0.90625,1.0625,0.0,0.0,0.0,3.5494505494505493,1.34375,0.90625,0.0,1.2612942612942613,-1.879120879120879,2.561660561660561,0.90625,0.0,0.0,0.0,-1.915750915750916,1.5567765567765568,0.0,-0.59375,0.0,-1.9059829059829057,-0.7606837606837606,1.5702075702075702,0.625,0.0,0.0,-1.8852258852258847,0.0,1.5702075702075702,1.53125,1.40625,0.0,0.6251526251526252,-1.4969474969474967,0.8437118437118437,1.4375,0.65625,0.0,1.0183150183150182,-2.5970695970695967,0.0,0.0,-0.6875,0.0,-1.78021978021978,0.0,0.0,0.0,0.0,0.0,-2.227106227106227,0.6874236874236874,1.6251526251526252,1.625,1.5,0.0,2.4481074481074483,-2.6056166056166057,0.0,1.6875,0.75,0.0,1.5787545787545787,-1.7887667887667889,0.0,0.8125,0.0,0.0,-0.7704517704517705,0.0,-1.5103785103785103,0.0,0.0,0.0,0.0,0.0,-2.388278388278388,1.15625,0.0,0.0,1.1416361416361416,-2.6092796092796093,-3.2844932844932844,1.6875,0.5625,0.0,2.0024420024420024,-3.3345543345543347,-4.084249084249084,0.875,0.0,0.0,-0.9658119658119658,0.0,-4.715506715506716,0.0,-0.65625,0.0,-2.2063492063492065,0.0,-5.152625152625153,0.625,0.0,0.0,0.0,-1.641025641025641,-5.224664224664225,1.15625,0.71875,0.0,1.78021978021978,-3.2283272283272284,-5.774114774114773,0.59375,0.53125,0.0,0.0,-1.3113553113553114,-5.0866910866910855,0.0,0.0,0.0,-0.9169719169719168,0.0,-3.531135531135531,0.0,0.0,0.0,0.0,0.0,-2.554334554334554,0.5625,0.625,0.0,1.332112332112332,-1.4578754578754578,-3.1746031746031744,0.75,0.75,0.0,0.0,-1.1575091575091576,-3.586080586080586,0.0,0.0,0.0,,,,,,,,,,,,,,,,,,,,,,,,,,,,,,,,,,,,,,,,,,,,,,,,,,,,,,,,,,,,,movNegZ
accX,0.0,-1.617826617826618,2.294261294261294,0.0,0.0,0.0,0.0,-0.7594627594627594,2.6788766788766787,0.0,0.0,0.0,0.0,-0.7277167277167277,1.9010989010989008,0.0,0.0,0.0,-0.757020757020757,-0.6434676434676435,0.7741147741147741,0.0,0.0,0.0,-1.4945054945054943,-0.536019536019536,0.6385836385836385,0.0,0.0,0.0,-0.9914529914529916,0.0,1.7789987789987791,0.0,0.53125,0.0,0.0,-0.7912087912087912,2.2588522588522593,0.0,0.0,0.0,0.0,-1.3455433455433456,2.015873015873016,0.0,0.0,0.0,-0.6495726495726496,-0.9633699633699634,1.6105006105006106,0.0,0.0,0.0,-0.8693528693528694,0.0,1.943833943833944,-0.59375,0.0,0.0,0.0,0.0,2.8583638583638584,0.0,0.0,0.0,0.0,-0.7387057387057387,3.3064713064713063,0.0,0.0,0.0,0.0,-1.5433455433455434,2.9169719169719173,0.0,0.0,0.0,0.0,-0.6996336996336996,2.85958485958486,0.0,0.0,0.0,-0.536019536019536,0.0,3.1147741147741153,0.0,0.0,0.0,-0.5042735042735043,0.0,2.8693528693528694,0.65625,0.0,0.0,0.0,-1.175824175824176,2.7411477411477403,0.75,0.0,0.0,0.0,-1.6715506715506716,2.067155067155068,0.53125,0.0,0.0,-0.6593406593406593,-0.6446886446886447,1.9914529914529917,0.625,0.0,0.0,-1.68986568986569,0.0,2.0146520146520146,1.125,0.8125,0.0,0.0,-1.462759462759463,2.0793650793650795,1.4375,1.15625,0.0,0.9072039072039072,-1.8058608058608057,0.9328449328449328,1.0625,0.0,0.0,0.0,-0.7326007326007326,0.0,0.625,0.0,0.0,-0.6446886446886447,0.0,0.9096459096459096,0.90625,0.0,0.0,0.0,0.0,1.4395604395604396,1.5625,0.875,0.0,1.2942612942612943,-1.21001221001221,0.0,1.71875,0.625,0.0,1.6935286935286935,-1.8412698412698407,-1.5396825396825398,1.0625,0.0,0.0,1.5628815628815629,-1.733821733821734,-1.4371184371184371,0.0,0.0,0.0,0.0,-0.6031746031746031,0.0,0.625,0.0,0.0,-0.6080586080586079,-0.6068376068376068,-1.0415140415140416,1.21875,0.0,0.0,-0.7753357753357754,-1.3724053724053724,-1.9792429792429795,1.125,0.0,0.0,0.0,-1.465201465201465,-1.94017094017094,0.53125,0.0,0.0,0.0,0.0,-1.7997557997557998,0.0,0.0,0.0,-1.1562881562881564,0.0,-1.95970695970696,0.875,0.0,0.0,-1.8070818070818069,0.0,-2.9963369963369964,1.0625,0.0,0.0,0.0,-1.2332112332112333,-3.5482295482295485,0.6875,0.0,0.0,2.383394383394384,-1.3492063492063493,-3.542124542124542,0.0,-1.0,0.0,-0.5213675213675214,0.0,-3.9865689865689866,0.0,-1.4375,0.0,-3.6007326007326013,-0.5518925518925519,-5.208791208791209,0.59375,1.0,0.0,1.7814407814407816,-1.525030525030525,-4.634920634920634,0.0,0.90625,0.0,0.0,0.0,-3.568986568986569,0.0,0.0,0.0,-1.7045177045177045,0.0,-3.155067155067155,0.0,0.0,0.0,0.0,-0.9768009768009768,-2.9047619047619047,0.0,0.0,0.0,1.21978021978022,-1.4407814407814408,-2.501831501831502,0.0,0.6875,0.0,,,,,,,,,,,,,,,,,,,,,,,,,,,,,,,,,,,,,movNegZ
accX,0.0,-0.5299145299145299,2.3785103785103785,0.0,0.0,0.0,0.0,0.0,2.0366300366300365,0.0,0.0,0.0,0.518925518925519,-1.0122100122100122,1.4358974358974361,0.0,0.0,0.0,-0.5384615384615384,-0.8339438339438342,1.2222222222222223,0.0,0.0,0.0,0.0,-0.6959706959706959,1.2222222222222223,-0.625,0.0,0.0,0.0,0.0,1.9108669108669107,-0.65625,0.0,0.0,-0.5042735042735043,0.0,1.7692307692307692,0.0,0.0,0.0,-0.6092796092796092,-0.5201465201465202,0.978021978021978,0.0,0.0,0.0,-0.8156288156288156,-0.6996336996336996,1.2124542124542124,0.0,0.0,0.0,0.0,-1.2637362637362637,1.7484737484737485,0.0,0.0,0.0,0.0,-1.1819291819291822,2.5995115995116,0.0,0.0,0.0,0.0,-0.8595848595848596,3.1868131868131866,0.0,0.0,0.0,0.0,0.0,3.6263736263736255,0.0,0.0,0.0,0.8937728937728938,-1.2356532356532357,3.4322344322344316,0.0,0.0,0.0,0.0,-1.3296703296703296,2.9438339438339436,0.0,0.0,0.0,-1.3577533577533578,-0.6275946275946276,2.667887667887668,0.0,0.0,0.0,0.0,-0.9047619047619048,3.2051282051282053,0.5625,0.0,0.0,1.2039072039072038,-1.6288156288156288,3.2332112332112333,0.625,0.0,0.0,0.0,-1.2942612942612943,2.437118437118437,0.0,0.0,0.0,-1.7130647130647132,0.0,1.9743589743589745,0.625,0.0,0.0,0.0,0.0,1.8827838827838828,1.0625,0.75,0.0,0.5262515262515263,-1.2991452991452992,1.5177045177045176,1.09375,0.0,0.0,0.0,-1.4835164835164836,0.0,0.9375,0.0,0.0,0.5299145299145299,-0.8693528693528694,0.0,0.84375,0.0,0.0,1.5323565323565325,-0.7020757020757019,0.0,0.75,0.0,0.0,0.0,-0.6971916971916972,0.0,1.03125,0.0,0.0,0.0,-1.967032967032967,-1.5567765567765568,0.875,0.0,0.0,0.8547008547008547,-2.192918192918193,-1.7985347985347986,0.0,0.0,0.0,-0.5824175824175825,0.0,-0.5714285714285714,0.0,0.0,0.0,-1.017094017094017,0.0,0.0,1.1875,0.59375,0.0,0.0,-1.468864468864469,-1.6483516483516485,1.1875,0.78125,0.0,0.0,-1.5457875457875458,-2.3919413919413923,0.65625,0.0,0.0,0.0,-1.0195360195360197,-1.6385836385836383,0.0,0.0,0.0,0.0,0.0,-0.663003663003663,0.71875,0.0,0.0,-1.3553113553113554,0.0,-1.9352869352869355,1.375,0.78125,0.0,1.575091575091575,-2.092796092796093,-3.4590964590964592,0.9375,0.0,0.0,0.7362637362637363,-1.4358974358974361,-4.095238095238095,0.0,0.0,0.0,-3.235653235653236,1.061050061050061,-3.5213675213675213,0.0,0.0,0.0,-2.9706959706959712,0.6422466422466423,-2.881562881562881,1.09375,1.0,0.0,1.2417582417582418,-2.062271062271062,-2.9511599511599518,0.5625,0.0,0.0,1.9035409035409037,-2.1184371184371185,-3.1062271062271063,0.0,-0.5625,0.0,-1.5970695970695972,0.0,-2.5677655677655684,0.0,0.0,0.0,-2.971916971916972,0.7680097680097681,-2.8925518925518925,0.75,0.59375,0.0,0.0,-0.6410256410256411,-3.4273504273504267,0.0,0.625,0.0,0.8473748473748474,-0.8437118437118437,-3.47985347985348,0.0,0.0,0.0,-0.7228327228327228,0.0,-2.778998778998779,0.0,0.0,0.0,-1.8571428571428568,0.0,-2.8131868131868134,0.0,0.0,0.0,-0.5738705738705738,-0.8840048840048841,-3.1404151404151404,0.0,0.53125,0.0,0.0,-1.3150183150183148,-3.2551892551892547,0.0,0.0,0.0,,,,,,,movNegZ
accX,0.0,-1.1697191697191698,0.0,0.0,0.0,0.0,0.0,-1.3882783882783882,0.0,-0.625,0.0,0.0,0.0,-0.7912087912087912,1.953601953601953,0.0,0.0,0.0,0.0,0.0,2.2026862026862033,0.0,0.0,0.0,-1.1172161172161172,0.0,1.4969474969474967,0.0,0.0,0.0,-1.0488400488400489,-0.8192918192918193,0.6446886446886447,0.0,0.53125,0.0,-0.536019536019536,-0.9084249084249084,0.7228327228327228,-0.59375,0.5625,0.0,0.0,-0.5103785103785103,1.9853479853479852,-0.53125,0.0,0.0,0.0,0.0,1.9975579975579976,0.0,0.0,0.0,0.0,-1.514041514041514,1.7887667887667889,0.0,0.0,0.0,0.7728937728937729,-2.0525030525030523,1.956043956043956,0.0,0.0,0.0,0.8168498168498168,-0.9389499389499391,3.511599511599512,-0.5625,0.0,0.0,-1.52014652014652,0.0,3.1135531135531136,0.0,0.0,0.0,-0.8595848595848596,-0.8070818070818071,2.4322344322344316,0.875,0.6875,0.0,0.0,-1.6300366300366298,2.525030525030525,0.90625,1.09375,0.0,1.5164835164835164,-2.3553113553113554,2.709401709401709,0.0,0.53125,0.0,0.7582417582417582,-1.5115995115995116,2.948717948717949,0.0,-0.75,0.0,-1.9511599511599511,0.0,2.537240537240537,0.0,-0.78125,0.0,-1.6764346764346765,0.0,2.6263736263736264,1.15625,0.6875,0.0,-0.6007326007326007,-0.9023199023199024,1.6275946275946276,1.46875,1.53125,0.0,1.2564102564102564,-2.5995115995116,0.0,1.15625,0.8125,0.0,0.5396825396825397,-1.94017094017094,-0.8986568986568987,0.0,-1.09375,0.0,-3.0097680097680097,0.0,-0.6923076923076923,0.0,-1.3125,0.0,-2.9792429792429798,0.0,0.0,0.6875,0.78125,0.0,0.0,-0.8266178266178266,0.0,1.53125,2.21875,0.0,2.571428571428572,-2.4713064713064714,-0.5433455433455433,1.5625,1.4375,0.0,1.5067155067155067,-1.8131868131868127,-0.9584859584859584,0.65625,-0.53125,0.53125,-1.5433455433455434,0.0,-1.6214896214896215,0.0,-0.8125,0.0,-1.0757020757020757,0.0,-1.6495726495726497,0.78125,0.5625,0.0,0.851037851037851,-1.103785103785104,-1.4969474969474967,1.1875,1.0625,0.0,0.7594627594627594,-0.7008547008547008,-2.102564102564102,0.96875,0.0,0.0,0.0,0.0,-2.8046398046398044,0.53125,0.0,0.0,-0.9597069597069596,0.0,-2.6996336996337003,0.0,-0.53125,0.0,-0.6654456654456654,0.0,-1.9963369963369964,0.0,0.0,0.0,0.0,0.0,-2.025641025641025,0.75,0.0,0.0,-1.1477411477411477,0.0,-2.7557997557997562,0.8125,0.0,0.0,0.5628815628815629,-1.468864468864469,-3.2234432234432235,0.0,0.0,0.0,0.6800976800976801,-0.7326007326007326,-3.161172161172161,0.0,-1.09375,0.0,-2.213675213675214,0.5738705738705738,-3.467643467643468,0.5625,0.0,0.0,-1.7118437118437118,0.0,-3.9023199023199022,0.96875,0.875,0.0,1.3186813186813189,-1.7863247863247864,-3.6129426129426134,0.0,0.6875,0.0,1.0915750915750917,-0.8608058608058609,-3.1282051282051277,0.0,0.0,0.0,-0.956043956043956,0.6483516483516484,-2.5225885225885225,0.0,0.0,0.0,-0.5787545787545788,0.0,-2.166056166056166,0.0,0.0,0.0,0.0,-1.020757020757021,-2.3211233211233213,0.0,0.0,0.0,0.0,-1.195360195360195,-2.240537240537241,0.0,0.0,0.0,,,,,,,,,,,,,,,,,,,,,,,,,movNegZ
accX,0.8852258852258852,-0.6752136752136753,1.7557997557997558,0.0,0.0,0.0,0.0,-0.6019536019536019,2.2844932844932844,0.0,0.0,0.0,-0.6556776556776557,-0.7643467643467643,2.073260073260073,0.0,0.0,0.0,0.0,-0.6581196581196581,1.4175824175824177,0.0,0.0,0.0,0.0,-0.6410256410256411,1.4884004884004884,0.0,0.0,0.0,0.0,0.0,1.9584859584859584,0.0,0.0,0.0,-1.0708180708180708,0.0,2.294261294261294,0.0,0.0,0.0,-1.2857142857142858,0.0,1.9511599511599511,0.0,0.0,0.0,-0.7912087912087912,-0.6007326007326007,1.6275946275946276,0.0,0.59375,0.0,0.0,-0.8253968253968254,1.6459096459096458,0.0,0.0,0.0,-0.6202686202686203,0.0,2.6666666666666665,0.0,0.0,0.0,-1.1501831501831499,0.0,2.7326007326007327,0.0,0.0,0.0,0.0,0.0,2.5726495726495733,0.6875,0.8125,0.0,0.7863247863247863,-1.277167277167277,2.3504273504273505,0.53125,0.0,0.0,0.0,-1.15995115995116,1.7814407814407816,0.0,0.0,0.0,0.0,0.0,1.945054945054945,0.0,0.0,0.0,-1.137973137973138,0.0,1.4493284493284493,0.71875,0.875,0.0,1.8461538461538465,-1.9706959706959708,1.413919413919414,0.71875,0.59375,0.0,0.7374847374847375,-0.8070818070818071,0.9877899877899878,0.0,0.0,0.0,-0.5811965811965812,0.0,0.6666666666666666,0.0,0.0,0.0,0.0,-0.6459096459096461,0.6642246642246642,0.84375,0.0,0.0,1.4236874236874235,-1.6654456654456655,0.0,0.875,0.0,0.0,0.0,-0.7387057387057387,0.0,0.59375,0.0,0.0,-1.6043956043956045,0.0,0.0,0.65625,0.0,0.0,0.0,-0.78998778998779,0.5995115995115995,1.09375,1.15625,0.0,2.120879120879121,-2.240537240537241,0.0,1.15625,1.125,0.0,2.6605616605616604,-2.1184371184371185,-0.7460317460317459,0.625,0.0,0.0,0.0,0.0,-0.7728937728937729,0.0,-0.59375,0.0,-1.7277167277167278,0.0,-1.5909645909645909,0.96875,0.0,0.0,0.0,-1.7155067155067154,-2.8766788766788767,1.21875,0.8125,0.0,1.1428571428571428,-1.8412698412698407,-2.8632478632478637,0.53125,0.59375,0.0,0.0,0.0,-1.7887667887667889,0.0,0.0,0.0,-1.1868131868131868,0.0,-1.6764346764346765,0.0,0.0,0.0,-1.051282051282051,-0.8437118437118437,-2.4322344322344316,0.625,0.0,0.0,0.0,-1.2026862026862026,-2.8351648351648358,0.0,0.0,0.0,0.706959706959707,0.0,-2.1611721611721606,0.0,0.0,0.0,-0.8437118437118437,0.7802197802197802,-2.131868131868132,0.0,0.0,0.0,-1.6007326007326008,0.0,-3.216117216117216,0.0,0.0,0.0,0.0,-0.9255189255189256,-3.761904761904762,0.5625,0.5625,0.0,1.0549450549450552,-1.1306471306471306,-3.4737484737484734,0.0,0.59375,0.0,0.9389499389499391,-0.6275946275946276,-2.9914529914529915,0.0,0.0,0.0,-0.6361416361416361,0.0,-2.9975579975579976,0.0,0.0,0.0,-0.7838827838827839,0.0,-3.0097680097680097,0.0,0.625,0.0,0.894993894993895,-1.0805860805860803,-2.7533577533577533,0.0,0.0,0.0,1.1684981684981686,-0.9743589743589745,-2.3076923076923075,0.0,0.0,0.0,-0.5677655677655677,0.0,-2.0329670329670333,0.0,0.0,0.0,,,,,,,,,,,,,,,,,,,,,,,,,movNegZ
accX,0.0,-0.7948717948717948,2.4236874236874235,-0.6875,0.0,0.0,-0.6593406593406593,0.557997557997558,3.2136752136752142,-0.71875,0.0,0.0,0.0,0.0,3.1648351648351647,0.0,0.0,0.0,0.0,0.0,3.0207570207570207,0.0,0.0,0.0,0.0,0.0,3.1770451770451764,0.0,0.0,0.0,-0.8742368742368742,0.0,2.7985347985347984,0.0,0.0,0.0,0.0,-0.7997557997557998,2.3968253968253967,0.0,0.0,0.0,0.0,-1.1367521367521367,2.166056166056166,0.0,0.0,0.0,0.0,-1.017094017094017,2.9047619047619047,0.0,-0.53125,0.0,-1.0903540903540905,-0.9572649572649572,2.8669108669108665,0.0,0.0,0.0,-1.021978021978022,-0.6336996336996337,3.2564102564102564,0.0,1.0,0.0,0.0,-0.8803418803418803,3.3284493284493286,0.0,0.75,0.0,0.6800976800976801,-1.21001221001221,3.398046398046398,0.0,0.0,0.0,0.0,-1.362637362637363,3.5763125763125765,0.0,-0.53125,0.0,-0.7716727716727717,-1.1782661782661783,3.6056166056166057,0.0,0.0,0.0,0.0,-0.8998778998778999,3.5726495726495733,0.75,0.9375,0.0,0.7545787545787546,-1.0805860805860803,3.382173382173382,0.78125,0.8125,0.0,1.7216117216117215,-1.8754578754578757,3.0940170940170937,0.53125,0.0,0.0,-0.9706959706959708,-2.21978021978022,1.978021978021978,0.53125,-0.59375,0.0,-1.9267399267399268,-2.217338217338217,1.343101343101343,0.78125,0.625,0.0,0.0,-1.434676434676435,1.0769230769230769,0.75,1.0625,0.0,0.7338217338217338,0.0,1.2283272283272284,0.71875,0.53125,0.0,0.0,0.0,0.9401709401709402,0.90625,0.0,0.0,-0.6043956043956044,-0.912087912087912,0.0,1.25,0.0,0.0,0.0,-1.4493284493284493,-0.8315018315018315,1.34375,0.875,0.0,1.6556776556776556,-1.636141636141636,-1.4078144078144081,1.0625,0.71875,0.0,1.7716727716727716,-1.376068376068376,-1.5787545787545787,0.78125,0.0,0.0,0.0,-1.0134310134310134,-2.103785103785104,0.875,-0.75,0.0,-1.9548229548229548,-0.912087912087912,-2.683760683760684,1.21875,0.0,0.0,-0.7240537240537241,-1.3186813186813189,-2.7948717948717947,1.3125,0.96875,0.0,1.2368742368742371,-1.5946275946275947,-3.4529914529914536,0.65625,0.0,0.0,-1.6593406593406594,-0.6617826617826618,-3.708180708180708,0.0,-1.3125,0.0,-3.604395604395605,-0.7167277167277167,-4.4212454212454215,0.53125,0.0,0.0,0.0,-1.9352869352869355,-4.3028083028083035,1.3125,1.46875,0.0,4.816849816849817,-4.003663003663004,-4.653235653235653,1.0,1.03125,0.0,0.0,-1.7057387057387057,-4.925518925518926,0.0,-1.0,0.0,-3.7948717948717943,0.8864468864468864,-3.391941391941392,0.0,0.0,0.0,-0.6153846153846154,0.0,-1.2686202686202686,0.65625,1.3125,0.0,2.4725274725274726,-2.709401709401709,-2.421245421245421,0.625,0.6875,0.0,-0.5177045177045178,-0.9145299145299144,-2.63980463980464,0.0,-1.1875,0.0,-3.9072039072039066,1.242979242979243,-2.357753357753358,0.0,0.0,0.0,0.0,0.0,-1.26007326007326,0.0,1.125,0.0,0.7716727716727717,-0.8864468864468864,-1.5616605616605617,0.0,0.0,0.0,-0.557997557997558,-0.5103785103785103,-1.8705738705738704,0.0,0.0,0.0,-1.0573870573870574,0.0,-1.9084249084249083,0.0,0.0,0.0,,,,,,,,,,,,,,,,,,,,,,,,,,,,,,,movNegZ
accX,0.0,-0.7460317460317459,2.527472527472528,0.0,0.0,0.0,0.0,-0.5213675213675214,1.6300366300366298,0.0,0.0,0.0,0.0,-0.5286935286935287,1.7411477411477412,0.0,0.0,0.0,0.0,0.0,1.975579975579976,0.0,0.0,0.0,0.0,0.0,2.318681318681319,0.0,0.0,0.0,-0.8315018315018315,-0.8937728937728938,1.9413919413919412,0.0,0.0,0.0,-0.6129426129426129,-1.043956043956044,1.5482295482295485,0.0,0.0,0.0,0.0,-0.7216117216117216,2.0573870573870567,0.0,0.0,0.0,0.0,-0.8253968253968254,2.9682539682539684,0.0,0.0,0.0,-0.6642246642246642,-0.7142857142857143,3.586080586080586,0.0,0.0,0.0,0.0,-0.9511599511599512,3.791208791208791,0.0,0.0,0.0,0.0,-1.155067155067155,3.523809523809524,0.75,0.8125,0.0,1.7387057387057387,-1.3894993894993894,3.753357753357753,0.0,0.625,0.0,0.0,-1.2454212454212454,4.0427350427350435,0.0,-0.5625,0.0,-1.3601953601953602,-1.2173382173382172,3.5213675213675213,0.90625,0.0,0.0,-0.6068376068376068,-1.4884004884004884,3.542124542124542,1.1875,1.1875,0.0,1.5946275946275947,-2.2783882783882783,3.7936507936507935,0.78125,0.6875,0.0,1.0818070818070815,-1.5323565323565325,3.7338217338217334,0.5625,-0.59375,0.0,-2.9145299145299144,0.0,3.2466422466422467,1.25,0.0,0.0,-2.213675213675214,0.0,2.761904761904762,2.0625,1.9375,0.0,2.4249084249084247,-2.8925518925518925,1.1526251526251523,1.3125,1.0625,0.0,2.1819291819291817,-2.4871794871794872,0.7106227106227107,0.5625,-0.96875,0.0,-2.3272283272283274,0.0,0.0,1.375,0.0,0.0,-1.879120879120879,-1.1611721611721613,-1.3504273504273503,2.125,1.375,0.0,0.0,-2.9792429792429798,-3.2246642246642248,1.53125,1.40625,0.0,1.5787545787545787,-3.446886446886447,-3.492063492063492,0.0,0.0,0.0,1.78998778998779,-1.6886446886446886,-1.4822954822954824,0.6875,0.0,0.0,-0.9584859584859584,-1.017094017094017,-3.2625152625152625,1.34375,0.0,0.0,-1.7777777777777777,-1.5335775335775337,-5.7765567765567765,1.34375,1.15625,0.0,0.0,-2.340659340659341,-5.9694749694749705,0.0,0.9375,0.0,2.0781440781440783,-2.1807081807081805,-4.213675213675214,0.0,0.0,0.0,0.0,-1.1501831501831499,-3.741147741147741,0.53125,-0.53125,0.0,0.0,-1.8205128205128205,-4.498168498168498,0.8125,0.78125,0.0,1.3028083028083028,-1.8852258852258847,-4.069597069597069,0.0,0.90625,0.0,1.037851037851038,-0.8766788766788767,-3.7753357753357752,0.0,0.0,0.0,-0.6141636141636142,0.0,-3.4297924297924296,0.53125,-0.75,0.0,-1.1013431013431014,-1.1892551892551892,-4.617826617826617,0.0,0.0,0.0,-1.0183150183150182,-1.31990231990232,-5.112332112332112,0.0,0.0,0.0,-0.6349206349206349,-0.9597069597069596,-4.9462759462759465,0.0,0.0,0.0,0.0,0.0,-2.8180708180708183,-0.6875,0.0,0.0,0.0,0.0,-2.241758241758242,0.0,0.0,0.0,,,,,,,,,,,,,,,,,,,,,,,,,,,,,,,,,,,,,,,,,,,,,,,,,,,,,,,movNegZ
accX,0.0,0.0,2.340659340659341,0.0,0.0,0.0,0.5567765567765568,-1.1391941391941391,1.678876678876679,0.0,-0.625,0.0,-0.5860805860805861,0.0,1.2918192918192921,0.0,0.0,0.0,0.0,-0.5848595848595849,1.557997557997558,0.0,0.0,0.0,-0.6642246642246642,-0.8888888888888888,1.249084249084249,0.0,0.0,0.0,-0.5128205128205128,-0.7692307692307693,1.094017094017094,0.0,0.0,0.0,0.0,-0.5006105006105006,1.9426129426129424,0.0,0.0,0.0,0.0,-0.7203907203907204,2.230769230769231,0.0,0.0,0.0,0.0,-0.8315018315018315,2.021978021978022,0.0,0.0,0.0,0.0,-0.6898656898656899,2.0097680097680097,0.0,0.0,0.0,-0.5543345543345544,0.0,2.42002442002442,0.0,0.0,0.0,0.0,-0.8253968253968254,2.7606837606837606,0.0,0.53125,0.0,0.6105006105006106,-1.2625152625152625,3.0366300366300365,0.0,0.0,0.0,0.0,-1.2881562881562882,2.686202686202686,0.0,0.0,0.0,-1.1855921855921856,-0.5225885225885226,3.072039072039072,0.0,0.0,0.0,0.0,-1.0757020757020757,3.655677655677656,0.65625,0.84375,0.0,1.5592185592185592,-1.8070818070818069,3.3943833943833943,0.625,0.0,0.0,0.518925518925519,-1.0757020757020757,3.131868131868132,0.0,-0.8125,0.0,-2.467643467643468,0.0,2.653235653235653,0.0,0.0,0.0,-0.8412698412698413,0.0,2.0586080586080584,1.25,1.15625,0.0,1.3418803418803418,-1.4358974358974361,2.0525030525030523,1.125,0.75,0.0,-0.5506715506715507,-0.6471306471306472,1.956043956043956,0.71875,0.0,0.0,-0.8498168498168498,-0.6825396825396826,1.5482295482295485,0.9375,0.0,0.0,1.0903540903540905,-1.636141636141636,1.1294261294261294,1.3125,1.375,0.0,1.9926739926739927,-1.9010989010989008,0.8192918192918193,1.40625,1.09375,0.0,1.2857142857142858,-1.6141636141636142,0.0,1.28125,0.0,0.0,0.0,-1.5177045177045176,-1.1428571428571428,1.15625,0.0,0.0,0.8888888888888888,-1.8315018315018317,-2.484737484737485,0.96875,0.6875,0.0,0.8107448107448108,-1.1721611721611722,-3.1709401709401708,1.0,0.0,0.0,-0.5457875457875457,-1.2893772893772897,-3.695970695970696,1.03125,0.0,0.0,-1.1794871794871795,-1.5518925518925517,-4.052503052503051,0.90625,0.0,0.0,0.0,-1.8644688644688645,-4.605616605616605,0.71875,0.53125,0.0,0.7289377289377289,-1.3772893772893773,-4.838827838827839,0.53125,0.0,0.0,-0.9816849816849816,-0.6507936507936508,-4.78998778998779,0.6875,0.0,0.0,-2.5262515262515257,0.0,-4.8620268620268625,0.875,0.53125,0.0,0.0,-1.188034188034188,-5.223443223443224,0.65625,0.625,0.0,2.236874236874237,-1.9865689865689864,-5.330891330891331,0.0,-0.5625,0.0,0.0,-0.6654456654456654,-4.516483516483516,0.0,-0.78125,0.0,-2.5311355311355306,0.0,-3.816849816849817,0.0,0.0,0.0,-0.7704517704517705,0.0,-3.0927960927960934,0.0,0.65625,0.0,0.0,-0.6593406593406593,-2.717948717948718,0.0,0.0,0.0,-1.2222222222222223,0.0,-2.068376068376069,0.0,0.0,0.0,-1.6398046398046398,0.0,-1.4444444444444444,0.0,0.0,0.0,0.0,0.0,-0.8693528693528694,0.0,0.0,0.0,,,,,,,,,,,,,,,,,,,,,,,,,,,,,,,,,,,,,movNegZ
accX,0.0,-1.485958485958486,1.264957264957265,-0.84375,0.0,0.0,0.0,0.0,2.0842490842490844,-0.65625,0.0,0.0,-0.9768009768009768,0.0,1.9719169719169718,0.0,0.0,0.0,-1.010989010989011,0.0,1.5518925518925517,0.0,0.0,0.0,-0.5262515262515263,0.0,1.2808302808302807,0.0,0.0,0.0,0.0,-0.8095238095238095,1.0525030525030523,0.0,0.0,0.0,0.0,-0.6874236874236874,1.1428571428571428,0.0,0.0,0.0,0.0,0.0,1.6544566544566544,0.0,0.0,0.0,0.0,-0.8388278388278388,1.9804639804639803,0.0,0.0,0.0,0.0,-0.9304029304029304,2.2527472527472527,0.0,0.0,0.0,0.0,-1.0024420024420024,2.253968253968254,0.0,0.0,0.0,0.0,-0.5128205128205128,3.263736263736264,0.0,0.0,0.0,0.0,-0.5409035409035409,3.217338217338217,0.0,0.0,0.0,0.0,-1.2503052503052503,2.5445665445665444,0.0,0.0,0.0,0.0,-0.9242979242979243,2.235653235653236,0.0,0.0,0.0,0.0,0.0,2.811965811965812,0.0,0.0,0.0,-0.6898656898656899,0.0,2.5775335775335777,0.0,0.0,0.0,-0.8388278388278388,-0.7032967032967034,2.217338217338217,0.53125,0.0,0.0,-0.5396825396825397,-0.7167277167277167,1.844932844932845,0.75,0.6875,0.0,0.0,0.0,2.173382173382173,0.71875,0.96875,0.0,0.0,0.0,2.4029304029304033,0.5625,0.0,0.0,-0.8388278388278388,0.0,1.5702075702075702,0.625,0.0,0.0,-1.3785103785103785,-0.8424908424908425,0.8705738705738706,1.03125,0.0,0.0,0.0,-1.391941391941392,0.0,1.25,0.9375,0.0,1.537240537240537,-1.6691086691086692,0.0,0.8125,0.5625,0.0,0.0,0.0,0.0,0.0,0.0,0.0,-1.4358974358974361,0.0,-0.9047619047619048,0.84375,0.0,0.0,0.0,-1.0573870573870574,-1.608058608058608,1.125,1.125,0.0,2.017094017094017,-1.8021978021978025,-2.087912087912088,0.90625,0.625,0.0,1.5555555555555556,-1.1721611721611722,-2.0842490842490844,0.0,-0.9375,0.0,-2.083028083028083,0.6190476190476191,-2.415140415140415,0.0,-1.25,0.0,-2.0073260073260077,0.0,-3.2991452991452985,0.90625,0.0,0.0,0.7802197802197802,-1.242979242979243,-3.7472527472527473,1.03125,1.125,0.0,3.053724053724053,-1.4835164835164836,-3.1538461538461537,0.0,0.0,0.0,0.0,0.0,-2.5689865689865687,0.0,-1.5,0.0,-3.63980463980464,0.6056166056166056,-3.710622710622711,0.53125,0.0,0.0,-1.5787545787545787,0.0,-3.3785103785103785,0.84375,1.09375,0.0,1.3076923076923077,-1.2295482295482296,-3.021978021978022,0.53125,0.0,0.0,1.3137973137973138,-1.123321123321123,-3.556776556776557,0.0,-0.6875,0.0,-1.8632478632478635,0.5103785103785103,-3.6190476190476186,0.0,-0.59375,0.0,-2.6715506715506714,0.5470085470085471,-3.2857142857142856,0.53125,0.0,0.0,0.0,-1.061050061050061,-3.051282051282051,0.0,0.84375,0.0,1.6336996336996337,-1.7252747252747254,-2.8339438339438336,0.0,0.0,0.0,0.0,-0.6910866910866911,-2.4310134310134313,0.0,0.0,0.0,-1.0427350427350428,0.0,-1.9853479853479852,0.0,0.0,0.0,,,,,,,,,,,,,,,,,,,,,,,,,,,,,,,movNegZ
accX,0.0,0.0,2.1941391941391943,0.0,0.625,0.0,0.8791208791208791,0.0,1.912087912087912,-0.84375,0.0,0.0,0.0,0.0,2.561660561660561,-0.75,-0.53125,0.0,-1.2234432234432235,0.8681318681318682,3.161172161172161,0.0,0.0,0.0,-0.9426129426129426,0.0,3.241758241758242,0.75,0.0,0.0,0.0,-1.2796092796092795,1.338217338217338,0.0,0.0,0.0,0.0,-1.3724053724053724,0.0,0.0,0.0,0.0,0.0,-0.7435897435897436,1.6935286935286935,-0.5625,0.0,0.0,0.0,-0.6617826617826618,2.7081807081807083,0.0,0.0,0.0,-0.5421245421245421,-1.1184371184371185,2.139194139194139,0.0,0.0,0.0,0.0,-1.6336996336996337,1.5531135531135531,0.0,0.0,0.0,0.0,-1.9365079365079363,1.3797313797313795,0.0,0.53125,0.0,0.0,-0.8827838827838828,2.7704517704517704,0.0,0.0,0.0,0.0,-0.8376068376068376,3.6349206349206344,0.0,0.0,0.0,-0.9987789987789988,-0.934065934065934,2.95970695970696,0.75,0.0,0.0,0.0,-1.5274725274725274,2.311355311355311,0.65625,0.96875,0.0,1.2637362637362637,-1.6996336996336996,2.9059829059829063,0.0,0.0,0.0,0.8986568986568987,-0.993894993894994,3.686202686202686,0.0,0.0,0.0,-1.641025641025641,0.0,2.0097680097680097,1.25,0.90625,0.0,0.6239316239316239,-2.2564102564102564,0.9181929181929182,1.0625,1.125,0.0,-0.7387057387057387,-0.8717948717948718,1.1782661782661783,0.0,0.0,0.0,-2.3626373626373627,0.818070818070818,2.388278388278388,0.625,0.0,0.0,0.0,0.0,2.288156288156288,1.875,1.4375,0.0,3.1819291819291817,-2.978021978021978,0.0,1.71875,1.09375,0.0,1.1819291819291822,-1.4407814407814408,-1.531135531135531,0.0,-0.6875,0.0,-3.2576312576312576,1.122100122100122,-1.5592185592185592,0.0,-1.0625,0.0,-2.586080586080586,0.0,-1.0268620268620268,1.28125,0.0,0.0,2.015873015873016,-3.2124542124542126,-1.684981684981685,1.625,1.15625,0.0,4.317460317460317,-3.980463980463981,-2.9975579975579976,0.5625,0.0,0.0,-1.7326007326007329,0.0,-3.6031746031746033,0.0,-1.4375,0.0,-4.4212454212454215,0.8229548229548229,-3.1282051282051277,0.65625,0.0,0.0,-1.3553113553113554,-1.684981684981685,-3.8937728937728937,1.40625,0.875,0.0,1.3650793650793651,-3.4444444444444446,-5.241758241758243,0.71875,0.0,0.0,-1.4358974358974361,-0.6520146520146519,-4.746031746031746,0.0,-0.625,0.0,-2.2869352869352872,0.9291819291819292,-2.9291819291819285,0.0,0.0,0.0,0.6459096459096461,-1.1172161172161172,-2.9877899877899887,1.15625,0.78125,0.0,2.533577533577533,-3.1391941391941387,-4.6361416361416365,0.875,0.0,0.0,0.0,-1.5604395604395604,-5.260073260073259,0.0,0.0,0.0,-1.9206349206349207,1.1391941391941391,-3.3663003663003663,0.0,0.0,0.0,-0.5653235653235653,0.0,-2.0488400488400487,0.0,0.53125,0.0,0.6666666666666666,-1.006105006105006,-2.087912087912088,0.0,0.0,0.0,-1.006105006105006,0.0,-2.039072039072039,0.0,0.0,0.0,-1.2356532356532357,0.0,-1.264957264957265,0.0,0.0,0.0,0.0,0.5262515262515263,-0.6581196581196581,0.0,0.0,0.0,,,,,,,,,,,,,,,,,,,,,,,,,,,,,,,,,,,,,movNegZ
accX,0.0,0.0,1.9548229548229548,0.0,0.0,0.0,0.5457875457875457,0.0,1.6349206349206349,0.0,0.0,0.0,0.0,0.0,1.47985347985348,-0.75,0.0,0.0,-1.297924297924298,0.9072039072039072,1.709401709401709,0.0,0.0,0.0,-0.9609279609279608,1.0244200244200243,2.241758241758242,0.0,0.0,0.0,0.0,0.0,1.9133089133089132,0.0,0.0,0.0,0.0,-1.6166056166056166,0.0,0.0,0.0,0.0,0.0,-0.8168498168498168,0.0,0.0,0.0,0.0,-1.2515262515262515,0.0,0.0,0.0,0.0,0.0,0.0,-0.6532356532356532,1.3418803418803418,0.0,0.0,0.0,0.0,-1.6398046398046398,1.68986568986569,0.0,0.0,0.0,0.0,-1.8205128205128205,1.5323565323565325,0.0,0.0,0.0,0.0,-0.8669108669108669,1.5286935286935286,0.0,0.0,0.0,0.0,0.0,2.358974358974359,0.0,0.0,0.0,0.0,-1.0341880341880345,3.091575091575092,0.0,0.0,0.0,0.0,-1.678876678876679,2.924297924297924,0.0,0.0,0.0,0.0,-1.120879120879121,2.36019536019536,0.0,0.0,0.0,0.0,0.0,2.542124542124542,0.0,0.0,0.0,0.0,-0.5543345543345544,2.9975579975579976,0.65625,0.0,0.0,0.0,-1.9010989010989008,2.1575091575091574,0.5625,0.0,0.0,0.8766788766788767,-2.293040293040293,1.6581196581196582,0.0,0.0,0.0,0.0,0.0,1.8327228327228329,0.0,0.0,0.0,-0.9059829059829059,0.6813186813186813,3.0048840048840044,1.03125,0.0,0.0,0.0,-1.2405372405372406,2.4432234432234434,1.34375,0.8125,0.0,1.5665445665445663,-2.915750915750916,0.7777777777777778,0.71875,0.0,0.0,0.6959706959706959,-1.868131868131868,0.0,0.0,0.0,0.0,-0.8974358974358975,0.0,1.3479853479853479,1.03125,0.0,0.0,-1.10989010989011,0.0,1.442002442002442,1.71875,0.8125,0.0,1.332112332112332,-3.3028083028083026,-1.617826617826618,0.0,-0.625,0.0,-2.6935286935286937,0.0,-1.242979242979243,0.0,-0.59375,0.0,-2.313797313797314,0.0,-1.0879120879120878,1.34375,0.78125,0.0,2.357753357753358,-3.1648351648351647,-3.05006105006105,1.4375,0.96875,0.0,1.6593406593406594,-3.0989010989010985,-4.4896214896214905,0.0,0.0,0.0,-1.9951159951159951,0.0,-3.47008547008547,0.0,0.0,0.0,-2.3626373626373627,0.0,-2.4920634920634916,0.0,0.0,0.0,0.0,-1.7789987789987791,-4.523809523809524,0.96875,0.96875,0.0,2.1355311355311355,-2.4688644688644694,-5.336996336996338,0.0,0.0,0.0,-1.2295482295482296,0.0,-3.94993894993895,0.0,0.0,0.0,-1.6446886446886446,1.2210012210012209,-2.42002442002442,0.0,0.0,0.0,1.3003663003663004,-1.4993894993894994,-3.776556776556777,0.78125,0.5625,0.0,0.5824175824175825,-1.336996336996337,-4.264957264957265,0.0,0.0,0.0,-0.8290598290598291,0.0,-2.9951159951159956,0.0,0.0,0.0,0.0,0.0,-2.175824175824176,0.0,0.0,0.0,0.8571428571428571,-0.984126984126984,-2.455433455433456,0.0,0.0,0.0,0.0,-0.6446886446886447,-1.8669108669108667,0.0,0.0,0.0,0.0,0.0,-0.9084249084249084,0.0,0.0,0.0,-0.7277167277167277,0.0,-0.8669108669108669,0.0,0.0,0.0,0.0,-0.5018315018315018,-1.362637362637363,0.0,0.0,0.0,0.7692307692307693,-1.133089133089133,-1.6715506715506716,0.0,0.0,0.0,,,,,,,movNegZ
accX,1.3455433455433456,-2.8766788766788767,0.7032967032967034,-0.8125,0.0,0.0,0.0,-0.6874236874236874,1.4822954822954824,-1.78125,0.0,-0.5625,-0.8339438339438342,0.0,3.768009768009768,-1.15625,0.0,0.0,0.0,0.0,2.913308913308913,0.0,0.0,0.0,0.7167277167277167,-1.031746031746032,2.139194139194139,0.0,0.0,0.0,0.0,-1.1746031746031746,1.6886446886446886,0.0,0.0,0.0,0.0,0.0,2.5579975579975582,-0.65625,0.0,0.0,-1.678876678876679,0.0,2.4713064713064714,0.0,-0.5625,0.0,-0.6691086691086691,-0.8302808302808303,2.064713064713065,0.0,0.0,0.0,0.0,-1.8290598290598292,1.5042735042735045,0.0,0.0,0.0,0.0,-1.321123321123321,1.8742368742368745,0.0,0.0,0.0,0.0,-1.0842490842490842,2.7753357753357752,0.0,0.0,0.0,0.0,-1.1831501831501832,2.8949938949938954,0.0,0.0,0.0,-0.8998778998778999,-1.0586080586080586,2.9181929181929176,0.0,0.0,0.0,-0.7557997557997558,-1.3687423687423688,2.4029304029304033,0.5625,0.8125,0.0,1.1978021978021978,-1.9267399267399268,2.357753357753358,0.0,0.0,0.0,1.4029304029304028,-1.2881562881562882,3.0122100122100113,0.0,-0.75,0.0,-0.7081807081807082,-0.5531135531135531,2.8437118437118434,0.0,-0.5625,0.0,-2.070818070818071,0.0,1.297924297924298,1.03125,0.59375,0.0,-0.912087912087912,-1.619047619047619,0.0,0.90625,1.0625,0.0,0.7326007326007326,-2.0146520146520146,0.0,0.0,0.0,0.0,1.8986568986568984,-1.398046398046398,1.9108669108669107,0.0,-0.5625,0.0,0.0,0.0,1.4945054945054943,0.875,0.0,0.0,-1.0390720390720392,-1.0525030525030523,0.0,1.09375,0.0,0.0,0.0,-1.6837606837606838,-1.1343101343101345,0.75,0.625,0.0,1.3943833943833943,-1.442002442002442,0.0,0.0,0.0,0.0,0.5970695970695971,-0.6532356532356532,0.0,0.0,-1.0625,0.0,-1.9352869352869355,0.0,-1.608058608058608,0.84375,0.0,0.0,-1.5702075702075702,-0.7863247863247863,-2.142857142857143,0.90625,1.28125,0.0,0.0,-0.912087912087912,-1.3699633699633702,0.0,0.96875,0.0,2.3772893772893773,-0.8925518925518926,-0.9255189255189256,0.0,-0.84375,0.0,-1.0305250305250304,0.0,-2.1294261294261294,0.9375,-0.875,0.0,-2.5689865689865687,-1.5433455433455434,-4.219780219780221,1.15625,1.0625,0.0,0.9694749694749696,-2.120879120879121,-4.191697191697192,0.5625,1.34375,0.0,3.175824175824176,-1.761904761904762,-3.601953601953602,0.0,0.0,0.0,-0.6239316239316239,0.8791208791208791,-2.761904761904762,0.0,-0.6875,0.0,-1.948717948717949,0.0,-3.4932844932844933,0.78125,0.0,0.0,0.0,-1.1562881562881564,-4.056166056166056,0.0,0.75,0.0,0.0,-1.0244200244200243,-3.627594627594628,0.0,0.0,0.0,-0.9304029304029304,0.9584859584859584,-1.8803418803418803,0.0,0.0,0.0,-0.7387057387057387,-0.6947496947496947,-2.324786324786325,0.0,0.0,0.0,0.0,-1.2747252747252746,-2.236874236874237,0.0,0.65625,0.0,0.8070818070818071,0.0,0.0,0.0,0.0,0.0,0.0,0.0,0.0,0.0,0.0,0.0,0.0,0.0,-0.5506715506715507,0.0,0.0,0.0,0.0,-1.0122100122100122,-1.637362637362637,0.0,0.0,0.0,0.0,-0.5177045177045178,-1.4151404151404152,0.0,0.0,0.0,0.0,0.0,-1.5262515262515262,0.0,0.0,0.0,0.0,-0.5714285714285714,-2.247863247863248,0.0,0.0,0.0,,,,,,,movNegZ
accX,0.0,0.0,2.9865689865689866,0.0,-1.125,0.0,-0.5042735042735043,-1.3516483516483515,1.8534798534798536,0.0,0.0,0.0,0.6984126984126984,-0.6422466422466423,2.669108669108669,0.0,0.0,0.0,1.1697191697191698,-1.137973137973138,2.0573870573870567,0.0,0.0,0.0,0.0,-0.978021978021978,2.070818070818071,-0.625,0.0,0.0,-0.5873015873015873,-0.9096459096459096,1.943833943833944,0.0,0.0,0.0,0.0,0.0,2.207570207570208,0.0,0.0,0.0,0.0,0.0,2.393162393162393,0.0,0.53125,0.0,0.0,-1.0463980463980465,1.8144078144078144,0.0,0.0,0.0,0.0,-1.15995115995116,1.4334554334554337,0.0,0.0,0.0,-0.5860805860805861,-0.8595848595848596,1.7728937728937728,-0.53125,-0.96875,0.0,-1.2796092796092795,0.0,2.2844932844932844,0.0,0.0,0.0,0.0,-0.5653235653235653,2.7142857142857144,0.0,0.53125,0.0,1.0463980463980465,-1.343101343101343,2.0793650793650795,0.625,0.0,0.0,0.0,-1.6923076923076923,0.7619047619047619,0.0,0.0,0.0,0.0,-1.2527472527472527,0.5543345543345544,0.0,0.0,0.0,-0.8192918192918193,0.0,2.0146520146520146,0.0,0.0,0.0,0.0,0.0,2.4346764346764345,0.0,0.0,0.0,0.0,-1.2832722832722834,0.8962148962148963,0.53125,0.0,0.0,-0.8327228327228328,-1.290598290598291,0.0,0.0,0.0,0.0,-0.7680097680097681,-0.7045177045177046,1.137973137973138,0.0,0.0,0.0,0.0,0.0,2.073260073260073,0.0,0.0,0.0,0.0,-1.164835164835165,1.2234432234432235,0.8125,0.0,0.0,0.0,-1.586080586080586,0.0,0.59375,0.0,0.0,-0.8034188034188035,-0.8962148962148963,0.0,0.0,0.0,0.0,-0.7826617826617827,0.0,1.5555555555555556,0.71875,0.8125,0.0,0.0,-0.6813186813186813,1.474969474969475,1.15625,0.625,0.0,2.7252747252747254,-2.503052503052503,0.0,0.0,0.0,0.0,0.0,-0.8046398046398047,0.0,0.0,0.0,0.0,-1.6935286935286935,0.5604395604395604,0.0,0.65625,0.0,0.0,0.0,0.0,0.0,1.25,0.65625,0.0,1.8913308913308915,-2.0024420024420024,-1.115995115995116,0.78125,0.0,0.0,0.0,-1.0952380952380951,-1.7533577533577531,0.0,0.0,0.0,-1.5677655677655675,0.0,-1.7191697191697193,0.0,0.53125,0.0,-0.8852258852258852,0.7240537240537241,-1.6202686202686205,1.0625,0.5625,0.0,0.0,0.0,-2.621489621489621,1.0,0.0,0.0,-1.1868131868131868,-1.0036630036630036,-4.208791208791209,0.0,0.0,0.0,-1.4358974358974361,0.0,-4.474969474969475,0.0,0.59375,0.0,0.0,0.0,-3.418803418803418,0.6875,0.5625,0.0,1.0634920634920637,-1.2967032967032968,-3.3748473748473753,0.0,0.0,0.0,0.0,-1.4322344322344325,-3.5225885225885225,0.0,0.0,0.0,-0.8766788766788767,0.0,-3.0805860805860807,0.0,0.0,0.0,0.0,0.0,-2.5445665445665444,0.5625,0.0,0.0,1.9206349206349207,-1.0891330891330893,-2.7362637362637363,0.0,0.0,0.0,0.0,-0.8547008547008547,-3.617826617826618,0.0,0.0,0.0,-2.145299145299145,0.7350427350427351,-3.5457875457875456,0.0,0.0,0.0,-0.9304029304029304,0.0,-2.496947496947497,0.0,0.0,0.0,1.0598290598290598,-0.8693528693528694,-1.8632478632478635,0.0,0.0,0.0,0.0,-1.0622710622710625,-1.5604395604395604,0.0,0.0,0.0,0.0,-0.9181929181929182,-1.336996336996337,0.0,0.0,0.0,movNegZ
accX,1.2637362637362637,0.0,2.3003663003662997,0.0,0.0,0.53125,0.0,0.0,2.275946275946276,0.0,-1.21875,0.71875,-1.2039072039072038,0.0,1.4163614163614164,0.0,-0.71875,0.0,-0.9242979242979243,-0.7008547008547008,1.3345543345543345,0.0,0.0,0.0,0.0,-0.6239316239316239,1.728937728937729,0.0,0.5625,0.0,0.7179487179487181,-1.1452991452991452,1.7057387057387057,0.0,0.0,0.0,0.0,-0.818070818070818,1.3174603174603174,0.0,0.0,0.0,0.0,-0.8083028083028083,2.2002442002442004,0.0,0.0,0.0,0.0,-1.2258852258852257,2.1587301587301586,0.0,0.0,0.0,0.0,-1.3882783882783882,1.8534798534798536,0.0,0.0,0.0,0.0,-0.9218559218559218,1.5873015873015872,0.0,0.0,0.0,0.0,0.0,2.877899877899878,-0.65625,0.0,0.0,0.0,0.0,3.496947496947497,0.0,0.0,0.0,0.0,-0.6471306471306472,3.5982905982905984,0.0,0.0,0.0,0.0,-0.5531135531135531,3.5641025641025643,0.0,0.0,0.0,1.4822954822954824,-0.8559218559218559,3.0830280830280827,0.0,0.0,0.0,0.9194139194139194,0.0,3.847374847374848,0.0,-1.40625,0.0,-1.6764346764346765,0.0,3.0012210012210017,0.0,-1.125,0.0,-1.757020757020757,-1.0854700854700854,1.8632478632478635,0.625,0.0,0.0,-1.10989010989011,-1.1868131868131868,1.5726495726495726,0.96875,1.21875,-0.5625,0.0,-1.1355311355311355,1.7264957264957266,0.78125,1.0,0.0,0.0,-0.5531135531135531,1.7557997557997558,0.0,0.0,0.0,-1.575091575091575,0.0,0.5982905982905983,0.0,0.0,0.0,-0.7435897435897436,-1.3003663003663004,0.0,0.96875,0.78125,0.0,1.1404151404151404,-2.573870573870574,-1.120879120879121,0.6875,0.65625,0.0,0.5225885225885226,-1.5286935286935286,-0.8339438339438342,0.0,0.0,0.0,-1.6813186813186811,0.8217338217338217,0.0,0.0,0.0,0.0,0.0,0.0,-0.6507936507936508,1.25,0.875,0.0,2.240537240537241,-2.8461538461538463,-1.9328449328449329,1.28125,1.03125,0.0,1.31990231990232,-2.073260073260073,-1.8217338217338217,0.0,0.0,0.0,-1.332112332112332,0.7167277167277167,-1.4078144078144081,0.0,-0.625,0.0,-2.5750915750915757,0.7960927960927959,-1.4407814407814408,1.0,0.84375,0.0,-0.7228327228327228,-1.26007326007326,-2.1807081807081805,0.84375,1.21875,0.0,2.023199023199023,-2.7252747252747254,-2.0891330891330893,0.0,0.0,0.0,1.724053724053724,-1.3479853479853479,-1.982905982905983,0.0,-0.84375,0.0,-2.3821733821733817,1.1819291819291822,-1.4358974358974361,0.78125,0.0,0.0,-2.449328449328449,0.0,-2.7216117216117217,1.5,0.96875,0.0,1.1501831501831499,-2.9194139194139197,-4.621489621489621,0.5625,0.0,0.0,1.5445665445665446,-1.4908424908424909,-4.457875457875458,0.0,-0.6875,0.0,-1.7606837606837606,1.4554334554334554,-3.3076923076923075,0.71875,0.0,0.0,-2.1636141636141635,0.0,-4.26984126984127,1.25,0.59375,0.0,0.0,-2.235653235653236,-5.5726495726495715,0.0,0.0,0.0,0.0,-0.8913308913308914,-4.05982905982906,-0.53125,0.0,0.0,-0.6739926739926739,0.7008547008547008,-2.409035409035409,0.0,0.0,0.0,0.0,0.0,-1.9572649572649568,0.0,0.0,0.0,,,,,,,,,,,,,,,,,,,,,,,,,,,,,,,movNegZ
accX,0.0,-1.2857142857142858,1.4981684981684982,0.0,0.0,0.0,0.0,0.0,1.3675213675213675,0.0,0.0,0.0,0.0,-0.6202686202686203,1.757020757020757,0.0,0.0,0.0,0.0,-0.6105006105006106,1.5836385836385836,0.0,0.0,0.0,0.0,-0.6691086691086691,0.7997557997557998,0.0,0.0,0.0,0.0,-1.2637362637362637,0.0,0.0,0.0,0.0,0.0,-1.2234432234432235,0.5286935286935287,0.0,0.0,0.0,0.0,-0.7240537240537241,1.5873015873015872,0.0,0.0,0.0,0.0,-1.0989010989010992,1.5506715506715507,0.0,0.0,0.0,0.0,-1.5702075702075702,1.2454212454212454,0.0,0.0,0.0,0.0,-1.5543345543345544,1.3113553113553114,-0.53125,0.0,0.0,0.0,0.0,2.627594627594628,0.0,0.0,0.0,0.0,-0.7057387057387058,3.087912087912088,0.0,0.0,0.0,1.8888888888888888,-2.0463980463980462,2.8156288156288163,0.0,-0.625,0.0,0.6959706959706959,-1.5616605616605617,2.7142857142857144,0.0,-0.875,0.0,-1.6153846153846154,0.0,2.7387057387057387,0.0,0.0,0.0,0.6336996336996337,0.0,2.829059829059829,0.9375,0.96875,0.0,1.4590964590964588,-2.4322344322344316,2.437118437118437,0.0,0.0,0.0,0.0,-1.0769230769230769,2.3174603174603177,0.0,-0.8125,0.0,-1.7887667887667889,0.0,2.584859584859585,0.0,0.0,0.0,-0.6568986568986569,-0.8412698412698413,2.238095238095238,1.5,1.0625,0.0,0.5787545787545788,-2.313797313797314,1.3663003663003663,1.25,0.8125,0.0,0.7411477411477412,-2.21978021978022,0.8644688644688645,0.0,0.0,0.0,-0.5457875457875457,0.0,1.2673992673992671,0.0,0.0,0.0,-0.7875457875457875,0.0,1.1514041514041513,1.09375,0.0,0.0,0.894993894993895,-2.1904761904761907,0.0,1.5,0.9375,0.0,1.0476190476190477,-2.04029304029304,-1.5164835164835164,0.84375,0.0,0.0,0.0,0.0,-1.7130647130647132,0.0,0.0,0.0,-0.6471306471306472,0.5262515262515263,-1.7326007326007329,0.9375,0.0,0.0,1.4529914529914532,-1.1636141636141637,-2.4053724053724053,1.25,0.78125,0.0,1.5958485958485962,-1.2588522588522588,-2.9804639804639805,0.0,0.0,0.0,-1.3699633699633702,0.6764346764346765,-2.122100122100122,0.0,0.0,0.0,-1.5836385836385836,0.5641025641025641,-0.9743589743589745,0.0,0.0,0.0,0.0,-1.205128205128205,-0.7985347985347986,1.0,0.0,0.0,1.4517704517704515,-2.5482295482295485,-2.32967032967033,0.78125,0.0,0.0,0.0,-1.1477411477411477,-3.371184371184371,0.0,0.0,0.0,-1.7179487179487178,0.0,-3.2185592185592187,0.53125,0.0,0.0,-1.1746031746031746,-0.8107448107448108,-3.3760683760683765,1.03125,0.0,0.0,0.9157509157509156,-2.5433455433455427,-4.715506715506716,0.65625,0.0,0.0,-0.6776556776556777,-0.7997557997557998,-4.3699633699633695,0.0,-0.625,0.0,-2.5006105006105006,0.8278388278388278,-3.6666666666666665,0.0,0.0,0.0,-0.7741147741147741,0.0,-3.608058608058608,0.75,0.75,0.0,1.7472527472527473,-2.023199023199023,-3.975579975579976,0.0,0.0,0.0,0.0,-0.7851037851037851,-3.3565323565323566,0.0,0.0,0.0,-0.9072039072039072,0.0,-2.509157509157509,0.0,0.0,0.0,0.0,0.0,-1.894993894993895,0.0,0.0,0.0,,,,,,,,,,,,,,,,,,,,,,,,,movNegZ
accX,0.0,-0.5347985347985348,1.343101343101343,0.0,0.0,0.0,0.0,-0.6446886446886447,1.752136752136752,0.0,0.0,0.0,0.0,-1.1404151404151404,1.5811965811965811,0.0,0.0,0.0,0.0,-1.844932844932845,0.6813186813186813,0.0,0.0,0.0,0.5335775335775336,-1.1868131868131868,0.9755799755799756,0.0,0.0,0.0,0.0,-0.6446886446886447,1.1391941391941391,0.0,0.0,0.0,0.0,0.0,1.661782661782662,0.0,0.0,0.0,-0.7081807081807082,-0.5860805860805861,1.6385836385836383,0.0,0.0,0.0,0.0,-1.0256410256410255,1.485958485958486,0.0,0.0,0.0,0.0,-0.7973137973137974,1.9108669108669107,0.0,0.0,0.0,0.0,-0.8095238095238095,2.4664224664224665,0.0,0.0,0.0,0.0,-0.8131868131868132,2.407814407814408,0.0,0.0,0.0,0.0,-0.6605616605616605,2.2954822954822958,0.0,0.0,0.0,0.0,-0.7008547008547008,2.3040293040293043,0.0,0.0,0.0,0.0,-0.8620268620268621,2.4603174603174605,0.0,0.0,0.0,0.5995115995115995,-1.8498168498168501,2.3162393162393164,0.0,0.0,0.0,0.0,-0.8559218559218559,2.2124542124542126,0.0,-0.625,0.0,-1.9304029304029304,0.6043956043956044,2.2332112332112333,0.0,0.0,0.0,-0.7301587301587301,0.0,2.1770451770451764,1.0,0.90625,0.0,0.7643467643467643,-1.9169719169719168,1.3663003663003663,0.90625,0.75,0.0,0.0,-2.087912087912088,0.0,0.59375,0.0,0.0,0.0,-1.0683760683760684,0.0,0.0,0.0,0.0,-0.6703296703296703,0.0,1.1318681318681318,0.8125,0.59375,0.0,0.0,-0.8864468864468864,1.2307692307692308,1.03125,0.96875,0.0,1.514041514041514,-2.7570207570207566,0.0,0.0,0.0,0.0,-1.2515262515262515,0.0,0.0,0.0,-0.71875,0.0,-1.3931623931623929,0.0,0.0,0.8125,0.0,0.0,2.2527472527472527,-2.7362637362637363,-1.0781440781440779,0.96875,0.875,0.0,2.374847374847375,-2.664224664224664,-1.7435897435897436,0.0,0.0,0.0,0.0,0.0,-1.534798534798535,0.0,-0.875,0.0,-1.380952380952381,1.0732600732600732,-0.6727716727716728,0.0,0.0,0.0,1.0024420024420024,0.0,-0.5995115995115995,1.15625,0.875,0.0,3.3858363858363862,-3.1282051282051277,-2.8363858363858365,1.15625,0.0,0.0,0.6068376068376068,-1.6776556776556777,-3.6166056166056166,0.0,-0.8125,0.0,-1.827838827838828,0.0,-2.484737484737485,0.0,0.0,0.0,0.0,0.0,-1.6923076923076923,0.78125,0.0,0.0,0.8156288156288156,-1.5848595848595848,-2.8669108669108665,1.15625,0.0,0.0,0.0,-2.1233211233211238,-3.7802197802197797,0.59375,0.0,0.0,-1.4078144078144081,0.0,-3.120879120879121,0.0,0.0,0.0,-0.7057387057387058,0.6190476190476191,-2.15018315018315,0.0,0.0,0.0,1.4114774114774116,-0.9694749694749696,-2.57997557997558,0.71875,0.0,0.0,0.0,-1.164835164835165,-3.457875457875458,0.0,0.0,0.0,-1.4969474969474967,0.0,-2.84004884004884,0.0,0.0,0.0,0.0,0.0,-1.5213675213675213,0.0,0.5625,0.0,0.5433455433455433,0.0,-1.5592185592185592,0.0,0.0,0.0,-1.0525030525030523,-0.5006105006105006,-2.236874236874237,0.0,0.0,0.0,-1.028083028083028,-0.6153846153846154,-2.1978021978021984,0.0,0.0,0.0,,,,,,,,,,,,,,,,,,,movNegZ
accX,0.0,0.0,1.3601953601953602,0.0,0.0,0.0,0.0,0.0,1.2148962148962148,0.0,0.0,0.0,0.0,0.0,1.3907203907203909,0.0,0.0,0.0,0.0,-0.9987789987789988,0.5995115995115995,0.0,0.0,0.0,0.5067155067155067,-1.4468864468864469,0.0,0.0,0.0,0.0,0.9658119658119658,-1.020757020757021,1.2857142857142858,0.0,0.0,0.0,0.0,-0.9572649572649572,1.3833943833943834,0.0,0.0,0.0,-1.1123321123321124,-0.6166056166056166,1.424908424908425,0.0,0.0,0.0,-0.8156288156288156,-1.0354090354090355,1.4261294261294262,0.5625,0.71875,0.0,0.7851037851037851,-1.5177045177045176,1.4810744810744811,0.0,0.0,0.0,1.0158730158730158,-1.1135531135531136,1.8571428571428568,0.0,0.0,0.0,0.0,0.0,2.399267399267399,0.0,0.0,0.0,-1.264957264957265,0.0,2.554334554334554,0.0,0.0,0.0,0.0,0.0,2.173382173382173,0.59375,0.0,0.0,0.0,-0.5567765567765568,1.9658119658119655,0.0,0.0,0.0,0.0,0.0,2.0903540903540905,0.0,0.0,0.0,-0.5543345543345544,0.0,2.358974358974359,0.0,0.0,0.0,-0.7020757020757019,0.0,2.061050061050061,0.71875,0.0,0.0,0.0,0.0,1.4102564102564104,0.875,0.5625,0.0,0.0,-0.5079365079365079,0.9352869352869352,0.84375,0.0,0.0,-0.7777777777777778,0.0,0.94993894993895,0.875,0.0,0.0,-0.8803418803418803,-0.73992673992674,0.5421245421245421,0.875,0.65625,0.0,0.0,-0.8888888888888888,0.0,0.6875,0.53125,0.0,0.7338217338217338,0.0,0.5128205128205128,0.65625,0.0,0.0,0.0,0.0,0.0,1.125,0.0,0.0,0.6056166056166056,-1.8229548229548234,-1.9377289377289375,1.0,0.0,0.0,1.31013431013431,-1.4102564102564104,-2.3174603174603177,0.0,0.0,0.0,0.0,0.0,-1.637362637362637,0.0,-0.6875,0.0,-1.52014652014652,0.0,-1.5677655677655675,0.5625,0.0,0.0,-0.7362637362637363,-1.1147741147741148,-2.501831501831502,0.9375,0.0,0.0,1.0293040293040292,-1.8021978021978025,-2.8986568986568986,0.0,0.0,0.0,1.4285714285714286,-1.061050061050061,-2.1636141636141635,0.0,-0.53125,0.0,0.0,0.0,-1.5763125763125765,0.0,-0.875,0.0,-1.84004884004884,0.0,-2.771672771672772,0.0,0.0,0.0,0.0,-0.7960927960927959,-3.0927960927960934,0.5625,0.625,0.0,1.6923076923076923,-1.5286935286935286,-2.498168498168498,0.0,0.0,0.0,0.0,0.0,-2.1404151404151404,0.0,0.0,0.0,-1.568986568986569,0.0,-2.462759462759463,0.0,0.0,0.0,-1.0952380952380951,-0.5225885225885226,-2.778998778998779,0.5625,0.5625,0.0,0.5164835164835165,-1.15995115995116,-2.6324786324786325,0.0,0.625,0.0,0.7619047619047619,-0.6898656898656899,-2.1367521367521367,0.0,0.0,0.0,-0.525030525030525,0.0,-1.7106227106227103,0.0,0.0,0.0,-0.984126984126984,0.0,-1.975579975579976,0.0,0.0,0.0,0.0,0.0,-1.915750915750916,0.0,0.0,0.0,0.0,0.0,-1.6092796092796091,0.0,0.0,0.0,0.0,0.0,-1.164835164835165,0.0,0.0,0.0,,,,,,,,,,,,,,,,,,,,,,,,,movNegZ
accX,0.0,0.0,0.9523809523809524,0.0,0.0,0.0,-0.8754578754578755,-0.514041514041514,0.7619047619047619,0.0,0.0,0.0,-0.63003663003663,0.0,0.7118437118437119,0.0,0.0,0.0,0.0,-0.6373626373626373,0.0,0.0,0.0,0.0,0.0,0.0,0.0,-0.5625,0.0,0.0,0.0,0.0,1.0463980463980465,0.0,0.0,0.0,-0.7704517704517705,0.0,1.7057387057387057,0.0,0.0,0.0,0.0,-0.5482295482295483,1.8388278388278387,0.0,0.0,0.0,0.9181929181929182,-0.5714285714285714,2.335775335775336,0.0,0.0,0.0,0.0,0.0,2.5164835164835164,0.0,0.0,0.0,-0.8815628815628815,0.0,2.573870573870574,0.0,0.0,0.0,-1.115995115995116,0.0,2.3943833943833943,0.0,0.65625,0.0,0.0,-0.5738705738705738,2.268620268620269,0.0,0.0,0.0,0.956043956043956,-0.6984126984126984,2.559218559218559,0.0,0.0,0.0,0.0,-0.5567765567765568,2.9145299145299144,0.0,-0.59375,0.0,-1.9108669108669107,0.0,2.312576312576313,0.59375,0.0,0.0,-0.9743589743589745,-0.663003663003663,2.031746031746032,0.90625,1.09375,0.0,2.1782661782661785,-2.191697191697192,2.709401709401709,0.0,0.0,0.0,1.7106227106227103,-1.010989010989011,3.388278388278388,0.0,-1.34375,0.0,-2.551892551892552,0.9914529914529916,2.291819291819292,0.65625,0.0,0.0,-1.3650793650793651,0.0,0.8925518925518926,1.3125,1.25,0.0,1.6385836385836383,-2.1672771672771667,0.8705738705738706,0.75,0.0,0.0,0.5445665445665445,-1.122100122100122,1.2844932844932846,0.0,0.0,0.0,-1.915750915750916,0.0,0.6117216117216118,0.8125,0.0,0.0,-1.3907203907203909,0.0,0.0,1.40625,0.875,0.0,0.9157509157509156,-1.7680097680097682,-0.5628815628815629,1.03125,0.59375,0.0,0.9743589743589745,-1.7851037851037852,-0.6813186813186813,0.0,0.0,0.0,-1.3125763125763126,0.0,-1.1135531135531136,0.0,0.0,0.0,0.9181929181929182,0.0,-1.5299145299145298,0.8125,0.0,0.0,1.47985347985348,-2.068376068376069,-1.1672771672771671,0.0,0.0,0.0,0.0,-0.9255189255189256,-1.1843711843711844,0.0,0.0,0.0,-1.1465201465201464,0.0,-0.9658119658119658,0.0,0.0,0.0,0.0,-0.7948717948717948,-0.8217338217338217,0.6875,0.0,0.0,0.6312576312576312,-1.9035409035409037,-1.5189255189255189,0.59375,0.625,0.0,0.0,-1.2551892551892552,-2.351648351648352,0.0,0.0,0.0,0.0,0.0,-2.199023199023199,0.0,0.0,0.0,-1.0903540903540905,0.0,-2.593406593406593,0.6875,0.0,0.0,-1.3894993894993894,-1.1831501831501832,-4.330891330891331,1.0,0.0,0.0,1.2063492063492065,-1.7301587301587302,-5.185592185592187,0.0,0.8125,0.0,1.2515262515262515,0.0,-3.813186813186813,0.0,0.0,0.0,-1.7863247863247864,0.0,-3.4481074481074483,0.0,-0.53125,0.0,-1.0085470085470083,-0.6739926739926739,-3.8217338217338215,0.59375,0.5625,0.0,1.4578754578754578,-1.6886446886446886,-4.135531135531137,0.0,0.90625,0.0,0.9853479853479854,0.0,-2.590964590964591,-0.53125,0.0,0.0,-1.9181929181929185,0.9548229548229548,-1.7252747252747254,0.0,0.0,0.0,-1.7606837606837606,0.0,-2.031746031746032,0.0,0.0,0.0,0.0,-1.0,-1.9975579975579976,0.0,0.53125,0.0,0.8351648351648352,-0.7326007326007326,-0.8534798534798534,0.0,0.0,0.0,,,,,,,,,,,,,movNegZ
