,00_accX,00_accY,00_accZ,00_gyroX,00_gyroY,00_gyroZ,01_accX,01_accY,01_accZ,01_gyroX,01_gyroY,01_gyroZ,02_accX,02_accY,02_accZ,02_gyroX,02_gyroY,02_gyroZ,03_accX,03_accY,03_accZ,03_gyroX,03_gyroY,03_gyroZ,04_accX,04_accY,04_accZ,04_gyroX,04_gyroY,04_gyroZ,05_accX,05_accY,05_accZ,05_gyroX,05_gyroY,05_gyroZ,06_accX,06_accY,06_accZ,06_gyroX,06_gyroY,06_gyroZ,07_accX,07_accY,07_accZ,07_gyroX,07_gyroY,07_gyroZ,08_accX,08_accY,08_accZ,08_gyroX,08_gyroY,08_gyroZ,09_accX,09_accY,09_accZ,09_gyroX,09_gyroY,09_gyroZ,10_accX,10_accY,10_accZ,10_gyroX,10_gyroY,10_gyroZ,11_accX,11_accY,11_accZ,11_gyroX,11_gyroY,11_gyroZ,12_accX,12_accY,12_accZ,12_gyroX,12_gyroY,12_gyroZ,13_accX,13_accY,13_accZ,13_gyroX,13_gyroY,13_gyroZ,14_accX,14_accY,14_accZ,14_gyroX,14_gyroY,14_gyroZ,15_accX,15_accY,15_accZ,15_gyroX,15_gyroY,15_gyroZ,16_accX,16_accY,16_accZ,16_gyroX,16_gyroY,16_gyroZ,17_accX,17_accY,17_accZ,17_gyroX,17_gyroY,17_gyroZ,18_accX,18_accY,18_accZ,18_gyroX,18_gyroY,18_gyroZ,19_accX,19_accY,19_accZ,19_gyroX,19_gyroY,19_gyroZ,20_accX,20_accY,20_accZ,20_gyroX,20_gyroY,20_gyroZ,21_accX,21_accY,21_accZ,21_gyroX,21_gyroY,21_gyroZ,22_accX,22_accY,22_accZ,22_gyroX,22_gyroY,22_gyroZ,23_accX,23_accY,23_accZ,23_gyroX,23_gyroY,23_gyroZ,24_accX,24_accY,24_accZ,24_gyroX,24_gyroY,24_gyroZ,25_accX,25_accY,25_accZ,25_gyroX,25_gyroY,25_gyroZ,26_accX,26_accY,26_accZ,26_gyroX,26_gyroY,26_gyroZ,27_accX,27_accY,27_accZ,27_gyroX,27_gyroY,27_gyroZ,28_accX,28_accY,28_accZ,28_gyroX,28_gyroY,28_gyroZ,29_accX,29_accY,29_accZ,29_gyroX,29_gyroY,29_gyroZ,30_accX,30_accY,30_accZ,30_gyroX,30_gyroY,30_gyroZ,31_accX,31_accY,31_accZ,31_gyroX,31_gyroY,31_gyroZ,32_accX,32_accY,32_accZ,32_gyroX,32_gyroY,32_gyroZ,33_accX,33_accY,33_accZ,33_gyroX,33_gyroY,33_gyroZ,34_accX,34_accY,34_accZ,34_gyroX,34_gyroY,34_gyroZ,35_accX,35_accY,35_accZ,35_gyroX,35_gyroY,35_gyroZ,36_accX,36_accY,36_accZ,36_gyroX,36_gyroY,36_gyroZ,37_accX,37_accY,37_accZ,37_gyroX,37_gyroY,37_gyroZ,38_accX,38_accY,38_accZ,38_gyroX,38_gyroY,38_gyroZ,39_accX,39_accY,39_accZ,39_gyroX,39_gyroY,39_gyroZ,40_accX,40_accY,40_accZ,40_gyroX,40_gyroY,40_gyroZ,41_accX,41_accY,41_accZ,41_gyroX,41_gyroY,41_gyroZ,42_accX,42_accY,42_accZ,42_gyroX,42_gyroY,42_gyroZ,43_accX,43_accY,43_accZ,43_gyroX,43_gyroY,43_gyroZ,44_accX,44_accY,44_accZ,44_gyroX,44_gyroY,44_gyroZ,45_accX,45_accY,45_accZ,45_gyroX,45_gyroY,45_gyroZ,46_accX,46_accY,46_accZ,46_gyroX,46_gyroY,46_gyroZ,47_accX,47_accY,47_accZ,47_gyroX,47_gyroY,47_gyroZ,48_accX,48_accY,48_accZ,48_gyroX,48_gyroY,48_gyroZ,49_accX,49_accY,49_accZ,49_gyroX,49_gyroY,49_gyroZ,50_accX,50_accY,50_accZ,50_gyroX,50_gyroY,50_gyroZ,category
accX,0.0,0.0,0.0,0.0,0.0,0.0,0.0,0.0,-0.7411477411477412,0.0,0.0,0.0,0.0,0.0,-0.778998778998779,0.0,0.0,0.0,0.0,0.0,0.0,0.0,0.0,0.0,0.0,0.0,0.6800976800976801,0.0,0.0,0.0,0.0,-0.5457875457875457,-1.4713064713064714,0.0,0.0,0.0,0.0,0.0,-0.706959706959707,-0.5625,0.0,0.0,0.0,0.0,0.0,0.0,0.0,0.0,0.0,0.0,-1.1904761904761905,0.0,0.0,0.0,0.0,-0.6886446886446886,-2.6105006105006106,0.53125,0.0,0.0,0.0,-1.1135531135531136,-4.134310134310135,0.0,0.0,0.0,0.0,-0.7594627594627594,-5.158730158730159,0.0,0.0,0.0,-0.6361416361416361,0.0,-5.7655677655677655,0.0,0.0,0.0,-0.934065934065934,0.0,-6.431013431013431,0.0,0.0,0.0,-2.1794871794871797,0.0,-7.142857142857142,0.0,0.0,0.0,-1.3797313797313795,0.0,-7.112332112332113,0.0,0.78125,0.0,0.0,0.0,-6.809523809523809,0.0,0.8125,0.0,0.0,-1.0976800976800978,-6.255189255189255,0.0,0.5625,0.0,0.0,-2.0463980463980462,-5.747252747252747,0.0,0.53125,0.0,0.9010989010989012,-2.2625152625152625,-4.241758241758242,-0.8125,0.625,0.0,1.463980463980464,-2.31990231990232,-2.288156288156288,-0.96875,0.0,0.0,1.8131868131868127,-2.1074481074481075,-0.8998778998778999,-1.0625,0.0,0.0,2.1770451770451764,-3.1782661782661785,-0.514041514041514,-1.28125,0.0,0.0,0.8424908424908425,-2.2820512820512815,1.0476190476190477,-1.625,0.0,0.0,1.8522588522588523,-2.039072039072039,2.8937728937728937,-1.71875,0.0,0.0,1.0122100122100122,-1.5641025641025639,3.8302808302808304,-1.5,0.0,0.0,0.8656898656898657,-1.5970695970695972,4.424908424908424,-1.125,0.0,0.0,1.2625152625152625,-1.8119658119658117,4.8901098901098905,-0.90625,0.0,0.0,1.2222222222222223,-1.94993894993895,4.974358974358975,-0.9375,0.0,0.0,0.0,-1.5067155067155067,4.814407814407813,-1.1875,0.0,0.0,-0.6788766788766789,0.0,5.831501831501831,-0.84375,0.0,-0.53125,-0.9694749694749696,0.0,6.238095238095237,-0.5625,0.0,0.0,-0.6349206349206349,0.0,5.557997557997558,-0.6875,0.0,0.0,-0.9389499389499391,0.0,5.152625152625153,-0.75,-0.53125,0.0,-0.9389499389499391,0.0,5.126984126984127,-0.65625,0.0,0.0,0.0,0.0,5.332112332112332,0.0,0.0,0.0,-0.8583638583638583,0.0,3.6336996336996337,0.0,0.0,0.0,-0.9804639804639804,0.0,3.3015873015873014,0.0,-0.59375,0.0,-1.122100122100122,0.0,3.0573870573870563,0.0,0.0,0.0,-1.1172161172161172,0.0,2.800976800976801,0.0,0.0,0.0,,,,,,,,,,,,,,,,,,,,,,,,,,,,,,,,,,,,,,,,,,,,,,,,,,,,,,,,,,,,,,,,,,,movPosZ
accX,0.0,0.0,0.0,1.09375,0.0,0.0,0.0,-1.4029304029304028,-0.9902319902319904,0.625,0.0,0.0,0.0,-1.0964590964590966,-1.8644688644688645,0.0,0.0,0.0,-0.5457875457875457,-0.7008547008547008,-1.7680097680097682,-0.75,0.625,0.0,0.0,0.0,0.0,0.0,0.0,0.0,0.0,0.0,0.0,0.0,0.0,0.0,0.0,0.5494505494505495,-0.757020757020757,0.0,0.0,0.0,0.0,0.0,-2.2466422466422467,0.53125,0.0,0.0,0.0,-0.6239316239316239,-4.26984126984127,0.0,0.0,0.0,0.0,-0.5286935286935287,-5.255189255189255,0.0,0.0,0.0,0.0,0.0,-5.398046398046398,0.0,0.0,0.0,0.0,-1.5824175824175823,-6.7606837606837615,0.0,0.0,0.0,0.0,-2.2124542124542126,-7.597069597069598,0.0,0.8125,0.0,1.0634920634920637,-1.844932844932845,-5.9694749694749705,0.0,0.65625,0.0,1.3247863247863247,-1.8083028083028083,-4.8327228327228315,0.0,0.0,-0.53125,0.7106227106227107,-2.4566544566544573,-5.0537240537240535,0.0,0.0,-0.5625,0.9316239316239316,-3.207570207570208,-4.8437118437118425,-0.8125,0.0,-0.6875,0.9536019536019535,-3.1855921855921854,-3.336996336996337,-1.28125,0.0,-0.59375,0.8778998778998779,-2.593406593406593,-1.7118437118437118,-1.53125,0.0,0.0,0.6691086691086691,-1.1843711843711844,0.5946275946275946,-1.59375,0.0,0.0,0.0,-0.7912087912087912,1.7753357753357752,-1.21875,0.0,0.0,0.0,0.0,2.0366300366300365,-0.9375,0.0,0.0,0.73992673992674,0.0,2.8205128205128207,-0.78125,0.0,0.0,0.0,-0.7533577533577533,2.614163614163614,-0.9375,-0.59375,0.0,-0.9267399267399268,-0.5604395604395604,3.0573870573870563,-1.21875,-0.59375,0.0,0.0,-1.275946275946276,3.6593406593406588,-1.25,0.0,0.0,0.0,-1.0695970695970696,4.218559218559219,-1.34375,0.0,0.0,0.6373626373626373,-0.6288156288156288,5.213675213675214,-1.1875,0.0,0.0,0.0,-0.5518925518925519,4.739926739926741,-1.0,-0.53125,0.0,-0.6556776556776557,0.0,4.306471306471306,-0.8125,0.0,0.0,-0.7863247863247863,0.0,4.013431013431013,-0.6875,0.0,0.0,0.0,0.0,4.380952380952381,-0.59375,0.0,0.0,0.0,0.0,4.7203907203907205,0.0,0.0,0.0,0.0,0.0,4.4371184371184365,0.0,0.0,0.0,0.0,0.0,4.3748473748473735,0.0,0.0,0.0,0.0,0.0,3.8253968253968256,0.0,0.0,0.0,0.0,0.0,3.52991452991453,0.0,0.5625,0.0,0.0,-0.9829059829059827,2.829059829059829,0.0,0.0,0.0,0.0,-0.7460317460317459,2.2698412698412698,0.0,0.0,0.0,,,,,,,,,,,,,,,,,,,,,,,,,,,,,,,,,,,,,,,,,,,,,,,,,,,,,,,,,,,,,,,,,,,,,,,,,movPosZ
accX,0.0,0.0,-0.514041514041514,0.0,0.0,0.0,0.0,0.0,0.0,0.0,0.0,0.0,0.0,0.0,0.0,0.9375,0.0,0.0,0.0,-1.0366300366300367,-2.647130647130647,0.75,0.0,0.0,0.0,-0.8424908424908425,-3.6703296703296697,0.0,0.0,0.0,0.0,-0.5860805860805861,-3.418803418803418,0.0,0.0,0.0,0.0,-0.9548229548229548,-3.6056166056166057,0.0,0.0,0.0,0.0,-0.9511599511599512,-4.004884004884005,0.0,0.0,0.0,0.0,-1.1697191697191698,-4.514041514041514,0.0,0.0,0.0,0.0,-1.3443223443223444,-5.158730158730159,0.0,0.0,0.0,0.0,-1.568986568986569,-5.078144078144078,0.0,0.0,0.0,0.0,-1.4432234432234432,-4.8217338217338215,0.0,0.0,0.0,0.0,-1.1746031746031746,-4.456654456654457,0.0,0.0,0.0,0.0,-1.4126984126984128,-4.1550671550671545,0.0,0.0,0.0,0.0,-2.253968253968254,-4.577533577533577,0.0,0.0,0.0,0.0,-2.2515262515262515,-3.868131868131868,-0.8125,0.0,0.0,0.0,-2.0659340659340657,-2.4004884004884004,-1.0625,0.0,0.0,0.6556776556776557,-2.2527472527472527,-1.4053724053724053,-1.25,0.0,0.0,1.164835164835165,-2.175824175824176,0.0,-1.375,0.0,0.0,1.0744810744810744,-1.8510378510378511,0.6312576312576312,-1.53125,0.0,0.0,0.6849816849816851,-1.1282051282051282,1.4737484737484738,-1.40625,0.0,0.0,0.6825396825396826,-1.9059829059829057,1.5091575091575091,-1.46875,0.0,0.0,0.0,-0.9816849816849816,2.3455433455433456,-1.21875,0.0,0.0,0.0,-0.7948717948717948,3.2796092796092795,-0.90625,0.0,0.0,0.0,-1.2210012210012209,2.6263736263736264,-1.03125,0.0,0.0,0.5311355311355311,-1.68986568986569,2.752136752136752,-1.34375,0.0,0.0,0.5213675213675214,-1.6031746031746033,3.73015873015873,-1.5,0.0,0.0,0.0,-0.8901098901098901,4.26984126984127,-1.375,0.0,0.0,0.0,0.0,5.039072039072039,-1.03125,0.0,0.0,0.5201465201465202,0.0,5.7081807081807066,-0.75,0.0,0.0,0.0,0.0,5.628815628815629,-0.59375,0.0,0.0,0.0,0.0,5.065934065934067,-0.625,0.0,0.0,0.0,0.5201465201465202,4.844932844932845,0.0,0.0,0.0,-0.5433455433455433,0.0,3.957264957264957,0.0,0.0,0.0,-0.6507936507936508,0.0,3.111111111111111,0.0,0.0,0.0,-0.6520146520146519,0.0,2.37973137973138,0.0,0.0,0.0,0.0,0.0,2.84981684981685,-0.59375,0.0,0.0,0.0,-0.5787545787545788,2.8461538461538463,-0.53125,0.0,0.0,,,,,,,,,,,,,,,,,,,,,,,,,,,,,,,,,,,,,,,,,,,,,,,,,,,,,,,,,,,,,,,,,,,,,,,,,,,,,,,movPosZ
accX,0.0,1.4590964590964588,0.6153846153846154,0.96875,0.0,0.0,-0.6691086691086691,-1.1147741147741148,-1.2307692307692308,2.125,-0.625,0.0,-0.811965811965812,-1.733821733821734,-4.2735042735042725,1.875,0.0,0.0,0.7765567765567766,-2.166056166056166,-5.048840048840049,0.96875,0.84375,0.0,1.1514041514041513,-1.2319902319902318,-4.151404151404152,0.0,0.0,0.0,0.0,0.0,-4.57020757020757,0.0,0.0,0.0,-0.5628815628815629,-1.0549450549450552,-5.063492063492063,0.0,0.0,0.0,-0.757020757020757,-0.7973137973137974,-5.058608058608058,0.0,0.0,0.0,0.0,-1.6532356532356531,-5.682539682539683,0.0,0.0,0.0,-0.5213675213675214,-2.1404151404151404,-6.597069597069598,0.0,0.0,0.0,0.0,-2.145299145299145,-5.601953601953602,0.0,0.0,0.0,0.0,-2.5482295482295485,-4.835164835164835,0.0,0.0,0.0,0.8449328449328449,-3.1086691086691087,-3.7130647130647128,-0.53125,0.0,0.0,0.8266178266178266,-3.3455433455433456,-3.045177045177045,-0.84375,0.0,0.0,1.434676434676435,-3.051282051282051,-1.7655677655677655,-1.28125,0.0,0.0,1.5995115995115996,-2.0744810744810747,0.0,-1.65625,0.0,0.0,1.247863247863248,-1.4993894993894994,1.0952380952380951,-1.46875,0.0,0.0,0.9401709401709402,-1.0146520146520146,1.887667887667888,-1.1875,0.0,0.0,0.7643467643467643,-1.0964590964590966,1.6544566544566544,-1.15625,-0.53125,0.0,-0.8656898656898657,-0.6398046398046398,1.2673992673992671,-1.1875,0.0,0.0,0.0,0.0,2.4322344322344316,-1.25,0.0,0.0,0.8339438339438342,0.0,3.7045177045177047,-1.25,0.0,0.0,0.0,-0.8412698412698413,3.0781440781440783,-1.375,0.0,0.0,0.0,-0.8608058608058609,2.4896214896214897,-1.4375,0.0,0.0,-0.5641025641025641,0.0,3.829059829059829,-0.9375,0.0,0.0,0.0,0.0,4.157509157509158,0.0,0.0,0.0,0.0,-0.8656898656898657,3.318681318681319,-0.65625,0.0,0.0,0.0,-1.103785103785104,3.268620268620269,-1.25,0.0,0.0,0.0,0.0,4.488400488400488,-1.40625,0.0,0.78125,0.0,0.7557997557997558,4.628815628815629,-0.9375,0.0,0.65625,0.0,0.0,4.102564102564102,0.0,0.0,0.0,0.0,0.0,4.021978021978022,0.0,0.0,0.0,0.0,0.0,3.945054945054945,0.0,0.0,0.0,0.0,0.0,4.017094017094017,0.0,0.0,0.0,0.0,0.0,3.9462759462759465,0.0,0.0,0.0,,,,,,,,,,,,,,,,,,,,,,,,,,,,,,,,,,,,,,,,,,,,,,,,,,,,,,,,,,,,,,,,,,,,,,,,,,,,,,,,,,,,,,,,,,,,,,,,,movPosZ
accX,0.0,-0.5164835164835165,0.0,0.0,0.0,0.0,0.0,-0.7326007326007326,-1.249084249084249,0.0,0.0,0.0,0.0,0.0,-1.1892551892551892,0.0,0.0,0.0,0.0,0.0,-1.3113553113553114,0.0,0.0,0.0,0.0,-0.6715506715506715,-2.5641025641025643,0.0,0.0,0.0,0.0,0.0,-3.36996336996337,0.0,0.0,0.0,-0.6251526251526252,0.0,-4.068376068376068,0.0,0.0,0.0,-2.0329670329670333,0.0,-5.1001221001221,0.0,0.0,0.0,-1.9084249084249083,-1.105006105006105,-5.962148962148963,0.71875,0.0,0.0,-1.3797313797313795,-2.3369963369963367,-7.108669108669107,0.5625,0.53125,0.0,0.0,-2.5103785103785103,-6.763125763125763,0.0,0.59375,0.0,0.0,-1.978021978021978,-5.191697191697192,-0.625,0.5625,0.0,0.0,-1.6068376068376071,-3.5921855921855923,-0.5625,0.0,0.0,0.7264957264957265,-1.876678876678877,-2.515262515262515,0.0,0.0,0.0,1.122100122100122,-3.0268620268620268,-3.772893772893773,0.0,-0.5625,0.0,0.0,-2.9853479853479854,-3.827838827838828,-1.03125,-0.625,0.0,1.3235653235653235,-3.1697191697191696,-1.9169719169719168,-1.46875,0.0,0.0,1.3833943833943834,-2.7777777777777777,0.0,-1.65625,-0.59375,0.0,0.8229548229548229,-2.5946275946275947,0.0,-1.46875,-0.625,0.0,1.15995115995116,-3.1868131868131866,0.0,-1.34375,0.0,0.0,1.021978021978022,-2.1965811965811968,1.442002442002442,-1.4375,0.0,-0.53125,0.7460317460317459,-1.5396825396825398,2.1611721611721606,-1.3125,0.0,0.0,0.851037851037851,-1.2893772893772897,2.827838827838828,-1.28125,0.0,0.0,0.0,-0.5409035409035409,2.8754578754578755,-1.34375,0.0,0.0,0.0,0.0,2.5482295482295485,-1.34375,0.0,0.0,0.0,0.0,3.0805860805860807,-1.28125,0.0,0.0,0.0,0.0,3.864468864468865,-1.21875,0.0,0.0,0.0,0.0,4.295482295482295,-0.84375,0.0,0.0,0.0,0.0,4.307692307692308,-0.8125,0.0,0.0,0.0,0.0,4.196581196581197,-0.78125,0.0,0.0,-0.7912087912087912,0.518925518925519,4.073260073260073,-0.53125,0.0,0.0,-0.5616605616605617,0.0,4.0976800976800964,0.0,0.0,0.0,0.0,-0.5323565323565324,3.5091575091575087,0.0,0.0,0.0,0.0,-1.1562881562881564,2.9365079365079363,-0.75,0.0,0.0,0.0,-0.5543345543345544,4.137973137973138,-0.78125,0.0,0.5625,0.5494505494505495,0.0,5.158730158730159,0.0,0.0,0.0,0.0,0.0,4.605616605616605,0.0,0.0,0.0,,,,,,,,,,,,,,,,,,,,,,,,,,,,,,,,,,,,,,,,,,,,,,,,,,,,,,,,,,,,,,,,,,,,,,,,,,,,,,,,,,,,,movPosZ
accX,0.0,0.0,-0.6483516483516484,0.6875,0.0,0.0,0.0,-0.7179487179487181,-0.818070818070818,0.0,0.0,0.0,0.0,0.0,-0.6800976800976801,0.0,0.0,0.0,0.0,-0.7435897435897436,-0.778998778998779,0.0,0.0,0.0,0.0,0.0,-1.68986568986569,0.0,0.0,0.0,0.0,0.0,-2.031746031746032,0.0,0.0,0.0,0.0,-0.5079365079365079,-2.9255189255189253,0.0,0.0,0.0,-0.6251526251526252,-0.9816849816849816,-4.318681318681318,0.0,0.0,0.0,0.0,-0.9474969474969476,-4.645909645909647,0.0,0.0,0.0,0.0,-1.5262515262515262,-5.029304029304028,0.0,0.0,0.0,0.0,-2.1587301587301586,-5.536019536019536,0.0,0.0,0.0,0.0,-2.838827838827839,-6.269841269841269,0.0,0.0,0.0,0.0,-2.5579975579975582,-6.2002442002442,0.0,0.0,0.0,0.0,-2.511599511599512,-5.35042735042735,0.0,0.0,0.0,0.0,-2.4615384615384617,-4.151404151404152,-0.71875,0.53125,0.0,1.1746031746031746,-2.827838827838828,-2.913308913308913,-0.8125,0.0,0.0,0.9169719169719168,-2.965811965811966,-2.8180708180708183,-1.03125,0.0,0.0,0.8376068376068376,-2.7484737484737485,-1.7155067155067154,-1.4375,0.0,0.0,0.0,-2.131868131868132,-0.5286935286935287,-1.65625,-0.5625,0.0,0.6434676434676435,-1.7435897435897436,0.0,-1.71875,0.0,0.0,1.3150183150183148,-1.3565323565323566,1.061050061050061,-1.875,0.0,0.0,0.0,0.0,2.433455433455433,-1.6875,0.0,-0.59375,0.0,0.0,2.9511599511599518,-1.28125,0.0,0.0,0.0,0.0,2.706959706959707,-0.90625,0.0,0.0,0.0,-0.6800976800976801,1.9072039072039075,-0.9375,0.0,0.0,0.0,0.0,2.8253968253968256,-1.34375,0.0,0.0,0.0,0.0,3.6617826617826617,-1.28125,-0.625,0.0,-0.5921855921855922,0.0,3.671550671550672,-0.90625,-0.65625,0.59375,0.0,-0.8986568986568987,3.418803418803418,-0.5625,0.0,0.0,0.0,0.0,3.637362637362637,-0.59375,0.0,0.0,0.0,0.0,3.8766788766788767,-0.625,0.0,0.0,0.0,0.0,4.537240537240537,-0.75,0.0,0.0,0.0,0.0,4.117216117216117,-0.6875,0.0,0.0,0.0,0.0,4.335775335775336,-0.875,0.0,0.0,0.0,0.894993894993895,5.1892551892551895,-0.6875,0.0,0.0,0.0,0.0,4.442002442002441,0.0,0.0,0.0,0.0,0.0,3.908424908424908,0.0,0.0,0.0,0.0,0.0,3.776556776556777,0.0,0.0,0.0,,,,,,,,,,,,,,,,,,,,,,,,,,,,,,,,,,,,,,,,,,,,,,,,,,,,,,,,,,,,,,,,,,,,,,,,,,,,,,,movPosZ
accX,0.0,0.0,0.0,1.25,0.0,0.0,0.0,-1.020757020757021,-0.8840048840048841,0.9375,0.0,0.0,0.0,-1.8253968253968251,-1.8559218559218558,0.0,0.0,0.0,0.0,0.0,-1.5396825396825398,0.0,0.0,0.0,0.0,0.5470085470085471,-1.0085470085470083,0.0,0.0,0.0,0.0,0.0,-1.3308913308913308,0.78125,0.0,0.0,-0.6031746031746031,-0.6398046398046398,-2.9462759462759465,0.9375,0.0,0.0,-0.9511599511599512,-1.5409035409035412,-4.78998778998779,0.5625,0.0,0.0,0.0,-1.5641025641025639,-5.249084249084249,0.0,0.0,0.0,0.0,-1.2368742368742371,-4.7606837606837615,0.0,0.0,0.0,0.0,-1.7228327228327232,-5.418803418803419,0.0,0.0,0.0,0.0,-1.9926739926739927,-6.424908424908424,0.0,0.0,0.0,-1.2405372405372406,-2.318681318681319,-6.859584859584858,0.0,0.5625,0.0,0.0,-1.9609279609279608,-5.398046398046398,0.0,0.6875,0.0,0.5897435897435898,-2.533577533577533,-4.095238095238095,0.0,0.0,0.0,0.5946275946275946,-3.192918192918193,-3.996336996336997,-0.65625,0.0,0.0,0.873015873015873,-2.409035409035409,-2.9426129426129437,-0.9375,0.0,0.0,0.8583638583638583,-2.8327228327228333,-2.231990231990232,-1.09375,-0.625,0.0,0.0,-2.15995115995116,-1.68009768009768,-1.0,0.0,0.0,0.9474969474969476,-2.3907203907203907,0.0,-1.03125,0.0,0.0,0.7264957264957265,-2.266178266178266,0.0,-1.0625,-0.5625,0.0,1.7716727716727716,-2.7533577533577533,0.0,-1.75,-0.875,0.0,0.7606837606837606,-0.9597069597069596,2.299145299145299,-1.6875,-0.6875,0.0,0.0,-0.9511599511599512,2.769230769230769,-1.3125,0.0,0.0,0.0,-1.0488400488400489,2.5750915750915757,-1.21875,0.0,0.0,0.0,-0.7838827838827839,3.2063492063492065,-1.3125,0.0,0.0,0.0,0.0,3.7338217338217334,-1.21875,0.0,0.0,0.0,0.0,4.476190476190476,-1.03125,0.0,0.0,-0.5286935286935287,0.0,3.8571428571428568,-0.90625,0.0,0.0,0.0,0.0,4.034188034188034,-0.9375,0.0,0.0,0.0,0.0,5.233211233211233,-0.8125,0.0,0.0,-0.6410256410256411,0.9877899877899878,5.471306471306471,-0.71875,0.0,0.0,0.0,1.4188034188034189,5.242979242979243,-0.5625,0.0,0.0,0.0,1.4505494505494505,4.719169719169718,-0.53125,0.0,0.0,0.0,0.73992673992674,4.457875457875458,-0.53125,0.0,0.0,0.0,0.7118437118437119,4.4163614163614175,0.0,0.0,0.0,0.0,0.0,3.6263736263736255,0.0,0.0,0.0,0.0,0.0,2.4542124542124544,0.0,0.0,0.0,,,,,,,,,,,,,,,,,,,,,,,,,,,,,,,,,,,,,,,,,,,,,,,,,,,,,,,,,,,,,,,,,,,,,,,,,,,,,,,movPosZ
accX,0.0,0.0,0.0,1.0625,0.0,0.0,-0.7350427350427351,0.0,-0.8522588522588522,1.5,0.0,0.0,0.0,-1.3296703296703296,-2.183150183150183,1.5,0.0,0.0,0.0,-2.8241758241758244,-4.233211233211233,0.78125,0.0,0.0,0.0,-1.8901098901098898,-3.971916971916972,-0.53125,0.0,0.0,0.9145299145299144,0.0,-2.313797313797314,0.0,0.0,0.0,-0.5750915750915749,-1.0354090354090355,-3.781440781440781,0.75,0.0,0.0,-0.9426129426129426,-1.8644688644688645,-5.42002442002442,1.0625,0.0,0.0,0.0,-2.358974358974359,-5.108669108669108,1.09375,0.0,0.0,0.0,-2.8205128205128207,-5.147741147741148,0.75,0.0,0.0,-0.8083028083028083,-2.8473748473748475,-5.724053724053724,0.0,0.0,0.0,-0.8644688644688645,-2.7008547008547015,-4.219780219780221,0.0,0.0,0.0,0.0,-2.6092796092796093,-3.3943833943833943,0.0,0.0,0.0,0.0,-2.5726495726495733,-2.958485958485958,0.0,0.0,0.0,0.0,-2.7448107448107453,-3.4249084249084247,-0.53125,0.0,-0.5625,0.0,-2.283272283272283,-2.8046398046398044,-0.90625,0.0,0.0,0.0,-2.5665445665445668,-2.122100122100122,-1.28125,0.0,0.0,-0.5347985347985348,-2.52014652014652,-2.523809523809524,-1.9375,0.0,0.0,0.0,-1.6581196581196582,-1.5286935286935286,-2.28125,0.0,0.0,1.10989010989011,-0.8608058608058609,1.4713064713064714,-1.96875,0.0,0.0,0.9523809523809524,-0.94993894993895,2.064713064713065,-1.71875,-0.625,0.0,0.7252747252747253,-1.1355311355311355,1.3797313797313795,-1.65625,0.0,0.0,0.5750915750915749,0.0,1.6654456654456655,-1.46875,0.0,0.0,0.7557997557997558,0.0,2.6764346764346763,-1.34375,0.0,0.0,0.0,0.0,3.326007326007326,-1.34375,0.0,0.0,0.0,-0.7545787545787546,3.3675213675213675,-1.46875,0.0,0.0,0.0,0.0,4.527472527472527,-1.34375,0.0,0.0,0.0,0.5323565323565324,5.062271062271061,-1.03125,0.0,0.0,0.0,0.0,4.666666666666667,-0.875,0.0,0.0,0.0,0.0,4.656898656898657,-0.96875,0.0,0.0,0.0,0.5518925518925519,4.943833943833944,-1.09375,0.0,0.0,0.0,0.7741147741147741,5.1941391941391934,-1.0625,0.0,0.0,0.0,0.0,4.394383394383396,-0.65625,0.0,0.0,0.0,0.0,3.5189255189255184,-0.5625,0.0,0.0,0.0,1.3479853479853479,3.782661782661783,-0.71875,0.0,0.0,0.0,1.3992673992673992,3.609279609279609,-0.6875,0.0,0.0,-0.6642246642246642,1.0048840048840049,3.1843711843711837,-0.53125,0.0,0.0,0.0,0.0,3.147741147741148,0.0,0.0,0.0,,,,,,,,,,,,,,,,,,,,,,,,,,,,,,,,,,,,,,,,,,,,,,,,,,,,,,,,,,,,,,,,,,,,,,,,,,,,,,,movPosZ
accX,0.0,0.8437118437118437,0.0,0.75,0.0,0.0,0.0,0.0,0.0,1.4375,0.0,0.0,-0.5433455433455433,-1.5677655677655675,-2.33943833943834,1.1875,0.0,0.0,0.9328449328449328,-2.5494505494505493,-3.126984126984127,0.0,0.59375,0.0,0.9987789987789988,0.0,-1.6202686202686205,-0.78125,0.0,0.0,-0.6202686202686203,0.0,-1.0781440781440779,0.0,-0.65625,0.0,-0.8229548229548229,-1.020757020757021,-2.9181929181929176,0.0,0.0,0.0,0.0,-1.6532356532356531,-4.039072039072039,0.625,0.0,0.0,0.0,-1.7008547008547008,-4.075702075702075,0.6875,0.0,0.0,0.0,-2.2295482295482296,-4.623931623931624,0.75,0.0,0.0,0.0,-2.5750915750915757,-5.451770451770452,0.625,0.0,0.0,0.0,-2.7765567765567765,-5.474969474969474,0.0,0.0,0.0,0.0,-2.5946275946275947,-4.494505494505495,0.0,0.0,0.0,0.0,-2.1648351648351647,-4.669108669108669,0.0,0.0,0.0,0.0,-2.1904761904761907,-4.446886446886447,0.0,0.0,0.0,0.0,-2.283272283272283,-3.88034188034188,-0.6875,0.0,0.0,0.0,-2.4297924297924296,-2.7387057387057387,-0.9375,-0.65625,0.0,0.0,-2.6715506715506714,-2.653235653235653,-1.25,0.0,0.0,0.6642246642246642,-2.413919413919414,-1.619047619047619,-1.3125,0.0,0.0,1.2588522588522588,-2.072039072039072,0.0,-1.1875,0.0,0.0,1.5518925518925517,-2.288156288156288,0.0,-1.34375,-0.65625,0.0,1.7985347985347986,-2.4163614163614158,0.0,-1.75,-0.8125,0.0,1.2026862026862026,-1.8754578754578757,0.8693528693528694,-1.96875,-0.65625,0.0,0.0,-0.5885225885225885,1.5848595848595848,-1.75,0.0,0.0,0.5262515262515263,0.0,2.2576312576312576,-1.5,0.0,0.0,0.0,0.0,3.0463980463980462,-1.21875,0.0,0.0,0.0,0.0,3.0024420024420024,-1.21875,0.0,0.0,0.0,0.0,2.6581196581196584,-1.375,0.0,0.0,0.0,0.0,3.4017094017094016,-1.28125,0.0,0.0,0.0,0.0,4.417582417582418,-0.9375,0.5625,0.0,0.0,0.0,4.406593406593408,-0.71875,0.0,0.0,0.0,0.7167277167277167,4.285714285714286,-0.65625,0.0,0.0,0.0,0.0,4.078144078144078,-0.84375,0.0,0.0,0.0,0.0,4.084249084249084,-1.09375,0.0,0.0,0.0,0.0,4.575091575091576,-0.9375,0.0,0.0,0.6837606837606838,0.7179487179487181,5.8962148962148975,0.0,0.0,0.0,0.7008547008547008,0.8620268620268621,5.336996336996338,0.0,0.0,0.0,0.0,0.0,3.3076923076923075,0.0,0.0,0.0,0.0,0.0,1.945054945054945,-0.53125,0.0,0.0,,,,,,,,,,,,,,,,,,,,,,,,,,,,,,,,,,,,,,,,,,,,,,,,,,,,,,,,,,,,,,,,,,,,,,,,,movPosZ
accX,0.0,-0.6312576312576312,0.0,1.25,0.0,0.0,0.0,0.0,-1.1868131868131868,1.0625,0.0,0.0,0.0,0.0,-1.4932844932844933,0.96875,0.0,0.0,0.0,-1.2075702075702075,-2.606837606837607,0.6875,0.0,0.0,0.0,-0.5164835164835165,-2.6959706959706957,0.0,0.0,0.0,0.0,0.0,-2.0769230769230766,0.0,0.0,0.0,0.0,-0.8547008547008547,-3.1575091575091574,0.0,0.0,0.0,0.0,-1.5299145299145298,-4.5836385836385825,0.75,0.0,0.0,0.8376068376068376,-2.0781440781440783,-5.221001221001221,0.875,0.0,0.0,0.0,-2.4029304029304033,-5.529914529914531,0.71875,0.0,0.0,0.0,-2.028083028083028,-5.442002442002442,0.0,0.0,0.0,-1.195360195360195,-2.061050061050061,-5.937728937728938,0.0,0.0,0.0,0.0,-1.5958485958485962,-4.661782661782662,0.0,0.0,0.0,0.0,-2.3028083028083026,-3.827838827838828,0.0,0.0,0.0,0.0,-2.2246642246642248,-3.5042735042735043,0.0,0.0,0.0,0.6984126984126984,-2.3345543345543347,-2.7814407814407813,-0.625,0.0,0.0,0.0,-2.0463980463980462,-2.045177045177045,-0.84375,0.0,0.0,0.0,-1.608058608058608,-1.362637362637363,-0.90625,0.0,0.0,0.0,-1.5555555555555556,-1.3736263736263736,-0.96875,0.0,0.0,0.0,-1.4456654456654456,-0.5750915750915749,-1.1875,-0.59375,0.0,0.0,-0.9487179487179488,0.0,-1.40625,-0.65625,0.0,0.0,-0.8168498168498168,0.7289377289377289,-1.46875,0.0,0.0,0.0,-0.6129426129426129,1.4884004884004884,-1.375,0.0,0.0,0.0,0.0,2.15018315018315,-1.25,0.0,0.0,0.7582417582417582,0.0,2.84981684981685,-0.84375,0.0,0.0,0.5970695970695971,-0.6117216117216118,2.4822954822954824,-0.84375,0.0,0.0,0.0,-0.7350427350427351,1.978021978021978,-1.09375,0.0,0.0,0.6202686202686203,-0.6373626373626373,2.045177045177045,-1.375,0.0,0.0,0.0,0.0,2.8571428571428568,-1.125,0.0,0.0,0.0,0.0,3.3504273504273505,-0.625,0.0,0.0,0.0,-0.5177045177045178,3.0073260073260077,-0.625,0.0,0.0,0.0,0.0,3.0463980463980462,-0.84375,0.0,0.0,0.0,0.0,3.42002442002442,-1.0,0.0,0.0,0.0,0.6373626373626373,3.1184371184371185,-1.0625,0.0,0.0,0.0,0.0,3.3443223443223444,-0.96875,0.0,0.0,0.0,0.5323565323565324,3.511599511599512,-0.84375,0.0,0.0,0.0,1.4993894993894994,4.525030525030525,0.0,0.0,0.0,0.0,0.8937728937728938,4.521367521367521,0.0,0.0,0.0,0.0,0.0,2.855921855921856,0.0,0.0,0.0,0.0,0.0,2.47985347985348,-0.625,0.0,0.0,0.0,0.7203907203907204,3.5811965811965814,-0.59375,0.0,0.0,,,,,,,,,,,,,,,,,,,,,,,,,,,,,,,,,,,,,,,,,,,,,,,,,,,,,,,,,,,,,movPosZ
accX,0.0,0.0,-0.7350427350427351,0.0,0.0,0.0,0.0,0.5848595848595849,0.0,1.28125,0.0,0.0,-0.5482295482295483,-1.565323565323565,-1.4065934065934067,1.5,0.0,0.0,-0.5506715506715507,-2.015873015873016,-3.1257631257631258,0.8125,0.0,0.0,0.0,-1.4810744810744811,-3.3455433455433456,0.0,0.75,0.0,0.0,0.0,-1.5286935286935286,-0.59375,0.0,0.0,-1.1025641025641026,0.0,-2.145299145299145,0.0,0.0,0.0,-0.5958485958485958,-1.7216117216117215,-4.1550671550671545,0.78125,0.0,0.0,0.0,-1.9377289377289375,-4.991452991452992,0.96875,0.0,0.0,0.63003663003663,-2.421245421245421,-4.611721611721611,0.9375,0.0,0.0,0.5103785103785103,-2.9609279609279615,-4.94017094017094,0.71875,0.0,0.0,0.0,-3.258852258852259,-5.7264957264957275,0.0,0.0,0.0,0.0,-2.8107448107448105,-5.686202686202687,0.0,0.0,0.0,0.0,-2.1794871794871797,-4.2295482295482305,0.0,0.0,0.0,0.0,-2.05006105006105,-3.553113553113553,0.0,0.0,0.0,0.0,-1.5567765567765568,-2.667887667887668,-0.875,0.0,0.0,1.043956043956044,-1.175824175824176,-0.7423687423687424,-0.96875,0.0,0.0,1.1562881562881564,-0.956043956043956,0.0,-0.6875,0.0,0.0,0.9816849816849816,-1.9072039072039075,-1.2857142857142858,-0.71875,-0.84375,0.0,0.0,-0.5860805860805861,-0.8107448107448108,-1.1875,-0.65625,0.0,0.0,0.0,0.0,-1.15625,0.0,-0.59375,0.0,0.0,0.5128205128205128,-1.28125,0.0,-0.59375,0.0,0.0,1.4444444444444444,-1.25,0.0,0.0,0.0,0.0,1.3040293040293038,-1.1875,-0.96875,0.0,0.0,0.0,0.518925518925519,-1.25,-1.3125,0.0,-0.7887667887667887,0.0,0.78998778998779,-1.1875,-0.5625,0.0,0.0,0.0,1.656898656898657,-0.84375,0.0,0.0,0.0,0.0,2.1526251526251525,-0.6875,0.0,0.0,1.0073260073260073,-0.8473748473748474,2.3553113553113554,-0.71875,0.0,0.0,0.5738705738705738,-1.1868131868131868,1.7326007326007329,-0.96875,0.0,0.0,0.0,0.0,2.4993894993894994,-0.84375,0.0,0.0,0.0,0.0,3.2124542124542126,-0.71875,0.0,0.0,0.5897435897435898,-1.0476190476190477,2.5506715506715505,-1.03125,0.0,0.0,0.5470085470085471,-0.6251526251526252,3.053724053724053,-1.46875,0.0,0.625,-0.57997557997558,0.8962148962148963,4.272283272283272,-1.125,0.0,0.0,0.0,0.6031746031746031,4.288156288156288,-0.5625,0.0,0.0,1.1868131868131868,0.0,4.336996336996338,0.0,0.0,0.0,0.9768009768009768,-0.6654456654456654,3.5506715506715505,-0.65625,0.0,0.0,0.0,0.0,3.4542124542124544,-0.90625,0.0,0.0,0.0,0.5152625152625152,4.153846153846153,-0.625,0.0,0.0,0.0,0.0,3.971916971916972,0.0,0.0,0.0,0.0,0.0,3.1978021978021984,0.0,0.0,0.0,,,,,,,,,,,,,,,,,,,,,,,,,,,,,,,,,,,,,,,,,,,,,,,,,,,,,,,movPosZ
accX,0.0,0.0,0.0,1.125,0.0,0.0,0.0,-1.0085470085470083,0.0,1.4375,0.0,0.0,0.0,-1.3699633699633702,-2.6544566544566544,0.6875,0.0,0.0,0.0,-1.5177045177045176,-2.831501831501832,0.0,0.0,0.0,0.0,0.0,-2.266178266178266,0.0,0.0,0.0,-0.7557997557997558,0.0,-1.728937728937729,0.0,0.0,0.0,-0.5079365079365079,0.0,-3.495726495726496,0.0,0.0,0.0,0.0,-1.8510378510378511,-4.018315018315018,0.0,0.75,0.0,0.8901098901098901,-1.6227106227106227,-3.1794871794871797,0.0,0.0,0.0,0.0,-1.2686202686202686,-3.0927960927960934,0.0,0.0,0.0,-0.5421245421245421,-1.2612942612942613,-3.606837606837607,0.0,0.0,0.0,0.0,-1.5873015873015872,-3.665445665445665,0.0,0.0,0.0,0.0,-1.238095238095238,-2.551892551892552,0.0,0.0,0.0,0.0,-1.5763125763125765,-2.783882783882784,0.0,0.0,0.0,0.0,-1.3565323565323566,-2.415140415140415,0.0,0.0,0.0,0.0,-1.3308913308913308,-2.2649572649572653,0.0,0.0,0.0,0.8534798534798534,-1.442002442002442,-1.3846153846153846,-0.53125,0.0,0.0,0.6752136752136753,-0.873015873015873,0.0,-0.8125,0.0,0.0,0.0,-0.5225885225885226,0.0,-0.8125,0.0,0.0,0.0,-0.5592185592185592,0.0,-0.71875,0.0,0.0,0.0,-0.5763125763125763,0.0,-0.59375,-0.65625,0.0,-0.7411477411477412,0.0,0.0,-0.59375,-0.78125,0.0,0.0,-0.5409035409035409,-0.7423687423687424,-0.5625,-0.53125,0.0,0.0,0.0,-0.5848595848595849,-0.75,0.0,0.0,0.6324786324786325,-0.7960927960927959,0.0,-0.75,0.0,0.0,0.7765567765567766,-1.0134310134310134,0.6178266178266179,-0.875,0.0,0.0,0.5299145299145299,-0.6459096459096461,1.3150183150183148,-0.96875,0.0,0.0,0.0,0.0,1.1831501831501832,-0.78125,0.0,0.0,0.0,-0.9023199023199024,1.2014652014652014,-0.5625,0.0,0.0,0.0,-0.8547008547008547,1.7680097680097682,-0.71875,0.0,0.0,0.0,0.0,2.7423687423687424,-0.90625,0.0,0.0,0.0,0.0,3.2039072039072036,-0.96875,0.0,0.0,0.9291819291819292,0.0,2.783882783882784,-1.25,0.0,0.0,0.0,0.6910866910866911,2.8217338217338215,-1.25,0.0,0.0,-1.0525030525030523,1.194139194139194,2.6984126984126986,-0.75,0.0,0.0,-0.7277167277167277,0.5567765567765568,2.440781440781441,-0.5625,0.0,0.0,0.0,0.0,2.844932844932845,-0.65625,0.0,0.0,0.0,0.0,3.9816849816849818,-0.71875,0.0,0.0,0.0,0.9731379731379732,4.565323565323566,0.0,0.0,0.0,0.0,0.9963369963369964,3.6825396825396814,0.0,0.0,0.0,0.0,0.0,2.6300366300366296,0.0,0.0,0.0,0.0,0.0,2.1465201465201464,0.0,0.0,0.0,-0.778998778998779,0.0,2.203907203907204,0.0,0.0,0.0,,,,,,,,,,,,,,,,,,,,,,,,,,,,,,,,,,,,,,,,,,,,,,,,,movPosZ
accX,0.7155067155067155,0.0,0.0,1.09375,0.0,0.0,0.0,0.0,0.0,1.5,0.0,0.0,-0.9316239316239316,-1.1843711843711844,-2.333333333333333,1.03125,0.0,0.0,-0.5714285714285714,-1.8888888888888888,-3.3028083028083026,0.0,0.0,0.0,0.0,-1.0805860805860803,-2.7496947496947497,0.0,0.0,0.0,0.0,0.0,-1.8901098901098898,0.0,0.0,0.0,-1.4676434676434675,0.0,-3.1343101343101343,0.0,0.0,0.0,-1.3467643467643469,-1.485958485958486,-4.323565323565323,0.0,0.0,0.0,-0.6520146520146519,-0.8608058608058609,-4.272283272283272,0.0,0.5625,0.0,0.0,-1.0024420024420024,-3.305250305250305,0.0,0.0,0.0,0.0,-1.4468864468864469,-3.3443223443223444,0.0,0.0,0.0,0.0,-2.1001221001221,-4.241758241758242,0.5625,0.0,0.0,0.0,-3.0293040293040288,-4.78998778998779,0.0,0.0,0.0,1.1501831501831499,-3.2783882783882783,-4.531135531135531,0.0,0.0,0.0,0.0,-2.7667887667887667,-2.827838827838828,-1.03125,0.0,0.0,0.0,-1.4945054945054943,-2.485958485958486,-0.84375,0.0,0.0,0.0,-1.6007326007326008,-2.031746031746032,-0.5625,0.0,0.0,1.2954822954822955,-2.681318681318681,-1.9816849816849815,-0.75,0.0,0.0,0.5042735042735043,-2.0744810744810747,-1.5787545787545787,-1.375,0.0,0.0,0.0,-0.978021978021978,0.0,-1.625,0.0,0.0,0.0,0.0,0.8669108669108669,-1.15625,0.0,0.0,0.0,-0.7582417582417582,0.7191697191697192,-0.625,0.0,0.0,0.8852258852258852,-1.4713064713064714,0.0,-0.6875,0.0,0.0,0.5347985347985348,-1.0842490842490842,0.0,-1.21875,0.0,0.0,0.5018315018315018,0.0,1.7472527472527473,-1.5,0.0,0.0,0.0,0.0,1.8901098901098898,-1.0625,0.0,0.0,-0.5409035409035409,-0.6324786324786325,1.0476190476190477,-0.53125,0.0,0.0,0.0,-0.7228327228327228,1.5494505494505495,-0.65625,0.0,0.0,0.0,0.0,1.8901098901098898,-0.8125,0.0,0.0,0.0,0.0,2.068376068376069,-0.9375,0.0,0.0,0.0,0.0,2.9890109890109886,-0.9375,0.0,0.0,0.0,0.0,3.3223443223443225,-0.96875,0.0,0.0,0.0,0.0,3.086691086691087,-1.25,0.0,0.0,0.0,1.0,3.2442002442002438,-1.5625,0.0,0.5625,-0.851037851037851,1.9609279609279608,4.5006105006105015,-1.3125,0.0,0.0,-0.989010989010989,1.1465201465201464,4.693528693528694,-0.5625,0.0,0.0,0.0,0.0,4.095238095238095,0.0,0.0,0.0,0.0,0.0,4.2967032967032965,-0.59375,0.0,0.0,0.0,1.0976800976800978,4.777777777777779,-0.6875,0.0,0.0,-0.5201465201465202,1.387057387057387,4.716727716727717,0.0,0.0,0.0,-0.6935286935286935,0.6153846153846154,3.655677655677656,0.0,0.0,0.0,-0.5592185592185592,0.0,3.0073260073260077,0.0,0.0,0.0,0.0,0.0,2.7875457875457874,0.0,0.0,0.0,,,,,,,,,,,,,,,,,,,,,,,,,,,,,,,,,,,,,,,,,,,,,,,,,movPosZ
accX,0.0,0.0,0.0,0.6875,0.0,0.0,0.0,0.0,-0.6471306471306472,0.90625,0.0,0.0,0.0,-1.4493284493284493,-1.6227106227106227,0.6875,0.0,0.0,0.0,-1.3565323565323566,-2.8058608058608057,0.0,0.0,0.0,0.0,0.0,-2.189255189255189,0.0,0.0,0.0,0.0,0.0,-2.1746031746031744,0.0,0.0,0.0,-0.5531135531135531,-0.5164835164835165,-2.8522588522588523,0.0,0.0,0.0,0.0,-1.0891330891330893,-3.7130647130647128,0.0,0.0,0.0,0.0,-1.5079365079365081,-4.068376068376068,0.0,0.0,0.0,0.0,-1.7484737484737485,-4.140415140415141,0.0,0.0,0.0,0.0,-1.8412698412698407,-4.214896214896215,0.0,0.0,0.0,0.0,-2.2576312576312576,-4.752136752136752,0.0,0.0,0.0,0.0,-2.3345543345543347,-5.017094017094017,-0.59375,0.0,0.0,0.0,-1.5702075702075702,-3.9975579975579976,-0.875,0.0,0.0,0.0,-1.3516483516483515,-3.1526251526251525,-1.0,0.0,0.0,0.0,-1.352869352869353,-2.924297924297924,-1.0,0.0,0.0,0.0,-1.623931623931624,-1.824175824175824,-0.875,0.0,0.0,0.0,-1.8388278388278387,-1.534798534798535,-0.96875,0.0,0.0,0.7350427350427351,-1.7838827838827842,0.0,-1.46875,0.0,0.0,1.1819291819291822,0.0,1.474969474969475,-1.5625,0.0,0.0,1.031746031746032,0.0,1.3394383394383391,-1.0625,-0.5625,0.0,0.0,-0.8632478632478633,0.0,-0.875,-0.9375,0.0,0.0,-1.0293040293040292,-0.5177045177045178,-1.1875,-0.6875,0.0,0.0,0.0,0.0,-1.40625,0.0,0.0,0.5995115995115995,0.0,1.4993894993894994,-1.1875,0.0,0.0,0.0,0.0,2.064713064713065,-0.90625,0.0,0.0,0.7252747252747253,0.0,2.225885225885226,-0.75,0.0,0.0,1.2783882783882785,0.0,2.7216117216117217,-0.75,0.0,0.0,0.0,0.0,2.389499389499389,-0.6875,-0.65625,0.0,0.0,0.0,1.7728937728937728,-0.5625,0.0,0.0,0.0,0.0,2.5824175824175826,-0.625,0.0,0.0,0.0,0.0,3.0158730158730163,0.0,0.0,0.0,0.0,-0.5677655677655677,2.8583638583638584,-0.59375,0.0,0.0,0.0,0.0,3.4871794871794872,-0.78125,0.0,0.6875,0.0,0.0,4.3821733821733835,-0.78125,0.0,0.53125,0.6459096459096461,0.9621489621489622,4.815628815628815,0.0,0.0,0.0,0.0,0.0,2.6923076923076925,0.0,0.0,0.0,0.0,0.0,1.6984126984126984,0.0,0.0,0.0,0.0,0.0,2.4993894993894994,-0.78125,0.0,0.0,0.0,0.0,3.753357753357753,-0.71875,0.0,0.0,0.0,0.0,2.7496947496947497,0.0,0.0,0.0,0.0,0.0,1.8998778998779,0.0,0.0,0.0,0.0,-0.5897435897435898,2.21978021978022,0.0,0.0,0.0,,,,,,,,,,,,,,,,,,,,,,,,,,,,,,,,,,,,,,,,,,,,,,,,,movPosZ
accX,0.0,0.0,-0.9267399267399268,0.0,0.0,0.0,0.0,0.0,0.0,1.03125,0.0,0.0,0.0,0.0,0.0,1.21875,0.0,0.0,0.0,-1.2087912087912087,-2.070818070818071,0.6875,0.0,0.0,0.0,-1.3785103785103785,-3.404151404151404,0.0,0.0,0.0,0.0,0.0,-2.5970695970695967,0.0,0.0,0.0,0.0,0.0,-2.283272283272283,0.0,0.0,0.0,0.0,-0.9206349206349206,-3.688644688644689,0.0,0.0,0.0,0.0,-1.4981684981684982,-4.333333333333333,0.0,0.0,0.0,0.0,-1.4871794871794872,-4.396825396825397,0.0,0.0,0.0,0.0,-1.1916971916971917,-3.935286935286935,0.0,0.0,0.0,0.0,-1.9242979242979243,-4.730158730158731,0.0,0.0,0.0,0.0,-1.794871794871795,-4.589743589743589,0.0,0.0,0.0,0.0,-2.2954822954822958,-4.125763125763126,0.0,0.0,0.0,0.0,-2.5885225885225887,-4.199023199023198,0.0,0.0,0.0,0.0,-2.358974358974359,-3.7289377289377286,-0.9375,0.0,0.0,0.0,-1.5177045177045176,-2.0695970695970702,-0.96875,0.0,0.0,0.9743589743589745,-1.978021978021978,-0.6959706959706959,-0.71875,-0.5625,0.0,0.0,-2.3553113553113554,-1.8461538461538465,-0.875,0.0,0.0,0.0,-2.3369963369963367,-0.9145299145299144,-0.96875,0.0,0.0,1.1636141636141637,-1.321123321123321,0.0,-1.15625,0.0,0.0,0.0,-1.462759462759463,0.0,-1.1875,0.0,0.0,0.5213675213675214,-1.0622710622710625,0.0,-1.4375,0.0,0.0,0.9108669108669109,-0.6227106227106227,1.4920634920634919,-1.5,-0.5625,0.0,-0.7045177045177046,0.5665445665445665,2.0488400488400487,-1.3125,-0.6875,0.0,-0.5335775335775336,0.0,1.8974358974358971,-0.8125,0.0,0.0,0.0,0.0,1.5567765567765568,-0.78125,0.0,0.0,0.0,0.0,2.1233211233211238,-0.9375,0.0,0.0,0.0,0.5262515262515263,2.47008547008547,-0.84375,0.0,0.0,-0.5592185592185592,0.8021978021978022,2.8412698412698414,-0.6875,0.0,0.0,-0.5982905982905983,0.6398046398046398,2.9023199023199022,0.0,0.0,0.0,0.0,0.0,2.144078144078144,-0.625,0.0,0.0,0.0,0.0,3.6593406593406588,-1.125,0.0,0.0,0.0,0.0,4.626373626373627,-1.0625,0.0,0.65625,0.0,0.0,4.307692307692308,-0.875,0.0,0.71875,0.0,0.0,4.1782661782661785,0.0,0.0,0.53125,0.0,0.0,4.196581196581197,0.0,0.0,0.0,0.0,-0.7924297924297924,3.996336996336997,0.0,0.0,0.0,0.0,-0.5860805860805861,3.8021978021978016,0.0,0.0,0.0,0.6068376068376068,0.0,3.8766788766788767,-0.5625,0.0,0.0,,,,,,,,,,,,,,,,,,,,,,,,,,,,,,,,,,,,,,,,,,,,,,,,,,,,,,,,,,,,,,,,,,,movPosZ
accX,-0.514041514041514,-0.873015873015873,-1.0647130647130647,1.34375,0.0,0.0,0.0,-2.7216117216117217,-4.294261294261294,0.0,0.0,0.0,0.0,-2.445665445665446,-4.168498168498169,-1.21875,0.5625,0.0,-0.5470085470085471,0.0,-2.7570207570207566,-1.34375,0.0,0.0,-0.5750915750915749,1.4053724053724053,-1.0244200244200243,0.0,0.0,0.0,-1.5018315018315018,0.0,-2.8717948717948723,0.9375,0.0,0.0,0.0,-2.4615384615384617,-5.736263736263736,0.0,0.71875,0.0,0.0,-1.794871794871795,-5.222222222222221,0.0,0.71875,0.0,0.6703296703296703,-1.0903540903540905,-3.606837606837607,0.0,0.0,0.0,0.0,-0.9597069597069596,-3.3687423687423688,0.0,0.0,0.0,0.0,-1.0293040293040292,-3.4615384615384617,0.0,0.0,0.0,0.0,-1.9242979242979243,-4.2173382173382175,0.0,0.0,0.0,0.5225885225885226,-1.7545787545787546,-3.391941391941392,-0.625,0.0,0.0,0.0,-1.1892551892551892,-2.1526251526251525,-0.78125,0.0,0.0,0.0,-0.9975579975579976,-1.586080586080586,-0.59375,0.0,0.0,0.818070818070818,-0.9523809523809524,-1.010989010989011,0.0,0.0,0.0,2.012210012210012,-2.0903540903540905,-1.0195360195360197,-0.53125,-0.84375,0.0,1.0463980463980465,-1.442002442002442,-0.7924297924297924,-0.65625,-0.53125,0.0,0.8168498168498168,-1.647130647130647,-0.6849816849816851,-0.65625,-0.53125,0.0,0.7301587301587301,-1.8485958485958487,0.0,-0.9375,-0.71875,0.0,0.8876678876678876,-0.9865689865689866,1.336996336996337,-0.71875,-0.8125,0.0,1.017094017094017,-1.0195360195360197,1.1477411477411477,-0.65625,-0.84375,0.0,0.0,0.0,0.0,-0.6875,0.0,0.0,-0.5775335775335775,0.0,1.1526251526251523,-0.75,0.0,0.0,0.0,0.0,2.36019536019536,-0.90625,0.0,0.0,0.0,0.0,2.452991452991453,-0.96875,0.0,0.0,0.0,0.0,3.147741147741148,-0.9375,0.0,0.0,0.0,0.0,3.7387057387057383,-0.78125,0.0,0.0,0.0,0.0,2.8058608058608057,-0.65625,0.0,0.0,-0.6385836385836385,0.0,1.8034188034188037,-0.8125,0.0,0.0,-0.8229548229548229,0.8327228327228328,2.8424908424908426,-0.90625,0.0,0.0,0.0,1.0879120879120878,3.496947496947497,-0.84375,0.0,0.0,0.0,0.0,3.5457875457875456,-0.8125,0.0,0.0,0.0,0.0,3.3345543345543347,-0.84375,0.0,0.0,0.0,0.6923076923076923,3.8437118437118434,-0.625,0.0,0.0,0.0,0.0,3.752136752136752,0.0,0.0,0.0,0.0,0.0,2.9804639804639805,-0.5625,0.0,0.0,0.0,0.0,3.586080586080586,-0.71875,0.0,0.0,0.0,0.6886446886446886,4.3577533577533565,0.0,0.0,0.0,,,,,,,,,,,,,,,,,,,,,,,,,,,,,,,,,,,,,,,,,,,,,,,,,,,,,,,,,,,,,,,,,,,,,,,,,movPosZ
accX,0.0,0.0,-0.5677655677655677,0.0,0.0,0.0,0.0,0.0,0.0,0.0,0.0,0.0,0.0,-0.7960927960927959,0.0,0.71875,0.0,0.0,0.0,-1.0891330891330893,-0.9584859584859584,0.59375,0.0,0.0,0.0,-0.9474969474969476,-1.5433455433455434,0.0,0.0,0.0,-0.5054945054945055,0.0,-1.5702075702075702,0.0,0.0,0.0,0.0,0.8302808302808303,-1.3858363858363858,0.0,0.0,0.0,-0.6654456654456654,1.0256410256410255,-1.6727716727716728,0.59375,0.0,0.0,-0.9072039072039072,0.0,-3.0390720390720385,0.875,0.0,0.0,0.0,-1.537240537240537,-4.295482295482295,0.5625,0.0,0.0,0.0,-1.3028083028083028,-4.394383394383396,0.0,0.0,0.0,-0.5995115995115995,-0.6971916971916972,-4.4041514041514045,0.0,0.0,0.0,0.0,-0.7619047619047619,-3.9951159951159956,0.5625,0.0,0.0,0.9731379731379732,-2.148962148962149,-3.665445665445665,0.84375,0.0,0.0,0.6593406593406593,-2.8437118437118434,-4.9865689865689875,0.59375,0.0,-0.5625,0.0,-2.294261294261294,-6.16971916971917,0.0,0.0,-0.625,-0.9218559218559218,-2.4725274725274726,-6.982905982905983,0.0,0.0,0.0,0.0,-2.376068376068376,-5.363858363858364,-1.0,0.0,0.0,0.7777777777777778,-2.2808302808302807,-3.043956043956044,-1.3125,0.0,0.0,1.094017094017094,-1.706959706959707,-1.043956043956044,-1.1875,-0.9375,0.0,0.0,-1.7875457875457876,-1.0549450549450552,-1.1875,-0.59375,0.0,0.0,-0.8986568986568987,-0.6691086691086691,-1.15625,0.0,0.0,0.5091575091575091,0.0,0.9706959706959708,-1.0,0.0,0.0,0.0,0.0,1.7106227106227103,-0.90625,0.0,0.0,0.6874236874236874,-0.5372405372405372,1.5775335775335777,-1.28125,-0.875,0.0,0.0,0.0,1.3663003663003663,-1.59375,-0.78125,0.0,0.0,0.8656898656898657,2.4652014652014653,-1.375,0.0,0.0,0.0,1.1868131868131868,3.324786324786325,-0.71875,0.0,0.0,-1.0598290598290598,0.0,2.4566544566544573,0.0,0.0,0.0,-0.7118437118437119,-1.3882783882783882,1.0683760683760684,-0.59375,0.0,0.0,0.0,-1.879120879120879,1.5262515262515262,-1.3125,0.0,0.0,0.0,-0.9987789987789988,3.173382173382173,-1.15625,0.0,0.6875,-0.8986568986568987,0.0,2.913308913308913,-0.53125,0.0,0.0,0.0,0.0,2.769230769230769,0.0,0.625,0.0,0.0,-0.8583638583638583,3.06959706959707,0.0,0.90625,0.0,0.8669108669108669,-1.5335775335775337,3.615384615384616,-1.09375,0.0,0.0,0.7912087912087912,0.0,4.991452991452992,-1.5,-0.78125,1.0625,0.7594627594627594,0.0,5.321123321123321,-0.96875,-0.78125,0.9375,0.0,-0.6678876678876678,2.9951159951159956,0.0,0.0,0.0,0.0,-1.8302808302808304,2.0476190476190474,0.0,0.0,0.0,0.0,-1.4114774114774116,2.2625152625152625,-0.53125,0.0,0.0,0.0,-0.514041514041514,3.7387057387057383,-1.0,0.0,0.53125,0.5433455433455433,0.6642246642246642,4.53968253968254,-0.71875,-0.5625,0.0,0.0,0.9462759462759462,3.9181929181929176,0.0,0.0,0.0,0.0,0.0,2.562881562881563,0.0,0.0,0.0,,,,,,,,,,,,,,,,,,,,,,,,,,,,,,,,,,,,,movPosZ
accX,0.0,-0.912087912087912,-1.2319902319902318,1.0,0.0,0.0,-0.557997557997558,-0.9316239316239316,-2.5726495726495733,0.5625,0.0,0.0,-0.8547008547008547,0.0,-2.3015873015873014,0.0,0.0,0.0,0.0,0.0,-2.556776556776557,0.0,0.0,0.0,-0.5897435897435898,0.0,-2.7301587301587302,0.0,0.0,0.0,0.0,0.0,-2.7240537240537246,0.53125,0.0,0.0,0.0,-0.518925518925519,-3.034188034188034,0.90625,0.0,0.0,0.0,-1.2796092796092795,-4.075702075702075,0.75,0.78125,0.0,0.0,-1.051282051282051,-4.371184371184371,0.0,0.625,0.0,0.0,-1.0415140415140416,-4.0415140415140405,0.0,0.0,0.0,0.0,-1.338217338217338,-4.224664224664225,0.0,0.0,0.0,1.0647130647130647,-2.3785103785103785,-4.075702075702075,0.0,0.0,0.0,0.8327228327228328,-2.8327228327228333,-4.514041514041514,-0.59375,0.0,0.0,0.0,-1.8974358974358971,-3.954822954822955,-0.90625,0.0,0.0,0.6446886446886447,-1.9365079365079363,-3.1843711843711837,-1.03125,0.0,0.0,0.0,-1.1575091575091576,-2.1062271062271063,-0.84375,-0.53125,0.0,0.0,-1.247863247863248,-1.103785103785104,0.0,0.0,0.0,0.0,-1.9206349206349207,-1.8583638583638584,-0.71875,0.0,0.0,0.0,-1.3284493284493284,-1.3247863247863247,-1.09375,0.0,0.0,0.5921855921855922,0.0,0.0,-0.96875,0.0,0.0,0.0,-0.5457875457875457,0.0,-0.8125,0.0,0.0,0.0,-0.6984126984126984,0.0,-0.84375,-0.5625,0.0,0.0,-1.1172161172161172,0.0,-1.25,-0.71875,0.0,0.0,0.0,0.0,-1.40625,0.0,0.0,0.0,0.0,2.1721611721611715,-0.75,0.0,0.0,0.0,0.0,1.8205128205128205,0.0,0.0,0.0,1.177045177045177,0.0,1.05006105006105,-0.5625,0.0,0.0,0.0,0.0,0.7264957264957265,-1.15625,-0.6875,0.0,-1.7106227106227103,0.8315018315018315,0.7521367521367521,-1.21875,0.0,0.0,-0.5445665445665445,1.1282051282051282,2.6959706959706957,-0.75,0.0,0.0,0.0,0.0,3.6825396825396814,-0.65625,0.0,0.0,0.0,-1.0757020757020757,1.8021978021978025,-1.28125,-0.53125,0.0,0.0,0.0,2.6092796092796093,-1.71875,0.0,0.5625,-0.5042735042735043,0.7728937728937729,4.01953601953602,-1.34375,0.0,0.0,-0.7924297924297924,0.0,3.973137973137973,-0.59375,0.0,0.0,0.0,-0.5885225885225885,4.004884004884005,0.0,0.0,0.0,0.0,0.0,4.032967032967034,-0.53125,0.0,0.0,0.0,0.0,3.980463980463981,-0.84375,0.0,0.0,0.0,0.7838827838827839,4.327228327228327,-0.8125,0.0,0.0,-1.1697191697191698,0.0,3.501831501831502,0.0,0.0,0.0,-0.8986568986568987,-1.1172161172161172,2.267399267399268,0.0,0.0,0.0,-0.5457875457875457,-1.006105006105006,2.0329670329670333,0.0,0.0,0.0,0.0,0.0,2.7118437118437115,0.0,0.0,0.0,,,,,,,,,,,,,,,,,,,,,,,,,,,,,,,,,,,,,,,,,,,,,,,,,movPosZ
accX,0.0,0.0,-1.103785103785104,0.0,0.0,0.0,0.0,0.0,-0.5091575091575091,0.0,0.0,0.0,0.0,-0.6141636141636142,0.0,0.78125,0.0,0.0,0.0,-0.7948717948717948,-0.7435897435897436,1.15625,0.0,0.0,0.0,-2.029304029304029,-3.3724053724053724,0.5625,0.0,0.0,0.0,-0.9242979242979243,-3.7704517704517695,-0.71875,0.0,0.0,0.0,1.264957264957265,-1.9365079365079363,-1.0,0.0,0.0,-1.017094017094017,1.061050061050061,-2.1074481074481075,0.0,0.0,0.0,0.0,-0.7948717948717948,-3.716727716727717,0.59375,0.0,0.0,0.0,-1.5946275946275947,-5.203907203907204,0.0,0.0,0.0,0.0,-0.9352869352869352,-4.409035409035409,0.0,0.0,0.0,0.0,-0.7521367521367521,-3.708180708180708,0.0,0.0,0.0,0.0,-0.6764346764346765,-3.763125763125763,0.0,0.0,0.0,0.0,-1.4664224664224663,-4.223443223443224,0.0,0.0,0.0,0.0,-2.1794871794871797,-4.609279609279608,0.0,0.0,0.0,0.0,-1.8253968253968251,-3.731379731379731,0.0,0.0,0.0,0.0,-1.4896214896214897,-2.9316239316239314,0.0,0.0,0.0,0.0,-1.68009768009768,-1.434676434676435,0.0,0.0,0.0,0.0,-1.0598290598290598,-0.8656898656898657,0.0,0.0,0.0,0.0,-1.4603174603174602,-1.575091575091575,-0.84375,0.0,0.0,0.5787545787545788,-1.2625152625152625,-0.6935286935286935,-1.03125,-0.59375,0.0,0.568986568986569,0.0,0.0,-0.90625,-0.78125,0.0,0.0,0.0,0.0,-0.84375,0.0,0.0,0.9645909645909646,-0.6996336996336996,0.0,-0.90625,0.0,0.0,1.3455433455433456,-1.0915750915750917,0.6153846153846154,-0.90625,-0.625,0.0,0.0,-0.7594627594627594,0.6568986568986569,-0.875,-0.6875,0.0,0.0,-0.6117216117216118,0.5750915750915749,-0.875,0.0,0.0,0.0,-0.7191697191697192,0.9133089133089132,-0.875,0.0,0.0,0.0,0.0,1.8669108669108667,-0.71875,0.0,0.0,0.5177045177045178,-0.5824175824175825,2.717948717948718,-0.5625,0.0,0.0,0.0,-0.5641025641025641,2.0024420024420024,-0.75,0.0,0.0,0.0,0.0,1.8803418803418803,-1.0,0.0,0.0,0.0,-0.5128205128205128,2.1514041514041518,-1.21875,0.0,0.0,0.0,0.0,3.94993894993895,-1.0,0.0,0.0,-0.6092796092796092,0.0,4.274725274725275,-0.71875,0.0,0.0,0.0,0.0,4.733821733821734,-0.625,0.0,0.0,0.0,1.0769230769230769,4.768009768009769,-0.65625,0.0,0.0,0.0,1.1892551892551892,3.9536019536019538,-0.8125,0.0,0.0,-0.9853479853479854,1.0341880341880345,3.6336996336996337,-0.75,0.0,0.0,-0.971916971916972,0.5115995115995116,3.4505494505494507,0.0,0.0,0.0,-0.7545787545787546,0.0,3.511599511599512,0.0,0.0,0.0,-0.6593406593406593,0.6105006105006106,3.6471306471306466,0.0,0.0,0.0,-0.5909645909645911,0.0,3.5360195360195363,0.0,0.0,0.0,,,,,,,,,,,,,,,,,,,,,,,,,,,,,,,,,,,,,,,,,,,,,,,,,movPosZ
accX,0.0,0.0,-1.1452991452991452,0.0,0.0,0.0,0.0,0.0,0.0,0.0,0.0,0.0,0.0,0.0,-0.8913308913308914,0.59375,0.0,0.0,0.0,-0.5396825396825397,-1.8119658119658117,0.0,0.0,0.0,0.0,-0.5457875457875457,-2.04029304029304,0.0,0.0,0.0,0.0,0.0,-2.1672771672771667,0.0,0.0,0.0,-0.6361416361416361,0.0,-2.481074481074481,0.0,0.0,0.0,0.0,-0.5824175824175825,-2.8864468864468864,0.0,0.0,0.0,0.0,-1.6727716727716728,-4.190476190476192,0.6875,0.0,0.0,0.0,-2.0268620268620268,-5.7203907203907205,0.0,0.0,0.0,0.0,-1.5934065934065933,-5.852258852258853,0.0,0.71875,0.0,0.0,-1.382173382173382,-4.504273504273504,0.0,0.0,0.0,0.0,-1.4615384615384617,-4.3589743589743595,0.0,0.0,0.0,0.0,-1.8302808302808304,-4.371184371184371,0.0,0.0,0.0,0.0,-1.5824175824175823,-3.9792429792429793,-0.6875,0.0,0.0,0.0,-0.6227106227106227,-2.5921855921855923,-0.59375,0.0,0.0,0.6166056166056166,0.0,-1.2588522588522588,0.0,0.0,0.0,0.0,-1.3724053724053724,-1.6507936507936507,0.0,0.0,0.0,0.0,-1.7179487179487178,-2.092796092796093,-0.71875,0.0,0.0,0.0,-1.1452991452991452,-0.8058608058608059,-0.75,0.0,0.0,0.0,-0.6947496947496947,0.0,-0.71875,0.0,0.0,0.0,-0.6776556776556777,0.0,-0.90625,0.0,0.0,0.0,-0.6031746031746031,0.0,-0.90625,0.0,0.0,0.0,-0.5299145299145299,0.9597069597069596,-0.84375,-0.59375,0.0,0.0,0.0,1.0390720390720392,-0.78125,-0.53125,0.0,0.0,0.0,1.321123321123321,-0.9375,0.0,0.0,0.0,0.0,1.5836385836385836,-0.9375,0.0,0.0,0.0,-0.568986568986569,1.709401709401709,-1.03125,0.0,0.0,0.0,0.0,2.2295482295482296,-1.0,0.0,0.0,0.0,0.0,2.495726495726496,-0.9375,0.0,0.0,0.0,0.0,2.421245421245421,-1.03125,0.0,0.0,0.0,0.0,2.8547008547008548,-1.0625,0.0,0.0,0.0,0.0,3.501831501831502,-1.09375,0.0,0.6875,0.0,0.0,3.4932844932844933,-1.03125,0.0,0.71875,0.0,0.0,3.47985347985348,-0.6875,0.0,0.0,0.0,0.0,4.61050061050061,0.0,0.0,0.0,0.6251526251526252,-0.5738705738705738,4.15995115995116,0.0,0.0,0.0,0.0,0.0,3.8534798534798536,-0.59375,0.0,0.0,-0.6581196581196581,0.5335775335775336,3.172161172161172,0.0,0.0,0.0,-0.8669108669108669,0.0,2.7753357753357752,0.0,0.0,0.0,0.0,0.0,2.884004884004884,0.0,0.59375,0.0,0.0,-0.7619047619047619,2.7557997557997562,0.0,0.0,0.0,0.0,0.0,2.705738705738706,0.0,0.0,0.0,,,,,,,,,,,,,,,,,,,,,,,,,,,,,,,,,,,,,,,,,,,,,,,,,movPosZ
accX,0.0,-1.8144078144078144,-4.158730158730159,0.0,0.0,0.0,0.0,0.0,-1.7765567765567765,0.0,0.0,0.0,0.0,0.6446886446886447,-1.0,0.0,0.0,0.0,0.0,-0.5567765567765568,-2.094017094017094,1.03125,0.0,0.0,0.0,-2.3943833943833943,-4.412698412698413,1.15625,0.0,0.0,0.6568986568986569,-1.7252747252747254,-3.925518925518925,0.5625,0.0,0.0,-0.5128205128205128,-1.6947496947496947,-4.3760683760683765,0.0,0.0,0.0,-0.8766788766788767,-1.6422466422466422,-5.08058608058608,-0.5625,0.0,0.0,0.0,-0.9145299145299144,-3.947496947496948,-0.8125,0.0,0.0,0.0,-0.9389499389499391,-2.8351648351648358,0.0,0.0,0.0,0.0,-1.5677655677655675,-3.3528693528693534,0.0,0.0,0.0,0.6788766788766789,-1.6776556776556777,-3.4224664224664223,-0.5625,0.0,0.0,0.7423687423687424,-1.6312576312576312,-3.0109890109890114,-0.6875,-0.53125,0.0,0.0,-1.5775335775335777,-2.3162393162393164,-0.59375,-0.6875,0.0,0.0,-1.5335775335775337,-2.0378510378510377,0.0,0.0,0.0,0.0,-1.363858363858364,-2.023199023199023,0.0,0.0,0.0,0.7594627594627594,-1.652014652014652,-1.5042735042735045,-0.65625,0.0,0.0,0.7692307692307693,-1.1855921855921856,-0.6727716727716728,-0.9375,0.0,0.0,0.0,-1.2002442002442002,-0.6043956043956044,-1.25,0.0,0.0,0.0,-1.3223443223443223,0.0,-1.5,0.0,0.0,0.568986568986569,-0.78998778998779,1.6092796092796091,-1.40625,0.0,0.0,0.0,0.0,2.4285714285714284,-1.03125,0.0,0.0,0.0,0.0,2.1746031746031744,-0.90625,0.0,0.0,0.0,0.0,2.1770451770451764,-1.03125,0.0,0.0,0.0,0.0,2.4004884004884004,-1.1875,0.0,0.0,0.0,0.0,2.752136752136752,-1.1875,0.0,0.0,0.0,0.0,2.952380952380953,-1.09375,0.0,0.0,0.0,0.0,3.1184371184371185,-0.8125,0.0,0.0,0.0,0.0,3.6166056166056166,0.0,0.0,0.0,0.0,0.0,3.4432234432234434,-0.53125,0.0,0.0,0.5934065934065934,0.0,3.3455433455433456,-0.84375,0.0,0.0,0.0,0.0,3.7997557997558,-1.0,0.0,0.0,0.0,0.978021978021978,4.501831501831502,-0.53125,0.0,0.0,-0.7020757020757019,0.0,3.0012210012210017,0.0,0.0,0.0,0.0,0.0,2.8644688644688645,0.0,0.0,0.0,0.0,0.0,2.7081807081807083,0.0,0.0,0.0,0.0,-0.9633699633699634,0.9621489621489622,0.0,0.0,0.0,0.0,0.0,1.4297924297924298,-0.9375,0.0,0.53125,0.0,0.5775335775335775,2.3919413919413923,-0.90625,0.0,0.0,,,,,,,,,,,,,,,,,,,,,,,,,,,,,,,,,,,,,,,,,,,,,,,,,,,,,,,,,,,,,,,,,,,,,,,,,movPosZ
accX,0.0,-1.6752136752136753,-1.4822954822954824,1.3125,0.0,0.0,0.0,-2.467643467643468,-2.771672771672772,0.0,0.0,0.0,0.0,-0.8681318681318682,-2.1135531135531136,-0.6875,0.0,0.0,0.0,0.9829059829059827,0.0,0.0,0.0,0.0,-1.0073260073260073,0.5396825396825397,-0.6031746031746031,0.8125,0.0,0.0,0.0,-1.8693528693528692,-3.1697191697191696,1.125,0.0,0.0,0.6105006105006106,-2.1001221001221,-4.199023199023198,0.0,0.0,0.0,0.0,-0.8901098901098901,-2.8852258852258847,0.0,0.0,0.0,-0.7277167277167277,-0.7997557997557998,-3.238095238095238,0.0,0.0,0.0,0.0,-1.8669108669108667,-4.283272283272283,0.0,0.0,0.0,0.0,-2.3846153846153846,-4.638583638583639,0.0,0.0,0.0,1.0964590964590966,-1.9304029304029304,-3.6166056166056166,0.0,0.0,0.0,0.7875457875457875,-1.5494505494505495,-3.4273504273504267,0.0,0.0,0.0,0.5457875457875457,-1.424908424908425,-3.3687423687423688,-0.59375,0.0,0.0,0.0,-1.336996336996337,-3.0134310134310134,-0.8125,-0.53125,0.0,-0.9645909645909646,-0.757020757020757,-2.5836385836385842,-0.6875,0.0,0.0,-1.043956043956044,-1.249084249084249,-2.565323565323565,-0.6875,0.0,0.0,0.0,-1.4835164835164836,-2.1587301587301586,-0.84375,0.0,0.0,0.0,-1.1257631257631258,-1.4664224664224663,-0.90625,0.0,-0.59375,0.0,-0.6214896214896215,-0.8131868131868132,-0.71875,0.0,0.0,0.0,-0.8632478632478633,0.0,-0.8125,0.0,0.0,0.0,0.0,0.0,-0.78125,-0.625,0.0,0.0,-1.5238095238095235,0.0,-1.0625,0.0,0.0,0.0,-1.0976800976800978,0.0,-1.3125,0.0,0.0,0.9926739926739928,-1.010989010989011,1.5628815628815629,-1.25,-0.5625,0.0,0.0,-1.0732600732600732,1.485958485958486,-1.25,-0.8125,0.0,0.0,-0.8705738705738706,1.434676434676435,-1.25,-0.65625,0.0,0.0,-0.8852258852258852,1.9206349206349207,-1.3125,0.0,0.0,0.0,0.0,2.6324786324786325,-1.03125,0.0,0.0,0.0,0.0,2.7313797313797314,-0.75,0.0,0.0,0.0,-1.061050061050061,2.299145299145299,-0.90625,0.0,0.0,0.0,-0.8107448107448108,2.4505494505494507,-1.3125,-0.53125,0.65625,0.0,0.0,3.0927960927960934,-1.25,-0.71875,0.53125,0.0,0.0,3.0195360195360195,-0.78125,0.0,0.0,-0.5702075702075702,1.0415140415140416,3.418803418803418,0.0,0.75,0.0,0.0,0.0,3.903540903540904,0.0,0.53125,0.0,0.6739926739926739,0.0,3.2844932844932844,-0.96875,0.0,0.0,0.0,0.0,3.41025641025641,-1.0,0.0,0.0,0.0,0.8376068376068376,4.1159951159951165,0.0,0.0,0.0,0.0,0.0,3.6544566544566544,0.0,0.0,0.0,,,,,,,,,,,,,,,,,,,,,,,,,,,,,,,,,,,,,,,,,,,,,,,,,,,,,,,,,,,,,,,,,,,movPosZ
accX,0.0,0.0,-1.534798534798535,0.75,0.0,0.0,0.0,-1.9133089133089132,-2.32967032967033,0.0,0.0,0.0,0.0,0.0,-2.15995115995116,0.0,0.0,0.0,0.0,0.0,-1.2319902319902318,0.0,0.0,0.0,0.0,0.0,-0.6068376068376068,1.125,0.0,0.0,0.0,-2.1465201465201464,-2.63980463980464,1.09375,0.0,0.0,0.0,-2.2185592185592187,-3.382173382173382,0.0,0.0,0.0,0.0,-0.57997557997558,-2.515262515262515,-0.6875,0.0,0.0,0.0,0.0,-1.975579975579976,0.0,0.0,0.0,-0.7521367521367521,0.0,-2.291819291819292,0.0,0.0,0.0,0.0,-1.4761904761904765,-4.150183150183151,0.5625,0.0,0.0,0.503052503052503,-1.7826617826617828,-4.553113553113553,0.0,0.65625,0.0,0.7338217338217338,-1.1123321123321124,-3.474969474969475,0.0,0.0,0.0,0.0,-1.2576312576312576,-3.189255189255189,0.0,0.0,0.0,0.0,-1.2832722832722834,-3.0805860805860807,0.53125,0.0,0.0,0.5225885225885226,-2.6031746031746037,-2.94993894993895,0.0,0.0,-0.625,0.0,-1.8656898656898655,-2.275946275946276,0.0,0.0,-0.5625,0.0,-1.5677655677655675,-1.7045177045177045,0.0,0.0,-0.53125,0.0,-1.5042735042735045,-1.9572649572649568,-0.53125,-0.53125,0.0,0.0,-0.6715506715506715,-1.4481074481074483,-0.875,-0.5625,0.0,0.0,0.0,-0.5164835164835165,-0.84375,-0.625,0.0,0.0,0.0,-0.7509157509157509,-0.84375,-0.53125,0.0,-0.7680097680097681,-0.7216117216117216,-1.0879120879120878,-1.09375,0.0,0.0,0.0,0.0,0.0,-1.0625,0.0,0.0,0.5311355311355311,0.0,0.8913308913308914,-0.875,-0.6875,0.0,0.0,-0.7448107448107448,0.0,-0.90625,-0.53125,0.0,1.017094017094017,-1.4920634920634919,0.9536019536019535,-1.125,0.0,0.0,0.818070818070818,-0.8888888888888888,1.8388278388278387,-1.0,0.0,0.0,0.9951159951159952,-0.7350427350427351,2.4932844932844933,-0.59375,-0.6875,0.0,0.0,-0.6410256410256411,2.015873015873016,0.0,-0.65625,0.0,0.6605616605616605,-1.8376068376068373,1.5738705738705738,0.0,0.0,0.0,0.0,-1.465201465201465,0.8034188034188035,-1.03125,0.0,0.0,0.0,-0.6398046398046398,1.94993894993895,-1.3125,0.0,0.0,0.0,0.0,3.025641025641025,-1.1875,0.0,0.0,-0.6520146520146519,0.0,3.216117216117216,-1.0,0.0,0.75,0.0,0.0,1.9523809523809523,-1.3125,0.0,0.53125,0.0,0.0,3.5103785103785103,-1.34375,0.5625,0.0,0.0,0.6898656898656899,5.778998778998778,-0.84375,0.78125,0.0,0.8266178266178266,0.6837606837606838,5.871794871794871,0.0,0.53125,0.0,1.2808302808302807,0.0,5.231990231990231,0.0,0.0,0.0,0.0,0.0,3.811965811965812,-0.53125,0.0,0.0,0.0,0.0,3.6471306471306466,0.0,0.0,0.0,0.0,0.0,3.6727716727716726,0.0,0.0,0.0,0.0,0.0,3.2649572649572653,0.0,0.0,0.0,,,,,,,,,,,,,,,,,,,,,,,,,,,,,,,,,,,,,,,,,,,movPosZ
accX,0.0,0.0,0.0,1.375,0.0,0.0,0.0,-1.9230769230769231,-2.1404151404151404,1.375,0.0,0.0,0.0,-2.772893772893773,-3.065934065934066,0.0,0.0,0.0,0.0,0.0,-1.9743589743589745,-1.09375,0.5625,0.0,0.0,1.6691086691086692,0.0,-0.75,0.0,0.0,-0.5921855921855922,0.7252747252747253,-0.9401709401709402,0.0,0.0,0.0,0.0,-0.9877899877899878,-3.1794871794871797,1.0,0.0,0.0,0.5457875457875457,-1.3455433455433456,-4.595848595848596,0.875,0.0,0.0,0.0,-1.0903540903540905,-4.547008547008547,0.6875,0.0,0.0,-0.5726495726495726,-0.9963369963369964,-5.2173382173382175,0.78125,0.0,0.0,-0.5555555555555556,-1.6703296703296704,-6.409035409035409,0.875,0.0,0.0,0.0,-2.4236874236874235,-6.650793650793651,0.78125,0.0,0.0,0.0,-2.3284493284493286,-6.079365079365079,0.53125,0.0,0.0,1.4932844932844933,-2.523809523809524,-4.471306471306471,0.0,0.0,0.0,0.5262515262515263,-2.144078144078144,-3.766788766788767,0.0,0.0,0.0,-0.706959706959707,-1.7032967032967032,-3.175824175824176,0.0,0.0,0.0,0.0,-1.8180708180708183,-2.4285714285714284,0.0,0.0,0.0,1.0048840048840049,-2.2222222222222223,-1.5103785103785103,-1.28125,0.0,0.0,0.6703296703296703,-1.137973137973138,0.0,-1.53125,0.0,0.0,0.0,-0.8034188034188035,0.8266178266178266,-1.5625,0.0,0.0,0.0,-0.6263736263736264,0.9169719169719168,-1.59375,0.0,0.0,0.0,0.0,1.5909645909645909,-1.34375,0.0,0.0,0.8131868131868132,-0.6031746031746031,1.7973137973137974,-1.3125,0.0,0.0,0.0,0.0,2.6227106227106227,-1.125,-0.71875,0.0,0.5421245421245421,0.0,2.68986568986569,-1.03125,-1.0,0.0,0.0,0.0,2.3369963369963367,-1.0625,-0.84375,0.0,0.0,0.0,1.4700854700854702,-1.0625,0.0,0.0,0.0,0.0,2.231990231990232,-0.8125,0.0,0.0,0.0,0.0,2.3675213675213675,-0.6875,0.0,0.0,0.0,-1.0158730158730158,1.6007326007326008,-0.96875,0.0,0.0,0.5543345543345544,-1.4713064713064714,1.6544566544566544,-1.375,-0.53125,0.0,0.9853479853479854,-1.072039072039072,2.743589743589744,-1.3125,-0.59375,0.0,0.0,0.0,2.793650793650793,-1.0,0.0,0.0,0.0,0.0,2.9072039072039066,-0.5625,0.0,0.0,0.0,0.0,2.8949938949938954,0.0,0.0,0.0,0.0,0.0,2.056166056166056,-0.53125,0.0,0.0,0.0,0.0,1.358974358974359,-1.09375,0.0,0.0,-0.7350427350427351,0.0,2.0012210012210008,-1.25,0.0,0.0,-0.8290598290598291,0.8205128205128205,3.383394383394384,-0.75,0.0,0.0,-0.8449328449328449,1.1855921855921856,3.7240537240537237,0.0,0.0,0.0,0.0,0.7960927960927959,3.4371184371184373,0.0,0.5625,0.0,0.0,0.0,3.1807081807081805,-0.6875,0.0,0.0,-0.5299145299145299,1.6446886446886446,3.37973137973138,-0.71875,0.0,0.0,0.0,1.061050061050061,3.6568986568986563,0.0,0.0,0.0,,,,,,,,,,,,,,,,,,,,,,,,,,,,,,,,,,,,,,,,,,,movPosZ
accX,0.6007326007326007,-0.7606837606837606,0.0,0.5625,0.0,0.0,0.0,-0.6703296703296703,0.0,0.0,0.0,0.0,0.0,0.0,0.0,0.53125,0.0,0.0,0.0,-0.6263736263736264,-0.934065934065934,0.53125,0.0,0.0,0.0,0.0,-1.4175824175824177,0.0,0.0,0.0,-0.5726495726495726,-0.5494505494505495,-2.358974358974359,0.0,0.0,0.0,0.0,-0.6105006105006106,-2.241758241758242,0.0,0.0,0.0,0.0,0.0,-2.235653235653236,0.0,0.0,0.0,0.0,0.0,-3.028083028083028,0.53125,0.0,0.0,0.0,-0.9768009768009768,-4.083028083028083,0.875,0.0,0.0,0.0,-0.8827838827838828,-4.362637362637362,1.0625,0.0,0.0,0.0,-1.3797313797313795,-5.272283272283271,1.1875,0.0,0.0,0.0,-1.8742368742368745,-5.886446886446887,0.96875,0.0,0.0,0.0,-2.8827838827838828,-6.415140415140415,0.0,0.0,0.0,0.0,-2.4884004884004884,-5.824175824175824,0.0,0.0,0.0,-0.5628815628815629,-2.0134310134310134,-4.479853479853481,0.0,0.0,0.0,0.0,-2.551892551892552,-4.168498168498169,0.0,0.0,0.0,0.9487179487179488,-2.6227106227106227,-3.0390720390720385,-0.96875,0.0,0.0,1.31013431013431,-2.117216117216117,-1.7045177045177045,-1.25,-0.6875,0.0,0.0,-1.2918192918192921,-1.0708180708180708,-0.9375,-0.53125,0.0,0.0,-1.0757020757020757,-0.6141636141636142,-0.90625,0.0,0.0,1.3968253968253967,-1.6056166056166057,0.0,-1.375,-0.6875,0.0,0.6422466422466423,-0.8107448107448108,0.9010989010989012,-1.53125,-0.90625,0.0,0.0,0.0,1.844932844932845,-1.1875,-0.84375,0.0,0.0,0.0,1.7606837606837606,-0.90625,0.0,0.0,0.0,0.0,1.5567765567765568,-0.90625,0.0,0.0,0.7643467643467643,-0.6324786324786325,2.192918192918193,-0.96875,0.0,0.0,0.7619047619047619,0.0,2.9072039072039066,-0.78125,-0.9375,0.0,0.0,0.0,2.13064713064713,-0.6875,-0.5625,0.0,0.0,-1.0085470085470083,1.4444444444444444,-0.96875,0.0,0.0,0.0,-0.5018315018315018,2.4481074481074483,-1.03125,0.0,0.0,0.0,0.0,3.0989010989010985,-1.09375,0.0,0.0,0.0,1.0341880341880345,3.814407814407815,-0.71875,0.0,0.0,0.0,0.0,3.2735042735042734,-0.59375,0.0,0.0,0.0,0.0,2.7460317460317465,-0.84375,0.0,0.0,-0.7216117216117216,0.6727716727716728,3.565323565323565,-1.0,0.0,0.0,0.0,0.8498168498168498,4.245421245421245,-0.84375,0.0,0.0,0.0,0.5811965811965812,3.9694749694749696,-0.6875,0.0,0.0,0.0,1.083028083028083,4.5103785103785095,0.0,0.0,0.0,0.0,0.6080586080586079,3.95970695970696,0.0,0.0,0.0,-0.5213675213675214,0.0,2.445665445665446,0.0,0.0,0.0,0.0,0.0,2.411477411477412,-0.65625,0.0,0.0,0.0,0.5213675213675214,3.791208791208791,0.0,0.0,0.0,,,,,,,,,,,,,,,,,,,,,,,,,,,,,,,,,,,,,,,,,,,,,,,,,movPosZ
accX,0.0,0.0,0.5946275946275946,0.5625,0.0,0.0,0.0,0.0,0.8595848595848596,0.875,0.0,0.0,0.0,-1.8266178266178263,-0.978021978021978,1.1875,0.0,0.0,0.0,-2.5885225885225887,-3.676434676434676,0.0,0.0,0.0,0.0,0.0,-2.4285714285714284,-0.84375,0.0,0.0,0.0,0.6825396825396826,-1.4578754578754578,-0.65625,0.0,0.0,-0.5433455433455433,0.0,-2.800976800976801,0.0,0.0,0.0,0.0,-1.3040293040293038,-4.965811965811966,0.625,0.0,0.0,0.8339438339438342,-1.4236874236874235,-5.0,0.0,0.0,0.0,0.0,-0.9731379731379732,-4.881562881562882,0.0,0.0,0.0,-0.6019536019536019,-0.5262515262515263,-4.6007326007325995,0.0,0.0,0.0,-1.0903540903540905,-1.5103785103785103,-5.188034188034189,0.0,0.0,0.0,0.0,-1.794871794871795,-4.354090354090353,0.0,0.78125,0.0,1.3565323565323566,-1.9291819291819288,-3.0891330891330893,0.0,0.5625,0.0,1.4542124542124542,-1.6459096459096458,-2.283272283272283,0.0,0.0,0.0,0.5311355311355311,-0.6923076923076923,-2.593406593406593,-0.625,-0.53125,0.0,-1.175824175824176,-0.9242979242979243,-3.2710622710622714,-0.53125,-0.59375,0.0,-1.6043956043956045,-1.8168498168498168,-3.227106227106227,0.0,-0.53125,0.0,-1.271062271062271,-2.527472527472528,-2.6825396825396823,-1.0,0.0,0.0,0.0,-1.7191697191697193,-1.1697191697191698,-1.15625,0.0,0.0,0.993894993894994,-0.7094017094017094,0.6166056166056166,-0.8125,0.0,0.0,0.0,0.0,1.031746031746032,0.0,-0.59375,0.0,0.7606837606837606,-1.9865689865689864,0.5384615384615384,0.0,-0.5625,0.0,0.0,-1.5763125763125765,0.6715506715506715,-0.8125,0.0,0.0,0.0,-1.468864468864469,0.5372405372405372,-1.09375,0.0,0.0,0.0,-1.6263736263736264,1.3479853479853479,-1.3125,0.0,0.0,0.0,-1.8412698412698407,2.1355311355311355,-1.25,0.0,0.0,0.0,-1.8583638583638584,2.5946275946275947,-1.1875,0.0,0.0,0.0,-1.336996336996337,2.5482295482295485,-1.15625,0.0,0.0,0.0,-1.2210012210012209,2.5995115995116,-1.21875,0.0,0.0,0.0,-0.8266178266178266,3.6544566544566544,-0.8125,0.0,0.0,0.0,0.0,3.41025641025641,0.0,0.0,0.0,0.0,0.0,2.9035409035409034,-0.5625,0.0,0.0,0.0,0.0,2.641025641025641,-1.03125,0.0,0.0,0.0,0.0,3.3650793650793656,-1.28125,0.0,0.0,0.0,0.6776556776556777,4.230769230769232,-1.0,0.0,0.0,0.0,0.0,4.462759462759463,-0.59375,0.0,0.0,-0.5848595848595849,0.0,3.6544566544566544,-0.5625,0.0,0.0,-1.0390720390720392,0.0,3.0744810744810747,-0.78125,0.0,0.0,0.0,0.6898656898656899,4.0024420024420015,-0.65625,0.53125,0.0,0.0,1.4273504273504274,4.857142857142857,0.0,0.0,0.0,0.0,0.0,3.75946275946276,0.0,0.0,0.0,0.0,-1.2234432234432235,2.21001221001221,-0.75,0.0,0.0,,,,,,,,,,,,,,,,,,,,,,,,,,,,,,,,,,,,,,,,,,,,,,,,,movPosZ
accX,-0.7448107448107448,-0.518925518925519,-1.4920634920634919,0.5625,0.0,0.0,0.0,0.0,-1.6141636141636142,0.0,0.0,0.0,0.0,0.0,0.0,0.0,0.0,0.0,0.0,-0.5372405372405372,-1.0268620268620268,0.0,0.0,0.0,0.0,0.0,-1.4945054945054943,0.0,0.0,0.0,0.0,0.0,-1.4542124542124542,0.0,0.0,0.0,0.0,-0.6923076923076923,-1.9951159951159951,0.0,0.0,0.0,0.0,-0.7533577533577533,-2.318681318681319,0.0,0.0,0.0,0.0,-1.6837606837606838,-3.851037851037851,0.71875,0.0,0.0,-0.5628815628815629,-1.4884004884004884,-5.0415140415140405,0.0,0.0,0.0,-0.7936507936507936,-0.6727716727716728,-4.971916971916972,0.0,0.6875,0.0,0.0,-0.8107448107448108,-4.2173382173382175,0.0,0.53125,0.0,0.0,-1.4102564102564104,-4.556776556776557,0.0,0.0,0.0,0.0,-2.877899877899878,-5.887667887667887,0.0,0.0,0.0,0.0,-2.4505494505494507,-5.838827838827839,0.0,0.53125,0.0,0.5335775335775336,-2.481074481074481,-4.372405372405372,0.0,0.625,-0.5625,1.043956043956044,-2.8522588522588523,-3.7374847374847375,0.0,0.0,-0.53125,0.6532356532356532,-2.5824175824175826,-3.053724053724053,-1.0,0.0,0.0,0.0,-1.5421245421245422,-1.637362637362637,-1.25,-0.625,0.0,0.0,-1.293040293040293,-0.63003663003663,-1.125,0.0,0.0,1.133089133089133,-1.2625152625152625,0.0,-1.21875,0.0,0.0,1.6935286935286935,-0.7496947496947497,1.1123321123321124,-1.34375,-0.84375,0.0,0.0,0.0,1.8192918192918195,-0.96875,-0.875,0.0,0.0,0.0,1.3565323565323566,-0.53125,-0.65625,0.0,0.0,-0.9902319902319904,0.7753357753357754,-0.78125,-0.75,0.0,0.0,-0.5067155067155067,0.6837606837606838,-1.09375,-0.65625,0.0,0.0,-0.6459096459096461,1.3272283272283272,-1.1875,0.0,0.0,0.0,-0.5921855921855922,2.2124542124542126,-1.09375,0.0,0.0,0.8156288156288156,-0.5409035409035409,2.9328449328449326,-0.78125,0.0,0.0,0.8217338217338217,-0.6556776556776557,2.3675213675213675,-0.8125,0.0,0.0,0.0,-0.7643467643467643,2.5396825396825395,-1.03125,0.0,0.0,0.0,0.0,3.3760683760683765,-0.875,0.0,0.0,0.0,0.0,4.4896214896214905,0.0,0.0,0.0,0.0,0.0,3.8205128205128207,0.0,0.0,0.0,0.0,0.0,3.389499389499389,-0.625,0.0,0.0,0.0,0.0,3.655677655677656,-0.84375,0.0,0.0,0.0,0.0,3.4993894993894994,-0.90625,0.0,0.0,0.0,0.6788766788766789,4.554334554334553,0.0,0.0,0.0,0.0,0.7167277167277167,4.666666666666667,0.0,0.0,0.0,0.0,0.0,2.6959706959706957,0.0,0.0,0.0,0.0,0.0,2.440781440781441,-0.875,0.0,0.0,0.0,0.9096459096459096,3.9621489621489614,-0.65625,0.0,0.0,0.0,0.9377289377289376,3.945054945054945,0.0,0.0,0.0,,,,,,,,,,,,,,,,,,,,,,,,,,,,,,,,,,,,,,,,,,,,,,,,,movPosZ
accX,0.0,0.0,0.0,0.0,0.0,0.0,0.0,0.0,0.9523809523809524,1.03125,0.0,0.0,0.0,-1.1721611721611722,-0.8498168498168498,1.1875,0.0,0.0,0.6691086691086691,-2.1709401709401708,-2.8229548229548236,0.0,0.0,0.0,0.6617826617826618,0.0,-1.6874236874236874,-0.5625,0.0,0.0,0.0,1.1404151404151404,-0.536019536019536,0.0,0.0,0.0,-0.9108669108669109,0.0,-2.1623931623931623,1.6875,0.0,0.0,0.0,-2.9059829059829063,-6.478632478632479,2.40625,0.0,0.0,0.0,-3.221001221001221,-7.9694749694749705,1.46875,0.78125,0.0,1.3687423687423688,-2.3003663003662997,-6.456654456654457,0.0,0.0,0.0,-1.188034188034188,-1.3345543345543345,-6.258852258852259,-0.75,0.0,0.0,-1.7301587301587302,-1.0757020757020757,-5.0989010989010985,-1.0625,0.0,0.0,0.0,-1.2686202686202686,-3.527472527472528,-0.84375,0.0,0.0,0.0,-1.5018315018315018,-2.4725274725274726,0.0,0.0,0.0,0.0,-2.0,-2.57997557997558,-0.59375,0.0,0.0,1.1074481074481075,-1.2332112332112333,-1.7362637362637363,-0.96875,0.0,0.0,1.0048840048840049,-1.4212454212454213,-0.8168498168498168,-0.9375,0.0,0.0,0.0,-1.1013431013431014,-0.9145299145299144,-0.84375,0.0,0.0,0.0,-1.5299145299145298,-1.534798534798535,-0.53125,0.0,0.0,0.7350427350427351,-2.595848595848596,-1.8229548229548234,-0.90625,0.0,0.0,1.2405372405372406,-2.611721611721612,-1.10989010989011,-1.3125,0.0,0.0,0.9963369963369964,-2.086691086691087,0.0,-1.34375,-0.5625,0.0,1.2942612942612943,-1.9816849816849815,0.0,-1.3125,0.0,0.0,1.2210012210012209,-1.8498168498168501,0.8608058608058609,-1.25,0.0,0.0,0.8083028083028083,-0.912087912087912,1.5714285714285714,-1.125,0.0,0.0,0.5824175824175825,0.0,2.4163614163614158,-1.03125,0.0,0.0,0.0,0.0,2.6935286935286937,-1.09375,0.0,0.0,0.0,0.0,2.9914529914529915,-1.125,0.0,0.0,0.0,0.0,2.9426129426129437,-1.1875,0.0,0.0,-0.9023199023199024,0.8656898656898657,3.4615384615384617,-0.9375,0.0,0.0,-1.0329670329670328,0.9047619047619048,3.9829059829059825,-0.5625,0.0,0.0,-0.5152625152625152,0.0,3.4725274725274726,0.0,0.0,0.0,0.8351648351648352,-0.73992673992674,3.313797313797314,-0.78125,-0.53125,0.0,0.0,0.0,3.144078144078144,-1.125,-0.71875,0.5625,-0.7960927960927959,0.5885225885225885,3.8339438339438336,-0.84375,0.0,0.0,0.0,0.0,4.1672771672771685,0.0,0.0,0.0,0.0,0.0,3.8461538461538463,0.0,0.0,0.0,0.0,0.0,2.8937728937728937,0.0,0.0,0.0,0.0,0.0,2.7973137973137967,-0.78125,0.0,0.0,0.0,0.0,2.8571428571428568,-0.625,0.0,0.0,0.0,0.0,3.2735042735042734,0.0,0.0,0.0,,,,,,,,,,,,,,,,,,,,,,,,,,,,,,,,,,,,,,,,,,,,,,,,,,,,,,,,,,,,,movPosZ
accX,0.0,0.0,-0.7020757020757019,0.0,0.0,0.0,0.0,-1.1257631257631258,-2.4224664224664223,0.8125,0.0,0.0,0.6214896214896215,-0.8937728937728938,-2.68986568986569,0.0,0.0,0.0,0.0,1.2722832722832722,0.0,1.21875,-0.6875,0.0,-1.2539682539682542,-1.8778998778998781,-1.264957264957265,2.53125,-0.8125,0.0,0.518925518925519,-3.383394383394384,-4.328449328449328,1.875,0.0,0.0,2.1880341880341883,-3.324786324786325,-3.864468864468865,0.0,0.59375,0.0,0.0,-1.4017094017094016,-2.417582417582417,-2.0625,0.0,0.0,-1.2234432234432235,0.0,-0.7045177045177046,-2.125,-0.59375,0.0,-1.7594627594627594,0.0,-1.9133089133089132,-1.0625,0.0,0.0,-1.9719169719169718,-1.794871794871795,-4.391941391941391,0.0,0.0,0.0,-1.0793650793650793,-2.8656898656898657,-5.993894993894994,-0.65625,0.8125,0.0,0.0,-1.967032967032967,-4.391941391941391,-0.96875,0.0,0.0,0.6227106227106227,-1.4774114774114775,-2.7399267399267404,-0.84375,0.0,0.0,0.0,-1.5921855921855919,-2.8058608058608057,-0.8125,0.0,0.0,0.0,-1.8522588522588523,-2.5824175824175826,-1.125,0.0,0.0,0.5885225885225885,-1.612942612942613,-2.1965811965811968,-1.65625,0.0,0.0,1.2246642246642248,0.0,0.0,-1.34375,0.0,0.0,0.0,-0.6507936507936508,0.0,-1.0,-0.75,0.0,-0.5054945054945055,-1.4822954822954824,-1.6141636141636142,-1.0,0.0,0.0,0.5592185592185592,-2.437118437118437,-1.931623931623932,-1.4375,0.0,0.0,0.7374847374847375,-1.8131868131868127,0.0,-1.5625,0.0,0.0,0.5934065934065934,-1.4786324786324787,0.9658119658119658,-1.09375,0.0,0.0,0.0,-1.534798534798535,0.8376068376068376,-0.84375,0.0,0.0,1.0891330891330893,-1.636141636141636,1.3492063492063493,-1.0,0.0,0.0,0.6678876678876678,-0.7619047619047619,2.333333333333333,-1.125,0.0,0.0,0.0,0.0,3.556776556776557,-0.9375,0.0,0.0,-0.8620268620268621,0.5152625152625152,3.477411477411477,-0.78125,0.0,0.0,-1.0537240537240538,0.0,3.1782661782661785,-0.8125,0.0,0.0,-0.7496947496947497,-1.0073260073260073,2.7472527472527477,-1.15625,0.0,0.0,0.0,0.0,4.014652014652015,-1.21875,0.0,0.0,0.0,0.0,4.942612942612944,-0.84375,-0.53125,0.0,-1.1294261294261294,0.0,3.7851037851037854,0.0,0.0,0.0,-0.7216117216117216,-0.7692307692307693,2.8608058608058613,0.0,0.0,0.0,0.0,0.0,3.7228327228327234,0.0,0.0,0.0,0.0,0.0,4.3748473748473735,0.0,0.0,0.0,0.0,0.0,2.330891330891331,0.0,0.0,0.0,-0.6996336996336996,0.0,2.873015873015873,0.0,0.0,0.0,0.0,0.0,2.8156288156288163,0.0,0.0,0.0,0.0,-0.5213675213675214,2.5921855921855923,0.0,0.0,0.0,0.0,-0.7228327228327228,1.9951159951159951,0.0,0.0,0.0,0.0,-0.8449328449328449,1.7606837606837606,0.0,0.0,0.0,0.0,-0.7118437118437119,1.7655677655677655,0.0,0.0,0.0,,,,,,,,,,,,,,,,,,,,,,,,,,,,,,,,,,,,,,,,,,,,,,,,,movPosZ
accX,0.0,-2.0549450549450547,-3.240537240537241,0.0,0.0,0.0,0.0,0.0,-1.7716727716727716,-0.625,0.0,0.0,-0.8437118437118437,1.7667887667887667,0.0,0.0,0.0,0.0,-0.9951159951159952,0.0,-1.94017094017094,1.25,0.0,0.0,0.6703296703296703,-3.864468864468865,-4.697191697191697,1.1875,0.0,0.0,0.5543345543345544,-3.7387057387057383,-5.21001221001221,-0.625,0.0,0.0,0.0,-0.9108669108669109,-2.455433455433456,-1.96875,0.0,0.0,-0.5824175824175825,0.9035409035409036,0.0,-1.5625,0.0,0.0,-0.8449328449328449,0.0,-0.9194139194139194,0.0,0.0,0.0,0.0,-1.7997557997557998,-3.144078144078144,0.0,0.0,0.0,0.0,-2.1074481074481075,-4.1037851037851025,0.0,0.0,0.0,0.0,-0.94993894993895,-3.542124542124542,0.0,0.0,0.0,-1.4493284493284493,0.0,-3.155067155067155,0.0,0.0,0.0,-1.7057387057387057,-1.5482295482295485,-5.0,0.0,0.0,0.0,0.0,-3.56043956043956,-6.057387057387057,0.0,0.65625,0.0,0.978021978021978,-2.4273504273504267,-3.41025641025641,-1.1875,0.0,0.0,1.8107448107448108,-1.7216117216117215,-1.0244200244200243,-1.3125,0.0,0.0,0.7130647130647131,-1.6813186813186811,-1.6654456654456655,-1.375,-0.53125,0.0,0.0,-1.3675213675213675,-1.8852258852258847,-1.28125,0.0,0.0,0.5054945054945055,-0.8998778998778999,-0.6080586080586079,-0.875,0.0,0.0,1.6654456654456655,-1.6227106227106227,0.0,-0.875,-1.03125,0.0,0.9462759462759462,-2.0976800976800978,-0.5018315018315018,-1.15625,-1.125,0.0,0.0,-1.9462759462759465,0.0,-1.25,-0.5625,0.0,0.0,-0.9853479853479854,0.0,-0.90625,0.0,0.0,0.912087912087912,-1.31990231990232,0.9523809523809524,-0.75,0.0,0.0,0.8412698412698413,-1.2454212454212454,2.2649572649572653,-0.75,0.0,0.0,0.0,-0.9377289377289376,2.411477411477412,-0.9375,0.0,0.0,0.0,0.0,2.6202686202686203,-1.09375,0.0,0.0,0.5067155067155067,0.5238095238095238,4.396825396825397,-0.8125,0.0,0.0,0.5262515262515263,0.0,5.214896214896215,0.0,0.0,0.0,-1.2075702075702075,0.0,3.04029304029304,-0.71875,0.0,0.0,0.0,0.0,3.2576312576312576,-1.3125,0.0,0.0,0.0,0.6056166056166056,5.336996336996338,-1.21875,-0.625,0.5625,0.0,0.5274725274725275,4.8998778998779,-0.84375,0.0,0.0,-0.8351648351648352,0.5274725274725275,4.36019536019536,0.0,0.0,0.0,0.0,0.0,3.5189255189255184,0.0,0.0,0.0,0.0,0.0,3.06959706959707,0.0,0.0,0.0,-0.8485958485958486,0.0,2.8925518925518925,0.0,0.0,0.0,-0.6971916971916972,0.0,2.214896214896215,0.0,0.0,0.0,-0.5262515262515263,-0.7997557997557998,1.4542124542124542,0.0,0.0,0.0,0.0,0.0,2.3943833943833943,-0.5625,0.0,0.0,0.0,0.0,2.6630036630036633,-0.625,0.0,0.0,0.0,0.0,2.3772893772893773,0.0,0.0,0.0,,,,,,,,,,,,,,,,,,,,,,,,,,,,,,,,,,,,,,,,,,,,,,,,,movPosZ
accX,-0.536019536019536,-0.8046398046398047,-0.6043956043956044,0.75,0.0,0.0,0.0,-1.0781440781440779,-0.8632478632478633,0.0,0.0,0.0,0.0,0.0,0.0,0.0,0.0,0.0,0.0,0.0,0.0,0.0,0.0,0.0,0.0,-1.0879120879120878,-1.195360195360195,0.625,0.0,0.0,0.0,-0.5384615384615384,-2.087912087912088,0.0,0.0,0.0,0.0,0.0,-1.1562881562881564,0.0,0.0,0.0,-0.7326007326007326,0.0,-1.6507936507936507,0.96875,0.0,0.0,-0.706959706959707,-1.5238095238095235,-4.017094017094017,1.09375,0.0,0.0,0.0,-2.3162393162393164,-5.256410256410256,0.0,0.0,0.0,0.0,-1.3736263736263736,-5.003663003663004,0.0,0.0,0.0,-0.5421245421245421,-0.9242979242979243,-4.377289377289378,0.0,0.0,0.0,-0.5323565323565324,-0.956043956043956,-4.518925518925518,0.0,0.0,0.0,0.0,-1.706959706959707,-5.261294261294262,0.0,0.0,0.0,0.0,-2.43956043956044,-5.335775335775336,0.0,0.0,0.0,1.2124542124542124,-2.1782661782661785,-3.957264957264957,-0.59375,0.0,0.0,1.6043956043956045,-1.915750915750916,-3.5152625152625148,-0.6875,-0.59375,0.0,0.0,-0.8876678876678876,-3.3443223443223444,0.0,-0.96875,0.0,-1.6727716727716728,-1.0744810744810744,-3.9841269841269837,0.0,0.0,0.0,0.0,-2.888888888888889,-3.9816849816849818,-0.59375,0.0,0.0,1.15995115995116,-3.3504273504273505,-3.42002442002442,-1.6875,0.0,0.0,2.2222222222222223,-2.351648351648352,0.0,-2.0,-0.96875,0.0,1.5531135531135531,-1.7228327228327232,0.9304029304029304,-1.59375,-1.53125,0.0,0.5421245421245421,-1.6446886446886446,0.7716727716727717,-1.15625,-1.125,0.0,0.6153846153846154,-1.3443223443223444,0.8583638583638583,-1.0625,0.0,0.0,1.3492063492063493,-1.1343101343101345,2.268620268620269,-1.28125,0.0,0.0,2.0146520146520146,-1.122100122100122,3.5372405372405376,-1.375,0.0,0.0,1.293040293040293,-0.8046398046398047,3.551892551892552,-1.4375,-0.65625,0.0,0.5006105006105006,0.0,4.3137973137973145,-1.15625,0.0,0.0,0.0,0.0,4.83028083028083,-0.90625,0.0,0.0,1.123321123321123,-0.5323565323565324,4.333333333333333,-0.96875,0.0,0.0,0.6019536019536019,-0.503052503052503,4.1550671550671545,-1.0625,-0.625,0.0,0.0,0.0,3.968253968253968,-0.875,0.0,0.0,0.0,0.0,3.9792429792429793,0.0,0.0,0.0,0.0,0.0,3.6825396825396814,0.0,0.0,0.0,0.0,0.0,2.4993894993894994,0.0,0.0,0.0,-0.5628815628815629,0.0,2.231990231990232,-0.53125,0.0,0.0,0.0,0.0,4.3748473748473735,-0.8125,0.0,0.0,-0.5982905982905983,1.0402930402930404,3.965811965811966,0.0,0.0,0.0,-0.5347985347985348,0.0,2.584859584859585,0.0,0.0,0.0,-0.8852258852258852,0.0,2.440781440781441,0.0,0.0,0.0,0.0,0.0,2.7997557997558,0.0,0.0,0.0,0.0,0.6874236874236874,3.1037851037851034,0.0,0.0,0.0,0.0,0.0,2.2466422466422467,0.0,0.0,0.0,0.0,-0.5042735042735043,1.247863247863248,0.0,0.0,0.0,,,,,,,,,,,,,,,,,,,,,,,,,,,,,,,,,,,,,movPosZ
accX,-0.5006105006105006,0.0,0.0,0.53125,0.0,0.0,0.0,-1.0268620268620268,-0.8290598290598291,0.6875,0.0,0.0,0.0,-1.7435897435897436,-1.9719169719169718,0.0,0.0,0.0,0.0,-1.0732600732600732,-1.8522588522588523,0.0,0.0,0.0,0.0,0.0,-1.3833943833943834,-0.65625,0.0,0.0,0.0,1.1294261294261294,-0.7411477411477412,0.0,0.0,0.0,0.0,0.0,-1.975579975579976,0.84375,0.0,0.0,0.0,-1.8547008547008548,-4.592185592185592,0.84375,0.0,0.0,0.0,-1.1367521367521367,-4.934065934065933,0.0,0.0,0.0,0.0,-0.5311355311355311,-4.476190476190476,0.0,0.0,0.0,0.0,-0.7326007326007326,-4.289377289377289,0.0,0.0,0.0,0.0,-1.6666666666666667,-5.536019536019536,0.0,0.0,0.0,-1.5836385836385836,-2.3064713064713063,-6.653235653235654,0.0,0.0,0.0,-0.7179487179487181,-2.1233211233211238,-5.084249084249084,0.0,0.53125,0.0,0.0,-1.9975579975579976,-3.3943833943833943,0.0,0.0,0.0,0.7374847374847375,-2.1086691086691087,-2.527472527472528,-0.59375,0.0,0.0,0.0,-1.982905982905983,-2.3626373626373627,-0.9375,0.0,0.0,0.6471306471306472,-1.728937728937729,-1.380952380952381,-0.875,0.0,0.0,0.912087912087912,-1.6031746031746033,-0.8156288156288156,-0.75,0.0,0.0,1.565323565323565,-1.4004884004884004,0.0,-0.59375,0.0,0.0,1.7838827838827842,-1.5958485958485962,0.0,-0.8125,-0.75,0.0,0.5213675213675214,-1.277167277167277,0.0,-1.0625,-0.53125,0.0,0.6178266178266179,-1.3748473748473748,0.0,-1.40625,0.0,0.0,0.6178266178266179,0.0,2.039072039072039,-1.125,0.0,0.0,1.7057387057387057,0.0,3.1941391941391943,-0.5625,-0.625,0.0,0.0,-1.5152625152625152,1.249084249084249,-0.78125,-0.53125,0.0,0.0,-1.8266178266178263,0.0,-1.375,0.0,0.0,0.0,0.0,2.1367521367521367,-1.28125,0.0,0.0,-1.120879120879121,0.0,2.467643467643468,-0.8125,0.0,0.0,-1.1123321123321124,-0.8888888888888888,2.05982905982906,-0.78125,0.0,0.0,-0.7289377289377289,-2.192918192918193,2.330891330891331,-1.34375,0.0,0.0,0.0,-1.7301587301587302,3.8229548229548236,-1.8125,0.0,0.0,0.0,-0.5384615384615384,4.711843711843712,-1.96875,-0.90625,0.59375,-0.6825396825396826,0.0,4.697191697191697,-1.625,0.0,0.0,0.0,0.6788766788766789,4.586080586080586,-1.09375,0.0,0.0,0.0,0.8473748473748474,4.278388278388278,-0.6875,0.0,0.0,-0.6507936507936508,0.0,3.9096459096459095,-0.6875,0.0,0.0,-1.0683760683760684,0.7020757020757019,3.6971916971916974,-0.90625,0.0,0.0,-0.9035409035409036,1.199023199023199,4.327228327228327,0.0,0.0,0.0,-0.7045177045177046,0.0,3.595848595848596,0.0,0.0,0.0,0.0,0.0,3.053724053724053,0.0,0.0,0.0,,,,,,,,,,,,,,,,,,,,,,,,,,,,,,,,,,,,,,,,,,,,,,,,,,,,,,,,,,,,,movPosZ
accX,0.0,-0.5262515262515263,0.0,0.625,0.0,0.0,0.0,0.0,-0.6581196581196581,0.0,0.0,0.0,0.0,0.0,0.0,0.0,0.0,0.0,0.0,0.0,-0.5958485958485958,0.0,0.0,0.0,0.0,-0.7973137973137974,-1.6251526251526252,0.0,0.0,0.0,0.0,-0.6776556776556777,-2.2503052503052503,0.0,0.0,0.0,0.0,0.0,-1.5128205128205128,0.0,0.0,0.0,0.0,0.0,-1.5763125763125765,0.0,0.0,0.0,-0.6019536019536019,-0.7765567765567766,-3.571428571428572,0.75,0.0,0.0,0.0,-1.6043956043956045,-4.914529914529915,0.0,0.0,0.0,1.2564102564102564,-1.9865689865689864,-5.0818070818070815,0.0,0.0,0.0,0.0,-0.8815628815628815,-4.6129426129426125,0.0,0.0,0.0,-0.778998778998779,-1.0561660561660562,-4.915750915750916,0.0,0.0,0.0,0.0,-1.5628815628815629,-4.556776556776557,0.0,0.0,0.0,0.8498168498168498,-2.1404151404151404,-4.264957264957265,0.0,0.0,0.0,0.8644688644688645,-1.47985347985348,-3.7545787545787546,0.0,0.0,0.0,0.0,-0.8095238095238095,-3.496947496947497,0.0,0.0,0.0,0.0,-1.3137973137973138,-2.796092796092796,0.0,-0.65625,0.0,0.5433455433455433,-3.8937728937728937,-3.565323565323565,0.0,0.0,-0.78125,0.0,-2.8083028083028077,-2.9938949938949935,-1.0625,0.0,-0.78125,0.0,-1.1623931623931625,-0.8522588522588522,-1.15625,0.0,-0.875,0.0,-0.8876678876678876,0.0,-0.96875,0.0,-0.5625,0.7936507936507936,0.0,1.0634920634920637,-0.875,-0.8125,0.0,1.0854700854700854,0.7863247863247863,2.6263736263736264,-0.53125,-1.1875,0.0,0.0,0.5518925518925519,1.8339438339438336,0.0,-1.0,0.0,-1.2319902319902318,0.0,0.9365079365079364,0.0,0.0,0.0,-0.9536019536019535,0.0,1.2466422466422469,-0.6875,0.0,0.0,0.0,0.0,2.7704517704517704,-0.6875,0.0,0.0,0.5848595848595849,0.0,3.0805860805860807,-0.625,-0.6875,0.0,0.0,-1.4847374847374848,1.673992673992674,-0.875,-0.625,0.0,0.6141636141636142,-1.794871794871795,2.3687423687423688,-1.15625,-0.625,0.53125,0.0,0.0,3.148962148962149,-1.09375,0.0,0.0,0.0,0.0,3.3223443223443225,-0.75,0.0,0.0,0.0,-0.5482295482295483,2.58974358974359,-0.625,0.0,0.0,0.0,-1.1721611721611722,2.8107448107448105,-1.0625,0.0,0.0,0.0,0.7020757020757019,4.74969474969475,-0.78125,0.0,0.5625,0.0,0.0,3.0842490842490844,0.0,0.0,0.0,0.0,0.0,2.8632478632478637,0.0,0.0,0.0,0.0,0.0,3.155067155067155,0.0,0.0,0.0,0.0,0.0,2.8412698412698414,0.0,0.0,0.0,0.0,0.0,2.437118437118437,0.0,0.0,0.0,0.0,0.0,2.68009768009768,0.0,0.0,0.0,0.0,0.0,2.7106227106227108,0.0,0.0,0.0,0.0,0.0,1.6678876678876684,0.0,0.0,0.0,0.0,-0.6288156288156288,1.1978021978021978,0.0,0.0,0.0,0.0,0.0,1.2942612942612943,0.0,0.0,0.0,,,,,,,,,,,,,,,,,,,,,,,,,,,,,,,movPosZ
accX,-0.6239316239316239,-1.3223443223443223,-1.4163614163614164,0.0,0.0,0.0,0.0,0.0,0.0,0.0,0.0,0.0,0.0,0.6446886446886447,0.811965811965812,0.0,0.0,0.0,0.0,0.0,0.0,0.90625,0.0,0.0,0.0,-2.274725274725274,-2.5665445665445668,0.625,0.0,0.0,0.0,-1.3614163614163617,-2.8217338217338215,-0.59375,0.0,0.0,0.0,0.0,-1.0537240537240538,-0.8125,0.0,0.0,-0.7509157509157509,0.0,-1.8693528693528692,0.0,0.0,0.0,0.0,-0.8376068376068376,-3.8412698412698414,0.5625,0.0,0.0,0.0,-1.5885225885225884,-4.747252747252747,0.0,0.59375,0.0,0.0,-1.6862026862026862,-4.590964590964591,0.0,0.5625,0.0,0.0,-1.4322344322344325,-4.575091575091576,0.0,0.0,0.0,-0.7277167277167277,-0.7191697191697192,-4.5054945054945055,0.0,0.0,0.0,-0.934065934065934,-1.266178266178266,-4.781440781440781,0.0,0.0,0.0,0.0,-1.7704517704517704,-4.31013431013431,0.0,0.0,0.0,0.0,-2.533577533577533,-4.2844932844932835,0.0,0.0,0.0,0.0,-2.655677655677656,-4.3589743589743595,-0.53125,0.0,0.0,0.0,-1.9230769230769231,-3.2063492063492065,-0.875,0.0,0.0,0.8156288156288156,-0.8791208791208791,-1.7582417582417582,-0.78125,0.0,0.0,0.0,-1.3663003663003663,-1.8363858363858363,-0.78125,-0.59375,0.0,0.0,-2.3846153846153846,-1.912087912087912,-0.9375,0.0,0.0,0.0,-2.404151404151404,-1.3235653235653235,-1.40625,0.0,0.0,0.5897435897435898,-0.8547008547008547,0.0,-1.5625,0.0,0.0,0.7557997557997558,0.0,1.1257631257631258,-1.34375,-0.5625,0.0,0.0,-0.6923076923076923,1.2808302808302807,-1.15625,-0.5625,0.0,1.0231990231990231,-1.4542124542124542,1.843711843711844,-1.125,-0.65625,0.0,0.0,-0.7582417582417582,2.606837606837607,-1.03125,0.0,0.0,0.8620268620268621,0.0,3.0549450549450547,-0.96875,0.0,0.0,0.7252747252747253,0.0,2.8217338217338215,-0.90625,0.0,0.0,0.7802197802197802,0.0,3.274725274725274,-1.03125,0.0,0.0,0.0,0.0,4.221001221001221,-0.90625,0.0,0.0,-0.7838827838827839,0.0,3.568986568986569,-0.75,0.0,0.0,-0.6446886446886447,0.0,3.7191697191697193,-0.59375,0.0,0.0,0.0,0.6434676434676435,4.571428571428571,0.0,0.0,0.0,-0.7338217338217338,0.0,4.205128205128204,-0.53125,0.0,0.0,0.0,0.0,4.736263736263736,-0.625,0.0,0.0,-0.7997557997557998,0.0,4.3028083028083035,-0.53125,0.0,0.0,0.0,0.0,3.8009768009768017,0.0,0.0,0.0,-0.514041514041514,0.0,2.6617826617826617,0.0,0.0,0.0,-0.6019536019536019,0.0,2.7472527472527477,0.0,0.0,0.0,-0.7545787545787546,0.0,2.213675213675214,0.0,0.0,0.0,0.0,-0.6715506715506715,1.6678876678876684,0.0,0.0,0.0,0.0,-0.9963369963369964,1.1184371184371185,0.0,0.0,0.0,0.0,0.0,1.6031746031746033,-0.65625,0.0,0.0,,,,,,,,,,,,,,,,,,,,,,,,,,,,,,,,,,,,,,,,,,,movPosZ
accX,0.0,0.0,0.0,0.53125,0.0,0.0,0.0,-1.266178266178266,-1.2612942612942613,0.53125,0.0,0.0,0.0,0.0,-1.0976800976800978,0.0,0.0,0.0,0.0,0.0,0.0,0.0,0.0,0.0,0.0,0.0,-0.8559218559218559,0.0,0.0,0.0,0.0,-0.6007326007326007,-1.724053724053724,0.59375,0.0,0.0,0.7167277167277167,-1.1343101343101345,-2.2820512820512815,0.5625,0.0,0.0,0.0,-1.474969474969475,-3.531135531135531,0.0,0.0,0.0,0.0,-1.020757020757021,-4.09035409035409,0.0,0.0,0.0,0.0,-0.8144078144078144,-4.609279609279608,0.0,0.0,0.0,-1.514041514041514,-0.9853479853479854,-5.351648351648351,0.0,0.625,0.0,0.0,-1.3247863247863247,-5.6691086691086685,0.0,0.78125,0.0,0.9072039072039072,-2.0805860805860807,-5.255189255189255,0.0,0.0,0.0,0.0,-2.0891330891330893,-5.261294261294262,0.0,0.0,0.0,0.0,-1.568986568986569,-4.794871794871796,0.0,0.0,0.0,0.0,-1.7118437118437118,-3.6727716727716726,0.0,0.0,0.0,1.0427350427350428,-1.94993894993895,-2.5726495726495733,0.0,0.0,0.0,0.6410256410256411,-2.571428571428572,-3.0134310134310134,-0.75,0.0,-0.53125,0.0,-2.8656898656898657,-3.0561660561660564,-1.40625,0.0,-0.59375,0.5567765567765568,-1.2246642246642248,-1.0390720390720392,-1.5,0.0,-0.5625,0.978021978021978,-0.5616605616605617,0.9157509157509156,-1.125,0.0,0.0,0.8424908424908425,-1.0231990231990231,1.0183150183150182,-0.875,-0.65625,0.0,0.0,-2.0573870573870567,0.0,-1.09375,-0.53125,0.0,0.0,-1.557997557997558,0.5921855921855922,-1.40625,0.0,0.0,0.0,-0.7191697191697192,2.1367521367521367,-1.46875,0.0,0.0,0.0,0.0,3.1330891330891335,-1.125,0.0,0.0,1.0818070818070815,0.0,3.498168498168498,-0.8125,-0.65625,0.0,0.0,0.0,3.115995115995116,-0.78125,-0.5625,0.0,0.0,0.0,4.0024420024420015,-0.59375,0.0,0.0,0.0,0.0,3.571428571428572,-0.53125,0.0,0.0,-0.5567765567765568,0.0,2.8046398046398044,-0.59375,0.0,0.0,0.0,0.0,3.2503052503052503,-0.6875,0.0,0.0,-0.7191697191697192,0.706959706959707,3.9291819291819285,-0.53125,0.0,0.0,0.0,-0.663003663003663,3.8485958485958487,-0.59375,0.0,0.0,0.0,0.0,4.031746031746032,-0.875,0.0,0.0,0.0,0.5103785103785103,4.6874236874236885,-0.96875,0.0,0.0,0.0,0.0,3.655677655677656,-0.90625,0.0,0.53125,0.0,0.5775335775335775,3.8998778998779,-0.625,0.0,0.0,0.0,0.0,3.940170940170941,0.0,0.0,0.0,1.1831501831501832,0.0,3.415140415140415,0.0,0.0,0.0,0.7155067155067155,-0.5470085470085471,1.8021978021978025,0.0,0.0,0.0,0.0,-0.6727716727716728,1.4029304029304028,0.0,0.0,0.0,,,,,,,,,,,,,,,,,,,,,,,,,,,,,,,,,,,,,,,,,,,,,,,,,,,,,,,movPosZ
accX,0.0,0.0,0.0,0.0,0.0,0.0,0.0,0.0,0.0,0.90625,0.0,0.0,0.5897435897435898,-1.3577533577533578,-1.2881562881562882,0.71875,0.0,0.0,0.6752136752136753,-0.8095238095238095,-1.2783882783882785,0.0,0.0,0.0,0.0,0.0,-1.8034188034188037,0.0,0.0,0.0,-0.6410256410256411,0.0,-1.956043956043956,0.0,0.0,0.0,-0.5763125763125763,0.0,-2.498168498168498,0.0,0.0,0.0,0.0,-0.8034188034188035,-3.826617826617827,0.0,0.0,0.0,0.6312576312576312,-1.1245421245421243,-4.175824175824176,0.0,0.0,0.0,0.0,-1.2234432234432235,-5.072039072039073,0.0,0.0,0.0,0.0,-1.1807081807081807,-5.537240537240537,0.0,0.0,0.0,0.0,-1.3931623931623929,-5.288156288156288,0.0,0.0,0.0,0.0,-1.5470085470085468,-5.264957264957265,0.0,0.0,0.0,-0.9242979242979243,-1.2881562881562882,-4.683760683760683,0.0,0.0,0.0,-0.7045177045177046,-1.4774114774114775,-4.295482295482295,0.0,0.78125,0.0,1.0488400488400489,-2.4542124542124544,-4.1941391941391934,0.0,0.59375,0.0,1.4163614163614164,-2.064713064713065,-2.9877899877899887,-0.71875,0.0,0.0,1.199023199023199,-1.8376068376068373,-1.6605616605616609,-0.9375,-0.625,0.0,0.9133089133089132,-1.1904761904761905,-1.1111111111111112,-0.96875,0.0,0.0,1.6312576312576312,-1.5067155067155067,-0.7411477411477412,-0.90625,0.0,0.0,1.293040293040293,-1.3479853479853479,0.0,-0.96875,-0.6875,0.0,0.0,-1.103785103785104,0.0,-1.0625,-0.59375,0.0,0.7008547008547008,-0.9694749694749696,1.0451770451770452,-1.15625,0.0,0.0,0.7802197802197802,-0.5897435897435898,1.6862026862026862,-1.15625,-0.5625,0.0,0.0,0.0,2.717948717948718,-0.78125,-0.625,0.0,0.0,-1.3455433455433456,2.93040293040293,-0.65625,-0.53125,0.0,0.0,-1.4090354090354091,3.3321123321123323,-0.84375,0.0,0.0,1.1575091575091576,-1.2551892551892552,3.8034188034188032,-0.90625,-0.59375,0.0,1.0183150183150182,-0.7851037851037851,4.423687423687424,-0.59375,-0.90625,0.0,0.0,0.0,4.387057387057388,0.0,-0.53125,0.0,0.0,0.0,3.912087912087912,0.0,0.0,0.0,0.0,0.0,2.8705738705738706,0.0,0.0,0.0,0.0,0.8705738705738706,3.101343101343101,-0.75,-0.71875,0.0,-0.8852258852258852,0.7545787545787546,3.6361416361416365,0.0,0.0,0.0,0.0,0.0,3.1526251526251525,0.0,0.0,0.0,0.0,1.8974358974358971,3.976800976800977,-0.625,0.0,0.0,0.0,1.7667887667887667,3.9841269841269837,0.0,0.0,0.0,0.0,0.0,1.8583638583638584,0.0,0.0,0.0,0.0,0.0,0.912087912087912,0.0,0.0,0.0,0.0,0.9487179487179488,2.827838827838828,-0.8125,0.0,0.0,0.0,1.0366300366300367,3.1330891330891335,0.0,0.0,0.0,,,,,,,,,,,,,,,,,,,,,,,,,,,,,,,,,,,,,,,,,,,,,,,,,,,,,,,,,,,,,movPosZ
accX,0.0,0.0,-0.5592185592185592,0.0,0.0,0.0,0.0,0.0,0.0,0.65625,0.0,0.0,0.0,0.0,0.0,0.96875,0.0,0.0,0.0,-1.7032967032967032,-1.8412698412698407,0.71875,0.0,0.0,0.0,-0.9279609279609279,-2.1721611721611715,0.0,0.0,0.0,0.0,0.5421245421245421,-0.7081807081807082,0.0,0.0,0.0,-0.7826617826617827,0.8131868131868132,-0.9242979242979243,0.0,0.0,0.0,-0.5750915750915749,-0.7692307692307693,-2.9181929181929176,0.96875,0.0,0.0,0.0,-1.7228327228327232,-4.626373626373627,0.8125,0.65625,0.0,0.5152625152625152,-2.0354090354090357,-5.317460317460316,0.0,0.71875,0.0,0.0,-0.7533577533577533,-4.7704517704517695,0.0,0.0,0.0,-1.4566544566544566,0.0,-5.003663003663004,0.0,0.0,0.0,-1.122100122100122,-0.9145299145299144,-5.012210012210011,0.0,0.0,0.0,0.0,-1.8925518925518925,-5.473748473748474,0.0,0.0,0.0,0.0,-2.029304029304029,-5.113553113553113,-0.5625,0.0,0.0,0.7667887667887668,-1.6275946275946276,-3.752136752136752,-0.90625,0.0,0.0,1.0634920634920637,-1.4371184371184371,-2.5811965811965814,-0.75,0.0,0.0,0.0,-2.1184371184371185,-2.9413919413919416,-0.625,0.0,0.0,-0.7057387057387058,-1.879120879120879,-2.9365079365079363,-0.53125,0.53125,0.0,0.7387057387057387,-1.843711843711844,-1.7814407814407816,-0.6875,0.0,0.0,1.6227106227106227,-1.7155067155067154,-0.967032967032967,-1.03125,0.0,0.0,0.5457875457875457,-1.5067155067155067,0.0,-1.21875,-0.625,0.0,0.0,-1.4004884004884004,0.0,-1.25,0.0,0.0,0.0,-0.8034188034188035,0.9902319902319904,-1.1875,0.0,0.0,1.021978021978022,0.0,2.973137973137973,-0.9375,0.0,0.0,1.1514041514041513,0.0,3.2332112332112333,-0.96875,-1.0,0.0,0.0,0.0,2.1257631257631258,-1.3125,-0.71875,0.0,-1.3235653235653235,0.0,2.067155067155068,-1.34375,0.0,0.0,0.0,0.6581196581196581,3.9890109890109886,-0.78125,0.0,0.0,0.6227106227106227,0.0,3.991452991452992,-0.59375,-0.5625,0.0,0.0,-1.1489621489621489,2.1782661782661785,-0.8125,-0.71875,0.0,0.0,-0.6996336996336996,2.4432234432234434,-0.8125,0.0,0.0,0.0,0.0,3.3736263736263736,-0.5625,0.0,0.0,0.0,0.0,2.7118437118437115,-0.53125,0.625,0.0,0.6312576312576312,0.0,3.126984126984127,0.0,0.0,0.0,0.0,0.0,3.622710622710623,-0.75,-0.65625,0.0,0.0,0.0,3.6996336996337003,-0.78125,-0.78125,0.53125,0.0,0.0,2.9890109890109886,-0.65625,0.0,0.0,0.0,0.0,3.869352869352869,0.0,0.0,0.0,0.0,0.0,3.6263736263736255,0.0,0.0,0.0,0.0,-0.9035409035409036,2.253968253968254,0.0,0.0,0.0,0.0,0.0,2.2014652014652016,0.0,0.0,0.0,-0.6556776556776557,0.0,2.6630036630036633,0.0,0.0,0.0,0.0,0.0,1.4432234432234432,0.0,0.5625,0.0,0.0,0.0,0.8241758241758241,0.0,0.0,0.0,-0.7411477411477412,0.0,1.5909645909645909,0.0,0.0,0.0,-1.0805860805860803,0.0,1.266178266178266,0.0,0.0,0.0,,,,,,,,,,,,,,,,,,,,,,,,,movPosZ
accX,0.568986568986569,-1.9426129426129424,-1.7985347985347986,0.0,0.0,0.0,0.0,0.0,0.0,0.0,0.0,0.0,-1.0024420024420024,1.2967032967032968,0.6422466422466423,0.0,0.0,0.0,0.0,0.0,0.0,1.5625,0.0,0.0,0.0,-3.4029304029304033,-3.7448107448107453,2.0,0.0,0.0,1.8144078144078144,-4.660561660561661,-5.275946275946276,0.0,0.71875,0.0,0.7496947496947497,-1.68986568986569,-3.1709401709401708,-1.59375,0.0,0.0,-1.5811965811965811,0.8046398046398047,-1.4053724053724053,-1.625,0.0,0.0,-1.4029304029304028,1.4664224664224663,-0.7081807081807082,0.0,0.0,0.0,-1.2918192918192921,0.0,-2.398046398046398,0.0,0.0,0.0,0.0,-1.6947496947496947,-4.63980463980464,0.0,0.0,0.0,0.0,-1.6507936507936507,-5.634920634920635,-0.5625,0.0,0.0,-0.8583638583638583,0.0,-4.590964590964591,0.0,0.0,0.0,-1.6105006105006106,0.0,-4.622710622710622,0.0,0.0,0.0,-0.5103785103785103,-1.695970695970696,-5.152625152625153,0.0,0.625,0.0,0.7228327228327228,-1.9902319902319905,-4.4151404151404146,0.0,0.0,0.0,0.6007326007326007,-1.695970695970696,-2.7973137973137967,-0.59375,0.0,0.0,0.0,-0.912087912087912,-1.6117216117216118,0.0,0.0,0.0,1.336996336996337,-0.8925518925518926,-1.1294261294261294,0.0,0.0,0.0,1.3394383394383391,-1.9352869352869355,-2.42002442002442,-0.65625,0.0,0.0,0.9743589743589745,-1.6813186813186811,-1.3736263736263736,-1.0625,-0.75,0.0,0.5897435897435898,-1.0451770451770452,0.0,-1.0,-0.96875,0.0,0.6654456654456654,-1.1172161172161172,0.5763125763125763,-0.90625,-0.84375,0.0,0.0,-1.4908424908424909,0.0,-1.15625,0.0,0.0,0.0,-0.9230769230769232,0.9694749694749696,-1.21875,0.0,0.0,0.6117216117216118,-0.7826617826617827,2.6507936507936507,-0.84375,0.0,0.0,0.0,-0.8290598290598291,2.2698412698412698,-0.78125,-0.5625,0.0,0.7130647130647131,-1.5042735042735045,1.4993894993894994,-1.03125,0.0,0.0,0.0,-0.7557997557997558,1.6312576312576312,-1.25,0.0,0.0,0.0,0.0,3.404151404151404,-0.90625,0.0,0.0,0.0,-0.5091575091575091,3.145299145299145,-0.6875,0.0,0.0,0.0,0.0,3.2771672771672766,-0.875,0.0,0.0,-1.092796092796093,1.1123321123321124,3.061050061050061,-1.28125,0.0,0.0,-1.0622710622710625,1.3540903540903542,4.669108669108669,-1.0625,0.0,0.0,0.0,0.0,5.007326007326007,-0.59375,0.0,0.0,0.0,0.0,4.42002442002442,-0.53125,0.0,0.0,0.0,1.0012210012210012,4.671550671550672,-0.6875,0.0,0.0,0.0,1.4957264957264955,5.3528693528693525,-0.53125,0.0,0.0,0.0,0.0,4.147741147741148,0.0,0.0,0.0,-0.7130647130647131,0.0,2.4236874236874235,0.0,0.0,0.0,0.0,0.0,2.095238095238096,0.0,0.0,0.0,-1.2820512820512822,0.5763125763125763,1.7777777777777777,0.0,0.0,0.0,-0.6752136752136753,0.0,1.9743589743589745,0.0,0.0,0.0,,,,,,,,,,,,,,,,,,,,,,,,,,,,,,,,,,,,,,,,,,,,,,,,,movPosZ
accX,0.0,0.0,0.0,0.0,0.0,0.0,0.0,0.0,0.0,0.71875,0.0,0.0,0.0,-0.9108669108669109,0.0,0.65625,0.0,0.0,0.0,-0.9926739926739928,-0.811965811965812,0.0,0.0,0.0,0.0,0.0,-1.247863247863248,0.0,0.0,0.0,0.0,0.5726495726495726,-1.0757020757020757,0.0,0.0,0.0,0.0,0.0,-1.2832722832722834,0.0,0.0,0.0,0.0,0.0,-1.8742368742368745,0.5625,0.0,0.0,0.0,-1.1794871794871795,-3.7326007326007327,0.0,0.0,0.0,0.0,-1.1709401709401708,-4.787545787545787,0.0,0.59375,0.0,0.0,-0.8278388278388278,-4.047619047619048,0.0,0.0,0.0,0.0,-0.8070818070818071,-3.622710622710623,0.0,0.0,0.0,-0.7997557997557998,-1.1355311355311355,-4.387057387057388,0.0,0.0,0.0,-0.8632478632478633,-2.249084249084249,-5.914529914529915,0.0,0.0,0.0,0.0,-1.7765567765567765,-4.945054945054945,-0.78125,0.0,0.0,0.0,-0.9523809523809524,-3.0525030525030523,0.0,0.0,0.0,0.0,-1.0793650793650793,-3.1782661782661785,0.0,0.0,0.0,0.0,-1.8620268620268619,-4.148962148962149,0.0,0.0,0.0,0.0,-2.5641025641025643,-3.940170940170941,-0.90625,0.0,0.0,0.5152625152625152,-2.028083028083028,-2.6385836385836385,-1.3125,0.0,0.0,1.0,-1.6117216117216118,-1.0854700854700854,-1.5625,0.0,0.0,1.1978021978021978,-0.5873015873015873,0.7423687423687424,-1.25,0.0,0.0,0.6556776556776557,0.0,1.3064713064713065,-0.78125,0.0,0.0,0.0,-1.0036630036630036,0.7680097680097681,-0.84375,0.0,0.0,0.5396825396825397,-0.5714285714285714,1.3492063492063493,-0.96875,0.0,0.0,0.6153846153846154,0.0,2.351648351648352,-1.0,0.0,0.0,1.2722832722832722,0.0,2.4822954822954824,-0.9375,0.0,0.0,0.0,0.0,1.4517704517704515,-0.96875,0.0,0.0,0.0,-0.5103785103785103,1.761904761904762,-0.875,0.0,0.0,0.0,0.0,2.4993894993894994,-0.71875,0.0,0.0,0.7704517704517705,0.0,2.7948717948717947,-0.5625,0.0,0.0,0.0,-0.6776556776556777,2.0805860805860807,-0.65625,0.0,0.0,0.6031746031746031,0.0,3.3968253968253967,-0.78125,0.0,0.0,0.0,0.0,3.3284493284493286,-0.65625,0.0,0.0,-1.7130647130647132,0.0,2.2002442002442004,0.0,0.0,0.0,0.0,0.0,2.102564102564102,0.0,0.0,0.0,0.0,0.0,3.0024420024420024,-0.78125,0.0,0.0,0.0,0.7045177045177046,4.448107448107448,-0.84375,0.0,0.0,0.0,0.9682539682539684,4.267399267399267,-0.53125,-0.84375,0.0,-1.0818070818070815,0.0,3.1770451770451764,0.0,-0.71875,0.0,-0.7887667887667887,0.0,2.514041514041514,0.0,0.0,0.0,0.0,0.0,2.9072039072039066,0.0,0.0,0.0,,,,,,,,,,,,,,,,,,,,,,,,,,,,,,,,,,,,,,,,,,,,,,,,,,,,,,,movPosZ
accX,-0.5518925518925519,0.0,0.0,0.0,0.0,0.0,0.0,-1.431013431013431,-1.1306471306471306,0.78125,0.0,0.0,1.380952380952381,-1.7448107448107448,-1.8119658119658117,0.0,0.5625,0.0,1.0,0.0,-0.912087912087912,0.0,0.0,0.0,-0.8937728937728938,0.0,-0.757020757020757,1.03125,0.0,0.0,-0.7509157509157509,-0.8717948717948718,-2.909645909645909,1.15625,0.0,0.0,0.9487179487179488,-2.374847374847375,-4.368742368742368,0.0,0.0,0.0,0.0,-1.3186813186813189,-3.938949938949939,-0.59375,0.0,0.0,0.0,0.0,-3.313797313797314,0.0,0.0,0.0,-0.818070818070818,0.0,-3.211233211233212,0.0,0.0,0.0,0.0,-1.6532356532356531,-5.275946275946276,0.0,0.0,0.0,0.0,-2.52014652014652,-6.2967032967032965,-0.71875,0.0,0.0,0.0,-1.746031746031746,-4.706959706959707,-0.875,0.0,0.0,0.0,-1.1794871794871795,-3.236874236874237,0.0,0.0,0.0,-0.518925518925519,-1.3186813186813189,-3.05006105006105,0.0,0.0,0.0,0.0,-2.145299145299145,-3.7985347985347984,0.0,0.0,0.0,2.1709401709401708,-2.8241758241758244,-3.1514041514041518,-0.84375,0.0,0.0,1.8754578754578757,-1.8571428571428568,-0.5067155067155067,-1.0,-0.9375,0.0,0.0,-1.6275946275946276,0.0,-0.75,-1.0,0.0,0.0,-1.205128205128205,0.0,-0.59375,0.0,0.0,1.4920634920634919,-0.7887667887667887,0.7924297924297924,-0.71875,0.0,0.0,0.6739926739926739,-1.4041514041514038,0.0,-1.3125,0.0,0.0,0.0,-1.4285714285714286,0.0,-1.6875,0.0,0.0,0.7619047619047619,-1.290598290598291,1.2246642246642248,-1.9375,0.0,0.0,1.0268620268620268,-0.5299145299145299,3.117216117216117,-1.78125,0.0,0.0,1.195360195360195,0.0,4.105006105006105,-1.375,0.0,0.0,0.5714285714285714,0.0,3.3724053724053724,-1.09375,0.0,0.0,0.0,0.0,2.7130647130647128,-1.0,0.0,0.0,-1.5238095238095235,0.7619047619047619,3.2905982905982905,0.0,0.0,0.0,-1.6581196581196582,1.3711843711843712,2.5689865689865687,0.0,0.0,0.0,0.0,0.0,1.7362637362637363,-0.625,-0.5625,0.5625,-0.6532356532356532,0.0,1.6678876678876684,-1.5625,-0.6875,0.53125,0.0,0.5653235653235653,3.9621489621489614,-1.25,0.0,0.0,0.0,0.0,3.938949938949939,0.0,0.0,0.0,0.0,-0.5946275946275946,2.664224664224664,0.0,0.0,0.0,0.0,-0.6507936507936508,2.3015873015873014,0.0,0.59375,0.0,0.5384615384615384,0.0,3.771672771672772,-0.71875,0.0,0.0,0.0,0.0,4.4322344322344325,-0.71875,0.0,0.0,-0.6007326007326007,0.0,3.247863247863248,0.0,0.0,0.0,0.0,0.0,2.189255189255189,0.0,0.0,0.0,0.0,0.0,2.4945054945054945,0.0,0.0,0.0,0.5103785103785103,0.0,2.879120879120879,0.0,0.0,0.0,0.0,0.0,2.3504273504273505,0.0,0.0,0.0,,,,,,,,,,,,,,,,,,,,,,,,,,,,,,,,,,,,,,,,,,,,,,,,,movPosZ
accX,0.0,0.0,0.6544566544566545,0.71875,0.0,0.0,0.0,-0.7582417582417582,0.0,0.5625,0.0,0.0,0.0,0.0,-0.7326007326007326,0.0,0.0,0.0,-0.5103785103785103,-0.5921855921855922,-1.0854700854700854,0.0,0.0,0.0,0.0,0.0,-0.8253968253968254,0.0,0.0,0.0,0.0,0.0,-0.9377289377289376,0.0,0.0,0.0,0.0,0.0,-1.3736263736263736,0.0,0.0,0.0,0.0,-0.6349206349206349,-2.8327228327228333,0.0,0.0,0.0,0.0,-1.0146520146520146,-3.720390720390721,0.0,0.0,0.0,0.0,-0.6703296703296703,-4.316239316239317,0.0,0.0,0.0,-1.2796092796092795,0.0,-5.278388278388278,0.0,0.0,0.0,-1.9975579975579976,0.0,-6.667887667887667,0.0,0.0,0.0,-0.9792429792429792,-0.5555555555555556,-6.297924297924298,0.0,0.0,0.0,0.0,-1.678876678876679,-5.953601953601954,0.0,0.0,0.0,1.2332112332112333,-2.628815628815629,-5.907203907203908,0.0,0.0,0.0,0.0,-2.0415140415140414,-5.1159951159951165,-0.53125,0.0,0.0,0.0,-1.7777777777777777,-3.7887667887667886,0.0,0.0,0.0,2.9145299145299144,-2.2564102564102564,-1.358974358974359,0.0,0.0,0.0,3.025641025641025,-3.120879120879121,-1.1721611721611722,0.0,0.0,0.0,0.0,-4.068376068376068,-3.809523809523809,-1.21875,0.0,0.0,-0.5079365079365079,-3.1355311355311355,-3.543345543345543,-1.6875,0.0,0.0,0.0,-1.3846153846153846,0.0,-1.53125,0.0,0.0,1.9084249084249083,-0.6874236874236874,2.503052503052503,-0.8125,0.0,0.0,0.8937728937728938,-1.2735042735042734,1.0268620268620268,-0.5625,-0.53125,0.0,-0.6019536019536019,-0.6520146520146519,1.4884004884004884,-0.875,0.0,-0.6875,-1.277167277167277,0.6507936507936508,2.7362637362637363,-0.6875,0.0,-0.625,-0.6459096459096461,0.0,3.072039072039072,0.0,0.0,0.0,0.0,0.0,3.0976800976800978,0.0,-0.5625,0.0,0.0,0.0,3.9059829059829063,-0.8125,-0.8125,0.0,0.0,0.0,4.142857142857143,-1.125,-0.5625,0.0,0.0,0.0,4.31013431013431,-1.15625,0.0,0.0,0.0,1.115995115995116,6.12942612942613,-0.6875,0.0,0.0,0.6336996336996337,0.0,5.0695970695970685,0.0,0.0,0.0,0.5909645909645911,-1.7692307692307692,2.5457875457875456,0.0,0.0,0.0,0.0,0.0,3.4236874236874235,-1.0,0.0,0.0,-1.020757020757021,0.6666666666666666,4.63980463980464,-0.65625,0.0,0.0,0.0,0.0,4.289377289377289,0.0,0.65625,0.0,0.9389499389499391,0.0,3.6434676434676434,0.0,0.0,0.0,0.0,0.0,3.687423687423687,-0.59375,0.0,0.0,0.0,0.0,3.2539682539682535,0.0,0.0,0.0,0.0,0.0,2.3846153846153846,0.0,0.0,0.0,0.0,0.0,2.3492063492063493,0.0,0.0,0.0,0.0,0.0,2.021978021978022,0.0,0.0,0.0,,,,,,,,,,,,,,,,,,,,,,,,,,,,,,,,,,,,,,,,,,,,,,,,,movPosZ
accX,0.0,0.0,-0.7594627594627594,0.0,0.0,0.0,0.0,0.7179487179487181,0.0,0.6875,0.0,0.0,-0.8852258852258852,0.0,0.5763125763125763,1.28125,0.0,0.0,0.0,-1.3943833943833943,-1.3516483516483515,0.78125,0.0,0.0,0.7692307692307693,-2.4444444444444446,-2.7252747252747254,-0.53125,0.0,0.0,0.0,-0.6043956043956044,-1.3284493284493284,-0.90625,0.0,0.0,-0.94993894993895,0.8913308913308914,-0.5079365079365079,0.0,0.0,0.0,-0.5775335775335775,0.0,-1.7118437118437118,0.0,0.0,0.0,0.0,-1.4224664224664223,-3.7655677655677655,0.0,0.0,0.0,0.0,-1.021978021978022,-4.534798534798535,0.0,0.0,0.0,0.0,-0.9108669108669109,-4.407814407814408,0.0,0.0,0.0,-0.5970695970695971,-0.7045177045177046,-4.6129426129426125,0.0,0.0,0.0,0.0,-1.617826617826618,-5.3821733821733835,0.0,0.0,0.0,0.0,-2.346764346764347,-5.728937728937728,0.0,0.0,0.0,0.0,-1.6459096459096458,-4.412698412698413,0.0,0.0,0.0,0.0,-1.7032967032967032,-4.207570207570208,-0.53125,0.0,0.0,0.0,-1.7704517704517704,-3.687423687423687,-0.78125,0.0,0.0,0.0,-2.21001221001221,-3.456654456654457,-1.15625,0.0,0.0,0.0,-1.7081807081807079,-2.547008547008547,-1.03125,0.0,0.0,1.565323565323565,-1.8913308913308915,-1.7326007326007329,-0.71875,-0.59375,0.0,0.7716727716727717,-2.045177045177045,-2.23931623931624,-0.875,-0.625,0.0,0.0,-1.6324786324786325,-0.8827838827838828,-1.0,-0.53125,0.0,0.0,-1.7936507936507935,0.0,-0.9375,0.0,0.0,0.7838827838827839,-1.382173382173382,0.8437118437118437,-1.03125,0.0,0.0,1.1916971916971917,-1.1501831501831499,1.9230769230769231,-1.03125,0.0,0.0,1.0573870573870574,-1.122100122100122,2.207570207570208,-1.125,0.0,0.0,0.0,0.0,2.855921855921856,-1.3125,-0.5625,0.0,0.0,0.5518925518925519,4.069597069597069,-1.125,-0.5625,0.0,0.0,0.6520146520146519,4.105006105006105,-0.78125,0.0,0.0,0.9548229548229548,-0.9572649572649572,3.931623931623931,0.0,0.0,0.0,0.0,-1.3015873015873016,3.5995115995116,-0.90625,0.0,0.0,0.6862026862026862,0.0,4.768009768009769,-1.21875,0.0,0.0,0.5384615384615384,1.065934065934066,4.775335775335775,-0.90625,-0.84375,0.0,0.0,0.0,3.0207570207570207,0.0,-0.5625,0.0,-0.5567765567765568,-0.7741147741147741,2.213675213675214,0.0,0.0,0.0,0.0,0.0,3.6312576312576312,-0.53125,0.0,0.0,0.0,0.0,4.512820512820513,0.0,0.0,0.0,0.0,0.0,3.8424908424908426,0.0,0.0,0.0,0.0,0.0,2.826617826617827,0.0,0.0,0.0,-0.9804639804639804,1.0097680097680095,2.8131868131868134,0.0,0.0,0.0,-0.9413919413919414,0.0,3.175824175824176,0.0,0.0,0.0,0.0,-1.1636141636141637,2.0024420024420024,0.0,0.0,0.0,0.0,0.0,1.468864468864469,-0.59375,-0.53125,0.0,-0.6422466422466423,0.9291819291819292,2.3943833943833943,-0.625,0.0,0.0,0.0,0.0,2.8021978021978016,0.0,0.0,0.0,0.0,-0.8192918192918193,2.068376068376069,0.0,0.0,0.0,,,,,,,,,,,,,,,,,,,,,,,,,,,,,,,movPosZ
accX,0.0,0.0,0.5824175824175825,0.0,0.0,0.0,0.0,0.0,0.0,0.65625,0.0,0.0,0.0,-1.1086691086691087,-0.8595848595848596,0.0,0.0,0.0,0.0,-1.0146520146520146,-0.9133089133089132,0.0,0.0,0.0,0.0,0.0,-0.811965811965812,0.0,0.0,0.0,0.0,0.5164835164835165,-0.5702075702075702,0.625,0.0,0.0,0.0,0.0,-1.6166056166056166,0.78125,0.0,0.0,0.0,-0.9829059829059827,-2.9841269841269837,0.6875,0.0,0.0,0.0,-1.5091575091575091,-4.061050061050061,0.0,0.0,0.0,0.8205128205128205,-1.2698412698412698,-4.2844932844932835,0.0,0.0,0.0,-0.5103785103785103,-0.5995115995115995,-4.586080586080586,0.0,0.0,0.0,0.0,0.0,-4.141636141636142,0.0,0.0,0.0,0.0,-1.5958485958485962,-5.506715506715507,0.0,0.0,0.0,0.0,-2.0427350427350426,-6.113553113553113,0.0,0.53125,0.0,0.0,-1.9938949938949944,-4.753357753357753,0.0,0.0,0.0,0.0,-1.7545787545787546,-3.3174603174603177,0.0,0.0,0.0,0.0,-2.05006105006105,-2.879120879120879,0.0,0.0,0.0,0.0,-2.8583638583638584,-3.0134310134310134,-0.84375,0.0,0.0,1.8730158730158732,-2.4163614163614158,-1.065934065934066,-1.0,0.0,0.0,1.1831501831501832,-2.2185592185592187,-0.894993894993895,-1.15625,0.0,0.0,1.1465201465201464,-1.663003663003663,-0.5128205128205128,-1.3125,-0.625,0.0,1.8937728937728937,-1.1147741147741148,0.0,-1.3125,-0.625,0.0,0.0,0.0,0.0,-1.1875,0.0,0.0,0.0,-1.2026862026862026,0.0,-1.09375,0.0,0.0,0.0,-0.9792429792429792,0.0,-1.375,0.0,0.0,0.0,0.0,2.023199023199023,-1.3125,0.0,0.0,0.0,0.0,1.7851037851037852,-0.875,-0.84375,0.0,0.0,-1.0537240537240538,0.8131868131868132,-0.875,-0.5625,0.0,0.0,0.0,1.691086691086691,-1.34375,0.0,0.0,1.4884004884004884,0.6703296703296703,4.4993894993894985,-1.125,0.0,0.0,1.103785103785104,0.0,4.540903540903541,-0.65625,-0.59375,0.0,0.0,-0.6776556776556777,3.1648351648351647,-0.5625,-0.84375,0.0,0.0,-0.7802197802197802,2.4566544566544573,-0.84375,0.0,0.0,0.0,0.0,3.045177045177045,-1.0625,0.0,0.0,0.0,0.6117216117216118,4.380952380952381,-0.75,0.0,0.0,0.0,0.0,3.555555555555556,0.0,0.0,0.0,-0.8156288156288156,0.0,3.2783882783882783,0.0,0.0,0.0,0.0,0.0,3.957264957264957,0.0,0.0,0.0,0.0,0.0,4.202686202686203,0.0,0.0,0.0,0.0,0.0,4.028083028083028,0.0,0.0,0.0,-0.8461538461538461,0.0,3.413919413919414,0.0,-0.71875,0.53125,-1.4188034188034189,0.0,2.84981684981685,0.0,0.0,0.0,0.0,0.0,3.6825396825396814,0.0,0.0,0.0,0.0,0.0,3.183150183150183,0.0,0.0,0.0,0.0,0.0,2.21001221001221,0.0,-0.65625,0.0,-0.7326007326007326,0.0,1.7191697191697193,0.0,0.0,0.0,,,,,,,,,,,,,,,,,,,,,,,,,,,,,,,movPosZ
accX,-0.5860805860805861,0.7631257631257631,0.7350427350427351,0.0,0.0,0.0,0.0,0.0,0.0,0.875,0.0,0.0,0.0,-2.217338217338217,-1.2564102564102564,0.0,0.0,0.0,1.194139194139194,-2.191697191697192,-1.5592185592185592,-0.875,0.0,0.0,0.0,0.5103785103785103,0.0,-0.6875,0.0,0.0,0.0,1.0708180708180708,0.9401709401709402,0.0,0.0,0.0,0.0,-0.7008547008547008,-0.8840048840048841,0.65625,0.0,0.0,0.0,-1.0231990231990231,-2.85958485958486,0.0,0.0,0.0,0.0,-0.9536019536019535,-3.2222222222222223,0.0,0.0,0.0,0.0,-0.6678876678876678,-3.501831501831502,0.0,0.0,0.0,0.0,-0.5372405372405372,-3.9670329670329667,0.0,0.0,0.0,0.0,-0.9975579975579976,-4.216117216117216,0.65625,0.0,0.0,0.0,-1.5409035409035412,-4.9975579975579985,0.0,0.5625,0.0,0.0,-1.485958485958486,-4.9523809523809526,0.0,0.0,0.0,0.0,-1.1343101343101345,-4.816849816849817,0.0,0.0,0.0,-0.5286935286935287,-1.0463980463980465,-4.700854700854701,0.0,0.0,0.0,0.0,-1.2466422466422469,-3.4236874236874235,0.0,0.0,0.0,1.264957264957265,-2.1465201465201464,-3.313797313797314,0.0,0.0,0.0,0.7948717948717948,-2.474969474969475,-3.5909645909645915,-0.8125,0.0,0.0,0.0,-1.4761904761904765,-2.6825396825396823,-1.09375,-0.5625,0.0,0.0,-0.9365079365079364,-1.6300366300366298,-0.90625,0.0,0.0,0.7826617826617827,-1.5909645909645909,-1.297924297924298,-0.90625,0.0,0.0,1.2344322344322345,-1.9133089133089132,-0.8632478632478633,-1.25,-0.65625,0.0,0.7753357753357754,-1.021978021978022,0.0,-1.75,-0.84375,0.0,0.0,0.0,2.6263736263736264,-1.46875,-0.53125,0.0,0.503052503052503,0.0,2.709401709401709,-0.8125,0.0,0.0,1.126984126984127,-1.462759462759463,1.6996336996336996,-0.6875,0.0,0.0,0.6788766788766789,-1.7057387057387057,0.9328449328449328,-1.5,-1.0625,0.0,0.0,0.0,2.9963369963369964,-2.1875,-0.8125,0.0,0.0,0.8485958485958486,4.931623931623932,-1.6875,0.0,0.0,0.7130647130647131,0.0,4.394383394383396,-0.71875,0.0,0.0,0.0,-1.0,2.8937728937728937,-0.625,0.0,0.0,0.0,0.0,3.3015873015873014,-1.09375,0.0,0.0,0.0,0.5738705738705738,3.931623931623931,-1.25,0.0,0.0,0.0,0.0,4.262515262515263,-1.0,0.0,0.0,0.0,0.0,3.9096459096459095,-0.53125,0.0,0.0,0.0,0.0,3.4786324786324787,-0.53125,0.0,0.0,0.0,0.0,3.9413919413919416,-1.0,0.0,0.0,-1.661782661782662,0.8803418803418803,4.593406593406592,-0.9375,0.0,0.0,-1.1465201465201464,1.26007326007326,4.858363858363859,0.0,0.0,0.0,0.0,0.9145299145299144,3.681318681318681,0.0,0.0,0.0,0.0,0.0,2.1367521367521367,0.0,0.0,0.0,0.0,0.0,2.1514041514041518,0.0,0.0,0.0,0.0,-0.6691086691086691,2.523809523809524,0.0,0.0,0.0,,,,,,,,,,,,,,,,,,,,,,,,,,,,,,,,,,,,,,,,,,,movPosZ
accX,0.0,0.0,0.0,0.0,0.0,0.0,0.0,0.0,0.0,0.59375,0.0,0.0,0.0,0.0,0.0,0.65625,0.0,0.0,0.0,-1.2332112332112333,-1.1684981684981686,0.0,0.0,0.0,0.0,0.0,-0.7985347985347986,0.0,0.0,0.0,0.0,0.0,0.0,0.0,0.0,0.0,0.0,0.0,0.0,0.78125,0.0,0.0,0.0,-1.7435897435897436,-2.686202686202686,1.15625,0.0,0.0,1.4126984126984128,-2.2698412698412698,-3.973137973137973,0.0,0.53125,0.0,0.6849816849816851,0.0,-3.0048840048840044,0.0,0.0,0.0,-0.9010989010989012,0.0,-2.8083028083028077,0.0,-0.53125,0.0,-0.7167277167277167,-0.5482295482295483,-3.7936507936507935,0.0,0.0,0.0,0.0,-1.3113553113553114,-4.777777777777779,0.53125,0.0,0.0,0.0,-1.5970695970695972,-5.102564102564102,0.0,0.0,0.0,0.0,-1.31013431013431,-3.7973137973137967,0.0,0.0,0.0,0.0,-1.619047619047619,-3.671550671550672,0.0,0.0,0.0,0.0,-1.6007326007326008,-3.323565323565324,0.0,0.0,0.0,0.0,-1.678876678876679,-3.655677655677656,0.0,0.0,0.0,0.6837606837606838,-1.7741147741147743,-2.9194139194139197,0.0,0.0,-0.53125,1.1623931623931625,-1.8913308913308915,-1.68986568986569,0.0,0.0,0.0,1.0818070818070815,-1.4761904761904765,-1.006105006105006,0.0,-0.6875,0.0,0.0,-0.8205128205128205,-1.7411477411477412,0.0,-0.84375,0.0,0.9377289377289376,-1.57997557997558,-1.7997557997557998,0.0,0.0,0.0,0.5006105006105006,-1.155067155067155,-0.8791208791208791,-0.9375,0.0,0.0,0.0,0.0,0.5848595848595849,-1.09375,-0.71875,0.0,0.0,0.0,1.4126984126984128,-0.78125,-0.625,0.0,0.7667887667887668,0.0,1.7301587301587302,-0.59375,0.0,0.0,0.0,-0.7264957264957265,0.9462759462759462,-1.03125,0.0,0.0,0.0,0.0,1.8669108669108667,-1.25,0.0,0.0,0.5750915750915749,0.9206349206349206,4.1843711843711855,-0.78125,0.0,0.0,0.0,0.0,3.6593406593406588,-0.5625,0.0,0.0,0.0,0.0,2.793650793650793,-0.8125,0.0,0.0,0.0,0.0,3.551892551892552,-1.0,0.0,0.0,0.0,0.0,4.9133089133089145,-0.71875,0.0,0.0,0.0,0.0,4.582417582417582,0.0,0.0,0.0,0.0,0.0,3.934065934065934,0.0,0.0,0.0,-0.5763125763125763,0.0,3.3406593406593412,-0.625,0.0,0.0,-1.1367521367521367,0.0,3.844932844932845,-0.75,0.0,0.0,-1.0329670329670328,0.0,4.566544566544566,0.0,0.0,0.0,0.0,0.0,4.516483516483516,0.0,0.0,0.0,0.5421245421245421,0.0,3.503052503052503,0.0,0.0,0.0,0.0,0.0,2.1623931623931623,-0.59375,-0.78125,0.0,-1.1904761904761905,0.0,2.3565323565323566,0.0,0.0,0.0,,,,,,,,,,,,,,,,,,,,,,,,,,,,,,,,,,,,,,,,,,,,,,,,,movPosZ
accX,0.0,0.0,-1.358974358974359,0.8125,0.0,0.0,-0.7277167277167277,0.0,-2.5457875457875456,0.59375,0.0,0.0,0.0,0.5750915750915749,-2.155067155067155,0.75,0.0,0.0,1.271062271062271,-1.6691086691086692,-1.2393162393162394,1.59375,-0.53125,0.0,0.0,-1.8070818070818069,-3.351648351648352,1.34375,-0.75,0.0,0.0,-2.0476190476190474,-4.256410256410256,0.0,0.0,0.0,0.0,-0.9963369963369964,-3.9413919413919416,-0.71875,0.0,0.0,-1.2503052503052503,1.0390720390720392,-2.505494505494505,-1.09375,0.0,0.0,-1.1306471306471306,0.0,-3.05006105006105,-0.53125,0.0,0.0,-1.290598290598291,-1.0744810744810744,-4.4896214896214905,0.0,0.0,0.0,-1.663003663003663,-1.6532356532356531,-5.6642246642246645,0.0,0.0,0.0,0.0,-1.020757020757021,-4.991452991452992,-0.8125,0.78125,0.0,1.2942612942612943,-0.5164835164835165,-3.468864468864469,-0.6875,0.0,0.0,2.11965811965812,-1.3089133089133091,-2.6544566544566544,-0.5625,0.0,0.0,1.7545787545787546,-1.9951159951159951,-2.533577533577533,-0.625,-0.53125,0.0,0.9377289377289376,-2.091575091575092,-2.409035409035409,-0.875,0.0,0.0,0.9047619047619048,-1.290598290598291,-1.0561660561660562,-0.78125,0.0,0.0,1.3492063492063493,-0.7118437118437119,0.0,-0.59375,0.0,0.0,1.623931623931624,-0.9682539682539684,-0.6581196581196581,-0.59375,-0.875,0.0,1.0073260073260073,-1.7252747252747254,-2.2185592185592187,-1.09375,-0.78125,0.0,1.1452991452991452,-3.1623931623931623,-1.896214896214896,-1.5625,0.0,0.0,2.4236874236874235,-3.5409035409035408,0.9694749694749696,-1.34375,0.0,0.0,1.824175824175824,-3.5409035409035408,2.045177045177045,-0.9375,-0.6875,0.0,1.7863247863247864,-3.741147741147741,1.155067155067155,-1.125,0.0,0.0,0.0,-2.1880341880341883,1.0231990231990231,-1.625,0.0,-0.5625,1.2454212454212454,-0.9963369963369964,3.227106227106227,-1.78125,0.0,0.0,0.0,-0.5323565323565324,4.067155067155067,-1.9375,-0.71875,0.0,-1.9706959706959708,0.0,3.62026862026862,-1.75,0.0,0.0,-1.637362637362637,1.155067155067155,5.190476190476192,-0.9375,0.5625,0.0,0.0,2.0354090354090357,6.277167277167277,0.0,0.0,0.0,0.0,1.78998778998779,5.661782661782662,0.0,0.0,0.0,0.0,0.0,5.208791208791209,0.0,-0.90625,0.0,-1.8693528693528692,0.0,4.518925518925518,-0.5625,-0.78125,0.0,-1.586080586080586,1.4676434676434675,4.87912087912088,0.0,0.0,0.0,-1.4297924297924298,0.6459096459096461,3.595848595848596,0.0,0.0,0.0,0.0,-1.565323565323565,3.1672771672771667,0.0,-0.65625,0.65625,0.0,-1.4590964590964588,2.9609279609279615,0.0,-0.625,0.0,0.0,-1.028083028083028,2.481074481074481,0.0,0.0,0.0,,,,,,,,,,,,,,,,,,,,,,,,,,,,,,,,,,,,,,,,,,,,,,,,,,,,,,,,,,,,,,,,,,,,,,,,,,,,,,,movPosZ
accX,0.0,0.0,0.0,-0.53125,0.0,0.0,-0.9975579975579976,1.0525030525030523,0.7716727716727717,0.0,0.0,0.0,0.0,0.5824175824175825,1.0012210012210012,1.15625,0.0,0.0,0.0,-1.3492063492063493,-1.2271062271062272,1.75,0.0,0.0,0.7374847374847375,-2.595848595848596,-3.1587301587301586,0.875,0.0,0.0,0.0,-0.6056166056166056,-2.5164835164835164,0.0,0.0,0.0,0.0,0.8864468864468864,-0.6141636141636142,0.0,0.0,0.0,-1.2942612942612943,0.0,-2.4713064713064714,0.6875,0.0,0.0,-0.7313797313797313,-1.2063492063492065,-4.256410256410256,0.96875,0.6875,0.0,1.26007326007326,-1.9474969474969477,-4.852258852258852,0.0,0.0,0.0,0.57997557997558,-0.9706959706959708,-4.0976800976800964,0.0,-0.65625,0.0,0.0,-1.2637362637362637,-4.8620268620268625,0.0,-0.875,0.0,-0.6959706959706959,-1.608058608058608,-5.516483516483516,0.0,0.0,0.0,0.0,-1.9352869352869355,-5.1941391941391934,0.0,0.0,0.0,0.6275946275946276,-1.7264957264957266,-3.9511599511599513,0.0,0.0,0.0,1.2161172161172158,-1.9633699633699635,-2.9670329670329667,0.0,-0.625,0.0,0.0,-1.9816849816849815,-3.318681318681319,0.0,-0.53125,0.0,0.0,-2.705738705738706,-2.7765567765567765,0.0,0.0,0.0,1.6593406593406594,-3.3943833943833943,-2.0012210012210008,-0.90625,0.0,0.0,1.192918192918193,-2.4603174603174605,0.0,-1.125,-0.75,0.0,0.5897435897435898,-2.0097680097680097,0.0,-1.0,-0.78125,0.0,0.0,-1.6996336996336996,0.0,-1.03125,0.0,0.0,0.7631257631257631,-2.1526251526251525,0.0,-1.25,0.0,0.0,0.0,-1.691086691086691,1.1025641025641026,-1.34375,0.0,-0.5625,1.164835164835165,-0.7094017094017094,2.015873015873016,-1.28125,0.0,0.0,1.5811965811965811,-0.7606837606837606,1.7924297924297925,-1.40625,-0.71875,0.0,0.0,-0.9230769230769232,0.5347985347985348,-1.75,-0.53125,0.0,0.0,0.0,2.5811965811965814,-1.40625,0.0,0.0,0.0,0.7545787545787546,4.122100122100122,-0.71875,0.0,0.0,0.0,0.6678876678876678,3.7851037851037854,0.0,0.0,0.0,0.5067155067155067,0.0,3.542124542124542,-0.625,0.0,0.0,0.0,0.0,3.412698412698413,-1.0625,0.0,0.0,0.0,0.0,4.481074481074482,-1.0625,0.0,0.0,0.0,0.5995115995115995,4.516483516483516,-0.625,0.0,0.0,-0.6898656898656899,0.0,3.936507936507936,0.0,0.0,0.0,-0.6202686202686203,0.0,3.665445665445665,0.0,0.0,0.0,-0.6471306471306472,0.0,3.3418803418803416,0.0,0.0,0.0,-0.8315018315018315,0.0,2.716727716727717,0.0,0.0,0.0,-0.8461538461538461,0.0,3.2490842490842486,0.0,0.0,0.0,0.0,0.0,2.0,0.0,0.0,0.0,-0.5177045177045178,0.0,2.1562881562881557,0.0,0.0,0.0,,,,,,,,,,,,,,,,,,,,,,,,,,,,,,,,,,,,,,,,,,,,,,,,,,,,,,,,,,,,,movPosZ
accX,0.0,0.0,0.0,0.0,0.0,0.0,0.6862026862026862,0.8058608058608059,1.586080586080586,0.0,0.0,0.0,0.0,0.0,1.5457875457875458,1.46875,0.0,0.0,0.0,-2.346764346764347,-1.984126984126984,1.5625,0.0,0.0,0.0,-2.289377289377289,-2.9401709401709404,0.0,0.59375,0.0,0.7179487179487181,0.7240537240537241,0.0,-1.0625,0.0,0.0,-0.6959706959706959,1.4884004884004884,0.0,0.0,0.0,0.0,0.0,0.0,-1.5079365079365081,0.6875,0.0,0.0,0.0,-1.78021978021978,-3.7387057387057383,0.625,0.0,0.0,0.0,-1.0744810744810744,-4.465201465201465,0.0,0.0,0.0,0.0,0.0,-4.395604395604397,0.0,0.0,0.0,0.0,0.0,-5.343101343101343,0.0,0.0,0.0,0.0,-0.7081807081807082,-5.118437118437118,0.65625,0.0,0.0,0.6398046398046398,-2.509157509157509,-6.311355311355312,0.0,0.0,-0.65625,0.6043956043956044,-3.1794871794871797,-6.741147741147741,-1.03125,0.0,-0.78125,0.0,-2.1062271062271063,-5.971916971916972,-1.59375,0.0,-0.5625,0.0,-1.537240537240537,-3.956043956043956,-1.03125,0.0,0.0,-1.1282051282051282,-2.84004884004884,-4.417582417582418,-0.75,0.0,0.0,0.0,-3.8913308913308913,-4.274725274725275,-1.25,0.0,-0.59375,0.9413919413919414,-3.3406593406593412,-2.455433455433456,-1.9375,0.0,-0.53125,1.2258852258852257,-1.5811965811965811,0.0,-1.6875,0.0,0.0,1.1831501831501832,-1.4603174603174602,1.4981684981684982,-1.15625,0.0,0.0,1.194139194139194,-1.3357753357753357,1.9658119658119655,-0.90625,0.0,0.0,0.6312576312576312,-0.9914529914529916,1.8742368742368745,-0.90625,0.0,-0.5625,0.6703296703296703,0.0,2.1709401709401708,-0.75,0.0,0.0,0.706959706959707,0.0,2.3626373626373627,0.0,-0.625,0.0,0.0,0.0,1.266178266178266,0.0,-0.84375,0.0,0.0,0.0,1.8461538461538465,0.0,-1.0625,0.0,-0.5714285714285714,0.0,1.8424908424908424,0.0,-0.71875,0.0,-0.7472527472527473,0.0,2.562881562881563,0.0,0.0,0.0,0.0,0.0,3.1001221001221,0.0,0.0,0.0,0.0,0.0,2.6617826617826617,0.0,0.0,0.0,0.0,-0.9853479853479854,2.6178266178266183,-0.6875,0.0,0.0,0.9279609279609279,-1.0793650793650793,3.5445665445665444,-0.90625,-0.625,0.0,0.0,0.0,4.069597069597069,0.0,0.0,0.0,-0.7826617826617827,-0.6056166056166056,3.2771672771672766,0.0,0.0,0.0,0.0,-1.0134310134310134,3.21001221001221,-0.59375,0.0,0.0,0.0,0.0,4.443223443223443,-0.75,0.0,0.0,-0.8827838827838828,0.0,3.9328449328449326,0.0,0.0,0.0,-1.1501831501831499,0.0,2.7203907203907205,0.0,0.0,0.0,-0.6471306471306472,0.0,2.399267399267399,0.0,0.0,0.0,-0.5115995115995116,0.0,2.8021978021978016,0.0,0.0,0.0,-0.7997557997557998,0.0,1.9792429792429795,0.0,0.0,0.0,0.0,0.0,1.0329670329670328,0.0,0.0,0.0,0.0,-0.5177045177045178,1.0683760683760684,0.0,0.0,0.0,,,,,,,,,,,,,,,,,,,,,,,,,,,,,,,,,,,,,movPosZ
