,00_accX,00_accY,00_accZ,00_gyroX,00_gyroY,00_gyroZ,01_accX,01_accY,01_accZ,01_gyroX,01_gyroY,01_gyroZ,02_accX,02_accY,02_accZ,02_gyroX,02_gyroY,02_gyroZ,03_accX,03_accY,03_accZ,03_gyroX,03_gyroY,03_gyroZ,04_accX,04_accY,04_accZ,04_gyroX,04_gyroY,04_gyroZ,05_accX,05_accY,05_accZ,05_gyroX,05_gyroY,05_gyroZ,06_accX,06_accY,06_accZ,06_gyroX,06_gyroY,06_gyroZ,07_accX,07_accY,07_accZ,07_gyroX,07_gyroY,07_gyroZ,08_accX,08_accY,08_accZ,08_gyroX,08_gyroY,08_gyroZ,09_accX,09_accY,09_accZ,09_gyroX,09_gyroY,09_gyroZ,10_accX,10_accY,10_accZ,10_gyroX,10_gyroY,10_gyroZ,11_accX,11_accY,11_accZ,11_gyroX,11_gyroY,11_gyroZ,12_accX,12_accY,12_accZ,12_gyroX,12_gyroY,12_gyroZ,13_accX,13_accY,13_accZ,13_gyroX,13_gyroY,13_gyroZ,14_accX,14_accY,14_accZ,14_gyroX,14_gyroY,14_gyroZ,15_accX,15_accY,15_accZ,15_gyroX,15_gyroY,15_gyroZ,16_accX,16_accY,16_accZ,16_gyroX,16_gyroY,16_gyroZ,17_accX,17_accY,17_accZ,17_gyroX,17_gyroY,17_gyroZ,18_accX,18_accY,18_accZ,18_gyroX,18_gyroY,18_gyroZ,19_accX,19_accY,19_accZ,19_gyroX,19_gyroY,19_gyroZ,20_accX,20_accY,20_accZ,20_gyroX,20_gyroY,20_gyroZ,21_accX,21_accY,21_accZ,21_gyroX,21_gyroY,21_gyroZ,22_accX,22_accY,22_accZ,22_gyroX,22_gyroY,22_gyroZ,23_accX,23_accY,23_accZ,23_gyroX,23_gyroY,23_gyroZ,24_accX,24_accY,24_accZ,24_gyroX,24_gyroY,24_gyroZ,25_accX,25_accY,25_accZ,25_gyroX,25_gyroY,25_gyroZ,26_accX,26_accY,26_accZ,26_gyroX,26_gyroY,26_gyroZ,27_accX,27_accY,27_accZ,27_gyroX,27_gyroY,27_gyroZ,28_accX,28_accY,28_accZ,28_gyroX,28_gyroY,28_gyroZ,29_accX,29_accY,29_accZ,29_gyroX,29_gyroY,29_gyroZ,30_accX,30_accY,30_accZ,30_gyroX,30_gyroY,30_gyroZ,31_accX,31_accY,31_accZ,31_gyroX,31_gyroY,31_gyroZ,32_accX,32_accY,32_accZ,32_gyroX,32_gyroY,32_gyroZ,33_accX,33_accY,33_accZ,33_gyroX,33_gyroY,33_gyroZ,34_accX,34_accY,34_accZ,34_gyroX,34_gyroY,34_gyroZ,35_accX,35_accY,35_accZ,35_gyroX,35_gyroY,35_gyroZ,36_accX,36_accY,36_accZ,36_gyroX,36_gyroY,36_gyroZ,37_accX,37_accY,37_accZ,37_gyroX,37_gyroY,37_gyroZ,38_accX,38_accY,38_accZ,38_gyroX,38_gyroY,38_gyroZ,39_accX,39_accY,39_accZ,39_gyroX,39_gyroY,39_gyroZ,40_accX,40_accY,40_accZ,40_gyroX,40_gyroY,40_gyroZ,41_accX,41_accY,41_accZ,41_gyroX,41_gyroY,41_gyroZ,42_accX,42_accY,42_accZ,42_gyroX,42_gyroY,42_gyroZ,43_accX,43_accY,43_accZ,43_gyroX,43_gyroY,43_gyroZ,44_accX,44_accY,44_accZ,44_gyroX,44_gyroY,44_gyroZ,45_accX,45_accY,45_accZ,45_gyroX,45_gyroY,45_gyroZ,46_accX,46_accY,46_accZ,46_gyroX,46_gyroY,46_gyroZ,47_accX,47_accY,47_accZ,47_gyroX,47_gyroY,47_gyroZ,category
accX,0.0,0.0,-0.7973137973137974,0.0,0.0,0.0,0.0,-0.5262515262515263,-1.1831501831501832,0.0,0.59375,0.0,0.0,0.0,-0.8473748473748474,0.0,0.5625,0.0,-0.5738705738705738,1.3345543345543345,0.0,0.0,0.0,0.0,-0.5726495726495726,1.7228327228327232,0.0,0.0,0.0,0.0,0.0,1.8302808302808304,0.0,0.0,0.0,0.0,1.0757020757020757,2.954822954822955,1.1489621489621489,0.0,0.0,0.0,0.0,2.8925518925518925,0.0,0.0,-0.8125,0.0,0.0,2.9829059829059825,-0.6092796092796092,0.0,-0.5625,0.0,0.0,2.677655677655677,0.0,0.0,-0.59375,0.0,0.0,1.8547008547008548,-1.2222222222222223,0.0,-0.8125,0.0,0.0,1.4566544566544566,-1.1831501831501832,-0.53125,-0.9375,0.0,-1.0012210012210012,1.9108669108669107,-0.7887667887667887,-0.59375,-0.875,0.0,-1.3089133089133091,1.8571428571428568,-0.8266178266178266,0.0,0.0,0.0,0.0,0.0,-1.465201465201465,0.0,0.0,0.0,0.0,0.0,-1.2673992673992671,-0.6875,0.0,0.0,0.0,0.5238095238095238,0.0,-0.6875,0.0,0.0,-0.6129426129426129,0.0,0.5335775335775336,0.0,0.0,0.0,0.0,0.0,0.6642246642246642,0.0,0.0,0.0,0.6471306471306472,-2.0818070818070815,-0.5946275946275946,0.0,0.0,0.0,0.0,-1.2442002442002442,0.0,-0.75,0.0,0.0,-0.5555555555555556,-1.376068376068376,0.6947496947496947,-0.59375,0.0,0.0,0.0,-1.656898656898657,0.7277167277167277,0.0,0.0,0.0,0.0,-3.0244200244200243,-0.5787545787545788,0.0,0.0,0.0,0.8791208791208791,-3.173382173382173,0.0,-0.59375,0.0,0.0,0.7533577533577533,-2.578754578754579,1.0842490842490842,0.0,0.0,0.0,0.0,-3.072039072039072,0.0,0.0,0.59375,0.0,0.0,-3.3431013431013437,0.0,0.0,0.6875,0.0,0.6349206349206349,-3.6996336996337003,0.0,0.0,0.0,0.0,-1.424908424908425,-3.4407814407814414,0.0,0.0,0.0,0.625,-1.4493284493284493,-3.3504273504273505,0.9584859584859584,0.5625,0.84375,0.71875,2.0586080586080584,-4.7252747252747245,1.612942612942613,0.0,0.59375,0.0,2.103785103785104,-4.53968253968254,0.0,0.0,0.0,0.0,0.0,-3.9096459096459095,-1.0915750915750917,0.0,0.0,0.0,-0.5555555555555556,-2.9853479853479854,-0.5616605616605617,0.0,0.0,0.0,0.5311355311355311,-3.641025641025641,0.0,0.0,0.0,0.0,-1.2124542124542124,-3.4090354090354085,0.0,0.0,0.0,0.0,,,,,,,,,,,,,,,,,,,,,,,,,,,,,,,,,,,,,,,,,,,,,,,,,,,,,,,,,,,,,,,,,,,movPosY
accX,0.0,-0.7484737484737485,0.0,0.0,0.0,-0.625,-1.0012210012210012,0.0,-1.7667887667887667,-0.65625,0.0,0.0,0.0,0.0,-0.9975579975579976,-1.03125,0.0,0.0,0.0,2.4737484737484743,1.7753357753357752,0.0,0.0,0.0,-0.6275946275946276,1.4847374847374848,1.5335775335775337,1.125,0.0,0.0,0.0,0.0,0.0,0.78125,0.0,0.0,0.0,0.0,-2.1355311355311355,0.0,0.0,0.0,-0.7155067155067155,1.8925518925518925,-1.575091575091575,-0.75,0.0,0.0,-1.1111111111111112,3.3003663003662997,0.0,0.0,0.0,0.0,-1.4273504273504274,1.9938949938949944,-0.778998778998779,0.0,0.0,0.0,-0.9389499389499391,0.9804639804639804,-1.7411477411477412,0.0,0.0,0.0,0.514041514041514,0.0,-2.3736263736263736,0.0,-0.6875,0.0,0.0,0.0,-2.347985347985348,-0.65625,0.0,0.0,0.0,0.6239316239316239,-1.5787545787545787,-0.53125,0.0,0.0,0.0,0.0,-0.7777777777777778,0.0,0.0,0.0,-0.5958485958485958,0.0,-0.5995115995115995,-0.5625,0.0,0.0,-1.3833943833943834,0.0,0.0,-0.5625,0.0,0.0,-1.175824175824176,0.0,0.7619047619047619,0.0,0.0,0.0,0.0,-1.0952380952380951,0.7448107448107448,0.0,0.0,0.0,0.5470085470085471,-2.611721611721612,0.5299145299145299,0.0,0.0,0.0,0.0,-2.509157509157509,1.1245421245421243,0.0,0.0,-0.65625,0.0,-3.6507936507936503,0.7973137973137974,0.0,0.0,0.59375,0.0,-5.0134310134310125,0.0,0.0,0.0,0.71875,0.0,-6.1330891330891335,-1.006105006105006,0.0,0.0,0.0,0.0,-5.417582417582418,0.0,-0.6875,0.0,0.0,0.0,-5.1379731379731375,0.0,0.0,0.0,0.0,0.0,-5.621489621489621,-0.6727716727716728,0.0,0.0,0.0,-0.7387057387057387,-4.6422466422466435,0.0,0.0,0.0,0.0,-1.6727716727716728,-4.755799755799756,0.0,0.0,0.0,0.0,-0.9755799755799756,-5.091575091575091,-0.5372405372405372,0.0,0.84375,0.0,0.993894993894994,-5.25030525030525,0.6166056166056166,0.0,0.0,0.65625,0.0,-4.681318681318682,1.0390720390720392,0.0,0.0,0.0,-1.5897435897435896,-4.3247863247863245,0.7191697191697192,0.53125,0.0,0.0,0.0,-4.6007326007325995,0.6202686202686203,0.59375,0.875,0.0,1.7374847374847375,-4.717948717948718,0.6251526251526252,0.0,0.0,0.0,0.0,-4.650793650793651,-0.9975579975579976,0.0,-0.625,0.0,-0.8986568986568987,-4.611721611721611,-2.7875457875457874,0.0,0.0,0.0,0.0,-4.9804639804639805,-2.043956043956044,0.0,0.0,0.0,,,,,,,,,,,,,,,,,,,,,,,,,,,,,,,,,,,,,,,,,,,,,,,,,,,,,,,,,,,,,movPosY
accX,0.0,0.0,0.0,1.03125,0.0,-0.96875,0.5909645909645911,0.0,-1.286935286935287,0.53125,0.0,-0.6875,0.0,0.0,-1.043956043956044,0.0,0.0,0.0,-1.133089133089133,1.0341880341880345,-0.8412698412698413,0.0,0.0,0.0,-0.9926739926739928,1.2417582417582418,0.0,0.0,0.0,0.0,0.0,0.7716727716727717,-0.6642246642246642,0.0,0.0,0.0,0.0,0.0,-1.2503052503052503,-0.59375,0.0,0.0,0.663003663003663,0.0,-2.1404151404151404,-1.0625,0.0,0.0,1.0097680097680095,0.6446886446886447,-1.2442002442002442,-0.90625,0.0,0.0,0.0,1.010989010989011,-1.4578754578754578,0.0,0.0,0.0,-0.7216117216117216,0.967032967032967,-1.7985347985347986,0.0,0.0,0.0,-1.8266178266178263,2.393162393162393,0.0,-0.78125,0.0,-0.5625,-1.4444444444444444,1.4358974358974361,0.0,0.0,0.0,0.0,-0.9108669108669109,0.0,0.6568986568986569,0.0,0.0,0.0,0.0,-0.63003663003663,0.0,0.0,-0.53125,0.0,0.0,-1.0231990231990231,0.0,-0.53125,0.0,0.0,-1.1086691086691087,0.0,0.0,-0.53125,0.0,0.0,0.0,-2.727716727716728,0.0,0.0,0.0,0.53125,1.0805860805860803,-4.858363858363859,-1.557997557997558,0.0,0.0,0.65625,0.8669108669108669,-5.423687423687423,-2.04029304029304,-0.5625,0.0,0.0,0.0,-4.481074481074482,-0.9621489621489622,-0.75,0.0,0.0,-0.6324786324786325,-4.054945054945056,0.0,0.0,0.625,-0.53125,0.0,-5.666666666666668,0.5262515262515263,0.0,0.0,0.0,-1.017094017094017,-5.8669108669108665,0.0,0.0,-0.5625,0.53125,-1.6275946275946276,-5.6190476190476195,-0.7240537240537241,0.0,0.71875,0.0,0.0,-5.7081807081807066,1.0,0.0,0.5625,0.0,0.0,-5.283272283272283,1.684981684981685,0.0,0.0,0.0,-1.4273504273504274,-5.230769230769232,0.0,0.0,0.0,0.0,1.2722832722832722,-6.529914529914531,0.0,0.0,0.0,0.0,0.0,-5.641025641025642,0.0,0.0,0.0,0.0,-2.7118437118437115,-4.2283272283272275,0.0,0.0,0.0,0.0,-1.1465201465201464,-4.457875457875458,0.0,0.0,1.0,0.0,2.1636141636141635,-6.12087912087912,0.0,0.0,0.0,0.0,-1.5494505494505495,-4.231990231990232,0.0,0.0,0.0,0.0,-2.8058608058608057,-3.361416361416361,0.0,0.0,0.59375,0.0,0.0,-4.8669108669108665,-0.8327228327228328,0.0,0.71875,0.0,,,,,,,,,,,,,,,,,,,,,,,,,,,,,,,,,,,,,,,,,,,,,,,,,,,,,,,,,,,,,,,,,,,,,,,,,movPosY
accX,0.0,0.0,-0.6422466422466423,0.0,0.0,0.0,0.0,0.0,-1.0476190476190477,0.0,0.0,-0.65625,0.0,0.0,0.0,0.0,0.0,0.0,0.0,0.0,-0.993894993894994,0.0,0.0,0.0,0.0,0.0,-0.6105006105006106,0.0,0.0,0.0,0.0,0.0,-0.8205128205128205,0.0,0.0,0.0,0.0,0.0,-0.7557997557997558,0.0,0.0,0.0,-0.525030525030525,0.8095238095238095,0.0,0.0,0.0,0.0,-1.0842490842490842,1.3223443223443223,0.0,0.0,0.0,0.0,0.0,0.0,0.0,0.0,0.0,0.0,0.0,0.0,0.0,-0.5625,-0.625,0.0,-0.6105006105006106,0.5531135531135531,0.0,0.0,0.0,0.0,0.0,0.0,0.0,0.0,0.0,0.0,0.0,0.663003663003663,0.0,0.0,0.0,0.0,0.0,0.0,-0.6691086691086691,0.0,0.0,0.0,0.0,-0.5177045177045178,0.0,0.0,-0.5625,0.0,0.0,-1.652014652014652,-0.7252747252747253,0.0,-0.5625,0.0,0.0,-2.562881562881563,-1.5006105006105006,0.0,0.0,0.0,0.5470085470085471,-2.965811965811966,-1.6544566544566544,0.0,0.0,0.0,1.387057387057387,-3.36019536019536,-1.4432234432234432,-0.625,0.0,0.0,0.0,-2.5811965811965814,-0.7496947496947497,-0.625,-0.6875,0.0,0.0,-2.8925518925518925,0.0,0.0,-0.59375,0.0,-0.9413919413919414,-4.146520146520147,-0.6117216117216118,0.0,0.0,0.0,0.0,-4.7997557997558,-1.6019536019536018,-0.5625,0.0,0.0,0.0,-4.151404151404152,0.0,-0.625,0.0,0.0,0.0,-3.4249084249084247,0.7667887667887668,0.0,0.0,0.0,-0.5482295482295483,-4.266178266178266,0.63003663003663,0.0,0.0,0.0,-1.1623931623931625,-4.8437118437118425,0.0,0.0,0.0,0.0,0.0,-4.628815628815629,0.8778998778998779,0.0,0.0,0.0,-1.15995115995116,-4.013431013431013,0.8656898656898657,0.0,0.0,0.0,-2.045177045177045,-4.822954822954824,0.0,0.53125,0.0,0.0,-0.6410256410256411,-5.233211233211233,0.0,0.0,0.90625,0.0,0.5897435897435898,-6.063492063492062,0.0,0.0,0.0,0.625,0.0,-5.902319902319902,0.0,0.0,0.0,0.59375,0.0,-5.807081807081808,0.0,0.0,0.0,0.0,0.0,-5.7704517704517695,-0.7997557997557998,0.0,0.59375,0.0,,,,,,,,,,,,,,,,,,,,,,,,,,,,,,,,,,,,,,,,,,,,,,,,,,,,,,,,,,,,,,,,,,,,,,,,,movPosY
accX,0.0,0.0,-0.9255189255189256,0.0,0.0,0.0,0.0,1.1001221001221002,0.0,0.0,0.0,0.0,-0.5592185592185592,1.1843711843711844,0.0,0.0,0.0,0.0,0.0,0.7838827838827839,-0.7435897435897436,0.0,0.0,0.0,-0.7191697191697192,0.5860805860805861,-1.0402930402930404,0.0,0.0,-0.78125,-0.9633699633699634,0.0,-1.7557997557997558,0.0,0.5625,-0.71875,0.0,0.6959706959706959,-0.7582417582417582,0.0,0.65625,0.0,0.0,0.0,0.0,0.0,0.0,0.0,0.0,0.0,-0.8009768009768009,0.0,-0.65625,0.0,0.0,-0.9694749694749696,-1.684981684981685,0.0,-0.53125,0.0,0.0,0.0,-1.1111111111111112,0.0,0.0,0.0,0.0,0.6581196581196581,0.0,0.0,0.0,0.0,-0.5921855921855922,0.0,0.0,0.0,0.0,0.0,-1.1404151404151404,-0.5970695970695971,0.0,0.0,0.0,0.0,-1.343101343101343,-1.1391941391941391,-0.5152625152625152,0.0,-0.5625,0.0,-0.873015873015873,-2.21001221001221,-0.9963369963369964,0.0,0.0,0.0,0.971916971916972,-3.9975579975579976,-1.8229548229548234,0.0,0.0,0.0,1.7680097680097682,-4.094017094017094,-1.5738705738705738,0.0,0.0,0.0,0.0,-3.435897435897436,-1.1355311355311355,0.0,-0.5625,0.0,-1.2442002442002442,-4.0537240537240535,-1.8754578754578757,0.0,0.0,0.0,0.7155067155067155,-5.809523809523809,-1.6654456654456655,0.0,0.0,0.0,0.9413919413919414,-5.177045177045176,-0.6349206349206349,-1.125,0.0,0.0,0.0,-4.031746031746032,0.9181929181929182,-0.875,0.0,0.0,-1.3040293040293038,-3.7509157509157514,1.065934065934066,0.0,0.0,0.0,-0.525030525030525,-5.423687423687423,0.0,0.0,0.75,0.0,0.5299145299145299,-6.089133089133089,0.0,-0.5625,0.0,0.0,-0.7094017094017094,-5.096459096459097,0.0,0.0,0.0,0.0,-1.2612942612942613,-4.9755799755799766,0.7435897435897436,0.0,0.0,0.0,-0.5482295482295483,-6.054945054945056,0.0,0.0,0.71875,0.0,1.2503052503052503,-6.195360195360196,0.0,0.0,0.0,0.0,0.0,-4.714285714285714,0.9145299145299144,0.0,-0.875,0.0,-2.291819291819292,-4.78021978021978,0.0,0.0,0.0,0.0,-0.912087912087912,-5.945054945054944,-1.2210012210012209,0.0,0.8125,0.0,1.0048840048840049,-5.94017094017094,0.0,0.0,0.0,0.0,,,,,,,,,,,,,,,,,,,,,,,,,,,,,,,,,,,,,,,,,,,,,,,,,,,,,,,,,,,,,,,,,,,,,,,,,,,,,,,,,,,,,movPosY
accX,-0.8363858363858364,0.0,-1.2026862026862026,0.0,0.5625,-0.53125,0.0,0.0,0.0,0.0,0.0,0.0,0.0,0.0,0.0,0.0,0.0,0.0,0.0,-0.7948717948717948,0.0,0.0,0.0,0.0,0.0,-1.3394383394383391,-1.0134310134310134,0.0,0.0,0.0,0.0,0.0,-0.9267399267399268,0.0,0.0,0.0,-0.7020757020757019,1.061050061050061,0.0,0.0,0.0,0.0,-0.6373626373626373,0.5421245421245421,0.0,0.0,0.0,0.0,-0.5091575091575091,0.0,-0.5860805860805861,0.0,-0.5625,0.0,-0.7545787545787546,-0.5006105006105006,-1.15995115995116,0.0,0.0,0.0,-0.6288156288156288,0.0,-1.3076923076923077,0.0,0.0,0.0,0.0,0.0,-1.1306471306471306,0.0,0.0,0.0,0.0,0.0,-0.5311355311355311,0.0,0.0,0.0,0.0,-0.5042735042735043,-0.9816849816849816,0.0,0.0,0.0,0.0,-1.2087912087912087,-1.290598290598291,0.0,0.0,0.0,0.8583638583638583,-1.4847374847374848,-0.8363858363858364,0.0,0.0,0.0,1.2735042735042734,-1.2234432234432235,0.0,0.0,0.0,0.0,0.8791208791208791,-1.2747252747252746,0.0,0.0,0.0,0.0,0.0,-0.9365079365079364,-0.9548229548229548,0.0,0.0,0.0,0.5787545787545788,-1.3345543345543345,0.0,0.0,0.0,0.0,0.0,-1.5067155067155067,0.0,0.0,0.0,0.0,0.0,-2.1697191697191696,0.0,0.0,0.0,0.0,-0.6910866910866911,-2.58974358974359,0.0,0.0,0.0,0.0,-0.6459096459096461,-2.7863247863247858,-0.8205128205128205,-0.59375,0.0,0.0,0.0,-2.8437118437118434,0.0,0.0,0.0,0.0,0.0,-3.9792429792429793,0.0,0.0,0.0,0.0,-1.4529914529914532,-4.537240537240537,-0.8962148962148963,0.0,0.0,0.0,-0.7277167277167277,-4.769230769230768,-1.1172161172161172,0.0,0.0,0.0,0.6764346764346765,-4.488400488400488,0.0,0.0,0.0,0.0,0.0,-4.311355311355311,0.0,0.0,0.0,0.0,-1.9169719169719168,-4.289377289377289,0.0,0.0,0.0,0.0,-1.809523809523809,-4.351648351648351,0.0,0.0,0.59375,0.53125,0.706959706959707,-4.3699633699633695,1.380952380952381,0.0,0.9375,0.0,1.0488400488400489,-4.391941391941391,1.5995115995115996,0.0,0.0,0.0,0.0,-4.2576312576312585,0.7045177045177046,0.0,0.0,0.0,-0.6178266178266179,-4.559218559218559,0.0,0.0,0.0,0.0,0.0,-5.05128205128205,0.0,0.0,0.0,0.0,,,,,,,,,,,,,,,,,,,,,,,,,,,,,,,,,,,,,,,,,,,,,,,,,,,,,,,,,,,,,,,,,,,movPosY
accX,0.0,0.0,-0.9304029304029304,0.0,0.0,0.0,0.0,0.0,-0.5213675213675214,0.0,0.0,0.0,0.0,0.57997557997558,0.0,0.0,0.0,0.0,0.0,0.0,-0.5164835164835165,0.0,0.0,0.0,0.0,0.0,-1.195360195360195,0.0,0.0,0.0,-0.6654456654456654,0.0,-2.122100122100122,0.0,0.0,0.0,0.0,0.0,-1.4774114774114775,-0.53125,0.0,0.0,0.0,0.0,-1.4725274725274726,0.0,0.0,0.0,0.0,0.0,-1.5775335775335777,0.0,0.0,0.0,-0.5592185592185592,0.0,-1.266178266178266,0.0,0.0,0.0,-0.8632478632478633,1.037851037851038,-0.6056166056166056,0.0,0.0,0.0,-0.5323565323565324,1.380952380952381,0.6385836385836385,-0.5625,0.0,0.0,0.0,1.006105006105006,1.4395604395604396,0.0,0.0,0.0,0.0,0.0,0.6947496947496947,0.0,0.0,0.0,0.0,-1.2356532356532357,0.0,0.0,0.0,0.0,0.6410256410256411,-1.2222222222222223,0.0,0.0,0.0,0.0,0.5653235653235653,-1.9584859584859584,0.0,0.0,0.0,0.0,1.6593406593406594,-3.9706959706959712,-1.7533577533577531,0.0,0.0,0.0,0.0,-3.1282051282051277,-1.5921855921855919,-0.625,0.0,0.0,0.0,-2.584859584859585,-0.7741147741147741,-0.5625,0.0,0.0,0.0,-3.291819291819292,-0.7680097680097681,0.0,0.0,0.0,0.0,-3.708180708180708,0.0,0.0,0.0,0.0,0.0,-4.05006105006105,-0.5848595848595849,-0.75,0.0,0.0,-0.5995115995115995,-3.6703296703296697,0.0,-0.75,0.0,0.0,0.0,-3.1709401709401708,0.6312576312576312,0.0,0.0,0.0,0.0,-3.7045177045177047,0.0,0.0,0.0,0.0,-0.6886446886446886,-4.001221001221002,0.0,0.0,0.0,0.0,-1.2698412698412698,-4.007326007326007,-0.5641025641025641,0.0,0.0,0.0,-0.7081807081807082,-4.207570207570208,0.0,0.0,0.0,0.0,-0.5934065934065934,-3.6776556776556775,0.0,0.0,0.0,0.0,-1.5909645909645909,-3.7326007326007327,0.0,0.0,0.0,0.0,-1.1672771672771671,-4.3418803418803416,0.0,0.0,0.5625,0.0,0.6862026862026862,-4.367521367521366,0.0,0.0,0.0,0.0,0.0,-4.111111111111111,0.6666666666666666,0.0,0.0,0.0,-1.0415140415140416,-3.978021978021978,0.0,0.0,0.0,0.0,-1.7155067155067154,-4.485958485958486,0.0,0.0,0.0,0.0,0.0,-5.498168498168498,-0.7130647130647131,0.0,0.625,0.0,,,,,,,,,,,,,,,,,,,,,,,,,,,,,,,,,,,,,,,,,,,,,,,,,,,,,,,,,,,,,,,,,,,movPosY
accX,0.0,0.0,0.0,0.0,0.0,-0.65625,0.0,0.0,1.2735042735042734,0.0,0.0,-0.65625,-0.6837606837606838,0.0,0.57997557997558,0.0,0.0,0.0,-0.7460317460317459,-0.8192918192918193,-0.8485958485958486,0.0,0.0,0.0,-0.6251526251526252,0.0,-0.5115995115995116,0.0,0.0,0.0,0.0,0.5457875457875457,0.0,0.0,0.0,0.0,0.0,0.0,-1.0085470085470083,0.0,0.0,0.0,0.0,0.0,-2.115995115995116,0.0,0.0,0.0,-0.514041514041514,0.8217338217338217,-2.145299145299145,0.0,0.0,0.0,-0.6190476190476191,1.8485958485958487,-1.0183150183150182,0.0,0.0,0.0,0.0,1.286935286935287,0.0,0.0,0.0,0.0,0.0,0.0,-0.8754578754578755,0.0,0.0,0.0,0.0,0.0,-0.7521367521367521,-0.53125,0.0,0.0,0.0,0.6800976800976801,0.0,0.0,0.0,0.0,0.0,0.7692307692307693,0.0,0.0,0.0,0.0,0.0,-0.5299145299145299,0.0,0.0,0.0,0.0,1.0622710622710625,-1.9352869352869355,0.0,-0.53125,-0.53125,0.0,0.5677655677655677,-1.7216117216117215,0.0,0.0,-0.6875,0.0,0.0,-1.3992673992673992,0.0,0.0,0.0,0.0,0.0,-3.6507936507936503,-1.3308913308913308,0.0,0.0,0.0,0.0,-3.2954822954822958,-0.7533577533577533,-0.84375,0.0,0.0,0.0,-2.715506715506716,0.0,-0.59375,-0.5625,0.53125,0.0,-3.965811965811966,0.0,0.0,0.0,0.0,0.0,-5.117216117216118,-1.15995115995116,0.0,0.0,0.0,1.0915750915750917,-5.693528693528694,-1.266178266178266,-0.71875,0.0,0.0,0.0,-3.6971916971916974,0.0,-0.90625,0.0,0.0,-0.8339438339438342,-3.655677655677656,0.0,0.0,0.0,0.0,-1.6068376068376071,-4.395604395604397,-1.1428571428571428,0.0,0.0,0.0,0.0,-5.53968253968254,-1.536019536019536,0.0,0.8125,0.0,1.2014652014652014,-5.0927960927960925,-0.5665445665445665,0.0,0.0,0.0,0.0,-3.5396825396825395,0.7875457875457875,0.0,-0.65625,0.0,-1.0683760683760684,-3.7118437118437115,0.5567765567765568,0.0,0.0,0.0,-1.0048840048840049,-4.554334554334553,-0.503052503052503,0.0,0.0,0.0,-0.5641025641025641,-4.63980463980464,-0.5824175824175825,0.0,0.65625,0.0,0.0,-4.848595848595847,0.0,0.0,0.0,0.0,-0.6727716727716728,-4.38949938949939,0.0,0.0,0.0,0.0,-1.0488400488400489,-4.387057387057388,0.0,0.0,0.0,0.0,,,,,,,,,,,,,,,,,,,,,,,,,,,,,,,,,,,,,,,,,,,,,,,,,,,,,,,,,,,,,,,,,,,movPosY
accX,0.0,-1.4969474969474967,-1.5897435897435896,0.0,0.0,0.0,0.0,-0.7264957264957265,-1.7374847374847375,0.0,0.0,0.0,0.0,0.8925518925518926,0.0,-0.5625,0.0,0.0,-1.0415140415140416,1.2576312576312576,0.0,0.0,0.0,0.0,0.0,0.0,-1.1282051282051282,0.0,0.0,0.0,0.0,0.0,-2.5042735042735043,0.0,0.0,0.0,0.0,0.0,-2.208791208791209,-0.625,0.0,0.0,0.0,1.2637362637362637,-1.31013431013431,-0.625,0.0,0.0,-0.5299145299145299,1.6324786324786325,-0.8754578754578755,0.0,0.0,0.0,-0.9389499389499391,1.8021978021978025,0.0,0.0,0.0,0.0,-0.7130647130647131,1.4761904761904765,0.0,0.0,0.0,0.0,-0.8974358974358975,1.177045177045177,0.0,0.0,0.0,0.0,0.0,1.0293040293040292,0.0,0.0,0.0,0.0,0.0,0.7912087912087912,0.0,0.0,0.0,0.0,0.0,0.0,0.0,0.0,0.0,0.0,0.0,-0.6593406593406593,0.0,0.0,0.0,0.0,0.0,-1.619047619047619,0.5641025641025641,0.0,0.0,0.0,1.3833943833943834,-2.9621489621489623,0.0,0.0,0.0,0.0,1.1074481074481075,-3.4224664224664223,0.0,0.0,0.0,0.0,0.0,-2.2551892551892547,0.0,0.0,0.0,0.0,-1.15995115995116,-2.2124542124542126,0.0,0.0,0.0,0.0,0.7313797313797313,-3.8253968253968256,0.0,0.0,0.0,0.0,0.7484737484737485,-4.443223443223443,0.0,0.0,-0.8125,0.0,-1.0622710622710625,-3.804639804639805,0.0,0.0,0.0,0.0,-1.0915750915750917,-3.81929181929182,0.0,0.59375,0.6875,0.0,0.0,-5.440781440781442,-0.9133089133089132,0.0,0.625,0.0,1.137973137973138,-5.998778998778999,-0.7435897435897436,0.0,0.0,0.0,-0.6568986568986569,-4.192918192918193,0.0,0.0,0.0,0.0,-1.9023199023199024,-3.382173382173382,0.6361416361416361,0.0,0.5625,0.0,-0.7338217338217338,-5.1330891330891335,0.0,0.0,1.0,0.0,0.0,-5.199023199023199,0.0,0.0,0.0,0.0,0.0,-4.196581196581197,0.8461538461538461,0.0,0.0,0.59375,-1.5323565323565325,-3.2026862026862033,1.9853479853479852,0.0,0.0,0.53125,-1.3028083028083028,-4.396825396825397,0.9853479853479854,0.65625,0.0,0.0,-1.0647130647130647,-5.326007326007327,0.0,0.0,0.71875,0.0,0.0,-5.431013431013431,-0.8315018315018315,0.0,0.0,0.0,,,,,,,,,,,,,,,,,,,,,,,,,,,,,,,,,,,,,,,,,,,,,,,,,,,,,,,,,,,,,,,,,,,,,,,,,movPosY
accX,0.557997557997558,-0.9963369963369964,0.7032967032967034,0.84375,-0.53125,0.0,-1.1257631257631258,-1.0134310134310134,-0.5641025641025641,0.65625,0.0,-0.5625,-1.166056166056166,0.0,-1.0915750915750917,0.0,1.03125,0.0,0.0,0.0,0.0,0.0,0.71875,0.0,0.5811965811965812,0.5824175824175825,0.8840048840048841,0.0,0.0,0.0,0.0,0.0,0.0,0.0,-0.5625,0.0,0.5018315018315018,-0.7264957264957265,-1.8327228327228329,0.0,0.0,0.0,0.0,0.0,-2.2002442002442004,0.0,0.0,0.0,0.0,2.0488400488400487,-1.0708180708180708,0.0,0.0,0.0,-0.7020757020757019,1.9072039072039075,0.0,0.0,0.0,0.0,-0.9267399267399268,1.1575091575091576,-0.9169719169719168,0.0,0.0,0.0,-1.0305250305250304,1.474969474969475,-0.8705738705738706,0.0,0.0,0.0,-1.2332112332112333,2.062271062271062,-0.6349206349206349,0.0,0.0,0.0,0.0,1.2185592185592184,0.0,0.0,0.0,0.0,0.0,0.0,-0.6373626373626373,0.0,0.0,0.0,0.0,-1.8498168498168501,-1.0354090354090355,-0.53125,0.0,0.5625,0.7264957264957265,-1.8473748473748477,0.0,-0.65625,0.0,0.0,1.6483516483516485,-1.7557997557997558,0.0,0.0,0.0,0.0,0.9181929181929182,-2.9841269841269837,-1.0549450549450552,0.0,0.0,0.0,0.8778998778998779,-4.1843711843711855,-1.47985347985348,-0.65625,0.0,0.0,-0.9951159951159952,-3.6727716727716726,-0.6385836385836385,-1.03125,0.0,0.0,0.0,-4.400488400488402,1.31013431013431,0.0,0.0,0.0,1.4993894993894994,-5.372405372405372,1.809523809523809,0.0,0.0,0.0,-1.1868131868131868,-5.183150183150183,0.6385836385836385,0.0,0.0,0.0,-1.8192918192918195,-6.409035409035409,0.0,0.0,0.0,0.0,-0.5946275946275946,-6.5555555555555545,0.0,0.0,0.0,0.0,-0.6507936507936508,-6.249084249084248,0.6434676434676435,0.0,0.0,0.59375,0.0,-5.932844932844932,0.0,0.5625,0.0,0.5625,0.0,-5.6813186813186825,0.0,0.0,0.0,0.0,-0.6886446886446886,-5.335775335775336,-0.7472527472527473,0.0,0.0,0.0,-1.9462759462759465,-4.249084249084248,-0.6129426129426129,0.0,0.0,0.0,0.0,-4.818070818070818,0.0,0.0,0.0,0.0,0.0,-4.842490842490842,0.0,0.0,0.0,0.0,-1.6556776556776556,-3.7240537240537237,0.0,0.0,0.0,0.0,-1.9987789987789988,-3.207570207570208,-0.5384615384615384,0.0,0.0,0.0,-0.5091575091575091,-3.413919413919414,0.0,0.0,0.0,0.0,0.0,-4.142857142857143,-0.6105006105006106,0.0,0.0,0.0,,,,,,,,,,,,,,,,,,,,,,,,,,,,,,,,,,,,,,,,,,,,,,,,,,,,,,,,,,,,,,,,,,,movPosY
accX,0.0,-1.1025641025641026,0.0,0.0,0.0,0.0,0.5262515262515263,-1.7008547008547008,0.0,0.0,0.0,0.0,0.0,-0.6544566544566545,0.0,0.0,0.0,0.0,0.0,0.0,-0.5238095238095238,-0.53125,0.0,0.0,0.0,1.26007326007326,0.7020757020757019,0.0,0.0,0.0,0.0,1.105006105006105,0.0,0.0,0.0,0.0,0.0,0.0,-2.183150183150183,0.0,0.0,0.0,0.0,0.6507936507936508,-2.68986568986569,0.0,0.0,0.0,0.0,1.843711843711844,-1.7704517704517704,0.0,0.0,0.0,-0.7484737484737485,2.675213675213675,-1.2808302808302807,0.0,0.0,0.0,0.0,2.0329670329670333,-0.5897435897435898,0.0,0.0,0.0,0.0,1.4053724053724053,0.0,0.0,0.0,0.0,0.0,1.8901098901098898,0.0,0.0,0.0,0.0,0.0,2.4420024420024418,0.0,0.0,0.0,0.0,0.0,1.4774114774114775,0.0,0.0,0.0,0.0,0.0,0.0,0.0,0.0,0.0,0.0,0.0,-1.1623931623931625,-0.5347985347985348,0.0,0.0,0.0,1.0183150183150182,-2.142857142857143,0.0,0.0,-0.6875,0.0,0.503052503052503,-2.1648351648351647,0.0,0.0,-0.96875,0.0,-0.8925518925518926,-3.0109890109890114,0.0,0.0,0.0,0.0,0.0,-5.191697191697192,-0.518925518925519,0.0,0.0,0.0,0.5665445665445665,-5.83028083028083,0.0,-0.59375,0.0,-0.6875,0.0,-4.761904761904762,0.8962148962148963,0.0,0.0,0.0,-0.8449328449328449,-4.244200244200244,2.3870573870573866,0.0,0.0,0.0,-2.445665445665446,-5.061050061050062,0.9194139194139194,0.6875,0.0,0.0,-0.7228327228327228,-7.146520146520147,-0.6874236874236874,0.0,0.875,0.0,1.4505494505494505,-7.868131868131868,-0.6092796092796092,-0.625,0.0,0.0,-0.5091575091575091,-5.046398046398046,1.028083028083028,0.0,-0.53125,0.0,-2.2124542124542126,-4.587301587301587,1.2161172161172158,0.59375,0.625,0.0,0.0,-6.056166056166056,0.0,0.0,0.75,0.0,0.0,-5.472527472527473,0.0,0.0,0.0,0.5625,-1.7631257631257633,-4.962148962148962,0.0,0.0,0.0,0.53125,-0.7582417582417582,-5.383394383394385,0.0,0.0,0.53125,0.0,1.0671550671550671,-5.842490842490842,0.0,0.0,0.53125,0.0,0.0,-5.433455433455434,0.0,0.0,0.0,0.0,,,,,,,,,,,,,,,,,,,,,,,,,,,,,,,,,,,,,,,,,,,,,,,,,,,,,,,,,,,,,,,,,,,,,,,,,,,,,,,movPosY
accX,0.0,-1.0915750915750917,-0.8241758241758241,0.6875,0.0,0.0,-0.5555555555555556,0.0,-1.4065934065934067,0.0,0.0,0.0,-0.5335775335775336,0.0,-1.2588522588522588,0.0,0.0,0.0,0.0,0.6459096459096461,0.0,0.0,0.0,0.0,0.0,0.8412698412698413,0.0,0.0,0.0,0.0,0.0,0.0,-1.3943833943833943,0.0,0.0,0.0,-0.6898656898656899,0.0,-2.305250305250305,0.0,0.0,0.0,0.0,1.2173382173382172,-1.4664224664224663,0.0,0.0,0.0,0.7667887667887668,1.0549450549450552,-0.5738705738705738,0.0,0.0,0.0,0.0,0.0,-1.4188034188034189,0.0,0.0,0.0,0.0,0.0,-1.9853479853479852,0.0,0.0,0.0,0.0,0.0,-1.7692307692307692,-0.75,0.0,0.0,0.5616605616605617,0.9352869352869352,0.0,-0.65625,0.0,0.0,0.6654456654456654,0.6007326007326007,0.0,0.0,0.0,0.0,0.0,0.0,0.0,0.0,0.0,0.0,0.0,-0.7521367521367521,0.0,0.0,0.0,0.0,0.0,0.0,0.0,0.0,0.0,0.0,0.0,0.0,1.120879120879121,0.0,0.0,0.0,0.0,-0.9731379731379732,1.4456654456654456,0.0,0.0,0.0,0.0,-2.2063492063492065,1.051282051282051,0.0,-0.53125,0.0,0.0,-2.6654456654456653,0.0,0.0,-0.5625,0.0,0.0,-2.440781440781441,0.9023199023199024,0.0,0.0,-0.53125,-0.7948717948717948,-2.7863247863247858,0.9474969474969476,0.0,0.0,0.0,-2.0805860805860807,-3.467643467643468,0.0,0.0,0.0,0.0,0.6617826617826618,-5.521367521367521,-0.7533577533577533,0.0,0.0,0.0,0.7240537240537241,-5.545787545787546,-0.9658119658119658,-0.5625,-0.5625,0.0,-1.061050061050061,-3.7350427350427347,0.0,0.0,0.0,0.0,-1.8583638583638584,-4.004884004884005,0.0,0.59375,0.0,0.0,-1.3443223443223444,-5.402930402930402,0.0,0.0,0.6875,0.0,0.7704517704517705,-6.210012210012209,-0.5946275946275946,0.0,0.0,0.0,0.0,-4.925518925518926,0.5006105006105006,0.0,0.0,0.0,-1.4517704517704515,-4.465201465201465,0.6166056166056166,0.0,0.0,0.0,-1.0451770451770452,-4.947496947496949,0.0,0.0,0.6875,0.0,0.0,-5.5738705738705745,-0.5714285714285714,0.0,0.5625,0.0,0.5409035409035409,-5.532356532356533,0.0,-0.59375,0.0,0.0,,,,,,,,,,,,,,,,,,,,,,,,,,,,,,,,,,,,,,,,,,,,,,,,,,,,,,,,,,,,,,,,,,,,,,,,,,,,,,,movPosY
accX,1.431013431013431,-0.967032967032967,1.2026862026862026,0.0,0.0,0.0,0.0,-0.9804639804639804,0.0,0.0,0.0,0.0,-0.6056166056166056,-0.5347985347985348,-1.4053724053724053,0.0,0.0,0.0,-0.5286935286935287,0.0,-0.9487179487179488,0.0,0.0,0.0,0.0,0.6239316239316239,-0.5702075702075702,0.0,0.0,0.0,0.0,1.051282051282051,0.0,0.0,0.0,0.0,-0.5628815628815629,0.6654456654456654,-1.3956043956043955,0.0,0.0,0.0,-0.8315018315018315,0.5934065934065934,-2.4615384615384617,0.0,0.0,0.0,-0.7081807081807082,1.424908424908425,-1.68009768009768,0.0,0.5625,0.0,0.0,2.051282051282051,0.0,0.0,0.0,0.0,0.0,1.188034188034188,0.0,0.0,0.0,0.0,0.0,0.0,-0.8559218559218559,-0.65625,0.0,0.0,0.0,0.9658119658119658,0.0,-0.5625,0.0,0.0,0.0,1.8021978021978025,0.0,0.0,0.0,0.0,0.0,1.0842490842490842,0.0,0.0,0.0,0.0,0.8595848595848596,0.0,0.0,0.0,0.0,0.0,0.0,-1.1282051282051282,-0.6446886446886447,-0.5625,-0.59375,0.0,-0.7387057387057387,-0.7692307692307693,-0.5934065934065934,0.0,0.0,0.0,0.7960927960927959,-1.5787545787545787,0.0,0.0,0.0,0.0,2.361416361416361,-3.4004884004884004,-0.7802197802197802,0.0,-0.6875,0.0,0.0,-3.1965811965811968,-1.7045177045177045,-0.59375,-0.625,0.0,0.0,-3.3992673992673987,-1.6275946275946276,-0.59375,0.0,0.0,2.3064713064713063,-3.3748473748473753,0.5091575091575091,-0.65625,-0.75,0.0,-1.4822954822954824,-2.7448107448107453,0.0,0.0,-1.5625,0.0,-3.111111111111111,-2.3321123321123323,-0.7655677655677655,0.0,0.0,0.0,0.6129426129426129,-3.561660561660561,0.7912087912087912,0.0,0.8125,0.0,0.0,-3.449328449328449,2.352869352869353,0.0,0.0,0.0,-2.4932844932844933,-3.1062271062271063,2.0012210012210008,0.0,-1.0625,0.0,-2.5213675213675213,-3.568986568986569,1.5494505494505495,0.0,0.0,0.0,-0.8681318681318682,-5.0537240537240535,1.2124542124542124,0.65625,1.125,0.0,-0.5641025641025641,-4.787545787545787,0.7557997557997558,0.5625,0.96875,0.0,-0.8192918192918193,-5.196581196581198,0.0,0.0,0.0,0.75,-1.21978021978022,-5.078144078144078,0.0,0.0,0.0,0.84375,0.0,-4.7606837606837615,0.0,0.59375,0.0,0.71875,0.6239316239316239,-5.09035409035409,-0.5335775335775336,0.90625,0.0,0.0,-0.514041514041514,-4.90964590964591,-1.6813186813186811,0.5625,0.0,0.53125,-1.0329670329670328,-4.534798534798535,-1.5433455433455434,0.0,0.0,0.53125,-0.5347985347985348,-4.4896214896214905,-0.7338217338217338,0.0,0.0,0.0,,,,,,,,,,,,,,,,,,,,,,,,,,,,,,,,,,,,,,,,,,,,,,,,,,,,,,,,,,,,,movPosY
accX,0.0,0.0,-1.0354090354090355,0.75,0.84375,0.0,0.0,-0.6825396825396826,-0.6874236874236874,0.0,0.71875,0.0,-0.525030525030525,0.0,-0.6849816849816851,0.0,0.0,0.0,0.0,0.6398046398046398,0.0,0.0,0.0,0.0,0.0,0.0,0.0,0.0,0.0,0.0,0.0,0.0,-1.3125763125763126,0.0,0.0,-0.59375,0.0,0.7179487179487181,-1.4810744810744811,0.0,0.0,-0.625,0.0,1.927960927960928,-0.6642246642246642,0.0,0.0,0.0,-0.6043956043956044,2.8058608058608057,0.0,0.0,0.0,0.0,-1.4126984126984128,2.807081807081807,0.0,0.0,0.0,0.0,-1.0268620268620268,1.7704517704517704,0.0,0.0,0.0,0.0,0.0,1.0634920634920637,0.0,0.0,0.0,0.0,0.0,1.0268620268620268,0.0,0.0,0.0,0.0,0.0,0.5347985347985348,-0.9792429792429792,0.0,0.0,0.0,0.0,-0.6239316239316239,-1.2722832722832722,0.0,0.0,0.0,0.0,-0.9584859584859584,0.0,0.0,0.0,0.0,0.0,0.0,0.5115995115995116,0.0,0.0,0.0,0.0,-1.4017094017094016,0.0,0.0,0.0,0.0,1.4871794871794872,-2.7924297924297923,0.0,0.0,0.0,0.0,1.343101343101343,-3.88034188034188,-0.5543345543345544,-0.71875,-0.8125,0.0,0.0,-2.8998778998779,0.0,-0.59375,-0.625,0.0,-0.5409035409035409,-2.7032967032967035,0.0,0.0,0.0,0.0,0.7411477411477412,-4.301587301587301,0.0,0.0,0.0,-0.625,0.0,-4.553113553113553,-1.0964590964590966,0.0,0.0,0.0,-1.6947496947496947,-4.644688644688644,-1.1465201465201464,-1.0,-0.625,0.0,-3.045177045177045,-3.94993894993895,0.0,-0.65625,0.0,0.0,0.0,-4.628815628815629,1.277167277167277,0.0,0.0,0.0,0.9169719169719168,-5.995115995115995,1.0634920634920637,0.0,0.0,0.0,-1.6874236874236874,-5.006105006105006,0.0,0.0,0.0,0.0,-2.213675213675214,-4.888888888888889,0.0,0.0,1.0625,0.0,0.6141636141636142,-5.8998778998779,0.8376068376068376,0.0,0.53125,0.0,0.0,-5.479853479853481,0.6581196581196581,0.0,0.0,0.0,-2.2612942612942613,-4.285714285714286,0.0,0.0,0.0,0.0,-1.4786324786324787,-4.595848595848596,0.0,0.0,0.65625,0.0,0.6776556776556777,-5.405372405372407,0.0,0.0,0.0,0.0,0.0,-4.9755799755799766,-0.6092796092796092,0.0,0.0,0.0,0.0,-4.621489621489621,-0.6642246642246642,0.0,0.0,0.0,,,,,,,,,,,,,,,,,,,,,,,,,,,,,,,,,,,,,,,,,,,,,,,,,,,,,,,,,,,,,,,,,,,movPosY
accX,0.0,0.0,0.0,0.0,0.0,0.0,0.0,0.0,0.0,0.0,0.0,0.0,0.0,0.0,0.7667887667887668,0.0,0.0,0.0,-0.518925518925519,0.6605616605616605,0.0,0.0,0.0,0.0,0.0,0.9633699633699634,0.0,0.0,0.0,0.0,0.0,0.0,-1.5323565323565325,0.0,0.0,0.0,0.0,-0.7814407814407814,-2.4603174603174605,0.0,0.0,0.0,0.0,0.0,-2.0024420024420024,-0.96875,0.0,0.0,-0.8632478632478633,1.5592185592185592,-0.9792429792429792,-0.875,0.0,0.0,0.0,1.21978021978022,0.0,0.0,0.0,0.0,0.0,0.0,-0.8217338217338217,0.0,0.0,0.0,-0.7936507936507936,0.0,-0.7765567765567766,0.0,0.0,0.0,-0.8034188034188035,1.010989010989011,0.0,-0.75,0.0,0.0,0.0,0.0,1.31990231990232,0.0,0.0,0.0,0.0,-0.9865689865689866,0.6947496947496947,0.0,0.0,0.0,1.1086691086691087,-1.8632478632478635,0.0,0.0,0.0,0.0,0.8766788766788767,-2.155067155067155,0.0,0.0,0.0,0.0,0.7863247863247863,-2.94993894993895,0.0,0.0,0.0,0.0,0.978021978021978,-3.2014652014652016,0.0,0.0,0.0,0.0,1.065934065934066,-3.5811965811965814,0.0,0.0,0.0,0.0,1.0598290598290598,-2.978021978021978,0.0,0.0,0.0,0.0,0.0,-1.8058608058608057,0.0,0.0,0.0,-0.625,0.0,-2.6715506715506714,0.0,0.0,0.0,0.0,0.0,-2.511599511599512,0.0,0.0,0.0,0.0,-1.7753357753357752,-2.1978021978021984,-0.6202686202686203,0.0,0.0,0.0,-1.4725274725274726,-2.457875457875458,0.0,0.0,0.0,0.0,-0.6129426129426129,-3.207570207570208,0.0,0.0,0.0,0.0,0.0,-3.9877899877899887,0.0,0.0,0.0,0.59375,-1.0915750915750917,-4.448107448107448,0.0,0.0,0.0,0.71875,-0.7496947496947497,-5.258852258852259,0.0,0.0,0.625,0.0,1.271062271062271,-5.913308913308914,0.5677655677655677,0.0,0.0,0.59375,1.0415140415140416,-5.547008547008547,1.266178266178266,0.0,0.0,0.53125,-0.503052503052503,-4.700854700854701,1.2307692307692308,0.0,0.0,0.0,0.0,-4.965811965811966,0.7765567765567766,0.0,0.0,0.0,0.0,-5.31013431013431,0.0,0.0,0.0,0.0,-1.5995115995115996,-4.661782661782662,0.0,0.0,0.0,0.0,-2.3040293040293043,-4.172161172161172,0.0,0.0,0.0,0.0,,,,,,,,,,,,,,,,,,,,,,,,,,,,,,,,,,,,,,,,,,,,,,,,,,,,,,,,,,,,,,,,,,,movPosY
accX,0.0,-0.7851037851037851,0.0,0.0,0.0,0.0,0.0,-0.7326007326007326,0.0,0.5625,0.0,-0.53125,0.0,-0.9768009768009768,-0.6410256410256411,0.0,0.0,0.0,0.0,-0.9951159951159952,-1.4945054945054943,0.0,0.0,0.0,0.0,0.0,-0.6678876678876678,0.0,0.0,0.0,0.0,0.0,0.0,0.0,0.0,0.0,-0.6752136752136753,0.6043956043956044,-0.9401709401709402,0.0,0.0,0.0,-0.6605616605616605,1.0964590964590966,-0.7509157509157509,0.0,0.0,0.0,0.0,1.4102564102564104,0.0,0.0,0.0,0.0,-0.5763125763125763,1.6068376068376071,0.0,0.0,0.0,0.0,-0.7667887667887668,1.424908424908425,0.0,0.0,0.0,0.0,0.0,0.0,0.0,0.0,0.0,0.0,0.0,0.0,0.0,0.0,0.0,0.0,0.0,1.0891330891330893,0.0,0.0,0.0,0.0,0.0,0.0,0.0,0.0,0.0,0.0,0.0,-1.0622710622710625,-1.2857142857142858,0.0,0.0,0.0,0.0,-2.012210012210012,-2.0183150183150182,0.0,0.0,0.0,0.6874236874236874,-1.9987789987789988,-1.4737484737484738,0.0,0.0,0.0,0.0,-1.617826617826618,-1.2368742368742371,0.0,0.0,0.0,0.7716727716727717,-1.943833943833944,-1.1733821733821734,0.0,0.0,0.0,1.0793650793650793,-2.7887667887667886,-1.1807081807081807,0.0,-0.53125,0.0,0.0,-2.5482295482295485,0.0,-0.625,-0.53125,0.0,-0.7362637362637363,-2.705738705738706,0.0,0.0,0.0,-0.5625,0.0,-3.102564102564102,0.8803418803418803,0.0,0.0,-0.78125,0.0,-2.5506715506715505,1.2136752136752136,0.0,0.0,0.0,0.0,-2.9877899877899887,1.352869352869353,0.0,-0.84375,0.0,0.5054945054945055,-3.195360195360196,0.0,0.6875,0.0,0.0,1.3247863247863247,-5.8962148962148975,0.0,0.0,0.0,0.0,-1.3467643467643469,-4.216117216117216,0.0,0.0,-0.96875,0.0,-2.0329670329670333,-4.2173382173382175,0.0,0.0,0.0,0.0,-0.6398046398046398,-4.903540903540903,0.0,0.65625,0.8125,0.0,1.0549450549450552,-5.68009768009768,0.0,0.0,0.0,0.0,-1.275946275946276,-4.323565323565323,0.0,0.0,-0.71875,0.0,-2.9145299145299144,-3.542124542124542,0.6507936507936508,0.0,0.0,0.0,-0.9438339438339438,-4.5177045177045185,1.205128205128205,0.53125,1.15625,0.0,0.9413919413919414,-5.212454212454213,0.8302808302808303,0.0,0.84375,0.0,0.0,-4.487179487179487,0.557997557997558,0.0,0.0,0.0,-0.6788766788766789,-4.6361416361416365,0.0,0.0,0.0,0.0,,,,,,,,,,,,,,,,,,,,,,,,,,,,,,,,,,,,,,,,,,,,,,,,,,,,,,,,,,,,,movPosY
accX,-0.6715506715506715,-1.1562881562881564,-1.7362637362637363,0.0,0.0,0.0,-0.8253968253968254,-0.5152625152625152,-1.382173382173382,0.0,0.0,0.0,0.0,0.0,-0.6190476190476191,-0.59375,0.0,0.0,0.0,0.0,0.7155067155067155,0.0,0.0,0.0,-0.5018315018315018,0.0,0.0,0.0,0.0,0.0,0.0,0.0,-1.1672771672771671,0.0,0.0,0.0,0.0,0.0,-1.1489621489621489,0.0,0.0,0.0,0.0,1.5421245421245422,0.0,0.0,0.0,0.0,-0.9450549450549449,1.293040293040293,0.0,0.0,0.0,0.0,-0.7960927960927959,0.8290598290598291,-0.536019536019536,0.0,0.0,0.0,0.0,0.0,-1.376068376068376,0.0,0.0,0.0,0.0,0.0,-1.586080586080586,0.0,0.0,0.0,0.0,0.6532356532356532,-0.9548229548229548,-0.53125,0.0,0.0,0.0,1.017094017094017,0.0,0.0,0.0,0.0,0.0,0.0,0.0,0.0,0.0,0.0,0.8974358974358975,-1.0622710622710625,-0.9975579975579976,0.0,0.0,0.0,0.0,-0.7130647130647131,-0.7411477411477412,-0.65625,0.0,0.0,0.0,0.0,0.8815628815628815,0.0,0.0,0.0,1.0097680097680095,-1.1025641025641026,0.6031746031746031,0.0,0.0,0.0,3.0427350427350426,-4.163614163614163,-0.6349206349206349,0.0,-0.6875,0.0,2.105006105006105,-3.9853479853479854,0.0,-0.78125,-1.0625,0.0,0.0,-1.7362637362637363,1.0256410256410255,0.0,-0.5625,-0.84375,-2.418803418803418,0.0,1.9975579975579976,0.0,0.0,-0.59375,-1.6483516483516485,-2.4444444444444446,1.3699633699633702,0.0,0.0,0.0,0.0,-5.003663003663004,0.0,0.0,0.0,0.0,-1.1147741147741148,-4.650793650793651,-0.5726495726495726,0.0,0.0,0.0,-1.2173382173382172,-4.509157509157508,0.0,0.0,0.0,0.0,-1.266178266178266,-4.343101343101344,0.0,0.0,1.09375,0.0,-0.5006105006105006,-4.864468864468863,0.0,0.0,1.34375,0.0,1.8913308913308915,-6.422466422466423,-0.8327228327228328,0.0,0.0,0.0,1.6153846153846154,-5.864468864468863,0.0,0.0,-0.875,0.53125,-0.6471306471306472,-4.841269841269841,0.0,0.0,0.0,0.0,-0.9389499389499391,-4.634920634920634,0.0,0.0,0.71875,0.0,0.7081807081807082,-5.394383394383395,0.0,0.0,0.0,0.0,0.8449328449328449,-5.184371184371185,0.0,0.0,0.0,0.0,0.0,-4.557997557997559,0.0,0.0,-0.53125,0.0,-1.0341880341880345,-4.192918192918193,0.5811965811965812,0.0,0.0,0.0,-1.1306471306471306,-4.37973137973138,0.0,0.0,0.0,0.0,,,,,,,,,,,,,,,,,,,,,,,,,,,,,,,,,,,,,,,,,,,,,,,,,,,,,,,,,,,,,movPosY
accX,-0.9609279609279608,-0.8315018315018315,-1.6532356532356531,0.0,0.0,0.0,0.0,-1.2747252747252746,-0.8925518925518926,0.0,0.0,0.0,0.0,-0.811965811965812,0.0,-0.59375,0.0,0.0,0.0,0.0,0.9645909645909646,0.0,0.0,0.0,0.0,0.0,0.536019536019536,0.8125,0.0,0.0,0.0,-1.0341880341880345,-1.3296703296703296,0.0,0.0,0.0,0.0,-0.7435897435897436,-1.4713064713064714,0.0,0.0,0.0,-1.0451770451770452,0.0,-1.0305250305250304,0.0,0.0,0.0,-1.5616605616605617,1.1868131868131868,-0.7008547008547008,0.0,0.0,0.0,0.0,0.0,-1.0598290598290598,0.0,0.0,0.0,1.1135531135531136,-1.0134310134310134,-1.3076923076923077,-0.6875,0.0,0.0,-0.6398046398046398,0.0,-1.5335775335775337,-1.15625,0.0,0.0,0.0,0.5824175824175825,0.0,0.0,0.0,0.0,0.0,0.0,0.0,0.0,0.59375,0.0,2.6971916971916974,-2.0207570207570207,-1.4884004884004884,0.0,0.0,0.0,1.2698412698412698,-0.9853479853479854,-1.3748473748473748,-1.0625,-1.03125,0.0,-1.0989010989010992,0.7142857142857143,0.0,0.0,0.0,0.0,0.5921855921855922,-1.1807081807081807,0.0,0.0,0.8125,0.0,2.0073260073260077,-3.1062271062271063,-0.6251526251526252,0.0,0.0,0.0,-0.7753357753357754,-1.5409035409035412,0.0,-1.34375,-1.21875,0.0,-1.6166056166056166,-0.6544566544566545,0.0,-0.75,0.0,0.0,0.0,-1.6776556776556777,0.978021978021978,0.0,0.90625,0.0,2.271062271062271,-3.9181929181929176,0.0,0.0,0.71875,0.0,0.0,-2.934065934065934,0.0,-0.5625,-0.625,0.0,-2.1807081807081805,-1.242979242979243,0.5494505494505495,-0.875,-0.65625,0.0,-1.6336996336996337,-1.5067155067155067,1.7216117216117215,0.0,0.0,0.0,0.0,-4.4554334554334565,0.5115995115995116,0.6875,0.0,0.0,-0.5042735042735043,-3.862026862026862,0.0,0.0,-0.59375,0.0,-1.4945054945054943,-2.956043956043956,0.0,0.0,-0.71875,0.0,-1.0048840048840049,-3.6349206349206344,0.0,0.0,0.0,0.0,0.0,-5.271062271062272,-0.8363858363858364,0.0,0.0,0.0,0.0,-5.504273504273504,-0.9059829059829059,0.0,0.0,0.0,-1.3663003663003663,-4.53968253968254,-0.8876678876678876,0.0,-0.625,0.0,-0.7435897435897436,-4.396825396825397,0.0,0.0,0.0,0.0,0.0,-4.434676434676434,0.7094017094017094,0.0,0.0,0.0,0.0,-4.446886446886447,0.0,0.53125,0.0,0.0,-0.9951159951159952,-3.78998778998779,0.0,0.0,0.0,0.0,-0.7313797313797313,-3.720390720390721,1.0,0.0,0.0,0.0,0.0,-4.163614163614163,0.6190476190476191,0.0,0.0,0.0,0.0,-4.753357753357753,-0.8522588522588522,0.0,0.0,0.0,-1.249084249084249,-4.199023199023198,-1.2698412698412698,0.0,0.0,0.0,,,,,,,,,,,,,,,,,,,,,,,,,,,,,,,,,,,,,,,,,,,movPosY
accX,0.0,0.0,0.0,0.0,0.0,0.0,-0.5702075702075702,0.0,0.0,0.0,-0.59375,-0.625,0.0,0.0,0.0,0.0,0.0,-0.65625,0.0,-0.6214896214896215,0.0,0.0,0.0,-0.5625,-0.5470085470085471,-0.8021978021978022,-1.3394383394383391,-0.5625,0.0,0.0,-0.7948717948717948,0.0,-0.8156288156288156,-1.0625,0.0,0.0,0.0,0.6593406593406593,1.0683760683760684,0.0,0.0,0.0,-0.5775335775335775,0.0,0.0,0.0,0.0,0.0,0.0,-0.7203907203907204,-1.8302808302808304,0.0,0.0,0.0,0.0,0.0,-2.3943833943833943,-0.59375,0.0,0.0,-0.6324786324786325,0.6068376068376068,-1.7216117216117215,-0.9375,0.0,0.0,-1.326007326007326,2.0329670329670333,0.0,0.0,0.0,0.0,-1.336996336996337,1.3125763125763126,-0.5506715506715507,0.0,0.0,0.0,0.0,0.0,0.0,0.0,0.0,0.0,0.0,-0.8266178266178266,0.0,-0.9375,0.0,0.0,0.0,0.0,0.0,-0.75,0.0,0.0,0.0,0.0,1.0036630036630036,0.0,0.0,0.0,1.194139194139194,-1.7741147741147743,0.6422466422466423,0.0,0.0,0.0,2.4871794871794872,-3.6568986568986563,0.0,-0.84375,-0.8125,0.53125,0.5921855921855922,-2.5921855921855923,0.0,-0.90625,-0.71875,0.0,-0.9084249084249084,-1.3113553113553114,0.6336996336996337,0.0,0.0,0.0,1.0024420024420024,-2.4542124542124544,1.0341880341880345,0.0,0.0,0.0,2.0146520146520146,-4.365079365079366,0.0,0.0,0.0,0.0,0.0,-4.423687423687424,-1.0537240537240538,-0.84375,-0.53125,0.0,-1.194139194139194,-3.236874236874237,0.0,0.0,0.0,0.0,0.0,-2.7594627594627594,1.4615384615384617,0.0,0.0,0.0,0.0,-3.2661782661782666,0.6935286935286935,0.71875,0.0,0.0,0.0,-4.8901098901098905,-1.199023199023199,0.0,0.0,0.0,-0.6031746031746031,-4.683760683760683,-0.9035409035409036,0.0,0.0,0.0,-3.021978021978022,-3.4993894993894994,0.8034188034188035,0.0,0.0,0.5625,-1.8315018315018317,-4.4993894993894985,0.0,0.0,1.0,0.53125,2.1233211233211238,-5.540903540903541,0.6715506715506715,0.0,1.09375,0.625,2.003663003663004,-5.581196581196581,0.0,0.0,0.0,0.0,0.0,-5.655677655677656,-1.5018315018315018,0.0,-0.8125,0.0,-1.0952380952380951,-5.297924297924298,-1.8998778998779,0.0,0.0,0.0,-1.2112332112332111,-3.9609279609279615,-1.1611721611721613,0.0,0.0,0.0,0.0,-3.3321123321123323,0.0,0.0,0.0,0.0,,,,,,,,,,,,,,,,,,,,,,,,,,,,,,,,,,,,,,,,,,,,,,,,,,,,,,,,,,,,,,,,,,,movPosY
accX,0.0,-1.4957264957264955,0.0,0.0,0.0,0.0,-1.2124542124542124,0.0,-0.7008547008547008,0.0,0.0,0.0,-1.1355311355311355,0.0,-0.8485958485958486,0.0,0.0,0.0,0.0,0.0,0.0,0.0,0.0,0.0,0.0,-0.5543345543345544,-1.2637362637362637,0.0,0.0,0.0,-0.6776556776556777,0.0,-1.2442002442002442,0.0,0.0,0.0,-0.9633699633699634,1.133089133089133,-0.6593406593406593,0.0,0.0,0.0,-0.9548229548229548,0.8742368742368742,-0.7545787545787546,0.0,0.0,0.0,0.0,0.6336996336996337,0.0,0.0,0.0,0.0,0.0,0.8376068376068376,0.0,0.0,0.0,0.0,0.0,0.0,-0.5225885225885226,-0.5625,-0.59375,0.0,0.0,0.0,-1.47985347985348,0.0,0.0,0.0,0.0,0.0,-1.5824175824175823,0.0,0.0,0.0,0.0,0.0,-1.3956043956043955,0.0,0.0,0.0,0.0,0.0,-0.6959706959706959,-0.6875,0.0,0.0,-0.7973137973137974,0.0,0.0,-0.75,0.0,0.0,-0.8449328449328449,0.0,0.0,0.0,0.0,0.0,0.0,-0.5811965811965812,0.0,0.0,0.0,0.0,0.6312576312576312,-1.8778998778998781,-0.7057387057387058,0.0,0.0,0.0,1.120879120879121,-1.9474969474969477,0.0,-0.90625,0.0,0.0,0.6459096459096461,-1.5934065934065933,0.7277167277167277,0.0,0.0,0.0,0.7057387057387058,-2.474969474969475,0.0,0.0,0.0,0.0,1.57997557997558,-3.7142857142857135,-0.73992673992674,0.0,0.0,0.0,0.8388278388278388,-3.0,0.0,0.0,0.0,0.0,-0.5848595848595849,-1.6642246642246643,0.6507936507936508,0.0,0.0,0.0,-0.5506715506715507,-2.411477411477412,0.6190476190476191,0.0,0.0,0.0,-0.5018315018315018,-2.9621489621489623,0.0,0.0,0.0,0.0,0.0,-4.247863247863248,-0.5164835164835165,0.0,0.0,0.0,-0.5506715506715507,-2.956043956043956,0.0,0.0,0.0,0.0,0.0,-3.0793650793650795,0.8717948717948718,0.0,0.0,0.0,0.6129426129426129,-3.948717948717949,0.0,0.0,0.0,0.0,0.0,-3.9047619047619047,0.0,0.0,-0.5625,0.0,-1.3333333333333333,-3.4590964590964592,0.0,0.0,0.0,0.0,-1.7008547008547008,-2.8742368742368742,0.0,0.0,0.0,0.0,0.0,-3.9328449328449326,0.0,0.0,0.0,0.0,0.0,-4.083028083028083,-0.5067155067155067,0.0,0.0,0.0,-1.6776556776556777,-2.8864468864468864,0.0,0.0,0.0,0.0,-2.7045177045177047,-2.4163614163614158,0.0,0.0,0.0,0.0,-0.6544566544566545,-2.8705738705738706,0.6483516483516484,0.0,0.625,0.0,0.8339438339438342,-4.0537240537240535,0.0,0.0,0.0,0.0,-0.5494505494505495,-3.5970695970695967,-1.0268620268620268,0.0,-0.53125,0.0,-1.5409035409035412,-3.05982905982906,-0.5702075702075702,0.0,0.0,0.0,-1.0463980463980465,-3.3443223443223444,0.0,0.0,0.0,0.0,,,,,,,,,,,,,,,,,,,,,,,,,,,,,,,movPosY
accX,0.0,0.0,-1.3247863247863247,-0.78125,0.0,0.0,0.6068376068376068,1.0244200244200243,0.9242979242979243,0.0,0.0,0.0,0.0,1.9084249084249083,1.6385836385836383,0.9375,0.0,0.0,-0.8595848595848596,0.0,0.0,0.96875,0.0,0.0,0.0,-0.5946275946275946,-1.9938949938949944,0.0,0.0,0.0,-0.6886446886446886,0.0,-1.695970695970696,-0.96875,0.0,0.0,-0.6862026862026862,1.3357753357753357,0.0,-0.875,0.0,0.0,0.0,1.4774114774114775,-0.7020757020757019,0.0,0.0,0.0,0.0,0.0,-1.6837606837606838,0.0,0.0,0.0,0.0,0.6483516483516484,-1.4822954822954824,0.0,0.0,0.0,0.0,1.3174603174603174,-0.8302808302808303,0.0,0.0,0.0,0.0,1.0488400488400489,0.0,0.0,0.0,0.0,0.0,0.0,-0.7350427350427351,0.0,0.0,0.0,0.5225885225885226,-1.84004884004884,-1.2075702075702075,0.0,0.0,0.0,1.5018315018315018,-1.4590964590964588,0.0,-0.75,0.0,0.0,1.1257631257631258,-0.6800976800976801,0.7326007326007326,0.0,0.0,0.0,0.557997557997558,-1.1196581196581197,0.5323565323565324,0.0,0.0,0.0,0.0,-2.8046398046398044,-0.8534798534798534,0.0,0.0,0.0,0.0,-2.6166056166056166,-0.7533577533577533,0.0,0.0,0.0,0.0,-2.5103785103785103,0.0,0.0,0.0,0.0,0.0,-1.978021978021978,1.1843711843711844,0.0,0.0,0.0,0.0,-2.145299145299145,1.0256410256410255,0.0,-0.6875,0.0,-1.7118437118437118,-3.63980463980464,-0.557997557997558,0.0,0.0,0.0,-0.8339438339438342,-4.338217338217338,-0.5054945054945055,0.0,0.875,0.0,1.5421245421245422,-4.335775335775336,0.5299145299145299,0.0,0.0,0.0,-0.6947496947496947,-2.778998778998779,0.0,0.0,-1.0625,0.0,-2.6666666666666665,-2.63980463980464,-0.5091575091575091,0.0,-0.53125,0.0,-1.5042735042735045,-4.608058608058609,-1.2893772893772897,0.0,0.78125,0.0,0.5641025641025641,-5.125763125763126,-1.010989010989011,0.0,1.0,0.0,0.0,-3.236874236874237,0.6825396825396826,-0.8125,0.0,0.0,-1.5225885225885225,-2.021978021978022,1.6312576312576312,0.0,0.0,0.0,-1.1782661782661783,-3.81929181929182,0.0,0.53125,0.5625,0.0,0.0,-4.605616605616605,-0.6544566544566545,0.0,0.0,0.0,0.0,-3.6935286935286937,0.0,0.0,0.0,0.0,-0.5677655677655677,-3.371184371184371,0.0,0.0,0.0,0.0,-1.195360195360195,-3.578754578754579,0.0,0.0,0.0,0.0,-1.028083028083028,-4.117216117216117,-0.6153846153846154,0.0,0.0,0.0,0.0,-4.157509157509158,0.0,0.0,0.0,0.0,,,,,,,,,,,,,,,,,,,,,,,,,,,,,,,,,,,,,,,,,,,,,,,,,,,,,,,,,,,,,movPosY
accX,0.7387057387057387,0.0,1.362637362637363,0.0,0.0,0.0,0.5262515262515263,0.0,1.468864468864469,0.0,0.0,0.0,0.0,-0.7338217338217338,-0.6166056166056166,0.0,0.0,0.0,-0.7619047619047619,0.0,-1.434676434676435,0.0,0.75,-0.59375,0.0,0.0,-0.7985347985347986,0.0,0.625,0.0,0.0,0.7313797313797313,0.0,0.0,0.0,0.0,-0.8021978021978022,1.061050061050061,0.0,0.0,0.0,0.0,0.0,0.0,0.0,0.0,0.0,0.0,-0.6239316239316239,0.0,-1.1819291819291822,0.0,0.0,0.0,-0.9536019536019535,1.0097680097680095,-0.9352869352869352,0.0,0.0,0.0,-0.8070818070818071,1.1575091575091576,0.0,0.0,0.0,0.0,0.0,0.0,0.0,0.0,0.0,0.0,0.0,-0.5811965811965812,-0.9694749694749696,0.0,0.0,0.0,0.0,-0.7081807081807082,-1.7216117216117215,0.0,0.0,0.0,0.5018315018315018,0.0,-1.4078144078144081,-0.53125,0.0,0.0,0.9548229548229548,0.7802197802197802,0.0,0.0,0.0,0.0,0.0,0.0,0.0,0.0,0.0,0.0,0.0,-0.7032967032967034,-0.6752136752136753,0.0,0.0,0.0,0.0,0.0,0.0,0.0,0.0,0.0,0.0,0.0,0.0,0.0,0.0,0.0,0.0,0.0,0.6068376068376068,0.0,0.0,0.0,0.0,-1.2356532356532357,0.0,0.0,0.0,0.0,0.0,-1.9328449328449329,0.0,0.0,0.0,0.0,-0.9413919413919414,-1.7362637362637363,0.934065934065934,0.0,0.0,0.0,-0.8608058608058609,-1.8754578754578757,1.608058608058608,0.0,0.0,0.0,0.6971916971916972,-3.457875457875458,1.028083028083028,0.0,0.0,0.0,1.2820512820512822,-4.346764346764346,0.0,0.0,-0.84375,0.0,-1.2026862026862026,-3.715506715506716,-0.557997557997558,0.0,0.0,0.0,-0.7936507936507936,-3.8412698412698414,0.0,0.0,0.0,0.0,0.5457875457875457,-5.278388278388278,-0.94993894993895,0.0,0.0,0.0,-1.0561660561660562,-4.715506715506716,-1.4542124542124542,0.0,0.0,0.0,-1.8742368742368745,-4.301587301587301,-1.2161172161172158,0.0,0.65625,0.0,0.0,-4.2393162393162385,0.0,0.0,0.96875,0.0,1.815628815628816,-4.388278388278389,0.9755799755799756,0.0,0.0,0.59375,0.0,-3.836385836385837,0.6043956043956044,0.0,-0.5625,0.0,-1.5213675213675213,-3.8913308913308913,0.0,0.0,0.0,0.0,-1.5409035409035412,-3.638583638583639,0.0,0.0,0.53125,0.0,0.0,-2.956043956043956,0.7704517704517705,0.0,0.0,0.0,-1.3882783882783882,-2.7203907203907205,0.6239316239316239,0.0,-0.6875,0.0,-2.3321123321123323,-3.1135531135531136,0.0,0.0,0.0,0.0,-1.21001221001221,-3.5189255189255184,0.0,0.0,0.53125,0.0,0.0,-3.9072039072039066,0.0,0.0,0.0,0.0,,,,,,,,,,,,,,,,,,,,,,,,,,,,,,,,,,,,,movPosY
accX,0.0,0.0,0.0,0.0,0.0,0.0,0.0,-1.2881562881562882,0.0,0.6875,0.0,0.0,-0.7631257631257631,-1.413919413919414,-1.2319902319902318,0.625,0.0,0.0,-0.9474969474969476,-1.4932844932844933,-2.467643467643468,0.0,0.0,0.0,-0.6324786324786325,0.0,0.0,-0.8125,0.0,0.0,-0.5018315018315018,0.0,0.0,0.0,0.0,0.0,0.0,0.0,-0.8803418803418803,0.0,0.0,0.0,0.0,0.0,-1.4993894993894994,0.0,0.0,0.0,0.0,0.8168498168498168,-1.485958485958486,0.0,0.0,0.0,0.0,0.8290598290598291,-1.0781440781440779,0.0,0.0,0.0,0.0,1.5152625152625152,0.0,0.0,0.0,0.0,0.0,1.4468864468864469,0.0,0.0,0.0,0.0,0.0,0.8840048840048841,-0.6312576312576312,0.0,0.0,0.0,0.5677655677655677,0.0,-1.6495726495726497,0.0,0.0,0.0,0.0,0.0,-1.8705738705738704,-0.78125,0.0,0.0,0.6446886446886447,0.9291819291819292,-0.7960927960927959,-0.75,0.0,0.0,0.0,0.9487179487179488,0.0,0.0,0.0,0.0,-0.6251526251526252,0.6117216117216118,-0.7216117216117216,-0.53125,0.0,0.0,-0.5054945054945055,0.0,0.0,-0.8125,0.0,0.0,0.0,0.5763125763125763,1.2588522588522588,-0.6875,0.0,0.0,0.0,0.0,1.673992673992674,0.0,0.0,0.0,0.0,-0.57997557997558,0.7094017094017094,0.0,0.0,0.0,0.0,-1.5018315018315018,0.0,0.0,0.0,0.0,1.2319902319902318,-1.804639804639805,0.0,0.0,0.0,0.0,0.0,-0.778998778998779,1.123321123321123,0.0,-0.625,0.0,-1.6043956043956045,-0.6434676434676435,0.6373626373626373,0.0,0.0,0.0,-0.8290598290598291,-2.9926739926739927,-0.5384615384615384,0.0,0.0,0.0,0.0,-4.0085470085470085,0.0,0.0,0.0,0.0,0.0,-3.838827838827839,0.0,0.0,0.0,0.0,-1.2857142857142858,-3.4529914529914536,0.0,0.0,0.0,0.0,-1.0671550671550671,-4.162393162393163,0.0,0.0,0.0,0.0,0.0,-5.062271062271061,0.0,0.53125,0.0,0.0,0.0,-5.865689865689865,0.0,0.0,0.0,0.0,-1.0341880341880345,-5.965811965811965,0.0,0.0,0.0,0.0,-2.21978021978022,-5.227106227106226,0.0,0.0,0.8125,0.0,-0.5726495726495726,-4.205128205128204,0.9633699633699634,0.0,0.59375,0.6875,1.5970695970695972,-4.388278388278389,1.4261294261294262,0.0,0.0,0.0,0.5409035409035409,-4.377289377289378,0.6398046398046398,0.0,-0.59375,0.0,-1.021978021978022,-4.023199023199023,0.0,0.0,0.0,0.0,-1.5518925518925517,-3.68986568986569,-0.6336996336996337,0.0,0.0,0.0,-0.5152625152625152,-4.525030525030525,-1.3772893772893773,0.0,0.0,0.0,0.0,-4.9291819291819285,-1.1074481074481075,0.0,-0.5625,0.0,-1.1843711843711844,-3.9890109890109886,0.0,0.0,0.0,0.0,,,,,,,,,,,,,,,,,,,,,,,,,,,,,,,movPosY
accX,0.0,0.0,0.6617826617826618,0.0,0.0,0.0,0.0,-1.0085470085470083,0.5616605616605617,0.0,0.0,0.0,0.0,-1.3711843711843712,0.0,0.0,0.0,0.0,0.0,-0.6349206349206349,0.0,0.0,0.0,0.0,0.0,-0.518925518925519,-0.5482295482295483,0.0,0.0,0.0,-0.5421245421245421,0.8156288156288156,0.0,0.0,0.0,0.0,-0.6324786324786325,0.0,-1.0622710622710625,0.0,0.0,0.0,0.0,0.0,-2.1904761904761907,0.0,0.0,0.0,0.0,0.0,-2.340659340659341,0.0,0.0,0.0,0.0,1.1062271062271063,-1.636141636141636,-0.53125,0.0,0.0,0.0,0.9157509157509156,-1.1343101343101345,0.0,0.0,0.0,0.0,0.9926739926739928,-0.536019536019536,0.0,0.0,0.0,0.0,0.7680097680097681,0.0,-0.71875,0.0,0.0,-0.5885225885225885,0.0,-0.8449328449328449,-0.875,0.0,0.0,0.0,0.0,-0.5335775335775336,-0.875,0.0,0.0,1.2332112332112333,0.0,0.0,-0.84375,0.0,0.0,0.78998778998779,0.0,0.0,-0.78125,-0.5625,0.0,0.0,-0.9108669108669109,0.0,-0.6875,-0.5625,0.0,0.0,-1.0781440781440779,0.0,-0.875,0.0,0.0,1.338217338217338,0.0,0.6007326007326007,-1.0,0.0,0.0,0.8070818070818071,-0.6727716727716728,0.0,0.0,0.0,0.0,0.9450549450549449,-1.8315018315018317,0.0,0.0,-0.59375,0.0,0.0,-2.36019536019536,-0.7130647130647131,0.0,-0.6875,0.0,-1.534798534798535,0.0,0.0,0.0,0.0,0.0,-2.1184371184371185,0.0,1.9023199023199024,0.0,0.0,0.0,-1.6019536019536018,-1.363858363858364,1.465201465201465,0.6875,0.0,0.0,0.0,-3.9694749694749696,0.0,0.0,0.0,0.0,-1.4920634920634919,-3.9706959706959712,0.0,0.0,-0.6875,0.0,-2.8253968253968256,-2.4224664224664223,0.7496947496947497,0.0,0.0,0.0,-1.1746031746031746,-3.511599511599512,0.7777777777777778,0.875,0.75,0.5625,2.5042735042735043,-5.908424908424909,0.0,0.0,-0.875,0.96875,0.0,-5.378510378510379,-0.5335775335775336,0.0,-1.03125,0.6875,-1.6642246642246643,-4.390720390720391,-0.8241758241758241,0.75,0.59375,0.0,1.5006105006105006,-5.523809523809524,0.0,0.6875,0.0,0.0,2.2735042735042734,-5.542124542124542,0.0,0.0,-1.25,0.53125,-2.028083028083028,-4.299145299145299,-1.4334554334554337,0.0,-0.84375,0.0,-2.978021978021978,-3.431013431013431,-1.3186813186813189,0.0,0.5625,0.0,0.0,-4.0427350427350435,0.0,0.0,0.0,0.0,1.4126984126984128,-4.372405372405372,0.0,0.0,-0.5625,0.0,-1.424908424908425,-3.748473748473749,-0.5982905982905983,0.0,0.0,0.0,-1.4920634920634919,-2.9462759462759465,0.0,0.0,0.53125,0.0,0.0,-3.4053724053724053,0.0,0.0,0.0,0.0,0.0,-3.323565323565324,0.0,0.0,0.0,0.0,,,,,,,,,,,,,,,,,,,,,,,,,,,,,,,movPosY
accX,0.0,-0.9902319902319904,0.0,0.0,0.0,0.0,-1.3540903540903542,-1.115995115995116,-0.8241758241758241,0.0,0.0,-0.6875,-1.7631257631257633,-0.8351648351648352,-1.637362637362637,0.0,0.0,-0.5625,0.0,-1.2686202686202686,-1.6764346764346765,-0.5625,0.0,0.0,0.0,0.0,0.0,0.0,0.0,0.0,-0.9914529914529916,0.7411477411477412,0.0,0.0,0.0,0.0,0.0,0.0,-1.238095238095238,0.0,0.0,0.0,0.0,0.0,-1.7167277167277166,-0.53125,0.0,0.0,0.0,1.164835164835165,-0.6361416361416361,-0.65625,0.0,0.0,0.0,1.8534798534798536,0.0,0.0,0.0,0.0,0.0,1.52014652014652,0.0,0.0,0.0,0.0,0.0,1.194139194139194,-0.6764346764346765,0.0,0.0,0.0,-1.0952380952380951,1.5274725274725274,-0.7924297924297924,0.0,0.0,0.0,-1.15995115995116,1.4713064713064714,-0.6166056166056166,0.0,0.0,0.0,0.0,1.3858363858363858,0.0,0.0,0.0,0.0,0.8522588522588522,0.0,0.9853479853479854,0.0,-0.90625,0.0,0.0,-1.387057387057387,-1.7557997557997558,0.0,0.0,0.0,1.4444444444444444,-1.85958485958486,-1.1257631257631258,0.0,0.53125,0.0,2.5177045177045176,-2.133089133089133,0.0,0.0,0.0,0.0,1.0793650793650793,-1.2148962148962148,0.8095238095238095,0.0,-0.5625,0.0,0.0,0.0,0.6568986568986569,0.0,-0.71875,0.0,0.0,-0.9267399267399268,0.0,0.5625,0.0,0.0,-0.6495726495726496,-1.6434676434676434,0.5384615384615384,0.0,0.0,0.0,-1.5299145299145298,-2.1001221001221,0.8131868131868132,0.0,0.0,0.0,0.0,-3.6593406593406588,1.0231990231990231,0.0,0.0,0.0,2.601953601953602,-4.963369963369964,1.2014652014652014,0.0,0.0,0.0,1.3064713064713065,-4.719169719169718,0.0,0.0,-0.9375,0.0,-1.1111111111111112,-3.831501831501832,0.0,0.0,-0.78125,0.0,-1.706959706959707,-3.073260073260073,0.0,0.0,0.0,0.0,0.0,-4.3760683760683765,0.0,0.0,0.0,0.0,-0.8315018315018315,-4.822954822954824,0.0,0.0,0.0,0.0,-0.7448107448107448,-4.628815628815629,-0.9658119658119658,0.0,-0.65625,0.0,-1.7496947496947497,-3.4017094017094016,-0.94993894993895,0.0,0.0,0.0,-1.431013431013431,-3.6312576312576312,0.0,0.0,0.75,0.0,0.0,-4.322344322344321,0.0,0.0,0.9375,0.0,1.238095238095238,-4.921855921855922,0.6202686202686203,0.0,0.0,0.0,-0.5592185592185592,-4.451770451770452,0.0,0.0,-0.6875,0.0,-0.7557997557997558,-3.52014652014652,0.7191697191697192,0.0,0.0,0.0,-0.6678876678876678,-2.954822954822955,0.5445665445665445,0.0,0.0,0.0,-1.1025641025641026,-3.351648351648352,0.0,0.0,0.0,0.0,,,,,,,,,,,,,,,,,,,,,,,,,,,,,,,,,,,,,,,,,,,,,,,,,movPosY
accX,-0.6422466422466423,0.0,-0.8937728937728938,0.0,0.0,0.0,-0.6361416361416361,0.0,-0.6336996336996337,0.0,0.0,0.0,0.0,-0.73992673992674,-0.8376068376068376,0.0,0.0,0.0,0.0,0.0,0.0,0.0,0.0,0.0,0.0,0.0,0.0,0.0,0.0,0.0,0.0,0.0,0.0,0.0,0.0,0.0,0.0,0.5128205128205128,0.0,0.0,0.0,0.0,0.0,0.6178266178266179,-0.5750915750915749,0.0,0.0,0.0,0.0,0.5543345543345544,0.0,0.0,0.0,0.0,0.0,0.7167277167277167,0.0,0.0,0.0,0.0,0.0,0.6678876678876678,0.0,0.0,0.0,0.0,-0.5384615384615384,0.9462759462759462,0.0,0.0,0.0,0.0,0.0,0.0,0.0,0.0,0.0,0.0,0.5982905982905983,0.0,-0.5836385836385837,0.0,0.0,0.0,0.0,0.0,-0.912087912087912,0.0,0.0,0.0,0.0,0.0,-1.4090354090354091,0.0,0.0,0.0,0.6495726495726496,-0.7387057387057387,-1.0805860805860803,0.0,0.0,0.0,2.2783882783882783,-1.6825396825396826,-1.0976800976800978,0.0,0.0,0.0,1.1477411477411477,-1.5030525030525033,-1.31990231990232,-0.84375,-0.75,0.0,-0.6813186813186813,0.0,-0.5738705738705738,-0.90625,0.0,0.0,-0.8412698412698413,0.6959706959706959,1.4236874236874235,0.0,0.0,0.0,0.0,0.0,2.404151404151404,0.0,0.0,0.0,0.9291819291819292,-2.1623931623931623,1.1489621489621489,0.0,0.0,0.0,0.503052503052503,-2.9975579975579976,0.0,-0.59375,-0.59375,0.0,-0.9194139194139194,-2.2222222222222223,0.0,-0.875,-0.5625,0.0,-1.3247863247863247,-1.0329670329670328,1.4761904761904765,0.0,0.0,0.0,-0.5103785103785103,-2.7643467643467643,1.2014652014652014,0.90625,0.625,0.0,1.5970695970695972,-5.648351648351648,0.0,0.0,0.0,0.0,0.0,-5.21001221001221,-1.188034188034188,-0.65625,-0.625,0.0,-1.1562881562881564,-3.3455433455433456,0.0,-0.625,-0.53125,0.0,-1.8693528693528692,-2.9401709401709404,0.0,0.0,0.0,0.0,0.0,-4.9462759462759465,-0.5323565323565324,0.0,0.0,0.0,-1.0769230769230769,-3.5384615384615383,0.0,0.0,-0.6875,0.0,-1.6288156288156288,-2.7948717948717947,0.0,0.0,0.0,0.0,0.9987789987789988,-3.854700854700855,1.0854700854700854,0.59375,0.6875,0.0,1.4456654456654456,-4.848595848595847,0.0,0.0,0.0,0.0,-1.164835164835165,-4.0818070818070815,-1.531135531135531,0.0,-0.90625,0.0,-1.8656898656898655,-3.1233211233211238,-1.1636141636141637,0.0,0.0,0.0,-0.7448107448107448,-3.5494505494505493,-0.6703296703296703,0.0,0.0,0.0,0.0,-4.051282051282051,-0.5323565323565324,0.0,0.0,0.0,-0.912087912087912,-3.897435897435898,-0.8424908424908425,0.0,0.0,0.0,-1.4444444444444444,-3.7472527472527473,-0.5018315018315018,0.0,0.0,0.0,,,,,,,,,,,,,,,,,,,,,,,,,,,,,,,,,,,,,movPosY
accX,0.0,-0.5970695970695971,0.0,0.0,0.0,-0.5625,0.0,-1.391941391941392,-0.7521367521367521,0.0,0.0,-0.625,0.0,-1.1587301587301588,-1.0329670329670328,-0.65625,0.0,0.0,0.0,0.0,0.6678876678876678,-0.65625,0.0,-0.53125,-1.1477411477411477,0.0,0.0,0.0,0.0,-0.59375,0.0,0.0,0.0,0.0,0.0,0.0,0.0,0.0,0.0,0.0,0.0,0.0,-1.0427350427350428,0.9474969474969476,0.0,0.0,0.0,0.0,-1.1245421245421243,1.271062271062271,0.0,0.0,0.0,0.0,-1.4236874236874235,1.3772893772893773,0.0,0.0,0.0,0.0,-0.8876678876678876,1.5164835164835164,0.0,0.0,0.0,0.0,0.0,0.706959706959707,0.0,0.0,0.0,0.0,0.0,0.0,-0.7741147741147741,0.0,0.0,0.0,0.0,0.0,-0.7753357753357754,0.0,0.0,0.0,0.0,0.0,0.0,-0.59375,0.0,0.0,0.0,0.0,0.0,0.0,0.0,0.0,0.6691086691086691,-0.8815628815628815,0.0,0.0,0.0,0.0,1.1111111111111112,-1.5042735042735045,-0.6227106227106227,0.0,0.0,0.0,0.0,-0.5811965811965812,0.0,-0.5625,-0.53125,0.0,0.0,-0.8168498168498168,0.0,0.0,0.0,0.0,0.0,-1.7851037851037852,-0.8840048840048841,0.0,-0.59375,0.0,0.6117216117216118,-3.0170940170940175,-1.5323565323565325,-0.6875,-0.71875,0.0,0.0,-1.5091575091575091,0.0,0.0,0.0,0.0,0.0,-0.8876678876678876,1.0256410256410255,0.625,0.0,0.0,0.0,-2.039072039072039,0.0,0.6875,0.0,0.0,0.0,-3.4932844932844933,-0.8901098901098901,0.0,0.0,0.0,0.0,-3.282051282051282,-0.5115995115995116,0.0,-0.78125,0.0,-1.4102564102564104,-2.5873015873015874,0.0,0.0,0.0,0.0,-1.4114774114774116,-3.0305250305250304,0.0,0.5625,0.0,0.0,-0.9804639804639804,-3.3406593406593412,-0.5653235653235653,0.0,0.59375,0.0,0.9108669108669109,-4.205128205128204,-0.7081807081807082,-0.53125,0.0,0.0,0.0,-3.8107448107448105,0.0,-0.9375,-0.5625,0.0,-1.3492063492063493,-2.887667887667888,0.5616605616605617,0.0,0.0,0.0,-0.9059829059829059,-2.7643467643467643,0.8302808302808303,0.0,0.5625,0.0,0.0,-3.4627594627594624,0.0,0.0,0.53125,0.0,0.0,-3.6129426129426134,-0.6336996336996337,0.0,0.0,0.0,0.0,-2.8217338217338215,0.0,0.0,0.0,0.0,-1.6349206349206349,-2.9902319902319903,0.5616605616605617,0.0,0.0,0.0,-0.9792429792429792,-3.52014652014652,0.0,0.0,0.0,0.0,0.0,-4.255189255189255,-0.5592185592185592,0.0,0.0,0.0,-0.6800976800976801,-3.9438339438339436,-1.0915750915750917,0.0,0.0,0.0,-0.5409035409035409,-4.218559218559219,-0.5653235653235653,0.0,0.0,0.0,,,,,,,,,,,,,,,,,,,,,,,,,,,,,,,,,,,,,movPosY
accX,0.0,-0.873015873015873,0.0,0.0,0.0,0.0,0.0,-0.6739926739926739,0.0,0.0,0.0,0.0,0.0,0.0,0.0,0.0,0.0,0.0,0.0,0.0,-0.6923076923076923,0.0,0.0,0.0,0.0,0.0,0.0,0.0,0.0,0.0,-0.6080586080586079,0.6862026862026862,0.0,0.0,0.0,0.0,0.0,0.7167277167277167,-0.6092796092796092,0.0,0.0,0.0,0.0,0.7032967032967034,0.0,0.0,0.0,0.0,-0.5665445665445665,1.1575091575091576,-0.6971916971916972,0.0,0.0,0.0,0.0,1.6446886446886446,0.0,0.0,0.0,0.0,0.0,1.3992673992673992,0.0,0.0,0.0,0.0,0.0,0.9877899877899878,-0.6263736263736264,0.0,0.0,0.0,0.0,1.1147741147741148,-0.8791208791208791,0.0,0.0,0.0,0.0,1.2564102564102564,-0.8656898656898657,0.0,0.0,0.0,0.0,1.0671550671550671,-0.9584859584859584,0.0,0.0,0.0,0.0,0.8217338217338217,-0.5262515262515263,0.0,0.0,0.0,0.0,0.0,0.0,0.0,0.0,0.0,0.0,-0.8412698412698413,0.0,0.0,0.0,0.0,1.6288156288156288,-1.724053724053724,-0.5347985347985348,0.0,0.0,0.0,1.9413919413919412,-2.2905982905982905,0.0,0.0,0.0,0.0,1.083028083028083,-2.927960927960928,-0.7094017094017094,0.0,0.0,0.0,0.0,-1.9572649572649568,0.0,0.0,0.0,0.0,1.2942612942612943,-3.0268620268620268,0.6764346764346765,0.0,0.0,0.0,1.286935286935287,-3.778998778998779,0.0,0.0,0.0,0.0,0.0,-4.1672771672771685,-0.9609279609279608,0.0,-0.8125,0.0,-1.4163614163614164,-3.571428571428572,-1.0256410256410255,0.0,0.0,0.0,-0.73992673992674,-3.336996336996337,0.0,0.0,0.0,0.0,0.0,-3.927960927960928,0.5079365079365079,0.0,0.0,0.0,-1.7655677655677655,-3.3992673992673987,0.0,0.0,0.0,0.0,-1.1587301587301588,-4.266178266178266,0.0,0.0,0.0,0.0,0.0,-4.42002442002442,0.0,0.0,0.0,0.0,0.0,-4.185592185592186,0.8388278388278388,0.0,0.0,0.0,-1.9694749694749696,-3.6141636141636138,0.557997557997558,0.0,0.0,0.0,-1.8131868131868127,-4.261294261294261,0.0,0.0,0.625,0.0,0.9450549450549449,-4.3247863247863245,0.5433455433455433,0.0,0.0,0.0,0.0,-3.357753357753358,1.188034188034188,0.0,0.0,0.0,-2.1721611721611715,-2.652014652014652,0.0,0.0,0.0,0.0,-2.4163614163614158,-2.5946275946275947,-0.5714285714285714,0.0,0.0,0.0,-0.6971916971916972,-3.2539682539682535,0.0,0.0,0.0,0.0,0.0,-3.155067155067155,0.5115995115995116,0.0,0.0,0.0,-0.8766788766788767,-3.034188034188034,0.0,0.0,0.0,0.0,-0.7289377289377289,-2.2820512820512815,-0.5555555555555556,0.0,0.71875,0.0,0.0,-2.686202686202686,0.0,0.0,0.0,0.0,,,,,,,,,,,,,,,,,,,,,,,,,,,,,,,movPosY
accX,0.0,-0.9413919413919414,-0.78998778998779,0.0,0.0,0.0,-0.5641025641025641,-0.6507936507936508,-0.9426129426129426,0.0,0.0,0.0,0.0,0.0,0.0,0.0,0.0,0.0,0.0,0.5970695970695971,0.0,0.0,0.0,0.0,0.0,0.0,-0.8986568986568987,0.0,0.0,0.0,0.0,0.0,-1.4456654456654456,0.0,0.0,0.0,0.0,0.9645909645909646,-1.0012210012210012,-0.59375,0.0,0.0,-0.6153846153846154,1.4090354090354091,-0.7863247863247863,0.0,0.0,0.0,-0.8302808302808303,1.5470085470085468,-0.6471306471306472,0.0,0.0,0.0,0.0,1.1721611721611722,-0.8461538461538461,0.0,0.0,0.0,-0.6874236874236874,1.4407814407814408,-0.8363858363858364,0.0,0.0,0.0,-0.5091575091575091,2.070818070818071,0.0,0.0,0.0,0.0,-0.5091575091575091,1.9706959706959708,0.0,0.0,0.0,0.0,0.0,0.9963369963369964,0.0,0.0,0.0,0.0,0.0,0.6837606837606838,0.0,0.0,0.0,0.0,0.0,0.6422466422466423,0.0,0.0,0.0,0.0,0.0,0.778998778998779,0.9010989010989012,0.0,0.0,0.0,0.0,0.0,0.0,0.0,0.0,0.0,0.0,-1.1086691086691087,-1.0256410256410255,0.0,0.0,0.0,1.2783882783882785,-1.4725274725274726,0.0,0.0,0.0,0.0,0.6080586080586079,-1.0146520146520146,0.7960927960927959,-0.625,0.0,0.0,-1.2588522588522588,-0.6593406593406593,0.9511599511599512,0.0,0.0,0.0,-0.6410256410256411,-2.924297924297924,-0.8901098901098901,0.59375,0.0,0.0,0.0,-2.877899877899878,0.0,0.0,0.0,0.0,0.0,-2.5995115995116,0.0,0.0,0.0,0.0,0.0,-2.412698412698413,1.1672771672771671,0.0,0.0,0.0,-0.8901098901098901,-2.404151404151404,1.7252747252747254,0.0,0.0,0.0,0.5750915750915749,-3.9181929181929176,0.0,0.625,0.0,0.0,0.0,-3.937728937728938,-0.7094017094017094,0.0,0.0,0.0,-0.5567765567765568,-3.593406593406593,-0.6752136752136753,0.0,0.0,0.0,0.9804639804639804,-4.7765567765567765,0.0,0.0,0.0,0.0,0.7448107448107448,-4.390720390720391,0.0,0.0,-0.5625,0.0,-1.0842490842490842,-3.8717948717948723,-0.7435897435897436,0.0,0.0,0.0,-1.5873015873015872,-3.632478632478633,-0.6556776556776557,0.0,0.6875,0.0,0.0,-3.7448107448107453,0.0,0.0,0.84375,0.0,0.0,-3.1648351648351647,0.7802197802197802,0.0,0.0,0.0,-1.6666666666666667,-2.831501831501832,1.2014652014652014,0.0,-0.59375,0.53125,-1.9584859584859584,-3.847374847374848,0.7875457875457875,0.0,0.0,0.0,-0.8009768009768009,-3.4444444444444446,0.0,0.0,0.65625,0.0,0.0,-3.2991452991452985,0.6349206349206349,0.0,0.0,0.0,-0.8778998778998779,-3.3492063492063493,0.0,0.0,0.0,0.0,-2.2063492063492065,-3.1514041514041518,-0.7484737484737485,0.0,0.0,0.0,-1.868131868131868,-3.2771672771672766,-0.967032967032967,0.0,0.0,0.0,,,,,,,,,,,,,,,,,,,,,,,,,,,,,,,movPosY
accX,-0.5787545787545788,0.0,-0.6703296703296703,0.0,0.0,0.0,0.0,-0.5824175824175825,0.0,0.0,0.0,0.0,0.0,0.0,0.0,0.0,0.0,0.0,0.0,0.0,0.0,0.0,0.0,0.0,-0.7826617826617827,0.0,0.0,0.0,0.0,0.0,0.0,0.0,-1.2844932844932846,0.0,0.0,0.0,0.0,0.0,-1.1147741147741148,-0.8125,0.0,0.0,-0.6971916971916972,1.0525030525030523,-0.9169719169719168,-0.8125,0.0,0.0,-0.5347985347985348,1.4945054945054943,0.0,0.0,0.0,0.0,-0.5860805860805861,1.896214896214896,0.0,0.0,0.0,0.0,0.0,0.9548229548229548,-0.6092796092796092,0.0,0.0,0.0,0.0,0.5982905982905983,-1.2368742368742371,0.0,0.0,0.0,0.0,0.0,-1.442002442002442,0.0,0.0,0.0,-0.7728937728937729,1.3699633699633702,-0.7032967032967034,0.0,0.0,0.0,0.0,1.0268620268620268,0.6166056166056166,0.0,0.0,0.0,0.0,0.0,0.0,0.0,0.0,0.0,0.0,0.5091575091575091,0.0,0.0,0.0,0.0,0.0,0.0,0.0,0.0,0.0,0.0,0.0,0.0,0.0,0.0,0.0,0.0,0.0,-0.7423687423687424,0.6642246642246642,0.0,0.0,0.0,0.0,-1.5592185592185592,0.0,0.0,0.0,0.0,0.0,-1.6275946275946276,0.0,0.0,0.0,0.0,1.3333333333333333,-1.537240537240537,0.6666666666666666,0.0,0.0,0.0,1.0879120879120878,-2.9450549450549453,0.0,0.0,-0.9375,0.0,-0.9963369963369964,-3.062271062271062,0.0,0.0,-0.6875,0.0,-1.434676434676435,-3.4065934065934065,-0.7081807081807082,0.0,0.0,0.0,0.94993894993895,-3.705738705738706,0.0,0.0,0.0,0.0,0.0,-3.1233211233211238,1.358974358974359,0.0,-0.8125,0.0,-1.612942612942613,-3.741147741147741,0.0,0.0,-0.75,0.0,0.0,-5.1892551892551895,-1.2954822954822955,0.0,0.0,0.0,1.1416361416361416,-4.9523809523809526,-1.2967032967032968,0.0,0.0,0.0,-0.8583638583638583,-3.1123321123321124,0.0,-0.53125,-0.625,0.0,-2.184371184371184,-2.6959706959706957,0.0,0.0,0.0,0.0,-0.8424908424908425,-3.4761904761904763,0.5543345543345544,0.0,0.53125,0.0,0.0,-3.937728937728938,0.57997557997558,0.0,0.84375,0.0,0.0,-3.809523809523809,0.7106227106227107,0.0,0.0,0.0,-1.31013431013431,-3.7130647130647128,0.6398046398046398,0.0,0.0,0.0,0.0,-3.758241758241758,0.5457875457875457,0.625,0.53125,0.0,1.6349206349206349,-4.484737484737486,0.0,0.0,0.0,0.0,1.094017094017094,-3.9816849816849818,0.0,0.0,0.0,0.0,-1.0781440781440779,-3.3406593406593412,0.0,0.0,0.0,0.0,-2.3345543345543347,-3.346764346764347,-1.0598290598290598,0.0,0.0,0.0,,,,,,,,,,,,,,,,,,,,,,,,,,,,,,,,,,,,,movPosY
accX,0.0,-0.8156288156288156,-0.7326007326007326,0.0,0.0,0.0,-0.5384615384615384,0.0,-2.010989010989011,0.0,0.0,-0.53125,-1.1306471306471306,0.6092796092796092,-1.4615384615384617,0.0,0.0,-0.53125,0.0,0.9572649572649572,0.0,0.0,0.0,0.0,0.0,0.0,-0.6703296703296703,0.0,0.0,0.0,0.0,0.0,-1.199023199023199,-0.625,0.0,0.0,-0.9987789987789988,0.7509157509157509,-0.9230769230769232,-0.875,0.0,0.0,0.0,1.9804639804639803,0.6984126984126984,0.0,0.0,0.0,-0.5921855921855922,1.362637362637363,0.0,0.0,0.0,0.0,0.7741147741147741,0.0,-1.8315018315018317,0.0,0.0,0.0,0.0,-0.5042735042735043,-2.0854700854700856,-1.3125,0.0,0.0,0.0,1.1355311355311355,0.0,-0.90625,0.0,0.0,-0.5726495726495726,1.465201465201465,0.0,0.0,0.0,0.0,0.0,0.7985347985347986,-0.5824175824175825,0.0,0.0,0.0,1.6727716727716728,-1.3137973137973138,-0.8229548229548229,-0.875,0.0,0.0,0.0,0.0,0.0,-1.28125,-0.8125,0.0,-1.0048840048840049,0.8046398046398047,0.873015873015873,0.0,0.0,0.0,-0.6813186813186813,0.0,1.4896214896214897,0.0,0.0,0.0,1.85958485958486,-3.05006105006105,0.0,0.0,0.0,0.0,1.695970695970696,-3.0842490842490844,-1.1501831501831499,-0.875,-0.9375,0.0,-0.7228327228327228,-0.7423687423687424,0.0,0.0,0.0,0.0,1.534798534798535,-3.3553113553113554,0.0,0.53125,0.0,0.0,1.4285714285714286,-4.1941391941391934,0.0,0.0,-0.96875,0.0,-2.888888888888889,-1.1282051282051282,0.0,-0.78125,-1.15625,0.0,-3.04029304029304,-1.47985347985348,0.9572649572649572,0.0,0.0,0.0,1.2258852258852257,-4.912087912087912,0.0,0.875,0.0,0.0,0.0,-5.31013431013431,-1.006105006105006,0.0,-0.65625,0.0,-2.879120879120879,-3.705738705738706,-1.0146520146520146,0.0,0.0,0.0,-0.8913308913308914,-3.9975579975579976,0.0,0.0,1.0,0.0,1.5384615384615383,-5.401709401709403,0.0,0.0,0.59375,0.0,0.0,-4.771672771672772,0.0,0.0,0.0,0.0,-2.064713064713065,-3.2771672771672766,0.0,0.0,0.0,0.0,-0.7032967032967034,-3.335775335775337,0.8669108669108669,0.0,0.5625,0.0,0.0,-4.096459096459096,1.092796092796093,0.0,0.0,0.0,-0.8693528693528694,-3.75946275946276,0.0,0.0,0.0,0.0,0.0,-3.6568986568986563,0.0,0.0,0.0,0.0,-0.9804639804639804,-2.956043956043956,0.0,0.0,0.0,0.0,-1.6727716727716728,-3.0085470085470085,0.0,0.0,0.0,0.0,-1.065934065934066,-3.8058608058608057,-1.1147741147741148,0.0,0.0,0.0,-0.7228327228327228,-4.087912087912088,-0.9242979242979243,0.0,0.0,0.0,,,,,,,,,,,,,,,,,,,,,,,,,,,,,,,,,,,,,,,,,,,,,,,,,movPosY
accX,0.0,-1.2246642246642248,-1.5946275946275947,0.0,0.0,0.0,0.0,0.0,-1.8107448107448108,0.0,0.0,0.0,0.0,0.0,0.0,0.0,0.0,0.0,0.0,1.4236874236874235,0.9743589743589745,0.0,0.0,0.0,0.0,0.7142857142857143,0.0,0.5625,0.0,0.0,-0.7802197802197802,0.0,-2.435897435897436,0.0,0.0,0.0,0.0,0.0,-2.527472527472528,0.0,0.0,0.0,0.6068376068376068,1.2466422466422469,-0.8437118437118437,-1.0625,0.0,0.0,0.0,1.8485958485958487,0.0,-0.5625,0.0,0.0,-0.6886446886446886,1.0451770451770452,-1.1782661782661783,0.0,0.0,0.0,-0.536019536019536,0.7484737484737485,-1.271062271062271,0.0,0.0,0.0,0.5958485958485958,0.0,0.0,-0.65625,0.0,0.0,0.0,0.7912087912087912,0.0,-0.75,0.0,0.0,-0.851037851037851,1.3931623931623929,0.0,0.0,0.0,0.0,0.0,0.0,0.0,0.0,0.0,0.0,0.7191697191697192,-1.3418803418803418,-0.7045177045177046,0.0,0.0,0.0,1.3785103785103785,-1.824175824175824,-0.811965811965812,-0.5625,0.0,0.0,0.0,-0.7777777777777778,0.0,0.0,0.0,0.0,0.0,0.0,0.6886446886446886,0.0,0.0,0.0,0.8253968253968254,-2.913308913308913,-0.5079365079365079,0.0,0.0,0.0,0.0,-2.954822954822955,-0.7887667887667887,0.0,0.0,0.0,0.0,-2.3321123321123323,0.0,0.0,0.0,0.0,0.5457875457875457,-2.4029304029304033,0.9401709401709402,0.0,0.0,0.0,0.0,-2.318681318681319,1.137973137973138,0.0,-0.53125,0.0,-0.514041514041514,-3.4481074481074483,0.0,0.0,-0.5625,0.0,-1.3858363858363858,-3.4273504273504267,-0.6312576312576312,0.0,0.0,0.0,0.0,-3.7960927960927964,0.5445665445665445,0.0,0.0,0.0,0.0,-3.47008547008547,1.3296703296703296,0.0,0.0,0.0,-1.3748473748473748,-3.7863247863247858,0.0,0.0,0.0,0.53125,-1.0915750915750917,-4.766788766788767,-0.6361416361416361,0.0,0.0,0.0,0.0,-4.78998778998779,0.0,0.0,0.0,0.0,0.0,-3.811965811965812,0.6434676434676435,0.0,0.0,0.0,-1.709401709401709,-3.2124542124542126,0.0,0.0,0.0,0.0,-1.3675213675213675,-4.576312576312576,0.0,0.0,0.0,0.0,-0.5482295482295483,-4.813186813186814,0.0,0.0,0.0,0.0,-1.2832722832722834,-3.1623931623931623,0.5445665445665445,0.0,0.0,0.0,-1.3076923076923077,-3.852258852258852,0.0,0.0,0.0,0.0,-1.6507936507936507,-4.514041514041514,-1.1672771672771671,0.0,0.0,0.0,-1.6776556776556777,-4.256410256410256,-0.7435897435897436,0.0,0.0,0.0,-1.1452991452991452,-4.010989010989012,0.0,0.0,0.0,0.0,,,,,,,,,,,,,,,,,,,,,,,,,,,,,,,,,,,,,,,,,,,,,,,,,movPosY
accX,0.0,0.0,0.0,0.0,0.0,0.0,0.0,0.0,0.0,0.0,0.0,0.0,0.0,0.0,-0.9438339438339438,0.0,0.0,0.0,-0.6739926739926739,0.0,-1.8485958485958487,0.0,0.0,0.0,0.0,1.1391941391941391,0.0,-0.6875,0.0,0.0,0.0,1.1196581196581197,0.0,0.0,0.0,0.0,0.0,0.757020757020757,-1.2246642246642248,0.0,0.0,0.0,-0.5299145299145299,0.873015873015873,-1.8559218559218558,0.0,0.0,0.0,-0.7460317460317459,1.5079365079365081,-1.0805860805860803,-0.5625,0.0,0.0,-0.5750915750915749,2.230769230769231,0.0,-0.8125,0.0,0.0,0.0,1.5995115995115996,0.6813186813186813,-0.53125,0.0,0.0,0.0,0.0,0.0,0.0,0.0,0.0,0.0,0.0,0.0,0.0,0.0,0.0,0.0,0.0,0.0,0.0,0.0,0.0,0.0,0.0,0.0,0.0,0.0,0.0,0.0,0.0,0.0,0.0,0.0,0.0,0.0,-0.5555555555555556,0.6691086691086691,0.0,0.0,0.0,0.0,-1.343101343101343,0.0,0.0,-0.5625,0.0,0.0,-0.9450549450549449,0.0,0.0,0.0,0.0,0.0,-0.6178266178266179,0.5592185592185592,0.0,0.0,0.0,0.5372405372405372,-1.8620268620268619,0.0,0.53125,0.0,0.0,0.0,-3.2002442002442004,-0.7387057387057387,0.0,-0.5625,0.0,-0.6813186813186813,-2.948717948717949,-0.7142857142857143,0.0,0.0,0.0,-0.63003663003663,-2.42002442002442,0.0,0.0,0.0,0.0,-0.6202686202686203,-2.2796092796092795,0.8217338217338217,0.0,0.0,0.0,0.8009768009768009,-4.283272283272283,0.0,0.0,0.0,0.0,0.0,-4.9755799755799766,-1.1843711843711844,0.0,0.0,0.0,-0.6923076923076923,-4.871794871794871,-1.2893772893772897,0.0,0.0,0.0,-1.0744810744810744,-2.9145299145299144,0.5006105006105006,0.0,0.78125,-0.53125,0.0,-3.5873015873015874,0.5103785103785103,0.6875,0.0,0.0,0.6434676434676435,-5.537240537240537,-0.912087912087912,0.0,0.0,0.0,-0.6141636141636142,-5.4884004884004876,-0.8327228327228328,0.0,0.0,0.0,-1.1282051282051282,-5.037851037851038,0.5054945054945055,0.0,0.0,0.0,-1.192918192918193,-4.318681318681318,0.5384615384615384,0.0,0.53125,0.0,0.0,-4.020757020757022,0.0,0.0,0.0,0.0,0.0,-4.511599511599512,0.0,0.0,0.0,0.0,-1.122100122100122,-4.4774114774114775,0.0,0.0,0.0,0.0,-1.7435897435897436,-3.7216117216117217,0.0,0.0,0.0,0.0,-0.9609279609279608,-3.5677655677655684,0.0,0.0,0.0,0.0,,,,,,,,,,,,,,,,,,,,,,,,,,,,,,,,,,,,,,,,,,,,,,,,,,,,,,,movPosY
accX,0.0,0.0,0.7008547008547008,0.0,0.0,0.0,0.0,0.0,0.0,0.59375,0.0,0.0,-0.9511599511599512,-0.5531135531135531,-1.7838827838827842,0.0,0.0,0.0,0.0,-0.6275946275946276,-1.5103785103785103,-0.53125,0.0,0.0,0.0,1.1465201465201464,1.4090354090354091,0.0,0.0,0.0,-0.7167277167277167,0.8669108669108669,0.0,0.53125,0.0,0.0,0.0,-0.6617826617826618,-1.1245421245421243,0.0,0.0,0.0,-0.5201465201465202,0.0,-1.6642246642246643,-0.75,0.0,0.0,-0.7240537240537241,1.1782661782661783,0.0,-0.625,0.0,0.0,-0.518925518925519,2.0525030525030523,0.6703296703296703,0.0,0.0,0.0,-1.2686202686202686,1.8632478632478635,0.0,0.0,0.0,0.0,0.0,0.0,-0.7741147741147741,0.0,0.0,0.0,0.0,0.9401709401709402,0.0,-0.8125,0.0,0.0,-0.5738705738705738,1.3272283272283272,0.9963369963369964,0.0,0.0,0.0,0.0,0.0,0.0,0.0,0.0,0.0,0.0,-1.2026862026862026,-0.7875457875457875,0.0,0.0,0.0,0.0,-1.326007326007326,-1.1184371184371185,0.0,0.0,0.0,0.0,-0.7179487179487181,-0.5299145299145299,-0.53125,0.0,0.0,0.0,-0.9108669108669109,0.0,0.0,0.0,0.0,1.0085470085470083,-2.6373626373626373,-1.1709401709401708,0.0,0.0,0.0,1.0158730158730158,-3.064713064713065,-1.7582417582417582,0.0,0.0,0.0,0.0,-2.525030525030525,-1.2722832722832722,-0.875,0.0,0.0,0.0,-1.028083028083028,0.0,-0.875,0.0,0.0,0.0,-0.9010989010989012,1.0329670329670328,0.0,0.0,0.0,0.0,-2.791208791208791,0.0,0.0,0.0,0.0,0.0,-3.189255189255189,0.0,0.0,0.0,0.0,0.0,-2.31013431013431,0.6752136752136753,-0.71875,0.0,0.0,-1.0024420024420024,-1.3272283272283272,1.1746031746031746,0.0,0.0,0.0,-0.7643467643467643,-2.4725274725274726,0.0,0.0,0.0,0.0,0.0,-4.479853479853481,-1.6654456654456655,0.0,0.0,0.0,0.0,-3.9059829059829063,-1.7484737484737485,0.0,0.0,0.0,-0.568986568986569,-1.9010989010989008,0.0,-0.5625,0.0,0.0,-0.5518925518925519,-2.8351648351648358,0.0,0.0,0.0,0.0,-0.7960927960927959,-4.838827838827839,-1.5811965811965811,0.0,0.0,0.0,0.0,-4.34065934065934,-1.1733821733821734,0.0,0.65625,0.0,0.0,-2.8107448107448105,0.6739926739926739,0.0,0.0,0.0,0.0,-1.7155067155067154,1.6446886446886446,0.0,0.0,0.0,0.0,-2.887667887667888,0.7924297924297924,0.0,0.0,0.0,0.0,-4.0976800976800964,0.0,0.0,0.0,0.0,-0.7680097680097681,-3.1282051282051277,0.0,0.0,-0.5625,0.0,-1.2564102564102564,-2.0085470085470085,0.7973137973137974,0.0,0.0,0.0,0.0,-2.831501831501832,0.0,0.53125,0.0,0.0,0.0,-4.017094017094017,-1.2124542124542124,0.0,0.0,0.0,-1.2796092796092795,-3.8021978021978016,-1.4920634920634919,0.0,0.0,0.0,,,,,,,,,,,,,,,,,,,,,,,,,movPosY
accX,-0.5409035409035409,0.0,-0.6092796092796092,0.5625,0.0,-0.5625,0.0,-0.7155067155067155,-0.6422466422466423,0.0,0.0,0.0,0.0,0.0,-0.5909645909645911,0.0,0.0,0.0,-0.5738705738705738,0.0,0.0,0.0,0.0,0.0,0.0,0.0,0.0,0.0,0.0,0.0,0.0,0.0,0.0,0.0,0.0,0.0,0.0,0.0,0.0,0.0,0.0,0.0,0.0,0.5714285714285714,-0.9658119658119658,0.0,0.0,0.0,0.0,0.0,-1.2747252747252746,0.0,0.0,0.0,0.0,0.557997557997558,-1.3711843711843712,0.0,0.0,0.0,0.0,0.0,-1.083028083028083,0.0,0.0,0.0,0.0,0.0,-1.043956043956044,0.0,0.0,0.0,0.0,0.7643467643467643,0.0,-0.53125,0.0,0.0,0.0,0.8547008547008547,0.0,0.0,0.0,0.0,0.0,0.9059829059829059,1.1111111111111112,0.0,0.0,0.0,0.0,0.0,0.0,0.0,0.0,0.0,0.0,-0.7838827838827839,0.0,-0.5625,0.0,0.0,0.0,-0.6837606837606838,0.0,0.0,0.0,0.0,0.5103785103785103,-0.9914529914529916,0.0,0.0,0.0,0.0,1.264957264957265,-2.0195360195360195,0.0,0.0,0.0,0.0,1.126984126984127,-2.7460317460317465,-1.1282051282051282,0.0,0.0,0.0,0.0,-1.7851037851037852,-0.6739926739926739,-0.625,0.0,0.0,-0.9487179487179488,-1.1526251526251523,0.0,0.0,0.0,-0.5625,0.0,-3.503052503052503,-0.5958485958485958,0.53125,0.0,0.0,1.6764346764346765,-4.8046398046398044,-1.144078144078144,0.0,0.0,0.0,-0.5604395604395604,-3.7423687423687424,-1.6593406593406594,0.0,-0.84375,0.0,-1.5299145299145298,-2.518925518925519,0.0,0.0,0.0,0.0,-1.0,-2.737484737484737,1.177045177045177,0.0,0.71875,0.0,0.0,-4.484737484737486,0.6349206349206349,0.0,0.625,0.0,0.7509157509157509,-5.152625152625153,0.0,0.0,0.0,0.5625,-2.0146520146520146,-3.3724053724053724,0.0,0.0,0.0,0.0,-1.362637362637363,-3.531135531135531,1.199023199023199,0.0,0.625,0.0,0.6239316239316239,-5.101343101343102,1.4761904761904765,0.65625,0.78125,0.0,0.7704517704517705,-5.5115995115995124,0.0,0.0,0.0,0.5625,-1.4114774114774116,-4.153846153846153,0.0,0.0,0.0,0.0,-0.8522588522588522,-3.864468864468865,0.0,0.0,0.65625,0.0,0.0,-4.255189255189255,0.0,0.0,0.0,0.0,-1.735042735042735,-4.084249084249084,-1.3907203907203909,0.0,0.0,0.0,-1.6056166056166057,-3.9829059829059825,-0.9487179487179488,0.0,0.0,0.0,0.0,-4.301587301587301,0.0,0.0,0.0,0.0,-0.851037851037851,-3.7289377289377286,0.0,0.0,0.0,0.0,,,,,,,,,,,,,,,,,,,,,,,,,,,,,,,,,,,,,,,,,,,movPosY
accX,-0.5714285714285714,-1.3540903540903542,-1.3455433455433456,0.625,0.0,0.0,0.0,-0.6849816849816851,-1.1489621489621489,0.0,0.65625,-0.5625,0.0,0.0,0.0,0.0,0.625,0.0,0.0,0.7228327228327228,0.9462759462759462,0.0,0.0,0.0,-1.0757020757020757,0.0,0.0,0.5625,0.0,0.0,-1.3272283272283272,0.0,-1.6947496947496947,0.0,0.0,0.0,-0.8669108669108669,0.0,-1.2258852258852257,0.0,0.53125,0.0,0.0,0.989010989010989,0.0,0.0,0.0,0.0,0.0,0.8205128205128205,0.0,0.0,0.0,0.0,0.0,0.0,-0.8205128205128205,0.0,0.0,0.0,0.0,0.0,-1.1794871794871795,0.0,0.0,0.0,-0.6788766788766789,0.0,-0.6874236874236874,-0.59375,0.0,0.0,0.0,0.6117216117216118,0.0,0.0,0.0,0.0,0.0,0.0,0.0,0.0,0.0,0.0,0.0,-0.778998778998779,0.0,0.0,0.0,0.0,0.0,-0.7741147741147741,-0.5311355311355311,0.0,0.0,0.0,0.0,0.0,0.0,0.0,0.0,0.0,0.0,-0.6935286935286935,0.0,0.0,0.0,0.0,0.6837606837606838,-1.3235653235653235,0.0,0.0,0.0,0.0,0.7765567765567766,-1.8522588522588523,0.0,0.0,0.0,0.0,0.0,-1.9377289377289375,-1.0903540903540905,0.0,0.0,0.0,0.0,-1.7228327228327232,-0.8192918192918193,0.0,0.0,0.0,0.0,-1.0842490842490842,0.0,0.0,0.0,0.0,0.0,-1.1123321123321124,0.8107448107448108,0.0,0.0,0.5625,0.6446886446886447,-2.5665445665445668,0.0,0.625,0.0,0.65625,1.6336996336996337,-4.137973137973138,-1.8571428571428568,0.0,0.0,0.0,1.0134310134310134,-3.7142857142857135,-1.4468864468864469,0.0,0.0,0.0,-1.0671550671550671,-1.3150183150183148,0.0,0.0,0.0,0.0,-1.321123321123321,0.0,1.4725274725274726,0.0,0.0,0.0,-1.321123321123321,-0.6092796092796092,0.9865689865689866,0.0,0.0,0.0,-1.1184371184371185,-2.3638583638583643,0.0,0.0,0.0,0.0,-1.8608058608058609,-2.6727716727716726,1.8107448107448108,0.0,0.0,0.0,-1.6715506715506716,-2.7777777777777777,1.115995115995116,0.71875,0.0,0.75,-0.5470085470085471,-4.647130647130648,0.0,0.9375,0.75,0.96875,1.2722832722832722,-6.004884004884005,0.0,0.0,0.625,0.875,0.0,-4.4554334554334565,0.0,0.0,0.0,0.0,-0.5555555555555556,-3.7851037851037854,1.092796092796093,0.0,0.0,0.59375,0.0,-4.677655677655678,0.0,0.5625,0.65625,0.53125,1.5811965811965811,-5.235653235653237,-0.5494505494505495,0.0,0.0,0.0,0.0,-4.152625152625153,-0.6068376068376068,0.0,0.0,0.0,-1.2808302808302807,-2.976800976800977,0.0,0.0,0.0,0.0,-0.6092796092796092,-3.3663003663003663,-0.6324786324786325,0.0,0.0,0.0,0.6849816849816851,-4.205128205128204,-0.6654456654456654,0.0,0.0,0.0,0.0,-3.4822954822954824,-0.7301587301587301,0.0,0.0,0.0,,,,,,,,,,,,,,,,,,,,,,,,,movPosY
accX,0.0,-0.8852258852258852,0.0,0.0,0.0,0.0,0.7619047619047619,-0.7875457875457875,0.0,0.0,0.0,0.0,0.0,0.0,0.0,0.0,0.0,0.0,-0.9926739926739928,0.0,-0.8449328449328449,0.0,0.0,0.0,-0.818070818070818,0.0,-1.336996336996337,0.0,0.0,0.0,-0.5152625152625152,0.0,-1.017094017094017,-0.625,0.0,0.0,0.0,0.8437118437118437,0.0,-0.875,0.0,0.0,0.0,1.0146520146520146,0.0,-0.65625,0.0,0.0,0.0,0.0,-0.818070818070818,0.0,0.0,0.0,0.0,0.0,-1.5958485958485962,0.0,0.0,0.0,0.0,0.0,-1.42002442002442,0.0,0.0,0.0,-0.5079365079365079,0.811965811965812,-0.5860805860805861,0.0,0.0,0.0,-0.8192918192918193,0.873015873015873,0.0,0.0,0.0,0.0,0.5787545787545788,-0.663003663003663,0.0,0.0,0.0,0.0,0.0,0.0,0.0,-0.875,-0.5625,0.0,0.0,0.0,0.0,-0.75,0.0,0.0,0.0,0.8437118437118437,0.7826617826617827,0.0,0.0,0.0,0.0,0.0,0.0,0.0,0.0,0.0,2.092796092796093,-3.0818070818070824,-0.8888888888888888,-1.03125,-0.78125,0.0,0.0,-1.6532356532356531,0.0,-1.3125,-1.28125,0.0,-1.7936507936507935,0.0,0.0,0.0,0.0,0.0,-0.6739926739926739,-0.9853479853479854,0.5347985347985348,0.875,0.75,0.0,2.5824175824175826,-4.525030525030525,-1.1025641025641026,0.0,0.0,0.0,0.8302808302808303,-3.272283272283272,-0.6007326007326007,-1.03125,-1.125,0.0,-2.42002442002442,-0.8290598290598291,0.0,0.0,0.0,0.0,0.0,-2.573870573870574,0.7606837606837606,0.625,0.0,0.0,2.2283272283272284,-4.926739926739927,-0.5213675213675214,0.0,-0.96875,0.0,-2.034188034188034,-2.5946275946275947,-1.6678876678876684,0.0,0.0,0.0,-1.8656898656898655,-1.0964590964590966,0.0,0.0,0.6875,0.0,0.0,-2.4932844932844933,0.5396825396825397,0.0,0.0,0.0,0.6288156288156288,-3.595848595848596,0.0,0.0,0.0,0.0,0.0,-3.37973137973138,0.0,0.0,0.0,0.0,0.0,-2.5579975579975582,0.0,0.0,0.0,0.0,0.7313797313797313,-2.5824175824175826,1.6068376068376071,0.0,0.0,0.0,-0.6862026862026862,-3.236874236874237,0.0,0.5625,0.0,0.0,-1.871794871794872,-2.7753357753357752,-0.9975579975579976,0.0,0.0,0.53125,-0.7655677655677655,-3.6105006105006106,0.0,0.0,0.0,0.0,0.0,-4.001221001221002,0.8754578754578755,0.0,0.0,0.53125,-1.78998778998779,-3.155067155067155,0.5506715506715507,0.6875,0.0,0.875,0.0,-3.855921855921856,0.0,0.0,0.0,0.6875,1.927960927960928,-5.083028083028083,0.0,0.0,0.0,0.0,0.0,-5.307692307692308,-2.1978021978021984,0.0,0.0,0.0,0.0,-4.034188034188034,-1.017094017094017,0.0,0.0,0.0,,,,,,,,,,,,,,,,,,,,,,,,,,,,,,,movPosY
accX,0.0,0.6923076923076923,0.9902319902319904,0.0,0.0,0.0,0.0,0.0,0.518925518925519,0.0,0.0,0.0,-0.8461538461538461,0.0,-0.5494505494505495,0.0,0.0,0.0,0.0,0.0,-1.2222222222222223,0.0,0.625,0.0,0.5018315018315018,0.0,0.0,-0.75,0.0,0.0,0.0,1.536019536019536,0.0,-0.78125,0.0,0.0,-1.0451770451770452,1.1538461538461535,0.0,0.0,0.0,0.0,-1.1465201465201464,0.0,-1.6007326007326008,0.0,0.0,0.0,0.0,0.0,-1.1636141636141637,0.0,0.0,0.0,0.0,0.0,0.0,0.0,0.0,0.0,0.0,0.0,0.0,0.0,0.0,0.0,0.0,0.0,-0.8290598290598291,0.0,0.0,0.0,0.0,0.0,0.0,0.0,0.0,0.0,0.0,0.0,0.0,0.0,0.0,0.0,0.0,0.0,0.0,0.0,0.0,0.0,0.0,0.0,0.0,0.0,0.0,0.0,0.0,-1.275946275946276,-0.6214896214896215,0.0,0.0,0.0,0.0,-0.9768009768009768,-0.6178266178266179,0.0,0.0,0.0,0.5677655677655677,-1.2576312576312576,0.0,0.0,0.0,0.0,0.0,-0.9304029304029304,0.0,0.0,-0.53125,0.0,-1.358974358974359,-1.7851037851037852,0.0,0.0,0.0,0.0,0.0,-4.015873015873016,-1.105006105006105,0.0,0.0,-0.53125,0.0,-3.2649572649572653,-0.7960927960927959,-0.53125,0.0,0.0,0.0,-2.1684981684981683,0.0,-0.59375,0.0,0.0,0.0,-2.240537240537241,0.5958485958485958,0.0,0.0,0.0,0.6385836385836385,-3.877899877899878,0.0,0.0,0.0,0.0,0.0,-4.3992673992674005,-1.1733821733821734,0.0,0.0,0.0,-1.1672771672771671,-3.0390720390720385,-0.8974358974358975,-0.5625,0.0,0.0,-1.0048840048840049,-1.7545787545787546,0.5824175824175825,0.0,0.0,0.0,-1.3833943833943834,-2.04029304029304,1.2295482295482296,0.0,0.0,0.0,-1.2967032967032968,-3.669108669108669,0.0,0.0,0.0,0.0,-1.343101343101343,-3.8205128205128207,0.0,0.0,0.0,0.0,0.0,-3.8485958485958487,0.9877899877899878,0.0,0.53125,0.0,0.0,-3.4420024420024418,1.1257631257631258,0.0,0.0,0.0,-0.57997557997558,-3.764346764346764,0.0,0.0,-0.65625,0.53125,-1.5299145299145298,-4.095238095238095,0.0,0.0,0.0,0.0,-1.4041514041514038,-4.255189255189255,-0.5726495726495726,0.0,0.0,0.0,-1.0769230769230769,-3.561660561660561,0.0,0.0,0.0,0.0,0.0,-3.6349206349206344,0.0,0.0,0.0,0.0,,,,,,,,,,,,,,,,,,,,,,,,,,,,,,,,,,,,,,,,,,,,,,,,,,,,,,,movPosY
accX,0.0,0.0,0.0,0.53125,0.0,0.0,0.8327228327228328,-1.1074481074481075,0.0,0.0,0.0,0.0,0.0,0.0,0.0,0.0,0.0,0.0,0.0,0.0,-0.5860805860805861,0.0,0.0,0.0,0.0,0.0,-0.6202686202686203,0.0,0.0,0.0,0.0,0.0,-1.2234432234432235,0.0,0.0,0.0,0.0,0.0,-1.3956043956043955,-0.65625,0.0,0.0,-0.7094017094017094,1.1282051282051282,-0.8620268620268621,-0.5625,0.0,0.0,0.0,1.3736263736263736,0.0,0.0,0.0,0.0,0.0,0.7619047619047619,-0.5531135531135531,0.0,0.0,0.0,0.0,0.8901098901098901,-0.9401709401709402,0.0,0.0,0.0,0.57997557997558,0.8021978021978022,-0.5152625152625152,-0.59375,0.0,0.0,0.0,1.2625152625152625,0.0,-0.625,0.0,0.0,0.0,0.7020757020757019,0.0,0.0,0.0,0.0,0.0,0.0,0.0,0.0,0.0,0.0,0.0,0.0,0.0,0.0,0.0,0.0,0.0,0.0,0.0,0.0,0.0,0.0,0.0,0.0,0.0,0.0,0.0,0.0,0.0,0.0,0.6214896214896215,0.0,0.0,0.0,0.0,-1.2857142857142858,0.0,0.0,0.0,0.0,1.0903540903540905,-2.4432234432234434,0.0,0.0,0.0,0.0,0.9829059829059827,-2.3028083028083026,0.0,0.0,0.0,0.0,-0.6507936507936508,-1.043956043956044,0.8681318681318682,0.0,-0.6875,0.0,-1.105006105006105,-0.7851037851037851,0.5506715506715507,0.0,0.0,0.0,0.0,-1.3675213675213675,0.0,0.0,0.0,0.0,0.0,-2.8095238095238093,0.0,0.0,0.0,0.0,-2.418803418803418,-1.9230769230769231,0.0,0.0,0.0,0.0,-3.6935286935286937,-0.8034188034188035,0.8449328449328449,0.0,0.0,0.0,-2.070818070818071,-2.7228327228327234,0.0,0.71875,1.3125,0.0,2.559218559218559,-5.91941391941392,0.0,0.0,0.59375,1.0625,0.0,-5.822954822954823,-1.5262515262515262,0.0,-0.875,1.0625,-1.7496947496947497,-6.020757020757022,-1.5677655677655675,0.0,0.0,0.90625,0.5494505494505495,-6.114774114774113,0.0,0.0,1.21875,0.75,2.816849816849817,-7.31990231990232,0.0,0.5625,0.65625,0.6875,0.5543345543345544,-6.152625152625152,0.0,0.0,0.0,0.0,0.0,-5.1892551892551895,0.0,0.0,0.0,0.0,0.0,-4.525030525030525,0.0,0.0,0.0,0.0,-1.6117216117216118,-3.511599511599512,-0.63003663003663,0.0,0.0,0.0,-1.6031746031746033,-3.2808302808302807,0.0,0.0,0.0,0.0,-1.3687423687423688,-3.2136752136752142,0.5702075702075702,0.0,0.0,0.0,,,,,,,,,,,,,,,,,,,,,,,,,,,,,,,,,,,,,,,,,,,,,,,,,movPosY
accX,0.0,-1.017094017094017,0.0,0.0,0.0,0.0,0.0,-0.894993894993895,-0.5750915750915749,0.0,0.0,0.0,0.0,0.9169719169719168,0.7313797313797313,0.0,0.0,0.0,-1.2332112332112333,1.1904761904761905,0.706959706959707,0.0,0.0,0.0,-0.934065934065934,0.0,-0.9633699633699634,0.0,0.0,0.0,-0.5592185592185592,0.0,-1.4322344322344325,0.0,0.0,0.0,-0.78998778998779,0.78998778998779,-1.3675213675213675,0.0,0.0,0.0,-1.175824175824176,1.5982905982905984,-0.8925518925518926,0.0,0.53125,0.0,0.0,1.1343101343101345,0.0,0.0,0.0,0.0,0.0,0.6141636141636142,-0.5738705738705738,0.0,0.0,0.0,0.0,0.8778998778998779,0.0,-0.625,0.0,0.0,-0.8107448107448108,1.8070818070818069,0.0,0.0,0.0,0.0,-0.6520146520146519,1.8669108669108667,0.6581196581196581,0.0,0.59375,0.0,0.7655677655677655,0.0,0.0,0.0,0.0,0.0,2.7252747252747254,-2.1782661782661785,-1.0097680097680095,-0.65625,-0.875,0.0,1.4566544566544566,-1.8632478632478635,-1.968253968253968,-0.84375,-0.75,0.0,0.0,0.0,-1.2393162393162394,0.0,0.0,-0.53125,0.0,0.0,0.0,0.0,0.84375,-0.65625,1.4358974358974361,-1.948717948717949,-0.7692307692307693,0.0,0.0,0.0,0.6361416361416361,-1.6715506715506716,0.0,-0.6875,-1.0,0.0,-2.0073260073260077,-0.7264957264957265,0.0,0.0,-0.625,0.0,-2.4884004884004884,0.0,0.0,0.0,0.75,0.0,0.5628815628815629,-2.166056166056166,0.0,0.0,0.0,0.0,0.0,-3.3284493284493286,0.0,-0.8125,-1.28125,0.0,-2.653235653235653,-1.7264957264957266,0.7045177045177046,-0.6875,-0.625,0.0,-2.52991452991453,-2.003663003663004,1.0097680097680095,0.0,0.71875,-0.65625,-0.6178266178266179,-4.101343101343101,0.0,0.53125,1.25,0.0,1.7728937728937728,-5.526251526251526,-0.9474969474969476,0.0,0.0,0.0,-1.0231990231990231,-2.774114774114774,0.0,-0.75,-0.78125,0.0,-1.9377289377289375,-1.962148962148962,0.0,0.0,0.0,0.0,0.0,-3.688644688644689,0.0,0.6875,0.84375,0.0,1.6324786324786325,-5.131868131868131,0.0,0.0,0.0,0.0,0.0,-5.034188034188034,0.0,0.0,-0.875,0.0,-1.8083028083028083,-3.1037851037851034,0.7032967032967034,0.0,0.0,0.0,0.0,-3.3162393162393164,1.120879120879121,0.5625,0.0,0.0,0.0,-3.791208791208791,0.0,0.625,0.0,0.0,-3.086691086691087,-4.208791208791209,-2.2625152625152625,0.0,-0.625,0.0,-3.274725274725274,-3.688644688644689,-1.2393162393162394,0.0,0.0,0.0,0.0,-4.028083028083028,1.0891330891330893,0.0,0.53125,0.5625,1.6446886446886446,-4.006105006105006,1.5115995115995116,0.0,0.0,0.0,0.0,-3.7948717948717943,0.0,0.0,0.0,0.0,,,,,,,,,,,,,,,,,,,,,,,,,,,,,,,,,,,,,,,,,,,movPosY
accX,0.0,-1.144078144078144,-0.6434676434676435,0.0,0.0,0.0,0.0,0.0,-0.7667887667887668,0.0,0.53125,0.0,0.0,0.0,0.0,-0.5625,0.0,0.0,-0.5787545787545788,1.0195360195360197,1.4957264957264955,0.0,0.0,0.0,-0.9157509157509156,0.0,0.0,0.0,0.0,0.0,-0.5665445665445665,0.0,-1.358974358974359,0.0,0.0,0.0,-0.5054945054945055,0.0,-1.358974358974359,0.0,0.0,0.0,0.0,0.8705738705738706,0.0,0.0,0.0,0.0,0.0,0.0,0.0,0.0,0.0,0.0,0.0,0.0,-1.1514041514041513,0.0,0.0,0.0,0.0,-1.1147741147741148,-1.9609279609279608,-0.53125,0.0,0.0,0.0,0.0,-1.4725274725274726,-0.6875,0.0,0.0,0.0,0.7521367521367521,0.0,0.0,0.0,0.0,0.0,1.0683760683760684,0.0,0.0,0.0,0.0,-0.7948717948717948,0.6825396825396826,0.0,0.0,0.0,0.0,-1.1672771672771671,0.0,0.0,0.0,0.0,0.0,-0.7838827838827839,0.5225885225885226,0.5494505494505495,0.0,0.0,0.0,0.0,0.0,0.6410256410256411,0.0,0.0,0.0,0.0,0.0,0.706959706959707,0.0,0.0,0.0,0.0,-1.2722832722832722,0.0,0.0,0.0,0.0,0.9072039072039072,-2.5482295482295485,0.0,0.0,0.0,0.0,1.1147741147741148,-2.765567765567765,0.0,0.0,0.0,0.0,0.0,-2.4163614163614158,-0.8461538461538461,0.0,0.0,0.0,0.0,-1.8608058608058609,0.0,0.0,0.0,0.0,0.0,-2.7313797313797314,0.0,0.0,0.0,0.0,0.0,-3.4420024420024418,0.0,0.0,0.0,0.0,-0.9450549450549449,-2.7216117216117217,0.0,0.0,0.0,0.0,0.0,-2.4029304029304033,0.0,0.0,0.0,0.0,1.4969474969474967,-3.5189255189255184,0.0,0.0,-0.5625,0.0,0.0,-3.5384615384615383,-0.6166056166056166,0.0,-0.90625,0.0,-2.4273504273504267,-3.137973137973138,-1.010989010989011,0.0,0.0,0.0,-0.9401709401709402,-3.913308913308913,-0.5555555555555556,0.0,0.96875,0.0,0.9658119658119658,-4.307692307692308,0.0,0.0,0.0,0.0,0.0,-3.304029304029304,0.0,0.0,0.0,0.0,-1.3699633699633702,-3.4517704517704515,0.0,0.0,0.0,0.0,0.0,-4.5445665445665435,0.0,0.0,0.0,0.0,0.94993894993895,-4.438339438339439,0.0,0.0,0.0,0.0,-0.6800976800976801,-3.3675213675213675,0.9267399267399268,0.0,-0.625,0.0,-1.3223443223443223,-3.333333333333333,0.0,0.0,0.0,0.0,-0.6764346764346765,-3.877899877899878,-0.6312576312576312,0.5625,0.59375,0.0,0.0,-4.321123321123321,-0.9206349206349206,0.0,0.0,0.0,0.0,-4.123321123321123,-0.7973137973137974,0.0,0.0,0.0,,,,,,,,,,,,,,,,,,,,,,,,,,,,,,,,,,,,,movPosY
accX,0.0,-0.7338217338217338,-0.9047619047619048,0.0,0.0,0.0,0.9084249084249084,0.0,0.0,0.0,0.0,0.0,0.0,0.0,0.0,0.0,0.0,0.0,0.0,0.0,-0.6935286935286935,0.0,0.0,0.0,-0.5238095238095238,0.0,-0.7741147741147741,-0.59375,0.0,0.0,0.0,0.7020757020757019,0.0,-0.59375,0.0,0.0,0.0,0.6214896214896215,0.0,0.0,0.0,0.0,0.0,0.0,-0.8461538461538461,0.0,0.0,0.0,0.0,0.0,-0.9914529914529916,0.0,0.0,0.0,0.0,0.0,-0.5164835164835165,0.0,0.0,0.0,0.0,1.188034188034188,0.0,-0.53125,0.0,0.0,0.0,1.3418803418803418,0.7191697191697192,0.0,0.0,0.0,0.0,0.0,0.0,0.0,0.0,0.0,0.0,0.0,0.0,0.0,0.0,0.0,0.0,0.0,0.0,0.0,0.0,0.0,0.0,0.0,0.6886446886446886,0.0,0.0,0.0,0.0,0.0,0.0,0.0,0.0,0.0,0.0,-1.5531135531135531,0.0,0.0,0.0,0.0,0.5946275946275946,-2.659340659340659,-1.2844932844932846,0.0,0.0,0.0,1.2087912087912087,-2.2979242979242978,-1.1501831501831499,0.0,0.0,0.0,1.4053724053724053,-2.3675213675213675,-0.8571428571428571,0.0,0.0,0.0,0.0,-2.4310134310134313,-0.7631257631257631,0.0,0.0,0.0,0.7264957264957265,-3.622710622710623,-1.462759462759463,0.0,0.0,0.0,0.0,-3.2124542124542126,-1.3675213675213675,0.0,0.0,0.0,0.0,-2.9328449328449326,-0.7179487179487181,0.0,0.0,0.0,0.7130647130647131,-2.323565323565324,0.0,0.0,0.0,0.0,0.0,-3.0061050061050065,0.0,0.0,0.0,0.0,-1.0402930402930404,-3.2332112332112333,0.0,0.0,0.0,0.0,0.0,-3.720390720390721,0.0,0.0,0.0,0.0,0.0,-3.2710622710622714,0.0,0.0,0.0,0.0,-0.7484737484737485,-3.289377289377289,0.0,0.0,0.0,0.0,-1.1391941391941391,-2.614163614163614,0.0,0.0,0.0,0.0,-0.5201465201465202,-2.915750915750916,0.0,0.0,0.0,0.0,1.1147741147741148,-3.6434676434676434,0.0,0.0,0.0,0.0,-0.6544566544566545,-2.9938949938949935,0.0,0.0,-0.71875,0.0,-1.8608058608058609,-2.8437118437118434,0.9804639804639804,0.0,0.0,0.0,-0.6800976800976801,-2.7863247863247858,1.6691086691086692,0.0,0.0,0.0,0.0,-3.1770451770451764,1.0818070818070815,0.0,0.0,0.0,-0.8766788766788767,-3.9877899877899887,0.0,0.0,0.0,0.0,-1.1465201465201464,-4.317460317460317,0.0,0.0,0.0,0.0,-1.5567765567765568,-4.142857142857143,0.0,0.0,0.0,0.0,,,,,,,,,,,,,,,,,,,,,,,,,,,,,,,,,,,,,,,,,,,movPosY
accX,0.0,-1.8205128205128205,-0.6178266178266179,0.0,0.0,0.0,0.0,-1.7484737484737485,-1.661782661782662,0.0,0.0,-0.625,0.0,-1.2002442002442002,-1.695970695970696,0.0,0.0,-0.6875,0.6178266178266179,0.0,-0.8058608058608059,-0.65625,0.0,-0.53125,0.0,0.5018315018315018,0.6043956043956044,0.0,0.0,0.0,-0.989010989010989,1.10989010989011,0.0,0.0,0.0,0.0,-1.6105006105006106,1.3406593406593406,0.0,0.0,0.0,0.0,-1.42002442002442,1.4590964590964588,0.7557997557997558,0.0,0.0,0.0,-0.5995115995115995,0.5115995115995116,0.0,0.0,0.0,0.0,0.0,0.0,0.0,0.0,-0.5625,0.0,-1.051282051282051,0.0,-0.7753357753357754,-0.65625,0.0,0.0,-0.9804639804639804,0.5995115995115995,0.0,0.0,0.0,0.0,0.5201465201465202,0.0,0.811965811965812,0.0,0.0,0.0,0.9096459096459096,-0.7228327228327228,0.0,0.0,-0.8125,0.0,0.0,-2.1465201465201464,-2.192918192918193,0.0,-0.9375,0.0,0.0,-1.9511599511599511,-2.203907203907204,0.0,0.0,0.0,1.7826617826617828,-1.8901098901098898,-0.8608058608058609,0.0,0.0,0.0,1.4920634920634919,-1.3150183150183148,0.0,0.0,0.0,0.0,0.0,-1.8888888888888888,-0.7936507936507936,0.0,-0.78125,0.0,-0.9389499389499391,-2.5433455433455427,-1.9548229548229548,0.0,0.0,0.0,0.0,-2.1257631257631258,-0.9242979242979243,0.0,0.53125,0.0,1.391941391941392,-1.1452991452991452,0.9010989010989012,0.0,0.0,0.0,-0.9865689865689866,-1.1721611721611722,0.7106227106227107,0.0,-0.84375,0.0,-2.346764346764347,-2.3565323565323566,-0.6141636141636142,0.0,0.0,0.0,0.0,-3.5372405372405376,0.0,0.0,0.71875,0.0,1.4871794871794872,-3.6996336996337003,0.8021978021978022,0.0,0.0,0.0,0.0,-2.8644688644688645,0.6361416361416361,0.0,0.0,0.0,-1.4090354090354091,-3.0830280830280827,0.0,0.0,0.0,0.0,-1.442002442002442,-2.7924297924297923,0.0,0.0,0.0,0.0,0.0,-2.7338217338217334,0.518925518925519,0.0,0.0,0.0,0.0,-2.9914529914529915,0.6642246642246642,0.0,0.0,0.0,-1.465201465201465,-3.816849816849817,0.0,0.0,0.0,0.0,-1.9731379731379728,-3.4029304029304033,-0.6544566544566545,0.0,0.5625,0.0,0.0,-3.2991452991452985,0.0,0.0,0.0,0.0,0.0,-3.449328449328449,0.0,0.0,0.0,0.0,-1.0976800976800978,-4.225885225885226,-0.9548229548229548,0.0,0.0,0.0,-0.8534798534798534,-3.715506715506716,-0.8815628815628815,0.0,0.0,0.0,0.0,-2.829059829059829,0.0,0.0,0.0,0.0,-1.3223443223443223,-2.56043956043956,0.0,0.0,0.0,0.0,-1.4236874236874235,-3.4517704517704515,0.0,0.0,0.0,0.0,0.0,-3.068376068376069,0.0,0.0,0.0,0.0,-0.5262515262515263,-2.145299145299145,0.7960927960927959,0.0,0.0,0.0,-1.3601953601953602,-2.189255189255189,0.0,0.0,0.0,0.0,-1.5396825396825398,-2.9267399267399266,-0.7741147741147741,0.0,0.0,0.0,,,,,,,,,,,,,,,,,,,,,,,,,movPosY
accX,-0.9572649572649572,-0.9328449328449328,-1.6459096459096458,0.0,0.0,0.0,0.0,0.0,-0.5018315018315018,0.0,0.0,0.0,0.0,1.0231990231990231,0.0,0.0,0.0,0.0,0.0,0.0,-0.6385836385836385,0.0,0.0,0.0,-0.7387057387057387,0.0,-2.101343101343101,0.0,0.0,0.0,0.0,0.0,-1.78998778998779,-0.6875,0.0,0.0,0.0,0.7142857142857143,0.0,-0.78125,0.0,0.0,-0.8046398046398047,1.5067155067155067,1.1746031746031746,0.0,0.0,0.0,-0.9987789987789988,1.0561660561660562,0.8131868131868132,0.0,0.0,0.0,-0.8205128205128205,0.0,-0.5677655677655677,0.0,0.0,0.0,0.0,0.0,-0.9633699633699634,-0.6875,0.0,0.0,-0.568986568986569,2.0525030525030523,0.6495726495726496,0.0,0.0,0.0,0.0,0.7203907203907204,0.0,0.0,0.0,0.0,0.8644688644688645,-1.2673992673992671,-1.0097680097680095,0.0,0.0,0.0,0.7118437118437119,-1.7362637362637363,-1.4322344322344325,0.0,0.0,0.0,0.0,-0.9755799755799756,-0.989010989010989,-0.8125,0.0,0.0,0.0,0.0,0.0,0.0,0.0,0.0,0.8717948717948718,-0.7081807081807082,0.7203907203907204,0.0,0.0,0.0,0.0,-1.7203907203907205,0.0,0.0,-0.5625,0.0,-1.021978021978022,-1.4737484737484738,0.0,0.0,0.0,0.0,0.0,-1.8302808302808304,1.2735042735042734,0.0,0.0,0.0,0.0,-1.0671550671550671,2.555555555555556,0.0,0.0,0.0,-1.9792429792429795,-0.8205128205128205,1.6288156288156288,0.0,0.0,0.0,0.0,-3.102564102564102,0.5372405372405372,0.78125,0.0,0.0,1.7985347985347986,-4.7997557997558,-0.6398046398046398,0.0,0.0,0.0,0.0,-3.4481074481074483,0.0,-0.59375,-0.5625,0.0,-2.086691086691087,-1.6275946275946276,0.0,0.0,0.0,0.0,0.0,-3.7753357753357752,0.0,0.6875,0.0,0.0,0.9487179487179488,-5.058608058608058,-1.5604395604395604,0.0,0.0,0.0,-0.8144078144078144,-3.4236874236874235,-1.948717948717949,0.0,0.0,0.0,-1.275946275946276,-2.0195360195360195,-0.5982905982905983,0.0,0.0,0.0,0.0,-2.7240537240537246,0.0,0.0,0.0,0.0,-0.5702075702075702,-3.2576312576312576,-0.6459096459096461,0.0,0.0,0.53125,0.0,-3.7326007326007327,-0.8754578754578755,0.0,0.0,0.0,0.5396825396825397,-2.68986568986569,0.6153846153846154,0.0,0.0,0.0,0.0,-2.3675213675213675,0.9304029304029304,0.0,0.0,0.0,-1.4761904761904765,-2.2344322344322345,0.0,0.0,0.0,0.0,-1.1916971916971917,-3.5360195360195363,-1.4493284493284493,0.0,0.0,0.0,-1.0744810744810744,-3.3064713064713063,-0.8803418803418803,0.0,0.0,0.0,-0.5335775335775336,-2.9010989010989015,0.0,0.0,0.0,0.0,,,,,,,,,,,,,,,,,,,,,,,,,,,,,,,,,,,,,,,,,,,,,,,,,movPosY
accX,0.0,0.0,0.0,0.0,0.0,0.0,0.0,0.0,0.0,0.0,0.0,0.0,-0.6813186813186813,0.0,-0.8461538461538461,0.0,0.0,0.0,-1.1477411477411477,0.0,-0.7350427350427351,0.0,0.5625,0.0,0.0,0.0,0.0,0.0,0.0,0.0,0.8107448107448108,0.0,0.6410256410256411,0.0,0.0,0.0,0.0,0.0,0.0,0.0,0.0,0.0,0.0,0.0,-1.3797313797313795,0.0,0.0,0.0,0.0,1.0268620268620268,-0.912087912087912,0.0,0.0,0.0,0.0,1.2698412698412698,0.0,0.0,0.0,0.0,0.0,0.0,0.0,0.0,0.0,0.0,0.0,0.0,-0.5518925518925519,0.0,0.0,0.0,0.0,0.5958485958485958,0.0,0.0,0.0,0.0,0.0,0.7301587301587301,0.0,0.0,0.0,0.0,0.0,0.0,0.0,0.0,0.0,0.0,-0.5091575091575091,0.0,0.0,0.0,0.0,0.0,0.0,0.0,0.0,0.0,0.0,0.0,0.0,0.0,0.0,0.0,0.0,0.0,0.0,0.0,0.5995115995115995,0.0,0.0,0.0,0.0,0.0,0.0,0.0,0.0,0.0,0.0,-2.31013431013431,-1.083028083028083,0.0,0.0,0.0,0.0,-2.4664224664224665,-1.0598290598290598,0.0,0.0,0.0,0.0,-2.5824175824175826,-0.7167277167277167,0.0,0.0,0.0,0.7545787545787546,-2.4822954822954824,0.0,0.0,0.0,0.0,1.3113553113553114,-3.68986568986569,-0.6324786324786325,0.0,0.0,0.0,0.0,-3.3968253968253967,-0.9853479853479854,0.0,-0.625,0.0,-0.8791208791208791,-2.7216117216117217,0.0,0.0,0.0,0.0,-0.5750915750915749,-2.238095238095238,0.984126984126984,0.0,0.0,0.0,0.0,-2.8241758241758244,1.1807081807081807,0.0,0.0,0.0,-0.9963369963369964,-3.33943833943834,0.0,0.0,0.0,0.0,-1.5677655677655675,-3.2844932844932844,-0.8388278388278388,0.0,0.0,0.0,0.0,-3.873015873015873,0.0,0.0,0.5625,0.0,0.0,-3.175824175824176,1.1892551892551892,0.0,0.0,0.0,-1.0903540903540905,-3.1233211233211238,0.0,0.0,0.0,0.0,0.0,-3.8424908424908426,0.0,0.0,0.5625,0.0,1.4603174603174602,-4.4041514041514045,0.0,0.0,0.0,0.0,0.0,-3.05006105006105,0.5384615384615384,0.0,-0.59375,0.0,-2.236874236874237,-2.31990231990232,0.5470085470085471,0.0,0.0,0.0,-0.9145299145299144,-3.330891330891331,0.0,0.0,0.0,0.0,0.0,-3.595848595848596,0.0,0.0,0.59375,0.0,0.0,-2.8766788766788767,0.0,0.0,0.0,0.0,-1.5091575091575091,-2.3345543345543347,0.5421245421245421,0.0,0.0,0.0,-1.7789987789987791,-2.4993894993894994,0.0,0.0,0.0,0.0,-1.3223443223443223,-2.8302808302808304,0.0,0.0,0.0,0.0,-0.9987789987789988,-2.6666666666666665,0.0,0.0,0.0,0.0,,,,,,,,,,,,,,,,,,,movPosY
accX,0.0,0.0,-0.5311355311355311,0.0,0.0,0.0,0.0,0.0,0.0,0.0,0.0,0.0,0.7655677655677655,0.0,0.0,0.0,0.0,0.0,0.0,0.0,-0.9731379731379732,0.0,0.0,0.0,-0.8571428571428571,0.0,-1.978021978021978,0.0,0.0,0.0,-0.6239316239316239,0.5775335775335775,-0.9377289377289376,-0.59375,0.0,0.0,0.0,0.818070818070818,0.0,0.0,0.0,0.0,0.0,0.6288156288156288,0.0,0.0,0.0,0.0,0.0,0.5225885225885226,-0.6532356532356532,0.0,0.0,0.0,-0.6398046398046398,0.7582417582417582,-0.8070818070818071,0.0,0.0,0.0,-0.6117216117216118,1.42002442002442,0.0,0.0,0.0,0.0,0.0,1.7814407814407816,1.3894993894993894,0.0,0.0,0.0,0.0,0.7924297924297924,0.7655677655677655,0.0,0.0,0.0,0.0,0.0,0.0,0.0,0.0,0.0,0.9621489621489622,-0.7606837606837606,0.0,-0.65625,0.0,0.0,0.8754578754578755,0.0,1.0903540903540905,0.0,0.0,0.0,0.0,-0.6862026862026862,0.0,0.0,0.0,0.0,0.0,-0.9450549450549449,-0.7802197802197802,0.0,0.0,0.0,1.3125763125763126,-2.8046398046398044,-1.0097680097680095,0.0,0.0,0.0,1.6947496947496947,-3.236874236874237,-0.6910866910866911,0.0,-1.0625,0.0,0.0,-1.934065934065934,0.0,0.0,0.0,0.0,0.8229548229548229,-2.2576312576312576,-0.5409035409035409,0.65625,0.0,0.0,4.158730158730159,-4.523809523809524,-1.2954822954822955,0.0,-1.34375,0.0,-2.6385836385836385,-3.8376068376068377,0.0,-0.6875,-0.5625,0.0,-1.6398046398046398,-1.6813186813186811,1.47985347985348,0.0,0.0,0.0,-1.6703296703296704,-2.148962148962149,1.1514041514041513,0.0,0.59375,0.0,-0.9267399267399268,-2.9804639804639805,0.0,0.0,0.0,0.0,0.0,-3.706959706959707,0.0,0.0,0.0,0.0,-1.8351648351648349,-2.103785103785104,0.0,0.0,0.0,0.0,-2.5531135531135534,-2.1904761904761907,0.568986568986569,0.0,0.0,0.0,1.1978021978021978,-5.079365079365079,0.0,0.625,0.6875,0.0,2.064713064713065,-5.424908424908424,0.0,0.0,0.0,0.0,-1.7032967032967032,-3.4517704517704515,0.0,-0.625,-0.8125,0.0,-0.8998778998778999,-4.2002442002442,0.0,0.0,0.65625,0.0,1.9047619047619049,-5.385836385836386,0.0,0.0,1.1875,0.0,1.0842490842490842,-4.553113553113553,0.0,0.0,0.0,0.0,-2.0146520146520146,-3.496947496947497,-0.5384615384615384,0.0,0.0,0.0,-2.5457875457875456,-2.5982905982905984,0.0,0.0,0.0,0.0,0.0,-2.7545787545787546,1.5445665445665446,0.0,0.78125,0.0,0.0,-2.505494505494505,1.4578754578754578,0.0,0.0,0.0,,,,,,,,,,,,,,,,,,,,,,,,,,,,,,,,,,,,,,,,,,,,,,,,,movPosY
accX,0.0,-0.9511599511599512,0.0,1.125,0.0,0.0,-0.8083028083028083,-1.5103785103785103,-1.7741147741147743,0.0,0.0,0.0,0.0,0.0,0.0,0.0,0.0,0.0,0.0,0.73992673992674,0.8778998778998779,0.0,0.0,0.0,0.0,0.5384615384615384,1.137973137973138,0.0,0.0,0.0,0.0,-0.6788766788766789,-0.8070818070818071,0.0,0.0,0.0,-0.9426129426129426,0.0,-1.887667887667888,-0.53125,0.0,0.0,0.0,0.7472527472527473,0.0,-0.53125,0.0,0.0,0.0,0.9926739926739928,0.0,0.0,0.0,0.0,0.0,0.5604395604395604,-0.7582417582417582,0.0,0.0,0.0,0.0,0.5323565323565324,-1.072039072039072,0.0,0.0,0.0,0.0,0.7094017094017094,-0.8974358974358975,0.0,0.0,0.0,0.0,1.4932844932844933,0.0,0.0,0.0,0.0,0.0,1.1892551892551892,0.0,0.0,0.0,0.0,0.7179487179487181,0.0,0.0,0.0,0.0,0.0,0.7863247863247863,0.0,-0.6495726495726496,0.0,0.0,0.0,0.0,0.0,0.0,-0.59375,0.0,0.0,0.0,1.0757020757020757,0.5433455433455433,0.0,0.0,0.0,0.5494505494505495,0.0,0.8937728937728938,0.0,0.0,0.0,1.1391941391941391,-1.3992673992673992,0.0,0.0,-0.6875,0.0,-1.133089133089133,-1.332112332112332,-0.8156288156288156,-0.53125,0.0,0.0,-1.4590964590964588,0.0,0.0,0.0,0.0,0.0,0.0,-0.5873015873015873,0.9682539682539684,0.59375,0.0,0.0,0.9621489621489622,-2.2649572649572653,0.0,0.0,0.0,0.0,0.0,-3.418803418803418,-0.6544566544566545,0.0,-0.84375,0.53125,-1.4993894993894994,-2.7240537240537246,0.0,0.0,0.0,0.0,0.0,-3.3809523809523814,0.0,0.0,0.0,0.0,0.6166056166056166,-3.3858363858363862,0.7948717948717948,0.0,0.0,0.0,-0.8913308913308914,-2.717948717948718,0.0,0.0,0.0,0.0,0.0,-4.015873015873016,-0.8803418803418803,0.0,0.0,0.0,-1.7118437118437118,-2.761904761904762,0.0,0.0,0.0,0.0,0.0,-3.305250305250305,0.0,0.0,0.0,0.0,0.0,-4.864468864468863,-0.518925518925519,0.0,0.0,0.0,0.0,-4.926739926739927,-1.0647130647130647,0.0,0.0,0.0,-0.818070818070818,-3.4639804639804637,0.0,0.0,0.0,0.0,0.0,-3.2503052503052503,0.7167277167277167,0.0,0.0,0.0,0.0,-4.251526251526252,0.0,0.0,0.0,0.0,-0.7631257631257631,-4.3931623931623935,0.0,0.0,0.0,0.0,-1.6214896214896215,-3.4029304029304033,0.0,0.0,0.0,0.0,-0.8253968253968254,-2.8522588522588523,0.9059829059829059,0.0,0.0,0.0,0.0,-3.236874236874237,0.9865689865689866,0.0,0.0,0.0,-0.6752136752136753,-3.7045177045177047,0.0,0.0,0.0,0.0,,,,,,,,,,,,,,,,,,,,,,,,,,,,,,,,,,,,,movPosY
accX,-0.5946275946275946,0.0,0.6923076923076923,0.0,0.0,0.0,0.0,0.0,0.0,0.0,0.0,0.0,0.0,0.0,0.0,0.0,0.0,0.0,-1.1001221001221002,0.0,0.0,0.0,0.0,0.0,0.0,0.0,0.0,0.0,0.0,0.0,0.0,0.0,0.0,0.0,0.0,0.0,0.0,0.0,-0.7142857142857143,0.0,0.0,0.0,0.0,0.0,-1.051282051282051,0.0,0.0,0.0,0.7203907203907204,0.0,-0.9072039072039072,0.0,0.0,0.0,0.0,0.6862026862026862,0.0,0.0,0.0,0.0,0.0,0.9023199023199024,0.0,0.0,0.0,0.0,-0.7777777777777778,0.9902319902319904,0.0,0.0,0.0,0.0,0.0,0.0,0.0,0.0,0.0,0.0,0.9023199023199024,0.0,0.0,0.0,0.0,0.0,0.0,0.6532356532356532,0.0,0.0,0.0,0.0,-0.8156288156288156,0.8424908424908425,0.0,0.0,0.0,0.0,0.0,0.0,-0.6666666666666666,0.0,0.0,0.0,1.0866910866910866,-0.8937728937728938,-0.873015873015873,0.0,0.0,0.0,0.0,0.0,-0.8803418803418803,-0.59375,0.0,0.0,0.0,0.0,-0.7765567765567766,0.0,0.0,0.0,0.0,0.0,0.0,0.0,0.0,0.0,0.8876678876678876,-1.1807081807081807,0.0,0.0,0.0,0.0,1.0256410256410255,-1.6166056166056166,0.0,-0.59375,-0.78125,0.0,-0.9010989010989012,-0.7496947496947497,0.0,-0.53125,-0.53125,0.0,-0.7655677655677655,0.0,1.3504273504273503,0.0,0.0,0.0,0.0,-0.8034188034188035,1.6727716727716728,0.6875,0.0,0.0,1.3186813186813189,-2.532356532356532,0.0,0.0,0.0,0.0,0.0,-2.956043956043956,0.0,0.0,-0.78125,0.0,-1.3443223443223444,-2.288156288156288,0.0,0.0,0.0,0.0,-0.9987789987789988,-2.6312576312576312,0.5995115995115995,0.0,0.59375,0.0,-0.5567765567765568,-3.36996336996337,0.0,0.0,0.53125,0.0,1.242979242979243,-3.94993894993895,0.0,0.0,0.0,0.53125,0.0,-3.965811965811966,-1.6654456654456655,0.0,0.0,0.0,0.5091575091575091,-4.010989010989012,0.0,0.0,0.75,0.0,0.0,-3.877899877899878,-0.7106227106227107,0.0,0.0,0.0,0.0,-3.3284493284493286,-1.028083028083028,0.0,0.0,0.0,-0.8888888888888888,-3.0183150183150182,0.7838827838827839,0.0,0.0,0.0,-0.9694749694749696,-3.1526251526251525,2.2576312576312576,0.0,0.0,0.0,-0.9755799755799756,-3.263736263736264,1.2820512820512822,0.84375,0.5625,0.0,0.6532356532356532,-4.326007326007327,0.5201465201465202,0.6875,0.625,0.0,0.8058608058608059,-3.5189255189255184,0.6349206349206349,0.0,0.0,0.0,-0.5409035409035409,-2.778998778998779,0.0,0.0,0.0,0.0,-1.8937728937728937,-2.3907203907203907,-0.5201465201465202,0.0,0.0,0.0,-1.2405372405372406,-2.9462759462759465,-0.912087912087912,0.5625,0.0,0.0,0.0,-3.4945054945054945,-0.6239316239316239,0.0,0.0,0.0,0.0,-3.240537240537241,0.0,0.0,0.0,0.0,,,,,,,,,,,,,movPosY
accX,-1.290598290598291,-0.5054945054945055,0.0,0.65625,0.0,0.0,0.0,-1.617826617826618,-0.9157509157509156,0.0,0.53125,0.0,0.0,-0.894993894993895,0.0,0.0,0.0,0.0,-0.5873015873015873,0.0,0.0,-0.84375,0.0,0.0,-0.5079365079365079,0.7423687423687424,0.9072039072039072,0.0,0.0,0.0,0.0,0.0,0.0,0.0,0.0,0.0,0.0,0.0,-1.0354090354090355,0.0,0.0,0.0,0.0,0.0,-1.4493284493284493,0.0,0.0,0.0,0.5225885225885226,0.0,-0.9548229548229548,-0.59375,0.0,0.0,0.0,0.6227106227106227,-0.8705738705738706,0.0,0.0,0.0,0.0,0.5506715506715507,-1.5262515262515262,0.0,0.0,0.0,-0.6068376068376068,1.1355311355311355,-1.1843711843711844,0.0,0.0,0.0,0.0,1.2210012210012209,-0.5641025641025641,0.0,0.0,0.0,0.7496947496947497,0.6141636141636142,0.0,-0.75,0.0,0.0,0.0,0.0,0.0,-0.625,-0.625,0.0,0.0,0.0,-0.8522588522588522,0.0,0.0,0.0,0.0,0.0,-0.6984126984126984,0.0,0.0,0.0,0.0,0.0,0.0,0.0,0.0,0.0,0.7606837606837606,0.0,1.0329670329670328,0.0,0.0,0.0,0.0,0.0,0.984126984126984,0.0,-0.59375,0.0,-0.6227106227106227,-0.5995115995115995,0.0,0.0,0.0,0.0,-0.5531135531135531,0.0,0.0,0.0,0.0,0.0,0.0,0.0,0.9413919413919414,0.0,0.0,0.0,0.0,0.0,1.7216117216117215,0.0,0.0,0.0,-1.21978021978022,-0.6898656898656899,0.0,0.0,0.0,0.0,0.0,-2.868131868131868,-0.6849816849816851,0.0,0.0,0.0,0.0,-1.945054945054945,0.0,0.0,0.0,0.0,0.0,0.0,1.0244200244200243,0.0,0.0,0.0,0.0,-1.1672771672771671,0.5714285714285714,0.0,0.0,0.0,0.0,-2.625152625152625,0.0,0.0,-0.53125,0.0,0.0,-3.761904761904762,-0.5836385836385837,0.0,-0.9375,0.0,-2.2210012210012207,-2.6715506715506714,-0.757020757020757,0.0,0.0,0.0,-1.7863247863247864,-2.1746031746031744,0.0,0.53125,0.6875,0.0,0.0,-3.94993894993895,-0.5421245421245421,0.5625,0.5625,0.5625,2.148962148962149,-5.6007326007325995,-1.1868131868131868,0.0,-0.875,0.53125,-1.3479853479853479,-3.0805860805860807,-0.5970695970695971,0.0,0.0,0.0,1.5445665445665446,-4.401709401709402,0.0,0.0,1.09375,0.0,2.0805860805860807,-4.819291819291818,0.0,0.0,0.0,0.0,0.0,-3.9059829059829063,0.0,0.0,-0.75,0.0,-1.953601953601953,-2.477411477411477,0.0,0.0,0.0,0.0,0.0,-2.614163614163614,0.9291819291819292,0.0,0.0,0.0,0.9145299145299144,-3.5995115995116,0.63003663003663,0.5625,0.0,0.0,-1.652014652014652,-3.326007326007326,-0.6446886446886447,0.0,-0.8125,0.0,-1.9792429792429795,-2.5873015873015874,-0.9389499389499391,0.0,0.0,0.0,0.0,-2.8852258852258847,0.0,0.0,0.0,0.0,0.0,-3.235653235653236,-0.6764346764346765,0.0,0.0,0.0,-1.3455433455433456,-3.1623931623931623,-1.1721611721611722,0.0,0.0,0.0,-0.8083028083028083,-3.3553113553113554,-0.9536019536019535,0.0,0.0,0.0,movPosY
accX,0.0,0.0,0.0,0.0,0.0,0.0,0.0,0.5079365079365079,0.7387057387057387,0.0,0.0,0.0,-0.5067155067155067,0.0,0.0,0.0,0.0,0.0,-1.1196581196581197,0.0,-0.9572649572649572,0.0,0.0,0.0,-0.5592185592185592,0.0,-1.6544566544566544,0.0,0.0,0.0,0.0,0.0,-1.4371184371184371,0.0,0.0,0.0,0.0,0.8681318681318682,0.0,-0.53125,0.0,0.0,-0.6019536019536019,1.1904761904761905,0.0,0.0,0.0,0.0,0.0,1.0048840048840049,-0.6593406593406593,0.0,0.0,0.0,-0.7643467643467643,0.9157509157509156,-0.7814407814407814,0.0,0.0,0.0,-0.5628815628815629,1.1001221001221002,0.0,0.0,0.0,0.0,0.0,1.105006105006105,0.0,0.0,0.0,0.0,0.0,1.1978021978021978,0.0,0.0,0.0,0.0,0.0,0.9523809523809524,0.0,0.0,0.0,0.0,-0.5934065934065934,0.6520146520146519,0.0,0.0,0.0,0.0,0.0,0.0,0.8290598290598291,0.0,0.0,0.0,0.0,-0.5079365079365079,0.7301587301587301,0.0,0.0,0.0,0.0,-1.8021978021978025,0.0,0.0,0.0,0.0,0.0,-2.3821733821733817,-1.092796092796093,0.0,0.0,0.0,0.0,-1.7716727716727716,0.0,0.0,0.0,0.0,0.0,-2.0415140415140414,0.0,0.0,0.0,0.0,1.6434676434676434,-3.412698412698413,-0.7277167277167277,0.0,0.0,0.0,0.9914529914529916,-3.431013431013431,-1.0427350427350428,-0.6875,0.0,0.0,0.0,-1.3150183150183148,0.0,-0.5625,0.0,0.0,-1.2356532356532357,-0.5433455433455433,1.387057387057387,0.0,0.0,0.0,-0.9230769230769232,-1.7594627594627594,1.0451770451770452,0.0,0.0,0.0,0.0,-2.9926739926739927,0.0,0.0,0.0,0.0,0.0,-3.0109890109890114,0.0,0.0,0.0,0.0,-1.0244200244200243,-1.68009768009768,0.0,0.0,0.0,0.0,-0.6202686202686203,-2.173382173382173,0.5958485958485958,0.0,0.75,0.0,0.5054945054945055,-3.7606837606837606,0.0,0.0,0.0,0.0,0.0,-3.952380952380953,-0.6495726495726496,0.0,0.0,0.0,-0.7472527472527473,-3.743589743589744,-0.8217338217338217,0.0,0.0,0.0,0.0,-3.3504273504273505,0.0,0.0,0.59375,0.0,0.0,-3.503052503052503,0.0,0.0,0.0,0.0,0.0,-3.2844932844932844,0.0,0.0,0.0,0.0,-0.8681318681318682,-3.0366300366300365,0.0,0.0,0.0,0.0,0.5225885225885226,-3.382173382173382,0.0,0.0,0.0,0.0,-1.1916971916971917,-2.705738705738706,0.0,0.0,0.0,0.0,-2.1672771672771667,-2.3943833943833943,0.0,0.0,0.0,0.0,-0.5482295482295483,-2.8717948717948723,0.0,0.0,0.0,0.0,0.7423687423687424,-3.336996336996337,-0.6666666666666666,0.0,0.0,0.0,-0.6593406593406593,-2.6630036630036633,-1.1172161172161172,0.0,0.0,0.0,-1.978021978021978,-2.5225885225885225,-0.9694749694749696,0.0,0.0,0.0,-1.3015873015873016,-2.4945054945054945,0.0,0.0,0.0,0.0,-0.6996336996336996,-2.045177045177045,0.0,0.0,0.0,0.0,-0.7606837606837606,-2.0329670329670333,0.0,0.0,0.0,0.0,,,,,,,movPosY
