,00_accX,00_accY,00_accZ,00_gyroX,00_gyroY,00_gyroZ,01_accX,01_accY,01_accZ,01_gyroX,01_gyroY,01_gyroZ,02_accX,02_accY,02_accZ,02_gyroX,02_gyroY,02_gyroZ,03_accX,03_accY,03_accZ,03_gyroX,03_gyroY,03_gyroZ,04_accX,04_accY,04_accZ,04_gyroX,04_gyroY,04_gyroZ,05_accX,05_accY,05_accZ,05_gyroX,05_gyroY,05_gyroZ,06_accX,06_accY,06_accZ,06_gyroX,06_gyroY,06_gyroZ,07_accX,07_accY,07_accZ,07_gyroX,07_gyroY,07_gyroZ,08_accX,08_accY,08_accZ,08_gyroX,08_gyroY,08_gyroZ,09_accX,09_accY,09_accZ,09_gyroX,09_gyroY,09_gyroZ,10_accX,10_accY,10_accZ,10_gyroX,10_gyroY,10_gyroZ,11_accX,11_accY,11_accZ,11_gyroX,11_gyroY,11_gyroZ,12_accX,12_accY,12_accZ,12_gyroX,12_gyroY,12_gyroZ,13_accX,13_accY,13_accZ,13_gyroX,13_gyroY,13_gyroZ,14_accX,14_accY,14_accZ,14_gyroX,14_gyroY,14_gyroZ,15_accX,15_accY,15_accZ,15_gyroX,15_gyroY,15_gyroZ,16_accX,16_accY,16_accZ,16_gyroX,16_gyroY,16_gyroZ,17_accX,17_accY,17_accZ,17_gyroX,17_gyroY,17_gyroZ,18_accX,18_accY,18_accZ,18_gyroX,18_gyroY,18_gyroZ,19_accX,19_accY,19_accZ,19_gyroX,19_gyroY,19_gyroZ,20_accX,20_accY,20_accZ,20_gyroX,20_gyroY,20_gyroZ,21_accX,21_accY,21_accZ,21_gyroX,21_gyroY,21_gyroZ,22_accX,22_accY,22_accZ,22_gyroX,22_gyroY,22_gyroZ,23_accX,23_accY,23_accZ,23_gyroX,23_gyroY,23_gyroZ,24_accX,24_accY,24_accZ,24_gyroX,24_gyroY,24_gyroZ,25_accX,25_accY,25_accZ,25_gyroX,25_gyroY,25_gyroZ,26_accX,26_accY,26_accZ,26_gyroX,26_gyroY,26_gyroZ,27_accX,27_accY,27_accZ,27_gyroX,27_gyroY,27_gyroZ,28_accX,28_accY,28_accZ,28_gyroX,28_gyroY,28_gyroZ,29_accX,29_accY,29_accZ,29_gyroX,29_gyroY,29_gyroZ,30_accX,30_accY,30_accZ,30_gyroX,30_gyroY,30_gyroZ,31_accX,31_accY,31_accZ,31_gyroX,31_gyroY,31_gyroZ,32_accX,32_accY,32_accZ,32_gyroX,32_gyroY,32_gyroZ,33_accX,33_accY,33_accZ,33_gyroX,33_gyroY,33_gyroZ,34_accX,34_accY,34_accZ,34_gyroX,34_gyroY,34_gyroZ,35_accX,35_accY,35_accZ,35_gyroX,35_gyroY,35_gyroZ,36_accX,36_accY,36_accZ,36_gyroX,36_gyroY,36_gyroZ,37_accX,37_accY,37_accZ,37_gyroX,37_gyroY,37_gyroZ,38_accX,38_accY,38_accZ,38_gyroX,38_gyroY,38_gyroZ,39_accX,39_accY,39_accZ,39_gyroX,39_gyroY,39_gyroZ,40_accX,40_accY,40_accZ,40_gyroX,40_gyroY,40_gyroZ,41_accX,41_accY,41_accZ,41_gyroX,41_gyroY,41_gyroZ,42_accX,42_accY,42_accZ,42_gyroX,42_gyroY,42_gyroZ,43_accX,43_accY,43_accZ,43_gyroX,43_gyroY,43_gyroZ,44_accX,44_accY,44_accZ,44_gyroX,44_gyroY,44_gyroZ,45_accX,45_accY,45_accZ,45_gyroX,45_gyroY,45_gyroZ,46_accX,46_accY,46_accZ,46_gyroX,46_gyroY,46_gyroZ,47_accX,47_accY,47_accZ,47_gyroX,47_gyroY,47_gyroZ,48_accX,48_accY,48_accZ,48_gyroX,48_gyroY,48_gyroZ,49_accX,49_accY,49_accZ,49_gyroX,49_gyroY,49_gyroZ,50_accX,50_accY,50_accZ,50_gyroX,50_gyroY,50_gyroZ,51_accX,51_accY,51_accZ,51_gyroX,51_gyroY,51_gyroZ,52_accX,52_accY,52_accZ,52_gyroX,52_gyroY,52_gyroZ,53_accX,53_accY,53_accZ,53_gyroX,53_gyroY,53_gyroZ,54_accX,54_accY,54_accZ,54_gyroX,54_gyroY,54_gyroZ,55_accX,55_accY,55_accZ,55_gyroX,55_gyroY,55_gyroZ,56_accX,56_accY,56_accZ,56_gyroX,56_gyroY,56_gyroZ,57_accX,57_accY,57_accZ,57_gyroX,57_gyroY,57_gyroZ,58_accX,58_accY,58_accZ,58_gyroX,58_gyroY,58_gyroZ,59_accX,59_accY,59_accZ,59_gyroX,59_gyroY,59_gyroZ,60_accX,60_accY,60_accZ,60_gyroX,60_gyroY,60_gyroZ,61_accX,61_accY,61_accZ,61_gyroX,61_gyroY,61_gyroZ,62_accX,62_accY,62_accZ,62_gyroX,62_gyroY,62_gyroZ,63_accX,63_accY,63_accZ,63_gyroX,63_gyroY,63_gyroZ,64_accX,64_accY,64_accZ,64_gyroX,64_gyroY,64_gyroZ,65_accX,65_accY,65_accZ,65_gyroX,65_gyroY,65_gyroZ,66_accX,66_accY,66_accZ,66_gyroX,66_gyroY,66_gyroZ,67_accX,67_accY,67_accZ,67_gyroX,67_gyroY,67_gyroZ,68_accX,68_accY,68_accZ,68_gyroX,68_gyroY,68_gyroZ,69_accX,69_accY,69_accZ,69_gyroX,69_gyroY,69_gyroZ,70_accX,70_accY,70_accZ,70_gyroX,70_gyroY,70_gyroZ,71_accX,71_accY,71_accZ,71_gyroX,71_gyroY,71_gyroZ,72_accX,72_accY,72_accZ,72_gyroX,72_gyroY,72_gyroZ,73_accX,73_accY,73_accZ,73_gyroX,73_gyroY,73_gyroZ,74_accX,74_accY,74_accZ,74_gyroX,74_gyroY,74_gyroZ,75_accX,75_accY,75_accZ,75_gyroX,75_gyroY,75_gyroZ,76_accX,76_accY,76_accZ,76_gyroX,76_gyroY,76_gyroZ,77_accX,77_accY,77_accZ,77_gyroX,77_gyroY,77_gyroZ,78_accX,78_accY,78_accZ,78_gyroX,78_gyroY,78_gyroZ,79_accX,79_accY,79_accZ,79_gyroX,79_gyroY,79_gyroZ,category
accX,0.0,0.0,0.0,0.0,0.0,0.0,0.0,0.0,0.0,0.0,0.0,0.0,0.0,0.0,0.0,0.0,0.0,0.0,0.0,0.0,0.0,0.0,0.0,0.0,0.0,0.0,0.0,0.0,0.0,0.0,0.0,0.0,0.0,0.0,0.0,0.0,0.0,0.0,0.0,0.0,0.0,0.0,0.0,0.0,0.0,0.0,0.0,0.0,,,,,,,,,,,,,,,,,,,,,,,,,,,,,,,,,,,,,,,,,,,,,,,,,,,,,,,,,,,,,,,,,,,,,,,,,,,,,,,,,,,,,,,,,,,,,,,,,,,,,,,,,,,,,,,,,,,,,,,,,,,,,,,,,,,,,,,,,,,,,,,,,,,,,,,,,,,,,,,,,,,,,,,,,,,,,,,,,,,,,,,,,,,,,,,,,,,,,,,,,,,,,,,,,,,,,,,,,,,,,,,,,,,,,,,,,,,,,,,,,,,,,,,,,,,,,,,,,,,,,,,,,,,,,,,,,,,,,,,,,,,,,,,,,,,,,,,,,,,,,,,,,,,,,,,,,,,,,,,,,,,,,,,,,,,,,,,,,,,,,,,,,,,,,,,,,,,,,,,,,,,,,,,,,,,,,,,,,,,,,,,,,,,,,,,,,,,,,,,,,,,,,,,,,,,,,,,,,,,,,,,,,,,,,,,,,pullUp
accX,-0.882,-2.819,-2.2,0.0,0.0,0.0,-0.529,-2.3169999999999997,-1.305,-0.602,0.0,0.0,-0.728,-1.861,0.0,0.0,0.0,0.0,0.0,-2.215,0.0,0.0,0.0,0.0,0.0,-2.472,0.0,0.0,0.0,0.0,0.0,-2.657,0.0,0.0,0.0,0.0,0.0,-1.848,0.0,0.0,0.0,0.0,0.0,-1.9909999999999999,0.0,0.0,0.0,0.0,0.0,-2.174,0.0,0.0,0.0,0.0,0.0,-2.122,-0.741,0.0,0.0,0.0,-1.03,-2.219,-1.9469999999999998,0.0,0.0,0.0,-2.33,-2.752,-3.523,0.0,-0.6679999999999999,0.0,-3.59,-3.31,-4.761,-0.7120000000000001,-0.507,0.0,-4.261,-3.8289999999999997,-5.401,-1.13,0.0,0.7070000000000001,-4.36,-4.405,-5.292999999999999,-1.6019999999999999,-0.56,1.043,-3.983,-4.934,-5.042,-2.065,-1.2790000000000001,1.4169999999999998,-3.574,-5.672999999999999,-4.466,-2.685,-2.87,1.8530000000000002,-4.673,-6.18,-3.2710000000000004,-3.298,-4.686,2.373,-6.636,-6.909,-1.47,-3.647,-5.601,3.208,-6.357,-8.109,0.0,-3.516,-5.638,3.806,-4.111000000000001,-10.902000000000001,1.439,-3.403,-5.91,3.863,-1.028,-7.306,3.299,-3.1689999999999996,-6.486000000000001,3.762,0.727,-2.727,3.935,-2.555,-6.608,3.4560000000000004,0.588,-0.75,3.635,-1.72,-6.147,3.145,-0.767,0.0,2.386,-0.872,-4.9430000000000005,3.072,1.204,-1.0,1.3980000000000001,-0.516,-4.343,3.234,4.376,-1.551,0.586,0.0,-4.548,3.4330000000000003,3.944,-0.853,0.0,0.0,-4.39,3.0869999999999997,2.7060000000000004,0.0,0.0,0.7340000000000001,-3.842,2.7319999999999998,0.8420000000000001,0.0,0.0,0.9259999999999999,-3.03,2.445,0.0,-0.8109999999999999,-0.5529999999999999,0.721,-2.464,2.439,1.2590000000000001,-0.672,-1.093,0.693,-1.9909999999999999,2.648,3.656,-1.5019999999999998,-2.241,1.162,-1.831,2.8139999999999996,3.96,-1.78,-2.695,1.3159999999999998,-1.624,2.32,1.6540000000000001,-1.7109999999999999,-1.82,0.9079999999999999,-1.328,1.906,0.743,-0.617,-1.128,0.5770000000000001,-1.001,1.7919999999999998,1.055,0.0,-1.183,0.6809999999999999,-0.807,1.8980000000000001,1.24,-0.506,-1.271,0.9229999999999999,-0.856,1.9380000000000002,1.749,-1.4580000000000002,-1.57,1.0,-0.9490000000000001,1.8130000000000002,1.51,-1.765,-1.9980000000000002,0.6859999999999999,-1.051,1.493,1.409,-1.272,-1.844,0.0,-1.028,1.34,1.416,-0.7120000000000001,-1.79,0.0,-0.997,1.3869999999999998,1.4169999999999998,-1.212,-1.7930000000000001,0.0,-0.878,1.3630000000000002,2.055,-1.415,-1.865,0.552,-0.731,1.246,2.439,-1.599,-2.256,0.59,-0.706,1.136,2.447,-1.58,-2.5780000000000003,0.5489999999999999,-0.607,0.899,2.147,-1.355,-2.8819999999999997,0.0,0.0,0.73,1.9869999999999999,-1.005,-2.84,0.0,0.0,0.629,1.896,-0.972,-2.5380000000000003,0.0,0.0,0.506,1.955,-0.8740000000000001,-1.801,0.0,0.0,0.0,1.983,0.0,-1.198,0.0,0.0,0.0,1.615,-0.5870000000000001,-0.884,0.0,0.0,0.0,0.929,0.0,-0.7170000000000001,0.0,0.0,0.0,0.0,0.0,-0.54,0.0,0.0,0.0,-0.5539999999999999,0.0,0.0,-0.552,0.0,0.0,-0.723,0.0,0.657,-0.588,0.7240000000000001,0.0,0.0,0.0,1.208,0.0,0.863,0.0,0.0,0.0,1.287,0.0,0.752,0.0,0.0,0.0,1.359,0.0,0.0,0.0,0.0,0.0,1.2109999999999999,0.0,0.0,0.0,0.0,0.0,1.1740000000000002,0.0,0.0,0.0,0.0,0.0,0.884,0.0,0.0,0.0,0.0,0.0,0.638,0.0,0.0,0.0,0.0,-0.584,0.0,0.0,0.0,0.0,0.0,0.0,0.0,0.0,0.0,0.0,0.0,0.0,0.0,0.0,0.0,0.0,0.0,0.0,0.0,0.0,0.0,0.0,0.0,0.0,0.0,0.0,0.0,0.0,0.0,0.0,0.0,0.0,0.0,0.0,0.0,0.0,0.0,0.0,0.0,0.0,0.0,0.0,0.0,0.0,0.0,0.0,0.0,0.0,0.0,0.0,0.0,0.0,0.0,0.0,0.0,0.0,0.0,0.0,,,,,,,,,,,,,,,,,,,,,,,,,,,,,,,,,,,,,,,,,,,pullUp
accX,0.0,-2.421,-0.8440000000000001,0.0,0.0,0.0,0.0,-2.595,-1.6130000000000002,-0.598,0.0,0.0,0.0,-3.1639999999999997,-1.874,-0.755,0.0,0.5489999999999999,-1.0979999999999999,-2.9989999999999997,-2.086,-0.7090000000000001,-0.501,0.614,-1.554,-3.236,-2.0069999999999997,-0.631,0.0,0.652,-1.77,-2.988,-1.867,-0.62,0.0,0.726,-1.4080000000000001,-3.48,-2.262,-0.895,-0.622,0.8170000000000001,-1.298,-4.077,-2.17,-1.268,-1.256,1.186,-1.837,-4.294,-1.5659999999999998,-1.745,-2.249,1.4280000000000002,-2.812,-4.319,-0.996,-1.673,-1.879,1.6019999999999999,-2.234,-4.659,-1.251,-1.3430000000000002,-1.113,1.584,-2.194,-5.075,-1.801,-1.307,-0.893,1.57,-2.971,-5.687,-2.302,-1.556,-1.339,1.7530000000000001,-3.3930000000000002,-6.593999999999999,-1.829,-2.109,-2.021,2.191,-3.377,-6.846,-0.652,-2.4019999999999997,-1.9669999999999999,2.572,-1.875,-6.829,0.0,-2.181,-1.505,2.524,-1.922,-7.062,-0.51,-1.838,-1.483,2.403,-2.043,-8.163,-0.706,-1.857,-2.08,2.549,-2.623,-10.104,-0.904,-2.259,-2.8,2.864,-1.895,-5.6979999999999995,0.0,-2.8569999999999998,-2.7030000000000003,2.9930000000000003,0.56,4.063,1.242,-3.02,-2.0669999999999997,2.8939999999999997,1.9169999999999998,5.162999999999999,1.2670000000000001,-2.537,-2.147,2.7110000000000003,0.943,4.562,1.308,-2.144,-2.984,2.627,0.606,3.015,1.713,-2.185,-4.062,2.705,1.4280000000000002,1.4369999999999998,1.67,-2.332,-4.901,2.9210000000000003,1.8880000000000001,1.307,1.219,-2.207,-5.019,3.017,1.207,1.571,1.024,-1.6540000000000001,-4.605,2.8810000000000002,0.0,2.146,1.087,-0.9179999999999999,-4.28,2.748,-0.8440000000000001,0.99,0.9990000000000001,0.0,-3.935,2.494,0.0,0.599,0.922,0.0,-3.861,2.559,-1.1059999999999999,0.0,0.0,0.0,-3.608,2.678,-0.865,-0.66,0.0,0.5770000000000001,-2.511,2.839,2.028,-2.073,0.0,0.973,-1.5630000000000002,2.94,3.861,-2.678,0.0,0.9790000000000001,-2.09,2.593,4.138999999999999,-2.44,-0.794,1.2770000000000001,-2.887,1.995,2.675,-2.425,-1.749,1.594,-3.158,1.5390000000000001,1.202,-2.481,-2.906,1.617,-2.676,1.462,1.724,-2.958,-4.111000000000001,1.2209999999999999,-2.221,1.569,2.294,-2.546,-4.559,0.877,-1.943,1.54,2.332,-1.99,-4.478,0.7879999999999999,-1.406,1.41,2.645,-1.554,-4.2139999999999995,0.775,-0.745,1.318,3.38,-1.656,-3.9130000000000003,0.669,0.0,1.0659999999999998,3.822,-1.1179999999999999,-3.681,0.547,0.0,0.818,3.9819999999999998,-1.3019999999999998,-3.3810000000000002,0.0,0.0,0.53,3.508,-0.865,-2.884,0.0,0.0,0.0,2.895,0.0,-2.35,0.0,0.0,0.0,2.0540000000000003,0.0,-1.875,0.0,0.0,0.0,0.87,0.0,-1.083,0.0,0.0,0.0,0.0,0.95,0.0,0.0,0.5710000000000001,0.0,0.622,0.889,0.627,0.0,0.0,0.0,0.888,0.0,0.564,0.0,0.0,0.0,0.782,0.0,0.0,0.0,0.0,0.0,0.716,0.0,0.0,0.0,0.0,0.0,0.98,0.0,0.0,0.0,0.0,0.0,0.564,0.0,0.0,0.0,0.0,0.0,0.0,0.0,0.0,0.0,0.0,0.0,0.0,0.0,0.0,0.0,0.0,0.0,0.6459999999999999,-0.508,0.0,0.0,0.0,0.0,0.6409999999999999,-0.644,-0.601,0.0,0.0,0.0,0.564,-0.8740000000000001,-0.972,0.0,0.0,0.0,0.0,-0.599,-0.772,0.0,0.0,0.0,0.0,0.0,-0.615,0.0,0.649,0.0,0.0,-0.635,-1.23,0.0,0.94,0.0,,,,,,,,,,,,,,,,,,,,,,,,,,,,,,,,,,,,,,,,,,,,,,,,,,,,,,,,,,,,,,,,,,,,,,,,,,,,,,,,,,,,,,,,,,,,,,,,,,,,,,,pullUp
accX,-1.251,-2.31,0.0,-0.5660000000000001,0.0,0.5579999999999999,-0.63,-2.966,-0.562,-0.55,0.0,0.623,-0.735,-3.148,-0.8059999999999999,-0.561,0.0,0.5529999999999999,-0.743,-3.4739999999999998,-0.804,-0.584,0.0,0.547,-1.652,-3.6910000000000003,-1.058,-0.552,0.0,0.5920000000000001,-1.597,-3.7060000000000004,-1.932,-0.759,-0.737,0.6459999999999999,-2.3930000000000002,-4.684,-2.5140000000000002,-1.002,-1.207,0.9229999999999999,-2.9530000000000003,-5.348,-2.66,-1.4140000000000001,-1.6869999999999998,1.1320000000000001,-2.365,-5.886,-1.7990000000000002,-1.95,-2.174,1.3719999999999999,-3.728,-5.599,-1.506,-2.235,-2.657,1.6019999999999999,-4.422,-6.027,-1.6640000000000001,-2.13,-2.557,1.8519999999999999,-5.558,-6.568,-1.95,-2.122,-2.489,2.19,-5.3260000000000005,-7.57,-1.8430000000000002,-2.1519999999999997,-2.2430000000000003,2.53,-3.551,-8.817,-0.8079999999999999,-2.457,-2.2969999999999997,2.938,-2.4859999999999998,-9.427,0.0,-2.728,-2.437,3.236,-0.58,-9.908999999999999,1.217,-2.67,-2.55,3.248,0.0,-9.206,1.565,-2.381,-2.886,3.3,0.0,-5.477,1.758,-2.158,-3.201,3.3160000000000003,-1.5659999999999998,-1.5930000000000002,1.16,-2.064,-3.117,3.448,0.0,-0.633,0.78,-2.191,-2.524,3.6430000000000002,1.1540000000000001,0.0,0.985,-2.454,-2.39,3.6510000000000002,1.176,1.176,1.469,-2.353,-2.665,3.425,0.585,1.462,1.7280000000000002,-1.565,-3.248,2.9410000000000003,0.7809999999999999,0.586,1.5630000000000002,-1.133,-3.5069999999999997,2.891,1.8530000000000002,-0.726,1.128,-0.888,-3.702,2.9189999999999996,1.804,0.0,0.84,-0.5489999999999999,-3.5789999999999997,2.96,0.866,0.0,0.867,0.0,-3.2510000000000003,3.133,0.524,0.0,1.23,0.0,-3.112,3.177,0.55,-1.4669999999999999,0.0,0.0,-2.852,2.8510000000000004,1.204,-2.031,-0.7,0.5870000000000001,-2.48,2.521,1.7469999999999999,-2.1830000000000003,-1.694,0.775,-2.167,2.426,2.048,-1.676,-1.774,0.831,-2.045,2.38,1.903,-1.689,-1.584,0.82,-1.899,2.265,1.801,-1.972,-1.6480000000000001,0.83,-1.787,2.053,1.791,-1.642,-1.714,0.934,-1.6980000000000002,1.849,1.893,-1.6780000000000002,-2.064,0.9840000000000001,-1.758,1.86,2.3819999999999997,-1.36,-2.472,1.095,-1.837,1.821,2.9930000000000003,-2.035,-3.16,1.0,-1.825,1.5959999999999999,3.252,-2.3609999999999998,-3.5810000000000004,0.7559999999999999,-1.641,1.287,3.0580000000000003,-1.979,-3.793,0.583,-1.264,0.973,3.0039999999999996,-1.675,-3.7,0.0,-0.81,0.774,2.9960000000000004,-1.4480000000000002,-3.557,0.0,0.0,0.546,2.937,-1.09,-3.207,0.0,0.0,0.0,2.605,-0.941,-2.8480000000000003,0.0,0.0,0.0,1.8119999999999998,-0.503,-2.059,0.0,0.526,0.0,1.281,0.0,-1.001,0.0,0.684,0.0,0.8640000000000001,0.5579999999999999,0.0,0.0,0.657,0.0,0.0,0.0,0.63,0.0,0.513,0.0,0.718,0.0,0.0,0.0,0.0,0.0,0.713,0.0,0.0,0.0,0.0,0.0,0.0,0.0,0.0,0.0,0.0,0.0,0.0,0.0,0.0,0.0,0.0,0.0,0.0,0.0,0.0,0.0,0.0,0.0,0.0,0.0,0.0,0.0,0.0,0.0,0.0,0.0,0.0,0.0,0.0,0.0,0.0,0.0,0.0,0.0,0.0,0.0,0.0,-0.726,-0.59,0.0,0.0,0.0,,,,,,,,,,,,,,,,,,,,,,,,,,,,,,,,,,,,,,,,,,,,,,,,,,,,,,,,,,,,,,,,,,,,,,,,,,,,,,,,,,,,,,,,,,,,,,,,,,,,,,,,,,,,,,,,,,,,,,,,,,,,,,,,,,,,,,,,,,,pullUp
accX,0.0,-2.655,0.0,-1.031,0.0,0.5760000000000001,0.0,-2.738,0.0,-0.9159999999999999,0.0,0.639,0.0,-2.6719999999999997,0.0,-0.6409999999999999,0.0,0.6920000000000001,-0.55,-3.4789999999999996,-0.821,0.0,0.0,0.644,-1.44,-3.864,-0.87,-0.541,0.0,0.6759999999999999,-1.421,-3.591,-0.965,-0.873,-0.601,0.615,-2.296,-4.041,-1.2329999999999999,-0.853,-0.599,0.754,-3.1889999999999996,-4.218999999999999,-2.097,-0.8079999999999999,-0.6,0.893,-4.36,-4.913,-3.275,-0.8759999999999999,-0.767,1.187,-4.952,-6.125,-4.011,-1.264,-1.136,1.579,-5.436,-6.6370000000000005,-3.655,-1.9069999999999998,-1.58,1.93,-5.367999999999999,-7.007000000000001,-2.488,-2.365,-1.9240000000000002,2.32,-6.029,-7.1129999999999995,-1.965,-2.36,-2.004,2.6719999999999997,-5.079,-8.398,-1.725,-2.156,-1.8030000000000002,3.05,-3.7110000000000003,-10.199,-1.4769999999999999,-2.353,-2.05,3.342,-2.67,-11.210999999999999,0.0,-3.114,-2.678,3.4810000000000003,-2.218,-11.167,0.879,-3.4389999999999996,-3.094,3.7289999999999996,-2.035,-4.985,1.01,-2.89,-2.759,3.64,-1.141,0.0,0.0,-2.958,-1.679,3.273,1.6269999999999998,0.7859999999999999,0.0,-3.4810000000000003,-2.293,3.423,3.137,1.151,1.226,-3.5660000000000003,-3.162,3.765,2.562,1.4169999999999998,1.308,-2.995,-3.049,3.727,2.353,1.3330000000000002,1.315,-2.1719999999999997,-2.459,3.5839999999999996,2.195,0.6659999999999999,1.026,-1.652,-2.412,3.2539999999999996,1.261,0.0,0.716,-1.411,-2.455,3.114,1.9269999999999998,-0.754,0.0,-1.452,-2.62,3.273,1.524,-0.603,0.0,-1.4369999999999998,-2.705,3.5060000000000002,1.966,-0.863,0.0,-1.113,-2.407,3.6210000000000004,2.6,-1.444,-0.627,-0.5770000000000001,-2.056,3.2060000000000004,3.983,-1.8559999999999999,-0.8320000000000001,0.0,-2.119,2.522,4.593,-2.1830000000000003,-0.9570000000000001,0.0,-2.786,2.006,3.551,-1.7080000000000002,-0.8,0.0,-3.319,1.7719999999999998,2.2159999999999997,-1.409,-0.6890000000000001,0.0,-3.301,1.733,1.9169999999999998,-0.858,-0.691,0.9079999999999999,-3.015,1.815,2.484,-0.9309999999999999,-0.7040000000000001,1.39,-2.94,1.925,3.4810000000000003,-2.497,-1.8359999999999999,1.3730000000000002,-3.0810000000000004,1.625,3.343,-3.0389999999999997,-2.917,0.932,-2.8710000000000004,0.8809999999999999,3.09,-2.002,-3.116,0.0,-2.448,0.573,1.521,-0.825,-2.781,0.0,-1.6680000000000001,0.562,0.0,0.0,-2.222,0.0,-0.731,0.731,1.155,0.0,-1.5330000000000001,0.0,0.0,0.929,1.8219999999999998,-0.521,-1.382,0.0,0.0,0.879,2.2769999999999997,-0.631,-1.275,0.0,0.0,0.532,1.599,0.0,-1.041,0.0,0.0,0.0,1.423,0.0,-0.815,0.0,0.0,0.0,1.315,0.0,-0.526,0.0,0.0,0.0,1.306,-0.536,-0.525,0.0,0.0,0.0,1.393,-0.579,-0.569,0.0,0.0,0.0,1.002,-0.56,0.0,0.0,0.0,0.0,0.505,0.0,0.0,0.0,0.0,0.0,0.0,0.0,0.0,0.0,0.0,0.0,0.0,0.0,0.0,0.0,0.0,0.0,0.569,0.0,0.0,0.0,0.0,0.0,0.0,-0.56,0.0,0.0,0.0,0.0,0.0,-0.51,0.0,0.0,0.0,0.0,0.638,-0.7170000000000001,0.0,0.0,0.0,0.0,0.816,-0.8029999999999999,0.0,0.0,0.0,0.0,0.741,-0.937,-0.7340000000000001,0.0,0.0,0.0,0.0,-1.651,-1.355,0.0,0.0,-0.5489999999999999,0.0,-1.016,-1.723,0.0,0.7809999999999999,-0.794,,,,,,,,,,,,,,,,,,,,,,,,,,,,,,,,,,,,,,,,,,,,,,,,,,,,,,,,,,,,,,,,,,,,,,,,,,,,,,,,,,,,,,,,,,,,,,,,,,,,,,,,,,,,,,,,,,,,,,,,,pullUp
accX,0.0,-2.6239999999999997,-0.848,-0.988,0.0,0.0,0.0,-2.946,-1.065,-1.13,0.0,0.5820000000000001,-0.847,-2.191,-0.813,-1.229,0.0,0.685,-0.72,-2.779,-0.758,-0.888,0.0,0.626,-1.9240000000000002,-2.7,-1.182,-0.645,-0.506,0.728,-2.025,-3.344,-2.161,-0.813,-0.7190000000000001,0.782,-2.705,-4.127,-2.396,-0.961,-0.855,0.97,-3.022,-4.317,-2.427,-1.1440000000000001,-1.069,1.181,-3.225,-4.58,-2.295,-1.209,-1.3419999999999999,1.43,-4.268,-4.8469999999999995,-2.249,-1.287,-1.798,1.794,-5.106,-5.989,-2.662,-1.504,-2.001,2.4130000000000003,-4.956,-6.763999999999999,-2.419,-1.797,-1.9140000000000001,2.7430000000000003,-4.183,-7.407,-1.893,-1.864,-1.9180000000000001,2.968,-2.436,-8.573,-0.961,-2.072,-2.625,3.0789999999999997,-1.371,-9.843,0.0,-2.369,-3.8,3.28,-2.22,-10.350999999999999,1.307,-2.315,-4.131,3.6319999999999997,-1.439,-4.123,2.023,-2.079,-4.114,3.847,-1.969,1.7180000000000002,1.5119999999999998,-1.749,-3.937,3.75,-1.6969999999999998,1.5819999999999999,1.306,-1.6840000000000002,-4.072,3.5589999999999997,0.0,0.516,1.5859999999999999,-1.819,-4.593,3.698,1.5819999999999999,0.569,1.8219999999999998,-1.6680000000000001,-5.154,4.073,0.97,0.968,1.595,-1.088,-5.103,4.205,0.0,0.0,1.028,0.0,-4.365,3.654,-0.573,-1.3659999999999999,0.0,0.0,-3.427,2.845,0.534,-1.5430000000000001,0.0,0.0,-2.8369999999999997,2.9530000000000003,1.351,-1.521,-1.237,0.561,-2.2880000000000003,3.3710000000000004,1.974,-1.7009999999999998,-1.5530000000000002,0.789,-1.901,3.648,1.9469999999999998,-2.367,-1.444,0.96,-1.459,3.338,1.9769999999999999,-3.338,-1.516,0.772,-1.004,2.4330000000000003,2.248,-2.069,-1.636,0.763,-1.062,2.274,2.331,-1.626,-1.9769999999999999,1.003,-1.37,2.573,2.573,-1.9909999999999999,-2.504,1.236,-1.496,2.76,3.525,-2.454,-2.85,1.401,-1.515,2.773,4.413,-3.333,-3.387,1.466,-1.421,2.4419999999999997,5.273,-3.9330000000000003,-4.102,0.977,-1.2990000000000002,1.505,4.756,-3.1430000000000002,-3.9339999999999997,0.601,-1.1159999999999999,1.054,3.99,-2.127,-3.491,0.0,-0.875,0.6809999999999999,2.766,-1.331,-2.822,0.0,-0.518,0.0,1.475,0.0,-1.901,0.0,0.0,0.0,0.0,0.623,-0.996,0.0,0.0,0.0,0.0,1.042,0.0,0.0,0.0,0.0,0.7759999999999999,1.047,0.0,0.0,0.0,0.557,1.285,0.585,0.0,0.0,0.0,0.6729999999999999,0.909,0.0,0.0,0.0,0.0,0.626,1.032,0.0,0.0,0.0,0.0,0.516,1.216,-0.935,-0.971,0.0,0.0,0.0,1.2830000000000001,-1.131,-1.271,0.0,0.0,0.0,1.3459999999999999,-0.9670000000000001,-1.133,0.0,0.0,0.0,1.485,-1.002,-0.894,0.0,0.0,0.0,1.278,-0.8059999999999999,-0.685,0.0,0.0,0.0,0.912,-0.71,-0.77,0.0,0.0,0.0,0.615,-0.755,-0.907,0.0,0.0,0.0,0.62,-1.197,-1.2229999999999999,0.0,0.0,0.0,0.0,-1.169,-1.148,-0.634,0.564,0.0,0.9490000000000001,-0.616,-1.04,0.0,0.9259999999999999,-0.715,0.986,-1.643,-2.26,0.0,1.339,-0.6940000000000001,,,,,,,,,,,,,,,,,,,,,,,,,,,,,,,,,,,,,,,,,,,,,,,,,,,,,,,,,,,,,,,,,,,,,,,,,,,,,,,,,,,,,,,,,,,,,,,,,,,,,,,,,,,,,,,,,,,,,,,,,,,,,,,,,,,,,,,,,,,,,,,,,pullUp
accX,-1.093,-3.5269999999999997,-1.564,-0.946,0.0,0.514,-2.09,-4.01,-2.301,-1.255,0.0,0.68,-2.168,-3.698,-1.8969999999999998,-1.381,0.0,0.9079999999999999,-2.042,-4.218,-1.396,-1.361,0.0,1.004,-2.488,-4.171,-1.122,-1.239,0.0,1.192,-2.266,-4.101,-1.796,-1.12,0.0,1.3519999999999999,-2.9939999999999998,-5.149,-2.447,-1.433,-0.77,1.564,-3.655,-5.651,-2.384,-1.8659999999999999,-1.54,1.8459999999999999,-4.313,-6.127999999999999,-1.93,-2.073,-2.039,2.261,-4.717,-6.832999999999999,-1.069,-2.149,-2.274,2.6710000000000003,-3.9739999999999998,-7.546,0.0,-2.089,-2.4,2.948,-3.1310000000000002,-7.909,0.0,-2.042,-2.582,3.1660000000000004,-3.2230000000000003,-8.72,0.0,-2.059,-2.6919999999999997,3.406,-2.833,-10.449000000000002,0.0,-2.164,-2.6630000000000003,3.5260000000000002,-2.622,-3.003,0.9309999999999999,-2.215,-2.583,3.605,0.0,3.634,1.489,-2.258,-2.807,3.549,1.047,3.76,1.979,-2.028,-3.4389999999999996,3.431,0.7559999999999999,3.1519999999999997,2.1109999999999998,-1.776,-4.272,3.36,0.0,2.008,2.316,-1.6230000000000002,-4.936,3.475,0.8029999999999999,0.754,1.992,-1.3459999999999999,-4.869,3.395,1.074,0.0,0.768,-0.56,-3.9219999999999997,3.4410000000000003,0.971,0.813,0.0,0.0,-3.178,3.555,0.0,0.0,0.0,0.0,-2.681,3.737,0.0,-0.741,0.0,0.0,-2.591,3.654,1.5959999999999999,-1.9909999999999999,0.0,0.0,-2.718,3.5389999999999997,4.394,-3.3739999999999997,-1.768,0.0,-2.781,3.3689999999999998,5.577999999999999,-3.438,-2.588,0.608,-2.2769999999999997,2.765,5.4879999999999995,-2.465,-2.6519999999999997,1.0070000000000001,-1.37,2.363,5.145,-2.69,-2.252,0.95,-0.767,2.204,4.715,-2.7289999999999996,-1.7180000000000002,0.62,-0.748,1.8259999999999998,4.368,-1.527,-1.4240000000000002,0.0,-1.2930000000000001,1.5430000000000001,2.853,0.0,-1.296,0.0,-1.885,1.296,0.0,0.0,-0.9259999999999999,0.526,-1.6230000000000002,1.393,0.648,0.0,-1.139,0.555,-1.238,1.4980000000000002,0.889,-0.8290000000000001,-1.151,0.0,-1.038,1.4580000000000002,1.263,-0.674,-0.889,0.0,-0.868,1.2930000000000001,1.42,-0.782,-0.893,0.0,-0.8420000000000001,1.189,0.8109999999999999,-0.845,-0.838,0.0,-0.857,1.101,1.024,-0.9470000000000001,-1.0390000000000001,0.0,-0.8170000000000001,1.1640000000000001,1.496,-1.1420000000000001,-1.2790000000000001,0.0,-0.8340000000000001,1.196,1.854,-1.054,-1.3869999999999998,0.0,-0.863,1.126,1.9769999999999999,-1.735,-1.798,0.519,-0.716,0.9329999999999999,2.162,-1.886,-2.207,0.0,0.0,0.621,2.18,-1.163,-2.238,0.0,0.0,0.0,1.564,-0.6629999999999999,-1.841,0.0,0.0,0.0,1.272,0.0,-1.151,0.0,0.563,0.0,1.475,0.0,0.0,0.0,0.7440000000000001,0.0,1.6540000000000001,0.0,0.0,0.0,0.6629999999999999,0.0,1.169,0.0,0.0,0.0,0.0,0.0,0.9059999999999999,0.0,0.0,0.0,0.0,0.0,0.733,0.0,0.0,0.0,0.0,0.0,0.755,0.0,0.0,0.0,0.0,0.0,0.0,-0.7490000000000001,0.0,0.0,0.0,0.0,0.0,-1.3880000000000001,-1.069,0.0,0.0,0.0,0.738,-1.7169999999999999,-1.765,0.0,0.58,-0.5710000000000001,,,,,,,,,,,,,,,,,,,,,,,,,,,,,,,,,,,,,,,,,,,,,,,,,,,,,,,,,,,,,,,,,,,,,,,,,,,,,,,,,,,,,,,,,,,,,,,,,,,,,,,,,,,,,,,,,,,,,,,,,,,,,,,,,,,,,,,,,,,,,,,,,,,,,,,pullUp
accX,-1.371,-3.457,-1.66,-1.052,0.0,0.53,-1.736,-3.725,-1.892,-1.278,-0.5479999999999999,0.742,-2.9019999999999997,-3.313,-2.144,-1.123,-0.585,0.971,-2.623,-4.256,-2.342,-1.185,-0.701,1.172,-2.6910000000000003,-5.127000000000001,-2.366,-1.3980000000000001,-0.7929999999999999,1.25,-2.783,-4.918,-2.247,-1.598,-0.991,1.415,-4.425,-5.709,-2.456,-1.6569999999999998,-1.187,1.597,-4.988,-5.154,-2.682,-1.7830000000000001,-1.216,2.0780000000000003,-5.016,-5.92,-2.266,-1.9369999999999998,-1.1340000000000001,2.494,-3.72,-6.733,-1.255,-2.023,-1.2570000000000001,2.748,-2.798,-7.256,0.0,-1.99,-1.758,2.949,-2.753,-7.882000000000001,0.0,-2.042,-2.31,3.159,-3.389,-8.562999999999999,0.0,-2.1959999999999997,-2.165,3.278,-2.431,-8.318,0.0,-2.312,-1.7280000000000002,3.367,-0.632,-5.457999999999999,0.0,-2.4659999999999997,-1.8019999999999998,3.466,0.753,7.585,1.6130000000000002,-2.47,-2.8760000000000003,3.515,0.0,6.07,2.138,-2.41,-4.211,3.673,0.0,2.9539999999999997,2.45,-2.537,-5.13,3.654,0.6970000000000001,1.069,2.208,-2.533,-5.194,3.449,1.746,0.892,1.589,-2.298,-4.92,3.409,0.738,1.295,1.442,-1.696,-4.521,3.451,-0.578,1.508,1.395,-0.9390000000000001,-3.9139999999999997,3.432,-0.58,0.56,1.045,0.0,-3.536,3.675,0.5329999999999999,-1.8419999999999999,0.0,0.0,-3.225,3.609,2.5580000000000003,-3.1439999999999997,-1.3130000000000002,0.0,-3.093,3.3960000000000004,1.882,-2.066,-1.121,0.0,-2.6010000000000004,3.075,1.255,-1.214,-0.632,0.5579999999999999,-1.883,3.0469999999999997,1.3619999999999999,-1.6130000000000002,-0.706,1.213,-1.459,3.088,2.4619999999999997,-3.139,-1.307,1.345,-1.849,3.02,2.765,-3.515,-2.244,1.3940000000000001,-2.502,2.844,3.42,-4.079,-3.51,1.318,-2.84,2.5780000000000003,4.001,-4.062,-4.1739999999999995,1.034,-2.7060000000000004,2.016,4.617,-3.55,-4.64,0.718,-2.35,1.615,4.501,-2.844,-4.6080000000000005,0.5379999999999999,-1.8769999999999998,1.234,4.239,-2.126,-4.362,0.0,-1.208,0.934,3.955,-1.7990000000000002,-3.963,0.0,-0.508,0.696,3.705,-1.423,-3.179,0.0,0.0,0.0,3.205,-0.965,-2.184,0.0,0.0,0.0,2.366,0.0,-1.202,0.0,0.0,0.0,1.084,0.0,0.0,0.0,0.0,0.0,0.0,0.782,0.0,0.0,0.0,0.0,0.0,0.762,0.0,0.0,0.0,0.0,0.8,0.0,0.0,0.0,0.0,0.0,1.2770000000000001,0.0,0.0,0.0,0.0,0.0,0.74,0.0,0.0,0.0,0.0,0.0,0.603,0.0,0.0,0.0,0.0,0.0,1.0090000000000001,0.0,0.0,0.0,0.0,0.0,1.452,-0.701,-0.718,0.0,0.0,0.0,1.208,-1.0859999999999999,-1.2570000000000001,0.0,0.0,0.0,0.83,-0.726,-1.199,0.0,0.0,0.0,0.857,0.0,-0.81,0.0,0.5379999999999999,0.0,1.3319999999999999,-0.555,-0.6709999999999999,0.0,0.883,0.0,1.19,-1.127,-1.5490000000000002,0.0,1.079,0.0,0.0,-2.153,-2.593,-0.6829999999999999,1.588,-0.643,0.0,-0.96,-2.023,-0.7340000000000001,2.51,-0.631,0.777,0.0,-0.972,0.0,3.165,0.0,,,,,,,,,,,,,,,,,,,,,,,,,,,,,,,,,,,,,,,,,,,,,,,,,,,,,,,,,,,,,,,,,,,,,,,,,,,,,,,,,,,,,,,,,,,,,,,,,,,,,,,,,,,,,,,,,,,,,,,,,,,,,,,,,,,,,,,,,,,,,,,,,pullUp
accX,0.0,-3.195,0.0,0.0,0.0,0.0,0.0,-3.135,0.0,-0.948,0.0,0.0,-0.5429999999999999,-1.876,0.0,-1.04,0.0,0.0,-0.5760000000000001,-2.8160000000000003,0.0,-0.723,0.0,0.0,-0.628,-2.8339999999999996,-0.583,-0.63,0.0,0.0,0.0,-2.897,-0.642,-0.5539999999999999,0.0,0.507,-0.865,-3.77,0.0,-0.531,0.0,0.0,-0.943,-3.2310000000000003,-0.503,0.0,0.0,0.0,-1.5319999999999998,-3.5789999999999997,-1.261,0.0,0.0,0.547,-2.408,-3.929,-1.979,-0.659,0.0,0.7659999999999999,-2.6710000000000003,-4.314,-1.916,-0.892,-0.64,0.912,-3.1,-4.468999999999999,-1.858,-1.026,-0.885,1.148,-3.792,-4.708,-1.9980000000000002,-1.136,-1.107,1.401,-4.72,-4.919,-2.324,-1.229,-1.181,1.7730000000000001,-4.761,-6.421,-2.622,-1.585,-1.3419999999999999,2.065,-4.864,-6.755,-1.976,-1.9040000000000001,-1.42,2.2880000000000003,-4.758,-6.749,-1.3419999999999999,-1.87,-1.3880000000000001,2.657,-3.966,-7.433,-0.823,-1.8719999999999999,-1.585,2.972,-2.562,-8.441,0.0,-2.059,-2.3680000000000003,3.2119999999999997,-1.406,-9.984,0.5579999999999999,-2.4219999999999997,-3.725,3.444,-2.0380000000000003,-10.154,1.5319999999999998,-2.571,-4.4319999999999995,3.6460000000000004,-1.486,-2.042,2.066,-2.214,-4.158,3.6630000000000003,-1.814,1.912,1.422,-1.7209999999999999,-3.5460000000000003,3.702,-1.013,1.8319999999999999,0.9329999999999999,-1.547,-3.411,3.807,0.0,0.86,1.0979999999999999,-1.7719999999999998,-3.475,3.783,1.7,0.0,1.699,-1.8130000000000002,-3.615,3.7039999999999997,1.653,0.0,1.178,-1.287,-2.938,3.64,1.8259999999999998,0.0,1.025,0.0,-2.191,3.366,1.8330000000000002,0.0,0.591,0.0,-1.9380000000000002,3.2560000000000002,1.43,-1.025,0.0,0.0,-2.313,3.342,1.807,-2.153,-0.657,0.0,-2.59,3.338,1.62,-2.211,-0.8759999999999999,0.0,-2.5069999999999997,3.036,1.055,-1.32,-0.537,0.0,-2.0069999999999997,2.877,1.268,-1.12,0.0,0.0,-1.58,2.9130000000000003,1.5390000000000001,-1.3780000000000001,0.0,0.677,-1.575,3.065,2.171,-2.574,-1.288,1.05,-1.8130000000000002,2.968,2.6719999999999997,-3.5810000000000004,-2.458,0.977,-2.049,2.544,2.802,-2.815,-3.2110000000000003,0.637,-2.162,2.291,3.4019999999999997,-2.369,-3.52,0.568,-1.825,2.181,4.156000000000001,-2.58,-3.583,0.632,-1.268,2.051,5.025,-2.778,-3.415,0.6920000000000001,-0.716,1.754,5.415,-2.6660000000000004,-3.25,0.58,0.0,1.23,5.246,-2.0180000000000002,-3.0239999999999996,0.0,0.0,0.7559999999999999,4.409,-1.626,-2.65,0.0,0.0,0.0,3.3089999999999997,-0.823,-1.9609999999999999,0.0,0.0,0.0,1.607,0.0,-0.991,0.0,0.0,0.0,0.6679999999999999,1.092,0.0,0.0,0.0,0.0,0.5770000000000001,0.95,0.0,0.0,0.591,0.0,0.718,0.645,0.547,0.0,0.0,0.0,0.6709999999999999,0.5920000000000001,0.8759999999999999,0.0,0.0,0.0,0.696,0.0,1.043,0.0,0.0,0.0,0.9670000000000001,0.0,0.742,0.0,0.0,0.0,1.045,0.0,0.0,0.0,0.0,0.0,1.145,-0.92,0.0,0.0,0.0,0.0,1.2329999999999999,-1.2919999999999998,-1.022,0.0,0.0,0.0,0.514,-1.055,-1.294,0.0,0.0,0.0,0.7190000000000001,0.0,-1.001,0.0,1.156,0.0,2.245,-1.16,-1.122,0.0,1.392,0.0,,,,,,,,,,,,,,,,,,,,,,,,,,,,,,,,,,,,,,,,,,,,,,,,,,,,,,,,,,,,,,,,,,,,,,,,,,,,,,,,,,,,,,,,,,,,,,,,,,,,,,,,,,,,,,,,,,,,,,,,,,,,,,,,,,,,,pullUp
accX,-0.706,-3.429,-0.807,-0.946,0.0,0.0,-0.535,-3.57,-0.637,-1.0959999999999999,0.0,0.629,-0.96,-3.61,-1.361,-1.1079999999999999,0.0,0.6459999999999999,-1.841,-3.8289999999999997,-1.922,-1.2109999999999999,-0.695,0.755,-2.866,-4.104,-2.0780000000000003,-1.255,-0.875,0.945,-3.049,-5.186,-1.805,-1.464,-1.263,1.18,-2.5380000000000003,-5.242000000000001,-1.6740000000000002,-1.825,-1.838,1.375,-3.156,-5.593999999999999,-1.169,-1.9980000000000002,-2.354,1.459,-4.145,-5.657,-1.22,-2.05,-2.748,1.714,-5.8260000000000005,-6.151,-1.5419999999999998,-2.112,-2.605,2.117,-5.672999999999999,-6.985,-1.5519999999999998,-2.1390000000000002,-2.037,2.559,-4.25,-8.025,-1.103,-2.276,-1.8459999999999999,2.875,-2.2119999999999997,-9.122,0.0,-2.373,-2.42,2.958,-1.104,-9.441,1.3130000000000002,-2.331,-3.427,2.9989999999999997,-1.6469999999999998,-8.388,1.974,-2.086,-3.9960000000000004,3.1,-3.114,-5.125,1.8219999999999998,-1.713,-3.688,3.34,-1.899,-2.975,1.298,-1.6369999999999998,-3.134,3.612,0.0,-1.337,0.789,-1.8119999999999998,-2.955,3.783,1.206,0.0,1.295,-1.807,-3.167,3.762,1.1740000000000002,1.21,2.0180000000000002,-1.1540000000000001,-3.4760000000000004,3.535,1.815,-0.626,1.633,-0.74,-3.61,3.054,1.982,-1.2890000000000001,1.524,-0.789,-3.79,2.72,0.0,0.0,1.475,0.0,-3.2939999999999996,2.888,-1.841,0.0,0.8440000000000001,0.0,-2.589,3.1439999999999997,0.0,-1.74,0.0,0.6809999999999999,-1.726,3.1510000000000002,1.764,-3.053,-1.3659999999999999,0.828,-1.173,3.108,2.369,-2.736,-1.652,0.637,-1.028,3.016,1.92,-1.893,-1.103,0.0,-1.1640000000000001,2.9560000000000004,1.6119999999999999,-1.249,0.0,0.0,-1.29,2.9330000000000003,1.265,-1.455,0.0,0.8690000000000001,-1.423,2.96,2.5660000000000003,-3.141,-1.544,1.256,-1.584,2.841,3.8160000000000003,-3.747,-3.1919999999999997,1.2,-1.7380000000000002,2.369,4.336,-2.821,-4.095,1.09,-1.5330000000000001,1.989,4.7410000000000005,-2.572,-4.135,0.843,-1.171,1.864,5.12,-2.3080000000000003,-3.511,0.672,-0.8290000000000001,1.636,4.758,-1.982,-2.764,0.544,-0.627,1.301,4.332,-1.053,-2.089,0.542,-0.552,0.996,3.839,-0.8140000000000001,-1.9280000000000002,0.638,-0.556,0.748,3.05,-0.5870000000000001,-1.805,0.593,-0.563,0.528,1.705,0.0,-1.459,0.0,0.0,0.0,0.9309999999999999,0.0,-0.82,0.0,0.0,0.0,0.662,0.8859999999999999,0.0,0.0,0.0,0.0,0.0,0.742,0.0,0.0,0.0,0.0,0.0,0.0,0.0,0.0,0.0,0.0,0.868,0.0,0.0,0.0,0.0,0.0,0.789,0.0,0.0,0.0,0.0,0.0,1.02,0.0,0.0,0.0,0.0,0.0,0.981,0.0,0.0,0.0,0.0,0.0,0.0,0.0,0.0,0.0,0.0,0.0,0.0,0.0,0.0,0.0,0.607,0.0,0.61,-0.772,0.0,0.0,0.66,0.0,,,,,,,,,,,,,,,,,,,,,,,,,,,,,,,,,,,,,,,,,,,,,,,,,,,,,,,,,,,,,,,,,,,,,,,,,,,,,,,,,,,,,,,,,,,,,,,,,,,,,,,,,,,,,,,,,,,,,,,,,,,,,,,,,,,,,,,,,,,,,,,,,,,,,,,,,,,,,,,,,,,,,,,,,,,,,,,pullUp
accX,-0.652,-4.1080000000000005,-0.929,-1.2,0.0,0.523,-0.7609999999999999,-4.07,-1.053,-1.5830000000000002,0.0,0.684,-0.83,-3.347,-0.65,-1.568,-0.601,0.736,-1.284,-3.761,-0.664,-1.4080000000000001,-0.619,0.752,-1.5130000000000001,-3.9760000000000004,-0.763,-1.274,-0.627,0.825,-1.925,-4.2330000000000005,-1.804,-1.209,-0.627,0.961,-3.6460000000000004,-5.731,-2.374,-1.489,-0.7120000000000001,1.045,-4.371,-5.206,-2.8,-1.6780000000000002,-0.733,1.35,-4.3389999999999995,-5.827000000000001,-2.253,-1.91,-0.866,1.672,-4.022,-6.1370000000000005,-1.6269999999999998,-1.9909999999999999,-1.225,1.96,-4.003,-6.8260000000000005,-1.338,-2.1590000000000003,-1.778,2.31,-4.273,-7.255,-0.903,-2.352,-2.105,2.6039999999999996,-3.792,-7.8260000000000005,0.0,-2.51,-2.1109999999999998,2.852,-1.8259999999999998,-8.128,1.2830000000000001,-2.512,-2.296,2.9589999999999996,0.0,-8.401,2.279,-2.241,-2.951,3.077,-2.301,-9.218,1.8330000000000002,-1.9180000000000001,-3.089,3.2939999999999996,-1.8259999999999998,-2.226,1.956,-1.8630000000000002,-2.698,3.366,0.0,3.1289999999999996,1.494,-2.188,-2.678,3.299,1.9240000000000002,2.753,1.702,-2.47,-3.1689999999999996,3.15,1.4669999999999999,3.341,2.694,-2.072,-3.844,3.0,0.0,3.042,2.576,-1.354,-3.9210000000000003,3.035,1.022,1.249,1.8659999999999999,-0.9590000000000001,-3.502,3.1630000000000003,1.81,0.7509999999999999,0.0,-0.8059999999999999,-3.3489999999999998,3.344,-0.6829999999999999,0.6829999999999999,0.0,-0.69,-3.4939999999999998,3.31,0.992,-1.9409999999999998,0.0,0.0,-3.362,2.799,1.85,-1.508,-0.735,0.0,-3.3339999999999996,2.406,1.286,-1.228,-0.968,0.0,-3.015,2.428,0.0,-0.7759999999999999,-0.9059999999999999,0.0,-2.403,2.594,0.52,-0.608,-0.919,0.0,-1.53,2.911,1.327,-2.465,-1.5419999999999998,0.8170000000000001,-0.722,2.8139999999999996,2.695,-1.923,-1.672,0.8140000000000001,0.0,2.4019999999999997,3.0069999999999997,-1.426,-1.736,0.755,-0.7879999999999999,2.39,3.263,-1.504,-1.71,0.6809999999999999,-1.324,2.387,3.398,-1.6869999999999998,-1.6340000000000001,0.6920000000000001,-1.626,2.241,3.592,-2.2159999999999997,-2.0869999999999997,0.698,-1.671,1.9780000000000002,3.767,-1.8730000000000002,-2.187,0.5579999999999999,-1.465,1.544,3.485,-1.662,-2.166,0.0,-1.23,1.2930000000000001,3.909,-1.285,-2.148,0.529,-0.861,1.115,4.062,-1.1420000000000001,-2.1590000000000003,0.5429999999999999,-0.649,0.92,3.5389999999999997,-0.619,-1.953,0.0,-0.505,0.711,2.35,0.0,-1.4869999999999999,0.0,0.0,0.584,1.952,0.0,-0.902,0.0,0.0,0.0,1.9969999999999999,0.0,-0.805,0.0,0.0,0.0,1.5959999999999999,0.0,-0.825,0.0,0.0,0.0,1.2590000000000001,0.0,0.0,0.0,0.0,0.0,1.6480000000000001,0.0,0.0,0.0,0.0,0.0,,,,,,,,,,,,,,,,,,,,,,,,,,,,,,,,,,,,,,,,,,,,,,,,,,,,,,,,,,,,,,,,,,,,,,,,,,,,,,,,,,,,,,,,,,,,,,,,,,,,,,,,,,,,,,,,,,,,,,,,,,,,,,,,,,,,,,,,,,,,,,,,,,,,,,,,,,,,,,,,,,,,,,,,,,,,,,,,,,,,,,,,,,,,,,,,,,,,,,,,,,,,,pullUp
accX,-1.263,-4.093999999999999,-1.29,-1.177,0.0,0.662,-1.001,-4.697,-1.175,-1.3869999999999998,-0.53,0.888,-1.415,-4.323,0.0,-1.392,0.0,0.9740000000000001,-0.975,-4.621,0.0,-1.181,0.0,0.9279999999999999,-1.101,-4.1080000000000005,-0.7,-1.05,-0.62,0.966,-1.801,-5.284,0.0,-1.345,-0.728,1.07,-2.084,-5.112,0.0,-1.301,-0.568,1.167,-1.5090000000000001,-4.913,0.0,-1.182,-0.523,1.268,-2.123,-4.981,0.0,-0.998,-0.618,1.4409999999999998,-3.093,-5.665,-1.196,-1.07,-0.8740000000000001,1.6059999999999999,-4.185,-6.542000000000001,-1.465,-1.4580000000000002,-1.232,1.8519999999999999,-5.055,-6.598,-1.286,-1.5030000000000001,-1.22,2.166,-5.056,-7.319,-0.894,-1.412,-1.0590000000000002,2.506,-4.06,-8.38,-0.659,-1.4340000000000002,-1.135,2.747,-2.713,-9.402999999999999,0.0,-1.601,-1.6030000000000002,2.984,-1.81,-10.189,0.98,-1.671,-2.197,3.194,0.0,-10.517000000000001,2.072,-1.482,-2.552,3.241,0.0,2.4659999999999997,2.174,-1.38,-2.6630000000000003,3.13,-1.003,4.783,1.483,-1.208,-2.488,3.161,-2.513,5.197,0.758,-1.131,-2.1959999999999997,3.342,-0.8690000000000001,2.8480000000000003,0.0,-1.605,-2.237,3.577,3.799,0.0,0.737,-2.289,-2.898,3.431,5.742000000000001,0.711,1.942,-2.242,-3.747,3.0039999999999996,3.471,2.487,2.571,-1.109,-3.8,2.439,0.0,3.304,2.244,0.0,-3.2110000000000003,2.355,-1.7369999999999999,2.6260000000000003,1.57,0.5760000000000001,-2.46,2.852,0.7979999999999999,0.0,0.0,0.0,-2.373,2.784,0.5529999999999999,-0.8370000000000001,-0.726,0.0,-2.315,2.5269999999999997,-1.992,1.135,-0.917,0.0,-1.18,2.737,-1.555,0.0,-0.9840000000000001,0.958,0.0,3.214,0.0,-1.82,-1.315,0.975,0.0,3.553,2.9419999999999997,-4.32,-2.4930000000000003,0.0,0.0,3.305,3.9810000000000003,-3.267,-2.803,0.0,0.0,2.819,3.9560000000000004,-2.269,-2.4459999999999997,0.0,-0.555,2.565,3.77,-2.332,-2.2030000000000003,0.0,0.0,2.439,4.572,-2.312,-1.683,0.0,0.0,2.3930000000000002,5.075,-2.0780000000000003,-1.34,0.0,0.0,2.226,5.181,-1.399,-1.003,0.0,0.0,1.982,4.762,-1.335,-1.042,0.0,-0.7559999999999999,1.75,4.546,-1.5530000000000002,-1.146,0.541,-0.895,1.276,4.021,-1.3969999999999998,-1.3659999999999999,0.0,-0.9109999999999999,0.693,3.0589999999999997,0.0,-1.136,0.0,-0.831,0.0,1.505,0.0,-0.66,0.0,-0.597,0.0,0.7340000000000001,0.845,0.0,0.0,0.0,0.0,1.288,0.579,0.0,0.0,0.0,0.0,1.966,0.0,0.0,0.0,0.0,0.0,2.062,0.0,0.0,0.0,0.0,0.0,2.021,-0.6459999999999999,0.0,0.0,0.0,0.0,2.6630000000000003,-0.8640000000000001,-0.642,0.0,0.0,0.0,3.0210000000000004,-1.8880000000000001,-1.504,0.0,0.0,0.0,,,,,,,,,,,,,,,,,,,,,,,,,,,,,,,,,,,,,,,,,,,,,,,,,,,,,,,,,,,,,,,,,,,,,,,,,,,,,,,,,,,,,,,,,,,,,,,,,,,,,,,,,,,,,,,,,,,,,,,,,,,,,,,,,,,,,,,,,,,,,,,,,,,,,,,,,,,,,,,,,,,,,,,,,,,,,,,,,,,,,pullUp
accX,-0.97,-3.5980000000000003,-1.1420000000000001,-0.767,0.0,0.0,-0.8859999999999999,-3.7030000000000003,-1.064,-1.0490000000000002,0.0,0.6629999999999999,-1.545,-4.078,-1.179,-1.2,-0.507,0.772,-2.004,-3.783,-1.263,-1.153,-0.522,0.738,-2.9410000000000003,-3.9419999999999997,-1.892,-1.052,-0.63,0.865,-4.618,-5.5520000000000005,-2.918,-0.934,-0.863,1.0859999999999999,-5.289,-5.166,-3.5980000000000003,-1.6340000000000001,-1.3969999999999998,1.598,-5.6770000000000005,-6.07,-2.9410000000000003,-1.989,-2.156,1.96,-5.528,-6.785,-1.642,-2.105,-2.455,2.316,-4.904,-7.135,-0.722,-1.901,-2.835,2.641,-3.8080000000000003,-9.291,0.0,-2.186,-3.6839999999999997,2.845,0.0,-10.815999999999999,1.3840000000000001,-2.935,-5.202000000000001,2.915,1.702,-9.517000000000001,3.8169999999999997,-3.3680000000000003,-6.77,2.676,-1.083,-4.029,4.9430000000000005,-2.237,-6.852,2.251,-4.4639999999999995,-1.517,3.58,-0.7440000000000001,-5.646,2.265,-5.356,-1.276,1.7819999999999998,0.0,-4.126,2.986,2.775,-3.897,0.561,0.0,-4.11,3.0860000000000003,2.623,-2.909,0.0,0.0,-4.3069999999999995,2.638,0.8759999999999999,-0.5589999999999999,0.0,0.0,-4.158,2.431,-1.798,0.52,1.034,0.638,-3.455,2.526,-2.451,0.0,0.0,1.225,-2.355,2.9219999999999997,0.0,-2.248,-2.008,1.464,-1.28,3.227,1.161,-2.545,-2.812,1.329,0.0,3.3369999999999997,1.52,-1.537,-2.186,1.1909999999999998,0.0,3.511,1.3630000000000002,-1.749,-1.288,1.093,0.0,3.7880000000000003,1.597,-1.89,-0.532,1.073,0.0,3.748,2.255,-2.42,0.0,1.0170000000000001,0.0,3.553,2.299,-2.772,-0.9059999999999999,0.893,-1.022,3.2569999999999997,3.125,-2.8569999999999998,-1.804,0.8170000000000001,-1.456,3.093,3.052,-2.563,-2.5580000000000003,1.021,-1.244,2.827,3.813,-2.373,-2.8480000000000003,1.198,-0.752,2.7119999999999997,4.715,-2.842,-2.968,1.025,0.0,2.475,5.257999999999999,-2.351,-2.344,0.892,0.0,2.193,5.388999999999999,-2.315,-2.269,0.8109999999999999,0.0,1.8559999999999999,5.527,-1.985,-2.079,0.7559999999999999,0.0,1.285,5.135,-1.764,-2.083,0.508,0.0,0.835,4.428,-0.778,-1.75,0.0,0.0,0.0,3.545,0.0,-1.262,0.0,0.0,0.0,2.165,0.0,-0.659,0.0,0.0,0.0,1.2409999999999999,0.618,0.0,0.0,0.7140000000000001,0.0,1.252,0.938,0.631,0.0,0.956,0.0,1.452,0.0,0.628,0.0,0.8370000000000001,0.0,1.6440000000000001,0.0,0.551,0.0,0.0,0.0,1.6219999999999999,0.0,0.0,0.0,0.0,0.0,1.4409999999999998,0.0,0.622,0.0,0.0,0.0,1.062,0.0,0.0,0.0,0.0,0.0,1.567,-0.871,-0.688,0.0,0.51,0.0,,,,,,,,,,,,,,,,,,,,,,,,,,,,,,,,,,,,,,,,,,,,,,,,,,,,,,,,,,,,,,,,,,,,,,,,,,,,,,,,,,,,,,,,,,,,,,,,,,,,,,,,,,,,,,,,,,,,,,,,,,,,,,,,,,,,,,,,,,,,,,,,,,,,,,,,,,,,,,,,,,,,,,,,,,,,,,,,,,,,,,,,,,,,,,,,,,,,,,,pullUp
accX,-0.899,-4.3,-1.416,-0.764,0.0,0.0,-1.5819999999999999,-4.274,-1.915,-1.104,0.0,0.0,-2.184,-4.331,-2.283,-1.286,0.0,0.637,-3.799,-4.354,-2.71,-1.421,-0.5760000000000001,0.8079999999999999,-4.422,-5.034,-2.782,-1.422,-0.6609999999999999,1.0390000000000001,-5.08,-4.763999999999999,-2.658,-1.4669999999999999,-0.7509999999999999,1.383,-4.823,-5.818,-2.6639999999999997,-1.72,-0.937,1.704,-5.266,-6.62,-2.343,-1.876,-1.286,2.0180000000000002,-5.528,-7.187,-1.879,-2.077,-1.8980000000000001,2.528,-5.175,-8.121,-1.14,-2.1959999999999997,-2.407,2.915,-4.728,-9.205,-0.619,-2.327,-2.635,3.279,-3.076,-10.171,0.0,-2.323,-2.565,3.5269999999999997,-2.635,-10.972999999999999,0.7809999999999999,-2.064,-2.124,3.5010000000000003,-1.76,-9.962,1.505,-1.6230000000000002,-1.561,3.447,0.0,5.936,1.3659999999999999,-1.285,-1.383,3.517,2.6860000000000004,4.258,1.469,-1.307,-1.903,3.407,3.5,3.73,1.6280000000000001,-1.411,-2.784,3.31,2.178,3.458,1.446,-1.2770000000000001,-3.0780000000000003,3.193,2.102,2.9410000000000003,1.245,-0.9590000000000001,-2.987,3.015,1.88,2.13,0.795,-0.61,-2.8819999999999997,2.937,1.182,2.597,0.8320000000000001,0.0,-2.8310000000000004,2.951,0.0,2.182,0.0,0.0,-2.7560000000000002,3.1430000000000002,0.0,0.5710000000000001,0.0,0.0,-2.6430000000000002,3.122,3.892,-2.4090000000000003,-1.194,0.0,-2.648,2.7510000000000003,4.519,-1.295,-1.577,0.0,-2.148,2.414,3.627,0.0,-1.6,0.0,-1.285,2.3409999999999997,2.705,0.0,-1.09,0.0,-0.557,2.425,2.506,0.0,-0.659,0.0,0.0,2.536,2.49,0.0,-0.541,0.0,-0.754,2.489,2.02,0.0,0.0,0.0,-1.178,2.2769999999999997,1.6909999999999998,0.0,-0.513,0.0,-1.4669999999999999,2.178,1.6219999999999999,0.0,-0.732,0.0,-1.614,2.126,2.023,-0.8029999999999999,-0.9640000000000001,0.0,-1.7280000000000002,2.009,1.973,-1.1340000000000001,-1.194,0.0,-1.729,1.767,1.831,-1.015,-1.159,0.0,-1.489,1.565,2.231,-1.041,-1.3719999999999999,0.0,-1.078,1.4,2.8739999999999997,-1.6440000000000001,-1.9780000000000002,0.54,-0.7709999999999999,1.271,3.176,-1.515,-2.162,0.0,-0.629,1.054,2.5980000000000003,-1.128,-1.9969999999999999,0.0,0.0,0.7909999999999999,1.3030000000000002,-0.639,-2.7560000000000002,0.0,0.0,0.703,3.589,-0.639,-1.058,0.0,1.01,0.555,2.8289999999999997,0.0,0.0,0.0,0.685,0.0,1.992,0.0,0.0,0.0,0.0,0.0,1.686,0.0,0.0,0.0,0.0,0.0,1.133,0.0,0.0,0.0,0.0,0.0,1.091,0.512,0.0,0.0,0.0,0.0,1.044,0.0,0.0,0.0,0.0,0.0,1.256,0.0,0.0,0.0,0.0,0.0,1.189,-0.619,-0.584,0.0,0.0,0.0,,,,,,,,,,,,,,,,,,,,,,,,,,,,,,,,,,,,,,,,,,,,,,,,,,,,,,,,,,,,,,,,,,,,,,,,,,,,,,,,,,,,,,,,,,,,,,,,,,,,,,,,,,,,,,,,,,,,,,,,,,,,,,,,,,,,,,,,,,,,,,,,,,,,,,,,,,,,,,,,,,,,,,,,,,,,,,,,,,,,,,,,,,,pullUp
accX,0.0,-3.2310000000000003,0.0,-0.868,0.0,0.0,0.0,-3.239,-0.539,-0.96,0.0,0.536,-1.178,-3.2880000000000003,-1.025,-0.943,0.0,0.514,-1.909,-3.641,-1.463,-0.8079999999999999,0.0,0.58,-2.141,-4.125,-1.7009999999999998,-0.858,0.0,0.696,-2.65,-5.033,-1.6980000000000002,-0.93,-0.502,0.7909999999999999,-3.016,-4.309,-2.08,-1.119,-0.626,0.8740000000000001,-3.7460000000000004,-4.833,-2.563,-1.189,-0.7809999999999999,1.097,-4.797,-5.189,-2.9130000000000003,-1.2770000000000001,-0.948,1.375,-5.226,-5.996,-2.998,-1.567,-1.307,1.931,-5.3229999999999995,-6.893,-2.637,-1.915,-1.7819999999999998,2.311,-5.41,-7.306,-1.534,-2.07,-2.184,2.7689999999999997,-5.675,-8.158,-0.9229999999999999,-2.02,-1.993,3.233,-4.2330000000000005,-9.04,0.0,-1.8330000000000002,-1.555,3.406,-2.428,-9.17,0.0,-1.865,-1.76,3.46,-1.671,-7.04,0.0,-2.133,-2.668,3.654,-1.76,5.5729999999999995,1.2,-2.458,-3.3289999999999997,3.822,-1.514,3.8339999999999996,1.1540000000000001,-2.467,-3.065,3.887,0.8740000000000001,2.451,1.276,-2.332,-3.112,3.785,1.518,2.041,1.9340000000000002,-2.21,-3.807,3.6910000000000003,-1.179,2.645,1.7619999999999998,-1.6019999999999999,-3.5610000000000004,3.742,0.0,0.0,0.647,-1.359,-3.185,3.647,3.502,-1.617,0.0,-1.3630000000000002,-3.48,3.6069999999999998,4.827,-1.6269999999999998,0.0,-0.924,-3.596,3.2680000000000002,3.2710000000000004,-0.527,0.0,0.0,-2.846,3.1460000000000004,2.5989999999999998,-1.062,0.0,0.0,-1.77,3.16,3.5189999999999997,-2.932,-1.195,0.0,-1.271,2.888,4.263999999999999,-2.375,-1.6280000000000001,0.0,-1.315,2.7739999999999996,3.95,-1.6740000000000002,-1.7309999999999999,0.0,-1.35,2.786,3.497,-1.1840000000000002,-1.7109999999999999,0.0,-1.182,2.7239999999999998,3.2110000000000003,-1.041,-1.43,0.0,-0.905,2.656,3.4410000000000003,-1.239,-1.157,0.753,-0.695,2.56,4.024,-1.9269999999999998,-1.183,0.7829999999999999,-0.696,2.351,4.6339999999999995,-2.0869999999999997,-1.169,0.508,-1.058,1.74,4.145,-1.706,-1.093,0.0,-1.3459999999999999,1.4180000000000001,3.437,-1.386,-1.0490000000000002,0.0,-1.2770000000000001,1.082,2.986,-0.807,-0.93,0.0,-1.026,0.833,2.376,0.0,-0.838,0.0,-0.7829999999999999,0.672,1.655,0.0,-0.7,0.0,-0.607,0.5770000000000001,1.412,0.0,-0.516,0.0,0.0,0.51,1.558,0.0,-0.532,0.0,0.0,0.0,1.5219999999999998,0.0,-0.515,0.0,0.0,0.0,1.624,0.0,-0.6709999999999999,0.0,0.0,0.0,1.689,-0.574,-0.653,0.0,0.0,0.0,1.67,0.0,-0.679,0.0,0.0,0.0,1.679,-0.6,0.0,0.0,0.0,0.0,0.81,-0.6709999999999999,-0.741,0.0,0.0,0.0,,,,,,,,,,,,,,,,,,,,,,,,,,,,,,,,,,,,,,,,,,,,,,,,,,,,,,,,,,,,,,,,,,,,,,,,,,,,,,,,,,,,,,,,,,,,,,,,,,,,,,,,,,,,,,,,,,,,,,,,,,,,,,,,,,,,,,,,,,,,,,,,,,,,,,,,,,,,,,,,,,,,,,,,,,,,,,,,,,,,,,,,,,,,,,,,,,,,,,,pullUp
accX,-1.001,-3.912,-0.9490000000000001,-0.784,0.0,0.524,-1.51,-3.708,-0.865,-0.9520000000000001,0.0,0.6890000000000001,-2.504,-4.143,-1.986,-1.0590000000000002,0.0,0.8420000000000001,-3.549,-4.353,-2.48,-1.0270000000000001,-0.54,0.965,-4.004,-5.129,-2.6189999999999998,-1.1340000000000001,-0.7559999999999999,1.202,-3.7119999999999997,-5.749,-3.003,-1.405,-1.054,1.496,-3.9989999999999997,-6.891,-2.3,-1.766,-1.544,1.6269999999999998,-4.708,-6.891,-1.685,-2.121,-2.153,1.965,-5.812,-7.236000000000001,-1.163,-2.215,-2.3040000000000003,2.3569999999999998,-5.119,-8.269,-0.7859999999999999,-2.023,-2.0380000000000003,2.7110000000000003,-4.151,-9.506,-0.624,-1.964,-1.9969999999999999,3.1060000000000003,-2.91,-10.921,0.0,-2.229,-2.906,3.307,-1.876,-10.894,1.443,-2.207,-3.6180000000000003,3.5839999999999996,-3.077,-6.375,1.7830000000000001,-1.682,-3.093,3.766,-2.59,0.0,1.2590000000000001,-0.9159999999999999,-1.755,3.847,-1.7530000000000001,1.739,0.0,-0.7909999999999999,-1.24,3.8369999999999997,0.0,1.015,0.0,-1.212,-1.875,3.823,3.747,0.0,1.3769999999999998,-1.614,-3.177,3.878,3.3080000000000003,1.436,2.012,-0.877,-3.4360000000000004,3.772,1.525,1.5830000000000002,1.178,0.0,-2.509,3.733,0.0,1.4480000000000002,0.0,0.754,-1.4340000000000002,3.827,1.475,-0.878,0.0,0.552,-1.058,3.7119999999999997,5.558,-2.339,0.0,0.0,-1.734,3.7239999999999998,5.62,-2.029,0.0,0.0,-2.322,3.508,4.39,-1.14,0.0,0.0,-2.452,3.062,2.445,0.0,0.544,0.8029999999999999,-2.169,2.803,1.69,-0.823,0.0,0.97,-1.694,2.625,2.334,-1.8090000000000002,-1.551,0.772,-1.4080000000000001,2.448,2.5989999999999998,-2.052,-2.0909999999999997,0.0,-1.061,2.291,2.184,-1.3219999999999998,-1.9080000000000001,0.0,0.0,2.157,2.276,-1.285,-1.4869999999999999,0.0,0.0,2.0780000000000003,2.334,-1.2890000000000001,-1.13,0.0,0.0,2.0580000000000003,2.41,-1.218,-0.862,0.0,0.0,2.0469999999999997,2.371,-1.1520000000000001,-0.6970000000000001,0.0,0.0,2.009,2.503,-1.094,0.0,0.0,0.0,1.765,2.633,-1.085,0.0,0.0,0.0,1.214,2.41,-1.0859999999999999,0.0,0.0,0.0,0.987,2.345,-0.868,0.0,0.0,0.0,0.8740000000000001,2.283,-0.9279999999999999,0.0,0.0,0.0,0.762,2.011,-0.7170000000000001,0.0,0.0,0.0,0.573,1.528,-1.0070000000000001,-0.6990000000000001,0.0,0.0,0.0,1.186,0.0,-0.601,0.0,0.0,0.0,0.9540000000000001,0.0,0.0,0.0,0.0,0.0,0.642,0.0,0.0,0.0,0.503,0.0,0.616,0.0,0.0,0.0,0.66,0.0,0.0,0.0,0.0,0.0,0.763,0.0,0.0,0.0,0.0,0.0,0.877,0.0,0.0,0.0,0.0,0.0,0.802,0.0,0.94,0.0,0.0,0.0,0.5329999999999999,0.0,1.073,-0.74,0.0,0.0,0.0,0.0,1.07,-0.9690000000000001,0.0,-0.522,0.0,0.0,1.054,-0.941,-0.62,-0.5579999999999999,0.0,0.0,0.8170000000000001,-0.977,-0.976,-0.532,0.0,0.0,1.0,-1.492,-1.5290000000000001,0.0,0.0,-0.789,0.879,-1.4409999999999998,-1.837,-0.591,1.079,-1.128,1.5,-0.805,-1.5730000000000002,-0.7959999999999999,1.7619999999999998,-1.227,,,,,,,,,,,,,,,,,,,,,,,,,,,,,,,,,,,,,,,,,,,,,,,,,,,,,,,,,,,,,,,,,,,,,,,,,,,,,,,,,,,,,,,,,,,,,,,,,,,,,,,,,,,,,,,,,,,,,,,,,,,,,,,,,,,,,,,,,,,,,,,,,pullUp
accX,-0.978,-4.633,-1.057,-1.1059999999999999,0.0,0.96,-2.004,-4.663,-1.595,-1.3019999999999998,0.0,1.1440000000000001,-3.4160000000000004,-4.534,-2.352,-1.423,-0.585,1.347,-4.311,-5.33,-2.7689999999999997,-1.5390000000000001,-0.895,1.5719999999999998,-3.7510000000000003,-5.82,-1.983,-1.785,-1.138,1.909,-3.51,-6.445,-1.485,-1.896,-1.419,2.1590000000000003,-3.5869999999999997,-6.678,-1.133,-1.883,-1.6880000000000002,2.333,-4.12,-7.1610000000000005,-0.888,-1.841,-2.197,2.623,-4.5489999999999995,-7.88,-0.887,-1.8969999999999998,-2.238,3.013,-3.7880000000000003,-9.302,-0.898,-2.134,-1.9780000000000002,3.2539999999999996,-1.959,-8.965,-0.8440000000000001,-2.614,-1.883,3.1889999999999996,0.0,6.145,0.99,-2.682,-2.478,2.885,0.0,5.425,1.758,-2.221,-3.455,2.721,-1.702,4.378,1.992,-1.7009999999999998,-3.975,2.929,-2.096,3.275,1.775,-1.249,-4.071000000000001,3.2310000000000003,-1.158,1.364,1.197,-1.0959999999999999,-4.105,3.427,1.459,-0.524,1.048,-1.27,-4.45,3.404,2.175,-0.941,0.927,-1.193,-4.513999999999999,3.153,0.867,0.0,0.718,-0.7190000000000001,-3.9139999999999997,3.002,-1.006,0.0,0.0,0.0,-2.883,3.092,-1.892,0.0,0.0,0.0,-1.861,3.429,0.648,-2.323,-1.4040000000000001,0.0,-1.199,3.738,2.635,-2.946,-2.171,0.711,-0.769,3.867,3.908,-3.384,-1.92,0.679,-0.645,3.753,4.931,-3.611,-1.189,0.0,-1.013,3.5389999999999997,4.949,-3.6310000000000002,-0.9179999999999999,0.0,-1.524,3.1889999999999996,4.732,-2.778,-0.988,0.0,-1.974,2.873,4.092,-2.151,-1.476,0.7390000000000001,-2.1390000000000002,2.675,3.852,-1.8430000000000002,-2.02,1.0290000000000001,-1.784,2.679,4.691,-3.028,-2.807,1.023,-1.287,2.509,6.098,-4.156000000000001,-3.5469999999999997,0.536,-1.185,1.817,5.976,-3.1319999999999997,-3.267,0.0,-1.203,0.768,1.975,-1.9380000000000002,-1.946,0.0,-0.5479999999999999,0.0,0.77,0.0,-1.084,0.0,0.0,0.0,0.86,0.541,0.0,0.0,0.631,0.0,0.861,0.0,0.0,0.0,0.665,0.529,1.252,0.0,0.534,0.0,0.0,0.638,1.187,0.0,0.777,0.0,0.0,0.634,1.0759999999999998,0.0,0.825,0.0,0.0,0.544,0.632,0.0,0.727,0.0,0.0,0.578,0.8240000000000001,0.0,0.537,0.0,0.0,0.654,1.266,-0.701,0.0,0.0,0.0,0.6659999999999999,1.828,-1.469,0.0,0.0,0.0,0.583,2.042,-1.499,0.0,0.0,0.0,0.0,2.293,-1.035,0.0,0.0,0.0,0.0,2.383,-1.0,-0.9470000000000001,0.0,0.0,0.0,2.3480000000000003,-1.3940000000000001,-1.4269999999999998,0.0,0.0,0.0,2.116,-1.311,-1.5130000000000001,0.0,0.0,0.0,2.075,-1.137,-1.3630000000000002,0.0,0.0,-0.525,2.039,-1.004,-1.17,0.0,0.5660000000000001,-0.635,1.905,-1.492,-1.22,0.0,0.684,-0.792,1.3969999999999998,-1.732,-1.585,0.0,0.9590000000000001,-1.042,0.0,-1.595,-1.875,-0.611,1.5030000000000001,-1.2329999999999999,,,,,,,,,,,,,,,,,,,,,,,,,,,,,,,,,,,,,,,,,,,,,,,,,,,,,,,,,,,,,,,,,,,,,,,,,,,,,,,,,,,,,,,,,,,,,,,,,,,,,,,,,,,,,,,,,,,,,,,,,,,,,,,,,,,,,,,,,,,,,,,,,,,,,,,,,,,,,,,,,,,pullUp
accX,0.0,-4.312,0.0,-0.713,0.0,0.0,0.0,-4.221,0.0,-0.835,0.0,0.0,-0.632,-4.071000000000001,0.0,-0.885,0.0,0.532,-0.617,-4.353,0.0,-0.774,0.0,0.0,-0.802,-4.599,-0.6459999999999999,-0.861,0.0,0.0,-1.6480000000000001,-4.677,-1.013,-1.016,0.0,0.0,-2.0780000000000003,-4.926,-1.222,-1.103,0.0,0.5870000000000001,-2.376,-5.122000000000001,-1.1520000000000001,-1.146,0.0,0.772,-3.134,-5.386,-1.4269999999999998,-1.156,0.0,0.902,-4.159,-5.511,-1.784,-1.219,-0.561,1.087,-5.127999999999999,-5.977,-2.16,-1.328,-0.784,1.391,-5.532,-6.772,-2.324,-1.5419999999999998,-1.058,2.062,-5.276,-7.803999999999999,-1.825,-1.992,-1.392,2.478,-4.955,-8.195,-0.925,-2.013,-1.3659999999999999,2.7230000000000003,-4.309,-8.581,0.0,-1.819,-1.196,2.9019999999999997,-3.095,-9.095,0.0,-1.798,-1.348,3.054,-1.806,-10.295,0.0,-2.1109999999999998,-1.9069999999999998,3.072,-1.79,-6.231,0.0,-2.325,-2.095,3.2110000000000003,-1.159,6.485,1.317,-2.073,-1.652,3.3489999999999998,0.0,5.875,1.357,-1.624,-0.929,3.3280000000000003,0.89,5.147,0.862,-1.439,-0.804,3.165,1.465,4.032,0.653,-1.76,-1.569,3.0389999999999997,2.895,2.269,1.149,-2.33,-2.968,3.03,1.198,2.864,1.506,-2.3040000000000003,-3.628,3.0410000000000004,0.0,2.5269999999999997,1.194,-1.661,-3.0010000000000003,3.133,-0.726,2.435,0.7140000000000001,-0.8270000000000001,-1.86,3.236,-0.5489999999999999,1.3119999999999998,0.0,-0.53,-1.215,3.412,1.185,-0.769,0.0,-0.8740000000000001,-1.3969999999999998,3.4389999999999996,2.742,-1.743,0.0,-1.24,-2.103,3.323,2.476,-1.273,0.0,-1.189,-2.5269999999999997,3.23,1.6369999999999998,-0.9840000000000001,0.0,-0.784,-2.445,3.26,1.632,-1.298,0.0,0.0,-1.9880000000000002,3.272,2.739,-2.966,-0.81,0.0,-1.591,3.1,4.227,-3.8139999999999996,-1.6680000000000001,0.0,-1.61,2.7710000000000004,5.252000000000001,-3.2319999999999998,-1.828,0.0,-1.874,2.552,5.561,-3.082,-1.781,0.0,-1.921,2.354,5.685,-2.892,-1.732,0.0,-1.4480000000000002,1.973,5.73,-2.633,-1.7169999999999999,0.0,-1.085,1.476,4.641,-1.931,-1.4969999999999999,0.0,-0.818,0.823,3.072,-0.853,-1.2229999999999999,0.0,0.0,0.0,2.153,0.0,-0.9229999999999999,0.0,0.0,0.0,1.575,0.0,-0.599,0.0,0.0,0.0,1.341,0.0,0.0,0.0,0.0,0.0,1.19,0.0,0.0,0.0,0.0,0.0,1.8159999999999998,0.0,0.0,0.0,0.0,0.0,2.14,0.0,0.0,0.0,0.0,0.0,2.309,0.0,0.0,0.0,0.0,0.0,2.6060000000000003,-0.795,0.0,0.0,0.0,0.0,2.207,0.0,0.0,0.0,0.0,0.0,1.7269999999999999,0.0,0.0,0.0,0.0,0.0,1.16,-1.0590000000000002,-0.7979999999999999,0.0,0.64,0.0,1.4569999999999999,-1.2229999999999999,-1.273,0.0,1.075,-0.561,,,,,,,,,,,,,,,,,,,,,,,,,,,,,,,,,,,,,,,,,,,,,,,,,,,,,,,,,,,,,,,,,,,,,,,,,,,,,,,,,,,,,,,,,,,,,,,,,,,,,,,,,,,,,,,,,,,,,,,,,,,,,,,,,,,,,,,,,,,,,,,,,,,,,,,,,,,,,,,,,,,,,,,,,pullUp
accX,0.0,-3.611,0.0,0.0,0.0,0.0,-0.705,-3.362,-0.6859999999999999,0.0,0.0,0.0,-0.816,-3.9339999999999997,-0.958,-0.5479999999999999,0.0,0.0,-1.456,-4.062,-0.9540000000000001,-0.607,0.0,0.0,-1.525,-4.487,-1.238,-0.625,0.0,0.0,-2.015,-4.707,-1.508,-0.7070000000000001,0.0,0.0,-2.447,-4.828,-1.8219999999999998,-0.795,0.0,0.645,-3.113,-5.189,-2.121,-0.9490000000000001,0.0,0.81,-3.81,-5.31,-2.269,-1.114,-0.514,1.05,-4.212,-6.023,-2.237,-1.238,-0.604,1.317,-3.985,-6.477,-1.817,-1.47,-0.6509999999999999,1.6219999999999999,-3.844,-6.66,-1.5759999999999998,-1.58,-0.626,1.831,-3.9160000000000004,-6.856,-1.567,-1.632,-0.753,2.053,-3.9389999999999996,-7.638999999999999,-1.463,-1.8,-1.222,2.33,-4.648,-8.103,-1.084,-2.065,-1.8219999999999998,2.676,-4.649,-9.332,-0.516,-2.117,-1.794,3.0260000000000002,-2.885,-9.902999999999999,0.0,-1.933,-1.249,3.185,-0.537,-8.498,0.75,-1.885,-1.33,3.2039999999999997,-1.044,7.709,1.145,-1.838,-1.771,3.425,-3.153,6.8229999999999995,0.0,-1.663,-1.224,3.475,-2.115,4.572,0.0,-1.966,-0.767,3.407,1.7830000000000001,3.1489999999999996,0.76,-2.332,-1.3769999999999998,3.408,4.711,2.906,2.266,-2.147,-2.785,3.342,3.2960000000000003,3.447,2.785,-1.47,-3.801,3.322,0.0,2.707,1.671,-0.89,-3.429,3.222,-1.264,1.194,0.0,-0.856,-2.405,3.188,1.683,-0.599,0.0,-1.07,-1.905,3.24,2.603,-0.659,0.0,-1.05,-1.776,3.175,2.967,0.0,0.0,0.0,-1.808,3.109,1.338,0.0,0.0,0.0,-1.515,3.158,0.883,0.0,0.0,0.0,-1.15,3.2569999999999997,1.218,-1.5719999999999998,0.0,0.0,-1.074,3.2260000000000004,2.209,-2.333,-0.884,0.0,-1.261,3.26,2.701,-2.2569999999999997,-1.103,0.0,-1.425,3.2510000000000003,3.236,-1.9780000000000002,-0.9309999999999999,0.0,-1.3840000000000001,3.133,3.514,-2.3369999999999997,-1.072,0.0,-1.213,3.213,4.489,-3.195,-1.141,0.0,-1.089,3.174,5.551,-3.772,-1.358,0.0,-1.1,2.72,6.024,-3.483,-1.584,0.0,-1.162,2.1069999999999998,5.542000000000001,-2.88,-1.4609999999999999,0.0,-1.064,1.445,4.053,-2.04,-1.131,0.0,-0.616,0.802,2.452,-0.644,0.0,0.0,0.0,0.73,2.182,0.0,0.0,0.0,0.0,0.7340000000000001,1.757,0.0,0.0,0.0,0.0,0.645,1.375,0.0,0.0,0.0,0.0,0.594,1.8230000000000002,0.0,0.0,0.0,0.0,0.5720000000000001,2.529,-0.5770000000000001,0.0,0.0,0.0,0.0,2.48,-0.645,0.0,0.0,0.0,0.0,1.844,-0.563,0.0,0.0,0.0,0.0,1.751,0.0,0.0,0.0,0.0,0.0,1.709,-0.638,0.0,0.0,0.0,0.0,2.1069999999999998,-1.062,0.0,0.0,0.0,0.0,2.7769999999999997,-1.4,-0.831,0.0,0.0,0.0,,,,,,,,,,,,,,,,,,,,,,,,,,,,,,,,,,,,,,,,,,,,,,,,,,,,,,,,,,,,,,,,,,,,,,,,,,,,,,,,,,,,,,,,,,,,,,,,,,,,,,,,,,,,,,,,,,,,,,,,,,,,,,,,,,,,,,,,,,,,,,,,,,,,,,,,,,,,,,,,,,,pullUp
accX,-1.495,-5.073,-1.905,-0.998,0.0,0.0,-1.4809999999999999,-4.232,-1.149,-1.153,0.0,0.522,-0.73,-4.58,-0.688,-1.097,0.0,0.611,-1.102,-4.823,0.0,-1.122,0.0,0.6679999999999999,-1.7530000000000001,-4.798,-0.7340000000000001,-1.1420000000000001,-0.519,0.823,-2.858,-4.952,-1.485,-1.167,-0.585,0.946,-3.48,-5.374,-1.92,-1.248,-0.596,1.1059999999999999,-3.677,-6.029,-1.925,-1.425,-0.6679999999999999,1.345,-3.427,-6.4670000000000005,-1.588,-1.617,-0.805,1.5930000000000002,-3.989,-6.725,-1.355,-1.712,-1.016,1.824,-4.613,-7.185,-1.23,-1.726,-1.105,2.073,-4.618,-7.654,-0.816,-1.7719999999999998,-1.004,2.395,-3.2969999999999997,-8.526,0.0,-1.817,-0.833,2.695,-1.245,-8.873,0.0,-1.973,-0.875,2.853,0.0,-7.945,0.637,-2.144,-1.321,2.852,-0.767,-2.4,0.8009999999999999,-2.198,-1.5630000000000002,2.867,-0.895,6.612,0.8370000000000001,-1.965,-1.17,2.9589999999999996,0.0,6.71,0.7,-2.059,-1.255,2.949,1.067,5.343999999999999,0.745,-2.419,-1.71,2.9210000000000003,0.816,5.216,1.0979999999999999,-2.551,-2.237,2.917,0.0,5.223,1.587,-2.2769999999999997,-2.778,2.8819999999999997,0.0,3.821,1.7790000000000001,-2.036,-3.286,2.8939999999999997,0.759,2.52,1.979,-1.88,-3.852,3.05,0.752,1.506,1.93,-1.6569999999999998,-4.067,2.969,0.716,0.595,1.67,-1.315,-3.9160000000000004,2.7119999999999997,0.0,0.8320000000000001,1.5,-0.809,-3.443,2.6319999999999997,-0.9159999999999999,0.912,1.242,0.0,-2.698,2.72,-1.1,0.0,0.561,0.0,-1.955,2.833,0.0,-1.7530000000000001,0.0,0.0,-1.334,2.838,1.8330000000000002,-1.7630000000000001,-0.7090000000000001,0.0,-0.988,3.0069999999999997,2.8989999999999996,-1.905,-1.136,0.9109999999999999,-0.7490000000000001,3.1660000000000004,3.852,-2.722,-1.284,1.025,-0.748,3.283,4.841,-3.353,-1.159,0.996,-0.937,3.238,5.695,-3.341,-1.31,1.0290000000000001,-1.294,3.035,6.211,-3.266,-1.693,1.058,-1.676,2.628,5.9110000000000005,-3.215,-2.13,0.9620000000000001,-1.6880000000000002,2.065,5.501,-2.9530000000000003,-2.56,0.687,-1.382,1.535,4.614,-1.9140000000000001,-2.551,0.0,-0.885,1.1340000000000001,3.5980000000000003,-1.0490000000000002,-2.2430000000000003,0.0,0.0,0.946,2.76,0.0,-1.735,0.0,0.0,0.852,2.18,0.0,-1.3030000000000002,0.0,0.0,0.885,2.1790000000000003,0.0,-0.5379999999999999,0.0,0.708,0.9440000000000001,2.864,0.0,0.0,0.0,0.527,0.963,2.862,0.0,0.0,0.0,0.0,0.705,1.551,0.0,0.0,0.0,0.0,0.0,0.625,0.0,0.0,0.0,0.0,0.0,1.1059999999999999,0.0,0.0,0.0,0.0,0.5720000000000001,1.795,-0.917,0.0,0.0,0.0,0.604,1.745,-0.5329999999999999,0.0,0.0,0.0,0.0,2.028,0.0,0.628,0.0,0.0,0.0,,,,,,,,,,,,,,,,,,,,,,,,,,,,,,,,,,,,,,,,,,,,,,,,,,,,,,,,,,,,,,,,,,,,,,,,,,,,,,,,,,,,,,,,,,,,,,,,,,,,,,,,,,,,,,,,,,,,,,,,,,,,,,,,,,,,,,,,,,,,,,,,,,,,,,,,,,,,,,,,,,,,,,,,,,,,,,,,,,,,,pullUp
accX,-0.9570000000000001,-4.7219999999999995,-0.987,-0.813,0.0,0.0,-1.245,-4.865,-1.337,-1.0290000000000001,0.0,0.59,-2.708,-4.638999999999999,-1.5130000000000001,-1.197,0.0,0.715,-3.748,-5.247999999999999,-2.378,-1.131,0.0,0.835,-4.812,-6.037000000000001,-3.227,-1.347,0.0,1.092,-5.778,-7.437,-3.259,-1.615,0.0,1.3230000000000002,-5.26,-7.216,-2.759,-2.0180000000000002,-0.5720000000000001,1.626,-4.731,-7.848,-2.0269999999999997,-2.2430000000000003,-0.605,1.916,-4.414,-7.917000000000001,-1.42,-2.299,-0.6,2.255,-4.127,-8.252,-0.7909999999999999,-2.254,-0.682,2.611,-3.766,-8.546,0.0,-2.316,-1.078,2.897,-3.253,-8.718,0.0,-2.3930000000000002,-1.4169999999999998,3.148,-2.501,-7.67,0.865,-2.403,-1.403,3.384,-0.963,-2.271,0.9,-2.247,-0.9229999999999999,3.427,0.0,3.8539999999999996,1.165,-2.235,-0.701,3.306,0.0,5.465,1.301,-2.235,-0.8420000000000001,3.282,1.4469999999999998,5.309,1.62,-2.362,-1.55,3.367,1.3869999999999998,4.455,1.8840000000000001,-2.354,-2.4419999999999997,3.3560000000000003,1.044,4.462,2.219,-1.945,-2.594,3.3560000000000003,0.653,3.6910000000000003,1.86,-1.4980000000000002,-2.55,3.4410000000000003,0.7120000000000001,2.498,1.574,-1.226,-2.5980000000000003,3.5580000000000003,1.1540000000000001,0.934,0.956,-1.219,-2.667,3.515,1.71,0.0,0.534,-1.359,-2.541,3.4619999999999997,0.82,0.0,0.0,-1.141,-1.8659999999999999,3.3560000000000003,1.335,0.0,0.0,-0.708,-1.199,3.438,2.398,-1.008,0.0,0.0,-0.743,3.385,4.547,-2.365,-0.5489999999999999,0.0,-0.642,3.1839999999999997,4.832,-2.2119999999999997,-0.5820000000000001,0.0,-0.679,3.0239999999999996,4.848,-1.976,0.0,0.0,-0.669,2.8160000000000003,4.546,-1.758,0.0,0.0,-0.5429999999999999,2.615,4.962,-2.037,0.0,0.0,-0.5760000000000001,2.3930000000000002,5.407,-2.131,-0.679,0.0,-0.7440000000000001,2.125,5.51,-1.9369999999999998,-0.802,0.0,-0.934,1.745,4.905,-1.5619999999999998,-0.6990000000000001,0.0,-0.9470000000000001,1.321,4.004,-0.519,0.0,0.0,-0.662,0.976,2.9789999999999996,0.0,0.0,0.0,0.0,0.792,2.082,0.0,0.0,0.0,0.0,0.778,1.61,0.0,0.0,0.0,0.0,0.935,1.579,0.0,0.0,0.0,-0.654,1.025,1.818,0.0,0.0,0.0,-0.742,0.868,1.183,0.7609999999999999,0.5489999999999999,0.0,-0.568,0.779,2.064,0.0,0.0,0.0,-0.519,0.775,3.252,-1.413,-1.248,0.0,-0.574,0.0,2.399,-0.852,-0.779,-0.757,0.0,0.0,1.8159999999999998,0.0,0.0,0.0,0.0,0.0,2.073,-0.609,0.0,0.0,0.66,0.0,,,,,,,,,,,,,,,,,,,,,,,,,,,,,,,,,,,,,,,,,,,,,,,,,,,,,,,,,,,,,,,,,,,,,,,,,,,,,,,,,,,,,,,,,,,,,,,,,,,,,,,,,,,,,,,,,,,,,,,,,,,,,,,,,,,,,,,,,,,,,,,,,,,,,,,,,,,,,,,,,,,,,,,,,,,,,,,,,,,,,,,,,,,,,,,,,,,,,,,,,,,,,pullUp
accX,-1.51,-3.5980000000000003,-1.028,-1.213,0.0,0.507,-2.315,-3.6689999999999996,-1.771,-0.97,0.0,0.574,-2.6719999999999997,-4.593999999999999,-2.7030000000000003,-1.055,0.0,0.81,-3.6630000000000003,-5.157,-3.6910000000000003,-1.4340000000000002,-0.7440000000000001,1.018,-4.6160000000000005,-5.84,-3.7889999999999997,-1.8969999999999998,-1.2009999999999998,1.395,-5.476,-6.176,-3.088,-2.207,-1.631,1.761,-5.4079999999999995,-7.112,-2.6460000000000004,-2.25,-1.869,2.137,-5.5889999999999995,-8.599,-2.639,-2.475,-2.184,2.371,-6.058,-8.774,-1.709,-2.841,-2.2569999999999997,2.637,-5.101,-9.299,0.0,-2.843,-2.1109999999999998,3.048,-1.864,-11.177999999999999,1.055,-2.654,-1.9769999999999999,3.258,0.929,-12.06,2.4130000000000003,-2.787,-2.5869999999999997,3.386,1.075,-8.652999999999999,3.052,-2.734,-3.154,3.431,-0.5760000000000001,1.571,2.4459999999999997,-2.4130000000000003,-3.13,3.409,0.0,3.16,2.221,-1.858,-2.539,3.4139999999999997,2.266,2.637,2.094,-1.119,-1.935,3.403,4.427,1.6440000000000001,1.558,-0.649,-2.305,3.384,4.239,1.238,1.4269999999999998,-0.745,-3.3369999999999997,3.09,1.505,1.776,1.1420000000000001,-0.938,-4.053999999999999,2.948,-1.798,2.117,0.0,-0.55,-3.05,3.04,0.0,1.069,-0.5329999999999999,0.0,-1.18,3.074,3.6489999999999996,-0.8809999999999999,-0.7490000000000001,0.0,0.0,2.984,4.678,-1.155,-0.502,0.0,-0.604,2.66,3.597,0.0,0.0,0.0,-0.9790000000000001,2.494,1.392,0.897,0.0,0.0,-0.894,2.543,0.0,0.8290000000000001,0.0,0.0,0.0,2.596,1.5530000000000002,-0.568,-0.526,0.0,0.0,2.404,2.16,0.0,-0.6990000000000001,0.0,0.0,2.3819999999999997,2.438,0.0,0.0,0.0,-0.5710000000000001,2.379,2.701,0.0,0.0,0.0,-0.89,2.386,2.617,-0.6890000000000001,0.0,0.0,-1.1640000000000001,2.287,2.763,-0.94,0.0,0.0,-1.317,2.092,2.727,-0.767,-0.609,0.0,-1.392,1.999,2.88,-0.823,-0.93,0.0,-1.4,1.995,2.925,-1.413,-1.198,0.0,-1.273,1.9180000000000001,3.228,-1.276,-1.182,0.0,-1.12,1.82,3.355,-0.846,-0.905,0.0,-0.996,1.653,3.116,-0.502,-0.513,0.0,-0.747,1.294,2.455,-0.502,0.0,0.0,0.0,1.151,2.469,0.0,0.0,0.0,0.0,1.1520000000000001,2.716,0.0,0.0,0.0,0.0,1.148,2.826,0.0,0.0,0.0,0.0,1.03,2.0580000000000003,-0.626,-0.573,0.0,0.0,0.805,1.444,0.0,-0.595,0.0,0.0,0.804,1.796,0.0,0.0,0.0,0.0,0.785,2.576,-0.52,0.0,0.0,0.0,0.617,3.734,-1.266,-0.821,0.0,0.0,0.0,2.499,-1.4340000000000002,-1.0,0.0,0.0,0.0,,,,,,,,,,,,,,,,,,,,,,,,,,,,,,,,,,,,,,,,,,,,,,,,,,,,,,,,,,,,,,,,,,,,,,,,,,,,,,,,,,,,,,,,,,,,,,,,,,,,,,,,,,,,,,,,,,,,,,,,,,,,,,,,,,,,,,,,,,,,,,,,,,,,,,,,,,,,,,,,,,,,,,,,,,,,,,,,,,,,,,,,,,,,,,,,,pullUp
accX,-1.048,-4.035,-0.6940000000000001,-0.924,0.0,0.5379999999999999,-1.1059999999999999,-4.578,-1.2830000000000001,-0.858,0.0,0.6609999999999999,-2.747,-4.887,-2.092,-0.981,0.0,0.792,-3.6,-5.224,-2.62,-1.155,0.0,0.9540000000000001,-3.682,-5.5760000000000005,-2.312,-1.3969999999999998,0.0,1.199,-3.608,-5.957999999999999,-2.082,-1.56,0.0,1.469,-3.7060000000000004,-6.277,-1.915,-1.703,-0.8079999999999999,1.7730000000000001,-3.61,-6.9270000000000005,-1.744,-1.874,-1.339,2.129,-4.7780000000000005,-7.695,-1.4380000000000002,-2.189,-1.733,2.39,-4.625,-8.096,-0.953,-2.371,-1.2930000000000001,2.665,-2.638,-8.204,0.0,-2.456,-0.887,2.8,-0.745,-8.618,0.0,-2.3819999999999997,-1.187,2.887,-0.7140000000000001,-7.596,0.855,-2.6010000000000004,-2.151,2.889,-2.4130000000000003,-0.727,0.501,-2.679,-2.597,3.108,-2.065,7.276,0.8590000000000001,-2.528,-2.0069999999999997,3.323,0.0,5.417999999999999,0.9540000000000001,-2.3480000000000003,-1.4469999999999998,3.287,2.431,4.1419999999999995,1.55,-2.352,-1.7109999999999999,3.14,2.716,4.173,2.299,-2.1630000000000003,-2.539,3.077,1.103,4.066,2.04,-1.571,-2.972,3.025,0.0,2.673,1.071,-1.061,-2.74,3.057,1.205,0.629,0.0,-1.053,-2.156,2.935,2.024,0.725,0.535,-1.1159999999999999,-1.921,2.9189999999999996,2.1,1.7930000000000001,1.167,0.0,-1.946,2.937,0.703,1.724,1.206,0.0,-1.7730000000000001,3.108,0.0,0.9540000000000001,0.843,0.0,-1.409,3.338,0.893,-2.092,0.0,0.0,-1.2590000000000001,2.9010000000000002,2.5540000000000003,-1.8130000000000002,-0.534,0.0,-1.3119999999999998,2.8289999999999997,3.418,-1.633,-0.778,0.0,-1.2,2.8280000000000003,3.687,-0.956,0.0,0.0,-0.7609999999999999,2.66,3.905,-1.09,0.0,0.0,-0.525,2.6289999999999996,3.9760000000000004,-1.3230000000000002,0.0,0.539,-0.565,2.526,4.245,-1.472,0.0,0.547,-0.9329999999999999,2.39,4.397,-1.168,0.0,0.0,-1.4380000000000002,2.255,4.192,-1.246,0.0,0.0,-1.827,2.032,3.8310000000000004,-1.097,-0.516,0.0,-1.919,1.746,2.589,-0.662,-0.5429999999999999,0.0,-1.683,1.585,1.633,0.0,-0.507,0.0,-1.143,1.5390000000000001,1.761,0.0,0.0,0.0,-0.629,1.5430000000000001,2.8939999999999997,-0.769,-0.502,0.0,0.0,1.3419999999999999,3.759,-1.2819999999999998,-0.7490000000000001,0.0,0.0,0.902,3.05,-0.795,-0.8079999999999999,0.0,0.0,0.6829999999999999,2.495,0.0,-0.804,0.0,0.0,0.642,2.1630000000000003,0.0,-0.624,0.0,0.0,0.546,2.084,0.0,-0.682,0.0,0.0,0.0,2.045,0.0,-0.733,0.0,0.0,0.0,2.225,0.0,-0.578,0.0,0.0,0.0,2.682,-0.87,0.0,0.0,0.0,0.0,1.5519999999999998,0.0,0.0,0.0,0.0,0.0,,,,,,,,,,,,,,,,,,,,,,,,,,,,,,,,,,,,,,,,,,,,,,,,,,,,,,,,,,,,,,,,,,,,,,,,,,,,,,,,,,,,,,,,,,,,,,,,,,,,,,,,,,,,,,,,,,,,,,,,,,,,,,,,,,,,,,,,,,,,,,,,,,,,,,,,,,,,,,,,,,,,,,,,,,,,,,,,,,,,,,,,,,,,,,,,,pullUp
accX,-2.015,-4.303,-1.618,-0.642,0.0,0.0,-2.662,-4.747,-2.22,-0.991,0.0,0.687,-3.3689999999999998,-4.726,-1.7069999999999999,-1.349,0.0,1.0290000000000001,-3.2439999999999998,-5.375,-1.729,-1.419,0.0,1.2309999999999999,-3.859,-5.678,-1.83,-1.473,0.0,1.485,-4.624,-6.087000000000001,-2.178,-1.546,0.0,1.8259999999999998,-5.245,-7.452000000000001,-2.269,-1.5530000000000002,-0.518,2.103,-5.02,-7.497000000000001,-1.902,-1.7630000000000001,-0.645,2.45,-4.387,-8.552999999999999,-1.379,-1.936,-0.9,2.759,-4.763,-9.056000000000001,-0.9890000000000001,-2.15,-1.306,3.052,-4.921,-10.03,-0.867,-2.228,-1.21,3.2710000000000004,-3.359,-10.530999999999999,0.0,-2.365,-0.7879999999999999,3.4330000000000003,0.0,-8.346,1.247,-2.3930000000000002,-0.523,3.4339999999999997,1.0270000000000001,0.0,1.5919999999999999,-2.169,-0.831,3.4530000000000003,-0.746,6.331,1.075,-1.936,-1.425,3.582,-0.516,4.5680000000000005,0.0,-2.019,-1.631,3.6260000000000003,0.637,3.3760000000000003,1.266,-2.7119999999999997,-1.929,3.525,3.656,4.27,3.636,-2.605,-2.042,3.5789999999999997,3.971,3.786,3.154,-1.157,-2.1519999999999997,3.549,1.159,3.049,1.705,0.0,-2.07,3.502,0.0,2.085,0.586,0.0,-1.425,3.491,0.0,0.645,0.0,-0.6559999999999999,-0.9390000000000001,3.344,1.016,0.868,0.9940000000000001,-1.087,-0.7140000000000001,3.418,2.198,0.787,1.186,-0.5710000000000001,-0.597,3.549,2.164,0.0,0.514,0.0,-0.511,3.5010000000000003,2.311,-1.219,0.0,0.0,0.0,3.3280000000000003,2.454,-1.99,-0.64,-0.544,-0.682,3.133,2.3409999999999997,-2.147,-0.809,-1.0090000000000001,-0.9990000000000001,3.056,2.627,-1.57,0.0,-0.98,-1.036,3.03,3.005,-1.59,0.0,-0.534,-0.856,2.8680000000000003,4.072,-2.515,0.0,0.0,-0.7070000000000001,2.6210000000000004,5.212999999999999,-3.063,0.0,0.0,-0.772,2.387,5.6979999999999995,-2.886,0.0,-0.5870000000000001,-0.9259999999999999,2.113,5.066,-2.435,0.0,-0.7040000000000001,-0.8690000000000001,1.8519999999999999,4.1610000000000005,-1.703,0.0,-0.501,-0.634,1.442,3.41,-0.831,0.0,0.0,-0.5429999999999999,1.135,1.984,0.0,0.0,0.0,0.0,1.1420000000000001,1.0590000000000002,0.0,0.0,0.0,0.0,1.4469999999999998,1.3419999999999999,0.0,0.0,0.0,0.0,1.7280000000000002,2.123,0.0,0.6629999999999999,0.0,0.0,1.535,3.261,0.0,0.851,0.0,0.0,1.2009999999999998,4.336,-1.036,0.0,0.0,0.0,0.871,4.873,-1.858,0.0,0.0,-0.528,0.0,4.346,-1.692,0.0,0.0,-0.622,0.0,2.613,-1.17,0.0,0.0,0.0,0.0,2.075,0.0,0.0,0.0,0.542,0.0,2.867,-0.932,0.0,0.0,0.659,0.0,3.497,-1.479,-0.838,0.0,0.0,-0.602,,,,,,,,,,,,,,,,,,,,,,,,,,,,,,,,,,,,,,,,,,,,,,,,,,,,,,,,,,,,,,,,,,,,,,,,,,,,,,,,,,,,,,,,,,,,,,,,,,,,,,,,,,,,,,,,,,,,,,,,,,,,,,,,,,,,,,,,,,,,,,,,,,,,,,,,,,,,,,,,,,,,,,,,,,,,,,,,,,,,,,,,,,,,,,,,,pullUp
accX,-2.252,-4.556,-2.234,-1.15,0.0,0.705,-2.461,-4.695,-2.068,-1.459,0.0,0.862,-2.5610000000000004,-4.636,-2.051,-1.445,0.0,1.094,-3.66,-4.941,-2.506,-1.48,0.0,1.285,-4.65,-5.456,-3.165,-1.681,-0.645,1.56,-5.468,-6.045,-3.574,-2.013,-0.858,1.943,-5.992000000000001,-7.199,-3.136,-2.316,-1.281,2.218,-5.722,-7.165,-2.263,-2.569,-1.743,2.667,-5.557,-7.657,-1.014,-2.544,-2.021,3.252,-3.4760000000000004,-8.113999999999999,0.0,-2.51,-2.129,3.486,-1.726,-8.142000000000001,1.0759999999999998,-2.513,-2.166,3.625,-0.527,0.9390000000000001,1.7790000000000001,-2.318,-2.489,3.695,-0.76,6.4239999999999995,2.191,-1.932,-2.725,3.763,-0.698,4.419,1.345,-1.4380000000000002,-2.4219999999999997,3.734,1.5219999999999998,2.64,1.054,-1.673,-2.411,3.589,2.55,2.006,1.6780000000000002,-1.9269999999999998,-2.687,3.542,2.945,2.715,2.1,-1.528,-2.815,3.585,2.168,2.006,1.176,0.0,-1.758,3.469,2.984,0.0,0.0,0.0,-0.513,3.3539999999999996,3.947,0.0,0.0,0.0,0.0,3.0839999999999996,2.765,0.816,0.0,0.0,-0.6409999999999999,2.9960000000000004,2.16,0.0,0.0,-0.6409999999999999,-1.147,3.037,2.6839999999999997,0.0,0.0,-0.682,-1.3459999999999999,2.968,3.516,0.0,0.0,0.0,-1.128,2.658,3.4389999999999996,0.0,0.0,0.0,-0.855,2.5,3.12,0.0,0.0,0.0,-0.6459999999999999,2.3930000000000002,2.345,0.0,0.0,0.0,-0.594,2.313,1.7409999999999999,0.0,0.0,0.0,-0.6729999999999999,2.338,0.927,0.0,0.0,0.0,-0.648,2.323,0.958,0.0,0.0,0.0,0.0,2.24,1.444,-0.8320000000000001,-0.507,0.0,0.0,2.174,2.301,-1.168,-0.511,0.0,0.0,2.068,2.502,-1.12,0.0,0.0,0.0,1.939,2.234,-1.051,0.0,0.0,0.0,1.7169999999999999,1.686,-0.757,0.0,0.0,0.0,1.511,1.652,0.0,0.0,0.0,0.0,1.399,1.858,-0.6859999999999999,-0.637,0.0,0.0,1.4140000000000001,2.7089999999999996,-1.113,-0.613,0.0,0.0,1.291,2.779,-0.88,0.0,0.0,0.0,1.097,2.362,-0.608,0.0,0.0,0.0,0.903,2.003,0.0,0.0,0.0,0.0,0.713,1.511,0.0,0.0,0.0,0.0,0.6890000000000001,1.117,0.0,0.0,0.0,0.0,0.8170000000000001,1.848,0.0,0.0,0.0,0.0,0.866,2.577,-0.67,0.0,0.0,0.0,0.6940000000000001,2.524,-0.753,0.0,0.0,0.0,0.0,2.7460000000000004,0.0,0.0,0.0,0.0,0.0,3.05,-0.885,0.0,0.0,0.0,0.0,3.62,-1.76,-0.542,0.0,0.0,0.0,3.016,-2.4,-1.248,-0.532,0.0,-0.9079999999999999,,,,,,,,,,,,,,,,,,,,,,,,,,,,,,,,,,,,,,,,,,,,,,,,,,,,,,,,,,,,,,,,,,,,,,,,,,,,,,,,,,,,,,,,,,,,,,,,,,,,,,,,,,,,,,,,,,,,,,,,,,,,,,,,,,,,,,,,,,,,,,,,,,,,,,,,,,,,,,,,,,,,,,,,,,,,,,,,,,,,,pullUp
accX,0.0,-3.8110000000000004,-1.15,-0.6629999999999999,0.0,0.0,-0.9570000000000001,-3.534,-1.328,-0.62,0.0,0.0,-1.183,-3.728,-1.376,-0.691,0.0,0.0,-1.482,-3.8739999999999997,-1.5490000000000002,-0.747,0.0,0.502,-1.196,-4.41,-1.273,-0.8420000000000001,0.0,0.511,-1.386,-4.329,-1.077,-0.9179999999999999,0.0,0.612,-1.983,-4.592,-1.32,-1.004,0.0,0.75,-3.0469999999999997,-4.813,-1.975,-1.085,0.0,0.934,-4.133,-4.952,-2.9389999999999996,-1.225,0.0,1.2429999999999999,-5.0680000000000005,-6.294,-3.475,-1.609,-0.654,1.51,-5.091,-6.569,-3.0469999999999997,-1.962,-0.9490000000000001,1.901,-4.836,-7.175,-2.017,-2.124,-1.18,2.214,-4.871,-7.457999999999999,-1.483,-2.134,-1.235,2.524,-4.726,-7.843,-1.161,-2.2030000000000003,-1.131,2.931,-2.9960000000000004,-9.135,-0.9159999999999999,-2.272,-1.026,3.091,-1.808,-8.366,0.0,-2.3480000000000003,-0.648,3.057,0.0,-4.803999999999999,0.6409999999999999,-2.383,0.0,3.077,-0.5429999999999999,0.0,0.893,-2.323,-1.024,3.2119999999999997,0.0,3.7460000000000004,1.281,-2.332,-1.726,3.3810000000000002,1.892,3.887,2.053,-2.615,-2.753,3.502,2.988,3.844,3.306,-2.735,-3.53,3.4760000000000004,1.3459999999999999,4.428999999999999,2.795,-2.075,-3.313,3.435,0.0,3.279,1.338,-1.1440000000000001,-2.394,3.438,0.0,1.5490000000000002,0.0,-1.014,-1.9780000000000002,3.505,2.748,0.0,0.536,-1.639,-2.1959999999999997,3.2310000000000003,2.895,1.295,1.7819999999999998,-1.7530000000000001,-2.623,3.409,2.824,1.008,1.4809999999999999,0.0,-2.197,3.3939999999999997,1.088,0.0,0.687,0.0,-1.4580000000000002,3.25,1.338,0.0,0.0,0.643,-0.8740000000000001,3.342,2.269,-1.194,0.0,0.0,-1.07,3.3539999999999996,2.855,-2.148,0.0,0.0,-1.6869999999999998,3.128,1.848,-1.147,0.0,0.0,-2.125,2.89,1.317,-0.8079999999999999,0.0,0.0,-2.02,2.742,1.683,-2.108,-0.8370000000000001,0.0,-1.589,2.74,2.968,-2.745,-1.1079999999999999,0.0,-1.255,2.695,3.708,-2.866,-1.421,0.0,-1.19,2.516,3.3680000000000003,-2.719,-1.176,0.0,-1.0490000000000002,2.155,3.685,-2.103,-0.8220000000000001,0.0,-0.696,1.629,4.213,-1.835,-0.878,0.0,0.0,1.383,3.722,-1.399,-1.462,0.0,0.0,1.05,2.8310000000000004,-0.903,-1.8090000000000002,0.0,0.0,0.92,2.5140000000000002,-0.61,-1.546,0.0,0.0,0.8240000000000001,2.86,0.0,-0.983,0.0,0.0,0.621,2.64,0.0,-0.6509999999999999,0.0,0.605,0.0,2.492,0.0,-0.52,0.0,0.547,0.0,2.785,0.0,0.0,0.0,0.0,0.0,3.302,0.0,0.0,0.0,0.0,0.0,3.176,-0.602,0.0,0.0,0.0,0.0,2.4019999999999997,0.0,0.0,0.0,0.0,0.0,2.678,0.0,0.0,0.0,0.0,0.0,3.07,-1.4909999999999999,-0.703,0.0,0.0,-0.521,,,,,,,,,,,,,,,,,,,,,,,,,,,,,,,,,,,,,,,,,,,,,,,,,,,,,,,,,,,,,,,,,,,,,,,,,,,,,,,,,,,,,,,,,,,,,,,,,,,,,,,,,,,,,,,,,,,,,,,,,,,,,,,,,,,,,,,,,,,,,,,,,,,,,,,,,,,,,,,,,,,,,,,,,,,,,,,pullUp
accX,-2.251,-4.343999999999999,-1.922,-1.1740000000000002,0.0,0.759,-2.927,-4.117,-1.848,-1.219,0.0,0.94,-3.01,-4.7139999999999995,-2.576,-1.306,0.0,1.182,-3.8710000000000004,-5.285,-3.313,-1.505,-0.682,1.594,-4.694,-6.292999999999999,-3.9939999999999998,-1.9769999999999999,-1.3730000000000002,2.076,-5.019,-7.417000000000001,-3.483,-2.613,-2.2119999999999997,2.483,-5.622000000000001,-7.98,-1.849,-3.011,-2.656,2.785,-6.402,-7.5,-0.589,-2.597,-2.1,3.162,-5.5489999999999995,-7.66,0.0,-2.048,-1.262,3.5469999999999997,-3.1860000000000004,-9.01,-0.644,-2.2,-1.338,3.589,-2.059,-8.459,0.0,-2.971,-2.066,3.6430000000000002,-0.6729999999999999,3.889,1.203,-3.293,-2.298,3.69,0.0,7.443,3.148,-2.2880000000000003,-1.409,3.658,1.761,7.03,2.525,-1.014,-0.703,3.571,2.053,5.065,1.12,-0.893,-1.0659999999999998,3.3689999999999998,2.906,3.352,1.004,-1.673,-2.458,3.2460000000000004,2.9360000000000004,2.7710000000000004,1.804,-2.15,-4.114,3.31,-2.775,3.6910000000000003,0.0,-1.44,-3.0389999999999997,3.2960000000000003,-2.736,2.319,0.0,-0.634,-1.224,3.335,0.0,0.0,-0.679,-0.7,0.0,3.5069999999999997,5.347,-2.332,0.0,-1.4240000000000002,-0.7070000000000001,3.588,5.254,-1.555,0.0,-1.896,-1.916,3.477,3.324,0.0,0.519,-1.605,-2.233,2.991,1.234,0.503,0.589,-0.67,-1.699,2.736,0.618,-0.547,0.0,0.0,-0.853,2.88,2.009,-1.66,-0.583,0.0,0.0,3.053,2.8139999999999996,-2.182,-1.0590000000000002,0.0,-0.879,3.04,2.781,-2.201,-1.0859999999999999,0.0,-1.357,2.872,3.278,-2.124,-1.11,0.0,-1.598,2.6310000000000002,3.3939999999999997,-2.189,-1.0979999999999999,0.0,-1.6269999999999998,2.353,3.516,-2.002,-1.122,0.0,-1.482,2.144,3.285,-1.768,-1.193,0.0,-1.261,1.955,3.03,-1.76,-1.247,0.0,-0.879,1.709,2.88,-1.354,-1.0070000000000001,0.0,-0.511,1.3619999999999999,2.39,-0.7829999999999999,-1.102,0.0,0.0,0.9840000000000001,2.469,0.0,-1.0,0.0,0.0,0.9640000000000001,2.477,0.0,-0.745,0.0,0.0,0.924,2.28,0.0,0.0,0.0,0.0,0.888,2.249,0.0,0.0,0.0,0.0,0.8320000000000001,1.635,0.0,0.0,0.0,0.0,0.696,1.444,0.0,0.0,0.0,0.0,0.7120000000000001,1.4569999999999999,0.0,0.0,0.0,0.0,0.857,1.944,0.0,0.0,0.0,0.0,0.8270000000000001,1.8230000000000002,-0.904,0.0,0.0,0.0,0.58,2.293,-1.109,0.0,0.0,0.0,0.0,1.682,-1.178,-0.8759999999999999,0.0,0.0,0.0,,,,,,,,,,,,,,,,,,,,,,,,,,,,,,,,,,,,,,,,,,,,,,,,,,,,,,,,,,,,,,,,,,,,,,,,,,,,,,,,,,,,,,,,,,,,,,,,,,,,,,,,,,,,,,,,,,,,,,,,,,,,,,,,,,,,,,,,,,,,,,,,,,,,,,,,,,,,,,,,,,,,,,,,,,,,,,,,,,,,,,,,,,,,,,,,,,,,,,,,,,,,,pullUp
accX,-2.1719999999999997,-4.5169999999999995,-1.5430000000000001,-1.287,0.0,0.583,-2.077,-4.738,-1.746,-1.268,0.0,0.789,-2.94,-5.189,-2.274,-1.389,0.0,0.9079999999999999,-3.699,-5.5520000000000005,-2.677,-1.604,0.0,1.193,-4.573,-5.32,-2.6180000000000003,-1.64,0.0,1.382,-4.543,-6.437,-2.574,-1.965,0.0,1.7080000000000002,-4.271,-7.109,-2.049,-2.134,0.0,1.94,-4.425,-6.932,-1.54,-2.135,0.0,2.24,-4.378,-7.188,-1.4669999999999999,-2.237,-0.595,2.531,-4.84,-6.724,-1.4140000000000001,-2.371,-0.74,2.8360000000000003,-4.573,-6.263999999999999,-1.006,-2.752,-0.813,3.0989999999999998,-3.28,-3.239,0.0,-2.8169999999999997,-0.924,3.344,-1.639,0.882,1.75,-2.3,-0.932,3.5060000000000002,-1.015,3.5260000000000002,1.29,-1.806,-1.0,3.5460000000000003,-1.119,3.7239999999999998,0.0,-2.105,-1.368,3.535,0.0,3.075,0.621,-2.877,-2.01,3.6010000000000004,0.0,3.315,2.035,-2.82,-2.115,3.693,1.939,3.6430000000000002,2.7,-1.704,-1.9069999999999998,3.734,1.9040000000000001,1.7109999999999999,1.704,-1.15,-1.643,3.639,1.9180000000000001,0.721,1.0490000000000002,-1.276,-1.5490000000000002,3.503,2.095,0.0,0.601,-1.6669999999999998,-1.5430000000000001,3.3939999999999997,1.75,0.0,1.163,-1.286,-1.262,3.508,3.63,0.0,0.903,-0.659,-1.0859999999999999,3.378,3.96,-1.368,0.9670000000000001,-0.648,-1.2309999999999999,3.2289999999999996,4.547,-1.76,0.674,-0.6,-1.464,3.057,4.781000000000001,-2.021,0.0,-0.6759999999999999,-1.943,2.858,4.659,-1.911,0.0,-0.861,-2.441,2.715,4.553,-1.575,0.0,-0.945,-2.742,2.511,3.805,-1.245,0.0,-0.777,-2.728,2.255,4.02,-1.125,0.0,0.0,-2.208,1.899,4.258,-1.3880000000000001,-0.6509999999999999,0.0,-1.726,1.709,4.218,-1.2409999999999999,-0.7559999999999999,0.0,-1.403,1.474,3.528,-0.741,-0.8109999999999999,0.0,-1.207,1.262,1.6569999999999998,0.0,-0.662,0.0,-0.877,1.08,0.6,0.0,0.0,0.0,0.0,0.905,1.113,0.604,0.0,0.0,0.0,0.884,1.9369999999999998,0.0,0.0,0.0,0.0,1.01,1.871,0.0,0.0,0.0,0.0,1.025,1.902,0.0,0.0,0.0,0.0,0.955,2.504,0.0,0.0,0.0,0.0,0.941,3.053,-0.9990000000000001,0.0,0.0,-0.693,0.633,3.052,-1.18,-0.615,0.0,-0.802,0.0,2.6519999999999997,-1.396,-0.863,0.0,0.0,0.0,2.9419999999999997,-1.619,-0.6779999999999999,0.0,0.0,0.0,2.883,-1.7109999999999999,-0.978,0.0,0.0,-0.593,,,,,,,,,,,,,,,,,,,,,,,,,,,,,,,,,,,,,,,,,,,,,,,,,,,,,,,,,,,,,,,,,,,,,,,,,,,,,,,,,,,,,,,,,,,,,,,,,,,,,,,,,,,,,,,,,,,,,,,,,,,,,,,,,,,,,,,,,,,,,,,,,,,,,,,,,,,,,,,,,,,,,,,,,,,,,,,,,,,,,,,,,,,,,,,,,,,,,,,,,,,,,,,,,,,pullUp
accX,-1.618,-4.313,-2.011,-0.897,0.0,0.633,-1.703,-4.656000000000001,-2.34,-1.1059999999999999,0.0,0.799,-3.127,-4.8469999999999995,-2.6630000000000003,-1.3230000000000002,0.0,0.9620000000000001,-4.012,-5.031000000000001,-3.063,-1.494,-0.502,1.169,-4.4110000000000005,-5.462000000000001,-2.8539999999999996,-1.591,-0.514,1.452,-4.558,-6.7139999999999995,-2.63,-1.599,-0.527,1.735,-4.78,-6.605,-2.22,-1.883,-0.71,2.0540000000000003,-4.953,-7.085,-1.939,-1.979,-0.809,2.403,-4.827,-7.644,-1.527,-2.117,-1.01,2.781,-4.513,-8.017000000000001,-0.863,-2.106,-1.224,3.0789999999999997,-3.76,-8.129,-0.55,-2.116,-1.5759999999999998,3.333,-3.645,-7.11,0.0,-2.359,-1.412,3.467,-2.1069999999999998,-1.531,0.0,-2.515,-0.797,3.447,0.0,3.48,1.3330000000000002,-2.6010000000000004,-0.997,3.323,1.0659999999999998,5.938,1.885,-2.294,-1.952,3.437,-0.992,5.728,1.0190000000000001,-2.015,-2.3680000000000003,3.528,0.0,2.293,0.7829999999999999,-2.6210000000000004,-2.605,3.5269999999999997,2.471,1.642,1.5190000000000001,-2.852,-2.6180000000000003,3.533,3.1,2.923,2.437,-1.935,-2.447,3.429,1.103,3.154,1.96,-0.8,-1.9409999999999998,3.45,0.0,0.8540000000000001,0.628,-0.588,-1.175,3.387,1.578,0.0,0.0,-0.975,-0.943,3.409,2.995,-1.033,0.0,-1.3430000000000002,-1.3319999999999999,3.4739999999999998,2.244,0.0,0.672,-1.2209999999999999,-1.5390000000000001,3.4330000000000003,1.55,0.0,1.357,0.0,-1.5430000000000001,3.4619999999999997,1.54,-1.228,0.8440000000000001,0.0,-1.453,3.42,2.633,-2.384,0.0,0.0,-1.643,3.406,3.605,-2.759,0.0,0.0,-2.021,3.365,3.733,-3.168,0.0,0.0,-2.019,3.3280000000000003,4.246,-3.167,-0.77,0.0,-1.69,3.217,5.222,-3.167,-0.789,0.0,-1.364,2.8360000000000003,5.933,-3.42,-0.92,0.0,-1.3969999999999998,2.342,5.465,-2.336,-0.835,0.0,-1.393,1.712,4.445,-1.347,-0.8140000000000001,0.0,-1.1520000000000001,1.196,2.762,0.0,-0.875,0.0,-0.637,0.872,2.519,0.0,-0.96,0.0,0.0,0.8059999999999999,2.401,0.0,-0.8540000000000001,0.0,0.0,0.8440000000000001,2.833,0.0,-0.593,0.0,0.0,0.882,3.287,-0.654,0.0,0.0,0.0,0.715,4.128,-0.728,0.0,0.0,0.0,0.0,3.628,-0.82,0.0,0.0,0.0,0.0,3.1639999999999997,-0.738,0.0,0.0,0.0,0.0,2.614,-0.8140000000000001,-0.521,0.0,0.0,0.0,,,,,,,,,,,,,,,,,,,,,,,,,,,,,,,,,,,,,,,,,,,,,,,,,,,,,,,,,,,,,,,,,,,,,,,,,,,,,,,,,,,,,,,,,,,,,,,,,,,,,,,,,,,,,,,,,,,,,,,,,,,,,,,,,,,,,,,,,,,,,,,,,,,,,,,,,,,,,,,,,,,,,,,,,,,,,,,,,,,,,,,,,,,,,,,,,,,,,,,,,,,,,,,,,,,,,,,,,,,,,,,pullUp
accX,-2.8360000000000003,-4.745,-2.81,-1.163,0.0,0.679,-4.0760000000000005,-5.117,-4.031000000000001,-1.472,0.0,0.9079999999999999,-5.52,-5.397,-4.337,-1.788,0.0,1.238,-5.694,-6.099,-4.063,-2.039,0.0,1.5859999999999999,-5.0760000000000005,-6.815,-3.551,-2.378,-0.622,1.97,-4.984,-7.707999999999999,-2.503,-2.7539999999999996,-0.961,2.3680000000000003,-4.184,-6.666,-0.914,-2.9019999999999997,-1.1909999999999998,2.55,-4.195,-6.486000000000001,0.0,-2.5789999999999997,-1.3230000000000002,2.804,-3.806,-6.605,0.0,-2.549,-1.311,3.0869999999999997,-2.451,-3.873,0.728,-2.546,-0.763,3.1910000000000003,0.0,-0.547,1.375,-2.263,0.0,3.1860000000000004,1.32,3.0810000000000004,1.6,-2.068,-0.818,3.153,0.5379999999999999,5.186,1.1159999999999999,-1.905,-1.531,3.142,0.0,5.402,1.056,-2.123,-1.9780000000000002,3.3110000000000004,1.247,4.119,0.855,-2.253,-1.732,3.123,3.88,4.33,2.088,-1.976,-2.32,2.987,2.9819999999999998,4.94,2.176,-1.268,-2.8739999999999997,3.01,0.6559999999999999,3.95,1.136,-0.8859999999999999,-2.696,3.0780000000000003,0.0,2.755,0.0,-1.021,-2.0709999999999997,3.0669999999999997,1.621,1.726,0.0,-1.119,-1.6119999999999999,2.9789999999999996,3.135,1.778,0.682,-0.753,-1.6340000000000001,3.013,2.853,1.405,0.682,0.0,-1.784,3.017,1.8969999999999998,0.7879999999999999,0.56,0.0,-1.791,3.0469999999999997,1.396,-0.639,0.0,0.0,-1.41,2.792,1.905,-0.8079999999999999,-0.705,-0.715,-0.995,2.735,2.1830000000000003,-0.871,-0.732,-0.816,-0.69,2.7430000000000003,2.955,-0.565,0.0,0.0,-0.586,2.71,3.861,-0.982,0.0,0.0,-0.818,2.6710000000000003,4.62,-1.6159999999999999,0.0,0.0,-1.324,2.588,5.278,-1.848,0.0,0.0,-2.056,2.427,5.315,-1.835,0.0,0.0,-2.786,2.247,4.711,-1.47,0.0,0.0,-3.117,2.08,3.912,-1.061,0.0,0.0,-2.975,1.834,3.361,-0.768,-0.925,0.0,-2.428,1.412,3.27,-0.7240000000000001,-1.65,0.0,-1.9769999999999999,1.249,2.949,0.0,-1.716,0.0,-1.767,1.235,1.456,0.0,-1.308,-0.5479999999999999,-1.227,1.1909999999999998,1.484,0.0,-0.9490000000000001,0.0,-0.605,1.2770000000000001,2.001,0.0,0.0,0.0,0.0,1.189,3.807,-0.977,-0.8370000000000001,0.0,0.0,1.036,3.93,-1.228,-1.0490000000000002,0.0,0.0,0.725,4.04,-1.129,-1.12,0.0,0.0,0.0,3.645,-1.27,-0.879,0.0,0.0,0.0,3.5660000000000003,-0.883,-0.7,0.0,0.0,0.0,3.157,-0.757,-0.578,0.0,0.0,0.0,2.958,-1.023,-0.711,0.0,0.0,0.0,2.9189999999999996,-2.286,-1.91,0.0,0.0,-0.8440000000000001,,,,,,,,,,,,,,,,,,,,,,,,,,,,,,,,,,,,,,,,,,,,,,,,,,,,,,,,,,,,,,,,,,,,,,,,,,,,,,,,,,,,,,,,,,,,,,,,,,,,,,,,,,,,,,,,,,,,,,,,,,,,,,,,,,,,,,,,,,,,,,,,,,,,,,,,,,,,,,,,,,,,,,,,,,,,,,,,,,,,,,,,,,,,,,,,,,,,,,,pullUp
accX,-2.85,-5.149,-2.983,-1.401,0.0,0.871,-3.0989999999999998,-5.251,-2.8080000000000003,-1.67,0.0,1.071,-3.8080000000000003,-5.377999999999999,-2.8689999999999998,-1.76,0.0,1.294,-4.269,-6.16,-3.222,-1.973,0.0,1.544,-4.541,-6.434,-2.9539999999999997,-2.29,-0.762,1.851,-4.533,-6.905,-2.289,-2.66,-1.1520000000000001,2.129,-4.58,-6.784,-1.5930000000000002,-2.8689999999999998,-1.216,2.417,-3.266,-7.388999999999999,-0.613,-2.883,-1.032,2.6010000000000004,-1.258,-6.202999999999999,0.0,-3.068,-1.389,2.77,-1.47,-4.4719999999999995,0.649,-3.252,-2.2159999999999997,2.8560000000000003,-2.423,1.058,0.9079999999999999,-3.188,-2.229,3.0239999999999996,0.0,5.182,1.396,-2.7910000000000004,-1.329,3.065,2.884,5.292999999999999,1.607,-2.4530000000000003,-0.966,2.886,3.903,5.805,1.979,-2.379,-1.806,2.717,1.9569999999999999,5.8839999999999995,2.104,-2.25,-3.327,2.511,-1.751,4.712,1.151,-2.123,-3.787,2.679,-0.526,3.409,0.0,-1.679,-2.059,2.887,2.812,2.78,0.0,-1.099,-0.561,2.862,3.2960000000000003,2.7969999999999997,0.0,-0.841,-0.679,2.812,1.68,2.9160000000000004,0.735,-0.83,-1.595,2.716,0.0,0.574,0.0,-1.073,-2.411,2.53,0.58,0.875,0.0,-1.6280000000000001,-2.307,2.5380000000000003,0.0,1.101,-0.635,-1.445,-0.787,2.929,1.185,1.882,0.0,-0.754,0.0,2.97,2.76,0.0,0.0,0.0,-0.5660000000000001,2.846,3.028,-0.725,0.0,-0.654,-1.421,2.6260000000000003,2.635,0.0,0.0,-0.72,-2.093,2.536,2.011,0.0,0.0,-0.5429999999999999,-2.103,2.5639999999999996,1.58,-0.575,0.0,0.0,-1.599,2.661,2.807,-1.212,-0.618,0.0,-1.25,2.802,4.35,-1.705,0.0,0.0,-1.368,2.7939999999999996,5.369,-2.445,0.0,0.0,-1.7009999999999998,2.575,5.986000000000001,-2.214,0.0,0.0,-2.051,2.256,5.5360000000000005,-2.0269999999999997,0.0,0.0,-2.0669999999999997,1.8880000000000001,4.971,-1.4380000000000002,0.0,0.0,-1.641,1.396,4.9319999999999995,-1.2570000000000001,-0.7559999999999999,0.0,-1.2790000000000001,1.013,4.209,-0.9440000000000001,-0.9590000000000001,0.0,-1.07,0.7659999999999999,3.353,0.0,-0.77,0.0,-1.148,0.687,2.1919999999999997,0.584,0.0,0.0,-1.097,0.703,1.683,1.054,0.0,0.0,-0.924,0.841,1.676,0.958,0.0,0.0,-0.701,0.995,2.3169999999999997,0.0,0.0,0.62,-0.619,1.097,3.114,-0.725,0.0,0.534,-0.715,0.912,3.1460000000000004,-0.89,-0.562,0.0,-0.8390000000000001,0.631,2.386,-0.838,-0.624,0.0,-0.764,0.0,2.4930000000000003,-0.897,-0.56,0.0,-0.501,0.0,2.7230000000000003,-1.073,-0.546,0.0,0.0,0.0,3.049,-1.758,-1.37,0.0,0.0,0.0,3.323,-2.1959999999999997,-1.825,0.0,0.0,-0.643,,,,,,,,,,,,,,,,,,,,,,,,,,,,,,,,,,,,,,,,,,,,,,,,,,,,,,,,,,,,,,,,,,,,,,,,,,,,,,,,,,,,,,,,,,,,,,,,,,,,,,,,,,,,,,,,,,,,,,,,,,,,,,,,,,,,,,,,,,,,,,,,,,,,,,,,,,,,,,,,,,,,,,,,,,,,,,,,,,,,,,,,,,,pullUp
accX,-2.892,-4.667,-2.819,-1.442,0.0,0.97,-4.0760000000000005,-4.763999999999999,-3.7760000000000002,-1.681,0.0,1.206,-4.311,-5.053999999999999,-4.085,-2.0580000000000003,0.0,1.6669999999999998,-3.34,-6.239,-2.369,-2.248,-1.163,2.068,-4.313,-6.566,-1.504,-2.381,-1.903,2.336,-5.358,-6.619,-1.147,-2.3930000000000002,-1.9140000000000001,2.678,-4.173,-7.263999999999999,-0.777,-2.37,-1.28,2.9539999999999997,-2.105,-6.426,0.0,-2.508,-0.737,3.0869999999999997,0.0,-3.661,1.037,-2.511,-1.068,3.1430000000000002,-0.701,0.993,1.385,-2.345,-2.285,3.279,-1.578,5.847,1.35,-2.048,-2.845,3.4589999999999996,-0.7140000000000001,5.13,0.74,-1.9709999999999999,-2.736,3.497,0.527,4.024,0.765,-2.354,-2.525,3.412,1.073,4.511,1.672,-2.523,-2.227,3.444,1.008,4.949,2.146,-1.6769999999999998,-1.9709999999999999,3.347,0.0,3.319,1.392,-0.7440000000000001,-2.165,3.4010000000000002,0.0,1.413,0.0,-0.53,-2.0469999999999997,3.478,2.0069999999999997,-0.545,0.0,-0.733,-1.208,3.4,3.938,0.0,0.0,-0.907,0.0,3.33,5.436,0.0,0.912,0.0,0.0,2.968,4.337,0.0,0.9440000000000001,0.0,-0.759,2.694,1.976,0.755,0.687,0.0,-1.857,2.668,0.556,0.5429999999999999,0.0,0.0,-2.4330000000000003,2.9010000000000002,0.551,-0.682,0.0,0.0,-2.385,2.7889999999999997,1.2229999999999999,-1.004,-0.821,-0.54,-2.016,2.535,2.099,-0.7759999999999999,-0.6859999999999999,-0.588,-1.695,2.4859999999999998,2.3609999999999998,-0.8240000000000001,0.0,0.0,-1.33,2.492,3.3,-1.328,0.0,0.0,-0.77,2.528,4.071000000000001,-2.22,-0.569,0.0,-0.59,2.281,4.553,-2.365,-0.917,0.0,-0.5770000000000001,1.864,4.751,-2.073,-1.085,0.0,-0.71,1.6840000000000002,4.3660000000000005,-1.5930000000000002,-0.8370000000000001,0.0,-0.746,1.474,3.7039999999999997,-1.095,-0.621,0.0,-0.631,1.341,3.38,-0.777,0.0,0.0,0.0,1.17,2.593,0.0,0.0,0.0,0.0,1.0190000000000001,1.307,0.0,0.0,0.0,0.0,1.025,0.67,0.7040000000000001,0.0,0.0,0.0,1.2,1.49,0.0,0.518,0.0,0.0,1.3840000000000001,1.916,0.0,0.7,0.0,0.0,1.348,1.751,0.0,0.79,0.0,0.0,1.196,2.5580000000000003,-0.7859999999999999,0.609,0.0,0.0,1.092,3.44,-1.389,0.0,0.0,-0.647,0.81,2.866,-1.27,0.0,0.0,-0.748,0.541,2.1319999999999997,-1.097,0.0,0.0,-0.532,0.0,1.666,-0.84,0.0,0.0,0.0,0.0,2.322,-0.8490000000000001,0.0,0.0,0.0,0.0,2.27,-0.858,0.0,0.0,0.0,0.0,,,,,,,,,,,,,,,,,,,,,,,,,,,,,,,,,,,,,,,,,,,,,,,,,,,,,,,,,,,,,,,,,,,,,,,,,,,,,,,,,,,,,,,,,,,,,,,,,,,,,,,,,,,,,,,,,,,,,,,,,,,,,,,,,,,,,,,,,,,,,,,,,,,,,,,,,,,,,,,,,,,,,,,,,,,,,,,,,,,,,,,,,,,,,,,,,,,,,,,pullUp
accX,-2.426,-4.93,-1.848,-1.1420000000000001,0.0,0.996,-3.0810000000000004,-5.182,-2.16,-1.409,-0.502,1.262,-4.242,-5.1770000000000005,-1.93,-1.5519999999999998,-0.563,1.5919999999999999,-4.271,-5.773,-2.169,-1.629,-0.74,1.8869999999999998,-4.4719999999999995,-6.461,-2.104,-1.733,-1.031,2.469,-4.681,-7.234,-0.6459999999999999,-1.864,-1.2930000000000001,2.795,-3.6910000000000003,-8.074,0.0,-1.702,-1.3769999999999998,3.0210000000000004,-3.45,-8.486,0.0,-1.5330000000000001,-1.669,3.3560000000000003,-3.444,-9.863999999999999,0.0,-1.412,-2.081,3.7889999999999997,-3.415,-11.945,0.0,-1.745,-2.302,3.825,-1.435,3.135,1.847,-1.974,-1.989,3.682,0.0,5.835,1.8659999999999999,-1.6369999999999998,-1.6369999999999998,3.64,0.0,5.481,1.214,-1.0170000000000001,-1.771,3.745,-1.262,3.681,0.0,-0.831,-2.3040000000000003,4.013,0.8490000000000001,1.3519999999999999,0.626,-1.213,-2.3040000000000003,3.9019999999999997,3.563,0.8859999999999999,1.446,-1.285,-1.835,3.668,5.445,1.4569999999999999,1.357,-0.539,-1.265,3.301,3.9610000000000003,1.368,0.759,0.0,-1.229,3.141,2.1069999999999998,1.2890000000000001,0.0,0.0,-1.3130000000000002,3.14,2.2359999999999998,0.946,0.0,0.0,-1.095,3.1839999999999997,2.71,0.0,0.0,0.0,0.0,3.0210000000000004,4.19,0.0,0.0,0.0,0.0,2.66,5.27,-0.612,-0.629,0.0,0.0,2.399,3.9730000000000003,0.0,-0.8270000000000001,0.0,-1.044,2.114,1.768,0.0,-0.521,-0.5329999999999999,-1.66,1.9569999999999999,0.0,1.3119999999999998,0.0,-0.644,-1.6340000000000001,1.943,-1.073,1.43,0.0,0.0,-0.9259999999999999,1.952,0.0,1.127,0.0,0.0,0.0,1.9869999999999999,0.976,0.0,0.0,0.0,0.0,2.13,1.72,-0.9,0.0,0.0,0.0,2.036,1.93,-1.0,0.0,-0.51,0.0,1.9480000000000002,1.703,-1.051,0.0,-0.65,0.0,1.952,1.7730000000000001,-0.82,0.0,-0.507,0.0,1.859,2.0869999999999997,-1.095,0.0,0.0,0.0,1.855,2.6210000000000004,-1.224,0.0,0.0,0.0,1.814,3.072,-1.199,0.0,0.0,0.0,1.713,2.82,-1.127,0.0,0.0,-0.55,1.635,2.54,-0.782,0.0,0.0,-0.54,1.4909999999999999,1.7630000000000001,0.0,0.0,0.0,0.0,1.3769999999999998,2.185,0.0,0.0,0.0,0.0,1.271,2.7739999999999996,0.0,0.0,0.0,0.0,1.183,3.5610000000000004,-1.073,0.0,0.0,-0.573,0.892,3.301,-0.7829999999999999,0.0,0.0,-0.6779999999999999,0.593,2.5340000000000003,-0.606,-0.546,0.0,0.0,0.0,1.774,0.0,-0.534,0.0,0.0,0.0,1.604,0.0,-0.539,0.0,0.0,0.0,1.29,0.0,0.0,0.0,0.0,0.0,1.851,-0.758,0.0,0.0,0.0,0.0,,,,,,,,,,,,,,,,,,,,,,,,,,,,,,,,,,,,,,,,,,,,,,,,,,,,,,,,,,,,,,,,,,,,,,,,,,,,,,,,,,,,,,,,,,,,,,,,,,,,,,,,,,,,,,,,,,,,,,,,,,,,,,,,,,,,,,,,,,,,,,,,,,,,,,,,,,,,,,,,,,,,,,,,,,,,,,,,,,,,,,,,,,,,,,,,,pullUp
accX,-2.813,-5.029,-2.048,-0.875,0.0,1.0659999999999998,-4.176,-4.995,-2.7230000000000003,-1.031,0.0,1.367,-3.9539999999999997,-6.053999999999999,-2.699,-1.3119999999999998,0.0,1.585,-4.354,-6.417000000000001,-2.532,-1.43,0.0,1.791,-5.013999999999999,-6.989,-2.416,-1.516,-0.733,2.1959999999999997,-5.74,-7.789,-2.057,-1.676,-0.8690000000000001,2.665,-5.774,-8.84,-1.702,-1.9180000000000001,-0.703,3.071,-4.849,-9.969,-0.6629999999999999,-1.955,-0.762,3.4219999999999997,-4.324,-11.617,-0.893,-2.009,-1.102,3.714,-2.46,-13.866,0.0,-2.52,-1.736,3.7939999999999996,0.0,-12.742,2.753,-3.0610000000000004,-2.615,3.9139999999999997,1.7819999999999998,1.4569999999999999,4.305,-2.543,-3.137,4.023,1.249,2.7939999999999996,3.2239999999999998,-1.271,-3.0839999999999996,4.047,0.0,2.055,1.845,-0.725,-2.955,4.093999999999999,-0.747,1.3980000000000001,1.088,-0.682,-2.6439999999999997,4.059,1.391,-0.519,0.0,-0.696,-2.142,4.0,3.235,0.0,0.684,-0.511,-2.026,3.949,2.9610000000000003,-0.5429999999999999,0.0,0.0,-2.04,3.647,1.463,0.0,0.0,0.0,-1.9080000000000001,3.614,0.0,-1.064,0.0,0.0,-1.507,3.508,0.701,-1.992,-0.6859999999999999,0.0,-0.958,3.367,1.902,-2.211,0.0,0.0,0.0,3.2939999999999996,3.4760000000000004,-1.936,0.0,0.0,0.0,3.062,3.502,-2.298,0.0,0.0,0.0,2.995,3.535,-2.439,0.0,0.0,0.0,2.85,3.8569999999999998,-2.759,-0.535,0.0,0.0,2.6489999999999996,3.697,-2.363,-0.87,0.0,-0.6920000000000001,2.4219999999999997,3.428,-1.6030000000000002,-0.623,0.0,-0.772,2.251,3.398,-1.151,-0.5379999999999999,0.0,-0.713,2.046,3.293,-1.412,-0.629,0.0,-0.627,1.9169999999999998,3.6310000000000002,-1.527,-0.838,0.0,-0.58,1.546,3.485,-1.22,-0.966,0.0,-0.5579999999999999,1.31,2.5810000000000004,-0.664,-0.84,0.0,0.0,1.13,1.196,0.0,-0.529,0.0,0.0,1.004,1.1320000000000001,0.0,0.0,0.0,0.745,0.99,2.197,0.0,0.0,0.0,0.657,0.94,2.293,-0.633,0.0,0.0,0.0,0.828,1.339,0.0,0.0,0.0,0.0,0.772,0.0,0.0,0.0,0.0,0.0,0.7909999999999999,0.83,0.0,0.631,0.0,0.0,0.883,2.043,0.0,0.8170000000000001,0.0,0.0,0.825,3.239,-1.047,0.6609999999999999,0.0,0.0,0.552,2.6210000000000004,-0.9470000000000001,0.0,0.0,0.0,0.0,1.3619999999999999,-0.693,0.0,0.0,0.0,0.0,0.0,0.0,0.0,0.0,0.0,0.0,0.0,0.0,0.0,0.0,0.0,0.0,1.38,-0.522,0.0,0.0,0.0,0.0,2.239,-1.044,0.0,0.0,0.0,0.0,,,,,,,,,,,,,,,,,,,,,,,,,,,,,,,,,,,,,,,,,,,,,,,,,,,,,,,,,,,,,,,,,,,,,,,,,,,,,,,,,,,,,,,,,,,,,,,,,,,,,,,,,,,,,,,,,,,,,,,,,,,,,,,,,,,,,,,,,,,,,,,,,,,,,,,,,,,,,,,,,,,,,,,,,,,,,,,,,,,,,,,,,,,,,,,,,pullUp
accX,-1.601,-4.819,-1.6880000000000002,-1.107,0.0,0.715,-2.07,-4.8469999999999995,-1.9809999999999999,-1.306,0.0,0.89,-2.085,-5.306,-1.98,-1.4509999999999998,0.0,1.131,-2.907,-5.276,-2.065,-1.5019999999999998,-0.539,1.3259999999999998,-3.926,-5.74,-2.655,-1.599,-0.62,1.59,-4.744,-6.227,-2.9960000000000004,-1.746,-0.5760000000000001,1.8940000000000001,-4.833,-6.922000000000001,-2.7689999999999997,-1.984,-0.531,2.195,-4.266,-7.115,-1.849,-2.133,-0.588,2.485,-3.4010000000000002,-7.0,-0.634,-2.2159999999999997,-0.753,2.7889999999999997,-2.995,-6.604,0.0,-2.174,-1.11,3.0580000000000003,-2.6639999999999997,-7.069,-0.852,-3.112,-1.864,3.0780000000000003,-1.158,-3.605,1.915,-3.175,-1.633,3.218,0.799,1.168,2.187,-2.398,-1.235,3.161,0.0,4.865,1.55,-1.9609999999999999,-1.643,3.286,-1.581,5.306,0.662,-1.9869999999999999,-2.419,3.483,-1.219,3.267,0.622,-2.36,-2.635,3.605,2.182,3.25,2.459,-2.274,-1.9409999999999998,3.5989999999999998,5.013,2.1630000000000003,2.011,-1.0390000000000001,-1.197,3.367,4.184,1.8519999999999999,1.3230000000000002,-0.5329999999999999,-1.23,3.134,2.702,2.14,1.291,-0.64,-1.824,3.083,1.517,1.5719999999999998,0.965,-0.816,-2.784,3.109,0.0,0.595,0.0,-1.063,-3.139,3.108,1.454,0.0,0.0,-0.7390000000000001,-1.966,2.892,3.156,0.0,-0.972,0.0,-0.718,2.662,3.448,0.0,-0.73,0.0,0.0,2.54,2.8760000000000003,0.0,0.0,0.0,0.0,2.427,2.467,0.0,0.0,0.0,-0.52,2.3409999999999997,2.01,0.0,0.0,0.0,-0.927,2.324,1.3530000000000002,0.0,0.0,0.0,-1.159,2.274,1.37,0.0,0.0,0.0,-1.15,2.242,1.4609999999999999,-0.659,0.0,0.0,-1.147,2.254,2.051,-1.196,0.0,0.0,-1.226,2.197,1.893,-1.0590000000000002,0.0,-0.57,-1.419,2.077,1.76,-0.8590000000000001,0.0,-0.541,-1.4509999999999998,1.996,1.733,-0.636,0.0,0.0,-1.3030000000000002,1.6580000000000001,1.811,-0.909,0.0,0.0,-0.919,1.599,2.106,-1.078,0.0,0.0,-0.8290000000000001,1.568,2.8360000000000003,-1.1320000000000001,-0.5920000000000001,0.0,-0.986,1.455,2.056,-0.9259999999999999,-0.863,0.0,-0.941,1.252,1.018,-0.5920000000000001,-0.996,0.0,-0.537,1.238,1.305,-0.634,-0.8140000000000001,0.0,0.0,1.1640000000000001,2.351,-0.7190000000000001,-0.5329999999999999,0.0,0.0,0.902,2.3930000000000002,-0.635,0.0,0.0,0.0,0.609,1.148,0.0,0.0,0.0,0.0,0.508,1.5190000000000001,0.0,0.0,0.0,0.0,0.546,2.141,-0.5870000000000001,0.0,0.0,0.0,0.0,2.31,-0.8320000000000001,0.0,0.0,0.0,0.0,2.133,-0.843,0.0,0.0,0.0,0.0,1.276,-0.629,0.0,0.0,0.0,0.0,0.99,0.0,0.0,0.0,0.0,0.0,1.17,-0.518,0.0,0.0,0.0,0.0,1.661,-0.9620000000000001,0.0,0.0,0.0,0.0,1.8419999999999999,-1.117,0.0,0.0,0.0,-0.7440000000000001,,,,,,,,,,,,,,,,,,,,,,,,,,,,,,,,,,,,,,,,,,,,,,,,,,,,,,,,,,,,,,,,,,,,,,,,,,,,,,,,,,,,,,,,,,,,,,,,,,,,,,,,,,,,,,,,,,,,,,,,,,,,,,,,,,,,,,,,,,,,,,,,,,,,,,,,,,,,,,,,,,,pullUp
accX,-1.04,-4.867,-1.804,0.0,0.0,0.0,-1.546,-4.7219999999999995,-1.979,-0.6940000000000001,0.0,0.0,-1.7109999999999999,-5.01,-2.225,-0.855,0.0,0.685,-2.066,-5.125,-1.954,-1.074,0.0,0.777,-1.8359999999999999,-5.14,-1.601,-1.238,0.0,0.899,-2.142,-5.242999999999999,-1.3719999999999999,-1.28,0.0,1.068,-2.95,-5.659,-1.6480000000000001,-1.291,-0.6559999999999999,1.2770000000000001,-4.206,-6.09,-2.298,-1.37,-0.6940000000000001,1.5490000000000002,-4.572,-6.767,-2.336,-1.584,-0.53,1.7890000000000001,-3.997,-7.042000000000001,-1.5919999999999999,-1.7530000000000001,0.0,1.999,-3.245,-7.211,-0.65,-1.765,0.0,2.185,-2.7439999999999998,-7.3389999999999995,0.0,-1.7380000000000002,-0.504,2.379,-3.0039999999999996,-7.597,-0.5710000000000001,-1.8330000000000002,-0.735,2.588,-2.3680000000000003,-7.837999999999999,0.0,-2.126,-1.085,2.806,0.0,-6.4079999999999995,1.546,-2.1180000000000003,-1.0979999999999999,2.8739999999999997,-0.858,-1.916,1.163,-1.6,-0.861,2.937,-1.157,3.176,0.0,-1.254,-0.8109999999999999,3.073,-0.518,5.331,0.0,-1.581,-1.369,3.159,0.955,5.016,0.904,-2.121,-2.246,3.265,-0.66,5.8629999999999995,1.516,-2.158,-2.699,3.383,-1.564,5.775,1.247,-1.229,-1.994,3.365,-1.33,3.758,0.0,-0.585,-1.3659999999999999,3.497,0.0,1.7269999999999999,0.0,-0.752,-1.423,3.4810000000000003,2.906,0.0,0.0,-1.401,-2.229,3.406,2.572,0.5660000000000001,1.198,-1.7169999999999999,-3.219,3.389,0.0,1.4680000000000002,1.03,-0.919,-2.786,3.2289999999999996,0.0,0.0,0.0,0.0,-1.416,3.22,2.373,-1.716,0.0,0.0,-0.629,3.116,3.275,-2.086,-0.917,0.0,-0.846,3.05,3.138,-1.797,-0.9309999999999999,0.0,-1.16,2.955,2.367,-1.115,0.0,0.0,-1.092,2.8489999999999998,2.543,-1.103,0.0,0.0,-0.7120000000000001,2.805,3.266,-1.7009999999999998,-0.623,0.0,0.0,2.7430000000000003,4.112,-2.135,-0.853,0.0,-0.6459999999999999,2.627,4.6080000000000005,-2.14,-0.975,0.0,-0.951,2.376,4.218,-1.91,-0.9670000000000001,0.0,-1.207,2.114,3.466,-1.4,-0.77,0.0,-1.175,1.835,2.803,-0.7929999999999999,-0.62,0.0,-0.884,1.631,1.982,0.0,-0.583,0.0,0.0,1.473,2.124,-0.528,-0.521,0.0,0.0,1.413,2.519,-0.527,0.0,0.0,0.0,1.35,2.092,0.0,0.0,0.0,0.0,1.251,1.7380000000000002,0.0,0.0,0.0,0.0,1.177,1.839,0.0,0.0,0.0,0.0,1.141,2.497,-0.546,0.0,0.0,0.0,1.048,2.2769999999999997,-0.912,0.0,0.0,0.0,0.8240000000000001,2.349,-0.7559999999999999,0.0,0.0,0.0,0.655,2.397,-0.799,0.0,0.0,0.0,0.514,2.675,-0.747,0.0,0.0,0.0,0.0,2.603,-0.75,0.0,0.0,0.0,0.0,2.217,-0.735,0.0,0.0,0.0,0.0,1.465,0.0,0.0,0.0,0.0,0.0,1.557,0.0,0.0,0.0,0.0,0.0,1.746,-0.753,0.0,0.0,0.0,0.0,2.102,-1.413,-0.799,0.0,0.0,-0.581,,,,,,,,,,,,,,,,,,,,,,,,,,,,,,,,,,,,,,,,,,,,,,,,,,,,,,,,,,,,,,,,,,,,,,,,,,,,,,,,,,,,,,,,,,,,,,,,,,,,,,,,,,,,,,,,,,,,,,,,,,,,,,,,,,,,,,,,,,,,,,,,,,,,,,,pullUp
accX,-2.49,-4.8069999999999995,-2.403,-0.975,0.0,0.6579999999999999,-2.184,-4.949,-2.134,-1.215,0.0,0.754,-1.413,-5.199,-1.514,-1.415,0.0,0.8640000000000001,-1.675,-4.9510000000000005,-1.187,-1.4169999999999998,0.0,0.992,-2.399,-5.207999999999999,-1.577,-1.439,0.0,1.137,-3.015,-5.544,-1.699,-1.605,0.0,1.295,-3.6289999999999996,-5.699,-1.893,-1.7619999999999998,0.0,1.476,-4.178999999999999,-5.955,-1.8330000000000002,-1.915,-0.515,1.805,-4.419,-6.392,-1.518,-1.882,-0.5770000000000001,2.1959999999999997,-3.977,-7.301,-1.314,-1.902,-0.6679999999999999,2.373,-3.444,-7.425,-0.7909999999999999,-1.9969999999999999,-0.8420000000000001,2.592,-3.321,-7.425,-0.626,-2.144,-1.1320000000000001,2.8169999999999997,-3.4330000000000003,-7.0,-0.72,-2.309,-1.452,3.0610000000000004,-3.1039999999999996,-5.007,0.0,-2.326,-1.415,3.366,0.0,0.0,1.546,-1.921,-1.045,3.411,0.7190000000000001,4.593999999999999,1.1440000000000001,-1.682,-1.103,3.431,0.0,5.45,0.502,-1.841,-1.751,3.448,-1.979,5.2410000000000005,0.0,-2.206,-2.6039999999999996,3.7310000000000003,-1.192,3.2030000000000003,0.633,-2.404,-2.483,4.269,2.05,0.97,0.6829999999999999,-2.371,-1.4469999999999998,4.69,2.687,0.902,1.264,-1.77,0.0,4.163,3.0,1.224,1.0290000000000001,-0.992,0.77,3.37,2.13,1.0270000000000001,0.6809999999999999,-0.861,0.654,3.0810000000000004,1.6669999999999998,0.0,0.0,-1.033,0.0,3.042,1.2990000000000002,0.0,0.542,-1.324,-1.3159999999999998,3.0639999999999996,1.5590000000000002,0.0,0.97,-1.4140000000000001,-1.883,3.133,1.686,-0.648,0.996,-1.181,-1.905,3.043,1.875,-1.224,0.6709999999999999,-0.935,-1.709,2.908,1.75,-1.44,0.0,-0.7959999999999999,-1.5590000000000002,2.823,2.272,-1.6869999999999998,0.0,-0.569,-1.415,2.805,2.7760000000000002,-2.287,-0.674,0.0,-1.4669999999999999,2.8280000000000003,3.512,-2.6519999999999997,-0.636,0.0,-1.544,2.6689999999999996,3.931,-2.7739999999999996,0.0,0.0,-1.649,2.426,4.605,-2.359,0.0,0.0,-1.761,2.119,4.845,-1.796,0.0,0.0,-1.975,1.831,4.23,-1.379,0.0,0.0,-2.103,1.535,2.823,-0.9209999999999999,0.0,0.0,-1.9280000000000002,1.253,1.974,-0.515,-0.75,0.0,-1.4969999999999999,1.088,2.079,0.0,-0.836,0.0,-1.083,1.1179999999999999,2.381,0.0,-0.5429999999999999,0.0,-1.064,1.092,2.9610000000000003,0.0,0.0,0.0,-1.015,1.02,2.859,-0.519,0.0,0.0,-0.83,0.8059999999999999,2.255,0.0,-0.629,0.0,0.0,0.624,2.1,-0.569,-1.0090000000000001,0.0,0.0,0.5920000000000001,2.173,-0.523,-0.826,0.0,0.0,0.588,2.7289999999999996,-0.8740000000000001,0.0,0.0,0.0,0.0,3.284,-1.117,0.0,0.0,0.0,0.0,3.688,-1.6740000000000002,-0.537,0.0,0.0,0.0,,,,,,,,,,,,,,,,,,,,,,,,,,,,,,,,,,,,,,,,,,,,,,,,,,,,,,,,,,,,,,,,,,,,,,,,,,,,,,,,,,,,,,,,,,,,,,,,,,,,,,,,,,,,,,,,,,,,,,,,,,,,,,,,,,,,,,,,,,,,,,,,,,,,,,,,,,,,,,,,,,,,,,,,,,,,,,,,,,,,,,,,,,,,,,,,,pullUp
accX,-3.15,-4.4,-3.073,0.0,0.0,0.546,-2.103,-5.019,-2.8819999999999997,-0.873,0.0,0.69,-1.631,-4.998,-2.325,-1.129,0.0,0.813,-2.113,-5.0489999999999995,-2.063,-1.213,0.0,0.897,-3.045,-5.087,-2.388,-1.25,0.0,1.011,-3.975,-5.382999999999999,-3.1060000000000003,-1.321,0.0,1.226,-4.745,-6.251,-3.574,-1.604,0.0,1.5430000000000001,-4.981,-6.841,-3.41,-1.966,-0.847,1.9769999999999999,-5.204,-7.475,-2.44,-2.23,-1.1420000000000001,2.4,-5.093,-7.492000000000001,-1.196,-2.199,-0.929,2.654,-3.7939999999999996,-7.941,0.0,-2.219,-0.762,2.805,-3.123,-6.966,0.0,-2.145,-0.7659999999999999,3.016,-2.318,-5.857,0.613,-2.246,-1.043,3.176,-1.591,-1.3,1.276,-2.256,-1.285,3.2439999999999998,-0.7090000000000001,4.243,1.9669999999999999,-2.061,-1.368,3.33,0.0,6.562,2.1430000000000002,-1.7,-1.506,3.5060000000000002,0.0,5.976,1.581,-1.656,-1.905,3.611,0.9990000000000001,4.612,1.729,-1.839,-2.134,3.627,2.032,4.348,2.092,-1.5490000000000002,-2.088,3.575,1.9180000000000001,4.032,1.8980000000000001,-1.068,-2.166,3.5469999999999997,0.0,3.7680000000000002,1.061,-0.6679999999999999,-1.8719999999999999,3.634,-0.5710000000000001,1.845,-0.506,-0.993,-1.061,3.44,1.561,0.0,0.0,-1.386,-1.002,3.395,1.561,0.94,0.597,-1.147,-1.1179999999999999,3.387,0.0,0.7070000000000001,0.875,-0.58,-1.2690000000000001,3.488,0.614,-0.883,0.57,0.0,-1.197,3.617,1.6669999999999998,-2.041,0.0,0.0,-1.268,3.6010000000000004,2.4930000000000003,-2.71,0.0,-0.531,-1.5290000000000001,3.503,3.217,-2.456,0.0,0.0,-1.745,3.432,4.0280000000000005,-2.858,0.0,0.0,-1.91,3.389,4.72,-3.279,0.0,0.0,-1.8259999999999998,3.216,6.1,-3.7460000000000004,-0.89,0.0,-1.693,2.97,6.976,-3.409,-1.3230000000000002,0.0,-1.7990000000000002,2.5669999999999997,6.534,-2.875,-1.624,0.0,-1.92,2.065,4.94,-1.489,-1.6580000000000001,0.0,-1.686,1.524,2.492,0.0,-1.829,0.0,-0.88,1.1520000000000001,1.999,0.0,-1.719,0.0,0.0,1.104,3.197,0.0,-1.099,0.0,0.634,1.131,3.7939999999999996,0.0,0.0,0.0,0.0,1.048,3.134,0.0,0.0,0.0,0.0,0.897,3.2769999999999997,0.0,0.0,0.0,0.0,0.805,3.5210000000000004,0.0,0.0,0.0,0.0,0.72,3.66,-0.7190000000000001,0.0,0.0,0.0,0.5870000000000001,4.348,-1.3230000000000002,0.0,0.0,0.0,0.0,4.14,-1.2309999999999999,0.0,0.0,0.0,0.0,3.7089999999999996,-0.7340000000000001,0.0,0.0,0.0,-0.503,,,,,,,,,,,,,,,,,,,,,,,,,,,,,,,,,,,,,,,,,,,,,,,,,,,,,,,,,,,,,,,,,,,,,,,,,,,,,,,,,,,,,,,,,,,,,,,,,,,,,,,,,,,,,,,,,,,,,,,,,,,,,,,,,,,,,,,,,,,,,,,,,,,,,,,,,,,,,,,,,,,,,,,,,,,,,,,,,,,,,,,,,,,,,,,,,,,,,,,,,,,,,pullUp
accX,-2.875,-5.437,-3.01,-0.9540000000000001,0.0,0.594,-3.54,-5.5489999999999995,-2.819,-1.3619999999999999,0.0,0.8190000000000001,-3.98,-5.7860000000000005,-2.7969999999999997,-1.765,0.0,1.088,-4.067,-5.8,-2.4090000000000003,-1.819,0.0,1.272,-3.568,-6.422000000000001,-2.069,-1.8659999999999999,0.0,1.4240000000000002,-3.3539999999999996,-6.517,-1.705,-1.919,0.0,1.706,-3.843,-6.566,-1.5219999999999998,-1.956,0.0,2.039,-4.242,-6.922999999999999,-1.308,-1.9769999999999999,0.0,2.329,-4.331,-6.604,-0.862,-1.858,0.0,2.54,-3.002,-6.392,-0.524,-1.8619999999999999,0.0,2.7439999999999998,-2.11,-5.492000000000001,0.0,-2.158,-0.7390000000000001,2.9410000000000003,-2.4530000000000003,-2.485,0.0,-2.414,-1.298,3.136,-2.7039999999999997,1.955,0.0,-2.544,-1.7,3.3810000000000002,-1.755,5.271,1.536,-2.306,-1.995,3.628,-0.95,5.574,1.96,-2.123,-2.37,3.8089999999999997,0.0,4.354,2.622,-2.056,-2.2,3.85,0.0,4.421,2.336,-1.5959999999999999,-1.141,3.655,1.344,3.846,1.7469999999999999,-1.114,0.0,3.6430000000000002,1.9469999999999998,2.767,0.98,-1.045,-0.8109999999999999,3.633,1.96,1.295,0.5920000000000001,-1.4709999999999999,-1.54,3.639,1.9909999999999999,1.058,0.851,-1.5859999999999999,-1.8119999999999998,3.7030000000000003,2.185,1.065,1.5219999999999998,-1.149,-1.686,3.7510000000000003,2.498,0.657,1.574,0.0,-1.5019999999999998,3.841,1.7280000000000002,0.0,1.301,0.0,-1.11,3.951,2.5839999999999996,-1.8359999999999999,0.732,0.0,-0.978,3.7439999999999998,3.708,-2.863,0.0,-0.794,-1.2819999999999998,3.365,3.3569999999999998,-2.253,0.0,-0.721,-1.389,3.2960000000000003,3.863,-2.5669999999999997,0.0,0.0,-0.8690000000000001,3.2030000000000003,4.795,-3.1439999999999997,0.0,0.0,-0.607,3.1039999999999996,6.233,-3.343,0.0,0.0,-0.5710000000000001,2.832,6.854,-2.908,0.0,0.0,-0.905,2.43,6.79,-2.359,0.0,0.0,-1.2770000000000001,2.043,5.132999999999999,-1.3419999999999999,0.0,0.0,-1.4580000000000002,1.5919999999999999,3.719,0.0,0.0,0.0,-1.175,1.25,3.182,0.0,-0.57,0.0,-0.7829999999999999,1.1340000000000001,2.907,0.0,-0.568,0.0,-0.5379999999999999,1.084,3.465,0.0,0.0,0.0,-0.54,1.0290000000000001,3.752,0.0,-0.528,0.0,-0.653,0.8,4.031000000000001,0.0,0.0,0.0,-0.629,0.55,4.563,-0.904,-0.563,0.0,0.0,0.0,5.265,-1.55,-0.922,0.0,0.0,0.0,4.5569999999999995,-1.778,-0.79,0.0,0.0,0.0,3.6039999999999996,-1.754,-0.861,0.0,0.0,-1.033,,,,,,,,,,,,,,,,,,,,,,,,,,,,,,,,,,,,,,,,,,,,,,,,,,,,,,,,,,,,,,,,,,,,,,,,,,,,,,,,,,,,,,,,,,,,,,,,,,,,,,,,,,,,,,,,,,,,,,,,,,,,,,,,,,,,,,,,,,,,,,,,,,,,,,,,,,,,,,,,,,,,,,,,,,,,,,,,,,,,,,,,,,,,,,,,,,,,,,,,,,,,,,,,,,,,,,,,,,,,,,,pullUp
accX,-2.155,-5.205,-2.64,-0.902,0.0,0.7120000000000001,-3.323,-4.8,-2.8989999999999996,-1.2670000000000001,0.0,0.8690000000000001,-3.7460000000000004,-5.1160000000000005,-3.193,-1.368,0.0,1.065,-4.075,-5.4479999999999995,-3.174,-1.4280000000000002,0.0,1.351,-4.603,-6.0760000000000005,-3.1889999999999996,-1.464,0.0,1.7,-4.198,-7.218,-3.2769999999999997,-1.681,-0.579,1.9269999999999998,-5.096,-7.742000000000001,-2.7489999999999997,-1.959,-1.042,2.18,-5.794,-7.813,-1.9580000000000002,-2.19,-1.328,2.59,-4.9430000000000005,-8.482999999999999,-1.092,-2.16,-1.073,2.938,-2.77,-7.8020000000000005,0.0,-2.2569999999999997,-0.787,3.0989999999999998,-1.228,-4.445,1.4609999999999999,-2.258,-0.73,3.1919999999999997,-0.958,1.155,1.645,-1.97,-1.114,3.287,-1.49,5.277,1.226,-1.685,-1.768,3.591,0.0,5.3260000000000005,1.474,-1.786,-2.318,3.7510000000000003,0.75,4.6339999999999995,2.259,-1.841,-2.187,3.779,3.403,4.624,3.2569999999999997,-1.079,-1.761,3.609,3.097,4.293,2.5,0.0,-1.8,3.54,0.9059999999999999,3.412,1.035,-0.503,-1.703,3.437,0.0,2.596,0.0,-0.809,-1.541,3.3369999999999997,0.902,1.954,0.0,-0.893,-1.764,3.412,2.25,1.449,0.887,-0.6409999999999999,-2.38,3.565,1.52,0.868,0.655,0.0,-2.417,3.4810000000000003,1.9480000000000002,0.0,0.0,0.0,-2.025,3.36,1.916,-0.8759999999999999,-0.727,0.0,-1.495,3.2289999999999996,2.129,-1.227,-0.9009999999999999,0.0,-1.032,3.141,2.51,-0.9209999999999999,-0.512,0.0,-0.767,3.085,2.57,-1.123,-0.659,0.0,0.0,3.1060000000000003,3.572,-2.13,-0.93,0.0,0.0,2.998,4.527,-2.9419999999999997,-1.159,0.0,-0.648,2.773,4.822,-2.7489999999999997,-1.1740000000000002,0.0,-0.8220000000000001,2.556,5.145,-2.5469999999999997,-0.986,0.0,-0.846,2.285,5.303999999999999,-1.71,-0.524,0.0,-0.753,1.931,5.112,-1.425,0.0,0.0,-0.616,1.662,4.724,-1.255,-0.693,0.0,-0.542,1.4280000000000002,4.158,-1.08,-1.34,0.0,0.0,1.162,3.011,0.0,-1.7730000000000001,0.0,0.0,1.045,1.19,0.0,-1.412,0.0,0.0,1.053,1.204,0.613,-0.53,0.0,0.653,1.092,1.916,0.0,0.0,0.0,0.5720000000000001,1.12,3.708,-0.6509999999999999,0.0,0.0,0.0,1.095,4.043,-0.8420000000000001,0.0,0.0,0.0,0.845,3.739,-0.87,0.0,0.0,0.0,0.6459999999999999,3.477,-0.941,0.0,0.0,0.0,0.0,2.9330000000000003,-1.025,0.0,0.0,0.0,0.0,3.398,-1.393,-0.738,0.0,0.0,0.0,,,,,,,,,,,,,,,,,,,,,,,,,,,,,,,,,,,,,,,,,,,,,,,,,,,,,,,,,,,,,,,,,,,,,,,,,,,,,,,,,,,,,,,,,,,,,,,,,,,,,,,,,,,,,,,,,,,,,,,,,,,,,,,,,,,,,,,,,,,,,,,,,,,,,,,,,,,,,,,,,,,,,,,,,,,,,,,,,,,,,,,,,,,,,,,,,,,,,,,,,,,,,,,,,,,pullUp
accX,-3.687,-5.468999999999999,-2.37,-1.169,0.0,0.986,-4.239,-5.99,-2.807,-1.273,0.0,1.235,-4.631,-6.334,-2.716,-1.4340000000000002,0.0,1.504,-4.613,-6.94,-2.5789999999999997,-1.555,0.0,1.8530000000000002,-4.801,-7.617000000000001,-2.129,-1.732,-0.6559999999999999,2.2359999999999998,-4.595,-8.062999999999999,-1.385,-1.8419999999999999,-0.816,2.574,-3.5989999999999998,-8.449,-0.625,-1.9769999999999999,-0.912,2.8280000000000003,-2.8739999999999997,-8.677,0.0,-1.986,-1.166,3.0980000000000003,-2.312,-8.781,0.0,-2.059,-1.5859999999999999,3.2689999999999997,-2.2680000000000002,-0.59,0.0,-2.383,-2.08,3.472,-0.731,6.079,1.089,-2.658,-2.265,3.717,0.0,4.973,1.8769999999999998,-3.068,-2.656,4.038,0.534,4.0360000000000005,2.378,-2.6660000000000004,-2.503,3.9210000000000003,1.743,3.569,1.935,-1.65,-1.775,3.094,2.106,3.239,1.7009999999999998,-1.051,-1.585,3.054,1.72,2.987,1.489,-0.89,-2.045,3.1719999999999997,0.878,2.414,1.215,-0.836,-2.5580000000000003,3.322,1.3019999999999998,1.251,0.6940000000000001,-0.7490000000000001,-2.521,3.353,2.1719999999999997,0.748,0.0,0.0,-1.379,3.009,3.195,0.529,0.0,0.0,-0.823,2.966,2.8560000000000003,0.7120000000000001,0.0,0.0,-0.579,2.932,2.1109999999999998,0.7,0.0,0.0,-0.62,2.968,1.41,0.0,0.0,0.0,-0.81,3.0180000000000002,1.435,0.0,0.0,0.0,-0.975,2.926,2.1790000000000003,-0.863,-0.535,0.0,-1.095,2.778,2.202,-0.84,-0.583,0.0,-1.006,2.71,2.468,-1.055,-0.521,0.0,-0.894,2.69,3.1069999999999998,-1.3430000000000002,0.0,0.0,-0.975,2.63,3.5210000000000004,-1.5219999999999998,0.0,0.0,-1.156,2.524,3.8080000000000003,-1.8230000000000002,-0.57,0.0,-1.31,2.344,3.7739999999999996,-1.788,-1.045,0.0,-1.288,2.144,3.437,-1.651,-1.369,0.0,-1.051,2.008,3.35,-1.665,-1.415,0.0,-0.7390000000000001,1.88,3.319,-1.3459999999999999,-1.102,0.0,-0.508,1.681,3.338,-0.9670000000000001,-0.72,0.0,0.0,1.42,3.3689999999999998,-0.603,0.0,0.0,-0.535,1.194,3.12,-0.5870000000000001,-0.7759999999999999,0.0,-0.662,1.0,2.24,0.0,-0.888,0.0,-0.547,0.96,1.9340000000000002,0.0,-0.9259999999999999,0.0,0.0,0.9079999999999999,2.0909999999999997,0.0,-0.848,0.0,0.0,0.78,1.59,0.0,-0.7759999999999999,0.0,0.0,0.695,1.575,0.0,-0.748,0.0,0.0,0.6629999999999999,1.774,0.0,-0.508,0.0,0.0,0.67,2.8110000000000004,-0.638,0.0,0.0,0.0,0.0,3.3160000000000003,-1.4780000000000002,0.0,0.0,0.0,0.0,,,,,,,,,,,,,,,,,,,,,,,,,,,,,,,,,,,,,,,,,,,,,,,,,,,,,,,,,,,,,,,,,,,,,,,,,,,,,,,,,,,,,,,,,,,,,,,,,,,,,,,,,,,,,,,,,,,,,,,,,,,,,,,,,,,,,,,,,,,,,,,,,,,,,,,,,,,,,,,,,,,,,,,,,,,,,,,,,,,,,,,,,,,,,,,,,,,,,,,,,,,,,,,,,,,pullUp
accX,-1.6030000000000002,-4.862,-1.5519999999999998,-0.8270000000000001,0.0,0.7559999999999999,-2.7319999999999998,-5.393,-2.069,-0.946,0.0,0.9390000000000001,-4.005,-5.386,-2.613,-1.145,0.0,1.138,-4.441,-5.851,-2.924,-1.2670000000000001,0.0,1.412,-4.465,-6.609,-2.81,-1.4469999999999998,0.0,1.787,-4.096,-7.233,-2.125,-1.726,-0.74,2.235,-3.682,-7.83,-0.644,-1.936,-1.399,2.5610000000000004,-3.634,-7.864,0.0,-1.974,-1.9269999999999998,2.8280000000000003,-2.86,-9.051,0.0,-1.9040000000000001,-2.336,3.111,-2.208,-10.201,0.512,-2.082,-3.048,3.384,-1.663,-8.252,1.386,-2.479,-4.152,3.533,-2.205,-0.941,2.8089999999999997,-2.5780000000000003,-5.004,3.665,-1.137,1.411,2.792,-1.679,-4.566,3.676,-1.266,1.751,1.695,-0.604,-3.681,3.6039999999999996,-0.601,1.077,0.935,0.0,-2.9819999999999998,3.553,0.0,0.0,0.0,0.0,-2.635,3.412,0.789,0.0,0.0,0.0,-2.265,3.3989999999999996,1.6369999999999998,0.667,0.0,0.0,-1.7480000000000002,3.39,1.665,0.0,0.0,0.732,-1.073,3.335,1.9340000000000002,0.0,0.0,0.586,-0.652,3.1,1.459,0.0,0.0,0.0,-0.643,3.0869999999999997,1.996,-0.9670000000000001,0.0,0.0,-0.7759999999999999,3.1210000000000004,2.249,-0.584,0.0,0.0,-0.953,3.113,2.3409999999999997,-1.304,0.0,0.6509999999999999,-0.735,2.8939999999999997,2.285,-1.117,-0.527,0.665,0.0,2.7260000000000004,2.06,-1.228,-0.736,0.507,0.0,2.687,1.916,-1.262,-0.74,0.0,0.0,2.698,1.85,-1.033,0.0,0.628,0.0,2.75,2.5639999999999996,-1.0390000000000001,0.0,0.946,0.0,2.79,3.404,-1.601,-0.619,1.036,0.0,2.76,4.2860000000000005,-2.536,-1.065,0.836,-0.866,2.565,4.728,-2.478,-1.278,0.552,-1.234,2.295,4.533,-2.068,-1.507,0.0,-1.304,1.979,4.052,-1.5119999999999998,-1.7480000000000002,0.626,-1.003,1.6980000000000002,2.7489999999999997,-1.329,-1.9769999999999999,0.6629999999999999,0.0,1.505,1.179,-0.715,-1.891,0.5820000000000001,0.0,1.453,1.875,-0.5720000000000001,-1.463,0.503,0.6509999999999999,1.494,2.7439999999999998,-0.625,-1.0190000000000001,0.0,0.0,1.4680000000000002,3.5869999999999997,-0.755,0.0,0.0,0.0,1.218,3.3960000000000004,-0.642,0.0,0.0,0.0,0.882,2.7680000000000002,-0.63,-0.846,0.0,0.0,0.672,1.824,0.0,-1.22,0.0,0.0,0.662,1.9880000000000002,-0.545,-1.1320000000000001,0.0,0.0,0.6559999999999999,2.291,-0.627,-0.672,0.0,0.0,0.541,2.469,-0.68,0.0,0.0,0.0,0.0,2.614,-0.5429999999999999,0.0,0.0,0.0,0.0,2.53,-0.531,0.0,0.0,0.0,0.0,,,,,,,,,,,,,,,,,,,,,,,,,,,,,,,,,,,,,,,,,,,,,,,,,,,,,,,,,,,,,,,,,,,,,,,,,,,,,,,,,,,,,,,,,,,,,,,,,,,,,,,,,,,,,,,,,,,,,,,,,,,,,,,,,,,,,,,,,,,,,,,,,,,,,,,,,,,,,,,,,,,,,,,,,,,,,,,,,,,,,,,,,,,,,,,,,,,,,,,pullUp
accX,-1.006,-5.245,-1.1640000000000001,-0.968,0.0,0.736,-0.972,-5.231,-0.887,-1.158,-0.7759999999999999,0.922,-2.011,-5.303999999999999,-1.249,-1.3130000000000002,-1.212,1.214,-4.587,-5.202999999999999,-2.129,-1.3330000000000002,-1.053,1.719,-4.97,-7.006,-2.568,-1.364,-0.8059999999999999,2.083,-4.107,-8.171,-2.312,-1.656,-1.0859999999999999,2.324,-4.573,-8.401,-1.6019999999999999,-2.068,-1.994,2.641,-6.725,-8.571,-0.987,-2.079,-2.43,3.0639999999999996,-6.595,-9.834,-0.721,-1.7409999999999999,-1.626,3.407,-4.324,-11.677999999999999,-0.642,-1.6119999999999999,-0.616,3.3539999999999996,-1.304,-11.14,0.647,-1.933,-0.643,3.404,1.179,1.1520000000000001,2.1919999999999997,-2.1319999999999997,-2.053,3.718,0.0,3.6860000000000004,2.708,-1.886,-3.411,4.152,-1.1079999999999999,1.8319999999999999,1.629,-1.2570000000000001,-2.447,4.1739999999999995,1.7890000000000001,0.878,1.178,-1.248,0.0,3.3810000000000002,3.693,2.364,1.874,-1.215,0.0,3.0069999999999997,4.364,2.883,1.652,-0.8440000000000001,0.0,3.07,2.827,2.627,1.81,-0.6890000000000001,-1.795,3.2569999999999997,3.127,1.082,1.6230000000000002,-0.647,-2.521,3.345,3.59,0.0,0.687,-0.518,-2.237,2.9989999999999997,3.427,0.7340000000000001,0.0,0.0,-1.7080000000000002,2.66,2.7489999999999997,0.84,0.0,0.0,-1.4369999999999998,2.497,1.955,0.75,0.0,0.0,-1.5430000000000001,2.483,1.402,0.5660000000000001,0.0,0.0,-1.751,2.399,0.6609999999999999,0.546,0.0,0.0,-1.7309999999999999,2.378,0.0,0.0,-0.601,0.0,-1.2819999999999998,2.42,0.0,0.0,-0.647,0.0,-0.731,2.468,1.0979999999999999,0.0,0.0,0.0,0.0,2.491,1.7409999999999999,-0.645,0.0,0.0,0.0,2.503,2.155,-0.773,0.0,0.0,-0.604,2.505,2.101,-1.012,0.0,0.0,-0.8240000000000001,2.524,2.238,-1.364,0.0,0.0,-0.925,2.532,2.498,-1.524,0.0,0.0,-0.985,2.434,2.4,-1.349,-0.556,0.0,-0.9490000000000001,2.285,2.253,-1.3230000000000002,-0.9359999999999999,0.0,-0.816,2.238,2.222,-1.621,-1.157,0.0,-0.522,2.18,3.602,-1.9069999999999998,-1.234,0.0,0.0,1.9480000000000002,3.752,-1.686,-1.3230000000000002,0.0,0.0,1.65,4.165,-1.6469999999999998,-1.296,0.0,0.0,1.306,3.266,-1.207,-1.2570000000000001,0.0,0.0,0.903,2.677,-0.774,-1.056,0.0,0.564,0.772,2.49,-0.6940000000000001,-0.9179999999999999,0.0,0.7609999999999999,0.634,2.805,-0.713,-0.608,0.0,0.634,0.0,2.186,0.0,0.0,0.0,0.0,0.0,1.746,0.0,0.0,0.0,0.0,0.0,1.9369999999999998,0.0,0.0,0.0,0.0,0.0,2.394,0.0,0.0,0.0,0.0,0.0,,,,,,,,,,,,,,,,,,,,,,,,,,,,,,,,,,,,,,,,,,,,,,,,,,,,,,,,,,,,,,,,,,,,,,,,,,,,,,,,,,,,,,,,,,,,,,,,,,,,,,,,,,,,,,,,,,,,,,,,,,,,,,,,,,,,,,,,,,,,,,,,,,,,,,,,,,,,,,,,,,,,,,,,,,,,,,,,,,,,,,,,,,,,,,,,,,,,,,,pullUp
accX,-3.155,-5.723,-2.388,-1.238,0.0,1.301,-4.148,-5.9639999999999995,-2.8489999999999998,-1.496,0.0,1.6230000000000002,-4.467,-6.52,-2.716,-1.72,-0.509,1.925,-4.8069999999999995,-6.736000000000001,-2.221,-1.7280000000000002,0.0,2.25,-4.605,-7.376,-1.696,-1.6680000000000001,-0.595,2.6289999999999996,-4.079,-8.486,-1.287,-1.87,-0.937,3.048,-3.51,-9.441,0.0,-2.128,-1.546,3.267,-3.488,-10.987,0.0,-2.214,-1.713,3.4730000000000003,-2.627,-12.075999999999999,1.2919999999999998,-2.036,-1.546,3.6319999999999997,-0.562,0.0,2.029,-1.6569999999999998,-1.061,3.798,1.139,4.571000000000001,1.516,-1.499,-1.044,3.673,1.389,4.14,1.3730000000000002,-1.694,-1.841,3.725,0.0,3.938,1.449,-1.8559999999999999,-2.915,3.72,-2.988,3.826,1.288,-1.588,-3.205,3.82,-2.109,1.5419999999999998,0.86,-0.925,-2.439,4.015,1.216,0.0,0.0,-0.516,-1.785,4.015,2.379,-0.929,0.0,0.0,-1.421,3.8160000000000003,1.919,-0.578,0.0,0.0,-1.2670000000000001,3.633,0.0,0.0,0.0,0.0,-1.197,3.58,0.0,-0.9109999999999999,0.0,0.0,-0.8190000000000001,3.605,2.249,-2.5340000000000003,-0.642,0.0,0.0,3.48,3.466,-2.665,-0.935,0.0,0.0,3.3710000000000004,3.852,-2.397,-0.6809999999999999,0.0,0.0,3.197,4.141,-2.3609999999999998,0.0,0.0,0.0,3.054,4.211,-2.201,0.0,0.0,-0.637,2.9219999999999997,4.013,-1.9869999999999999,0.0,0.0,-0.887,2.8280000000000003,3.5589999999999997,-1.985,0.0,0.6779999999999999,-1.1159999999999999,2.725,3.522,-2.298,-0.84,0.6679999999999999,-1.161,2.5669999999999997,3.5839999999999996,-2.224,-1.203,0.5539999999999999,-1.138,2.3,3.437,-1.9909999999999999,-1.5119999999999998,0.0,-1.014,1.9880000000000002,2.497,-1.252,-1.56,0.0,0.0,1.564,1.784,-0.733,-1.3230000000000002,0.0,0.0,1.454,2.3040000000000003,-0.728,-0.884,0.0,0.701,1.3730000000000002,2.676,-0.882,-0.6409999999999999,0.0,0.875,1.275,3.029,-0.956,0.0,0.0,0.643,1.125,2.678,-0.5539999999999999,0.0,0.0,0.0,1.036,2.825,0.0,0.531,0.0,0.0,1.051,3.27,0.0,0.6759999999999999,0.0,0.0,1.015,3.26,0.0,0.504,0.0,0.0,0.922,3.307,0.0,0.0,0.0,-0.547,0.8490000000000001,3.2760000000000002,-0.748,0.0,0.0,-0.517,0.759,3.1489999999999996,-1.314,0.0,0.0,0.0,0.0,3.4389999999999996,-1.6030000000000002,0.0,0.0,0.0,0.0,2.715,-1.234,-0.5579999999999999,0.0,0.0,-0.6779999999999999,,,,,,,,,,,,,,,,,,,,,,,,,,,,,,,,,,,,,,,,,,,,,,,,,,,,,,,,,,,,,,,,,,,,,,,,,,,,,,,,,,,,,,,,,,,,,,,,,,,,,,,,,,,,,,,,,,,,,,,,,,,,,,,,,,,,,,,,,,,,,,,,,,,,,,,,,,,,,,,,,,,,,,,,,,,,,,,,,,,,,,,,,,,,,,,,,,,,,,,,,,,,,,,,,,,,,,,,,pullUp
