,00_accX,00_accY,00_accZ,00_gyroX,00_gyroY,00_gyroZ,01_accX,01_accY,01_accZ,01_gyroX,01_gyroY,01_gyroZ,02_accX,02_accY,02_accZ,02_gyroX,02_gyroY,02_gyroZ,03_accX,03_accY,03_accZ,03_gyroX,03_gyroY,03_gyroZ,04_accX,04_accY,04_accZ,04_gyroX,04_gyroY,04_gyroZ,05_accX,05_accY,05_accZ,05_gyroX,05_gyroY,05_gyroZ,06_accX,06_accY,06_accZ,06_gyroX,06_gyroY,06_gyroZ,07_accX,07_accY,07_accZ,07_gyroX,07_gyroY,07_gyroZ,08_accX,08_accY,08_accZ,08_gyroX,08_gyroY,08_gyroZ,09_accX,09_accY,09_accZ,09_gyroX,09_gyroY,09_gyroZ,10_accX,10_accY,10_accZ,10_gyroX,10_gyroY,10_gyroZ,11_accX,11_accY,11_accZ,11_gyroX,11_gyroY,11_gyroZ,12_accX,12_accY,12_accZ,12_gyroX,12_gyroY,12_gyroZ,13_accX,13_accY,13_accZ,13_gyroX,13_gyroY,13_gyroZ,14_accX,14_accY,14_accZ,14_gyroX,14_gyroY,14_gyroZ,15_accX,15_accY,15_accZ,15_gyroX,15_gyroY,15_gyroZ,16_accX,16_accY,16_accZ,16_gyroX,16_gyroY,16_gyroZ,17_accX,17_accY,17_accZ,17_gyroX,17_gyroY,17_gyroZ,18_accX,18_accY,18_accZ,18_gyroX,18_gyroY,18_gyroZ,19_accX,19_accY,19_accZ,19_gyroX,19_gyroY,19_gyroZ,20_accX,20_accY,20_accZ,20_gyroX,20_gyroY,20_gyroZ,21_accX,21_accY,21_accZ,21_gyroX,21_gyroY,21_gyroZ,22_accX,22_accY,22_accZ,22_gyroX,22_gyroY,22_gyroZ,23_accX,23_accY,23_accZ,23_gyroX,23_gyroY,23_gyroZ,24_accX,24_accY,24_accZ,24_gyroX,24_gyroY,24_gyroZ,25_accX,25_accY,25_accZ,25_gyroX,25_gyroY,25_gyroZ,26_accX,26_accY,26_accZ,26_gyroX,26_gyroY,26_gyroZ,27_accX,27_accY,27_accZ,27_gyroX,27_gyroY,27_gyroZ,28_accX,28_accY,28_accZ,28_gyroX,28_gyroY,28_gyroZ,29_accX,29_accY,29_accZ,29_gyroX,29_gyroY,29_gyroZ,30_accX,30_accY,30_accZ,30_gyroX,30_gyroY,30_gyroZ,31_accX,31_accY,31_accZ,31_gyroX,31_gyroY,31_gyroZ,32_accX,32_accY,32_accZ,32_gyroX,32_gyroY,32_gyroZ,33_accX,33_accY,33_accZ,33_gyroX,33_gyroY,33_gyroZ,34_accX,34_accY,34_accZ,34_gyroX,34_gyroY,34_gyroZ,35_accX,35_accY,35_accZ,35_gyroX,35_gyroY,35_gyroZ,36_accX,36_accY,36_accZ,36_gyroX,36_gyroY,36_gyroZ,37_accX,37_accY,37_accZ,37_gyroX,37_gyroY,37_gyroZ,38_accX,38_accY,38_accZ,38_gyroX,38_gyroY,38_gyroZ,39_accX,39_accY,39_accZ,39_gyroX,39_gyroY,39_gyroZ,40_accX,40_accY,40_accZ,40_gyroX,40_gyroY,40_gyroZ,41_accX,41_accY,41_accZ,41_gyroX,41_gyroY,41_gyroZ,42_accX,42_accY,42_accZ,42_gyroX,42_gyroY,42_gyroZ,43_accX,43_accY,43_accZ,43_gyroX,43_gyroY,43_gyroZ,44_accX,44_accY,44_accZ,44_gyroX,44_gyroY,44_gyroZ,45_accX,45_accY,45_accZ,45_gyroX,45_gyroY,45_gyroZ,46_accX,46_accY,46_accZ,46_gyroX,46_gyroY,46_gyroZ,47_accX,47_accY,47_accZ,47_gyroX,47_gyroY,47_gyroZ,48_accX,48_accY,48_accZ,48_gyroX,48_gyroY,48_gyroZ,category
accX,0.6275946275946276,0.8913308913308914,-0.9572649572649572,0.6875,1.96875,0.71875,0.0,0.6544566544566545,-1.0976800976800978,1.125,3.09375,0.65625,2.525030525030525,-1.1489621489621489,-0.7741147741147741,1.78125,4.34375,0.71875,5.741147741147741,-2.6483516483516483,-1.0708180708180708,2.03125,5.28125,0.0,7.227106227106228,-3.954822954822955,-0.8925518925518926,1.625,5.40625,-0.71875,7.344322344322344,-2.13064713064713,-0.5946275946275946,1.09375,4.78125,-1.46875,6.177045177045177,-0.8595848595848596,0.0,1.0,4.1875,-1.71875,5.683760683760683,0.0,0.8485958485958486,1.6875,4.15625,-2.25,5.415140415140415,0.0,1.0854700854700854,2.4375,4.4375,-2.96875,4.3699633699633695,0.0,1.3064713064713065,3.3125,4.71875,-3.375,5.4273504273504285,0.0,1.4212454212454213,3.8125,4.71875,-3.4375,6.531135531135532,-0.7094017094017094,1.575091575091575,4.21875,4.09375,-3.71875,3.791208791208791,-2.415140415140415,0.8229548229548229,4.1875,3.15625,-4.375,1.094017094017094,-3.653235653235653,0.5714285714285714,4.21875,3.09375,-4.09375,1.1782661782661783,-5.647130647130648,0.0,4.3125,3.0625,-3.78125,1.612942612942613,-7.728937728937728,0.0,4.4375,2.5,-3.75,0.8608058608058609,-8.945054945054945,0.0,4.46875,1.84375,-3.6875,0.0,-9.411477411477412,-0.9572649572649572,4.4375,1.1875,-3.59375,-2.13064713064713,-9.572649572649572,-2.263736263736264,4.34375,0.78125,-3.3125,-3.5470085470085464,-9.719169719169717,-3.227106227106227,4.21875,0.6875,-2.9375,-3.1746031746031744,-9.874236874236876,-3.4810744810744816,3.8125,0.0,-2.6875,-2.6849816849816848,-9.330891330891333,-2.659340659340659,3.5,0.0,-2.5,-3.5811965811965814,-8.846153846153848,-2.6336996336996337,3.40625,0.0,-2.21875,-4.9572649572649565,-7.841269841269841,-2.9536019536019538,3.25,0.0,-1.90625,-3.768009768009768,-7.459096459096459,-2.614163614163614,2.8125,0.0,-1.5625,-4.686202686202686,-6.686202686202687,-3.0085470085470085,2.5625,0.0,-1.25,-4.409035409035409,-5.982905982905983,-2.2295482295482296,2.125,-0.78125,-0.75,-4.1782661782661785,-5.769230769230768,-0.8290598290598291,1.875,-1.03125,0.0,-5.096459096459097,-5.136752136752137,-1.0952380952380951,1.84375,-0.71875,0.0,-4.343101343101344,-4.758241758241757,-1.5274725274725274,1.65625,0.0,0.0,-1.5323565323565325,-4.054945054945056,-1.1318681318681318,1.25,0.0,0.0,0.0,-3.89010989010989,-3.9609279609279615,1.21875,0.0,0.0,1.0805860805860803,-6.257631257631258,-7.851037851037852,1.15625,0.0,0.0,1.4957264957264955,-4.912087912087912,-2.8852258852258847,0.0,0.59375,0.0,2.5579975579975582,-2.8571428571428568,2.9938949938949935,0.0,0.53125,0.0,1.2356532356532357,-1.6581196581196582,4.15995115995116,0.0,0.0,0.0,0.0,-2.4920634920634916,0.5921855921855922,0.5625,0.0,0.0,0.0,-4.0366300366300365,-2.208791208791209,0.0,0.0,0.0,0.0,-3.720390720390721,-0.5934065934065934,0.0,0.0,0.0,-0.7338217338217338,-3.1330891330891335,0.5982905982905983,0.0,0.0,0.0,-0.8070818070818071,-3.3089133089133087,0.6214896214896215,0.0,0.0,0.0,0.0,-3.783882783882784,0.0,0.0,0.0,0.0,0.0,-4.101343101343101,-0.9694749694749696,0.0,0.0,0.0,0.0,-3.4725274725274726,0.0,0.0,0.0,0.0,0.5225885225885226,-3.312576312576313,0.0,0.0,0.0,0.0,0.0,-3.758241758241758,0.0,-0.53125,-0.59375,0.0,,,,,,,,,,,,,,,,,,,wp_back
accX,-0.8021978021978022,0.0,-3.695970695970696,0.65625,3.40625,0.875,2.064713064713065,0.0,-3.4871794871794872,0.875,5.15625,0.96875,3.8986568986568986,-1.2075702075702075,-1.7838827838827842,1.28125,6.1875,0.59375,5.551892551892551,-1.735042735042735,-0.8351648351648352,1.75,7.25,0.0,6.628815628815629,-1.8852258852258847,-0.6666666666666666,2.25,7.96875,-1.34375,9.652014652014653,-2.653235653235653,0.0,2.6875,8.28125,-2.15625,10.51037851037851,-3.78998778998779,0.0,2.875,7.46875,-3.0625,6.401709401709403,-2.6361416361416357,0.0,2.84375,6.53125,-3.9375,3.3956043956043955,0.0,0.0,2.84375,6.53125,-4.25,3.924297924297924,2.5213675213675213,0.8168498168498168,3.09375,6.65625,-4.25,5.288156288156288,3.2527472527472527,0.7887667887667887,3.21875,5.6875,-4.21875,4.465201465201465,-0.9084249084249084,0.0,3.1875,4.03125,-4.21875,2.05006105006105,-5.540903540903541,0.0,3.3125,2.78125,-4.21875,0.0,-7.645909645909647,0.0,3.6875,2.84375,-4.21875,0.0,-9.55067155067155,-1.4566544566544566,3.71875,2.8125,-3.9375,0.0,-9.871794871794874,-1.5921855921855919,3.40625,2.125,-3.65625,0.0,-9.598290598290598,-1.462759462759463,3.25,1.21875,-3.34375,-2.1868131868131866,-9.443223443223443,-1.794871794871795,3.34375,0.90625,-3.09375,-3.2564102564102564,-9.252747252747254,-2.67032967032967,3.28125,1.125,-2.9375,-2.8717948717948723,-9.129426129426127,-2.9914529914529915,2.96875,0.90625,-2.5625,-3.1770451770451764,-8.446886446886447,-3.2991452991452985,2.46875,0.59375,-2.28125,-3.3907203907203907,-7.477411477411477,-2.393162393162393,2.1875,0.0,-1.96875,-3.1623931623931623,-7.0537240537240535,-1.7851037851037852,2.15625,0.0,-1.625,-3.122100122100122,-7.188034188034187,-1.978021978021978,1.78125,0.0,-1.1875,-2.7313797313797314,-5.94017094017094,-1.0622710622710625,1.625,0.0,-0.9375,-3.21001221001221,-5.163614163614164,-0.5787545787545788,1.59375,-0.53125,-0.6875,-3.2295482295482296,-4.829059829059829,0.0,1.53125,-0.53125,0.0,-2.5836385836385842,-4.893772893772893,-0.5824175824175825,1.59375,0.0,0.0,-2.9230769230769234,-4.061050061050061,-0.984126984126984,1.4375,0.0,0.0,-1.975579975579976,-3.854700854700855,-0.8021978021978022,1.34375,0.0,0.0,-0.6776556776556777,-3.192918192918193,0.8559218559218559,1.34375,0.0,0.0,-1.5763125763125765,-3.446886446886447,1.155067155067155,1.34375,0.0,0.0,-1.0244200244200243,-5.2673992673992664,-5.990231990231991,0.96875,0.0,0.0,3.3772893772893773,-5.410256410256411,-8.217338217338218,0.0,1.0625,0.0,1.5470085470085468,-3.5189255189255184,0.0,0.0,0.0,0.0,-1.557997557997558,-3.1807081807081805,2.8229548229548236,0.0,0.0,0.0,-1.9511599511599511,-3.6190476190476186,0.0,0.0,0.0,0.0,0.0,-3.5579975579975582,-1.2466422466422469,0.0,0.0,0.0,0.7936507936507936,-3.1941391941391943,0.0,0.0,0.0,0.0,0.8351648351648352,-3.0378510378510377,0.0,0.0,0.0,0.0,0.5409035409035409,-2.9047619047619047,0.0,0.0,0.0,0.0,0.0,-2.614163614163614,0.0,0.0,0.0,0.0,0.0,-2.7411477411477403,0.0,0.0,0.0,0.0,0.0,-3.051282051282051,0.0,0.0,0.0,0.0,0.0,-3.313797313797314,0.0,0.0,0.0,0.0,0.0,-3.7118437118437115,-0.5311355311355311,0.0,0.0,0.0,0.0,-4.045177045177045,-0.9926739926739928,0.0,0.0,0.0,-1.876678876678877,-4.186813186813187,-1.9096459096459095,-0.75,0.0,0.0,-2.8766788766788767,-5.218559218559219,-2.814407814407814,-1.0,-0.75,0.0,wp_back
accX,1.2503052503052503,0.6141636141636142,-3.382173382173382,1.03125,2.65625,0.0,1.3711843711843712,-0.6483516483516484,-3.0793650793650795,0.625,3.6875,0.0,2.9853479853479854,-1.57997557997558,-2.8852258852258847,0.0,4.59375,0.0,3.852258852258852,-1.9694749694749696,-2.1098901098901104,0.0,5.5,-0.625,4.1098901098901095,-1.8131868131868127,-1.5067155067155067,0.53125,6.28125,-1.4375,4.451770451770452,-2.1770451770451764,-1.8083028083028083,0.90625,6.9375,-2.15625,4.394383394383396,-1.894993894993895,-1.6251526251526252,1.21875,7.5625,-2.6875,6.11965811965812,-1.6825396825396826,-0.5604395604395604,1.5625,7.75,-3.21875,6.4041514041514045,0.0,0.0,1.90625,7.28125,-3.65625,5.362637362637362,1.2258852258852257,0.0,2.4375,6.8125,-4.0,5.888888888888888,2.4786324786324787,0.0,2.96875,6.40625,-4.28125,4.6874236874236885,0.8485958485958486,0.0,3.125,5.5,-4.53125,2.3736263736263736,-4.86935286935287,-0.6288156288156288,3.21875,4.71875,-4.59375,0.0,-7.05006105006105,-0.9450549450549449,3.6875,4.28125,-4.21875,1.362637362637363,-8.738705738705738,-0.9267399267399268,3.90625,3.65625,-3.96875,1.6862026862026862,-10.133089133089133,-1.3711843711843712,3.8125,2.3125,-3.71875,-0.8840048840048841,-9.940170940170939,-2.0207570207570207,3.78125,1.46875,-3.46875,-2.435897435897436,-9.804639804639804,-2.4737484737484743,3.78125,1.25,-3.15625,-2.5396825396825395,-9.649572649572649,-2.7387057387057387,3.71875,1.0,-2.90625,-2.8644688644688645,-9.55067155067155,-2.727716727716728,3.46875,0.0,-2.59375,-3.9536019536019538,-8.925518925518926,-3.11965811965812,3.21875,0.0,-2.3125,-4.4444444444444455,-8.366300366300367,-3.161172161172161,2.90625,0.0,-1.90625,-4.684981684981684,-7.938949938949939,-3.034188034188034,2.5625,0.0,-1.5625,-3.8766788766788767,-7.450549450549451,-2.7753357753357752,2.1875,0.0,-1.25,-3.542124542124542,-6.755799755799756,-2.244200244200244,1.8125,-0.65625,-0.84375,-3.903540903540904,-5.495726495726496,-2.2515262515262515,1.6875,0.0,-0.5625,-2.5995115995116,-5.4774114774114775,-1.7838827838827842,1.5,0.0,0.0,-1.188034188034188,-4.746031746031746,-1.4810744810744811,1.21875,0.0,0.0,-1.1868131868131868,-4.012210012210011,-1.1245421245421243,1.09375,0.0,0.0,-0.7924297924297924,-3.7094017094017095,-0.7277167277167277,1.0,0.0,0.0,0.0,-3.347985347985348,0.0,0.96875,0.0,0.0,0.7594627594627594,-3.608058608058608,-0.5018315018315018,0.8125,0.0,0.0,0.0,-3.507936507936508,-1.8131868131868127,0.0,0.0,0.0,0.0,-2.7387057387057387,-0.5347985347985348,0.0,0.0,0.0,-1.4713064713064714,-2.8021978021978016,-0.8962148962148963,0.0,0.0,0.0,-2.462759462759463,-2.6385836385836385,0.0,0.0,0.0,0.0,-1.9206349206349207,-2.6923076923076925,1.0891330891330893,0.0,0.0,0.0,-0.7838827838827839,-2.9914529914529915,0.0,0.0,0.75,0.0,1.5518925518925517,-3.4847374847374852,-0.9633699633699634,0.0,0.5625,0.0,1.9804639804639803,-3.2002442002442004,0.0,0.0,0.0,0.0,1.678876678876679,-2.78998778998779,0.0,0.0,0.0,0.0,0.6410256410256411,-2.4505494505494507,0.5860805860805861,0.0,0.0,0.0,0.0,-2.6507936507936507,0.0,0.0,0.0,0.0,0.0,-2.973137973137973,0.0,0.0,0.0,0.0,0.0,-3.2771672771672766,0.0,0.0,0.0,0.0,0.0,-3.431013431013431,0.0,0.0,0.0,0.0,0.0,-3.6263736263736255,0.0,0.0,0.0,0.0,,,,,,,,,,,,,wp_back
accX,1.271062271062271,0.811965811965812,-1.5518925518925517,0.625,0.0,0.0,-0.6190476190476191,0.0,-1.750915750915751,1.0,1.1875,0.0,0.0,-0.9706959706959708,-2.7851037851037854,0.96875,2.625,0.0,1.4273504273504274,-2.351648351648352,-4.095238095238095,0.5625,3.40625,0.0,1.8485958485958487,-2.8974358974358974,-4.74969474969475,0.0,3.65625,0.0,1.8119658119658117,-2.6092796092796093,-4.771672771672772,0.0,4.09375,-0.625,1.1367521367521367,-2.7570207570207566,-4.4603174603174605,0.0,5.0625,-1.03125,1.2124542124542124,-1.9035409035409037,-2.7594627594627594,0.0,6.59375,-1.71875,3.06959706959707,-1.7142857142857142,-1.42002442002442,0.9375,7.90625,-2.8125,4.74969474969475,-2.275946275946276,-1.6776556776556777,1.46875,8.125,-3.71875,4.387057387057388,-1.468864468864469,-2.039072039072039,1.5,7.4375,-4.34375,2.6324786324786325,0.0,-1.884004884004884,1.59375,6.625,-4.625,0.0,2.455433455433456,-1.641025641025641,2.03125,7.28125,-4.75,0.9206349206349206,4.615384615384615,-1.4285714285714286,2.375,7.4375,-4.71875,2.7985347985347984,0.5909645909645911,-1.338217338217338,2.46875,6.34375,-4.5,3.1404151404151404,-4.366300366300366,-1.2673992673992671,2.5,4.59375,-4.21875,1.3479853479853479,-6.398046398046397,-1.1819291819291822,2.75,3.40625,-4.0,0.5860805860805861,-8.056166056166056,-1.3724053724053724,3.0,3.0,-3.875,0.0,-8.06959706959707,-1.4017094017094016,3.21875,2.65625,-3.75,0.0,-8.770451770451771,-1.673992673992674,3.1875,1.9375,-3.46875,-1.2319902319902318,-8.313797313797313,-1.7423687423687424,3.28125,1.375,-3.1875,-1.8620268620268619,-8.608058608058608,-2.312576312576313,3.21875,0.875,-2.8125,-2.595848595848596,-8.192918192918192,-2.354090354090354,3.03125,0.0,-2.34375,-3.7191697191697193,-7.413919413919414,-2.934065934065934,2.8125,0.0,-1.9375,-4.032967032967034,-6.626373626373629,-2.6788766788766787,2.46875,-0.625,-1.59375,-4.8949938949938945,-6.615384615384616,-2.0586080586080584,2.3125,-0.96875,-1.1875,-5.012210012210011,-6.021978021978023,-2.383394383394384,2.28125,0.0,-1.03125,-3.879120879120879,-5.886446886446887,-2.93040293040293,2.125,0.0,-0.8125,-2.4871794871794872,-5.7484737484737485,-2.061050061050061,1.6875,0.0,0.0,-2.5494505494505493,-5.020757020757022,-1.4224664224664223,1.375,-0.65625,0.0,-3.2014652014652016,-4.3931623931623935,-1.3772893772893773,1.34375,-0.53125,0.0,-1.953601953601953,-4.571428571428571,-1.1807081807081807,1.34375,0.0,0.0,-0.9096459096459096,-4.931623931623932,-2.5482295482295485,1.0,0.0,0.0,-1.3675213675213675,-5.0317460317460325,-5.797313797313797,0.0,0.0,0.0,1.043956043956044,-3.371184371184371,-2.0769230769230766,0.0,0.0,0.0,0.0,-2.593406593406593,0.0,0.0,0.0,0.0,0.9816849816849816,-2.1098901098901104,1.8034188034188037,0.0,0.0,0.0,0.9267399267399268,-2.2600732600732596,0.5811965811965812,0.0,0.0,0.0,-0.811965811965812,-2.8205128205128207,0.0,0.0,0.0,0.0,-0.6874236874236874,-3.6825396825396814,-0.9328449328449328,0.0,0.0,0.0,0.0,-4.311355311355311,-1.1391941391941391,0.0,0.0,0.0,0.0,-4.42002442002442,-0.9181929181929182,0.0,0.0,0.0,0.0,-4.328449328449328,0.0,0.0,0.0,0.0,0.0,-4.456654456654457,-0.6263736263736264,0.0,0.0,0.0,0.0,-4.736263736263736,-1.1843711843711844,-0.625,0.0,0.0,0.0,-4.693528693528694,-1.733821733821734,-0.96875,0.0,0.59375,,,,,,,,,,,,,,,,,,,wp_back
accX,0.0,0.0,-3.9743589743589753,0.75,1.875,0.0,0.0,-0.8339438339438342,-3.9194139194139193,0.0,3.03125,0.0,1.894993894993895,-0.5775335775335775,-3.4615384615384617,0.0,3.625,0.0,2.0073260073260077,-1.7191697191697193,-3.675213675213675,0.0,3.71875,0.0,0.8339438339438342,-2.0085470085470085,-3.778998778998779,0.0,4.25,0.0,0.0,-1.4224664224664223,-3.578754578754579,0.0,5.1875,-0.625,0.5702075702075702,-2.1184371184371185,-2.6825396825396823,0.0,6.46875,-1.0,1.884004884004884,-1.474969474969475,-1.0647130647130647,0.625,7.5,-1.8125,1.5457875457875458,-0.5702075702075702,0.0,1.21875,7.9375,-2.8125,2.2344322344322345,-0.5592185592185592,-0.7606837606837606,1.8125,8.15625,-3.53125,3.418803418803418,0.0,-0.971916971916972,2.0,7.8125,-3.78125,3.3943833943833943,1.9291819291819288,-0.6324786324786325,2.125,6.8125,-4.0625,3.43956043956044,4.125763125763126,0.0,2.5625,6.09375,-4.0625,3.2039072039072036,2.514041514041514,0.0,3.0,5.5625,-4.0625,3.847374847374848,-1.7423687423687424,0.0,3.21875,4.5625,-4.09375,2.8058608058608057,-5.087912087912088,-0.6031746031746031,3.3125,3.4375,-3.9375,1.1013431013431014,-6.500610500610501,-1.0268620268620268,3.3125,3.0,-3.78125,1.2075702075702075,-7.586080586080586,-1.0525030525030523,3.4375,2.53125,-3.625,0.9401709401709402,-8.096459096459096,-1.1367521367521367,3.625,1.78125,-3.40625,-0.5641025641025641,-8.642246642246642,-1.7277167277167278,3.5625,1.46875,-3.21875,0.0,-8.854700854700855,-1.4578754578754578,3.59375,1.15625,-3.0625,-0.7106227106227107,-8.876678876678877,-1.6935286935286935,3.5,0.71875,-2.875,-1.376068376068376,-8.684981684981684,-2.1587301587301586,3.25,0.0,-2.53125,-3.1245421245421245,-7.781440781440781,-3.3089133089133087,3.125,-0.53125,-2.1875,-4.387057387057388,-7.827838827838828,-3.617826617826618,2.75,-1.03125,-1.75,-5.020757020757022,-7.123321123321122,-3.8205128205128207,2.375,-0.9375,-1.53125,-4.791208791208791,-6.363858363858364,-3.2197802197802203,2.09375,-0.65625,-1.21875,-4.8498168498168495,-5.854700854700853,-3.195360195360196,2.0,0.0,-1.0,-3.56043956043956,-5.881562881562883,-2.816849816849817,1.875,0.0,-0.625,-2.426129426129426,-5.262515262515263,-1.6935286935286935,1.53125,0.0,0.0,-2.294261294261294,-4.747252747252747,-0.6862026862026862,1.34375,-0.65625,0.0,-2.4884004884004884,-4.3028083028083035,-1.0329670329670328,1.3125,0.0,0.0,-2.1587301587301586,-6.407814407814407,-6.6007326007325995,0.875,0.0,0.0,0.8937728937728938,-4.262515262515263,-2.8705738705738706,0.0,0.0,0.0,-0.6239316239316239,-3.456654456654457,-1.277167277167277,0.0,0.0,0.0,-0.9023199023199024,-2.7326007326007327,0.7826617826617827,0.0,0.0,0.0,0.0,-2.571428571428572,1.2918192918192921,0.0,0.0,0.0,0.6336996336996337,-3.1404151404151404,0.0,0.0,0.0,0.0,1.0561660561660562,-3.263736263736264,-1.242979242979243,0.0,0.0,0.0,0.7435897435897436,-3.0989010989010985,-0.8241758241758241,0.0,0.0,0.0,0.5274725274725275,-3.2002442002442004,0.0,0.0,0.0,0.0,0.0,-3.3443223443223444,0.0,0.0,0.0,0.0,0.0,-3.7045177045177047,0.0,0.0,0.0,0.0,0.0,-4.007326007326007,-0.757020757020757,-0.59375,0.0,0.0,-0.9377289377289376,-3.94993894993895,-1.1416361416361416,-0.75,0.0,0.0,-1.5714285714285714,-4.297924297924298,-1.5848595848595848,-0.625,0.0,0.625,,,,,,,,,,,,,,,,,,,wp_back
accX,0.0,-1.1355311355311355,-3.4761904761904763,0.0,0.78125,-0.75,-3.0097680097680097,-1.1343101343101345,-4.122100122100122,0.0,2.1875,-0.96875,-2.1465201465201464,-0.912087912087912,-4.431013431013431,0.0,4.3125,-0.96875,0.0,-2.3028083028083026,-4.231990231990232,0.0,5.4375,0.0,1.5018315018315018,-3.240537240537241,-3.6007326007326013,0.0,5.71875,-0.6875,1.1794871794871795,-3.3772893772893773,-3.3321123321123323,0.0,5.875,-1.125,0.0,-2.2612942612942613,-2.445665445665446,0.0,6.8125,-1.65625,1.1416361416361416,-1.1196581196581197,-0.6361416361416361,0.0,8.03125,-2.3125,3.2148962148962146,-0.5115995115995116,0.0,1.40625,8.4375,-3.5625,3.673992673992674,-1.0818070818070815,-0.6776556776556777,2.09375,8.15625,-4.65625,2.6959706959706957,0.0,-1.1428571428571428,2.25,7.6875,-5.0625,2.3272283272283274,2.5885225885225887,-1.0586080586080586,2.3125,6.78125,-5.0625,2.5579975579975582,4.035409035409035,-0.8400488400488401,2.5625,5.75,-4.84375,2.4285714285714284,1.0976800976800978,-1.0769230769230769,2.75,4.71875,-4.6875,2.462759462759463,-3.683760683760684,-0.9865689865689866,2.78125,3.71875,-4.53125,1.757020757020757,-6.746031746031746,-0.9047619047619048,2.9375,2.90625,-4.34375,0.7032967032967034,-8.371184371184372,-0.9511599511599512,3.0625,2.375,-4.21875,-0.6483516483516484,-8.663003663003662,-1.0354090354090355,3.34375,2.21875,-3.9375,0.0,-8.855921855921855,-1.0134310134310134,3.40625,2.0,-3.625,0.0,-9.018315018315016,-0.5531135531135531,3.375,1.34375,-3.375,-1.1245421245421243,-8.904761904761905,-0.8229548229548229,3.4375,0.53125,-3.0625,-3.4517704517704515,-8.842490842490843,-1.702075702075702,3.40625,0.0,-2.6875,-3.920634920634921,-8.343101343101344,-2.0354090354090357,3.28125,0.0,-2.15625,-4.271062271062272,-7.886446886446887,-3.5775335775335777,3.09375,0.0,-1.71875,-4.717948717948718,-6.774114774114773,-3.9194139194139193,2.65625,0.0,-1.5,-5.0317460317460325,-6.512820512820514,-4.354090354090353,2.375,0.0,-1.09375,-3.965811965811966,-6.351648351648352,-3.934065934065934,1.9375,0.0,-0.75,-2.807081807081807,-5.628815628815629,-3.467643467643468,1.625,0.0,-0.59375,-2.571428571428572,-5.3821733821733835,-3.0427350427350426,1.4375,0.0,0.0,-1.531135531135531,-4.781440781440781,-1.619047619047619,1.0625,0.0,0.0,0.0,-4.218559218559219,-0.7313797313797313,0.875,0.0,0.0,0.0,-3.6935286935286937,0.0,0.75,-0.75,0.0,-1.8388278388278387,-3.763125763125763,-2.225885225885226,0.625,-0.8125,0.0,-1.144078144078144,-4.219780219780221,-2.8644688644688645,0.0,0.0,0.0,0.0,-3.305250305250305,-0.7643467643467643,0.0,0.0,0.0,0.0,-3.311355311355311,0.0,0.0,0.0,0.0,0.0,-2.9536019536019538,0.0,0.0,0.0,0.0,-0.6739926739926739,-3.0122100122100113,0.0,0.0,0.0,0.0,0.0,-3.6312576312576312,-0.6776556776556777,0.0,0.0,0.0,0.5750915750915749,-3.3064713064713063,0.0,0.0,0.0,0.0,0.5970695970695971,-3.4737484737484734,0.0,0.0,0.0,0.0,0.0,-3.468864468864469,0.0,0.0,0.0,0.0,0.0,-3.611721611721612,0.0,0.0,0.0,0.0,0.0,-4.04029304029304,-0.6691086691086691,0.0,0.0,0.0,0.0,-4.3589743589743595,-1.0256410256410255,-0.6875,0.0,0.0,,,,,,,,,,,,,,,,,,,,,,,,,wp_back
accX,0.0,0.0,-3.2307692307692313,0.90625,2.4375,0.0,0.0,-1.619047619047619,-4.853479853479853,1.1875,4.40625,0.0,3.053724053724053,-3.9145299145299135,-5.6593406593406606,0.75,5.8125,0.0,3.95970695970696,-3.6776556776556775,-4.531135531135531,0.0,6.1875,-0.96875,2.8339438339438336,-1.8217338217338217,-2.8034188034188032,0.0,6.5625,-1.8125,2.404151404151404,-1.9938949938949944,-1.31013431013431,0.59375,7.65625,-2.8125,3.561660561660561,-2.6300366300366296,-0.7496947496947497,1.21875,8.5625,-3.625,4.611721611721611,-1.809523809523809,-0.9181929181929182,1.375,8.53125,-4.1875,4.782661782661783,0.0,-0.8778998778998779,1.375,7.40625,-4.375,4.527472527472527,1.2136752136752136,-0.6410256410256411,1.53125,6.125,-4.40625,3.0,2.4896214896214897,-0.5262515262515263,1.9375,5.25,-4.5625,1.3064713064713065,2.686202686202686,-1.0097680097680095,2.375,5.15625,-4.6875,2.144078144078144,-0.8717948717948718,-0.9926739926739928,2.6875,5.03125,-4.5,2.6373626373626373,-4.238095238095238,0.0,2.90625,3.96875,-4.28125,2.555555555555556,-7.565323565323565,0.0,3.125,3.09375,-4.0625,0.6581196581196581,-8.262515262515262,-0.6202686202686203,3.40625,3.0625,-4.0625,0.7557997557997558,-8.65079365079365,-0.8376068376068376,3.71875,2.71875,-3.84375,0.9792429792429792,-9.715506715506717,-1.1147741147741148,3.78125,1.875,-3.53125,0.0,-9.443223443223443,-0.9877899877899878,3.78125,1.46875,-3.3125,-1.8608058608058609,-9.067155067155069,-1.6837606837606838,4.0,1.75,-3.15625,-1.868131868131868,-8.695970695970695,-2.8107448107448105,3.9375,1.46875,-2.78125,-1.7887667887667889,-9.1001221001221,-3.3907203907203907,3.34375,0.71875,-2.3125,-2.769230769230769,-8.013431013431013,-3.5775335775335777,3.09375,0.0,-2.03125,-3.926739926739927,-7.667887667887667,-3.703296703296704,2.9375,0.0,-1.5625,-3.235653235653236,-6.962148962148963,-4.052503052503051,2.4375,0.0,-1.21875,-2.675213675213675,-6.195360195360196,-3.1782661782661785,1.90625,0.0,-0.90625,-2.9267399267399266,-5.5726495726495715,-2.2857142857142856,1.625,-0.6875,-0.59375,-3.611721611721612,-5.478632478632479,-2.175824175824176,1.5625,-0.875,0.0,-2.421245421245421,-4.935286935286936,-1.9108669108669107,1.375,-0.59375,0.0,-1.465201465201465,-4.621489621489621,-1.3003663003663004,1.03125,0.0,0.0,-1.1367521367521367,-3.938949938949939,0.0,0.78125,0.0,0.0,0.0,-3.571428571428572,0.0,0.8125,0.0,0.0,0.0,-3.1562881562881566,-0.6202686202686203,0.75,0.0,0.0,-0.7692307692307693,-2.958485958485958,-0.811965811965812,0.59375,0.0,0.0,-0.6092796092796092,-3.282051282051282,-2.015873015873016,0.0,0.0,0.0,0.0,-2.816849816849817,-0.557997557997558,0.0,0.0,0.0,0.6361416361416361,-2.2576312576312576,0.6556776556776557,0.0,0.0,0.0,0.0,-2.8949938949938954,-0.5604395604395604,0.0,0.0,0.0,0.0,-3.0805860805860807,-0.7667887667887668,0.0,0.0,0.0,0.0,-2.9230769230769234,0.0,0.0,0.0,0.0,0.0,-2.971916971916972,0.0,0.0,0.0,0.0,0.5848595848595849,-3.4713064713064714,0.0,0.0,0.0,0.0,0.6813186813186813,-3.686202686202686,-0.5885225885225885,0.0,0.0,0.0,,,,,,,,,,,,,,,,,,,,,,,,,,,,,,,,,,,,,wp_back
accX,0.0,0.0,-3.4444444444444446,0.71875,1.28125,0.0,-1.6776556776556777,0.0,-3.5152625152625148,0.96875,3.96875,0.0,2.0,-1.706959706959707,-3.2429792429792434,0.96875,5.1875,-0.65625,2.554334554334554,-2.398046398046398,-3.6666666666666665,0.90625,5.71875,-1.1875,3.6581196581196584,-2.653235653235653,-2.9841269841269837,0.71875,6.1875,-2.0,3.5946275946275947,-2.8083028083028077,-2.15018315018315,0.78125,6.34375,-2.8125,3.323565323565324,-3.0781440781440783,-1.9914529914529917,0.9375,6.46875,-3.625,3.3504273504273505,-3.3736263736263736,-2.2979242979242978,1.0625,6.5625,-4.25,2.565323565323565,-2.1782661782661785,-1.7118437118437118,1.125,6.5,-4.75,2.6507936507936507,-1.2588522588522588,-1.4505494505494505,1.375,6.25,-4.96875,2.166056166056166,-0.5628815628815629,-1.2747252747252746,1.65625,5.90625,-4.84375,2.0354090354090357,0.6080586080586079,-1.1343101343101345,1.84375,6.0625,-4.875,2.415140415140415,2.6361416361416357,0.0,2.0625,6.03125,-5.09375,2.383394383394384,1.9328449328449329,-0.5653235653235653,2.5625,4.75,-4.9375,1.894993894993895,-2.9059829059829063,-0.7374847374847375,2.65625,3.5625,-4.625,0.0,-6.589743589743589,-1.2002442002442002,2.8125,3.125,-4.4375,0.0,-7.6068376068376065,-1.0134310134310134,3.03125,2.90625,-4.21875,-0.5702075702075702,-8.361416361416362,-0.873015873015873,3.25,2.53125,-3.9375,0.0,-9.18070818070818,-1.1245421245421243,3.3125,2.15625,-3.65625,-0.8485958485958486,-9.26862026862027,-1.5982905982905984,3.21875,1.71875,-3.40625,-1.6886446886446886,-8.72039072039072,-1.7081807081807079,3.15625,1.5,-3.03125,-2.117216117216117,-7.831501831501831,-2.087912087912088,3.28125,1.09375,-2.71875,-2.5702075702075704,-8.586080586080586,-2.6630036630036633,3.0625,0.59375,-2.28125,-2.913308913308913,-8.250305250305251,-2.6544566544566544,2.59375,0.0,-2.03125,-3.9230769230769234,-7.224664224664225,-2.68986568986569,2.46875,0.0,-1.5625,-4.293040293040293,-6.716727716727718,-3.62026862026862,2.375,0.5625,-1.28125,-2.1135531135531136,-6.4603174603174605,-3.5042735042735043,1.90625,0.65625,-1.03125,-2.012210012210012,-5.377289377289378,-2.5665445665445668,1.46875,0.0,-0.84375,-1.9084249084249083,-4.903540903540903,-2.1111111111111107,1.34375,0.0,-0.59375,-1.5946275946275947,-4.7374847374847375,-1.652014652014652,1.3125,0.0,0.0,-1.6495726495726497,-4.650793650793651,-1.6068376068376071,1.25,0.0,0.0,-0.5616605616605617,-4.5054945054945055,-1.4029304029304028,1.0,0.0,0.0,-0.7423687423687424,-3.9194139194139193,-0.7142857142857143,0.71875,0.0,0.0,-1.2307692307692308,-3.1050061050061046,0.0,0.71875,-0.625,0.0,-1.8107448107448108,-3.9291819291819285,-1.485958485958486,0.84375,-0.75,0.0,-0.6080586080586079,-4.532356532356532,-2.289377289377289,0.0,0.0,0.0,-0.5787545787545788,-4.17948717948718,-1.6935286935286935,0.0,0.0,0.0,-0.6214896214896215,-3.4236874236874235,0.0,0.0,0.0,0.0,0.8742368742368742,-3.1404151404151404,0.7887667887667887,0.0,0.0,0.0,1.3504273504273503,-3.3846153846153846,0.0,0.0,0.0,0.0,1.0537240537240538,-3.3455433455433456,-0.6678876678876678,0.0,0.0,0.0,0.5787545787545788,-3.688644688644689,-1.0195360195360197,0.0,0.0,0.0,,,,,,,,,,,,,,,,,,,,,,,,,,,,,,,,,,,,,,,,,,,wp_back
accX,0.0,-1.2808302808302807,-4.334554334554333,1.5,3.9375,0.0,1.0231990231990231,-1.242979242979243,-3.8229548229548236,1.03125,4.53125,0.0,2.1355311355311355,-0.7460317460317459,-2.927960927960928,0.96875,5.15625,0.0,2.5177045177045176,-1.166056166056166,-2.0781440781440783,1.03125,5.9375,0.0,3.236874236874237,-0.503052503052503,-0.7203907203907204,1.5,7.0625,-1.65625,4.2002442002442,-0.6678876678876678,-0.7875457875457875,2.125,7.875,-2.90625,5.998778998778999,-2.139194139194139,-1.68986568986569,2.03125,7.71875,-3.96875,5.844932844932845,-1.4847374847374848,0.0,1.78125,6.46875,-4.25,5.056166056166056,0.0,1.575091575091575,2.03125,5.9375,-4.375,5.761904761904763,1.4126984126984128,2.1965811965811968,2.59375,5.34375,-4.46875,6.205128205128204,1.4163614163614164,1.8559218559218558,3.0625,4.375,-4.59375,4.743589743589744,1.0366300366300367,1.398046398046398,3.125,3.46875,-4.71875,2.3919413919413923,0.0,0.9548229548229548,3.09375,3.1875,-4.875,1.4236874236874235,-4.261294261294261,0.0,3.375,3.03125,-4.6875,1.5238095238095235,-8.63980463980464,0.0,3.53125,2.65625,-4.28125,1.9719169719169718,-9.763125763125764,0.0,3.375,2.375,-4.09375,1.5506715506715507,-9.225885225885225,0.0,3.3125,2.0,-3.9375,-0.5836385836385837,-9.825396825396826,-1.485958485958486,3.84375,1.65625,-3.9375,-1.6068376068376071,-10.781440781440782,-3.231990231990232,3.625,1.21875,-3.34375,-1.7228327228327232,-10.51037851037851,-3.686202686202686,3.1875,1.0625,-3.1875,-2.133089133089133,-9.59096459096459,-3.726495726495727,2.875,0.875,-2.9375,-2.056166056166056,-8.626373626373626,-3.2869352869352872,2.6875,0.75,-2.625,-2.2332112332112333,-7.638583638583639,-3.1355311355311355,2.75,0.0,-2.34375,-2.227106227106227,-8.440781440781443,-3.807081807081807,2.40625,0.0,-1.96875,-2.947496947496948,-7.652014652014652,-2.9633699633699635,1.84375,0.0,-1.59375,-3.0805860805860807,-6.800976800976801,-1.7960927960927962,1.75,-0.5625,-1.3125,-2.9706959706959712,-6.4664224664224665,-0.757020757020757,1.78125,-0.65625,-1.0,-2.6788766788766787,-6.097680097680098,0.0,1.6875,-0.90625,-0.75,-3.238095238095238,-5.7484737484737485,0.0,1.375,-0.75,-0.625,-3.663003663003663,-4.874236874236874,0.0,1.34375,0.0,0.0,-1.6666666666666667,-4.907203907203908,-1.266178266178266,1.34375,0.0,0.0,-1.5921855921855919,-5.391941391941391,-2.975579975579976,0.875,-0.875,0.0,-2.8376068376068377,-4.203907203907204,-2.8180708180708183,0.0,-1.0,0.0,-1.4432234432234432,-3.571428571428572,-1.9523809523809523,0.0,0.0,0.0,-0.5567765567765568,-2.173382173382173,0.0,0.0,0.0,0.0,1.0476190476190477,-1.8913308913308915,1.804639804639805,0.0,0.0,0.0,0.7374847374847375,-2.1636141636141635,0.0,0.0,0.0,0.0,0.8852258852258852,-2.2588522588522593,0.0,0.0,0.0,0.0,0.6385836385836385,-2.352869352869353,-0.5628815628815629,0.0,0.0,0.0,0.0,-2.4310134310134313,0.0,0.0,0.0,0.0,-0.7326007326007326,-2.909645909645909,-0.6178266178266179,0.0,0.0,0.0,-1.1477411477411477,-3.238095238095238,-0.5042735042735043,0.0,0.0,0.0,-0.8192918192918193,-3.811965811965812,-0.5750915750915749,0.0,0.0,0.0,-0.7826617826617827,-4.396825396825397,-0.9242979242979243,-0.625,0.0,0.0,,,,,,,,,,,,,,,,,,,,,,,,,,,,,,,wp_back
accX,0.0,0.0,-3.653235653235653,1.0,3.59375,0.0,2.068376068376069,-1.7155067155067154,-4.445665445665447,0.71875,3.875,0.0,2.619047619047619,-1.0402930402930404,-4.065934065934067,0.0,3.65625,-0.59375,3.667887667887668,-3.0109890109890114,-3.731379731379731,0.0,3.28125,-1.0625,2.5177045177045176,-2.5286935286935286,-3.1916971916971923,0.0,3.4375,-1.5,1.5946275946275947,-2.477411477411477,-3.2759462759462763,0.0,4.0,-1.78125,0.0,-2.122100122100122,-3.3382173382173383,0.0,5.25,-2.4375,0.7643467643467643,-1.5677655677655675,-2.6666666666666665,0.625,6.5625,-3.3125,1.7594627594627594,-0.9731379731379732,-1.7557997557997558,1.46875,7.3125,-3.96875,2.1709401709401708,0.0,-1.0476190476190477,2.03125,7.34375,-4.53125,3.2857142857142856,0.0,-1.1672771672771671,2.1875,6.5625,-4.9375,3.3296703296703303,1.0,0.0,2.0625,5.03125,-5.0,1.7716727716727716,3.648351648351648,0.5543345543345544,2.125,4.1875,-5.0,0.0,4.7765567765567765,0.0,2.5,3.78125,-4.875,0.5103785103785103,-4.684981684981684,0.0,2.625,3.59375,-4.5625,0.0,-8.531135531135531,0.0,2.71875,3.375,-4.34375,0.5738705738705738,-9.402930402930403,0.5433455433455433,2.875,3.34375,-4.21875,0.0,-8.932844932844931,0.0,3.125,3.0625,-4.03125,0.0,-9.11965811965812,0.0,3.40625,2.46875,-3.78125,0.0,-9.433455433455434,-0.9682539682539684,3.53125,1.71875,-3.4375,-1.871794871794872,-9.12087912087912,-1.9865689865689864,3.34375,1.0,-3.125,-4.0537240537240535,-8.601953601953603,-3.0415140415140414,3.15625,0.71875,-2.8125,-3.604395604395605,-8.290598290598291,-3.495726495726496,2.71875,1.21875,-2.40625,-2.2234432234432235,-7.402930402930402,-3.086691086691087,2.59375,0.8125,-2.09375,-2.1147741147741153,-7.446886446886448,-3.5982905982905984,2.3125,0.0,-1.71875,-3.716727716727717,-6.811965811965813,-3.5506715506715505,1.90625,-0.5625,-1.34375,-4.010989010989012,-6.206349206349207,-3.087912087912088,1.6875,-0.75,-1.0,-3.289377289377289,-6.001221001221001,-2.0854700854700856,1.5,-0.78125,-0.8125,-3.9462759462759465,-5.192918192918193,-1.975579975579976,1.46875,0.0,-0.71875,-3.0830280830280827,-4.6996336996337,-1.5409035409035412,1.25,0.0,-0.5625,-1.9511599511599511,-4.461538461538462,-0.934065934065934,1.0,0.0,0.0,-0.8791208791208791,-4.388278388278389,-0.6886446886446886,0.8125,-0.75,0.0,-1.4456654456654456,-4.162393162393163,-1.4212454212454213,0.625,-0.9375,0.0,-2.4566544566544573,-4.384615384615385,-3.4786324786324787,0.0,0.0,0.0,0.0,-3.1416361416361416,0.0,0.0,0.0,0.0,0.9853479853479854,-3.0842490842490844,0.0,0.0,0.0,0.0,0.9242979242979243,-2.6971916971916974,-0.5299145299145299,0.0,0.0,0.0,0.6336996336996337,-2.7313797313797314,-0.5201465201465202,0.0,0.0,0.0,0.0,-2.728937728937729,0.0,0.0,0.0,0.0,0.0,-2.9694749694749696,0.0,0.0,0.0,0.0,-0.6654456654456654,-3.391941391941392,0.0,0.0,0.0,0.0,-0.6446886446886447,-4.031746031746032,-0.5054945054945055,0.0,0.0,0.0,,,,,,,,,,,,,,,,,,,,,,,,,,,,,,,,,,,,,,,,,,,wp_back
accX,0.5946275946275946,0.0,-2.1074481074481075,0.0,0.84375,0.0,0.9413919413919414,0.0,-2.515262515262515,0.53125,1.5625,0.0,0.0,0.0,-3.122100122100122,0.0,2.25,0.0,0.5934065934065934,-0.7106227106227107,-3.3675213675213675,0.0,3.03125,0.0,1.6752136752136753,-1.2808302808302807,-3.7423687423687424,0.0,3.90625,0.0,2.5384615384615383,-2.034188034188034,-3.947496947496948,0.0,4.84375,-0.65625,3.4652014652014653,-2.0891330891330893,-3.1794871794871797,0.0,5.59375,-1.46875,3.6239316239316235,-1.7118437118437118,-2.225885225885226,0.0,6.40625,-2.53125,4.694749694749695,-2.313797313797314,-1.6764346764346765,0.8125,6.625,-3.4375,5.113553113553113,-2.8754578754578755,-1.8205128205128205,0.84375,6.0,-4.03125,3.3284493284493286,-1.7667887667887667,-1.7313797313797314,0.84375,5.34375,-4.28125,1.868131868131868,0.0,-1.4285714285714286,0.96875,5.1875,-4.21875,1.9926739926739927,0.9365079365079364,-0.9108669108669109,1.25,5.09375,-4.34375,2.9365079365079363,1.6874236874236874,-0.6947496947496947,1.59375,4.625,-4.5,2.3687423687423688,2.8302808302808304,-0.8998778998778999,1.71875,4.34375,-4.65625,1.5775335775335777,1.2173382173382172,-1.2368742368742371,1.875,4.09375,-4.5,1.188034188034188,-7.864468864468863,-1.0402930402930404,2.3125,3.84375,-4.375,0.5006105006105006,-9.18192918192918,-0.5775335775335775,2.53125,3.125,-4.25,0.0,-9.528693528693527,-0.6105006105006106,2.71875,2.84375,-4.0625,0.0,-9.291819291819294,-0.8742368742368742,2.90625,2.6875,-3.875,-0.7851037851037851,-8.963369963369964,-1.3455433455433456,3.09375,2.15625,-3.625,-1.3968253968253967,-9.272283272283273,-1.5067155067155067,3.15625,1.59375,-3.25,-2.1941391941391943,-8.926739926739927,-1.9987789987789988,3.125,1.1875,-3.03125,-3.2332112332112333,-8.34920634920635,-2.481074481074481,2.96875,0.78125,-2.6875,-3.6446886446886446,-7.976800976800977,-2.5006105006105006,2.6875,0.0,-2.3125,-3.879120879120879,-7.448107448107447,-2.601953601953602,2.53125,0.0,-2.03125,-4.018315018315018,-7.0537240537240535,-3.1709401709401708,2.34375,0.0,-1.6875,-3.877899877899878,-6.725274725274725,-2.811965811965812,1.96875,0.0,-1.28125,-3.9145299145299135,-5.927960927960927,-2.2979242979242978,1.6875,-0.5625,-0.78125,-3.8083028083028077,-5.682539682539683,-1.9474969474969477,1.53125,0.0,-0.53125,-3.272283272283272,-5.246642246642247,-1.8363858363858363,1.28125,0.0,0.0,-2.8522588522588523,-4.738705738705738,-1.2747252747252746,1.0625,0.0,0.0,-1.4224664224664223,-4.454212454212454,-1.1184371184371185,0.90625,0.0,0.0,-0.6019536019536019,-4.216117216117216,-1.5543345543345544,0.65625,-0.6875,0.0,-1.2918192918192921,-3.811965811965812,-2.067155067155068,0.0,0.0,0.0,0.0,-3.710622710622711,-1.9047619047619049,0.0,0.0,0.0,0.0,-2.851037851037851,0.0,0.0,0.0,0.0,0.0,-2.793650793650793,0.0,0.0,0.0,0.0,0.0,-2.7484737484737485,0.0,0.0,0.0,0.0,0.0,-3.10989010989011,-0.5824175824175825,0.0,0.0,0.0,0.0,-3.417582417582417,-0.9218559218559218,0.0,0.0,0.0,-0.7948717948717948,-3.346764346764347,0.0,0.0,0.0,0.0,-0.7411477411477412,-3.4346764346764345,0.0,0.0,0.0,0.0,0.0,-3.8852258852258847,0.0,0.0,0.0,0.0,0.0,-3.892551892551893,-0.5531135531135531,0.0,0.0,0.0,,,,,,,,,,,,,,,,,,,,,,,,,wp_back
accX,0.7594627594627594,-0.9218559218559218,-2.978021978021978,0.0,1.34375,0.0,0.0,-1.017094017094017,-4.125763125763126,0.0,2.3125,0.0,0.0,-1.4334554334554337,-4.824175824175824,0.0,3.375,0.0,1.3076923076923077,-2.0061050061050056,-4.164835164835165,0.0,4.46875,0.0,2.8583638583638584,-2.323565323565324,-3.411477411477412,0.0,4.90625,0.0,2.5042735042735043,-2.3772893772893773,-3.0415140415140414,0.0,5.40625,-1.28125,2.214896214896215,-2.3418803418803416,-2.2551892551892547,0.0,6.3125,-2.3125,2.9462759462759465,-1.6727716727716728,-1.2405372405372406,1.25,7.0625,-3.53125,3.63003663003663,-1.6031746031746033,-1.2210012210012209,1.6875,7.03125,-4.28125,3.4639804639804637,-0.7997557997557998,-1.78998778998779,1.84375,6.625,-4.59375,3.3296703296703303,0.6605616605616605,-1.7728937728937728,1.875,6.0625,-4.8125,2.9084249084249083,2.511599511599512,-1.7008547008547008,2.0625,5.5625,-5.03125,2.793650793650793,3.9536019536019538,-1.47985347985348,2.25,5.125,-5.03125,2.274725274725274,-3.477411477411477,-1.565323565323565,2.40625,4.71875,-4.96875,2.1001221001221,-8.538461538461537,-0.7057387057387058,2.625,4.28125,-4.84375,2.4884004884004884,-9.78021978021978,0.0,2.875,3.40625,-4.5625,1.5164835164835164,-10.006105006105006,0.0,3.09375,2.5625,-4.21875,-0.6910866910866911,-10.028083028083028,0.0,3.53125,1.625,-3.90625,-0.9609279609279608,-9.941391941391943,0.0,3.5625,1.25,-3.5,-2.371184371184371,-9.407814407814408,-0.9731379731379732,3.59375,0.96875,-3.3125,-3.4615384615384617,-9.025641025641026,-1.843711843711844,3.53125,0.75,-2.9375,-4.207570207570208,-8.619047619047619,-2.227106227106227,3.40625,0.59375,-2.59375,-3.908424908424908,-8.468864468864469,-2.501831501831502,3.25,0.65625,-2.21875,-4.301587301587301,-7.8339438339438345,-3.2014652014652016,3.0,0.65625,-1.90625,-3.717948717948718,-7.269841269841269,-3.404151404151404,2.6875,0.65625,-1.5625,-2.9865689865689866,-6.811965811965813,-3.063492063492064,2.375,0.0,-1.25,-3.192918192918193,-6.2393162393162385,-3.227106227106227,2.125,0.0,-0.9375,-2.7765567765567765,-5.650793650793651,-2.9023199023199022,1.78125,0.0,-0.625,-2.5067155067155067,-5.173382173382174,-2.347985347985348,1.3125,0.0,0.0,-1.6251526251526252,-4.7203907203907205,-2.793650793650793,1.125,0.0,0.0,-2.4542124542124544,-5.251526251526252,-4.343101343101344,0.53125,-0.65625,0.0,-3.175824175824176,-4.2405372405372415,-3.474969474969475,0.0,0.0,0.0,-0.7741147741147741,-3.912087912087912,-1.3516483516483515,0.0,0.0,0.0,0.0,-2.8925518925518925,0.0,0.0,0.0,0.0,0.9426129426129426,-3.183150183150183,-0.5604395604395604,0.0,0.0,0.0,1.0891330891330893,-2.7765567765567765,-1.2857142857142858,0.0,0.0,0.0,0.0,-2.737484737484737,-1.2857142857142858,0.0,0.0,0.0,0.0,-2.8522588522588523,-0.9096459096459096,0.0,0.0,0.0,-0.5201465201465202,-3.1636141636141635,0.0,0.0,0.0,0.0,0.0,-3.495726495726496,0.0,0.0,0.0,0.0,,,,,,,,,,,,,,,,,,,,,,,,,,,,,,,,,,,,,,,,,,,,,,,,,,,,,,,wp_back
accX,3.31990231990232,-1.3748473748473748,-3.5677655677655684,1.625,4.4375,0.0,2.9609279609279615,-2.398046398046398,-3.5995115995116,1.53125,5.59375,-0.625,4.094017094017094,-2.313797313797314,-2.351648351648352,1.46875,6.65625,-1.3125,5.851037851037852,-2.288156288156288,-0.8913308913308914,1.78125,7.28125,-2.5,6.5115995115995124,-2.9511599511599518,-0.7081807081807082,2.15625,7.375,-3.8125,6.023199023199023,-3.144078144078144,-0.7741147741147741,2.15625,7.0,-4.625,4.8620268620268625,-2.208791208791209,-0.7777777777777778,1.90625,6.5,-4.875,4.753357753357753,0.0,0.0,1.5625,5.84375,-4.84375,4.4554334554334565,1.6092796092796091,0.0,1.8125,4.84375,-4.90625,3.1880341880341883,2.1465201465201464,0.0,2.1875,4.09375,-5.0,1.68009768009768,1.934065934065934,0.0,2.4375,4.03125,-5.0,0.934065934065934,-1.2405372405372406,0.0,2.75,4.0625,-4.84375,0.9926739926739928,-5.3125763125763115,-0.5006105006105006,2.8125,3.5625,-4.4375,0.7924297924297924,-7.212454212454213,0.0,2.96875,2.96875,-4.25,0.0,-8.192918192918192,0.0,3.21875,2.5,-4.09375,0.0,-8.877899877899877,0.0,3.40625,1.96875,-3.75,-0.6068376068376068,-9.175824175824175,-0.7106227106227107,3.5,1.5625,-3.46875,-1.4993894993894994,-9.242979242979242,-1.3028083028083028,3.4375,1.375,-3.21875,-2.075702075702076,-8.477411477411477,-1.536019536019536,3.40625,1.25,-2.9375,-2.3284493284493286,-8.368742368742371,-1.6678876678876684,3.4375,1.25,-2.65625,-2.0781440781440783,-8.01953601953602,-1.948717948717949,3.375,0.90625,-2.40625,-2.9291819291819285,-7.829059829059829,-2.772893772893773,3.125,0.53125,-2.0625,-3.705738705738706,-6.920634920634921,-3.0415140415140414,2.875,0.0,-1.5,-4.503052503052503,-6.354090354090353,-3.8058608058608057,2.53125,0.0,-1.09375,-3.7472527472527473,-6.007326007326008,-3.161172161172161,2.1875,-0.53125,-0.59375,-4.481074481074482,-5.517704517704519,-3.1697191697191696,1.90625,-0.75,0.0,-4.306471306471306,-4.938949938949938,-2.9536019536019538,1.59375,0.0,0.0,-2.231990231990232,-4.507936507936508,-2.1648351648351647,1.34375,0.0,0.0,0.0,-4.391941391941391,-2.225885225885226,0.9375,0.0,0.0,-0.9487179487179488,-3.62026862026862,-2.709401709401709,0.59375,-0.6875,0.0,-1.4371184371184371,-3.774114774114774,-3.42002442002442,0.0,0.0,0.0,-2.2185592185592187,-2.6349206349206344,-0.7032967032967034,0.0,0.0,0.0,0.0,-2.9902319902319903,0.0,0.0,0.59375,0.0,1.9951159951159951,-2.9291819291819285,-0.6446886446886447,0.0,0.0,0.0,1.7484737484737485,-2.6080586080586077,-0.8852258852258852,0.0,0.0,0.0,0.5177045177045178,-2.537240537240537,0.0,0.0,0.0,0.0,-0.5311355311355311,-2.601953601953602,0.0,0.0,0.0,0.0,-1.0085470085470083,-3.063492063492064,-0.8644688644688645,0.0,0.0,0.0,,,,,,,,,,,,,,,,,,,,,,,,,,,,,,,,,,,,,,,,,,,,,,,,,,,,,,,,,,,,,,,,,,,wp_back
accX,1.3675213675213675,1.2014652014652014,-1.6703296703296704,1.03125,2.375,0.8125,1.1489621489621489,0.5470085470085471,-2.083028083028083,1.0625,2.875,0.53125,1.1294261294261294,0.0,-2.8327228327228333,1.03125,3.96875,0.0,1.9914529914529917,-0.9609279609279608,-3.1868131868131866,0.90625,5.03125,0.0,3.2796092796092795,-1.1794871794871795,-2.4322344322344316,1.0,5.8125,0.0,4.568986568986569,-1.2673992673992671,-1.673992673992674,1.28125,6.15625,-1.5,5.168498168498169,-1.702075702075702,-1.376068376068376,1.625,6.4375,-2.6875,4.74969474969475,-1.6984126984126984,-1.4700854700854702,2.0,6.65625,-3.75,5.910866910866911,-1.8315018315018317,0.0,2.03125,6.1875,-4.0625,3.948717948717949,0.0,0.9682539682539684,2.09375,5.5625,-4.15625,3.9194139194139193,1.4456654456654456,1.1489621489621489,2.5,5.40625,-4.125,4.321123321123321,3.0268620268620268,1.1831501831501832,2.875,5.0,-4.15625,4.153846153846153,2.8205128205128207,0.0,3.125,4.25,-4.3125,1.199023199023199,1.9975579975579976,-0.6996336996336996,3.15625,3.5625,-4.3125,0.0,-2.139194139194139,-1.3858363858363858,3.1875,3.5,-4.0625,0.0,-5.283272283272283,-1.463980463980464,3.125,3.65625,-3.84375,0.6446886446886447,-6.641025641025642,-1.2735042735042734,3.15625,3.5,-3.75,0.7851037851037851,-7.136752136752138,-1.2747252747252746,3.3125,3.03125,-3.5625,0.0,-7.528693528693529,-1.6984126984126984,3.40625,2.3125,-3.28125,-0.9914529914529916,-7.551892551892553,-2.1111111111111107,3.5,1.625,-2.875,-1.6764346764346765,-7.989010989010988,-2.562881562881563,3.375,1.53125,-2.625,-1.1965811965811963,-7.8949938949938945,-2.2503052503052503,3.09375,1.3125,-2.375,-1.5873015873015872,-6.837606837606838,-2.1343101343101343,3.0625,1.0625,-2.28125,-2.1147741147741153,-6.7374847374847375,-2.31990231990232,2.96875,0.78125,-1.96875,-2.354090354090354,-6.661782661782662,-2.514041514041514,2.75,0.0,-1.59375,-2.6581196581196584,-6.343101343101343,-2.15018315018315,2.53125,0.0,-1.25,-3.483516483516484,-5.761904761904763,-2.1868131868131866,2.40625,-0.71875,-0.96875,-4.652014652014652,-5.838827838827839,-2.385836385836386,2.25,-0.65625,-0.6875,-4.808302808302808,-5.8901098901098905,-2.9206349206349205,1.96875,0.0,0.0,-3.816849816849817,-5.518925518925519,-2.1623931623931623,1.65625,0.0,0.0,-2.8913308913308917,-5.119658119658119,-1.3943833943833943,1.4375,0.0,0.0,-1.4090354090354091,-4.338217338217338,-1.927960927960928,1.21875,0.0,0.0,-1.0598290598290598,-4.4664224664224665,-2.483516483516484,0.71875,0.0,0.0,0.0,-4.503052503052503,-4.1611721611721615,0.0,0.0,0.0,0.9682539682539684,-3.21001221001221,-2.1855921855921854,0.0,0.0,0.0,-1.072039072039072,-2.0525030525030523,0.0,0.0,0.0,0.0,-0.6092796092796092,-1.5714285714285714,1.5836385836385836,0.0,0.0,0.0,1.2356532356532357,-2.4603174603174605,0.0,0.0,0.0,0.0,0.6825396825396826,-3.0415140415140414,-1.534798534798535,0.0,0.0,0.0,-0.7191697191697192,-2.9865689865689866,-1.0708180708180708,0.5625,0.0,0.0,-1.4615384615384617,-3.2503052503052503,-0.7338217338217338,0.0,0.0,0.0,-1.144078144078144,-3.667887667887668,-0.9267399267399268,0.0,0.0,0.0,-0.7704517704517705,-3.9609279609279615,-0.8315018315018315,0.0,0.0,0.0,,,,,,,,,,,,,,,,,,,,,,,,,,,,,,,,,,,,,wp_back
accX,1.9242979242979243,0.0,-3.0293040293040288,0.5625,0.75,0.0,2.4688644688644694,-0.7875457875457875,-4.326007326007327,0.0,1.21875,0.0,1.1904761904761905,-0.9023199023199024,-5.772893772893772,0.0,2.3125,0.0,0.9438339438339438,-1.6312576312576312,-5.7313797313797314,0.0,3.5,-0.53125,2.173382173382173,-2.6727716727716726,-4.656898656898657,0.0,3.96875,-0.78125,2.323565323565324,-2.826617826617827,-3.543345543345543,-0.6875,4.0,-1.125,1.661782661782662,-2.266178266178266,-2.9267399267399266,-0.71875,4.25,-1.6875,1.1623931623931625,-1.1709401709401708,-2.086691086691087,0.0,5.03125,-2.5,1.1257631257631258,-1.092796092796093,-2.1123321123321124,0.0,5.84375,-3.15625,1.3089133089133091,-1.6349206349206349,-2.4590964590964592,0.625,6.3125,-3.65625,1.2503052503052503,-1.1831501831501832,-2.266178266178266,0.71875,6.3125,-3.75,0.0,0.0,-1.8192918192918195,1.125,6.21875,-4.0,0.851037851037851,1.2356532356532357,0.0,1.625,6.0625,-4.125,0.5274725274725275,1.5982905982905984,-0.5311355311355311,1.84375,5.625,-4.1875,-0.536019536019536,1.4871794871794872,0.0,2.0,5.34375,-4.25,0.0,-7.9291819291819285,-0.9829059829059827,2.1875,5.375,-4.09375,0.0,-7.214896214896215,-0.8669108669108669,2.46875,4.96875,-3.90625,0.6446886446886447,-7.7081807081807066,-1.4151404151404152,2.84375,4.28125,-3.75,0.0,-7.769230769230768,-1.844932844932845,2.875,3.3125,-3.4375,-0.6373626373626373,-7.463980463980464,-1.9902319902319905,2.78125,2.71875,-3.25,-0.9255189255189256,-6.648351648351648,-1.7203907203907205,2.8125,2.5,-3.03125,-0.9633699633699634,-6.768009768009768,-1.9938949938949944,3.0625,2.21875,-2.75,-1.3492063492063493,-6.802197802197803,-2.6825396825396823,3.0625,1.71875,-2.40625,-2.191697191697192,-6.61050061050061,-3.1135531135531136,2.625,1.0,-1.90625,-2.556776556776557,-6.158730158730159,-2.7142857142857144,2.3125,0.84375,-1.625,-2.5164835164835164,-5.637362637362638,-2.1782661782661785,2.25,0.65625,-1.34375,-2.214896214896215,-5.365079365079366,-1.9047619047619049,2.25,0.0,-1.03125,-2.010989010989011,-5.623931623931624,-2.0854700854700856,2.0,0.0,-0.6875,-2.6312576312576312,-5.311355311355311,-1.8803418803418803,1.59375,-0.75,0.0,-3.7118437118437115,-4.57020757020757,-1.6923076923076923,1.5,0.0,0.0,-3.0048840048840044,-4.34065934065934,-1.2576312576312576,1.4375,0.0,0.0,-1.565323565323565,-4.3028083028083035,-0.8778998778998779,1.34375,0.0,0.0,-1.1807081807081807,-3.980463980463981,-0.6568986568986569,1.1875,0.0,0.0,-1.2283272283272284,-3.870573870573871,-1.1428571428571428,0.90625,0.0,0.0,-2.1575091575091574,-4.355311355311355,-3.6666666666666665,0.53125,0.0,0.0,0.7191697191697192,-3.1880341880341883,-0.8131868131868132,0.0,0.59375,0.0,0.0,-2.7753357753357752,0.0,0.0,0.0,0.0,0.0,-2.1562881562881557,0.7264957264957265,0.0,0.0,0.0,0.6727716727716728,-3.051282051282051,-0.9328449328449328,0.0,0.0,0.0,0.7521367521367521,-3.267399267399268,-1.8339438339438336,0.0,0.0,0.0,0.0,-3.3748473748473753,-1.1477411477411477,0.0,0.0,0.0,0.0,-3.371184371184371,-0.7081807081807082,0.0,0.0,0.0,0.0,-3.514041514041514,0.0,0.0,0.0,0.0,0.0,-3.9047619047619047,0.0,0.0,0.0,0.0,,,,,,,,,,,,,,,,,,,,,,,,,,,,,,,wp_back
accX,0.0,0.0,-1.3504273504273503,0.8125,0.0,0.0,-1.4053724053724053,0.9487179487179488,-2.0,0.90625,0.875,0.0,-1.3357753357753357,0.0,-2.8046398046398044,0.9375,2.25,0.0,1.0158730158730158,-0.7460317460317459,-2.9267399267399266,0.65625,3.125,0.65625,2.8095238095238093,-1.6776556776556777,-3.195360195360196,0.0,3.25,0.59375,2.8156288156288163,-1.4175824175824177,-3.217338217338217,0.0,3.8125,0.0,3.3431013431013437,-1.277167277167277,-2.655677655677656,0.0,4.46875,0.0,3.7887667887667886,-1.020757020757021,-1.7753357753357752,0.59375,5.03125,-1.34375,3.4908424908424913,0.0,-1.0427350427350428,1.21875,5.65625,-2.46875,4.3028083028083035,-0.5995115995115995,-1.4725274725274726,1.5625,5.75,-3.15625,4.2905982905982905,-0.7875457875457875,-1.8632478632478635,1.59375,5.5,-3.53125,2.8034188034188032,0.0,-1.9548229548229548,1.4375,5.46875,-3.71875,2.462759462759463,1.3540903540903542,-1.4188034188034189,1.53125,5.46875,-3.75,3.5506715506715505,2.573870573870574,-1.0586080586080586,1.65625,5.0,-3.875,3.5360195360195363,4.141636141636142,-0.7557997557997558,1.8125,4.21875,-3.96875,2.938949938949939,4.589743589743589,-0.9181929181929182,1.90625,3.8125,-3.90625,2.0268620268620268,1.6544566544566544,-0.9548229548229548,2.25,3.625,-3.96875,1.7826617826617828,-4.186813186813187,0.0,2.4375,3.5625,-3.90625,1.761904761904762,-6.597069597069598,0.5103785103785103,2.59375,3.125,-3.8125,1.0695970695970696,-7.673992673992674,0.0,2.875,2.6875,-3.78125,-0.6886446886446886,-7.533577533577533,-0.6507936507936508,2.90625,2.375,-3.5625,-0.9181929181929182,-7.644688644688644,-1.144078144078144,3.0,2.28125,-3.3125,-0.7619047619047619,-7.6923076923076925,-1.343101343101343,3.03125,2.0,-2.96875,-1.286935286935287,-7.647130647130647,-1.9169719169719168,3.15625,1.53125,-2.75,-1.962148962148962,-7.515262515262514,-2.4322344322344316,3.0625,1.1875,-2.5,-2.9816849816849818,-7.323565323565322,-3.2576312576312576,2.90625,1.03125,-2.3125,-2.9694749694749696,-7.048840048840049,-3.418803418803418,2.75,0.78125,-1.96875,-3.0818070818070824,-7.111111111111112,-3.0293040293040288,2.53125,0.0,-1.59375,-3.8583638583638575,-5.971916971916972,-3.11965811965812,2.28125,0.0,-1.21875,-3.708180708180708,-5.638583638583639,-3.1245421245421245,2.09375,0.0,-0.90625,-2.9670329670329667,-5.711843711843712,-2.8608058608058613,1.78125,0.0,-0.59375,-2.8229548229548236,-5.177045177045176,-2.621489621489621,1.5,-0.625,0.0,-3.2649572649572653,-4.4993894993894985,-1.879120879120879,1.4375,-0.78125,0.0,-2.6630036630036633,-4.145299145299147,-1.6336996336996337,1.40625,-0.625,0.0,-2.9572649572649574,-4.128205128205129,-3.241758241758242,1.03125,0.0,0.0,-1.1294261294261294,-4.394383394383396,-3.1709401709401708,0.0,0.0,0.0,0.0,-2.9438339438339436,0.0,0.625,0.0,0.0,0.0,-2.8742368742368742,0.0,0.75,0.0,0.0,0.9584859584859584,-2.8522588522588523,0.0,0.75,0.0,0.0,1.4932844932844933,-3.6984126984126986,-1.1416361416361416,0.5625,0.0,0.0,0.0,-4.062271062271062,-1.2808302808302807,0.0,0.0,0.0,-1.3284493284493284,-4.106227106227107,-0.9218559218559218,0.0,0.0,0.0,-1.5018315018315018,-3.9987789987789983,-0.6678876678876678,0.0,0.0,0.0,-0.9413919413919414,-4.05982905982906,-0.9987789987789988,0.0,0.0,0.0,0.0,-4.0927960927960925,-1.092796092796093,0.0,0.0,0.0,,,,,,,,,,,,,,,,,,,,,,,,,wp_back
accX,-1.5702075702075702,0.0,-2.070818070818071,0.0,2.9375,0.0,0.0,0.0,-2.21001221001221,0.75,3.90625,0.0,0.5860805860805861,-0.9987789987789988,-2.4713064713064714,0.8125,4.40625,0.0,1.6385836385836383,-2.385836385836386,-2.3028083028083026,0.5625,4.625,-0.5625,1.9267399267399268,-2.2014652014652016,-2.2612942612942613,0.0,4.8125,-0.96875,0.8034188034188035,-1.6056166056166057,-1.9328449328449329,0.0,5.53125,-1.5625,1.4053724053724053,-0.8693528693528694,-1.1306471306471306,0.875,6.53125,-2.5625,2.8485958485958487,-0.5457875457875457,-0.9829059829059827,1.5,6.9375,-3.5625,2.7484737484737485,0.0,-1.6349206349206349,1.71875,6.90625,-4.0625,2.6996336996337003,0.0,-2.208791208791209,1.65625,6.75,-4.1875,2.877899877899878,2.4713064713064714,-1.6312576312576312,1.6875,6.34375,-4.28125,3.3846153846153846,4.384615384615385,-0.8888888888888888,1.96875,5.625,-4.40625,3.8156288156288163,3.6544566544566544,0.0,2.59375,4.375,-4.3125,2.7008547008547015,0.0,0.0,2.59375,3.34375,-4.1875,0.7509157509157509,-4.031746031746032,0.0,2.65625,2.59375,-4.09375,0.0,-6.42002442002442,0.0,2.875,2.34375,-3.84375,0.0,-7.112332112332113,0.0,3.0,2.3125,-3.71875,-0.5213675213675214,-7.018315018315017,0.0,3.15625,2.09375,-3.5625,0.0,-7.774114774114773,-0.778998778998779,3.28125,1.5,-3.21875,-1.9987789987789988,-7.973137973137972,-1.4432234432234432,3.25,0.65625,-2.875,-2.8986568986568986,-7.9743589743589745,-2.012210012210012,3.125,0.0,-2.59375,-3.2612942612942613,-7.995115995115995,-2.5836385836385842,2.9375,0.0,-2.3125,-3.6263736263736255,-7.621489621489621,-2.7326007326007327,2.625,0.0,-2.0625,-3.771672771672772,-7.31990231990232,-2.9670329670329667,2.28125,0.0,-1.65625,-3.8205128205128207,-7.0,-3.274725274725274,2.0,0.0,-1.28125,-4.058608058608058,-6.722832722832723,-3.0891330891330893,1.65625,0.0,-0.9375,-3.715506715506716,-5.971916971916972,-2.505494505494505,1.4375,0.0,-0.6875,-3.4297924297924296,-5.472527472527473,-1.9194139194139197,1.375,0.0,0.0,-3.3296703296703303,-5.140415140415142,-1.57997557997558,1.1875,0.0,0.0,-2.3223443223443225,-4.7374847374847375,-1.0842490842490842,1.03125,0.0,0.0,-1.9523809523809523,-4.227106227106227,-0.6214896214896215,0.90625,0.0,0.0,-1.0256410256410255,-3.63003663003663,0.0,0.96875,0.0,0.0,-1.2466422466422469,-4.94993894993895,-3.915750915750916,0.59375,0.0,0.0,0.0,-5.253968253968254,-3.829059829059829,0.0,0.0,0.0,0.0,-4.091575091575091,-1.647130647130647,0.0,0.0,0.0,0.0,-3.1770451770451764,0.7460317460317459,0.0,0.0,0.0,0.8485958485958486,-3.456654456654457,0.0,0.0,0.0,0.0,0.5848595848595849,-3.418803418803418,0.0,0.0,0.0,0.0,0.5409035409035409,-3.7326007326007327,-0.5091575091575091,0.0,0.0,0.0,0.0,-3.681318681318681,0.0,0.0,0.0,0.0,0.0,-3.7863247863247858,0.0,0.0,0.0,0.0,0.0,-4.190476190476192,0.0,0.0,0.0,0.0,,,,,,,,,,,,,,,,,,,,,,,,,,,,,,,,,,,,,,,,,,,wp_back
accX,0.9401709401709402,0.0,-3.862026862026862,1.625,2.78125,0.0,2.1257631257631258,-1.4542124542124542,-4.666666666666667,1.28125,3.65625,0.0,2.559218559218559,-1.2246642246642248,-4.2295482295482305,0.78125,4.25,0.0,3.231990231990232,-1.1526251526251523,-2.9853479853479854,0.625,5.125,0.0,3.948717948717949,-1.2527472527472527,-1.9169719169719168,0.90625,6.625,-1.5,4.873015873015873,-1.6312576312576312,-1.757020757020757,1.40625,7.4375,-2.5625,5.971916971916972,-1.9169719169719168,-1.8827838827838828,1.625,7.75,-3.4375,6.323565323565322,-1.3553113553113554,-1.6068376068376071,1.6875,7.53125,-4.03125,5.998778998778999,0.0,-0.57997557997558,1.875,6.875,-4.46875,5.018315018315018,2.0268620268620268,0.0,2.34375,6.40625,-4.71875,4.754578754578755,2.971916971916972,0.0,2.75,6.125,-4.9375,4.683760683760683,0.0,0.0,3.0625,5.3125,-5.0,3.357753357753358,-4.206349206349207,0.0,3.15625,4.25,-4.8125,1.2161172161172158,-6.431013431013431,-0.9035409035409036,3.125,3.71875,-4.375,0.9084249084249084,-7.131868131868132,0.0,3.4375,3.59375,-4.3125,1.0195360195360197,-7.717948717948718,0.0,3.78125,3.28125,-3.9375,-0.6495726495726496,-7.913308913308914,-1.8253968253968251,3.59375,1.84375,-3.4375,-1.382173382173382,-7.589743589743589,-1.037851037851038,3.5625,1.125,-3.0625,-2.283272283272283,-8.086691086691086,-1.3894993894993894,3.8125,0.875,-2.75,-2.590964590964591,-8.611721611721611,-2.5286935286935286,3.8125,0.6875,-2.40625,-3.637362637362637,-8.362637362637363,-3.3174603174603177,3.40625,0.0,-2.0625,-4.0927960927960925,-7.655677655677656,-3.0586080586080584,2.9375,0.0,-1.75,-3.648351648351648,-7.177045177045177,-2.1514041514041518,2.65625,0.0,-1.375,-3.6666666666666665,-6.391941391941392,-2.211233211233212,2.59375,0.0,-1.0,-4.249084249084248,-6.312576312576313,-3.0268620268620268,2.4375,-0.625,0.0,-4.528693528693529,-6.094017094017093,-3.382173382173382,1.96875,-0.6875,0.0,-3.8913308913308913,-5.509157509157508,-2.807081807081807,1.59375,0.0,0.0,-0.8962148962148963,-5.429792429792429,-2.9938949938949935,1.28125,0.0,0.0,-1.0634920634920637,-5.316239316239317,-4.2405372405372415,0.9375,-0.75,0.0,-2.1355311355311355,-5.611721611721611,-5.329670329670329,0.0,0.0,0.0,0.0,-4.157509157509158,-1.531135531135531,0.0,0.0,0.0,-0.9633699633699634,-2.655677655677656,1.0415140415140416,0.625,0.0,0.0,0.0,-2.105006105006105,1.6691086691086692,0.875,0.0,0.0,0.8791208791208791,-3.58974358974359,-0.8669108669108669,0.5625,0.0,0.0,1.442002442002442,-2.9938949938949935,-0.7240537240537241,0.0,0.0,0.0,1.1575091575091576,-3.2148962148962146,-0.8840048840048841,0.0,0.0,0.0,0.0,-3.2442002442002438,-0.8437118437118437,0.0,0.0,0.0,-1.6214896214896215,-3.514041514041514,-1.010989010989011,0.0,0.0,0.0,-1.4090354090354091,-3.792429792429792,-0.5836385836385837,0.0,0.0,0.0,0.0,-4.311355311355311,-0.8278388278388278,0.0,0.0,0.0,,,,,,,,,,,,,,,,,,,,,,,,,,,,,,,,,,,,,,,,,,,,,,,,,,,,,,,wp_back
accX,0.0,0.0,-3.927960927960928,1.375,2.0,0.0,0.0,0.0,-4.323565323565323,1.53125,3.3125,0.0,3.068376068376069,-1.6752136752136753,-2.881562881562881,1.34375,4.375,0.0,4.174603174603175,-1.5665445665445663,-2.289377289377289,0.9375,4.78125,-0.53125,4.433455433455434,-0.9169719169719168,-1.6202686202686205,0.9375,5.4375,-1.65625,4.549450549450549,-1.8888888888888888,-1.7631257631257633,1.28125,6.34375,-2.59375,5.134310134310135,-2.675213675213675,-1.9658119658119655,1.21875,7.1875,-3.15625,5.724053724053724,-2.0781440781440783,-1.2136752136752136,0.875,7.4375,-3.5625,5.119658119658119,0.0,0.0,0.78125,6.96875,-3.84375,5.162393162393163,1.9462759462759465,1.3052503052503053,1.3125,6.5,-4.21875,5.611721611721611,3.642246642246642,1.3601953601953602,1.84375,5.53125,-4.4375,4.758241758241757,4.334554334554333,0.7655677655677655,2.25,4.125,-4.375,1.7362637362637363,1.6776556776556777,0.0,2.34375,3.40625,-4.40625,0.6715506715506715,-5.6007326007325995,0.0,2.59375,3.625,-4.40625,0.0,-7.578754578754578,0.0,2.96875,3.46875,-4.21875,0.9010989010989012,-8.65079365079365,0.0,3.0625,2.6875,-3.9375,0.0,-9.195360195360196,0.0,3.03125,1.875,-3.6875,-0.8241758241758241,-9.136752136752136,0.0,3.125,1.59375,-3.46875,-2.1233211233211238,-8.582417582417582,-1.3003663003663004,3.21875,1.40625,-3.21875,-2.47008547008547,-8.764346764346763,-1.380952380952381,3.21875,1.15625,-2.875,-2.778998778998779,-8.697191697191696,-1.7631257631257633,3.09375,0.78125,-2.53125,-3.2063492063492065,-8.327228327228326,-2.0976800976800978,2.90625,0.0,-2.125,-3.622710622710623,-8.098901098901099,-2.67032967032967,2.5,0.0,-1.875,-4.236874236874237,-6.875457875457876,-2.559218559218559,2.375,0.0,-1.71875,-3.958485958485959,-6.5555555555555545,-2.9426129426129437,2.28125,0.0,-1.4375,-2.4249084249084247,-5.7374847374847375,-2.380952380952381,1.6875,0.0,-0.9375,-2.411477411477412,-4.831501831501831,-2.070818070818071,1.4375,0.0,-0.71875,-2.3663003663003663,-5.074481074481074,-2.57997557997558,1.375,0.0,0.0,-2.571428571428572,-5.0024420024420015,-2.8925518925518925,1.15625,0.0,0.0,-1.5225885225885225,-5.454212454212454,-2.717948717948718,0.8125,0.0,0.0,-1.0036630036630036,-4.474969474969475,-1.6068376068376071,0.0,0.0,0.0,-1.5177045177045176,-2.873015873015873,0.0,0.0,0.0,0.0,-2.101343101343101,-3.0146520146520146,0.7326007326007326,0.78125,0.0,0.0,0.0,-3.52991452991453,0.0,0.625,0.0,0.0,0.6007326007326007,-3.175824175824176,-0.5995115995115995,0.0,0.0,0.0,0.0,-3.067155067155068,-1.05006105006105,0.0,0.0,0.0,0.0,-3.043956043956044,-0.7887667887667887,0.0,0.0,0.0,0.0,-2.888888888888889,0.0,0.0,0.0,0.0,0.0,-2.9365079365079363,0.0,0.0,0.0,0.0,-0.7802197802197802,-3.1868131868131866,0.0,0.0,0.0,0.0,-0.8632478632478633,-3.615384615384616,0.0,0.0,0.0,0.0,,,,,,,,,,,,,,,,,,,,,,,,,,,,,,,,,,,,,,,,,,,,,,,,,wp_back
accX,2.851037851037851,1.0537240537240538,-3.330891330891331,1.4375,1.78125,0.0,2.105006105006105,-0.5934065934065934,-4.588522588522588,1.09375,2.46875,0.0,2.4932844932844933,-1.1074481074481075,-5.1892551892551895,0.625,3.40625,0.0,2.9291819291819285,-0.984126984126984,-4.719169719169718,0.0,4.40625,-0.8125,3.7973137973137967,-0.6349206349206349,-3.0976800976800978,0.71875,5.25,-1.75,4.7313797313797314,-1.3675213675213675,-1.8742368742368745,0.9375,5.53125,-2.78125,4.708180708180708,-2.5982905982905984,-2.293040293040293,0.71875,5.28125,-3.28125,2.593406593406593,-2.7704517704517704,-3.660561660561661,0.0,5.46875,-3.40625,2.249084249084249,-1.7387057387057387,-3.5702075702075704,0.0,5.90625,-3.5,4.9010989010989015,-1.4456654456654456,0.0,0.875,5.0625,-4.0625,3.6166056166056166,-1.9609279609279608,0.0,1.25,4.78125,-4.4375,3.04029304029304,-1.7582417582417582,0.0,1.40625,4.625,-4.59375,1.84004884004884,-2.191697191697192,0.0,1.625,4.15625,-4.6875,0.0,-8.63980463980464,0.0,1.96875,3.5625,-4.5,-1.1489621489621489,-13.097680097680097,-1.0561660561660562,2.25,3.4375,-4.4375,-0.6605616605616605,-12.681318681318679,-1.277167277167277,2.4375,3.09375,-4.21875,-1.4713064713064714,-11.938949938949941,-1.5225885225885225,2.4375,2.46875,-3.96875,-2.826617826617827,-10.534798534798538,-1.8229548229548234,2.46875,2.375,-3.78125,-2.600732600732601,-10.034188034188034,-1.9658119658119655,2.5625,2.5,-3.5625,-2.1514041514041518,-9.639804639804641,-2.191697191697192,2.59375,2.21875,-3.25,-3.4285714285714284,-8.737484737484738,-2.4236874236874235,2.46875,1.34375,-2.75,-4.601953601953602,-8.035409035409035,-2.8180708180708183,2.40625,1.15625,-2.40625,-4.9010989010989015,-7.478632478632479,-2.909645909645909,2.3125,1.09375,-2.0,-4.307692307692308,-6.954822954822955,-2.7863247863247858,2.03125,0.8125,-1.6875,-4.345543345543345,-6.347985347985348,-2.7387057387057387,1.75,0.59375,-1.34375,-3.4297924297924296,-5.836385836385835,-2.131868131868132,1.53125,0.0,-0.96875,-2.938949938949939,-5.225885225885227,-1.9987789987789988,1.3125,0.0,-0.71875,-4.1001221001221,-5.73992673992674,-4.095238095238095,0.75,0.0,0.0,-4.017094017094017,-5.326007326007327,-4.256410256410256,0.0,0.0,0.0,-2.4920634920634916,-4.076923076923077,-1.275946275946276,0.0,0.0,0.0,-2.6129426129426134,-3.045177045177045,0.6568986568986569,0.0,0.0,0.0,-1.8864468864468864,-2.407814407814408,2.462759462759463,0.0,0.0,0.0,0.8583638583638583,-3.2442002442002438,0.0,0.0,0.875,0.0,1.3443223443223444,-3.225885225885226,-1.343101343101343,0.0,1.03125,0.0,1.1526251526251523,-3.2051282051282053,-1.1978021978021978,0.0,0.625,0.0,0.0,-3.4456654456654463,-1.3663003663003663,0.0,0.0,0.0,-0.8974358974358975,-3.6434676434676434,-0.8632478632478633,0.0,0.0,0.0,-0.6959706959706959,-3.8217338217338215,0.0,0.0,0.0,0.0,0.0,-4.12942612942613,0.0,0.0,0.0,0.0,,,,,,,,,,,,,,,,,,,,,,,,,,,,,,,,,,,,,,,,,,,,,,,,,,,,,,,,,,,,,wp_back
accX,3.468864468864469,-1.8730158730158732,-3.958485958485959,1.53125,2.5625,0.0,3.3504273504273505,-3.1355311355311355,-5.096459096459097,0.65625,2.9375,0.0,2.4993894993894994,-2.7753357753357752,-5.285714285714286,0.0,3.71875,0.0,3.388278388278388,-1.536019536019536,-3.335775335775337,0.0,4.53125,-0.75,3.7350427350427347,-2.2600732600732596,-2.3064713064713063,0.0,4.8125,-1.21875,3.240537240537241,-2.435897435897436,-1.9804639804639803,0.0,4.71875,-2.0625,1.9426129426129424,-2.0415140415140414,-1.9572649572649568,0.0,5.375,-2.84375,2.37973137973138,-1.6874236874236874,-1.133089133089133,1.0,6.0,-3.65625,2.7643467643467643,0.0,0.0,1.75,6.0625,-4.34375,2.274725274725274,0.0,0.0,2.3125,5.6875,-4.875,1.1965811965811963,0.6874236874236874,-0.8388278388278388,2.59375,5.40625,-4.96875,0.0,2.7557997557997562,-1.199023199023199,2.625,5.375,-4.84375,0.5079365079365079,2.2246642246642248,-0.8840048840048841,2.9375,5.21875,-4.78125,1.321123321123321,-7.3809523809523805,-0.5763125763125763,3.28125,4.5,-4.5625,0.9279609279609279,-8.849816849816849,-0.5262515262515263,3.46875,3.75,-4.34375,0.0,-9.234432234432235,-0.6471306471306472,3.625,3.21875,-4.03125,0.0,-8.918192918192918,-1.2161172161172158,3.65625,2.6875,-3.625,-1.3162393162393162,-8.454212454212454,-2.1965811965811968,3.4375,1.90625,-3.40625,-1.6251526251526252,-8.307692307692307,-2.4920634920634916,3.3125,1.75,-3.15625,-1.6324786324786325,-7.598290598290597,-2.511599511599512,3.25,1.46875,-2.90625,-2.1611721611721606,-7.700854700854701,-3.31990231990232,3.21875,0.84375,-2.53125,-3.3418803418803416,-7.5396825396825395,-4.122100122100122,2.90625,0.0,-2.1875,-3.532356532356532,-6.920634920634921,-3.641025641025641,2.4375,0.0,-1.8125,-4.25030525030525,-6.2466422466422475,-3.6703296703296697,2.21875,0.0,-1.59375,-3.5543345543345537,-6.029304029304028,-3.2246642246642248,2.03125,0.0,-1.375,-3.0891330891330893,-5.53968253968254,-2.8034188034188032,1.71875,0.0,-1.03125,-3.3675213675213675,-4.9023199023199036,-2.426129426129426,1.40625,0.0,-0.625,-3.1562881562881566,-4.706959706959707,-1.6923076923076923,1.21875,-0.625,0.0,-3.31990231990232,-4.463980463980464,-2.053724053724053,0.90625,0.0,0.0,-2.266178266178266,-4.735042735042735,-2.9621489621489623,0.0,0.0,0.0,-1.363858363858364,-4.31990231990232,-2.7216117216117217,0.0,0.0,0.0,-1.5091575091575091,-3.238095238095238,-0.9072039072039072,0.0,0.0,0.0,-1.4761904761904765,-2.653235653235653,0.7692307692307693,0.0,0.5625,0.0,0.6581196581196581,-2.6654456654456653,1.31990231990232,0.0,0.0,0.0,2.0573870573870567,-2.9682539682539684,0.0,0.0,0.0,0.0,2.578754578754579,-2.937728937728938,0.0,0.0,0.0,0.0,1.6117216117216118,-3.0122100122100113,-0.8046398046398047,0.0,0.0,0.0,0.0,-3.111111111111111,-1.1782661782661783,0.0,0.0,0.0,-0.6959706959706959,-3.258852258852259,-1.3223443223443223,0.0,0.0,0.0,-1.3650793650793651,-3.3907203907203907,-0.8913308913308914,0.0,0.0,0.0,0.0,-4.15995115995116,-0.8595848595848596,0.0,0.0,0.0,,,,,,,,,,,,,,,,,,,,,,,,,,,,,,,,,,,,,,,,,,,,,,,,,wp_back
accX,-0.503052503052503,-0.9609279609279608,-3.8485958485958487,0.9375,2.21875,0.0,0.0,-1.5702075702075702,-5.136752136752137,0.71875,3.5625,0.0,1.706959706959707,-2.0415140415140414,-4.595848595848596,0.0,4.59375,0.0,2.6202686202686203,-1.9792429792429795,-3.10989010989011,0.0,5.1875,0.0,3.908424908424908,-1.2161172161172158,-2.312576312576313,0.0,5.40625,-1.0,2.8864468864468864,-2.33943833943834,-2.3382173382173383,0.5625,5.4375,-1.6875,1.94017094017094,-2.267399267399268,-1.8559218559218558,0.53125,5.78125,-2.0625,1.8229548229548234,-1.5604395604395604,-1.3943833943833943,0.59375,6.4375,-2.625,2.509157509157509,0.0,-0.7338217338217338,0.9375,6.96875,-3.15625,4.1672771672771685,1.1831501831501832,0.0,1.46875,6.9375,-3.78125,4.8852258852258865,1.7411477411477412,0.0,2.15625,6.25,-4.3125,3.1355311355311355,3.57997557997558,0.0,2.78125,5.46875,-4.6875,2.0488400488400487,2.934065934065934,-0.9059829059829059,3.0,5.21875,-4.8125,1.7252747252747254,-6.326007326007326,-1.0402930402930404,3.1875,4.625,-4.75,1.2625152625152625,-8.426129426129426,-1.3797313797313795,3.21875,3.34375,-4.28125,0.6361416361416361,-9.463980463980462,-1.1831501831501832,3.09375,2.1875,-3.8125,0.0,-9.937728937728938,-0.8302808302808303,3.03125,1.71875,-3.625,-0.9633699633699634,-8.735042735042732,-0.6947496947496947,3.28125,1.65625,-3.5625,-1.7130647130647132,-8.69108669108669,-1.26007326007326,3.40625,1.53125,-3.21875,-1.2991452991452992,-9.1025641025641,-1.9230769230769231,3.0625,0.96875,-2.8125,-2.064713064713065,-8.385836385836386,-1.827838827838828,2.84375,0.53125,-2.5625,-2.9267399267399266,-7.8998778998779,-1.7191697191697193,2.84375,0.0,-2.3125,-3.413919413919414,-7.645909645909647,-2.3089133089133087,2.75,0.0,-1.90625,-3.8962148962148966,-6.568986568986569,-3.043956043956044,2.375,0.0,-1.625,-4.247863247863248,-6.345543345543345,-3.0476190476190474,2.125,0.0,-1.28125,-4.065934065934067,-5.777777777777778,-2.675213675213675,1.90625,0.0,-0.96875,-3.84004884004884,-5.434676434676435,-2.371184371184371,1.875,0.0,-0.71875,-2.5286935286935286,-5.180708180708182,-2.064713064713065,1.6875,0.0,0.0,-2.4737484737484743,-5.8058608058608066,-5.479853479853481,1.28125,0.0,0.0,-2.78998778998779,-5.517704517704519,-5.028083028083028,0.0,0.0,0.0,-1.8620268620268619,-3.954822954822955,-1.0781440781440779,0.59375,0.625,0.0,-2.05006105006105,-3.404151404151404,0.8925518925518926,0.75,0.0,0.0,0.0,-3.1001221001221,0.6654456654456654,0.625,0.0,0.0,0.0,-3.3504273504273505,-0.6153846153846154,0.0,0.0,0.0,1.6581196581196582,-3.4346764346764345,-0.9902319902319904,0.0,0.0,0.0,1.9658119658119655,-3.829059829059829,-1.382173382173382,0.0,0.0,0.0,0.9951159951159952,-3.2967032967032965,-0.5946275946275946,0.0,0.0,0.0,0.0,-3.115995115995116,0.0,0.0,0.0,0.0,0.0,-3.388278388278388,0.0,0.0,0.0,0.0,0.0,-4.056166056166056,0.0,0.0,0.0,0.0,,,,,,,,,,,,,,,,,,,,,,,,,,,,,,,,,,,,,,,,,,,,,,,,,,,,,,,wp_back
accX,0.0,0.0,-2.2844932844932844,1.15625,0.8125,0.0,-1.1001221001221002,0.0,-2.6263736263736264,0.9375,2.03125,0.0,0.0,0.0,-2.593406593406593,0.875,3.0625,0.0,0.8070818070818071,0.0,-2.3418803418803416,0.8125,3.71875,0.0,1.9938949938949944,-2.053724053724053,-3.247863247863248,0.0,4.3125,0.0,3.879120879120879,-2.199023199023199,-2.7851037851037854,0.0,4.53125,0.0,4.478632478632479,-0.9438339438339438,-1.3711843711843712,0.0,4.59375,-1.5625,4.003663003663004,0.0,-0.8498168498168498,1.15625,5.0625,-2.75,4.079365079365079,-1.199023199023199,-1.6398046398046398,1.53125,5.375,-3.78125,4.6007326007325995,-1.4163614163614164,-1.7387057387057387,1.25,4.75,-4.03125,3.2710622710622714,-0.5262515262515263,-1.434676434676435,1.03125,4.125,-3.8125,3.1855921855921854,0.0,-0.7362637362637363,1.03125,3.78125,-3.71875,3.2881562881562885,0.8339438339438342,0.0,1.3125,3.90625,-3.9375,3.627594627594628,1.661782661782662,0.0,1.65625,4.09375,-4.1875,2.8669108669108665,2.628815628815629,0.0,1.90625,4.0625,-4.1875,1.5518925518925517,5.014652014652015,0.0,2.21875,4.0625,-4.34375,0.8437118437118437,-7.054945054945056,0.0,2.5625,4.125,-4.3125,1.010989010989011,-9.147741147741149,0.0,2.8125,3.84375,-4.15625,0.6703296703296703,-9.658119658119658,-0.5384615384615384,2.90625,3.15625,-3.9375,-0.6056166056166056,-8.884004884004883,-0.6434676434676435,2.96875,2.65625,-3.78125,-0.8571428571428571,-8.920634920634921,-0.8778998778998779,3.15625,2.25,-3.40625,-1.3663003663003663,-8.692307692307693,-1.144078144078144,3.1875,1.71875,-3.125,-1.7985347985347986,-9.147741147741149,-1.5409035409035412,3.03125,1.3125,-2.8125,-3.2710622710622714,-8.158730158730158,-1.9084249084249083,2.9375,1.21875,-2.59375,-3.669108669108669,-7.89010989010989,-2.189255189255189,2.875,1.21875,-2.21875,-3.051282051282051,-7.653235653235654,-2.47985347985348,2.6875,0.71875,-1.84375,-3.492063492063492,-7.384615384615384,-2.7045177045177047,2.375,0.0,-1.5,-3.7875457875457874,-6.761904761904763,-2.927960927960928,2.09375,0.0,-1.125,-3.731379731379731,-6.343101343101343,-2.7496947496947497,1.78125,0.0,-0.8125,-3.4273504273504267,-5.676434676434678,-2.503052503052503,1.5,0.0,-0.53125,-2.2564102564102564,-5.308913308913309,-2.7643467643467643,1.28125,0.0,0.0,-1.3345543345543345,-5.953601953601954,-3.3772893772893773,0.84375,-1.4375,0.0,-3.4932844932844933,-4.974358974358975,-3.455433455433456,0.0,0.0,0.0,-2.1746031746031744,-3.4737484737484734,0.0,0.0,0.0,0.0,0.0,-3.326007326007326,1.2344322344322345,0.53125,0.0,0.0,0.5848595848595849,-4.137973137973138,-1.4322344322344325,0.0,0.0,0.0,1.619047619047619,-3.7338217338217334,-1.7631257631257633,0.0,0.0,0.0,0.6105006105006106,-3.2185592185592187,-0.6947496947496947,0.0,0.0,0.0,0.0,-2.6630036630036633,-0.9218559218559218,0.0,0.0,0.0,-0.9645909645909646,-3.3809523809523814,-0.8522588522588522,0.0,0.0,0.0,-1.1428571428571428,-3.5921855921855923,0.0,0.0,0.0,0.0,-0.5445665445665445,-3.705738705738706,0.0,0.0,0.0,0.0,0.0,-4.085470085470085,0.0,0.0,0.0,0.0,,,,,,,,,,,,,,,,,,,,,,,,,,,,,,,,,,,,,wp_back
accX,1.3516483516483515,-0.5665445665445665,-4.073260073260073,1.21875,1.40625,0.0,1.3040293040293038,-1.6605616605616609,-4.86080586080586,0.875,2.34375,0.0,1.4175824175824177,-2.147741147741148,-4.970695970695972,0.0,3.5625,0.0,2.4737484737484743,-2.2344322344322345,-4.925518925518926,0.0,4.0,-0.625,3.1538461538461537,-2.21001221001221,-4.117216117216117,0.0,4.15625,-1.0625,3.0976800976800978,-2.5311355311355306,-2.8583638583638584,0.0,4.375,-1.6875,3.553113553113553,-2.5457875457875456,-2.034188034188034,0.0,4.75,-2.65625,4.824175824175824,-2.7973137973137967,-1.945054945054945,0.0,4.71875,-3.75,3.705738705738706,-2.3003663003662997,-1.938949938949939,0.5625,4.75,-4.46875,1.8424908424908424,-1.5628815628815629,-1.6507936507936507,0.90625,4.90625,-4.78125,2.068376068376069,-1.2173382173382172,-1.6752136752136753,1.09375,4.625,-4.75,2.656898656898657,-1.0,-1.3076923076923077,1.125,3.8125,-4.6875,0.9072039072039072,-1.15995115995116,-0.9413919413919414,1.28125,3.46875,-4.6875,0.0,-2.240537240537241,0.0,1.84375,3.875,-4.75,0.0,-8.863247863247864,0.7289377289377289,2.125,3.9375,-4.625,0.0,-12.593406593406591,0.0,2.34375,3.65625,-4.40625,-1.0915750915750917,-11.196581196581194,0.0,2.625,3.34375,-4.375,-1.4383394383394383,-10.089133089133087,0.0,2.9375,3.21875,-4.15625,-1.4188034188034189,-10.241758241758241,-0.9633699633699634,3.0625,2.90625,-3.875,-2.4664224664224665,-9.507936507936508,-1.7728937728937728,3.0625,2.71875,-3.65625,-2.7802197802197797,-8.775335775335776,-2.8217338217338215,2.9375,2.5,-3.3125,-3.0293040293040288,-8.301587301587302,-3.0170940170940175,2.78125,1.90625,-2.84375,-3.1233211233211238,-7.886446886446887,-2.647130647130647,2.65625,1.53125,-2.4375,-3.2576312576312576,-7.152625152625152,-2.8705738705738706,2.59375,1.34375,-2.15625,-3.665445665445665,-6.87057387057387,-3.231990231990232,2.40625,0.90625,-1.71875,-3.648351648351648,-6.638583638583639,-2.935286935286935,1.96875,0.0,-1.0625,-3.1514041514041518,-5.859584859584858,-1.9853479853479852,1.8125,0.0,-0.6875,-3.3540903540903533,-5.213675213675214,-1.2954822954822955,1.6875,0.0,0.0,-2.6178266178266183,-5.16971916971917,-1.1831501831501832,1.28125,-0.75,0.0,-2.4163614163614158,-4.650793650793651,-0.8083028083028083,0.96875,-1.0,0.0,-3.0390720390720385,-5.142857142857143,-3.449328449328449,0.6875,0.0,0.0,-1.205128205128205,-5.0134310134310125,-3.091575091575092,0.0,0.6875,0.0,0.0,-3.778998778998779,0.0,0.0,0.0,0.0,0.0,-3.37973137973138,0.0,0.0,0.0,0.0,0.6556776556776557,-3.611721611721612,0.0,0.0,0.0,0.0,0.7289377289377289,-3.7045177045177047,-1.1355311355311355,0.0,0.0,0.0,0.6776556776556777,-3.637362637362637,-1.1746031746031746,0.0,0.0,0.0,0.0,-3.0268620268620268,0.0,0.0,0.0,0.0,0.0,-3.2844932844932844,0.0,0.0,0.0,0.0,0.0,-3.681318681318681,0.0,0.0,0.0,0.0,,,,,,,,,,,,,,,,,,,,,,,,,,,,,,,,,,,,,,,,,,,,,,,,,,,,,,,wp_back
accX,1.242979242979243,0.0,-3.608058608058608,0.0,0.0,-0.59375,0.0,0.0,-4.202686202686203,0.0,0.84375,-0.5625,0.0,-1.3113553113553114,-5.043956043956044,0.0,2.625,0.0,1.3943833943833943,-2.8473748473748475,-5.424908424908424,0.0,4.28125,0.0,3.04029304029304,-3.653235653235653,-5.045177045177045,-0.53125,4.59375,-0.65625,2.5006105006105006,-3.189255189255189,-3.705738705738706,-1.0,4.25,-1.125,0.9597069597069596,-2.293040293040293,-2.628815628815629,-1.1875,4.09375,-1.34375,0.0,-1.9975579975579976,-2.346764346764347,-0.78125,5.40625,-1.875,0.0,-0.6727716727716728,-1.2271062271062272,0.0,6.5625,-2.6875,1.750915750915751,0.0,-0.7045177045177046,0.6875,6.875,-3.71875,1.876678876678877,-0.5347985347985348,-1.0903540903540905,1.125,6.5,-4.40625,1.868131868131868,0.0,-1.7264957264957266,1.34375,6.125,-4.75,1.3223443223443223,0.0,-1.5128205128205128,1.5,5.84375,-4.78125,0.8852258852258852,0.0,-0.9328449328449328,1.84375,5.34375,-4.75,0.6373626373626373,-9.374847374847377,-0.5995115995115995,2.0625,4.75,-4.625,0.0,-12.163614163614163,-1.4945054945054943,2.15625,4.4375,-4.53125,0.0,-10.385836385836386,-1.2417582417582418,2.28125,4.0625,-4.375,0.0,-9.191697191697193,-1.0402930402930404,2.5,3.5625,-4.0625,-0.6703296703296703,-8.855921855921855,-1.21978021978022,2.8125,2.96875,-3.59375,-2.2063492063492065,-8.14041514041514,-1.7704517704517704,2.84375,2.3125,-3.25,-2.8852258852258847,-7.7142857142857135,-1.8937728937728937,2.75,1.84375,-2.9375,-4.020757020757022,-6.7533577533577525,-1.794871794871795,2.75,1.625,-2.59375,-3.4346764346764345,-6.606837606837607,-1.612942612942613,2.9375,1.625,-2.21875,-2.737484737484737,-6.8949938949938945,-2.203907203907204,2.90625,1.21875,-1.84375,-3.816849816849817,-6.451770451770452,-2.8376068376068377,2.59375,0.65625,-1.5,-4.141636141636142,-5.778998778998778,-3.0048840048840044,2.28125,0.5625,-1.21875,-3.2197802197802203,-5.500610500610501,-2.56043956043956,2.0625,0.5625,-0.875,-2.3846153846153846,-5.31013431013431,-2.2515262515262515,1.90625,0.0,-0.59375,-1.9023199023199024,-4.653235653235653,-1.6556776556776556,1.5625,0.0,0.0,-3.831501831501832,-4.637362637362638,-3.936507936507936,1.34375,0.0,0.0,-4.470085470085469,-5.673992673992674,-5.1440781440781445,0.0,1.15625,0.0,-2.04029304029304,-3.776556776556777,-0.8046398046398047,0.0,1.28125,0.0,0.0,-4.117216117216117,-0.9597069597069596,0.0,0.78125,0.0,2.4615384615384617,-3.748473748473749,0.0,0.0,0.53125,0.0,2.68009768009768,-3.336996336996337,-0.8827838827838828,0.0,0.0,0.0,1.2368742368742371,-3.1257631257631258,-1.006105006105006,0.0,0.0,0.0,0.0,-3.2490842490842486,-1.3772893772893773,0.0,0.0,0.0,-0.7118437118437119,-3.2503052503052503,-0.8620268620268621,0.0,0.0,0.0,0.0,-3.289377289377289,0.0,0.0,0.0,0.0,0.0,-3.398046398046398,-0.5921855921855922,0.0,0.0,0.0,,,,,,,,,,,,,,,,,,,,,,,,,,,,,,,,,,,,,,,,,,,,,,,,,,,,,,,wp_back
accX,1.4737484737484738,1.2588522588522588,-1.0561660561660562,1.0625,0.78125,0.0,1.2307692307692308,1.2332112332112333,-1.5103785103785103,1.3125,1.1875,0.0,0.0,0.5225885225885226,-2.0476190476190474,1.28125,2.0625,0.0,1.3565323565323566,0.0,-2.8253968253968256,1.15625,2.875,0.0,2.5213675213675213,-1.1416361416361416,-3.5372405372405376,0.75,3.28125,0.0,3.2246642246642248,-2.249084249084249,-3.9975579975579976,0.0,3.53125,0.0,2.5873015873015874,-1.3028083028083028,-1.978021978021978,0.0,3.875,-0.625,2.3943833943833943,-1.2881562881562882,-1.5824175824175823,0.0,4.65625,-1.125,3.086691086691087,-1.4993894993894994,-1.5946275946275947,0.75,5.5625,-1.90625,4.094017094017094,-2.043956043956044,-1.5775335775335777,1.1875,6.09375,-2.65625,4.048840048840049,-1.2796092796092795,-1.1343101343101345,1.375,6.0625,-3.21875,3.7142857142857135,0.0,-0.706959706959707,1.75,5.8125,-3.53125,4.062271062271062,0.7643467643467643,0.0,2.3125,5.53125,-3.8125,3.1782661782661785,0.9914529914529916,-0.7545787545787546,2.71875,4.96875,-4.0625,1.6642246642246643,2.9267399267399266,-1.4297924297924298,2.6875,4.5,-4.28125,1.4407814407814408,5.068376068376068,-1.3565323565323566,2.625,4.09375,-4.0625,1.673992673992674,-2.2808302808302807,-1.0769230769230769,2.6875,3.53125,-3.9375,1.277167277167277,-7.930402930402932,-0.7496947496947497,3.125,2.6875,-3.90625,0.0,-9.354090354090356,-0.6410256410256411,3.3125,2.59375,-3.9375,0.0,-9.443223443223443,-0.6544566544566545,3.46875,2.59375,-3.84375,-0.6898656898656899,-8.954822954822955,-0.6984126984126984,3.6875,2.15625,-3.59375,-1.5848595848595848,-9.207570207570207,-0.8791208791208791,3.78125,1.78125,-3.21875,-2.3174603174603177,-9.321123321123322,-1.4236874236874235,3.71875,1.625,-2.9375,-3.4322344322344316,-8.476190476190476,-1.7814407814407816,3.6875,1.46875,-2.625,-3.2026862026862033,-8.431013431013431,-1.6996336996336996,3.59375,1.15625,-2.1875,-3.1062271062271063,-8.543345543345543,-2.1404151404151404,3.34375,0.71875,-1.8125,-4.043956043956044,-8.290598290598291,-3.1282051282051277,2.96875,0.0,-1.53125,-4.666666666666667,-7.637362637362638,-3.5811965811965814,2.53125,0.59375,-1.1875,-3.8156288156288163,-6.979242979242978,-2.7704517704517704,2.0625,0.59375,-0.71875,-2.559218559218559,-5.4212454212454215,-1.8217338217338217,1.90625,0.0,0.0,-2.0549450549450547,-6.687423687423687,-6.443223443223442,1.53125,0.0,0.0,-4.706959706959707,-6.158730158730159,-7.023199023199023,0.0,0.0,0.0,-1.4529914529914532,-4.162393162393163,-2.0134310134310134,0.0,0.75,0.0,-0.7521367521367521,-3.862026862026862,0.0,0.0,0.0,0.0,2.05982905982906,-3.595848595848596,0.0,0.0,0.0,0.0,2.85958485958486,-3.6971916971916974,-0.6788766788766789,0.0,0.0,0.0,1.0805860805860803,-3.3015873015873014,-1.1318681318681318,0.0,0.0,0.0,-0.5921855921855922,-3.669108669108669,-1.5445665445665446,0.0,0.0,0.0,-1.4969474969474967,-3.7472527472527473,-1.0854700854700854,0.0,0.0,0.0,-1.4102564102564104,-4.244200244200244,-1.1245421245421243,0.0,0.0,0.0,-0.9365079365079364,-4.809523809523808,-1.2527472527472527,0.0,0.0,0.0,,,,,,,,,,,,,,,,,,,,,,,,,,,,,,,,,,,,,,,,,,,,,,,,,wp_back
accX,2.294261294261294,-0.8717948717948718,-3.2576312576312576,0.0,0.625,0.0,1.8925518925518925,0.0,-3.1660561660561664,0.0,0.0,0.0,1.1782661782661783,0.7631257631257631,-2.8669108669108665,0.0,0.8125,0.0,0.0,0.0,-3.68009768009768,0.0,2.1875,0.0,2.879120879120879,-1.9291819291819288,-3.8412698412698414,0.0,3.96875,-0.53125,4.1391941391941405,-2.533577533577533,-3.89010989010989,0.0,4.03125,-1.25,2.642246642246642,-1.332112332112332,-3.347985347985348,0.0,4.3125,-1.90625,1.3284493284493284,0.0,-2.4444444444444446,0.6875,5.34375,-2.4375,2.04029304029304,-0.8327228327228328,-1.7789987789987791,1.375,6.28125,-3.0625,3.653235653235653,-1.647130647130647,-1.7216117216117215,1.65625,6.3125,-3.75,3.6971916971916974,-2.0378510378510377,-2.333333333333333,1.40625,5.75,-4.0625,2.7826617826617825,-1.194139194139194,-1.9426129426129424,1.21875,5.1875,-4.0625,2.706959706959707,0.0,-0.9755799755799756,1.53125,4.8125,-4.125,2.1672771672771667,1.4957264957264955,0.0,2.0,4.625,-4.28125,2.7387057387057387,1.0354090354090355,-0.7777777777777778,2.03125,4.15625,-4.46875,1.5873015873015872,2.4432234432234434,-0.5653235653235653,2.15625,3.78125,-4.375,0.5982905982905983,-9.388278388278387,0.0,2.625,3.9375,-4.375,0.9413919413919414,-9.68986568986569,0.0,3.03125,3.84375,-4.3125,0.912087912087912,-9.488400488400488,0.0,3.28125,3.15625,-4.1875,-0.5006105006105006,-9.477411477411476,-0.8681318681318682,3.375,2.125,-3.875,-2.5482295482295485,-9.361416361416364,-1.5604395604395604,3.46875,1.40625,-3.46875,-3.9010989010989015,-9.327228327228328,-2.4444444444444446,3.53125,1.1875,-3.15625,-4.31013431013431,-9.72039072039072,-3.683760683760684,3.34375,1.1875,-2.875,-5.067155067155066,-8.841269841269842,-3.6935286935286937,2.8125,1.09375,-2.59375,-5.308913308913309,-8.076923076923077,-2.887667887667888,2.5625,1.15625,-2.3125,-4.9804639804639805,-7.297924297924298,-2.1575091575091574,2.46875,1.40625,-2.03125,-4.987789987789989,-6.752136752136753,-2.4481074481074483,2.28125,1.5,-1.75,-2.8205128205128207,-6.368742368742367,-2.283272283272283,1.78125,0.71875,-0.9375,-3.0183150183150182,-5.787545787545787,-3.0134310134310134,1.5625,0.0,0.0,-4.609279609279608,-8.196581196581198,-9.536019536019538,0.625,0.0,0.0,-2.015873015873016,-5.676434676434678,-4.672771672771673,0.0,0.65625,0.0,-1.1733821733821734,-4.2905982905982905,-0.7973137973137974,0.0,0.0,0.0,0.6654456654456654,-2.9572649572649574,1.6312576312576312,0.0,0.0,0.0,1.3943833943833943,-2.7765567765567765,0.0,0.0,0.0,0.0,0.6617826617826618,-2.95970695970696,0.0,0.53125,0.0,0.0,0.57997557997558,-3.4273504273504267,-0.7277167277167277,0.0,0.0,0.0,0.0,-3.7948717948717943,-1.0818070818070815,0.0,0.0,0.0,0.0,-3.9841269841269837,-1.1538461538461535,0.0,0.0,0.0,-0.8266178266178266,-4.2967032967032965,-1.043956043956044,0.0,0.0,0.0,0.0,-5.020757020757022,-1.1391941391941391,0.0,0.0,0.5625,,,,,,,,,,,,,,,,,,,,,,,,,,,,,,,,,,,,,,,,,,,,,,,,,,,,,,,wp_back
accX,1.2783882783882785,0.0,-2.8424908424908426,0.84375,1.65625,0.0,1.083028083028083,0.0,-3.1135531135531136,0.9375,2.375,0.0,1.9914529914529917,0.0,-3.4590964590964592,0.875,2.90625,0.0,4.274725274725275,-1.5335775335775337,-3.2600732600732596,0.0,3.25,0.0,2.533577533577533,-1.4676434676434675,-2.7216117216117217,0.0,3.375,-0.65625,1.4505494505494505,-1.2551892551892552,-2.189255189255189,0.0,4.25,-0.9375,2.611721611721612,-1.293040293040293,-1.4175824175824177,0.65625,5.5,-1.53125,4.013431013431013,-1.2539682539682542,-0.5433455433455433,1.25,6.4375,-2.75,3.9670329670329667,-1.2673992673992671,-0.8034188034188035,1.75,6.65625,-3.71875,4.118437118437118,-1.1025641025641026,-0.9267399267399268,2.03125,6.5,-4.125,4.450549450549451,0.0,-0.7435897435897436,2.09375,6.0625,-4.3125,4.322344322344321,1.6764346764346765,-0.6141636141636142,2.25,5.375,-4.40625,3.412698412698413,3.3443223443223444,-0.5750915750915749,2.5,4.71875,-4.4375,2.743589743589744,4.1037851037851025,-0.9768009768009768,2.65625,4.21875,-4.375,1.3724053724053724,1.0,-1.0964590964590966,2.6875,3.8125,-4.375,0.6495726495726496,-4.645909645909647,-0.9181929181929182,2.90625,3.34375,-4.125,0.6459096459096461,-7.405372405372407,-0.8083028083028083,3.09375,2.6875,-3.875,0.0,-8.957264957264957,-1.2002442002442002,2.96875,1.96875,-3.65625,-1.2246642246642248,-8.891330891330893,-1.5738705738705738,2.90625,1.4375,-3.375,-2.1636141636141635,-8.93040293040293,-1.750915750915751,2.96875,1.3125,-3.125,-2.3272283272283274,-8.903540903540904,-2.0097680097680097,2.96875,1.125,-2.875,-2.3321123321123323,-8.780219780219781,-2.117216117216117,2.875,0.84375,-2.59375,-2.7142857142857144,-7.976800976800977,-1.84004884004884,2.78125,0.59375,-2.4375,-3.4285714285714284,-8.072039072039072,-1.5921855921855919,2.75,0.53125,-2.09375,-4.813186813186814,-7.235653235653236,-2.0805860805860807,2.75,0.71875,-1.8125,-4.798534798534798,-7.433455433455434,-2.627594627594628,2.46875,0.90625,-1.40625,-3.418803418803418,-6.9694749694749705,-2.1978021978021984,2.0625,0.0,-0.90625,-3.4725274725274726,-5.730158730158731,-2.025641025641025,1.875,0.0,-0.59375,-4.010989010989012,-5.056166056166056,-2.2625152625152625,1.8125,0.0,0.0,-5.632478632478633,-7.879120879120879,-10.989010989010987,1.4375,0.8125,0.0,0.0,-5.334554334554333,-4.700854700854701,0.0,1.40625,0.0,0.0,-4.164835164835165,-1.3247863247863247,0.0,0.8125,0.0,0.0,-3.231990231990232,0.0,0.53125,0.0,0.0,0.0,-2.8083028083028077,0.0,0.6875,0.0,0.0,1.6288156288156288,-3.7960927960927964,-0.9291819291819292,0.6875,0.0,0.0,0.7997557997557998,-3.931623931623931,-1.4102564102564104,0.0,0.0,0.0,0.0,-4.295482295482295,-1.5726495726495726,0.0,0.0,0.0,0.0,-4.431013431013431,-1.2234432234432235,0.0,0.0,0.0,,,,,,,,,,,,,,,,,,,,,,,,,,,,,,,,,,,,,,,,,,,,,,,,,,,,,,,,,,,,,,,,,,,wp_back
accX,0.9975579975579976,0.8156288156288156,-2.1404151404151404,0.0,0.71875,0.0,0.0,0.5641025641025641,-2.0793650793650795,0.5625,1.40625,0.0,0.934065934065934,-0.7472527472527473,-2.9426129426129437,0.75,2.40625,0.0,2.485958485958486,-1.3797313797313795,-3.648351648351648,0.0,3.0625,0.0,2.9853479853479854,-2.398046398046398,-3.4163614163614158,0.0,3.0625,-0.6875,2.0793650793650795,-1.8119658119658117,-3.0903540903540905,0.0,3.59375,-1.1875,1.2307692307692308,-1.956043956043956,-3.028083028083028,0.0,4.875,-1.90625,2.1904761904761907,-2.238095238095238,-2.5128205128205128,0.96875,6.0625,-2.9375,2.7472527472527477,-2.2002442002442004,-2.1562881562881557,1.375,6.5,-3.71875,2.584859584859585,-2.166056166056166,-2.5677655677655684,1.5,6.46875,-3.96875,2.976800976800977,-1.5286935286935286,-2.305250305250305,1.59375,6.0625,-4.21875,2.8327228327228333,0.0,-2.11965811965812,1.75,5.375,-4.3125,2.017094017094017,0.0,-1.8571428571428568,1.90625,4.875,-4.34375,1.7277167277167278,1.7765567765567765,-1.6703296703296704,2.09375,4.59375,-4.5,1.652014652014652,3.42002442002442,-1.2551892551892552,2.21875,4.0,-4.4375,0.0,4.034188034188034,-0.8705738705738706,2.34375,3.5,-4.25,0.0,-7.987789987789987,-0.5421245421245421,2.5625,3.34375,-4.09375,0.0,-9.057387057387057,-0.6080586080586079,2.75,2.8125,-3.875,-1.4774114774114775,-8.705738705738705,-0.9877899877899878,2.8125,2.25,-3.6875,-2.5445665445665444,-8.836385836385837,-1.3247863247863247,2.9375,1.8125,-3.40625,-2.4725274725274726,-8.998778998778997,-1.5152625152625152,3.0,1.6875,-3.09375,-2.0891330891330893,-8.609279609279609,-1.78021978021978,2.9375,1.40625,-2.84375,-3.3650793650793656,-8.256410256410257,-1.9572649572649568,2.84375,0.875,-2.59375,-4.321123321123321,-8.112332112332112,-2.312576312576313,2.71875,0.59375,-2.21875,-4.6361416361416365,-7.891330891330893,-2.6727716727716726,2.5625,0.0,-1.84375,-4.222222222222221,-7.672771672771673,-2.7545787545787546,2.21875,0.0,-1.4375,-3.73015873015873,-6.733821733821733,-1.7716727716727716,1.8125,0.0,-1.09375,-3.131868131868132,-6.244200244200244,-1.277167277167277,1.65625,-0.625,-0.5625,-3.225885225885226,-6.095238095238094,-1.043956043956044,1.5,-0.5625,0.0,-1.6776556776556777,-6.571428571428571,-2.6263736263736264,1.03125,-1.03125,0.0,-2.763125763125763,-6.603174603174603,-3.703296703296704,0.0,-1.53125,0.0,-2.0476190476190474,-5.991452991452992,-3.172161172161172,0.0,-1.5625,0.0,-2.7252747252747254,-5.1330891330891335,-3.137973137973138,0.0,0.0,0.0,0.0,-4.655677655677657,-0.8717948717948718,0.0,0.0,0.0,0.993894993894994,-4.272283272283272,0.0,0.0,0.0,0.0,0.0,-3.847374847374848,0.0,0.0,-0.65625,0.0,-1.8547008547008548,-3.93040293040293,-0.971916971916972,0.0,0.0,0.0,-2.383394383394384,-3.9145299145299135,-0.6605616605616605,0.0,0.0,0.0,-1.7973137973137974,-4.4151404151404146,-0.6251526251526252,0.0,0.0,0.0,-0.8803418803418803,-4.887667887667888,-0.7387057387057387,0.0,0.0,0.0,-1.175824175824176,-5.1098901098901095,-1.0305250305250304,-0.71875,0.0,0.0,-1.8021978021978025,-5.557997557997558,-1.2686202686202686,-0.96875,0.0,0.0,-3.4908424908424913,-5.35042735042735,-2.0366300366300365,-1.09375,0.0,0.78125,,,,,,,,,,,,,,,,,,,,,,,,,,,,,,,,,,,,,wp_back
accX,1.0903540903540905,1.0256410256410255,-2.656898656898657,1.28125,0.71875,0.0,0.8095238095238095,1.2075702075702075,-2.627594627594628,1.4375,1.28125,0.0,0.0,0.0,-2.768009768009768,1.3125,2.25,0.0,1.2405372405372406,-0.6471306471306472,-3.604395604395605,1.21875,3.84375,0.0,2.9218559218559217,-1.956043956043956,-3.531135531135531,1.21875,4.5625,0.0,3.9877899877899887,-2.6166056166056166,-3.0781440781440783,1.03125,4.875,-0.59375,4.3125763125763115,-2.5531135531135534,-2.5457875457875456,0.9375,5.21875,-1.71875,3.6544566544566544,-3.0183150183150182,-2.6959706959706957,1.09375,5.625,-2.78125,3.2869352869352872,-3.3968253968253967,-2.909645909645909,1.21875,5.96875,-3.4375,3.361416361416361,-2.5457875457875456,-2.627594627594628,1.25,6.25,-4.0,2.683760683760684,-1.7252747252747254,-1.887667887667888,1.5,6.125,-4.40625,2.021978021978022,-0.7350427350427351,-1.3467643467643469,1.75,5.90625,-4.625,1.5775335775335777,0.5518925518925519,-1.2210012210012209,2.03125,5.75,-4.53125,2.1245421245421245,2.0805860805860807,-0.9084249084249084,2.25,5.53125,-4.65625,1.794871794871795,4.218559218559219,-1.199023199023199,2.3125,4.96875,-4.75,1.2417582417582418,2.562881562881563,-1.0158730158730158,2.59375,3.875,-4.5,0.8803418803418803,-6.35042735042735,-0.6764346764346765,3.0625,3.59375,-4.46875,0.8083028083028083,-8.755799755799757,-0.6471306471306472,3.375,3.21875,-4.3125,0.0,-9.460317460317462,-1.338217338217338,3.34375,2.40625,-4.15625,-1.6019536019536018,-9.155067155067156,-1.8217338217338217,3.3125,1.625,-3.625,-2.8046398046398044,-9.178266178266178,-2.1623931623931623,3.25,1.21875,-3.125,-3.0818070818070824,-8.947496947496948,-2.017094017094017,3.28125,1.0,-2.84375,-3.727716727716728,-8.914529914529913,-2.7594627594627594,3.0625,0.78125,-2.53125,-4.3748473748473735,-8.577533577533577,-2.958485958485958,2.65625,0.53125,-2.21875,-4.786324786324786,-7.792429792429793,-2.8437118437118434,2.3125,0.0,-1.8125,-5.227106227106226,-7.446886446886448,-2.8608058608058613,2.09375,0.0,-1.375,-4.824175824175824,-7.146520146520147,-2.9572649572649574,1.5625,0.0,-0.8125,-3.9438339438339436,-5.913308913308914,-1.927960927960928,1.15625,0.0,0.0,-3.231990231990232,-5.037851037851038,0.0,1.15625,0.0,0.0,-1.0476190476190477,-5.853479853479853,-2.0329670329670333,1.21875,0.0,0.0,-2.3076923076923075,-5.807081807081808,-3.717948717948718,0.5625,-0.84375,0.0,-1.5018315018315018,-6.205128205128204,-4.405372405372407,0.0,0.0,0.0,0.0,-4.537240537240537,-0.8437118437118437,0.0,0.0,0.0,0.0,-3.873015873015873,0.7509157509157509,0.0,0.0,0.0,0.9291819291819292,-4.222222222222221,0.0,0.0,0.0,0.0,0.7277167277167277,-4.528693528693529,-1.2039072039072038,0.0,0.0,0.0,0.0,-4.291819291819292,-0.8253968253968254,0.0,0.0,0.0,0.0,-4.208791208791209,0.0,0.0,0.0,0.0,0.0,-4.409035409035409,0.0,0.0,0.0,0.0,-0.8791208791208791,-4.507936507936508,0.0,0.0,0.0,0.0,-0.7448107448107448,-4.904761904761905,-0.6227106227106227,0.0,0.0,0.0,,,,,,,,,,,,,,,,,,,,,,,,,,,,,,,,,,,,,,,,,,,,,,,,,wp_back
accX,0.8827838827838828,0.0,-1.8901098901098898,1.46875,2.125,0.0,1.065934065934066,-1.247863247863248,-2.763125763125763,1.34375,3.03125,0.0,1.7423687423687424,-2.0012210012210008,-3.346764346764347,1.0625,3.4375,0.0,2.6666666666666665,-2.686202686202686,-3.5946275946275947,0.625,3.46875,-0.65625,2.253968253968254,-2.7557997557997562,-2.888888888888889,0.0,3.5,-1.0,1.5457875457875458,-2.6483516483516483,-2.8986568986568986,0.0,3.90625,-1.46875,1.2271062271062272,-1.8217338217338217,-2.1086691086691087,0.0,4.6875,-2.3125,1.5897435897435896,-1.2967032967032968,-1.3308913308913308,1.1875,5.375,-3.34375,1.5299145299145298,-1.800976800976801,-1.5824175824175823,1.6875,5.71875,-4.0,1.5177045177045176,-2.094017094017094,-2.330891330891331,1.875,5.9375,-4.40625,1.647130647130647,-1.3076923076923077,-2.417582417582417,1.96875,6.03125,-4.65625,1.9096459096459095,0.0,-1.8547008547008548,2.15625,5.75,-4.78125,2.1746031746031744,2.267399267399268,0.0,2.5625,4.8125,-4.78125,2.4542124542124544,3.1135531135531136,-0.6666666666666666,2.625,4.21875,-4.65625,0.9731379731379732,4.21001221001221,-0.7179487179487181,2.625,3.75,-4.78125,0.0,-6.5054945054945055,-0.8107448107448108,2.90625,3.53125,-4.75,0.0,-8.428571428571429,-1.0268620268620268,3.125,3.34375,-4.375,0.0,-9.14041514041514,-1.2881562881562882,3.1875,2.90625,-4.0625,-1.343101343101343,-8.907203907203908,-1.9181929181929185,3.15625,2.375,-3.8125,-1.9902319902319905,-8.487179487179487,-2.0427350427350426,3.0625,1.875,-3.4375,-3.1355311355311355,-7.938949938949939,-2.192918192918193,3.15625,1.375,-3.0625,-3.6825396825396814,-8.321123321123322,-2.667887667887668,3.25,1.09375,-2.59375,-4.1001221001221,-8.247863247863247,-3.2698412698412698,3.0625,0.84375,-2.25,-4.708180708180708,-7.809523809523809,-3.761904761904762,2.6875,0.6875,-1.71875,-4.465201465201465,-7.163614163614165,-3.5592185592185586,2.0625,0.0,-1.375,-4.085470085470085,-6.377289377289378,-2.774114774114774,1.9375,0.0,-0.90625,-3.8351648351648353,-6.2857142857142865,-2.4432234432234434,1.71875,0.0,0.0,-2.2026862026862033,-6.184371184371184,-3.025641025641025,1.28125,-0.875,0.0,-2.6080586080586077,-7.130647130647131,-4.294261294261294,0.0,-1.625,0.0,-3.9291819291819285,-5.630036630036631,-3.3870573870573866,0.0,-0.625,0.0,-1.4590964590964588,-5.151404151404153,-1.5934065934065933,0.0,0.0,0.0,-0.5775335775335775,-4.355311355311355,0.0,0.0,0.0,0.0,0.0,-4.345543345543345,0.0,0.0,0.0,0.0,1.1526251526251523,-3.8424908424908426,0.0,0.0,0.0,0.0,0.8156288156288156,-4.0024420024420015,-0.7948717948717948,0.0,0.0,0.0,0.0,-4.087912087912088,-0.9572649572649572,0.0,0.0,0.0,-1.2258852258852257,-4.1037851037851025,0.0,0.0,0.0,0.0,-1.0329670329670328,-4.515262515262514,0.0,0.0,0.0,0.0,-0.9169719169719168,-5.147741147741148,-0.851037851037851,0.0,0.0,0.0,,,,,,,,,,,,,,,,,,,,,,,,,,,,,,,,,,,,,,,,,,,,,,,,,,,,,,,,,,,,,wp_back
accX,0.0,0.0,-2.249084249084249,1.21875,1.53125,0.0,1.6752136752136753,-1.020757020757021,-2.6764346764346763,1.375,2.5,0.0,2.5506715506715505,-2.374847374847375,-3.584859584859585,1.1875,3.1875,0.0,2.9890109890109886,-3.025641025641025,-3.4786324786324787,0.65625,3.625,0.0,3.1587301587301586,-2.565323565323565,-3.064713064713065,0.0,3.9375,-0.875,2.7777777777777777,-1.5873015873015872,-2.2295482295482296,0.0,4.65625,-1.78125,3.120879120879121,-1.78021978021978,-1.5177045177045176,0.75,5.53125,-2.8125,3.189255189255189,-2.4273504273504267,-1.7472527472527473,1.25,5.96875,-3.5,3.5836385836385842,-2.249084249084249,-2.1062271062271063,1.28125,6.21875,-4.0625,2.8827838827838828,-1.120879120879121,-1.7326007326007329,1.15625,6.0,-4.21875,2.716727716727717,0.0,-1.1794871794871795,1.25,5.59375,-4.21875,2.532356532356532,1.6422466422466422,-0.5054945054945055,1.59375,5.25,-4.28125,2.89010989010989,2.2063492063492065,0.0,2.125,4.59375,-4.5,2.490842490842491,3.836385836385837,0.0,2.3125,4.0625,-4.59375,0.5470085470085471,3.8107448107448105,-0.6349206349206349,2.59375,3.8125,-4.5,0.0,-3.389499389499389,-0.7838827838827839,2.8125,3.59375,-4.21875,0.9304029304029304,-7.174603174603175,-0.536019536019536,2.9375,3.1875,-4.03125,0.9181929181929182,-8.225885225885225,0.0,3.09375,2.40625,-3.8125,0.0,-8.781440781440782,-0.8888888888888888,3.25,1.65625,-3.53125,-1.3675213675213675,-9.34920634920635,-1.641025641025641,3.15625,1.25,-3.3125,-2.5286935286935286,-9.150183150183151,-2.2551892551892547,3.0625,1.15625,-3.0,-2.484737484737485,-8.816849816849818,-2.335775335775336,3.03125,1.09375,-2.75,-2.965811965811966,-8.659340659340659,-2.9010989010989015,2.90625,1.0,-2.4375,-3.062271062271062,-8.55067155067155,-3.4945054945054945,2.5,0.6875,-2.15625,-4.034188034188034,-7.695970695970696,-2.831501831501832,2.09375,0.0,-1.5625,-3.586080586080586,-6.728937728937728,-2.3321123321123323,2.03125,0.0,-1.28125,-2.814407814407814,-6.593406593406592,-2.0891330891330893,1.78125,0.0,-0.96875,-2.645909645909646,-5.575091575091576,-1.065934065934066,1.34375,0.0,-0.71875,-2.2576312576312576,-4.654456654456656,0.0,1.375,0.0,-0.53125,-1.2698412698412698,-6.476190476190476,-2.7533577533577533,1.21875,-1.03125,0.0,-3.9328449328449326,-6.584859584859585,-4.450549450549451,0.59375,-1.4375,0.0,-2.7643467643467643,-6.599511599511598,-4.465201465201465,0.0,0.0,0.0,-1.9474969474969477,-4.383394383394384,-0.9438339438339438,0.0,0.0,0.0,0.0,-4.322344322344321,0.0,0.0,0.0,0.0,1.1245421245421243,-3.9218559218559217,0.0,0.0,0.0,0.0,0.9523809523809524,-3.727716727716728,-0.5543345543345544,0.0,0.0,0.0,0.0,-3.609279609279609,0.0,0.0,0.0,0.0,-0.5384615384615384,-3.595848595848596,0.0,0.0,0.0,0.0,-0.7667887667887668,-4.04029304029304,0.0,0.0,0.0,0.0,-1.1672771672771671,-4.4554334554334565,-0.5543345543345544,0.0,0.0,0.0,,,,,,,,,,,,,,,,,,,,,,,,,,,,,,,,,,,,,,,,,,,,,,,,,,,,,,,wp_back
accX,1.2576312576312576,0.0,-2.772893772893773,0.75,1.15625,0.0,0.0,0.0,-3.4444444444444446,0.78125,2.34375,-0.53125,1.4713064713064714,0.0,-3.274725274725274,0.78125,3.0,0.0,2.051282051282051,-1.120879120879121,-3.6190476190476186,0.5625,3.3125,0.0,2.7484737484737485,-2.371184371184371,-4.0927960927960925,0.0,3.8125,-0.96875,2.4920634920634916,-2.467643467643468,-3.648351648351648,0.0,4.625,-1.75,3.0525030525030523,-1.4175824175824177,-2.128205128205128,0.6875,5.34375,-2.8125,3.41025641025641,-2.0244200244200243,-1.735042735042735,1.21875,5.65625,-3.6875,2.8913308913308917,-2.073260073260073,-2.092796092796093,1.53125,5.84375,-4.25,2.9938949938949935,-1.8571428571428568,-2.214896214896215,1.625,5.84375,-4.625,2.5873015873015874,-0.9181929181929182,-2.0183150183150182,1.53125,5.59375,-4.875,2.5677655677655684,1.7277167277167278,0.0,1.6875,4.84375,-4.78125,1.8742368742368745,2.555555555555556,0.0,1.96875,4.3125,-4.6875,0.7313797313797313,3.908424908424908,-0.568986568986569,2.09375,4.0625,-4.65625,0.557997557997558,5.920634920634921,0.0,2.15625,3.90625,-4.46875,0.5115995115995116,-0.6105006105006106,-0.5103785103785103,2.28125,3.46875,-4.21875,0.0,-6.863247863247862,0.0,2.59375,3.125,-4.09375,0.0,-8.525030525030527,0.0,3.1875,3.03125,-4.03125,-0.8962148962148963,-8.993894993894994,-1.0671550671550671,3.375,2.59375,-3.75,-2.2503052503052503,-8.89010989010989,-1.7374847374847375,3.25,2.09375,-3.4375,-2.888888888888889,-8.647130647130648,-2.0415140415140414,3.1875,1.8125,-3.0625,-3.601953601953602,-8.346764346764347,-2.2527472527472527,3.1875,1.46875,-2.75,-4.112332112332112,-8.478632478632479,-2.9890109890109886,3.0,1.25,-2.15625,-4.017094017094017,-8.507936507936508,-3.6007326007326013,2.5625,0.9375,-1.78125,-4.0415140415140405,-7.775335775335775,-3.766788766788767,2.1875,0.71875,-1.46875,-4.550671550671551,-6.836385836385835,-3.37973137973138,2.03125,0.78125,-1.125,-3.313797313797314,-6.494505494505495,-2.7643467643467643,1.90625,0.8125,-0.78125,-1.4822954822954824,-6.373626373626371,-2.2722832722832718,1.4375,0.0,0.0,0.0,-7.6691086691086685,-5.6630036630036615,0.5625,-1.375,0.0,-2.8998778998779,-6.3015873015873005,-5.61050061050061,0.0,-1.21875,0.0,-2.2503052503052503,-5.943833943833944,-3.7863247863247858,0.0,0.0,0.0,-0.7289377289377289,-4.297924297924298,0.0,0.65625,0.0,0.0,0.0,-3.873015873015873,1.1575091575091576,0.0,0.0,0.0,0.0,-4.140415140415141,0.0,0.0,-0.6875,0.0,0.0,-4.512820512820513,-1.6764346764346765,0.0,0.0,0.0,-1.7142857142857142,-4.27960927960928,-1.5421245421245422,0.0,0.0,0.0,-1.927960927960928,-4.433455433455434,-1.2735042735042734,0.0,0.0,0.0,-1.945054945054945,-4.797313797313797,-1.1123321123321124,0.0,0.0,0.0,-1.4822954822954824,-5.101343101343102,-1.2283272283272284,0.0,0.0,0.0,,,,,,,,,,,,,,,,,,,,,,,,,,,,,,,,,,,,,,,,,,,,,,,,,,,,,,,,,,,,,wp_back
accX,2.5982905982905984,0.0,-4.0647130647130645,0.78125,1.6875,-0.59375,2.527472527472528,-1.3516483516483515,-3.8009768009768017,0.5625,2.90625,-0.6875,2.4896214896214897,-1.4932844932844933,-3.586080586080586,0.0,3.1875,-0.625,2.8241758241758244,-1.7032967032967032,-3.467643467643468,0.0,3.25,-0.78125,1.94017094017094,-2.0842490842490844,-2.9426129426129437,0.0,3.34375,-1.03125,1.0732600732600732,-1.8534798534798536,-2.343101343101343,0.0,3.9375,-1.28125,1.442002442002442,-1.6312576312576312,-1.8547008547008548,0.0,4.90625,-1.84375,2.4615384615384617,-1.0415140415140416,-0.7509157509157509,0.6875,5.84375,-2.9375,3.415140415140415,-1.4566544566544566,-0.503052503052503,1.5,6.1875,-3.9375,3.675213675213675,-1.871794871794872,-1.1184371184371185,1.84375,5.8125,-4.59375,1.8754578754578757,-1.3113553113553114,-1.6324786324786325,1.8125,5.15625,-4.9375,0.0,0.5738705738705738,-1.4529914529914532,1.84375,5.03125,-4.96875,0.0,1.978021978021978,-1.0183150183150182,2.21875,5.25,-4.78125,1.352869352869353,3.1904761904761907,-0.8522588522588522,2.3125,4.71875,-4.65625,1.424908424908425,5.072039072039073,-0.6703296703296703,2.46875,3.90625,-4.5,0.9145299145299144,-5.261294261294262,-1.2222222222222223,2.625,3.34375,-4.375,0.0,-9.202686202686204,-0.6886446886446886,2.78125,3.09375,-4.1875,0.0,-9.6007326007326,0.0,3.0,2.8125,-3.96875,0.0,-9.241758241758241,-0.7179487179487181,3.25,2.34375,-3.75,-1.442002442002442,-9.35897435897436,-1.5018315018315018,3.25,1.90625,-3.34375,-1.9328449328449329,-9.203907203907203,-1.695970695970696,3.125,1.53125,-3.03125,-2.8583638583638584,-8.747252747252746,-2.1367521367521367,3.03125,1.3125,-2.6875,-2.9084249084249083,-8.478632478632479,-2.346764346764347,2.9375,1.1875,-2.46875,-3.095238095238096,-8.103785103785102,-2.7887667887667886,2.78125,1.09375,-2.25,-4.199023199023198,-7.185592185592187,-3.57997557997558,2.40625,0.6875,-1.65625,-4.152625152625153,-6.920634920634921,-3.4481074481074483,2.15625,0.0,-1.28125,-3.4444444444444446,-6.622710622710622,-2.85958485958486,1.90625,0.0,-0.9375,-3.072039072039072,-5.898656898656899,-2.21978021978022,1.625,0.0,-0.625,-1.4590964590964588,-6.741147741147741,-4.3247863247863245,1.25,-0.8125,0.0,-3.6251526251526247,-5.8962148962148975,-4.417582417582418,0.53125,-1.6875,0.0,-4.343101343101344,-5.608058608058609,-3.826617826617827,0.0,-0.84375,0.0,-2.52014652014652,-4.046398046398046,0.0,0.0,0.0,0.0,-0.5921855921855922,-3.7338217338217334,0.5506715506715507,0.53125,0.0,0.0,1.4786324786324787,-4.0647130647130645,0.0,0.0,0.0,0.0,1.31013431013431,-4.371184371184371,-1.6862026862026862,0.0,0.0,0.0,0.0,-4.288156288156288,-1.2808302808302807,0.0,0.0,0.0,-0.5152625152625152,-4.291819291819292,-0.7350427350427351,0.0,0.0,0.0,-1.3968253968253967,-4.125763125763126,-0.8376068376068376,0.0,0.0,0.0,-1.5067155067155067,-4.567765567765568,-1.1684981684981686,0.0,0.0,0.0,-1.4126984126984128,-4.835164835164835,-1.1892551892551892,-0.59375,0.0,0.0,,,,,,,,,,,,,,,,,,,,,,,,,,,,,,,,,,,,,,,,,,,,,,,,,,,,,,,wp_back
accX,1.326007326007326,0.7973137973137974,-2.4896214896214897,0.0,0.8125,0.0,0.6874236874236874,0.0,-2.3174603174603177,0.6875,1.40625,0.0,1.2185592185592184,-0.8302808302808303,-2.877899877899878,0.875,2.71875,0.0,2.0989010989010994,-1.9230769230769231,-3.1514041514041518,0.75,3.34375,-0.6875,2.9145299145299144,-2.94993894993895,-3.6166056166056166,0.53125,3.65625,-1.09375,3.068376068376069,-3.4236874236874235,-3.087912087912088,0.0,4.0,-1.78125,3.3772893772893773,-2.8205128205128207,-2.092796092796093,0.5625,4.5,-3.0,3.2649572649572653,-2.6153846153846154,-1.931623931623932,1.03125,4.9375,-4.1875,2.4053724053724053,-2.6971916971916974,-2.5177045177045176,1.4375,5.5,-4.90625,2.0769230769230766,-2.3553113553113554,-2.7606837606837606,1.59375,5.875,-5.15625,1.9072039072039075,-1.4810744810744811,-2.4481074481074483,1.59375,5.71875,-5.15625,1.608058608058608,-0.6166056166056166,-2.025641025641025,1.5,5.15625,-4.96875,1.2466422466422469,1.0305250305250304,-1.537240537240537,1.71875,4.6875,-4.96875,0.0,2.628815628815629,-1.0915750915750917,2.21875,4.625,-5.15625,0.0,4.38949938949939,0.0,2.46875,4.65625,-5.09375,0.0,-2.8302808302808304,-0.6678876678876678,2.4375,4.09375,-4.78125,0.0,-8.434676434676435,0.0,2.6875,3.53125,-4.5,-0.8315018315018315,-8.913308913308914,-0.5982905982905983,3.0,3.125,-4.25,-1.3455433455433456,-9.073260073260073,-1.123321123321123,3.125,2.65625,-3.875,-1.637362637362637,-8.987789987789988,-1.1807081807081807,3.09375,2.125,-3.53125,-2.78998778998779,-8.046398046398046,-1.4126984126984128,3.09375,1.625,-3.21875,-3.8534798534798536,-8.117216117216117,-2.0061050061050056,3.21875,1.40625,-2.84375,-3.555555555555556,-8.48962148962149,-2.8217338217338215,3.1875,1.125,-2.375,-4.322344322344321,-7.951159951159951,-3.433455433455433,2.75,0.5625,-1.96875,-4.277167277167277,-7.423687423687423,-3.0854700854700856,2.28125,0.0,-1.40625,-4.146520146520147,-6.829059829059829,-2.5689865689865687,2.0625,0.0,-0.875,-4.323565323565323,-6.496947496947497,-2.7704517704517704,1.875,-0.65625,-0.5625,-2.8424908424908426,-8.954822954822955,-7.423687423687423,0.8125,-2.03125,0.0,-7.039072039072039,-8.01953601953602,-8.345543345543346,0.0,-0.78125,0.0,-3.6996336996337003,-5.615384615384616,-2.9670329670329667,0.0,0.0,0.0,-2.6227106227106227,-2.8376068376068377,1.623931623931624,0.0,0.0,0.0,0.0,-2.652014652014652,2.5689865689865687,0.0,0.0,0.0,1.6593406593406594,-4.540903540903541,-1.8351648351648349,0.0,0.0,0.0,2.5103785103785103,-4.5628815628815635,-1.9731379731379728,0.0,0.0,0.0,0.9450549450549449,-4.0,-1.061050061050061,0.0,0.0,0.0,0.0,-3.9621489621489614,-0.6373626373626373,0.0,0.0,0.0,-1.6117216117216118,-4.031746031746032,-0.5787545787545788,0.0,0.0,0.0,-1.137973137973138,-5.205128205128204,-1.175824175824176,0.0,0.0,0.0,-0.9804639804639804,-5.492063492063493,-1.1684981684981686,0.0,0.0,0.0,,,,,,,,,,,,,,,,,,,,,,,,,,,,,,,,,,,,,,,,,,,,,,,,,,,,,,,,,,,,,wp_back
accX,2.84981684981685,0.0,-4.343101343101344,0.0,1.59375,0.0,1.7814407814407816,0.0,-4.716727716727717,0.0,2.28125,-0.53125,0.7264957264957265,-0.7741147741147741,-5.148962148962148,-0.59375,3.25,0.0,1.2673992673992671,-1.0757020757020757,-4.6361416361416365,-0.53125,4.0,-0.5625,1.8656898656898655,-1.0158730158730158,-3.5384615384615383,0.0,4.3125,-0.78125,1.2063492063492065,-1.326007326007326,-2.8205128205128207,0.0,5.0,-1.40625,3.586080586080586,-0.6581196581196581,0.0,1.21875,6.5,-2.25,4.423687423687424,-1.7081807081807079,0.0,2.1875,7.09375,-3.25,4.605616605616605,-1.7912087912087913,-0.5213675213675214,2.59375,7.03125,-3.96875,3.813186813186813,-1.2002442002442002,-0.8778998778998779,2.53125,6.46875,-4.375,2.4297924297924296,1.2161172161172158,-0.7081807081807082,2.3125,5.78125,-4.4375,1.5225885225885225,2.533577533577533,-0.7387057387057387,2.34375,5.3125,-4.34375,0.6422466422466423,5.343101343101343,0.0,2.46875,5.0625,-4.25,0.0,2.6581196581196584,-0.7753357753357754,2.90625,4.8125,-4.28125,0.0,-5.155067155067155,-1.0293040293040292,3.3125,4.28125,-4.09375,0.0,-7.561660561660561,-1.2918192918192921,3.46875,3.46875,-3.8125,0.0,-8.118437118437118,-1.3858363858363858,3.46875,2.71875,-3.65625,-2.010989010989011,-7.7887667887667895,-1.8498168498168501,3.5,1.8125,-3.15625,-2.1697191697191696,-8.361416361416362,-2.175824175824176,3.34375,1.25,-2.84375,-3.087912087912088,-8.4993894993895,-2.4444444444444446,3.15625,1.03125,-2.65625,-3.236874236874237,-8.317460317460318,-2.556776556776557,3.09375,0.96875,-2.34375,-3.4945054945054945,-8.086691086691086,-3.3015873015873014,2.84375,0.75,-2.03125,-3.323565323565324,-7.566544566544566,-2.9047619047619047,2.5625,0.0,-1.65625,-3.3076923076923075,-7.341880341880341,-2.8229548229548236,2.40625,0.0,-1.40625,-4.162393162393163,-6.958485958485959,-2.8864468864468864,2.15625,0.0,-1.03125,-4.172161172161172,-6.687423687423687,-2.7362637362637363,1.8125,0.0,-0.71875,-3.417582417582417,-6.4322344322344325,-2.3321123321123323,1.34375,0.0,-0.53125,-2.525030525030525,-5.7594627594627585,-2.1672771672771667,1.03125,-0.65625,0.0,-3.272283272283272,-5.859584859584858,-3.1843711843711837,0.78125,-0.9375,0.0,-2.9194139194139197,-4.6996336996337,-0.5201465201465202,0.71875,0.0,0.0,-1.6532356532356531,-4.571428571428571,0.0,0.59375,0.0,0.0,0.5396825396825397,-4.306471306471306,0.0,0.0,0.0,0.0,1.194139194139194,-4.621489621489621,-2.351648351648352,0.0,0.0,0.0,1.2967032967032968,-4.383394383394384,-1.702075702075702,0.0,0.0,0.0,0.514041514041514,-4.00976800976801,-0.7411477411477412,0.0,0.0,0.0,0.0,-3.9047619047619047,0.0,0.0,0.0,0.0,-0.8449328449328449,-4.4444444444444455,-0.7081807081807082,0.0,0.0,0.0,-0.9206349206349206,-4.99023199023199,-0.6642246642246642,0.0,0.0,0.0,-0.6800976800976801,-5.611721611721611,-0.7936507936507936,-0.5625,0.0,0.0,,,,,,,,,,,,,,,,,,,,,,,,,,,,,,,,,,,,,,,,,,,,,,,,,,,,,,,,,,,,,wp_back
accX,2.6971916971916974,-1.3247863247863247,-5.338217338217338,0.59375,1.375,0.0,2.0744810744810747,-1.1416361416361416,-4.504273504273504,0.65625,2.1875,-0.5625,2.0744810744810747,-1.21001221001221,-3.9230769230769234,0.78125,3.25,-0.84375,2.236874236874237,-1.9267399267399268,-3.931623931623931,0.71875,3.96875,-0.75,2.6788766788766787,-2.249084249084249,-3.601953601953602,0.0,4.34375,-0.90625,2.6385836385836385,-1.5323565323565325,-2.89010989010989,0.0,4.65625,-1.4375,3.1074481074481075,-1.5030525030525033,-2.070818070818071,0.65625,5.25,-2.375,3.225885225885226,-2.398046398046398,-2.0134310134310134,1.125,5.84375,-3.34375,2.93040293040293,-2.4004884004884004,-1.7631257631257633,1.28125,6.03125,-4.0,2.358974358974359,-1.122100122100122,-1.3076923076923077,1.4375,5.78125,-4.53125,1.7692307692307692,0.0,-0.9621489621489622,1.71875,5.375,-4.53125,1.2637362637362637,1.4835164835164836,-0.7838827838827839,2.125,5.0,-4.40625,0.0,3.0146520146520146,-0.5714285714285714,2.5625,5.03125,-4.53125,0.0,4.224664224664225,-0.9572649572649572,2.8125,5.25,-4.625,1.0158730158730158,3.2527472527472527,-0.9389499389499391,2.875,4.75,-4.53125,0.7631257631257631,-4.205128205128204,-0.7118437118437119,3.0,3.8125,-4.25,0.0,-6.9523809523809526,-0.7472527472527473,3.25,2.875,-3.9375,0.0,-8.805860805860807,-0.8778998778998779,3.21875,1.96875,-3.46875,-1.0537240537240538,-9.713064713064714,-1.1965811965811963,3.0625,1.53125,-3.34375,-2.2783882783882783,-9.13919413919414,-1.5592185592185592,3.03125,1.46875,-3.15625,-2.5396825396825395,-8.62026862026862,-1.565323565323565,3.0,1.3125,-2.59375,-2.9328449328449326,-8.17094017094017,-2.2588522588522593,2.78125,0.84375,-2.375,-3.1282051282051277,-7.912087912087912,-2.7032967032967035,2.625,0.5625,-2.0625,-4.246642246642247,-7.308913308913309,-2.9926739926739927,2.375,0.0,-1.75,-4.061050061050061,-7.173382173382174,-2.9645909645909647,2.15625,0.0,-1.4375,-3.3492063492063493,-6.774114774114773,-2.6312576312576312,1.96875,0.0,-1.21875,-3.2136752136752142,-6.2173382173382175,-2.555555555555556,1.75,0.0,-1.0,-3.571428571428572,-5.803418803418803,-2.435897435897436,1.5625,0.0,-0.75,-1.4053724053724053,-5.472527472527473,-2.5970695970695967,1.375,0.0,-0.625,-2.3211233211233213,-5.930402930402932,-2.6092796092796093,0.71875,-0.59375,0.0,-1.7081807081807079,-5.328449328449328,-1.051282051282051,0.0,-1.21875,0.0,-3.3809523809523814,-6.417582417582418,-4.191697191697192,0.0,-1.125,0.0,-1.072039072039072,-4.643467643467643,-1.4737484737484738,0.0,0.0,0.0,0.0,-4.166056166056166,0.0,0.0,0.0,0.0,0.0,-4.256410256410256,0.0,0.0,0.0,0.0,0.0,-4.150183150183151,0.0,0.0,0.0,0.0,0.0,-3.9829059829059825,0.0,0.0,0.0,0.0,0.0,-3.9621489621489614,0.0,0.0,0.0,0.0,0.0,-4.666666666666667,-0.6031746031746031,0.0,0.0,0.0,0.0,-4.94017094017094,-0.6886446886446886,0.0,0.0,0.0,,,,,,,,,,,,,,,,,,,,,,,,,,,,,,,,,,,,,,,,,,,,,,,,,,,,,,,wp_back
accX,0.5921855921855922,0.0,-3.391941391941392,0.53125,1.84375,0.0,0.0,0.6288156288156288,-3.087912087912088,0.5625,2.8125,0.0,1.1343101343101345,0.8437118437118437,-2.412698412698413,0.65625,3.3125,0.0,2.2466422466422467,0.0,-2.9194139194139197,0.625,3.4375,0.0,2.3369963369963367,-1.177045177045177,-3.36996336996337,0.0,3.84375,0.0,2.1123321123321124,-1.3663003663003663,-3.0170940170940175,0.0,4.5625,-0.78125,2.126984126984127,-1.1868131868131868,-2.2576312576312576,0.8125,5.46875,-1.53125,2.628815628815629,-1.0757020757020757,-1.8705738705738704,1.28125,6.03125,-2.21875,2.9987789987789983,-1.1562881562881564,-1.702075702075702,1.6875,6.03125,-2.6875,2.625152625152625,-1.2588522588522588,-1.9255189255189256,1.875,5.78125,-3.03125,2.0573870573870567,-0.6520146520146519,-2.1526251526251525,1.9375,5.59375,-3.21875,1.8730158730158732,0.6312576312576312,-2.017094017094017,2.25,5.15625,-3.5625,1.5018315018315018,2.9291819291819285,0.0,2.625,4.5625,-3.6875,0.9474969474969476,4.04029304029304,0.0,3.0625,4.1875,-3.625,0.5238095238095238,4.7997557997558,0.0,3.40625,3.96875,-3.4375,1.987789987789988,3.0293040293040288,-0.5494505494505495,3.625,4.125,-3.53125,2.36019536019536,-0.7094017094017094,0.0,3.59375,3.78125,-3.90625,0.7106227106227107,-3.980463980463981,-0.6349206349206349,3.71875,2.96875,-3.875,0.0,-6.091575091575091,-0.9597069597069596,3.75,2.3125,-3.53125,0.0,-7.438339438339439,-1.0793650793650793,3.78125,1.84375,-3.25,-0.8021978021978022,-7.992673992673992,-1.6349206349206349,3.75,1.28125,-2.9375,-1.9511599511599511,-8.61050061050061,-2.313797313797314,3.625,0.71875,-2.71875,-3.245421245421245,-8.2014652014652,-2.5457875457875456,3.375,0.53125,-2.46875,-3.42002442002442,-8.312576312576313,-2.8693528693528694,3.125,0.5625,-2.15625,-3.8217338217338215,-8.096459096459096,-3.498168498168498,2.78125,0.0,-1.8125,-4.142857142857143,-7.763125763125763,-3.9072039072039066,2.3125,0.0,-1.40625,-3.3162393162393164,-7.424908424908424,-3.1001221001221,1.90625,0.0,-1.0,-2.383394383394384,-7.001221001221001,-1.8266178266178263,1.625,-0.65625,-0.71875,-2.518925518925519,-6.1941391941391934,-1.0048840048840049,1.53125,-0.84375,-0.53125,-3.4505494505494507,-5.622710622710622,-0.8669108669108669,1.46875,0.0,-0.53125,-2.687423687423687,-6.247863247863247,-4.935286935286936,1.03125,-0.625,-0.59375,-5.113553113553113,-7.3638583638583635,-5.628815628815629,0.0,0.0,0.0,-2.216117216117216,-6.86080586080586,-3.648351648351648,0.0,0.0,0.0,-1.6507936507936507,-5.12942612942613,-1.0976800976800978,0.0,0.0,0.0,-1.0866910866910866,-4.322344322344321,0.0,0.0,0.0,0.0,0.0,-4.4041514041514045,-1.1404151404151404,0.0,0.0,0.0,0.0,-4.641025641025641,-1.2539682539682542,0.0,0.0,0.0,0.0,-4.736263736263736,-0.8253968253968254,0.0,0.0,0.0,-0.663003663003663,-5.017094017094017,-0.8608058608058609,0.0,0.0,0.0,-1.1355311355311355,-5.286935286935287,-0.9084249084249084,0.0,0.0,0.0,-1.757020757020757,-5.581196581196581,-1.4615384615384617,-0.5625,0.0,0.0,-2.498168498168498,-6.7203907203907205,-2.0097680097680097,-0.9375,0.0,0.75,,,,,,,,,,,,,,,,,,,,,,,,,,,,,,,,,,,,,,,,,,,wp_back
accX,1.6324786324786325,0.0,-2.5042735042735043,0.75,1.0,0.0,0.8778998778998779,-0.8351648351648352,-3.2246642246642248,0.6875,1.71875,0.0,0.0,-1.271062271062271,-3.7985347985347984,0.0,2.40625,0.0,0.8840048840048841,-1.6227106227106227,-3.9853479853479854,0.0,3.21875,0.0,1.376068376068376,-1.975579975579976,-3.664224664224663,0.0,3.84375,-0.59375,1.4493284493284493,-2.268620268620269,-2.844932844932845,0.0,4.1875,-0.875,1.028083028083028,-1.876678876678877,-2.184371184371184,0.0,4.8125,-1.3125,1.617826617826618,-1.8644688644688645,-1.7252747252747254,0.75,5.6875,-2.09375,1.7387057387057387,-1.4981684981684982,-1.4676434676434675,1.34375,6.46875,-3.03125,2.045177045177045,-1.4481074481074483,-1.3394383394383391,1.90625,6.8125,-3.78125,2.669108669108669,-0.8876678876678876,-1.5738705738705738,2.1875,6.6875,-4.21875,2.7863247863247858,0.0,-1.4945054945054943,2.46875,5.9375,-4.53125,1.9902319902319905,1.8290598290598292,-1.6874236874236874,2.5625,5.46875,-4.53125,1.4725274725274726,3.957264957264957,-1.380952380952381,2.84375,5.1875,-4.59375,0.8144078144078144,3.8107448107448105,-1.5006105006105006,3.125,5.1875,-4.5,1.2991452991452992,-2.380952380952381,-1.5457875457875458,3.40625,4.875,-4.46875,2.115995115995116,-6.203907203907204,-1.4236874236874235,3.46875,3.96875,-4.21875,2.075702075702076,-7.8962148962148975,-1.4566544566544566,3.5,2.75,-4.0,0.0,-8.494505494505495,-1.8376068376068373,3.5,1.6875,-3.6875,-1.4725274725274726,-8.743589743589743,-2.1709401709401708,3.46875,1.34375,-3.28125,-2.0207570207570207,-8.647130647130648,-2.31013431013431,3.40625,1.25,-3.09375,-2.3272283272283274,-8.692307692307693,-2.7399267399267404,3.3125,0.84375,-2.8125,-2.9609279609279615,-8.753357753357754,-2.783882783882784,2.8125,0.0,-2.1875,-4.488400488400488,-7.462759462759463,-2.8095238095238093,2.625,0.0,-1.8125,-4.945054945054945,-7.20879120879121,-2.7863247863247858,2.34375,0.0,-1.46875,-4.974358974358975,-6.935286935286936,-2.647130647130647,2.0,0.0,-1.09375,-4.3028083028083035,-6.445665445665447,-2.1086691086691087,1.625,0.0,-0.84375,-4.494505494505495,-5.3992673992674005,-0.9633699633699634,1.46875,0.0,-0.71875,-4.291819291819292,-4.963369963369964,0.0,1.59375,0.59375,-0.5625,0.0,-5.695970695970696,-2.873015873015873,1.5,0.875,0.0,-1.0451770451770452,-5.855921855921856,-4.667887667887668,0.0,-0.59375,0.0,-1.1843711843711844,-5.410256410256411,-3.772893772893773,0.0,-0.6875,0.0,0.0,-5.05006105006105,-2.13064713064713,0.0,0.0,0.0,1.1965811965811963,-4.148962148962149,0.0,0.0,0.0,0.0,2.072039072039072,-3.7338217338217334,0.0,0.0,0.0,0.0,0.6581196581196581,-3.715506715506716,-0.6324786324786325,0.0,-0.625,0.0,-0.956043956043956,-4.062271062271062,-0.9584859584859584,0.0,0.0,0.0,-1.6495726495726497,-4.246642246642247,-0.8278388278388278,0.0,0.0,0.0,-1.5494505494505495,-4.800976800976801,-0.9633699633699634,0.0,0.0,0.0,-1.4004884004884004,-5.1611721611721615,-1.0122100122100122,0.0,0.0,0.0,-1.6666666666666667,-5.586080586080586,-1.3846153846153846,-0.625,0.0,0.0,-1.4993894993894994,-5.188034188034189,-1.4383394383394383,-0.9375,0.0,0.625,,,,,,,,,,,,,,,,,,,,,,,,,,,,,,,,,,,,,,,,,,,wp_back
