,00_accX,00_accY,00_accZ,00_gyroX,00_gyroY,00_gyroZ,01_accX,01_accY,01_accZ,01_gyroX,01_gyroY,01_gyroZ,02_accX,02_accY,02_accZ,02_gyroX,02_gyroY,02_gyroZ,03_accX,03_accY,03_accZ,03_gyroX,03_gyroY,03_gyroZ,04_accX,04_accY,04_accZ,04_gyroX,04_gyroY,04_gyroZ,05_accX,05_accY,05_accZ,05_gyroX,05_gyroY,05_gyroZ,06_accX,06_accY,06_accZ,06_gyroX,06_gyroY,06_gyroZ,07_accX,07_accY,07_accZ,07_gyroX,07_gyroY,07_gyroZ,08_accX,08_accY,08_accZ,08_gyroX,08_gyroY,08_gyroZ,09_accX,09_accY,09_accZ,09_gyroX,09_gyroY,09_gyroZ,10_accX,10_accY,10_accZ,10_gyroX,10_gyroY,10_gyroZ,11_accX,11_accY,11_accZ,11_gyroX,11_gyroY,11_gyroZ,12_accX,12_accY,12_accZ,12_gyroX,12_gyroY,12_gyroZ,13_accX,13_accY,13_accZ,13_gyroX,13_gyroY,13_gyroZ,14_accX,14_accY,14_accZ,14_gyroX,14_gyroY,14_gyroZ,15_accX,15_accY,15_accZ,15_gyroX,15_gyroY,15_gyroZ,16_accX,16_accY,16_accZ,16_gyroX,16_gyroY,16_gyroZ,17_accX,17_accY,17_accZ,17_gyroX,17_gyroY,17_gyroZ,18_accX,18_accY,18_accZ,18_gyroX,18_gyroY,18_gyroZ,19_accX,19_accY,19_accZ,19_gyroX,19_gyroY,19_gyroZ,20_accX,20_accY,20_accZ,20_gyroX,20_gyroY,20_gyroZ,21_accX,21_accY,21_accZ,21_gyroX,21_gyroY,21_gyroZ,22_accX,22_accY,22_accZ,22_gyroX,22_gyroY,22_gyroZ,23_accX,23_accY,23_accZ,23_gyroX,23_gyroY,23_gyroZ,24_accX,24_accY,24_accZ,24_gyroX,24_gyroY,24_gyroZ,25_accX,25_accY,25_accZ,25_gyroX,25_gyroY,25_gyroZ,26_accX,26_accY,26_accZ,26_gyroX,26_gyroY,26_gyroZ,27_accX,27_accY,27_accZ,27_gyroX,27_gyroY,27_gyroZ,28_accX,28_accY,28_accZ,28_gyroX,28_gyroY,28_gyroZ,29_accX,29_accY,29_accZ,29_gyroX,29_gyroY,29_gyroZ,30_accX,30_accY,30_accZ,30_gyroX,30_gyroY,30_gyroZ,31_accX,31_accY,31_accZ,31_gyroX,31_gyroY,31_gyroZ,32_accX,32_accY,32_accZ,32_gyroX,32_gyroY,32_gyroZ,33_accX,33_accY,33_accZ,33_gyroX,33_gyroY,33_gyroZ,34_accX,34_accY,34_accZ,34_gyroX,34_gyroY,34_gyroZ,35_accX,35_accY,35_accZ,35_gyroX,35_gyroY,35_gyroZ,36_accX,36_accY,36_accZ,36_gyroX,36_gyroY,36_gyroZ,37_accX,37_accY,37_accZ,37_gyroX,37_gyroY,37_gyroZ,38_accX,38_accY,38_accZ,38_gyroX,38_gyroY,38_gyroZ,39_accX,39_accY,39_accZ,39_gyroX,39_gyroY,39_gyroZ,40_accX,40_accY,40_accZ,40_gyroX,40_gyroY,40_gyroZ,41_accX,41_accY,41_accZ,41_gyroX,41_gyroY,41_gyroZ,42_accX,42_accY,42_accZ,42_gyroX,42_gyroY,42_gyroZ,43_accX,43_accY,43_accZ,43_gyroX,43_gyroY,43_gyroZ,44_accX,44_accY,44_accZ,44_gyroX,44_gyroY,44_gyroZ,45_accX,45_accY,45_accZ,45_gyroX,45_gyroY,45_gyroZ,46_accX,46_accY,46_accZ,46_gyroX,46_gyroY,46_gyroZ,47_accX,47_accY,47_accZ,47_gyroX,47_gyroY,47_gyroZ,category
accX,-1.1978021978021978,-4.542124542124542,-2.330891330891331,0.0,-1.6875,0.0,-3.393162393162393,-4.631257631257632,-2.440781440781441,0.0,-2.75,0.0,-4.163614163614163,-5.318681318681318,-2.1575091575091574,-1.0,-3.5625,0.8125,-4.521367521367521,-5.87912087912088,-1.2222222222222223,-1.21875,-4.1875,1.1875,-5.216117216117215,-6.481074481074481,0.0,-1.3125,-4.90625,1.59375,-6.141636141636143,-6.835164835164836,0.5787545787545788,-1.4375,-5.5625,2.1875,-6.333333333333332,-6.841269841269841,1.1733821733821734,-1.46875,-5.8125,2.71875,-5.8840048840048835,-6.072039072039073,1.9047619047619049,-1.40625,-5.8125,3.09375,-4.572649572649572,-5.2393162393162385,2.4945054945054945,-1.09375,-5.84375,3.3125,-4.2576312576312585,-4.054945054945056,2.9035409035409034,-0.6875,-6.0625,3.8125,-1.0573870573870574,-4.203907203907204,2.559218559218559,0.0,-5.78125,4.0,1.5738705738705738,-4.5054945054945055,2.148962148962149,0.0,-5.78125,2.78125,1.7264957264957266,-3.0170940170940175,2.1880341880341883,0.0,-6.25,2.3125,2.2600732600732596,-2.274725274725274,2.474969474969475,0.0,-7.0,2.125,1.6263736263736264,-1.21001221001221,1.9072039072039075,0.0,-6.96875,1.9375,1.413919413919414,-1.9694749694749696,0.0,0.8125,-6.0,1.46875,0.0,-1.6703296703296704,-1.3736263736263736,0.75,-5.03125,1.28125,-0.7728937728937729,-1.0891330891330893,-1.4529914529914532,0.78125,-4.21875,1.3125,-1.4261294261294262,0.0,-1.126984126984127,1.15625,-3.3125,1.46875,-1.264957264957265,0.0,-3.655677655677656,1.875,-1.90625,1.84375,1.9694749694749696,-2.3174603174603177,-5.653235653235654,1.71875,-1.125,1.96875,3.7240537240537237,-2.4053724053724053,-4.9755799755799766,1.0625,-1.375,1.46875,1.8351648351648349,-1.1746031746031746,-3.272283272283272,0.65625,-1.5625,1.21875,0.0,0.0,-1.3553113553113554,0.84375,-1.125,1.375,0.0,0.0,-1.1025641025641026,1.09375,-1.0625,1.5625,0.6288156288156288,-0.7264957264957265,-1.4505494505494505,1.3125,-1.03125,1.53125,0.7912087912087912,-1.2808302808302807,-1.9658119658119655,1.21875,-0.71875,1.34375,1.4456654456654456,-0.9169719169719168,-1.7838827838827842,1.0625,0.0,1.28125,1.5189255189255189,-0.7496947496947497,-2.083028083028083,1.15625,0.0,1.1875,2.4053724053724053,-1.1135531135531136,-2.7326007326007327,1.1875,0.0,1.03125,2.1184371184371185,-1.4029304029304028,-3.323565323565324,1.03125,0.0,0.8125,0.7374847374847375,-0.8888888888888888,-3.227106227106227,0.71875,0.0,0.59375,1.094017094017094,-0.5445665445665445,-2.7924297924297923,0.5625,0.0,0.59375,1.2918192918192921,0.0,-2.326007326007326,0.53125,0.0,0.5625,0.8864468864468864,0.0,-2.36019536019536,0.0,0.0,0.0,0.7814407814407814,-0.5726495726495726,-2.413919413919414,0.0,0.0,0.0,0.9597069597069596,0.0,-2.0488400488400487,0.0,0.0,0.0,0.7619047619047619,0.0,-1.5787545787545787,0.0,0.0,0.0,0.0,0.0,-1.0744810744810744,0.0,0.0,0.0,0.0,0.0,-1.0231990231990231,0.0,0.0,0.0,0.0,0.0,-1.2246642246642248,0.0,0.0,0.0,0.0,-0.6788766788766789,-1.7557997557997558,-0.75,0.0,0.0,,,,,,,,,,,,,,,,,,,,,,,,,,,,,,,,,,,,,wp_backR
accX,-1.3345543345543345,-3.62026862026862,-0.5274725274725275,-0.59375,-4.28125,0.71875,-3.4993894993894994,-4.3699633699633695,-1.3687423687423688,-1.03125,-5.75,1.40625,-4.282051282051282,-5.6190476190476195,-0.7362637362637363,-1.5,-6.84375,1.90625,-6.235653235653236,-6.026862026862028,0.0,-1.59375,-7.09375,2.28125,-7.855921855921855,-6.550671550671551,0.6642246642246642,-1.21875,-5.375,2.71875,-5.0256410256410255,-8.958485958485959,-0.8754578754578755,-1.28125,-3.90625,3.125,-2.5531135531135534,-8.92918192918193,0.0,-1.4375,-3.34375,3.21875,0.912087912087912,-7.079365079365079,0.7582417582417582,-1.5625,-3.875,3.21875,0.0,-4.388278388278389,2.0268620268620268,-1.34375,-5.625,3.03125,-2.9975579975579976,-2.642246642246642,1.3272283272283272,-0.875,-6.5625,2.90625,-2.9938949938949935,-3.357753357753358,-0.57997557997558,-0.84375,-5.53125,3.40625,0.6849816849816851,-2.954822954822955,0.0,-1.25,-4.71875,3.4375,3.829059829059829,-1.8644688644688645,2.086691086691087,-1.71875,-5.875,2.8125,0.0,0.0,2.656898656898657,-1.5,-7.3125,2.125,-1.1306471306471306,-0.6105006105006106,1.3601953601953602,-0.625,-6.71875,1.6875,-0.6239316239316239,-1.7423687423687424,0.0,0.0,-5.78125,1.40625,0.0,-1.673992673992674,0.0,0.0,-5.03125,0.8125,0.0,-1.641025641025641,-3.0525030525030523,0.78125,-3.625,0.84375,1.514041514041514,-1.0427350427350428,-4.829059829059829,1.28125,-2.5625,0.9375,3.94993894993895,-1.7924297924297925,-4.9462759462759465,1.21875,-2.84375,0.59375,1.843711843711844,-1.884004884004884,-4.554334554334553,0.8125,-3.21875,0.0,-1.5811965811965811,0.0,-3.7863247863247858,0.6875,-2.375,0.0,-1.8205128205128205,0.7252747252747253,-3.5738705738705736,1.125,-1.03125,0.90625,1.8632478632478635,0.0,-3.0170940170940175,1.3125,-0.84375,0.9375,2.8192918192918195,-0.9487179487179488,-2.8229548229548236,1.03125,-1.59375,0.59375,0.0,-0.7948717948717948,-2.7826617826617825,0.625,-1.5,0.0,-1.177045177045177,0.0,-1.7985347985347986,0.5625,-0.9375,0.0,-0.6898656898656899,0.8266178266178266,-0.7985347985347986,0.78125,-0.6875,0.71875,0.0,0.0,0.0,1.03125,-0.71875,0.71875,0.0,0.0,-1.1733821733821734,1.1875,0.0,0.71875,0.6703296703296703,-0.7020757020757019,-1.9304029304029304,1.09375,0.0,0.6875,1.123321123321123,-0.5787545787545788,-2.3626373626373627,0.875,0.0,0.53125,1.0036630036630036,0.0,-2.525030525030525,0.75,0.0,0.0,1.0818070818070815,0.0,-2.7594627594627594,0.75,0.0,0.0,0.0,-0.5970695970695971,-3.102564102564102,0.5625,0.0,0.0,0.5274725274725275,0.0,-2.8998778998779,0.0,0.0,0.0,0.8034188034188035,0.0,-2.3382173382173383,0.0,0.0,0.0,0.0,0.0,-1.8083028083028083,0.0,0.0,0.0,0.0,0.0,-1.702075702075702,0.0,0.0,0.0,-0.5152625152625152,0.0,-1.8315018315018317,0.0,0.96875,0.0,,,,,,,,,,,,,,,,,,,,,,,,,,,,,,,,,,,,,,,,,,,,,,,,,wp_backR
accX,-1.4554334554334554,-4.56043956043956,-1.8498168498168501,-0.8125,-2.625,0.59375,-3.731379731379731,-4.402930402930403,-2.3015873015873014,-1.0625,-3.5,1.125,-3.952380952380953,-5.247863247863248,-1.4053724053724053,-1.0625,-4.375,1.6875,-4.816849816849817,-6.752136752136753,-0.5164835164835165,-1.25,-5.03125,2.09375,-4.710622710622711,-8.206349206349206,0.0,-1.90625,-5.53125,2.5,-3.6141636141636138,-8.223443223443223,1.2075702075702075,-2.46875,-6.125,2.875,-1.8803418803418803,-6.152625152625152,2.971916971916972,-2.59375,-7.15625,3.125,0.0,-3.7338217338217334,4.741147741147741,-2.375,-8.53125,3.0625,0.0,-1.800976800976801,6.258852258852259,-1.75,-9.53125,2.78125,-0.9206349206349206,-1.3418803418803418,5.8437118437118425,-1.0,-9.53125,2.6875,-1.84004884004884,-0.6312576312576312,3.88034188034188,0.0,-8.125,2.5625,-1.8315018315018317,-0.9511599511599512,1.123321123321123,0.96875,-5.78125,2.1875,1.332112332112332,-3.2857142857142856,-1.608058608058608,0.59375,-3.625,1.90625,1.2698412698412698,-2.0989010989010994,0.0,0.0,-4.09375,1.59375,-1.8644688644688645,0.0,0.9169719169719168,0.0,-4.53125,1.3125,-1.7887667887667889,0.0,-0.5738705738705738,0.0,-3.53125,1.34375,1.3858363858363858,-2.1367521367521367,-2.595848595848596,1.03125,-2.34375,1.5,2.437118437118437,-2.5347985347985347,-3.2967032967032965,0.8125,-1.9375,1.375,1.8534798534798536,-1.4700854700854702,-2.091575091575092,0.0,-2.0,1.25,0.0,0.0,0.0,0.0,-1.90625,1.09375,-0.73992673992674,0.0,0.9047619047619048,0.0,-1.59375,1.15625,0.0,0.0,0.0,0.9375,-1.1875,1.25,0.8815628815628815,-0.8302808302808303,-1.4102564102564104,1.46875,-1.03125,1.28125,0.9792429792429792,-1.094017094017094,-1.967032967032967,1.53125,-1.125,1.3125,1.115995115995116,-1.4700854700854702,-2.0695970695970702,1.28125,-1.1875,1.15625,1.006105006105006,-1.1306471306471306,-2.611721611721612,1.09375,-1.125,1.0,0.0,-0.5067155067155067,-2.5677655677655684,1.15625,-0.78125,1.0625,0.9218559218559218,-0.8131868131868132,-2.283272283272283,1.1875,-0.71875,1.15625,1.623931623931624,-1.0402930402930404,-2.225885225885226,1.03125,-0.96875,1.0,1.5775335775335777,-0.9194139194139194,-2.247863247863248,0.90625,-1.1875,0.6875,0.7887667887667887,0.0,-2.323565323565324,0.84375,-1.03125,0.53125,0.7924297924297924,0.0,-2.31990231990232,0.90625,-0.84375,0.59375,1.4004884004884004,0.0,-2.3626373626373627,0.90625,-0.90625,0.59375,1.1831501831501832,0.0,-2.4273504273504267,0.90625,-0.875,0.0,0.0,0.0,-2.8522588522588523,0.84375,-0.53125,0.0,1.2442002442002442,0.0,-3.312576312576313,0.0,0.0,0.0,0.7264957264957265,0.0,-3.3296703296703303,0.0,0.0,0.0,0.6581196581196581,0.0,-3.3064713064713063,0.0,0.0,0.0,0.7045177045177046,0.0,-2.783882783882784,0.0,0.0,0.0,0.0,0.0,-2.3565323565323566,0.0,0.0,0.0,0.0,0.0,-2.1819291819291817,-0.65625,0.71875,0.0,,,,,,,,,,,,,,,,,,,,,,,,,,,,,,,,,,,,,,,,,,,wp_backR
accX,0.0,-4.599511599511598,0.0,0.0,-0.59375,0.0,-2.103785103785104,-4.356532356532357,-0.7460317460317459,0.0,-1.125,0.0,-3.371184371184371,-4.603174603174604,-1.7326007326007329,0.0,-1.4375,0.0,-4.7484737484737485,-5.606837606837607,-2.7228327228327234,0.0,-2.0,1.0,-5.3015873015873005,-6.8058608058608066,-2.8571428571428568,-1.0,-2.96875,1.59375,-6.114774114774113,-6.9242979242979255,-1.586080586080586,-1.78125,-4.1875,1.96875,-6.904761904761906,-6.6691086691086685,0.0,-2.03125,-5.625,2.6875,-7.496947496947497,-6.188034188034187,1.6605616605616609,-1.65625,-5.84375,3.09375,-6.960927960927961,-5.542124542124542,2.23931623931624,-1.28125,-5.84375,3.53125,-5.853479853479853,-4.694749694749695,2.9426129426129437,-0.75,-5.875,3.6875,-4.083028083028083,-4.252747252747253,2.9572649572649574,0.0,-6.03125,3.90625,-2.4065934065934065,-4.058608058608058,2.4432234432234434,0.0,-5.6875,3.8125,0.0,-4.1440781440781445,1.4029304029304028,0.0,-5.0,3.28125,1.4078144078144081,-4.315018315018315,0.0,0.0,-4.5625,2.75,2.6385836385836385,-3.571428571428572,0.0,0.0,-4.90625,2.34375,2.021978021978022,-2.3284493284493286,0.0,0.0,-4.53125,2.28125,2.2722832722832718,-1.4969474969474967,-1.8901098901098898,0.71875,-3.40625,2.21875,4.658119658119658,-2.2967032967032965,-2.484737484737485,0.9375,-3.40625,1.5625,-0.8754578754578755,-1.8351648351648349,-2.305250305250305,0.90625,-4.40625,0.96875,-2.481074481074481,-1.6544566544566544,-3.6031746031746033,1.03125,-2.84375,0.96875,1.8571428571428568,-2.0769230769230766,-3.9536019536019538,0.96875,-1.625,1.28125,2.2576312576312576,-1.238095238095238,-2.642246642246642,0.71875,-2.34375,1.34375,0.0,0.0,-1.4224664224664223,0.78125,-2.90625,1.0625,-1.8327228327228329,0.0,-1.2368742368742371,1.25,-2.5,1.03125,-1.3858363858363858,-1.264957264957265,-1.6202686202686205,1.53125,-1.8125,1.21875,0.0,-1.4786324786324787,-1.9023199023199024,1.375,-1.40625,1.1875,0.8241758241758241,-1.4371184371184371,-2.225885225885226,1.15625,-1.375,1.0625,0.6862026862026862,0.0,-2.2124542124542126,1.125,-1.59375,1.03125,0.9072039072039072,-0.9474969474969476,-3.361416361416361,1.4375,-1.40625,0.9375,1.0854700854700854,-1.968253968253968,-4.833943833943834,1.15625,-0.9375,0.8125,1.0976800976800978,-1.6752136752136753,-5.181929181929182,0.65625,-0.5625,0.625,1.3992673992673992,-0.5702075702075702,-4.305250305250305,0.0,0.0,0.53125,1.0,0.0,-3.3968253968253967,0.0,0.0,0.0,1.1672771672771671,0.0,-2.8229548229548236,0.0,0.0,0.0,1.321123321123321,0.0,-2.481074481074481,0.0,0.0,0.0,0.8864468864468864,0.0,-1.989010989010989,0.0,0.0,0.0,0.5543345543345544,0.0,-1.6581196581196582,0.0,0.0,0.0,0.0,0.0,-1.4432234432234432,0.0,0.0,0.0,0.0,0.0,-1.5873015873015872,0.0,0.0,0.0,0.0,0.0,-1.6703296703296704,0.0,0.0,0.0,0.0,-0.518925518925519,-2.323565323565324,0.0,0.625,0.0,,,,,,,,,,,,,,,,,,,,,,,,,,,,,,,,,,,,,,,,,,,wp_backR
accX,-1.7106227106227103,-5.235653235653237,-1.4163614163614164,0.0,0.0,0.0,-2.8705738705738706,-5.465201465201465,-1.4273504273504274,0.0,-0.84375,0.59375,-4.1611721611721615,-5.2295482295482305,-1.1782661782661783,0.0,-1.53125,0.78125,-6.371184371184371,-5.349206349206349,-1.1892551892551892,0.0,-2.125,1.0625,-7.873015873015873,-5.7094017094017095,-0.9511599511599512,0.0,-2.3125,1.5,-7.12942612942613,-6.454212454212454,0.0,-0.6875,-2.53125,1.9375,-7.15995115995116,-6.014652014652015,1.2722832722832722,-0.875,-3.53125,2.46875,-8.061050061050059,-5.278388278388278,2.5177045177045176,-0.71875,-4.3125,3.0625,-8.344322344322345,-4.465201465201465,2.927960927960928,0.0,-4.0625,3.71875,-4.836385836385836,-5.875457875457876,2.483516483516484,0.0,-3.125,4.0625,0.9743589743589745,-6.571428571428571,2.4737484737484743,0.0,-4.40625,3.65625,1.876678876678877,-3.9462759462759465,3.5946275946275947,0.0,-6.59375,3.59375,0.0,-2.376068376068376,2.752136752136752,0.0,-6.34375,3.3125,-2.5225885225885225,-2.533577533577533,0.0,0.53125,-3.8125,2.90625,1.1672771672771671,-4.4212454212454215,-1.9084249084249083,0.0,-2.3125,2.65625,6.102564102564102,-4.394383394383396,-0.9059829059829059,-1.28125,-4.0625,2.40625,3.391941391941392,0.0,1.2002442002442002,-0.875,-5.375,1.6875,-1.123321123321123,2.559218559218559,-0.5824175824175825,1.03125,-3.71875,1.75,0.0,-1.1245421245421243,-4.201465201465202,1.71875,-1.71875,2.09375,7.727716727716727,-3.764346764346764,-5.158730158730159,0.6875,-2.78125,1.46875,3.945054945054945,-1.4236874236874235,-3.4236874236874235,0.0,-3.96875,0.65625,-1.4212454212454213,2.0659340659340657,-1.7533577533577531,1.03125,-3.0,0.90625,0.0,-0.7997557997557998,-1.6385836385836383,1.8125,-1.09375,1.71875,2.627594627594628,-2.1086691086691087,-2.43956043956044,1.75,-1.5,1.5,0.0,-1.2515262515262515,-3.0476190476190474,1.28125,-2.0625,1.0,-1.4700854700854702,0.0,-2.4590964590964592,1.1875,-1.4375,0.90625,0.0,-0.8046398046398047,-2.5482295482295485,1.53125,-0.6875,1.0625,2.3369963369963367,-2.1147741147741153,-3.5457875457875456,1.46875,-0.84375,1.0,1.9328449328449329,-1.413919413919414,-3.9890109890109886,0.96875,-1.375,0.65625,0.5726495726495726,-0.6691086691086691,-4.365079365079366,0.6875,-1.25,0.0,0.7973137973137974,0.0,-4.405372405372407,0.65625,-0.71875,0.53125,1.6153846153846154,-0.5018315018315018,-4.3589743589743595,0.53125,0.0,0.53125,1.271062271062271,-0.6654456654456654,-4.362637362637362,0.0,0.0,0.0,1.5995115995115996,0.0,-3.669108669108669,0.0,0.0,0.0,1.6349206349206349,0.0,-2.774114774114774,0.0,0.0,0.0,0.6800976800976801,0.0,-2.148962148962149,0.0,0.0,0.0,0.0,0.5201465201465202,-1.8339438339438336,0.0,0.0,0.0,-0.6153846153846154,0.0,-1.5543345543345544,0.0,0.0,0.0,-0.8168498168498168,0.0,-1.1794871794871795,0.0,0.65625,0.0,0.0,0.0,-0.7936507936507936,0.0,0.65625,0.0,0.0,0.0,0.0,0.0,0.625,0.0,0.0,0.0,0.0,0.0,0.75,0.0,0.0,0.0,-0.7887667887667887,0.0,0.875,0.0,,,,,,,,,,,,,,,,,,,,,,,,,,,,,,,wp_backR
accX,-1.2026862026862026,-4.9291819291819285,0.0,0.0,-2.28125,0.53125,-3.667887667887668,-4.746031746031746,0.0,-0.6875,-2.53125,1.0625,-3.6166056166056166,-5.21978021978022,-0.6105006105006106,-0.8125,-2.6875,1.28125,-4.09035409035409,-5.650793650793651,-0.8522588522588522,-1.0,-3.21875,1.375,-4.424908424908424,-5.913308913308914,0.0,-1.25,-4.15625,1.71875,-6.871794871794871,-5.188034188034189,0.0,-1.15625,-4.34375,2.15625,-7.293040293040294,-5.295482295482295,0.0,-1.0625,-3.5625,2.75,-3.1746031746031744,-6.042735042735043,1.4285714285714286,-1.21875,-3.8125,3.0,-1.967032967032967,-4.4493284493284495,3.3943833943833943,-1.125,-5.15625,3.09375,-2.7997557997558,-2.642246642246642,4.476190476190476,-0.5625,-6.5,3.09375,-3.0781440781440783,-3.764346764346764,2.5665445665445668,0.0,-6.28125,3.125,-1.3724053724053724,-3.532356532356532,0.8864468864468864,0.0,-4.71875,2.8125,0.9169719169719168,-3.2979242979242978,0.6923076923076923,0.0,-3.8125,2.5625,3.4456654456654463,-3.144078144078144,1.277167277167277,0.0,-4.0625,2.09375,1.5286935286935286,-1.137973137973138,2.4871794871794872,0.0,-5.15625,1.59375,-0.8412698412698413,-1.15995115995116,1.0781440781440779,0.875,-4.96875,1.40625,-0.9694749694749696,-2.1074481074481075,-1.2503052503052503,1.25,-3.59375,1.1875,1.7875457875457876,-2.973137973137973,-2.7240537240537246,1.0625,-2.4375,1.125,3.411477411477412,-2.3321123321123323,-1.68009768009768,0.0,-3.34375,0.9375,1.0158730158730158,0.0,0.0,0.78125,-3.5,0.625,0.0,0.0,-1.26007326007326,1.46875,-2.8125,0.0,0.0,-1.3748473748473748,-3.492063492063492,1.59375,-2.0625,0.0,0.6166056166056166,-2.23931623931624,-4.9865689865689875,1.0625,-1.59375,0.59375,1.3357753357753357,-1.5909645909645909,-4.498168498168498,0.0,-1.6875,0.71875,1.3894993894993894,0.0,-2.5665445665445668,0.0,-1.78125,0.625,0.0,1.3565323565323566,-1.286935286935287,1.25,-1.71875,0.65625,0.0,0.0,-1.6654456654456655,1.6875,-1.59375,0.75,0.0,-1.956043956043956,-3.5091575091575087,1.21875,-1.125,0.0,0.0,0.0,-3.4346764346764345,0.875,-0.8125,0.0,0.6617826617826618,0.0,-2.8827838827838828,1.03125,-0.78125,0.53125,1.2368742368742371,-0.8058608058608059,-3.283272283272283,1.25,-0.84375,0.0,0.6373626373626373,-1.0146520146520146,-3.903540903540904,0.96875,-0.8125,0.0,0.0,0.0,-3.827838827838828,0.59375,0.0,0.0,0.0,0.0,-3.3907203907203907,0.0,0.0,0.0,0.6239316239316239,0.0,-2.935286935286935,0.0,0.0,0.0,0.8376068376068376,0.0,-2.5702075702075704,0.0,0.0,0.0,0.6752136752136753,0.0,-2.1086691086691087,0.0,0.0,0.0,0.0,0.0,-1.7435897435897436,0.0,0.0,0.0,0.0,0.0,-1.2918192918192921,0.0,0.0,0.0,0.0,0.0,-1.1184371184371185,0.0,0.53125,0.0,0.7411477411477412,-0.6349206349206349,-1.52014652014652,0.0,0.0,0.0,,,,,,,,,,,,,,,,,,,,,,,,,,,,,,,,,,,,,,,,,,,wp_backR
accX,0.0,-4.472527472527473,-0.6788766788766789,0.0,-1.34375,0.0,-2.601953601953602,-4.637362637362638,-1.3504273504273503,0.0,-2.40625,0.0,-5.777777777777778,-5.163614163614164,-2.8302808302808304,0.0,-2.90625,0.5625,-6.455433455433456,-6.0708180708180715,-2.9413919413919416,-0.59375,-2.78125,1.1875,-5.271062271062272,-6.78021978021978,-1.6556776556776556,-1.0625,-2.84375,1.6875,-4.020757020757022,-7.406593406593408,0.0,-1.21875,-3.5625,1.9375,-3.7374847374847375,-7.499389499389499,0.7277167277167277,-1.34375,-4.46875,2.3125,-3.431013431013431,-6.9010989010989015,2.0427350427350426,-1.3125,-5.25,2.65625,-2.244200244200244,-5.859584859584858,3.0061050061050065,-1.0625,-5.96875,2.8125,-0.8168498168498168,-4.599511599511598,3.5995115995116,-1.0,-6.84375,2.6875,-1.5128205128205128,-2.887667887667888,3.6666666666666665,-0.71875,-7.125,2.625,-2.7887667887667886,-1.52014652014652,2.67032967032967,0.0,-5.96875,2.625,-2.1636141636141635,-1.4700854700854702,0.7289377289377289,0.0,-3.90625,2.46875,1.8473748473748477,-2.6849816849816848,0.0,0.0,-3.125,2.03125,5.577533577533577,-2.3846153846153846,1.1465201465201464,0.0,-5.0625,1.59375,3.8156288156288163,-0.6434676434676435,2.7484737484737485,0.0,-6.71875,1.03125,-2.958485958485958,0.0,-1.7594627594627594,1.09375,-4.3125,1.0625,2.1770451770451764,-2.2246642246642248,-2.4432234432234434,1.34375,-2.28125,1.15625,2.484737484737485,-1.8144078144078144,-1.0952380952380951,0.625,-2.875,0.90625,0.0,0.0,0.0,0.0,-3.53125,0.6875,-1.321123321123321,1.0622710622710625,0.0,1.0,-3.0,0.875,0.9804639804639804,-1.0854700854700854,-1.0,1.8125,-2.09375,0.875,2.52014652014652,-2.189255189255189,-2.687423687423687,1.84375,-2.0,0.0,0.0,-0.9438339438339438,-2.879120879120879,1.28125,-2.34375,0.0,-1.938949938949939,0.0,-1.9072039072039075,1.03125,-1.90625,0.0,-1.043956043956044,0.6214896214896215,-0.5042735042735043,1.375,-1.28125,0.6875,0.5225885225885226,0.0,0.0,1.78125,-1.53125,0.8125,0.0,-1.5103785103785103,-1.3772893772893773,1.75,-1.71875,0.5625,-1.083028083028083,-0.9963369963369964,-2.061050061050061,1.46875,-1.125,0.6875,0.0,-0.7191697191697192,-1.9010989010989008,1.40625,-0.84375,0.875,0.0,0.0,-1.78021978021978,1.5,-0.8125,0.90625,1.1147741147741148,-0.6959706959706959,-2.15018315018315,1.59375,-1.03125,0.875,1.1782661782661783,-1.2246642246642248,-3.068376068376069,1.40625,-1.1875,0.6875,0.6056166056166056,-0.873015873015873,-3.870573870573871,1.125,-1.0,0.53125,0.8840048840048841,0.0,-4.207570207570208,0.96875,-0.78125,0.0,0.9645909645909646,0.0,-4.3748473748473735,0.84375,-0.71875,0.0,0.6654456654456654,0.0,-4.456654456654457,0.65625,0.0,0.0,0.5982905982905983,0.0,-4.6996336996337,0.0,0.0,0.0,0.6361416361416361,0.0,-4.185592185592186,0.0,0.0,0.0,0.6568986568986569,1.1135531135531136,-2.7411477411477403,0.0,0.0,0.0,0.6446886446886447,0.934065934065934,-2.1978021978021984,0.0,0.0,0.0,0.5054945054945055,0.6971916971916972,-2.0207570207570207,0.0,0.0,0.0,0.0,0.7045177045177046,-1.953601953601953,0.0,0.0,0.0,0.0,0.5103785103785103,-1.7191697191697193,-0.71875,0.0,0.0,0.0,0.6581196581196581,-1.575091575091575,-0.84375,0.0,0.0,0.0,0.0,-1.9792429792429795,-0.8125,0.75,0.0,0.0,0.0,-2.831501831501832,-0.8125,1.0625,0.0,,,,,,,wp_backR
accX,-0.7912087912087912,-4.363858363858364,0.0,0.0,0.0,0.0,-1.8034188034188037,-4.86935286935287,-1.2735042735042734,0.0,-0.71875,0.0,-2.5445665445665444,-5.0708180708180715,-1.6605616605616609,0.0,-1.28125,0.0,-4.0647130647130645,-5.323565323565323,-1.94993894993895,0.0,-2.0625,0.875,-4.540903540903541,-6.503052503052503,-2.1587301587301586,-0.6875,-2.75,1.21875,-4.406593406593408,-7.346764346764346,-1.7228327228327232,-1.1875,-3.53125,1.5625,-4.451770451770452,-7.523809523809524,0.0,-1.625,-4.46875,1.90625,-4.1672771672771685,-7.046398046398046,1.0683760683760684,-1.6875,-5.1875,2.34375,-3.3443223443223444,-5.857142857142858,2.3919413919413923,-1.3125,-5.59375,2.6875,-2.645909645909646,-3.653235653235653,3.6141636141636138,-0.75,-6.53125,3.0,-2.881562881562881,-3.8632478632478633,2.554334554334554,0.0,-7.21875,3.09375,-2.645909645909646,-2.6336996336996337,1.3736263736263736,0.0,-6.59375,3.0,0.0,-2.1648351648351647,0.5726495726495726,0.0,-4.75,2.75,2.445665445665446,-2.034188034188034,1.0818070818070815,0.0,-4.84375,2.3125,2.562881562881563,-1.4481074481074483,2.028083028083028,0.0,-5.625,1.96875,0.0,-0.5995115995115995,1.968253968253968,0.90625,-5.71875,1.84375,-1.338217338217338,-1.065934065934066,0.6666666666666666,1.21875,-4.625,1.84375,0.0,-2.409035409035409,-1.0427350427350428,1.125,-3.46875,1.5625,1.1025641025641026,-3.2295482295482296,-1.8498168498168501,0.0,-2.9375,1.125,0.8021978021978022,-1.7741147741147743,-0.6434676434676435,0.0,-2.875,1.03125,0.0,0.0,0.5787545787545788,0.0,-2.84375,1.0625,0.0,0.0,0.0,1.0,-2.40625,0.96875,0.8046398046398047,-1.123321123321123,-2.1233211233211238,1.3125,-1.75,0.875,2.6654456654456653,-2.3223443223443225,-3.758241758241758,0.0,-1.78125,0.78125,1.1306471306471306,0.0,-1.9951159951159951,0.0,-1.75,0.65625,0.7533577533577533,0.0,-1.5067155067155067,0.6875,-1.59375,0.53125,0.0,0.0,-1.4884004884004884,0.90625,-1.71875,0.59375,0.0,-0.5982905982905983,-1.5433455433455434,0.875,-1.6875,0.6875,0.0,0.0,-1.31990231990232,0.8125,-1.40625,0.65625,0.0,0.0,-0.9816849816849816,0.9375,-1.03125,0.53125,0.8888888888888888,0.0,-1.0390720390720392,1.09375,-1.03125,0.0,0.9084249084249084,0.0,-1.8534798534798536,1.21875,-1.28125,0.0,0.0,-0.5054945054945055,-2.6666666666666665,1.1875,-1.28125,0.0,0.0,0.0,-3.0854700854700856,1.0625,-0.90625,0.0,0.0,0.0,-3.2979242979242978,1.0,0.0,0.0,0.0,0.0,-3.294261294261294,0.8125,0.0,0.0,0.7350427350427351,0.0,-3.2600732600732596,0.5625,0.0,0.0,0.6886446886446886,0.0,-2.9645909645909647,0.0,0.0,0.0,0.5238095238095238,0.0,-2.4383394383394386,0.0,0.0,0.0,0.0,0.0,-2.1746031746031744,0.0,0.0,0.0,0.0,0.0,-1.978021978021978,0.0,0.0,0.0,0.0,0.0,-1.6349206349206349,0.0,0.0,0.0,0.0,0.0,-1.3455433455433456,0.0,0.0,0.0,0.0,0.0,-1.166056166056166,0.0,0.0,0.0,0.0,0.0,-1.144078144078144,0.0,0.0,0.0,0.0,0.0,-1.6996336996336996,0.0,0.0,0.0,0.0,-0.6263736263736264,-2.189255189255189,0.0,0.59375,0.0,,,,,,,wp_backR
accX,-0.934065934065934,-5.164835164835165,0.0,0.0,0.0,0.0,-1.2857142857142858,-5.338217338217338,-0.6422466422466423,0.0,-0.875,0.0,-2.4505494505494507,-5.1050061050061055,-0.5543345543345544,0.0,-1.3125,0.65625,-3.903540903540904,-5.316239316239317,-1.0989010989010992,0.0,-1.75,1.0,-4.766788766788767,-6.2393162393162385,-1.5775335775335777,-0.71875,-2.21875,1.4375,-5.103785103785103,-6.758241758241758,-1.4542124542124542,-1.21875,-2.8125,1.875,-4.401709401709402,-6.697191697191697,0.0,-1.5,-3.5625,2.3125,-3.449328449328449,-6.1782661782661785,2.0427350427350426,-1.34375,-5.125,2.6875,-3.648351648351648,-5.09035409035409,2.8864468864468864,-1.09375,-6.53125,3.03125,-3.3968253968253967,-4.967032967032966,2.268620268620269,-0.96875,-6.9375,3.375,-1.7118437118437118,-3.7142857142857135,1.9010989010989008,-0.96875,-6.1875,3.21875,0.5873015873015873,-2.7020757020757022,1.5128205128205128,0.0,-5.09375,2.8125,1.7985347985347986,-2.2014652014652016,1.3687423687423688,0.0,-4.75,2.40625,0.0,-2.012210012210012,1.2918192918192921,0.0,-5.09375,2.0625,-1.2503052503052503,-1.9072039072039075,1.5641025641025639,0.0,-5.09375,1.625,-3.652014652014652,-0.9743589743589745,1.0341880341880345,0.625,-4.59375,1.53125,-3.2283272283272284,-1.575091575091575,0.0,1.25,-2.90625,1.59375,2.092796092796093,-3.272283272283272,-1.2564102564102564,1.375,-1.59375,1.6875,5.645909645909647,-3.0134310134310134,0.0,0.71875,-3.125,1.5625,1.5396825396825398,-1.3443223443223444,0.0,0.0,-5.0,1.15625,-2.7203907203907205,0.0,-0.6532356532356532,1.0625,-3.3125,1.1875,-1.1965811965811963,-1.1709401709401708,-1.9181929181929185,1.4375,-1.8125,1.3125,2.5225885225885225,-1.8327228327228329,-2.5409035409035408,1.375,-2.25,1.28125,2.166056166056166,-0.971916971916972,-2.606837606837607,1.28125,-2.75,1.0,0.0,0.0,-2.0097680097680097,1.46875,-2.4375,1.0625,0.0,-0.5616605616605617,-1.8388278388278387,1.6875,-1.65625,1.0,0.0,-1.1086691086691087,-1.8290598290598292,1.53125,-1.1875,0.78125,1.0341880341880345,-1.2039072039072038,-2.003663003663004,1.34375,-1.09375,0.8125,1.0085470085470083,-0.6813186813186813,-2.0854700854700856,1.34375,-1.1875,0.78125,0.7374847374847375,0.0,-1.6764346764346765,1.65625,-1.0,0.65625,1.2612942612942613,-1.3736263736263736,-2.5873015873015874,1.40625,-0.875,0.0,0.0,-0.7326007326007326,-3.2527472527472527,1.15625,-0.53125,0.0,0.0,0.0,-3.148962148962149,1.09375,0.0,0.0,0.8571428571428571,-0.557997557997558,-3.225885225885226,0.96875,0.0,0.0,0.7912087912087912,0.0,-3.3650793650793656,0.78125,0.0,0.0,0.0,0.0,-3.2698412698412698,0.5625,0.0,0.0,0.0,0.0,-2.7667887667887667,0.0,0.0,0.0,0.7875457875457875,0.0,-2.3321123321123323,0.0,0.0,0.0,1.051282051282051,0.0,-2.115995115995116,0.0,0.0,0.0,0.0,0.0,-1.7826617826617828,0.0,0.0,0.0,0.0,0.0,-1.5714285714285714,0.0,0.0,0.0,-0.6617826617826618,0.0,-1.2515262515262515,0.0,0.0,0.0,-0.7423687423687424,0.0,-1.1404151404151404,0.0,0.5625,0.0,,,,,,,,,,,,,,,,,,,,,,,,,,,,,,,wp_backR
accX,-3.0207570207570207,-5.471306471306471,-2.6849816849816848,0.0,-1.09375,0.5625,-3.2490842490842486,-5.581196581196581,-1.8937728937728937,0.0,-1.84375,0.875,-4.34065934065934,-5.7313797313797314,-1.2832722832722834,0.0,-2.71875,1.25,-5.184371184371185,-6.687423687423687,-1.6227106227106227,0.0,-3.09375,1.65625,-4.943833943833944,-7.31013431013431,-1.4871794871794872,-0.8125,-3.375,1.9375,-4.36019536019536,-7.146520146520147,0.0,-1.3125,-4.1875,2.59375,-5.1050061050061055,-6.472527472527473,0.6800976800976801,-1.6875,-5.28125,3.1875,-4.231990231990232,-5.316239316239317,1.6654456654456655,-1.5,-4.9375,3.40625,-3.0463980463980462,-4.216117216117216,1.6984126984126984,-1.0,-4.3125,3.3125,-1.3443223443223444,-3.117216117216117,2.075702075702076,0.0,-4.25,3.15625,-0.8412698412698413,-2.0085470085470085,2.0989010989010994,0.0,-4.6875,3.21875,1.5811965811965811,-2.4249084249084247,1.7435897435897436,0.0,-5.0625,3.125,2.361416361416361,-2.4420024420024418,1.1416361416361416,0.0,-5.21875,2.53125,2.208791208791209,-1.876678876678877,0.9804639804639804,0.0,-5.3125,2.15625,0.8424908424908425,-0.9157509157509156,1.242979242979243,0.0,-5.5625,1.90625,0.7289377289377289,0.0,0.9523809523809524,0.0,-5.21875,1.9375,1.661782661782662,-1.4358974358974361,-1.0964590964590966,0.96875,-4.21875,1.5625,1.9694749694749696,-1.9987789987789988,-2.045177045177045,0.75,-3.1875,0.875,0.0,-1.1465201465201464,-1.2747252747252746,0.0,-3.34375,0.53125,-1.4432234432234432,0.0,-1.3956043956043955,0.0,-2.875,0.53125,-0.8962148962148963,-1.336996336996337,-2.503052503052503,0.8125,-1.75,0.65625,1.010989010989011,-1.912087912087912,-3.0146520146520146,0.5625,-1.21875,0.75,0.0,0.0,-1.7863247863247864,0.0,-1.40625,0.8125,0.0,0.6959706959706959,0.0,0.5625,-1.15625,0.84375,0.0,0.0,0.0,1.15625,-0.90625,0.875,0.9536019536019535,-1.4212454212454213,-0.9572649572649572,1.28125,-1.09375,0.84375,0.8974358974358975,-1.1538461538461535,-1.800976800976801,0.9375,-1.3125,0.59375,0.0,0.0,-1.9523809523809523,0.90625,-1.3125,0.59375,0.0,0.0,-1.915750915750916,1.21875,-1.125,0.625,0.7460317460317459,-1.199023199023199,-2.9413919413919416,1.375,-0.875,0.625,1.2454212454212454,-1.47985347985348,-3.456654456654457,0.875,-0.96875,0.5625,0.0,-0.5177045177045178,-3.2014652014652016,0.625,-0.78125,0.59375,0.0,0.0,-2.5689865689865687,0.8125,0.0,0.65625,1.0537240537240538,0.0,-2.288156288156288,0.9375,0.0,0.65625,1.4334554334554337,0.0,-2.518925518925519,0.8125,-0.65625,0.53125,0.8913308913308914,0.0,-2.686202686202686,0.5625,-0.5625,0.0,0.7826617826617827,0.0,-2.1233211233211238,0.0,0.0,0.0,0.73992673992674,0.0,-1.7362637362637363,0.0,0.0,0.0,0.9902319902319904,0.0,-1.6764346764346765,0.0,0.0,0.0,0.0,0.0,-1.7533577533577531,0.0,0.0,0.0,0.0,0.0,-1.6300366300366298,0.0,0.0,0.0,0.0,0.0,-1.1086691086691087,0.0,0.0,0.0,,,,,,,,,,,,,,,,,,,,,,,,,,,,,,,,,,,,,wp_backR
accX,-2.028083028083028,-5.6642246642246645,-2.6080586080586077,0.0,-1.3125,0.0,-3.102564102564102,-5.326007326007327,-2.0476190476190474,0.0,-1.875,0.9375,-2.8766788766788767,-5.647130647130648,-1.1587301587301588,0.0,-2.40625,1.28125,-3.4639804639804637,-6.402930402930402,-1.247863247863248,-0.625,-2.5625,1.5,-2.625152625152625,-7.032967032967032,-0.7191697191697192,-1.21875,-3.0,1.78125,-2.43956043956044,-7.137973137973138,0.0,-1.375,-3.59375,2.0625,-2.0366300366300365,-7.267399267399268,1.0024420024420024,-1.375,-3.90625,2.375,-1.0854700854700854,-6.725274725274725,1.514041514041514,-1.34375,-3.9375,2.5,-0.6227106227106227,-5.269841269841269,2.1184371184371185,-1.1875,-4.21875,2.28125,-1.5970695970695972,-3.418803418803418,2.481074481074481,-0.96875,-5.0625,2.09375,-4.073260073260073,-1.8632478632478635,2.3223443223443225,-0.71875,-5.75,2.40625,-3.7228327228327234,-1.4590964590964588,1.6947496947496947,0.0,-4.75,2.75,-0.6874236874236874,-2.1880341880341883,0.6947496947496947,0.0,-3.125,2.75,4.212454212454213,-3.456654456654457,0.0,0.0,-2.84375,2.28125,3.4004884004884004,-1.9792429792429795,2.068376068376069,-0.71875,-4.84375,1.59375,-0.7277167277167277,0.0,3.7570207570207566,-1.15625,-7.03125,1.3125,-4.506715506715507,0.0,2.7020757020757022,0.0,-6.09375,1.09375,-3.2954822954822958,-1.126984126984127,0.7094017094017094,0.53125,-4.5,1.0625,0.5299145299145299,-2.934065934065934,0.0,0.0,-4.375,0.8125,0.0,-0.8693528693528694,0.0,0.0,-4.375,0.65625,-0.6996336996336996,0.5470085470085471,0.0,0.875,-3.25,0.53125,0.7387057387057387,-0.6959706959706959,-0.7509157509157509,1.625,-2.4375,0.0,1.5934065934065933,-2.3162393162393164,-2.1514041514041518,1.46875,-2.4375,0.0,0.0,-1.4017094017094016,-2.0805860805860807,1.09375,-2.3125,0.0,-2.0805860805860807,0.0,-1.6043956043956045,1.3125,-1.59375,0.0,-0.8742368742368742,0.0,-2.4444444444444446,1.84375,-0.84375,0.71875,1.3125763125763126,-1.1452991452991452,-3.5665445665445668,1.9375,-0.90625,0.75,1.0866910866910866,-1.794871794871795,-4.247863247863248,1.25,-0.875,0.5625,0.0,-0.7777777777777778,-2.7570207570207566,0.90625,-0.625,0.6875,0.0,0.0,-1.6031746031746033,1.0,0.0,0.75,0.8107448107448108,0.0,-1.5409035409035412,1.28125,0.0,0.6875,1.0989010989010992,-0.7997557997557998,-2.249084249084249,1.28125,-0.78125,0.59375,0.0,-0.7973137973137974,-2.9877899877899887,1.0,-0.84375,0.0,0.0,0.0,-2.7496947496947497,0.78125,0.0,0.0,0.0,0.0,-2.4932844932844933,0.8125,0.0,0.0,1.358974358974359,0.0,-2.4932844932844933,0.78125,0.0,0.0,0.7997557997557998,0.0,-2.619047619047619,0.59375,0.0,0.0,0.0,0.0,-2.505494505494505,0.0,0.0,0.0,0.0,0.0,-2.1465201465201464,0.0,0.0,0.0,0.7338217338217338,0.0,-1.7667887667887667,0.0,0.0,0.0,0.0,0.0,-1.5836385836385836,0.0,0.0,0.0,0.0,0.0,-1.3907203907203909,0.0,0.0,0.0,0.0,0.0,-1.133089133089133,0.0,0.0,0.0,0.0,0.0,-0.8913308913308914,0.0,0.0,0.0,0.0,0.0,-0.7765567765567766,0.0,0.0,0.0,0.0,0.0,-1.2881562881562882,0.0,0.0,0.0,-0.5750915750915749,0.0,-1.6703296703296704,0.0,0.0,0.0,,,,,,,wp_backR
accX,-1.6105006105006106,-5.461538461538462,0.0,0.0,-1.78125,0.75,-1.6984126984126984,-5.7484737484737485,0.0,0.0,-2.09375,0.96875,0.0,-6.163614163614165,0.0,0.0,-2.84375,1.0625,-1.1819291819291822,-6.236874236874237,0.5567765567765568,-0.625,-3.84375,1.25,-3.15995115995116,-6.0256410256410255,0.0,-0.78125,-4.3125,1.53125,-4.592185592185592,-5.915750915750916,-0.6263736263736264,-0.9375,-3.8125,1.78125,-3.6776556776556775,-5.363858363858364,0.0,-0.9375,-3.4375,1.875,-3.474969474969475,-4.665445665445667,0.7826617826617827,-0.8125,-3.3125,1.96875,-3.1868131868131866,-3.947496947496948,1.1916971916971917,-0.71875,-3.46875,2.0625,-2.2857142857142856,-3.3162393162393164,1.6007326007326008,-0.78125,-3.90625,2.25,-0.6752136752136753,-2.675213675213675,2.413919413919414,-0.90625,-4.6875,2.3125,0.6031746031746031,-2.012210012210012,2.8974358974358974,-0.6875,-5.34375,2.375,-0.7826617826617827,-1.3223443223443223,0.8595848595848596,0.0,-4.84375,1.84375,0.0,-1.9462759462759465,0.6373626373626373,0.0,-4.1875,1.65625,-0.5115995115995116,-0.9706959706959708,1.4322344322344325,0.0,-4.53125,1.59375,0.0,-0.8107448107448108,1.4822954822954824,0.0,-5.0625,1.5625,-0.7875457875457875,-1.037851037851038,0.0,0.0,-4.625,1.40625,0.0,-1.3943833943833943,0.0,0.53125,-3.59375,1.21875,0.8864468864468864,-1.192918192918193,0.0,0.0,-3.125,0.84375,0.0,0.0,0.9633699633699634,0.0,-3.4375,0.65625,-0.7155067155067155,0.0,0.0,0.625,-3.53125,0.625,0.0,-0.6532356532356532,-0.9059829059829059,1.21875,-2.84375,0.65625,0.7460317460317459,-1.2722832722832722,-1.2148962148962148,1.34375,-2.09375,0.71875,1.398046398046398,-1.2820512820512822,-0.6166056166056166,1.125,-2.0,0.6875,0.0,0.0,0.0,1.09375,-1.96875,0.65625,0.0,0.0,0.0,1.78125,-1.5,0.75,0.0,-0.6862026862026862,-1.177045177045177,2.15625,-1.1875,0.90625,1.5518925518925517,-1.9865689865689864,-2.9890109890109886,1.8125,-0.96875,0.75,1.827838827838828,-1.5445665445665446,-3.720390720390721,1.4375,-0.6875,0.625,1.47985347985348,-0.8534798534798534,-3.532356532356532,1.40625,0.0,0.5625,2.145299145299145,-0.7606837606837606,-3.1697191697191696,1.46875,0.0,0.0,2.532356532356532,-1.0097680097680095,-3.0048840048840044,1.21875,-1.0625,0.0,0.5518925518925519,0.0,-2.752136752136752,0.96875,-1.15625,0.0,-0.6581196581196581,0.0,-2.2808302808302807,0.84375,-0.75,0.0,0.0,0.5177045177045178,-1.4908424908424909,0.90625,0.0,0.0,0.6251526251526252,0.0,-1.2063492063492065,0.84375,-0.71875,0.0,0.0,0.0,-1.8913308913308915,0.65625,-0.78125,0.0,0.0,0.0,-1.887667887667888,0.5625,0.0,0.0,0.0,0.0,-1.8742368742368745,0.5625,0.0,0.0,0.7728937728937729,0.0,-2.1721611721611715,0.65625,0.0,0.0,0.5311355311355311,0.0,-2.5177045177045176,0.0,0.0,0.0,0.0,0.0,-2.554334554334554,0.0,0.0,0.0,0.5042735042735043,0.0,-2.2185592185592187,0.0,0.0,0.0,0.7460317460317459,0.0,-1.7045177045177045,0.0,0.0,0.0,0.7643467643467643,0.0,-1.3663003663003663,0.0,0.0,0.0,0.0,0.0,-1.192918192918193,0.0,0.0,0.0,0.0,0.0,-1.0793650793650793,0.0,0.0,0.0,0.0,0.0,-1.0793650793650793,0.0,0.0,0.0,wp_backR
accX,-1.5103785103785103,-5.781440781440781,0.0,0.0,-0.53125,0.0,-3.1123321123321124,-5.424908424908424,-0.5201465201465202,0.0,-0.59375,0.0,-3.81929181929182,-5.678876678876679,-0.7606837606837606,0.0,0.0,0.59375,-4.742368742368742,-6.206349206349207,-1.1794871794871795,0.0,0.0,0.875,-5.412698412698413,-6.742368742368742,-1.7008547008547008,-0.5625,-0.65625,1.40625,-5.529914529914531,-6.971916971916972,-1.7301587301587302,-1.0,-1.0625,1.9375,-4.274725274725275,-7.083028083028082,-0.5372405372405372,-1.25,-1.75,2.3125,-2.887667887667888,-6.998778998778999,0.7521367521367521,-1.3125,-2.625,2.6875,-1.8888888888888888,-5.710622710622711,2.061050061050061,-1.28125,-3.6875,3.0,-1.3504273504273503,-3.8009768009768017,3.0525030525030523,-1.09375,-4.65625,3.34375,-0.78998778998779,-2.783882783882784,3.258852258852259,-0.78125,-4.875,3.53125,-0.5934065934065934,-1.2393162393162394,2.8424908424908426,0.0,-4.5625,3.625,0.5518925518925519,-1.7167277167277166,1.656898656898657,0.0,-3.84375,3.5,2.263736263736264,-2.6971916971916974,0.5396825396825397,-0.53125,-3.5,2.8125,3.678876678876679,-1.9792429792429795,0.9047619047619048,-1.21875,-4.5625,2.625,2.8864468864468864,0.0,2.7399267399267404,-1.15625,-6.0625,2.21875,-3.3992673992673987,0.8461538461538461,2.056166056166056,0.0,-6.21875,1.8125,-2.415140415140415,-1.21001221001221,0.0,0.65625,-4.40625,1.78125,1.376068376068376,-2.5213675213675213,-1.6556776556776556,1.0,-2.6875,1.5625,1.94017094017094,-1.8730158730158732,-1.382173382173382,0.6875,-2.875,1.28125,0.0,-0.7240537240537241,0.0,0.0,-3.65625,1.0625,-1.52014652014652,0.0,-0.5824175824175825,1.0,-3.59375,0.90625,-1.413919413919414,-1.1135531135531136,-2.0769230769230766,1.6875,-2.34375,1.0,1.6874236874236874,-2.0744810744810747,-2.537240537240537,1.6875,-1.65625,1.09375,1.5982905982905984,-1.9926739926739927,-2.203907203907204,1.15625,-2.21875,0.8125,-0.7081807081807082,0.0,-1.4126984126984128,0.84375,-2.46875,0.625,-1.915750915750916,0.0,-1.6202686202686205,1.28125,-1.75,0.71875,0.0,-0.8681318681318682,-3.1257631257631258,1.78125,-0.625,0.875,1.9938949938949944,-1.7826617826617828,-4.1330891330891335,1.5,0.0,0.96875,3.3992673992673987,-2.053724053724053,-4.0989010989010985,0.9375,-1.0,0.6875,2.120879120879121,-0.9804639804639804,-3.23931623931624,0.78125,-1.28125,0.0,0.6007326007326007,0.0,-2.5665445665445668,0.90625,-0.90625,0.0,0.0,0.0,-2.299145299145299,0.90625,0.0,0.0,1.2014652014652014,0.0,-2.0366300366300365,0.78125,0.0,0.0,1.336996336996337,0.0,-1.7728937728937728,0.59375,-0.625,0.0,0.8608058608058609,0.0,-1.647130647130647,0.5625,-0.65625,0.0,0.514041514041514,0.0,-1.5714285714285714,0.5625,-0.53125,0.0,0.0,0.0,-1.6874236874236874,0.53125,0.0,0.0,0.0,0.0,-1.9926739926739927,0.0,0.0,0.0,0.0,0.0,-2.274725274725274,0.0,0.0,0.0,0.0,0.0,-3.0842490842490844,0.0,0.0,0.0,-0.5995115995115995,-0.6141636141636142,-3.52014652014652,0.0,0.78125,0.0,,,,,,,,,,,,,,,,,,,,,,,,,,,,,,,,,,,,,wp_backR
accX,-1.5934065934065933,-5.236874236874237,0.0,0.0,0.0,0.0,-2.7362637362637363,-5.151404151404153,-1.0341880341880345,0.0,0.0,0.0,-3.330891330891331,-5.344322344322343,-0.9352869352869352,0.0,-0.6875,0.6875,-4.738705738705738,-5.461538461538462,-1.123321123321123,0.0,-0.96875,1.125,-4.4896214896214905,-6.0134310134310125,-0.7032967032967034,-0.625,-1.40625,1.53125,-3.8534798534798536,-6.191697191697192,0.0,-0.90625,-2.09375,1.9375,-2.5445665445665444,-6.1672771672771685,1.3247863247863247,-1.15625,-3.6875,2.625,-2.5702075702075704,-5.400488400488402,1.9853479853479852,-1.15625,-4.6875,3.0,-2.3418803418803416,-4.64957264957265,2.1587301587301586,-1.03125,-5.15625,3.21875,-2.326007326007326,-3.869352869352869,1.967032967032967,-0.84375,-5.28125,3.125,-3.0109890109890114,-2.683760683760684,1.8339438339438336,-0.78125,-5.1875,3.03125,-3.3076923076923075,-2.117216117216117,1.2319902319902318,0.0,-4.46875,3.09375,-2.173382173382173,-2.225885225885226,0.8168498168498168,0.0,-2.90625,2.96875,1.020757020757021,-3.0586080586080584,0.0,0.0,-1.84375,2.78125,3.6031746031746033,-2.652014652014652,0.9609279609279608,0.0,-2.5,2.625,2.5006105006105006,-1.2368742368742371,1.4737484737484738,0.0,-4.03125,2.375,0.0,0.0,1.115995115995116,0.0,-4.21875,1.9375,0.0,-0.9975579975579976,0.6788766788766789,0.90625,-3.28125,1.84375,1.6459096459096458,-2.039072039072039,0.8095238095238095,0.59375,-3.0625,1.71875,2.4761904761904763,-2.1941391941391943,1.0305250305250304,0.0,-3.8125,1.21875,0.0,-0.7448107448107448,0.0,0.875,-3.625,0.96875,-1.7643467643467643,0.0,-1.6043956043956045,1.65625,-2.375,1.125,0.0,-1.7448107448107448,-3.068376068376069,1.6875,-1.59375,1.28125,2.9536019536019538,-2.455433455433456,-3.3272283272283274,1.1875,-1.84375,1.09375,2.7814407814407813,-1.5042735042735045,-2.5494505494505493,1.0,-2.25,0.78125,1.065934065934066,0.0,-1.709401709401709,1.3125,-2.34375,0.71875,0.0,0.0,-1.21978021978022,1.65625,-2.21875,0.8125,0.0,0.0,-1.0488400488400489,1.78125,-2.34375,0.875,0.0,-1.4236874236874235,-1.761904761904762,1.65625,-2.0625,0.625,-1.0366300366300367,-0.6068376068376068,-2.3907203907203907,1.53125,-0.84375,0.75,1.1587301587301588,-0.8644688644688645,-2.4517704517704515,1.625,0.0,0.90625,1.8925518925518925,-0.8986568986568987,-2.705738705738706,1.65625,-0.84375,0.75,0.8888888888888888,-0.989010989010989,-3.4615384615384617,1.5,-1.28125,0.6875,0.0,-1.017094017094017,-3.7753357753357752,1.21875,-1.1875,0.625,0.0,0.0,-3.467643467643468,0.96875,-0.65625,0.53125,0.0,0.0,-3.2197802197802203,0.875,0.0,0.53125,1.5921855921855919,0.0,-3.0012210012210017,0.6875,0.0,0.53125,1.8351648351648349,0.0,-2.879120879120879,0.0,0.0,0.0,1.0488400488400489,0.0,-2.768009768009768,0.0,0.0,0.0,0.0,0.0,-2.7228327228327234,0.0,0.0,0.0,0.0,0.0,-2.52014652014652,0.0,0.0,0.0,0.0,0.0,-2.3821733821733817,0.0,0.0,0.0,0.0,0.0,-2.484737484737485,0.0,0.0,0.0,,,,,,,,,,,,,,,,,,,,,,,,,,,,,,,wp_backR
accX,-2.9536019536019538,-5.8840048840048835,-0.5506715506715507,0.0,-1.75,0.9375,-4.663003663003662,-5.7594627594627585,-0.5457875457875457,0.0,-2.375,1.21875,-4.599511599511598,-6.772893772893772,-0.94993894993895,0.0,-2.59375,1.65625,-4.221001221001221,-6.964590964590965,-0.6947496947496947,-0.71875,-2.96875,1.90625,-4.095238095238095,-6.0134310134310125,0.5470085470085471,-1.28125,-4.46875,2.5,-3.9536019536019538,-4.918192918192919,1.637362637362637,-1.28125,-4.9375,2.9375,-3.5006105006105006,-4.241758241758242,1.656898656898657,-1.21875,-4.5,3.1875,-1.4957264957264955,-3.3296703296703303,1.7814407814407816,-1.15625,-4.53125,3.1875,0.0,-2.13064713064713,2.6361416361416357,-0.96875,-5.5625,3.0,-1.6336996336996337,-0.6654456654456654,3.1587301587301586,0.0,-6.15625,3.0,-1.2454212454212454,-1.6666666666666667,1.8888888888888888,0.0,-5.71875,3.0,2.7948717948717947,-3.543345543345543,0.9633699633699634,-0.5625,-6.1875,2.5625,3.7936507936507935,-3.0195360195360195,2.1086691086691087,-1.21875,-7.46875,1.75,0.0,0.0,2.888888888888889,0.0,-7.28125,1.15625,-4.2735042735042725,0.0,1.7960927960927962,0.71875,-5.25,1.09375,-3.2771672771672766,-1.462759462759463,0.0,1.3125,-3.3125,1.3125,1.0146520146520146,-3.1990231990231983,-1.746031746031746,1.375,-2.125,1.25,0.7948717948717948,-1.465201465201465,-2.4322344322344316,1.28125,-2.1875,1.03125,0.0,-1.4774114774114775,-3.6727716727716726,1.90625,-1.5625,0.875,2.3284493284493286,-2.4615384615384617,-4.013431013431013,2.0,-1.03125,1.0,2.9572649572649574,-2.271062271062271,-3.4249084249084247,1.625,-1.40625,1.0,0.9352869352869352,-0.9523809523809524,-2.68009768009768,1.40625,-1.65625,0.71875,0.0,-0.7765567765567766,-2.4346764346764345,1.6875,-1.34375,0.65625,0.5091575091575091,-1.6862026862026862,-2.9975579975579976,1.78125,-1.0,0.71875,1.728937728937729,-1.8315018315018317,-3.1062271062271063,1.4375,-1.03125,0.625,1.2454212454212454,-0.7118437118437119,-2.9230769230769234,1.1875,-1.15625,0.0,0.6043956043956044,-0.6837606837606838,-3.2429792429792434,1.28125,-0.96875,0.0,0.7643467643467643,-0.8522588522588522,-3.758241758241758,1.25,-0.8125,0.0,0.78998778998779,-0.7423687423687424,-4.004884004884005,0.84375,-0.65625,0.0,0.7704517704517705,0.0,-3.873015873015873,0.65625,0.0,0.0,0.0,0.0,-3.5946275946275947,0.53125,0.0,0.0,0.0,0.0,-3.3015873015873014,0.0,0.0,0.0,0.5921855921855922,0.0,-2.9047619047619047,0.0,0.0,0.0,0.0,0.0,-2.606837606837607,0.0,0.0,0.0,0.0,0.5848595848595849,-2.064713064713065,0.0,0.0,0.0,0.0,0.8827838827838828,-1.4981684981684982,0.0,0.0,0.0,0.0,0.0,-1.2417582417582418,0.0,0.0,0.0,0.0,0.0,-1.164835164835165,0.0,0.0,0.0,-0.7680097680097681,0.0,-1.3736263736263736,0.0,0.59375,0.0,,,,,,,,,,,,,,,,,,,,,,,,,,,,,,,,,,,,,,,,,,,,,,,,,,,,,,,wp_backR
accX,-2.3870573870573866,-5.2173382173382175,-1.2210012210012209,0.0,0.0,0.0,-1.3943833943833943,-5.638583638583639,-0.6617826617826618,0.0,-0.5625,0.0,-1.431013431013431,-6.244200244200244,-0.5653235653235653,0.0,-1.0625,0.53125,-2.31990231990232,-6.023199023199023,-0.5225885225885226,0.0,-1.5,0.78125,-3.4163614163614158,-5.78021978021978,0.0,0.0,-1.8125,1.0,-4.141636141636142,-5.888888888888888,0.0,0.0,-2.15625,1.375,-4.384615384615385,-6.289377289377289,0.0,-0.71875,-2.75,1.8125,-3.671550671550672,-6.518925518925519,0.0,-1.25,-3.75,2.25,-3.072039072039072,-5.485958485958487,1.431013431013431,-1.65625,-4.78125,2.625,-2.498168498168498,-3.8632478632478633,2.647130647130647,-1.5,-5.28125,2.875,-0.8315018315018315,-2.8705738705738706,2.9230769230769234,-0.78125,-6.125,2.875,-2.4822954822954824,-2.5494505494505493,2.0134310134310134,0.0,-6.6875,2.65625,-3.5824175824175826,-2.765567765567765,0.0,0.0,-5.8125,2.46875,-0.8192918192918193,-2.5763125763125765,-0.5604395604395604,0.0,-3.875,2.40625,3.173382173382173,-2.715506715506716,0.0,0.0,-3.1875,2.21875,2.8095238095238093,-1.5421245421245422,2.2820512820512815,0.0,-4.71875,1.78125,-2.102564102564102,0.0,2.9804639804639805,0.0,-6.0,1.25,-4.536019536019536,0.0,0.8009768009768009,0.96875,-4.9375,1.3125,-2.3321123321123323,-2.398046398046398,-0.6825396825396826,1.625,-2.53125,1.46875,1.94993894993895,-3.1868131868131866,0.0,1.25,-1.875,1.375,1.2344322344322345,-2.291819291819292,0.0,0.84375,-2.84375,1.0625,-1.5067155067155067,0.0,-0.6874236874236874,1.4375,-2.59375,1.09375,-1.332112332112332,-0.9609279609279608,-2.413919413919414,2.09375,-1.21875,1.3125,3.1623931623931623,-2.954822954822955,-3.0708180708180715,1.71875,-1.34375,1.0,3.477411477411477,-2.9267399267399266,-2.7142857142857144,0.8125,-2.125,0.0,0.5323565323565324,-0.8754578754578755,-1.68986568986569,0.53125,-2.21875,0.0,-1.0390720390720392,0.0,-0.6324786324786325,1.03125,-1.53125,0.0,0.0,0.0,0.0,1.5,-1.28125,0.65625,0.6691086691086691,0.0,-0.7191697191697192,1.6875,-1.375,0.6875,1.1196581196581197,-1.0952380952380951,-1.4505494505494505,1.46875,-1.46875,0.5625,0.7997557997557998,-0.8412698412698413,-1.9242979242979243,1.28125,-1.40625,0.0,0.7704517704517705,0.0,-2.41025641025641,1.4375,-1.25,0.0,1.2551892551892552,0.0,-3.0525030525030523,1.59375,-1.28125,0.0,0.0,-1.155067155067155,-4.852258852258852,1.34375,-1.09375,0.0,0.0,-0.5946275946275946,-4.772893772893774,0.9375,-0.625,0.0,0.5372405372405372,0.0,-4.252747252747253,0.65625,0.0,0.0,0.8901098901098901,0.0,-3.753357753357753,0.0,0.0,0.0,0.5616605616605617,0.0,-3.4737484737484734,0.0,0.0,0.0,0.0,0.0,-3.2771672771672766,0.0,0.0,0.0,0.0,0.0,-2.669108669108669,0.0,0.0,0.0,0.0,0.0,-2.05982905982906,0.0,0.0,0.0,0.0,0.0,-1.794871794871795,0.0,0.0,0.0,,,,,,,,,,,,,,,,,,,,,,,,,,,,,,,,,,,,,wp_backR
accX,-1.9072039072039075,-6.262515262515263,-0.7533577533577533,0.0,-1.375,0.53125,-2.2283272283272284,-6.236874236874237,-0.5909645909645911,0.0,-1.78125,0.75,-2.3089133089133087,-6.0927960927960925,0.0,0.0,-2.3125,1.0,-3.2576312576312576,-6.002442002442003,0.0,-0.625,-2.9375,1.34375,-4.247863247863248,-5.864468864468863,0.0,-0.71875,-3.4375,1.53125,-4.800976800976801,-5.604395604395603,0.0,-0.8125,-3.84375,1.78125,-5.2173382173382175,-4.645909645909647,0.7496947496947497,-0.9375,-4.3125,2.0625,-5.356532356532357,-3.6495726495726495,1.4847374847374848,-0.9375,-4.5625,2.375,-4.9755799755799766,-3.3345543345543347,1.586080586080586,-0.625,-4.21875,2.625,-2.483516483516484,-3.42002442002442,1.463980463980464,0.0,-2.90625,2.59375,0.0,-2.938949938949939,1.3650793650793651,0.0,-3.0,2.59375,2.184371184371184,-2.2783882783882783,1.5958485958485962,0.0,-3.9375,2.6875,2.305250305250305,-1.4957264957264955,1.3076923076923077,0.0,-4.03125,2.59375,2.600732600732601,-1.695970695970696,0.6862026862026862,0.59375,-3.5625,2.09375,3.195360195360196,-1.7606837606837606,0.9413919413919414,0.0,-4.15625,1.6875,1.884004884004884,-1.021978021978022,1.9328449328449329,0.0,-5.25,1.40625,-0.5335775335775336,0.0,1.7741147741147743,0.0,-5.125,1.34375,-1.975579975579976,0.0,0.0,1.0625,-3.8125,1.4375,0.0,-1.5518925518925517,0.0,1.28125,-2.4375,1.375,3.0390720390720385,-2.937728937728938,-0.8412698412698413,0.875,-2.46875,0.9375,4.073260073260073,-2.3003663003662997,0.0,0.0,-3.59375,0.625,-2.1721611721611715,-0.6019536019536019,-0.6251526251526252,1.0,-2.96875,0.0,-1.155067155067155,-1.5531135531135531,-2.0085470085470085,1.5,-1.5,0.65625,1.2808302808302807,-1.9352869352869355,-2.57997557997558,1.5,-0.8125,0.71875,2.5396825396825395,-1.8180708180708183,-1.8510378510378511,1.09375,-1.375,0.625,0.0,0.0,0.0,0.875,-2.03125,0.53125,-1.4175824175824177,0.0,0.0,1.4375,-1.53125,0.5625,-0.9108669108669109,-0.8803418803418803,0.0,1.90625,-0.6875,0.71875,0.0,-2.1135531135531136,-1.3296703296703296,1.53125,0.0,0.59375,0.8437118437118437,-1.0415140415140416,-1.8864468864468864,0.875,-0.625,0.0,0.0,0.0,-1.4700854700854702,0.84375,-1.0,0.5625,0.0,0.0,-1.636141636141636,1.375,-0.71875,0.53125,0.557997557997558,-1.2063492063492065,-2.43956043956044,1.40625,0.0,0.625,1.017094017094017,-1.1978021978021978,-2.6336996336996337,1.0625,0.0,0.59375,1.2148962148962148,-0.7704517704517705,-2.3492063492063493,0.8125,0.0,0.5625,0.9389499389499391,0.0,-2.0268620268620268,0.75,-0.6875,0.0,0.0,0.0,-1.9926739926739927,0.875,0.0,0.0,0.5323565323565324,0.0,-2.3699633699633704,0.8125,0.0,0.0,1.2271062271062272,-0.6190476190476191,-2.647130647130647,0.53125,0.0,0.0,1.1416361416361416,0.0,-2.266178266178266,0.0,0.0,0.0,0.0,0.0,-2.1294261294261294,0.0,0.0,0.0,0.0,0.0,-2.1074481074481075,0.0,0.0,0.0,0.0,0.0,-2.227106227106227,0.0,0.0,0.0,0.6336996336996337,0.0,-1.8522588522588523,0.0,0.0,0.0,0.0,0.0,-1.1489621489621489,0.0,0.0,0.0,0.0,0.0,-0.9206349206349206,0.0,0.0,0.0,0.0,0.0,-1.061050061050061,0.0,0.0,0.0,0.0,-0.6410256410256411,-1.4322344322344325,-0.53125,0.0,0.0,wp_backR
accX,-2.0,-6.0647130647130645,0.0,0.0,-1.15625,0.625,-3.221001221001221,-6.029304029304028,0.0,0.0,-1.46875,0.9375,-4.236874236874237,-7.174603174603175,-1.017094017094017,0.0,-1.6875,1.25,-4.1550671550671545,-7.451770451770452,-0.9401709401709402,-0.625,-2.21875,1.65625,-3.774114774114774,-7.261294261294261,0.0,-1.125,-3.09375,2.09375,-3.771672771672772,-6.575091575091576,1.1965811965811963,-1.28125,-3.96875,2.46875,-3.0476190476190474,-5.57997557997558,1.8388278388278387,-1.1875,-4.40625,2.75,-1.6837606837606838,-4.095238095238095,2.31013431013431,-1.0,-4.6875,2.8125,-0.7216117216117216,-2.611721611721612,2.664224664224664,-0.75,-5.25,2.78125,-1.0989010989010992,-1.0976800976800978,3.1050061050061046,0.0,-5.96875,2.6875,-1.4615384615384617,-0.5152625152625152,2.8693528693528694,0.0,-6.3125,2.65625,-0.8351648351648352,0.0,2.2612942612942613,0.8125,-6.09375,2.71875,0.0,-1.2002442002442002,1.2344322344322345,1.40625,-5.4375,2.5625,0.0,-2.2735042735042734,0.0,1.21875,-4.84375,1.84375,-0.514041514041514,-1.6654456654456655,0.0,1.03125,-4.25,1.46875,-1.0231990231990231,-1.0488400488400489,0.0,1.28125,-3.1875,1.53125,0.0,-1.575091575091575,-1.2857142857142858,1.5625,-2.21875,1.40625,2.5042735042735043,-2.105006105006105,-1.9865689865689864,1.46875,-1.875,1.0625,2.611721611721612,-2.1465201465201464,-2.8217338217338215,1.125,-1.84375,0.8125,1.6874236874236874,-1.0048840048840049,-2.437118437118437,0.90625,-1.78125,0.71875,0.0,0.0,-1.5995115995115996,1.03125,-1.625,0.84375,0.6446886446886447,-0.6324786324786325,-1.7667887667887667,1.25,-1.40625,0.78125,1.531135531135531,-1.3577533577533578,-3.3565323565323566,1.3125,-1.40625,0.625,1.7777777777777777,-1.6275946275946276,-4.052503052503051,0.90625,-1.5625,0.0,0.5067155067155067,-0.8778998778998779,-3.4871794871794872,0.0,-1.4375,0.65625,0.0,0.0,-0.8095238095238095,0.84375,-0.8125,0.71875,0.0,0.0,0.0,1.125,-0.84375,0.71875,0.0,0.0,0.0,1.25,-1.0,0.65625,0.0,0.0,-0.5726495726495726,1.25,-1.1875,0.5625,0.0,0.0,-0.8534798534798534,1.1875,-1.03125,0.0,0.0,0.0,-0.8595848595848596,1.21875,-0.5625,0.53125,1.188034188034188,0.0,-1.0134310134310134,1.28125,0.0,0.5625,2.029304029304029,-0.5201465201465202,-1.4053724053724053,1.1875,-0.625,0.0,1.612942612942613,0.0,-1.8302808302808304,1.0,-1.15625,0.0,0.0,0.0,-2.4285714285714284,0.875,-1.15625,0.0,0.0,0.0,-2.9291819291819285,0.8125,-0.59375,0.0,0.7509157509157509,0.0,-3.37973137973138,0.5625,0.0,0.0,0.5616605616605617,0.0,-3.468864468864469,0.0,0.0,0.0,0.0,0.0,-3.268620268620269,0.0,0.0,0.0,0.0,0.0,-2.8986568986568986,0.0,0.0,0.0,0.0,0.0,-2.2503052503052503,0.0,0.0,0.0,0.0,0.0,-1.896214896214896,0.0,0.0,0.0,0.0,0.0,-1.7704517704517704,0.0,0.0,0.0,0.0,0.0,-1.8583638583638584,-0.59375,0.0,0.0,,,,,,,,,,,,,,,,,,,,,,,,,wp_backR
accX,-1.0158730158730158,-6.004884004884005,-0.7875457875457875,0.0,0.0,0.0,-2.126984126984127,-5.905982905982907,-0.5213675213675214,0.0,-0.59375,0.0,-2.0744810744810747,-6.387057387057388,0.0,0.0,-0.84375,0.0,-3.4297924297924296,-6.175824175824176,-0.8095238095238095,0.0,-1.21875,0.5625,-4.706959706959707,-6.307692307692308,-1.4212454212454213,0.0,-1.375,0.9375,-5.1892551892551895,-6.64957264957265,-1.7960927960927962,-0.71875,-1.5625,1.3125,-4.315018315018315,-6.907203907203908,-0.8620268620268621,-1.125,-2.34375,1.6875,-3.565323565323565,-6.26007326007326,0.9450549450549449,-1.4375,-3.65625,2.03125,-4.2295482295482305,-4.9523809523809526,1.9963369963369964,-1.3125,-4.4375,2.34375,-4.507936507936508,-4.1098901098901095,2.249084249084249,-0.9375,-4.0625,2.71875,-3.0708180708180715,-3.4444444444444446,1.844932844932845,0.0,-3.125,2.84375,0.0,-3.673992673992674,1.6202686202686205,0.0,-2.59375,2.59375,1.1172161172161172,-2.4163614163614158,1.8669108669108667,0.0,-3.09375,2.375,2.354090354090354,-1.6862026862026862,2.9255189255189253,0.0,-4.4375,2.3125,0.8351648351648352,-0.6263736263736264,3.4993894993894994,0.0,-5.25,2.25,-0.6422466422466423,0.0,2.9877899877899887,0.65625,-4.84375,2.0,-1.2002442002442002,-1.8583638583638584,0.0,1.09375,-3.4375,2.125,-0.6874236874236874,-1.1623931623931625,0.9572649572649572,0.96875,-3.125,2.21875,0.8034188034188035,-1.2503052503052503,1.1697191697191698,1.1875,-3.09375,2.03125,0.8070818070818071,-1.4969474969474967,0.0,1.5,-3.3125,1.71875,0.8547008547008547,-1.8693528693528692,-1.2393162393162394,1.65625,-3.3125,1.5,2.3870573870573866,-2.5311355311355306,-1.943833943833944,1.34375,-3.25,1.28125,1.31990231990232,-1.297924297924298,0.0,0.75,-4.03125,1.0,-1.7680097680097682,0.0,-0.8791208791208791,0.9375,-3.9375,0.84375,-1.2625152625152625,-0.9230769230769232,-2.4285714285714284,1.5,-2.5625,0.84375,0.7264957264957265,-1.750915750915751,-2.727716727716728,1.5625,-1.8125,1.03125,1.2014652014652014,-1.47985347985348,-2.0305250305250304,1.34375,-2.15625,1.0625,-0.6239316239316239,-0.8705738705738706,-1.735042735042735,1.1875,-2.03125,0.8125,-1.4737484737484738,0.0,-1.4578754578754578,1.4375,-1.21875,0.875,0.0,-0.8754578754578755,-1.7582417582417582,1.59375,-0.78125,0.84375,0.0,-0.8449328449328449,-1.987789987789988,1.5625,-0.96875,0.8125,0.0,-0.6471306471306472,-2.586080586080586,1.5,-0.96875,0.78125,0.0,-0.5909645909645911,-3.4249084249084247,1.53125,0.0,0.78125,0.0,-0.7484737484737485,-4.087912087912088,1.5,0.0,0.75,1.1916971916971917,-1.1892551892551892,-4.4664224664224665,1.1875,0.0,0.625,0.9682539682539684,-0.9377289377289376,-4.400488400488402,0.875,0.0,0.0,1.641025641025641,-0.894993894993895,-4.089133089133089,0.625,0.0,0.0,2.131868131868132,-0.6947496947496947,-3.8021978021978016,0.0,0.0,0.0,1.4126984126984128,0.0,-3.4297924297924296,0.0,0.0,0.0,0.9951159951159952,0.0,-2.6666666666666665,0.0,0.0,0.0,0.0,0.5347985347985348,-1.8144078144078144,0.0,0.0,0.0,0.0,0.7057387057387058,-1.3174603174603174,0.0,0.0,0.0,0.0,0.5702075702075702,-1.1892551892551892,0.0,0.65625,0.0,0.0,0.0,-1.4957264957264955,0.0,0.9375,0.0,0.0,0.0,-2.1575091575091574,0.0,1.25,0.0,,,,,,,,,,,,,,,,,,,wp_backR
accX,-1.363858363858364,-6.630036630036631,0.0,0.0,-1.1875,0.6875,-2.3846153846153846,-6.5115995115995124,0.0,0.0,-1.78125,0.8125,-3.4884004884004884,-6.413919413919414,0.0,-0.59375,-2.1875,0.96875,-5.0317460317460325,-5.960927960927961,-0.9426129426129426,-0.6875,-2.25,1.25,-4.775335775335775,-6.410256410256411,-0.5543345543345544,-0.90625,-3.15625,1.9375,-5.428571428571429,-6.332112332112333,0.7863247863247863,-0.9375,-3.53125,2.40625,-4.871794871794871,-6.010989010989012,0.8253968253968254,-0.875,-2.9375,2.625,-2.7777777777777777,-5.2405372405372415,1.242979242979243,-0.78125,-2.4375,2.75,-0.8742368742368742,-4.3748473748473735,1.7167277167277166,-0.625,-2.96875,2.84375,0.0,-2.84004884004884,1.844932844932845,0.0,-3.84375,2.96875,0.0,-2.1526251526251525,1.1147741147741148,0.0,-3.9375,3.0,1.5262515262515262,-1.9694749694749696,1.0122100122100122,0.0,-3.375,2.8125,3.2222222222222223,-1.3858363858363858,1.7753357753357752,0.0,-4.09375,2.5,2.131868131868132,-0.6898656898656899,2.43956043956044,0.0,-5.59375,2.25,0.0,-0.9963369963369964,1.5555555555555556,0.59375,-6.28125,1.90625,0.0,-1.3089133089133091,0.8315018315018315,0.84375,-5.75,1.625,0.7655677655677655,-0.9157509157509156,0.6398046398046398,1.09375,-5.25,1.0,-0.5396825396825397,-0.8437118437118437,0.0,1.40625,-4.625,0.84375,-1.7631257631257633,0.0,-0.7643467643467643,1.90625,-3.375,0.96875,0.0,-0.5018315018315018,-1.7838827838827842,2.34375,-2.3125,1.21875,2.826617826617827,-2.5177045177045176,-2.838827838827839,2.09375,-2.34375,1.0625,1.7851037851037852,-1.5592185592185592,-2.5409035409035408,1.75,-2.5625,0.84375,0.0,-0.7362637362637363,-2.1575091575091574,1.75,-2.21875,0.8125,-0.8205128205128205,-0.5274725274725275,-1.8498168498168501,1.84375,-1.59375,0.875,0.0,-0.9047619047619048,-2.192918192918193,1.875,-1.09375,0.90625,0.0,-0.7960927960927959,-2.621489621489621,1.84375,-1.03125,0.96875,0.8290598290598291,-1.362637362637363,-3.245421245421245,1.65625,-0.90625,0.90625,0.6874236874236874,-0.8351648351648352,-3.2148962148962146,1.53125,-0.625,0.875,1.894993894993895,-1.1294261294261294,-2.758241758241758,1.625,0.0,0.78125,1.5030525030525033,-0.8595848595848596,-2.8974358974358974,1.5625,-0.78125,0.6875,0.9108669108669109,-1.3724053724053724,-3.3846153846153846,1.4375,-0.75,0.5625,0.0,-0.8962148962148963,-3.578754578754579,1.0625,0.0,0.0,0.6996336996336996,0.0,-3.1636141636141635,0.78125,0.0,0.0,1.1819291819291822,0.0,-2.7008547008547015,0.625,0.0,0.0,0.8034188034188035,0.0,-2.3956043956043955,0.59375,0.0,0.0,0.0,0.0,-2.3284493284493286,0.5625,0.0,0.0,0.0,0.0,-2.271062271062271,0.0,0.0,0.0,0.5885225885225885,0.0,-2.0378510378510377,0.0,0.0,0.0,0.0,0.0,-1.706959706959707,0.0,0.0,0.0,0.0,0.0,-1.4713064713064714,0.0,0.0,0.0,,,,,,,,,,,,,,,,,,,,,,,,,,,,,,,,,,,,,,,,,,,,,,,,,wp_backR
accX,-3.3174603174603177,-5.658119658119658,-1.641025641025641,0.0,-0.875,0.0,-3.653235653235653,-6.1941391941391934,-1.7692307692307692,0.0,-0.84375,0.6875,-3.9023199023199022,-6.496947496947497,-1.8608058608058609,0.0,-1.1875,0.84375,-4.492063492063492,-6.8949938949938945,-2.0268620268620268,-0.53125,-2.03125,1.1875,-4.9462759462759465,-7.034188034188035,-0.8400488400488401,-1.125,-3.75,1.6875,-6.746031746031746,-5.9523809523809526,1.264957264957265,-1.40625,-5.65625,2.3125,-7.277167277167277,-4.8058608058608066,2.6654456654456653,-1.125,-6.4375,2.84375,-6.507936507936507,-4.175824175824176,2.68986568986569,0.0,-5.3125,3.3125,-3.2185592185592187,-3.6984126984126986,2.4688644688644694,0.0,-4.4375,3.28125,-1.1391941391941391,-2.652014652014652,2.291819291819292,0.5625,-4.125,3.15625,0.0,-2.9084249084249083,1.0744810744810744,0.75,-3.59375,3.0625,3.1941391941391943,-3.2735042735042734,-0.5457875457875457,0.625,-2.96875,2.8125,4.661782661782662,-2.7301587301587302,-0.7045177045177046,0.0,-3.1875,2.25,3.692307692307693,-1.0891330891330893,0.6581196581196581,0.0,-4.5625,2.09375,0.8290598290598291,-0.7887667887667887,0.8986568986568987,0.6875,-4.9375,1.875,-0.6752136752136753,-1.2722832722832722,-1.3418803418803418,1.15625,-3.5,1.6875,-0.7252747252747253,-1.3333333333333333,-2.0891330891330893,1.40625,-1.625,1.59375,2.4322344322344316,-1.6776556776556777,-1.1355311355311355,1.15625,-1.71875,1.46875,3.183150183150183,-1.4590964590964588,0.0,0.78125,-3.28125,1.09375,-1.9963369963369964,-0.6483516483516484,0.0,1.28125,-2.9375,1.09375,0.0,-1.5421245421245422,-1.3968253968253967,1.53125,-2.21875,1.125,0.9694749694749696,-2.0183150183150182,-2.103785103785104,1.375,-1.875,1.03125,0.984126984126984,-1.021978021978022,-1.52014652014652,1.0625,-1.96875,0.8125,0.0,0.0,-0.5995115995115995,1.125,-2.03125,0.78125,-1.0,0.0,0.0,1.5,-1.78125,0.9375,-0.6239316239316239,-0.7130647130647131,0.0,1.90625,-1.25,1.0625,0.7460317460317459,-2.268620268620269,-2.3089133089133087,1.8125,-0.875,0.84375,1.0769230769230769,-1.4896214896214897,-3.3431013431013437,1.40625,-0.65625,0.625,1.2893772893772897,-0.9536019536019535,-3.2295482295482296,1.125,-0.75,0.78125,1.1514041514041513,-0.6349206349206349,-2.8253968253968256,1.125,-0.71875,0.78125,1.1782661782661783,-0.8547008547008547,-2.8974358974358974,1.125,0.0,0.75,1.4822954822954824,-1.242979242979243,-2.952380952380953,0.8125,-0.5625,0.6875,1.0305250305250304,-0.7948717948717948,-2.6043956043956045,0.0,-0.59375,0.625,0.7606837606837606,0.0,-2.240537240537241,0.0,0.0,0.53125,1.3003663003663004,0.0,-1.6275946275946276,0.625,-0.65625,0.0,1.0488400488400489,0.0,-1.4407814407814408,0.625,-0.71875,0.0,0.0,0.0,-1.1501831501831499,0.0,0.0,0.0,0.0,0.0,-1.1868131868131868,0.0,0.0,0.0,0.0,0.0,-1.2393162393162394,0.0,0.0,0.0,0.0,0.0,-1.3479853479853479,0.0,0.0,0.0,0.0,0.0,-1.6434676434676434,0.0,0.0,0.0,0.0,0.0,-1.884004884004884,0.0,0.0,0.0,0.0,-0.8266178266178266,-2.537240537240537,0.0,0.59375,0.0,0.0,-1.021978021978022,-2.6923076923076925,-0.78125,0.6875,0.0,,,,,,,,,,,,,,,,,,,,,,,,,wp_backR
accX,-3.56043956043956,-5.614163614163614,-0.8876678876678876,0.0,0.0,0.0,-3.0061050061050065,-6.312576312576313,-1.0952380952380951,0.0,-0.875,0.6875,-2.816849816849817,-6.827838827838828,-1.238095238095238,0.0,-1.59375,0.84375,-2.5494505494505493,-7.0305250305250295,-0.9865689865689866,-0.75,-3.0,1.0625,-3.2625152625152625,-6.616605616605615,0.0,-1.28125,-4.6875,1.5,-5.003663003663004,-5.416361416361417,1.2637362637362637,-1.375,-5.75,1.90625,-6.521367521367521,-4.409035409035409,1.8376068376068373,-0.8125,-5.34375,2.4375,-5.829059829059829,-4.527472527472527,1.120879120879121,0.0,-4.34375,2.6875,-4.322344322344321,-4.333333333333333,0.8498168498168498,0.0,-3.25,2.90625,-1.1697191697191698,-4.27960927960928,0.5824175824175825,0.0,-2.40625,3.03125,1.4029304029304028,-3.7374847374847375,0.0,0.5625,-2.25,2.96875,2.8083028083028077,-3.3455433455433456,0.0,0.65625,-2.46875,2.6875,2.1721611721611715,-2.6605616605616604,0.0,0.53125,-3.0,2.25,1.6324786324786325,-1.2747252747252746,1.144078144078144,0.0,-3.75,1.9375,0.6800976800976801,-1.017094017094017,0.5824175824175825,0.84375,-4.09375,1.9375,0.5079365079365079,-0.8876678876678876,0.0,1.28125,-3.375,1.875,2.216117216117216,-1.661782661782662,0.0,1.5625,-2.65625,1.8125,3.681318681318681,-1.7387057387057387,0.0,1.28125,-3.34375,1.40625,0.5653235653235653,-0.8339438339438342,0.8901098901098901,1.0625,-4.5625,1.0625,-2.3968253968253967,0.0,-0.7521367521367521,1.65625,-3.34375,1.125,-1.144078144078144,-1.5079365079365081,-2.361416361416361,1.875,-1.8125,1.0625,2.075702075702076,-1.608058608058608,-2.5970695970695967,1.75,-1.78125,0.96875,3.561660561660561,-1.2698412698412698,-1.78021978021978,1.53125,-2.75,0.8125,0.7460317460317459,0.0,-1.4151404151404152,1.65625,-2.71875,0.625,-1.5213675213675213,0.0,-1.4065934065934067,1.8125,-1.53125,0.71875,-0.811965811965812,-0.6605616605616605,-1.4261294261294262,1.78125,-0.59375,0.8125,1.293040293040293,-1.343101343101343,-1.5702075702075702,1.46875,-0.78125,0.625,1.7301587301587302,0.0,-1.68009768009768,1.28125,-1.5,0.53125,0.5567765567765568,0.0,-1.5042735042735045,1.46875,-1.6875,0.5625,-0.5091575091575091,0.0,-1.8742368742368745,1.65625,-0.96875,0.0,0.7216117216117216,-0.7057387057387058,-2.9035409035409034,1.375,0.0,0.0,1.192918192918193,-0.5262515262515263,-2.8241758241758244,1.21875,-0.5625,0.0,0.6178266178266179,0.0,-2.8766788766788767,1.125,-0.84375,0.0,0.0,0.0,-3.0,1.125,-0.71875,0.0,1.0183150183150182,-1.0,-3.221001221001221,0.96875,0.0,0.0,0.811965811965812,-0.5457875457875457,-2.924297924297924,0.625,0.0,0.0,0.6654456654456654,0.0,-2.571428571428572,0.0,0.0,0.0,0.6947496947496947,0.0,-2.242979242979243,0.0,0.0,0.0,0.0,0.0,-2.092796092796093,0.0,0.0,0.0,0.0,0.0,-1.7997557997557998,0.0,0.0,0.0,0.0,0.0,-1.0708180708180708,0.0,0.0,0.0,0.0,0.0,-0.5934065934065934,0.0,0.0,0.0,0.0,0.0,0.0,0.0,0.0,0.0,0.0,0.0,0.0,0.0,0.0,0.0,0.0,0.0,0.0,-0.59375,0.0,0.0,,,,,,,,,,,,,,,,,,,wp_backR
accX,-3.0183150183150182,-6.006105006105006,-1.7032967032967032,0.0,-1.1875,0.78125,-2.7362637362637363,-6.445665445665447,-0.978021978021978,0.0,-2.0625,1.09375,-4.388278388278389,-6.249084249084248,-0.8547008547008547,0.0,-2.71875,1.40625,-4.943833943833944,-6.666666666666668,-0.6837606837606838,0.0,-2.96875,1.75,-5.007326007326007,-6.965811965811965,0.0,0.0,-3.1875,2.0625,-5.103785103785103,-6.677655677655678,-0.6483516483516484,-0.5625,-3.375,2.5625,-4.472527472527473,-6.1562881562881575,0.0,-0.90625,-3.1875,2.8125,-3.1367521367521367,-4.490842490842492,1.3858363858363858,-0.71875,-3.4375,2.9375,-2.1941391941391943,-3.3748473748473753,1.8754578754578757,0.0,-3.875,3.0625,-1.5433455433455434,-2.0354090354090357,2.3418803418803416,0.0,-4.71875,3.1875,-1.137973137973138,-1.0329670329670328,2.7081807081807083,0.0,-5.3125,3.34375,-0.6959706959706959,-0.9304029304029304,2.1245421245421245,0.71875,-5.03125,3.34375,0.0,-1.3406593406593406,0.8156288156288156,1.0625,-4.09375,3.03125,1.4920634920634919,-2.0488400488400487,-0.5079365079365079,0.96875,-3.3125,2.6875,2.57997557997558,-1.8339438339438336,0.0,0.0,-3.75,2.5,1.1904761904761905,-0.6776556776556777,0.5396825396825397,0.0,-4.15625,2.46875,0.0,0.0,0.0,0.96875,-3.34375,2.375,0.8888888888888888,0.0,-1.376068376068376,1.4375,-1.75,1.75,3.641025641025641,-1.4151404151404152,-2.0183150183150182,0.75,-2.34375,1.34375,1.5995115995115996,0.0,-0.9401709401709402,0.0,-3.0625,1.09375,-0.8754578754578755,0.5738705738705738,-0.6691086691086691,0.96875,-3.0,0.9375,-0.8705738705738706,0.0,-0.6312576312576312,1.21875,-2.5625,1.0625,0.0,-1.0256410256410255,-1.286935286935287,1.09375,-2.25,1.09375,0.0,-0.514041514041514,-1.912087912087912,0.90625,-1.625,0.8125,0.8754578754578755,0.0,-2.0769230769230766,1.15625,-1.09375,0.84375,1.8363858363858363,-0.9035409035409036,-2.11965811965812,1.4375,-0.90625,0.875,1.8559218559218558,-0.8778998778998779,-1.8302808302808304,1.34375,-1.25,0.9375,0.6495726495726496,-1.3162393162393162,-1.9768009768009769,1.28125,-1.4375,0.84375,0.0,-0.7326007326007326,-1.9462759462759465,1.125,-0.875,0.625,0.0,0.0,-1.4603174603174602,1.125,0.0,0.78125,2.1062271062271063,-0.7631257631257631,-1.3333333333333333,1.09375,0.0,0.6875,1.8778998778998781,-0.78998778998779,-1.641025641025641,0.96875,-1.125,0.59375,0.0,-0.7728937728937729,-2.061050061050061,0.96875,-0.96875,0.0,0.0,-0.6825396825396826,-2.3907203907203907,0.9375,0.0,0.0,0.5067155067155067,-0.8608058608058609,-2.5225885225885225,0.84375,0.0,0.0,1.5128205128205128,-0.9902319902319904,-2.4603174603174605,0.65625,0.0,0.0,1.4371184371184371,-1.1477411477411477,-2.6056166056166057,0.0,0.0,0.0,0.5811965811965812,-0.7814407814407814,-2.3785103785103785,0.0,0.0,0.0,0.0,0.0,-2.04029304029304,0.0,0.0,0.0,0.0,0.0,-1.3553113553113554,0.0,0.0,0.0,0.0,0.0,-1.1428571428571428,0.0,0.0,0.0,0.0,0.0,-0.912087912087912,0.0,0.0,0.0,0.0,0.0,-1.051282051282051,0.0,0.0,0.0,0.0,-0.6043956043956044,-1.5824175824175823,-0.5625,0.0,0.0,,,,,,,,,,,,,,,,,,,,,,,,,wp_backR
accX,-2.0207570207570207,-6.317460317460317,0.0,0.0,-1.375,0.78125,-2.8949938949938954,-6.039072039072039,-0.7362637362637363,0.0,-1.78125,0.96875,-2.84004884004884,-6.261294261294261,-0.5604395604395604,0.0,-2.6875,1.28125,-3.1709401709401708,-6.332112332112333,0.0,-0.5625,-4.0625,1.8125,-3.3296703296703303,-6.052503052503053,0.8986568986568987,-0.84375,-5.125,2.4375,-3.5360195360195363,-4.7484737484737485,1.884004884004884,-0.75,-5.53125,2.90625,-3.9645909645909647,-3.725274725274725,0.7032967032967034,0.0,-4.75,2.9375,-5.0024420024420015,-3.404151404151404,0.0,0.0,-3.75,2.6875,-4.495726495726496,-3.0549450549450547,0.0,0.0,-2.59375,2.84375,-2.9694749694749696,-2.8241758241758244,0.0,0.0,-1.65625,3.09375,-0.6092796092796092,-2.838827838827839,0.0,0.0,-1.125,3.125,1.7252747252747254,-3.063492063492064,0.0,0.0,-1.40625,2.84375,2.230769230769231,-2.231990231990232,0.5653235653235653,0.0,-2.5,2.4375,0.6336996336996337,-0.9609279609279608,0.5543345543345544,0.0,-3.28125,2.40625,0.9633699633699634,-0.8852258852258852,0.0,0.0,-2.78125,2.3125,2.5579975579975582,-1.2368742368742371,0.0,0.0,-1.90625,2.03125,6.002442002442003,-2.772893772893773,0.0,0.0,-2.21875,1.6875,4.927960927960927,-1.1416361416361416,1.6593406593406594,0.0,-4.59375,1.1875,-1.1025641025641026,0.7130647130647131,1.5482295482295485,0.5625,-5.4375,0.8125,-3.836385836385837,0.0,-0.63003663003663,1.21875,-3.21875,0.9375,0.7496947496947497,-2.2771672771672766,-1.2161172161172158,0.8125,-2.75,0.90625,4.478632478632479,-2.8937728937728937,0.0,0.0,-4.59375,0.625,0.0,0.0,1.1428571428571428,0.0,-4.9375,0.0,-3.874236874236874,1.6141636141636142,0.9304029304029304,0.75,-3.09375,0.0,-2.5702075702075704,0.0,0.0,1.46875,-1.5,0.65625,0.0,-1.586080586080586,-1.4835164835164836,1.3125,-1.25,0.6875,1.3015873015873016,-1.2527472527472527,-2.0744810744810747,1.09375,-1.625,0.625,0.0,0.0,-1.7789987789987791,1.1875,-1.65625,0.5625,0.0,0.0,-1.5152625152625152,1.53125,-1.1875,0.53125,0.0,-0.8229548229548229,-1.8974358974358971,1.53125,-0.90625,0.53125,0.0,-0.9242979242979243,-2.8412698412698414,1.25,-0.71875,0.0,0.0,-0.5274725274725275,-2.8437118437118434,1.09375,-0.625,0.0,0.0,0.0,-2.8522588522588523,1.1875,-0.53125,0.0,0.5115995115995116,-0.8278388278388278,-3.333333333333333,1.15625,0.0,0.0,1.0256410256410255,-0.9206349206349206,-3.5677655677655684,0.84375,0.0,0.0,0.6190476190476191,0.0,-3.3870573870573866,0.0,0.0,0.0,0.0,0.0,-3.144078144078144,0.0,0.0,0.0,0.0,0.0,-2.7997557997558,0.0,0.0,0.0,1.0195360195360197,0.0,-2.3821733821733817,0.0,0.0,0.0,0.6105006105006106,0.0,-1.989010989010989,0.0,0.0,0.0,0.0,0.0,-1.6862026862026862,0.0,0.0,0.0,-1.0463980463980465,0.0,-1.2136752136752136,0.0,0.0,0.0,-0.6715506715506715,0.0,-0.9731379731379732,0.0,0.75,0.0,,,,,,,,,,,,,,,,,,,,,,,,,,,,,,,wp_backR
accX,-3.398046398046398,-6.0586080586080575,-2.412698412698413,0.0,-0.78125,0.5625,-3.7997557997558,-6.05128205128205,-2.0427350427350426,0.0,-1.125,0.78125,-4.131868131868131,-6.4774114774114775,-1.4761904761904765,0.0,-1.46875,1.21875,-4.666666666666667,-7.1562881562881575,-1.442002442002442,0.0,-2.0625,1.59375,-4.368742368742368,-6.962148962148963,-0.5921855921855922,-1.03125,-3.09375,2.09375,-4.787545787545787,-6.262515262515263,0.9291819291819292,-1.3125,-4.25,2.625,-5.177045177045176,-5.316239316239317,1.8180708180708183,-1.125,-4.78125,3.03125,-5.532356532356533,-4.57020757020757,1.9291819291819288,-0.8125,-4.40625,3.28125,-3.5128205128205128,-4.5103785103785095,1.8937728937728937,0.0,-3.34375,3.25,0.0,-4.655677655677657,2.1721611721611715,-0.53125,-3.53125,2.96875,0.0,-2.758241758241758,3.4420024420024418,-0.53125,-5.125,2.875,-1.155067155067155,-1.4358974358974361,4.0256410256410255,0.0,-5.90625,2.96875,-1.2527472527472527,-1.6068376068376071,2.5946275946275947,0.5625,-5.1875,2.90625,0.0,-2.5225885225885225,0.851037851037851,1.0,-3.9375,2.5625,2.6935286935286937,-3.2136752136752142,0.8070818070818071,0.53125,-4.59375,2.15625,1.7533577533577531,-2.15018315018315,1.1343101343101345,0.0,-5.15625,1.9375,0.8168498168498168,-1.0671550671550671,0.0,1.25,-4.375,1.625,1.5018315018315018,-1.8461538461538465,-1.6837606837606838,1.875,-3.34375,1.1875,3.3296703296703303,-3.137973137973138,-2.769230769230769,1.53125,-3.4375,0.75,1.927960927960928,-2.728937728937729,-2.525030525030525,0.90625,-3.625,0.0,-1.9743589743589745,0.0,-3.336996336996337,1.375,-1.71875,0.875,1.8803418803418803,-1.7838827838827842,-4.152625152625153,1.5,-0.84375,1.0625,2.909645909645909,-1.706959706959707,-4.445665445665447,1.3125,-1.375,0.96875,2.21978021978022,-1.286935286935287,-4.028083028083028,0.875,-1.90625,0.625,0.0,0.0,-2.8351648351648358,0.65625,-1.9375,0.53125,0.0,0.0,-2.056166056166056,0.96875,-1.21875,0.59375,0.7509157509157509,0.0,-1.6019536019536018,1.21875,-0.84375,0.71875,0.9633699633699634,0.0,-1.3040293040293038,1.3125,-1.125,0.71875,0.6117216117216118,-0.5897435897435898,-1.6532356532356531,1.34375,-1.375,0.5625,0.0,-0.8852258852258852,-2.051282051282051,1.1875,-1.25,0.0,0.0,0.0,-1.9914529914529917,1.03125,-0.96875,0.0,0.0,0.0,-2.148962148962149,1.03125,-0.65625,0.0,0.0,0.0,-2.5457875457875456,0.9375,0.0,0.0,0.7277167277167277,-0.8754578754578755,-2.9413919413919416,0.59375,-0.625,0.0,0.0,-0.5262515262515263,-2.8095238095238093,0.0,-0.625,0.0,-0.514041514041514,0.0,-2.6080586080586077,0.0,0.0,0.0,0.0,0.0,-2.3943833943833943,0.0,0.0,0.0,0.0,-0.8656898656898657,-2.37973137973138,0.0,0.0,0.0,0.0,-0.8437118437118437,-2.1648351648351647,0.0,0.0,0.0,0.0,-0.514041514041514,-2.025641025641025,-0.59375,0.0,0.0,,,,,,,,,,,,,,,,,,,,,,,,,,,,,,,,,,,,,,,,,,,,,,,,,wp_backR
accX,-3.641025641025641,-6.124542124542124,-2.051282051282051,0.0,-0.59375,0.53125,-2.752136752136752,-6.809523809523809,-1.4407814407814408,0.0,-1.0625,0.875,-3.3992673992673987,-6.483516483516484,-1.1306471306471306,0.0,-1.71875,1.125,-5.046398046398046,-6.434676434676435,-1.5421245421245422,-0.59375,-2.0625,1.8125,-5.815628815628816,-7.191697191697192,-1.9206349206349207,-0.78125,-1.71875,2.25,-5.362637362637362,-7.704517704517706,-1.4810744810744811,-1.03125,-1.53125,2.59375,-3.5775335775335777,-7.914529914529915,0.0,-1.09375,-1.9375,2.96875,-1.9181929181929185,-7.242979242979241,1.0683760683760684,-0.96875,-2.875,3.1875,-1.1697191697191698,-5.244200244200244,2.0134310134310134,-0.875,-3.9375,3.375,-0.7667887667887668,-3.235653235653236,2.003663003663004,-0.96875,-4.65625,3.21875,-1.1013431013431014,-1.752136752136752,1.815628815628816,-1.125,-4.4375,3.03125,0.0,-0.5677655677655677,1.8925518925518925,-0.8125,-3.8125,2.96875,1.5677655677655675,0.0,1.623931623931624,0.0,-3.5,2.75,2.47008547008547,0.0,1.7741147741147743,0.0,-4.1875,2.5,1.5335775335775337,0.0,2.4517704517704515,0.0,-5.625,2.25,-1.5274725274725274,0.0,1.166056166056166,0.0,-6.5,1.96875,-1.85958485958486,-1.0976800976800978,-1.094017094017094,0.59375,-5.125,1.78125,2.2185592185592187,-2.2503052503052503,-1.8388278388278387,0.5625,-3.875,1.71875,2.547008547008547,-1.9194139194139197,-0.8815628815628815,0.0,-4.65625,1.4375,-0.9487179487179488,0.0,1.242979242979243,0.0,-5.15625,0.90625,-3.003663003663004,0.0,0.0,0.0,-4.0625,0.6875,-0.8485958485958486,-1.3284493284493284,-1.3406593406593406,1.0625,-2.65625,0.8125,1.1672771672771671,-1.9181929181929185,-2.214896214896215,0.84375,-2.46875,0.9375,0.5311355311355311,-0.5213675213675214,-1.728937728937729,0.6875,-2.71875,0.6875,-0.8913308913308914,0.0,-1.2185592185592184,1.09375,-2.46875,0.53125,-0.8302808302808303,0.0,-1.0354090354090355,1.71875,-1.84375,0.625,0.7680097680097681,-1.2918192918192921,-1.868131868131868,1.9375,-1.75,0.65625,0.0,-1.5897435897435896,-2.9462759462759465,1.625,-1.75,0.0,-1.2686202686202686,0.0,-3.4004884004884004,1.625,-1.09375,0.0,0.0,0.0,-3.5726495726495733,1.75,-0.8125,0.0,0.0,-0.6776556776556777,-4.057387057387056,1.71875,-0.8125,0.0,0.0,-0.9804639804639804,-4.831501831501831,1.5,-0.625,0.53125,0.7985347985347986,-1.7692307692307692,-5.568986568986569,0.90625,0.0,0.0,0.9352869352869352,-0.7667887667887668,-5.221001221001221,0.0,0.0,0.0,1.0415140415140416,0.0,-4.467643467643468,0.0,0.0,0.0,1.431013431013431,0.0,-3.978021978021978,0.0,0.0,0.0,1.4566544566544566,0.0,-3.3809523809523814,0.0,0.0,0.0,0.8168498168498168,0.0,-2.765567765567765,0.0,0.0,0.0,0.0,0.6788766788766789,-1.4029304029304028,0.0,0.0,0.0,-0.5555555555555556,1.0415140415140416,-1.2344322344322345,0.0,0.5625,0.0,0.0,0.0,-1.5128205128205128,0.0,0.78125,0.0,0.0,0.0,-2.0268620268620268,0.0,1.0,0.0,,,,,,,,,,,,,,,,,,,,,,,,,,,,,,,,,,,,,wp_backR
accX,-3.6361416361416365,-7.213675213675214,-2.0183150183150182,0.0,-1.625,1.125,-5.135531135531137,-7.261294261294261,-2.2905982905982905,-0.625,-2.1875,1.46875,-4.996336996336996,-7.536019536019536,-1.8901098901098898,-1.03125,-3.03125,2.03125,-5.495726495726496,-7.037851037851037,-0.9059829059829059,-1.25,-3.90625,2.53125,-6.322344322344322,-5.527472527472527,0.0,-1.28125,-4.125,3.0,-6.113553113553113,-4.241758241758242,0.0,-1.28125,-3.09375,3.25,-3.7240537240537237,-3.0805860805860807,0.9633699633699634,-1.25,-2.21875,3.1875,-0.7545787545787546,-1.5702075702075702,1.568986568986569,-1.21875,-2.59375,3.3125,2.1648351648351647,-0.6935286935286935,2.5164835164835164,-0.9375,-4.875,3.375,1.7045177045177045,-0.5555555555555556,2.1074481074481075,0.0,-5.59375,3.0625,1.5738705738705738,-1.0866910866910866,1.1819291819291822,0.0,-5.53125,2.53125,1.4725274725274726,-1.2747252747252746,0.0,0.0,-5.15625,2.125,0.894993894993895,-0.78998778998779,0.0,0.0,-4.625,1.78125,2.358974358974359,-1.2234432234432235,0.0,0.0,-3.96875,1.6875,3.282051282051282,-1.0586080586080586,0.0,0.5625,-4.0625,1.34375,1.7997557997557998,-0.956043956043956,0.0,0.65625,-4.59375,0.96875,-0.5079365079365079,-0.9047619047619048,-0.9145299145299144,0.84375,-4.40625,0.6875,-1.0573870573870574,-0.7496947496947497,-1.8302808302808304,0.90625,-3.46875,0.625,0.0,-0.9768009768009768,-2.2124542124542126,1.09375,-2.34375,0.84375,1.912087912087912,-0.5787545787545788,-0.9218559218559218,1.125,-2.53125,0.78125,1.0366300366300367,0.0,0.0,1.3125,-2.6875,0.5625,0.0,-1.126984126984127,-1.6300366300366298,1.1875,-2.03125,0.0,-1.083028083028083,0.0,-1.6862026862026862,1.1875,-1.28125,0.0,0.0,0.0,-1.5225885225885225,1.3125,-1.125,0.5625,1.0231990231990231,0.0,-1.537240537240537,1.4375,-1.5,0.53125,0.0,0.0,-1.8388278388278387,1.53125,-1.625,0.53125,0.0,-0.8351648351648352,-2.4615384615384617,1.46875,-1.25,0.0,0.0,-0.7728937728937729,-2.774114774114774,1.375,-0.71875,0.0,0.6312576312576312,-0.6923076923076923,-2.887667887667888,1.34375,0.0,0.0,1.1904761904761905,-0.934065934065934,-3.1660561660561664,1.15625,0.0,0.0,1.465201465201465,-0.78998778998779,-3.3540903540903533,0.875,-0.53125,0.0,0.0,0.0,-2.9951159951159956,0.0,0.0,0.0,0.8290598290598291,0.0,-2.63980463980464,0.0,0.0,0.0,0.9902319902319904,0.0,-2.4444444444444446,0.0,0.0,0.0,0.0,0.0,-2.268620268620269,0.0,0.0,0.0,0.0,0.0,-1.8547008547008548,0.0,0.0,0.0,-0.6556776556776557,0.0,-1.3943833943833943,0.0,0.0,0.0,-0.5042735042735043,0.0,-1.1709401709401708,0.0,0.0,0.0,0.0,0.0,-1.3675213675213675,0.0,0.65625,0.0,,,,,,,,,,,,,,,,,,,,,,,,,,,,,,,,,,,,,,,,,,,,,,,,,,,,,,,wp_backR
accX,-5.3760683760683765,-6.515262515262514,-1.0195360195360197,-0.5625,-3.40625,1.5625,-7.0134310134310125,-6.6361416361416365,-0.7545787545787546,-0.71875,-3.6875,2.15625,-6.705738705738707,-6.5054945054945055,-0.6886446886446886,-0.8125,-3.40625,2.5625,-5.654456654456655,-5.86080586080586,0.0,-1.0,-3.0,2.84375,-4.1892551892551895,-4.94993894993895,0.0,-1.09375,-2.78125,3.0625,-2.9413919413919416,-3.94993894993895,0.8815628815628815,-1.0625,-2.875,3.21875,-0.9963369963369964,-3.389499389499389,0.6984126984126984,-1.0625,-2.71875,3.34375,1.7484737484737485,-2.2026862026862033,1.3406593406593406,-1.09375,-3.0,3.15625,2.467643467643468,-0.8009768009768009,2.4920634920634916,-1.0,-4.40625,3.03125,0.9572649572649572,0.0,2.9365079365079363,0.0,-5.8125,2.71875,-0.6935286935286935,0.0,1.105006105006105,0.0,-5.59375,2.5625,2.263736263736264,-2.1123321123321124,0.0,0.96875,-3.625,2.09375,4.130647130647131,-2.0818070818070815,0.0,0.78125,-4.09375,1.53125,3.2246642246642248,-1.4041514041514038,0.8449328449328449,0.625,-5.1875,1.1875,0.0,0.0,0.9523809523809524,1.0625,-4.875,1.03125,-1.3028083028083028,0.0,0.0,1.6875,-3.46875,1.0625,0.5018315018315018,-2.2283272283272284,-1.7936507936507935,1.6875,-2.375,0.875,1.5494505494505495,-2.2210012210012207,-2.5579975579975582,1.25,-2.28125,0.8125,0.8644688644688645,-0.9816849816849816,-2.1294261294261294,1.125,-2.3125,0.71875,0.0,0.514041514041514,-1.0903540903540905,1.6875,-1.90625,0.875,0.6544566544566545,-0.7484737484737485,-1.6825396825396826,2.03125,-1.5,0.96875,1.7728937728937728,-2.0854700854700856,-2.5164835164835164,1.71875,-1.375,0.65625,1.424908424908425,-1.391941391941392,-2.768009768009768,1.375,-1.46875,0.0,-0.8412698412698413,0.0,-2.137973137973138,1.46875,-1.125,0.0,0.0,-0.7509157509157509,-2.242979242979243,1.5,-0.875,0.0,0.0,-0.8461538461538461,-2.3736263736263736,1.3125,-1.125,0.5625,0.0,-0.8021978021978022,-2.4688644688644694,1.0625,-1.0625,0.0,0.0,0.0,-2.142857142857143,0.90625,-0.875,0.0,0.0,-0.5384615384615384,-2.3687423687423688,0.9375,-0.65625,0.0,0.8339438339438342,-0.6031746031746031,-2.8241758241758244,0.875,0.0,0.0,0.7179487179487181,-0.8693528693528694,-3.3968253968253967,0.65625,0.0,0.0,0.0,0.0,-3.272283272283272,0.0,0.0,0.0,0.0,0.0,-2.8522588522588523,0.0,0.0,0.0,0.9609279609279608,0.0,-2.3553113553113554,0.0,0.0,0.0,1.0073260073260073,0.0,-1.962148962148962,0.0,0.0,0.0,0.5115995115995116,0.0,-1.9548229548229548,0.0,0.0,0.0,0.0,0.0,-2.043956043956044,0.0,0.0,0.0,0.0,0.0,-2.13064713064713,-0.6875,0.8125,0.0,0.0,-0.5091575091575091,-2.195360195360196,-0.875,1.15625,0.0,,,,,,,,,,,,,,,,,,,,,,,,,,,,,,,,,,,,,,,,,,,,,,,,,,,,,,,wp_backR
accX,-1.8229548229548234,-6.614163614163614,-0.956043956043956,0.0,-2.34375,1.125,-3.3528693528693534,-6.157509157509158,0.0,-0.75,-3.34375,1.46875,-4.123321123321123,-5.997557997557997,0.0,-0.84375,-3.90625,1.78125,-4.572649572649572,-5.6129426129426125,0.5860805860805861,-0.71875,-4.3125,1.90625,-5.400488400488402,-4.874236874236874,1.0134310134310134,-0.6875,-5.03125,2.125,-5.981684981684983,-4.136752136752137,1.3064713064713065,-0.75,-5.3125,2.5625,-5.542124542124542,-3.5885225885225887,1.1172161172161172,-0.6875,-4.125,2.84375,-4.634920634920634,-3.1074481074481075,1.0427350427350428,0.0,-2.90625,2.71875,-2.6581196581196584,-3.028083028083028,1.0158730158730158,0.0,-2.46875,2.59375,-1.4713064713064714,-2.3785103785103785,0.7533577533577533,0.0,-2.65625,2.6875,1.0134310134310134,-2.9328449328449326,0.0,0.0,-2.75,2.65625,1.824175824175824,-2.268620268620269,0.0,0.0,-2.40625,2.53125,4.017094017094017,-1.7167277167277166,0.9511599511599512,0.0,-2.75,2.09375,3.407814407814408,-0.8632478632478633,1.6691086691086692,0.0,-3.75,1.59375,1.7863247863247864,-0.6227106227106227,1.2942612942612943,0.71875,-4.5,1.5625,0.873015873015873,-0.7875457875457875,0.0,1.0625,-4.4375,1.4375,0.0,-1.1465201465201464,0.0,1.3125,-3.40625,1.1875,0.0,-0.7606837606837606,-0.9902319902319904,1.5,-2.15625,1.21875,2.323565323565324,-1.931623931623932,-1.4371184371184371,1.5625,-0.9375,1.15625,4.516483516483516,-2.2295482295482296,-1.1001221001221002,1.46875,-1.375,0.96875,3.0415140415140414,-1.8754578754578757,-0.5506715506715507,1.21875,-2.78125,0.75,0.0,-0.8974358974358975,0.0,1.25,-3.15625,0.0,-1.3040293040293038,-0.5714285714285714,-0.5628815628815629,1.5,-2.46875,0.0,0.0,-1.1257631257631258,-1.3150183150183148,1.625,-1.625,0.59375,0.9474969474969476,-1.1062271062271063,-1.6581196581196582,1.59375,-1.8125,0.75,0.6507936507936508,-0.9487179487179488,-1.8693528693528692,1.5,-2.15625,0.71875,0.0,-1.0134310134310134,-2.2051282051282053,1.46875,-2.0,0.59375,-0.6019536019536019,-0.5909645909645911,-2.288156288156288,1.4375,-1.15625,0.5625,0.0,-0.7594627594627594,-2.5482295482295485,1.5625,0.0,0.6875,2.1782661782661785,-0.9963369963369964,-2.5995115995116,1.40625,-0.65625,0.625,2.0659340659340657,-0.5726495726495726,-2.6654456654456653,1.25,-1.28125,0.0,0.0,0.0,-3.0012210012210017,1.15625,-1.0625,0.0,0.0,-0.5653235653235653,-3.313797313797314,1.0,0.0,0.0,0.0,-0.5006105006105006,-3.240537240537241,0.75,0.0,0.0,1.78998778998779,-0.5433455433455433,-2.952380952380953,0.0,0.0,0.0,2.9963369963369964,0.0,-2.3956043956043955,0.0,-0.78125,0.0,0.9084249084249084,0.0,-2.063492063492064,0.0,-0.90625,0.0,-0.5897435897435898,0.0,-2.1111111111111107,0.0,0.0,0.0,0.0,0.0,-2.173382173382173,0.0,0.65625,0.0,0.0,0.0,-2.1587301587301586,0.0,0.84375,0.0,0.7802197802197802,0.0,-2.1074481074481075,-0.5625,0.6875,0.0,,,,,,,,,,,,,,,,,,,,,,,,,,,,,,,,,,,,,,,,,,,wp_backR
accX,-3.813186813186813,-6.349206349206349,-1.0879120879120878,0.0,-2.5,1.375,-3.913308913308913,-6.1037851037851025,0.0,0.0,-3.21875,1.78125,-4.079365079365079,-5.803418803418803,0.7838827838827839,-0.59375,-3.78125,2.21875,-2.388278388278388,-5.415140415140415,1.7435897435897436,-0.65625,-4.53125,2.46875,-1.083028083028083,-4.695970695970696,2.5177045177045176,-0.78125,-5.375,2.53125,-1.094017094017094,-3.221001221001221,2.4163614163614158,-0.71875,-5.4375,2.71875,-1.4529914529914532,-2.8107448107448105,1.2295482295482296,-0.59375,-4.40625,2.6875,-0.9010989010989012,-2.2014652014652016,1.0305250305250304,-0.53125,-3.46875,2.34375,-0.5616605616605617,-1.4578754578754578,1.0488400488400489,0.0,-2.59375,2.15625,0.0,-1.31990231990232,1.1782661782661783,0.0,-2.46875,2.0625,1.1294261294261294,-1.2283272283272284,1.5921855921855919,0.0,-3.03125,1.96875,0.0,-0.9951159951159952,1.735042735042735,0.0,-3.78125,1.71875,-0.7252747252747253,-0.6935286935286935,1.0390720390720392,0.0,-3.78125,1.59375,0.0,-1.286935286935287,0.0,0.71875,-2.75,1.5,1.9902319902319905,-1.3882783882783882,1.123321123321123,0.5625,-2.6875,1.40625,0.7875457875457875,-0.7777777777777778,1.7741147741147743,0.0,-3.65625,1.125,-0.9047619047619048,0.0,0.6898656898656899,0.6875,-3.84375,0.8125,-1.5592185592185592,0.0,-0.7948717948717948,1.15625,-2.8125,0.78125,0.7680097680097681,-1.4029304029304028,-1.2344322344322345,1.28125,-1.78125,0.8125,2.267399267399268,-0.9304029304029304,0.0,1.03125,-2.09375,0.75,0.7118437118437119,-0.5421245421245421,0.0,0.90625,-2.59375,0.0,-1.115995115995116,0.0,0.0,1.375,-1.8125,0.0,0.0,0.0,-0.9804639804639804,1.75,-1.40625,0.625,1.3284493284493284,-0.9902319902319904,-1.5616605616605617,1.6875,-1.625,0.5625,0.7704517704517705,-1.1562881562881564,-1.8327228327228329,1.40625,-1.78125,0.0,0.0,0.0,-1.6422466422466422,1.34375,-1.375,0.0,0.0,0.0,-1.2014652014652014,1.6875,-0.96875,0.59375,0.0,0.0,-1.3516483516483515,2.0,-0.8125,0.6875,0.7594627594627594,-1.1819291819291822,-2.477411477411477,1.9375,-0.875,0.625,1.0695970695970696,-1.1623931623931625,-3.3492063492063493,1.6875,-1.0625,0.53125,0.6886446886446886,-0.6031746031746031,-4.122100122100122,1.59375,-0.875,0.53125,0.0,-0.8876678876678876,-5.029304029304028,1.375,0.0,0.53125,1.7692307692307692,-1.1526251526251523,-5.589743589743589,0.90625,0.0,0.53125,1.641025641025641,-0.8913308913308914,-4.816849816849817,0.0,0.0,0.0,0.0,0.0,-3.7338217338217334,0.0,0.0,0.0,0.0,0.0,-2.6971916971916974,0.0,0.0,0.0,0.0,0.0,-2.004884004884005,0.0,0.0,0.0,0.0,0.0,-1.5909645909645909,0.0,0.0,0.0,0.0,0.7118437118437119,-1.1257631257631258,0.0,0.0,0.0,0.0,0.6312576312576312,-1.1452991452991452,0.0,0.0,0.0,-0.5934065934065934,0.0,-1.6349206349206349,0.0,0.0,0.0,-0.6862026862026862,0.0,-2.511599511599512,-0.53125,0.9375,0.0,,,,,,,,,,,,,,,,,,,,,,,,,,,,,,,,,,,,,wp_backR
accX,-4.4822954822954815,-6.017094017094017,0.0,0.0,-1.65625,1.28125,-3.2197802197802203,-6.249084249084248,0.0,0.0,-1.09375,1.8125,-0.8388278388278388,-8.328449328449329,0.0,-0.6875,-1.15625,1.96875,0.0,-7.435897435897436,0.9572649572649572,-1.3125,-2.78125,2.21875,-1.691086691086691,-5.377289377289378,2.0329670329670333,-1.40625,-4.84375,2.59375,-4.147741147741148,-3.720390720390721,1.987789987789988,-1.0,-5.625,2.875,-3.189255189255189,-3.6703296703296697,1.2405372405372406,-0.71875,-4.90625,3.09375,-1.4029304029304028,-2.7191697191697197,1.3601953601953602,-0.71875,-4.28125,2.875,0.0,-1.7118437118437118,1.636141636141636,-0.71875,-4.59375,2.65625,0.8852258852258852,-1.2344322344322345,2.1404151404151404,-0.625,-5.46875,2.53125,-0.5763125763125763,-0.9133089133089132,1.6422466422466422,0.0,-5.9375,2.40625,-1.3418803418803418,-0.9304029304029304,0.7582417582417582,0.0,-4.90625,2.09375,0.0,-1.5518925518925517,0.0,0.53125,-3.71875,1.71875,0.7838827838827839,-0.9877899877899878,0.0,0.53125,-3.96875,1.53125,1.05006105006105,0.0,0.0,0.75,-4.28125,1.5625,0.8449328449328449,0.0,-1.2954822954822955,1.40625,-3.375,1.40625,1.5824175824175823,-1.2991452991452992,-2.1794871794871797,1.625,-2.5,0.9375,2.244200244200244,-1.2222222222222223,-1.7973137973137974,1.34375,-2.6875,0.75,0.0,0.0,-0.7582417582417582,1.3125,-2.96875,0.6875,-0.7936507936507936,0.0,-0.6385836385836385,1.84375,-2.59375,0.8125,-0.6495726495726496,0.0,-1.7130647130647132,2.375,-1.8125,0.9375,1.0586080586080586,-2.5836385836385842,-4.046398046398046,1.9375,-1.21875,0.625,1.2612942612942613,-1.525030525030525,-3.9181929181929176,1.25,-1.09375,0.0,1.061050061050061,0.0,-2.912087912087912,1.125,-1.25,0.5625,0.0,0.0,-2.1636141636141635,1.5625,-0.90625,0.59375,0.0,-0.7277167277167277,-2.053724053724053,1.6875,-0.625,0.78125,1.2332112332112333,-1.2735042735042734,-2.3150183150183152,1.5,-0.6875,0.71875,1.1501831501831499,-0.7619047619047619,-2.3846153846153846,1.21875,-0.8125,0.53125,0.7350427350427351,0.0,-2.4285714285714284,1.15625,-0.78125,0.0,0.7936507936507936,0.0,-2.68986568986569,1.1875,-0.53125,0.0,1.2808302808302807,-0.6214896214896215,-3.175824175824176,1.15625,0.0,0.0,1.0598290598290598,-0.5604395604395604,-3.4945054945054945,0.84375,0.0,0.0,0.0,0.0,-3.449328449328449,0.5625,0.0,0.0,0.0,0.0,-3.2332112332112333,0.0,0.0,0.0,0.0,0.0,-2.9633699633699635,0.0,0.0,0.0,0.0,0.0,-2.573870573870574,0.0,0.0,0.0,0.0,0.0,-1.9047619047619049,0.0,0.0,0.0,0.0,0.0,-1.3577533577533578,0.0,0.0,0.0,0.0,0.0,-1.5396825396825398,0.0,0.0,0.0,0.0,0.0,-2.1623931623931623,-0.625,0.71875,0.0,,,,,,,,,,,,,,,,,,,,,,,,,,,,,,,,,,,,,,,,,,,,,,,,,wp_backR
accX,-6.1672771672771685,-6.647130647130648,-2.236874236874237,0.0,-1.4375,0.90625,-6.183150183150183,-6.898656898656899,-1.6984126984126984,0.0,-1.65625,1.375,-5.283272283272283,-7.009768009768009,-1.021978021978022,-0.625,-2.09375,1.84375,-4.9682539682539675,-7.410256410256411,-0.536019536019536,-0.90625,-2.65625,2.28125,-4.245421245421245,-6.648351648351648,0.0,-1.34375,-3.1875,2.6875,-3.1062271062271063,-5.8058608058608066,1.3467643467643469,-1.375,-3.4375,3.0,-1.3186813186813189,-4.875457875457876,1.8998778998779,-1.21875,-3.6875,3.1875,0.0,-3.5262515262515266,2.1746031746031744,-1.125,-4.21875,3.21875,0.0,-2.3150183150183152,2.380952380952381,-0.84375,-4.84375,3.0625,0.0,-0.78998778998779,2.52991452991453,0.0,-5.5625,3.0625,0.0,-1.2539682539682542,1.2747252747252746,0.0,-4.5625,2.8125,1.9914529914529917,-2.025641025641025,0.0,0.59375,-3.59375,2.34375,5.622710622710622,-2.155067155067155,0.8620268620268621,0.0,-4.96875,1.96875,3.609279609279609,-1.144078144078144,2.5311355311355306,0.0,-6.8125,1.3125,-1.5946275946275947,0.6752136752136753,2.5213675213675213,1.21875,-6.46875,1.09375,-4.0818070818070815,0.0,-0.7179487179487181,2.03125,-3.84375,1.21875,0.6971916971916972,-1.5030525030525033,-2.571428571428572,2.125,-2.25,1.375,5.308913308913309,-2.57997557997558,-2.045177045177045,1.5,-3.09375,0.96875,2.763125763125763,-1.3943833943833943,-0.8437118437118437,1.15625,-3.84375,0.0,-1.6971916971916972,0.0,0.0,1.53125,-3.09375,0.0,-0.57997557997558,0.0,-1.663003663003663,1.90625,-1.375,0.53125,0.7216117216117216,-1.6666666666666667,-2.514041514041514,1.875,-1.1875,0.0,0.9035409035409036,-1.358974358974359,-2.554334554334554,1.625,-1.46875,0.5625,0.0,-0.7680097680097681,-1.9658119658119655,1.59375,-1.53125,0.5625,0.0,-0.9548229548229548,-2.1794871794871797,1.84375,-1.0625,0.0,0.5115995115995116,-1.7704517704517704,-3.0268620268620268,1.78125,-0.75,0.0,0.0,-1.006105006105006,-3.1282051282051277,1.4375,-0.71875,0.0,0.0,-0.6312576312576312,-2.9816849816849818,1.3125,-0.65625,0.0,0.0,0.0,-2.8608058608058613,1.28125,0.0,0.0,0.0,0.0,-2.7240537240537246,1.25,0.0,0.0,0.6239316239316239,-0.5457875457875457,-2.851037851037851,1.21875,0.0,0.5625,1.037851037851038,-0.5347985347985348,-2.7313797313797314,1.0,0.0,0.0,0.7655677655677655,0.0,-2.5225885225885225,0.6875,0.0,0.0,0.0,0.0,-2.389499389499389,0.59375,0.0,0.0,0.0,0.0,-2.3492063492063493,0.0,0.0,0.0,0.6800976800976801,0.0,-2.3418803418803416,0.0,0.0,0.0,0.0,0.0,-2.242979242979243,0.0,0.0,0.0,0.0,0.0,-1.915750915750916,0.0,0.0,0.0,0.0,0.0,-1.6886446886446886,0.0,0.0,0.0,,,,,,,,,,,,,,,,,,,,,,,,,,,,,,,,,,,,,,,,,,,,,,,,,,,,,,,wp_backR
accX,-3.3907203907203907,-6.069597069597068,-0.9548229548229548,0.0,-1.03125,0.78125,-3.3943833943833943,-6.642246642246642,-1.15995115995116,0.0,-1.625,1.09375,-3.669108669108669,-6.8046398046398044,-1.3186813186813189,0.0,-2.46875,1.40625,-4.520146520146519,-5.916971916971918,0.0,-0.84375,-4.40625,2.0625,-5.3699633699633695,-4.8840048840048835,0.9145299145299144,-1.03125,-5.53125,2.625,-6.140415140415142,-4.1440781440781445,1.5970695970695972,-1.0625,-5.625,3.0,-6.192918192918192,-3.726495726495727,1.4517704517704515,-0.875,-4.59375,3.15625,-4.431013431013431,-3.68009768009768,0.94993894993895,-0.625,-3.1875,3.09375,-1.3272283272283272,-3.0708180708180715,1.4224664224664223,0.0,-3.03125,2.84375,1.2295482295482296,-2.2051282051282053,2.590964590964591,0.0,-4.40625,2.78125,0.8363858363858364,-1.6544566544566544,2.8583638583638584,0.0,-5.375,2.71875,0.0,-1.3455433455433456,1.413919413919414,0.96875,-4.875,2.53125,1.463980463980464,-2.4945054945054945,0.0,1.28125,-3.96875,1.96875,2.117216117216117,-2.547008547008547,-0.9584859584859584,0.96875,-3.71875,1.40625,1.5335775335775337,-1.6166056166056166,0.0,0.71875,-3.90625,1.3125,0.0,-1.3748473748473748,-1.0244200244200243,1.375,-3.1875,1.21875,2.2026862026862033,-2.267399267399268,-2.85958485958486,1.78125,-2.21875,1.125,4.112332112332112,-2.831501831501832,-3.137973137973138,1.625,-2.125,0.78125,2.7338217338217334,-1.6459096459096458,-2.288156288156288,1.125,-2.78125,0.0,0.0,0.0,-1.1391941391941391,1.0625,-3.03125,0.0,-1.6874236874236874,0.0,-1.133089133089133,1.46875,-2.46875,0.0,0.0,-0.9169719169719168,-2.1367521367521367,1.71875,-1.71875,0.0,0.6141636141636142,-1.4017094017094016,-3.1514041514041518,1.5,-1.53125,0.0,0.0,-0.7301587301587301,-3.064713064713065,1.1875,-1.375,0.0,0.0,0.0,-2.547008547008547,1.0625,-1.15625,0.0,0.0,0.0,-1.8986568986568984,1.1875,-0.84375,0.0,0.0,0.0,-1.612942612942613,1.3125,-0.84375,0.0,0.0,0.0,-1.8376068376068373,1.15625,-1.0625,0.0,0.0,0.0,-1.7741147741147743,1.125,-0.84375,0.0,0.0,0.0,-1.656898656898657,1.1875,0.0,0.0,0.0,0.0,-1.975579975579976,1.0625,0.0,0.0,0.6825396825396826,0.0,-1.9474969474969477,0.9375,0.0,0.0,0.8791208791208791,0.0,-2.1807081807081805,0.78125,0.0,0.0,0.0,-0.5262515262515263,-2.249084249084249,0.5625,0.0,0.0,0.0,0.0,-2.4566544566544573,0.0,0.0,0.0,0.0,0.0,-2.3687423687423688,0.0,0.0,0.0,0.0,0.0,-2.2283272283272284,0.0,0.0,0.0,0.0,-0.5262515262515263,-1.8534798534798536,0.0,0.0,0.0,0.0,0.0,-1.8376068376068373,0.0,0.0,0.0,0.0,0.0,-2.2808302808302807,0.0,0.0,0.0,0.0,-0.7582417582417582,-2.7643467643467643,-0.59375,0.625,0.0,,,,,,,,,,,,,,,,,,,,,,,,,,,,,,,,,,,,,,,,,,,wp_backR
accX,-2.8913308913308917,-6.101343101343101,0.0,0.0,-1.40625,1.03125,-3.1697191697191696,-6.295482295482294,0.0,0.0,-1.5,1.25,-3.5409035409035408,-6.186813186813188,0.0,-0.59375,-1.9375,1.5,-3.7875457875457874,-6.094017094017093,0.0,-0.90625,-2.75,1.96875,-3.888888888888889,-5.926739926739928,0.0,-1.3125,-3.65625,2.4375,-3.8461538461538463,-5.01953601953602,1.380952380952381,-1.375,-4.03125,2.71875,-3.2698412698412698,-4.305250305250305,1.7777777777777777,-1.0625,-3.53125,2.71875,-2.0061050061050056,-3.752136752136752,1.8522588522588523,-0.875,-3.28125,2.59375,0.0,-3.0354090354090357,2.1404151404151404,-0.96875,-4.25,2.5625,-0.7802197802197802,-1.8168498168498168,2.7216117216117217,-0.875,-5.125,2.6875,-0.5177045177045178,-2.0976800976800978,0.5726495726495726,0.0,-3.71875,2.59375,2.1746031746031744,-1.7472527472527473,0.5555555555555556,0.0,-2.8125,2.21875,3.761904761904762,-2.137973137973138,0.8803418803418803,0.0,-3.625,1.9375,1.7326007326007329,-0.5958485958485958,2.4713064713064714,0.0,-5.4375,1.46875,-1.6862026862026862,0.0,2.515262515262515,0.6875,-6.125,1.15625,-1.195360195360195,-1.2258852258852257,1.103785103785104,1.5,-5.21875,1.03125,1.3968253968253967,-1.8290598290598292,0.0,1.71875,-4.53125,0.65625,0.0,-1.6214896214896215,0.0,1.65625,-4.65625,0.0,-2.6324786324786325,-0.8083028083028083,-0.7277167277167277,1.59375,-3.875,0.0,-2.207570207570208,-1.0085470085470083,-1.4566544566544566,1.96875,-2.25,0.0,0.9206349206349206,-2.275946275946276,-2.628815628815629,2.25,-1.125,0.5625,2.511599511599512,-2.496947496947497,-3.04029304029304,1.75,-1.6875,0.0,1.1965811965811963,-1.8107448107448108,-2.7594627594627594,1.3125,-1.9375,0.0,-1.1001221001221002,-0.568986568986569,-1.9523809523809523,1.375,-1.1875,0.53125,-0.7326007326007326,0.0,-1.194139194139194,1.875,0.0,0.65625,1.3479853479853479,-1.6984126984126984,-1.5592185592185592,1.8125,0.0,0.59375,2.184371184371184,-1.8083028083028083,-2.0695970695970702,1.375,-1.09375,0.0,1.031746031746032,-0.9194139194139194,-2.291819291819292,1.25,-1.25,0.0,0.0,-0.5592185592185592,-2.412698412698413,1.34375,-0.84375,0.0,0.0,0.0,-2.4871794871794872,1.5,0.0,0.0,1.2356532356532357,-1.0695970695970696,-2.7973137973137967,1.34375,0.0,0.5625,1.2808302808302807,-1.2673992673992671,-3.0183150183150182,1.0,-0.75,0.0,0.5225885225885226,-0.6691086691086691,-3.1794871794871797,0.8125,-0.59375,0.0,0.0,0.0,-3.3650793650793656,0.65625,0.0,0.0,0.8339438339438342,0.0,-3.0366300366300365,0.0,0.0,0.0,0.63003663003663,0.0,-2.642246642246642,0.0,0.0,0.0,0.0,0.0,-2.1855921855921854,0.0,0.0,0.0,0.0,0.0,-1.6874236874236874,0.0,0.0,0.0,0.0,0.0,-1.3772893772893773,0.0,0.0,0.0,0.0,0.0,-1.3736263736263736,0.0,0.0,0.0,0.0,0.0,-1.7594627594627594,0.0,0.0,0.0,,,,,,,,,,,,,,,,,,,,,,,,,,,,,,,,,,,,,,,,,,,wp_backR
accX,-4.643467643467643,-6.614163614163614,-2.1880341880341883,0.0,-0.96875,0.8125,-4.474969474969475,-6.413919413919414,-1.3992673992673992,0.0,-1.53125,1.28125,-4.604395604395603,-6.473748473748474,-0.8376068376068376,-0.59375,-2.09375,1.71875,-4.576312576312576,-6.5103785103785095,0.0,-0.71875,-2.875,2.15625,-4.86080586080586,-6.516483516483516,0.0,-1.0625,-3.5625,2.75,-4.3821733821733835,-6.448107448107447,0.0,-1.21875,-3.78125,2.96875,-3.6459096459096467,-5.140415140415142,0.7216117216117216,-1.15625,-3.4375,3.0,-1.8913308913308915,-4.537240537240537,0.7423687423687424,-0.90625,-3.0,3.03125,0.0,-3.388278388278388,0.7948717948717948,-0.6875,-2.9375,2.96875,2.4249084249084247,-2.5689865689865687,1.1965811965811963,-0.59375,-3.25,2.8125,2.199023199023199,-1.242979242979243,1.9731379731379728,0.0,-4.34375,2.53125,1.1807081807081807,-0.9059829059829059,2.2283272283272284,0.0,-5.3125,2.3125,0.0,-0.7680097680097681,1.9133089133089132,0.0,-5.75,1.90625,-0.984126984126984,-0.8766788766788767,0.525030525030525,0.6875,-5.34375,1.8125,0.0,-1.413919413919414,-0.8656898656898657,1.0,-4.21875,1.8125,2.649572649572649,-1.6043956043956045,-1.0866910866910866,1.0,-3.5,1.59375,3.667887667887668,-1.695970695970696,0.0,0.78125,-4.59375,1.0,0.6703296703296703,-0.557997557997558,0.9072039072039072,1.125,-4.78125,0.5625,-2.0586080586080584,0.0,-0.518925518925519,1.78125,-3.5,0.53125,-1.7130647130647132,-1.3089133089133091,-2.083028083028083,1.9375,-2.125,0.6875,1.0183150183150182,-1.6263736263736264,-2.495726495726496,1.59375,-2.0625,0.8125,1.271062271062271,-1.0683760683760684,-2.0061050061050056,1.46875,-2.40625,0.6875,0.0,0.0,-1.3846153846153846,1.71875,-2.15625,0.5625,-0.7228327228327228,-0.6056166056166056,-1.5079365079365081,1.9375,-1.4375,0.53125,0.0,-1.4566544566544566,-2.5360195360195363,1.71875,-0.75,0.0,0.5604395604395604,-1.0549450549450552,-2.7863247863247858,1.40625,-0.8125,0.0,0.8595848595848596,0.0,-2.433455433455433,1.4375,-1.09375,0.0,0.0,0.0,-2.376068376068376,1.6875,-1.0,0.0,0.5262515262515263,-1.4078144078144081,-4.280830280830282,1.5625,-0.65625,0.0,0.0,-0.6581196581196581,-4.461538461538462,1.125,0.0,0.0,0.0,0.0,-4.111111111111111,0.875,0.0,0.0,0.5518925518925519,0.0,-3.6251526251526247,0.71875,0.0,0.0,0.7484737484737485,0.0,-3.1538461538461537,0.59375,0.0,0.0,0.7411477411477412,0.0,-2.884004884004884,0.0,0.0,0.0,0.0,0.0,-2.2967032967032965,0.0,0.0,0.0,0.0,0.5604395604395604,-1.4566544566544566,0.0,0.0,0.0,0.0,0.8583638583638583,-0.5103785103785103,0.0,0.0,0.0,0.0,0.7338217338217338,0.0,0.0,0.0,0.0,0.0,0.0,0.0,0.0,0.0,0.0,0.0,0.0,-1.2673992673992671,0.0,0.0,0.0,,,,,,,,,,,,,,,,,,,,,,,,,,,,,,,,,,,,,,,,,,,,,,,,,wp_backR
accX,-3.561660561660561,-6.302808302808303,-1.5592185592185592,0.0,-1.4375,0.96875,-4.069597069597069,-6.507936507936507,-0.5128205128205128,0.0,-2.09375,1.3125,-4.768009768009769,-6.7887667887667895,-0.9706959706959708,0.0,-2.375,1.59375,-4.587301587301587,-7.108669108669107,-0.9413919413919414,-0.59375,-2.625,1.90625,-4.2344322344322345,-6.953601953601954,0.0,-1.03125,-3.15625,2.3125,-3.783882783882784,-6.0,0.6324786324786325,-1.3125,-3.78125,2.71875,-3.0048840048840044,-5.0,1.3247863247863247,-1.3125,-4.09375,2.96875,-1.2515262515262515,-3.854700854700855,1.8290598290598292,-1.15625,-4.15625,3.0,0.0,-2.752136752136752,1.9914529914529917,-0.90625,-4.25,2.9375,0.0,-1.7704517704517704,1.7704517704517704,-0.59375,-4.59375,2.75,0.0,-1.3907203907203909,1.2942612942612943,0.0,-4.71875,2.625,0.9096459096459096,-1.1538461538461535,0.9059829059829059,0.0,-4.4375,2.40625,3.7338217338217334,-1.6459096459096458,1.3467643467643469,0.0,-4.96875,1.9375,2.2222222222222223,0.0,3.258852258852259,0.0,-6.15625,1.34375,-1.3003663003663004,0.5775335775335775,2.4590964590964592,1.0,-5.59375,1.09375,-2.2124542124542126,-0.5958485958485958,0.0,1.59375,-3.78125,1.15625,0.0,-1.6862026862026862,-1.2222222222222223,1.5,-2.8125,1.0625,2.5311355311355306,-2.7313797313797314,-1.1636141636141637,0.9375,-3.09375,0.65625,1.794871794871795,-1.3687423687423688,0.0,0.6875,-3.53125,0.0,-0.9157509157509156,0.0,0.6092796092796092,1.28125,-2.90625,0.0,-1.362637362637363,-0.8693528693528694,0.0,1.6875,-1.90625,0.53125,1.0256410256410255,-1.5079365079365081,-1.912087912087912,1.78125,-1.625,0.59375,1.804639804639805,-2.655677655677656,-3.4444444444444446,1.375,-1.71875,0.0,0.8754578754578755,-0.9877899877899878,-3.0805860805860807,1.25,-1.6875,0.0,0.0,0.0,-1.3308913308913308,1.5625,-1.15625,0.0,0.6483516483516484,-0.6849816849816851,-1.5433455433455434,1.8125,-1.15625,0.0,0.0,-0.7851037851037851,-1.9926739926739927,1.75,-1.40625,0.0,0.0,-0.6019536019536019,-2.2295482295482296,1.59375,-1.34375,0.0,0.0,0.0,-2.326007326007326,1.5625,-0.96875,0.0,0.0,-0.5470085470085471,-2.78998778998779,1.53125,-0.75,0.0,0.0,-0.536019536019536,-3.3064713064713063,1.4375,-0.75,0.0,0.0,0.0,-3.771672771672772,1.21875,-0.78125,0.0,0.0,0.0,-4.023199023199023,0.96875,-0.6875,0.0,0.0,0.0,-3.975579975579976,0.75,0.0,0.0,0.0,0.0,-3.862026862026862,0.53125,0.0,0.0,0.6471306471306472,0.0,-3.6166056166056166,0.0,0.0,0.0,0.0,0.0,-3.073260073260073,0.0,0.0,0.0,0.0,0.0,-2.511599511599512,0.0,0.0,0.0,0.0,0.0,-2.357753357753358,0.0,0.0,0.0,0.0,0.0,-2.796092796092796,-0.53125,0.5625,0.0,0.0,0.0,-3.312576312576313,-0.78125,0.90625,0.0,,,,,,,,,,,,,,,,,,,,,,,,,,,,,,,,,,,,,,,,,,,wp_backR
accX,-5.079365079365079,-6.111111111111112,-1.1123321123321124,0.0,-2.53125,1.15625,-5.95970695970696,-6.531135531135532,-0.7704517704517705,0.0,-3.0,1.53125,-6.0366300366300365,-6.94871794871795,-1.0366300366300367,0.0,-3.1875,1.90625,-4.829059829059829,-6.3369963369963385,0.0,-0.8125,-3.625,2.34375,-4.68986568986569,-5.38949938949939,1.6166056166056166,-0.96875,-4.46875,2.875,-4.207570207570208,-4.459096459096459,2.31990231990232,-1.03125,-4.9375,3.3125,-2.9316239316239314,-4.262515262515263,2.1855921855921854,-1.0625,-4.625,3.5,-0.6398046398046398,-3.5763125763125765,2.2222222222222223,-1.125,-4.0625,3.4375,0.568986568986569,-2.495726495726496,2.5775335775335777,-0.6875,-3.875,3.09375,1.0964590964590966,-1.8351648351648349,2.3919413919413923,0.0,-4.21875,2.65625,1.9975579975579976,-2.5067155067155067,1.6727716727716728,0.0,-4.6875,2.65625,2.1245421245421245,-2.503052503052503,1.1489621489621489,0.0,-5.0,2.375,1.706959706959707,-1.9426129426129424,0.0,0.0,-4.46875,2.0625,1.7435897435897436,-0.9181929181929182,0.6678876678876678,0.90625,-3.78125,1.53125,1.8302808302808304,-1.1782661782661783,0.0,1.46875,-3.5,1.1875,3.1367521367521367,-2.291819291819292,-0.8412698412698413,1.40625,-3.875,0.96875,2.0183150183150182,-1.8290598290598292,-1.194139194139194,1.1875,-4.125,0.65625,0.0,-0.5970695970695971,-1.5763125763125765,1.34375,-3.28125,0.0,-0.7032967032967034,0.0,-1.3406593406593406,1.71875,-2.21875,0.5625,0.7753357753357754,-0.9865689865689866,-1.6605616605616609,1.78125,-1.875,0.65625,2.067155067155068,-1.4908424908424909,-2.4420024420024418,1.4375,-2.21875,0.0,-0.7814407814407814,0.0,-2.0818070818070815,1.4375,-2.125,0.0,0.0,0.0,-2.245421245421245,1.78125,-1.5625,0.53125,0.0,-0.7081807081807082,-2.7216117216117217,1.9375,-1.375,0.6875,0.6703296703296703,-1.5299145299145298,-3.6984126984126986,1.78125,-1.28125,0.5625,0.0,-0.971916971916972,-3.6849816849816848,1.40625,-1.09375,0.0,0.0,0.0,-3.3565323565323566,1.1875,-0.78125,0.59375,0.0,0.0,-3.065934065934066,1.25,0.0,0.71875,1.733821733821734,-0.7472527472527473,-3.5995115995116,1.28125,0.0,0.6875,1.6886446886446886,0.0,-3.8205128205128207,0.90625,-0.90625,0.5625,0.0,0.0,-3.6166056166056166,0.6875,-1.0,0.0,0.0,0.0,-3.3150183150183152,0.59375,0.0,0.0,1.5848595848595848,0.0,-3.0097680097680097,0.0,0.0,0.0,2.1123321123321124,0.0,-2.509157509157509,0.0,0.0,0.0,1.4969474969474967,0.0,-2.0781440781440783,0.0,0.0,0.0,0.0,0.0,-1.8705738705738704,0.0,0.0,0.0,-0.8962148962148963,0.0,-2.017094017094017,0.0,0.0,0.0,-1.092796092796093,0.0,-2.0659340659340657,-0.59375,0.78125,0.0,-1.4029304029304028,-0.7692307692307693,-2.4481074481074483,-0.78125,1.375,0.53125,,,,,,,,,,,,,,,,,,,,,,,,,,,,,,,,,,,,,,,,,,,,,,,,,,,,,,,wp_backR
accX,-4.452991452991453,-6.7081807081807066,-1.7631257631257633,0.0,-1.125,0.0,-4.792429792429792,-6.796092796092796,-1.3504273504273503,0.0,-1.71875,0.8125,-4.631257631257632,-6.825396825396825,-0.6910866910866911,-0.8125,-2.75,1.3125,-5.347985347985348,-6.6178266178266165,0.0,-1.1875,-4.15625,1.90625,-6.087912087912088,-5.549450549450549,1.2832722832722834,-1.5,-5.3125,2.53125,-5.8217338217338215,-4.691086691086691,2.045177045177045,-1.46875,-5.5,3.0,-4.529914529914531,-4.084249084249084,2.358974358974359,-1.125,-5.0,3.0625,-2.8241758241758244,-3.609279609279609,2.137973137973138,-0.84375,-4.5,3.03125,-0.7142857142857143,-3.0781440781440783,2.3687423687423688,-0.78125,-4.625,3.09375,-0.5494505494505495,-2.0573870573870567,2.4310134310134313,0.0,-4.96875,2.90625,-0.7191697191697192,-1.2210012210012209,1.3150183150183148,0.0,-3.9375,2.71875,1.164835164835165,-1.934065934065934,0.0,0.75,-2.59375,2.4375,4.592185592185592,-2.8693528693528694,0.0,0.0,-3.15625,1.90625,5.556776556776557,-2.3015873015873014,0.8705738705738706,0.0,-5.28125,1.53125,1.8620268620268619,0.0,1.5726495726495726,0.53125,-6.0625,1.03125,-2.4468864468864466,0.0,0.0,1.5625,-4.125,1.0625,0.0,-1.3089133089133091,-3.2551892551892547,1.90625,-1.6875,1.25,4.336996336996338,-3.36996336996337,-3.335775335775337,1.125,-1.40625,0.90625,5.693528693528694,-2.2210012210012207,-1.7655677655677655,0.0,-2.78125,0.0,1.7875457875457876,0.0,0.0,0.53125,-3.4375,0.0,-2.5531135531135534,1.2087912087912087,0.0,1.71875,-1.78125,0.0,0.0,-2.1074481074481075,-1.57997557997558,1.875,-0.84375,0.5625,1.7814407814407816,-1.4590964590964588,-1.7985347985347986,1.375,-0.875,0.0,1.468864468864469,-0.6385836385836385,-1.4590964590964588,1.25,-1.25,0.0,1.2112332112332111,-0.6092796092796092,-1.1807081807081807,1.625,-1.53125,0.0,0.0,-1.0793650793650793,-1.815628815628816,1.84375,-1.65625,0.0,0.0,-1.1514041514041513,-2.380952380952381,1.65625,-1.5625,0.0,0.0,-0.7301587301587301,-2.2735042735042734,1.5,-1.28125,0.0,0.6275946275946276,0.0,-2.230769230769231,1.46875,-1.21875,0.0,0.0,-0.5616605616605617,-2.752136752136752,1.5,-1.1875,0.0,0.0,-0.8998778998778999,-3.1660561660561664,1.375,-1.0,0.0,0.0,-0.7912087912087912,-3.391941391941392,1.0625,-0.71875,0.0,0.0,0.0,-3.0158730158730163,0.75,0.0,0.0,0.0,0.0,-2.5702075702075704,0.625,0.0,0.0,0.0,-0.5128205128205128,-2.2588522588522593,0.0,0.0,0.0,0.0,-0.5836385836385837,-1.9731379731379728,0.0,0.0,0.0,0.0,0.0,-1.3565323565323566,0.0,0.0,0.0,0.0,0.0,-1.1501831501831499,0.0,0.0,0.0,-0.9267399267399268,0.0,-0.8705738705738706,0.0,0.0,0.0,0.0,0.0,-0.8742368742368742,0.0,0.625,0.0,0.0,0.0,-0.9194139194139194,0.0,0.625,0.0,0.0,-0.7203907203907204,-1.3846153846153846,-0.5625,0.0,0.0,,,,,,,,,,,,,,,,,,,,,,,,,,,,,,,,,,,,,wp_backR
accX,-4.918192918192919,-7.0769230769230775,-2.4920634920634916,0.0,-1.3125,0.5625,-5.424908424908424,-6.964590964590965,-1.9023199023199024,0.0,-1.78125,1.0625,-5.246642246642247,-7.183150183150183,-1.2820512820512822,-0.5625,-2.1875,1.59375,-4.598290598290598,-7.514041514041513,-0.6996336996336996,-0.9375,-2.71875,2.28125,-4.0537240537240535,-7.313797313797313,0.0,-1.25,-3.1875,2.65625,-3.811965811965812,-6.087912087912088,0.8778998778998779,-1.25,-3.34375,2.9375,-2.7985347985347984,-4.84004884004884,1.4432234432234432,-1.15625,-3.1875,3.09375,0.0,-4.085470085470085,1.7301587301587302,-1.15625,-3.40625,3.09375,1.3162393162393162,-2.551892551892552,2.1416361416361416,-1.15625,-4.28125,2.9375,0.0,-0.9487179487179488,2.21978021978022,-1.0,-4.875,2.9375,0.0,-0.9645909645909646,1.2796092796092795,-0.875,-4.4375,2.96875,1.3601953601953602,-0.8363858363858364,1.0024420024420024,-0.53125,-3.90625,2.59375,4.521367521367521,-0.8388278388278388,1.9694749694749696,0.0,-5.0625,2.0625,3.324786324786325,-0.6019536019536019,3.330891330891331,0.0,-6.75,1.53125,1.0366300366300367,-0.5848595848595849,2.67032967032967,0.0,-6.78125,1.1875,1.290598290598291,-0.6776556776556777,0.0,0.0,-4.78125,0.59375,1.0097680097680095,0.0,0.0,0.9375,-4.5625,0.0,-1.1318681318681318,0.0,0.0,1.5625,-4.625,0.0,-2.9902319902319903,-1.2942612942612943,-0.9536019536019535,1.71875,-3.9375,0.0,-2.8021978021978016,-1.1526251526251523,-2.426129426129426,1.6875,-2.5625,0.0,-0.7045177045177046,-1.083028083028083,-3.147741147741148,1.75,-1.34375,0.0,1.3028083028083028,-1.0415140415140416,-2.8021978021978016,1.75,-1.21875,0.0,0.9242979242979243,-0.7875457875457875,-2.3626373626373627,1.6875,-1.6875,0.0,-0.9108669108669109,-0.5848595848595849,-2.4065934065934065,1.625,-1.59375,0.0,-1.637362637362637,0.0,-2.175824175824176,1.625,-0.84375,0.0,0.0,0.0,-1.6727716727716728,1.625,0.0,0.53125,1.0463980463980465,0.0,-1.57997557997558,1.65625,0.0,0.59375,0.6910866910866911,-0.6581196581196581,-2.061050061050061,1.53125,-0.9375,0.0,0.0,-0.7057387057387058,-2.5811965811965814,1.3125,-0.6875,0.0,0.0,-0.6520146520146519,-2.8656898656898657,1.15625,0.0,0.0,0.6019536019536019,0.0,-3.1245421245421245,1.0,0.0,0.0,0.5286935286935287,0.0,-3.527472527472528,0.78125,0.0,0.0,0.0,-0.5421245421245421,-3.5372405372405376,0.5625,0.0,0.0,0.0,-0.7765567765567766,-3.2796092796092795,0.0,0.0,0.0,0.0,-0.5909645909645911,-2.85958485958486,0.0,0.0,0.0,0.0,0.0,-2.484737484737485,0.0,0.53125,0.0,0.0,0.0,-2.0781440781440783,0.0,0.0,0.0,0.0,0.0,-1.6752136752136753,0.0,0.0,0.0,-0.6117216117216118,0.0,-1.4615384615384617,-0.53125,0.0,0.0,-0.9792429792429792,0.0,-2.073260073260073,-0.5625,0.75,0.0,,,,,,,,,,,,,,,,,,,,,,,,,,,,,,,,,,,,,,,,,,,,,,,,,wp_backR
accX,-4.288156288156288,-7.102564102564102,-2.9890109890109886,0.625,0.0,0.0,-3.1086691086691087,-7.289377289377289,-2.1404151404151404,0.0,-0.59375,0.59375,-4.459096459096459,-6.599511599511598,-1.2722832722832722,-0.8125,-1.9375,1.3125,-4.942612942612944,-6.532356532356533,-0.7045177045177046,-0.875,-2.46875,1.75,-5.655677655677656,-6.857142857142858,-0.5775335775335775,-0.90625,-2.5,2.1875,-4.5848595848595854,-7.589743589743589,-0.5054945054945055,-1.1875,-2.5,2.5,-2.9255189255189253,-7.012210012210013,0.0,-1.4375,-3.03125,2.6875,-1.8107448107448108,-5.626373626373627,1.5054945054945057,-1.4375,-3.9375,2.875,-1.1013431013431014,-4.112332112332112,2.343101343101343,-1.34375,-4.8125,3.0,-0.9230769230769232,-2.844932844932845,2.41025641025641,-1.0,-4.6875,3.09375,0.0,-2.266178266178266,1.6349206349206349,-0.5625,-3.6875,2.8125,1.5934065934065933,-2.1123321123321124,0.9279609279609279,0.0,-3.125,2.46875,3.4261294261294264,-0.9413919413919414,2.1538461538461537,-0.5625,-4.40625,2.28125,2.128205128205128,0.0,3.609279609279609,0.0,-5.59375,2.0,0.0,-1.5628815628815629,0.0,0.0,-4.84375,1.625,0.8571428571428571,-1.4029304029304028,-0.8498168498168498,0.625,-4.03125,1.34375,0.5335775335775336,0.0,0.0,0.0,-4.03125,1.0,-1.3504273504273503,0.0,1.0634920634920637,0.65625,-4.25,0.78125,-1.531135531135531,-0.8620268620268621,0.0,1.0,-3.9375,0.6875,-1.4517704517704515,-1.144078144078144,-1.5763125763125765,1.1875,-3.21875,0.0,0.0,-1.3711843711843712,-2.7484737484737485,1.15625,-2.375,0.5625,0.7509157509157509,-0.7533577533577533,-2.189255189255189,0.78125,-2.15625,0.71875,0.0,0.0,-0.6190476190476191,0.84375,-2.3125,0.65625,-0.5335775335775336,0.0,0.0,1.28125,-2.15625,0.65625,0.0,0.0,0.0,1.75,-2.03125,0.875,0.0,-0.9279609279609279,-0.9926739926739928,2.0,-1.9375,0.84375,0.0,-1.8485958485958487,-2.333333333333333,1.75,-1.4375,0.5625,0.0,-0.912087912087912,-2.84981684981685,1.71875,-1.03125,0.65625,0.8827838827838828,-1.0158730158730158,-3.4615384615384617,1.84375,-0.875,0.6875,1.4993894993894994,-1.868131868131868,-5.023199023199024,1.53125,-0.75,0.0,1.2527472527472527,-1.7667887667887667,-6.124542124542124,0.9375,-0.5625,0.0,0.7692307692307693,-1.0805860805860803,-6.054945054945056,0.5625,0.0,0.53125,1.1526251526251523,-0.5787545787545788,-5.285714285714286,0.0,0.0,0.53125,1.6886446886446886,-0.6654456654456654,-4.306471306471306,0.0,0.0,0.0,1.4529914529914532,-0.7191697191697192,-3.4847374847374852,0.0,0.0,0.0,0.9413919413919414,0.0,-2.547008547008547,0.0,0.0,0.0,0.0,0.0,-1.376068376068376,0.0,0.0,0.0,0.0,0.6849816849816851,0.0,0.0,0.0,0.0,0.0,0.0,0.0,0.0,0.0,0.0,0.0,0.0,-1.0024420024420024,-0.53125,0.0,0.0,,,,,,,,,,,,,,,,,,,,,,,,,,,,,,,,,,,,,,,,,,,,,,,,,wp_backR
accX,-4.516483516483516,-6.293040293040294,-1.894993894993895,0.0,-1.15625,0.0,-6.136752136752138,-5.504273504273504,-2.1880341880341883,0.0,-1.28125,0.0,-6.2405372405372415,-5.506715506715507,-2.2332112332112333,0.0,-0.75,0.625,-5.0818070818070815,-6.0757020757020745,-1.94017094017094,0.0,-0.71875,0.90625,-4.64957264957265,-6.704517704517706,-1.531135531135531,-0.5625,-1.25,1.25,-4.842490842490842,-6.642246642246642,-0.9694749694749696,-1.03125,-1.6875,1.6875,-4.238095238095238,-6.371184371184371,0.0,-1.15625,-2.15625,2.03125,-3.5286935286935286,-6.544566544566544,0.7557997557997558,-1.0625,-2.21875,2.3125,-1.8412698412698407,-6.984126984126984,1.0708180708180708,-1.09375,-2.25,2.40625,0.0,-6.431013431013431,1.6275946275946276,-1.09375,-2.75,2.46875,0.0,-5.496947496947497,1.6996336996336996,-1.09375,-3.3125,2.46875,0.0,-4.3760683760683765,1.8217338217338217,-0.9375,-3.3125,2.5,0.0,-3.3321123321123323,1.575091575091575,-0.6875,-3.125,2.375,0.9951159951159952,-2.4761904761904763,1.5616605616605617,-0.625,-3.875,2.21875,0.7435897435897436,-1.684981684981685,0.984126984126984,-0.71875,-4.84375,2.0625,0.0,-1.006105006105006,0.0,-0.53125,-4.75,1.96875,0.0,-0.8131868131868132,0.0,0.0,-3.875,1.71875,1.0915750915750917,-1.037851037851038,0.6666666666666666,0.0,-3.375,1.40625,1.6837606837606838,-0.8595848595848596,2.0415140415140414,0.0,-4.375,1.09375,-0.6398046398046398,0.0,2.4383394383394386,0.0,-5.5625,0.84375,-2.681318681318681,0.0,0.0,0.59375,-4.875,0.8125,-1.26007326007326,-1.0427350427350428,-1.5286935286935286,1.1875,-2.75,0.90625,2.238095238095238,-1.6691086691086692,-0.8608058608058609,0.90625,-1.78125,0.9375,1.5018315018315018,-0.568986568986569,1.031746031746032,0.0,-2.78125,0.6875,-1.2564102564102564,1.1477411477411477,1.1807081807081807,0.59375,-3.28125,0.0,-1.2087912087912087,0.0,-0.8693528693528694,1.78125,-1.9375,0.75,1.6092796092796091,-1.1965811965811963,-2.655677655677656,1.59375,-1.625,0.625,2.5445665445665444,-0.9792429792429792,-2.4468864468864466,1.1875,-2.0625,0.0,0.8925518925518926,0.0,-1.5726495726495726,0.96875,-2.15625,0.0,-0.7118437118437119,0.6275946275946276,-0.5054945054945055,1.1875,-1.6875,0.0,-0.9816849816849816,0.0,-0.7313797313797313,1.625,-1.0,0.0,0.0,-0.6996336996336996,-2.199023199023199,1.53125,-0.90625,0.0,1.0183150183150182,-0.6947496947496947,-3.1147741147741153,1.1875,-1.1875,0.0,0.8339438339438342,-0.6153846153846154,-3.1623931623931623,0.90625,-1.1875,0.0,0.0,0.0,-2.288156288156288,0.96875,-0.9375,0.0,0.0,0.0,-1.4029304029304028,1.28125,-0.53125,0.0,1.1074481074481075,-0.6068376068376068,-1.608058608058608,1.28125,0.0,0.0,0.0,0.0,-1.8119658119658117,0.8125,-1.15625,0.0,-1.177045177045177,0.0,-1.8693528693528692,0.78125,-0.84375,0.0,0.0,0.0,-1.9169719169719168,0.8125,0.0,0.0,0.0,0.0,-2.0097680097680097,0.78125,0.0,0.0,0.0,-0.7191697191697192,-2.501831501831502,0.5625,0.0,0.0,-1.0793650793650793,0.0,-2.6617826617826617,0.0,0.0,0.0,-1.1636141636141637,0.0,-2.555555555555556,0.0,0.0,0.0,0.0,-0.6874236874236874,-2.211233211233212,0.0,0.0,0.0,0.0,-0.5518925518925519,-2.195360195360196,0.0,0.0,0.0,0.0,-0.9963369963369964,-2.7252747252747254,0.0,0.0,0.0,,,,,,,wp_backR
