,00_accX,00_accY,00_accZ,00_gyroX,00_gyroY,00_gyroZ,01_accX,01_accY,01_accZ,01_gyroX,01_gyroY,01_gyroZ,02_accX,02_accY,02_accZ,02_gyroX,02_gyroY,02_gyroZ,03_accX,03_accY,03_accZ,03_gyroX,03_gyroY,03_gyroZ,04_accX,04_accY,04_accZ,04_gyroX,04_gyroY,04_gyroZ,05_accX,05_accY,05_accZ,05_gyroX,05_gyroY,05_gyroZ,06_accX,06_accY,06_accZ,06_gyroX,06_gyroY,06_gyroZ,07_accX,07_accY,07_accZ,07_gyroX,07_gyroY,07_gyroZ,08_accX,08_accY,08_accZ,08_gyroX,08_gyroY,08_gyroZ,09_accX,09_accY,09_accZ,09_gyroX,09_gyroY,09_gyroZ,10_accX,10_accY,10_accZ,10_gyroX,10_gyroY,10_gyroZ,11_accX,11_accY,11_accZ,11_gyroX,11_gyroY,11_gyroZ,12_accX,12_accY,12_accZ,12_gyroX,12_gyroY,12_gyroZ,13_accX,13_accY,13_accZ,13_gyroX,13_gyroY,13_gyroZ,14_accX,14_accY,14_accZ,14_gyroX,14_gyroY,14_gyroZ,15_accX,15_accY,15_accZ,15_gyroX,15_gyroY,15_gyroZ,16_accX,16_accY,16_accZ,16_gyroX,16_gyroY,16_gyroZ,17_accX,17_accY,17_accZ,17_gyroX,17_gyroY,17_gyroZ,18_accX,18_accY,18_accZ,18_gyroX,18_gyroY,18_gyroZ,19_accX,19_accY,19_accZ,19_gyroX,19_gyroY,19_gyroZ,20_accX,20_accY,20_accZ,20_gyroX,20_gyroY,20_gyroZ,21_accX,21_accY,21_accZ,21_gyroX,21_gyroY,21_gyroZ,22_accX,22_accY,22_accZ,22_gyroX,22_gyroY,22_gyroZ,23_accX,23_accY,23_accZ,23_gyroX,23_gyroY,23_gyroZ,24_accX,24_accY,24_accZ,24_gyroX,24_gyroY,24_gyroZ,25_accX,25_accY,25_accZ,25_gyroX,25_gyroY,25_gyroZ,26_accX,26_accY,26_accZ,26_gyroX,26_gyroY,26_gyroZ,27_accX,27_accY,27_accZ,27_gyroX,27_gyroY,27_gyroZ,28_accX,28_accY,28_accZ,28_gyroX,28_gyroY,28_gyroZ,29_accX,29_accY,29_accZ,29_gyroX,29_gyroY,29_gyroZ,30_accX,30_accY,30_accZ,30_gyroX,30_gyroY,30_gyroZ,31_accX,31_accY,31_accZ,31_gyroX,31_gyroY,31_gyroZ,32_accX,32_accY,32_accZ,32_gyroX,32_gyroY,32_gyroZ,33_accX,33_accY,33_accZ,33_gyroX,33_gyroY,33_gyroZ,34_accX,34_accY,34_accZ,34_gyroX,34_gyroY,34_gyroZ,35_accX,35_accY,35_accZ,35_gyroX,35_gyroY,35_gyroZ,36_accX,36_accY,36_accZ,36_gyroX,36_gyroY,36_gyroZ,37_accX,37_accY,37_accZ,37_gyroX,37_gyroY,37_gyroZ,38_accX,38_accY,38_accZ,38_gyroX,38_gyroY,38_gyroZ,39_accX,39_accY,39_accZ,39_gyroX,39_gyroY,39_gyroZ,40_accX,40_accY,40_accZ,40_gyroX,40_gyroY,40_gyroZ,41_accX,41_accY,41_accZ,41_gyroX,41_gyroY,41_gyroZ,42_accX,42_accY,42_accZ,42_gyroX,42_gyroY,42_gyroZ,43_accX,43_accY,43_accZ,43_gyroX,43_gyroY,43_gyroZ,44_accX,44_accY,44_accZ,44_gyroX,44_gyroY,44_gyroZ,45_accX,45_accY,45_accZ,45_gyroX,45_gyroY,45_gyroZ,46_accX,46_accY,46_accZ,46_gyroX,46_gyroY,46_gyroZ,47_accX,47_accY,47_accZ,47_gyroX,47_gyroY,47_gyroZ,48_accX,48_accY,48_accZ,48_gyroX,48_gyroY,48_gyroZ,49_accX,49_accY,49_accZ,49_gyroX,49_gyroY,49_gyroZ,50_accX,50_accY,50_accZ,50_gyroX,50_gyroY,50_gyroZ,51_accX,51_accY,51_accZ,51_gyroX,51_gyroY,51_gyroZ,52_accX,52_accY,52_accZ,52_gyroX,52_gyroY,52_gyroZ,53_accX,53_accY,53_accZ,53_gyroX,53_gyroY,53_gyroZ,54_accX,54_accY,54_accZ,54_gyroX,54_gyroY,54_gyroZ,55_accX,55_accY,55_accZ,55_gyroX,55_gyroY,55_gyroZ,56_accX,56_accY,56_accZ,56_gyroX,56_gyroY,56_gyroZ,57_accX,57_accY,57_accZ,57_gyroX,57_gyroY,57_gyroZ,58_accX,58_accY,58_accZ,58_gyroX,58_gyroY,58_gyroZ,59_accX,59_accY,59_accZ,59_gyroX,59_gyroY,59_gyroZ,60_accX,60_accY,60_accZ,60_gyroX,60_gyroY,60_gyroZ,61_accX,61_accY,61_accZ,61_gyroX,61_gyroY,61_gyroZ,62_accX,62_accY,62_accZ,62_gyroX,62_gyroY,62_gyroZ,category
accX,0.0,0.0,0.0,0.0,0.0,0.0,0.0,0.0,0.0,0.0,0.0,0.0,0.0,0.7130647130647131,0.0,0.0,0.0,0.0,0.6166056166056166,0.0,0.0,0.0,0.0,0.0,0.8192918192918193,0.0,0.8901098901098901,0.0,0.0,0.0,0.0,0.0,1.0903540903540905,0.0,0.0,0.0,0.5995115995115995,0.0,1.2136752136752136,0.0,0.0,0.0,1.0634920634920637,0.0,1.728937728937729,0.0,0.0,0.0,1.326007326007326,0.0,2.1746031746031744,0.625,0.0,0.0,1.336996336996337,-1.0549450549450552,2.1611721611721606,0.78125,0.0,0.0,1.1428571428571428,-0.912087912087912,2.2283272283272284,1.0,0.0,0.0,1.5531135531135531,-1.4322344322344325,2.2808302808302807,1.15625,0.0,-0.59375,2.0854700854700856,-1.978021978021978,2.68986568986569,1.21875,0.0,-0.78125,0.6007326007326007,-1.52014652014652,2.3455433455433456,1.5,0.0,-0.875,0.0,-2.021978021978022,1.962148962148962,1.84375,0.0,-0.8125,1.8901098901098898,-2.862026862026862,2.2612942612942613,2.0,0.0,-1.0,2.621489621489621,-3.2002442002442004,2.6617826617826617,2.21875,0.0,-1.375,1.9377289377289375,-2.8998778998779,2.687423687423687,2.46875,-0.65625,-1.625,0.0,-2.8852258852258847,1.8327228327228329,2.8125,0.0,-1.46875,0.0,-3.095238095238096,1.0073260073260073,3.0625,0.0,-1.375,0.9902319902319904,-3.3992673992673987,0.9206349206349206,3.09375,0.0,-1.46875,1.192918192918193,-3.4847374847374852,0.9645909645909646,3.15625,0.0,-1.65625,0.6288156288156288,-3.8180708180708174,0.9133089133089132,3.3125,-0.65625,-1.78125,0.0,-3.903540903540904,0.5543345543345544,3.46875,-0.78125,-1.875,-1.2612942612942613,-3.6239316239316235,0.0,3.59375,-0.53125,-1.90625,-1.3687423687423688,-3.8571428571428568,-0.8937728937728938,3.53125,0.0,-1.90625,-1.277167277167277,-3.6984126984126986,-0.7252747252747253,3.59375,0.0,-1.6875,-1.4786324786324787,-3.675213675213675,-1.0427350427350428,3.71875,0.0,-1.59375,-1.195360195360195,-3.9829059829059825,-1.652014652014652,3.59375,0.0,-1.5625,-1.4566544566544566,-2.505494505494505,-2.965811965811966,3.6875,0.0,-1.5625,-1.5470085470085468,-2.9413919413919416,-3.873015873015873,3.5625,0.0,-1.5,-2.0195360195360195,-2.9609279609279615,-3.7851037851037854,3.15625,-0.53125,-1.4375,-2.1623931623931623,-2.879120879120879,-2.621489621489621,2.875,0.0,-1.25,-2.0024420024420024,-2.5445665445665444,-2.083028083028083,3.0,0.0,-1.15625,-1.8583638583638584,-2.1672771672771667,-2.5763125763125765,3.1875,0.0,-0.90625,-1.4456654456654456,-2.687423687423687,-3.792429792429792,3.15625,0.0,-0.75,-1.7032967032967032,-3.238095238095238,-4.001221001221002,2.6875,0.0,-0.6875,-2.7460317460317465,-2.8180708180708183,-3.4590964590964592,2.1875,0.0,-0.625,-1.9548229548229548,-2.0818070818070815,-3.0976800976800978,1.9375,0.0,0.0,-0.5115995115995116,-1.6495726495726497,-3.3150183150183152,1.96875,0.0,0.0,-0.7191697191697192,-2.133089133089133,-3.8217338217338215,1.84375,0.0,0.0,-1.6434676434676434,-1.175824175824176,-3.6849816849816848,1.5625,0.0,0.0,-1.4175824175824177,-0.8754578754578755,-2.8949938949938954,1.65625,0.0,0.0,-0.5506715506715507,-1.4322344322344325,-2.9804639804639805,1.875,0.59375,0.0,-0.8083028083028083,-1.931623931623932,-3.7606837606837606,1.5625,0.0,0.0,-1.8070818070818069,-1.3907203907203909,-3.88034188034188,1.03125,0.0,0.0,-2.440781440781441,-1.7167277167277166,-3.37973137973138,0.71875,0.0,0.0,-0.9584859584859584,-1.637362637362637,-2.3150183150183152,0.0,0.0,0.0,0.6434676434676435,-1.474969474969475,-1.3284493284493284,0.0,0.0,0.0,0.6227106227106227,-1.761904761904762,-1.1733821733821734,0.0,0.0,0.0,0.0,-1.238095238095238,-1.3956043956043955,0.0,0.0,0.0,-1.0549450549450552,-0.9963369963369964,-1.5213675213675213,0.0,0.0,0.0,-1.2832722832722834,-0.9768009768009768,-1.2283272283272284,0.0,0.0,0.0,-0.514041514041514,-1.5567765567765568,0.0,0.0,0.0,0.0,0.0,-1.6043956043956045,0.0,0.0,0.0,0.0,0.5628815628815629,-1.5714285714285714,0.0,0.0,0.0,0.0,0.0,-1.352869352869353,-1.2844932844932846,-0.5625,0.0,0.0,,,,,,,,,,,,,,,,,,,,,,,,,,,,,,,,,,,,,pullUp
accX,0.0,0.6691086691086691,0.5213675213675214,0.59375,0.0,0.0,0.0,0.0,0.5396825396825397,0.65625,0.0,0.0,0.0,0.0,0.0,0.0,0.0,0.0,0.7496947496947497,0.0,0.9328449328449328,0.0,0.0,0.0,1.1904761904761905,0.0,1.750915750915751,0.0,0.0,0.0,0.0,0.0,1.73992673992674,0.0,0.0,0.0,0.7496947496947497,0.0,1.884004884004884,0.0,0.0,0.0,1.5470085470085468,-0.6178266178266179,2.89010989010989,0.0,0.0,0.0,2.2295482295482296,-0.7423687423687424,3.874236874236874,0.65625,0.0,0.0,2.6056166056166057,-0.6703296703296703,4.106227106227107,1.15625,0.6875,0.0,2.5665445665445668,-1.120879120879121,3.7020757020757022,1.78125,0.59375,-0.5625,2.4761904761904763,-1.5604395604395604,3.5360195360195363,2.03125,0.0,-0.65625,2.791208791208791,-2.467643467643468,3.6727716727716726,2.15625,0.0,-0.875,2.673992673992674,-2.388278388278388,3.7326007326007327,2.53125,0.0,-1.03125,2.3040293040293043,-2.9230769230769234,3.0073260073260077,2.78125,0.0,-1.1875,1.362637362637363,-3.2185592185592187,2.43956043956044,2.96875,0.0,-1.25,1.2039072039072038,-3.2551892551892547,2.126984126984127,3.125,0.0,-1.34375,1.1709401709401708,-3.6593406593406588,1.6715506715506716,3.28125,0.0,-1.46875,0.0,-4.147741147741148,1.5213675213675213,3.46875,0.0,-1.5,0.5335775335775336,-4.523809523809524,1.6459096459096458,3.71875,0.0,-1.5,0.0,-4.747252747252747,1.2271062271062272,4.0,0.0,-1.5,-0.7704517704517705,-4.781440781440781,0.0,4.09375,0.0,-1.4375,-0.6593406593406593,-4.888888888888889,-0.5409035409035409,3.96875,0.0,-1.40625,0.0,-5.035409035409035,-0.5372405372405372,3.96875,0.0,-1.375,0.0,-5.656898656898657,0.0,4.0625,0.0,-1.4375,0.7045177045177046,-4.915750915750916,0.0,4.3125,0.0,-1.5625,0.0,-5.037851037851038,-1.735042735042735,4.1875,-1.28125,-1.75,-1.8473748473748477,-5.557997557997558,-2.2185592185592187,3.75,-1.5,-1.8125,-3.5103785103785103,-4.164835164835165,-2.242979242979243,3.78125,-0.8125,-1.59375,-3.2869352869352872,-3.8986568986568986,-2.57997557997558,3.96875,0.0,-1.21875,-2.1098901098901104,-3.5103785103785103,-3.091575091575092,3.9375,0.0,-1.03125,-1.7826617826617828,-3.8852258852258847,-3.705738705738706,3.625,0.0,-0.96875,-1.0549450549450552,-4.527472527472527,-3.468864468864469,3.1875,0.0,-1.0625,-1.794871794871795,-3.2344322344322345,-3.3565323565323566,3.09375,-0.5625,-1.03125,-3.1843711843711837,-2.675213675213675,-3.912087912087912,2.96875,0.0,-0.65625,-1.5433455433455434,-2.045177045177045,-4.263736263736264,2.59375,0.0,-0.53125,0.0,-2.0463980463980462,-3.4249084249084247,2.34375,0.0,0.0,0.0,-1.514041514041514,-3.087912087912088,2.21875,0.0,0.0,-0.7020757020757019,-1.5616605616605617,-3.2515262515262515,2.28125,-0.6875,0.0,0.0,-2.1343101343101343,-3.235653235653236,2.1875,-0.8125,0.0,-2.087912087912088,-1.4847374847374848,-3.283272283272283,1.9375,-0.84375,-0.625,-2.7948717948717947,-0.6654456654456654,-3.31013431013431,1.96875,0.0,0.0,-1.7631257631257633,-1.092796092796093,-3.1684981684981683,2.15625,0.0,0.0,0.0,-2.2576312576312576,-3.096459096459097,2.0625,0.0,0.0,0.0,-2.0329670329670333,-2.971916971916972,1.625,0.0,0.0,-0.9706959706959708,-1.3333333333333333,-2.793650793650793,1.4375,-0.5625,0.0,-1.8351648351648349,-1.0976800976800978,-2.9206349206349205,1.46875,0.0,0.0,-2.1538461538461537,-1.6068376068376071,-3.304029304029304,1.53125,0.0,0.0,-1.6153846153846154,-2.025641025641025,-3.503052503052503,1.1875,0.625,0.0,-1.5189255189255189,-1.7545787545787546,-2.807081807081807,0.875,0.0,0.0,-1.382173382173382,-1.8742368742368745,-2.175824175824176,0.75,0.0,0.0,-0.73992673992674,-1.8058608058608057,-1.5409035409035412,0.53125,0.0,0.0,-0.5470085470085471,-1.695970695970696,-1.4603174603174602,0.0,0.0,0.0,0.0,-1.5604395604395604,-1.5018315018315018,0.0,0.0,0.0,0.0,-1.824175824175824,-2.0024420024420024,0.0,0.0,0.0,0.0,-1.9010989010989008,-2.1672771672771667,0.0,0.0,0.0,0.0,-1.619047619047619,-2.0781440781440783,0.0,0.0,0.0,0.0,-1.7045177045177045,-1.4432234432234432,0.0,0.0,0.0,,,,,,,,,,,,,,,,,,,,,,,,,,,,,,,pullUp
accX,0.6605616605616605,0.0,1.0341880341880345,0.6875,0.0,0.0,1.661782661782662,0.0,1.6251526251526252,0.8125,0.0,0.0,1.6263736263736264,0.0,2.04029304029304,0.78125,0.0,0.0,1.6007326007326008,0.0,2.2576312576312576,0.65625,0.0,0.0,1.6556776556776556,0.0,2.3003663003662997,0.59375,0.0,0.0,1.5897435897435896,0.0,2.7411477411477403,0.71875,0.0,0.0,1.9633699633699635,0.0,3.606837606837607,0.84375,0.0,0.0,2.505494505494505,-0.6471306471306472,4.034188034188034,1.3125,0.0,0.0,2.4065934065934065,-0.9755799755799756,3.9743589743589753,1.71875,0.0,-0.59375,2.445665445665446,-1.266178266178266,3.5995115995116,2.03125,0.0,-0.6875,2.445665445665446,-1.647130647130647,3.33943833943834,2.25,0.0,-0.8125,2.217338217338217,-2.0207570207570207,3.4542124542124544,2.5,0.0,-0.9375,2.7753357753357752,-2.9169719169719173,3.2869352869352872,2.78125,0.0,-1.09375,1.7728937728937728,-3.120879120879121,2.913308913308913,2.875,0.0,-1.34375,1.0195360195360197,-3.1855921855921854,2.3455433455433456,3.15625,0.0,-1.375,1.652014652014652,-3.4896214896214897,2.039072039072039,3.40625,0.0,-1.34375,1.31990231990232,-3.8815628815628815,1.73992673992674,3.5625,0.0,-1.40625,1.4603174603174602,-4.1330891330891335,1.3186813186813189,3.6875,0.0,-1.5,1.0427350427350428,-4.448107448107448,0.9474969474969476,3.78125,0.0,-1.625,0.0,-4.4822954822954815,0.6398046398046398,3.96875,0.0,-1.65625,0.0,-4.675213675213676,0.0,4.09375,0.0,-1.65625,0.0,-4.632478632478633,-0.6568986568986569,4.0625,0.0,-1.6875,-0.6581196581196581,-5.346764346764347,-0.7496947496947497,3.9375,0.0,-1.6875,0.0,-4.7203907203907205,0.0,4.03125,0.0,-1.71875,0.0,-4.676434676434677,-0.9072039072039072,4.125,-0.625,-1.71875,-1.338217338217338,-4.628815628815629,-1.6837606837606838,4.125,-0.75,-1.6875,-1.9926739926739927,-5.05128205128205,-2.191697191697192,4.0,0.0,-1.5625,-1.2808302808302807,-4.5848595848595854,-2.31990231990232,3.875,0.0,-1.53125,-1.1538461538461535,-4.339438339438339,-2.669108669108669,3.6875,-0.6875,-1.5,-2.063492063492064,-3.952380952380953,-2.8327228327228333,3.59375,-1.09375,-1.46875,-3.412698412698413,-3.7460317460317465,-3.236874236874237,3.4375,-0.90625,-1.3125,-3.2515262515262515,-3.844932844932845,-3.63003663003663,3.3125,-0.5625,-1.125,-2.7203907203907205,-3.5067155067155067,-3.5885225885225887,3.25,0.0,-0.9375,-1.474969474969475,-4.087912087912088,-3.3638583638583635,3.0,0.0,-0.875,-1.9987789987789988,-3.346764346764347,-3.291819291819292,2.75,0.0,-0.96875,-2.826617826617827,-2.5006105006105006,-3.5995115995116,2.65625,0.0,-0.84375,-1.9206349206349207,-2.211233211233212,-4.202686202686203,2.53125,0.0,-0.65625,-1.0744810744810744,-2.4737484737484743,-4.004884004884005,2.25,0.0,-0.5625,-2.3675213675213675,-1.8131868131868127,-4.021978021978022,2.1875,-0.65625,0.0,-2.1514041514041518,-2.412698412698413,-4.147741147741148,1.96875,-0.53125,0.0,-1.4114774114774116,-2.2905982905982905,-4.0708180708180715,1.59375,0.0,0.0,-1.0427350427350428,-1.7851037851037852,-3.4932844932844933,1.5,0.0,0.0,-0.8192918192918193,-1.6654456654456655,-2.7802197802197797,1.46875,0.0,0.0,0.0,-1.5970695970695972,-1.9865689865689864,1.46875,0.0,0.0,-1.8705738705738704,-2.0805860805860807,-3.5995115995116,1.09375,0.0,0.0,-2.5921855921855923,-1.0549450549450552,-3.1978021978021984,0.9375,0.0,0.0,-2.247863247863248,-1.5628815628815629,-2.8473748473748475,1.0625,0.0,0.0,-1.249084249084249,-1.7631257631257633,-2.5128205128205128,0.9375,0.59375,0.0,-0.7484737484737485,-1.9731379731379728,-2.274725274725274,0.8125,0.0,0.0,-1.043956043956044,-2.0989010989010994,-2.347985347985348,0.59375,0.0,0.0,-1.2954822954822955,-1.5409035409035412,-1.953601953601953,0.0,0.0,0.0,-0.7484737484737485,-1.931623931623932,-1.871794871794872,0.0,0.0,0.0,-0.503052503052503,-2.208791208791209,-2.1245421245421245,0.0,0.0,0.0,0.0,-2.0488400488400487,-1.7838827838827842,0.0,0.0,0.0,-0.7020757020757019,-1.6776556776556777,-1.804639804639805,0.0,0.0,0.0,0.0,-1.4993894993894994,-1.293040293040293,0.0,0.0,0.0,-0.7435897435897436,-1.3137973137973138,-1.0598290598290598,0.0,0.0,0.0,,,,,,,,,,,,,,,,,,,,,,,,,,,,,,,,,,,,,pullUp
accX,1.0854700854700854,0.0,1.967032967032967,0.71875,0.0,0.0,1.5555555555555556,0.0,2.78998778998779,1.25,0.0,0.0,2.1074481074481075,-0.9731379731379732,2.6324786324786325,1.1875,0.0,0.0,2.1404151404151404,-0.6178266178266179,3.087912087912088,0.90625,0.0,0.0,2.4481074481074483,-0.7631257631257631,3.947496947496948,1.03125,0.59375,0.0,2.8058608058608057,-0.8205128205128205,4.507936507936508,1.75,0.0,-0.53125,2.4322344322344316,-1.297924297924298,3.854700854700855,2.1875,0.0,-0.59375,2.351648351648352,-1.68986568986569,3.043956043956044,2.40625,0.53125,-0.65625,2.457875457875458,-2.3418803418803416,2.7765567765567765,2.53125,0.59375,-0.8125,2.1123321123321124,-2.333333333333333,2.9987789987789983,2.59375,0.5625,-0.96875,1.8608058608058609,-2.7228327228327234,3.031746031746032,2.90625,0.0,-1.03125,1.4542124542124542,-3.586080586080586,2.8156288156288163,3.15625,0.0,-1.15625,0.0,-3.5885225885225887,1.728937728937729,3.40625,0.0,-1.21875,0.7118437118437119,-3.648351648351648,0.9755799755799756,3.65625,0.0,-1.1875,0.8461538461538461,-3.913308913308913,0.0,3.71875,0.0,-1.1875,0.8424908424908425,-3.8229548229548236,0.0,3.625,0.0,-1.34375,0.0,-3.507936507936508,0.5079365079365079,3.71875,0.0,-1.375,-1.4529914529914532,-3.4249084249084247,0.0,3.875,-0.5625,-1.28125,0.0,-4.163614163614163,-0.5677655677655677,4.0625,0.0,-1.15625,0.7496947496947497,-4.2686202686202686,-0.7057387057387058,3.90625,0.0,-1.3125,0.0,-4.137973137973138,0.0,3.78125,0.0,-1.40625,0.0,-3.8021978021978016,0.0,3.90625,0.0,-1.34375,-0.5738705738705738,-3.716727716727717,0.0,4.0625,0.0,-1.28125,-1.0561660561660562,-3.1184371184371185,-0.6862026862026862,4.125,0.0,-1.25,-1.4529914529914532,-2.765567765567765,-1.7411477411477412,4.1875,-0.6875,-1.125,-1.637362637362637,-3.52014652014652,-2.881562881562881,4.0625,-0.96875,-1.0625,-1.6312576312576312,-3.6349206349206344,-2.7338217338217334,3.71875,-0.875,-1.0625,-1.3992673992673992,-2.68986568986569,-2.641025641025641,3.75,-0.53125,-1.03125,-2.1672771672771667,-2.5970695970695967,-3.8937728937728937,3.90625,-0.53125,-0.96875,-2.398046398046398,-2.7228327228327234,-4.782661782661783,3.375,-0.65625,-0.8125,-2.086691086691087,-3.1623931623931623,-4.454212454212454,2.9375,-0.78125,-0.71875,-1.065934065934066,-3.511599511599512,-3.1941391941391943,2.5625,0.0,-0.84375,-2.208791208791209,-1.8351648351648349,-3.485958485958486,2.6875,0.0,-0.6875,-1.6556776556776556,-1.661782661782662,-4.57997557997558,2.71875,0.0,-0.53125,-0.7179487179487181,-2.330891330891331,-5.1562881562881575,2.3125,0.0,0.0,0.0,-2.8608058608058613,-4.62026862026862,1.78125,-0.96875,-0.59375,-1.3833943833943834,-2.062271062271062,-3.4908424908424913,1.65625,-0.96875,-0.5625,-1.7728937728937728,-1.3052503052503053,-2.8962148962148966,1.875,0.0,0.0,-1.0671550671550671,-1.3540903540903542,-3.1526251526251525,2.0,0.0,0.0,-0.9768009768009768,-2.0097680097680097,-4.017094017094017,1.6875,-0.53125,0.0,-2.335775335775336,-1.8363858363858363,-4.68986568986569,1.34375,0.0,0.0,-2.5225885225885225,-1.5384615384615383,-4.1611721611721615,1.1875,0.0,0.0,-2.2808302808302807,-1.5335775335775337,-3.361416361416361,1.1875,0.0,0.0,-0.7216117216117216,-1.8058608058608057,-2.184371184371184,1.1875,0.0,0.0,0.0,-2.0085470085470085,-1.9584859584859584,1.03125,0.0,0.0,-0.5885225885225885,-1.7655677655677655,-2.8693528693528694,0.8125,0.0,0.0,-1.8376068376068373,-1.7057387057387057,-3.6214896214896215,0.53125,0.0,0.0,-2.2820512820512815,-1.982905982905983,-3.4932844932844933,0.0,0.0,0.0,-1.7203907203907205,-2.096459096459097,-2.8547008547008548,0.0,0.0,0.0,-0.9914529914529916,-2.1184371184371185,-2.2820512820512815,0.0,0.0,0.0,,,,,,,,,,,,,,,,,,,,,,,,,,,,,,,,,,,,,,,,,,,,,,,,,,,,,,,,,,,,,,,,,,,,,,,,,,,,,,,pullUp
accX,0.0,0.0,1.3455433455433456,0.84375,0.0,0.0,0.7338217338217338,0.0,1.9035409035409037,1.0,0.0,0.0,1.2967032967032968,-0.6471306471306472,2.324786324786325,0.8125,0.0,0.0,1.617826617826618,0.0,2.909645909645909,0.71875,0.0,0.0,1.3064713064713065,0.0,3.1074481074481075,1.09375,0.0,0.0,1.6715506715506716,0.0,3.1623931623931623,1.40625,0.0,0.0,2.2698412698412698,-1.2148962148962148,3.289377289377289,1.5,0.0,0.0,2.399267399267399,-1.1733821733821734,3.608058608058608,1.71875,0.0,-0.59375,2.533577533577533,-1.6019536019536018,3.5750915750915757,1.96875,0.0,-0.75,1.815628815628816,-1.746031746031746,3.568986568986569,2.375,0.0,-0.84375,1.4957264957264955,-2.3956043956043955,2.9804639804639805,2.6875,0.0,-0.84375,2.1697191697191696,-2.5921855921855923,2.7557997557997562,2.84375,0.0,-0.96875,1.809523809523809,-2.831501831501832,2.78998778998779,3.0625,0.0,-1.0625,1.8925518925518925,-3.2759462759462763,2.57997557997558,3.28125,0.0,-1.1875,1.8119658119658117,-3.553113553113553,1.8693528693528692,3.4375,-0.6875,-1.40625,0.0,-3.6703296703296697,0.0,3.5625,0.0,-1.4375,0.0,-3.5641025641025643,0.0,3.65625,0.65625,-1.3125,1.4114774114774116,-3.7960927960927964,0.0,3.65625,0.0,-1.40625,0.6568986568986569,-4.034188034188034,0.7887667887667887,3.6875,0.0,-1.46875,0.0,-3.781440781440781,1.0854700854700854,3.9375,-0.5625,-1.5,0.0,-4.484737484737486,0.0,4.03125,-0.78125,-1.46875,-0.7203907203907204,-4.778998778998779,-0.503052503052503,4.03125,-0.59375,-1.46875,0.0,-4.559218559218559,-0.7985347985347986,4.03125,0.0,-1.5,-1.2246642246642248,-3.776556776556777,-1.4188034188034189,4.125,0.0,-1.46875,-1.4505494505494505,-4.0427350427350435,-2.1562881562881557,4.03125,0.0,-1.3125,-0.8315018315018315,-4.343101343101344,-2.235653235653236,3.875,0.0,-1.375,-0.8424908424908425,-4.611721611721611,-1.8705738705738704,3.75,0.0,-1.34375,-1.6398046398046398,-3.3663003663003663,-1.9768009768009769,3.8125,0.0,-1.0625,-2.023199023199023,-2.8241758241758244,-2.8021978021978016,3.75,0.0,-0.90625,-1.879120879120879,-2.514041514041514,-2.9877899877899887,3.5,0.0,-0.84375,-1.915750915750916,-2.5164835164835164,-3.3687423687423688,3.46875,0.0,-0.75,-1.297924297924298,-2.625152625152625,-3.84981684981685,3.4375,0.0,-0.59375,-1.4932844932844933,-2.481074481074481,-4.385836385836386,3.15625,0.0,-0.625,-1.673992673992674,-2.358974358974359,-4.158730158730159,2.90625,0.0,-0.5625,-1.5274725274725274,-2.32967032967033,-4.056166056166056,2.78125,0.0,0.0,-1.7411477411477412,-2.13064713064713,-4.150183150183151,2.53125,0.0,0.0,-1.4151404151404152,-2.0097680097680097,-4.192918192918193,2.3125,0.0,0.0,0.0,-2.137973137973138,-3.4884004884004884,2.09375,0.0,0.0,-0.5555555555555556,-1.7667887667887667,-3.318681318681319,1.90625,0.0,0.0,-2.0781440781440783,-1.1367521367521367,-3.8156288156288163,1.84375,0.0,0.0,-2.0769230769230766,-1.568986568986569,-4.267399267399267,1.75,0.0,0.0,-1.249084249084249,-1.8119658119658117,-3.996336996336997,1.53125,0.0,0.0,-1.266178266178266,-1.84004884004884,-3.761904761904762,1.34375,0.0,0.0,-0.8095238095238095,-2.0427350427350426,-4.177045177045176,1.1875,0.0,0.0,-0.7814407814407814,-1.8669108669108667,-4.487179487179487,0.90625,0.0,0.0,-0.8571428571428571,-1.8217338217338217,-3.89010989010989,0.6875,0.0,0.0,-0.9633699633699634,-1.8351648351648349,-3.061050061050061,0.53125,0.0,0.0,-1.05006105006105,-1.7533577533577531,-2.330891330891331,0.0,0.0,0.0,-0.5897435897435898,-1.8925518925518925,-2.1062271062271063,0.0,0.0,0.0,0.0,-1.8925518925518925,-2.064713064713065,0.0,0.0,0.0,-0.8742368742368742,-1.1111111111111112,-1.6166056166056166,0.0,0.0,0.0,-0.9108669108669109,-1.6214896214896215,-1.2344322344322345,0.0,0.0,0.0,-0.7887667887667887,-1.442002442002442,-0.934065934065934,0.0,0.0,0.0,-0.8315018315018315,-1.6886446886446886,-1.2967032967032968,0.0,0.0,0.0,-0.5396825396825397,-1.78021978021978,-1.6727716727716728,0.0,0.0,0.0,0.0,-1.7130647130647132,-1.5702075702075702,0.0,0.0,0.0,,,,,,,,,,,,,,,,,,,,,,,,,,,,,,,,,,,,,,,,,,,pullUp
accX,0.8376068376068376,0.0,1.8339438339438336,0.65625,0.0,0.0,1.8339438339438336,-1.293040293040293,2.351648351648352,0.8125,0.0,0.0,1.8412698412698407,-0.5604395604395604,3.2234432234432235,0.75,0.0,0.0,1.9633699633699635,0.0,3.42002442002442,0.84375,0.0,0.0,1.8608058608058609,0.0,3.1294261294261294,1.0625,0.0,0.0,1.8913308913308915,0.0,3.2295482295482296,1.21875,0.0,0.0,2.1514041514041518,-0.9584859584859584,3.2625152625152625,1.375,0.0,-0.53125,1.9035409035409037,-0.8339438339438342,3.31990231990232,1.53125,0.0,-0.625,2.318681318681319,-1.249084249084249,3.7045177045177047,1.875,0.0,-0.6875,2.3284493284493286,-1.8730158730158732,3.498168498168498,2.21875,0.0,-0.875,1.9023199023199024,-2.195360195360196,3.1697191697191696,2.4375,0.0,-1.0,2.0195360195360195,-2.625152625152625,3.155067155067155,2.625,0.0,-1.125,1.7606837606837606,-2.9072039072039066,2.879120879120879,2.9375,0.0,-1.21875,1.7875457875457876,-3.0244200244200243,2.3150183150183152,3.15625,0.0,-1.3125,1.956043956043956,-3.291819291819292,1.9572649572649568,3.3125,0.0,-1.4375,0.0,-2.7777777777777777,1.2515262515262515,3.4375,-0.78125,-1.6875,-1.2246642246642248,-2.771672771672772,0.0,3.59375,0.0,-1.625,-0.5653235653235653,-3.0183150183150182,0.0,3.65625,0.0,-1.4375,0.0,-3.383394383394384,0.0,3.5625,0.0,-1.375,0.0,-3.122100122100122,0.0,3.71875,0.0,-1.4375,0.0,-3.4090354090354085,0.0,3.78125,0.0,-1.46875,0.0,-3.7753357753357752,-0.5702075702075702,3.625,-0.5625,-1.5625,-0.7557997557997558,-3.3064713064713063,0.0,3.65625,-0.71875,-1.5625,-1.5091575091575091,-3.155067155067155,0.0,3.8125,-0.625,-1.4375,-1.84004884004884,-2.9401709401709404,-1.0891330891330893,3.875,0.0,-1.28125,-1.7557997557997558,-3.3748473748473753,-1.844932844932845,3.75,0.0,-1.1875,-1.7167277167277166,-3.0830280830280827,-2.207570207570208,3.5625,0.0,-1.125,-1.5970695970695972,-3.42002442002442,-1.6654456654456655,3.5,0.0,-1.0,-0.8412698412698413,-3.3345543345543347,-1.3565323565323566,3.53125,0.0,-0.96875,0.0,-2.881562881562881,-2.0366300366300365,3.53125,0.0,-0.96875,-1.2246642246642248,-2.913308913308913,-2.844932844932845,3.3125,-0.8125,-0.9375,-1.938949938949939,-3.398046398046398,-2.547008547008547,3.0625,-0.6875,-0.84375,-1.2124542124542124,-2.9804639804639805,-1.6837606837606838,3.09375,0.0,-0.78125,-1.2112332112332111,-2.4896214896214897,-1.586080586080586,3.34375,0.0,-0.6875,-1.894993894993895,-2.571428571428572,-2.811965811965812,3.28125,0.0,-0.59375,-1.8021978021978025,-3.4639804639804637,-3.851037851037851,2.8125,-0.71875,0.0,-1.5567765567765568,-3.6263736263736255,-3.3455433455433456,2.375,-0.9375,-0.5625,-1.9645909645909645,-3.091575091575092,-2.7240537240537246,2.40625,-0.5625,-0.53125,-2.0695970695970702,-2.6227106227106227,-2.9987789987789983,2.5625,0.0,0.0,-1.31013431013431,-2.877899877899878,-4.549450549450549,2.4375,0.0,0.0,-0.9755799755799756,-3.2551892551892547,-5.847374847374848,1.90625,-0.59375,0.0,-2.053724053724053,-2.411477411477412,-5.7484737484737485,1.46875,-0.5625,0.0,-2.1721611721611715,-1.953601953601953,-4.658119658119658,1.375,0.0,0.0,-2.0329670329670333,-1.7631257631257633,-3.073260073260073,1.375,0.0,0.0,-1.1782661782661783,-2.5946275946275947,-3.3540903540903533,1.09375,0.0,0.0,-2.2588522588522593,-1.8803418803418803,-3.681318681318681,0.6875,0.0,0.0,-2.288156288156288,-1.7814407814407816,-3.2857142857142856,0.5625,0.0,0.0,-1.7179487179487178,-2.1684981684981683,-2.8034188034188032,0.0,0.0,0.0,-1.0805860805860803,-2.1819291819291817,-2.333333333333333,0.0,0.0,0.0,-0.73992673992674,-2.2588522588522593,-2.294261294261294,0.0,0.0,0.0,-1.103785103785104,-1.6654456654456655,-2.064713064713065,0.0,0.0,0.0,-1.2332112332112333,-1.9645909645909645,-2.0268620268620268,0.0,0.0,0.0,-1.0695970695970696,-1.9609279609279608,-1.746031746031746,0.0,0.0,0.0,,,,,,,,,,,,,,,,,,,,,,,,,,,,,,,,,,,,,,,,,,,,,,,,,,,,,,,,,,,,,pullUp
accX,0.8656898656898657,0.0,0.5311355311355311,0.0,0.0,0.0,0.8693528693528694,0.0,1.3137973137973138,0.0,0.0,0.0,1.468864468864469,0.6166056166056166,2.275946275946276,0.0,0.0,0.0,1.8925518925518925,0.0,2.565323565323565,0.0,0.0,0.0,1.7130647130647132,0.0,2.554334554334554,0.71875,0.0,0.0,1.8583638583638584,0.0,2.5946275946275947,0.75,0.0,0.0,1.9816849816849815,0.0,3.05006105006105,0.84375,0.0,0.0,2.1416361416361416,0.0,3.1074481074481075,1.09375,0.0,0.0,2.021978021978022,-0.5323565323565324,3.1697191697191696,1.5,0.0,-0.59375,2.6153846153846154,-1.4297924297924298,3.2222222222222223,1.84375,0.5625,-0.6875,2.6630036630036633,-1.6019536019536018,3.346764346764347,2.03125,0.59375,-0.90625,2.687423687423687,-2.0488400488400487,3.06959706959707,2.25,0.0,-1.0625,2.0744810744810747,-1.9719169719169718,3.1147741147741153,2.4375,0.0,-1.21875,1.4822954822954824,-2.017094017094017,2.673992673992674,2.8125,0.0,-1.21875,1.5128205128205128,-2.477411477411477,1.7313797313797314,3.125,0.0,-1.21875,1.0818070818070815,-2.851037851037851,1.2527472527472527,3.125,0.0,-1.3125,1.0561660561660562,-3.075702075702076,1.3247863247863247,3.1875,0.0,-1.375,1.5445665445665446,-3.449328449328449,1.2283272283272284,3.34375,0.0,-1.4375,0.9328449328449328,-3.511599511599512,0.811965811965812,3.4375,0.0,-1.625,0.0,-3.611721611721612,0.956043956043956,3.59375,0.0,-1.625,0.0,-3.6703296703296697,0.8656898656898657,3.8125,0.0,-1.5625,0.0,-4.068376068376068,0.5824175824175825,3.84375,0.0,-1.5625,0.0,-3.4810744810744816,0.0,3.84375,0.0,-1.5625,-0.6166056166056166,-3.8632478632478633,0.0,4.125,-0.6875,-1.53125,-1.6056166056166057,-3.523809523809524,-1.442002442002442,4.15625,-0.59375,-1.4375,-1.956043956043956,-3.8864468864468864,-2.399267399267399,3.9375,0.0,-1.34375,-1.4920634920634919,-3.6996336996337003,-2.1001221001221,3.84375,0.0,-1.21875,-1.3650793650793651,-3.2014652014652016,-2.155067155067155,3.96875,0.0,-1.09375,-0.9474969474969476,-3.1990231990231983,-2.7472527472527477,3.875,0.0,-1.03125,-1.177045177045177,-3.655677655677656,-3.192918192918193,3.4375,-0.71875,-1.03125,-1.6324786324786325,-3.715506715506716,-2.5873015873015874,3.0625,-0.71875,-1.03125,-1.8351648351648349,-2.501831501831502,-2.064713064713065,3.28125,0.0,-1.0,-1.0537240537240538,-2.5482295482295485,-2.7387057387057387,3.375,0.0,-0.84375,-0.9768009768009768,-2.7973137973137967,-3.4261294261294264,3.125,-1.0625,-0.78125,-0.9829059829059827,-3.62026862026862,-3.1245421245421245,2.71875,-1.71875,-0.875,-2.4920634920634916,-3.1684981684981683,-3.023199023199023,2.375,-1.8125,-0.90625,-3.5360195360195363,-2.9914529914529915,-3.021978021978022,2.21875,-0.96875,-0.78125,-3.768009768009768,-2.4273504273504267,-3.811965811965812,2.21875,0.0,0.0,-1.8986568986568984,-2.409035409035409,-4.15995115995116,2.15625,0.0,0.0,0.0,-3.0085470085470085,-4.423687423687424,1.75,0.0,0.0,-1.3186813186813189,-1.8656898656898655,-4.6874236874236885,1.53125,-0.5625,0.0,-1.9963369963369964,-1.9474969474969477,-4.609279609279608,1.28125,-0.625,0.0,-2.357753357753358,-1.884004884004884,-4.377289377289378,1.09375,0.0,0.0,-2.266178266178266,-1.8376068376068373,-3.912087912087912,0.9375,0.0,0.0,-1.5433455433455434,-1.5921855921855919,-2.8351648351648358,0.875,0.0,0.0,-0.7802197802197802,-1.4835164835164836,-1.536019536019536,0.96875,0.6875,0.0,0.0,-1.733821733821734,-1.2319902319902318,0.90625,0.0,0.0,-0.7045177045177046,-1.4163614163614164,-1.8485958485958487,0.65625,0.0,0.0,-3.148962148962149,-1.565323565323565,-3.2698412698412698,0.0,0.0,0.0,-2.192918192918193,-1.7191697191697193,-2.7643467643467643,0.0,0.0,0.0,-0.5958485958485958,-2.031746031746032,-1.9010989010989008,0.0,0.0,0.0,-0.6263736263736264,-1.6947496947496947,-1.5873015873015872,0.0,0.0,0.0,-1.2454212454212454,-1.536019536019536,-2.1770451770451764,0.0,0.0,0.0,-0.9401709401709402,-1.6422466422466422,-2.117216117216117,0.0,0.0,0.0,-0.5555555555555556,-1.953601953601953,-1.8070818070818069,0.0,0.0,0.0,,,,,,,,,,,,,,,,,,,,,,,,,,,,,,,,,,,,,,,,,,,,,,,,,pullUp
accX,0.5958485958485958,0.0,1.8412698412698407,0.9375,0.0,0.0,1.2637362637362637,0.0,2.1086691086691087,0.96875,0.0,0.0,1.6251526251526252,0.0,2.288156288156288,0.71875,0.0,0.0,2.128205128205128,0.0,2.68986568986569,0.6875,0.0,0.0,2.086691086691087,0.5299145299145299,3.31013431013431,1.125,0.0,0.0,1.9242979242979243,0.0,3.8949938949938954,1.65625,0.0,0.0,2.6666666666666665,-1.0634920634920637,3.217338217338217,1.65625,0.0,0.0,2.2625152625152625,-1.1062271062271063,2.2551892551892547,1.46875,0.0,-0.53125,1.5787545787545787,-0.5506715506715507,2.2600732600732596,1.5625,0.0,-0.5625,1.9768009768009769,-0.7155067155067155,2.5164835164835164,1.96875,0.0,-0.625,2.687423687423687,-1.9169719169719168,2.937728937728938,2.28125,0.0,-0.84375,2.716727716727717,-2.2967032967032965,3.2197802197802203,2.5625,0.0,-1.15625,1.192918192918193,-2.5665445665445668,3.3406593406593412,2.84375,-0.65625,-1.25,0.0,-2.8461538461538463,2.85958485958486,3.1875,0.0,-1.15625,1.1575091575091576,-3.225885225885226,1.9047619047619049,3.3125,0.0,-1.21875,1.297924297924298,-3.5836385836385842,1.3663003663003663,3.3125,0.0,-1.4375,0.9169719169719168,-3.2881562881562885,1.2417582417582418,3.375,0.0,-1.53125,0.6837606837606838,-3.653235653235653,1.0341880341880345,3.40625,0.0,-1.59375,0.0,-3.6263736263736255,1.2747252747252746,3.65625,0.0,-1.5625,0.989010989010989,-3.496947496947497,0.0,3.78125,0.0,-1.59375,0.0,-3.2759462759462763,0.0,3.75,-0.59375,-1.6875,0.0,-3.2246642246642248,0.0,3.84375,0.0,-1.625,0.0,-3.0976800976800978,-0.7997557997557998,3.9375,0.0,-1.5625,0.0,-3.371184371184371,-0.9242979242979243,3.8125,0.0,-1.53125,-0.5177045177045178,-2.8156288156288163,-0.7326007326007326,3.75,0.0,-1.53125,-1.6691086691086692,-3.1623931623931623,-1.5128205128205128,3.96875,-0.6875,-1.46875,-2.122100122100122,-3.0207570207570207,-2.3174603174603177,3.875,0.0,-1.3125,-1.4456654456654456,-2.9951159951159956,-3.15018315018315,3.78125,0.0,-1.25,-0.9694749694749696,-3.783882783882784,-3.1343101343101343,3.53125,0.0,-1.25,-0.7118437118437119,-3.371184371184371,-2.4444444444444446,3.28125,-0.59375,-1.28125,-0.7387057387057387,-3.1684981684981683,-2.326007326007326,3.4375,-0.59375,-1.21875,-1.2564102564102564,-2.9536019536019538,-3.323565323565324,3.5,-0.59375,-1.25,-2.029304029304029,-3.1623931623931623,-4.2905982905982905,3.25,-0.84375,-1.28125,-2.2124542124542126,-3.1526251526251525,-3.663003663003663,2.78125,-1.15625,-1.1875,-2.1855921855921854,-3.0427350427350426,-3.3064713064713063,2.75,-1.21875,-1.0625,-2.0073260073260077,-3.1562881562881566,-4.037851037851038,2.78125,-0.84375,-1.03125,-2.6935286935286937,-2.467643467643468,-4.926739926739927,2.59375,0.0,-1.0,-2.675213675213675,-2.769230769230769,-5.383394383394385,2.3125,0.0,-0.84375,-2.619047619047619,-2.8925518925518925,-5.345543345543344,1.71875,0.0,-0.8125,-3.417582417582417,-1.887667887667888,-4.601953601953602,1.34375,-0.5625,-0.75,-3.3785103785103785,-1.514041514041514,-4.660561660561661,1.5625,0.0,0.0,-2.6654456654456653,-2.5689865689865687,-5.454212454212454,1.5,0.0,0.0,-2.763125763125763,-2.083028083028083,-4.925518925518926,0.875,0.0,0.0,-2.5006105006105006,-1.5811965811965811,-3.542124542124542,0.0,0.5625,0.0,-1.2039072039072038,-1.6043956043956045,-2.47008547008547,0.0,0.65625,0.0,0.0,-1.8632478632478635,-2.144078144078144,0.0,0.0,0.0,-0.7606837606837606,-1.8473748473748477,-2.211233211233212,0.0,0.0,0.0,-1.133089133089133,-1.4737484737484738,-1.8986568986568984,0.0,0.0,0.0,-1.1868131868131868,-1.2991452991452992,-1.5054945054945057,0.0,0.0,0.0,-0.5860805860805861,-1.4993894993894994,-1.5079365079365081,0.0,0.0,0.0,0.0,-1.3052503052503053,-1.5445665445665446,0.0,0.0,0.0,0.0,-1.4432234432234432,-1.6141636141636142,0.0,0.0,0.0,-0.7374847374847375,-1.4322344322344325,-1.8302808302808304,0.0,0.0,0.0,,,,,,,,,,,,,,,,,,,,,,,,,,,,,,,,,,,,,,,,,,,,,,,,,,,,,,,,,,,,,pullUp
accX,0.9328449328449328,0.0,1.575091575091575,0.59375,0.0,0.0,0.6141636141636142,0.0,2.440781440781441,0.5625,0.0,0.0,1.6971916971916972,0.7094017094017094,3.948717948717949,0.71875,0.75,0.0,3.5775335775335777,-0.5567765567765568,4.537240537240537,1.15625,0.90625,0.0,3.245421245421245,0.0,4.0427350427350435,1.46875,0.0,0.0,2.5164835164835164,-0.6471306471306472,3.2442002442002438,1.625,0.0,0.0,1.9584859584859584,-0.6837606837606838,2.868131868131868,1.5,0.0,0.0,2.062271062271062,-0.6666666666666666,3.0463980463980462,1.4375,0.0,-0.53125,2.017094017094017,0.0,3.2002442002442004,1.71875,0.0,-0.625,2.094017094017094,-1.3223443223443223,3.031746031746032,2.1875,0.0,-0.75,1.5225885225885225,-1.5824175824175823,2.811965811965812,2.375,0.0,-0.875,1.0586080586080586,-2.267399267399268,2.7203907203907205,2.53125,0.0,-0.96875,0.9755799755799756,-2.6031746031746037,2.542124542124542,2.6875,0.0,-1.03125,1.4676434676434675,-2.935286935286935,2.4920634920634916,2.84375,0.0,-1.09375,1.5726495726495726,-2.851037851037851,2.2014652014652016,3.125,0.0,-1.1875,1.2503052503052503,-2.7313797313797314,1.568986568986569,3.375,0.0,-1.28125,0.8827838827838828,-3.0,0.9768009768009768,3.4375,0.0,-1.4375,0.0,-2.6105006105006106,0.9609279609279608,3.34375,0.0,-1.5,0.0,-2.4725274725274726,0.9572649572649572,3.5,0.0,-1.4375,0.6593406593406593,-2.652014652014652,0.6398046398046398,3.71875,0.0,-1.34375,0.5433455433455433,-3.11965811965812,0.0,3.8125,0.0,-1.34375,0.0,-3.2332112332112333,0.0,3.71875,-0.65625,-1.5,0.0,-3.2014652014652016,0.0,3.6875,-0.8125,-1.5625,-0.7142857142857143,-2.8229548229548236,-1.0012210012210012,3.75,-0.6875,-1.53125,-0.8192918192918193,-2.8534798534798536,-1.3553113553113554,3.75,-0.59375,-1.46875,-1.2063492063492065,-3.1990231990231983,-1.6434676434676434,3.625,-0.59375,-1.40625,-1.8107448107448108,-2.8351648351648358,-1.5274725274725274,3.625,0.0,-1.34375,-1.7887667887667889,-2.8217338217338215,-1.9328449328449329,3.71875,0.0,-1.125,0.0,-2.7423687423687424,-2.6227106227106227,3.5625,0.0,-1.125,0.0,-2.8693528693528694,-3.1904761904761907,3.28125,-0.75,-1.21875,-1.338217338217338,-3.2515262515262515,-2.937728937728938,3.03125,-1.21875,-1.1875,-2.117216117216117,-2.879120879120879,-2.556776556776557,3.0625,-0.84375,-1.125,-1.8571428571428568,-3.0989010989010985,-2.656898656898657,3.09375,0.0,-1.0,-0.7118437118437119,-2.85958485958486,-2.8461538461538463,3.0625,0.0,-1.0,-0.5726495726495726,-2.5641025641025643,-3.565323565323565,2.9375,0.0,-1.0,-1.4957264957264955,-2.8131868131868134,-4.470085470085469,2.6875,-1.0,-0.875,-3.126984126984127,-2.7387057387057387,-4.844932844932845,2.53125,-0.90625,-0.6875,-3.4053724053724053,-2.474969474969475,-5.0708180708180715,2.40625,0.0,-0.59375,-3.21001221001221,-2.6178266178266183,-5.096459096459097,1.96875,0.0,-0.53125,-2.435897435897436,-1.8510378510378511,-5.1379731379731375,1.71875,0.0,0.0,-1.1391941391941391,-2.0805860805860807,-5.151404151404153,1.5,0.0,0.0,-1.3663003663003663,-1.804639804639805,-4.871794871794871,1.125,0.0,0.0,-2.737484737484737,-1.2991452991452992,-3.9938949938949935,1.0625,0.0,0.0,-2.354090354090354,-1.376068376068376,-2.9255189255189253,1.125,0.0,0.0,-0.7814407814407814,-1.4993894993894994,-1.9462759462759465,1.0,0.0,0.0,0.0,-1.6251526251526252,-2.0146520146520146,0.6875,0.0,0.0,-0.7240537240537241,-1.2173382173382172,-2.807081807081807,0.5625,0.0,0.0,-1.684981684981685,-1.275946275946276,-3.0793650793650795,0.0,0.0,0.0,-0.7753357753357754,-1.5421245421245422,-2.67032967032967,0.0,0.0,0.0,-0.9487179487179488,-1.534798534798535,-2.7338217338217334,0.0,0.0,0.0,-1.126984126984127,-1.1135531135531136,-2.3089133089133087,0.0,0.0,0.0,-1.0085470085470083,-1.5164835164835164,-2.3504273504273505,0.0,0.0,0.0,0.0,-1.8901098901098898,-2.335775335775336,0.0,0.0,0.0,0.0,-1.7423687423687424,-2.175824175824176,0.0,0.0,0.0,,,,,,,,,,,,,,,,,,,,,,,,,,,,,,,,,,,,,,,,,,,,,,,,,,,,,,,pullUp
accX,0.0,0.8608058608058609,1.3064713064713065,0.0,0.0,0.0,0.0,0.9133089133089132,1.915750915750916,0.625,0.0,0.0,0.9377289377289376,-0.5958485958485958,1.6532356532356531,0.6875,0.0,0.0,1.0354090354090355,0.0,1.9768009768009769,0.65625,0.0,0.0,1.2612942612942613,0.0,2.385836385836386,0.6875,0.0,0.0,0.9633699633699634,0.0,2.1855921855921854,0.875,0.0,0.0,1.5091575091575091,0.0,1.9938949938949944,0.8125,0.0,0.0,2.3418803418803416,0.0,2.7460317460317465,0.78125,0.0,0.0,2.3418803418803416,0.0,3.456654456654457,1.09375,0.0,0.0,2.389499389499389,0.0,3.556776556776557,1.40625,0.0,0.0,2.533577533577533,-0.5726495726495726,3.606837606837607,1.6875,0.0,-0.53125,2.9230769230769234,-1.2454212454212454,3.571428571428572,1.9375,0.0,-0.75,2.0989010989010994,-1.4505494505494505,3.2576312576312576,2.09375,0.0,-0.9375,1.1184371184371185,-1.5433455433455434,3.05982905982906,2.40625,0.0,-0.90625,2.004884004884005,-2.05982905982906,3.1123321123321124,2.65625,0.0,-0.96875,2.235653235653236,-2.5824175824175826,2.9633699633699635,2.8125,0.0,-1.15625,1.9047619047619049,-2.7118437118437115,2.47985347985348,2.96875,-0.65625,-1.34375,1.0989010989010992,-2.758241758241758,1.9365079365079363,3.1875,-0.6875,-1.46875,1.1086691086691087,-2.7826617826617825,1.3308913308913308,3.28125,-0.71875,-1.59375,0.5921855921855922,-2.750915750915751,0.7826617826617827,3.28125,-0.75,-1.6875,0.0,-2.7814407814407813,0.6007326007326007,3.34375,0.0,-1.65625,0.0,-2.6105006105006106,0.0,3.46875,0.0,-1.625,0.0,-2.8107448107448105,0.0,3.5,0.0,-1.5625,0.0,-2.765567765567765,-0.5128205128205128,3.53125,0.0,-1.53125,0.0,-2.6507936507936507,-0.8021978021978022,3.5625,0.0,-1.5,0.0,-2.9426129426129437,-1.1025641025641026,3.5,0.0,-1.53125,0.0,-2.844932844932845,-1.1782661782661783,3.40625,-0.6875,-1.59375,-1.9047619047619049,-2.4517704517704515,-1.4004884004884004,3.1875,-0.96875,-1.59375,-2.501831501831502,-1.967032967032967,-1.4285714285714286,3.21875,0.0,-1.4375,-1.4322344322344325,-2.236874236874237,-1.5445665445665446,3.28125,0.0,-1.1875,0.0,-1.661782661782662,-1.982905982905983,3.28125,0.0,-1.125,0.0,-2.452991452991453,-2.418803418803418,3.125,0.0,-1.15625,-0.5848595848595849,-2.3443223443223444,-2.0415140415140414,2.9375,-0.875,-1.34375,-1.8852258852258847,-2.208791208791209,-1.9365079365079363,2.90625,-0.78125,-1.28125,-2.21978021978022,-2.010989010989011,-2.5445665445665444,3.03125,0.0,-1.1875,-1.0866910866910866,-2.437118437118437,-3.207570207570208,2.96875,0.0,-1.03125,0.0,-3.346764346764347,-3.1538461538461537,2.65625,-0.625,-1.09375,-1.0793650793650793,-2.6349206349206344,-2.9316239316239314,2.34375,-1.0625,-1.25,-2.2576312576312576,-2.23931623931624,-3.361416361416361,2.40625,-0.5625,-1.15625,-1.9047619047619049,-2.034188034188034,-4.0305250305250295,2.4375,0.0,-1.03125,-2.1672771672771667,-2.2283272283272284,-4.227106227106227,2.25,0.0,-0.9375,-2.683760683760684,-2.313797313797314,-3.8913308913308913,2.03125,0.0,-0.8125,-2.601953601953602,-2.117216117216117,-3.4932844932844933,1.78125,0.0,-0.6875,-2.173382173382173,-1.537240537240537,-3.3968253968253967,1.71875,0.0,-0.5625,-2.2588522588522593,-1.6971916971916972,-3.768009768009768,1.78125,0.0,0.0,-2.4065934065934065,-1.8742368742368745,-4.1391941391941405,1.5625,0.0,0.0,-2.509157509157509,-1.6092796092796091,-3.920634920634921,1.1875,0.0,0.0,-2.5885225885225887,-1.3992673992673992,-3.3992673992673987,1.0625,0.0,0.0,-1.9914529914529917,-1.7704517704517704,-2.873015873015873,1.03125,0.0,0.0,-1.0488400488400489,-1.912087912087912,-2.490842490842491,0.875,0.0,0.0,0.0,-1.7533577533577531,-1.9194139194139197,0.65625,0.0,0.0,-0.5995115995115995,-1.2527472527472527,-1.982905982905983,0.5625,0.0,0.0,-1.5592185592185592,-1.3846153846153846,-2.6764346764346763,0.0,0.0,0.0,-1.9377289377289375,-1.321123321123321,-3.1257631257631258,0.0,0.0,0.0,-1.568986568986569,-1.6544566544566544,-3.031746031746032,0.0,0.0,0.0,-1.264957264957265,-1.6483516483516485,-2.6727716727716726,0.0,0.0,0.0,,,,,,,,,,,,,,,,,,,,,,,,,,,,,,,,,,,,,,,,,,,pullUp
accX,0.0,0.7545787545787546,1.0048840048840049,0.0,0.0,0.0,0.0,1.05006105006105,1.2442002442002442,0.75,0.0,0.0,0.5286935286935287,0.6483516483516484,0.8815628815628815,0.65625,0.0,0.0,1.1514041514041513,0.0,1.1477411477411477,0.0,0.0,0.0,1.5238095238095235,0.0,2.1062271062271063,0.0,0.0,0.0,1.6727716727716728,0.0,3.0561660561660564,0.5625,0.0,0.0,1.8913308913308915,0.0,3.2869352869352872,0.96875,0.0,0.0,1.9242979242979243,0.0,3.0183150183150182,1.28125,0.0,0.0,2.092796092796093,0.0,2.9462759462759465,1.5,0.0,0.0,2.092796092796093,-0.8656898656898657,2.831501831501832,1.71875,0.0,0.0,1.9023199023199024,-0.7020757020757019,3.0329670329670333,1.84375,0.0,-0.59375,1.9865689865689864,-1.1978021978021978,3.1575091575091574,2.125,0.0,-0.65625,1.7448107448107448,-1.7851037851037852,3.192918192918193,2.34375,0.0,-0.78125,1.678876678876679,-2.1575091575091574,3.2442002442002438,2.53125,0.0,-0.9375,0.0,-2.0549450549450547,2.2796092796092795,2.71875,0.0,-1.03125,0.0,-2.2063492063492065,1.3699633699633702,2.9375,0.0,-1.0,0.63003663003663,-2.120879120879121,1.0708180708180708,3.0,0.0,-1.0,0.6019536019536019,-2.1514041514041518,0.8351648351648352,3.0625,0.0,-1.03125,0.5274725274725275,-2.1746031746031744,0.0,3.09375,0.0,-1.0625,0.6410256410256411,-2.5164835164835164,0.0,3.09375,0.0,-1.125,0.0,-2.437118437118437,0.0,3.15625,0.0,-1.125,0.6202686202686203,-2.4761904761904763,0.0,3.34375,0.0,-1.09375,1.1514041514041513,-2.7216117216117217,0.0,3.375,0.0,-1.15625,0.0,-2.404151404151404,-0.8241758241758241,3.3125,-0.75,-1.28125,0.0,-2.4065934065934065,-1.1294261294261294,3.28125,-0.71875,-1.28125,0.0,-2.709401709401709,-0.7191697191697192,3.1875,0.0,-1.28125,0.0,-1.9768009768009769,-0.6886446886446886,3.34375,0.0,-1.28125,0.0,-2.1562881562881557,-1.2295482295482296,3.34375,-0.65625,-1.25,-0.9194139194139194,-2.145299145299145,-1.5506715506715507,3.21875,-0.78125,-1.21875,-1.4932844932844933,-2.47985347985348,-1.4432234432234432,3.1875,0.0,-1.125,-0.7948717948717948,-1.8986568986568984,-1.8363858363858363,3.25,0.0,-1.0625,0.0,-2.086691086691087,-2.6336996336996337,3.09375,0.0,-1.0625,-0.5934065934065934,-2.4053724053724053,-2.7411477411477403,2.8125,-0.625,-1.125,-1.120879120879121,-2.4273504273504267,-1.967032967032967,2.75,0.0,-1.09375,-0.8717948717948718,-2.5921855921855923,-1.3748473748473748,2.8125,0.0,-1.03125,-1.0879120879120878,-1.8583638583638584,-1.8315018315018317,2.90625,0.0,-0.96875,-1.1477411477411477,-2.0488400488400487,-2.687423687423687,2.875,0.0,-0.875,-1.0976800976800978,-2.5067155067155067,-2.938949938949939,2.6875,0.0,-0.8125,-1.2258852258852257,-2.7081807081807083,-2.5824175824175826,2.5,0.0,-0.84375,-1.4871794871794872,-2.1697191697191696,-2.3174603174603177,2.5625,0.0,-0.8125,-1.0561660561660562,-2.1526251526251525,-2.8864468864468864,2.53125,0.0,-0.71875,-0.8253968253968254,-2.501831501831502,-3.449328449328449,2.25,-0.6875,-0.78125,-1.9267399267399268,-2.4822954822954824,-3.6825396825396814,2.0,-0.90625,-0.71875,-3.1330891330891335,-1.876678876678877,-3.628815628815629,2.0,0.0,-0.53125,-2.9145299145299144,-1.5982905982905984,-3.542124542124542,2.09375,0.0,0.0,-1.702075702075702,-2.611721611721612,-3.7606837606837606,1.84375,0.0,0.0,-0.5677655677655677,-2.913308913308913,-3.1538461538461537,1.46875,-0.96875,0.0,-1.8644688644688645,-2.323565323565324,-3.175824175824176,1.28125,-0.9375,0.0,-3.3162393162393164,-1.6691086691086692,-3.8058608058608057,1.1875,0.0,0.0,-3.9181929181929176,-1.4432234432234432,-4.603174603174604,1.03125,0.875,0.0,-2.716727716727717,-1.73992673992674,-4.588522588522588,0.71875,1.125,0.0,-0.6764346764346765,-2.189255189255189,-3.1062271062271063,0.0,0.0,0.0,-0.6593406593406593,-2.072039072039072,-2.235653235653236,0.0,0.0,0.0,-0.503052503052503,-1.761904761904762,-1.5628815628815629,0.0,0.0,0.0,0.0,-1.7728937728937728,-1.363858363858364,0.0,0.0,0.0,0.0,-1.9609279609279608,-1.4761904761904765,0.0,0.0,0.0,,,,,,,,,,,,,,,,,,,,,,,,,,,,,,,,,,,,,,,,,,,pullUp
accX,0.0,0.0,0.7020757020757019,0.78125,0.0,0.0,0.5177045177045178,0.0,0.9206349206349206,0.6875,0.0,0.0,0.7155067155067155,0.6874236874236874,1.661782661782662,0.5625,0.0,0.0,1.3223443223443223,0.0,2.275946275946276,0.8125,0.0,0.0,1.5714285714285714,0.0,2.312576312576313,0.90625,0.0,0.0,1.5409035409035412,0.0,2.236874236874237,1.09375,0.0,0.0,2.324786324786325,0.0,2.4346764346764345,1.0625,0.0,0.0,2.5665445665445668,0.0,2.958485958485958,1.1875,0.53125,0.0,2.5921855921855923,0.0,3.0903540903540905,1.5,0.0,-0.53125,2.398046398046398,-0.5225885225885226,3.061050061050061,1.78125,0.0,-0.625,2.398046398046398,-1.3052503052503053,3.4249084249084247,1.9375,0.0,-0.78125,2.7643467643467643,-1.7728937728937728,3.5909645909645915,2.1875,0.0,-1.0,1.6117216117216118,-1.8778998778998781,3.131868131868132,2.5625,0.0,-1.125,1.6349206349206349,-2.3028083028083026,2.6666666666666665,2.84375,0.0,-1.15625,1.3968253968253967,-2.354090354090354,2.1062271062271063,2.96875,0.0,-1.28125,0.8424908424908425,-2.4993894993894994,1.6862026862026862,3.09375,0.0,-1.3125,1.3174603174603174,-2.503052503052503,1.3015873015873016,3.25,0.0,-1.34375,1.3882783882783882,-3.10989010989011,0.9438339438339438,3.25,-0.53125,-1.5,0.6459096459096461,-3.189255189255189,0.6459096459096461,3.1875,-0.875,-1.65625,-1.4041514041514038,-2.5946275946275947,0.0,3.40625,0.0,-1.53125,-0.9218559218559218,-2.7338217338217334,0.0,3.59375,0.0,-1.34375,0.0,-3.216117216117216,-0.6862026862026862,3.53125,0.0,-1.3125,0.0,-3.0488400488400487,-0.9597069597069596,3.4375,0.0,-1.375,0.0,-3.4444444444444446,-1.0854700854700854,3.3125,0.0,-1.46875,-0.9389499389499391,-2.84004884004884,-1.1477411477411477,3.3125,0.0,-1.40625,-1.7545787545787546,-2.831501831501832,-1.4334554334554337,3.375,0.0,-1.21875,-0.9731379731379732,-2.7753357753357752,-1.5946275946275947,3.4375,0.0,-1.0625,0.0,-2.7606837606837606,-1.656898656898657,3.25,0.0,-1.0,0.6605616605616605,-2.3321123321123323,-1.1538461538461535,3.125,0.0,-1.0625,0.0,-1.463980463980464,-1.21001221001221,3.15625,0.0,-1.15625,-1.0561660561660562,-1.5030525030525033,-1.9633699633699635,3.40625,-0.65625,-1.09375,-1.8302808302808304,-2.043956043956044,-3.2551892551892547,3.375,-0.84375,-1.0,-2.0329670329670333,-2.449328449328449,-3.333333333333333,2.96875,-0.84375,-0.96875,-1.0732600732600732,-2.374847374847375,-2.6056166056166057,2.78125,0.0,-0.90625,0.0,-2.0989010989010994,-2.9181929181929176,2.84375,0.0,-0.875,-0.9474969474969476,-2.333333333333333,-3.609279609279609,2.75,0.0,-0.90625,-2.3174603174603177,-1.8180708180708183,-3.975579975579976,2.46875,-0.5625,-0.9375,-2.659340659340659,-2.266178266178266,-4.238095238095238,2.3125,0.0,-0.78125,-2.2014652014652016,-2.0695970695970702,-3.6495726495726495,2.125,0.0,-0.625,-0.8107448107448108,-1.9706959706959708,-3.608058608058608,2.21875,0.0,0.0,-0.6764346764346765,-2.231990231990232,-4.457875457875458,2.125,0.0,0.0,-1.8119658119658117,-2.4297924297924296,-4.886446886446887,1.59375,-0.875,0.0,-3.0354090354090357,-1.7826617826617828,-4.378510378510379,1.15625,-0.9375,0.0,-2.8021978021978016,-1.565323565323565,-3.3724053724053724,1.125,-0.65625,0.0,-1.8669108669108667,-2.0695970695970702,-3.045177045177045,1.21875,0.0,0.0,-0.9584859584859584,-2.0085470085470085,-2.78998778998779,0.96875,0.0,0.0,0.0,-1.7411477411477412,-2.0989010989010994,0.71875,0.0,0.0,0.0,-1.5482295482295485,-1.9023199023199024,0.0,0.0,0.0,-1.2466422466422469,-1.3052503052503053,-1.962148962148962,0.0,0.0,0.0,-1.7789987789987791,-1.5299145299145298,-2.3846153846153846,0.0,0.0,0.0,-1.6727716727716728,-1.8266178266178263,-2.628815628815629,0.0,0.0,0.0,-1.321123321123321,-1.987789987789988,-2.2905982905982905,0.0,0.0,0.0,-1.017094017094017,-1.5934065934065933,-1.5457875457875458,0.0,0.0,0.0,-0.5677655677655677,-1.5445665445665446,-1.0964590964590966,0.0,0.0,0.0,-0.8266178266178266,-1.485958485958486,-1.0976800976800978,0.0,0.0,0.0,,,,,,,,,,,,,,,,,,,,,,,,,,,,,,,,,,,,,,,,,,,,,,,,,pullUp
accX,0.0,0.6678876678876678,1.7081807081807079,0.6875,0.0,0.0,0.0,0.851037851037851,1.623931623931624,1.03125,0.0,0.0,0.8437118437118437,0.0,1.3247863247863247,1.0,0.0,0.0,0.557997557997558,0.0,0.6520146520146519,0.65625,0.0,0.0,0.9792429792429792,0.0,1.0268620268620268,0.0,0.0,0.0,1.0879120879120878,0.0,1.5909645909645909,0.0,0.0,0.0,1.031746031746032,0.6202686202686203,2.043956043956044,0.71875,0.0,0.0,1.4822954822954824,0.0,2.0427350427350426,0.84375,0.0,0.0,1.945054945054945,0.0,2.532356532356532,0.9375,0.0,0.0,2.034188034188034,0.0,2.6385836385836385,1.0625,0.0,0.0,2.2515262515262515,0.0,3.0525030525030523,1.34375,0.0,-0.53125,2.311355311355311,-0.9853479853479854,2.8485958485958487,1.71875,0.0,-0.5625,2.4945054945054945,-1.5714285714285714,3.063492063492064,1.84375,0.0,-0.71875,2.214896214896215,-1.4078144078144081,3.584859584859585,1.90625,0.0,-0.90625,0.8278388278388278,-1.0989010989010992,3.3846153846153846,2.21875,0.0,-1.09375,0.0,-1.4517704517704515,2.758241758241758,2.5625,0.0,-1.0625,0.8058608058608059,-1.7643467643467643,2.144078144078144,2.71875,0.0,-1.03125,1.2747252747252746,-1.8901098901098898,1.8253968253968251,2.75,0.0,-1.125,0.7997557997557998,-1.8534798534798536,1.982905982905983,2.84375,0.0,-1.1875,1.3565323565323566,-2.3284493284493286,1.6507936507936507,3.0625,0.0,-1.21875,0.7753357753357754,-2.263736263736264,0.9572649572649572,3.1875,0.0,-1.34375,0.0,-2.5006105006105006,0.0,3.375,0.0,-1.3125,0.63003663003663,-2.6153846153846154,0.0,3.40625,0.0,-1.21875,0.9242979242979243,-2.7387057387057387,0.0,3.4375,0.0,-1.1875,0.5518925518925519,-2.5885225885225887,0.0,3.40625,0.0,-1.25,0.5103785103785103,-2.413919413919414,0.0,3.46875,0.0,-1.25,0.0,-2.829059829059829,-0.6520146520146519,3.625,0.0,-1.28125,0.0,-3.10989010989011,-0.9304029304029304,3.53125,-0.5625,-1.3125,-1.0415140415140416,-2.7045177045177047,-0.9181929181929182,3.46875,-0.65625,-1.3125,-0.9768009768009768,-2.9633699633699635,-0.7252747252747253,3.4375,0.0,-1.21875,0.0,-2.5811965811965814,-0.7936507936507936,3.59375,0.0,-1.15625,0.0,-3.263736263736264,-1.2625152625152625,3.6875,0.0,-1.125,0.0,-2.765567765567765,-1.9206349206349207,3.5625,-0.625,-1.28125,-1.1794871794871795,-3.195360195360196,-2.5970695970695967,3.28125,-0.71875,-1.28125,-1.4322344322344325,-2.706959706959707,-2.595848595848596,3.15625,-0.6875,-1.21875,-1.083028083028083,-2.6300366300366296,-2.7313797313797314,3.1875,-0.75,-1.1875,-1.4676434676434675,-2.383394383394384,-2.9682539682539684,3.1875,-0.9375,-1.15625,-2.2002442002442004,-2.973137973137973,-3.5738705738705736,2.875,-1.1875,-1.09375,-3.3064713064713063,-2.7484737484737485,-3.7802197802197797,2.5625,-1.0,-0.96875,-3.4713064713064714,-2.2771672771672766,-3.6129426129426134,2.53125,-0.59375,-0.78125,-2.426129426129426,-2.6361416361416357,-3.6007326007326013,2.5,0.0,-0.59375,-1.6336996336996337,-2.096459096459097,-4.117216117216117,2.46875,0.0,0.0,-0.978021978021978,-2.5286935286935286,-4.721611721611722,2.15625,0.0,-0.5625,-0.873015873015873,-2.3443223443223444,-4.526251526251526,1.71875,0.0,-0.625,-1.192918192918193,-1.6581196581196582,-3.888888888888889,1.46875,0.0,-0.625,-1.5335775335775337,-1.0097680097680095,-3.4615384615384617,1.53125,0.0,0.0,-2.0805860805860807,-1.4078144078144081,-3.7875457875457874,1.53125,0.0,0.0,-1.9181929181929185,-1.8864468864468864,-3.7851037851037854,1.21875,0.0,0.0,-2.075702075702076,-1.6825396825396826,-3.2307692307692313,0.96875,0.0,0.0,-1.5543345543345544,-1.6349206349206349,-2.9743589743589745,0.875,0.0,0.0,-1.5030525030525033,-1.9377289377289375,-3.1074481074481075,0.6875,0.0,0.0,-1.6752136752136753,-2.117216117216117,-3.3223443223443225,0.0,0.0,0.0,-2.102564102564102,-1.8083028083028083,-3.0134310134310134,0.0,0.0,0.0,-1.5543345543345544,-1.6642246642246643,-2.5225885225885225,0.0,0.0,0.0,-0.73992673992674,-1.735042735042735,-2.0476190476190474,0.0,0.0,0.0,0.0,-2.0903540903540905,-1.8327228327228329,0.0,0.0,0.0,-0.5995115995115995,-1.733821733821734,-1.827838827838828,0.0,0.0,0.0,,,,,,,,,,,,,,,,,,,,,,,,,,,,,,,,,,,,,pullUp
accX,0.0,0.0,1.9047619047619049,0.84375,0.0,0.0,0.0,0.0,2.031746031746032,1.125,0.0,0.0,0.6935286935286935,0.6813186813186813,1.94017094017094,1.1875,0.0,0.0,1.4126984126984128,-0.6129426129426129,1.8547008547008548,1.1875,0.0,0.0,1.3089133089133091,0.0,2.1684981684981683,1.28125,0.0,0.0,0.778998778998779,0.0,2.313797313797314,1.5,0.0,0.0,1.7863247863247864,-0.7667887667887668,1.9145299145299144,1.375,0.0,0.0,2.04029304029304,-0.8205128205128205,2.203907203907204,1.3125,0.0,0.0,1.9914529914529917,-0.9230769230769232,2.313797313797314,1.5,0.0,-0.5625,1.887667887667888,-0.6446886446886447,2.6092796092796093,1.96875,0.0,-0.625,1.7582417582417582,-1.3113553113553114,2.0744810744810747,2.25,0.0,-0.6875,1.4432234432234432,-1.7484737484737485,1.8473748473748477,2.40625,0.0,-0.78125,1.8339438339438336,-1.9987789987789988,1.7106227106227103,2.375,0.0,-0.9375,1.4993894993894994,-1.871794871794872,1.7228327228327232,2.53125,0.0,-1.03125,1.3174603174603174,-2.184371184371184,1.7045177045177045,2.75,0.0,-1.15625,1.1697191697191698,-2.5665445665445668,1.5567765567765568,2.84375,-0.8125,-1.3125,0.0,-2.6666666666666665,1.083028083028083,3.0,-0.8125,-1.4375,0.0,-2.5213675213675213,0.0,3.1875,0.0,-1.375,0.0,-2.7350427350427347,0.0,3.125,0.0,-1.375,0.0,-2.796092796092796,0.0,3.15625,0.0,-1.375,0.0,-2.8962148962148966,0.5860805860805861,3.3125,0.0,-1.34375,0.9059829059829059,-3.3089133089133087,0.0,3.375,0.0,-1.4375,0.0,-3.173382173382173,0.0,3.4375,-0.65625,-1.46875,-0.5506715506715507,-3.147741147741148,-0.5177045177045178,3.5625,0.0,-1.4375,-0.6336996336996337,-3.1404151404151404,-0.9706959706959708,3.53125,0.0,-1.375,-0.8388278388278388,-3.4371184371184373,-0.7448107448107448,3.4375,0.0,-1.28125,0.0,-3.2661782661782666,0.0,3.59375,0.0,-1.1875,0.6263736263736264,-3.5726495726495733,0.0,3.78125,0.0,-1.15625,0.5225885225885226,-3.4481074481074483,-0.6434676434676435,3.75,-0.78125,-1.25,-0.9877899877899878,-2.586080586080586,-1.7301587301587302,3.65625,-1.0,-1.375,-0.6398046398046398,-3.267399267399268,-1.7557997557997558,3.65625,-0.96875,-1.28125,-0.5482295482295483,-3.173382173382173,-2.413919413919414,3.65625,-1.0,-1.34375,-1.166056166056166,-3.2332112332112333,-3.3540903540903533,3.46875,-1.21875,-1.46875,-2.0073260073260077,-3.028083028083028,-3.407814407814408,3.1875,-1.3125,-1.4375,-2.5689865689865687,-3.272283272283272,-3.3736263736263736,3.09375,-1.0625,-1.3125,-2.043956043956044,-3.2759462759462763,-3.33943833943834,3.03125,0.0,-1.1875,-1.6031746031746033,-2.9951159951159956,-3.4163614163614158,3.09375,0.0,-1.09375,-1.2881562881562882,-3.357753357753358,-3.627594627594628,2.9375,0.0,-1.03125,-1.6117216117216118,-2.877899877899878,-3.976800976800977,2.59375,0.0,-1.03125,-2.115995115995116,-2.6263736263736264,-4.362637362637362,2.4375,-0.53125,-0.96875,-4.108669108669108,-2.7411477411477403,-5.42002442002442,2.28125,-0.78125,-0.84375,-4.719169719169718,-2.831501831501832,-5.648351648351648,1.90625,0.0,-0.59375,-4.130647130647131,-2.715506715506716,-4.964590964590965,1.5625,0.0,0.0,-3.0109890109890114,-2.4297924297924296,-4.5177045177045185,1.25,0.0,0.0,-2.761904761904762,-1.9108669108669107,-4.247863247863248,1.0625,0.6875,0.0,-1.9975579975579976,-2.1367521367521367,-3.7289377289377286,0.90625,0.8125,0.0,-1.2002442002442002,-2.3772893772893773,-3.1916971916971923,0.59375,0.625,0.0,0.0,-1.9731379731379728,-2.1245421245421245,0.0,0.0,0.0,0.0,-1.8083028083028083,-1.9816849816849815,0.0,0.0,0.0,-0.5018315018315018,-1.2503052503052503,-2.053724053724053,0.0,0.0,0.0,-0.6336996336996337,-1.7264957264957266,-2.2625152625152625,0.0,0.0,0.0,-0.9072039072039072,-1.73992673992674,-2.1807081807081805,0.0,0.0,0.0,,,,,,,,,,,,,,,,,,,,,,,,,,,,,,,,,,,,,,,,,,,,,,,,,,,,,,,,,,,,,,,,,,,pullUp
accX,0.0,0.9621489621489622,1.2942612942612943,0.0,0.0,0.0,0.0,0.851037851037851,1.3785103785103785,0.75,0.0,0.0,0.0,0.8632478632478633,1.5531135531135531,0.75,0.0,0.0,0.0,0.0,1.2832722832722834,0.0,0.0,0.0,0.0,0.0,1.2612942612942613,0.0,0.0,0.0,0.6483516483516484,0.0,1.6385836385836383,0.0,0.0,0.0,1.2063492063492065,0.0,2.361416361416361,0.0,0.0,0.0,1.6031746031746033,0.0,2.9072039072039066,0.71875,0.0,0.0,2.147741147741148,0.0,2.8852258852258847,0.96875,0.0,0.0,2.495726495726496,0.0,2.5506715506715505,1.125,0.0,0.0,1.7264957264957266,0.0,2.231990231990232,1.25,0.0,0.0,1.7142857142857142,-0.5079365079365079,3.216117216117216,1.375,0.0,0.0,1.5421245421245422,-0.8217338217338217,3.15995115995116,1.6875,0.0,0.0,1.750915750915751,-1.164835164835165,3.0769230769230766,2.0625,0.0,-0.5625,1.1819291819291822,-1.6068376068376071,2.5982905982905984,2.25,0.0,-0.6875,0.0,-1.68009768009768,1.9792429792429795,2.28125,0.0,-0.78125,0.5970695970695971,-1.9548229548229548,2.175824175824176,2.375,0.0,-0.75,1.126984126984127,-1.7643467643467643,2.358974358974359,2.59375,0.0,-0.84375,1.126984126984127,-2.2844932844932844,1.7130647130647132,2.90625,-0.53125,-0.90625,1.105006105006105,-2.312576312576313,1.2026862026862026,2.96875,-0.78125,-1.03125,0.0,-2.1233211233211238,0.8547008547008547,3.03125,-0.71875,-1.15625,0.0,-1.7545787545787546,0.663003663003663,3.125,0.0,-1.09375,0.0,-1.6251526251526252,0.0,3.25,0.0,-1.0,0.0,-1.827838827838828,0.0,3.3125,0.0,-0.96875,0.9963369963369964,-1.6935286935286935,0.0,3.25,0.0,-1.0,1.1514041514041513,-1.7387057387057387,0.0,3.28125,-0.59375,-1.09375,0.0,-1.5213675213675213,-0.5091575091575091,3.3125,-0.71875,-1.1875,0.0,-1.7606837606837606,-0.8412698412698413,3.34375,-0.53125,-1.1875,-0.8485958485958486,-1.3003663003663004,-0.9645909645909646,3.25,0.0,-1.15625,-0.514041514041514,-1.1196581196581197,-1.286935286935287,3.28125,0.0,-1.0625,0.0,-1.984126984126984,-1.6862026862026862,3.25,0.0,-1.03125,0.0,-1.7448107448107448,-1.7130647130647132,3.03125,0.0,-1.125,-0.5824175824175825,-1.286935286935287,-1.3284493284493284,2.96875,0.0,-1.09375,-0.8632478632478633,-1.1721611721611722,-1.0427350427350428,3.09375,0.0,-1.0,0.0,-2.2771672771672766,-0.873015873015873,3.09375,0.0,-0.90625,0.0,-1.6862026862026862,-0.9609279609279608,3.125,0.0,-0.9375,0.0,-1.4151404151404152,-1.376068376068376,3.25,0.0,-1.0,0.0,-2.072039072039072,-2.2527472527472527,3.03125,-0.8125,-1.0625,-1.4371184371184371,-1.8144078144078144,-2.5360195360195363,2.84375,-1.15625,-1.09375,-2.291819291819292,-2.034188034188034,-2.542124542124542,2.84375,-1.0625,-0.96875,-2.3211233211233213,-2.2564102564102564,-2.8192918192918195,2.71875,-0.8125,-0.875,-2.1978021978021984,-2.2515262515262515,-3.4371184371184373,2.5625,0.0,-0.8125,-2.6385836385836385,-1.989010989010989,-4.212454212454213,2.375,0.0,-0.65625,-1.5982905982905984,-1.7326007326007329,-4.445665445665447,2.25,0.0,-0.59375,-1.1721611721611722,-2.0305250305250304,-4.565323565323566,2.0,0.0,-0.53125,-0.8009768009768009,-1.8290598290598292,-4.034188034188034,1.8125,0.53125,-0.5625,-0.9829059829059827,-1.2527472527472527,-3.6434676434676434,1.8125,0.53125,-0.53125,-1.1294261294261294,-1.2332112332112333,-3.5763125763125765,1.78125,0.0,0.0,-0.9133089133089132,-1.565323565323565,-3.5152625152625148,1.5625,0.0,0.0,-1.0341880341880345,-1.5128205128205128,-3.5360195360195363,1.4375,-0.5625,0.0,-1.9426129426129424,-1.641025641025641,-3.748473748473749,1.3125,-0.5625,0.0,-2.148962148962149,-1.7606837606837606,-3.852258852258852,1.0625,0.0,0.0,-1.6153846153846154,-1.8144078144078144,-3.5873015873015874,0.8125,0.0,0.0,-2.070818070818071,-1.7423687423687424,-3.6666666666666665,0.53125,0.0,0.0,-1.9291819291819288,-1.9084249084249083,-3.5824175824175826,0.0,0.0,0.0,-1.4896214896214897,-1.9963369963369964,-3.025641025641025,0.0,0.0,0.0,-1.1746031746031746,-1.8864468864468864,-2.3162393162393164,0.0,0.0,0.0,-0.7680097680097681,-1.8705738705738704,-1.7032967032967032,0.0,0.0,0.0,0.0,-1.7301587301587302,-1.5274725274725274,0.0,0.0,0.0,,,,,,,,,,,,,,,,,,,,,,,,,pullUp
accX,0.0,0.0,0.0,0.0,0.0,0.0,0.7081807081807082,0.0,0.8925518925518926,0.0,0.0,0.0,0.7252747252747253,1.155067155067155,1.5921855921855919,0.0,0.0,0.0,0.7032967032967034,0.0,1.5665445665445663,0.0,0.0,0.0,1.3296703296703296,0.0,1.7838827838827842,0.5625,0.0,0.0,1.188034188034188,0.6813186813186813,1.868131868131868,0.84375,0.0,0.0,1.0989010989010992,0.0,1.2271062271062272,0.71875,0.0,0.0,1.2673992673992671,0.0,1.3699633699633702,0.0,0.0,0.0,1.673992673992674,0.0,2.0805860805860807,0.625,0.0,0.0,1.9474969474969477,0.0,2.5213675213675213,0.90625,0.0,0.0,1.6202686202686205,0.0,2.5494505494505493,1.21875,0.0,0.0,1.3247863247863247,0.0,2.4725274725274726,1.4375,0.0,0.0,1.5604395604395604,-0.6923076923076923,2.4884004884004884,1.59375,0.0,-0.53125,1.5409035409035412,-1.0085470085470083,2.0525030525030523,1.6875,0.0,-0.6875,1.5470085470085468,-1.2210012210012209,2.0378510378510377,1.78125,0.0,-0.8125,1.4432234432234432,-0.9877899877899878,2.1807081807081805,2.03125,0.0,-0.875,0.9218559218559218,-1.037851037851038,1.8888888888888888,2.28125,0.0,-0.875,0.7948717948717948,-1.238095238095238,1.2295482295482296,2.40625,0.0,-0.90625,1.2368742368742371,-1.879120879120879,1.2344322344322345,2.40625,0.0,-1.03125,1.5824175824175823,-1.9304029304029304,1.608058608058608,2.5625,0.0,-1.15625,0.0,-1.5958485958485962,0.971916971916972,2.8125,0.0,-1.0625,0.0,-1.557997557997558,0.0,2.90625,0.0,-0.90625,0.0,-1.9853479853479852,0.0,2.84375,0.0,-0.90625,0.525030525030525,-1.9731379731379728,0.0,2.84375,0.0,-0.96875,0.8351648351648352,-2.213675213675214,0.0,2.96875,0.0,-1.03125,0.6068376068376068,-2.3553113553113554,0.0,3.03125,0.0,-1.09375,0.0,-2.1782661782661785,0.0,3.03125,-0.53125,-1.09375,0.0,-2.3968253968253967,0.0,3.0,0.0,-1.125,0.0,-2.2612942612942613,0.0,3.0625,-0.65625,-1.1875,0.0,-1.9365079365079363,0.0,3.1875,-0.65625,-1.125,-0.7228327228327228,-2.1611721611721606,-0.5836385836385837,3.375,0.0,-1.0625,0.0,-1.398046398046398,-0.7460317460317459,3.40625,-0.5625,-1.03125,0.0,-2.010989010989011,-1.0781440781440779,3.4375,-0.90625,-1.0625,0.0,-2.1074481074481075,-1.10989010989011,3.3125,-0.96875,-1.09375,0.0,-2.207570207570208,-0.7912087912087912,3.28125,-0.65625,-1.125,0.0,-1.7130647130647132,-0.7851037851037851,3.375,0.0,-1.125,0.0,-1.9951159951159951,-1.205128205128205,3.5,0.0,-1.03125,0.0,-1.9975579975579976,-2.0207570207570207,3.40625,0.0,-1.09375,-0.5274725274725275,-2.5836385836385842,-2.299145299145299,3.1875,0.0,-1.0625,-1.0256410256410255,-2.8571428571428568,-2.393162393162393,3.0625,-0.84375,-1.125,-1.1562881562881564,-2.667887667887668,-2.728937728937729,3.0,-0.84375,-1.15625,-2.1868131868131866,-2.4615384615384617,-3.586080586080586,3.0,-0.8125,-1.15625,-2.935286935286935,-2.6764346764346763,-4.274725274725275,2.875,-0.6875,-1.0,-2.8852258852258847,-3.23931623931624,-4.384615384615385,2.59375,-0.5625,-0.9375,-3.3663003663003663,-2.6434676434676434,-4.056166056166056,2.34375,0.0,-0.875,-3.727716727716728,-2.208791208791209,-4.122100122100122,2.3125,0.0,-0.65625,-3.705738705738706,-2.2869352869352872,-4.722832722832723,2.1875,0.0,0.0,-3.2039072039072036,-2.6092796092796093,-4.888888888888889,1.78125,0.0,0.0,-2.954822954822955,-2.433455433455433,-4.736263736263736,1.25,0.0,0.0,-2.829059829059829,-1.962148962148962,-4.7094017094017095,1.0,0.0,0.0,-2.305250305250305,-2.0463980463980462,-4.7203907203907205,0.875,0.0,0.0,-1.1282051282051282,-2.137973137973138,-4.083028083028083,0.625,0.0,0.0,0.0,-2.1062271062271063,-3.1660561660561664,0.0,0.0,0.0,0.0,-1.8058608058608057,-2.477411477411477,0.0,0.0,0.0,0.0,-1.6043956043956045,-2.1062271062271063,0.0,0.0,0.0,0.0,-1.8852258852258847,-2.0891330891330893,0.0,0.0,0.0,-0.5213675213675214,-1.7863247863247864,-1.8510378510378511,0.0,0.0,0.0,,,,,,,,,,,,,,,,,,,,,,,,,,,,,,,,,,,,,pullUp
accX,0.0,0.0,0.8168498168498168,0.53125,0.0,0.0,0.9279609279609279,0.0,0.9523809523809524,0.0,0.0,0.0,0.8205128205128205,0.0,1.1465201465201464,0.0,0.0,0.0,0.706959706959707,0.6178266178266179,1.3174603174603174,0.0,0.0,0.0,0.7631257631257631,0.6898656898656899,1.6996336996336996,0.8125,0.0,0.0,1.2124542124542124,0.0,1.2832722832722834,0.90625,0.0,0.0,0.8217338217338217,0.0,0.0,0.53125,0.5625,0.0,1.6349206349206349,0.0,1.8070818070818069,0.0,0.5625,0.0,1.663003663003663,0.5238095238095238,2.6764346764346763,0.6875,0.0,0.0,1.8107448107448108,0.0,3.086691086691087,1.15625,0.0,0.0,1.6666666666666667,-0.7264957264957265,2.827838827838828,1.59375,0.0,-0.53125,1.5177045177045176,-0.8376068376068376,2.3968253968253967,1.75,0.0,-0.71875,1.0561660561660562,-1.1196581196581197,2.1868131868131866,1.96875,0.0,-0.8125,1.1306471306471306,-1.3748473748473748,2.1575091575091574,2.09375,0.0,-0.9375,0.0,-1.656898656898657,2.0378510378510377,2.25,0.0,-1.0,0.8095238095238095,-1.3846153846153846,2.275946275946276,2.375,0.0,-0.96875,1.5592185592185592,-1.6434676434676434,1.943833943833944,2.59375,0.0,-0.9375,1.4615384615384617,-2.061050061050061,1.336996336996337,2.6875,0.0,-1.125,0.0,-1.8632478632478635,1.1257631257631258,2.6875,0.0,-1.28125,0.0,-1.843711843711844,1.031746031746032,2.875,0.0,-1.1875,0.912087912087912,-1.943833943833944,0.8021978021978022,3.03125,0.0,-1.09375,0.6007326007326007,-2.346764346764347,0.5299145299145299,3.125,0.0,-1.125,0.0,-2.214896214896215,0.0,3.15625,0.0,-1.15625,-0.5213675213675214,-2.346764346764347,0.0,3.21875,0.0,-1.0625,-1.1562881562881564,-2.2588522588522593,0.0,3.28125,0.5625,-0.875,0.0,-2.619047619047619,0.0,3.4375,1.0,-0.65625,1.3467643467643469,-2.952380952380953,-0.5286935286935287,3.4375,0.90625,-0.65625,1.028083028083028,-2.8034188034188032,-1.0036630036630036,3.46875,0.0,-0.71875,0.0,-2.873015873015873,-1.4188034188034189,3.40625,0.0,-0.8125,-0.6776556776556777,-2.774114774114774,-1.6031746031746033,3.375,0.0,-0.84375,0.0,-2.4590964590964592,-1.8498168498168501,3.375,0.0,-0.78125,0.0,-2.6385836385836385,-2.021978021978022,3.34375,0.0,-0.71875,0.0,-2.7985347985347984,-1.912087912087912,3.25,0.0,-0.71875,0.0,-2.621489621489621,-1.894993894993895,3.15625,0.0,-0.71875,0.0,-1.945054945054945,-1.987789987789988,3.21875,0.0,-0.71875,-0.6642246642246642,-2.293040293040293,-2.236874236874237,3.125,-0.5625,-0.6875,0.0,-2.312576312576313,-2.623931623931624,3.03125,-0.84375,-0.78125,0.0,-2.1257631257631258,-3.1880341880341883,2.84375,-1.28125,-0.90625,-0.9877899877899878,-2.101343101343101,-3.5103785103785103,2.6875,-1.40625,-0.96875,-1.6434676434676434,-1.9108669108669107,-3.6495726495726495,2.53125,-1.1875,-0.90625,-1.3565323565323566,-2.1782661782661785,-3.8107448107448105,2.28125,-0.96875,-0.84375,-0.9963369963369964,-1.6691086691086692,-3.852258852258852,2.15625,-1.0,-0.90625,-1.7789987789987791,-1.752136752136752,-4.251526251526252,1.96875,-1.125,-0.8125,-2.5067155067155067,-1.8192918192918195,-4.565323565323566,1.6875,-0.9375,-0.71875,-2.551892551892552,-1.468864468864469,-4.445665445665447,1.53125,-0.84375,-0.5625,-2.477411477411477,-1.5824175824175823,-4.112332112332112,1.28125,-0.78125,0.0,-3.1282051282051277,-1.4578754578754578,-3.870573870573871,1.125,0.0,0.0,-2.7777777777777777,-1.2063492063492065,-3.7240537240537237,1.03125,0.0,0.0,-1.1684981684981686,-1.5543345543345544,-3.311355311355311,0.84375,0.0,0.0,-0.6190476190476191,-1.7362637362637363,-2.9230769230769234,0.65625,0.0,0.0,-1.0231990231990231,-1.5018315018315018,-2.7081807081807083,0.0,0.0,0.0,-2.0488400488400487,-1.358974358974359,-2.7301587301587302,0.0,0.0,0.0,-2.611721611721612,-1.382173382173382,-2.709401709401709,0.0,0.0,0.0,-2.05006105006105,-1.8070818070818069,-2.4517704517704515,0.0,0.0,0.0,,,,,,,,,,,,,,,,,,,,,,,,,,,,,,,,,,,,,,,,,,,,,,,,,,,,,,,pullUp
accX,0.0,0.7130647130647131,1.0366300366300367,0.75,0.0,0.0,0.0,0.0,1.072039072039072,0.78125,0.0,0.0,0.0,1.0781440781440779,1.3479853479853479,0.0,0.0,0.0,0.9218559218559218,0.0,1.26007326007326,0.0,0.0,0.0,0.5836385836385837,1.0573870573870574,1.031746031746032,0.0,0.0,0.0,0.0,0.5848595848595849,0.6031746031746031,0.0,0.0,0.0,1.1416361416361416,0.6263736263736264,0.989010989010989,0.0,0.0,0.0,1.6227106227106227,0.0,2.034188034188034,0.0,0.0,0.0,1.4395604395604396,0.0,2.9987789987789983,0.0,0.0,0.0,1.3125763125763126,0.0,3.5909645909645915,0.71875,0.0,0.0,1.5946275946275947,0.0,3.5946275946275947,1.21875,0.0,0.0,1.2283272283272284,-0.5543345543345544,3.2332112332112333,1.625,0.0,0.0,1.3858363858363858,-0.6202686202686203,2.556776556776557,1.71875,0.0,0.0,1.1452991452991452,-0.7216117216117216,2.21978021978022,1.78125,0.0,-0.5625,1.5177045177045176,-0.9450549450549449,2.571428571428572,1.90625,0.0,-0.625,1.4761904761904765,-1.0158730158730158,3.065934065934066,2.15625,0.0,-0.71875,1.2319902319902318,-1.0402930402930404,3.2869352869352872,2.5,0.0,-0.71875,0.6898656898656899,-1.2576312576312576,2.8107448107448105,2.78125,0.0,-0.6875,0.9584859584859584,-1.6495726495726497,1.6862026862026862,2.84375,0.0,-0.78125,1.103785103785104,-2.0183150183150182,0.873015873015873,2.71875,0.0,-0.9375,0.7912087912087912,-1.5726495726495726,0.8620268620268621,2.75,0.0,-1.03125,0.9072039072039072,-1.9035409035409037,0.9633699633699634,2.84375,0.0,-1.0625,1.0256410256410255,-1.6507936507936507,1.0463980463980465,3.03125,0.0,-1.0625,0.9108669108669109,-1.5641025641025639,0.9645909645909646,3.25,0.0,-1.03125,0.5042735042735043,-1.968253968253968,0.6166056166056166,3.25,0.0,-1.09375,0.0,-1.757020757020757,0.0,3.21875,-0.59375,-1.125,-0.5323565323565324,-1.7789987789987791,0.0,3.25,0.0,-1.0625,0.0,-1.7326007326007329,-0.6947496947496947,3.28125,0.0,-1.03125,0.0,-1.8693528693528692,-0.94993894993895,3.28125,0.0,-1.03125,0.0,-2.0024420024420024,-0.9853479853479854,3.15625,0.0,-1.0625,-0.8449328449328449,-1.6312576312576312,-0.6752136752136753,3.25,0.0,-0.96875,-0.9755799755799756,-2.0378510378510377,-0.7460317460317459,3.28125,0.0,-0.8125,0.0,-1.6642246642246643,-0.7838827838827839,3.3125,0.0,-0.75,0.0,-1.967032967032967,-1.0647130647130647,3.3125,0.0,-0.75,0.0,-1.5787545787545787,-1.1916971916971917,3.25,0.0,-0.75,-0.5201465201465202,-1.7777777777777777,-1.3162393162393162,3.34375,0.0,-0.71875,0.0,-2.05982905982906,-2.343101343101343,3.3125,-0.84375,-0.84375,-2.0793650793650795,-0.8754578754578755,-3.63003663003663,3.25,-1.0,-0.8125,-2.768009768009768,-1.0732600732600732,-4.283272283272283,3.03125,-0.59375,-0.625,-2.9181929181929176,-1.051282051282051,-4.212454212454213,2.8125,0.0,0.0,-1.4774114774114775,-0.9462759462759462,-3.838827838827839,2.78125,0.875,0.0,0.0,-1.0268620268620268,-3.5982905982905984,2.78125,1.0,0.0,0.0,-1.3455433455433456,-3.556776556776557,2.6875,0.53125,0.0,0.0,-1.6398046398046398,-3.1648351648351647,2.5,0.0,0.0,0.0,-1.2893772893772897,-2.6788766788766787,2.40625,0.0,0.0,0.0,-1.3137973137973138,-2.611721611721612,2.46875,0.0,0.0,1.092796092796093,-1.5518925518925517,-3.346764346764347,2.5625,-0.59375,0.0,0.7240537240537241,-2.3028083028083026,-4.3992673992674005,2.34375,-1.4375,0.0,-2.584859584859585,-1.57997557997558,-5.3528693528693525,1.84375,-2.03125,0.0,-4.390720390720391,-1.442002442002442,-5.975579975579977,1.71875,-1.34375,0.0,-3.705738705738706,-1.8974358974358971,-5.8437118437118425,1.65625,0.0,0.0,-3.0109890109890114,-2.2002442002442004,-5.611721611721611,1.28125,0.0,0.0,-3.0561660561660564,-1.962148962148962,-5.074481074481074,0.75,0.0,0.0,-1.8205128205128205,-2.1794871794871797,-4.0366300366300365,0.0,0.0,0.0,0.0,-2.6446886446886446,-2.8363858363858365,0.0,0.0,0.0,0.0,-2.1721611721611715,-1.7912087912087913,0.0,0.0,0.0,0.0,-1.9194139194139197,-1.26007326007326,0.0,0.0,0.0,0.0,-1.9951159951159951,-1.684981684981685,0.0,0.0,0.0,-0.5628815628815629,-1.8315018315018317,-1.95970695970696,0.0,0.0,0.0,,,,,,,,,,,,,,,,,,,,,,,,,pullUp
accX,0.0,0.9743589743589745,0.7667887667887668,0.625,0.0,0.0,0.6263736263736264,0.0,1.0122100122100122,0.75,0.0,0.0,0.6691086691086691,0.0,1.1697191697191698,0.6875,0.0,0.0,0.0,1.0122100122100122,1.1013431013431014,0.59375,0.0,0.0,0.7167277167277167,0.0,1.2295482295482296,0.0,0.0,0.0,1.0293040293040292,0.5323565323565324,1.5286935286935286,0.0,0.0,0.0,1.2515262515262515,0.0,2.173382173382173,0.53125,0.0,0.0,1.2881562881562882,0.0,2.3675213675213675,0.75,0.0,0.0,1.2539682539682542,0.0,2.0781440781440783,0.96875,0.0,0.0,1.3565323565323566,0.0,2.1526251526251525,1.03125,0.0,0.0,1.7484737484737485,0.0,2.7765567765567765,1.25,0.0,0.0,1.9255189255189256,-0.6959706959706959,2.9462759462759465,1.40625,0.0,-0.53125,1.881562881562881,-0.9609279609279608,3.274725274725274,1.625,0.0,-0.65625,1.912087912087912,-0.956043956043956,2.9816849816849818,2.0625,0.0,-0.84375,0.94993894993895,-1.4444444444444444,2.2283272283272284,2.1875,0.0,-0.96875,0.9035409035409036,-1.4212454212454213,2.407814407814408,2.21875,0.0,-1.03125,1.8192918192918195,-1.286935286935287,2.8034188034188032,2.375,0.0,-1.09375,1.9865689865689864,-1.5042735042735045,2.3284493284493286,2.71875,0.0,-1.15625,1.442002442002442,-1.7997557997557998,1.4371184371184371,2.875,-0.65625,-1.34375,0.0,-1.968253968253968,1.0268620268620268,2.90625,-0.78125,-1.46875,0.0,-1.4090354090354091,1.0622710622710625,2.9375,0.0,-1.5,0.0,-1.4603174603174602,0.6752136752136753,3.15625,0.0,-1.375,0.0,-1.4945054945054943,0.0,3.15625,0.0,-1.3125,0.0,-1.8388278388278387,0.0,3.21875,0.0,-1.34375,0.0,-1.5665445665445663,0.0,3.15625,0.0,-1.375,0.0,-1.7118437118437118,-0.6935286935286935,3.21875,0.0,-1.3125,0.0,-1.9645909645909645,-0.9291819291819292,3.28125,0.0,-1.25,0.0,-1.8644688644688645,-1.0158730158730158,3.25,0.0,-1.25,0.0,-1.6532356532356531,-1.1465201465201464,3.15625,0.0,-1.28125,-0.6837606837606838,-2.0024420024420024,-0.9621489621489622,3.09375,0.0,-1.21875,-0.63003663003663,-1.9206349206349207,-0.9108669108669109,3.0625,0.0,-1.15625,0.0,-1.9572649572649568,-1.2307692307692308,3.15625,0.0,-1.09375,0.0,-1.7045177045177045,-1.4932844932844933,3.09375,0.0,-1.0625,-0.7460317460317459,-2.192918192918193,-1.565323565323565,3.09375,0.0,-1.03125,-0.6898656898656899,-1.8925518925518925,-1.4407814407814408,3.0,0.0,-1.03125,0.0,-1.9291819291819288,-1.4383394383394383,3.0625,0.0,-1.0,0.0,-2.3455433455433456,-1.757020757020757,3.0625,0.0,-1.03125,-0.6800976800976801,-2.115995115995116,-2.1709401709401708,2.90625,-0.71875,-1.15625,-1.9523809523809523,-2.139194139194139,-2.771672771672772,2.90625,-0.84375,-1.0625,-1.2124542124542124,-2.7997557997558,-3.101343101343101,2.71875,-0.8125,-1.0,-0.7704517704517705,-2.7264957264957266,-3.5885225885225887,2.5625,-1.0625,-1.0625,-2.2466422466422467,-2.559218559218559,-4.211233211233211,2.375,-1.03125,-1.0,-3.0842490842490844,-2.421245421245421,-4.318681318681318,2.28125,-0.6875,-0.78125,-3.1636141636141635,-2.318681318681319,-4.012210012210011,2.21875,0.0,-0.625,-2.5579975579975582,-2.5396825396825395,-4.018315018315018,2.0,0.0,-0.5625,-1.8412698412698407,-2.346764346764347,-3.9890109890109886,1.65625,0.0,0.0,-2.086691086691087,-1.8778998778998781,-3.7008547008547015,1.375,0.0,0.0,-2.495726495726496,-1.6446886446886446,-3.5067155067155067,1.25,0.59375,0.0,-2.144078144078144,-1.4261294261294262,-3.4822954822954824,1.1875,0.78125,0.0,-1.824175824175824,-1.4700854700854702,-3.8766788766788767,0.84375,0.5625,0.0,-1.702075702075702,-1.5238095238095235,-3.9230769230769234,0.0,0.0,0.0,-2.0146520146520146,-1.2075702075702075,-3.571428571428572,0.0,0.0,0.0,-2.05982905982906,-1.3516483516483515,-3.323565323565324,0.0,0.0,0.0,-1.6275946275946276,-1.5262515262515262,-3.0415140415140414,0.0,0.0,0.0,-1.2820512820512822,-1.5177045177045176,-2.606837606837607,0.0,0.0,0.0,-0.7142857142857143,-1.6923076923076923,-2.1416361416361416,0.0,0.0,0.0,,,,,,,,,,,,,,,,,,,,,,,,,,,,,,,,,,,,,,,,,,,pullUp
accX,0.9682539682539684,0.0,1.804639804639805,0.53125,0.0,0.0,1.2918192918192921,-0.8278388278388278,1.7912087912087913,0.53125,0.0,0.0,1.2918192918192921,0.0,2.117216117216117,0.0,0.0,0.0,1.3492063492063493,0.8461538461538461,2.4688644688644694,0.59375,0.0,0.0,1.5738705738705738,0.0,2.2600732600732596,1.0625,0.0,0.0,1.9352869352869355,0.0,2.393162393162393,1.0,0.0,0.0,2.102564102564102,0.0,3.0586080586080584,0.875,0.0,0.0,2.120879120879121,0.0,3.1001221001221,1.03125,0.0,0.0,2.2515262515262515,0.0,2.7106227106227108,1.375,0.0,0.0,2.0085470085470085,-0.6178266178266179,2.593406593406593,1.625,0.0,-0.625,2.072039072039072,-1.051282051282051,2.8974358974358974,1.78125,0.0,-0.6875,1.9462759462759465,-1.4578754578754578,2.807081807081807,1.96875,0.0,-0.84375,1.7680097680097682,-1.6654456654456655,2.5641025641025643,2.21875,0.0,-1.0,0.6886446886446886,-1.5885225885225884,2.043956043956044,2.59375,0.0,-1.0625,0.7179487179487181,-1.9328449328449329,1.391941391941392,2.71875,0.0,-1.0625,1.4481074481074483,-2.4737484737484743,1.0952380952380951,2.65625,0.0,-1.21875,0.757020757020757,-2.2735042735042734,1.0488400488400489,2.71875,0.0,-1.3125,0.6862026862026862,-2.335775335775336,1.2735042735042734,2.9375,0.0,-1.34375,1.2124542124542124,-2.8241758241758244,1.2356532356532357,3.0625,0.0,-1.4375,0.7545787545787546,-2.6043956043956045,1.0695970695970696,3.1875,-0.625,-1.53125,0.0,-2.5726495726495733,0.8107448107448108,3.3125,-0.875,-1.53125,0.0,-2.6715506715506714,0.0,3.375,-1.03125,-1.53125,-1.133089133089133,-2.771672771672772,-0.5213675213675214,3.34375,-0.75,-1.46875,-1.1526251526251523,-2.7216117216117217,-0.8070818070818071,3.34375,0.0,-1.375,0.0,-2.4444444444444446,-1.0695970695970696,3.40625,0.0,-1.34375,0.0,-2.0891330891330893,-1.4432234432234432,3.375,0.0,-1.40625,-1.155067155067155,-2.5946275946275947,-1.9255189255189256,3.25,0.0,-1.3125,-1.1391941391941391,-2.5775335775335777,-1.9291819291819288,3.0625,0.0,-1.28125,-1.105006105006105,-1.9304029304029304,-1.536019536019536,3.125,0.0,-1.125,-0.6141636141636142,-1.6776556776556777,-1.42002442002442,3.3125,0.0,-0.96875,0.0,-2.0476190476190474,-2.017094017094017,3.25,0.0,-1.0,0.0,-2.5347985347985347,-2.4249084249084247,2.875,0.0,-1.09375,-0.5873015873015873,-1.9609279609279608,-1.9474969474969477,2.84375,0.0,-1.0625,0.0,-1.7374847374847375,-1.7985347985347986,3.03125,0.0,-1.0,-0.6544566544566545,-2.0891330891330893,-2.3040293040293043,2.96875,0.0,-0.9375,-1.2344322344322345,-2.1636141636141635,-2.4664224664224665,2.78125,0.0,-0.9375,-1.358974358974359,-1.943833943833944,-2.2796092796092795,2.84375,0.0,-0.8125,-0.9401709401709402,-1.9633699633699635,-2.330891330891331,2.9375,0.0,-0.625,-1.4432234432234432,-1.9987789987789988,-3.2234432234432235,2.71875,-1.25,-0.65625,-2.42002442002442,-2.717948717948718,-3.3809523809523814,2.53125,-1.4375,-0.59375,-2.6935286935286937,-2.4163614163614158,-3.4297924297924296,2.21875,-1.0,-0.65625,-2.1123321123321124,-1.815628815628816,-3.371184371184371,2.1875,-0.53125,-0.5625,-2.3553113553113554,-2.383394383394384,-4.0,2.25,0.0,0.0,-2.8229548229548236,-2.7362637362637363,-4.506715506715507,1.84375,0.0,0.0,-2.7496947496947497,-2.3284493284493286,-4.282051282051282,1.34375,0.0,0.0,-2.947496947496948,-1.9035409035409037,-3.887667887667888,1.1875,0.0,0.0,-1.7887667887667889,-1.9255189255189256,-3.6446886446886446,1.15625,0.625,0.0,-0.9902319902319904,-2.3565323565323566,-4.157509157509158,1.0,0.0,0.0,-1.006105006105006,-2.3626373626373627,-4.4151404151404146,0.0,0.0,0.0,-1.2124542124542124,-2.0769230769230766,-3.6568986568986563,0.0,0.0,0.0,-1.343101343101343,-1.5811965811965811,-2.7216117216117217,0.0,0.0,0.0,-0.7594627594627594,-1.844932844932845,-2.3553113553113554,0.0,0.0,0.0,0.0,-2.166056166056166,-2.1978021978021984,0.0,0.0,0.0,-0.6849816849816851,-1.9377289377289375,-2.1978021978021984,0.0,0.0,0.0,-0.7887667887667887,-1.9242979242979243,-1.9291819291819288,-0.5625,0.0,0.0,,,,,,,,,,,,,,,,,,,,,,,,,,,,,,,,,,,,,,,,,,,,,,,,,pullUp
accX,0.0,0.8229548229548229,1.2747252747252746,0.59375,0.0,0.0,0.7472527472527473,0.0,1.3956043956043955,0.625,0.0,0.0,1.3394383394383391,0.0,1.557997557997558,0.0,0.0,0.0,1.0793650793650793,0.0,1.8620268620268619,0.59375,0.0,0.0,1.3443223443223444,0.0,2.072039072039072,0.59375,0.0,0.0,1.3687423687423688,0.0,2.1575091575091574,0.65625,0.0,0.0,1.4383394383394383,0.0,2.139194139194139,0.75,0.0,0.0,1.9010989010989008,0.0,2.101343101343101,0.8125,0.0,0.0,1.8131868131868127,0.0,2.3272283272283274,0.90625,0.0,0.0,1.7765567765567765,0.0,2.9047619047619047,1.1875,0.0,0.0,1.978021978021978,-0.5628815628815629,3.3724053724053724,1.46875,0.0,0.0,1.8070818070818069,-0.8571428571428571,3.240537240537241,1.6875,0.0,-0.59375,1.363858363858364,-1.1684981684981686,2.7228327228327234,1.875,0.0,-0.65625,1.3479853479853479,-1.5067155067155067,2.584859584859585,2.09375,0.0,-0.84375,1.7411477411477412,-1.9059829059829057,2.9792429792429798,2.40625,0.0,-0.96875,1.894993894993895,-2.1355311355311355,2.765567765567765,2.59375,0.0,-1.125,0.8632478632478633,-1.8559218559218558,2.242979242979243,2.75,0.0,-1.28125,0.9987789987789988,-2.0427350427350426,1.3223443223443223,2.96875,0.0,-1.25,0.7020757020757019,-1.9218559218559217,0.9316239316239316,3.0,0.0,-1.28125,1.1623931623931625,-2.0354090354090357,1.028083028083028,3.125,0.0,-1.3125,1.6593406593406594,-2.142857142857143,0.9609279609279608,3.1875,0.0,-1.40625,1.2026862026862026,-2.0488400488400487,0.6385836385836385,3.1875,-0.6875,-1.5625,0.0,-2.31013431013431,0.0,3.25,-0.90625,-1.59375,-1.2686202686202686,-1.8888888888888888,0.0,3.34375,0.0,-1.5,0.0,-2.3150183150183152,0.0,3.5,0.0,-1.34375,0.0,-2.247863247863248,0.0,3.46875,0.0,-1.28125,0.6446886446886447,-2.274725274725274,-0.8058608058608059,3.53125,0.0,-1.3125,0.0,-2.5665445665445668,-1.3186813186813189,3.4375,0.0,-1.40625,-0.6727716727716728,-1.989010989010989,-1.434676434676435,3.375,0.0,-1.46875,-0.7643467643467643,-2.183150183150183,-1.5262515262515262,3.46875,0.0,-1.375,-1.0549450549450552,-1.968253968253968,-1.8974358974358971,3.46875,0.0,-1.3125,-1.3137973137973138,-2.2234432234432235,-2.3443223443223444,3.3125,0.0,-1.21875,-1.31990231990232,-2.1367521367521367,-2.6043956043956045,3.15625,0.0,-1.15625,-1.155067155067155,-2.031746031746032,-2.844932844932845,2.96875,0.0,-1.15625,-1.9352869352869355,-1.8339438339438336,-3.028083028083028,2.96875,0.0,-1.09375,-2.155067155067155,-2.0781440781440783,-3.2539682539682535,2.9375,0.0,-0.96875,-1.6654456654456655,-2.4737484737484743,-3.3382173382173383,2.71875,0.0,-0.84375,0.0,-2.236874236874237,-2.6043956043956045,2.40625,0.0,-0.875,-0.5726495726495726,-2.003663003663004,-2.5103785103785103,2.34375,-0.84375,-0.90625,-2.053724053724053,-1.9230769230769231,-2.9743589743589745,2.1875,-0.84375,-0.875,-2.6227106227106227,-1.7960927960927962,-2.7496947496947497,2.09375,-0.5625,-0.75,-2.8461538461538463,-1.4700854700854702,-2.4420024420024418,2.28125,0.0,0.0,-2.101343101343101,-1.8412698412698407,-3.0012210012210017,2.3125,0.0,0.0,-0.7228327228327228,-2.421245421245421,-3.2698412698412698,2.09375,0.0,0.0,0.0,-2.4029304029304033,-3.1367521367521367,1.84375,0.0,0.0,-0.6715506715506715,-1.78998778998779,-3.2490842490842486,1.6875,0.0,0.0,-1.4481074481074483,-1.6764346764346765,-3.240537240537241,1.6875,0.0,0.0,-1.3479853479853479,-2.1294261294261294,-3.543345543345543,1.53125,0.0,0.0,-1.0463980463980465,-2.1807081807081805,-3.673992673992674,1.25,0.0,0.0,-1.735042735042735,-1.8144078144078144,-3.8949938949938954,1.0625,0.0,0.0,-2.2600732600732596,-1.8632478632478635,-4.2393162393162385,0.875,0.0,0.0,-2.1538461538461537,-1.8473748473748477,-4.158730158730159,0.59375,0.0,0.0,-2.191697191697192,-2.2063492063492065,-3.753357753357753,0.0,0.0,0.0,-2.3724053724053724,-1.94993894993895,-2.9365079365079363,0.0,0.0,0.0,-1.9572649572649568,-1.9242979242979243,-2.061050061050061,0.0,0.0,0.0,-0.873015873015873,-2.271062271062271,-1.6434676434676434,0.0,0.0,0.0,0.0,-1.982905982905983,-1.3455433455433456,0.0,0.0,0.0,,,,,,,,,,,,,,,,,,,,,,,,,,,,,,,,,,,,,pullUp
accX,0.0,0.5396825396825397,1.1013431013431014,0.8125,0.0,0.0,0.0,0.0,0.9926739926739928,1.0,0.0,0.0,0.0,0.0,0.9316239316239316,0.78125,0.0,0.0,0.5372405372405372,0.0,1.3113553113553114,0.6875,0.0,0.0,0.778998778998779,0.0,1.5946275946275947,0.71875,0.0,0.0,1.2258852258852257,0.0,1.4908424908424909,0.5625,0.0,0.0,0.6336996336996337,0.0,1.6593406593406594,0.0,0.0,0.0,1.1684981684981686,0.0,2.374847374847375,0.5625,0.0,0.0,1.7228327228327232,0.0,2.383394383394384,0.875,0.0,0.0,1.5421245421245422,0.0,2.3382173382173383,1.15625,0.0,0.0,1.6227106227106227,0.0,2.0818070818070815,1.34375,0.0,0.0,1.663003663003663,0.0,2.0415140415140414,1.46875,0.0,0.0,1.0793650793650793,0.0,1.9926739926739927,1.625,0.0,-0.53125,1.2539682539682542,-0.7326007326007326,2.2576312576312576,1.8125,0.0,-0.5625,1.8131868131868127,-1.1831501831501832,2.3650793650793656,2.03125,0.0,-0.65625,1.4554334554334554,-1.6141636141636142,2.2051282051282053,2.125,0.0,-0.8125,0.6117216117216118,-1.2991452991452992,2.1245421245421245,2.1875,-0.75,-0.96875,0.8412698412698413,-1.6153846153846154,1.750915750915751,2.46875,-0.875,-1.03125,0.7106227106227107,-1.9084249084249083,1.0671550671550671,2.5625,-0.90625,-1.25,0.0,-1.557997557997558,0.7924297924297924,2.625,0.0,-1.1875,0.0,-1.6862026862026862,0.7277167277167277,2.71875,0.0,-1.15625,1.0915750915750917,-1.266178266178266,0.7118437118437119,2.8125,0.0,-1.1875,1.238095238095238,-1.2319902319902318,0.0,2.90625,0.0,-1.25,0.8217338217338217,-1.9719169719169718,0.0,2.84375,-0.625,-1.40625,0.0,-1.5811965811965811,0.0,2.84375,0.0,-1.4375,0.0,-1.1013431013431014,0.0,2.9375,0.0,-1.34375,0.0,-1.2112332112332111,0.0,3.0625,0.0,-1.21875,0.0,-1.6825396825396826,-0.6520146520146519,2.96875,0.0,-1.25,0.5726495726495726,-2.1465201465201464,-0.7643467643467643,2.78125,-0.71875,-1.375,0.8498168498168498,-2.371184371184371,-0.6666666666666666,2.59375,-0.8125,-1.625,0.0,-1.4407814407814408,0.0,2.78125,-0.5625,-1.59375,-0.5164835164835165,-1.1501831501831499,-0.7997557997557998,3.0625,0.0,-1.46875,-1.1123321123321124,-1.5213675213675213,-1.2588522588522588,3.09375,0.0,-1.25,0.0,-2.433455433455433,-1.4615384615384617,2.90625,0.0,-1.3125,0.0,-1.982905982905983,-0.7948717948717948,2.875,0.0,-1.375,0.0,-1.3052503052503053,-0.5372405372405372,3.25,0.0,-1.25,-0.6776556776556777,-1.9377289377289375,-1.6275946275946276,3.28125,-0.53125,-1.21875,-1.2258852258852257,-2.8327228327228333,-2.467643467643468,2.9375,-0.84375,-1.25,-1.5775335775335777,-2.7851037851037854,-2.4383394383394386,2.6875,-0.75,-1.28125,-1.7814407814407816,-2.330891330891331,-2.1746031746031744,2.8125,0.0,-1.21875,-2.142857142857143,-2.1135531135531136,-2.778998778998779,2.90625,0.0,-1.0625,-2.0195360195360195,-2.3724053724053724,-3.637362637362637,2.6875,0.0,-0.96875,-1.7423687423687424,-2.8693528693528694,-3.814407814407815,2.03125,0.0,-0.96875,-1.8058608058608057,-1.4151404151404152,-2.709401709401709,2.03125,0.0,-0.90625,-2.034188034188034,-1.5189255189255189,-3.031746031746032,2.1875,0.0,-0.75,-2.2014652014652016,-1.800976800976801,-3.268620268620269,2.09375,0.0,-0.625,-2.0463980463980462,-2.2979242979242978,-3.5628815628815627,1.875,0.0,0.0,-1.684981684981685,-2.43956043956044,-3.5213675213675213,1.40625,-0.625,0.0,-2.4481074481074483,-1.757020757020757,-3.147741147741148,1.0625,-0.9375,0.0,-3.578754578754579,-1.3907203907203909,-3.172161172161172,1.03125,-0.75,0.0,-3.887667887667888,-1.4078144078144081,-3.382173382173382,1.09375,0.0,0.0,-2.347985347985348,-1.987789987789988,-3.688644688644689,1.0625,0.0,0.0,-1.2625152625152625,-1.9413919413919412,-3.4444444444444446,0.8125,0.0,0.0,-1.199023199023199,-1.7997557997557998,-3.0097680097680097,0.59375,0.0,0.0,-1.2258852258852257,-1.912087912087912,-2.7667887667887667,0.0,0.0,0.0,-1.1721611721611722,-1.7435897435897436,-2.565323565323565,0.0,0.0,0.0,-1.0488400488400489,-2.0463980463980462,-2.8217338217338215,0.0,0.0,0.0,-1.0757020757020757,-1.9352869352869355,-2.8376068376068377,0.0,0.0,0.0,,,,,,,,,,,,,,,,,,,,,,,,,,,,,,,pullUp
accX,0.0,0.0,0.8253968253968254,0.625,0.0,0.0,0.6544566544566545,0.0,1.343101343101343,0.6875,0.0,0.0,0.8327228327228328,1.122100122100122,1.7753357753357752,0.78125,0.0,0.0,1.1343101343101345,0.0,1.6349206349206349,0.75,0.0,0.0,1.4004884004884004,0.0,1.750915750915751,0.59375,0.0,0.0,1.536019536019536,0.0,2.4737484737484743,0.65625,0.0,0.0,1.7765567765567765,0.0,2.9072039072039066,0.9375,0.0,0.0,2.073260073260073,0.0,3.0488400488400487,1.1875,0.0,0.0,1.7753357753357752,0.0,3.0195360195360195,1.4375,0.0,0.0,1.9047619047619049,-0.5201465201465202,2.9035409035409034,1.59375,0.0,0.0,1.9645909645909645,-0.873015873015873,2.667887667887668,1.71875,0.0,-0.59375,1.9035409035409037,-1.0268620268620268,2.6910866910866917,1.84375,0.0,-0.75,1.0647130647130647,-1.0012210012210012,2.5311355311355306,2.03125,-0.65625,-0.84375,0.0,-1.2539682539682542,2.2283272283272284,2.34375,0.0,-0.84375,0.9291819291819292,-1.702075702075702,2.0207570207570207,2.5,0.0,-0.90625,1.2148962148962148,-2.1636141636141635,1.9633699633699635,2.46875,0.0,-1.09375,0.8693528693528694,-2.11965811965812,2.0854700854700856,2.625,-0.71875,-1.15625,0.7936507936507936,-2.029304029304029,1.0818070818070815,3.03125,-0.78125,-1.25,0.0,-2.0427350427350426,0.5115995115995116,3.09375,0.0,-1.15625,0.0,-1.6825396825396826,0.7252747252747253,3.0,0.0,-1.15625,1.0976800976800978,-1.525030525030525,0.8290598290598291,3.15625,0.0,-1.15625,1.2356532356532357,-1.6556776556776556,0.0,3.375,0.0,-1.1875,0.0,-1.8852258852258847,0.0,3.375,-0.78125,-1.28125,-0.6019536019536019,-1.7106227106227103,-0.7289377289377289,3.25,0.0,-1.28125,0.0,-1.2625152625152625,-0.6788766788766789,3.25,0.0,-1.21875,-0.8400488400488401,-1.115995115995116,-0.5531135531135531,3.34375,0.0,-1.0,-0.5286935286935287,-1.1184371184371185,-0.7313797313797313,3.5625,0.875,-0.6875,0.0,-1.7277167277167278,-1.3272283272283272,3.65625,1.1875,-0.53125,0.9010989010989012,-1.8461538461538465,-1.5787545787545787,3.34375,0.90625,-0.625,0.0,-0.9047619047619048,-1.568986568986569,3.1875,0.0,-0.65625,0.0,-0.8412698412698413,-1.9267399267399268,3.375,0.0,-0.53125,-0.9194139194139194,-1.641025641025641,-2.412698412698413,3.40625,0.0,0.0,-0.6092796092796092,-1.4383394383394383,-2.800976800976801,3.21875,0.0,0.0,-0.7448107448107448,-1.10989010989011,-2.881562881562881,3.0,0.0,0.0,-0.6813186813186813,-1.380952380952381,-2.7350427350427347,2.875,0.0,0.0,-0.5567765567765568,-1.5018315018315018,-2.68986568986569,2.75,0.0,0.0,-0.7289377289377289,-1.4029304029304028,-2.873015873015873,2.53125,0.0,0.0,-0.7203907203907204,-1.120879120879121,-2.6434676434676434,2.40625,-0.53125,0.0,0.0,-1.7484737484737485,-2.213675213675214,2.4375,-0.53125,0.0,0.8815628815628815,-1.7032967032967032,-2.1355311355311355,2.3125,-0.75,0.0,0.5152625152625152,-1.2564102564102564,-2.3076923076923075,2.21875,-1.0625,-0.59375,-0.5750915750915749,-1.0329670329670328,-2.844932844932845,2.28125,-1.3125,-0.5625,-0.7826617826617827,-1.7228327228327232,-3.1037851037851034,2.1875,-1.25,0.0,-0.557997557997558,-2.0378510378510377,-3.291819291819292,1.96875,-1.125,-0.625,-1.4017094017094016,-1.7374847374847375,-3.496947496947497,1.78125,-0.9375,-0.65625,-1.8913308913308915,-1.684981684981685,-3.258852258852259,1.78125,-0.71875,0.0,-1.794871794871795,-2.0695970695970702,-3.4737484737484734,1.75,-0.71875,0.0,-1.9853479853479852,-2.433455433455433,-3.8815628815628815,1.46875,-0.71875,0.0,-2.347985347985348,-2.41025641025641,-3.9426129426129437,1.09375,0.0,0.0,-2.435897435897436,-2.028083028083028,-3.683760683760684,0.875,0.0,0.0,-1.945054945054945,-1.8522588522588523,-3.4346764346764345,0.78125,0.0,0.0,-1.7606837606837606,-2.102564102564102,-3.446886446886447,0.53125,0.0,0.0,-2.247863247863248,-1.9572649572649568,-3.5347985347985347,0.0,0.0,0.0,-2.31990231990232,-1.9218559218559217,-3.404151404151404,0.0,0.0,0.0,-2.2222222222222223,-1.9377289377289375,-3.0488400488400487,0.0,0.0,0.0,-1.6385836385836383,-1.9023199023199024,-2.5665445665445668,0.0,0.0,0.0,-0.5726495726495726,-2.092796092796093,-2.142857142857143,0.0,0.0,0.0,,,,,,,,,,,,,,,,,,,,,,,,,,,,,,,,,,,,,pullUp
accX,0.0,0.7362637362637363,0.8937728937728938,0.0,0.0,0.0,0.6874236874236874,0.0,0.6556776556776557,0.53125,0.0,0.0,0.8754578754578755,1.006105006105006,1.1868131868131868,0.0,0.0,0.0,1.4493284493284493,0.0,1.8669108669108667,0.0,0.0,0.0,1.2356532356532357,0.7142857142857143,2.330891330891331,0.0,0.0,0.0,1.575091575091575,0.0,2.6312576312576312,0.0,0.0,0.0,1.5531135531135531,0.0,2.6984126984126986,0.5625,0.0,0.0,1.358974358974359,0.0,2.7423687423687424,0.8125,0.0,0.0,2.0744810744810747,0.0,2.6324786324786325,1.0,0.0,0.0,2.1538461538461537,0.0,2.505494505494505,1.09375,0.0,0.0,1.761904761904762,0.0,3.072039072039072,1.25,0.0,0.0,2.207570207570208,0.0,3.8461538461538463,1.59375,0.0,-0.53125,2.217338217338217,0.0,3.726495726495727,1.96875,0.0,-0.59375,1.9304029304029304,-1.1355311355311355,2.954822954822955,2.1875,0.0,-0.75,2.0012210012210008,-1.1794871794871795,2.5103785103785103,2.25,0.0,-1.0,1.8376068376068373,-1.358974358974359,2.4297924297924296,2.3125,-0.6875,-1.1875,0.0,-1.0695970695970696,2.225885225885226,2.5625,0.0,-1.15625,0.0,-1.2356532356532357,1.8058608058608057,2.78125,0.0,-1.09375,1.4163614163614164,-1.7155067155067154,1.277167277167277,2.8125,0.0,-1.21875,0.9084249084249084,-1.5628815628815629,1.0793650793650793,2.8125,0.0,-1.28125,0.6800976800976801,-1.4407814407814408,1.105006105006105,2.875,0.0,-1.3125,0.5665445665445665,-1.5982905982905984,1.031746031746032,3.0625,0.0,-1.3125,1.0097680097680095,-1.5482295482295485,0.0,3.25,0.0,-1.375,0.536019536019536,-1.6495726495726497,0.0,3.15625,-0.71875,-1.4375,0.0,-1.6703296703296704,0.0,3.03125,-0.59375,-1.4375,-0.8583638583638583,-1.5824175824175823,0.0,3.0,0.0,-1.375,0.0,-1.4810744810744811,0.0,3.09375,0.0,-1.3125,0.0,-1.8522588522588523,-0.8144078144078144,3.03125,0.0,-1.375,0.0,-1.3724053724053724,-0.8412698412698413,3.125,0.0,-1.34375,-0.5531135531135531,-1.6727716727716728,-1.1086691086691087,3.15625,0.0,-1.28125,0.0,-2.1343101343101343,-1.2539682539682542,3.0,0.0,-1.28125,0.0,-1.9255189255189256,-0.8473748473748474,2.9375,0.0,-1.25,0.0,-1.5531135531135531,0.0,3.21875,0.0,-1.1875,0.0,-1.5970695970695972,-1.144078144078144,3.40625,0.0,-1.09375,0.0,-2.3064713064713063,-1.927960927960928,3.1875,-0.8125,-1.21875,-0.9584859584859584,-2.440781440781441,-2.21001221001221,2.90625,-1.0,-1.3125,-0.9035409035409036,-2.5213675213675213,-1.5482295482295485,2.78125,-0.8125,-1.375,-1.1416361416361416,-1.8730158730158732,-1.6288156288156288,3.03125,-0.65625,-1.21875,-1.5299145299145298,-2.2783882783882783,-2.716727716727717,3.125,-0.71875,-1.15625,-1.9108669108669107,-3.1233211233211238,-3.6666666666666665,2.46875,-0.875,-1.15625,-1.376068376068376,-2.351648351648352,-2.653235653235653,2.34375,-0.75,-1.125,-2.3064713064713063,-1.6605616605616609,-2.7191697191697197,2.59375,0.0,-1.0,-2.765567765567765,-1.9572649572649568,-3.741147741147741,2.875,0.0,-0.6875,-1.8925518925518925,-3.3406593406593412,-4.5445665445665435,2.625,0.0,-0.59375,-2.358974358974359,-3.117216117216117,-3.8571428571428568,1.9375,-1.1875,-0.71875,-3.7557997557997562,-2.2332112332112333,-3.068376068376069,1.8125,-1.3125,-0.53125,-3.6031746031746033,-2.537240537240537,-3.318681318681319,2.03125,-0.59375,0.0,-3.3223443223443225,-2.778998778998779,-4.048840048840049,1.9375,0.0,0.0,-2.9035409035409034,-2.879120879120879,-4.476190476190476,1.59375,0.875,0.0,-1.9413919413919412,-2.7252747252747254,-3.736263736263736,1.15625,1.0,0.0,-1.266178266178266,-2.4590964590964592,-3.0305250305250304,0.9375,0.75,0.0,-1.0146520146520146,-2.523809523809524,-3.1587301587301586,0.75,0.0,0.0,-1.6251526251526252,-2.227106227106227,-3.3785103785103785,0.0,0.0,0.0,-1.8070818070818069,-2.0195360195360195,-3.2124542124542126,0.0,0.0,0.0,-1.2087912087912087,-2.4346764346764345,-3.1123321123321124,0.0,0.0,0.0,-0.8998778998778999,-2.33943833943834,-2.826617826617827,0.0,0.0,0.0,0.0,-2.4725274725274726,-2.490842490842491,0.0,0.0,0.0,,,,,,,,,,,,,,,,,,,,,,,,,,,,,,,,,,,,,pullUp
accX,0.0,0.7973137973137974,0.8339438339438342,0.0,0.0,0.0,0.0,0.7985347985347986,0.9377289377289376,0.75,0.0,0.0,0.0,0.0,1.0146520146520146,0.65625,0.0,0.0,1.0744810744810744,0.0,1.42002442002442,0.0,0.0,0.0,1.4188034188034189,0.0,1.884004884004884,0.0,0.0,0.0,0.984126984126984,0.0,1.968253968253968,0.0,0.0,0.0,0.9365079365079364,0.0,1.7997557997557998,0.625,0.0,0.0,1.531135531135531,0.0,2.010989010989011,0.71875,0.0,0.0,1.9474969474969477,0.0,2.3846153846153846,0.78125,0.0,0.0,1.84004884004884,0.0,2.862026862026862,0.9375,0.0,0.0,1.6483516483516485,0.0,3.346764346764347,1.4375,0.0,0.0,1.4725274725274726,-0.7216117216117216,3.0293040293040288,1.65625,0.0,-0.5625,1.5848595848595848,-1.092796092796093,2.8998778998779,1.71875,0.0,-0.65625,0.8021978021978022,-0.6910866910866911,3.091575091575092,1.84375,0.0,-0.75,1.4297924297924298,-1.2087912087912087,2.7045177045177047,2.1875,0.0,-0.78125,1.4456654456654456,-1.3553113553113554,1.9145299145299144,2.375,-0.5625,-0.90625,1.4456654456654456,-1.5531135531135531,1.4297924297924298,2.4375,0.0,-1.125,1.115995115995116,-1.1514041514041513,1.3467643467643469,2.46875,-0.625,-1.25,0.0,-0.9133089133089132,0.8632478632478633,2.5625,-0.8125,-1.25,0.0,-1.6092796092796091,0.5091575091575091,2.59375,-0.625,-1.21875,0.5518925518925519,-1.673992673992674,0.6813186813186813,2.59375,0.0,-1.28125,0.0,-1.4090354090354091,0.0,2.71875,0.0,-1.3125,0.5567765567765568,-1.2673992673992671,0.0,2.8125,0.0,-1.25,0.6642246642246642,-1.5506715506715507,0.0,2.8125,0.0,-1.25,0.0,-1.0757020757020757,0.0,2.8125,0.0,-1.28125,0.0,-1.4078144078144081,0.0,2.875,0.0,-1.1875,0.0,-1.5091575091575091,0.0,2.9375,0.0,-1.1875,0.6434676434676435,-1.7814407814407816,0.0,2.90625,0.0,-1.25,0.0,-1.6349206349206349,0.0,2.78125,-0.59375,-1.40625,-0.7606837606837606,-1.0451770451770452,0.0,2.90625,0.0,-1.34375,-0.6385836385836385,-1.3247863247863247,0.0,3.1875,0.0,-1.15625,-1.094017094017094,-1.1892551892551892,-0.993894993894994,3.21875,0.0,-1.0625,-1.0024420024420024,-1.1367521367521367,-1.4590964590964588,3.125,0.6875,-0.9375,-0.984126984126984,-1.3968253968253967,-1.4896214896214897,3.03125,0.90625,-0.75,0.0,-1.525030525030525,-1.0537240537240538,3.1875,1.28125,-0.59375,0.5128205128205128,-1.6703296703296704,-1.6483516483516485,3.15625,0.84375,-0.65625,0.0,-1.332112332112332,-2.551892551892552,3.03125,0.0,-0.65625,-0.5518925518925519,-1.5995115995115996,-3.1282051282051277,2.84375,0.0,-0.65625,-0.6654456654456654,-1.9645909645909645,-2.8034188034188032,2.65625,0.0,-0.59375,0.0,-2.294261294261294,-2.0476190476190474,2.59375,0.0,-0.625,-0.7350427350427351,-1.4065934065934067,-1.8131868131868127,2.71875,0.0,-0.625,-1.6813186813186811,-1.2673992673992671,-2.5347985347985347,2.78125,0.0,-0.53125,-1.4358974358974361,-1.9413919413919412,-3.2844932844932844,2.5,-0.625,0.0,-0.6544566544566545,-2.6507936507936507,-3.347985347985348,2.0625,-0.8125,-0.53125,0.0,-2.015873015873016,-2.7362637362637363,1.90625,-1.03125,-0.625,-1.3956043956043955,-1.5018315018315018,-2.772893772893773,1.9375,-1.0,-0.5625,-2.3650793650793656,-1.3247863247863247,-3.3064713064713063,1.9375,-0.625,0.0,-1.652014652014652,-2.207570207570208,-3.407814407814408,1.59375,0.0,0.0,-0.7496947496947497,-1.7667887667887667,-2.3382173382173383,1.4375,0.0,0.0,-1.0891330891330893,-1.2686202686202686,-1.896214896214896,1.5625,0.0,0.0,-1.844932844932845,-0.9206349206349206,-2.6959706959706957,1.78125,0.0,0.0,-2.1001221001221,-1.7655677655677655,-4.150183150183151,1.5,0.0,0.0,-2.1526251526251525,-2.0305250305250304,-4.655677655677657,0.96875,0.0,0.0,-2.47008547008547,-1.4493284493284493,-4.079365079365079,0.75,0.0,0.0,-2.5006105006105006,-1.155067155067155,-3.5457875457875456,0.78125,0.0,0.0,-2.1465201465201464,-1.6275946275946276,-3.324786324786325,0.65625,0.0,0.0,-1.017094017094017,-2.0073260073260077,-3.2039072039072036,0.0,0.0,0.0,0.0,-1.8901098901098898,-2.7008547008547015,0.0,0.0,0.0,-0.5958485958485958,-1.5421245421245422,-2.3162393162393164,0.0,0.0,0.0,-0.6691086691086691,-1.6434676434676434,-2.063492063492064,0.0,0.0,0.0,0.0,-1.7716727716727716,-2.0366300366300365,0.0,0.0,0.0,,,,,,,,,,,,,pullUp
accX,0.6141636141636142,0.6068376068376068,1.3003663003663004,0.0,0.0,0.0,0.7167277167277167,0.0,0.9951159951159952,0.0,0.0,0.0,0.9218559218559218,0.0,1.0134310134310134,0.0,0.0,0.0,0.8217338217338217,0.5897435897435898,1.321123321123321,0.0,0.0,0.0,1.1001221001221002,0.8376068376068376,1.637362637362637,0.625,0.0,0.0,1.3748473748473748,0.0,1.3113553113553114,0.625,0.0,0.0,1.514041514041514,0.0,1.2466422466422469,0.0,0.0,0.0,1.4078144078144081,0.0,1.8266178266178263,0.53125,0.0,0.0,1.1575091575091576,0.0,2.1367521367521367,0.78125,0.0,0.0,1.3724053724053724,0.0,1.84004884004884,1.0,0.0,0.0,1.2319902319902318,0.0,1.6923076923076923,1.0625,0.0,0.0,1.2796092796092795,0.0,2.095238095238096,1.1875,0.0,0.0,1.5714285714285714,-0.6166056166056166,2.5409035409035408,1.40625,0.0,-0.53125,1.3040293040293038,-0.7435897435897436,2.3015873015873014,1.625,0.0,-0.65625,1.1391941391941391,-0.9169719169719168,1.879120879120879,1.8125,0.0,-0.75,1.0549450549450552,-1.4041514041514038,1.6141636141636142,1.84375,0.0,-0.875,1.1416361416361416,-1.3553113553113554,1.9242979242979243,2.0,0.0,-0.9375,0.8717948717948718,-1.2454212454212454,1.4371184371184371,2.25,0.0,-1.0,0.6959706959706959,-1.465201465201465,0.6324786324786325,2.375,0.0,-1.0,1.3308913308913308,-1.575091575091575,0.0,2.34375,0.0,-1.09375,1.2063492063492065,-1.586080586080586,0.5836385836385837,2.28125,0.0,-1.25,0.6336996336996337,-1.3418803418803418,0.8937728937728938,2.34375,-0.53125,-1.3125,0.0,-1.5946275946275947,1.0305250305250304,2.5,-0.6875,-1.34375,-0.5311355311355311,-1.7765567765567765,0.8644688644688645,2.75,0.0,-1.25,0.0,-1.4358974358974361,0.0,2.78125,0.0,-1.21875,0.0,-1.7765567765567765,0.0,2.75,0.0,-1.28125,0.0,-1.52014652014652,0.0,2.78125,0.0,-1.3125,0.0,-1.4615384615384617,0.5299145299145299,2.90625,0.0,-1.21875,0.6837606837606838,-1.6593406593406594,0.0,3.0,0.0,-1.15625,0.0,-1.706959706959707,0.0,3.0,0.0,-1.25,0.0,-1.4884004884004884,0.0,3.03125,-0.875,-1.34375,-0.6178266178266179,-1.5909645909645909,-0.7655677655677655,3.03125,-1.03125,-1.375,-0.9047619047619048,-1.7435897435897436,-1.1721611721611722,3.0,-0.84375,-1.40625,-1.6275946275946276,-1.474969474969475,-1.3345543345543345,2.9375,-0.625,-1.34375,-0.7472527472527473,-1.442002442002442,-1.78998778998779,3.0,0.0,-1.1875,0.0,-2.029304029304029,-2.3369963369963367,3.0,0.0,-1.15625,-0.6446886446886447,-2.1001221001221,-2.4615384615384617,2.8125,0.0,-1.28125,-1.4004884004884004,-1.7411477411477412,-2.184371184371184,2.625,0.0,-1.25,-1.8217338217338217,-1.9658119658119655,-2.1575091575091574,2.6875,0.0,-1.09375,-1.537240537240537,-1.987789987789988,-2.669108669108669,2.6875,0.0,-0.96875,-1.249084249084249,-2.0549450549450547,-3.137973137973138,2.625,0.0,-0.9375,-1.3943833943833943,-2.333333333333333,-3.1391941391941387,2.40625,0.0,-0.875,-1.21001221001221,-2.1697191697191696,-2.709401709401709,2.25,0.0,-0.8125,-0.8083028083028083,-1.9975579975579976,-2.614163614163614,2.1875,0.0,-0.78125,-1.536019536019536,-2.0781440781440783,-2.8852258852258847,2.09375,-0.625,-0.78125,-2.761904761904762,-1.931623931623932,-2.9621489621489623,1.9375,-0.625,-0.6875,-2.3345543345543347,-2.0366300366300365,-2.5384615384615383,1.90625,0.0,0.0,-1.0427350427350428,-2.021978021978022,-2.647130647130647,1.75,0.59375,0.0,-1.4884004884004884,-1.68009768009768,-2.6446886446886446,1.59375,0.0,0.0,-2.653235653235653,-1.5335775335775337,-2.705738705738706,1.5,0.0,0.0,-1.871794871794872,-1.9584859584859584,-2.7252747252747254,1.4375,0.0,0.0,-0.7081807081807082,-2.092796092796093,-2.642246642246642,1.375,0.0,0.0,-0.8034188034188035,-1.9731379731379728,-2.84004884004884,1.28125,0.0,0.0,-0.989010989010989,-1.9255189255189256,-3.5494505494505493,1.15625,0.0,0.0,-1.1855921855921856,-1.684981684981685,-3.915750915750916,0.9375,0.0,0.0,-1.7301587301587302,-1.5286935286935286,-3.752136752136752,0.75,0.0,0.0,-1.8351648351648349,-1.8888888888888888,-3.4297924297924296,0.0,0.0,0.0,-0.8449328449328449,-2.092796092796093,-3.0744810744810747,0.0,0.0,0.0,0.0,-1.7912087912087913,-2.404151404151404,0.0,0.0,0.0,0.0,-1.557997557997558,-2.2600732600732596,0.0,0.0,0.0,0.0,-1.485958485958486,-2.3846153846153846,0.0,0.0,0.0,0.0,-1.6483516483516485,-2.012210012210012,0.0,0.0,0.0,,,,,,,pullUp
accX,0.518925518925519,0.0,1.4615384615384617,0.0,0.0,0.0,0.0,0.5555555555555556,1.827838827838828,0.0,0.0,0.0,0.818070818070818,0.9047619047619048,2.216117216117216,0.625,0.0,0.0,1.0085470085470083,0.0,2.3321123321123323,0.875,0.0,0.0,1.2612942612942613,0.0,2.139194139194139,0.96875,0.0,0.0,1.4334554334554337,0.0,2.003663003663004,1.125,0.0,0.0,1.434676434676435,0.0,1.661782661782662,1.15625,0.0,0.0,1.8302808302808304,0.0,2.004884004884005,0.9375,0.0,0.0,2.183150183150183,0.0,2.619047619047619,1.0,0.0,0.0,2.231990231990232,0.0,3.04029304029304,1.34375,0.0,0.0,1.9462759462759465,-0.6813186813186813,2.4590964590964592,1.6875,0.0,-0.53125,1.7680097680097682,-0.9059829059829059,2.4542124542124544,1.78125,-0.5625,-0.625,1.4236874236874235,-0.8693528693528694,2.311355311355311,1.90625,-0.71875,-0.75,1.7277167277167278,-1.2307692307692308,1.9511599511599511,2.15625,0.0,-0.84375,1.4456654456654456,-1.271062271062271,1.4896214896214897,2.3125,0.0,-0.96875,1.1794871794871795,-1.1074481074481075,1.1672771672771671,2.34375,0.0,-1.03125,0.8962148962148963,-0.9304029304029304,1.0402930402930404,2.40625,0.0,-1.0625,0.0,-1.0683760683760684,1.0024420024420024,2.5,0.0,-1.0625,0.9902319902319904,-1.465201465201465,0.9010989010989012,2.59375,0.0,-1.03125,1.1257631257631258,-1.7362637362637363,0.5311355311355311,2.65625,0.0,-1.125,0.6727716727716728,-1.7301587301587302,0.0,2.65625,-0.53125,-1.3125,0.0,-1.9328449328449329,0.7203907203907204,2.8125,0.0,-1.25,0.0,-1.8974358974358971,0.5641025641025641,3.0,0.0,-1.21875,0.0,-1.887667887667888,0.0,3.0625,0.0,-1.21875,0.0,-2.1086691086691087,0.0,2.9375,0.0,-1.3125,0.0,-1.8339438339438336,0.0,2.8125,-0.53125,-1.34375,0.0,-1.3797313797313795,0.0,2.9375,0.0,-1.28125,0.0,-1.2698412698412698,-0.6642246642246642,3.0625,0.0,-1.25,0.0,-1.5213675213675213,-0.9255189255189256,3.03125,0.0,-1.25,0.0,-1.5897435897435896,-0.9597069597069596,2.90625,0.0,-1.25,-0.757020757020757,-1.5079365079365081,-0.7350427350427351,2.875,0.0,-1.1875,-1.092796092796093,-1.1489621489621489,-0.7631257631257631,3.0625,0.0,-1.0,-0.8986568986568987,-1.21001221001221,-1.1477411477411477,3.21875,0.0,-0.875,0.0,-1.8363858363858363,-1.894993894993895,3.125,0.0,-0.875,0.0,-2.0354090354090357,-2.4297924297924296,2.84375,0.0,-1.03125,-0.9987789987789988,-1.7387057387057387,-2.291819291819292,2.65625,0.0,-1.03125,-1.5067155067155067,-1.4774114774114775,-2.003663003663004,2.75,0.0,-0.90625,-1.4273504273504274,-1.6105006105006106,-2.094017094017094,2.78125,0.0,-0.75,-1.1794871794871795,-1.9938949938949944,-2.354090354090354,2.6875,0.0,-0.6875,-0.9279609279609279,-2.045177045177045,-2.6166056166056166,2.53125,0.0,-0.65625,-0.8901098901098901,-2.2234432234432235,-2.551892551892552,2.375,0.0,-0.65625,-1.0915750915750917,-1.9169719169719168,-2.417582417582417,2.40625,0.0,-0.59375,-1.2112332112332111,-1.934065934065934,-2.6385836385836385,2.4375,0.0,0.0,-0.993894993894994,-2.072039072039072,-3.053724053724053,2.34375,0.0,0.0,-1.3565323565323566,-2.1611721611721606,-3.2039072039072036,2.0,0.0,0.0,-0.5543345543345544,-1.6654456654456655,-2.9084249084249083,2.0,0.0,0.0,0.0,-1.827838827838828,-3.3382173382173383,2.0,0.0,0.0,-0.8754578754578755,-2.068376068376069,-3.7875457875457874,1.6875,0.0,0.0,-1.5763125763125765,-1.7777777777777777,-3.6214896214896215,1.375,0.0,0.0,-1.3601953601953602,-1.4871794871794872,-3.217338217338217,1.375,0.0,0.0,-1.57997557997558,-1.7545787545787546,-3.0854700854700856,1.375,0.0,0.0,-1.7387057387057387,-1.8485958485958487,-3.503052503052503,1.34375,0.0,0.0,-1.7326007326007329,-1.7008547008547008,-3.776556776556777,1.21875,0.0,0.0,-1.2454212454212454,-1.8583638583638584,-3.81929181929182,1.0,0.0,0.0,-1.3943833943833943,-1.7887667887667889,-3.851037851037851,0.6875,0.0,0.0,-1.557997557997558,-1.7411477411477412,-3.483516483516484,0.53125,0.0,0.0,-0.8669108669108669,-1.9242979242979243,-2.927960927960928,0.0,0.0,0.0,0.0,-1.8388278388278387,-2.52991452991453,0.0,0.0,0.0,0.0,-1.9169719169719168,-2.498168498168498,0.0,0.0,0.0,0.0,-1.6886446886446886,-2.0818070818070815,0.0,0.0,0.0,0.0,-1.6507936507936507,-1.5567765567765568,0.0,0.0,0.0,,,,,,,,,,,,,pullUp
accX,0.0,0.5982905982905983,0.0,0.625,0.0,0.0,0.8083028083028083,0.8571428571428571,0.8827838827838828,0.65625,0.0,0.0,0.5531135531135531,0.0,1.1733821733821734,0.0,0.0,0.0,0.0,0.0,1.3137973137973138,0.53125,0.0,0.0,0.0,0.0,0.8315018315018315,0.53125,0.0,0.0,0.0,0.0,0.7094017094017094,0.0,0.0,0.0,0.7838827838827839,0.0,1.4529914529914532,0.0,0.0,0.0,1.1147741147741148,0.0,2.3907203907203907,0.59375,0.0,0.0,1.3675213675213675,0.0,2.8046398046398044,0.875,0.0,0.0,1.3772893772893773,0.0,2.2600732600732596,1.0625,0.0,0.0,1.2808302808302807,0.0,1.8351648351648349,1.125,0.0,0.0,1.531135531135531,0.0,1.9365079365079363,1.125,0.0,0.0,1.6068376068376071,0.0,2.253968253968254,1.28125,0.0,0.0,1.7789987789987791,0.0,2.41025641025641,1.4375,0.0,-0.53125,2.2600732600732596,0.0,2.554334554334554,1.65625,0.0,-0.71875,1.7838827838827842,-0.7326007326007326,2.4346764346764345,1.8125,-0.59375,-0.9375,0.7130647130647131,-0.9072039072039072,1.6202686202686205,1.875,0.0,-0.9375,1.0097680097680095,-0.8632478632478633,1.3418803418803418,1.9375,0.0,-0.9375,0.7338217338217338,-0.6776556776556777,1.442002442002442,2.125,0.0,-0.9375,0.8778998778998779,-1.1855921855921856,1.3797313797313795,2.21875,0.0,-1.0,0.0,-1.3308913308913308,1.326007326007326,2.28125,0.0,-1.0625,0.8205128205128205,-1.3479853479853479,1.0634920634920637,2.4375,0.0,-1.125,0.9145299145299144,-1.4029304029304028,0.557997557997558,2.53125,-0.53125,-1.28125,0.0,-0.9096459096459096,0.0,2.59375,0.0,-1.28125,0.0,-1.0122100122100122,0.0,2.53125,0.0,-1.28125,-0.5225885225885226,-0.9511599511599512,0.7155067155067155,2.59375,0.0,-1.1875,0.0,-0.9389499389499391,0.0,2.75,0.0,-1.09375,0.9096459096459096,-1.126984126984127,0.0,2.875,0.0,-1.09375,0.9145299145299144,-1.0879120879120878,0.0,2.90625,0.0,-1.1875,0.0,-1.1868131868131868,-0.5665445665445665,2.875,-0.75,-1.28125,-1.3992673992673992,-0.7008547008547008,-0.9010989010989012,2.8125,0.0,-1.25,-1.1904761904761905,-0.5982905982905983,-0.9768009768009768,2.84375,0.0,-1.03125,0.0,-0.7985347985347986,-1.144078144078144,2.84375,0.0,-0.875,0.5909645909645911,-0.6239316239316239,-1.26007326007326,2.84375,0.0,-0.84375,0.7203907203907204,-0.9951159951159952,-1.5409035409035412,2.875,0.0,-0.875,0.0,-1.293040293040293,-1.5555555555555556,2.78125,0.0,-1.0,-0.9316239316239316,-0.7081807081807082,-1.4505494505494505,2.71875,0.0,-0.96875,-0.7008547008547008,-0.9426129426129426,-1.5299145299145298,2.8125,0.0,-0.8125,-0.63003663003663,-1.0305250305250304,-1.824175824175824,2.78125,0.0,-0.75,0.0,-1.3687423687423688,-2.1514041514041518,2.6875,0.0,-0.75,0.0,-1.6495726495726497,-1.9963369963369964,2.5,0.0,-0.8125,-0.5482295482295483,-1.3150183150183148,-1.5665445665445663,2.5,0.0,-0.78125,-0.5201465201465202,-1.7716727716727716,-1.6691086691086692,2.625,0.0,-0.71875,-0.7045177045177046,-1.3846153846153846,-2.086691086691087,2.59375,0.0,-0.71875,-0.6654456654456654,-1.5958485958485962,-2.556776556776557,2.5625,0.0,-0.65625,0.0,-2.21001221001221,-2.4273504273504267,2.375,0.0,-0.65625,-1.0354090354090355,-1.8144078144078144,-2.184371184371184,2.3125,0.0,-0.6875,-1.2625152625152625,-1.6691086691086692,-2.606837606837607,2.4375,0.0,-0.53125,-0.8888888888888888,-1.871794871794872,-3.189255189255189,2.375,0.0,0.0,-0.5299145299145299,-2.5885225885225887,-3.2808302808302807,2.0625,-0.6875,-0.5625,-1.1782661782661783,-2.103785103785104,-2.7399267399267404,1.96875,-0.71875,-0.65625,-1.868131868131868,-2.101343101343101,-3.023199023199023,1.90625,0.0,-0.53125,-1.9548229548229548,-1.9267399267399268,-3.183150183150183,1.8125,0.0,0.0,-1.4456654456654456,-2.2625152625152625,-3.0805860805860807,1.65625,0.0,0.0,-1.1245421245421243,-2.509157509157509,-2.9792429792429798,1.40625,0.0,0.0,-1.967032967032967,-1.8864468864468864,-3.05006105006105,1.25,0.0,0.0,-2.347985347985348,-1.7557997557997558,-3.7557997557997562,1.125,0.0,0.0,-2.36019536019536,-2.0488400488400487,-4.245421245421245,0.84375,0.0,0.0,-2.2210012210012207,-1.9951159951159951,-4.362637362637362,0.0,0.0,0.0,-1.7557997557997558,-1.5445665445665446,-3.8852258852258847,0.0,0.0,0.0,-1.3162393162393162,-1.7179487179487178,-3.52014652014652,0.0,0.0,0.0,-1.0866910866910866,-1.9658119658119655,-3.31013431013431,0.0,0.0,0.0,,,,,,,pullUp
accX,0.0,0.6385836385836385,2.1941391941391943,0.875,0.0,0.0,0.8070818070818071,-0.5409035409035409,1.5958485958485962,1.0,0.0,0.0,0.9328449328449328,0.0,1.4383394383394383,0.78125,0.0,0.0,0.8583638583638583,0.0,1.3907203907203909,0.0,0.0,0.0,0.5726495726495726,0.5604395604395604,1.6837606837606838,0.0,0.0,0.0,0.9487179487179488,0.0,1.8583638583638584,0.0,0.0,0.0,0.9487179487179488,0.0,2.2002442002442004,0.59375,0.0,0.0,1.2185592185592184,0.0,2.241758241758242,0.75,0.0,0.0,1.6312576312576312,0.0,2.623931623931624,0.875,0.0,0.0,1.7912087912087913,0.0,2.7252747252747254,1.0625,0.0,0.0,2.659340659340659,0.0,2.673992673992674,1.28125,0.0,0.0,2.3626373626373627,0.0,3.0415140415140414,1.3125,-0.53125,-0.6875,0.8021978021978022,0.0,3.247863247863248,1.5625,0.0,-0.8125,1.948717948717949,-0.8437118437118437,3.225885225885226,1.96875,0.0,-0.71875,2.2954822954822958,-1.133089133089133,2.9987789987789983,2.1875,0.0,-0.8125,1.978021978021978,-1.0427350427350428,2.793650793650793,2.25,0.0,-0.96875,1.1452991452991452,-1.2503052503052503,2.3504273504273505,2.3125,-1.0,-1.1875,-1.1135531135531136,-0.8754578754578755,1.586080586080586,2.5,-0.8125,-1.1875,0.6214896214896215,-1.358974358974359,1.0146520146520146,2.75,0.0,-0.96875,1.4725274725274726,-1.619047619047619,0.7289377289377289,2.8125,0.0,-1.125,1.037851037851038,-1.3785103785103785,0.8400488400488401,2.78125,0.0,-1.21875,0.8644688644688645,-1.7106227106227103,1.1318681318681318,2.8125,0.0,-1.3125,0.5836385836385837,-1.6422466422466422,0.9047619047619048,2.90625,0.0,-1.375,0.0,-1.338217338217338,0.0,3.03125,0.0,-1.3125,0.0,-1.463980463980464,0.0,3.03125,0.0,-1.28125,0.0,-1.413919413919414,0.0,2.96875,0.0,-1.25,-0.6361416361416361,-1.2942612942612943,0.0,3.0,0.0,-1.15625,0.0,-1.0476190476190477,0.0,3.15625,0.0,-1.0625,0.0,-1.68009768009768,0.0,3.1875,0.0,-1.125,0.5921855921855922,-2.039072039072039,0.0,3.03125,0.0,-1.21875,0.0,-1.4188034188034189,0.0,3.15625,0.0,-1.21875,0.0,-1.3296703296703296,-0.5677655677655677,3.28125,0.0,-1.15625,-0.7680097680097681,-1.4505494505494505,-0.7728937728937729,3.28125,0.0,-1.03125,0.0,-1.4297924297924298,-1.1538461538461535,3.3125,0.0,-1.03125,-0.7167277167277167,-1.6642246642246643,-1.6263736263736264,3.21875,-0.59375,-1.03125,-1.5103785103785103,-1.42002442002442,-1.915750915750916,3.21875,-0.59375,-0.96875,-1.2222222222222223,-1.702075702075702,-2.440781440781441,3.15625,-0.65625,-0.84375,-0.7814407814407814,-2.096459096459097,-2.7423687423687424,2.96875,-0.78125,-0.90625,-0.8913308913308914,-2.1770451770451764,-2.6263736263736264,2.84375,-1.03125,-0.90625,-1.6275946275946276,-2.326007326007326,-2.715506715506716,2.65625,-1.25,-0.9375,-2.4737484737484743,-2.3492063492063493,-2.7338217338217334,2.5,-1.25,-0.84375,-3.0146520146520146,-2.4468864468864466,-2.7118437118437115,2.4375,-0.78125,-0.65625,-2.023199023199023,-2.4053724053724053,-2.6361416361416357,2.40625,0.0,-0.5625,-1.398046398046398,-2.213675213675214,-3.0940170940170937,2.4375,0.0,0.0,-0.9572649572649572,-2.5482295482295485,-3.7655677655677655,1.96875,0.0,-0.59375,-1.5054945054945057,-1.7924297924297925,-3.407814407814408,1.6875,0.0,-0.53125,-1.0097680097680095,-1.652014652014652,-2.4652014652014653,1.71875,0.0,0.0,0.0,-1.896214896214896,-2.523809523809524,1.90625,0.0,0.0,0.0,-2.245421245421245,-3.505494505494505,1.8125,0.0,0.0,-1.2698412698412698,-1.962148962148962,-3.8998778998779,1.40625,-0.75,-0.625,-3.311355311355311,-1.4700854700854702,-3.4603174603174605,1.28125,-0.75,-0.53125,-2.655677655677656,-2.0415140415140414,-3.225885225885226,1.46875,0.0,0.0,-1.5897435897435896,-2.728937728937729,-3.4896214896214897,1.375,0.0,0.0,-1.5738705738705738,-2.437118437118437,-3.3687423687423688,1.0,0.0,0.0,-2.0586080586080584,-2.101343101343101,-3.514041514041514,0.8125,0.0,0.0,-2.542124542124542,-1.8534798534798536,-3.7606837606837606,0.65625,0.0,0.0,-2.333333333333333,-2.0378510378510377,-3.725274725274725,0.5625,0.0,0.0,-1.4615384615384617,-2.1978021978021984,-3.523809523809524,0.0,0.0,0.0,0.0,-2.3076923076923075,-3.2429792429792434,0.0,0.0,0.0,0.0,-2.2844932844932844,-3.0390720390720385,0.0,0.0,0.0,0.0,-2.064713064713065,-2.7326007326007327,0.0,0.0,0.0,-0.5885225885225885,-1.887667887667888,-2.4297924297924296,0.0,0.0,0.0,,,,,,,pullUp
