,00_accX,00_accY,00_accZ,00_gyroX,00_gyroY,00_gyroZ,01_accX,01_accY,01_accZ,01_gyroX,01_gyroY,01_gyroZ,02_accX,02_accY,02_accZ,02_gyroX,02_gyroY,02_gyroZ,03_accX,03_accY,03_accZ,03_gyroX,03_gyroY,03_gyroZ,04_accX,04_accY,04_accZ,04_gyroX,04_gyroY,04_gyroZ,05_accX,05_accY,05_accZ,05_gyroX,05_gyroY,05_gyroZ,06_accX,06_accY,06_accZ,06_gyroX,06_gyroY,06_gyroZ,07_accX,07_accY,07_accZ,07_gyroX,07_gyroY,07_gyroZ,08_accX,08_accY,08_accZ,08_gyroX,08_gyroY,08_gyroZ,09_accX,09_accY,09_accZ,09_gyroX,09_gyroY,09_gyroZ,10_accX,10_accY,10_accZ,10_gyroX,10_gyroY,10_gyroZ,11_accX,11_accY,11_accZ,11_gyroX,11_gyroY,11_gyroZ,12_accX,12_accY,12_accZ,12_gyroX,12_gyroY,12_gyroZ,13_accX,13_accY,13_accZ,13_gyroX,13_gyroY,13_gyroZ,14_accX,14_accY,14_accZ,14_gyroX,14_gyroY,14_gyroZ,15_accX,15_accY,15_accZ,15_gyroX,15_gyroY,15_gyroZ,16_accX,16_accY,16_accZ,16_gyroX,16_gyroY,16_gyroZ,17_accX,17_accY,17_accZ,17_gyroX,17_gyroY,17_gyroZ,18_accX,18_accY,18_accZ,18_gyroX,18_gyroY,18_gyroZ,19_accX,19_accY,19_accZ,19_gyroX,19_gyroY,19_gyroZ,20_accX,20_accY,20_accZ,20_gyroX,20_gyroY,20_gyroZ,21_accX,21_accY,21_accZ,21_gyroX,21_gyroY,21_gyroZ,22_accX,22_accY,22_accZ,22_gyroX,22_gyroY,22_gyroZ,23_accX,23_accY,23_accZ,23_gyroX,23_gyroY,23_gyroZ,24_accX,24_accY,24_accZ,24_gyroX,24_gyroY,24_gyroZ,25_accX,25_accY,25_accZ,25_gyroX,25_gyroY,25_gyroZ,26_accX,26_accY,26_accZ,26_gyroX,26_gyroY,26_gyroZ,27_accX,27_accY,27_accZ,27_gyroX,27_gyroY,27_gyroZ,28_accX,28_accY,28_accZ,28_gyroX,28_gyroY,28_gyroZ,29_accX,29_accY,29_accZ,29_gyroX,29_gyroY,29_gyroZ,30_accX,30_accY,30_accZ,30_gyroX,30_gyroY,30_gyroZ,31_accX,31_accY,31_accZ,31_gyroX,31_gyroY,31_gyroZ,32_accX,32_accY,32_accZ,32_gyroX,32_gyroY,32_gyroZ,33_accX,33_accY,33_accZ,33_gyroX,33_gyroY,33_gyroZ,34_accX,34_accY,34_accZ,34_gyroX,34_gyroY,34_gyroZ,35_accX,35_accY,35_accZ,35_gyroX,35_gyroY,35_gyroZ,36_accX,36_accY,36_accZ,36_gyroX,36_gyroY,36_gyroZ,37_accX,37_accY,37_accZ,37_gyroX,37_gyroY,37_gyroZ,38_accX,38_accY,38_accZ,38_gyroX,38_gyroY,38_gyroZ,39_accX,39_accY,39_accZ,39_gyroX,39_gyroY,39_gyroZ,40_accX,40_accY,40_accZ,40_gyroX,40_gyroY,40_gyroZ,41_accX,41_accY,41_accZ,41_gyroX,41_gyroY,41_gyroZ,42_accX,42_accY,42_accZ,42_gyroX,42_gyroY,42_gyroZ,43_accX,43_accY,43_accZ,43_gyroX,43_gyroY,43_gyroZ,44_accX,44_accY,44_accZ,44_gyroX,44_gyroY,44_gyroZ,45_accX,45_accY,45_accZ,45_gyroX,45_gyroY,45_gyroZ,46_accX,46_accY,46_accZ,46_gyroX,46_gyroY,46_gyroZ,47_accX,47_accY,47_accZ,47_gyroX,47_gyroY,47_gyroZ,48_accX,48_accY,48_accZ,48_gyroX,48_gyroY,48_gyroZ,49_accX,49_accY,49_accZ,49_gyroX,49_gyroY,49_gyroZ,50_accX,50_accY,50_accZ,50_gyroX,50_gyroY,50_gyroZ,51_accX,51_accY,51_accZ,51_gyroX,51_gyroY,51_gyroZ,52_accX,52_accY,52_accZ,52_gyroX,52_gyroY,52_gyroZ,53_accX,53_accY,53_accZ,53_gyroX,53_gyroY,53_gyroZ,54_accX,54_accY,54_accZ,54_gyroX,54_gyroY,54_gyroZ,55_accX,55_accY,55_accZ,55_gyroX,55_gyroY,55_gyroZ,56_accX,56_accY,56_accZ,56_gyroX,56_gyroY,56_gyroZ,57_accX,57_accY,57_accZ,57_gyroX,57_gyroY,57_gyroZ,58_accX,58_accY,58_accZ,58_gyroX,58_gyroY,58_gyroZ,59_accX,59_accY,59_accZ,59_gyroX,59_gyroY,59_gyroZ,60_accX,60_accY,60_accZ,60_gyroX,60_gyroY,60_gyroZ,61_accX,61_accY,61_accZ,61_gyroX,61_gyroY,61_gyroZ,62_accX,62_accY,62_accZ,62_gyroX,62_gyroY,62_gyroZ,63_accX,63_accY,63_accZ,63_gyroX,63_gyroY,63_gyroZ,64_accX,64_accY,64_accZ,64_gyroX,64_gyroY,64_gyroZ,65_accX,65_accY,65_accZ,65_gyroX,65_gyroY,65_gyroZ,66_accX,66_accY,66_accZ,66_gyroX,66_gyroY,66_gyroZ,67_accX,67_accY,67_accZ,67_gyroX,67_gyroY,67_gyroZ,68_accX,68_accY,68_accZ,68_gyroX,68_gyroY,68_gyroZ,69_accX,69_accY,69_accZ,69_gyroX,69_gyroY,69_gyroZ,70_accX,70_accY,70_accZ,70_gyroX,70_gyroY,70_gyroZ,71_accX,71_accY,71_accZ,71_gyroX,71_gyroY,71_gyroZ,72_accX,72_accY,72_accZ,72_gyroX,72_gyroY,72_gyroZ,73_accX,73_accY,73_accZ,73_gyroX,73_gyroY,73_gyroZ,74_accX,74_accY,74_accZ,74_gyroX,74_gyroY,74_gyroZ,75_accX,75_accY,75_accZ,75_gyroX,75_gyroY,75_gyroZ,76_accX,76_accY,76_accZ,76_gyroX,76_gyroY,76_gyroZ,77_accX,77_accY,77_accZ,77_gyroX,77_gyroY,77_gyroZ,78_accX,78_accY,78_accZ,78_gyroX,78_gyroY,78_gyroZ,79_accX,79_accY,79_accZ,79_gyroX,79_gyroY,79_gyroZ,category
accX,0.0,0.0,0.0,0.0,0.0,0.0,0.0,0.0,0.0,0.0,0.0,0.0,0.0,0.0,0.0,0.0,0.0,0.0,0.0,0.0,-0.5702075702075702,0.0,0.0,0.0,0.0,0.0,0.0,0.0,0.0,0.0,0.0,0.0,0.0,0.0,0.0,0.0,0.0,0.0,0.0,0.0,0.0,0.0,0.0,0.0,-0.5909645909645911,0.0,0.0,0.0,-0.7448107448107448,0.0,-1.0952380952380951,-0.5625,0.0,0.0,-1.474969474969475,0.8144078144078144,-1.21978021978022,-0.6875,0.0,0.0,-1.656898656898657,0.7496947496947497,-1.1526251526251523,-0.625,0.0,0.0,-1.6056166056166057,0.5470085470085471,-1.0293040293040292,-0.625,0.0,0.0,-2.096459096459097,0.6495726495726496,-0.7106227106227107,-0.625,0.0,0.625,-2.340659340659341,0.0,-0.6373626373626373,-0.65625,0.0,0.78125,-2.551892551892552,-0.5848595848595849,-0.6874236874236874,-0.84375,0.0,0.9375,-2.072039072039072,-1.137973137973138,-0.5750915750915749,-1.0,0.0,1.125,-2.2051282051282053,-1.5433455433455434,-0.6068376068376068,-0.90625,0.0,1.25,-2.208791208791209,-2.1147741147741153,-0.7716727716727717,-0.65625,0.0,1.375,-1.4481074481074483,-2.9926739926739927,-0.7509157509157509,-0.65625,0.0,1.46875,-1.0708180708180708,-2.85958485958486,0.0,-0.875,0.0,1.46875,-1.1904761904761905,-2.768009768009768,0.7203907203907204,-0.6875,0.0,1.53125,-0.7472527472527473,-3.1428571428571432,1.0537240537240538,0.0,0.0,1.46875,-0.5335775335775336,-3.2808302808302807,1.2820512820512822,0.0,0.0,1.40625,0.0,-3.335775335775337,1.5921855921855919,0.0,0.0,1.375,0.0,-3.3418803418803416,1.7301587301587302,0.0,0.0,1.375,0.8083028083028083,-3.4822954822954824,1.843711843711844,0.0,0.0,1.3125,1.6007326007326008,-3.772893772893773,1.968253968253968,0.0,0.0,1.21875,2.8632478632478637,-3.7692307692307687,2.2222222222222223,0.0,-0.59375,1.0625,3.869352869352869,-3.6263736263736255,2.398046398046398,0.0,-0.625,0.8125,4.186813186813187,-2.9450549450549453,2.23931623931624,0.6875,-0.65625,0.59375,4.4444444444444455,-2.743589743589744,1.619047619047619,0.90625,-0.78125,0.0,3.7142857142857135,-2.357753357753358,0.8376068376068376,1.03125,-0.6875,0.0,4.086691086691086,-2.1978021978021984,0.0,1.125,-0.59375,0.0,4.462759462759463,-1.8180708180708183,0.7924297924297924,1.1875,0.0,0.0,5.328449328449328,-1.164835164835165,1.037851037851038,1.375,0.0,0.0,5.5054945054945055,-0.9365079365079364,0.0,1.53125,-0.625,-0.59375,4.542124542124542,-0.8034188034188035,-0.8595848595848596,1.53125,0.0,-0.875,4.568986568986569,0.0,-1.78021978021978,1.40625,0.0,-1.0,4.688644688644689,0.0,-2.096459096459097,1.3125,0.0,-1.21875,4.148962148962149,1.3614163614163617,-2.7851037851037854,1.21875,0.0,-1.5,3.4761904761904763,1.7887667887667889,-3.412698412698413,1.09375,0.0,-1.6875,2.831501831501832,1.706959706959707,-3.3956043956043955,0.90625,0.0,-1.84375,2.2002442002442004,1.2832722832722834,-3.5579975579975582,0.71875,0.0,-1.9375,0.7521367521367521,1.6336996336996337,-3.8949938949938954,0.53125,0.0,-2.0625,0.0,1.6324786324786325,-3.525030525030525,0.0,0.0,-2.0625,-1.5763125763125765,1.78998778998779,-3.33943833943834,0.0,0.0,-2.09375,-2.9206349206349205,2.2210012210012207,-2.8644688644688645,0.0,0.0,-1.96875,-3.31013431013431,2.2051282051282053,-2.051282051282051,-0.65625,0.0,-1.75,-3.1123321123321124,1.3748473748473748,-1.465201465201465,-0.90625,0.0,-1.5,-3.433455433455433,1.1074481074481075,-1.144078144078144,-1.125,0.0,-1.25,-2.85958485958486,0.0,-1.2515262515262515,-1.09375,0.0,-0.90625,-2.9169719169719173,0.0,-0.6752136752136753,-1.1875,0.0,-0.71875,-3.7496947496947497,0.0,0.0,-1.25,0.0,-0.5625,-3.879120879120879,0.0,0.0,-1.03125,0.0,0.0,-2.584859584859585,-2.031746031746032,0.0,-0.9375,0.0,0.0,-4.032967032967034,-2.2002442002442004,-0.9145299145299144,-0.9375,-0.5625,0.0,-4.462759462759463,-2.1880341880341883,-0.7460317460317459,-0.75,0.0,0.0,-2.4432234432234434,-3.0415140415140414,0.0,-0.84375,0.0,0.625,-2.9206349206349205,-2.4725274725274726,0.9157509157509156,-1.03125,0.0,0.71875,-3.731379731379731,-2.2698412698412698,0.6129426129426129,-0.6875,0.0,0.9375,-2.326007326007326,-3.1697191697191696,0.0,0.0,0.0,1.0625,-2.6312576312576312,-2.8253968253968256,0.0,0.0,0.0,1.03125,-2.062271062271062,-2.8095238095238093,0.0,0.0,0.0,1.125,0.0,-3.7094017094017095,0.5494505494505495,0.0,0.0,1.25,0.0,-3.323565323565324,0.5128205128205128,0.0,0.0,1.21875,0.0,-3.053724053724053,1.0366300366300367,0.0,0.0,1.28125,2.4517704517704515,-3.3748473748473753,1.382173382173382,0.0,0.0,1.1875,2.562881562881563,-2.1770451770451764,1.7655677655677655,0.0,0.0,1.0625,2.2002442002442004,-1.7887667887667889,1.5030525030525033,0.0,0.0,0.90625,3.5579975579975582,-2.7643467643467643,0.503052503052503,0.0,0.0,0.75,3.505494505494505,-2.0085470085470085,0.0,0.0,0.0,0.53125,2.965811965811966,-1.2026862026862026,0.7460317460317459,0.0,0.0,0.0,2.709401709401709,-1.5836385836385836,0.0,0.0,0.0,0.0,,,,,,,,,,,,,,,,,,,,,,,,,,,,,,,,,,,,,,,,,,,rotateRight
accX,0.0,0.0,0.0,0.0,0.0,0.0,0.0,0.0,0.0,0.0,0.0,0.0,0.0,0.0,0.0,0.0,0.0,0.0,0.0,-0.5958485958485958,0.0,0.0,0.0,0.0,0.0,-1.1746031746031746,-1.010989010989011,-0.71875,0.0,0.0,-0.5506715506715507,0.0,-0.5225885225885226,-0.875,0.0,0.0,-1.0488400488400489,0.0,0.0,-0.625,0.0,0.0,-0.8400488400488401,0.0,0.0,0.0,0.0,0.5625,-1.9694749694749696,0.0,0.0,0.0,0.0,0.65625,-2.003663003663004,0.0,-0.9206349206349206,0.0,0.0,0.8125,-1.2063492063492065,-0.8864468864468864,-0.7826617826617827,0.0,0.0,0.84375,-1.7631257631257633,-0.7423687423687424,-0.5885225885225885,0.0,0.0,0.90625,-1.188034188034188,-1.0451770451770452,0.0,0.0,0.0,0.96875,0.0,-1.7997557997557998,-0.5262515262515263,0.0,0.0,0.875,-0.8766788766788767,-1.42002442002442,0.0,0.0,0.0,0.90625,-0.8876678876678876,-1.2136752136752136,0.0,0.0,0.0,0.96875,0.0,-1.6336996336996337,0.5787545787545788,0.0,0.0,1.0,0.0,-1.7191697191697193,0.6898656898656899,0.0,0.0,0.96875,0.0,-1.8803418803418803,0.7338217338217338,0.0,0.0,1.0,1.017094017094017,-2.5225885225885225,0.9047619047619048,0.0,0.0,0.9375,1.9084249084249083,-3.1514041514041518,0.5409035409035409,0.0,-0.625,0.84375,2.126984126984127,-2.6043956043956045,0.7851037851037851,0.0,-0.65625,0.6875,2.525030525030525,-2.4896214896214897,1.1294261294261294,0.0,-0.625,0.5625,3.3968253968253967,-2.56043956043956,1.4053724053724053,0.0,-0.75,0.0,3.3956043956043955,-2.063492063492064,1.5738705738705738,0.0,-0.75,0.0,3.0573870573870563,-1.5018315018315018,1.4017094017094016,0.53125,-0.65625,0.0,2.9511599511599518,-0.9462759462759462,1.3186813186813189,0.8125,0.0,0.0,3.23931623931624,-0.9047619047619048,1.0744810744810744,1.03125,-0.53125,0.0,3.7875457875457874,-0.6214896214896215,1.0708180708180708,1.15625,0.0,0.0,4.295482295482295,-0.5787545787545788,1.031746031746032,1.3125,0.0,0.0,4.4664224664224665,-0.8559218559218559,0.0,1.46875,0.0,-0.75,3.5824175824175826,0.0,-1.3113553113553114,1.34375,0.0,-0.96875,3.4017094017094016,0.0,-1.7838827838827842,1.28125,0.0,-1.15625,3.1367521367521367,0.0,-2.3553113553113554,1.1875,0.0,-1.3125,2.3650793650793656,1.3406593406593406,-2.826617826617827,1.09375,0.0,-1.4375,2.2527472527472527,1.4334554334554337,-2.9145299145299144,1.03125,0.0,-1.46875,2.0097680097680097,1.391941391941392,-2.7423687423687424,0.84375,0.0,-1.59375,0.706959706959707,2.3003663003662997,-2.42002442002442,0.78125,0.53125,-1.75,1.2405372405372406,1.1684981684981686,-2.8339438339438336,0.78125,0.8125,-1.8125,0.8168498168498168,0.5934065934065934,-2.9829059829059825,0.0,0.0,-1.84375,-1.2808302808302807,1.7789987789987791,-2.455433455433456,0.0,0.0,-1.875,-0.9133089133089132,1.3186813186813189,-1.8913308913308915,0.0,0.0,-1.71875,-0.9279609279609279,0.5897435897435898,-1.9023199023199024,0.0,0.0,-1.65625,-2.166056166056166,0.7692307692307693,-1.956043956043956,0.0,0.0,-1.53125,-1.761904761904762,0.0,-1.9426129426129424,-0.59375,0.0,-1.34375,-1.881562881562881,0.0,-1.8144078144078144,-0.84375,0.0,-1.1875,-3.0329670329670333,0.0,-1.238095238095238,-0.96875,0.0,-1.0625,-3.3174603174603177,0.0,-0.9181929181929182,-0.84375,0.0,-0.875,-2.9975579975579976,-1.1501831501831499,-1.5091575091575091,-0.96875,0.0,-0.625,-3.84004884004884,-1.0341880341880345,-1.3699633699633702,-1.25,0.0,0.0,-4.2393162393162385,-0.9609279609279608,-0.8705738705738706,-1.15625,0.0,0.0,-3.3076923076923075,-1.6275946275946276,-0.5567765567765568,-1.09375,0.0,0.0,-3.3772893772893773,-1.5738705738705738,0.0,-1.21875,0.0,0.0,-3.758241758241758,-1.3162393162393162,0.5421245421245421,-1.03125,0.0,0.53125,-3.087912087912088,-2.004884004884005,0.6373626373626373,-0.9375,0.0,0.6875,-2.455433455433456,-2.555555555555556,0.557997557997558,-0.96875,0.0,0.8125,-2.978021978021978,-2.096459096459097,0.7423687423687424,-0.78125,0.0,0.9375,-2.003663003663004,-2.6764346764346763,0.5653235653235653,-0.625,0.0,1.0625,-1.1452991452991452,-3.0134310134310134,0.6544566544566545,-0.625,0.0,1.03125,-1.8498168498168501,-2.5103785103785103,0.8693528693528694,-0.53125,0.0,1.09375,-0.8351648351648352,-2.9829059829059825,0.5470085470085471,0.0,0.0,1.21875,0.0,-3.2466422466422467,0.0,0.0,0.0,1.21875,-0.8449328449328449,-2.523809523809524,0.8363858363858364,0.0,0.0,1.28125,0.6788766788766789,-3.064713064713065,1.2002442002442002,0.0,0.0,1.28125,1.4737484737484738,-2.9328449328449326,1.3186813186813189,0.0,0.0,1.21875,0.6324786324786325,-1.9584859584859584,1.0195360195360197,0.0,0.0,1.25,2.5433455433455427,-2.357753357753358,1.1391941391941391,0.0,0.0,1.15625,3.6825396825396814,-1.9035409035409037,1.4444444444444444,0.0,0.0,0.90625,3.0744810744810747,-1.120879120879121,1.3284493284493284,0.0,0.0,0.75,3.388278388278388,-1.5665445665445663,0.6434676434676435,0.0,0.0,0.5625,3.2905982905982905,-1.5995115995115996,0.0,0.0,0.0,0.0,2.271062271062271,-1.1697191697191698,0.0,0.0,0.0,0.0,1.4700854700854702,-0.8388278388278388,0.0,0.0,0.0,0.0,1.4126984126984128,-0.8864468864468864,0.0,0.0,0.0,0.0,,,,,,,,,,,,,,,,,,,,,,,,,,,,,,,,,,,,,rotateRight
accX,0.0,0.0,0.0,0.0,0.0,0.0,0.0,0.0,0.0,0.0,0.0,0.0,0.0,-0.6752136752136753,0.0,0.0,0.0,0.0,0.0,0.0,0.0,0.0,0.0,0.0,0.0,0.0,-0.5506715506715507,0.0,0.0,0.0,-0.9304029304029304,0.0,-0.6373626373626373,0.0,0.0,0.0,-0.8632478632478633,0.0,-0.5482295482295483,0.0,0.0,0.0,-1.4810744810744811,0.0,-0.663003663003663,0.0,0.0,0.0,-1.931623931623932,0.0,-0.6788766788766789,0.0,0.0,0.0,-1.8693528693528692,0.0,-0.6092796092796092,0.0,0.0,0.5625,-1.896214896214896,0.0,0.0,-0.5625,0.0,0.65625,-2.2551892551892547,0.0,0.0,0.0,0.0,0.78125,-1.7741147741147743,-1.1013431013431014,0.0,0.0,0.0,0.875,-1.531135531135531,-1.6117216117216118,0.5201465201465202,0.0,0.0,0.9375,-1.4493284493284493,-1.8205128205128205,0.6910866910866911,0.0,0.0,0.96875,-0.6886446886446886,-2.263736263736264,0.8803418803418803,0.0,0.0,1.0,0.0,-2.1672771672771667,1.3064713064713065,0.0,0.0,0.96875,0.0,-2.133089133089133,1.3308913308913308,0.0,0.0,1.0,0.5067155067155067,-2.3492063492063493,1.0024420024420024,0.0,0.0,1.0,1.1587301587301588,-2.4920634920634916,0.8400488400488401,0.0,0.0,0.96875,1.8083028083028083,-2.5360195360195363,0.9902319902319904,0.0,0.0,0.875,2.192918192918193,-2.3968253968253967,1.3345543345543345,0.0,0.0,0.75,2.467643467643468,-2.0183150183150182,1.5995115995115996,0.0,0.0,0.625,2.9267399267399266,-1.8180708180708183,1.7643467643467643,0.0,-0.53125,0.53125,2.9230769230769234,-1.3284493284493284,1.5225885225885225,0.625,-0.625,0.0,2.7106227106227108,-1.0598290598290598,1.1892551892551892,0.84375,-0.59375,0.0,2.9206349206349205,-1.0415140415140416,0.7802197802197802,0.90625,0.0,0.0,3.6666666666666665,-1.0305250305250304,0.5433455433455433,1.0,0.0,0.0,4.152625152625153,-0.9804639804639804,0.0,1.125,0.0,0.0,4.9975579975579985,-1.1391941391941391,0.0,1.1875,0.0,0.0,5.046398046398046,-0.7521367521367521,0.0,1.1875,0.0,-0.6875,4.626373626373627,0.0,0.0,1.34375,0.0,-0.875,4.3699633699633695,0.0,-0.8754578754578755,1.40625,-0.53125,-1.09375,3.2527472527472527,0.5152625152625152,-1.7057387057387057,1.375,0.0,-1.34375,2.7594627594627594,0.7032967032967034,-2.4688644688644694,1.34375,0.0,-1.46875,2.717948717948718,0.0,-3.225885225885226,1.0,0.0,-1.5625,2.0012210012210008,0.6056166056166056,-3.457875457875458,0.65625,0.0,-1.71875,1.5286935286935286,0.0,-3.4029304029304033,0.0,0.0,-1.84375,0.8693528693528694,0.0,-3.2515262515262515,0.0,0.0,-2.0,-0.9035409035409036,0.8998778998778999,-3.615384615384616,0.0,0.0,-2.0625,-1.2222222222222223,1.0256410256410255,-3.838827838827839,0.0,0.0,-1.90625,-1.8656898656898655,1.133089133089133,-3.4407814407814414,-0.53125,0.0,-1.84375,-3.003663003663004,1.7912087912087913,-2.533577533577533,-0.5625,0.0,-1.65625,-2.04029304029304,0.8669108669108669,-1.984126984126984,-0.75,0.0,-1.4375,-1.663003663003663,0.0,-1.4969474969474967,-1.0625,0.0,-1.28125,-2.2820512820512815,0.0,-1.238095238095238,-1.125,0.0,-1.09375,-2.909645909645909,0.0,-1.3223443223443223,-0.9375,0.0,-0.96875,-2.3272283272283274,-0.7277167277167277,-1.1501831501831499,-1.0,0.0,-0.8125,-2.5982905982905984,-0.934065934065934,-0.7777777777777778,-1.1875,0.0,-0.625,-3.474969474969475,-0.7619047619047619,-0.5934065934065934,-1.25,0.0,0.0,-3.903540903540904,-1.1025641025641026,-0.6678876678876678,-1.3125,0.0,0.0,-3.7216117216117217,-1.4908424908424909,-0.7203907203907204,-1.21875,0.0,0.0,-4.065934065934067,-1.4114774114774116,0.0,-0.96875,0.0,0.0,-3.496947496947497,-1.7875457875457876,0.0,-0.96875,0.0,0.0,-3.0170940170940175,-1.9694749694749696,0.0,-1.15625,0.0,0.625,-3.36019536019536,-1.4590964590964588,1.0329670329670328,-0.75,0.0,0.8125,-1.4285714285714286,-3.221001221001221,0.0,-0.59375,0.0,0.90625,-1.442002442002442,-2.94993894993895,0.0,-0.71875,0.0,0.96875,-1.3724053724053724,-2.5396825396825395,0.0,-0.78125,0.0,1.125,-0.7423687423687424,-2.578754578754579,0.6800976800976801,-0.65625,0.0,1.21875,0.0,-2.5579975579975582,1.3333333333333333,-0.5625,0.0,1.28125,0.0,-2.9890109890109886,1.2063492063492065,0.0,0.0,1.21875,0.5384615384615384,-3.0488400488400487,1.155067155067155,0.0,0.0,1.09375,0.0,-2.6105006105006106,1.5555555555555556,0.0,0.0,1.03125,1.0134310134310134,-1.982905982905983,2.0818070818070815,0.0,0.0,1.03125,1.4188034188034189,-1.537240537240537,2.0305250305250304,0.0,0.0,0.96875,1.6056166056166057,-1.3846153846153846,1.5494505494505495,0.0,0.0,0.90625,2.4664224664224665,-1.8266178266178263,1.0390720390720392,0.0,0.0,0.8125,2.6043956043956045,-1.5238095238095235,0.9413919413919414,0.0,0.0,0.6875,2.562881562881563,-1.031746031746032,0.7435897435897436,0.0,0.0,0.59375,2.561660561660561,-1.1526251526251523,0.0,0.0,0.0,0.0,,,,,,,,,,,,,,,,,,,,,,,,,,,,,,,,,,,,,,,,,,,,,,,,,,,,,,,rotateRight
accX,0.0,0.0,0.0,0.0,0.0,0.0,0.0,-0.6837606837606838,-0.7948717948717948,0.0,0.0,0.0,0.0,0.0,-0.5946275946275946,0.0,0.0,0.0,0.0,0.0,-0.5470085470085471,-0.53125,0.0,0.0,0.0,0.0,-0.5006105006105006,-0.53125,0.0,0.0,-0.6239316239316239,0.0,0.0,0.0,0.0,0.0,-1.021978021978022,0.0,0.0,0.0,0.0,0.0,-1.175824175824176,0.0,-0.6691086691086691,0.0,0.0,0.0,-1.7997557997557998,0.0,-0.6275946275946276,0.0,0.0,0.0,-2.2820512820512815,0.0,-0.5873015873015873,0.0,0.0,0.625,-2.155067155067155,0.0,-0.6959706959706959,0.0,0.0,0.75,-1.678876678876679,-0.7350427350427351,0.0,0.0,0.0,0.84375,-1.8107448107448108,-0.8327228327228328,0.0,0.0,0.0,0.9375,-1.4053724053724053,-1.3284493284493284,0.5335775335775336,0.0,0.0,1.0,-0.7387057387057387,-1.7863247863247864,0.7057387057387058,0.0,0.0,1.0,0.0,-2.3638583638583643,0.503052503052503,0.0,0.0,0.9375,0.0,-2.230769230769231,0.7032967032967034,0.0,0.0,0.90625,0.0,-2.15995115995116,1.1294261294261294,0.0,0.0,0.90625,0.0,-2.3919413919413923,1.2503052503052503,0.0,0.0,0.875,0.8986568986568987,-2.305250305250305,1.4395604395604396,0.0,0.0,0.90625,1.4786324786324787,-2.241758241758242,1.8730158730158732,0.0,0.0,0.84375,2.2503052503052503,-2.388278388278388,2.1001221001221,0.0,0.0,0.71875,2.7667887667887667,-2.4285714285714284,2.04029304029304,0.0,0.0,0.53125,3.183150183150183,-2.122100122100122,1.9377289377289375,0.5625,0.0,0.0,3.485958485958486,-1.7704517704517704,1.871794871794872,0.71875,0.0,0.0,3.8962148962148966,-1.6275946275946276,1.4273504273504274,0.90625,-0.59375,0.0,3.925518925518925,-1.5616605616605617,0.6324786324786325,1.0,-0.53125,0.0,4.137973137973138,-0.8754578754578755,0.0,1.0625,0.0,0.0,4.74969474969475,0.0,0.0,1.21875,0.0,0.0,5.953601953601954,0.0,0.0,1.21875,0.0,-0.625,5.808302808302808,0.0,0.0,1.15625,0.0,-0.96875,4.648351648351649,0.8693528693528694,-1.1391941391941391,1.1875,0.0,-1.28125,4.21001221001221,1.2063492063492065,-1.8131868131868127,1.0625,0.0,-1.5625,2.2967032967032965,1.8888888888888888,-2.326007326007326,1.0625,0.0,-1.65625,1.8363858363858363,1.3162393162393162,-3.3455433455433456,0.96875,0.0,-1.6875,0.8656898656898657,1.1623931623931625,-3.673992673992674,0.59375,0.0,-1.71875,0.9194139194139194,0.8864468864468864,-3.0989010989010985,0.0,0.0,-1.75,0.6263736263736264,0.9487179487179488,-2.750915750915751,0.0,0.0,-1.8125,0.0,0.9584859584859584,-2.498168498168498,0.0,0.0,-1.84375,-0.5152625152625152,1.0622710622710625,-1.7130647130647132,0.0,0.0,-1.8125,-1.5213675213675213,1.0341880341880345,-1.6642246642246643,0.0,0.0,-1.78125,-1.391941391941392,0.0,-2.0097680097680097,0.0,0.0,-1.59375,-1.5286935286935286,0.0,-2.455433455433456,-0.5625,0.0,-1.4375,-2.547008547008547,0.0,-2.8485958485958487,-0.71875,0.0,-1.34375,-3.147741147741148,0.0,-2.5689865689865687,-0.78125,0.0,-1.09375,-3.335775335775337,0.0,-2.0012210012210008,-0.875,0.0,-0.84375,-3.3028083028083026,0.0,-1.0598290598290598,-1.09375,0.0,0.0,-3.3846153846153846,-0.9279609279609279,-1.1013431013431014,-1.15625,0.0,0.0,-3.6141636141636138,-1.6642246642246643,-1.6691086691086692,-1.09375,0.0,0.0,-3.3650793650793656,-2.13064713064713,-1.7179487179487178,-1.0625,0.0,0.0,-2.6825396825396823,-2.3699633699633704,-1.0268620268620268,-1.21875,0.0,0.0,-2.765567765567765,-1.7875457875457876,0.0,-1.4375,0.0,0.0,-2.5103785103785103,-1.4981684981684982,1.0891330891330893,-1.3125,0.0,0.5625,-1.94017094017094,-2.5409035409035408,0.6971916971916972,-1.0,0.0,0.6875,-1.9902319902319905,-2.6434676434676434,0.0,-0.84375,0.0,0.75,-1.47985347985348,-2.385836385836386,0.6251526251526252,-0.78125,0.0,0.8125,-1.0976800976800978,-1.7936507936507935,1.5335775335775337,-0.78125,0.0,0.90625,-0.9706959706959708,-1.5335775335775337,2.1098901098901104,-0.71875,0.0,1.0625,-0.8437118437118437,-1.9719169719169718,1.6886446886446886,-0.5625,0.0,1.125,-1.0390720390720392,-2.268620268620269,1.1196581196581197,0.0,0.0,1.21875,0.0,-2.655677655677656,1.0732600732600732,0.0,0.0,1.34375,0.0,-2.571428571428572,1.2637362637362637,0.0,0.0,1.3125,0.967032967032967,-2.7667887667887667,1.3064713064713065,0.0,0.0,1.28125,2.175824175824176,-2.9841269841269837,1.0952380952380951,0.0,0.0,1.15625,2.095238095238096,-2.6715506715506714,0.6288156288156288,0.0,0.0,1.03125,1.8827838827838828,-2.1074481074481075,0.0,0.0,0.0,0.96875,2.8986568986568986,-1.9694749694749696,0.6398046398046398,0.0,0.0,0.90625,3.1135531135531136,-1.6068376068376071,0.9731379731379732,0.0,0.0,0.75,2.5641025641025643,-0.971916971916972,0.8937728937728938,0.0,0.0,0.625,3.023199023199023,-1.3125763125763126,0.5409035409035409,0.0,0.0,0.0,3.1880341880341883,-1.2893772893772897,0.5201465201465202,0.0,0.0,0.0,2.4615384615384617,0.0,0.0,0.0,0.0,0.0,1.608058608058608,0.0,0.0,0.0,0.0,0.0,1.192918192918193,0.0,0.0,0.0,0.0,0.0,,,,,,,,,,,,,,,,,,,,,,,,,,,,,,,,,,,,,rotateRight
accX,0.0,0.0,0.0,0.0,0.0,0.0,0.0,0.0,0.0,0.0,0.0,0.0,0.0,-0.5946275946275946,-0.5482295482295483,0.0,0.0,0.0,-0.5763125763125763,0.0,-1.0549450549450552,0.0,0.0,0.0,-0.5091575091575091,0.0,-0.7533577533577533,-0.84375,0.0,0.0,-0.7582417582417582,0.0,-0.5128205128205128,-0.90625,0.0,0.0,-0.7948717948717948,0.5164835164835165,0.0,-0.625,0.0,0.0,-1.3931623931623929,0.0,0.0,0.0,0.0,0.0,-1.6532356532356531,0.0,-0.6153846153846154,0.0,0.0,0.0,-2.2612942612942613,0.0,-0.8778998778998779,0.0,0.0,0.53125,-2.2735042735042734,0.0,0.0,0.0,0.0,0.75,-1.5421245421245422,-1.021978021978022,0.0,0.0,0.0,0.875,-1.8620268620268619,-1.8730158730158732,-0.5286935286935287,0.0,0.0,0.78125,-1.7216117216117215,-1.7814407814407816,0.0,0.0,0.0,0.71875,-0.7472527472527473,-1.8827838827838828,0.0,0.0,0.0,0.78125,-0.7667887667887668,-1.5164835164835164,0.7521367521367521,0.0,0.0,0.875,-0.8522588522588522,-1.4774114774114775,0.9438339438339438,0.0,0.0,0.9375,0.0,-2.029304029304029,0.8717948717948718,0.0,0.0,0.96875,0.5616605616605617,-2.4285714285714284,0.9059829059829059,0.0,0.0,0.96875,0.8705738705738706,-2.1294261294261294,1.293040293040293,0.0,0.0,0.90625,1.4517704517704515,-2.1257631257631258,1.709401709401709,0.0,0.0,0.875,2.2857142857142856,-2.2612942612942613,2.166056166056166,0.0,0.0,0.75,2.6727716727716726,-2.021978021978022,2.385836385836386,0.0,0.0,0.59375,2.8693528693528694,-2.031746031746032,2.1355311355311355,0.0,0.0,0.0,3.1282051282051277,-1.757020757020757,1.884004884004884,0.625,-0.53125,0.0,3.628815628815629,-1.9609279609279608,1.1172161172161172,0.78125,0.0,0.0,4.174603174603175,-1.984126984126984,0.0,0.8125,0.0,0.0,3.934065934065934,-0.8168498168498168,0.0,0.71875,0.0,0.0,4.031746031746032,0.0,0.0,0.78125,0.0,0.0,3.9853479853479854,0.5738705738705738,0.0,0.90625,0.0,0.0,3.323565323565324,0.9462759462759462,-0.851037851037851,1.0625,0.0,-0.53125,2.9890109890109886,0.7936507936507936,-1.3418803418803418,1.15625,0.0,-0.71875,4.123321123321123,0.5506715506715507,-1.0976800976800978,1.0625,0.0,-0.96875,4.105006105006105,0.5763125763125763,-1.2332112332112333,0.9375,0.0,-1.34375,2.6788766788766787,1.051282051282051,-2.064713064713065,0.9375,0.0,-1.5,1.6288156288156288,1.3724053724053724,-2.467643467643468,0.84375,0.0,-1.6875,0.0,1.5067155067155067,-2.5286935286935286,0.65625,0.0,-1.78125,0.5531135531135531,1.2185592185592184,-2.311355311355311,0.0,0.0,-1.71875,0.5921855921855922,1.0427350427350428,-1.894993894993895,0.0,0.0,-1.78125,0.0,1.3553113553113554,-1.5213675213675213,0.0,0.0,-1.78125,-1.1086691086691087,1.5238095238095235,-1.7863247863247864,0.0,0.0,-1.6875,-1.8131868131868127,1.352869352869353,-2.0989010989010994,0.0,0.0,-1.5625,-2.0744810744810747,1.6031746031746033,-1.5274725274725274,0.0,0.0,-1.40625,-1.7448107448107448,1.1514041514041513,-1.1672771672771671,0.0,0.0,-1.3125,-1.031746031746032,0.0,-1.3675213675213675,0.0,0.0,-1.21875,-1.9377289377289375,0.0,-2.122100122100122,-0.65625,0.0,-1.0625,-2.7228327228327234,0.0,-2.063492063492064,-0.75,0.0,-0.9375,-2.326007326007326,0.0,-1.2808302808302807,-0.875,0.0,-0.71875,-2.8656898656898657,0.0,-0.8327228327228328,-0.90625,0.0,-0.53125,-3.7460317460317465,0.0,-0.8107448107448108,-0.8125,0.0,0.0,-3.5726495726495733,-1.5335775335775337,-1.4884004884004884,-0.8125,0.0,0.0,-3.4053724053724053,-2.128205128205128,-1.5054945054945057,-0.96875,0.0,0.0,-3.0390720390720385,-1.948717948717949,-0.5848595848595849,-1.0625,0.0,0.0,-3.062271062271062,-1.264957264957265,0.0,-0.84375,0.0,0.0,-2.8034188034188032,-1.5482295482295485,0.0,-0.71875,0.0,0.65625,-2.7423687423687424,-1.9242979242979243,0.5384615384615384,-0.75,0.0,0.6875,-2.4688644688644694,-2.012210012210012,0.7057387057387058,-0.65625,0.0,0.78125,-1.5714285714285714,-2.2905982905982905,0.5042735042735043,-0.59375,0.0,0.875,-1.7155067155067154,-1.9768009768009769,-0.7521367521367521,0.0,0.0,1.0625,0.0,-3.0708180708180715,-0.6642246642246642,-0.53125,0.0,1.1875,-0.5152625152625152,-2.501831501831502,0.0,-0.75,0.0,1.1875,-0.8253968253968254,-2.0463980463980462,1.1135531135531136,-0.65625,0.0,1.25,0.0,-2.542124542124542,1.3894993894993894,0.0,0.0,1.28125,0.0,-3.1746031746031744,1.0305250305250304,0.0,0.0,1.21875,0.7203907203907204,-3.6471306471306466,0.6800976800976801,0.0,0.0,1.21875,1.166056166056166,-3.611721611721612,0.6996336996336996,0.0,0.0,1.15625,1.051282051282051,-2.9829059829059825,1.1135531135531136,0.0,0.0,1.03125,0.978021978021978,-2.525030525030525,1.1074481074481075,0.0,0.0,1.0,0.9536019536019535,-2.0366300366300365,0.7765567765567766,0.0,0.0,0.9375,1.5848595848595848,-2.0061050061050056,0.6495726495726496,0.0,0.0,0.9375,1.637362637362637,-1.4334554334554337,0.8266178266178266,0.0,0.0,0.875,1.9108669108669107,-0.9694749694749696,0.8046398046398047,0.0,0.0,0.78125,2.238095238095238,-0.7667887667887668,0.6910866910866911,0.0,0.0,0.6875,2.6178266178266183,-0.9072039072039072,0.5409035409035409,0.0,0.0,0.59375,2.238095238095238,-0.7655677655677655,0.0,0.0,0.0,0.0,2.0085470085470085,-0.5665445665445665,0.0,0.0,0.0,0.0,1.8547008547008548,0.0,0.0,0.0,0.0,0.0,,,,,,,,,,,,,,,,,,,rotateRight
accX,0.0,0.0,0.0,0.0,0.0,0.0,0.0,0.0,0.0,0.0,0.0,0.0,0.0,0.0,0.0,0.0,0.0,0.0,0.0,0.0,0.0,0.0,0.0,0.0,-0.5115995115995116,0.0,0.0,0.0,0.0,0.0,-0.7216117216117216,0.0,-0.7081807081807082,0.0,0.0,0.0,-0.7008547008547008,-0.7643467643467643,-0.8424908424908425,0.0,0.0,0.0,-1.2087912087912087,0.0,-0.7411477411477412,-0.625,0.0,0.0,-1.363858363858364,0.0,-0.5824175824175825,-0.5625,0.0,0.0,-1.4041514041514038,0.0,0.0,0.0,0.0,0.0,-1.4908424908424909,-0.6080586080586079,-0.5787545787545788,0.0,0.0,0.59375,-1.2515262515262515,-1.0134310134310134,0.0,0.0,0.0,0.65625,-0.8888888888888888,-1.4896214896214897,0.0,0.0,0.0,0.71875,0.0,-1.948717948717949,0.0,0.0,0.0,0.6875,0.0,-1.7423687423687424,0.7362637362637363,0.0,0.0,0.6875,0.0,-1.7533577533577531,1.3076923076923077,0.0,0.0,0.65625,0.0,-1.948717948717949,1.3675213675213675,0.0,0.0,0.65625,0.6361416361416361,-2.211233211233212,1.2808302808302807,0.0,0.0,0.65625,1.0341880341880345,-2.1355311355311355,1.4871794871794872,0.0,0.0,0.59375,1.463980463980464,-1.9768009768009769,1.5665445665445663,0.0,0.0,0.53125,1.7973137973137974,-1.4835164835164836,1.968253968253968,0.0,0.0,0.0,2.2222222222222223,-1.4236874236874235,1.9474969474969477,0.0,0.0,0.0,2.7863247863247858,-1.382173382173382,1.6593406593406594,0.53125,0.0,0.0,3.3296703296703303,-1.1807081807081807,1.702075702075702,0.71875,0.0,0.0,3.3675213675213675,-1.061050061050061,1.68986568986569,0.84375,0.0,0.0,3.5665445665445668,-0.6422466422466423,1.7582417582417582,1.125,0.0,0.0,3.147741147741148,1.1172161172161172,1.2954822954822955,1.40625,0.0,0.0,3.758241758241758,0.7728937728937729,0.6898656898656899,1.625,0.0,0.0,4.366300366300366,0.5396825396825397,0.0,1.65625,0.0,0.0,5.134310134310135,0.0,0.0,1.65625,0.0,0.0,5.2673992673992664,0.0,-1.166056166056166,1.5,0.0,-0.65625,4.191697191697192,0.7643467643467643,-2.139194139194139,1.34375,0.0,-0.96875,3.312576312576313,0.8852258852258852,-2.9145299145299144,1.25,0.0,-1.25,2.7826617826617825,0.0,-3.5836385836385842,1.0625,0.0,-1.4375,2.1648351648351647,0.0,-3.852258852258852,0.59375,0.0,-1.625,1.5604395604395604,0.5018315018315018,-3.3772893772893773,0.0,0.0,-1.75,0.8266178266178266,0.0,-2.5347985347985347,0.0,0.0,-1.875,-0.8778998778998779,0.0,-2.8632478632478637,0.0,0.0,-2.03125,-1.5592185592185592,0.0,-3.1037851037851034,0.0,0.0,-2.03125,-1.9548229548229548,0.5177045177045178,-2.807081807081807,0.0,0.0,-1.9375,-2.7045177045177047,0.0,-2.7753357753357752,-0.5625,0.0,-1.875,-2.3272283272283274,0.0,-2.5433455433455427,-0.53125,0.0,-1.71875,-1.953601953601953,-0.5616605616605617,-2.4652014652014653,-0.625,0.0,-1.5625,-2.6227106227106227,-0.5555555555555556,-2.357753357753358,-0.84375,0.0,-1.40625,-2.8864468864468864,0.0,-1.9023199023199024,-0.9375,0.0,-1.25,-3.335775335775337,0.0,-1.5616605616605617,-1.03125,0.0,-1.03125,-3.764346764346764,0.0,-1.2918192918192921,-1.1875,0.0,-0.75,-3.847374847374848,0.0,0.0,-1.3125,0.0,0.0,-4.087912087912088,0.0,0.0,-1.34375,0.0,0.0,-3.847374847374848,0.0,0.5421245421245421,-1.21875,0.0,0.0,-3.648351648351648,-0.9169719169719168,0.0,-1.0,0.0,0.0,-3.483516483516484,-1.387057387057387,0.0,-0.90625,0.0,0.6875,-3.2564102564102564,-1.5470085470085468,0.0,-0.8125,0.0,0.84375,-2.7045177045177047,-1.68986568986569,0.6105006105006106,-0.78125,0.0,1.03125,-1.4444444444444444,-2.288156288156288,1.0146520146520146,-0.90625,0.0,1.15625,-1.6947496947496947,-1.884004884004884,1.5018315018315018,-0.875,0.0,1.21875,-1.984126984126984,-1.7912087912087913,1.6324786324786325,-0.59375,0.0,1.3125,-0.9536019536019535,-2.7350427350427347,1.2454212454212454,0.0,0.0,1.34375,0.0,-3.2283272283272284,0.9548229548229548,0.0,0.0,1.34375,0.0,-3.455433455433456,0.6532356532356532,0.0,0.0,1.34375,0.0,-2.862026862026862,0.8302808302808303,0.0,0.0,1.34375,0.0,-2.3174603174603177,1.4676434676434675,0.0,0.0,1.3125,2.2014652014652016,-3.1526251526251525,1.105006105006105,0.0,0.0,1.28125,1.8730158730158732,-2.533577533577533,0.57997557997558,0.0,0.0,1.1875,1.4822954822954824,-1.8510378510378511,0.0,0.0,0.0,1.125,2.274725274725274,-1.5152625152625152,0.0,0.0,0.0,1.03125,2.6910866910866917,-1.1465201465201464,0.8485958485958486,0.0,0.0,0.9375,2.8693528693528694,-1.1086691086691087,0.7753357753357754,0.0,0.0,0.8125,3.2246642246642248,-1.4236874236874235,0.0,0.0,0.0,0.65625,2.9291819291819285,-1.1697191697191698,0.0,0.0,0.0,0.53125,2.716727716727717,-0.8705738705738706,0.0,0.0,0.0,0.0,,,,,,,,,,,,,,,,,,,,,,,,,,,,,,,,,,,,,,,,,,,,,,,,,,,,,,,rotateRight
accX,0.0,0.0,0.0,0.0,0.0,0.0,0.0,0.0,0.0,0.0,0.0,0.0,0.0,0.0,0.0,0.0,0.0,0.0,0.0,0.0,0.0,0.0,0.0,0.0,-0.57997557997558,0.0,0.0,0.0,0.0,0.0,-0.6520146520146519,0.0,0.0,0.0,0.0,0.0,-1.094017094017094,0.0,-0.6862026862026862,0.0,0.0,0.0,-1.0818070818070815,0.0,0.0,0.0,0.0,0.0,-1.3003663003663004,0.0,0.0,0.0,0.0,0.0,-1.5274725274725274,0.0,0.0,0.0,0.0,0.0,-1.794871794871795,-0.6092796092796092,0.0,0.0,0.0,0.0,-1.7545787545787546,-0.9902319902319904,-0.6593406593406593,0.0,0.0,0.625,-1.474969474969475,-1.4224664224664223,-0.6568986568986569,0.0,0.0,0.71875,-1.7533577533577531,-1.1404151404151404,0.0,0.0,0.0,0.8125,-1.9206349206349207,-1.1282051282051282,0.0,0.0,0.0,0.875,-1.431013431013431,-1.5702075702075702,0.0,0.0,0.0,0.9375,-0.9865689865689866,-2.23931623931624,0.0,0.0,0.0,1.03125,-0.5592185592185592,-2.9328449328449326,0.0,0.0,0.0,1.03125,-0.6813186813186813,-2.326007326007326,0.8021978021978022,0.0,0.0,1.0,0.0,-2.0097680097680097,1.7838827838827842,0.0,0.0,1.0,1.8327228327228329,-2.6385836385836385,1.8131868131868127,0.0,0.0,1.0,2.8131868131868134,-3.0769230769230766,1.5006105006105006,0.0,0.0,0.9375,3.1575091575091574,-2.58974358974359,1.4517704517704515,0.0,-0.71875,0.78125,3.681318681318681,-2.2527472527472527,1.5677655677655675,0.0,-0.65625,0.625,4.27960927960928,-2.1098901098901104,1.4761904761904765,0.53125,-0.53125,0.0,4.743589743589744,-2.1062271062271063,1.105006105006105,0.75,0.0,0.0,5.00976800976801,-1.9658119658119655,0.8974358974358975,0.6875,-0.5625,0.0,4.327228327228327,-1.061050061050061,0.568986568986569,0.78125,-0.59375,0.0,3.6239316239316235,0.0,0.0,0.9375,0.0,0.0,3.925518925518925,0.0,0.0,1.0,0.0,-0.53125,4.410256410256411,-0.536019536019536,-0.5677655677655677,0.78125,0.0,-0.625,4.557997557997559,0.0,0.0,0.53125,0.0,-0.84375,4.991452991452992,0.0,0.0,0.0,0.0,-0.96875,6.128205128205129,-0.6947496947496947,-1.3614163614163617,0.0,-0.84375,-1.1875,3.9194139194139193,0.0,-1.5885225885225884,0.0,-0.71875,-1.5625,1.2295482295482296,1.709401709401709,-0.7936507936507936,0.0,0.0,-1.9375,1.4896214896214897,1.894993894993895,-0.8046398046398047,0.71875,0.8125,-1.96875,1.2673992673992671,1.4774114774114775,-1.8376068376068373,0.53125,0.0,-2.0,0.0,2.0366300366300365,-2.5103785103785103,0.0,0.0,-2.0,-0.8302808302808303,1.7216117216117215,-2.664224664224664,0.0,0.875,-2.03125,-0.5628815628815629,1.750915750915751,-2.3369963369963367,0.0,0.9375,-2.03125,0.0,0.7655677655677655,-1.9010989010989008,0.0,0.0,-1.96875,-1.188034188034188,1.9584859584859584,-1.0793650793650793,0.0,0.0,-2.0,-2.208791208791209,1.94017094017094,-1.9633699633699635,0.0,0.0,-1.78125,-0.9389499389499391,0.5457875457875457,-2.6092796092796093,0.0,0.0,-1.625,-1.9584859584859584,0.0,-2.56043956043956,-0.625,0.0,-1.53125,-2.641025641025641,0.8095238095238095,-2.1086691086691087,0.0,0.0,-1.34375,-0.8901098901098901,-0.5445665445665445,-1.5970695970695972,-0.875,0.0,-1.125,-2.440781440781441,0.0,-0.9218559218559218,-1.0625,-0.5625,-0.9375,-4.920634920634921,0.8424908424908425,-1.1697191697191698,0.0,0.0,-0.65625,-3.8962148962148966,-0.8608058608058609,-1.6141636141636142,0.0,0.0,0.0,-1.982905982905983,-2.2783882783882783,-1.4114774114774116,-1.21875,0.0,0.0,-3.9511599511599513,-0.5726495726495726,0.0,-0.84375,0.0,0.0,-2.7118437118437115,-3.148962148962149,-0.5042735042735043,0.0,0.0,0.625,-2.139194139194139,-3.3345543345543347,0.0,-0.96875,0.0,0.78125,-3.388278388278388,-2.1062271062271063,0.9816849816849816,-1.125,0.0,0.8125,-2.565323565323565,-2.8058608058608057,0.9474969474969476,-0.75,0.0,0.9375,-1.5763125763125765,-3.7802197802197797,0.7411477411477412,-0.5625,0.0,1.0625,-1.7887667887667889,-3.4664224664224665,0.5763125763125763,-0.625,0.0,1.09375,-2.1941391941391943,-2.7020757020757022,0.6361416361416361,0.0,0.0,1.09375,-1.5995115995115996,-2.7399267399267404,0.6666666666666666,0.0,0.0,1.25,-0.6923076923076923,-3.304029304029304,0.5592185592185592,0.0,0.0,1.375,0.0,-4.087912087912088,0.0,0.0,0.0,1.4375,0.5274725274725275,-4.037851037851038,0.0,0.0,0.0,1.4375,0.9401709401709402,-3.2466422466422467,0.0,0.0,0.0,1.3125,1.3418803418803418,-2.9450549450549453,0.8192918192918193,0.0,0.0,1.21875,1.9902319902319905,-3.031746031746032,0.8559218559218559,0.0,0.0,1.1875,1.844932844932845,-2.092796092796093,1.2368742368742371,0.0,0.0,1.09375,1.5091575091575091,-1.352869352869353,1.2942612942612943,0.0,0.0,1.03125,2.3650793650793656,-1.5494505494505495,1.028083028083028,0.0,0.0,0.90625,2.6996336996337003,-1.2442002442002442,1.1135531135531136,0.0,0.0,0.84375,2.3846153846153846,-0.7484737484737485,0.9328449328449328,0.0,0.0,0.71875,2.625152625152625,-0.7667887667887668,0.7045177045177046,0.0,0.0,0.625,2.52014652014652,-0.7948717948717948,0.5262515262515263,0.0,0.0,0.0,2.0134310134310134,-0.8791208791208791,0.0,0.0,0.0,0.0,1.7374847374847375,-0.7728937728937729,0.0,0.0,0.0,0.0,1.5836385836385836,-0.7936507936507936,-0.7619047619047619,0.0,0.0,0.0,,,,,,,,,,,,,,,,,,,rotateRight
accX,0.0,0.0,0.0,0.0,0.0,0.0,0.0,0.0,0.0,0.0,0.0,0.0,0.0,0.0,0.0,0.0,0.0,0.0,0.0,0.0,-0.5592185592185592,0.0,0.0,0.0,0.0,-0.6459096459096461,-0.9536019536019535,0.0,0.0,0.0,0.0,0.0,-0.9010989010989012,-0.71875,0.0,0.0,-0.9658119658119658,0.8693528693528694,0.0,-0.84375,0.0,0.0,-1.4871794871794872,0.7374847374847375,0.0,0.0,0.0,0.0,-1.7008547008547008,0.0,-0.9829059829059827,0.0,0.0,0.0,-1.6678876678876684,0.0,-0.9877899877899878,0.0,0.0,0.0,-1.7765567765567765,0.0,-0.6886446886446886,0.0,0.0,0.53125,-1.8424908424908424,0.0,0.0,0.0,0.0,0.65625,-1.7472527472527473,-0.9365079365079364,0.0,0.0,0.0,0.71875,-1.4505494505494505,-1.4481074481074483,0.0,0.0,0.0,0.78125,-1.1306471306471306,-1.6678876678876684,0.0,0.0,0.0,0.8125,-0.6141636141636142,-1.7045177045177045,0.6556776556776557,0.0,0.0,0.8125,0.0,-1.8131868131868127,1.1501831501831499,0.0,0.0,0.8125,0.0,-2.23931623931624,1.2820512820512822,0.0,0.0,0.78125,0.9023199023199024,-2.452991452991453,1.3833943833943834,0.0,0.0,0.6875,1.4737484737484738,-2.501831501831502,1.4358974358974361,0.0,0.0,0.5625,1.709401709401709,-2.249084249084249,1.4578754578754578,0.0,0.0,0.0,2.4273504273504267,-2.4004884004884004,1.2124542124542124,0.0,0.0,0.0,3.0830280830280827,-2.7643467643467643,0.5836385836385837,0.0,-0.53125,0.0,3.357753357753358,-2.173382173382173,0.7460317460317459,0.0,0.0,0.0,3.477411477411477,-1.5445665445665446,0.9047619047619048,0.5625,0.0,0.0,3.5347985347985347,-0.6568986568986569,1.2075702075702075,0.71875,0.0,0.0,3.371184371184371,0.0,1.1343101343101345,0.8125,0.0,0.0,2.590964590964591,0.6275946275946276,0.9401709401709402,0.9375,0.0,-0.59375,2.3724053724053724,1.105006105006105,0.8070818070818071,1.09375,0.0,-0.65625,2.9816849816849818,1.0134310134310134,0.518925518925519,1.1875,0.0,-0.71875,3.2124542124542126,1.0256410256410255,0.0,1.125,0.0,-0.90625,2.829059829059829,1.4578754578754578,0.0,1.15625,0.0,-1.0625,3.42002442002442,1.2722832722832722,-0.8290598290598291,1.125,0.0,-1.28125,3.347985347985348,0.6202686202686203,-1.6043956043956045,1.09375,0.0,-1.53125,2.411477411477412,0.0,-2.7496947496947497,0.96875,0.0,-1.75,1.6031746031746033,0.63003663003663,-3.0976800976800978,0.5625,0.0,-1.875,0.6556776556776557,1.4737484737484738,-2.7875457875457874,0.0,0.0,-1.96875,0.0,1.5384615384615383,-2.829059829059829,0.0,0.0,-1.96875,-0.5592185592185592,1.2612942612942613,-3.0830280830280827,0.0,0.0,-1.96875,-1.0561660561660562,1.0415140415140416,-3.05006105006105,0.0,0.0,-1.90625,-1.8376068376068373,1.4017094017094016,-2.7118437118437115,0.0,0.0,-1.84375,-2.207570207570208,1.6593406593406594,-2.1965811965811968,0.0,0.0,-1.6875,-1.9267399267399268,0.7142857142857143,-2.318681318681319,-0.53125,0.0,-1.46875,-1.5604395604395604,-1.123321123321123,-3.263736263736264,-0.65625,0.0,-1.28125,-2.1257631257631258,-1.380952380952381,-3.6459096459096467,-0.96875,0.0,-1.1875,-2.028083028083028,-1.0793650793650793,-2.8705738705738706,-1.125,0.0,-1.03125,-2.189255189255189,-0.8901098901098901,-1.8656898656898655,-1.15625,0.0,-0.90625,-3.311355311355311,0.0,0.0,-1.21875,0.0,-0.75,-3.4297924297924296,0.0,0.0,-1.1875,0.0,0.0,-3.7985347985347984,-0.9401709401709402,0.0,-1.09375,0.0,0.0,-4.04029304029304,-1.5836385836385836,0.0,-1.0625,0.0,0.0,-3.7240537240537237,-1.4102564102564104,0.0,-0.9375,0.0,0.0,-3.31013431013431,-1.133089133089133,1.1367521367521367,-0.78125,0.0,0.0,-2.8742368742368742,-1.4090354090354091,1.271062271062271,-0.875,0.0,0.5625,-3.3846153846153846,-1.9413919413919412,0.0,-0.96875,-0.65625,0.75,-3.2466422466422467,-2.217338217338217,0.0,-0.84375,0.0,0.9375,-2.641025641025641,-2.0134310134310134,0.7948717948717948,-0.625,0.0,1.1875,-1.4529914529914532,-2.3846153846153846,1.2503052503052503,-0.59375,0.0,1.28125,-1.1709401709401708,-3.0927960927960934,0.6105006105006106,-0.53125,-0.59375,1.40625,-1.6349206349206349,-3.267399267399268,0.0,0.0,0.0,1.53125,-1.2808302808302807,-3.1770451770451764,0.6483516483516484,0.0,0.0,1.53125,0.0,-3.637362637362637,0.9242979242979243,0.0,0.0,1.59375,1.0671550671550671,-4.207570207570208,0.7289377289377289,0.0,0.0,1.53125,0.6654456654456654,-3.611721611721612,0.0,0.0,0.0,1.5,0.5091575091575091,-2.9438339438339436,0.6593406593406593,0.0,0.0,1.46875,1.8070818070818069,-3.1330891330891335,1.188034188034188,0.0,0.0,1.40625,1.7973137973137974,-2.6984126984126986,1.5238095238095235,0.0,0.0,1.28125,1.192918192918193,-1.85958485958486,1.4395604395604396,0.0,0.0,1.21875,2.23931623931624,-2.1794871794871797,0.9133089133089132,0.0,0.0,1.125,2.56043956043956,-1.9609279609279608,0.6227106227106227,0.0,0.0,0.96875,2.4945054945054945,-1.4603174603174602,0.0,0.0,0.0,0.8125,2.5995115995116,-1.0549450549450552,0.0,0.0,0.0,0.65625,2.6336996336996337,-0.6788766788766789,0.0,0.0,0.0,0.59375,2.547008547008547,-0.7155067155067155,0.0,0.0,0.0,0.0,2.2576312576312576,-0.7203907203907204,0.0,0.0,0.0,0.0,,,,,,,,,,,,,,,,,,,,,,,,,,,,,,,rotateRight
accX,0.0,0.0,0.0,0.0,0.0,0.0,0.0,0.0,0.0,0.0,0.0,0.0,0.0,0.0,0.0,0.0,0.0,0.0,0.0,0.0,-0.5738705738705738,0.0,0.0,0.0,0.0,0.0,0.0,-0.5625,0.0,0.0,-0.6483516483516484,0.0,0.0,0.0,0.0,0.0,-0.7423687423687424,0.0,0.0,0.0,0.0,0.0,-1.1538461538461535,0.0,-0.9218559218559218,0.0,0.0,0.0,-1.5152625152625152,0.0,-0.8571428571428571,0.0,0.0,0.0,-1.8253968253968251,0.0,-0.7240537240537241,0.0,0.0,0.0,-1.844932844932845,0.0,-0.6019536019536019,0.0,0.0,0.59375,-1.2857142857142858,-0.9438339438339438,-0.5995115995115995,0.0,0.0,0.6875,-1.0732600732600732,-1.3443223443223444,-0.5567765567765568,0.0,0.0,0.71875,-1.0537240537240538,-1.5433455433455434,0.0,0.0,0.0,0.78125,-0.9536019536019535,-1.3846153846153846,0.0,0.0,0.0,0.8125,-0.7411477411477412,-1.6996336996336996,0.0,0.0,0.0,0.8125,-0.6190476190476191,-1.8119658119658117,0.5274725274725275,0.0,0.0,0.84375,0.0,-1.7484737484737485,0.7753357753357754,0.0,0.0,0.875,0.0,-1.94017094017094,0.9255189255189256,0.0,0.0,0.875,0.0,-2.083028083028083,0.8302808302808303,0.0,0.0,0.90625,0.7716727716727717,-2.128205128205128,0.7741147741147741,0.0,0.0,0.90625,1.4261294261294262,-2.267399267399268,0.5885225885225885,0.0,0.0,0.84375,2.053724053724053,-2.173382173382173,0.5995115995115995,0.0,0.0,0.75,2.7252747252747254,-2.3015873015873014,0.57997557997558,0.0,0.0,0.65625,2.95970695970696,-1.8693528693528692,1.0415140415140416,0.0,0.0,0.53125,3.0903540903540905,-1.5213675213675213,1.3443223443223444,0.0,0.0,0.0,3.3760683760683765,-1.2319902319902318,1.684981684981685,0.0,0.0,0.0,3.807081807081807,-0.8290598290598291,2.045177045177045,0.0,0.0,0.0,4.0,0.0,2.1404151404151404,0.59375,-0.71875,0.0,3.051282051282051,0.0,1.8669108669108667,0.9375,-0.65625,0.0,2.437118437118437,0.0,1.249084249084249,1.21875,0.0,0.0,2.6971916971916974,0.0,0.5433455433455433,1.25,0.0,-0.625,2.9914529914529915,0.0,0.0,1.1875,0.0,-0.6875,2.947496947496948,0.6019536019536019,-0.6605616605616605,1.1875,0.0,-0.8125,2.5665445665445668,0.8608058608058609,-0.9438339438339438,1.125,0.0,-0.96875,2.669108669108669,0.8888888888888888,-1.3089133089133091,1.03125,0.0,-1.0,3.330891330891331,0.8217338217338217,-1.5775335775335777,0.84375,0.0,-1.125,3.42002442002442,0.8913308913308914,-1.4212454212454213,0.6875,0.0,-1.375,2.7948717948717947,1.3968253968253967,-1.0708180708180708,0.78125,0.625,-1.59375,2.2905982905982905,1.619047619047619,-1.6227106227106227,0.875,0.71875,-1.71875,2.039072039072039,1.10989010989011,-2.496947496947497,0.59375,0.0,-1.78125,0.8205128205128205,0.7057387057387058,-3.2881562881562885,0.0,0.0,-1.875,-0.6263736263736264,0.8266178266178266,-3.388278388278388,0.0,0.0,-1.9375,-1.7216117216117215,1.3040293040293038,-3.2063492063492065,0.0,0.0,-1.875,-1.4517704517704515,0.8547008547008547,-3.231990231990232,0.0,0.0,-1.6875,-1.5494505494505495,0.6080586080586079,-2.694749694749695,-0.71875,0.0,-1.5625,-1.5836385836385836,0.0,-1.9914529914529917,-0.6875,0.0,-1.53125,0.0,-0.7374847374847375,-1.4212454212454213,-0.71875,0.0,-1.53125,-0.8412698412698413,-0.6007326007326007,-0.778998778998779,-0.8125,0.0,-1.53125,-2.051282051282051,0.0,-0.5506715506715507,-0.71875,0.0,-1.40625,-2.0976800976800978,-1.192918192918193,-1.431013431013431,-0.71875,0.0,-1.25,-2.330891330891331,-2.1587301587301586,-2.4163614163614158,-0.875,0.0,-1.125,-3.3162393162393164,-1.8742368742368745,-2.7643467643467643,-0.90625,0.0,-0.8125,-3.5726495726495733,0.0,-1.2185592185592184,-0.9375,0.0,0.0,-3.831501831501832,0.0,0.0,-1.21875,0.0,0.0,-4.781440781440781,0.0,0.0,-1.28125,-0.59375,0.0,-4.847374847374847,-1.0158730158730158,0.0,-1.0625,0.0,0.0,-3.5409035409035408,-1.7887667887667889,0.0,-0.875,0.0,0.65625,-3.404151404151404,-1.4432234432234432,0.5738705738705738,-0.8125,0.0,0.84375,-2.388278388278388,-2.351648351648352,0.5958485958485958,-0.78125,0.0,1.0625,-2.5042735042735043,-2.67032967032967,0.0,-0.875,-0.5625,1.21875,-2.5531135531135534,-2.4444444444444446,0.7094017094017094,-0.78125,0.0,1.3125,-2.249084249084249,-2.4285714285714284,1.2747252747252746,-0.5625,0.0,1.3125,-0.9658119658119658,-3.1404151404151404,1.3797313797313795,0.0,0.0,1.40625,-0.8009768009768009,-3.4542124542124544,1.1843711843711844,-0.65625,0.0,1.53125,-1.1782661782661783,-3.291819291819292,1.122100122100122,-0.5625,0.0,1.625,0.0,-3.9023199023199022,1.0488400488400489,0.0,0.0,1.625,0.7411477411477412,-4.01953601953602,0.8302808302808303,0.0,0.0,1.46875,1.238095238095238,-3.748473748473749,0.757020757020757,0.0,0.0,1.46875,1.0647130647130647,-3.0305250305250304,0.5848595848595849,0.0,0.0,1.4375,1.6996336996336996,-2.783882783882784,0.0,0.0,0.0,1.375,2.3699633699633704,-2.2625152625152625,0.6752136752136753,0.0,0.0,1.21875,2.462759462759463,-1.6581196581196582,0.7741147741147741,0.0,0.0,1.09375,2.7142857142857144,-1.15995115995116,0.9401709401709402,0.0,0.0,1.0,2.8937728937728937,-1.120879120879121,0.9694749694749696,0.0,0.0,0.875,2.752136752136752,-1.0891330891330893,0.6532356532356532,0.0,0.0,0.71875,2.8974358974358974,-0.9413919413919414,0.6495726495726496,0.0,0.0,0.59375,2.7753357753357752,-0.6947496947496947,0.5787545787545788,0.0,0.0,0.0,2.2344322344322345,0.0,0.0,0.0,0.0,0.0,1.5921855921855919,0.0,0.0,0.0,0.0,0.0,rotateRight
accX,0.0,0.0,0.0,0.0,0.0,0.0,0.0,0.0,0.0,0.0,0.0,0.0,0.0,0.0,0.0,0.0,0.0,0.0,-0.5201465201465202,0.0,-0.6068376068376068,0.0,0.0,0.0,-0.8229548229548229,0.0,0.0,0.0,0.0,0.0,0.0,0.5702075702075702,0.0,0.0,0.0,0.0,-0.7350427350427351,0.0,0.0,0.0,0.0,0.0,-0.9169719169719168,-0.8070818070818071,-1.051282051282051,0.0,0.0,0.0,-1.1294261294261294,-0.5409035409035409,-1.1172161172161172,-0.59375,0.0,0.0,-0.9352869352869352,0.0,-0.7521367521367521,-0.5625,0.0,0.53125,-0.9658119658119658,-0.5494505494505495,-0.7582417582417582,0.0,0.0,0.5625,-1.3028083028083028,-0.78998778998779,-0.9035409035409036,0.0,0.0,0.625,-1.4481074481074483,-0.7557997557997558,-0.6959706959706959,0.0,0.0,0.65625,-1.3577533577533578,-0.9010989010989012,0.0,0.0,0.0,0.71875,-1.0879120879120878,-1.043956043956044,0.0,0.0,0.0,0.78125,-1.0488400488400489,-1.2307692307692308,0.0,0.0,0.0,0.84375,-0.7753357753357754,-1.4395604395604396,0.6324786324786325,0.0,0.0,0.875,-0.5274725274725275,-1.8168498168498168,0.7533577533577533,0.0,0.0,0.90625,0.0,-2.05006105006105,1.1575091575091576,0.0,0.0,0.90625,0.0,-2.101343101343101,1.6300366300366298,0.0,0.0,0.90625,1.0146520146520146,-2.283272283272283,1.8974358974358971,0.0,0.0,0.8125,2.023199023199023,-2.199023199023199,2.496947496947497,0.0,0.0,0.6875,2.503052503052503,-2.0061050061050056,2.498168498168498,0.0,0.0,0.5625,3.053724053724053,-2.192918192918193,1.9010989010989008,0.0,-0.59375,0.0,2.8986568986568986,-1.7960927960927962,1.3601953601953602,0.53125,-0.59375,0.0,3.1709401709401708,-1.3284493284493284,1.0793650793650793,0.6875,0.0,0.0,3.144078144078144,-1.1184371184371185,0.0,0.78125,0.0,0.0,3.371184371184371,-0.5848595848595849,0.0,0.71875,0.0,0.0,3.782661782661783,0.0,0.0,0.6875,-0.53125,0.0,4.16971916971917,0.0,0.0,0.84375,0.0,0.0,6.5115995115995124,-1.1123321123321124,0.0,0.875,-0.5625,0.0,7.614163614163614,-1.6923076923076923,-0.5372405372405372,0.0,-1.4375,-0.78125,4.568986568986569,0.6214896214896215,-0.6752136752136753,0.0,-1.625,-1.28125,3.873015873015873,1.6495726495726497,-0.9731379731379732,0.84375,0.0,-1.6875,4.294261294261294,0.0,-2.31013431013431,1.3125,0.0,-2.0,2.3076923076923075,0.5934065934065934,-3.3846153846153846,1.0,-0.5625,-2.25,1.1147741147741148,0.9194139194139194,-3.4297924297924296,0.6875,0.0,-2.375,0.0,1.462759462759463,-2.9438339438339436,0.0,0.0,-2.5,0.0,1.1587301587301588,-2.8998778998779,0.0,0.0,-2.40625,-1.6007326007326008,1.9792429792429795,-2.6312576312576312,0.0,0.0,-2.3125,-2.133089133089133,2.266178266178266,-2.495726495726496,0.0,0.0,-2.1875,-1.2576312576312576,1.4932844932844933,-2.1245421245421245,0.0,0.75,-2.0,-1.3479853479853479,1.0744810744810744,-1.3150183150183148,0.0,0.0,-1.84375,-3.3431013431013437,1.5592185592185592,-1.661782661782662,0.0,0.0,-1.6875,-2.5457875457875456,0.0,-2.4822954822954824,0.0,0.0,-1.3125,-1.9792429792429795,0.0,-2.6959706959706957,-0.75,0.0,-1.15625,-2.655677655677656,0.0,-2.1355311355311355,-0.84375,0.0,-0.96875,-3.2869352869352872,0.0,-1.2075702075702075,-0.875,0.5625,-0.6875,-3.1391941391941387,0.0,-0.5836385836385837,-1.0,0.0,0.0,-2.9890109890109886,-0.6764346764346765,-0.7533577533577533,-1.1875,0.0,0.0,-3.4517704517704515,-1.4261294261294262,-1.6654456654456655,-1.125,0.0,0.0,-3.1428571428571432,-2.3076923076923075,-2.0329670329670333,-1.09375,0.0,0.0,-2.727716727716728,-2.04029304029304,-1.1391941391941391,-1.0625,0.0,0.0,-2.976800976800977,-1.6947496947496947,0.0,-1.03125,0.0,0.53125,-2.9987789987789983,-1.42002442002442,0.5262515262515263,-1.125,0.0,0.65625,-1.7997557997557998,-2.376068376068376,0.7692307692307693,-1.15625,0.0,0.84375,-2.611721611721612,-2.915750915750916,0.0,-1.09375,0.0,0.9375,-2.7045177045177047,-2.404151404151404,0.0,-0.75,0.0,1.0625,-1.2539682539682542,-2.6153846153846154,0.8693528693528694,-0.65625,0.0,1.125,-0.7875457875457875,-2.537240537240537,1.4432234432234432,-0.75,0.0,1.25,-1.1367521367521367,-2.358974358974359,1.8119658119658117,-0.65625,0.0,1.28125,-1.0915750915750917,-2.8608058608058613,1.4078144078144081,0.0,0.0,1.34375,0.0,-3.5482295482295485,1.2698412698412698,0.0,0.0,1.34375,0.5567765567765568,-3.221001221001221,1.3699633699633702,0.0,0.0,1.28125,0.0,-2.838827838827839,1.0903540903540905,0.0,0.0,1.28125,0.9963369963369964,-3.2014652014652016,0.7106227106227107,0.0,0.0,1.28125,1.6263736263736264,-3.245421245421245,0.6923076923076923,0.0,0.0,1.25,1.0952380952380951,-2.542124542124542,0.7362637362637363,0.0,0.0,1.1875,1.896214896214896,-2.4603174603174605,0.8571428571428571,0.0,0.0,1.09375,2.374847374847375,-1.9242979242979243,1.0842490842490842,0.0,0.0,0.9375,2.7045177045177047,-0.5848595848595849,1.31990231990232,0.0,0.0,0.84375,2.7924297924297923,-0.7130647130647131,0.9597069597069596,0.0,0.0,0.71875,3.1941391941391943,-0.9304029304029304,0.6959706959706959,0.0,0.0,0.5625,2.8925518925518925,-0.6800976800976801,0.0,0.0,0.0,0.0,1.989010989010989,0.0,0.0,0.0,0.0,0.0,,,,,,,,,,,,,,,,,,,,,,,,,,,,,,,rotateRight
accX,0.0,0.0,0.0,0.0,0.0,0.0,-0.6092796092796092,0.0,0.0,0.0,0.0,0.0,-0.6605616605616605,0.0,-0.6813186813186813,0.0,0.0,0.0,-0.5201465201465202,0.0,-0.6385836385836385,0.0,0.0,0.0,-0.971916971916972,0.7179487179487181,0.0,0.0,0.0,0.0,-1.0708180708180708,0.0,0.0,0.0,0.0,0.0,-1.0781440781440779,-0.8681318681318682,-1.2026862026862026,0.0,0.0,0.0,-1.3296703296703296,-0.9145299145299144,-1.3968253968253967,0.0,0.0,0.0,-1.0805860805860803,-0.8253968253968254,-0.9768009768009768,-0.59375,0.0,0.0,-1.194139194139194,-0.5909645909645911,0.0,-0.625,0.0,0.0,-1.5384615384615383,-0.6495726495726496,0.0,0.0,0.0,0.59375,-1.2466422466422469,-1.1465201465201464,0.0,0.0,0.0,0.65625,-0.9914529914529916,-1.31013431013431,0.0,0.0,0.0,0.71875,-0.8583638583638583,-1.4529914529914532,0.0,0.0,0.0,0.75,-0.8192918192918193,-1.7326007326007329,0.5103785103785103,0.0,0.0,0.8125,-0.5115995115995116,-2.070818070818071,0.5897435897435898,0.0,0.0,0.84375,0.0,-2.0476190476190474,0.7692307692307693,0.0,0.0,0.84375,-0.503052503052503,-2.0207570207570207,1.0195360195360197,0.0,0.0,0.84375,0.0,-2.070818070818071,1.2405372405372406,0.0,0.0,0.875,0.518925518925519,-2.105006105006105,1.608058608058608,0.0,0.0,0.90625,0.7277167277167277,-1.8669108669108667,1.702075702075702,0.0,0.0,0.84375,1.1245421245421243,-1.652014652014652,1.8913308913308915,0.0,0.0,0.78125,1.7985347985347986,-1.728937728937729,1.746031746031746,0.0,0.0,0.71875,2.3565323565323566,-1.5506715506715507,1.5897435897435896,0.0,0.0,0.625,2.8852258852258847,-1.5409035409035412,1.0293040293040292,0.5625,0.0,0.0,3.6263736263736255,-1.525030525030525,0.6117216117216118,0.6875,0.0,0.0,3.8571428571428568,-0.971916971916972,0.6434676434676435,0.75,0.0,0.0,4.188034188034188,-0.9682539682539684,0.0,0.6875,-0.5625,0.0,4.25030525030525,-0.7997557997557998,0.0,0.6875,-0.625,0.0,4.15995115995116,-0.894993894993895,0.0,0.75,-0.59375,0.0,3.783882783882784,-0.6727716727716728,-0.9633699633699634,0.71875,-0.53125,-0.59375,3.126984126984127,0.0,-1.15995115995116,0.78125,0.0,-0.75,2.3272283272283274,0.0,-1.7765567765567765,0.71875,0.0,-1.0,2.361416361416361,0.0,-2.5262515262515257,0.53125,0.0,-1.0,1.9194139194139197,0.8852258852258852,-2.2954822954822958,0.0,0.0,-1.0,1.8571428571428568,1.3418803418803418,-1.619047619047619,0.59375,0.625,-1.0625,1.735042735042735,1.9474969474969477,-1.175824175824176,0.71875,0.6875,-1.15625,2.249084249084249,1.5030525030525033,-1.144078144078144,0.53125,0.53125,-1.1875,2.288156288156288,1.6288156288156288,0.0,0.0,0.53125,-1.34375,1.6605616605616609,1.982905982905983,0.0,0.65625,0.96875,-1.5625,1.709401709401709,2.0024420024420024,0.0,0.8125,1.0,-1.6875,0.8925518925518926,1.7985347985347986,-0.6935286935286935,0.0,0.6875,-1.8125,-0.6715506715506715,1.5189255189255189,-1.1404151404151404,0.0,0.0,-1.84375,-0.6593406593406593,0.9023199023199024,-1.879120879120879,0.0,0.0,-1.6875,0.0,0.0,-1.9096459096459095,0.0,0.0,-1.625,-0.6459096459096461,0.0,-1.9096459096459095,0.0,0.0,-1.71875,0.0,0.0,-1.6654456654456655,0.0,0.0,-1.75,-0.818070818070818,0.0,-1.3748473748473748,0.0,0.0,-1.6875,-2.7973137973137967,0.0,-1.5958485958485962,-0.625,0.0,-1.59375,-3.031746031746032,-0.7728937728937729,-2.288156288156288,-0.5625,0.0,-1.4375,-2.3650793650793656,-0.9377289377289376,-1.9633699633699635,-0.78125,0.0,-1.15625,-4.339438339438339,0.0,-1.7753357753357752,-0.875,-0.75,-1.0,-4.881562881562882,-0.7826617826617827,-2.0244200244200243,-0.6875,0.0,-0.8125,-3.8009768009768017,-1.7191697191697193,-2.3028083028083026,-0.8125,0.0,0.0,-4.065934065934067,-1.297924297924298,-1.8266178266178263,-1.25,0.0,0.0,-4.8437118437118425,0.0,-0.7326007326007326,-1.28125,-0.5625,0.0,-4.448107448107448,-1.3675213675213675,-0.8376068376068376,-0.875,0.0,0.0,-1.4896214896214897,-3.5726495726495733,-1.5335775335775337,-0.84375,0.0,0.6875,-2.6373626373626373,-2.3174603174603177,-0.9010989010989012,-1.3125,-0.84375,0.78125,-3.887667887667888,-1.3028083028083028,0.0,-1.03125,0.0,0.9375,-0.818070818070818,-3.695970695970696,-0.6190476190476191,-0.65625,0.0,1.15625,-0.5103785103785103,-4.1037851037851025,-0.6727716727716728,-1.03125,-0.6875,1.1875,-2.913308913308913,-2.244200244200244,0.0,-1.0625,-0.59375,1.21875,-1.5702075702075702,-2.768009768009768,0.5616605616605617,-0.59375,0.0,1.375,0.6752136752136753,-4.014652014652015,0.7582417582417582,-0.65625,0.0,1.46875,0.0,-3.3675213675213675,1.3504273504273503,-0.8125,-0.59375,1.375,-0.8913308913308914,-3.1123321123321124,1.192918192918193,0.0,0.0,1.3125,0.0,-3.207570207570208,1.52014652014652,0.0,0.0,1.3125,0.9438339438339438,-3.4163614163614158,1.68986568986569,0.0,0.0,1.28125,0.0,-2.68009768009768,1.9633699633699635,0.0,0.0,1.3125,1.5286935286935286,-3.0268620268620268,1.7741147741147743,0.0,0.0,1.21875,2.7106227106227108,-2.879120879120879,1.3882783882783882,0.0,0.0,1.125,2.235653235653236,-1.9426129426129424,1.1611721611721613,0.0,0.0,1.0,2.8937728937728937,-1.7765567765567765,1.0097680097680095,0.0,0.0,0.875,3.6495726495726495,-1.612942612942613,1.0427350427350428,0.0,0.0,0.71875,3.0476190476190474,-0.7582417582417582,0.7826617826617827,0.0,0.0,0.5625,2.418803418803418,0.0,0.0,0.0,0.0,0.0,2.2014652014652016,0.0,0.0,0.0,0.0,0.0,1.7814407814407816,-0.5653235653235653,0.0,0.0,0.0,0.0,,,,,,,rotateRight
accX,0.0,0.0,0.0,0.0,0.0,0.0,0.0,0.0,0.0,0.0,0.0,0.0,0.0,0.0,-0.5445665445665445,0.0,0.0,0.0,0.0,0.0,0.0,0.0,0.0,0.0,0.0,0.0,0.0,0.0,0.0,0.0,0.0,0.0,0.0,0.0,0.0,0.0,0.0,0.0,0.0,0.0,0.0,0.0,-0.6129426129426129,0.0,-0.6275946275946276,0.0,0.0,0.0,-1.0586080586080586,0.0,-0.6813186813186813,0.0,0.0,0.0,-1.1428571428571428,0.0,-0.5604395604395604,0.0,0.0,0.0,-1.2832722832722834,0.0,-0.7032967032967034,0.0,0.0,0.0,-1.6446886446886446,-0.8498168498168498,-1.1538461538461535,0.0,0.0,0.0,-1.8998778998779,-0.9035409035409036,-1.1562881562881564,-0.53125,0.0,0.0,-1.9084249084249083,-0.6153846153846154,-0.6898656898656899,0.0,0.0,0.625,-1.5787545787545787,-0.9108669108669109,0.0,0.0,0.0,0.75,-1.0293040293040292,-1.4114774114774116,0.0,0.0,0.0,0.8125,-0.518925518925519,-1.8522588522588523,0.7130647130647131,0.0,0.0,0.8125,-0.6605616605616605,-1.5567765567765568,1.1257631257631258,0.0,0.0,0.8125,0.0,-1.8656898656898655,1.3943833943833943,0.0,0.0,0.84375,0.0,-2.2820512820512815,1.3797313797313795,0.0,0.0,0.84375,0.9194139194139194,-2.275946275946276,1.3956043956043955,0.0,0.0,0.75,1.326007326007326,-2.0024420024420024,1.5775335775335777,0.0,0.0,0.65625,2.095238095238096,-2.094017094017094,1.661782661782662,0.0,0.0,0.59375,2.2967032967032965,-2.053724053724053,1.4908424908424909,0.0,0.0,0.0,2.42002442002442,-2.0976800976800978,1.2612942612942613,0.0,-0.5625,0.0,2.4444444444444446,-1.7216117216117215,1.1562881562881564,0.0,0.0,0.0,2.376068376068376,-1.192918192918193,1.0695970695970696,0.625,0.0,0.0,2.496947496947497,-1.1514041514041513,0.7350427350427351,0.84375,0.0,0.0,2.335775335775336,-0.8131868131868132,0.5811965811965812,0.84375,0.0,0.0,2.561660561660561,0.0,0.0,0.75,0.0,0.0,3.1391941391941387,0.0,0.0,0.8125,0.0,0.0,3.1575091575091574,0.0,0.0,0.90625,0.0,0.0,4.020757020757022,0.0,0.0,0.84375,0.0,-0.53125,4.532356532356532,0.536019536019536,0.6263736263736264,0.84375,0.0,-0.78125,3.826617826617827,0.5152625152625152,0.0,0.96875,0.0,-1.09375,3.122100122100122,0.5201465201465202,-1.3272283272283272,0.96875,0.0,-1.25,3.122100122100122,0.0,-1.7557997557997558,0.90625,0.0,-1.40625,2.9328449328449326,0.0,-2.166056166056166,0.75,0.0,-1.65625,2.1074481074481075,0.5641025641025641,-3.11965811965812,0.625,0.0,-1.84375,1.1062271062271063,0.9218559218559218,-3.7374847374847375,0.0,0.0,-1.90625,0.0,1.3699633699633702,-3.4346764346764345,0.0,0.0,-1.9375,-0.9365079365079364,1.586080586080586,-3.086691086691087,0.0,0.0,-1.90625,0.0,0.7606837606837606,-2.595848595848596,0.0,0.0,-1.90625,-0.6227106227106227,0.6568986568986569,-2.263736263736264,0.0,0.0,-1.90625,-2.1819291819291817,1.7081807081807079,-1.4945054945054943,0.0,0.0,-1.8125,-2.409035409035409,1.6105006105006106,-1.2222222222222223,0.0,0.0,-1.59375,-2.5079365079365084,0.7216117216117216,-1.434676434676435,-0.625,0.0,-1.53125,-2.3284493284493286,0.0,-1.4395604395604396,-0.78125,0.0,-1.3125,-2.294261294261294,0.0,-1.5946275946275947,-0.71875,0.0,-1.125,-2.705738705738706,0.0,-1.7704517704517704,-0.8125,0.0,-1.0,-3.5006105006105006,0.0,-1.2796092796092795,-0.84375,0.0,-0.78125,-3.501831501831502,0.0,-0.7887667887667887,-0.84375,0.0,0.0,-3.4603174603174605,-0.5885225885225885,-0.873015873015873,-0.78125,0.0,0.0,-3.3663003663003663,-1.967032967032967,-1.8925518925518925,-0.9375,0.0,0.0,-3.5543345543345537,-1.7118437118437118,-1.746031746031746,-1.0625,0.0,0.0,-3.1282051282051277,-1.4945054945054943,-0.8705738705738706,-1.03125,0.0,0.0,-2.9511599511599518,-1.3711843711843712,0.0,-0.84375,0.0,0.53125,-3.0842490842490844,-2.0695970695970702,0.0,-0.8125,0.0,0.6875,-2.6849816849816848,-2.7008547008547015,0.0,-1.0,0.0,0.90625,-3.4322344322344316,-2.2722832722832718,0.6227106227106227,-0.875,0.0,1.0625,-3.4053724053724053,-2.267399267399268,0.9658119658119658,-0.6875,0.0,1.1875,-1.9572649572649568,-3.578754578754579,0.6642246642246642,-0.8125,0.0,1.34375,-1.6544566544566544,-3.7704517704517695,0.6275946275946276,-0.84375,-0.59375,1.4375,-1.9804639804639803,-3.9645909645909647,0.0,-0.53125,0.0,1.4375,-1.391941391941392,-4.08058608058608,0.7387057387057387,0.0,0.0,1.4375,0.0,-3.6361416361416365,1.4505494505494505,0.0,0.0,1.46875,0.8778998778998779,-3.903540903540904,1.21978021978022,0.0,0.0,1.46875,0.6703296703296703,-3.382173382173382,1.2954822954822955,0.0,0.0,1.34375,1.1587301587301588,-2.467643467643468,1.4029304029304028,0.0,0.0,1.3125,2.495726495726496,-2.4517704517704515,0.9914529914529916,0.0,0.0,1.25,2.7326007326007327,-2.1404151404151404,0.0,0.0,0.0,1.125,2.8998778998779,-1.8754578754578757,0.0,0.0,0.0,1.0,3.52014652014652,-1.4322344322344325,0.0,0.0,0.0,0.84375,3.565323565323565,-0.7521367521367521,0.0,0.0,0.0,0.6875,3.0048840048840044,0.0,0.0,0.0,0.0,0.53125,2.7106227106227108,-0.5836385836385837,0.0,0.0,0.0,0.0,2.415140415140415,-0.6288156288156288,0.0,0.0,0.0,0.0,,,,,,,,,,,,,,,,,,,rotateRight
accX,0.0,0.0,0.0,0.0,0.0,0.0,0.0,0.0,-0.5115995115995116,0.0,0.0,0.0,-0.5848595848595849,0.0,-0.5079365079365079,0.0,0.0,0.0,-0.5152625152625152,0.0,-0.5262515262515263,0.0,0.0,0.0,0.0,0.0,0.0,0.0,0.0,0.0,-0.8986568986568987,0.0,-0.5103785103785103,0.0,0.0,0.0,-0.9963369963369964,0.0,-0.5958485958485958,0.0,0.0,0.0,-1.1477411477411477,0.0,0.0,0.0,0.0,0.0,-1.332112332112332,0.0,0.0,0.0,0.0,0.0,-1.264957264957265,-0.5518925518925519,0.0,0.0,0.0,0.0,-1.2857142857142858,-0.7997557997557998,0.0,0.0,0.0,0.59375,-1.2002442002442002,-1.144078144078144,0.0,0.0,0.0,0.6875,-0.6654456654456654,-1.673992673992674,0.0,0.0,0.0,0.71875,-0.5128205128205128,-1.4615384615384617,0.0,0.0,0.0,0.75,0.0,-1.3748473748473748,0.8473748473748474,0.0,0.0,0.71875,0.0,-1.6862026862026862,0.8803418803418803,0.0,0.0,0.71875,0.0,-1.943833943833944,0.8156288156288156,0.0,0.0,0.71875,0.8693528693528694,-2.324786324786325,0.7484737484737485,0.0,0.0,0.65625,1.5482295482295485,-2.324786324786325,0.8681318681318682,0.0,0.0,0.59375,1.4322344322344325,-1.9194139194139197,1.0964590964590966,0.0,0.0,0.0,1.6105006105006106,-1.7130647130647132,1.3052503052503053,0.0,0.0,0.0,2.075702075702076,-1.3833943833943834,1.757020757020757,0.0,0.0,0.0,2.358974358974359,-1.3333333333333333,1.8534798534798536,0.0,0.0,0.0,2.6849816849816848,-1.4151404151404152,1.623931623931624,0.53125,0.0,0.0,2.6446886446886446,-1.0231990231990231,1.568986568986569,0.59375,0.0,0.0,3.6434676434676434,-0.7655677655677655,1.7557997557997558,0.78125,0.0,0.0,3.347985347985348,0.0,1.5641025641025639,0.9375,0.0,0.0,3.305250305250305,0.0,0.7094017094017094,1.03125,0.0,0.0,3.628815628815629,0.0,0.0,0.90625,0.0,-0.59375,3.7130647130647128,0.0,-0.7289377289377289,0.875,0.0,-0.78125,3.2612942612942613,0.6996336996336996,-1.1391941391941391,1.0,0.0,-0.9375,2.791208791208791,1.115995115995116,-1.84004884004884,1.125,0.0,-1.09375,2.9365079365079363,1.2967032967032968,-1.9426129426129424,1.0,0.0,-1.28125,2.645909645909646,1.57997557997558,-1.8473748473748477,0.90625,0.0,-1.40625,2.1355311355311355,1.5531135531135531,-2.3076923076923075,0.78125,0.0,-1.53125,1.2124542124542124,1.537240537240537,-3.272283272283272,0.5625,0.0,-1.5625,1.0537240537240538,1.1282051282051282,-3.6507936507936503,0.0,0.0,-1.625,0.0,1.4554334554334554,-3.067155067155068,0.0,0.0,-1.8125,0.0,1.277167277167277,-3.0329670329670333,0.0,0.0,-1.875,-0.9267399267399268,1.2344322344322345,-2.7570207570207566,0.0,0.0,-1.84375,-1.7753357753357752,1.031746031746032,-2.5042735042735043,0.0,0.0,-1.78125,-1.4468864468864469,0.9328449328449328,-1.6153846153846154,-0.71875,0.0,-1.65625,-1.8620268620268619,0.5201465201465202,-1.4175824175824177,-0.8125,0.0,-1.5625,-3.021978021978022,0.7081807081807082,-1.6996336996336996,-0.75,0.0,-1.4375,-2.6984126984126986,0.0,-2.1086691086691087,-0.6875,0.0,-1.21875,-2.68986568986569,0.0,-2.0,-1.0,0.0,-1.0,-4.332112332112332,0.9474969474969476,-0.9511599511599512,-1.28125,0.0,-0.6875,-4.052503052503051,0.8937728937728938,0.0,-1.09375,0.0,0.0,-3.1807081807081805,0.0,0.0,-0.96875,0.0,0.0,-3.8302808302808304,-1.4126984126984128,0.0,-0.9375,0.0,0.0,-4.084249084249084,-2.021978021978022,-0.5421245421245421,-0.875,0.0,0.0,-3.4932844932844933,-2.1941391941391943,0.0,-0.8125,0.0,0.53125,-2.873015873015873,-2.1782661782661785,0.7594627594627594,-0.875,0.0,0.6875,-3.6849816849816848,-2.0061050061050056,1.072039072039072,-0.90625,0.0,0.875,-4.0818070818070815,-2.793650793650793,0.0,-0.625,0.0,1.03125,-3.4383394383394386,-3.3650793650793656,0.0,-0.53125,0.0,1.125,-2.2210012210012207,-3.3748473748473753,0.0,-0.53125,0.0,1.28125,-1.2258852258852257,-3.3626373626373627,0.7411477411477412,-0.625,0.0,1.375,-1.1855921855921856,-3.15995115995116,0.9743589743589745,-0.6875,0.0,1.34375,-1.0158730158730158,-3.211233211233212,0.9633699633699634,-0.59375,0.0,1.34375,0.0,-3.433455433455433,1.0525030525030523,0.0,0.0,1.4375,0.6764346764346765,-4.125763125763126,0.6849816849816851,0.0,0.0,1.4375,0.6288156288156288,-3.492063492063492,0.757020757020757,0.0,0.0,1.375,1.2075702075702075,-2.9841269841269837,1.1245421245421243,0.0,0.0,1.28125,2.208791208791209,-2.6605616605616604,1.4432234432234432,0.0,0.0,1.21875,2.323565323565324,-2.421245421245421,1.1843711843711844,0.0,0.0,1.0625,2.641025641025641,-2.1294261294261294,0.6898656898656899,0.0,0.0,0.90625,2.8754578754578755,-1.6446886446886446,0.0,0.0,0.0,0.75,2.5531135531135534,-0.7521367521367521,0.5873015873015873,0.0,0.0,0.65625,2.393162393162393,-0.5384615384615384,0.0,0.0,0.0,0.5625,2.8217338217338215,-0.8156288156288156,0.0,0.0,0.0,0.0,2.555555555555556,-0.7155067155067155,0.0,0.0,0.0,0.0,2.0573870573870567,-0.6422466422466423,0.0,0.0,0.0,0.0,1.4395604395604396,0.0,0.0,0.0,0.0,0.0,,,,,,,,,,,,,,,,,,,,,,,,,,,,,,,,,,,,,rotateRight
accX,0.0,0.0,0.0,0.0,0.0,0.0,0.0,0.0,0.0,0.0,0.0,0.0,0.0,0.0,0.0,0.0,0.0,0.0,-0.7032967032967034,0.0,0.0,0.0,0.0,0.0,-0.6605616605616605,0.0,0.0,0.0,0.0,0.0,-0.7118437118437119,0.0,0.0,0.0,0.0,0.0,-0.9914529914529916,0.0,-0.6422466422466423,0.0,0.0,0.0,-1.249084249084249,0.0,-0.6507936507936508,0.0,0.0,0.0,-1.4212454212454213,0.0,-0.6581196581196581,0.0,0.0,0.0,-1.3137973137973138,0.0,-0.5677655677655677,0.0,0.0,0.0,-1.5384615384615383,-0.5238095238095238,-0.518925518925519,0.0,0.0,0.5625,-1.413919413919414,-0.7020757020757019,0.0,0.0,0.0,0.65625,-1.1001221001221002,-0.9157509157509156,0.0,0.0,0.0,0.6875,-0.6227106227106227,-1.3516483516483515,0.0,0.0,0.0,0.71875,-0.5201465201465202,-1.6043956043956045,0.0,0.0,0.0,0.71875,0.0,-1.7863247863247864,0.5763125763125763,0.0,0.0,0.71875,0.0,-1.8705738705738704,0.7655677655677655,0.0,0.0,0.6875,0.0,-1.9145299145299144,0.8754578754578755,0.0,0.0,0.6875,0.5555555555555556,-1.9816849816849815,1.2112332112332111,0.0,0.0,0.65625,1.2136752136752136,-2.1367521367521367,1.4786324786324787,0.0,0.0,0.65625,2.0061050061050056,-2.3455433455433456,1.352869352869353,0.0,0.0,0.5625,2.505494505494505,-2.1672771672771667,1.0793650793650793,0.0,0.0,0.0,2.5970695970695967,-1.8656898656898655,0.6080586080586079,0.0,0.0,0.0,2.7667887667887667,-2.0525030525030523,0.0,0.0,0.0,0.0,2.727716727716728,-1.5531135531135531,0.0,0.0,0.0,0.0,2.7484737484737485,-0.9133089133089132,0.0,0.0,0.0,0.0,3.4517704517704515,-0.5152625152625152,0.0,0.59375,0.0,0.0,3.3675213675213675,0.0,0.0,0.625,0.0,0.0,3.0195360195360195,0.0,0.0,0.59375,0.0,-0.625,3.0378510378510377,0.6837606837606838,0.5775335775335775,0.5625,0.0,-0.84375,3.931623931623931,0.6275946275946276,0.5506715506715507,0.625,0.0,-1.0,4.003663003663004,0.0,0.0,0.5625,0.0,-1.15625,2.614163614163614,1.1807081807081807,0.0,0.625,0.0,-1.40625,1.9108669108669107,1.5433455433455434,-1.1489621489621489,0.78125,0.0,-1.65625,2.1111111111111107,1.3186813186813189,-1.5482295482295485,0.6875,0.0,-1.65625,1.8229548229548234,1.2967032967032968,-1.4383394383394383,0.0,0.0,-1.71875,1.1416361416361416,1.6092796092796091,-1.442002442002442,0.0,0.0,-1.78125,0.9413919413919414,1.3772893772893773,-1.4102564102564104,0.0,0.0,-1.875,0.8266178266178266,0.8791208791208791,-1.0818070818070815,0.0,0.0,-1.9375,0.0,0.978021978021978,-1.3186813186813189,0.0,0.0,-1.9375,-1.1831501831501832,1.3125763125763126,-1.8327228327228329,0.0,0.0,-1.84375,-1.5970695970695972,1.376068376068376,-1.984126984126984,0.0,0.0,-1.78125,-2.1135531135531136,0.9645909645909646,-2.094017094017094,0.0,0.0,-1.65625,-2.490842490842491,0.6446886446886447,-2.0427350427350426,0.0,0.0,-1.5,-2.1819291819291817,0.0,-1.431013431013431,0.0,0.0,-1.28125,-1.8351648351648349,0.0,-1.1965811965811963,0.0,0.0,-1.09375,-2.407814407814408,0.0,-1.7765567765567765,-0.5625,0.0,-0.96875,-3.333333333333333,0.0,-2.1086691086691087,-0.71875,0.0,-0.71875,-3.3406593406593412,-0.503052503052503,-1.8266178266178263,-0.875,0.0,0.0,-3.1538461538461537,0.0,-1.0647130647130647,-0.9375,0.0,0.0,-3.3492063492063493,-0.6556776556776557,-0.7472527472527473,-0.875,0.0,0.0,-3.258852258852259,-1.5067155067155067,-1.0879120879120878,-0.90625,0.0,0.0,-3.831501831501832,-1.6532356532356531,-1.2124542124542124,-0.96875,0.0,0.0,-3.1868131868131866,-1.7826617826617828,-0.7814407814407814,-1.0,0.0,0.65625,-2.78998778998779,-1.7606837606837606,0.0,-1.0,0.0,0.84375,-3.087912087912088,-1.78998778998779,0.0,-0.84375,0.0,1.03125,-2.7704517704517704,-2.5360195360195363,0.0,-0.75,0.0,1.15625,-2.010989010989011,-3.4615384615384617,0.0,-0.84375,0.0,1.21875,-1.7594627594627594,-2.8156288156288163,0.0,-0.71875,0.0,1.28125,-1.1794871794871795,-2.628815628815629,0.5457875457875457,-0.53125,0.0,1.34375,-0.9413919413919414,-3.2185592185592187,0.0,0.0,0.0,1.375,-1.010989010989011,-3.1770451770451764,0.0,0.0,0.0,1.375,0.0,-3.2124542124542126,0.9621489621489622,0.0,0.0,1.40625,0.967032967032967,-3.9328449328449326,0.0,0.0,0.0,1.34375,0.9157509157509156,-3.4407814407814414,0.5531135531135531,0.0,0.0,1.21875,1.1343101343101345,-2.5982905982905984,1.2319902319902318,0.0,0.0,1.15625,1.4969474969474967,-2.1819291819291817,1.5995115995115996,0.0,0.0,1.125,1.7203907203907205,-2.1062271062271063,1.2222222222222223,0.0,0.0,1.03125,2.1684981684981683,-2.288156288156288,0.5409035409035409,0.0,0.0,0.90625,2.241758241758242,-1.5787545787545787,0.5433455433455433,0.0,0.0,0.8125,2.354090354090354,-1.043956043956044,0.6227106227106227,0.0,0.0,0.71875,2.23931623931624,-0.5824175824175825,0.5433455433455433,0.0,0.0,0.625,2.0244200244200243,-0.5274725274725275,0.0,0.0,0.0,0.53125,1.8669108669108667,-0.5677655677655677,0.0,0.0,0.0,0.0,1.612942612942613,-0.6190476190476191,0.0,0.0,0.0,0.0,1.47985347985348,-0.6129426129426129,-0.5616605616605617,0.0,0.0,0.0,1.10989010989011,-0.6703296703296703,-0.9267399267399268,0.0,0.0,0.0,,,,,,,,,,,,,,,,,,,rotateRight
accX,0.0,0.0,0.0,0.0,0.0,0.0,0.0,0.0,0.0,0.0,0.0,0.0,-0.5457875457875457,0.0,0.0,0.0,0.0,0.0,-0.5604395604395604,0.0,-0.6691086691086691,0.0,0.0,0.0,-0.6776556776556777,0.0,-0.5384615384615384,0.0,0.0,0.0,-0.8852258852258852,0.0,0.0,0.0,0.0,0.0,-1.1025641025641026,0.0,-0.9059829059829059,0.0,0.0,0.0,-1.3296703296703296,0.0,-0.7973137973137974,0.0,0.0,0.0,-1.4945054945054943,-0.5006105006105006,-0.8083028083028083,0.0,0.0,0.0,-1.5787545787545787,0.0,-0.8009768009768009,0.0,0.0,0.0,-1.6422466422466422,-0.818070818070818,-0.7521367521367521,0.0,0.0,0.5625,-1.5152625152625152,-1.1196581196581197,-0.6349206349206349,0.0,0.0,0.65625,-1.3894993894993894,-1.3455433455433456,0.0,0.0,0.0,0.71875,-0.9755799755799756,-1.7741147741147743,0.0,0.0,0.0,0.75,-0.6678876678876678,-2.0525030525030523,0.0,0.0,0.0,0.78125,0.0,-2.0695970695970702,0.0,0.0,0.0,0.75,0.0,-2.247863247863248,0.0,0.0,0.0,0.75,0.5641025641025641,-2.343101343101343,0.0,0.0,0.0,0.75,1.1904761904761905,-2.627594627594628,0.0,0.0,0.0,0.65625,1.42002442002442,-2.2234432234432235,0.8461538461538461,0.0,0.0,0.53125,2.068376068376069,-1.934065934065934,1.31990231990232,0.0,0.0,0.0,2.7020757020757022,-2.0854700854700856,1.431013431013431,0.0,0.0,0.0,2.681318681318681,-1.706959706959707,1.3272283272283272,0.0,0.0,0.0,2.601953601953602,-0.8400488400488401,1.4481074481074483,0.0,0.0,0.0,3.4346764346764345,-0.7936507936507936,1.4700854700854702,0.0,0.0,0.0,3.4810744810744816,0.0,1.531135531135531,0.0,-0.53125,0.0,2.7570207570207566,0.0,1.0891330891330893,0.625,-0.59375,0.0,3.435897435897436,-0.5018315018315018,0.0,0.0,-0.71875,0.0,5.065934065934067,-1.3333333333333333,0.0,0.0,-1.4375,-0.5625,3.075702075702076,0.6080586080586079,0.8131868131868132,0.0,-1.0,-0.8125,2.324786324786325,1.9706959706959708,1.3015873015873016,1.0625,0.0,-1.0,3.9975579975579976,1.188034188034188,0.7106227106227107,1.34375,0.0,-1.125,3.4432234432234434,0.851037851037851,-0.7960927960927959,1.15625,0.0,-1.25,2.36019536019536,1.3089133089133091,-1.3516483516483515,1.03125,0.0,-1.34375,2.8644688644688645,1.2258852258852257,-0.5457875457875457,0.9375,0.0,-1.59375,2.2808302808302807,1.3943833943833943,0.0,0.96875,0.5625,-1.875,0.6129426129426129,1.702075702075702,-1.2991452991452992,0.9375,0.59375,-1.96875,0.0,1.2319902319902318,-2.283272283272283,0.65625,0.0,-1.9375,-0.8803418803418803,1.4847374847374848,-2.208791208791209,0.0,0.0,-1.84375,-1.1746031746031746,1.4297924297924298,-2.1245421245421245,0.0,0.71875,-1.71875,-0.6617826617826618,0.9731379731379732,-1.7057387057387057,0.0,0.6875,-1.6875,-0.6947496947496947,0.6141636141636142,-1.5457875457875458,0.0,0.0,-1.6875,-1.78021978021978,1.2564102564102564,-1.4957264957264955,0.0,0.53125,-1.6875,-2.017094017094017,1.6581196581196582,-2.2954822954822958,0.0,0.0,-1.46875,-2.340659340659341,0.5921855921855922,-2.542124542124542,-0.65625,0.0,-1.1875,-3.3870573870573866,0.0,-2.9059829059829063,-0.875,0.0,-0.9375,-2.2185592185592187,-0.9230769230769232,-3.0976800976800978,-0.78125,0.0,-0.71875,-1.6422466422466422,-1.4676434676434675,-2.9267399267399266,-0.90625,0.0,-0.53125,-2.6312576312576312,-0.5567765567765568,-1.9023199023199024,-1.1875,0.0,0.0,-3.235653235653236,0.0,-1.1062271062271063,-1.1875,0.0,0.0,-2.7777777777777777,-1.3833943833943834,-1.3956043956043955,-1.03125,0.0,0.0,-2.3382173382173383,-2.11965811965812,-1.6043956043956045,-1.0,0.0,0.0,-2.565323565323565,-2.05006105006105,-1.0097680097680095,-1.0,0.0,0.0,-2.9963369963369964,-1.4810744810744811,0.0,-0.9375,0.0,0.53125,-2.655677655677656,-1.78021978021978,0.9059829059829059,-0.8125,0.5625,0.625,-1.5958485958485962,-3.1672771672771667,0.6312576312576312,-0.96875,0.0,0.84375,-2.2857142857142856,-3.291819291819292,0.0,-1.15625,-0.59375,1.0,-2.418803418803418,-3.0366300366300365,0.0,-0.9375,0.0,1.0625,-1.0622710622710625,-3.324786324786325,0.0,-0.6875,0.0,1.03125,0.0,-3.3760683760683765,0.663003663003663,-0.71875,0.0,1.09375,-1.0854700854700854,-2.244200244200244,1.352869352869353,-0.84375,0.0,1.15625,-1.380952380952381,-1.989010989010989,1.6825396825396826,-0.625,0.0,1.21875,-0.6996336996336996,-2.559218559218559,1.5763125763125765,0.0,0.0,1.25,0.0,-2.8974358974358974,1.2857142857142858,0.0,0.0,1.25,0.0,-3.0085470085470085,1.0390720390720392,0.0,0.0,1.25,1.0818070818070815,-3.2905982905982905,0.6446886446886447,0.0,0.0,1.21875,0.9792429792429792,-2.5433455433455427,0.6910866910866911,0.0,0.0,1.15625,0.9792429792429792,-1.9804639804639803,0.6898656898656899,0.0,0.0,1.09375,1.6227106227106227,-1.7130647130647132,0.8021978021978022,0.0,0.0,1.03125,1.9169719169719168,-1.7301587301587302,0.5018315018315018,0.0,0.0,0.9375,2.1074481074481075,-1.3174603174603174,0.0,0.0,0.0,0.875,2.673992673992674,-1.0793650793650793,0.0,0.0,0.0,0.78125,3.05006105006105,-0.9401709401709402,0.5347985347985348,0.0,0.0,0.59375,2.7240537240537246,-0.6398046398046398,0.514041514041514,0.0,0.0,0.0,2.249084249084249,0.0,0.0,0.0,0.0,0.0,1.468864468864469,0.0,0.0,0.0,0.0,0.0,0.8754578754578755,0.0,0.0,0.0,0.0,0.0,,,,,,,,,,,,,,,,,,,rotateRight
accX,0.0,0.0,0.0,0.0,0.0,0.0,0.0,0.0,0.0,0.0,0.0,0.0,0.0,0.0,0.0,0.0,0.0,0.0,0.0,0.0,0.0,0.0,0.0,0.0,0.0,0.0,0.0,0.0,0.0,0.0,-0.8498168498168498,0.0,-0.7582417582417582,0.0,0.0,0.0,-1.2551892551892552,0.0,-1.0952380952380951,0.0,0.0,0.0,-1.4041514041514038,0.0,-0.8449328449328449,-0.65625,0.0,0.0,-2.1782661782661785,0.0,-0.6275946275946276,-0.53125,0.0,0.0,-2.6349206349206344,0.0,-0.7350427350427351,0.0,0.0,0.5625,-1.9926739926739927,-0.6788766788766789,-0.8742368742368742,-0.53125,0.0,0.6875,-1.465201465201465,-1.1538461538461535,-0.7582417582417582,-0.625,0.0,0.78125,-1.7203907203907205,-1.2466422466422469,-0.6520146520146519,-0.5625,0.0,0.84375,-1.2527472527472527,-1.6654456654456655,0.0,0.0,0.0,0.875,-0.5225885225885226,-2.062271062271062,0.0,-0.5625,0.0,0.875,-0.6593406593406593,-1.9792429792429795,0.0,-0.5625,0.0,0.875,0.0,-1.9181929181929185,0.5299145299145299,0.0,0.0,0.875,0.0,-2.067155067155068,0.7960927960927959,0.0,0.0,0.875,0.7008547008547008,-2.481074481074481,0.9645909645909646,0.0,0.0,0.8125,1.1477411477411477,-2.409035409035409,1.1135531135531136,0.0,0.0,0.71875,1.7448107448107448,-2.1404151404151404,1.3516483516483515,0.0,0.0,0.625,2.6153846153846154,-2.3162393162393164,1.5115995115995116,0.0,-0.53125,0.0,3.189255189255189,-1.943833943833944,1.8864468864468864,0.0,-0.59375,0.0,3.8229548229548236,-1.6752136752136753,2.1257631257631258,0.0,0.0,0.0,4.288156288156288,-1.7851037851037852,1.656898656898657,0.53125,-0.625,0.0,3.877899877899878,-1.0488400488400489,1.1575091575091576,0.65625,-0.6875,0.0,3.7472527472527473,0.0,0.7228327228327228,0.78125,0.0,0.0,3.9645909645909647,0.0,0.63003663003663,0.90625,0.0,-0.625,4.106227106227107,0.0,0.5225885225885226,0.9375,0.0,-0.8125,4.0024420024420015,0.0,0.0,1.0,0.0,-0.9375,3.978021978021978,0.0,-0.557997557997558,1.09375,0.0,-1.125,4.346764346764346,0.0,-0.8827838827838828,1.0,0.0,-1.34375,3.6141636141636138,0.934065934065934,-1.4725274725274726,0.84375,0.0,-1.5625,2.0842490842490844,1.7704517704517704,-2.4945054945054945,0.875,0.0,-1.78125,1.1172161172161172,2.1123321123321124,-2.7777777777777777,0.8125,0.0,-1.78125,0.6166056166056166,2.1746031746031744,-2.4383394383394386,0.65625,0.0,-1.84375,0.5726495726495726,1.647130647130647,-2.3724053724053724,0.0,0.0,-1.875,0.706959706959707,1.290598290598291,-2.330891330891331,0.0,0.0,-1.875,0.0,1.2332112332112333,-2.2869352869352872,0.0,0.5625,-1.96875,-0.6727716727716728,1.3235653235653235,-2.21978021978022,0.0,0.53125,-2.0,-1.7106227106227103,1.5641025641025639,-1.915750915750916,0.0,0.0,-2.03125,-2.33943833943834,1.7362637362637363,-1.4212454212454213,0.0,0.0,-1.875,-3.1807081807081805,1.5152625152625152,-1.7216117216117215,0.0,0.0,-1.65625,-4.12942612942613,1.0122100122100122,-2.5506715506715505,0.0,0.0,-1.40625,-3.9792429792429793,0.0,-2.7252747252747254,0.0,0.0,-1.09375,-3.4505494505494507,0.0,-2.4285714285714284,-0.65625,0.0,-0.84375,-3.9816849816849818,0.5763125763125763,-1.2002442002442002,-0.96875,0.0,0.0,-3.8034188034188032,0.5531135531135531,0.0,-0.90625,0.0,0.0,-3.6361416361416365,-1.1391941391941391,-1.238095238095238,-0.8125,0.0,0.0,-3.8302808302808304,-2.0781440781440783,-2.1098901098901104,-0.96875,0.0,0.0,-3.0146520146520146,-2.0659340659340657,-1.1062271062271063,-1.125,0.0,0.0,-2.8742368742368742,-1.424908424908425,0.0,-1.0625,0.0,0.5625,-3.1355311355311355,-1.962148962148962,0.0,-0.84375,0.0,0.84375,-2.7313797313797314,-3.937728937728938,-1.0598290598290598,-0.90625,0.0,1.0,-2.9059829059829063,-3.632478632478633,-0.9413919413919414,-0.96875,0.0,1.0,-2.868131868131868,-2.571428571428572,0.0,-0.78125,0.0,1.0625,-2.1636141636141635,-2.070818070818071,1.391941391941392,-0.5625,0.0,1.25,-1.6043956043956045,-2.816849816849817,1.3931623931623929,-0.59375,0.0,1.34375,-1.9963369963369964,-3.3943833943833943,0.7155067155067155,-0.625,0.0,1.40625,-1.2161172161172158,-4.0976800976800964,0.0,-0.5625,0.0,1.46875,0.0,-4.242979242979243,0.8363858363858364,-0.59375,0.0,1.40625,0.0,-3.4029304029304033,1.6056166056166057,0.0,0.0,1.40625,0.0,-3.313797313797314,1.1782661782661783,0.0,0.0,1.28125,1.0256410256410255,-3.0842490842490844,0.9084249084249084,0.0,0.0,1.25,1.7423687423687424,-2.9230769230769234,0.9804639804639804,0.0,0.0,1.1875,2.1367521367521367,-2.0891330891330893,1.286935286935287,0.0,0.0,1.0625,2.8998778998779,-1.6984126984126984,1.2026862026862026,0.0,0.0,0.875,2.728937728937729,-1.2747252747252746,0.8412698412698413,0.0,0.0,0.75,2.677655677655677,-1.037851037851038,0.6642246642246642,0.0,0.0,0.625,2.6507936507936507,-0.8840048840048841,0.5848595848595849,0.0,0.0,0.0,2.0525030525030523,0.0,0.0,0.0,0.0,0.0,,,,,,,,,,,,,,,,,,,,,,,,,,,,,,,,,,,,,,,,,,,,,,,,,,,,,,,rotateRight
accX,0.0,0.0,0.0,0.0,0.0,0.0,0.0,0.0,0.0,0.0,0.0,0.0,0.0,0.0,0.0,0.0,0.0,0.0,-0.6727716727716728,0.0,0.0,0.0,0.0,0.0,-0.6825396825396826,0.0,-0.6263736263736264,0.0,0.0,0.0,-0.6166056166056166,0.0,0.0,0.0,0.0,0.0,-0.9829059829059827,0.0,0.0,0.0,0.0,0.0,-1.2039072039072038,0.0,-0.6849816849816851,0.0,0.0,0.0,-1.376068376068376,-0.6507936507936508,-0.8571428571428571,0.0,0.0,0.0,-1.2783882783882785,-0.8681318681318682,-0.8840048840048841,0.0,0.0,0.0,-1.1172161172161172,-0.9304029304029304,-0.6678876678876678,0.0,0.0,0.59375,-0.8388278388278388,-1.3137973137973138,0.0,0.0,0.0,0.65625,0.0,-1.4004884004884004,0.0,0.0,0.0,0.6875,-0.6043956043956044,-1.3284493284493284,0.0,0.0,0.0,0.6875,0.0,-1.6971916971916972,0.0,0.0,0.0,0.6875,0.0,-1.7448107448107448,0.0,0.0,0.0,0.65625,0.0,-1.706959706959707,0.0,0.0,0.0,0.6875,0.7680097680097681,-1.9267399267399268,0.5152625152625152,0.0,0.0,0.65625,1.0268620268620268,-2.0378510378510377,0.5470085470085471,0.0,0.0,0.59375,1.531135531135531,-1.815628815628816,0.8424908424908425,0.0,0.0,0.0,2.2185592185592187,-1.9426129426129424,0.8925518925518926,0.0,0.0,0.0,2.5873015873015874,-1.7826617826617828,0.8351648351648352,0.0,0.0,0.0,2.371184371184371,-1.2148962148962148,0.9450549450549449,0.0,0.0,0.0,2.122100122100122,-0.9194139194139194,1.0451770451770452,0.0,0.0,0.0,3.0061050061050065,-0.9609279609279608,1.3003663003663004,0.0,0.0,0.0,3.4908424908424913,-0.5567765567765568,1.8107448107448108,0.0,0.0,0.0,3.291819291819292,0.0,1.7985347985347986,0.65625,0.0,0.0,3.4065934065934065,0.0,1.6947496947496947,0.90625,0.0,0.0,3.7973137973137967,0.6410256410256411,1.6446886446886446,1.125,0.0,0.0,3.407814407814408,0.778998778998779,1.2271062271062272,1.1875,-0.5625,0.0,3.413919413919414,0.5848595848595849,0.8315018315018315,1.1875,0.0,-0.65625,3.2503052503052503,0.9010989010989012,0.0,1.28125,0.0,-0.84375,2.117216117216117,1.194139194139194,-0.7985347985347986,1.28125,0.0,-0.9375,1.5262515262515262,1.4297924297924298,-1.7887667887667889,1.0625,0.0,-1.0625,1.5421245421245422,1.247863247863248,-2.0085470085470085,0.78125,0.0,-1.25,1.5995115995115996,1.15995115995116,-1.7704517704517704,0.6875,0.0,-1.25,2.23931623931624,0.8925518925518926,-1.474969474969475,0.5625,0.0,-1.40625,1.7704517704517704,1.1868131868131868,-0.8852258852258852,0.59375,0.0,-1.6875,-1.0305250305250304,1.78021978021978,-2.086691086691087,0.625,0.0,-1.75,-1.3308913308913308,1.7228327228327232,-2.737484737484737,0.0,0.0,-1.65625,-1.5067155067155067,1.382173382173382,-2.8473748473748475,0.0,0.0,-1.46875,-1.9426129426129424,1.1514041514041513,-2.655677655677656,0.0,0.0,-1.3125,-2.0573870573870567,0.8522588522588522,-2.7545787545787546,0.0,0.0,-1.28125,-1.5970695970695972,0.0,-3.195360195360196,0.0,0.0,-1.15625,-1.8253968253968251,0.0,-3.155067155067155,-0.6875,0.0,-1.09375,-2.4346764346764345,0.0,-2.1868131868131866,-0.8125,0.0,-0.96875,-2.7326007326007327,0.7411477411477412,-0.9413919413919414,-0.84375,0.0,-0.8125,-3.346764346764347,0.5995115995115995,-0.6605616605616605,-0.90625,0.0,-0.625,-2.8998778998779,0.0,-0.8058608058608059,-0.96875,0.0,0.0,-2.8424908424908426,-0.9853479853479854,-0.8021978021978022,-1.03125,0.0,0.0,-3.6129426129426134,-0.6056166056166056,-0.5274725274725275,-1.0,0.0,0.0,-3.6593406593406588,-0.7496947496947497,0.0,-0.78125,0.0,0.0,-2.7460317460317465,-1.8986568986568984,0.0,-0.75,0.0,0.0,-2.1123321123321124,-2.9975579975579976,0.0,-0.90625,0.0,0.5625,-2.236874236874237,-2.827838827838828,0.0,-1.03125,0.0,0.65625,-2.769230769230769,-2.1880341880341883,0.0,-0.84375,0.0,0.71875,-2.514041514041514,-1.915750915750916,0.9487179487179488,-0.65625,0.0,0.8125,-1.4871794871794872,-2.8437118437118434,1.2136752136752136,-0.625,0.0,1.03125,-0.7277167277167277,-4.227106227106227,0.0,-0.71875,0.0,1.15625,-1.391941391941392,-3.829059829059829,0.0,-0.65625,-0.5625,1.125,-1.3186813186813189,-3.0378510378510377,0.0,0.0,0.0,1.09375,0.0,-2.7496947496947497,1.2442002442002442,0.0,0.0,1.125,0.0,-2.8864468864468864,1.3553113553113554,0.0,0.0,1.21875,0.0,-3.0329670329670333,1.2344322344322345,0.0,0.0,1.1875,0.0,-3.412698412698413,0.0,0.0,0.0,1.1875,1.247863247863248,-3.063492063492064,0.6532356532356532,0.0,0.0,1.125,1.6446886446886446,-2.323565323565324,0.8400488400488401,0.0,0.0,1.0625,2.1111111111111107,-1.7851037851037852,0.7704517704517705,0.0,0.0,0.96875,2.727716727716728,-1.5995115995115996,0.7997557997557998,0.0,0.0,0.84375,2.9706959706959712,-1.1282051282051282,0.8974358974358975,0.0,0.0,0.6875,3.175824175824176,-0.7228327228327228,0.7887667887667887,0.0,0.0,0.53125,2.7387057387057387,-0.6275946275946276,0.0,0.0,0.0,0.0,2.289377289377289,-0.7643467643467643,0.0,0.0,0.0,0.0,2.053724053724053,-0.7057387057387058,-0.5787545787545788,0.0,0.0,0.0,,,,,,,,,,,,,,,,,,,,,,,,,,,,,,,,,,,,,rotateRight
accX,0.0,0.0,0.0,0.0,0.0,0.0,0.0,0.0,0.0,0.0,0.0,0.0,0.0,-0.5750915750915749,-0.5873015873015873,0.0,0.0,0.0,0.0,0.0,0.0,0.0,0.0,0.0,-0.8473748473748474,0.0,0.0,0.0,0.0,0.0,-0.7960927960927959,0.0,-0.7155067155067155,0.0,0.0,0.0,-1.051282051282051,0.0,-0.894993894993895,0.0,0.0,0.0,-1.4835164835164836,0.0,-0.8803418803418803,0.0,0.0,0.0,-1.7960927960927962,0.0,-0.7777777777777778,0.0,0.0,0.0,-1.78998778998779,0.0,-0.6263736263736264,0.0,0.0,0.0,-1.884004884004884,-0.5238095238095238,-0.5628815628815629,0.0,0.0,0.5625,-1.7826617826617828,-1.0598290598290598,-0.6984126984126984,0.0,0.0,0.65625,-1.275946275946276,-1.4713064713064714,0.0,0.0,0.0,0.71875,-1.0781440781440779,-1.424908424908425,0.0,0.0,0.0,0.75,-0.6227106227106227,-1.6288156288156288,0.0,0.0,0.0,0.78125,0.0,-1.8644688644688645,0.5555555555555556,0.0,0.0,0.78125,0.0,-1.7411477411477412,0.9206349206349206,0.0,0.0,0.71875,0.7289377289377289,-2.323565323565324,0.6886446886446886,0.0,0.0,0.6875,1.0525030525030523,-2.1794871794871797,0.8864468864468864,0.0,0.0,0.625,1.4102564102564104,-1.8376068376068373,1.4065934065934067,0.0,0.0,0.5625,1.8119658119658117,-1.6715506715506716,1.8302808302808304,0.0,0.0,0.0,2.131868131868132,-1.8510378510378511,1.6166056166056166,0.0,0.0,0.0,2.371184371184371,-2.012210012210012,1.0964590964590966,0.0,0.0,0.0,2.8461538461538463,-1.8559218559218558,0.8888888888888888,0.0,0.0,0.0,3.2442002442002438,-1.4786324786324787,1.122100122100122,0.0,0.0,0.0,3.216117216117216,-0.9450549450549449,1.166056166056166,0.0,0.0,0.0,3.4737484737484734,-0.6434676434676435,1.1782661782661783,0.59375,0.0,0.0,3.4322344322344316,0.0,1.0903540903540905,0.6875,0.0,0.0,3.282051282051282,0.0,0.5079365079365079,0.8125,0.0,-0.625,3.3724053724053724,0.0,0.0,0.84375,0.0,-0.78125,3.501831501831502,0.7326007326007326,0.0,0.9375,0.0,-0.9375,3.615384615384616,0.7460317460317459,0.0,0.96875,0.0,-1.125,3.1245421245421245,1.2881562881562882,-1.0622710622710625,0.875,0.0,-1.3125,2.7887667887667886,1.6031746031746033,-1.1855921855921856,0.84375,0.0,-1.4375,2.0695970695970702,1.7435897435897436,-1.4078144078144081,0.84375,0.0,-1.59375,1.2258852258852257,2.131868131868132,-2.1587301587301586,0.875,0.0,-1.6875,0.7374847374847375,1.623931623931624,-3.072039072039072,0.75,0.0,-1.75,0.0,1.663003663003663,-3.1123321123321124,0.0,0.0,-1.8125,-1.2002442002442002,2.227106227106227,-2.9706959706959712,0.0,0.0,-1.78125,-1.8363858363858363,2.333333333333333,-3.0244200244200243,0.0,0.625,-1.78125,-1.8119658119658117,2.0744810744810747,-2.5885225885225887,0.0,0.0,-1.5,-2.501831501831502,1.6300366300366298,-2.195360195360196,0.0,0.0,-1.34375,-2.003663003663004,0.8742368742368742,-2.0183150183150182,-0.5625,0.0,-1.125,-1.7582417582417582,0.0,-2.0366300366300365,-0.625,0.0,-1.0,-1.8339438339438336,0.0,-1.9694749694749696,-0.71875,0.0,-0.90625,-2.8656898656898657,0.0,-1.4847374847374848,-0.8125,0.0,-0.75,-3.2600732600732596,0.0,-0.9413919413919414,-0.84375,0.0,-0.53125,-2.948717948717949,-0.8693528693528694,-1.0329670329670328,-0.96875,0.0,0.0,-3.1819291819291817,-1.0036630036630036,-0.9536019536019535,-0.9375,0.0,0.0,-3.8058608058608057,-0.8424908424908425,-0.6568986568986569,-0.875,0.0,0.0,-3.958485958485959,-1.0048840048840049,0.0,-0.875,0.0,0.0,-3.8766788766788767,-1.4590964590964588,0.0,-0.875,0.0,0.5625,-2.9267399267399266,-2.628815628815629,-0.5274725274725275,-0.9375,0.0,0.8125,-2.9023199023199022,-3.0940170940170937,-0.7680097680097681,-0.78125,0.0,0.96875,-2.9316239316239314,-2.9853479853479854,0.0,-0.53125,0.0,0.96875,-2.52014652014652,-2.642246642246642,0.0,-0.5625,0.0,0.9375,-2.0903540903540905,-2.52991452991453,1.021978021978022,-0.53125,0.0,1.125,-0.8376068376068376,-3.3321123321123323,1.0866910866910866,-0.625,0.0,1.21875,-1.2967032967032968,-3.63003663003663,0.5262515262515263,-0.5625,-0.625,1.21875,-1.2417582417582418,-3.678876678876679,0.0,0.0,0.0,1.1875,0.0,-3.4603174603174605,0.7667887667887668,0.0,0.0,1.1875,0.0,-2.655677655677656,1.2893772893772897,0.0,0.0,1.25,0.0,-2.2844932844932844,1.3247863247863247,0.0,0.0,1.28125,1.1562881562881564,-2.7203907203907205,0.8974358974358975,0.0,0.0,1.21875,1.824175824175824,-2.8217338217338215,0.5372405372405372,0.0,0.0,1.0625,2.807081807081807,-2.1184371184371185,0.8888888888888888,0.0,0.0,0.875,2.935286935286935,-1.1623931623931625,0.7203907203907204,0.0,0.0,0.75,2.774114774114774,-1.0341880341880345,0.503052503052503,0.0,0.0,0.625,2.311355311355311,-0.8437118437118437,0.0,0.0,0.0,0.0,,,,,,,,,,,,,,,,,,,,,,,,,,,,,,,,,,,,,,,,,,,,,,,,,,,,,,,,,,,,,,,,,,,rotateRight
accX,0.0,0.0,0.0,0.0,0.0,0.0,0.0,-0.6202686202686203,0.0,0.0,0.0,0.0,0.0,0.0,-0.5152625152625152,0.0,0.0,0.0,0.0,0.0,0.0,0.0,0.0,0.0,0.0,0.0,0.0,0.0,0.0,0.0,0.0,0.0,-0.6703296703296703,0.0,0.0,0.0,-0.5628815628815629,-0.6324786324786325,-1.0793650793650793,0.0,0.0,0.0,-0.7753357753357754,0.0,-1.0769230769230769,0.0,0.0,0.0,-0.6910866910866911,0.0,-0.8400488400488401,0.0,0.0,0.0,-0.5543345543345544,-0.5567765567765568,-0.7008547008547008,0.0,0.0,0.0,0.0,-0.8449328449328449,-0.7680097680097681,0.0,0.0,0.5625,0.0,-0.8192918192918193,0.0,0.0,0.0,0.59375,0.0,-0.8400488400488401,0.0,0.0,0.0,0.625,0.0,-1.0195360195360197,0.0,0.0,0.0,0.65625,0.0,-1.051282051282051,0.0,0.0,0.0,0.65625,0.0,-1.0879120879120878,0.7032967032967034,0.0,0.0,0.6875,0.0,-1.2612942612942613,0.8595848595848596,0.0,0.0,0.65625,1.0195360195360197,-1.6056166056166057,0.978021978021978,0.0,0.0,0.625,0.9951159951159952,-1.565323565323565,0.94993894993895,0.0,0.0,0.59375,1.380952380952381,-1.4102564102564104,1.3711843711843712,0.0,0.0,0.0,1.7533577533577531,-1.2026862026862026,1.6666666666666667,0.0,0.0,0.0,2.075702075702076,-1.2026862026862026,1.735042735042735,0.0,0.0,0.0,2.551892551892552,-1.537240537240537,1.4993894993894994,0.0,0.0,0.0,2.6385836385836385,-1.4578754578754578,1.3223443223443223,0.0,0.0,0.0,2.4761904761904763,-0.9963369963369964,1.2417582417582418,0.0,0.0,0.0,2.7264957264957266,-0.63003663003663,1.3736263736263736,0.59375,0.0,0.0,2.8925518925518925,0.0,0.9633699633699634,0.65625,0.0,0.0,2.6031746031746037,0.0,0.5897435897435898,0.71875,0.0,0.0,2.8021978021978016,0.0,0.6446886446886447,0.84375,0.0,0.0,3.240537240537241,0.0,0.0,0.875,0.0,-0.65625,4.108669108669108,0.0,0.0,0.8125,0.0,-0.8125,4.246642246642247,0.5482295482295483,0.0,0.78125,0.0,-1.0625,3.5470085470085464,1.0268620268620268,0.0,0.875,0.0,-1.34375,2.9743589743589745,1.382173382173382,0.0,1.03125,0.0,-1.5,2.4871794871794872,1.7277167277167278,-1.0329670329670328,1.09375,0.0,-1.625,1.3601953601953602,2.1086691086691087,-2.128205128205128,0.9375,0.0,-1.6875,0.0,2.409035409035409,-2.4615384615384617,0.78125,0.0,-1.75,0.0,2.3821733821733817,-2.7484737484737485,0.75,0.0,-1.75,-0.9096459096459096,2.5494505494505493,-3.5506715506715505,0.5625,0.0,-1.71875,-1.1062271062271063,2.1465201465201464,-3.6825396825396814,0.0,0.0,-1.53125,-1.6923076923076923,2.249084249084249,-3.0048840048840044,0.0,0.0,-1.40625,-1.9572649572649568,1.8205128205128205,-2.8583638583638584,0.0,0.5625,-1.3125,-1.3699633699633702,0.8412698412698413,-3.0561660561660564,0.0,0.5625,-1.21875,-1.5995115995115996,0.5421245421245421,-2.7606837606837606,-0.6875,0.0,-1.0625,-3.727716727716728,0.9694749694749696,-1.6446886446886446,-0.78125,0.0,-0.875,-3.235653235653236,0.0,-1.5115995115995116,-0.90625,0.0,-0.59375,-2.9987789987789983,-0.9047619047619048,-1.794871794871795,-1.03125,0.0,0.0,-3.7423687423687424,-0.9816849816849816,-1.7472527472527473,-1.0625,0.0,0.0,-3.8962148962148966,-0.9975579975579976,-1.2136752136752136,-1.0,0.0,0.0,-3.8669108669108665,-0.912087912087912,-0.5238095238095238,-1.03125,0.0,0.0,-3.6617826617826617,-1.275946275946276,0.0,-1.0625,0.0,0.0,-3.1428571428571432,-2.6263736263736264,0.0,-1.0,0.0,0.65625,-3.025641025641025,-2.9108669108669107,0.0,-1.0,0.0,0.78125,-2.758241758241758,-2.2185592185592187,0.5653235653235653,-0.9375,0.0,0.78125,-2.1636141636141635,-1.982905982905983,1.321123321123321,-0.6875,0.0,0.84375,-1.7887667887667889,-2.547008547008547,1.4029304029304028,-0.59375,0.0,1.0,-1.3162393162393162,-3.3736263736263736,0.5372405372405372,-0.59375,0.0,1.1875,-1.3724053724053724,-3.511599511599512,0.0,-0.53125,0.0,1.21875,-0.7716727716727717,-3.221001221001221,0.0,0.0,0.0,1.21875,-0.5091575091575091,-2.58974358974359,0.9157509157509156,0.0,0.0,1.1875,0.0,-2.5946275946275947,1.1611721611721613,0.0,0.0,1.21875,0.0,-2.3846153846153846,1.1367521367521367,0.0,0.0,1.1875,0.0,-2.389499389499389,1.0329670329670328,0.0,0.0,1.1875,0.8595848595848596,-1.7851037851037852,1.1306471306471306,0.0,0.0,1.0625,1.2539682539682542,-1.2515262515262515,1.1001221001221002,0.0,0.0,0.96875,1.6214896214896215,-0.8962148962148963,1.1465201465201464,0.0,0.0,0.90625,2.064713064713065,-0.8302808302808303,1.2918192918192921,0.0,0.0,0.84375,2.562881562881563,-0.9084249084249084,1.0634920634920637,0.0,0.0,0.75,2.551892551892552,-0.6532356532356532,0.0,0.0,0.0,0.5625,2.11965811965812,0.0,0.0,0.0,0.0,0.0,1.844932844932845,0.0,0.0,0.0,0.0,0.0,1.827838827838828,-0.7948717948717948,-0.5555555555555556,0.0,0.0,0.0,1.462759462759463,-0.6068376068376068,-0.8669108669108669,0.0,0.0,0.0,0.8888888888888888,0.0,-1.2576312576312576,0.0,0.0,0.0,,,,,,,,,,,,,,,,,,,,,,,,,,,,,,,,,,,,,rotateRight
accX,0.0,0.0,0.0,0.0,0.0,0.0,0.0,0.0,0.0,0.0,0.0,0.0,0.0,0.0,-0.5616605616605617,0.0,0.0,0.0,0.0,0.0,-0.5177045177045178,0.0,0.0,0.0,-0.7460317460317459,0.0,0.0,0.0,0.0,0.0,-0.7557997557997558,0.0,0.0,0.0,0.0,0.0,-0.9413919413919414,0.0,-0.8156288156288156,0.0,0.0,0.0,-1.0964590964590966,0.0,-0.9304029304029304,0.0,0.0,0.0,-1.2222222222222223,0.0,-0.978021978021978,0.0,0.0,0.0,-1.3711843711843712,0.0,-0.8095238095238095,0.0,0.0,0.0,-1.5885225885225884,-0.7973137973137974,-0.7496947496947497,0.0,0.0,0.53125,-1.4151404151404152,-1.1465201465201464,-0.6898656898656899,0.0,0.0,0.625,-1.2393162393162394,-1.2527472527472527,0.0,0.0,0.0,0.65625,-1.031746031746032,-1.5824175824175823,0.0,0.0,0.0,0.6875,-0.9829059829059827,-1.5042735042735045,0.0,0.0,0.0,0.75,-0.8766788766788767,-1.5128205128205128,0.5958485958485958,0.0,0.0,0.78125,-0.7301587301587301,-1.6874236874236874,0.8229548229548229,0.0,0.0,0.8125,0.0,-1.8205128205128205,1.0012210012210012,0.0,0.0,0.8125,0.0,-2.145299145299145,0.9645909645909646,0.0,0.0,0.8125,1.3931623931623929,-2.452991452991453,0.7106227106227107,0.0,0.0,0.75,2.0354090354090357,-2.393162393162393,0.8693528693528694,0.0,0.0,0.59375,2.7045177045177047,-2.155067155067155,1.4017094017094016,0.0,0.0,0.0,3.3785103785103785,-2.039072039072039,1.8144078144078144,0.0,0.0,0.0,3.7960927960927964,-2.092796092796093,1.7863247863247864,0.0,-0.5625,0.0,3.7509157509157514,-1.8705738705738704,1.5702075702075702,0.0,-0.625,0.0,3.665445665445665,-1.2796092796092795,1.4590964590964588,0.0,-0.65625,0.0,3.2759462759462763,-0.8400488400488401,1.0122100122100122,0.75,0.0,-0.59375,3.8717948717948723,0.0,0.6263736263736264,1.0,-0.6875,-0.78125,3.5946275946275947,0.0,0.0,1.03125,-0.53125,-0.96875,4.253968253968254,0.0,0.0,1.0,0.0,-1.09375,3.6495726495726495,0.7387057387057387,0.0,1.0,0.0,-1.28125,3.3724053724053724,1.0805860805860803,0.0,1.03125,0.0,-1.4375,2.7326007326007327,1.1746031746031746,-1.7814407814407816,0.875,0.0,-1.59375,1.752136752136752,2.095238095238096,-2.0366300366300365,0.5625,0.0,-1.71875,1.5958485958485962,2.2735042735042734,-1.7411477411477412,0.53125,0.0,-1.71875,1.4371184371184371,1.761904761904762,-1.8986568986568984,0.0,0.0,-1.8125,1.3028083028083028,1.4078144078144081,-1.868131868131868,0.0,0.0,-1.90625,0.0,1.9511599511599511,-2.1245421245421245,0.0,0.53125,-2.0,-1.264957264957265,2.501831501831502,-1.85958485958486,0.0,0.53125,-1.9375,-2.0073260073260077,2.2222222222222223,-1.8547008547008548,0.0,0.0,-1.90625,-2.8302808302808304,2.0366300366300365,-2.0024420024420024,0.0,0.0,-1.71875,-2.9938949938949935,1.4896214896214897,-2.3846153846153846,0.0,0.0,-1.4375,-3.145299145299145,1.3028083028083028,-2.1343101343101343,0.0,0.0,-1.15625,-3.383394383394384,0.0,-2.4444444444444446,0.0,0.0,-0.875,-3.4847374847374852,0.0,-2.52991452991453,-0.71875,0.0,-0.65625,-3.5103785103785103,0.0,-1.4774114774114775,-1.0,0.0,0.0,-3.578754578754579,0.0,-1.051282051282051,-1.03125,0.0,0.0,-3.496947496947497,-1.6312576312576312,-1.5384615384615383,-0.8125,0.0,0.0,-4.012210012210011,-1.9304029304029304,-1.6971916971916972,-0.78125,0.0,0.0,-3.3284493284493286,-1.9023199023199024,-0.7960927960927959,-0.90625,0.0,0.0,-2.5970695970695967,-2.0427350427350426,0.0,-1.09375,0.0,0.65625,-3.3626373626373627,-1.4615384615384617,0.9389499389499391,-1.125,0.0,0.78125,-3.8229548229548236,-1.7643467643467643,0.7032967032967034,-0.8125,0.0,0.9375,-2.826617826617827,-2.6825396825396823,0.0,-0.625,0.0,1.09375,-2.231990231990232,-3.1855921855921854,0.0,-0.5625,0.0,1.21875,-1.5079365079365081,-3.4945054945054945,0.0,-0.59375,0.0,1.3125,-1.362637362637363,-3.667887667887668,0.0,-0.65625,0.0,1.3125,-1.3565323565323566,-3.1062271062271063,0.5970695970695971,0.0,0.0,1.375,-0.6288156288156288,-3.3492063492063493,1.1086691086691087,0.0,0.0,1.40625,0.0,-3.720390720390721,1.0415140415140416,0.0,0.0,1.40625,0.0,-3.474969474969475,0.9157509157509156,0.0,0.0,1.34375,0.0,-3.043956043956044,1.0256410256410255,0.0,0.0,1.28125,0.9010989010989012,-2.924297924297924,0.9487179487179488,0.0,0.0,1.3125,1.468864468864469,-2.415140415140415,0.9194139194139194,0.0,0.0,1.21875,1.684981684981685,-1.5384615384615383,0.9963369963369964,0.0,0.0,1.09375,2.2808302808302807,-1.4236874236874235,1.0732600732600732,0.0,0.0,1.0,2.9072039072039066,-1.2612942612942613,1.1514041514041513,0.0,0.0,0.84375,2.978021978021978,-0.8021978021978022,0.8852258852258852,0.0,0.0,0.71875,2.6654456654456653,-0.5274725274725275,0.0,0.0,0.0,0.5625,2.954822954822955,-0.9084249084249084,0.0,0.0,0.0,0.0,,,,,,,,,,,,,,,,,,,,,,,,,,,,,,,,,,,,,,,,,,,,,,,,,,,,,,,,,,,,,rotateRight
accX,0.0,0.0,0.0,0.0,0.0,0.0,0.0,0.0,0.0,0.0,0.0,0.0,0.0,0.0,0.0,0.0,0.0,0.0,-0.6825396825396826,0.0,-0.6800976800976801,0.0,0.0,0.0,-0.9169719169719168,0.0,-0.7728937728937729,0.0,0.0,0.0,-1.1367521367521367,0.0,-0.9548229548229548,0.0,0.0,0.0,-1.7936507936507935,0.0,-0.5873015873015873,0.0,0.0,0.0,-1.804639804639805,0.0,-0.8192918192918193,0.0,0.0,0.0,-1.8070818070818069,-0.7460317460317459,-0.9157509157509156,0.0,0.0,0.0,-1.5946275946275947,-0.8485958485958486,-0.9035409035409036,0.0,0.0,0.59375,-1.297924297924298,-0.9084249084249084,-0.5103785103785103,-0.5625,0.0,0.71875,-0.9401709401709402,-0.9682539682539684,0.0,0.0,0.0,0.78125,-0.8437118437118437,-1.3113553113553114,0.0,0.0,0.0,0.8125,-0.6336996336996337,-1.4908424908424909,0.0,0.0,0.0,0.8125,0.0,-1.6984126984126984,0.0,0.0,0.0,0.8125,0.0,-1.6105006105006106,0.6385836385836385,0.0,0.0,0.84375,0.514041514041514,-1.6275946275946276,0.9230769230769232,0.0,0.0,0.84375,1.4517704517704515,-2.056166056166056,1.1391941391941391,0.0,0.0,0.8125,2.120879120879121,-2.0976800976800978,1.4529914529914532,0.0,0.0,0.6875,2.5384615384615383,-1.8901098901098898,1.7277167277167278,0.0,0.0,0.5625,3.091575091575092,-2.021978021978022,1.5396825396825398,0.0,0.0,0.0,3.4224664224664223,-1.844932844932845,1.4896214896214897,0.0,0.0,0.0,3.3760683760683765,-1.5030525030525033,1.290598290598291,0.0,-0.53125,0.0,3.175824175824176,-1.0415140415140416,1.0012210012210012,0.0,0.0,0.0,3.4261294261294264,-0.6849816849816851,0.9755799755799756,0.0,0.0,0.0,3.7997557997558,-0.5750915750915749,1.1147741147741148,0.5625,0.0,0.0,4.6996336996337,-0.8778998778998779,0.9572649572649572,0.59375,-0.59375,0.0,4.443223443223443,0.0,0.0,0.0,-0.90625,-0.65625,3.3406593406593412,0.0,0.0,0.0,-0.84375,-0.84375,2.7045177045177047,1.537240537240537,0.0,0.65625,0.0,-1.15625,2.5995115995116,2.1721611721611715,0.0,0.875,0.0,-1.28125,3.336996336996337,1.4945054945054943,-1.1135531135531136,0.71875,0.0,-1.3125,3.1465201465201464,1.3687423687423688,-1.7973137973137974,0.0,0.0,-1.5,1.9462759462759465,1.9926739926739927,-1.844932844932845,0.5625,0.0,-1.78125,0.5531135531135531,2.600732600732601,-2.242979242979243,0.75,0.59375,-1.9375,0.0,2.667887667887668,-2.7985347985347984,0.6875,0.78125,-1.9375,-0.5457875457875457,2.3724053724053724,-2.6361416361416357,0.0,0.5625,-1.875,-1.3882783882783882,1.9609279609279608,-2.7252747252747254,0.0,0.0,-1.75,-2.139194139194139,1.9731379731379728,-2.7423687423687424,0.0,0.5625,-1.59375,-1.8217338217338217,1.8180708180708183,-2.2771672771672766,0.0,0.0,-1.4375,-2.1538461538461537,1.3687423687423688,-2.3687423687423688,0.0,0.0,-1.25,-2.9328449328449326,1.1538461538461535,-2.288156288156288,-0.59375,0.0,-1.0625,-2.664224664224664,0.8962148962148963,-1.5982905982905984,-0.84375,0.0,-0.8125,-2.727716727716728,0.0,-1.4578754578754578,-1.0,0.0,-0.5625,-2.9926739926739927,0.0,-1.47985347985348,-0.875,0.0,0.0,-2.9511599511599518,0.0,-1.0341880341880345,-0.78125,0.0,0.0,-2.761904761904762,-1.0989010989010992,-0.9438339438339438,-0.96875,0.0,0.0,-3.5409035409035408,-0.9877899877899878,-0.5323565323565324,-0.96875,0.0,0.0,-3.0073260073260077,-2.5409035409035408,-1.1831501831501832,-0.96875,0.0,0.0,-2.681318681318681,-2.915750915750916,-1.051282051282051,-1.0625,0.0,0.0,-3.0122100122100113,-2.267399267399268,0.0,-0.9375,0.0,0.5625,-3.1562881562881566,-1.9938949938949944,0.0,-0.78125,0.0,0.65625,-2.9084249084249083,-2.2234432234432235,0.8547008547008547,-0.78125,0.0,0.8125,-1.7606837606837606,-3.183150183150183,0.811965811965812,-0.875,0.0,0.96875,-2.1098901098901104,-3.4542124542124544,0.0,-0.625,0.0,1.09375,-1.4481074481074483,-2.965811965811966,0.6446886446886447,0.0,0.0,1.03125,-0.9365079365079364,-3.06959706959707,0.8717948717948718,0.0,0.0,1.0625,-0.8669108669108669,-3.3968253968253967,0.6898656898656899,0.0,0.0,1.21875,0.0,-3.5042735042735043,0.0,0.0,0.0,1.25,0.0,-3.2026862026862033,0.5494505494505495,0.0,0.0,1.1875,1.0134310134310134,-2.9536019536019538,0.9316239316239316,0.0,0.0,1.125,1.4334554334554337,-2.4468864468864466,0.9902319902319904,0.0,0.0,1.09375,1.3443223443223444,-1.7130647130647132,0.912087912087912,0.0,0.0,1.0625,1.7606837606837606,-1.123321123321123,1.1843711843711844,0.0,0.0,0.96875,2.0366300366300365,-1.0976800976800978,1.0537240537240538,0.0,0.0,0.84375,2.8852258852258847,-1.21978021978022,1.1196581196581197,0.0,0.0,0.75,2.778998778998779,-0.7216117216117216,1.021978021978022,0.0,0.0,0.59375,2.094017094017094,0.0,0.7374847374847375,0.0,0.0,0.0,1.9267399267399268,0.0,0.0,0.0,0.0,0.0,1.7814407814407816,0.0,0.0,0.0,0.0,0.0,1.321123321123321,0.0,0.0,0.0,0.0,0.0,0.8656898656898657,0.0,-0.9169719169719168,0.0,0.0,0.0,0.0,0.0,-1.065934065934066,0.0,0.0,0.0,0.0,0.0,-0.7973137973137974,0.0,0.0,0.0,0.0,0.0,-0.8339438339438342,0.0,0.0,0.0,0.0,0.0,-0.6813186813186813,0.0,0.0,0.0,,,,,,,,,,,,,,,,,,,,,,,,,rotateRight
accX,0.0,0.0,0.0,0.0,0.0,0.0,0.0,0.0,-0.6678876678876678,0.0,0.0,0.0,0.0,0.0,-0.5494505494505495,0.0,0.0,0.0,0.0,0.0,-0.6092796092796092,0.0,0.0,0.0,-0.6459096459096461,0.6324786324786325,0.0,0.0,0.0,0.0,-1.0671550671550671,0.0,0.0,0.0,0.0,0.0,-1.2393162393162394,0.0,-0.57997557997558,0.0,0.0,0.0,-1.5787545787545787,0.0,-0.9108669108669109,0.0,0.0,0.0,-1.7753357753357752,-0.518925518925519,-0.9902319902319904,-0.53125,0.0,0.0,-1.934065934065934,0.0,-0.7960927960927959,0.0,0.0,0.5625,-1.8327228327228329,-0.7728937728937729,-0.8437118437118437,0.0,0.0,0.6875,-1.8388278388278387,-1.021978021978022,-0.8046398046398047,0.0,0.0,0.78125,-1.3492063492063493,-1.398046398046398,-0.57997557997558,0.0,0.0,0.84375,-0.9169719169719168,-1.5457875457875458,0.0,0.0,0.0,0.875,-0.7875457875457875,-1.6752136752136753,0.0,0.0,0.0,0.875,0.0,-1.8290598290598292,0.8827838827838828,0.0,0.0,0.875,0.0,-2.207570207570208,1.072039072039072,0.0,0.0,0.875,0.0,-2.208791208791209,1.271062271062271,0.0,0.0,0.875,0.7264957264957265,-2.1111111111111107,1.557997557997558,0.0,0.0,0.875,1.3711843711843712,-2.3418803418803416,1.678876678876679,0.0,-0.5625,0.84375,1.7716727716727716,-2.3455433455433456,1.8083028083028083,0.0,-0.59375,0.71875,2.0146520146520146,-2.051282051282051,1.7411477411477412,0.0,0.0,0.5625,2.6153846153846154,-1.8742368742368745,1.6947496947496947,0.0,0.0,0.0,3.1746031746031744,-1.568986568986569,1.7142857142857142,0.0,-0.5625,0.0,3.417582417582417,-1.5885225885225884,1.2112332112332111,0.71875,-0.59375,0.0,3.4627594627594624,-1.2612942612942613,0.6178266178266179,0.75,0.0,0.0,3.873015873015873,-0.9194139194139194,0.6398046398046398,0.75,0.0,0.0,3.8229548229548236,0.0,0.6092796092796092,0.84375,0.0,0.0,3.9096459096459095,0.0,0.0,0.96875,0.0,0.0,4.345543345543345,0.0,0.0,1.03125,0.0,-0.65625,4.8998778998779,0.0,0.0,1.0,0.0,-0.9375,4.714285714285714,0.0,0.0,1.0,0.0,-1.21875,4.26984126984127,0.7155067155067155,0.0,0.90625,0.0,-1.59375,4.0976800976800964,0.5909645909645911,-1.5299145299145298,0.6875,0.0,-1.8125,1.1636141636141637,1.3614163614163617,-2.5763125763125765,0.71875,0.0,-1.96875,0.6410256410256411,1.5665445665445663,-2.948717948717949,0.78125,0.0,-2.03125,0.8644688644688645,1.126984126984127,-3.1746031746031744,0.65625,0.0,-2.03125,0.7264957264957265,0.7472527472527473,-2.816849816849817,0.0,0.0,-2.03125,-0.5616605616605617,1.0952380952380951,-2.7594627594627594,0.0,0.0,-2.0625,-1.6532356532356531,1.7753357753357752,-2.36019536019536,0.0,0.0,-1.9375,-1.7985347985347986,1.6398046398046398,-2.0073260073260077,0.0,0.0,-1.8125,-2.1941391941391943,1.5494505494505495,-1.9645909645909645,0.0,0.0,-1.71875,-2.5873015873015874,0.9462759462759462,-2.5836385836385842,0.0,0.0,-1.53125,-2.3736263736263736,0.0,-3.115995115995116,-0.625,0.0,-1.21875,-2.6984126984126986,0.0,-3.087912087912088,-0.8125,0.0,-1.0,-2.717948717948718,0.0,-2.3943833943833943,-0.875,0.0,-0.8125,-2.6105006105006106,0.0,-1.0256410256410255,-1.09375,0.0,-0.59375,-3.065934065934066,0.0,0.0,-1.21875,0.0,0.0,-3.1697191697191696,-0.7777777777777778,0.0,-1.125,0.0,0.0,-3.6776556776556775,-1.5128205128205128,-0.9328449328449328,-1.0,0.0,0.0,-3.84004884004884,-1.5995115995115996,-0.8620268620268621,-1.03125,0.0,0.0,-3.7887667887667886,-1.42002442002442,0.0,-1.03125,0.0,0.0,-3.7863247863247858,-1.4993894993894994,0.6251526251526252,-1.0,0.0,0.625,-3.1245421245421245,-2.9792429792429798,0.0,-0.875,0.0,0.90625,-2.9010989010989015,-3.663003663003663,0.0,-0.84375,0.0,1.09375,-2.8485958485958487,-3.5286935286935286,0.0,-0.78125,0.0,1.09375,-2.3663003663003663,-2.9963369963369964,0.78998778998779,-0.65625,0.0,1.125,-1.5054945054945057,-3.0305250305250304,1.2503052503052503,0.0,0.0,1.34375,0.0,-4.015873015873016,0.8424908424908425,0.0,0.0,1.40625,0.0,-4.490842490842492,0.0,0.0,0.0,1.3125,0.0,-4.124542124542124,0.0,0.0,0.0,1.25,0.9181929181929182,-3.3540903540903533,1.1916971916971917,0.0,0.0,1.21875,1.824175824175824,-2.7765567765567765,1.761904761904762,0.0,0.0,1.15625,1.844932844932845,-2.274725274725274,1.6275946275946276,0.0,0.0,1.09375,2.3443223443223444,-2.0268620268620268,1.3565323565323566,0.0,0.0,0.9375,2.357753357753358,-1.6324786324786325,0.9951159951159952,0.0,0.0,0.84375,2.652014652014652,-1.0415140415140416,1.0048840048840049,0.0,0.0,0.71875,2.800976800976801,-0.7619047619047619,0.7680097680097681,0.0,0.0,0.59375,2.555555555555556,-0.5506715506715507,0.0,0.0,0.0,0.0,,,,,,,,,,,,,,,,,,,,,,,,,,,,,,,,,,,,,,,,,,,,,,,,,,,,,,,,,,,,,,,,,,,rotateRight
accX,0.0,0.0,0.0,0.0,0.0,0.0,0.0,0.0,0.0,0.0,0.0,0.0,0.0,0.0,0.0,0.0,0.0,0.0,0.0,0.0,0.0,0.0,0.0,0.0,0.0,0.0,0.0,0.0,0.0,0.0,0.0,0.0,0.0,0.0,0.0,0.0,0.0,0.0,0.0,0.0,0.0,0.0,0.0,0.0,0.0,0.0,0.0,0.0,0.0,0.0,0.0,0.0,0.0,0.0,-0.6141636141636142,0.0,-0.5921855921855922,0.0,0.0,0.0,-0.7863247863247863,-0.5653235653235653,-0.9426129426129426,0.0,0.0,0.0,-0.984126984126984,0.0,-0.9316239316239316,0.0,0.0,0.0,-1.2356532356532357,0.0,-0.7826617826617827,0.0,0.0,0.0,-1.3443223443223444,-0.7606837606837606,-0.811965811965812,0.0,0.0,0.0,-1.413919413919414,-1.0305250305250304,-0.6947496947496947,0.0,0.0,0.5625,-1.4529914529914532,-0.9291819291819292,0.0,0.0,0.0,0.65625,-1.1721611721611722,-1.474969474969475,0.0,0.0,0.0,0.75,-1.010989010989011,-1.5274725274725274,0.0,0.0,0.0,0.78125,0.0,-1.6666666666666667,0.0,0.0,0.0,0.78125,0.0,-1.6886446886446886,0.7081807081807082,0.0,0.0,0.8125,0.0,-1.7753357753357752,0.9548229548229548,0.0,0.0,0.8125,0.514041514041514,-1.7216117216117215,0.9853479853479854,0.0,0.0,0.78125,0.956043956043956,-1.7252747252747254,1.0842490842490842,0.0,0.0,0.71875,1.3699633699633702,-1.7851037851037852,1.1452991452991452,0.0,0.0,0.6875,1.5958485958485962,-1.565323565323565,1.3028083028083028,0.0,0.0,0.65625,1.8974358974358971,-1.6214896214896215,1.3443223443223444,0.0,0.0,0.59375,2.578754578754579,-1.7826617826617828,1.137973137973138,0.0,0.0,0.0,2.9511599511599518,-1.6971916971916972,1.0598290598290598,0.0,0.0,0.0,2.8485958485958487,-1.0622710622710625,1.2551892551892552,0.0,0.0,0.0,3.045177045177045,-0.811965811965812,1.1062271062271063,0.53125,0.0,0.0,3.305250305250305,-0.8791208791208791,0.6788766788766789,0.65625,0.0,0.0,3.474969474969475,0.0,0.9365079365079364,0.6875,0.0,0.0,3.924297924297924,0.0,1.247863247863248,0.84375,0.0,0.0,3.926739926739927,0.0,1.0989010989010992,1.0625,0.0,0.0,3.6190476190476186,0.6239316239316239,0.0,1.15625,0.0,-0.59375,3.7130647130647128,0.0,0.0,1.0,0.0,-0.71875,3.3675213675213675,0.757020757020757,0.0,0.84375,0.0,-0.90625,3.1623931623931623,0.9145299145299144,0.0,0.96875,0.0,-1.09375,2.525030525030525,0.7741147741147741,-0.6923076923076923,1.09375,0.0,-1.28125,2.752136752136752,0.0,-0.8058608058608059,1.03125,0.0,-1.40625,2.2551892551892547,0.0,-1.2527472527472527,0.78125,0.0,-1.59375,1.3516483516483515,0.0,-1.800976800976801,0.59375,0.0,-1.75,0.0,0.6520146520146519,-2.225885225885226,0.5625,0.0,-1.90625,-0.7423687423687424,0.8473748473748474,-2.5067155067155067,0.0,0.0,-1.9375,-1.3394383394383391,0.7240537240537241,-2.6202686202686203,0.0,0.0,-1.84375,-1.684981684981685,0.94993894993895,-2.4993894993894994,0.0,0.0,-1.71875,-2.063492063492064,1.2722832722832722,-2.3504273504273505,0.0,0.0,-1.625,-2.4297924297924296,1.2991452991452992,-2.6715506715506714,0.0,0.0,-1.53125,-2.509157509157509,0.5995115995115995,-3.289377289377289,0.0,0.0,-1.34375,-2.7484737484737485,0.0,-3.1636141636141635,-0.78125,0.0,-1.125,-2.9926739926739927,0.0,-2.8962148962148966,-0.96875,0.0,-0.875,-2.769230769230769,0.0,-2.2234432234432235,-1.09375,0.0,-0.625,-2.9206349206349205,0.5897435897435898,-1.264957264957265,-1.0,0.0,0.0,-3.1648351648351647,0.0,-1.2039072039072038,-0.875,0.0,0.0,-2.9035409035409034,-1.1819291819291822,-1.637362637362637,-1.0,0.0,0.0,-3.086691086691087,-1.9658119658119655,-1.962148962148962,-1.125,0.0,0.0,-2.978021978021978,-1.8058608058608057,-1.1294261294261294,-1.09375,0.0,0.0,-2.383394383394384,-1.6666666666666667,0.0,-1.0625,0.0,0.0,-3.05006105006105,-1.2625152625152625,0.9450549450549449,-0.96875,0.0,0.625,-2.9328449328449326,-1.989010989010989,0.9621489621489622,-0.90625,0.0,0.78125,-2.2185592185592187,-3.1428571428571432,0.557997557997558,-0.84375,0.0,0.96875,-1.8693528693528692,-3.2612942612942613,0.5372405372405372,-0.75,0.0,0.96875,-2.189255189255189,-2.421245421245421,0.9584859584859584,0.0,0.0,1.03125,-2.0244200244200243,-2.236874236874237,1.3504273504273503,0.0,0.0,1.09375,-0.8058608058608059,-3.313797313797314,0.989010989010989,0.0,0.0,1.25,0.0,-3.58974358974359,0.8534798534798534,-0.65625,0.0,1.28125,-0.5115995115995116,-3.3809523809523814,0.8192918192918193,0.0,0.0,1.1875,0.5323565323565324,-3.0976800976800978,1.017094017094017,0.0,0.0,1.15625,1.2967032967032968,-2.7301587301587302,1.3418803418803418,0.0,0.0,1.1875,1.0341880341880345,-2.3040293040293043,1.277167277167277,0.0,0.0,1.125,1.9035409035409037,-2.3369963369963367,1.043956043956044,0.0,0.0,1.03125,2.199023199023199,-1.8730158730158732,0.8595848595848596,0.0,0.0,0.90625,2.6727716727716726,-1.3968253968253967,0.9169719169719168,0.0,0.0,0.8125,3.1135531135531136,-1.1428571428571428,1.0341880341880345,0.0,0.0,0.71875,2.6178266178266183,-0.7191697191697192,0.6129426129426129,0.0,0.0,0.5625,2.095238095238096,-0.5775335775335775,0.0,0.0,0.0,0.0,1.7545787545787546,-0.7203907203907204,0.0,0.0,0.0,0.0,1.536019536019536,-0.5897435897435898,0.0,0.0,0.0,0.0,1.1452991452991452,-0.6092796092796092,-0.8547008547008547,0.0,0.0,0.0,,,,,,,rotateRight
accX,0.0,0.0,-0.6410256410256411,0.0,0.0,0.0,0.0,0.0,0.0,0.0,0.0,0.0,0.0,0.0,0.0,0.0,0.0,0.0,0.0,0.0,0.0,0.0,0.0,0.0,-0.5262515262515263,0.0,-0.7277167277167277,0.0,0.0,0.0,-0.9645909645909646,0.0,-1.1074481074481075,0.0,0.0,0.0,-0.9023199023199024,0.0,-0.8424908424908425,-0.65625,0.0,0.0,-0.9206349206349206,0.0,-0.8608058608058609,0.0,0.0,0.0,-1.9304029304029304,-0.5054945054945055,-1.5738705738705738,0.0,0.0,0.0,-2.6336996336996337,0.0,-2.230769230769231,0.0,0.0,0.0,-2.7802197802197797,0.0,-1.8913308913308915,-0.59375,0.0,0.0,-2.3870573870573866,0.0,-0.8864468864468864,-0.625,0.0,0.65625,-1.9035409035409037,-0.7631257631257631,0.0,0.0,0.0,0.78125,-1.2454212454212454,-1.463980463980464,0.0,0.0,0.0,0.84375,-0.7533577533577533,-1.7374847374847375,0.6947496947496947,-0.5625,0.0,0.84375,0.0,-1.7851037851037852,1.3113553113553114,-0.53125,0.0,0.875,0.0,-1.9218559218559217,1.6459096459096458,0.0,0.0,0.875,0.0,-2.145299145299145,1.6874236874236874,0.0,0.0,0.875,0.0,-1.8998778998779,1.6813186813186811,0.0,0.0,0.90625,0.5555555555555556,-1.8376068376068373,1.8217338217338217,0.0,0.0,0.9375,1.3968253968253967,-1.9047619047619049,1.982905982905983,0.0,0.0,0.875,1.85958485958486,-2.062271062271062,1.85958485958486,0.0,-0.5625,0.8125,2.056166056166056,-2.1245421245421245,1.5213675213675213,0.0,-0.53125,0.6875,2.5775335775335777,-2.299145299145299,1.1514041514041513,0.0,0.0,0.5625,2.9963369963369964,-1.984126984126984,1.2417582417582418,0.0,-0.53125,0.0,3.0195360195360195,-1.8070818070818069,0.7423687423687424,0.0,-0.5625,0.0,3.051282051282051,-1.9023199023199024,0.0,0.53125,-0.53125,0.0,3.21001221001221,-1.5396825396825398,0.0,0.59375,0.0,0.0,4.231990231990232,-1.4151404151404152,0.0,0.6875,0.0,0.0,4.715506715506716,-1.5225885225885225,0.0,0.75,0.0,0.0,3.5091575091575087,-0.5811965811965812,-0.7912087912087912,0.84375,0.0,-0.59375,3.3504273504273505,0.0,-1.1074481074481075,0.84375,0.0,-0.71875,4.140415140415141,0.6678876678876678,0.0,0.78125,0.0,-0.84375,3.6251526251526247,1.3235653235653235,0.0,0.8125,0.0,-1.0625,2.9682539682539684,1.5115995115995116,-0.8034188034188035,0.84375,0.0,-1.1875,2.9401709401709404,1.3736263736263736,-0.967032967032967,0.625,0.0,-1.34375,2.3272283272283274,1.6996336996336996,-0.7460317460317459,0.59375,0.0,-1.5625,0.8888888888888888,2.3015873015873014,-1.3894993894993894,0.71875,0.0,-1.71875,0.5982905982905983,1.844932844932845,-1.9218559218559217,0.5625,0.0,-1.6875,0.7716727716727717,1.537240537240537,-1.5702075702075702,0.0,0.0,-1.71875,0.0,1.9426129426129424,-0.9328449328449328,0.0,0.0,-1.84375,-0.5860805860805861,1.9987789987789988,-0.7155067155067155,0.0,0.59375,-1.90625,-0.6581196581196581,1.5567765567765568,-0.6788766788766789,0.0,0.0,-1.75,-1.78021978021978,1.3907203907203909,-1.0695970695970696,0.0,0.0,-1.625,-1.9706959706959708,0.9365079365079364,-1.6581196581196582,0.0,0.0,-1.53125,-1.989010989010989,0.6251526251526252,-2.075702075702076,0.0,0.0,-1.375,-2.3772893772893773,0.0,-2.669108669108669,0.0,0.0,-1.1875,-2.9255189255189253,0.0,-2.449328449328449,-0.5625,0.0,-0.96875,-2.578754578754579,0.0,-1.9426129426129424,-0.71875,0.0,-0.65625,-2.614163614163614,0.0,-1.4847374847374848,-0.71875,0.0,0.0,-3.3296703296703303,0.0,-1.3846153846153846,-0.75,0.0,0.0,-3.7997557997558,0.0,-0.9792429792429792,-0.78125,0.0,0.0,-2.7557997557997562,-1.843711843711844,-1.105006105006105,-0.78125,0.0,0.0,-2.774114774114774,-2.311355311355311,-1.0231990231990231,-0.90625,0.0,0.0,-3.2979242979242978,-1.9694749694749696,-0.6886446886446886,-0.8125,0.0,0.0,-3.6361416361416365,-1.7704517704517704,0.0,-0.65625,0.0,0.5625,-1.7741147741147743,-3.274725274725274,0.0,-0.6875,0.0,0.75,-1.4700854700854702,-3.608058608058608,0.0,-1.0,0.0,0.84375,-2.78998778998779,-2.8632478632478637,0.0,-0.96875,-0.53125,0.875,-2.32967032967033,-2.7777777777777777,0.0,-0.65625,0.0,0.96875,-1.188034188034188,-2.9181929181929176,0.6764346764346765,-0.5625,0.0,1.03125,-0.9255189255189256,-2.8192918192918195,1.2722832722832722,-0.65625,0.0,1.1875,-0.5042735042735043,-3.553113553113553,0.8315018315018315,-0.5625,0.0,1.3125,0.0,-3.869352869352869,0.5970695970695971,0.0,0.0,1.25,0.0,-3.4725274725274726,0.9816849816849816,0.0,0.0,1.1875,0.894993894993895,-2.6923076923076925,1.5030525030525033,0.0,0.0,1.0625,0.8229548229548229,-1.879120879120879,1.6727716727716728,0.0,0.0,0.96875,0.6739926739926739,-1.9413919413919412,0.9926739926739928,0.0,0.0,1.0625,1.7533577533577531,-2.139194139194139,0.6141636141636142,0.0,0.0,1.0,2.527472527472528,-1.8742368742368745,0.0,0.0,0.0,0.875,2.533577533577533,-0.9853479853479854,0.0,0.0,0.0,0.71875,2.9572649572649574,-1.031746031746032,0.0,0.0,0.0,0.59375,,,,,,,,,,,,,,,,,,,,,,,,,,,,,,,,,,,,,,,,,,,,,,,,,rotateRight
