,00_accX,00_accY,00_accZ,00_gyroX,00_gyroY,00_gyroZ,01_accX,01_accY,01_accZ,01_gyroX,01_gyroY,01_gyroZ,02_accX,02_accY,02_accZ,02_gyroX,02_gyroY,02_gyroZ,03_accX,03_accY,03_accZ,03_gyroX,03_gyroY,03_gyroZ,04_accX,04_accY,04_accZ,04_gyroX,04_gyroY,04_gyroZ,05_accX,05_accY,05_accZ,05_gyroX,05_gyroY,05_gyroZ,06_accX,06_accY,06_accZ,06_gyroX,06_gyroY,06_gyroZ,07_accX,07_accY,07_accZ,07_gyroX,07_gyroY,07_gyroZ,08_accX,08_accY,08_accZ,08_gyroX,08_gyroY,08_gyroZ,09_accX,09_accY,09_accZ,09_gyroX,09_gyroY,09_gyroZ,10_accX,10_accY,10_accZ,10_gyroX,10_gyroY,10_gyroZ,11_accX,11_accY,11_accZ,11_gyroX,11_gyroY,11_gyroZ,12_accX,12_accY,12_accZ,12_gyroX,12_gyroY,12_gyroZ,13_accX,13_accY,13_accZ,13_gyroX,13_gyroY,13_gyroZ,14_accX,14_accY,14_accZ,14_gyroX,14_gyroY,14_gyroZ,15_accX,15_accY,15_accZ,15_gyroX,15_gyroY,15_gyroZ,16_accX,16_accY,16_accZ,16_gyroX,16_gyroY,16_gyroZ,17_accX,17_accY,17_accZ,17_gyroX,17_gyroY,17_gyroZ,18_accX,18_accY,18_accZ,18_gyroX,18_gyroY,18_gyroZ,19_accX,19_accY,19_accZ,19_gyroX,19_gyroY,19_gyroZ,20_accX,20_accY,20_accZ,20_gyroX,20_gyroY,20_gyroZ,21_accX,21_accY,21_accZ,21_gyroX,21_gyroY,21_gyroZ,22_accX,22_accY,22_accZ,22_gyroX,22_gyroY,22_gyroZ,23_accX,23_accY,23_accZ,23_gyroX,23_gyroY,23_gyroZ,24_accX,24_accY,24_accZ,24_gyroX,24_gyroY,24_gyroZ,25_accX,25_accY,25_accZ,25_gyroX,25_gyroY,25_gyroZ,26_accX,26_accY,26_accZ,26_gyroX,26_gyroY,26_gyroZ,27_accX,27_accY,27_accZ,27_gyroX,27_gyroY,27_gyroZ,28_accX,28_accY,28_accZ,28_gyroX,28_gyroY,28_gyroZ,29_accX,29_accY,29_accZ,29_gyroX,29_gyroY,29_gyroZ,30_accX,30_accY,30_accZ,30_gyroX,30_gyroY,30_gyroZ,31_accX,31_accY,31_accZ,31_gyroX,31_gyroY,31_gyroZ,32_accX,32_accY,32_accZ,32_gyroX,32_gyroY,32_gyroZ,33_accX,33_accY,33_accZ,33_gyroX,33_gyroY,33_gyroZ,34_accX,34_accY,34_accZ,34_gyroX,34_gyroY,34_gyroZ,35_accX,35_accY,35_accZ,35_gyroX,35_gyroY,35_gyroZ,36_accX,36_accY,36_accZ,36_gyroX,36_gyroY,36_gyroZ,37_accX,37_accY,37_accZ,37_gyroX,37_gyroY,37_gyroZ,38_accX,38_accY,38_accZ,38_gyroX,38_gyroY,38_gyroZ,39_accX,39_accY,39_accZ,39_gyroX,39_gyroY,39_gyroZ,40_accX,40_accY,40_accZ,40_gyroX,40_gyroY,40_gyroZ,41_accX,41_accY,41_accZ,41_gyroX,41_gyroY,41_gyroZ,42_accX,42_accY,42_accZ,42_gyroX,42_gyroY,42_gyroZ,43_accX,43_accY,43_accZ,43_gyroX,43_gyroY,43_gyroZ,44_accX,44_accY,44_accZ,44_gyroX,44_gyroY,44_gyroZ,45_accX,45_accY,45_accZ,45_gyroX,45_gyroY,45_gyroZ,46_accX,46_accY,46_accZ,46_gyroX,46_gyroY,46_gyroZ,47_accX,47_accY,47_accZ,47_gyroX,47_gyroY,47_gyroZ,48_accX,48_accY,48_accZ,48_gyroX,48_gyroY,48_gyroZ,49_accX,49_accY,49_accZ,49_gyroX,49_gyroY,49_gyroZ,50_accX,50_accY,50_accZ,50_gyroX,50_gyroY,50_gyroZ,51_accX,51_accY,51_accZ,51_gyroX,51_gyroY,51_gyroZ,52_accX,52_accY,52_accZ,52_gyroX,52_gyroY,52_gyroZ,53_accX,53_accY,53_accZ,53_gyroX,53_gyroY,53_gyroZ,54_accX,54_accY,54_accZ,54_gyroX,54_gyroY,54_gyroZ,55_accX,55_accY,55_accZ,55_gyroX,55_gyroY,55_gyroZ,56_accX,56_accY,56_accZ,56_gyroX,56_gyroY,56_gyroZ,57_accX,57_accY,57_accZ,57_gyroX,57_gyroY,57_gyroZ,58_accX,58_accY,58_accZ,58_gyroX,58_gyroY,58_gyroZ,59_accX,59_accY,59_accZ,59_gyroX,59_gyroY,59_gyroZ,60_accX,60_accY,60_accZ,60_gyroX,60_gyroY,60_gyroZ,61_accX,61_accY,61_accZ,61_gyroX,61_gyroY,61_gyroZ,62_accX,62_accY,62_accZ,62_gyroX,62_gyroY,62_gyroZ,63_accX,63_accY,63_accZ,63_gyroX,63_gyroY,63_gyroZ,64_accX,64_accY,64_accZ,64_gyroX,64_gyroY,64_gyroZ,65_accX,65_accY,65_accZ,65_gyroX,65_gyroY,65_gyroZ,66_accX,66_accY,66_accZ,66_gyroX,66_gyroY,66_gyroZ,67_accX,67_accY,67_accZ,67_gyroX,67_gyroY,67_gyroZ,68_accX,68_accY,68_accZ,68_gyroX,68_gyroY,68_gyroZ,69_accX,69_accY,69_accZ,69_gyroX,69_gyroY,69_gyroZ,category
accX,-2.6300366300366296,-1.083028083028083,-6.998778998778999,1.8125,-0.625,-0.75,-3.43956043956044,0.0,-7.322344322344322,1.4375,-0.78125,-0.53125,-3.8327228327228333,-0.7631257631257631,-7.468864468864468,1.03125,-0.71875,0.0,-3.8009768009768017,-1.1819291819291822,-7.046398046398046,0.53125,-0.65625,0.0,-4.406593406593408,-0.5018315018315018,-5.652014652014652,0.0,0.0,0.0,-3.542124542124542,0.0,-4.498168498168498,0.0,0.0,0.0,-2.3968253968253967,0.5763125763125763,-3.457875457875458,0.0,0.0,0.0,-1.7814407814407816,-0.557997557997558,-3.3064713064713063,0.0,0.0,0.0,-0.6691086691086691,-0.9951159951159952,-2.63980463980464,0.0,0.0,0.0,-0.7326007326007326,0.0,-1.2893772893772897,0.0,0.0,0.0,0.0,0.0,-0.7179487179487181,0.0,0.0,0.0,0.0,0.0,0.0,0.0,0.0,0.0,0.0,0.0,0.0,0.0,0.0,0.0,0.0,0.0,0.0,0.0,0.0,0.0,0.0,0.0,1.1245421245421243,0.0,0.0,0.0,0.0,-0.5860805860805861,0.9169719169719168,0.0,0.0,0.0,-0.5921855921855922,0.0,0.6446886446886447,0.0,0.0,0.0,0.0,0.0,0.0,0.0,0.0,0.0,0.0,0.0,0.0,0.0,0.0,0.0,-0.5164835164835165,0.0,0.0,0.0,0.0,0.0,0.0,0.0,0.0,0.0,0.0,0.0,-1.0390720390720392,0.0,0.0,0.0,0.0,0.0,0.0,0.0,0.0,0.0,0.0,0.0,0.0,0.0,0.0,0.0,0.0,0.0,-0.5238095238095238,0.0,-0.8998778998778999,0.0,0.0,0.0,-0.7838827838827839,0.0,-1.5018315018315018,0.0,0.0,0.0,-0.9194139194139194,0.0,-1.934065934065934,0.0,0.0,0.0,,,,,,,,,,,,,,,,,,,,,,,,,,,,,,,,,,,,,,,,,,,,,,,,,,,,,,,,,,,,,,,,,,,,,,,,,,,,,,,,,,,,,,,,,,,,,,,,,,,,,,,,,,,,,,,,,,,,,,,,,,,,,,,,,,,,,,,,,,,,,,,,,,,,,,,,,,,,,,,,,,,,,,,,,,,,,,,,,,,,,,,,,,,,,,,,,,,,,,,,,,,,,,,,,,,,,,,,,,,,,,,,,,,,,,,,,,,,,,,,,,,,,,,,,,,,,,,,,,,start
accX,-1.4114774114774116,1.037851037851038,0.0,0.84375,1.0625,0.625,-1.4297924297924298,1.3076923076923077,0.5531135531135531,1.3125,2.0625,1.25,-2.1978021978021984,1.6349206349206349,0.0,2.0625,3.3125,1.9375,0.0,0.0,-1.1489621489621489,2.53125,4.46875,2.375,3.4993894993894994,-1.3418803418803418,-2.051282051282051,2.46875,4.625,2.25,6.107448107448107,-3.0549450549450547,-2.8962148962148966,1.8125,4.03125,1.5625,4.548229548229548,-1.4078144078144081,-3.1282051282051277,1.625,4.03125,1.0625,0.0,0.5238095238095238,-3.2429792429792434,3.1875,7.21875,1.53125,3.3626373626373627,-1.4676434676434675,1.6166056166056166,4.5,9.09375,1.71875,6.124542124542124,-2.831501831501832,2.542124542124542,5.0,9.4375,1.65625,7.107448107448107,-3.028083028083028,2.6923076923076925,4.90625,8.71875,1.09375,6.230769230769232,-1.9743589743589745,3.0268620268620268,4.75,7.71875,0.0,3.236874236874237,-1.3223443223443223,3.189255189255189,5.09375,7.25,0.0,3.449328449328449,-2.1978021978021984,3.101343101343101,5.5625,7.15625,0.0,2.7704517704517704,-2.761904761904762,2.1074481074481075,5.625,6.59375,0.0,3.192918192918193,-3.7399267399267404,1.1611721611721613,5.4375,5.71875,0.0,1.652014652014652,-3.683760683760684,0.0,5.0625,4.78125,0.0,1.343101343101343,-3.241758241758242,-0.7448107448107448,4.9375,4.21875,-0.53125,2.411477411477412,-4.3760683760683765,-1.9194139194139197,4.75,3.5625,-0.65625,2.0427350427350426,-4.652014652014652,-2.4505494505494507,3.78125,1.9375,-1.0625,0.5445665445665445,-3.291819291819292,-2.717948717948718,3.53125,1.15625,-1.1875,-0.7557997557997558,-2.873015873015873,-3.0549450549450547,3.53125,0.84375,-1.0625,0.0,-3.023199023199023,-3.665445665445665,3.4375,0.0,-1.0625,0.0,-3.7240537240537237,-4.349206349206349,2.90625,0.0,-1.125,-1.4334554334554337,-2.483516483516484,-4.616605616605616,2.46875,-0.53125,-1.03125,-2.389499389499389,-1.7936507936507935,-4.816849816849817,2.40625,-0.625,-0.875,-1.912087912087912,-1.122100122100122,-5.2173382173382175,2.3125,-0.9375,-0.71875,-2.887667887667888,-2.0793650793650795,-6.525030525030526,1.78125,-1.03125,-0.75,-3.3650793650793656,-1.0390720390720392,-6.625152625152626,1.21875,-0.9375,-0.625,-4.0427350427350435,0.0,-6.609279609279609,1.0,-0.65625,0.0,-3.720390720390721,0.0,-6.7716727716727725,0.0,0.0,0.0,-3.247863247863248,0.0,-4.713064713064713,0.0,0.0,0.0,-2.5885225885225887,0.0,-2.8705738705738706,0.0,0.0,0.0,-1.6153846153846154,0.0,-1.4407814407814408,0.0,0.0,0.0,-0.6214896214896215,-0.5726495726495726,-1.1282051282051282,0.0,0.0,0.0,0.0,0.0,-0.8461538461538461,0.0,0.0,0.0,0.0,0.0,0.0,0.0,0.0,0.0,0.0,0.6520146520146519,0.0,0.0,0.0,0.0,0.0,0.0,0.0,0.0,0.0,0.0,0.0,-0.7655677655677655,0.0,0.0,0.0,0.0,0.0,0.0,0.0,0.0,0.0,0.0,-0.5555555555555556,0.0,0.0,0.0,0.0,0.0,0.0,0.0,0.0,0.0,0.0,0.0,0.0,0.0,0.0,0.0,0.0,0.0,-0.5726495726495726,0.0,0.0,0.0,0.0,0.0,0.0,-0.5213675213675214,0.0,0.0,0.0,0.0,0.0,0.0,0.0,0.0,0.0,0.0,,,,,,,,,,,,,,,,,,,,,,,,,,,,,,,,,,,,,,,,,,,,,,,,,,,,,,,,,,,,,,,,,,,,,,,,,,,,,,,,,,,,,,,,,,,,,,,,,,,,,,,,,,,,,,,,,,,,,,,,,,,,,,,,,,,,,,,,,,,start
accX,0.0,0.0,0.0,0.0,0.0,0.0,0.0,0.0,0.0,0.0,0.0,0.0,0.0,0.0,0.0,0.0,0.0,0.0,0.0,0.0,-0.9169719169719168,0.0,0.0,0.0,-0.9963369963369964,0.5665445665445665,-1.6813186813186811,0.0,1.09375,0.0,-0.6691086691086691,1.1538461538461535,-2.1941391941391943,0.5625,1.84375,0.90625,-1.2368742368742371,2.4566544566544573,-2.9633699633699635,1.15625,2.875,1.59375,-0.6092796092796092,1.5702075702075702,-4.603174603174604,2.0625,4.4375,2.3125,2.595848595848596,-1.7203907203907205,-5.227106227106226,1.96875,5.28125,2.21875,5.175824175824176,-2.3443223443223444,-4.2393162393162385,1.34375,5.0,1.4375,3.485958485958486,-0.8363858363858364,-3.145299145299145,1.28125,5.09375,0.78125,0.9181929181929182,0.0,-2.496947496947497,1.84375,6.15625,0.65625,0.0,1.4285714285714286,-0.8717948717948718,2.78125,7.4375,0.53125,0.7423687423687424,0.0,1.1123321123321124,3.6875,8.375,0.65625,1.7789987789987791,0.0,1.3614163614163617,3.84375,8.78125,0.71875,3.717948717948718,0.0,2.1611721611721606,3.9375,8.46875,0.0,2.37973137973138,1.5189255189255189,2.418803418803418,4.21875,7.6875,0.0,2.7326007326007327,1.0305250305250304,2.511599511599512,4.5625,7.1875,0.0,2.4896214896214897,0.0,2.253968253968254,4.78125,6.34375,-0.59375,0.0,-0.8229548229548229,1.1843711843711844,5.09375,5.71875,-0.65625,0.0,-2.0097680097680097,1.0732600732600732,5.3125,5.625,0.0,0.9877899877899878,-2.9841269841269837,0.6092796092796092,5.46875,5.5625,0.0,2.7032967032967035,-4.3528693528693525,0.0,5.25,5.21875,0.0,3.3272283272283274,-5.05982905982906,-0.5921855921855922,4.5625,4.15625,0.0,2.7252747252747254,-4.335775335775336,-0.9255189255189256,3.75,2.53125,-0.75,1.293040293040293,-4.525030525030525,-1.6556776556776556,3.46875,0.84375,-1.0625,0.0,-4.362637362637362,-2.649572649572649,3.0625,0.0,-1.375,-1.6483516483516485,-4.003663003663004,-3.7118437118437115,2.59375,0.0,-1.25,-1.7741147741147743,-3.0805860805860807,-4.336996336996338,2.3125,0.0,-1.03125,-1.4273504273504274,-3.2026862026862033,-5.278388278388278,2.03125,0.0,-1.0625,-2.78998778998779,-1.912087912087912,-5.201465201465202,1.75,0.0,-0.75,-3.1282051282051277,-1.8327228327228329,-5.722832722832723,1.4375,0.0,0.0,-2.0207570207570207,-0.5934065934065934,-5.111111111111111,1.15625,0.0,0.0,-1.9926739926739927,0.0,-4.8669108669108665,1.09375,-0.75,0.0,-2.343101343101343,-0.9804639804639804,-5.261294261294262,0.75,-0.8125,0.0,-2.683760683760684,-0.6825396825396826,-5.339438339438339,0.0,-0.6875,0.0,-1.3357753357753357,0.0,-3.9047619047619047,0.0,0.0,0.0,-1.2271062271062272,0.0,-2.769230769230769,0.0,0.0,0.0,-0.7936507936507936,-0.7924297924297924,-1.8986568986568984,0.0,0.0,0.0,-0.7704517704517705,-1.3028083028083028,-1.31013431013431,0.0,0.0,0.0,-0.8363858363858364,-0.8901098901098901,-0.6434676434676435,0.0,0.0,0.0,0.0,-0.7179487179487181,0.0,0.0,0.0,0.0,0.0,-0.7631257631257631,0.0,0.0,0.0,0.0,0.0,0.0,0.0,0.0,0.0,0.0,0.0,0.0,0.0,0.0,0.0,0.0,0.0,0.0,-0.7973137973137974,0.0,0.0,0.0,0.0,0.0,-0.6727716727716728,0.0,0.0,0.0,0.0,-0.5714285714285714,0.0,0.0,0.0,0.0,0.0,-0.9487179487179488,0.0,0.0,0.0,0.0,0.0,-0.5506715506715507,0.5323565323565324,0.0,0.0,0.0,0.0,0.0,0.7252747252747253,0.0,0.0,0.0,0.0,-0.8205128205128205,0.757020757020757,0.0,0.0,0.0,0.0,-0.7057387057387058,0.5311355311355311,0.0,0.0,0.0,0.0,0.0,0.0,0.0,0.0,0.0,0.0,0.0,0.0,0.0,0.0,0.0,0.0,0.0,-0.514041514041514,0.0,0.0,0.0,-0.5775335775335775,-0.5494505494505495,-0.8791208791208791,0.0,0.0,0.0,0.0,0.0,-0.5372405372405372,0.0,0.0,0.0,0.0,0.0,-0.5714285714285714,0.0,0.0,0.0,0.0,0.0,0.0,0.0,0.0,0.0,0.0,-1.0744810744810744,-0.7924297924297924,0.0,0.0,0.0,0.0,0.0,0.0,-0.53125,0.0,0.0,,,,,,,,,,,,,,,,,,,,,,,,,,,,,,,,,,,,,,,,,,,,,,,,,start
accX,0.0,0.0,0.0,0.0,0.0,0.0,0.0,-0.6141636141636142,-0.967032967032967,0.0,0.0,0.0,-0.8449328449328449,0.0,-2.1794871794871797,0.0,1.03125,0.0,-2.2722832722832718,2.7350427350427347,-2.4420024420024418,1.125,2.875,1.625,0.0,0.5323565323565324,-4.781440781440781,1.90625,4.53125,2.46875,3.411477411477412,-2.0305250305250304,-5.183150183150183,1.96875,5.53125,2.53125,4.181929181929182,-1.9218559218559217,-4.38949938949939,1.5,5.6875,1.8125,1.434676434676435,0.5311355311355311,-2.6166056166056166,1.59375,6.21875,1.25,-0.9682539682539684,1.3186813186813189,-0.568986568986569,2.96875,8.21875,1.34375,0.9926739926739928,0.0,1.020757020757021,4.28125,10.15625,1.75,2.6923076923076925,-0.9389499389499391,1.3833943833943834,4.6875,10.65625,1.6875,2.6434676434676434,0.0,1.47985347985348,4.59375,10.40625,1.34375,2.56043956043956,0.0,2.399267399267399,4.78125,10.1875,1.125,3.351648351648352,-0.7509157509157509,2.3223443223443225,5.0625,9.65625,0.9375,4.627594627594628,-2.371184371184371,1.7692307692307692,5.25,8.3125,0.0,2.6971916971916974,-2.8803418803418803,0.0,5.0625,6.4375,0.0,2.6446886446886446,-3.0561660561660564,0.0,4.78125,5.375,0.0,3.1575091575091574,-3.681318681318681,-0.5970695970695971,4.53125,4.1875,0.0,3.36019536019536,-4.2344322344322345,-1.2942612942612943,4.125,2.8125,-0.59375,2.6825396825396823,-4.42979242979243,-2.0854700854700856,3.65625,1.71875,-0.9375,1.2515262515262515,-3.556776556776557,-2.2588522588522593,3.46875,1.09375,-1.25,0.0,-3.0989010989010985,-2.5665445665445668,3.5,0.6875,-1.25,0.0,-4.174603174603175,-3.3858363858363862,3.1875,0.0,-1.1875,-0.934065934065934,-4.035409035409035,-3.6581196581196584,2.90625,0.0,-1.25,-2.1709401709401708,-2.9670329670329667,-3.9010989010989015,2.8125,0.0,-1.03125,-1.7203907203907205,-2.627594627594628,-4.462759462759463,2.6875,0.0,-0.9375,-2.0488400488400487,-2.2185592185592187,-4.609279609279608,2.34375,-0.71875,-0.65625,-2.354090354090354,-1.290598290598291,-5.564102564102564,1.8125,-0.8125,0.0,-2.8547008547008548,0.0,-5.362637362637362,1.46875,-0.9375,0.0,-3.0,0.0,-6.0317460317460325,1.40625,-0.75,0.0,-2.1746031746031744,-0.8925518925518926,-6.221001221001222,1.03125,-0.53125,0.0,-2.5042735042735043,-0.5738705738705738,-5.684981684981684,0.5625,-0.53125,0.0,-2.52014652014652,-0.7435897435897436,-4.428571428571429,0.0,0.0,0.0,-1.5665445665445663,0.0,-2.41025641025641,0.0,0.0,0.0,-0.8571428571428571,-0.5836385836385837,-1.5787545787545787,0.0,0.0,0.0,-0.7741147741147741,-2.452991452991453,-1.9719169719169718,0.0,0.0,0.0,-0.9389499389499391,-1.4603174603174602,-1.155067155067155,0.0,0.0,0.0,0.0,0.0,0.0,0.0,0.0,0.0,0.0,0.0,0.0,0.0,0.0,0.0,0.0,-0.7924297924297924,-0.6361416361416361,0.0,0.0,0.0,0.0,-1.1257631257631258,-1.0976800976800978,0.0,0.0,0.0,0.0,0.0,0.0,0.0,0.0,0.0,0.0,0.0,0.0,0.0,0.0,0.0,0.0,-0.5482295482295483,0.0,0.0,0.0,0.0,0.0,-1.0964590964590966,0.0,0.0,0.0,0.0,0.0,-0.8058608058608059,0.0,0.0,0.0,0.0,0.0,0.0,0.5372405372405372,0.0,0.0,0.0,0.0,0.0,0.0,0.0,0.0,0.0,0.0,-0.57997557997558,0.0,0.0,0.0,0.0,0.0,-0.7594627594627594,0.0,0.0,0.0,0.0,0.0,0.0,0.5665445665445665,0.0,0.0,0.0,0.0,0.0,0.0,0.0,0.0,0.0,0.0,-0.6947496947496947,0.0,0.0,0.0,0.0,0.0,0.0,0.0,0.0,0.0,0.0,0.0,0.0,-0.5152625152625152,0.0,0.0,0.0,0.0,0.0,-0.6617826617826618,0.0,0.0,0.0,0.0,0.0,-0.6398046398046398,0.0,0.0,0.0,0.0,-0.8241758241758241,-0.9096459096459096,0.0,0.0,0.0,0.0,0.0,-0.5018315018315018,0.0,0.0,0.0,0.0,0.0,0.0,0.0,0.0,0.0,0.0,0.0,0.0,0.0,0.0,0.0,0.0,0.0,0.0,0.0,0.0,0.0,0.0,0.0,0.0,0.0,0.0,0.0,,,,,,,,,,,,,,,,,,,,,,,,,,,,,,,,,,,,,,,,,,,start
accX,-0.8095238095238095,0.9621489621489622,0.0,0.0,0.5625,0.5625,-2.3211233211233213,1.1709401709401708,-0.9401709401709402,0.875,1.5,1.03125,-3.293040293040293,1.9181929181929185,-1.5335775335775337,1.1875,2.78125,1.96875,-2.2014652014652016,1.3443223443223444,-2.5824175824175826,1.40625,4.0625,2.8125,0.0,0.7692307692307693,-2.7228327228327234,1.53125,4.84375,3.21875,1.3015873015873016,0.0,-3.087912087912088,1.71875,5.5,3.3125,0.8241758241758241,0.0,-2.9853479853479854,2.125,6.71875,3.34375,-0.6617826617826618,0.5201465201465202,-1.442002442002442,3.09375,8.71875,3.46875,0.6495726495726496,0.0,0.6825396825396826,4.125,10.1875,3.53125,2.9951159951159956,0.0,1.6507936507936507,4.6875,10.28125,3.09375,5.091575091575091,-0.8315018315018315,1.1819291819291822,4.78125,9.8125,2.21875,2.683760683760684,0.0,3.3504273504273505,4.6875,8.96875,1.34375,2.628815628815629,-0.7094017094017094,3.1562881562881566,5.25,8.8125,1.3125,3.2026862026862033,-2.2014652014652016,2.094017094017094,5.375,7.84375,1.21875,4.1147741147741135,-3.6849816849816848,0.8998778998778999,5.0,6.46875,0.75,3.393162393162393,-2.393162393162393,0.0,4.5,4.875,0.0,3.111111111111111,-2.3650793650793656,-1.103785103785104,4.375,3.71875,0.0,2.4542124542124544,-4.007326007326007,-2.1514041514041518,3.96875,2.78125,0.0,1.5482295482295485,-3.313797313797314,-2.0781440781440783,3.25,1.90625,-0.84375,0.0,-2.0207570207570207,-1.5128205128205128,2.78125,1.3125,-1.0,0.0,-2.5702075702075704,-0.7728937728937729,2.6875,1.0625,-0.90625,0.0,-2.8962148962148966,0.0,2.75,0.75,-0.90625,-0.8034188034188035,-3.8412698412698414,-1.195360195360195,2.78125,0.0,-1.09375,-1.21978021978022,-2.1343101343101343,-1.94993894993895,2.5625,0.0,-1.1875,-1.8510378510378511,-1.4542124542124542,-3.028083028083028,2.53125,0.0,-1.1875,-2.5775335775335777,-1.0463980463980465,-3.761904761904762,2.40625,0.0,-0.90625,-1.7472527472527473,-1.5714285714285714,-5.0256410256410255,1.90625,-0.625,-0.9375,-2.166056166056166,0.0,-5.3247863247863245,1.59375,-0.75,-0.90625,-2.4517704517704515,0.0,-5.9804639804639805,1.375,-0.8125,-0.78125,-3.2771672771672766,0.0,-6.938949938949939,1.15625,-0.71875,-0.59375,-3.532356532356532,0.0,-7.57997557997558,0.6875,-0.53125,0.0,-3.6727716727716726,0.0,-7.3870573870573875,0.0,0.0,0.0,-3.495726495726496,0.6129426129426129,-5.893772893772894,0.0,0.0,0.0,-3.0818070818070824,0.0,-4.219780219780221,0.0,0.0,0.0,-2.021978021978022,0.0,-2.11965811965812,0.0,0.0,0.0,-1.0341880341880345,-1.6153846153846154,-1.5995115995115996,0.0,0.0,0.0,-0.6666666666666666,0.0,0.0,-0.6875,0.0,0.0,0.0,0.0,0.7765567765567766,0.0,0.0,0.0,0.7460317460317459,0.0,1.195360195360195,0.0,0.0,0.0,0.0,-0.8205128205128205,0.8412698412698413,0.0,0.0,0.0,0.0,-0.5470085470085471,0.8998778998778999,0.0,0.0,0.0,0.0,0.0,0.9987789987789988,0.0,0.0,0.0,0.0,0.0,0.7484737484737485,0.0,0.0,0.0,0.0,0.0,0.0,0.0,0.0,0.0,0.0,-0.525030525030525,0.0,0.0,0.0,0.0,0.0,0.0,0.0,0.0,0.0,0.0,0.0,0.0,0.0,0.0,0.0,0.0,0.0,0.0,0.0,0.0,0.0,0.0,0.0,0.0,0.0,0.0,0.0,0.0,0.0,0.0,-0.6153846153846154,0.0,0.0,0.0,0.0,0.0,-0.57997557997558,0.0,0.0,0.0,0.0,0.0,-0.5103785103785103,0.0,0.0,0.0,0.0,0.0,-0.6288156288156288,0.0,0.0,0.0,0.0,0.0,-0.6568986568986569,0.0,0.0,0.0,-0.568986568986569,0.0,-0.9145299145299144,0.0,0.0,0.0,0.0,0.0,-0.6324786324786325,0.0,0.0,0.0,0.0,0.0,0.0,0.0,0.0,0.0,0.0,0.0,0.0,0.0,0.0,0.0,0.0,0.0,0.0,0.0,0.0,0.0,0.0,0.0,0.0,0.0,0.0,0.0,0.0,0.0,0.0,0.0,0.0,0.0,0.0,0.0,0.0,0.0,0.0,0.0,0.0,0.0,-0.7130647130647131,0.0,0.0,0.0,-0.5238095238095238,0.0,-0.8803418803418803,0.0,0.0,0.0,0.0,0.0,-0.8131868131868132,0.0,0.0,0.0,0.0,0.0,-0.9084249084249084,0.0,0.0,0.0,,,,,,,,,,,,,,,,,,,,,,,,,start
accX,0.7411477411477412,-0.5641025641025641,0.0,0.0,0.0,0.0,0.0,0.7228327228327228,0.0,0.0,0.0,0.0,0.0,0.6642246642246642,0.0,0.0,0.0,0.0,0.0,0.0,-1.6056166056166057,0.0,0.0,0.0,0.0,0.6373626373626373,-2.2063492063492065,0.0,0.8125,0.0,0.0,1.1294261294261294,-3.2246642246642248,0.0,1.4375,0.6875,-1.120879120879121,1.7728937728937728,-4.561660561660561,0.65625,2.65625,1.40625,-0.5299145299145299,1.1587301587301588,-5.0256410256410255,1.0,3.90625,2.0,0.6324786324786325,0.8840048840048841,-4.567765567765568,1.375,5.03125,2.25,1.962148962148962,0.0,-3.9621489621489614,1.78125,5.875,1.90625,2.4725274725274726,-0.7912087912087912,-3.3907203907203907,1.90625,6.53125,1.25,1.4615384615384617,0.0,-2.5347985347985347,2.34375,7.28125,1.03125,-0.8021978021978022,1.290598290598291,-1.612942612942613,3.59375,8.625,1.6875,1.7887667887667889,0.0,1.827838827838828,4.125,9.90625,1.875,2.57997557997558,0.0,2.0415140415140414,4.46875,9.8125,1.5625,3.2612942612942613,0.0,2.1465201465201464,4.5625,9.09375,1.0,1.843711843711844,1.3357753357753357,2.056166056166056,4.6875,8.3125,0.53125,2.0097680097680097,0.5763125763125763,1.2735042735042734,5.03125,7.34375,0.0,0.0,-1.3418803418803418,0.0,5.09375,6.25,0.0,0.8412698412698413,-1.6434676434676434,-1.1062271062271063,4.75,5.625,0.0,0.9157509157509156,-2.52991452991453,-1.4578754578754578,4.375,4.84375,0.0,1.8498168498168501,-2.072039072039072,-1.5555555555555556,4.09375,3.96875,0.0,2.7106227106227108,-2.7496947496947497,-2.1465201465201464,3.84375,2.78125,0.0,1.6862026862026862,-2.973137973137973,-2.6788766788766787,3.40625,1.78125,-0.65625,0.0,-3.003663003663004,-2.7887667887667886,2.75,1.375,-1.03125,0.0,-2.039072039072039,-2.0744810744810747,2.59375,1.21875,-0.96875,0.0,-2.075702075702076,-1.7789987789987791,2.65625,0.6875,-0.96875,0.0,-2.5384615384615383,-2.389499389499389,2.5,0.0,-1.09375,-1.4126984126984128,-2.7411477411477403,-3.2783882783882783,2.03125,0.0,-1.15625,-1.8180708180708183,-1.465201465201465,-3.087912087912088,1.8125,0.0,-1.09375,-1.1575091575091576,0.0,-3.0805860805860807,1.9375,0.0,-0.96875,-1.6874236874236874,-1.4432234432234432,-4.478632478632479,1.75,-0.6875,-1.0,-2.8705738705738706,-1.2087912087912087,-5.174603174603175,1.28125,-0.59375,-0.875,-3.413919413919414,0.0,-5.045177045177045,1.0625,0.0,-0.53125,-2.7557997557997562,0.0,-4.771672771672772,0.90625,0.0,0.0,-2.0268620268620268,0.0,-4.363858363858364,0.75,0.0,0.0,-3.2246642246642248,-0.8278388278388278,-4.550671550671551,0.0,-0.53125,0.0,-3.028083028083028,0.0,-3.183150183150183,0.0,0.0,0.0,-1.7985347985347986,0.0,-2.0146520146520146,0.0,0.0,0.0,-1.3040293040293038,-0.503052503052503,-1.4102564102564104,0.0,0.0,0.0,-1.2747252747252746,-1.290598290598291,-1.2539682539682542,0.0,0.0,0.0,-1.1062271062271063,-1.1843711843711844,-0.7655677655677655,0.0,0.0,0.0,-0.5372405372405372,0.0,0.0,0.0,0.0,0.0,0.0,0.0,0.0,0.0,0.0,0.0,0.0,0.0,0.0,0.0,0.0,0.0,0.0,-1.0525030525030523,0.0,0.0,0.0,0.0,0.0,0.0,0.0,0.0,0.0,0.0,0.0,0.0,0.6178266178266179,0.0,0.0,0.0,0.5299145299145299,0.0,0.7301587301587301,0.0,0.0,0.0,0.0,0.0,0.6312576312576312,0.0,0.0,0.0,0.0,0.0,0.0,0.0,0.0,0.0,0.0,0.0,0.0,0.0,0.0,0.0,0.0,0.0,0.0,0.0,0.0,0.0,0.0,0.0,0.0,0.0,0.0,0.0,0.0,0.0,0.0,0.0,0.0,0.0,0.0,0.0,0.0,0.0,0.0,0.0,0.0,0.0,0.0,0.0,0.0,0.0,-0.6141636141636142,0.0,0.0,0.0,0.0,0.0,0.0,0.0,0.0,0.0,0.0,0.0,0.0,0.0,0.0,0.0,0.0,0.0,0.0,0.0,0.0,0.0,0.0,0.0,0.0,0.0,0.0,0.0,0.0,0.0,0.0,0.0,0.0,0.0,0.0,0.0,0.0,0.0,0.0,0.0,0.0,0.0,0.0,0.0,0.0,0.0,0.0,0.0,0.0,0.0,0.0,0.0,0.0,0.0,0.0,0.0,-0.5494505494505495,0.0,0.0,0.0,0.0,0.0,0.0,0.0,0.0,0.0,,,,,,,,,,,,,start
accX,0.778998778998779,0.0,-0.7924297924297924,0.0,-0.53125,0.0,0.0,0.0,-1.5323565323565325,0.0,0.0,0.0,0.0,1.3272283272283272,-2.126984126984127,0.0,0.0,0.0,-0.7960927960927959,2.087912087912088,-2.9951159951159956,0.75,1.1875,0.8125,-2.2234432234432235,2.56043956043956,-3.935286935286935,1.28125,2.71875,1.71875,0.0,1.3443223443223444,-4.643467643467643,1.6875,4.03125,2.40625,1.3113553113553114,-0.6581196581196581,-5.1330891330891335,1.71875,5.0,2.4375,2.9609279609279615,-1.3272283272283272,-2.238095238095238,1.78125,6.1875,1.78125,1.876678876678877,0.0,-0.7374847374847375,2.5625,7.28125,1.46875,1.8351648351648349,-0.9352869352869352,0.0,3.3125,8.34375,1.53125,3.0903540903540905,-1.5006105006105006,0.57997557997558,3.875,8.8125,1.46875,4.007326007326007,-1.1575091575091576,0.8534798534798534,4.0625,8.5625,1.03125,3.648351648351648,0.0,1.065934065934066,4.125,8.0,0.0,3.3638583638583635,1.0647130647130647,0.8901098901098901,4.09375,7.0,0.0,1.6251526251526252,1.3052503052503053,0.0,4.15625,6.09375,0.0,0.7912087912087912,1.6862026862026862,0.0,4.1875,5.53125,-0.53125,0.0,1.094017094017094,-1.031746031746032,4.34375,5.3125,-0.53125,1.2295482295482296,0.7289377289377289,-1.4114774114774116,4.40625,5.0,0.0,0.8717948717948718,-0.6800976800976801,-1.9584859584859584,4.375,4.34375,0.0,0.9536019536019535,-1.5262515262515262,-2.2576312576312576,4.03125,3.6875,0.0,0.8327228327228328,-1.68009768009768,-2.358974358974359,3.78125,3.40625,0.0,0.0,-1.8363858363858363,-2.017094017094017,3.625,3.21875,0.0,1.4358974358974361,-2.3907203907203907,-2.0769230769230766,3.5,2.625,0.0,1.8473748473748477,-3.2429792429792434,-2.9938949938949935,2.9375,1.6875,-0.90625,0.0,-2.532356532356532,-3.4590964590964592,2.375,1.03125,-1.1875,-2.183150183150183,-2.412698412698413,-3.5726495726495733,2.15625,1.125,-1.09375,-0.9633699633699634,-2.004884004884005,-3.7338217338217334,1.875,0.84375,-1.125,-0.7203907203907204,-1.2857142857142858,-3.913308913308913,1.59375,0.0,-1.3125,-2.669108669108669,0.0,-4.797313797313797,1.375,0.0,-1.25,-3.41025641025641,0.0,-5.468864468864468,1.125,0.0,-0.9375,-3.2991452991452985,0.0,-5.261294261294262,0.75,0.0,-0.53125,-2.31990231990232,0.0,-4.328449328449328,0.0,0.0,-0.53125,-2.4297924297924296,0.7936507936507936,-3.980463980463981,0.0,0.0,0.0,-2.8107448107448105,0.6898656898656899,-3.912087912087912,0.0,-0.53125,0.0,-2.600732600732601,0.0,-3.388278388278388,0.0,0.0,0.0,-1.4432234432234432,0.0,-2.412698412698413,0.0,0.0,0.0,-0.7106227106227107,0.0,-1.5726495726495726,0.0,0.0,0.0,-1.0634920634920637,0.0,-1.266178266178266,0.0,0.0,0.0,-0.9792429792429792,0.0,-1.0036630036630036,0.0,0.0,0.0,-0.7594627594627594,0.0,-0.5763125763125763,0.0,0.0,0.0,0.0,0.0,0.0,0.0,0.0,0.0,0.0,0.0,0.0,0.0,0.0,0.0,0.0,0.0,0.0,0.0,0.0,0.0,0.0,-0.514041514041514,0.0,0.0,0.0,0.0,0.0,-0.5873015873015873,0.5482295482295483,0.0,0.0,0.0,0.0,0.0,0.7728937728937729,0.0,0.0,0.0,0.0,0.0,0.7326007326007326,0.0,0.0,0.0,0.0,0.0,0.0,0.0,0.0,0.0,0.0,0.0,0.0,0.0,0.0,0.0,0.0,0.0,0.0,0.0,0.0,0.0,0.0,0.0,0.0,0.0,0.0,0.0,0.0,0.0,0.0,0.0,0.0,0.0,0.0,0.0,0.0,0.0,0.0,0.0,0.0,0.0,-0.5079365079365079,0.0,0.0,0.0,0.0,0.0,0.0,0.0,0.0,0.0,0.0,0.0,0.0,0.0,0.0,0.0,0.0,0.0,0.0,0.0,0.0,0.0,0.0,0.0,0.0,0.0,0.0,0.0,0.0,0.0,0.0,0.0,0.0,0.0,0.0,0.0,0.0,0.0,0.0,0.0,0.0,0.0,0.0,0.0,0.0,0.0,0.0,0.0,-0.5775335775335775,0.0,0.0,0.0,0.0,0.0,-0.6849816849816851,0.0,0.0,0.0,0.0,0.0,-0.7838827838827839,0.0,0.0,0.0,-0.6593406593406593,0.0,-1.1355311355311355,0.0,0.0,0.0,-0.984126984126984,0.0,-1.6556776556776556,-0.5625,0.0,0.0,,,,,,,,,,,,,,,,,,,,,,,,,start
accX,0.0,0.0,-0.5238095238095238,0.0,0.0,0.0,0.0,1.037851037851038,-0.5409035409035409,0.0,0.0,0.0,0.0,0.5628815628815629,-1.8107448107448108,0.0,0.0,0.0,0.0,1.4981684981684982,-3.5909645909645915,0.65625,0.625,0.78125,-1.4358974358974361,2.793650793650793,-5.738705738705739,1.15625,2.40625,1.6875,-0.6459096459096461,2.095238095238096,-7.3186813186813175,1.65625,4.34375,2.75,2.240537240537241,-0.5299145299145299,-6.943833943833944,1.53125,5.375,2.84375,3.195360195360196,-0.8449328449328449,-4.829059829059829,1.4375,5.875,2.46875,1.2283272283272284,0.0,-2.7472527472527477,2.09375,6.96875,2.375,-1.326007326007326,1.9291819291819288,0.0,3.5625,8.84375,2.59375,0.0,0.8632478632478633,1.199023199023199,4.90625,10.15625,2.625,2.3455433455433456,-0.6361416361416361,1.3235653235653235,5.375,10.28125,2.0625,2.4652014652014653,0.0,0.94993894993895,5.4375,9.8125,1.3125,1.3357753357753357,0.0,0.9255189255189256,5.625,9.53125,1.15625,1.7692307692307692,-0.7032967032967034,1.043956043956044,5.8125,8.90625,1.1875,2.1623931623931623,-2.8376068376068377,1.2442002442002442,5.96875,7.03125,0.96875,2.1233211233211238,-3.761904761904762,0.0,5.5,5.75,0.6875,3.655677655677656,-4.013431013431013,0.0,4.9375,4.3125,0.0,3.4737484737484734,-4.4322344322344325,-1.123321123321123,4.28125,2.4375,0.0,1.3992673992673992,-3.8669108669108665,-1.6227106227106227,3.75,0.90625,-0.96875,0.0,-3.183150183150183,-2.5836385836385842,3.46875,0.0,-1.34375,-0.9426129426129426,-2.4065934065934065,-3.4884004884004884,3.15625,0.0,-1.46875,-1.9352869352869355,-3.347985347985348,-4.56043956043956,2.78125,0.0,-1.5,-1.9804639804639803,-1.879120879120879,-3.496947496947497,2.28125,0.5625,-1.4375,-1.4236874236874235,-1.5323565323565325,-2.93040293040293,2.34375,0.0,-1.28125,-0.7252747252747253,-2.115995115995116,-3.5494505494505493,2.3125,0.0,-1.28125,-2.3345543345543347,-2.1416361416361416,-4.74969474969475,1.625,-0.90625,-1.6875,-4.048840048840049,0.0,-5.598290598290597,1.40625,-0.84375,-1.53125,-4.714285714285714,0.0,-6.206349206349207,1.21875,-0.5625,-1.0625,-4.291819291819292,0.0,-6.125763125763125,0.96875,0.0,-0.6875,-4.0024420024420015,0.0,-6.061050061050061,0.0,-0.53125,0.0,-4.328449328449328,0.0,-5.501831501831502,0.0,0.0,0.0,-4.409035409035409,0.0,-4.463980463980464,0.0,0.0,0.0,-3.514041514041514,0.0,-3.0293040293040288,0.0,0.0,0.0,-2.511599511599512,0.0,-1.843711843711844,0.0,0.0,0.0,-1.6251526251526252,-0.5616605616605617,-1.2881562881562882,0.0,0.0,0.0,-1.4896214896214897,0.0,-0.8485958485958486,0.0,0.0,0.0,-1.0744810744810744,0.0,0.0,0.0,0.0,0.0,0.0,-0.5616605616605617,0.0,0.0,0.0,0.0,0.0,-0.6739926739926739,0.0,0.0,0.0,0.0,0.0,0.0,0.5445665445665445,0.0,0.0,0.0,0.0,0.0,0.7960927960927959,0.0,0.0,0.0,0.525030525030525,0.0,0.5934065934065934,0.0,0.0,0.0,0.0,0.0,0.0,0.0,0.0,0.0,0.0,0.0,0.0,0.0,0.0,0.0,0.0,0.0,0.0,0.0,0.0,0.0,0.0,0.0,0.0,0.0,0.0,0.0,0.0,0.0,0.0,0.0,0.0,0.0,0.0,0.0,0.0,0.0,0.0,0.0,0.0,0.0,0.0,0.0,0.0,0.0,0.0,0.0,0.0,0.0,0.0,0.0,0.0,0.0,0.0,0.0,0.0,0.0,0.0,0.0,0.0,0.0,0.0,0.0,0.0,0.0,0.0,0.0,0.0,0.0,0.0,0.0,0.0,0.0,0.0,0.0,0.0,0.0,0.0,0.0,0.0,0.0,0.0,0.0,0.0,0.0,0.0,0.0,0.0,0.0,0.0,0.0,0.0,0.0,0.0,0.0,0.0,0.0,0.0,0.0,0.0,0.0,0.0,0.0,0.0,0.0,0.0,0.0,0.0,0.0,0.0,0.0,0.0,0.0,-0.5555555555555556,0.0,0.0,0.0,0.0,0.0,0.0,0.0,0.0,0.0,0.0,0.0,0.0,0.0,0.0,0.0,0.0,0.0,0.0,0.0,0.0,0.0,0.0,0.0,0.0,0.0,0.0,0.0,-0.5115995115995116,0.0,-0.6678876678876678,0.0,0.0,0.0,-0.9230769230769232,0.0,-0.9169719169719168,0.0,0.0,0.0,-0.8717948717948718,0.0,-1.2087912087912087,0.0,0.0,0.0,,,,,,,start
accX,0.0,0.0,0.5213675213675214,0.0,0.0,0.0,0.0,0.0,0.0,0.0,0.0,0.0,0.7130647130647131,0.0,-1.5421245421245422,0.0,0.0,0.0,0.0,1.4578754578754578,-3.8058608058608057,0.6875,0.0,0.0,-1.133089133089133,2.5409035409035408,-5.719169719169719,1.0,1.375,0.75,-1.1111111111111112,2.1123321123321124,-6.815628815628816,1.46875,3.46875,1.875,1.006105006105006,0.5738705738705738,-5.7985347985347975,1.78125,5.375,2.5,1.6764346764346765,0.0,-4.106227106227107,1.90625,6.53125,2.4375,0.9426129426129426,0.5518925518925519,-2.217338217338217,2.3125,7.53125,2.34375,-0.7277167277167277,1.2246642246642248,0.0,3.1875,8.78125,2.46875,0.6178266178266179,1.286935286935287,1.617826617826618,4.21875,10.0,2.6875,1.4603174603174602,1.1013431013431014,2.6056166056166057,5.25,10.53125,2.6875,3.7692307692307687,-1.6495726495726497,1.9218559218559217,5.9375,10.40625,2.25,5.2747252747252755,-2.271062271062271,0.8217338217338217,5.09375,9.5625,0.53125,3.503052503052503,0.0,0.0,4.84375,7.4375,0.0,1.6105006105006106,0.0,0.0,4.96875,6.65625,0.0,0.8571428571428571,-1.0793650793650793,-0.9230769230769232,5.03125,6.09375,0.0,1.8424908424908424,-3.5152625152625148,-1.984126984126984,4.53125,5.34375,0.0,1.5225885225885225,-3.1135531135531136,-2.1147741147741153,4.0625,4.59375,0.0,2.8949938949938954,-2.958485958485958,-1.321123321123321,3.875,3.53125,0.0,3.1965811965811968,-3.75946275946276,-1.1282051282051282,3.59375,2.0625,0.0,1.275946275946276,-4.656898656898657,-1.4517704517704515,3.15625,1.09375,-0.8125,0.0,-2.7851037851037854,-1.661782661782662,3.09375,0.65625,-1.0,0.0,-2.954822954822955,-2.518925518925519,3.0,0.0,-1.0625,-0.7289377289377289,-2.8693528693528694,-3.031746031746032,2.78125,0.0,-1.125,-1.5054945054945057,-3.0293040293040288,-3.357753357753358,2.375,0.0,-1.03125,-1.514041514041514,-0.9023199023199024,-3.9670329670329667,2.25,0.0,-1.03125,-2.062271062271062,-0.7155067155067155,-4.736263736263736,2.125,0.0,-1.03125,-2.1294261294261294,0.0,-5.252747252747253,1.84375,0.0,-0.90625,-2.238095238095238,0.0,-5.644688644688644,1.46875,-0.5625,-0.84375,-2.778998778998779,0.0,-6.004884004884005,1.09375,-0.71875,-0.78125,-4.001221001221002,0.0,-6.262515262515263,0.75,-0.5625,-0.5625,-3.236874236874237,0.0,-5.526251526251526,0.0,0.0,0.0,-2.6984126984126986,0.0,-4.263736263736264,0.0,0.0,0.0,-2.268620268620269,0.0,-3.0830280830280827,0.0,0.0,0.0,-1.7936507936507935,0.0,-2.137973137973138,0.0,0.0,0.0,-2.0842490842490844,-0.7228327228327228,-2.1807081807081805,0.0,0.0,0.0,-1.8778998778998781,-0.9426129426129426,-1.9694749694749696,0.0,0.0,0.0,-0.8974358974358975,-0.5531135531135531,-1.051282051282051,0.0,0.0,0.0,0.0,0.0,0.0,0.0,0.0,0.0,0.0,0.0,0.0,0.0,0.0,0.0,0.0,-0.6996336996336996,0.0,0.0,0.0,0.0,0.0,0.0,0.0,0.0,0.0,0.0,0.0,0.0,0.0,0.0,0.0,0.0,0.0,0.0,0.6446886446886447,0.0,0.0,0.0,0.0,0.0,0.0,0.0,0.0,0.0,0.0,0.0,0.0,0.0,0.0,0.0,0.0,0.0,0.0,0.0,0.0,0.0,0.0,0.0,0.0,0.0,0.0,0.0,0.0,0.0,0.0,0.0,0.0,0.0,0.0,0.0,0.0,0.0,0.0,0.0,0.0,0.0,0.0,0.0,0.0,0.0,0.0,0.0,0.0,0.0,0.0,0.0,0.0,0.0,-0.5970695970695971,0.0,0.0,0.0,0.0,0.0,-0.7155067155067155,0.0,0.0,0.0,0.0,0.0,-0.8266178266178266,0.0,0.0,0.0,-0.5604395604395604,0.0,-0.7240537240537241,0.0,0.0,0.0,-0.6471306471306472,0.0,0.0,0.0,0.0,0.0,0.0,0.0,0.0,0.0,0.0,0.0,0.0,0.0,0.0,0.0,0.0,0.0,0.0,0.0,0.0,0.0,0.0,0.0,0.0,0.0,0.0,0.0,0.0,0.0,0.0,0.0,0.0,0.0,0.0,0.0,0.0,0.0,0.0,0.0,0.0,0.0,0.0,0.0,0.0,0.0,0.0,0.0,0.0,0.0,-0.9010989010989012,0.0,0.0,0.0,,,,,,,,,,,,,,,,,,,,,,,,,start
accX,0.0,0.0,0.0,0.53125,0.0,0.0,0.0,0.7741147741147741,0.0,0.90625,0.0,0.59375,-1.5873015873015872,1.5592185592185592,-1.5299145299145298,1.40625,1.625,1.3125,-1.2466422466422469,2.105006105006105,-2.357753357753358,2.1875,3.09375,2.15625,1.195360195360195,0.0,-3.245421245421245,2.4375,3.8125,2.375,2.518925518925519,-0.8034188034188035,-3.501831501831502,2.09375,3.9375,2.0625,1.1587301587301588,-0.7741147741147741,-4.208791208791209,2.0,4.75,1.90625,0.5897435897435898,0.0,-3.221001221001221,2.53125,6.0625,1.84375,0.6654456654456654,0.0,-2.0488400488400487,3.1875,7.15625,1.71875,0.0,0.0,-1.4884004884004884,3.9375,8.09375,1.84375,0.0,0.0,-1.1147741147741148,4.6875,8.96875,2.125,-0.9609279609279608,0.0,0.0,5.65625,10.1875,2.46875,2.525030525030525,-1.8168498168498168,1.0,6.1875,10.3125,2.0625,2.9072039072039066,-1.9194139194139197,3.1709401709401708,6.34375,8.5,1.46875,2.3943833943833943,-3.792429792429792,2.2185592185592187,6.53125,7.6875,1.21875,3.3272283272283274,-4.336996336996338,1.4029304029304028,6.46875,6.90625,1.1875,4.904761904761905,-5.575091575091576,0.0,5.9375,5.25,0.84375,4.545787545787546,-5.481074481074481,0.0,5.0625,3.15625,0.0,2.4004884004884004,-5.006105006105006,-0.5128205128205128,4.375,1.5625,0.0,1.3247863247863247,-4.459096459096459,-1.2735042735042734,3.96875,0.75,-0.9375,0.0,-4.1098901098901095,-1.9365079365079363,3.625,0.0,-1.15625,0.0,-3.514041514041514,-2.1941391941391943,3.375,0.0,-1.25,-1.1575091575091576,-3.705738705738706,-2.376068376068376,3.1875,0.0,-1.28125,-1.2698412698412698,-3.3687423687423688,-2.9413919413919416,2.96875,0.0,-1.375,-1.4932844932844933,-2.5067155067155067,-3.05982905982906,2.84375,-0.71875,-1.4375,-2.3956043956043955,-2.361416361416361,-3.568986568986569,2.6875,-0.84375,-1.3125,-3.5470085470085464,-2.6434676434676434,-4.368742368742368,2.375,-0.78125,-1.21875,-2.9572649572649574,-1.5873015873015872,-4.504273504273504,2.0625,-0.90625,-1.21875,-3.3223443223443225,-0.663003663003663,-5.181929181929182,1.84375,-1.28125,-1.125,-4.087912087912088,-0.6153846153846154,-6.656898656898657,1.53125,-1.34375,-1.0,-4.747252747252747,0.0,-7.484737484737486,1.09375,-1.0,-0.90625,-4.672771672771673,0.0,-7.207570207570207,0.75,-0.59375,-0.625,-4.2173382173382175,0.0,-6.562881562881563,0.0,0.0,0.0,-3.258852258852259,0.0,-5.537240537240537,0.0,0.0,0.0,-3.0073260073260077,0.0,-4.131868131868131,0.0,0.0,0.0,-2.5763125763125765,0.0,-3.0048840048840044,0.0,0.0,0.0,-1.424908424908425,0.0,-1.5018315018315018,0.0,0.0,0.0,-1.194139194139194,0.0,-0.8754578754578755,0.0,0.0,0.0,-0.6764346764346765,0.0,0.0,0.0,0.0,0.0,0.0,0.0,0.0,0.0,0.0,0.0,0.0,0.0,0.0,0.0,0.0,0.0,0.0,0.0,0.0,0.0,0.0,0.0,0.0,0.0,0.6080586080586079,0.0,0.0,0.0,0.63003663003663,0.0,1.0793650793650793,0.0,0.0,0.0,0.5531135531135531,0.0,0.8681318681318682,0.0,0.0,0.0,0.0,0.0,0.0,0.0,0.0,0.0,0.0,0.0,0.0,0.0,0.0,0.0,0.0,0.0,0.0,0.0,0.0,0.0,0.0,0.0,0.0,0.0,0.0,0.0,0.0,0.0,0.0,0.0,0.0,0.0,-0.5079365079365079,0.0,-0.6471306471306472,0.0,0.0,0.0,-0.5286935286935287,0.0,-0.6459096459096461,0.0,0.0,0.0,0.0,0.0,0.0,0.0,0.0,0.0,0.0,0.0,0.0,0.0,0.0,0.0,0.0,0.0,0.0,0.0,0.0,0.0,0.0,0.0,-0.5384615384615384,0.0,0.0,0.0,0.0,0.0,0.0,0.0,0.0,0.0,0.0,0.0,0.0,0.0,0.0,0.0,0.0,0.0,0.0,0.0,0.0,0.0,0.0,0.0,0.0,0.0,0.0,0.0,0.0,0.0,0.0,0.0,0.0,0.0,0.0,0.0,0.0,0.0,0.0,0.0,0.0,0.0,0.0,0.0,0.0,0.0,0.0,0.0,0.0,0.0,0.0,0.0,0.0,0.0,0.0,0.0,0.0,0.0,0.0,0.0,0.0,0.0,0.0,0.0,-0.5018315018315018,0.0,-0.8046398046398047,0.0,0.0,0.0,-0.7387057387057387,0.0,-1.2271062271062272,0.0,0.0,0.0,-0.9597069597069596,0.0,-1.3711843711843712,0.0,0.0,0.0,-1.0415140415140416,0.0,-1.474969474969475,0.0,0.0,0.0,start
accX,0.0,1.2612942612942613,-0.6398046398046398,0.625,0.0,0.0,0.5177045177045178,1.6459096459096458,-2.881562881562881,1.09375,0.0,0.0,1.1147741147741148,0.0,-5.53968253968254,0.625,0.90625,0.0,2.1648351648351647,0.0,-6.736263736263736,0.0,1.40625,0.0,0.8522588522588522,1.1245421245421243,-6.763125763125763,0.0,2.40625,0.75,0.0,1.7374847374847375,-6.5555555555555545,0.6875,3.84375,1.4375,0.0,0.0,-5.9010989010989015,1.125,5.15625,1.78125,1.5482295482295485,0.0,-5.056166056166056,1.34375,5.96875,1.375,1.7264957264957266,0.0,-4.078144078144078,1.78125,6.625,0.8125,0.5946275946275946,0.0,-3.417582417582417,2.34375,7.375,0.5625,-2.2869352869352872,0.9584859584859584,-2.94993894993895,3.1875,8.84375,0.71875,-2.8754578754578755,1.6007326007326008,-2.1343101343101343,3.9375,10.40625,1.0625,-2.2783882783882783,2.3504273504273505,-1.2857142857142858,4.5,11.28125,1.3125,4.297924297924298,1.0415140415140416,2.791208791208791,5.0,10.5,0.5625,3.126984126984127,0.0,1.5934065934065933,5.25,8.6875,0.0,1.3968253968253967,-1.1416361416361416,0.0,5.125,7.03125,-0.90625,0.0,-1.8266178266178263,-1.0915750915750917,4.8125,5.90625,-0.875,0.0,-1.8754578754578757,-1.5775335775335777,4.46875,5.03125,-0.75,0.5518925518925519,-2.452991452991453,-1.7448107448107448,4.21875,3.8125,-0.71875,-0.6105006105006106,-3.7985347985347984,-2.3418803418803416,3.90625,2.65625,-0.8125,-1.1575091575091576,-2.9194139194139197,-2.884004884004884,3.59375,2.1875,-0.90625,-0.8522588522588522,-2.8253968253968256,-3.0549450549450547,3.375,1.90625,-1.0625,-1.2368742368742371,-2.7814407814407813,-3.120879120879121,3.09375,1.40625,-1.125,-1.5482295482295485,-2.7570207570207566,-3.3076923076923075,2.90625,0.9375,-1.1875,-2.4481074481074483,-2.3553113553113554,-3.852258852258852,2.65625,0.0,-1.15625,-3.455433455433456,-1.987789987789988,-4.57020757020757,2.15625,0.0,-1.0,-3.1941391941391943,-1.0488400488400489,-4.768009768009769,1.9375,0.0,-0.84375,-2.5433455433455427,-0.9975579975579976,-5.0256410256410255,1.6875,0.0,-0.78125,-3.2283272283272284,-1.2808302808302807,-5.62026862026862,1.21875,-0.5625,-0.75,-4.032967032967034,-0.7423687423687424,-5.68986568986569,0.8125,0.0,-0.53125,-3.948717948717949,-0.5970695970695971,-5.228327228327228,0.0,0.0,0.0,-3.1062271062271063,-0.7264957264957265,-4.096459096459096,0.0,0.0,0.0,-2.647130647130647,-0.6739926739926739,-3.0854700854700856,0.0,0.0,0.0,-2.288156288156288,-1.1526251526251523,-2.559218559218559,0.0,0.0,0.0,-1.6581196581196582,-0.9133089133089132,-1.78998778998779,0.0,0.0,0.0,-0.7655677655677655,-0.5201465201465202,-0.8742368742368742,0.0,0.0,0.0,0.0,-0.5702075702075702,0.0,0.0,0.0,0.0,0.0,-0.8583638583638583,0.0,0.0,0.0,0.0,0.0,-0.6764346764346765,0.0,0.0,0.0,0.0,0.0,-0.5225885225885226,0.0,0.0,0.0,0.0,0.0,-0.518925518925519,0.0,0.0,0.0,0.0,0.0,-0.9169719169719168,0.0,0.0,0.0,0.0,0.0,-0.7496947496947497,0.0,0.0,0.0,0.0,0.0,-0.6019536019536019,0.0,0.0,0.0,0.0,0.0,0.0,0.0,0.0,0.0,0.0,0.0,0.0,0.5946275946275946,0.0,0.0,0.0,0.0,-0.63003663003663,0.0,0.0,0.0,0.0,0.0,-0.7094017094017094,0.0,0.0,0.0,0.0,0.0,0.0,0.0,0.0,0.0,0.0,0.0,0.0,0.0,0.0,0.0,0.0,0.0,0.0,0.0,0.0,0.0,0.0,0.0,-0.5311355311355311,-0.57997557997558,0.0,0.0,0.0,0.0,-0.514041514041514,-0.6886446886446886,0.0,0.0,0.0,0.0,0.0,-0.5787545787545788,0.0,0.0,0.0,-0.5006105006105006,0.0,-0.5702075702075702,0.0,0.0,0.0,0.0,-0.6349206349206349,-0.6788766788766789,0.0,0.0,0.0,-0.7509157509157509,-0.6324786324786325,-0.8791208791208791,0.0,0.0,0.0,-0.984126984126984,-0.5848595848595849,-1.0769230769230769,0.0,0.0,0.0,-0.8266178266178266,-0.5738705738705738,-1.3931623931623929,0.0,0.0,0.0,,,,,,,,,,,,,,,,,,,,,,,,,,,,,,,,,,,,,,,,,,,,,,,,,,,,,,,,,,,,,,,,,,,start
accX,0.0,0.0,-0.8485958485958486,0.0,0.0,0.0,0.6483516483516484,0.0,-1.4517704517704515,0.0,0.0,0.0,1.271062271062271,0.0,-2.010989010989011,0.0,0.0,0.0,0.8290598290598291,0.971916971916972,-2.7924297924297923,0.0,0.0,0.0,1.0231990231990231,0.7875457875457875,-4.520146520146519,0.0,0.0,0.0,0.8400488400488401,0.0,-6.170940170940171,0.0,0.875,0.0,0.0,0.0,-5.774114774114773,0.0,1.78125,0.0,-0.9279609279609279,1.5286935286935286,-4.873015873015873,0.0,2.8125,0.5625,-1.1587301587301588,1.2307692307692308,-4.5054945054945055,0.0,4.21875,1.375,0.0,0.0,-3.9181929181929176,0.0,4.59375,1.3125,1.0842490842490842,0.0,-3.778998778998779,0.0,4.6875,0.875,-1.065934065934066,0.78998778998779,-3.996336996336997,0.53125,5.71875,0.75,-1.8192918192918195,0.6141636141636142,-3.523809523809524,1.28125,7.375,1.0625,-1.0293040293040292,0.0,-2.484737484737485,1.84375,8.46875,1.375,0.0,0.0,-1.4126984126984128,2.1875,8.8125,1.25,0.0,0.7374847374847375,-1.0598290598290598,2.53125,8.75,0.96875,0.0,2.78998778998779,-0.7228327228327228,2.96875,8.65625,0.6875,0.5299145299145299,3.935286935286935,0.0,3.40625,8.25,0.0,1.3699633699633702,2.9694749694749696,-0.9133089133089132,3.59375,7.34375,0.0,0.0,2.3015873015873014,-1.5396825396825398,3.65625,6.25,0.0,-1.5091575091575091,1.52014652014652,-1.2014652014652014,3.75,5.71875,0.0,-0.6007326007326007,1.3601953601953602,-1.5824175824175823,3.90625,5.53125,0.0,-0.8717948717948718,0.9450549450549449,-2.1636141636141635,4.0625,5.03125,0.0,-0.5347985347985348,-1.5079365079365081,-2.7423687423687424,4.0,4.875,0.0,1.3724053724053724,-1.166056166056166,-2.5873015873015874,3.5625,4.4375,0.0,2.3553113553113554,-1.4847374847374848,-2.653235653235653,3.15625,3.40625,0.0,1.3894993894993894,-1.9047619047619049,-2.5702075702075704,2.75,2.1875,0.0,0.0,-2.0134310134310134,-2.645909645909646,2.53125,1.34375,-0.84375,-0.6642246642246642,-2.5360195360195363,-3.2490842490842486,2.1875,0.8125,-1.15625,-1.5592185592185592,-0.9865689865689866,-3.2148962148962146,1.625,0.53125,-1.1875,-1.5982905982905984,0.0,-3.101343101343101,1.53125,0.0,-1.0,-1.4102564102564104,-0.9242979242979243,-2.9914529914529915,1.3125,0.0,-0.8125,-2.1367521367521367,-1.7838827838827842,-2.8351648351648358,1.0625,0.0,-0.78125,-1.7814407814407816,-0.9157509157509156,-2.291819291819292,0.9375,0.0,-0.78125,-2.184371184371184,0.0,-2.291819291819292,0.9375,0.0,-0.6875,-2.2796092796092795,0.0,-2.8180708180708183,0.875,0.0,0.0,-1.9914529914529917,-0.7545787545787546,-3.357753357753358,0.625,0.0,0.0,-1.984126984126984,-0.5738705738705738,-3.6544566544566544,0.0,0.0,0.0,-2.6361416361416357,0.0,-3.7130647130647128,0.0,0.0,0.0,-2.3968253968253967,0.0,-3.2991452991452985,0.0,0.0,0.0,-1.7301587301587302,0.0,-3.0085470085470085,0.0,0.0,0.0,-1.0671550671550671,-0.63003663003663,-2.7948717948717947,0.0,0.0,0.0,-0.8485958485958486,0.0,-2.393162393162393,0.0,0.0,0.0,0.0,0.0,-0.7985347985347986,0.0,0.0,0.0,0.0,0.0,0.0,0.0,0.0,0.0,0.0,0.0,0.0,0.0,0.0,0.0,0.0,-1.031746031746032,0.0,0.0,0.0,0.0,0.0,-0.6568986568986569,0.0,0.0,0.0,0.0,0.0,0.0,0.7912087912087912,0.0,0.0,0.0,0.0,0.0,0.5738705738705738,0.0,0.0,0.0,0.0,0.0,0.0,0.0,0.0,0.0,0.0,0.0,0.0,0.0,0.0,0.0,0.0,0.0,0.0,0.0,0.0,0.0,0.0,0.0,0.0,0.0,0.0,0.0,0.0,0.0,0.0,0.0,0.0,0.0,0.0,0.0,0.0,0.0,0.0,0.0,0.0,0.0,0.0,0.0,0.0,0.0,0.0,0.0,0.0,0.0,0.0,0.0,0.0,0.0,0.0,0.0,0.0,0.0,0.0,0.0,-0.5677655677655677,0.0,0.0,0.0,0.0,0.0,-0.8449328449328449,0.0,0.0,0.0,-0.5262515262515263,0.0,-0.9401709401709402,0.0,0.0,0.0,-0.6422466422466423,0.0,-1.2393162393162394,0.0,0.0,0.0,-0.978021978021978,0.0,-1.3601953601953602,0.0,0.0,0.0,-0.8717948717948718,0.0,-1.3748473748473748,0.0,0.0,0.0,-1.0683760683760684,0.0,-1.474969474969475,0.0,0.0,0.0,-0.8388278388278388,0.0,-1.4114774114774116,-0.53125,0.0,0.0,-1.2112332112332111,0.0,-1.6886446886446886,0.0,0.0,0.0,-1.6043956043956045,0.0,-2.2649572649572653,0.0,0.0,0.0,,,,,,,start
accX,1.6654456654456655,0.0,-1.2808302808302807,0.0,0.0,0.0,0.8437118437118437,0.0,-2.352869352869353,0.0,0.0,0.0,0.0,1.1526251526251523,-3.4224664224664223,0.53125,0.8125,0.0,-1.2124542124542124,2.5677655677655684,-4.278388278388278,0.8125,2.0,1.40625,-1.8034188034188037,2.2588522588522593,-5.286935286935287,1.34375,3.8125,2.53125,0.0,0.0,-5.0366300366300365,1.375,4.78125,2.78125,1.5604395604395604,-0.5238095238095238,-3.9181929181929176,1.34375,5.4375,2.3125,1.0183150183150182,0.0,-3.0842490842490844,1.75,6.28125,2.03125,0.0,0.7826617826617827,-2.173382173382173,2.34375,7.28125,2.0625,-1.4664224664224663,1.647130647130647,-1.1294261294261294,3.09375,8.4375,2.5,0.8778998778998779,0.6605616605616605,2.04029304029304,4.09375,9.1875,2.6875,0.7008547008547008,0.5836385836385837,2.1965811965811968,4.65625,9.34375,2.46875,1.9426129426129424,0.0,2.52014652014652,4.96875,9.34375,2.28125,1.3113553113553114,0.0,2.175824175824176,5.0,8.75,2.09375,2.1721611721611715,-1.1807081807081807,1.7167277167277166,5.125,7.9375,1.8125,1.8669108669108667,-2.21001221001221,0.9304029304029304,5.125,7.0,1.46875,2.94993894993895,-2.532356532356532,0.0,4.875,5.9375,1.15625,3.78998778998779,-2.7228327228327234,-1.10989010989011,4.375,4.5,0.71875,3.5409035409035408,-2.3223443223443225,-1.9645909645909645,3.8125,2.90625,0.0,2.192918192918193,-2.4224664224664223,-3.0195360195360195,3.125,1.59375,0.0,0.0,-1.5030525030525033,-3.0561660561660564,2.5625,1.125,-0.78125,0.0,-1.3894993894993894,-2.509157509157509,2.25,1.3125,-0.625,0.536019536019536,-1.6202686202686205,-1.7973137973137974,2.03125,0.875,-0.65625,0.0,-1.9242979242979243,-1.1904761904761905,1.875,0.0,-0.90625,-0.8888888888888888,-2.1074481074481075,-1.0989010989010992,1.8125,0.0,-1.0,-2.1575091575091574,-2.0854700854700856,-1.0,1.875,0.0,-0.875,-1.887667887667888,-2.3369963369963367,-0.9829059829059827,1.90625,0.0,-0.84375,-2.3089133089133087,-2.3553113553113554,-0.978021978021978,1.75,0.0,-1.0,-2.1672771672771667,-2.0085470085470085,-1.4261294261294262,1.65625,0.0,-1.0,-2.4236874236874235,-1.2686202686202686,-1.8742368742368745,1.625,-0.5625,-0.96875,-2.137973137973138,-1.1843711843711844,-2.9572649572649574,1.625,-0.65625,-0.9375,-2.426129426129426,-0.934065934065934,-3.95970695970696,1.46875,-0.625,-0.9375,-2.772893772893773,-0.7985347985347986,-4.905982905982906,1.1875,0.0,-0.90625,-2.5445665445665444,0.0,-5.118437118437118,0.65625,0.0,-0.8125,-3.1404151404151404,1.1819291819291822,-5.158730158730159,0.65625,0.0,0.0,-2.829059829059829,1.0976800976800978,-4.915750915750916,0.0,0.0,0.0,-2.227106227106227,0.8986568986568987,-4.398046398046398,0.0,0.0,0.0,-1.5702075702075702,0.9816849816849816,-3.766788766788767,0.0,0.0,0.0,-1.4884004884004884,1.4236874236874235,-2.727716727716728,0.0,0.0,0.0,-0.9010989010989012,0.6105006105006106,-2.092796092796093,0.0,0.0,0.0,-0.57997557997558,0.0,-1.8937728937728937,0.0,0.0,0.0,0.0,0.0,-0.9267399267399268,0.0,0.0,0.0,0.0,0.0,0.0,0.0,0.0,0.0,0.0,0.0,0.5164835164835165,0.0,0.0,0.0,0.0,-0.7655677655677655,0.0,0.0,0.0,0.0,0.0,-0.6105006105006106,0.0,0.0,0.0,0.0,0.0,0.0,0.0,0.0,0.0,0.0,0.0,0.0,0.7362637362637363,0.0,0.0,0.0,0.0,0.0,0.0,0.0,0.0,0.0,0.0,0.0,0.0,0.0,0.0,0.0,0.0,0.0,0.0,0.0,0.0,0.0,0.0,0.0,0.0,0.0,0.0,0.0,0.0,0.0,0.0,0.0,0.0,0.0,0.0,0.0,0.0,0.0,0.0,0.0,0.0,0.0,0.0,0.0,0.0,0.0,0.0,0.0,0.0,0.0,0.0,0.0,0.0,0.0,0.0,0.0,0.0,0.0,0.0,0.0,0.0,0.0,0.0,0.0,0.0,0.0,0.0,0.0,0.0,0.0,0.0,0.0,0.0,0.0,0.0,0.0,0.0,0.0,0.0,0.0,0.0,0.0,0.0,0.0,0.0,0.0,0.0,0.0,-0.5848595848595849,0.0,-0.78998778998779,0.0,0.0,0.0,0.0,0.0,-0.7692307692307693,0.0,0.0,0.0,0.0,0.0,-0.8803418803418803,0.0,0.0,0.0,-0.5494505494505495,0.0,-1.2515262515262515,0.0,0.0,0.0,-0.7374847374847375,0.0,-1.5286935286935286,0.0,0.0,0.0,-1.5885225885225884,0.0,-1.9352869352869355,0.0,0.0,0.0,,,,,,,,,,,,,start
accX,0.0,0.6117216117216118,0.0,0.53125,0.0,0.0,0.0,1.0012210012210012,-0.514041514041514,0.75,0.0,0.0,-0.6251526251526252,1.7045177045177045,-2.1257631257631258,1.15625,0.96875,1.09375,-1.413919413919414,2.2783882783882783,-5.264957264957265,1.6875,2.53125,2.21875,0.0,0.0,-7.709401709401709,1.8125,4.3125,2.96875,1.9255189255189256,-2.0146520146520146,-7.01953601953602,1.59375,5.71875,3.0625,2.8656898656898657,-1.568986568986569,-4.252747252747253,1.625,6.28125,2.71875,2.075702075702076,0.0,-2.5103785103785103,1.96875,6.5625,2.53125,0.0,0.6239316239316239,-1.8803418803418803,2.71875,7.1875,2.46875,1.2503052503052503,1.2246642246642248,-1.10989010989011,3.5,7.625,2.0625,1.7130647130647132,0.8974358974358975,-0.8388278388278388,4.21875,7.96875,1.4375,3.4542124542124544,0.0,-1.1074481074481075,4.34375,7.6875,0.71875,2.05006105006105,0.0,-1.7301587301587302,4.1875,7.28125,0.0,0.0,2.4566544566544573,-1.0708180708180708,5.15625,7.5625,0.0,0.0,0.663003663003663,0.0,5.59375,7.40625,0.71875,0.6422466422466423,-1.1111111111111112,0.0,5.71875,7.03125,0.78125,0.8986568986568987,-1.9572649572649568,-0.5213675213675214,5.4375,6.375,0.71875,0.6288156288156288,-1.1978021978021978,0.0,5.375,5.59375,0.875,1.3943833943833943,-4.1782661782661785,-1.6202686202686205,5.46875,5.0,1.0,3.8766788766788767,-5.733821733821733,-2.7570207570207566,4.5625,3.78125,0.0,2.590964590964591,-3.731379731379731,-2.7399267399267404,3.28125,1.78125,-0.71875,-1.938949938949939,-1.468864468864469,-2.586080586080586,2.84375,0.625,-1.125,-2.073260073260073,-1.987789987789988,-2.8180708180708183,2.9375,0.6875,-0.8125,-0.8229548229548229,-2.9316239316239314,-3.1330891330891335,2.6875,0.0,-0.75,-1.0903540903540905,-2.015873015873016,-3.5775335775335777,2.21875,0.0,-1.125,-1.8656898656898655,-1.0244200244200243,-4.286935286935287,1.90625,0.0,-1.28125,-2.5409035409035408,0.0,-4.757020757020757,1.75,0.0,-0.9375,-2.1147741147741153,0.0,-4.722832722832723,1.53125,0.0,-0.71875,-1.6166056166056166,0.0,-4.593406593406592,1.21875,0.0,-0.6875,-1.6227106227106227,0.0,-4.267399267399267,1.03125,-0.65625,-0.6875,-1.78021978021978,0.0,-4.173382173382174,0.90625,-0.6875,-0.625,-2.0781440781440783,0.6996336996336996,-4.275946275946276,0.84375,-0.625,0.0,-1.978021978021978,0.0,-4.638583638583639,0.65625,0.0,0.0,-2.031746031746032,0.0,-4.461538461538462,0.0,0.0,0.0,-2.155067155067155,0.518925518925519,-4.08058608058608,0.0,0.0,0.0,-2.1807081807081805,0.0,-3.531135531135531,0.0,0.0,0.0,-2.1904761904761907,0.0,-3.0134310134310134,0.0,0.0,0.0,-1.6556776556776556,0.0,-1.3003663003663004,0.0,0.0,0.0,-1.4529914529914532,0.0,-0.5286935286935287,0.0,0.0,0.0,-0.8864468864468864,0.0,0.0,0.0,0.0,0.0,-0.5396825396825397,-0.5592185592185592,0.0,0.0,0.0,0.0,0.0,0.0,0.6129426129426129,0.0,0.0,0.0,0.0,0.0,0.7619047619047619,0.0,0.0,0.0,0.0,0.0,0.7252747252747253,0.0,0.0,0.0,0.0,0.0,0.6935286935286935,0.0,0.0,0.0,0.5482295482295483,0.0,0.0,0.0,0.0,0.0,0.0,0.0,0.0,0.0,0.0,0.0,0.0,0.0,0.0,0.0,0.0,0.0,0.0,0.0,0.0,0.0,0.0,0.0,0.0,0.0,0.0,0.0,0.0,0.0,0.0,0.0,-0.6190476190476191,0.0,0.0,0.0,0.0,0.0,0.0,0.0,0.0,0.0,0.0,0.5787545787545788,0.0,0.0,0.0,0.0,0.0,0.0,0.0,0.0,0.0,0.0,-0.7374847374847375,0.0,-1.0305250305250304,0.0,0.0,0.0,-0.6361416361416361,0.0,-0.9914529914529916,0.0,0.0,0.0,0.0,0.6837606837606838,0.0,0.0,0.0,0.0,0.0,0.0,0.0,0.0,0.0,0.0,0.0,0.0,0.0,0.0,0.0,0.0,-0.9682539682539684,0.0,-0.811965811965812,0.0,0.0,0.0,0.0,0.0,-0.6056166056166056,0.0,0.0,0.0,0.0,0.0,-0.9572649572649572,0.0,0.0,0.0,-0.5738705738705738,0.0,-1.338217338217338,0.0,0.0,0.0,-0.8083028083028083,0.6385836385836385,-1.468864468864469,0.0,0.0,0.0,,,,,,,,,,,,,,,,,,,,,,,,,,,,,,,,,,,,,start
accX,0.0,0.5152625152625152,-0.7948717948717948,0.0,0.0,0.0,0.0,0.9352869352869352,-1.7362637362637363,0.5625,0.0,0.0,-0.6617826617826618,1.343101343101343,-2.9975579975579976,0.65625,0.0,0.0,-1.827838827838828,2.0769230769230766,-4.057387057387056,1.03125,1.5,0.9375,-0.8424908424908425,1.2124542124542124,-4.31990231990232,1.375,2.96875,1.90625,1.2039072039072038,0.0,-3.727716727716728,1.5,4.0,2.28125,2.0073260073260077,-0.9621489621489622,-2.879120879120879,1.59375,4.5625,2.0625,2.0989010989010994,-0.7814407814407814,-1.9694749694749696,1.8125,5.0625,1.8125,2.5811965811965814,-0.8351648351648352,-1.362637362637363,2.21875,5.46875,1.4375,0.8058608058608059,-1.4004884004884004,-1.9511599511599511,2.625,5.71875,1.15625,0.7948717948717948,-1.4017094017094016,-2.2698412698412698,2.8125,6.84375,0.875,1.5641025641025639,-1.3455433455433456,-1.9072039072039075,2.8125,6.875,0.78125,2.399267399267399,0.0,-0.9682539682539684,2.96875,6.34375,0.0,2.2979242979242978,0.0,-0.6556776556776557,3.40625,5.875,0.0,1.887667887667888,0.0,-1.536019536019536,3.53125,5.53125,-0.625,0.0,0.6117216117216118,-2.0268620268620268,3.5625,5.625,-0.875,0.0,1.7313797313797314,-1.8937728937728937,3.9375,5.84375,-0.625,-0.9206349206349206,1.868131868131868,-1.6312576312576312,4.46875,6.28125,0.0,-0.7509157509157509,0.8363858363858364,-1.5482295482295485,4.875,6.53125,0.0,0.0,0.0,-1.4163614163614164,5.125,6.625,0.6875,1.1465201465201464,-1.2283272283272284,-1.028083028083028,5.3125,6.375,0.9375,2.6544566544566544,-2.236874236874237,-1.061050061050061,5.3125,5.5,0.90625,3.8107448107448105,-4.787545787545787,-1.85958485958486,4.15625,2.8125,0.0,0.6129426129426129,-3.1575091575091574,-2.551892551892552,3.15625,1.4375,-0.90625,-0.8083028083028083,-1.4700854700854702,-2.5262515262515257,2.75,0.9375,-1.1875,-1.6141636141636142,-2.175824175824176,-2.8180708180708183,2.65625,0.90625,-1.125,-0.6190476190476191,-1.8608058608058609,-2.9218559218559217,2.375,0.65625,-1.125,-1.8058608058608057,-1.7191697191697193,-2.948717948717949,2.09375,0.0,-1.21875,-2.6935286935286937,-0.9572649572649572,-2.851037851037851,2.0,0.0,-1.15625,-2.778998778998779,-1.238095238095238,-3.498168498168498,1.90625,0.0,-1.03125,-2.4993894993894994,-1.1257631257631258,-4.085470085470085,1.625,-0.53125,-0.9375,-2.398046398046398,0.0,-4.264957264957265,1.28125,-0.71875,-0.9375,-2.52014652014652,0.5457875457875457,-4.925518925518926,1.1875,-0.8125,-0.75,-2.352869352869353,0.0,-5.500610500610501,1.0625,-0.75,-0.53125,-2.3455433455433456,0.0,-5.918192918192919,0.5625,0.0,0.0,-2.2820512820512815,0.0,-5.565323565323565,0.0,0.0,0.0,-2.5665445665445668,0.0,-4.943833943833944,0.0,0.0,0.0,-1.7411477411477412,0.5079365079365079,-3.555555555555556,0.0,0.0,0.0,-1.2796092796092795,0.0,-2.5311355311355306,0.0,0.0,0.0,-1.4114774114774116,0.0,-1.879120879120879,0.0,0.0,0.0,-1.4590964590964588,0.0,-1.6446886446886446,0.0,0.0,0.0,-0.9487179487179488,-0.5787545787545788,-0.8571428571428571,0.0,0.0,0.0,-0.6398046398046398,0.0,0.0,0.0,0.0,0.0,0.0,0.0,0.5384615384615384,0.0,0.0,0.0,0.0,0.0,0.514041514041514,0.0,0.0,0.0,0.0,0.0,0.0,0.0,0.0,0.0,0.0,0.0,0.0,0.0,0.0,0.0,0.0,0.0,0.0,0.0,0.0,0.0,0.0,0.0,0.0,0.0,0.0,0.0,0.0,0.0,0.0,0.0,0.0,0.0,0.0,0.0,0.0,0.0,0.0,0.0,0.0,0.0,0.0,0.0,0.0,0.0,0.0,0.0,0.0,0.0,0.0,0.0,-0.5042735042735043,0.0,0.0,0.0,0.0,0.0,0.0,0.0,0.0,0.0,0.0,0.0,0.0,0.0,0.0,0.0,0.0,0.0,0.0,0.0,-0.5103785103785103,0.0,0.0,0.0,-0.6141636141636142,0.0,-0.706959706959707,0.0,0.0,0.0,-0.8229548229548229,0.0,-1.061050061050061,0.0,0.0,0.0,-0.5433455433455433,0.0,-0.9316239316239316,0.0,0.0,0.0,0.0,0.0,-0.6898656898656899,0.0,0.0,0.0,0.0,0.0,-0.9768009768009768,0.0,0.0,0.0,-0.912087912087912,0.0,-1.4236874236874235,0.0,0.0,0.0,,,,,,,,,,,,,,,,,,,,,,,,,,,,,,,,,,,,,,,,,,,start
accX,0.0,0.0,0.0,0.0,0.0,0.0,-1.7484737484737485,1.568986568986569,0.0,0.8125,0.0,0.0,-2.547008547008547,1.7826617826617828,-1.0231990231990231,1.375,1.28125,1.71875,-2.0366300366300365,1.144078144078144,-1.7875457875457876,1.84375,2.84375,2.65625,0.0,0.0,-2.2783882783882783,1.96875,3.5625,3.0625,1.3846153846153846,-1.5262515262515262,-2.565323565323565,1.875,4.15625,2.9375,3.0781440781440783,-2.0329670329670333,-2.117216117216117,1.65625,4.34375,2.40625,3.0903540903540905,-1.398046398046398,-1.5409035409035412,1.71875,4.4375,1.84375,1.945054945054945,-0.6666666666666666,-1.3785103785103785,2.125,4.875,1.53125,1.3357753357753357,0.0,-1.2515262515262515,2.625,5.53125,1.5,1.1428571428571428,0.0,-1.2173382173382172,2.9375,6.09375,1.34375,2.4420024420024418,-1.0293040293040292,-1.4493284493284493,2.90625,6.21875,1.0625,2.8473748473748475,0.0,-0.9743589743589745,3.0,5.96875,0.6875,2.7570207570207566,0.5177045177045178,0.0,3.34375,5.75,0.0,2.3638583638583643,0.0,-0.5335775335775336,3.71875,5.59375,0.0,1.7191697191697193,0.0,0.0,3.6875,5.71875,0.0,1.884004884004884,0.73992673992674,0.6153846153846154,3.8125,5.59375,0.0,1.8705738705738704,0.0,0.0,3.96875,5.03125,0.0,0.7008547008547008,0.0,0.0,4.125,4.59375,0.0,0.0,0.0,0.0,4.1875,4.46875,0.0,0.9035409035409036,0.0,0.0,4.34375,4.4375,0.0,1.1184371184371185,-1.6324786324786325,-0.7240537240537241,4.46875,3.875,0.0,0.0,-2.9926739926739927,-1.6056166056166057,4.34375,3.21875,0.0,0.8998778998778999,-3.2625152625152625,-1.7423687423687424,4.0,2.8125,0.0,1.177045177045177,-2.283272283272283,-1.709401709401709,3.6875,2.0,0.0,0.0,-2.6984126984126986,-2.139194139194139,3.4375,1.28125,-0.59375,0.0,-2.7032967032967035,-2.1526251526251525,2.84375,0.96875,-0.75,0.0,-2.207570207570208,-1.8534798534798536,2.4375,0.90625,-0.71875,0.0,-1.6691086691086692,-1.442002442002442,2.375,0.5625,-0.75,0.0,-1.4932844932844933,-1.3699633699633702,2.5,0.0,-0.96875,0.0,-1.8901098901098898,-2.242979242979243,2.375,0.0,-1.15625,-1.2832722832722834,-1.6715506715506716,-3.1807081807081805,2.09375,0.0,-1.28125,-1.575091575091575,-0.9304029304029304,-4.136752136752137,1.875,-0.5625,-1.25,-1.9584859584859584,0.0,-4.501831501831502,1.84375,-0.71875,-1.09375,-2.6129426129426134,-0.5274725274725275,-5.3418803418803416,1.625,-0.65625,-0.9375,-2.6727716727716726,0.0,-5.654456654456655,1.21875,-0.53125,-0.8125,-2.9829059829059825,0.0,-5.330891330891331,0.875,0.0,-0.59375,-2.6935286935286937,0.0,-4.976800976800976,0.65625,0.0,0.0,-2.8241758241758244,0.0,-4.471306471306471,0.0,0.0,0.0,-2.4761904761904763,0.0,-3.5189255189255184,0.0,0.0,0.0,-1.7826617826617828,0.0,-2.0695970695970702,0.0,0.0,0.0,-0.8888888888888888,0.5982905982905983,-1.1184371184371185,0.0,0.0,0.0,-0.9255189255189256,0.0,-1.4041514041514038,0.0,0.0,0.0,-1.5946275946275947,-1.1135531135531136,-1.794871794871795,0.0,0.0,0.0,-1.3162393162393162,0.0,-0.5543345543345544,0.0,0.0,0.0,0.0,0.0,0.0,0.0,0.0,0.0,0.0,0.0,0.0,0.0,0.0,0.0,-0.5225885225885226,-0.6971916971916972,0.0,0.0,0.0,0.0,0.0,0.0,0.0,0.0,0.0,0.0,0.0,0.0,0.0,0.0,0.0,0.0,0.0,0.0,0.0,0.0,0.0,0.0,0.0,0.0,0.0,0.0,0.0,0.0,0.0,-0.5653235653235653,0.0,0.0,0.0,0.0,0.0,0.0,0.0,0.0,0.0,0.0,0.0,0.0,0.0,0.0,0.0,0.0,0.0,0.0,0.0,0.0,0.0,0.0,0.0,-0.5811965811965812,0.0,0.0,0.0,0.0,0.0,-0.5006105006105006,0.0,0.0,0.0,0.0,0.0,0.0,0.0,0.0,0.0,0.0,0.0,0.0,0.0,0.0,0.0,0.0,0.0,0.0,0.0,0.0,0.0,0.0,0.0,0.0,-0.5299145299145299,0.0,0.0,0.0,0.0,0.0,0.0,0.0,0.0,0.0,0.0,0.0,0.0,0.0,0.0,0.0,0.0,0.0,0.0,0.0,0.0,0.0,-0.6227106227106227,0.0,-0.7045177045177046,0.0,0.0,0.0,-0.7509157509157509,0.0,-0.9401709401709402,0.0,0.0,0.0,,,,,,,,,,,,,,,,,,,start
accX,0.0,0.0,-0.7387057387057387,0.625,0.0,0.0,-0.7191697191697192,0.0,-2.092796092796093,0.71875,0.0,0.0,-0.6886446886446886,1.293040293040293,-2.15018315018315,0.84375,1.25,0.84375,-0.8021978021978022,1.5299145299145298,-2.4590964590964592,1.21875,2.125,1.53125,0.0,0.6788766788766789,-3.1770451770451764,1.65625,3.21875,2.21875,0.0,-0.8058608058608059,-3.3968253968253967,2.0,4.375,2.5625,2.155067155067155,-1.8144078144078144,-2.235653235653236,2.125,5.59375,2.25,3.937728937728938,-2.6043956043956045,-1.931623931623932,1.8125,5.65625,1.625,1.2954822954822955,-0.7960927960927959,-1.6752136752136753,2.0625,6.03125,1.53125,0.0,0.0,-1.1367521367521367,2.5625,6.75,1.5,0.778998778998779,-0.5702075702075702,-0.6459096459096461,2.9375,7.21875,1.4375,1.9194139194139197,-0.7191697191697192,0.0,3.28125,7.25,1.09375,2.358974358974359,-0.6312576312576312,0.0,3.46875,6.90625,0.53125,1.8754578754578757,0.0,0.0,3.5625,6.40625,0.0,0.5726495726495726,0.7509157509157509,-0.73992673992674,3.71875,6.25,0.0,1.3247863247863247,0.8974358974358975,-0.7985347985347986,3.9375,5.9375,0.0,1.3882783882783882,0.0,-1.4383394383394383,3.875,5.6875,0.0,1.5726495726495726,0.0,-1.3553113553113554,3.90625,5.21875,0.0,0.0,0.0,-1.5091575091575091,4.125,4.96875,0.0,0.0,0.0,-0.5934065934065934,4.125,4.625,0.0,0.8290598290598291,-1.1843711843711844,-0.9169719169719168,4.15625,4.5625,0.0,1.2735042735042734,-1.5641025641025639,-0.6678876678876678,3.90625,4.21875,0.0,1.9706959706959708,-2.1904761904761907,0.0,3.71875,3.59375,0.0,2.2246642246642248,-2.31990231990232,0.0,3.5,2.71875,0.0,1.5824175824175823,-2.7264957264957266,-0.7081807081807082,3.28125,1.65625,-0.53125,0.0,-2.8949938949938954,-1.5409035409035412,2.9375,0.96875,-0.84375,0.0,-1.2344322344322345,-1.155067155067155,2.59375,0.59375,-1.0625,-0.7435897435897436,-1.192918192918193,-1.8180708180708183,2.625,0.0,-1.0625,-0.6031746031746031,-1.4847374847374848,-3.1648351648351647,2.5,0.0,-1.09375,-0.9975579975579976,-0.8632478632478633,-3.4224664224664223,2.125,0.0,-1.1875,-2.075702075702076,-0.5604395604395604,-3.5677655677655684,1.71875,0.0,-0.96875,-1.8327228327228329,0.0,-3.0525030525030523,1.5625,0.0,-0.78125,-2.0989010989010994,0.0,-2.9230769230769234,1.53125,-0.59375,-0.625,-1.9242979242979243,0.0,-3.0305250305250304,1.34375,-0.78125,-0.59375,-2.2564102564102564,0.0,-3.2197802197802203,1.1875,-0.875,-0.5625,-2.3663003663003663,0.0,-3.4322344322344316,1.0625,-0.78125,0.0,-1.9963369963369964,0.0,-3.63003663003663,1.03125,-0.65625,0.0,-1.78998778998779,0.0,-3.7350427350427347,0.90625,-0.59375,0.0,-1.761904761904762,0.0,-3.6727716727716726,0.75,0.0,0.0,-1.8510378510378511,0.0,-3.7448107448107453,0.53125,0.0,0.0,-1.7985347985347986,0.0,-3.4297924297924296,0.0,0.0,0.0,-1.4896214896214897,0.0,-3.217338217338217,0.0,0.0,0.0,-1.474969474969475,0.0,-3.102564102564102,0.0,0.0,0.0,-1.0818070818070815,0.0,-2.5702075702075704,0.0,0.0,0.0,-1.0537240537240538,0.0,-1.5335775335775337,0.0,0.0,0.0,-0.9926739926739928,0.0,-0.8705738705738706,0.0,0.0,0.0,-0.7851037851037851,0.0,0.0,0.0,0.0,0.0,-0.7081807081807082,-0.9450549450549449,0.0,0.0,0.0,0.0,0.0,0.0,0.0,0.0,0.0,0.0,0.0,0.0,0.6776556776556777,0.0,0.0,0.0,0.0,0.0,0.7582417582417582,0.0,0.0,0.0,0.0,0.0,0.0,0.0,0.0,0.0,0.0,0.0,0.0,0.0,0.0,0.0,0.0,0.0,0.0,0.0,0.0,0.0,0.0,0.0,0.0,0.0,0.0,0.0,0.0,0.0,0.0,0.0,0.0,0.0,0.0,0.0,0.0,0.0,0.0,0.0,0.0,0.0,0.0,0.0,0.0,0.0,0.0,0.0,0.0,0.0,0.0,0.0,0.0,0.0,0.0,0.0,0.0,0.0,-0.5128205128205128,0.0,-0.57997557997558,0.0,0.0,0.0,0.0,0.0,-0.503052503052503,0.0,0.0,0.0,0.0,0.0,0.0,0.0,0.0,0.0,0.0,0.0,0.0,0.0,0.0,0.0,0.0,0.0,0.0,0.0,0.0,0.0,0.0,0.0,0.0,0.0,0.0,0.0,0.0,0.0,-0.6031746031746031,0.0,0.0,0.0,0.0,0.0,0.0,0.0,0.0,0.0,,,,,,,,,,,,,start
accX,-0.5946275946275946,0.5286935286935287,0.0,0.0,0.0,0.0,-0.5115995115995116,0.0,0.0,0.625,0.0,0.0,0.5018315018315018,0.0,0.0,0.71875,0.0,0.0,-0.8583638583638583,0.5995115995115995,-1.9181929181929185,0.71875,0.75,0.0,-1.9914529914529917,0.7338217338217338,-3.2759462759462763,0.6875,2.03125,1.0625,-1.3345543345543345,1.2173382173382172,-3.4273504273504267,0.71875,3.09375,1.84375,-0.873015873015873,0.0,-4.344322344322343,0.59375,4.1875,2.25,0.0,0.0,-3.5836385836385842,0.53125,5.125,2.09375,0.8144078144078144,0.0,-1.6507936507936507,0.75,5.71875,1.71875,1.9853479853479852,0.0,-0.6874236874236874,1.15625,5.6875,1.28125,1.794871794871795,0.0,-0.8986568986568987,1.4375,5.5625,0.90625,0.6739926739926739,0.0,-1.7484737484737485,1.875,6.3125,0.9375,0.6813186813186813,0.0,-0.9096459096459096,2.25,6.9375,1.40625,2.7142857142857144,-1.2002442002442002,-0.8302808302808303,2.375,7.15625,1.53125,2.4273504273504267,0.0,-0.8217338217338217,2.15625,6.59375,1.125,2.189255189255189,1.2515262515262515,0.0,2.25,6.3125,0.875,2.0061050061050056,2.1880341880341883,0.0,2.78125,6.125,0.78125,1.7973137973137974,1.5811965811965811,0.0,3.3125,5.75,0.5625,0.73992673992674,0.6666666666666666,-1.0549450549450552,3.4375,5.46875,0.0,1.0622710622710625,0.934065934065934,-0.851037851037851,3.46875,5.46875,0.0,0.0,1.8290598290598292,-0.8058608058608059,3.75,5.1875,0.59375,0.9304029304029304,0.0,-1.3956043956043955,4.125,4.96875,0.75,1.3894993894993894,-1.2954822954822955,-1.9572649572649568,4.03125,4.5625,0.78125,1.706959706959707,-1.3467643467643469,-2.231990231990232,3.5625,3.8125,0.59375,2.0378510378510377,-2.230769230769231,-2.7264957264957266,3.25,3.25,0.0,1.975579975579976,-2.1770451770451764,-2.7326007326007327,2.84375,2.5625,0.0,0.9010989010989012,-2.142857142857143,-2.6153846153846154,2.5,2.25,-0.53125,0.0,-2.5763125763125765,-2.6129426129426134,2.09375,1.9375,-0.5625,0.706959706959707,-1.4957264957264955,-2.1294261294261294,1.9375,1.46875,-0.625,0.0,-0.6446886446886447,-1.7655677655677655,2.28125,1.0625,-0.625,0.0,-2.452991452991453,-2.4065934065934065,2.34375,0.65625,-0.6875,0.0,-2.503052503052503,-2.8339438339438336,2.15625,0.0,-0.9375,-1.0854700854700854,-1.4188034188034189,-2.8205128205128207,2.03125,0.0,-0.9375,-1.3650793650793651,-0.6043956043956044,-3.1746031746031744,2.0625,0.0,-0.875,-1.2173382173382172,0.0,-3.8437118437118434,1.90625,-0.5625,-0.96875,-2.5579975579975582,0.6691086691086691,-5.228327228327228,1.5,-0.59375,-0.90625,-2.9841269841269837,0.8217338217338217,-5.150183150183151,1.1875,0.0,-0.65625,-2.5824175824175826,0.9352869352869352,-4.56043956043956,0.96875,0.0,0.0,-2.053724053724053,0.7875457875457875,-4.101343101343101,0.84375,0.0,0.0,-2.3699633699633704,0.0,-4.241758241758242,0.65625,0.0,0.0,-2.238095238095238,0.0,-3.7423687423687424,0.0,0.0,0.0,-1.953601953601953,0.0,-2.647130647130647,0.0,0.0,0.0,-1.5836385836385836,0.0,-1.7252747252747254,0.0,0.0,0.0,-0.9792429792429792,0.0,-1.2637362637362637,0.0,0.0,0.0,-1.1794871794871795,0.0,-1.352869352869353,0.0,0.0,0.0,-1.2014652014652014,0.0,-1.2527472527472527,0.0,0.0,0.0,0.0,0.0,-0.8522588522588522,0.0,0.0,0.0,0.0,0.0,0.0,0.0,0.0,0.0,0.0,0.0,0.0,0.0,0.0,0.0,0.0,0.0,0.0,0.0,0.0,0.0,0.0,-0.6166056166056166,-0.5567765567765568,0.0,0.0,0.0,0.0,0.0,0.0,0.0,0.0,0.0,0.0,0.0,0.0,0.0,0.0,0.0,0.0,0.0,0.0,0.0,0.0,0.0,0.0,0.0,0.0,0.0,0.0,0.0,,,,,,,,,,,,,,,,,,,,,,,,,,,,,,,,,,,,,,,,,,,,,,,,,,,,,,,,,,,,,,,,,,,,,,,,,,,,,,,,,,,,,,,,,,,start
accX,0.0,0.0,0.0,0.625,0.0,0.0,0.0,0.5347985347985348,-1.3968253968253967,0.65625,0.0,0.0,0.0,0.0,-2.6300366300366296,0.53125,0.9375,0.0,0.8290598290598291,0.0,-3.4065934065934065,0.0,1.25,0.75,3.642246642246642,-1.332112332112332,-3.3418803418803416,0.0,0.0,0.0,0.0,0.0,-4.283272283272283,-0.625,1.15625,0.0,-1.115995115995116,1.7557997557997558,-4.018315018315018,0.0,2.34375,0.6875,-0.993894993894994,1.242979242979243,-3.8608058608058613,0.0,3.5625,1.4375,0.0,-0.5115995115995116,-3.7851037851037854,0.6875,4.4375,1.84375,0.0,0.0,-3.411477411477412,0.65625,4.78125,1.75,0.0,-0.5286935286935287,-3.064713064713065,0.84375,5.25,1.625,-0.7277167277167277,0.0,-2.155067155067155,1.25,5.78125,1.53125,-1.1501831501831499,0.6056166056166056,-1.343101343101343,2.03125,6.53125,1.59375,-1.4761904761904765,0.0,-0.73992673992674,3.03125,7.625,1.78125,0.0,0.0,0.0,3.9375,8.65625,1.71875,1.2808302808302807,0.0,0.0,4.5625,9.0625,1.46875,1.953601953601953,0.0,0.0,4.625,8.4375,0.9375,1.2026862026862026,1.1428571428571428,0.0,4.75,7.28125,0.53125,1.9572649572649568,0.7191697191697192,-0.5995115995115995,4.78125,6.375,0.0,1.103785103785104,0.0,-1.4224664224664223,4.71875,5.5625,0.0,0.5616605616605617,0.0,-1.9609279609279608,4.5,4.96875,0.0,0.8070818070818071,-0.8571428571428571,-2.2735042735042734,4.21875,4.375,0.0,1.4236874236874235,-0.9035409035409036,-2.2869352869352872,4.0625,3.5,0.0,0.0,-0.9633699633699634,-2.4688644688644694,4.03125,3.0625,0.0,0.0,-1.6166056166056166,-2.716727716727717,3.875,2.90625,0.0,1.7973137973137974,-2.675213675213675,-2.683760683760684,3.375,2.125,-0.78125,0.0,-1.68009768009768,-2.6031746031746037,3.0625,1.53125,-0.875,-1.3455433455433456,-1.4590964590964588,-2.533577533577533,3.21875,1.53125,-0.65625,-0.6581196581196581,-2.2600732600732596,-2.642246642246642,3.0,1.03125,-0.6875,-1.5836385836385836,-1.6349206349206349,-3.8083028083028077,2.5,0.0,-0.90625,-2.5079365079365084,0.0,-4.338217338217338,2.09375,0.0,-0.875,-2.7411477411477403,0.0,-4.752136752136752,1.84375,0.0,-0.71875,-2.912087912087912,-0.8021978021978022,-4.916971916971917,1.4375,0.0,-0.65625,-2.3076923076923075,0.0,-3.9145299145299135,1.0625,0.0,-0.59375,-2.0659340659340657,0.0,-3.5763125763125765,0.84375,0.0,-0.53125,-2.3919413919413923,0.0,-3.407814407814408,0.65625,0.0,-0.625,-2.677655677655677,0.0,-3.4603174603174605,0.53125,0.0,-0.5625,-2.6825396825396823,0.0,-3.1916971916971923,0.0,0.0,0.0,-1.8534798534798536,0.0,-2.6727716727716726,0.0,0.0,0.0,-1.0647130647130647,0.0,-2.025641025641025,0.0,0.0,0.0,-0.9914529914529916,0.0,-1.7826617826617828,0.0,0.0,0.0,-1.338217338217338,0.0,-1.8583638583638584,0.0,0.0,0.0,-1.6288156288156288,-0.5885225885225885,-1.9181929181929185,0.0,0.0,0.0,-0.873015873015873,0.0,-1.3418803418803418,0.0,0.0,0.0,0.0,0.0,-0.6739926739926739,0.0,0.0,0.0,0.0,0.0,0.0,0.0,0.0,0.0,0.0,0.0,0.0,0.0,0.0,0.0,0.0,-0.5592185592185592,0.0,0.0,0.0,0.0,0.0,0.0,0.0,0.0,0.0,0.0,0.0,0.0,0.0,0.0,0.0,0.0,0.0,0.0,0.0,0.0,0.0,0.0,0.0,0.0,0.0,0.0,0.0,0.0,0.0,0.0,0.0,0.0,0.0,0.0,0.0,0.0,0.0,0.0,0.0,0.0,0.0,0.0,0.0,0.0,0.0,0.0,0.0,0.0,0.0,0.0,0.0,0.0,0.0,0.0,0.0,0.0,0.0,0.0,0.0,0.0,0.0,0.0,0.0,0.0,0.0,0.0,0.0,0.0,0.0,0.0,0.0,0.0,0.0,0.0,0.0,0.0,,,,,,,,,,,,,,,,,,,,,,,,,,,,,,,,,,,,,,,,,,,,,,,,,,,,,,,,,,,,,start
accX,0.0,1.105006105006105,0.0,0.5625,0.0,0.0,0.503052503052503,1.0854700854700854,0.5775335775335775,0.96875,0.0,0.0,0.0,0.0,-0.8351648351648352,0.90625,0.0,0.0,0.0,0.0,-1.3174603174603174,0.65625,0.0,0.0,0.0,0.0,-2.015873015873016,0.6875,0.6875,0.75,-1.673992673992674,2.4432234432234434,-3.938949938949939,1.0625,2.5,1.59375,0.0,0.8595848595848596,-4.656898656898657,1.46875,3.96875,2.46875,1.8302808302808304,0.0,-4.8327228327228315,1.40625,4.8125,2.6875,2.862026862026862,0.0,-3.688644688644689,1.28125,5.28125,2.4375,1.5274725274725274,0.5347985347985348,-2.542124542124542,1.46875,5.6875,2.09375,-2.0891330891330893,2.235653235653236,-1.4371184371184371,2.1875,6.96875,2.28125,-0.6190476190476191,0.9743589743589745,0.0,3.625,9.25,2.78125,3.2283272283272284,-1.5897435897435896,0.6031746031746031,4.375,10.15625,2.65625,5.191697191697192,-1.962148962148962,0.0,4.125,9.40625,1.78125,4.101343101343101,-1.0757020757020757,0.0,3.71875,8.1875,0.9375,1.2368742368742371,0.0,0.0,3.90625,7.78125,0.71875,3.5677655677655684,-0.7350427350427351,0.5506715506715507,4.34375,6.96875,0.0,3.4615384615384617,-1.3113553113553114,0.0,4.21875,5.65625,0.0,0.8583638583638583,-1.021978021978022,-0.9865689865689866,4.40625,5.25,0.0,0.7887667887667887,-1.5274725274725274,-1.3272283272283272,4.59375,5.03125,0.0,1.912087912087912,-3.0549450549450547,-1.6043956043956045,4.46875,4.40625,0.0,2.3382173382173383,-3.7948717948717943,-1.7826617826617828,4.15625,3.46875,0.0,1.761904761904762,-4.1037851037851025,-1.761904761904762,3.75,2.625,0.0,0.0,-3.4224664224664223,-1.78021978021978,3.625,1.96875,-0.5625,0.0,-4.174603174603175,-1.9255189255189256,3.46875,1.4375,-0.71875,0.0,-3.892551892551893,-2.11965811965812,3.28125,1.0,-0.84375,0.0,-3.336996336996337,-2.5067155067155067,3.125,0.59375,-0.9375,-0.557997557997558,-3.2698412698412698,-3.1904761904761907,2.84375,0.0,-1.125,-1.9694749694749696,-1.5457875457875458,-3.681318681318681,2.5,0.0,-1.125,-2.6788766788766787,-1.2796092796092795,-4.069597069597069,2.34375,0.0,-0.96875,-2.542124542124542,-1.4297924297924298,-4.317460317460317,2.15625,0.0,-0.75,-1.1636141636141637,-0.5115995115995116,-4.17948717948718,1.9375,0.0,-0.75,-1.7130647130647132,-0.6703296703296703,-5.072039072039073,1.84375,-0.5625,-0.875,-1.9792429792429795,0.0,-5.676434676434678,1.53125,-0.6875,-0.9375,-2.9462759462759465,0.6886446886446886,-6.135531135531137,1.3125,-0.625,-0.875,-3.061050061050061,0.0,-6.433455433455434,0.96875,0.0,-0.59375,-2.4065934065934065,0.7680097680097681,-5.763125763125763,0.5625,0.0,0.0,-2.627594627594628,0.0,-5.04029304029304,0.0,0.0,0.0,-2.15018315018315,0.0,-3.8424908424908426,0.0,0.0,0.0,-1.962148962148962,0.0,-2.483516483516484,0.0,0.0,0.0,-1.051282051282051,0.0,-1.647130647130647,0.0,0.0,0.0,0.0,0.0,-0.9914529914529916,0.0,0.0,0.0,0.0,0.0,-0.7912087912087912,0.0,0.0,0.0,0.0,0.0,-0.5958485958485958,0.0,0.0,0.0,0.0,0.0,0.0,0.0,0.0,0.0,0.0,-0.5873015873015873,0.0,0.0,0.0,0.0,0.0,0.0,0.0,0.0,0.0,0.0,0.0,0.0,0.0,0.0,0.0,0.0,0.0,0.0,0.0,0.0,0.0,0.0,0.0,-0.5323565323565324,0.0,0.0,0.0,0.0,0.0,-0.5518925518925519,0.5103785103785103,0.0,0.0,0.0,0.0,0.0,0.0,0.0,0.0,0.0,0.0,0.0,0.0,0.0,0.0,0.0,0.0,0.0,0.0,0.0,0.0,0.0,0.0,0.0,0.0,0.0,0.0,0.0,0.0,0.0,0.0,0.0,0.0,0.0,0.0,0.0,-0.7167277167277167,0.0,0.0,0.0,0.0,0.0,-0.5921855921855922,0.0,0.0,0.0,0.0,0.0,0.0,0.0,0.0,0.0,0.0,0.0,0.0,0.0,0.0,0.0,0.0,0.0,-0.7435897435897436,0.0,0.0,0.0,0.0,0.0,-0.6031746031746031,0.0,0.0,0.0,0.0,0.0,0.0,0.0,0.0,0.0,0.0,0.0,0.0,0.0,0.0,0.0,,,,,,,,,,,,,,,,,,,,,,,,,,,,,,,,,,,,,start
accX,0.0,0.0,-1.2967032967032968,0.0,0.0,0.0,0.0,0.0,-2.236874236874237,0.0,0.71875,0.0,0.0,0.0,-2.621489621489621,0.0,1.21875,0.59375,-1.1025641025641026,0.0,-3.031746031746032,0.0,2.0625,1.0,-0.5372405372405372,0.0,-2.5763125763125765,0.0,3.0,1.3125,0.7777777777777778,0.7533577533577533,-2.614163614163614,0.75,3.4375,1.5625,2.5885225885225887,-0.811965811965812,-4.53968253968254,0.78125,4.46875,1.4375,2.4725274725274726,-1.275946275946276,-3.553113553113553,0.59375,4.8125,1.09375,1.7924297924297925,-0.6324786324786325,-2.868131868131868,0.90625,5.21875,0.875,0.0,0.0,-2.3089133089133087,1.5625,5.78125,1.03125,0.0,0.0,-2.068376068376069,2.34375,6.71875,1.21875,0.0,0.0,-1.474969474969475,3.15625,7.71875,1.25,0.8424908424908425,0.0,0.0,3.9375,8.53125,1.15625,1.126984126984127,0.0,0.0,4.5625,8.6875,0.90625,2.3223443223443225,0.0,0.0,4.8125,8.5625,0.71875,2.231990231990232,0.6288156288156288,0.0,4.84375,7.75,0.0,1.6275946275946276,0.0,-0.6166056166056166,5.0625,6.875,0.0,1.0634920634920637,-1.0463980463980465,-1.4017094017094016,5.0625,6.15625,0.0,1.9304029304029304,-1.7191697191697193,-1.5726495726495726,4.9375,5.09375,0.0,1.7484737484737485,-1.5054945054945057,-1.962148962148962,4.84375,4.25,0.0,1.2319902319902318,-2.5824175824175826,-2.855921855921856,4.59375,3.6875,0.0,1.9072039072039075,-3.586080586080586,-3.0549450549450547,4.1875,2.90625,0.0,1.3577533577533578,-3.4639804639804637,-2.8717948717948723,3.78125,2.125,-0.78125,0.0,-3.758241758241758,-3.2026862026862033,3.4375,1.59375,-0.9375,-0.6544566544566545,-3.3540903540903533,-3.13064713064713,3.25,1.375,-0.9375,0.0,-3.1257631257631258,-3.3296703296703303,3.125,0.84375,-1.09375,0.0,-3.1562881562881566,-3.887667887667888,2.78125,0.0,-1.34375,-1.6324786324786325,-2.614163614163614,-4.6129426129426125,2.46875,0.0,-1.4375,-2.0097680097680097,-2.2735042735042734,-5.152625152625153,2.0625,0.0,-1.40625,-2.628815628815629,-1.85958485958486,-5.326007326007327,1.53125,-0.59375,-1.0625,-3.0573870573870563,-0.7277167277167277,-5.313797313797314,1.375,0.0,-0.90625,-3.0744810744810747,0.0,-5.1001221001221,1.0625,0.0,-0.71875,-3.064713064713065,0.0,-4.936507936507937,0.78125,0.0,0.0,-2.816849816849817,0.0,-4.4554334554334565,0.59375,0.0,0.0,-2.68009768009768,-0.5934065934065934,-3.652014652014652,0.0,0.0,0.0,-2.0244200244200243,-0.7313797313797313,-2.498168498168498,0.0,0.0,0.0,-1.4932844932844933,0.0,-1.5726495726495726,0.0,0.0,0.0,-1.2393162393162394,-1.0366300366300367,-1.4700854700854702,0.0,0.0,0.0,-1.2881562881562882,-1.1489621489621489,-1.5238095238095235,0.0,0.0,0.0,-1.1318681318681318,-0.6007326007326007,-1.2881562881562882,0.0,0.0,0.0,-0.7106227106227107,0.0,-0.8473748473748474,0.0,0.0,0.0,0.0,0.0,-0.5763125763125763,0.0,0.0,0.0,0.0,0.0,-0.7631257631257631,0.0,0.0,0.0,0.0,-0.9926739926739928,-1.0036630036630036,0.0,0.0,0.0,0.0,0.0,-0.5567765567765568,0.0,0.0,0.0,0.0,0.0,0.0,0.0,0.0,0.0,0.0,0.0,0.0,0.0,0.0,0.0,0.0,-0.9059829059829059,0.0,0.0,0.0,0.0,0.0,-0.5286935286935287,0.0,0.0,0.0,0.0,0.0,0.0,0.0,0.0,0.0,0.0,0.0,0.0,0.0,0.0,0.0,0.0,0.0,0.0,0.0,0.0,0.0,0.0,0.0,0.0,0.0,0.0,0.0,0.0,0.0,0.0,0.0,0.0,0.0,0.0,0.0,0.0,0.0,0.0,0.0,0.0,0.0,0.0,0.0,0.0,0.0,0.0,-0.5482295482295483,0.0,-0.7264957264957265,0.0,0.0,0.0,-0.6862026862026862,0.0,-1.0341880341880345,0.0,0.0,0.0,,,,,,,,,,,,,,,,,,,,,,,,,,,,,,,,,,,,,,,,,,,,,,,,,,,,,,,,,,,,,,,,,,,,,,,,,start
accX,0.0,0.6471306471306472,0.0,0.0,0.0,0.0,0.0,0.0,-0.5555555555555556,0.0,0.0,0.0,0.0,-0.6947496947496947,-0.5714285714285714,0.0,0.0,0.0,1.2039072039072038,-0.6923076923076923,-0.7533577533577533,0.0,0.0,0.0,0.0,0.0,-1.0488400488400489,0.0,0.0,0.0,0.0,0.0,-2.128205128205128,0.0,0.0,0.0,0.0,0.0,-2.8217338217338215,0.0,0.75,0.0,0.0,0.0,-3.1257631257631258,0.0,1.28125,0.0,-1.2539682539682542,0.9023199023199024,-3.183150183150183,0.0,2.09375,0.0,-1.4810744810744811,1.0293040293040292,-3.6849816849816848,0.0,3.09375,0.96875,-1.1477411477411477,0.7887667887667887,-3.675213675213675,0.53125,3.84375,1.34375,0.0,0.0,-3.7130647130647128,0.71875,4.53125,1.46875,1.362637362637363,-0.6837606837606838,-2.573870573870574,1.53125,6.03125,1.28125,1.4822954822954824,-1.0989010989010992,-2.056166056166056,1.875,6.625,0.875,0.0,-0.6031746031746031,-1.8925518925518925,2.125,7.09375,0.71875,0.0,0.0,-1.382173382173382,2.46875,7.625,0.78125,0.8192918192918193,0.0,-1.020757020757021,2.65625,7.75,0.625,0.9108669108669109,0.9597069597069596,-0.7509157509157509,2.84375,7.59375,0.0,-0.5946275946275946,2.4566544566544573,0.0,3.25,7.59375,0.0,0.0,2.6715506715506714,0.0,3.6875,7.6875,0.0,1.3467643467643469,2.1587301587301586,-0.6105006105006106,3.9375,7.21875,0.0,1.1306471306471306,1.1111111111111112,-1.2893772893772897,3.96875,6.375,0.0,-1.1257631257631258,0.8925518925518926,-1.6886446886446886,3.96875,5.71875,0.0,0.811965811965812,0.0,-1.462759462759463,4.15625,5.4375,0.0,2.5079365079365084,-0.8925518925518926,-1.5555555555555556,4.09375,4.34375,0.0,2.173382173382173,-2.2649572649572653,-2.312576312576313,3.71875,3.25,0.0,0.0,-2.211233211233212,-2.4615384615384617,3.4375,3.15625,0.0,1.1294261294261294,-1.3931623931623929,-1.9548229548229548,3.375,2.96875,0.0,1.5299145299145298,-2.421245421245421,-2.003663003663004,3.21875,2.375,0.0,1.8473748473748477,-2.9987789987789983,-2.1782661782661785,2.875,1.59375,-0.5625,0.5995115995115995,-2.8864468864468864,-2.1978021978021984,2.5,1.0,-0.84375,0.0,-2.421245421245421,-2.2954822954822958,2.375,0.65625,-0.96875,0.0,-2.645909645909646,-2.505494505494505,2.25,0.0,-1.09375,-1.0463980463980465,-2.1880341880341883,-2.7802197802197797,2.15625,0.0,-1.09375,-1.8424908424908424,-2.4505494505494507,-3.705738705738706,1.78125,0.0,-1.125,-2.686202686202686,-0.6642246642246642,-4.255189255189255,1.375,-0.59375,-0.96875,-2.490842490842491,0.0,-4.274725274725275,1.21875,-0.5625,-0.8125,-2.4932844932844933,0.0,-4.467643467643468,1.0,-0.59375,-0.75,-2.595848595848596,-0.6361416361416361,-4.4041514041514045,0.75,-0.59375,-0.6875,-2.752136752136752,0.0,-4.230769230769232,0.0,-0.5625,-0.53125,-3.025641025641025,0.0,-3.965811965811966,0.0,0.0,0.0,-2.78998778998779,-0.7802197802197802,-3.5677655677655684,0.0,0.0,0.0,-2.072039072039072,-1.264957264957265,-3.0476190476190474,0.0,0.0,0.0,-1.843711843711844,-0.8278388278388278,-2.357753357753358,0.0,0.0,0.0,-1.706959706959707,0.0,-1.724053724053724,0.0,0.0,0.0,-0.818070818070818,0.0,-1.0122100122100122,0.0,0.0,0.0,-0.6080586080586079,-1.1282051282051282,-1.0683760683760684,0.0,0.0,0.0,0.0,-0.8266178266178266,-0.6764346764346765,0.0,0.0,0.0,0.0,0.0,0.0,0.0,0.0,0.0,0.0,0.0,0.0,0.0,0.0,0.0,0.0,-0.78998778998779,0.0,0.0,0.0,0.0,0.0,-1.2307692307692308,0.0,0.0,0.0,0.0,0.0,-0.9242979242979243,0.0,0.0,0.0,0.0,0.5677655677655677,0.0,0.8241758241758241,0.0,0.0,0.0,0.5152625152625152,0.0,0.7216117216117216,0.0,0.0,0.0,0.0,0.0,0.0,0.0,0.0,0.0,0.0,-0.7619047619047619,0.0,0.0,0.0,0.0,0.0,0.0,0.0,0.0,0.0,0.0,0.0,0.0,0.0,0.0,0.0,0.0,0.0,0.0,-0.536019536019536,0.0,0.0,0.0,0.0,0.0,-0.7680097680097681,0.0,0.0,0.0,-0.7533577533577533,0.0,-0.8559218559218559,0.0,0.0,0.0,-0.6666666666666666,0.0,-0.8925518925518926,0.0,0.0,0.0,-0.663003663003663,0.0,-1.0256410256410255,0.0,0.0,0.0,-1.1697191697191698,0.0,-1.2612942612942613,0.0,0.0,0.0,-1.290598290598291,0.0,-1.5824175824175823,0.0,0.0,0.0,-1.321123321123321,0.0,-1.7313797313797314,0.0,0.0,0.5625,,,,,,,,,,,,,,,,,,,start
accX,0.0,0.0,0.0,0.0,0.0,0.0,0.0,0.0,0.0,0.65625,0.0,0.0,0.0,0.0,-1.1184371184371185,0.875,0.6875,0.5625,0.8925518925518926,0.0,-1.9365079365079363,0.90625,1.03125,0.8125,0.9487179487179488,0.0,-3.091575091575092,0.84375,1.65625,1.0,0.0,0.0,-3.6581196581196584,1.0625,2.65625,1.375,0.0,0.525030525030525,-4.057387057387056,1.4375,4.03125,1.9375,0.0,0.0,-3.8009768009768017,1.90625,5.375,2.40625,0.7057387057387058,-0.525030525030525,-2.716727716727717,2.34375,6.3125,2.5,-0.9816849816849816,0.8522588522588522,-1.2576312576312576,3.3125,7.6875,2.5,-1.6507936507936507,1.7448107448107448,0.0,4.71875,9.40625,2.625,-2.1562881562881557,1.94017094017094,4.676434676434677,6.46875,11.5625,3.03125,5.538461538461538,-3.7557997557997562,4.3125763125763115,6.4375,10.96875,2.4375,5.561660561660561,-2.9230769230769234,3.3284493284493286,5.875,9.40625,1.375,2.5726495726495733,-1.9523809523809523,2.6312576312576312,5.625,7.90625,0.84375,3.1636141636141635,-3.0329670329670333,2.148962148962149,5.53125,6.78125,0.84375,2.9743589743589745,-3.6105006105006106,0.9792429792429792,5.375,5.28125,0.59375,2.590964590964591,-4.026862026862027,0.0,4.9375,3.84375,0.0,1.7924297924297925,-3.736263736263736,-0.6105006105006106,4.5,2.5625,0.0,1.1672771672771671,-4.1672771672771685,-0.9010989010989012,4.09375,1.65625,0.0,1.5457875457875458,-3.4590964590964592,-1.115995115995116,3.71875,1.0,0.0,0.7411477411477412,-3.173382173382173,-1.4236874236874235,3.53125,0.0,-0.75,0.0,-3.1904761904761907,-1.7155067155067154,3.375,0.0,-0.96875,0.0,-3.584859584859585,-2.147741147741148,3.0,0.0,-1.15625,0.0,-3.0061050061050065,-2.105006105006105,2.75,0.0,-1.3125,-1.5103785103785103,-2.6910866910866917,-2.2222222222222223,2.78125,0.0,-1.25,-2.126984126984127,-2.728937728937729,-3.1843711843711837,2.78125,0.0,-1.21875,-1.9377289377289375,-2.3846153846153846,-4.0415140415140405,2.5,-0.65625,-1.25,-2.7130647130647128,-1.809523809523809,-4.83028083028083,2.15625,-0.75,-1.125,-3.0073260073260077,-1.192918192918193,-5.3577533577533565,1.875,-0.75,-1.03125,-3.3870573870573866,0.0,-5.548229548229548,1.6875,-0.71875,-0.84375,-3.323565323565324,0.0,-5.594627594627593,1.46875,-0.625,-0.6875,-3.145299145299145,0.0,-5.809523809523809,1.09375,-0.625,-0.59375,-3.5677655677655684,0.0,-5.518925518925519,0.71875,0.0,0.0,-3.4590964590964592,0.0,-4.973137973137973,0.0,0.0,0.0,-2.249084249084249,0.0,-2.8571428571428568,0.0,0.0,0.0,-1.661782661782662,-0.5091575091575091,-2.4639804639804637,0.0,0.0,0.0,-1.7057387057387057,-0.5543345543345544,-2.15018315018315,0.0,0.0,0.0,-1.8070818070818069,0.0,-1.4884004884004884,0.0,0.0,0.0,-1.695970695970696,0.0,-1.0744810744810744,0.0,0.0,0.0,-1.1526251526251523,0.0,0.0,0.0,0.0,0.0,-0.811965811965812,0.0,0.0,0.0,0.0,0.0,0.0,0.0,0.0,0.0,0.0,0.0,0.0,0.0,0.0,0.0,0.0,0.0,-0.5873015873015873,0.0,0.0,0.0,0.0,0.0,0.0,0.0,0.0,0.0,0.0,0.0,0.0,0.0,0.0,0.0,0.0,0.0,0.0,0.0,0.0,0.0,0.0,0.0,0.0,0.0,0.0,0.0,0.0,0.0,0.0,0.0,0.0,0.0,0.0,0.0,0.0,0.0,0.0,0.0,0.0,0.0,0.0,0.0,0.0,0.0,0.0,0.0,0.0,0.0,0.0,0.0,0.0,0.0,0.0,0.0,0.0,0.0,0.0,0.0,0.0,0.0,0.0,0.0,0.0,0.0,0.0,0.0,0.0,0.0,0.0,0.0,0.0,0.0,-0.5787545787545788,0.0,0.0,0.0,0.0,0.0,-0.6923076923076923,0.0,0.0,0.0,,,,,,,,,,,,,,,,,,,,,,,,,,,,,,,,,,,,,,,,,,,,,,,,,,,,,,,,,,,,,,,,,,,,,,,,,start
accX,0.0,0.0,0.0,0.0,0.0,0.0,0.6251526251526252,0.0,0.0,0.71875,0.0,0.0,1.7484737484737485,-0.6361416361416361,-0.5311355311355311,0.78125,0.0,0.0,1.844932844932845,-0.6349206349206349,-1.3186813186813189,0.0,0.0,0.0,1.3492063492063493,0.0,-2.8229548229548236,0.0,0.0,0.0,1.3443223443223444,0.0,-3.7460317460317465,0.0,0.0,-0.5625,0.6532356532356532,0.8608058608058609,-4.750915750915751,0.0,0.90625,0.0,-0.557997557997558,1.0463980463980465,-5.3003663003663,0.0,1.625,0.0,-0.8046398046398047,1.7411477411477412,-5.00976800976801,0.0,2.90625,0.59375,0.0,1.5531135531135531,-4.676434676434677,0.0,3.9375,1.21875,1.072039072039072,0.0,-4.202686202686203,0.6875,4.65625,1.375,1.376068376068376,0.0,-3.398046398046398,1.03125,5.34375,0.0,1.205128205128205,0.0,-3.3992673992673987,1.15625,5.6875,0.0,-0.5506715506715507,0.0,-3.4896214896214897,1.65625,6.65625,0.6875,0.0,0.0,-2.705738705738706,2.21875,7.625,0.75,-0.6251526251526252,1.1343101343101345,-2.0146520146520146,2.8125,8.3125,0.84375,0.0,0.9572649572649572,-1.68986568986569,3.28125,8.59375,0.90625,2.0024420024420024,0.7582417582417582,-1.2271062271062272,3.625,8.4375,0.84375,0.0,1.4554334554334554,-1.1111111111111112,4.125,8.84375,0.90625,0.0,0.7887667887667887,0.0,4.75,9.125,1.15625,1.962148962148962,-0.6043956043956044,0.0,5.15625,8.40625,1.21875,2.593406593406593,-1.568986568986569,0.0,5.28125,7.0,1.03125,2.289377289377289,-2.1819291819291817,-1.1416361416361416,5.28125,5.875,0.84375,1.3724053724053724,-1.3125763125763126,-2.6923076923076925,4.875,4.125,0.59375,2.326007326007326,-3.10989010989011,-3.7008547008547015,4.375,2.84375,0.0,2.102564102564102,-2.413919413919414,-3.652014652014652,3.53125,1.34375,0.0,0.0,-1.691086691086691,-4.130647130647131,3.0625,0.0,-0.8125,0.0,-1.5482295482295485,-4.463980463980464,2.6875,0.0,-1.15625,-1.4957264957264955,-1.1489621489621489,-4.605616605616605,2.3125,0.0,-1.28125,-2.532356532356532,-0.7448107448107448,-4.506715506715507,2.09375,0.0,-1.09375,-1.8205128205128205,-0.9218559218559218,-4.188034188034188,1.96875,0.0,-0.875,-1.8559218559218558,-1.514041514041514,-3.877899877899878,1.75,0.0,-0.875,-1.9426129426129424,-1.1916971916971917,-3.58974358974359,1.5,0.0,-0.9375,-2.7045177045177047,0.0,-3.8937728937728937,1.28125,0.0,-1.0,-3.0158730158730163,0.0,-4.245421245421245,1.03125,0.0,-0.78125,-3.0793650793650795,0.0,-4.38949938949939,0.8125,0.0,-0.59375,-3.043956043956044,0.0,-4.018315018315018,0.6875,0.0,0.0,-2.240537240537241,0.0,-3.5152625152625148,0.5625,0.0,0.0,-1.9194139194139197,0.0,-3.1538461538461537,0.0,0.0,0.0,-2.083028083028083,-0.7814407814407814,-3.0085470085470085,0.0,0.0,0.0,-1.7045177045177045,0.0,-2.371184371184371,0.0,0.0,0.0,-1.42002442002442,0.0,-1.57997557997558,0.0,0.0,0.0,-0.9389499389499391,0.0,-0.9548229548229548,0.0,0.0,0.0,-0.5958485958485958,0.0,-0.5201465201465202,0.0,0.0,0.0,-0.6678876678876678,-0.5750915750915749,-0.5873015873015873,0.0,0.0,0.0,0.0,0.0,-0.5641025641025641,0.0,0.0,0.0,0.0,0.0,0.0,0.0,0.0,0.0,0.0,0.0,0.0,0.0,0.0,0.0,0.0,-0.7655677655677655,0.0,0.0,0.0,0.0,0.0,0.0,0.0,0.0,0.0,0.0,0.0,0.0,0.0,0.0,0.0,0.0,0.0,0.0,0.0,0.0,0.0,0.0,0.0,0.0,0.0,0.0,0.0,0.0,0.0,0.0,0.0,0.0,0.0,0.0,0.0,0.0,0.0,0.0,0.0,0.0,0.0,0.0,0.0,0.0,0.0,0.0,0.0,0.0,0.0,0.0,0.0,0.0,0.0,-0.568986568986569,-0.5372405372405372,0.0,0.0,0.0,0.0,0.0,-0.6312576312576312,0.0,0.0,0.0,0.0,0.0,-0.6410256410256411,0.0,0.0,0.0,-0.5518925518925519,0.0,-0.7423687423687424,0.0,0.0,0.0,-0.5702075702075702,0.0,-0.7301587301587301,0.0,0.0,0.0,,,,,,,,,,,,,,,,,,,,,,,,,,,,,,,,,,,,,,,,,,,,,,,,,start
accX,0.0,0.0,0.0,0.0,0.0,0.0,0.5079365079365079,0.0,-0.6947496947496947,0.59375,0.0,0.0,0.0,0.6605616605616605,-1.387057387057387,0.75,0.71875,0.0,-1.3492063492063493,1.4908424908424909,-2.514041514041514,1.25,2.0625,1.125,-1.876678876678877,1.1172161172161172,-3.741147741147741,1.875,4.0625,2.09375,0.0,-0.6275946275946276,-3.5482295482295485,2.21875,5.65625,2.21875,1.2454212454212454,0.0,-1.884004884004884,2.6875,6.8125,1.625,2.004884004884005,-0.7924297924297924,-1.0268620268620268,3.21875,7.4375,1.25,2.515262515262515,-0.8522588522588522,0.0,3.5625,7.4375,0.9375,3.0293040293040288,-0.7252747252747253,-0.503052503052503,3.75,7.15625,0.59375,2.9438339438339436,-0.7240537240537241,-1.065934065934066,3.78125,6.71875,0.0,3.5286935286935286,-1.9084249084249083,0.0,3.1875,6.3125,0.0,2.811965811965812,0.0,0.0,3.125,5.78125,-0.53125,0.9047619047619048,0.6764346764346765,0.0,3.34375,5.375,-0.5625,0.7448107448107448,0.0,0.0,3.75,5.53125,0.0,1.7252747252747254,0.0,0.0,4.0625,5.5625,0.0,2.0073260073260077,-0.5970695970695971,0.0,4.25,4.96875,0.0,0.0,-0.9792429792429792,-0.9096459096459096,4.40625,4.34375,0.0,-0.6996336996336996,-1.6336996336996337,-1.2857142857142858,4.6875,4.46875,0.0,0.8217338217338217,-1.8864468864468864,-1.6092796092796091,4.6875,4.59375,0.0,2.1123321123321124,-2.8669108669108665,-2.2771672771672766,4.40625,3.90625,0.0,1.5836385836385836,-3.3418803418803416,-2.9694749694749696,3.84375,2.875,0.0,1.468864468864469,-3.1074481074481075,-2.7802197802197797,3.1875,2.15625,0.0,1.4908424908424909,-3.1037851037851034,-2.4346764346764345,2.71875,0.96875,0.0,1.2942612942612943,-2.8083028083028077,-2.7008547008547015,2.4375,0.0,-0.75,0.0,-2.05006105006105,-3.236874236874237,2.15625,0.0,-0.9375,-0.7521367521367521,-1.8559218559218558,-3.642246642246642,1.9375,0.0,-0.9375,-1.4761904761904765,-1.9584859584859584,-3.3443223443223444,1.84375,0.0,-0.9375,-0.8791208791208791,-1.6703296703296704,-2.614163614163614,1.75,0.0,-0.9375,-1.2454212454212454,-1.7081807081807079,-2.606837606837607,1.65625,-0.8125,-1.03125,-2.41025641025641,-2.0989010989010994,-2.971916971916972,1.5625,-0.84375,-1.03125,-2.195360195360196,-1.0134310134310134,-3.2063492063492065,1.5625,-0.84375,-1.09375,-2.474969474969475,0.0,-3.9511599511599513,1.5,-0.84375,-1.15625,-2.8058608058608057,0.0,-4.853479853479853,1.28125,-0.78125,-1.0625,-3.2991452991452985,0.0,-5.368742368742368,0.90625,-0.5625,-0.78125,-3.1526251526251525,0.0,-4.970695970695972,0.53125,0.0,-0.5625,-2.9206349206349205,0.0,-4.122100122100122,0.0,0.0,0.0,-2.533577533577533,0.0,-3.725274725274725,0.0,0.0,0.0,-2.3650793650793656,0.0,-2.913308913308913,0.0,0.0,0.0,-1.9914529914529917,0.0,-1.9047619047619049,0.0,0.0,0.0,-1.7973137973137974,-0.5054945054945055,-1.043956043956044,0.0,0.0,0.0,-1.4676434676434675,-0.5604395604395604,0.0,0.0,0.0,0.0,-0.5702075702075702,0.0,0.0,0.0,0.0,0.0,0.0,0.0,0.7167277167277167,0.0,0.0,0.0,0.0,0.0,0.6398046398046398,0.0,0.0,0.0,0.0,0.0,0.0,0.0,0.0,0.0,0.0,0.0,0.0,0.0,0.0,0.0,0.7081807081807082,0.0,0.0,0.0,0.0,0.0,0.6483516483516484,0.0,0.0,0.0,0.0,0.0,0.6007326007326007,-0.6739926739926739,0.0,0.0,0.0,0.0,0.0,0.0,0.0,0.0,0.0,0.0,0.0,0.0,0.0,0.0,0.0,0.0,0.0,0.0,0.0,0.0,0.0,0.0,0.0,0.0,0.0,0.0,0.0,0.0,0.0,0.0,0.0,0.0,0.0,0.0,0.0,0.0,0.0,0.0,0.0,0.0,0.0,0.0,0.0,0.0,0.0,0.0,-0.6874236874236874,0.0,-0.7582417582417582,0.0,0.0,0.0,-0.5995115995115995,0.0,-0.6129426129426129,0.0,0.0,0.0,0.0,0.0,-0.6178266178266179,0.0,0.0,0.0,-0.8656898656898657,0.0,-0.8974358974358975,0.0,0.0,0.0,-0.7851037851037851,0.0,-0.9377289377289376,0.0,0.0,0.0,0.0,0.0,-0.5909645909645911,0.0,0.0,0.0,,,,,,,,,,,,,,,,,,,,,,,,,,,,,,,,,,,,,,,,,,,start
accX,0.5067155067155067,0.0,-1.1916971916971917,0.0,0.0,0.0,0.5726495726495726,0.8840048840048841,-1.1892551892551892,0.0,0.0,0.0,1.5934065934065933,1.1062271062271063,-1.1904761904761905,0.625,0.0,0.0,0.0,1.5384615384615383,-2.323565323565324,1.09375,1.53125,0.75,0.0,0.5775335775335775,-5.006105006105006,1.40625,3.1875,1.4375,1.6971916971916972,-1.103785103785104,-4.778998778998779,1.5,4.5625,1.78125,3.4847374847374852,-2.0073260073260077,-3.956043956043956,1.09375,4.875,1.71875,2.9890109890109886,0.0,-2.4932844932844933,0.875,4.53125,1.46875,0.971916971916972,0.9218559218559218,-1.474969474969475,1.375,4.6875,1.40625,-1.2954822954822955,2.191697191697192,0.0,2.59375,5.4375,2.0,-0.6910866910866911,-0.518925518925519,0.0,4.15625,6.78125,2.59375,2.1770451770451764,-2.705738705738706,0.0,4.78125,7.6875,2.25,3.13064713064713,-2.9670329670329667,-0.6361416361416361,4.65625,7.59375,1.40625,3.258852258852259,-1.7924297924297925,0.0,4.34375,7.0,0.0,2.537240537240537,-0.7545787545787546,0.0,4.53125,6.40625,0.0,1.827838827838828,-0.9902319902319904,0.0,5.0,5.53125,-0.71875,0.0,-1.072039072039072,-1.1672771672771671,5.21875,5.40625,-0.75,0.0,-1.3797313797313795,-1.8827838827838828,5.125,5.34375,-0.6875,0.0,-1.6019536019536018,-1.7582417582417582,5.28125,5.15625,0.0,1.3943833943833943,-2.5763125763125765,-1.5873015873015872,5.28125,4.71875,0.0,2.58974358974359,-3.811965811965812,-1.8473748473748477,4.96875,3.6875,-0.59375,2.0085470085470085,-4.291819291819292,-2.7875457875457874,4.40625,2.625,-1.03125,1.0634920634920637,-4.004884004884005,-3.2576312576312576,3.84375,1.8125,-1.375,0.5750915750915749,-3.5006105006105006,-3.0366300366300365,3.3125,1.09375,-1.375,0.0,-3.2844932844932844,-2.7313797313797314,2.84375,0.0,-1.40625,0.0,-2.4761904761904763,-2.7667887667887667,2.5,0.0,-1.59375,-1.2527472527472527,-2.68009768009768,-3.523809523809524,2.21875,0.0,-1.625,-2.4688644688644694,-0.8778998778998779,-4.0256410256410255,2.0,0.0,-1.4375,-2.213675213675214,-0.5909645909645911,-4.1550671550671545,1.96875,0.0,-1.1875,-2.330891330891331,-0.757020757020757,-4.5335775335775335,1.75,-0.6875,-1.15625,-3.2234432234432235,-0.503052503052503,-4.648351648351649,1.4375,-0.90625,-1.21875,-3.875457875457876,0.0,-4.6923076923076925,1.125,-0.9375,-1.0625,-3.948717948717949,0.0,-4.492063492063492,0.9375,-0.75,-0.8125,-3.523809523809524,0.0,-4.3931623931623935,0.84375,-0.5625,-0.59375,-3.391941391941392,0.0,-4.327228327228327,0.71875,0.0,0.0,-3.2710622710622714,-0.5372405372405372,-3.8998778998779,0.0,0.0,0.0,-3.0781440781440783,-0.5873015873015873,-3.148962148962149,0.0,0.0,0.0,-2.52991452991453,0.0,-2.3028083028083026,0.0,0.0,0.0,-1.7704517704517704,0.0,-1.5018315018315018,0.0,0.0,0.0,-0.9865689865689866,0.0,-1.0586080586080586,0.0,0.0,0.0,-1.0537240537240538,-1.4908424908424909,-1.804639804639805,0.0,0.0,0.0,-1.0561660561660562,-0.8669108669108669,-1.5018315018315018,0.0,0.0,0.0,0.0,0.0,-0.5714285714285714,0.0,0.0,0.0,0.0,0.0,0.0,0.0,0.0,0.0,0.5079365079365079,-0.94993894993895,0.0,0.0,0.0,0.0,0.0,-1.617826617826618,-0.5641025641025641,0.0,0.0,0.0,0.0,-0.8620268620268621,0.0,0.0,0.0,0.0,0.0,-0.536019536019536,0.7289377289377289,0.0,0.0,0.0,0.8840048840048841,-0.663003663003663,0.8009768009768009,0.0,0.0,0.0,0.0,-1.1746031746031746,0.0,0.0,0.0,0.0,0.0,0.0,0.5934065934065934,0.0,0.0,0.0,0.0,0.0,0.0,0.0,0.0,0.0,0.0,-0.503052503052503,0.0,0.0,0.0,0.0,-0.7387057387057387,-0.6593406593406593,-1.061050061050061,0.0,0.0,0.0,-1.0183150183150182,0.0,-1.2893772893772897,0.0,0.0,0.0,-1.2210012210012209,0.0,-1.5128205128205128,0.0,0.0,0.0,-1.0256410256410255,0.0,-1.7557997557997558,0.0,0.0,0.0,-1.286935286935287,0.0,-2.068376068376069,0.0,0.0,0.0,-1.531135531135531,0.0,-2.6581196581196584,0.0,0.0,0.0,-1.78021978021978,0.0,-2.9877899877899887,-0.75,0.0,0.0,,,,,,,,,,,,,,,,,,,,,,,,,,,,,,,,,,,,,,,,,,,,,,,,,,,,,,,,,,,,,start
accX,0.7191697191697192,0.5506715506715507,-0.5054945054945055,0.53125,0.0,0.0,0.0,0.0,-0.9633699633699634,0.96875,0.0,0.0,-0.8827838827838828,1.1391941391941391,-1.9658119658119655,1.46875,1.3125,0.78125,-1.568986568986569,1.7912087912087913,-3.1672771672771667,2.375,3.75,1.75,0.0,1.293040293040293,-3.0354090354090357,3.15625,5.59375,1.875,2.7875457875457874,-1.2246642246642248,-2.8363858363858365,3.375,6.53125,1.5625,4.716727716727717,-2.683760683760684,-2.8034188034188032,3.15625,6.75,1.0,4.514041514041514,-3.1880341880341883,-2.6434676434676434,2.90625,6.96875,0.5625,4.344322344322343,-2.4310134310134313,-1.7936507936507935,2.90625,7.03125,0.0,3.0976800976800978,-1.2332112332112333,-1.1636141636141637,3.25,7.09375,0.0,2.503052503052503,-0.5750915750915749,-0.7728937728937729,3.625,7.0625,0.0,2.888888888888889,-1.028083028083028,-1.1916971916971917,3.65625,6.65625,-0.59375,2.1098901098901104,0.0,-1.6349206349206349,3.53125,6.34375,-0.875,1.0183150183150182,0.0,-1.6813186813186811,3.65625,6.3125,-0.71875,1.3601953601953602,0.0,-1.413919413919414,3.8125,6.125,-0.5625,0.9389499389499391,0.0,0.0,4.0,5.25,-0.71875,0.8192918192918193,0.0,-1.2295482295482296,4.1875,4.65625,-0.65625,0.0,-1.5811965811965811,-1.815628815628816,4.125,3.90625,-0.59375,0.0,-1.5726495726495726,-2.0769230769230766,3.9375,3.375,0.0,0.8351648351648352,-1.442002442002442,-2.3321123321123323,3.84375,2.84375,0.0,0.7057387057387058,-2.192918192918193,-2.4713064713064714,3.65625,2.28125,0.0,-0.6336996336996337,-2.78998778998779,-2.52014652014652,3.4375,1.75,-0.5625,0.0,-2.1257631257631258,-2.324786324786325,3.0,1.59375,-0.5625,0.6813186813186813,-1.8339438339438336,-1.9133089133089132,2.65625,1.09375,-0.625,-0.7960927960927959,-1.9719169719169718,-2.2869352869352872,2.3125,0.0,-0.8125,-1.9768009768009769,-1.1489621489621489,-2.4786324786324787,2.125,0.0,-0.9375,-1.7142857142857142,-1.0073260073260073,-2.4932844932844933,2.0625,0.0,-0.96875,-1.915750915750916,-1.0769230769230769,-3.0415140415140414,1.9375,0.0,-1.09375,-2.409035409035409,-0.6190476190476191,-3.717948717948718,1.8125,-0.65625,-1.1875,-2.831501831501832,0.0,-4.608058608058609,1.625,-0.90625,-1.0625,-3.102564102564102,0.0,-5.249084249084249,1.34375,-0.96875,-0.875,-3.075702075702076,0.7875457875457875,-5.361416361416361,1.0625,-0.875,-0.75,-3.3162393162393164,0.912087912087912,-5.492063492063493,0.8125,-0.65625,0.0,-3.2905982905982905,0.5811965811965812,-5.434676434676435,0.0,0.0,0.0,-2.9316239316239314,0.7240537240537241,-4.615384615384615,0.0,0.0,0.0,-2.8534798534798536,0.7350427350427351,-3.5579975579975582,0.0,0.0,0.0,-2.351648351648352,0.8937728937728938,-2.4383394383394386,0.0,0.0,0.0,-1.8217338217338217,0.0,-1.8388278388278387,0.0,0.0,0.0,-1.463980463980464,0.0,-1.1538461538461535,0.0,0.0,0.0,-0.6923076923076923,0.0,-0.6691086691086691,0.0,0.0,0.0,0.0,0.0,0.0,0.0,0.0,0.0,0.0,0.0,0.0,0.0,0.0,0.0,0.0,0.0,0.0,0.0,0.0,0.0,0.0,0.0,0.0,0.0,0.0,0.0,0.0,0.0,0.0,0.0,0.0,0.0,0.0,0.0,0.0,0.0,0.0,0.0,0.0,0.0,0.0,0.0,0.0,0.0,0.0,0.0,0.0,0.0,0.0,0.0,0.0,0.0,0.0,0.0,0.0,0.0,0.0,0.0,0.0,0.0,0.0,0.0,0.0,0.0,0.0,0.0,0.0,0.0,0.0,0.0,0.0,0.0,0.0,0.0,0.0,0.0,0.0,0.0,0.0,0.0,0.0,0.0,0.0,0.0,0.0,0.0,-0.6105006105006106,0.0,-0.5616605616605617,0.0,0.0,0.0,-0.7875457875457875,0.5164835164835165,-0.6947496947496947,0.0,0.0,0.0,-0.6336996336996337,0.0,-1.0708180708180708,0.0,0.0,0.0,-1.0757020757020757,0.0,-1.3308913308913308,0.0,0.0,0.0,-1.5433455433455434,0.0,-1.9584859584859584,0.0,0.0,0.0,,,,,,,,,,,,,,,,,,,,,,,,,,,,,,,,,,,,,,,,,,,,,,,,,,,,,,,,,,,,,,,,,,,start
accX,0.0,0.0,0.0,0.0,0.0,0.0,0.5421245421245421,0.0,0.0,0.0,0.0,0.0,0.0,0.6227106227106227,0.0,0.71875,0.0,0.0,0.0,0.0,-1.0549450549450552,0.75,0.0,0.0,0.956043956043956,0.0,-2.380952380952381,0.65625,0.0,0.0,0.0,1.3003663003663004,-3.393162393162393,0.78125,1.34375,0.625,0.0,1.5970695970695972,-4.511599511599512,1.15625,2.59375,1.21875,0.0,0.0,-5.362637362637362,1.21875,4.4375,1.65625,2.8107448107448105,-0.5970695970695971,-3.706959706959707,1.125,5.03125,1.5625,2.225885225885226,0.0,-2.956043956043956,1.3125,5.40625,1.3125,1.424908424908425,0.0,-2.1965811965811968,1.875,6.0625,1.09375,1.5946275946275947,-0.5201465201465202,-1.4908424908424909,2.625,7.03125,0.90625,2.305250305250305,-1.2503052503052503,-1.2344322344322345,3.0,7.5625,0.5625,2.3345543345543347,-1.031746031746032,-1.1733821733821734,3.09375,7.6875,0.0,1.5555555555555556,0.0,-0.6336996336996337,3.3125,7.6875,0.0,2.0695970695970702,0.0,0.0,3.8125,7.53125,0.0,2.4053724053724053,0.0,0.0,4.03125,7.09375,0.0,1.9072039072039075,0.0,-0.6532356532356532,3.9375,6.3125,0.0,1.326007326007326,0.0,-0.7448107448107448,3.96875,5.59375,-0.625,0.0,0.0,-1.123321123321123,4.5,4.75,-0.625,0.0,0.0,-1.5811965811965811,4.78125,4.5,0.0,-0.7289377289377289,-1.3858363858363858,-2.1623931623931623,4.90625,4.5,0.0,0.0,-2.32967032967033,-2.4737484737484743,4.8125,4.21875,0.0,1.3907203907203909,-3.421245421245421,-2.351648351648352,4.5625,3.375,0.0,1.9426129426129424,-4.1037851037851025,-2.354090354090354,4.1875,2.28125,0.0,1.8901098901098898,-4.0708180708180715,-2.873015873015873,3.65625,1.21875,-0.8125,0.0,-3.4713064713064714,-3.6434676434676434,3.28125,0.625,-1.15625,-1.6703296703296704,-3.1391941391941387,-4.454212454212454,2.90625,0.71875,-1.15625,-2.101343101343101,-2.9450549450549453,-4.2967032967032965,2.625,0.84375,-0.9375,-0.7973137973137974,-2.3663003663003663,-4.125763125763126,2.3125,0.0,-0.96875,-0.9194139194139194,-1.9377289377289375,-4.401709401709402,1.8125,0.0,-1.1875,-2.5763125763125765,0.0,-5.4664224664224665,1.5,-0.625,-1.21875,-3.161172161172161,0.0,-5.660561660561662,1.15625,-0.53125,-1.0625,-3.3162393162393164,0.0,-5.385836385836386,0.875,0.0,-0.6875,-2.3565323565323566,0.0,-4.8046398046398044,0.65625,0.0,0.0,-2.2002442002442004,0.0,-4.462759462759463,0.0,0.0,0.0,-2.8180708180708183,-0.5628815628815629,-4.039072039072039,0.0,0.0,0.0,-2.645909645909646,0.0,-3.1416361416361416,0.0,0.0,0.0,-1.5702075702075702,0.0,-2.2246642246642248,0.0,0.0,0.0,-1.1965811965811963,0.0,-1.47985347985348,0.0,0.0,0.0,-0.9267399267399268,-0.6776556776556777,-1.010989010989011,0.0,0.0,0.0,0.0,-1.15995115995116,-0.6080586080586079,0.0,0.0,0.0,0.0,-0.5054945054945055,0.0,0.0,0.0,0.0,0.0,0.0,0.0,0.0,0.0,0.0,0.0,0.0,0.0,0.0,0.0,0.0,0.0,-1.0427350427350428,0.0,0.0,0.0,0.0,0.0,-0.8253968253968254,0.0,0.0,0.0,0.0,0.0,0.0,0.0,0.0,0.0,0.0,0.0,0.0,0.0,0.0,0.0,0.0,0.0,-0.5335775335775336,0.0,0.0,0.0,0.0,0.0,0.0,0.0,0.0,0.0,0.0,0.0,0.0,0.0,0.0,0.0,0.0,0.0,0.0,0.0,0.0,0.0,0.0,0.0,0.0,0.0,0.0,0.0,0.0,0.0,-0.6752136752136753,-0.6349206349206349,0.0,0.0,0.0,-0.7252747252747253,0.0,-0.557997557997558,0.0,0.0,0.0,-0.5702075702075702,0.0,-0.6800976800976801,0.0,0.0,0.0,-0.6617826617826618,0.0,-0.9328449328449328,0.0,0.0,0.0,,,,,,,,,,,,,,,,,,,,,,,,,,,,,,,,,,,,,,,,,,,,,,,,,,,,,,,,,,,,,,,,,,,,,,,,,start
accX,1.242979242979243,0.0,-2.7338217338217334,0.625,0.59375,0.0,0.0,1.4566544566544566,-3.3785103785103785,0.9375,1.375,0.59375,0.0,0.7142857142857143,-4.12942612942613,1.5,2.75,1.28125,1.4590964590964588,-1.536019536019536,-4.559218559218559,1.84375,4.25,1.65625,3.4884004884004884,-1.8339438339438336,-3.5262515262515266,1.53125,4.78125,1.6875,2.4603174603174605,-1.10989010989011,-2.85958485958486,1.34375,4.90625,1.28125,1.4456654456654456,0.0,-2.2844932844932844,1.5625,5.5,1.125,1.3956043956043955,0.0,-1.3907203907203909,2.3125,6.4375,0.9375,1.7765567765567765,-0.63003663003663,-1.120879120879121,3.09375,7.25,0.0,2.1086691086691087,-0.7741147741147741,-1.164835164835165,3.53125,7.5625,0.0,1.7960927960927962,-0.6556776556776557,-1.4957264957264955,3.65625,7.5,0.0,1.15995115995116,0.5726495726495726,-1.4578754578754578,3.78125,7.4375,0.0,1.7985347985347986,1.0451770451770452,-1.175824175824176,3.9375,7.0625,0.0,1.5518925518925517,1.6385836385836383,-1.4114774114774116,4.0625,6.4375,0.0,0.6727716727716728,1.3406593406593406,-2.028083028083028,4.1875,5.9375,-0.53125,0.0,0.0,-2.537240537240537,4.0625,5.5625,0.0,0.5335775335775336,-0.5909645909645911,-2.4224664224664223,3.84375,5.09375,0.0,1.0,-0.9133089133089132,-2.1135531135531136,3.84375,4.53125,0.0,1.9365079365079363,-0.8046398046398047,-1.586080586080586,4.0,3.65625,0.0,1.2063492063492065,-1.8522588522588523,-2.4517704517704515,3.84375,3.03125,0.0,1.2332112332112333,-2.213675213675214,-2.8241758241758244,3.5625,2.5,0.0,0.6019536019536019,-2.814407814407814,-2.5396825396825395,3.1875,2.03125,0.0,0.8827838827838828,-2.855921855921856,-1.9743589743589745,2.9375,1.4375,0.0,0.0,-2.1135531135531136,-1.3003663003663004,2.6875,0.65625,-0.84375,0.0,-1.7179487179487178,-1.9145299145299144,2.625,0.0,-0.96875,-0.8412698412698413,-1.844932844932845,-3.2429792429792434,2.4375,0.0,-1.1875,-2.236874236874237,-1.391941391941392,-4.0708180708180715,2.15625,-0.5625,-1.375,-2.9194139194139197,-0.7252747252747253,-4.1391941391941405,1.96875,-0.53125,-1.3125,-2.667887667887668,0.0,-4.547008547008547,1.875,-0.59375,-1.125,-3.483516483516484,0.0,-5.135531135531137,1.625,-0.6875,-1.15625,-3.8669108669108665,0.0,-5.440781440781442,1.3125,-0.59375,-0.96875,-3.7020757020757022,0.0,-5.501831501831502,0.96875,0.0,-0.65625,-3.3772893772893773,0.0,-4.9010989010989015,0.65625,0.0,0.0,-2.717948717948718,0.0,-3.913308913308913,0.0,0.0,0.0,-2.102564102564102,-0.5201465201465202,-3.1746031746031744,0.0,0.0,0.0,-1.5970695970695972,0.0,-2.2698412698412698,0.0,0.0,0.0,-1.5763125763125765,0.0,-1.9072039072039075,0.0,0.0,0.0,-1.3394383394383391,-0.7106227106227107,-1.6813186813186811,0.0,0.0,0.0,-1.3504273504273503,-0.8522588522588522,-1.4334554334554337,0.0,0.0,0.0,-0.9072039072039072,-0.5347985347985348,-0.8327228327228328,0.0,0.0,0.0,0.0,0.0,0.0,0.0,0.0,0.0,0.0,0.0,0.0,0.0,0.0,0.0,0.0,-0.9438339438339438,0.0,0.0,0.0,0.0,0.0,-0.9352869352869352,0.0,0.0,0.0,0.0,0.0,-0.6483516483516484,0.0,0.0,0.0,0.0,0.0,0.0,0.5347985347985348,0.0,0.0,0.0,0.0,0.0,0.0,0.0,0.0,0.0,0.0,-0.6886446886446886,-0.6544566544566545,0.0,0.0,0.0,0.0,0.0,0.0,0.0,0.0,0.0,0.0,0.0,0.0,0.0,0.0,0.0,0.0,0.0,-0.5982905982905983,0.0,0.0,0.0,-0.6898656898656899,-0.568986568986569,-1.1135531135531136,0.0,0.0,0.0,0.0,0.0,-0.7203907203907204,0.0,0.0,0.0,0.0,0.0,0.0,0.0,0.0,0.0,0.0,0.0,0.0,0.0,0.0,0.0,-0.7985347985347986,0.0,-0.6568986568986569,0.0,0.0,0.0,,,,,,,,,,,,,,,,,,,,,,,,,,,,,,,,,,,,,,,,,,,,,,,,,,,,,,,,,,,,,,,,,,,,,,,,,,,,,,,,,,,,,start
accX,0.0,0.0,0.0,0.625,0.0,0.0,0.0,0.7973137973137974,-0.956043956043956,0.9375,0.6875,0.53125,-0.9096459096459096,0.8840048840048841,-2.36019536019536,1.3125,1.46875,1.03125,0.0,0.7557997557997558,-3.6935286935286937,1.65625,2.5625,1.6875,0.0,-0.6312576312576312,-4.5177045177045185,1.96875,3.875,2.09375,2.3956043956043955,-2.068376068376069,-4.020757020757022,2.25,5.25,2.0625,3.1526251526251525,-1.9047619047619049,-2.715506715506716,2.34375,5.875,1.4375,2.1794871794871797,-1.2527472527472527,-2.1636141636141635,2.65625,6.40625,1.0,1.1746031746031746,0.0,-1.7435897435897436,3.1875,6.96875,0.90625,0.0,0.0,-1.6202686202686205,4.0,8.03125,0.96875,1.2722832722832722,0.0,-1.0915750915750917,4.53125,8.8125,1.03125,2.793650793650793,-1.020757020757021,-0.5982905982905983,4.71875,8.875,0.90625,2.829059829059829,0.0,0.0,5.03125,8.59375,0.71875,2.669108669108669,-1.0402930402930404,0.6642246642246642,5.40625,8.0,0.625,3.9023199023199022,-2.518925518925519,0.0,5.46875,6.84375,0.0,3.5372405372405376,-3.6434676434676434,-0.9401709401709402,5.21875,5.5,0.0,1.7423687423687424,-3.4224664224664223,-1.9023199023199024,5.0625,4.71875,0.0,0.8876678876678876,-3.8864468864468864,-2.490842490842491,4.84375,4.3125,0.0,1.7826617826617828,-4.305250305250305,-1.5128205128205128,4.25,3.1875,0.0,1.8901098901098898,-3.85958485958486,-1.4078144078144081,3.8125,1.9375,0.0,0.0,-3.8327228327228333,-1.6666666666666667,3.625,0.96875,-0.6875,-0.9694749694749696,-3.4420024420024418,-2.214896214896215,3.46875,0.65625,-0.71875,0.0,-2.9670329670329667,-2.3956043956043955,3.28125,0.0,-0.8125,-0.7912087912087912,-2.683760683760684,-2.8998778998779,3.0625,0.0,-1.0,-1.975579975579976,-3.240537240537241,-3.772893772893773,2.78125,0.0,-1.1875,-1.956043956043956,-1.8180708180708183,-3.748473748473749,2.4375,-0.78125,-1.21875,-2.3956043956043955,-1.4334554334554337,-4.2283272283272275,2.28125,-1.125,-1.09375,-3.0549450549450547,-1.2368742368742371,-5.305250305250305,2.1875,-1.1875,-1.125,-3.324786324786325,-0.851037851037851,-5.9413919413919425,1.9375,-0.9375,-1.03125,-3.258852258852259,-0.57997557997558,-6.0366300366300365,1.625,-0.78125,-0.8125,-3.0891330891330893,0.0,-5.746031746031746,1.09375,-0.59375,-0.5625,-2.9682539682539684,0.0,-5.413919413919414,0.8125,0.0,0.0,-2.6849816849816848,-0.5738705738705738,-4.78998778998779,0.53125,0.0,0.0,-1.4493284493284493,0.0,-3.826617826617827,0.0,0.0,0.0,-1.5030525030525033,0.0,-3.601953601953602,0.0,0.0,0.0,-1.8192918192918195,0.0,-3.1855921855921854,0.0,0.0,0.0,-1.5543345543345544,-0.7203907203907204,-2.555555555555556,0.0,0.0,0.0,-1.1257631257631258,-1.0573870573870574,-1.78021978021978,0.0,0.0,0.0,-0.9902319902319904,-0.8144078144078144,-0.7191697191697192,0.0,0.0,0.0,0.0,0.0,0.0,0.0,0.0,0.0,0.0,0.0,0.0,0.0,0.0,0.0,0.0,-0.9413919413919414,0.0,0.0,0.0,0.0,0.0,0.0,0.0,0.0,0.0,0.0,0.0,0.0,0.0,0.0,0.0,0.0,0.0,0.0,0.0,0.0,0.0,0.0,0.0,0.0,0.0,0.0,0.0,0.0,-0.7167277167277167,0.0,-0.6288156288156288,0.0,0.0,0.0,-0.6739926739926739,0.0,0.0,0.0,0.0,0.0,0.0,0.0,0.0,0.0,0.0,0.0,0.0,-0.5811965811965812,0.0,0.0,0.0,0.0,-0.956043956043956,0.0,-0.6373626373626373,0.0,0.0,0.0,-1.0244200244200243,0.0,-0.57997557997558,0.0,0.0,0.0,-0.503052503052503,0.0,-0.6043956043956044,0.0,0.0,0.0,-0.7667887667887668,0.0,-1.051282051282051,0.0,0.0,0.0,-0.6910866910866911,0.0,-1.31013431013431,0.0,0.0,0.0,-0.8290598290598291,0.0,-1.5286935286935286,0.0,0.0,0.0,-0.7277167277167277,0.0,-1.7741147741147743,0.0,0.0,0.0,-1.3113553113553114,0.0,-1.9304029304029304,0.0,0.0,0.0,-1.5641025641025639,0.0,-1.733821733821734,-0.625,0.0,0.0,-1.398046398046398,0.0,-1.1819291819291822,-0.59375,0.0,0.8125,0.0,-0.9816849816849816,-0.9426129426129426,-0.6875,0.0,0.84375,,,,,,,,,,,,,,,,,,,,,,,,,,,,,,,,,,,,,,,,,,,,,,,,,,,,,,,start
accX,0.0,0.0,0.0,0.53125,0.0,0.0,0.0,0.8192918192918193,0.0,0.78125,0.0,0.53125,-2.126984126984127,2.103785103785104,-0.9731379731379732,1.4375,1.625,1.40625,-2.523809523809524,2.5921855921855923,-2.3675213675213675,2.375,3.28125,2.53125,0.0,0.5995115995115995,-4.188034188034188,2.9375,4.625,3.09375,2.072039072039072,-1.557997557997558,-5.12087912087912,2.78125,5.46875,2.59375,3.371184371184371,-1.1257631257631258,-4.367521367521366,2.59375,5.875,1.78125,1.5152625152625152,0.0,-3.47008547008547,2.875,6.65625,1.625,1.0488400488400489,0.568986568986569,-2.7826617826617825,3.53125,7.65625,1.96875,2.8998778998779,0.0,-2.0488400488400487,4.125,8.09375,1.90625,3.89010989010989,-1.9145299145299144,-1.9096459096459095,4.25,8.09375,1.28125,4.693528693528694,-2.225885225885226,-1.192918192918193,4.0625,7.40625,0.0,1.6715506715506716,0.0,0.993894993894994,4.25,6.84375,0.0,2.1807081807081805,-0.7545787545787546,1.0769230769230769,4.875,6.6875,0.0,0.7814407814407814,-1.133089133089133,0.0,5.28125,6.15625,0.0,0.0,-1.9035409035409037,-0.5995115995115995,5.46875,6.03125,0.0,0.757020757020757,-2.4029304029304033,-0.7460317460317459,5.4375,5.90625,0.0,1.8253968253968251,-3.5372405372405376,-0.8083028083028083,5.375,4.96875,0.0,2.6361416361416357,-4.7252747252747245,-1.398046398046398,5.0,3.5,0.0,1.5763125763125765,-4.373626373626373,-2.003663003663004,4.4375,1.9375,-0.5625,-0.6117216117216118,-3.5482295482295485,-2.8693528693528694,3.9375,0.96875,-1.0,-1.7252747252747254,-2.501831501831502,-3.3284493284493286,3.53125,0.65625,-1.15625,-1.8547008547008548,-2.6666666666666665,-2.9987789987789983,3.125,0.5625,-1.0,-0.6031746031746031,-2.253968253968254,-2.025641025641025,2.46875,0.0,-0.96875,-0.9951159951159952,-1.6202686202686205,-2.067155067155068,2.375,-0.8125,-1.1875,-2.440781440781441,-1.9865689865689864,-2.909645909645909,2.25,-0.96875,-1.34375,-2.2210012210012207,-0.9206349206349206,-3.4871794871794872,2.125,-1.125,-1.25,-2.7350427350427347,0.0,-4.203907203907204,1.90625,-1.15625,-1.03125,-2.7533577533577533,0.0,-4.764346764346763,1.78125,-1.25,-0.8125,-3.2136752136752142,-0.5274725274725275,-5.625152625152626,1.53125,-1.1875,-0.6875,-3.5946275946275947,-0.6678876678876678,-5.852258852258853,1.125,-0.84375,-0.5625,-3.131868131868132,0.0,-5.125763125763126,0.75,-0.59375,0.0,-2.063492063492064,0.0,-4.175824175824176,0.59375,-0.6875,0.0,-2.3968253968253967,0.0,-4.394383394383396,0.0,-0.59375,0.0,-2.547008547008547,-0.5518925518925519,-4.181929181929182,0.0,0.0,0.0,-0.9462759462759462,0.0,-2.7252747252747254,0.0,0.0,0.0,-1.0488400488400489,0.0,-2.562881562881563,0.0,0.0,0.0,-1.4090354090354091,-0.9218559218559218,-2.3345543345543347,0.0,0.0,0.0,-0.6715506715506715,-0.6617826617826618,-1.1819291819291822,0.0,0.0,0.0,-0.6593406593406593,-0.5873015873015873,-0.5311355311355311,0.0,0.0,0.0,-0.8498168498168498,-0.5409035409035409,0.0,0.0,0.0,0.0,-0.7338217338217338,0.0,0.5311355311355311,0.0,0.0,0.0,-0.7435897435897436,-0.568986568986569,0.5494505494505495,0.0,0.0,0.0,0.0,0.0,0.6764346764346765,0.0,0.0,0.0,0.0,0.0,0.5543345543345544,0.0,0.0,0.0,0.0,0.0,0.5641025641025641,0.0,0.0,0.0,0.0,0.0,0.0,0.0,0.0,0.0,0.0,-0.6202686202686203,0.0,0.0,0.0,0.0,0.0,0.0,0.0,0.0,0.0,0.0,0.0,0.0,0.0,0.0,0.0,0.0,0.0,0.0,0.0,0.0,0.0,0.0,0.0,0.0,0.0,0.0,0.0,0.0,0.0,0.0,0.0,0.0,0.0,0.0,0.0,0.0,0.0,0.0,0.0,0.0,0.0,0.0,0.0,0.0,0.0,0.0,,,,,,,,,,,,,,,,,,,,,,,,,,,,,,,,,,,,,,,,,,,,,,,,,,,,,,,,,,,,,,,,,,,,,,,,,,,,,,,,,,,,,,,,,,,start
accX,0.0,0.6471306471306472,0.0,0.0,0.0,0.0,0.0,0.0,-0.7423687423687424,0.75,0.0,0.0,0.0,0.9987789987789988,-1.1636141636141637,1.15625,0.53125,0.75,-1.442002442002442,1.52014652014652,-2.6825396825396823,1.71875,1.90625,1.53125,0.0,0.0,-3.8156288156288163,1.90625,3.0625,2.0625,2.4725274725274726,-1.0634920634920637,-4.531135531135531,1.625,3.25,1.71875,1.9145299145299144,-1.017094017094017,-4.38949938949939,1.5625,4.09375,1.6875,2.659340659340659,-0.7924297924297924,-3.05006105006105,1.84375,5.0,1.65625,2.4420024420024418,0.0,-2.2844932844932844,2.34375,5.5625,1.375,0.8339438339438342,0.0,-2.0891330891330893,3.0625,6.1875,1.25,0.9365079365079364,-0.9963369963369964,-1.57997557997558,3.78125,7.125,1.21875,1.7081807081807079,-0.9096459096459096,-0.8266178266178266,4.15625,7.875,0.90625,2.105006105006105,0.0,0.0,4.34375,7.84375,0.5625,1.6593406593406594,0.5042735042735043,0.0,4.625,7.625,0.0,1.4163614163614164,-0.518925518925519,0.0,4.78125,7.375,0.0,1.1343101343101345,0.0,0.0,4.6875,7.03125,0.0,0.0,0.0,0.0,5.125,6.5,0.0,0.0,-0.8144078144078144,0.0,5.59375,6.375,0.625,2.043956043956044,-3.0390720390720385,0.0,5.46875,5.5,0.5625,2.9438339438339436,-3.8949938949938954,-0.7655677655677655,4.84375,4.0625,0.0,2.289377289377289,-4.3003663003663,-1.3186813186813189,4.125,2.65625,0.0,0.8449328449328449,-3.7472527472527473,-1.4261294261294262,3.71875,1.6875,-0.71875,0.0,-3.1367521367521367,-1.7863247863247864,3.4375,1.21875,-1.0625,0.0,-3.388278388278388,-2.086691086691087,2.875,0.78125,-1.21875,0.0,-2.131868131868132,-1.6862026862026862,2.4375,0.0,-1.34375,-0.9951159951159952,-1.7216117216117215,-1.4224664224664223,2.375,0.0,-1.34375,-1.4163614163614164,-1.975579975579976,-1.623931623931624,2.34375,-0.65625,-1.28125,-1.9426129426129424,-2.2600732600732596,-2.5873015873015874,2.0625,-0.8125,-1.375,-1.0476190476190477,0.0,-3.072039072039072,1.6875,-0.90625,-1.3125,-1.7423687423687424,0.0,-4.2344322344322345,1.65625,-1.15625,-1.25,-2.231990231990232,0.0,-5.725274725274725,1.65625,-1.25,-1.25,-3.0903540903540905,0.0,-6.971916971916972,1.28125,-1.15625,-1.28125,-3.5811965811965814,0.7777777777777778,-7.083028083028082,0.90625,-0.8125,-1.09375,-3.507936507936508,0.5018315018315018,-6.499389499389499,0.59375,-0.59375,-0.6875,-3.137973137973138,0.0,-5.4896214896214905,0.0,0.0,0.0,-3.0830280830280827,0.0,-4.180708180708181,0.0,0.0,0.0,-2.7203907203907205,0.0,-3.021978021978022,0.0,0.0,0.0,-1.7557997557997558,-0.5311355311355311,-2.249084249084249,0.0,0.0,0.0,-1.6288156288156288,-0.9438339438339438,-1.6581196581196582,0.0,0.0,0.0,-0.8534798534798534,0.0,-0.5628815628815629,0.0,0.0,0.0,-0.6727716727716728,0.0,0.0,0.0,0.0,0.0,0.0,0.0,0.0,0.0,0.0,0.0,0.0,-0.5213675213675214,0.0,0.0,0.0,0.0,0.0,0.0,0.0,0.0,0.0,0.0,0.0,0.0,0.0,0.0,0.0,0.0,0.0,0.0,0.0,0.0,0.0,0.0,0.0,0.0,0.0,0.0,0.0,0.0,0.0,0.0,0.0,0.0,0.0,0.0,0.0,-0.5518925518925519,0.0,0.0,0.0,0.0,0.0,0.0,0.0,0.0,0.0,0.0,0.0,0.0,0.0,0.0,0.0,0.0,0.0,0.0,0.0,0.0,0.0,0.0,0.0,-0.6007326007326007,0.0,0.0,0.0,0.0,0.0,0.0,0.0,0.0,0.0,0.0,-0.5775335775335775,0.0,0.0,0.0,0.0,0.0,0.0,0.0,0.0,0.0,0.0,0.0,-0.6959706959706959,0.0,-0.6471306471306472,0.0,0.0,0.0,-0.5885225885225885,0.0,-0.7472527472527473,0.0,0.0,0.0,0.0,0.0,-0.6691086691086691,0.0,0.0,0.0,0.0,0.0,-0.9316239316239316,0.0,0.0,0.0,0.0,0.0,-0.8571428571428571,0.0,0.0,0.0,-0.7191697191697192,0.0,-1.0134310134310134,0.0,0.0,0.0,0.0,0.0,-0.7716727716727717,0.0,0.0,0.0,0.0,0.0,0.0,0.0,0.0,0.0,0.0,0.0,0.0,0.0,0.0,0.0,,,,,,,,,,,,,,,,,,,,,,,,,,,,,,,start
accX,0.0,1.2515262515262515,0.0,0.0,0.0,0.0,-1.1562881562881564,1.31013431013431,-0.9902319902319904,0.84375,0.0,0.6875,-2.4786324786324787,2.452991452991453,-2.0244200244200243,1.28125,1.53125,1.3125,-1.199023199023199,0.7142857142857143,-3.1965811965811968,2.0625,3.09375,2.1875,1.3992673992673992,-1.387057387057387,-4.074481074481073,2.0,3.96875,2.46875,1.1086691086691087,-0.8620268620268621,-4.131868131868131,1.5625,4.21875,2.3125,0.0,0.0,-3.5824175824175826,1.78125,5.15625,2.46875,0.8131868131868132,-0.6556776556776557,-1.968253968253968,2.625,6.5,2.71875,0.9181929181929182,-0.6043956043956044,-0.6617826617826618,3.375,7.40625,2.34375,0.0,-0.9426129426129426,0.0,4.28125,8.6875,2.40625,2.495726495726496,-1.647130647130647,0.0,4.375,8.75,2.15625,4.406593406593408,-2.2905982905982905,0.6813186813186813,4.21875,7.78125,1.53125,4.4041514041514045,-1.3943833943833943,1.010989010989011,4.34375,6.71875,0.71875,3.731379731379731,-1.3479853479853479,0.6495726495726496,4.46875,5.71875,0.0,0.8192918192918193,-0.7045177045177046,0.0,4.75,5.5,0.0,-1.1672771672771671,-0.5592185592185592,0.0,5.34375,6.09375,0.59375,-1.017094017094017,-1.6007326007326008,0.7521367521367521,6.0,6.75,1.1875,2.2246642246642248,-3.774114774114774,1.4517704517704515,6.15625,6.1875,1.28125,5.468864468864468,-6.1037851037851025,1.3272283272283272,5.4375,4.1875,0.625,5.789987789987791,-6.9865689865689875,0.0,4.3125,1.625,0.0,2.147741147741148,-5.831501831501831,0.0,3.40625,0.0,-1.6875,-2.4566544566544573,-2.5726495726495733,-1.8864468864468864,3.46875,0.0,-1.71875,-1.2735042735042734,-3.1916971916971923,-2.483516483516484,3.4375,0.0,-1.5625,-1.3577533577533578,-3.1233211233211238,-3.0183150183150182,3.0625,0.0,-1.625,-2.1978021978021984,-2.3626373626373627,-2.7851037851037854,2.71875,0.0,-1.8125,-2.086691086691087,-1.1916971916971917,-2.9267399267399266,2.6875,0.0,-1.78125,-2.155067155067155,-1.5262515262515262,-4.4371184371184365,2.71875,-0.5625,-1.625,-2.2771672771672766,-1.2405372405372406,-5.716727716727718,2.34375,-0.78125,-1.59375,-3.686202686202686,0.0,-6.322344322344322,2.0,-0.9375,-1.5,-3.267399267399268,0.0,-6.7081807081807066,1.75,-0.75,-1.21875,-3.294261294261294,0.0,-6.5836385836385825,1.375,-0.78125,-0.9375,-3.1990231990231983,0.0,-6.1440781440781445,0.96875,-0.75,-0.6875,-3.096459096459097,0.0,-5.377289377289378,0.0,0.0,0.0,-2.6263736263736264,0.0,-4.384615384615385,0.0,0.0,0.0,-1.8534798534798536,0.0,-3.6617826617826617,0.0,0.0,0.0,-1.7728937728937728,-0.5970695970695971,-3.2612942612942613,0.0,0.0,0.0,-1.5506715506715507,-1.0915750915750917,-3.31013431013431,0.0,0.0,0.0,-1.3186813186813189,0.0,-2.449328449328449,0.0,0.0,0.0,-1.387057387057387,0.0,-1.9206349206349207,0.0,0.0,0.0,-1.3028083028083028,0.0,-1.2319902319902318,0.0,0.0,0.0,-1.166056166056166,0.0,-0.7643467643467643,0.0,0.0,0.0,-1.0769230769230769,-0.8485958485958486,0.0,0.0,0.0,0.0,-0.5018315018315018,-0.6422466422466423,0.7142857142857143,0.0,0.0,0.0,0.0,0.0,1.1709401709401708,0.0,0.0,0.0,0.0,-0.8339438339438342,0.0,0.0,0.0,0.0,0.0,-0.5482295482295483,0.0,0.0,0.0,0.0,0.6031746031746031,0.0,0.0,0.0,0.0,0.0,0.7216117216117216,0.0,0.0,0.0,0.0,0.0,0.0,0.0,0.0,0.0,0.0,0.0,0.0,-0.6251526251526252,0.0,0.0,0.0,0.0,0.0,0.0,0.0,0.0,0.0,0.0,0.0,0.0,0.0,0.0,0.0,0.0,0.0,0.0,0.0,0.0,0.0,0.0,-0.6739926739926739,0.0,-0.5628815628815629,0.0,0.0,0.0,-0.7106227106227107,0.0,-0.7655677655677655,0.0,0.0,0.0,0.0,0.0,-0.6984126984126984,0.0,0.0,0.0,,,,,,,,,,,,,,,,,,,,,,,,,,,,,,,,,,,,,,,,,,,,,,,,,,,,,,,,,,,,,,,,,,,,,,,,,,,,,,,,,,,,,start
