,00_accX,00_accY,00_accZ,00_gyroX,00_gyroY,00_gyroZ,01_accX,01_accY,01_accZ,01_gyroX,01_gyroY,01_gyroZ,02_accX,02_accY,02_accZ,02_gyroX,02_gyroY,02_gyroZ,03_accX,03_accY,03_accZ,03_gyroX,03_gyroY,03_gyroZ,04_accX,04_accY,04_accZ,04_gyroX,04_gyroY,04_gyroZ,05_accX,05_accY,05_accZ,05_gyroX,05_gyroY,05_gyroZ,06_accX,06_accY,06_accZ,06_gyroX,06_gyroY,06_gyroZ,07_accX,07_accY,07_accZ,07_gyroX,07_gyroY,07_gyroZ,08_accX,08_accY,08_accZ,08_gyroX,08_gyroY,08_gyroZ,09_accX,09_accY,09_accZ,09_gyroX,09_gyroY,09_gyroZ,10_accX,10_accY,10_accZ,10_gyroX,10_gyroY,10_gyroZ,11_accX,11_accY,11_accZ,11_gyroX,11_gyroY,11_gyroZ,12_accX,12_accY,12_accZ,12_gyroX,12_gyroY,12_gyroZ,13_accX,13_accY,13_accZ,13_gyroX,13_gyroY,13_gyroZ,14_accX,14_accY,14_accZ,14_gyroX,14_gyroY,14_gyroZ,15_accX,15_accY,15_accZ,15_gyroX,15_gyroY,15_gyroZ,16_accX,16_accY,16_accZ,16_gyroX,16_gyroY,16_gyroZ,17_accX,17_accY,17_accZ,17_gyroX,17_gyroY,17_gyroZ,18_accX,18_accY,18_accZ,18_gyroX,18_gyroY,18_gyroZ,19_accX,19_accY,19_accZ,19_gyroX,19_gyroY,19_gyroZ,20_accX,20_accY,20_accZ,20_gyroX,20_gyroY,20_gyroZ,21_accX,21_accY,21_accZ,21_gyroX,21_gyroY,21_gyroZ,22_accX,22_accY,22_accZ,22_gyroX,22_gyroY,22_gyroZ,23_accX,23_accY,23_accZ,23_gyroX,23_gyroY,23_gyroZ,24_accX,24_accY,24_accZ,24_gyroX,24_gyroY,24_gyroZ,25_accX,25_accY,25_accZ,25_gyroX,25_gyroY,25_gyroZ,26_accX,26_accY,26_accZ,26_gyroX,26_gyroY,26_gyroZ,27_accX,27_accY,27_accZ,27_gyroX,27_gyroY,27_gyroZ,28_accX,28_accY,28_accZ,28_gyroX,28_gyroY,28_gyroZ,29_accX,29_accY,29_accZ,29_gyroX,29_gyroY,29_gyroZ,30_accX,30_accY,30_accZ,30_gyroX,30_gyroY,30_gyroZ,31_accX,31_accY,31_accZ,31_gyroX,31_gyroY,31_gyroZ,32_accX,32_accY,32_accZ,32_gyroX,32_gyroY,32_gyroZ,33_accX,33_accY,33_accZ,33_gyroX,33_gyroY,33_gyroZ,34_accX,34_accY,34_accZ,34_gyroX,34_gyroY,34_gyroZ,35_accX,35_accY,35_accZ,35_gyroX,35_gyroY,35_gyroZ,36_accX,36_accY,36_accZ,36_gyroX,36_gyroY,36_gyroZ,37_accX,37_accY,37_accZ,37_gyroX,37_gyroY,37_gyroZ,38_accX,38_accY,38_accZ,38_gyroX,38_gyroY,38_gyroZ,39_accX,39_accY,39_accZ,39_gyroX,39_gyroY,39_gyroZ,40_accX,40_accY,40_accZ,40_gyroX,40_gyroY,40_gyroZ,41_accX,41_accY,41_accZ,41_gyroX,41_gyroY,41_gyroZ,42_accX,42_accY,42_accZ,42_gyroX,42_gyroY,42_gyroZ,43_accX,43_accY,43_accZ,43_gyroX,43_gyroY,43_gyroZ,44_accX,44_accY,44_accZ,44_gyroX,44_gyroY,44_gyroZ,45_accX,45_accY,45_accZ,45_gyroX,45_gyroY,45_gyroZ,46_accX,46_accY,46_accZ,46_gyroX,46_gyroY,46_gyroZ,47_accX,47_accY,47_accZ,47_gyroX,47_gyroY,47_gyroZ,48_accX,48_accY,48_accZ,48_gyroX,48_gyroY,48_gyroZ,49_accX,49_accY,49_accZ,49_gyroX,49_gyroY,49_gyroZ,50_accX,50_accY,50_accZ,50_gyroX,50_gyroY,50_gyroZ,51_accX,51_accY,51_accZ,51_gyroX,51_gyroY,51_gyroZ,52_accX,52_accY,52_accZ,52_gyroX,52_gyroY,52_gyroZ,53_accX,53_accY,53_accZ,53_gyroX,53_gyroY,53_gyroZ,54_accX,54_accY,54_accZ,54_gyroX,54_gyroY,54_gyroZ,55_accX,55_accY,55_accZ,55_gyroX,55_gyroY,55_gyroZ,56_accX,56_accY,56_accZ,56_gyroX,56_gyroY,56_gyroZ,57_accX,57_accY,57_accZ,57_gyroX,57_gyroY,57_gyroZ,58_accX,58_accY,58_accZ,58_gyroX,58_gyroY,58_gyroZ,59_accX,59_accY,59_accZ,59_gyroX,59_gyroY,59_gyroZ,60_accX,60_accY,60_accZ,60_gyroX,60_gyroY,60_gyroZ,61_accX,61_accY,61_accZ,61_gyroX,61_gyroY,61_gyroZ,62_accX,62_accY,62_accZ,62_gyroX,62_gyroY,62_gyroZ,63_accX,63_accY,63_accZ,63_gyroX,63_gyroY,63_gyroZ,64_accX,64_accY,64_accZ,64_gyroX,64_gyroY,64_gyroZ,65_accX,65_accY,65_accZ,65_gyroX,65_gyroY,65_gyroZ,66_accX,66_accY,66_accZ,66_gyroX,66_gyroY,66_gyroZ,67_accX,67_accY,67_accZ,67_gyroX,67_gyroY,67_gyroZ,68_accX,68_accY,68_accZ,68_gyroX,68_gyroY,68_gyroZ,69_accX,69_accY,69_accZ,69_gyroX,69_gyroY,69_gyroZ,70_accX,70_accY,70_accZ,70_gyroX,70_gyroY,70_gyroZ,71_accX,71_accY,71_accZ,71_gyroX,71_gyroY,71_gyroZ,72_accX,72_accY,72_accZ,72_gyroX,72_gyroY,72_gyroZ,73_accX,73_accY,73_accZ,73_gyroX,73_gyroY,73_gyroZ,74_accX,74_accY,74_accZ,74_gyroX,74_gyroY,74_gyroZ,75_accX,75_accY,75_accZ,75_gyroX,75_gyroY,75_gyroZ,76_accX,76_accY,76_accZ,76_gyroX,76_gyroY,76_gyroZ,77_accX,77_accY,77_accZ,77_gyroX,77_gyroY,77_gyroZ,78_accX,78_accY,78_accZ,78_gyroX,78_gyroY,78_gyroZ,79_accX,79_accY,79_accZ,79_gyroX,79_gyroY,79_gyroZ,category
accX,-4.878,1.3869999999999998,-2.3040000000000003,0.5820000000000001,0.596,0.0,-3.487,0.511,-2.33,0.0,0.0,0.0,-2.925,0.0,-2.275,0.0,0.0,0.0,-3.0580000000000003,0.534,-2.086,0.0,0.0,0.0,-2.174,0.0,-1.5519999999999998,0.0,0.0,0.0,0.0,-0.718,-0.981,0.0,0.0,0.0,0.662,-0.898,-0.607,0.0,0.0,0.0,0.76,-0.8640000000000001,-0.507,0.0,0.0,0.0,0.0,-0.8059999999999999,0.0,0.0,0.0,0.0,0.0,-0.884,0.0,0.0,0.0,0.0,0.573,-0.912,0.0,0.0,0.0,0.0,0.0,-0.647,0.0,0.0,0.0,0.0,0.0,-0.55,0.0,0.0,0.0,0.0,0.0,0.0,0.5820000000000001,0.0,0.0,0.0,0.0,0.0,0.0,0.0,0.0,0.0,0.0,0.0,0.0,0.0,0.0,0.0,0.0,0.0,0.0,0.0,0.0,0.0,0.0,0.0,0.0,0.0,0.0,0.0,0.0,0.0,-0.561,0.0,0.0,0.0,0.0,0.0,0.0,0.0,0.0,0.0,0.0,0.0,0.0,0.0,0.0,0.0,0.0,0.0,0.0,0.0,0.0,0.0,0.0,0.0,0.0,0.0,0.0,0.0,0.0,0.0,0.0,0.0,0.0,0.0,0.0,0.0,0.0,0.0,0.0,0.0,0.0,0.0,0.0,0.0,0.0,0.0,0.0,0.0,0.0,0.0,0.0,0.0,0.0,0.0,0.0,0.0,0.0,0.0,0.0,0.0,0.0,0.0,0.0,0.0,0.0,0.0,0.0,0.0,0.0,0.0,0.0,0.0,0.0,0.0,0.0,0.0,0.0,0.0,0.0,0.0,0.0,0.0,0.0,0.0,0.0,0.0,0.0,0.0,0.0,0.0,0.0,0.0,0.0,0.0,0.0,0.0,0.0,0.0,0.0,0.0,0.0,0.0,0.0,0.0,0.0,0.0,0.0,0.0,0.0,0.0,0.0,0.0,0.0,0.0,0.0,0.0,0.0,0.0,0.0,0.0,0.0,0.0,0.0,0.0,0.0,0.0,0.0,0.0,0.0,0.0,0.0,0.0,0.0,0.0,0.0,0.0,0.0,0.0,0.0,0.0,0.0,0.0,0.0,0.0,0.0,0.0,0.0,0.0,0.0,0.0,0.0,0.0,0.0,0.0,0.0,0.0,0.0,0.0,0.0,0.0,0.0,0.0,0.0,0.0,0.0,0.0,0.0,0.0,0.0,0.0,0.0,0.0,0.0,0.0,0.0,0.0,0.0,0.0,0.0,0.0,0.0,0.0,0.0,0.0,0.0,0.0,0.0,0.0,0.0,0.0,0.0,0.0,0.0,0.0,0.0,0.0,0.0,0.0,0.0,0.0,0.0,0.0,0.0,0.0,0.0,0.0,0.0,0.0,0.0,0.0,0.0,0.0,0.0,0.0,0.0,0.0,0.0,0.0,0.0,0.0,0.0,0.0,0.0,0.0,0.0,0.0,0.0,0.0,0.0,0.0,0.0,0.0,0.0,0.0,-0.502,0.0,0.0,0.0,0.0,0.0,0.0,0.0,0.0,0.0,0.0,0.0,0.0,0.0,0.0,0.0,0.0,0.0,0.0,0.0,0.0,0.0,0.0,0.0,0.0,0.0,0.0,0.0,0.0,0.0,0.0,0.0,0.0,0.0,0.0,0.0,0.0,0.0,0.0,0.0,0.0,0.0,0.0,0.0,0.0,0.0,0.0,0.0,0.0,0.0,0.0,0.0,0.0,0.0,0.0,0.0,0.0,0.0,0.0,0.0,0.0,0.0,0.0,0.0,0.0,0.0,0.0,0.0,0.0,0.0,0.0,0.0,-0.506,0.0,0.0,0.0,0.0,0.0,-0.5920000000000001,0.0,0.0,0.0,0.0,0.0,-0.5720000000000001,0.0,0.0,0.0,0.0,0.0,0.0,0.0,0.0,0.0,0.0,0.0,0.0,0.0,0.0,0.0,0.0,0.0,0.0,0.0,0.0,0.0,0.0,0.0,0.0,0.0,0.0,0.0,0.0,0.0,0.0,0.0,0.0,0.0,0.0,0.0,0.0,0.0,0.0,0.0,0.0,0.0,0.0,0.0,0.0,0.0,0.0,0.0,0.0,0.0,0.0,0.0,swingAndPointForward
accX,-0.955,-0.851,-1.085,0.0,0.0,0.0,-1.182,0.0,-0.568,0.0,0.0,0.0,0.0,-0.5589999999999999,0.0,0.0,0.0,0.0,0.897,-1.157,0.0,0.0,0.0,0.0,1.213,-1.8019999999999998,-0.526,0.0,0.0,0.0,1.3630000000000002,-2.161,-0.93,0.0,0.0,-0.6920000000000001,1.33,-1.8840000000000001,-0.8740000000000001,0.0,0.0,-0.9259999999999999,1.4380000000000002,-1.94,-0.602,0.0,0.0,-1.133,1.4140000000000001,-2.278,0.0,0.0,0.0,-1.348,1.672,-2.617,-0.718,0.0,0.0,-1.6119999999999999,1.696,-2.94,-1.002,0.0,0.0,-1.817,1.3219999999999998,-3.173,-0.902,0.0,0.0,-1.9609999999999999,1.828,-4.119,-1.0590000000000002,0.0,0.0,-2.137,2.449,-5.14,-1.317,0.0,0.0,-2.4090000000000003,2.314,-5.121,-0.8909999999999999,0.0,0.0,-2.864,1.8940000000000001,-4.91,0.0,0.0,0.0,-3.272,0.8240000000000001,-5.035,0.0,0.0,0.0,-3.574,-0.758,-3.86,0.0,0.0,0.0,-3.6489999999999996,-1.814,-3.412,0.0,0.0,0.0,-3.633,-2.571,-3.46,0.0,0.0,0.0,-3.633,-3.7039999999999997,-2.985,0.735,0.0,0.508,-3.56,-4.155,-2.0469999999999997,1.425,0.0,0.8270000000000001,-3.424,-4.439,-1.3880000000000001,1.291,0.0,0.7090000000000001,-3.29,-4.777,-1.401,0.0,0.0,0.0,-3.125,-6.162999999999999,-0.7559999999999999,0.0,0.0,0.0,-2.948,-6.962999999999999,0.0,0.0,0.0,0.7120000000000001,-2.4930000000000003,-6.252999999999999,0.0,0.0,0.0,1.041,-1.9980000000000002,-4.918,0.0,0.606,0.0,0.983,-1.735,-4.388,0.528,0.8140000000000001,0.0,0.731,-1.5630000000000002,-4.083,0.0,0.5539999999999999,0.0,0.568,-1.386,-3.9410000000000003,0.0,0.0,0.0,0.0,-1.114,-3.135,-0.526,0.0,0.0,0.0,-0.879,-2.5269999999999997,0.0,0.0,0.0,0.0,-0.792,-3.181,0.0,0.0,0.0,0.0,-0.64,-3.305,0.0,-1.094,0.521,0.599,0.0,-2.133,0.0,-1.005,0.0,0.596,0.0,-1.818,0.0,-0.7020000000000001,0.0,0.0,0.0,-1.321,0.0,0.0,0.0,0.0,0.0,-1.065,0.0,-0.521,0.0,0.0,0.0,-0.604,-0.541,-0.767,0.0,0.0,0.0,0.0,-0.7979999999999999,-0.863,0.0,0.0,0.0,0.5579999999999999,-1.073,-1.002,0.0,0.0,0.0,0.623,-0.772,-0.9229999999999999,0.0,0.0,0.0,0.0,0.0,-0.521,0.0,0.0,0.0,0.0,0.0,0.0,0.0,0.0,0.0,0.0,-0.598,0.0,0.0,0.0,0.0,0.504,-0.735,0.0,0.0,0.0,0.0,0.0,-0.613,0.0,0.0,0.0,0.0,0.0,-0.526,0.0,0.0,0.0,0.0,0.0,0.0,0.0,0.0,0.0,0.0,0.0,0.0,0.0,0.0,0.0,0.0,0.0,0.0,0.0,0.0,0.0,0.0,0.0,-0.539,0.0,0.0,0.0,0.0,0.0,-0.624,0.0,0.0,0.0,0.0,0.0,0.0,-0.523,0.0,0.0,0.0,-0.601,0.0,0.0,0.0,0.0,0.0,0.0,0.0,0.0,0.0,0.0,0.0,,,,,,,,,,,,,,,,,,,,,,,,,,,,,,,,,,,,,,,,,,,,,,,,,,,,,,,,,,,,,,,,,,,,,,,,,,,,,,,,,,,,,,,,,,,,,,,,,,,,,,,,,,,,,,,,,,,,,,,,,,,,,,,,,,,,,,,,,,,swingAndPointForward
accX,0.0,0.0,0.0,0.0,0.0,0.0,0.0,0.0,0.0,0.0,0.0,0.0,0.0,-1.0490000000000002,0.0,0.0,0.0,0.0,0.0,-0.557,0.0,0.0,0.0,0.0,0.0,0.0,0.0,0.0,0.0,0.0,0.0,-0.6659999999999999,0.0,0.0,0.0,0.0,0.0,-0.731,0.0,0.0,0.0,0.0,0.0,-0.5479999999999999,0.0,0.0,0.0,0.0,-0.9790000000000001,0.0,-0.779,0.0,0.0,0.0,-1.188,0.0,-0.716,0.0,0.0,0.0,-0.6940000000000001,0.0,0.0,0.0,0.0,0.0,0.0,0.0,0.0,0.0,0.0,0.0,0.0,-0.847,0.0,0.0,0.0,0.0,0.528,-0.675,0.0,0.0,0.0,0.0,0.591,-0.662,0.0,0.0,0.0,0.0,0.6559999999999999,-0.753,-0.768,0.0,0.0,0.0,1.138,-1.061,-1.0959999999999999,0.0,0.0,0.0,2.201,-2.029,-1.4969999999999999,0.0,0.0,-0.557,2.8760000000000003,-2.8339999999999996,-1.882,0.0,0.0,-0.857,3.373,-3.595,-1.909,0.0,0.0,-1.182,4.398,-4.8,-1.755,0.0,0.0,-1.624,5.044,-6.072,-1.49,-0.7440000000000001,0.0,-2.227,4.3389999999999995,-6.057,-1.275,-0.7979999999999999,-0.503,-2.758,2.35,-5.742999999999999,-1.4980000000000002,-0.713,0.0,-3.0860000000000003,0.825,-5.716,-1.499,-0.742,0.0,-3.304,0.0,-5.646,-1.1420000000000001,-0.767,0.0,-3.437,0.0,-6.037000000000001,-0.764,-0.9129999999999999,0.0,-3.675,-0.893,-5.401,0.0,-1.048,0.0,-3.89,-2.677,-4.178,1.0090000000000001,-0.857,0.0,-3.9539999999999997,-4.284,-3.278,1.262,-0.557,0.665,-3.864,-4.141,-2.9619999999999997,1.4,0.0,0.711,-3.7119999999999997,-4.423,-2.69,1.25,0.0,0.5379999999999999,-3.6289999999999996,-5.377999999999999,-1.891,1.2670000000000001,0.0,0.0,-3.486,-6.0489999999999995,-1.246,1.392,0.0,0.618,-3.1860000000000004,-5.834,-0.91,1.474,0.0,0.8420000000000001,-2.852,-5.327999999999999,-0.522,1.548,0.0,0.9620000000000001,-2.6180000000000003,-4.832,0.0,1.528,0.0,0.831,-2.329,-4.816,0.0,0.983,0.0,0.662,-2.09,-4.841,0.0,0.0,0.5529999999999999,0.0,-1.885,-4.957,0.672,0.0,0.732,0.0,-1.629,-4.861000000000001,0.772,-0.759,0.8220000000000001,0.0,-1.291,-4.398,0.63,-1.22,0.7290000000000001,0.5720000000000001,-0.897,-3.7569999999999997,0.64,-1.095,0.516,0.535,-0.581,-3.23,0.601,-0.96,0.0,0.0,0.0,-2.662,0.0,-1.014,0.0,0.0,0.0,-1.8119999999999998,0.0,-1.078,0.0,0.0,0.0,-0.9279999999999999,0.0,-1.171,0.0,0.0,0.0,0.0,0.0,-0.961,0.0,0.0,0.0,0.0,-0.557,-0.5770000000000001,0.0,0.0,0.0,0.0,-0.8079999999999999,0.0,0.0,0.0,0.0,1.024,-1.213,0.0,0.0,0.0,0.0,0.738,-1.054,0.0,0.0,0.0,0.0,0.0,-0.966,0.0,0.0,0.0,0.0,0.555,-1.047,0.0,0.0,0.0,0.0,0.6890000000000001,-0.948,0.0,0.0,0.503,0.0,0.6409999999999999,-0.648,0.0,0.0,0.0,0.0,,,,,,,,,,,,,,,,,,,,,,,,,,,,,,,,,,,,,,,,,,,,,,,,,,,,,,,,,,,,,,,,,,,,,,,,,,,,,,,,,,,,,,,,,,,,,,,,,,,,,,,,,,,,,,,,,,,,,,,,,,,,,,,,,,,,,,,,,,,,,,,,,swingAndPointForward
accX,0.0,-0.525,0.0,0.0,0.0,0.0,-0.648,0.0,-0.703,0.0,0.0,0.0,-1.02,0.0,0.0,0.0,0.0,0.0,0.0,0.0,0.0,0.0,0.0,0.0,0.0,0.0,0.0,0.0,0.0,0.0,0.0,0.0,0.0,0.0,0.0,0.0,0.0,0.0,0.0,0.0,0.0,0.0,0.0,0.0,0.0,0.0,0.0,0.0,0.0,0.0,0.0,0.0,0.0,0.0,0.0,-0.588,-0.662,0.0,0.0,0.0,1.002,-1.151,-0.904,0.0,0.0,0.0,1.679,-1.7109999999999999,-0.935,0.0,0.0,0.0,2.45,-2.593,-0.9390000000000001,0.0,0.0,-0.7,3.806,-4.111000000000001,-0.84,-0.561,0.0,-1.115,4.1930000000000005,-4.819,0.0,-0.7020000000000001,-0.5720000000000001,-1.62,4.232,-5.27,0.0,-0.675,-0.616,-2.0980000000000003,4.519,-6.069,0.0,-0.613,-0.662,-2.648,4.293,-6.761,0.0,-0.722,-0.802,-3.238,3.188,-6.939,0.0,-0.879,-0.8959999999999999,-3.635,1.107,-5.862,0.0,-0.888,-0.6920000000000001,-3.832,-0.993,-4.125,0.0,-0.6759999999999999,0.0,-3.843,-1.857,-3.057,0.0,0.0,0.0,-3.74,-2.099,-3.1860000000000004,0.0,0.0,0.0,-3.701,-2.6510000000000002,-2.98,0.579,0.0,0.0,-3.662,-3.241,-2.2969999999999997,1.015,-0.505,0.0,-3.575,-4.324,-1.254,1.161,0.0,0.0,-3.4219999999999997,-4.938,-0.625,1.287,0.0,0.677,-3.227,-5.192,0.0,1.392,0.0,0.905,-2.9760000000000004,-5.069,0.0,1.175,0.0,1.063,-2.596,-4.619,0.0,0.0,0.0,0.9229999999999999,-2.397,-4.879,0.0,0.568,0.0,0.747,-2.193,-5.002,0.721,0.537,0.515,0.715,-1.9269999999999998,-4.6530000000000005,0.0,0.0,0.677,0.642,-1.652,-4.4830000000000005,0.0,-0.773,0.718,0.0,-1.44,-4.727,0.0,-1.5119999999999998,0.7290000000000001,0.0,-1.24,-4.78,0.848,-1.797,0.696,0.53,-0.97,-3.8310000000000004,0.894,-1.517,0.7809999999999999,0.74,-0.624,-2.695,0.696,-1.103,0.938,0.72,0.0,-1.431,0.0,-1.03,0.882,0.0,0.0,-1.0070000000000001,-0.599,-0.767,0.0,0.0,0.0,-0.9009999999999999,0.0,0.0,0.0,0.0,0.0,0.0,0.0,0.0,0.0,0.0,0.0,0.0,-0.745,0.0,0.0,0.0,0.0,0.518,-0.863,-0.514,0.0,0.0,0.0,0.0,0.0,0.0,0.0,0.0,0.0,0.0,0.0,0.0,0.0,0.0,0.0,0.609,0.0,0.0,0.0,0.0,0.0,0.0,0.0,0.0,0.0,0.0,0.0,0.0,0.0,0.0,0.0,0.0,0.0,0.0,0.0,0.0,0.0,0.0,0.0,0.0,0.0,0.0,0.0,0.0,0.0,0.0,0.0,0.0,0.0,0.0,0.0,0.0,0.0,0.0,0.0,0.0,0.0,,,,,,,,,,,,,,,,,,,,,,,,,,,,,,,,,,,,,,,,,,,,,,,,,,,,,,,,,,,,,,,,,,,,,,,,,,,,,,,,,,,,,,,,,,,,,,,,,,,,,,,,,,,,,,,,,,,,,,,,,,,,,,,,,,,,,,,,,,,,,,,,,,,,,,,,,,,,,,,,,,,swingAndPointForward
accX,0.0,0.0,-0.512,0.0,0.0,0.0,0.0,0.0,-0.878,0.0,0.0,0.0,-0.6859999999999999,0.0,0.0,0.0,0.0,0.0,0.0,0.0,0.0,0.0,0.0,0.0,0.0,0.0,0.0,0.0,0.0,0.0,0.0,0.0,0.0,0.0,0.0,0.0,0.0,0.0,0.0,0.0,0.0,0.0,0.0,0.0,0.0,0.0,0.0,0.0,0.0,0.0,0.0,0.0,0.0,0.0,0.0,0.0,0.0,0.0,0.0,0.0,0.677,-0.862,0.0,0.0,0.0,0.0,0.9129999999999999,-1.177,-0.511,0.0,0.0,0.0,1.2009999999999998,-1.551,-0.562,0.0,0.0,-0.688,1.4,-1.6909999999999998,0.0,0.0,0.0,-0.835,1.526,-1.557,-0.616,0.0,0.0,-1.004,1.84,-2.455,-1.145,-0.51,0.0,-1.239,2.5469999999999997,-3.7689999999999997,-1.6219999999999999,-0.807,0.0,-1.5130000000000001,2.9530000000000003,-4.273,-1.175,-0.99,0.0,-1.8940000000000001,2.957,-4.265,0.0,-0.905,0.0,-2.294,2.6239999999999997,-4.084,0.0,-0.6709999999999999,0.0,-2.745,2.34,-4.699,-0.618,-0.5820000000000001,0.0,-3.033,1.507,-5.156000000000001,-1.014,-0.79,0.0,-3.2710000000000004,0.0,-4.695,-0.568,-0.993,0.0,-3.477,-0.7070000000000001,-3.602,0.695,-0.862,0.0,-3.585,-1.594,-3.037,1.187,0.0,0.0,-3.68,-2.281,-2.81,1.073,0.0,0.0,-3.657,-4.409,-1.979,1.66,0.0,0.508,-3.612,-4.258,-1.4709999999999999,2.208,0.0,0.6809999999999999,-3.4389999999999996,-4.356,-1.43,1.776,0.0,0.618,-3.338,-5.914,0.0,1.057,0.0,0.503,-3.197,-6.856,0.614,0.633,0.0,0.748,-2.8360000000000003,-5.821000000000001,0.0,0.0,0.0,0.966,-2.376,-4.814,0.0,0.0,0.0,0.935,-2.07,-4.706,0.0,0.0,0.0,0.6890000000000001,-1.8319999999999999,-4.777,0.693,0.0,0.0,0.59,-1.607,-4.631,0.728,0.0,0.0,0.631,-1.381,-3.983,0.0,0.0,0.519,0.633,-1.1420000000000001,-3.429,0.0,-0.83,0.0,0.0,-0.9009999999999999,-3.1839999999999997,0.0,-1.011,0.0,0.0,-0.708,-3.242,0.527,-0.884,0.0,0.0,-0.5489999999999999,-2.662,0.0,-0.987,0.0,0.0,0.0,-2.16,0.0,-0.804,0.0,0.0,0.0,-1.6669999999999998,0.0,0.0,0.0,0.0,0.0,-0.899,0.0,0.0,0.0,0.0,0.0,-0.508,-0.6409999999999999,0.0,0.0,0.0,0.0,0.0,0.0,0.0,0.0,0.0,0.0,0.0,0.0,0.0,0.0,0.0,0.0,0.0,0.0,0.0,0.0,0.0,0.0,0.0,0.0,0.0,0.0,0.0,0.0,0.0,-0.578,-0.503,0.0,0.0,0.0,0.0,0.0,0.0,0.0,0.0,0.0,0.0,0.0,0.0,0.0,0.0,0.0,0.0,0.0,0.0,0.0,0.0,0.0,0.0,0.0,0.0,0.0,0.0,0.0,0.0,0.0,0.0,0.0,0.0,0.0,,,,,,,,,,,,,,,,,,,,,,,,,,,,,,,,,,,,,,,,,,,,,,,,,,,,,,,,,,,,,,,,,,,,,,,,,,,,,,,,,,,,,,,,,,,,,,,,,,,,,,,,,,,,,,,,,,,,,,,,,,,,,,,,,,,,,,,,,,,,,,,,,,,,,,,swingAndPointForward
accX,-0.7490000000000001,0.0,-0.599,0.0,0.0,0.0,0.0,0.0,0.0,0.0,0.0,0.0,0.0,0.0,0.0,0.0,0.0,0.0,0.0,-0.654,0.0,0.0,0.0,0.0,0.0,-0.65,0.0,0.0,0.0,0.0,0.0,-0.547,0.0,0.0,0.0,0.0,0.522,-0.5670000000000001,0.0,0.0,0.0,0.0,0.9940000000000001,-1.069,0.0,0.0,0.0,-0.531,1.298,-1.5119999999999998,-0.593,0.0,0.0,-0.7190000000000001,0.9079999999999999,-1.939,-0.7829999999999999,0.0,0.0,-0.8909999999999999,0.937,-2.154,-0.6579999999999999,0.0,0.0,-0.9840000000000001,1.3940000000000001,-2.524,-0.501,0.0,0.0,-1.19,1.548,-2.4459999999999997,0.0,0.0,0.0,-1.4369999999999998,1.341,-2.241,0.0,0.0,0.0,-1.629,1.3230000000000002,-2.778,0.0,0.0,0.0,-1.82,1.3,-3.19,0.0,0.0,0.0,-2.056,0.782,-2.9589999999999996,0.0,0.0,0.0,-2.263,0.0,-2.594,0.0,0.0,0.0,-2.46,0.0,-2.8160000000000003,0.0,0.0,0.0,-2.694,0.0,-3.028,0.0,-0.532,0.0,-2.923,-0.763,-2.6189999999999998,0.0,0.0,0.0,-3.0789999999999997,-2.539,-1.7169999999999999,0.0,0.0,0.0,-3.055,-2.929,-1.4980000000000002,0.532,0.0,0.0,-3.043,-3.307,-0.89,0.899,0.0,0.0,-2.967,-3.34,-1.041,0.888,0.0,0.0,-2.8989999999999996,-3.609,-0.953,0.7390000000000001,0.0,0.0,-2.908,-4.05,-0.636,0.601,0.0,0.0,-2.833,-4.204,0.0,0.762,0.0,0.0,-2.7089999999999996,-3.76,0.0,0.685,0.0,0.0,-2.5580000000000003,-4.221,0.0,0.873,0.0,0.0,-2.424,-4.157,0.0,0.888,0.0,0.53,-2.235,-4.275,0.0,0.662,0.532,0.605,-2.057,-4.128,0.0,0.0,0.629,0.0,-1.858,-4.141,0.569,0.0,0.669,0.0,-1.6540000000000001,-3.988,0.677,0.0,0.6940000000000001,0.0,-1.435,-3.948,0.735,0.0,0.7390000000000001,0.0,-1.238,-4.154,0.927,-0.534,0.7829999999999999,0.0,-1.0759999999999998,-3.92,0.866,0.0,0.758,0.0,-0.69,-2.718,0.0,-0.52,0.615,0.0,0.0,-1.436,-0.638,-1.004,0.0,0.0,0.0,-1.111,-0.848,-1.526,0.0,0.0,0.0,-1.125,-0.861,-1.896,0.0,0.0,0.0,-1.079,0.0,-1.716,0.0,0.0,0.0,-0.55,0.0,-1.183,0.0,0.0,0.0,0.0,-0.569,-0.733,0.0,0.0,0.0,0.0,0.0,0.0,0.0,0.0,0.0,0.0,0.0,0.0,0.0,0.0,0.0,0.0,0.0,0.0,0.0,0.0,0.0,0.0,0.0,0.0,0.0,0.0,0.0,0.0,0.0,0.0,0.0,0.0,0.0,0.0,0.0,0.0,0.0,0.0,0.0,0.0,0.0,0.0,0.0,0.0,0.0,0.0,0.0,0.0,0.0,0.0,0.0,0.0,0.0,0.0,0.0,0.0,0.0,0.0,0.0,0.0,0.0,0.0,0.0,0.0,0.0,0.0,0.0,0.0,0.0,0.0,0.0,0.0,0.0,0.0,0.0,0.0,0.0,0.0,0.0,0.0,0.0,,,,,,,,,,,,,,,,,,,,,,,,,,,,,,,,,,,,,,,,,,,,,,,,,,,,,,,,,,,,,,,,,,,,,,,,,,,,,,,,,,,,,,,,,,,,,,,,,,,,,,,,,,,,,,,,,,,,,,,,,,,,,,,,,,,,,swingAndPointForward
accX,0.0,0.0,0.0,0.0,0.0,0.0,-0.5489999999999999,0.0,-0.7509999999999999,0.0,0.0,0.0,-1.123,0.0,-0.68,-0.5429999999999999,0.0,0.0,-0.698,0.0,0.0,0.0,0.0,0.0,0.0,0.0,0.0,0.0,0.0,0.0,0.0,-0.8290000000000001,0.0,0.0,0.0,0.0,0.0,-1.031,0.0,0.0,0.0,0.0,0.0,-0.9420000000000001,-0.5670000000000001,0.0,0.0,-0.507,0.0,-1.0290000000000001,-0.55,0.0,0.0,-0.54,0.835,-1.3619999999999999,0.0,0.0,0.0,-0.623,1.4180000000000001,-1.786,0.0,0.0,0.0,-0.8109999999999999,1.784,-2.184,0.0,0.0,0.0,-1.051,1.902,-2.536,0.0,0.0,0.0,-1.4569999999999999,2.136,-3.616,0.0,0.0,-0.514,-1.739,1.6119999999999999,-3.759,0.0,0.0,-0.598,-2.043,1.2670000000000001,-3.7539999999999996,-0.54,-0.5329999999999999,-0.561,-2.31,0.0,-3.1010000000000004,0.0,-0.56,0.0,-2.5660000000000003,0.0,-2.6910000000000003,0.0,0.0,0.0,-2.6889999999999996,0.0,-2.7560000000000002,0.0,0.0,0.0,-2.8110000000000004,-1.317,-2.481,0.0,0.0,0.0,-2.923,-1.73,-2.384,0.0,0.0,0.0,-2.97,-2.28,-1.982,0.0,0.0,0.0,-3.013,-2.608,-1.787,0.0,0.0,0.0,-3.022,-2.488,-1.6680000000000001,0.0,0.0,0.0,-2.992,-2.81,-1.85,0.0,0.0,0.0,-3.02,-4.188,-1.1840000000000002,0.0,0.0,0.0,-3.0189999999999997,-5.027,-0.693,0.0,0.0,0.0,-2.787,-4.713,0.0,0.0,0.0,0.635,-2.506,-3.858,0.0,0.562,0.0,0.81,-2.332,-3.633,0.0,0.898,0.0,0.7390000000000001,-2.222,-3.708,0.0,1.188,0.0,0.628,-2.103,-4.05,0.0,1.3869999999999998,0.0,0.588,-1.9480000000000002,-3.595,0.0,0.7859999999999999,0.0,0.532,-1.754,-2.94,0.0,0.0,0.0,0.0,-1.564,-2.984,0.0,0.0,0.0,0.0,-1.459,-2.9160000000000004,0.0,0.0,0.0,0.0,-1.311,-3.123,0.508,0.0,0.0,0.0,-1.0979999999999999,-2.98,0.0,-0.748,0.54,0.0,-0.8390000000000001,-2.5540000000000003,0.0,-1.103,0.0,0.0,-0.613,-2.233,0.0,-1.2,0.0,0.0,0.0,-1.893,0.0,-1.024,0.0,0.0,0.0,-1.331,0.0,-0.633,0.0,0.0,0.0,-0.772,0.0,0.0,0.0,0.0,0.0,-0.684,-0.501,-0.63,0.0,0.0,0.0,0.0,0.0,-0.5870000000000001,0.0,0.0,0.0,0.0,0.0,0.0,0.0,0.0,0.0,0.0,-0.5760000000000001,0.0,0.0,0.0,0.0,0.0,-0.562,0.0,0.0,0.0,0.0,0.0,-0.5429999999999999,0.0,0.0,0.0,0.0,0.0,0.0,0.0,0.0,0.0,0.0,0.0,0.0,0.0,0.0,0.0,0.0,0.0,0.0,0.0,0.0,0.0,0.0,0.0,0.0,0.0,0.0,0.0,0.0,0.0,0.0,0.0,0.0,0.0,0.0,0.0,0.0,0.0,0.0,0.0,0.0,0.0,0.0,0.0,0.0,0.0,0.0,0.0,0.0,0.0,0.0,0.0,0.0,0.0,0.0,0.0,0.0,0.0,0.0,0.0,0.0,0.0,0.0,0.0,0.0,0.0,0.0,0.0,0.0,0.0,0.0,0.0,0.0,0.0,0.0,0.0,0.0,0.0,0.0,0.0,0.0,0.0,0.0,0.0,0.0,0.0,0.0,0.0,0.0,,,,,,,,,,,,,,,,,,,,,,,,,,,,,,,,,,,,,,,,,,,,,,,,,,,,,,,,,,,,,,,,,,,,,,,,,,,,,,,,,,,,,,,,,,,,,,,,,,,,,,,swingAndPointForward
accX,0.0,0.0,0.0,0.0,0.0,0.0,-0.578,0.0,-0.5870000000000001,0.0,0.0,0.0,-0.511,0.0,-0.54,0.0,0.0,0.0,0.0,0.0,0.0,0.0,0.0,0.0,0.0,0.0,0.0,0.0,0.0,0.0,0.0,0.0,0.0,0.0,0.0,0.0,0.0,0.0,0.0,0.0,0.0,0.0,0.0,0.0,0.0,0.0,0.0,0.0,0.0,0.0,0.0,0.0,0.0,0.0,0.0,0.0,0.0,0.0,0.0,0.0,0.0,0.0,0.0,0.0,0.0,0.0,0.0,0.0,0.0,0.0,0.0,0.0,1.15,-1.205,-0.625,0.0,0.0,0.0,1.702,-1.6480000000000001,-0.851,0.0,0.0,0.0,2.094,-1.8219999999999998,-0.835,0.0,0.0,0.0,2.443,-2.241,-0.8079999999999999,0.0,0.0,-0.664,2.9139999999999997,-2.946,-0.9570000000000001,0.0,0.0,-0.9129999999999999,3.1239999999999997,-3.623,-1.215,0.0,0.0,-1.212,3.38,-4.199,-1.153,0.0,0.0,-1.518,3.3819999999999997,-4.5569999999999995,-0.779,0.0,0.0,-1.8769999999999998,2.762,-4.316,0.0,-0.597,0.0,-2.2769999999999997,1.805,-4.251,-0.525,-0.627,0.0,-2.577,1.1909999999999998,-4.479,-0.652,-0.6509999999999999,0.0,-2.8080000000000003,0.0,-4.0889999999999995,0.0,-0.726,0.0,-3.0980000000000003,-0.617,-3.174,0.0,-0.7190000000000001,0.0,-3.313,-1.62,-2.387,0.0,-0.536,0.0,-3.3680000000000003,-2.478,-2.135,0.0,0.0,0.0,-3.359,-2.926,-1.9380000000000002,0.624,-0.516,0.0,-3.34,-3.217,-1.517,1.0590000000000002,0.0,0.0,-3.298,-3.615,-1.35,1.2690000000000001,0.0,0.0,-3.2319999999999998,-4.215,-1.1079999999999999,1.229,0.0,0.0,-3.0989999999999998,-4.996,0.0,1.216,0.0,0.547,-2.862,-4.927,0.0,1.262,0.0,0.691,-2.608,-4.768,0.0,1.225,0.0,0.674,-2.4090000000000003,-4.531000000000001,0.0,1.043,0.0,0.539,-2.16,-4.169,0.0,0.706,0.0,0.0,-1.963,-4.253,0.0,0.506,0.0,0.0,-1.719,-3.76,0.0,0.0,0.0,0.0,-1.456,-3.361,0.53,0.0,0.0,0.0,-1.258,-2.758,0.0,0.0,0.0,0.0,-1.139,-2.79,0.0,0.0,0.507,0.0,-1.058,-2.877,0.0,-0.626,0.0,0.0,-0.882,-2.5980000000000003,0.0,-0.752,0.0,0.0,-0.725,-2.17,0.0,-0.642,0.529,0.0,-0.616,-1.6380000000000001,0.0,-0.639,0.588,0.0,-0.503,-1.253,0.0,-0.721,0.0,0.0,0.0,-0.782,-0.525,-1.002,0.0,0.0,0.0,-0.7240000000000001,0.0,-1.033,0.0,0.0,0.0,0.0,0.0,-0.98,0.0,0.0,0.0,0.0,0.0,-0.7,0.0,0.0,0.0,0.0,0.0,0.0,0.0,0.0,0.0,0.0,0.0,0.0,0.0,0.0,0.0,0.0,0.0,0.0,0.0,0.0,0.0,0.0,0.0,0.0,0.0,0.0,0.0,0.0,0.0,0.0,0.0,0.0,0.0,0.0,0.0,0.0,0.0,0.0,0.0,0.0,0.0,0.0,0.0,0.0,0.0,0.0,0.0,0.0,0.0,0.0,0.0,0.0,0.0,0.0,0.0,0.0,0.0,0.0,0.0,0.0,0.0,0.0,0.0,0.0,0.0,0.0,0.0,0.0,0.0,0.0,0.0,0.0,0.0,0.0,0.0,0.0,0.0,0.0,0.0,0.0,0.0,0.0,0.0,0.0,0.0,0.0,0.0,0.0,0.0,0.0,0.0,0.0,0.0,,,,,,,,,,,,,,,,,,,,,,,,,,,,,,,,,,,,,,,,,,,,,,,,,,,,,,,,,,,,,,,,,,,,,,,,,,,,,,,,,,,,,,,,,,,swingAndPointForward
accX,0.0,0.0,0.0,0.0,0.0,0.0,0.0,0.0,-0.64,0.0,0.0,0.0,0.0,0.0,-0.634,0.0,0.0,0.0,0.0,0.0,0.0,0.0,0.0,0.0,0.0,0.0,0.0,0.0,0.0,0.0,0.0,0.0,0.0,0.0,0.0,0.0,0.0,0.0,0.0,0.0,0.0,0.0,0.0,0.0,0.0,0.0,0.0,0.0,0.0,0.0,0.0,0.0,0.0,0.0,0.0,0.0,0.0,0.0,0.0,0.0,0.0,0.0,0.0,0.0,0.0,0.0,0.0,0.0,0.0,0.0,0.0,0.0,0.0,0.0,0.0,0.0,0.0,0.0,0.575,-0.7659999999999999,0.0,0.0,0.0,0.0,1.176,-1.214,0.0,0.0,0.0,0.0,1.713,-1.661,-0.606,0.0,0.0,0.0,2.197,-2.2,-0.871,0.0,0.0,-0.62,2.67,-2.7,-1.207,0.0,0.0,-0.88,3.137,-3.1889999999999996,-1.32,0.0,0.0,-1.171,3.8310000000000004,-4.19,-1.423,0.0,0.0,-1.5219999999999998,4.197,-5.341,-1.695,-0.56,0.0,-2.003,3.634,-5.349,-1.3319999999999999,-0.6679999999999999,0.0,-2.472,2.638,-4.9830000000000005,-0.845,-0.607,0.0,-2.924,1.4380000000000002,-4.493,0.0,-0.54,0.0,-3.23,0.0,-3.654,0.0,-0.505,0.0,-3.388,0.0,-3.515,0.0,-0.618,0.0,-3.48,-0.995,-3.096,0.966,-0.777,0.0,-3.549,-2.2230000000000003,-2.4290000000000003,1.252,-0.7240000000000001,0.0,-3.5460000000000003,-3.13,-1.9509999999999998,1.117,-0.523,0.0,-3.487,-4.0169999999999995,-1.2590000000000001,0.9,0.0,0.0,-3.342,-4.31,-1.151,0.745,0.0,0.0,-3.123,-4.688,-0.866,0.861,0.0,0.0,-2.895,-4.081,-0.836,0.899,0.0,0.0,-2.69,-3.839,-0.66,0.88,0.0,0.0,-2.572,-3.5789999999999997,-0.882,0.617,0.0,0.0,-2.428,-3.489,-0.718,0.544,0.0,0.0,-2.285,-4.1930000000000005,0.0,0.856,0.0,0.685,-2.07,-3.7430000000000003,0.0,1.031,0.0,0.932,-1.7990000000000002,-3.0460000000000003,0.0,0.9470000000000001,0.5479999999999999,0.826,-1.659,-2.984,0.0,0.632,0.53,0.5660000000000001,-1.575,-3.128,0.0,0.0,0.0,0.0,-1.52,-2.8739999999999997,0.0,0.0,0.0,0.0,-1.389,-2.42,0.0,-0.536,0.725,0.0,-1.192,-2.1180000000000003,0.0,-0.976,0.833,0.0,-0.9059999999999999,-1.9080000000000001,0.0,-1.6119999999999999,0.684,0.0,-0.669,-1.8659999999999999,0.0,-1.807,0.0,0.0,0.0,-1.439,0.0,-1.455,0.0,0.0,0.0,-0.5579999999999999,0.0,-1.041,0.0,0.0,0.0,0.0,0.0,-0.9179999999999999,0.0,0.0,0.0,0.0,0.0,-1.041,0.0,0.0,0.0,0.0,0.0,-0.868,0.0,0.0,0.0,0.0,0.0,-0.5920000000000001,0.0,0.0,0.0,0.508,0.0,0.0,0.0,0.0,0.0,0.575,0.0,0.0,0.0,0.0,0.0,0.0,0.0,0.0,0.0,0.0,0.0,0.0,0.0,0.0,0.0,0.0,0.0,0.0,0.0,0.0,0.0,0.0,0.0,0.0,0.0,0.0,0.0,0.0,0.0,0.0,0.0,0.0,0.0,0.0,0.0,0.0,0.0,0.0,0.0,0.0,0.0,,,,,,,,,,,,,,,,,,,,,,,,,,,,,,,,,,,,,,,,,,,,,,,,,,,,,,,,,,,,,,,,,,,,,,,,,,,,,,,,,,,,,,,,,,,,,,,,,,,,,,,,,,,,,,,,,,,,,,,,,swingAndPointForward
accX,-0.544,0.0,-0.588,0.0,0.0,0.0,-0.9540000000000001,0.0,0.0,0.0,0.0,0.0,0.0,0.0,0.0,0.0,0.0,0.0,0.0,0.0,0.0,0.0,0.0,0.0,0.0,0.0,0.0,0.0,0.0,0.0,0.0,0.0,0.0,0.0,0.0,0.0,0.0,0.0,0.0,0.0,0.0,0.0,0.0,0.0,0.0,0.0,0.0,0.0,0.0,0.0,0.0,0.0,0.0,0.0,0.0,0.0,0.0,0.0,0.0,0.0,0.0,0.0,0.0,0.0,0.0,0.0,0.0,0.0,0.0,0.0,0.0,0.0,0.0,0.0,0.0,0.0,0.0,0.0,0.0,0.0,0.0,0.0,0.0,0.0,0.0,0.0,0.0,0.0,0.0,0.0,0.0,-0.522,0.0,0.0,0.0,0.0,1.035,-0.9540000000000001,-0.654,0.0,0.0,0.0,1.5290000000000001,-1.768,-1.047,0.0,0.0,0.0,2.2680000000000002,-2.354,-1.3980000000000001,0.0,0.0,-0.565,2.898,-2.812,-1.251,0.0,0.0,-0.89,3.208,-3.388,-0.9179999999999999,0.0,0.0,-1.23,3.32,-4.118,-0.888,0.0,0.0,-1.7519999999999998,3.207,-4.546,-0.752,0.0,0.0,-2.094,2.929,-5.122000000000001,0.0,0.0,0.0,-2.576,2.191,-4.681,0.0,0.0,0.0,-2.995,0.992,-3.9730000000000003,0.0,0.0,0.0,-3.3289999999999997,0.0,-3.483,0.0,0.0,0.0,-3.48,-1.431,-2.807,0.7390000000000001,0.0,0.0,-3.53,-2.108,-2.083,1.22,0.0,0.0,-3.542,-2.8819999999999997,-1.858,1.138,0.0,0.0,-3.5189999999999997,-3.8280000000000003,-1.5859999999999999,0.899,0.0,0.0,-3.428,-3.9410000000000003,-1.386,0.784,0.0,0.0,-3.25,-3.7460000000000004,-1.153,0.9,0.0,0.0,-3.1289999999999996,-4.27,-0.759,1.043,0.0,0.0,-3.016,-4.367,-0.669,0.927,0.0,0.0,-2.8280000000000003,-3.969,-0.6609999999999999,0.742,0.0,0.0,-2.638,-3.838,0.0,0.5529999999999999,0.0,0.0,-2.475,-4.062,0.0,0.0,0.0,0.0,-2.28,-3.2289999999999996,0.0,0.0,0.5429999999999999,0.0,-2.023,-2.89,-0.523,0.0,0.0,0.0,-1.8630000000000002,-3.134,0.0,-0.675,0.0,0.0,-1.7819999999999998,-3.281,0.0,-0.865,0.0,0.0,-1.6280000000000001,-3.116,0.0,-1.0390000000000001,0.0,0.0,-1.465,-2.398,0.0,-1.014,0.53,0.0,-1.331,-2.035,0.0,-1.069,0.569,0.0,-1.339,-2.374,0.0,-1.02,0.614,0.0,-1.324,-2.5069999999999997,0.0,-0.9620000000000001,0.588,0.0,-0.7859999999999999,-1.861,0.0,-0.95,0.0,0.0,-0.604,-1.7830000000000001,0.0,-0.7759999999999999,0.0,0.0,0.0,-1.7790000000000001,0.0,-0.8390000000000001,0.0,0.0,0.0,-1.469,0.0,-0.609,0.0,0.0,0.0,-1.056,0.0,0.0,0.0,0.0,0.0,0.0,0.0,0.0,0.0,0.0,0.0,0.0,0.0,0.0,0.0,0.0,0.0,0.0,0.0,0.0,0.0,0.0,0.0,0.0,-0.5329999999999999,0.0,0.0,0.0,0.0,0.0,0.0,0.0,0.0,0.0,0.0,0.541,0.0,0.0,0.0,0.0,0.0,0.0,0.0,0.0,0.0,0.0,0.0,0.0,0.0,0.0,0.0,0.0,0.0,0.0,0.0,0.0,0.0,0.0,0.0,0.7559999999999999,-0.551,0.0,0.0,0.0,0.0,,,,,,,,,,,,,,,,,,,,,,,,,,,,,,,,,,,,,,,,,,,,,,,,,,,,,,,,,,,,,,,,,,,,,,,,,,,,,,,,,,,,,,,,,,,,,,,,,,,,,,,,,,,,,swingAndPointForward
accX,0.0,0.0,0.0,0.0,0.0,0.0,0.0,-0.517,0.0,0.0,0.0,0.0,0.0,0.0,-0.6759999999999999,0.0,0.0,0.0,-0.748,0.0,-0.507,0.0,0.0,0.0,-0.677,0.0,0.0,0.0,0.0,0.0,0.0,0.0,0.0,0.0,0.0,0.0,0.0,0.0,0.0,0.0,0.0,0.0,0.0,0.0,0.0,0.0,0.0,0.0,0.0,0.0,0.0,0.0,0.0,0.0,0.0,0.0,0.0,0.0,0.0,0.0,0.0,0.0,0.0,0.0,0.0,0.0,0.89,-0.8420000000000001,0.0,0.0,0.0,0.0,0.938,-0.848,-0.6920000000000001,0.0,0.0,0.0,1.199,-1.1909999999999998,-0.887,0.0,0.0,0.0,1.743,-1.621,-0.958,0.0,0.0,0.0,2.283,-1.851,-0.9329999999999999,0.0,0.0,-0.618,2.385,-2.283,-1.05,0.0,0.0,-0.8740000000000001,2.4730000000000003,-2.859,-1.187,0.0,0.0,-1.1340000000000001,2.845,-3.502,-1.013,0.0,0.0,-1.365,3.073,-4.208,-0.8690000000000001,0.0,0.0,-1.696,2.57,-4.051,-0.687,-0.535,0.0,-2.127,1.8430000000000002,-3.895,0.0,-0.643,0.0,-2.47,1.206,-3.531,0.0,-0.775,-0.529,-2.681,1.126,-3.585,0.0,-0.8029999999999999,-0.5429999999999999,-2.8080000000000003,0.0,-3.323,0.0,-0.805,-0.541,-3.0780000000000003,-0.89,-2.6910000000000003,0.0,-0.841,0.0,-3.29,-1.9,-1.9,0.0,-0.8,0.0,-3.323,-2.274,-1.84,0.7,-0.6709999999999999,0.0,-3.115,-2.285,-2.023,1.189,-0.57,0.0,-3.032,-2.7310000000000003,-1.742,1.155,0.0,0.0,-3.068,-3.279,-1.4880000000000002,1.053,0.0,0.0,-2.9989999999999997,-3.0389999999999997,-1.9369999999999998,0.809,0.0,0.0,-2.8489999999999998,-2.708,-1.9240000000000002,0.9259999999999999,0.0,0.0,-2.7539999999999996,-3.051,-1.244,1.3880000000000001,0.0,0.0,-2.705,-3.127,-0.882,1.527,0.0,0.0,-2.591,-3.3289999999999997,0.0,1.311,0.0,0.522,-2.506,-3.938,0.0,1.02,0.0,0.7170000000000001,-2.326,-3.944,0.0,0.75,0.55,0.96,-2.0869999999999997,-3.752,0.0,0.0,0.642,0.982,-1.935,-4.053999999999999,0.965,0.0,0.738,0.897,-1.725,-3.375,0.8909999999999999,-0.595,0.7979999999999999,0.6809999999999999,-1.526,-3.2760000000000002,0.688,-0.909,0.733,0.537,-1.403,-3.298,0.601,-1.159,0.638,0.5429999999999999,-1.162,-3.127,0.706,-1.228,0.519,0.547,-0.872,-2.68,0.564,-1.0590000000000002,0.0,0.503,-0.659,-2.217,0.535,-0.718,0.0,0.0,0.0,-1.59,0.0,-0.562,0.0,0.0,0.0,-1.446,0.0,0.0,0.0,0.0,0.0,-1.044,0.0,0.0,0.0,0.0,0.0,0.0,0.0,0.0,0.0,0.0,0.0,0.0,0.0,0.0,0.0,0.0,0.0,0.0,0.0,0.0,0.0,0.0,0.0,0.0,0.0,0.0,0.0,0.0,0.0,0.0,0.0,-0.561,0.0,0.0,0.0,0.0,0.0,-1.035,0.0,0.0,0.0,0.968,0.0,-0.7390000000000001,0.0,0.0,0.0,0.8109999999999999,-0.547,-0.6609999999999999,0.0,0.0,0.0,0.5820000000000001,0.0,-0.525,0.0,0.0,0.0,0.0,0.0,0.0,0.0,0.0,0.0,0.0,0.0,0.0,0.0,0.0,0.0,0.0,0.0,0.0,0.0,0.0,0.0,0.0,0.0,0.0,0.0,0.0,0.0,0.0,0.0,0.0,0.0,0.0,0.0,0.0,0.0,0.0,0.0,0.0,0.0,,,,,,,,,,,,,,,,,,,,,,,,,,,,,,,,,,,,,,,,,,,,,,,,,,,,,,,,,,,,,,,,,,,,,,,,,,,,,,,,,,,,,,,,,,,,,,,,,swingAndPointForward
accX,0.0,0.0,0.0,0.0,0.0,0.0,0.0,0.0,0.0,0.0,0.0,0.0,-1.197,0.0,0.0,0.0,0.0,0.0,-0.828,0.0,0.0,0.0,0.0,0.0,0.0,0.0,0.0,0.0,0.0,0.0,0.0,0.0,0.0,0.0,0.0,0.0,0.0,0.0,0.0,0.0,0.0,0.0,0.0,0.0,0.0,0.0,0.0,0.0,0.0,0.0,0.0,0.0,0.0,0.0,0.0,0.0,0.0,0.0,0.0,0.0,0.0,0.0,0.0,0.0,0.0,0.0,0.0,0.0,0.0,0.0,0.0,0.0,0.5539999999999999,-0.871,-0.769,0.0,0.0,0.0,1.033,-1.242,-0.9740000000000001,0.0,0.0,0.0,1.466,-1.386,-0.8029999999999999,0.0,0.0,0.0,1.6769999999999998,-1.584,-0.57,0.0,0.0,-0.611,1.905,-2.064,-0.581,0.0,0.0,-0.813,2.206,-2.511,-0.748,0.0,0.0,-1.041,2.373,-3.16,-0.924,0.0,0.0,-1.291,2.434,-3.565,-0.726,-0.525,0.0,-1.7619999999999998,2.427,-3.991,0.0,-0.695,0.0,-2.104,2.166,-3.8689999999999998,0.0,-0.778,-0.55,-2.516,1.138,-3.04,0.0,-0.737,-0.8,-2.802,0.0,-2.697,0.0,-0.7509999999999999,-0.7829999999999999,-2.8710000000000004,-0.831,-2.804,-0.599,-0.83,0.0,-2.927,-1.2690000000000001,-2.29,0.0,-0.784,0.0,-2.965,-1.162,-2.241,0.0,-0.652,0.0,-3.036,-0.9640000000000001,-2.544,0.784,-0.505,0.0,-3.12,-1.227,-2.478,0.975,0.0,0.0,-3.1830000000000003,-1.984,-1.932,0.88,0.0,0.0,-3.167,-2.8739999999999997,-1.8559999999999999,0.745,0.0,0.0,-3.109,-3.2539999999999996,-1.492,0.698,0.0,0.0,-3.0069999999999997,-3.451,-1.556,0.647,0.0,0.0,-2.9019999999999997,-3.597,-0.784,1.042,0.0,0.621,-2.708,-3.73,0.0,1.297,0.0,0.748,-2.549,-3.748,0.0,1.03,0.0,0.69,-2.381,-4.1930000000000005,0.0,0.7859999999999999,0.0,0.7,-2.235,-4.4239999999999995,0.0,0.731,0.0,0.687,-2.004,-4.323,0.54,0.9520000000000001,0.0,0.623,-1.81,-4.166,0.585,0.0,0.0,0.525,-1.5759999999999998,-4.133,0.523,0.0,0.557,0.0,-1.337,-4.225,0.804,0.0,0.0,0.5760000000000001,-1.0979999999999999,-3.4130000000000003,0.86,-0.7709999999999999,0.0,0.0,-0.84,-2.483,0.5770000000000001,-1.02,0.0,0.0,-0.627,-2.353,0.0,-1.296,0.0,0.0,-0.505,-1.609,0.0,-1.003,0.0,0.0,0.0,-1.173,0.0,-0.848,0.0,0.0,0.0,-0.805,0.0,0.0,0.0,0.0,0.0,-0.705,0.0,0.0,0.0,0.0,0.0,-0.557,0.0,0.0,0.0,0.0,0.0,0.0,0.0,0.0,0.0,0.0,0.0,0.0,-0.57,-0.609,0.0,0.0,0.0,0.0,0.0,0.0,0.0,0.0,0.0,0.0,0.0,0.0,0.0,0.0,0.0,0.0,0.0,0.0,0.0,0.0,0.0,0.0,0.0,0.0,0.0,0.0,0.0,,,,,,,,,,,,,,,,,,,,,,,,,,,,,,,,,,,,,,,,,,,,,,,,,,,,,,,,,,,,,,,,,,,,,,,,,,,,,,,,,,,,,,,,,,,,,,,,,,,,,,,,,,,,,,,,,,,,,,,,,,,,,,,,,,,,,,,,,,,,,,,,,swingAndPointForward
accX,0.0,0.0,0.0,0.0,0.0,0.0,0.0,0.0,-0.737,0.0,0.0,0.0,0.0,0.0,-0.775,0.0,0.517,0.0,0.0,0.0,0.0,0.0,0.0,0.0,0.0,0.0,0.0,0.0,0.0,0.0,0.0,0.0,0.0,0.0,0.0,0.0,0.0,0.0,0.0,0.0,0.0,0.0,0.0,0.0,0.0,0.0,0.0,0.0,0.0,0.0,0.0,0.0,0.0,0.0,0.0,0.0,0.0,0.0,0.0,0.0,0.0,0.0,0.0,0.0,0.0,0.0,0.0,0.0,0.0,0.0,0.0,0.0,0.0,0.0,0.0,0.0,0.0,0.0,0.0,0.0,0.0,0.0,0.0,0.0,0.0,-0.536,0.0,0.0,0.0,0.0,1.22,-1.228,-0.539,0.0,0.0,0.0,1.883,-1.8869999999999998,-0.743,0.0,0.0,-0.64,2.24,-2.191,-0.593,0.0,0.0,-0.9,2.475,-2.3680000000000003,0.0,0.0,0.0,-1.193,2.795,-2.766,0.0,0.0,0.0,-1.5130000000000001,2.861,-3.3569999999999998,-0.621,0.0,0.0,-1.8459999999999999,2.737,-3.908,-0.8240000000000001,0.0,0.0,-2.251,2.412,-3.8819999999999997,-0.53,0.0,0.0,-2.662,2.1519999999999997,-4.0680000000000005,0.0,0.0,0.0,-3.043,1.778,-4.157,0.0,0.0,0.0,-3.1710000000000003,1.183,-4.198,0.0,0.0,0.0,-3.342,0.51,-3.9819999999999998,0.0,0.0,0.0,-3.553,0.0,-3.625,0.0,-0.535,-0.506,-3.783,-1.776,-2.821,0.0,-0.526,0.0,-3.877,-3.484,-1.929,0.691,0.0,0.0,-3.5060000000000002,-4.618,-1.412,0.0,0.0,0.0,-3.4360000000000004,-4.74,-1.3619999999999999,0.0,0.0,0.0,-3.2239999999999998,-4.813,-1.073,0.69,0.0,0.0,-3.032,-4.926,-0.772,0.9309999999999999,0.0,0.0,-2.7539999999999996,-5.0169999999999995,0.0,1.253,0.0,0.654,-2.504,-4.805,0.0,1.3530000000000002,0.0,0.8390000000000001,-2.251,-4.088,0.0,1.056,0.0,0.8640000000000001,-2.044,-3.68,0.0,0.7809999999999999,0.5579999999999999,0.684,-1.919,-3.535,0.0,0.564,0.5760000000000001,0.0,-1.8219999999999998,-3.522,0.0,0.0,0.607,0.0,-1.679,-3.807,0.0,0.0,0.593,0.0,-1.475,-3.4139999999999997,0.0,-0.731,0.56,0.0,-1.261,-3.13,0.0,-1.104,0.613,0.0,-1.1340000000000001,-3.198,0.0,-1.47,0.626,0.0,-1.012,-3.391,0.0,-1.704,0.0,0.0,-0.7609999999999999,-3.095,0.0,-1.53,0.0,0.0,0.0,-2.478,0.0,-1.1159999999999999,0.0,0.536,0.0,-1.643,0.0,-0.618,0.0,0.0,0.0,-0.8490000000000001,0.0,-0.501,0.0,0.0,0.0,0.0,-0.715,-0.6609999999999999,0.0,0.0,0.0,0.0,-0.8370000000000001,-0.748,0.0,0.0,0.0,0.0,-0.625,-0.528,0.0,0.0,0.0,0.0,-0.5489999999999999,0.0,0.0,0.0,0.0,0.0,0.0,0.0,0.0,0.0,0.0,0.0,0.0,0.0,0.0,0.0,0.0,,,,,,,,,,,,,,,,,,,,,,,,,,,,,,,,,,,,,,,,,,,,,,,,,,,,,,,,,,,,,,,,,,,,,,,,,,,,,,,,,,,,,,,,,,,,,,,,,,,,,,,,,,,,,,,,,,,,,,,,,,,,,,,,,,,,,,,,,,,,,,,,,,,,,,,swingAndPointForward
accX,0.0,0.0,0.0,0.0,0.0,0.0,0.0,0.0,0.0,0.0,0.0,0.0,-0.7759999999999999,0.0,0.0,-0.511,0.0,0.0,-0.617,0.0,0.0,0.0,0.0,0.0,0.0,0.0,0.0,0.0,0.0,0.0,0.0,0.0,0.0,0.0,0.0,0.0,0.0,0.0,0.0,0.0,0.0,0.0,0.0,0.0,0.0,0.0,0.0,0.0,0.0,-0.61,0.0,0.0,0.0,0.0,0.0,0.0,0.0,0.0,0.0,0.0,0.0,0.0,0.0,0.0,0.0,0.0,0.0,0.0,0.0,0.0,0.0,0.0,0.521,-0.57,0.0,0.0,0.0,0.0,1.063,-1.141,-0.599,0.0,0.0,-0.583,1.412,-1.7690000000000001,-0.8270000000000001,0.0,0.0,-0.8059999999999999,1.581,-1.976,-0.813,0.0,0.0,-1.074,1.8419999999999999,-2.001,-0.787,0.0,0.0,-1.4769999999999999,3.073,-3.866,-1.58,0.0,0.0,-1.765,3.022,-4.321000000000001,-1.358,-0.7659999999999999,-0.652,-2.217,1.931,-3.429,-0.86,-1.0170000000000001,-0.768,-2.7060000000000004,0.0,-2.553,-0.601,-1.021,-0.643,-2.9730000000000003,-0.5670000000000001,-2.359,0.0,-0.882,0.0,-2.9739999999999998,-1.1,-2.349,0.0,-0.7390000000000001,0.0,-2.8960000000000004,-1.137,-2.0580000000000003,0.792,-0.561,0.6709999999999999,-2.88,-1.207,-2.154,0.904,0.0,0.799,-2.977,-2.012,-2.036,0.9940000000000001,0.0,0.624,-3.095,-2.615,-2.146,0.975,0.0,0.0,-3.139,-3.123,-1.808,1.23,0.0,0.0,-3.009,-3.333,-1.375,1.1,0.0,0.0,-2.946,-4.281000000000001,0.0,1.2409999999999999,0.0,0.508,-2.867,-4.565,0.0,1.426,0.0,0.7909999999999999,-2.6180000000000003,-3.77,0.0,1.22,0.522,1.013,-2.374,-2.988,-1.092,0.7759999999999999,0.5670000000000001,0.877,-2.1830000000000003,-2.688,-1.1909999999999998,0.0,0.0,0.5770000000000001,-2.1830000000000003,-3.958,0.0,0.517,0.0,0.5539999999999999,-2.174,-4.405,0.693,0.915,0.0,0.907,-1.899,-3.1860000000000004,0.0,0.0,0.696,1.045,-1.6019999999999999,-2.7769999999999997,0.0,0.0,0.835,0.61,-1.5019999999999998,-3.764,0.0,-1.0959999999999999,0.816,0.0,-1.4669999999999999,-4.537,0.672,-1.7080000000000002,0.659,0.0,-1.249,-4.435,0.7340000000000001,-1.855,0.0,0.0,-0.695,-3.717,0.0,-1.883,0.0,0.5660000000000001,0.0,-2.701,0.0,-1.486,0.0,0.0,0.0,-2.1719999999999997,0.0,-1.327,0.0,0.0,0.0,-1.983,0.0,-1.169,0.0,0.0,0.0,-1.506,0.0,-0.773,0.0,0.0,0.0,-0.54,-0.502,0.0,0.0,0.0,0.0,0.0,-0.812,0.0,0.0,0.0,0.0,0.0,-0.985,0.0,0.0,0.0,0.0,0.0,-0.843,0.0,0.0,0.0,0.0,0.0,-0.57,0.0,0.0,0.0,0.0,0.0,0.0,0.0,0.0,0.0,0.0,0.0,0.0,0.0,0.0,0.0,0.0,,,,,,,,,,,,,,,,,,,,,,,,,,,,,,,,,,,,,,,,,,,,,,,,,,,,,,,,,,,,,,,,,,,,,,,,,,,,,,,,,,,,,,,,,,,,,,,,,,,,,,,,,,,,,,,,,,,,,,,,,,,,,,,,,,,,,,,,,,,,,,,,,,,,,,,,,,,,,,,,,,,swingAndPointForward
accX,0.0,0.0,-0.528,0.0,0.0,0.0,-0.58,0.0,-0.6659999999999999,0.0,0.0,0.0,0.0,0.0,-0.721,0.0,0.0,0.0,0.0,0.0,0.0,0.0,0.0,0.0,0.0,0.0,0.0,0.0,0.0,0.0,0.0,0.0,0.0,0.0,0.0,0.0,0.0,0.0,0.0,0.0,0.0,0.0,0.0,-0.621,0.0,0.0,0.0,0.0,0.0,0.0,-0.5539999999999999,0.0,0.0,0.0,0.0,0.0,0.0,0.0,0.0,0.0,0.624,-0.611,0.0,0.0,0.0,0.0,1.2990000000000002,-1.11,0.0,0.0,0.0,0.0,1.864,-1.787,0.0,0.0,0.0,0.0,2.04,-2.4130000000000003,-0.531,0.0,0.0,-0.716,2.135,-2.967,-0.657,0.0,0.0,-0.981,2.3280000000000003,-3.198,-0.563,0.0,0.0,-1.25,2.3819999999999997,-3.312,0.0,0.0,0.0,-1.505,2.1630000000000003,-3.4610000000000003,0.0,0.0,0.0,-1.742,1.743,-3.056,0.0,-0.514,0.0,-2.0869999999999997,1.403,-2.801,0.0,0.0,0.0,-2.3680000000000003,0.0,-2.313,0.0,0.0,-0.545,-2.596,0.0,-2.697,-0.539,0.0,-0.5660000000000001,-2.679,-0.606,-2.742,0.0,-0.5429999999999999,0.0,-2.734,-0.825,-2.186,0.0,-0.6920000000000001,0.0,-2.852,-0.934,-2.061,0.573,-0.574,0.0,-2.926,-1.9069999999999998,-1.516,0.747,0.0,0.0,-2.991,-2.336,-1.508,0.755,0.0,0.0,-2.9130000000000003,-1.989,-1.732,0.723,0.0,0.0,-2.843,-1.913,-1.6780000000000002,0.7140000000000001,0.0,0.0,-2.878,-1.939,-1.6669999999999998,0.812,0.0,0.0,-2.866,-3.0669999999999997,-0.674,0.897,0.0,0.0,-2.908,-3.951,0.0,0.7290000000000001,0.0,0.5870000000000001,-2.695,-4.085,0.0,0.0,0.0,0.69,-2.459,-3.86,0.0,0.0,0.0,0.662,-2.3169999999999997,-3.5180000000000002,0.0,0.0,0.0,0.5579999999999999,-2.167,-3.2510000000000003,0.0,0.0,0.0,0.0,-1.936,-2.988,0.0,0.0,0.0,0.0,-1.787,-2.418,0.0,0.0,0.0,0.0,-1.7,-2.5469999999999997,0.0,0.0,0.0,0.0,-1.671,-2.7760000000000002,0.6509999999999999,0.0,0.0,0.0,-1.45,-2.693,0.0,-0.777,0.518,0.0,-1.2429999999999999,-2.423,0.0,-1.1909999999999998,0.0,0.0,-1.08,-2.3369999999999997,0.0,-1.3259999999999998,0.0,0.0,-0.9,-2.114,0.0,-1.112,0.0,0.0,-0.765,-2.073,0.5379999999999999,-1.0070000000000001,0.0,0.0,-0.5329999999999999,-1.786,0.0,-0.857,0.0,0.0,0.0,-1.431,0.0,-0.622,0.0,0.0,0.0,-1.192,0.0,0.0,0.0,0.0,0.0,-0.867,0.0,0.0,0.0,0.0,0.0,0.0,0.0,0.0,0.0,0.0,0.0,0.0,0.0,0.0,0.0,0.0,0.0,0.562,-0.64,0.0,0.0,0.0,0.0,0.502,-0.595,0.0,0.0,0.0,0.0,0.0,-0.581,0.0,0.0,0.0,0.0,0.0,-0.518,0.0,0.0,0.0,0.0,0.0,0.0,0.0,0.0,0.0,0.0,0.0,0.0,0.0,0.0,0.0,0.0,0.0,-0.529,0.0,0.0,0.0,0.0,0.0,0.0,0.0,0.0,0.0,0.0,0.0,0.0,0.0,0.0,0.0,0.0,0.0,0.0,0.0,0.0,0.0,0.0,,,,,,,,,,,,,,,,,,,,,,,,,,,,,,,,,,,,,,,,,,,,,,,,,,,,,,,,,,,,,,,,,,,,,,,,,,,,,,,,,,,,,,,,,,,,,,,,,,,,,,,,,,,,,,,,,,,swingAndPointForward
accX,0.0,0.0,0.0,0.0,0.0,0.0,0.0,0.0,-0.69,0.0,0.0,0.0,-0.624,0.0,-0.5770000000000001,0.0,0.0,0.0,0.0,0.0,0.0,0.0,0.0,0.0,0.0,0.0,0.0,0.0,0.0,0.0,0.0,0.0,0.0,0.0,0.0,0.0,0.0,0.0,0.0,0.0,0.0,0.0,0.0,0.0,0.0,0.0,0.0,0.0,0.0,0.0,0.0,0.0,0.0,0.0,0.0,0.0,0.0,0.0,0.0,0.0,0.0,0.0,0.0,0.0,0.0,0.0,0.677,-0.7490000000000001,-0.534,0.0,0.0,0.0,0.883,-0.9670000000000001,-0.606,0.0,0.0,0.0,1.222,-1.3630000000000002,-0.7879999999999999,0.0,0.0,0.0,1.635,-1.712,-0.973,0.0,0.0,-0.653,1.8630000000000002,-2.094,-0.961,0.0,0.0,-0.882,1.94,-2.5780000000000003,-0.958,0.0,0.0,-1.048,2.401,-3.377,-0.927,0.0,0.0,-1.262,2.523,-3.7969999999999997,-0.682,0.0,0.0,-1.61,2.215,-3.7939999999999996,0.0,0.0,0.0,-1.989,1.693,-3.8089999999999997,0.0,-0.51,0.0,-2.303,0.985,-3.887,0.0,0.0,0.0,-2.6060000000000003,0.0,-3.645,0.0,0.0,0.0,-2.963,0.0,-3.6830000000000003,0.0,0.0,0.0,-3.2039999999999997,0.0,-3.7489999999999997,0.0,-0.606,0.0,-3.4589999999999996,-0.9309999999999999,-3.304,0.0,-0.695,0.0,-3.6010000000000004,-2.229,-2.6189999999999998,0.0,-0.725,0.0,-3.577,-3.068,-2.25,0.0,-0.7559999999999999,0.0,-3.483,-3.34,-1.8359999999999999,0.698,-0.654,0.0,-3.4330000000000003,-3.657,-1.2409999999999999,0.987,0.0,0.0,-3.387,-4.192,-0.856,1.121,0.0,0.0,-3.235,-4.681,-0.7509999999999999,1.1540000000000001,0.0,0.591,-3.063,-4.958,-0.532,1.155,0.0,0.75,-2.885,-5.041,0.0,1.124,0.0,0.8059999999999999,-2.7119999999999997,-5.308,0.0,0.0,0.0,0.6629999999999999,-2.535,-5.843,0.6709999999999999,0.0,0.5329999999999999,0.514,-2.208,-6.461,1.077,0.0,0.0,0.615,-1.787,-6.127000000000001,1.393,0.0,0.0,0.7509999999999999,-1.354,-4.56,0.973,0.0,0.0,0.5579999999999999,-1.047,-3.647,0.63,-0.573,0.0,0.0,-0.888,-2.681,0.0,-0.584,0.0,0.0,-0.7859999999999999,-2.121,0.0,-0.616,0.0,0.0,-0.695,-1.962,0.0,-0.7190000000000001,0.0,0.0,0.0,-1.476,0.0,-0.55,0.0,0.0,0.0,-1.07,0.0,0.0,0.0,0.0,0.0,-0.973,0.0,0.0,0.0,0.0,0.0,-0.7559999999999999,0.0,0.0,0.0,0.0,0.0,0.0,-0.774,-0.667,0.0,0.0,0.0,0.0,-0.535,-0.767,0.0,0.0,0.0,0.0,0.0,-0.878,0.0,0.0,0.0,0.0,0.0,-0.523,0.0,0.0,0.0,0.0,0.0,0.0,0.0,0.0,0.0,0.0,0.0,0.0,0.0,0.0,0.0,0.0,-0.513,0.0,0.0,0.0,0.0,0.0,-0.514,0.0,0.0,0.0,0.0,0.0,0.0,0.0,0.0,0.0,0.0,0.0,0.0,0.0,0.0,0.0,0.0,0.0,0.0,0.0,0.0,0.0,0.0,0.0,0.0,0.0,0.0,0.0,0.0,0.0,0.0,0.0,0.0,0.0,0.0,0.0,0.0,0.0,0.0,0.0,0.0,0.0,0.0,0.0,0.0,0.0,0.0,,,,,,,,,,,,,,,,,,,,,,,,,,,,,,,,,,,,,,,,,,,,,,,,,,,,,,,,,,,,,,,,,,,,,,,,,,,,,,,,,,,,,,,,,,,,,,,,,,,,,,,,,,,,,swingAndPointForward
accX,0.0,0.0,0.0,0.0,0.0,0.0,0.0,0.0,0.0,0.0,0.0,0.0,0.0,0.0,0.0,0.0,0.0,0.0,0.0,0.0,0.0,0.0,0.0,0.0,0.0,0.0,0.0,0.0,0.0,0.0,0.0,0.0,0.0,0.0,0.0,0.0,0.0,0.0,0.0,0.0,0.0,0.0,0.0,-0.603,0.0,0.0,0.0,0.0,0.0,-0.69,0.0,0.0,0.0,0.0,0.955,-1.034,0.0,0.0,0.0,0.0,1.5590000000000002,-1.7269999999999999,-0.5529999999999999,0.0,0.0,0.0,1.901,-2.184,-0.631,0.0,0.0,-0.632,2.115,-2.182,0.0,0.0,0.0,-0.8809999999999999,2.033,-2.333,0.0,0.0,0.0,-1.1159999999999999,1.9280000000000002,-2.949,-0.9079999999999999,0.0,0.0,-1.354,2.0380000000000003,-3.358,-1.044,-0.531,0.0,-1.5630000000000002,2.4419999999999997,-3.491,-0.7609999999999999,-0.521,0.0,-1.806,2.468,-3.728,0.0,-0.563,0.0,-2.166,1.868,-3.6039999999999996,0.0,-0.637,0.0,-2.459,1.056,-2.843,0.0,-0.634,0.0,-2.642,0.5760000000000001,-2.889,0.0,-0.605,0.0,-2.7739999999999996,0.0,-3.557,-0.731,-0.813,0.0,-2.99,-0.609,-3.016,0.0,-0.8859999999999999,0.0,-3.112,-0.8740000000000001,-2.3,0.7170000000000001,-0.7090000000000001,0.0,-3.173,-1.0190000000000001,-1.705,0.875,0.0,0.0,-3.2430000000000003,-1.5819999999999999,-2.3,0.0,0.0,0.0,-3.2710000000000004,-2.38,-2.7030000000000003,0.0,0.0,0.0,-3.225,-3.1210000000000004,-2.077,0.0,-0.619,0.0,-3.112,-2.638,-1.6059999999999999,0.8959999999999999,0.0,0.594,-3.076,-2.523,-1.57,0.794,0.0,0.556,-3.0610000000000004,-3.218,-1.2309999999999999,0.9359999999999999,0.0,0.604,-2.927,-3.553,-0.83,1.2229999999999999,0.0,0.723,-2.803,-3.7439999999999998,0.0,1.235,0.0,0.809,-2.5989999999999998,-3.676,0.0,0.9109999999999999,0.0,0.772,-2.437,-3.99,0.0,0.802,0.0,0.725,-2.238,-3.823,0.0,0.541,0.0,0.544,-2.051,-3.8819999999999997,0.621,0.0,0.544,0.0,-1.839,-3.943,0.721,0.0,0.718,0.0,-1.601,-4.1339999999999995,0.0,-1.11,0.7490000000000001,0.0,-1.4340000000000002,-4.27,0.6459999999999999,-1.508,0.531,0.0,-1.1520000000000001,-3.452,0.5529999999999999,-1.32,0.0,0.0,-0.785,-2.47,0.0,-1.0490000000000002,0.0,0.0,-0.5710000000000001,-1.985,0.0,-0.9109999999999999,0.0,0.0,0.0,-1.963,0.0,-0.937,0.0,0.0,0.0,-1.567,0.0,-0.981,0.0,0.0,0.0,-0.9279999999999999,0.0,-0.805,0.0,0.0,0.0,0.0,0.0,-0.5670000000000001,0.0,0.0,0.0,0.0,0.0,0.0,0.0,0.0,0.0,0.0,0.0,0.0,0.0,0.0,0.0,0.0,0.0,0.0,0.0,0.0,0.0,0.0,0.0,0.0,0.0,0.0,0.0,0.0,0.0,0.0,0.0,0.0,0.0,0.0,0.0,0.0,0.0,0.0,0.0,0.0,0.0,0.0,0.0,0.0,0.0,0.0,0.0,0.0,0.0,0.0,0.0,0.0,0.0,0.0,0.0,0.0,0.0,0.0,0.0,0.0,0.0,0.0,0.0,0.0,0.0,0.0,0.0,0.0,0.0,0.0,0.0,0.0,0.0,0.0,0.0,0.0,0.0,0.0,0.0,0.0,0.0,0.0,0.0,0.0,0.0,0.0,0.0,0.0,0.0,0.0,0.0,0.0,0.0,0.0,0.0,0.0,0.0,0.541,0.0,,,,,,,,,,,,,,,,,,,,,,,,,,,,,,,,,,,,,,,,,,,,,,,,,,,,,,,,,,,,,,,,,,,,,,,,,,,,,,,,,,,,,,,,,,,,,,,,,,,,,,,swingAndPointForward
accX,0.0,0.0,0.0,0.0,0.0,0.0,0.0,0.0,-0.758,0.0,0.0,0.0,-0.7140000000000001,0.0,-0.8740000000000001,0.0,0.0,0.0,-1.101,0.0,-0.654,0.0,0.0,0.0,-0.755,0.0,0.0,0.0,0.0,0.0,0.0,0.0,0.0,0.0,0.0,0.0,0.0,0.0,0.0,0.0,0.0,0.0,-0.544,0.0,0.0,0.0,0.0,0.0,0.0,0.0,0.0,0.0,0.0,0.0,0.0,0.0,0.0,0.0,0.0,0.0,0.0,0.0,0.0,0.0,0.0,0.0,0.0,0.0,0.0,0.0,0.0,0.0,0.0,0.0,0.0,0.0,0.0,0.0,0.0,0.0,0.0,0.0,0.0,0.0,0.0,-0.557,0.0,0.0,0.0,0.0,0.9670000000000001,-1.133,-0.629,0.0,0.0,0.0,2.0869999999999997,-1.9569999999999999,-0.9390000000000001,0.0,0.0,0.0,2.745,-2.697,-1.258,0.0,0.0,-0.758,2.728,-2.861,-1.159,0.0,0.0,-1.08,2.8760000000000003,-3.4219999999999997,-0.968,0.0,0.0,-1.382,3.347,-3.82,-0.8079999999999999,0.0,0.0,-1.7519999999999998,3.6,-4.922,-0.9470000000000001,0.0,0.0,-2.225,2.949,-5.073,-0.568,0.0,0.0,-2.957,1.355,-4.302,0.0,0.0,0.0,-3.279,0.8390000000000001,-4.287,0.0,0.0,0.0,-3.464,0.0,-4.357,0.0,0.0,0.0,-3.678,-0.721,-3.8360000000000003,0.0,0.0,0.0,-3.955,-2.3480000000000003,-2.858,0.0,0.0,0.0,-4.1339999999999995,-3.7939999999999996,-1.77,0.574,0.0,0.0,-4.05,-3.8480000000000003,-1.6369999999999998,0.619,0.0,0.0,-3.638,-3.9730000000000003,-1.2990000000000002,0.8059999999999999,0.0,0.0,-3.5239999999999996,-4.132,-1.395,0.774,0.0,0.0,-3.4410000000000003,-5.048,-0.9520000000000001,0.867,0.0,0.0,-3.375,-5.247000000000001,0.0,1.031,0.0,0.0,-3.042,-4.2780000000000005,-0.612,0.8909999999999999,0.0,0.569,-2.67,-4.129,0.0,0.857,0.0,0.0,-2.516,-4.452,0.0,0.73,0.513,0.0,-2.366,-4.604,0.0,0.0,0.621,0.0,-2.141,-4.09,0.0,0.0,0.669,0.0,-1.85,-3.569,0.0,0.0,0.599,0.0,-1.632,-3.167,0.0,-0.7509999999999999,0.504,0.0,-1.4380000000000002,-2.984,0.0,-1.17,0.0,0.0,-1.2930000000000001,-3.1,0.0,-1.409,0.0,0.0,-1.101,-3.161,0.509,-1.5390000000000001,0.0,0.0,-0.852,-2.1390000000000002,0.0,-1.4809999999999999,0.0,0.0,-0.62,-0.986,0.0,-1.517,0.0,0.0,0.0,-0.797,-0.562,-1.285,0.0,0.0,0.0,-1.3880000000000001,0.0,-0.763,0.0,0.0,0.0,-1.439,0.0,0.0,0.0,0.0,0.0,-0.852,0.0,0.0,0.0,0.0,0.0,0.0,0.0,0.0,0.0,0.0,0.0,0.0,-0.639,0.0,0.0,0.0,0.0,0.0,0.0,0.0,0.0,0.0,0.0,0.0,0.0,0.0,0.0,0.0,0.0,0.0,0.0,0.0,0.0,0.0,0.0,0.0,0.0,0.0,0.0,0.0,0.0,0.0,0.0,0.0,0.0,0.0,0.0,0.0,0.0,0.0,0.0,0.0,0.0,0.0,-0.568,0.0,0.0,0.0,0.0,0.0,-0.575,0.0,0.0,0.0,0.0,0.0,0.0,0.0,0.0,0.0,0.0,0.0,0.0,0.0,0.0,0.0,0.0,0.0,0.0,0.0,0.0,0.0,0.0,,,,,,,,,,,,,,,,,,,,,,,,,,,,,,,,,,,,,,,,,,,,,,,,,,,,,,,,,,,,,,,,,,,,,,,,,,,,,,,,,,,,,,,,,,,,,,,,,,,,,,,swingAndPointForward
accX,0.0,0.0,0.0,0.0,0.0,0.0,0.0,0.0,0.0,0.0,0.0,0.0,-0.885,0.0,0.0,0.0,0.0,0.0,0.0,0.0,0.0,0.0,0.0,0.0,0.0,0.0,0.0,0.0,0.0,0.0,0.0,-0.503,0.0,0.0,0.0,0.0,0.0,-0.657,0.0,0.0,0.0,0.0,0.825,-0.804,0.0,0.0,0.0,0.0,1.325,-1.3130000000000002,0.0,0.0,0.0,0.0,1.685,-1.972,0.0,0.0,0.0,0.0,2.033,-2.467,0.0,0.0,0.0,-0.633,2.483,-3.011,0.0,0.0,0.0,-0.855,2.7969999999999997,-3.613,0.0,0.0,0.0,-1.1640000000000001,2.978,-3.8160000000000003,0.0,0.0,0.0,-1.494,3.287,-4.485,0.0,0.0,-0.7,-1.8459999999999999,2.842,-4.966,0.0,0.0,-0.983,-2.2359999999999998,2.2230000000000003,-4.87,0.0,-0.542,-1.1159999999999999,-2.6010000000000004,1.431,-4.624,0.0,-0.647,-0.977,-2.932,0.0,-3.8960000000000004,0.0,-0.619,-0.637,-3.128,0.0,-3.502,0.0,0.0,0.0,-3.2539999999999996,-1.069,-2.931,0.0,0.0,0.0,-3.389,-1.905,-2.238,0.0,0.0,0.0,-3.424,-2.322,-1.5330000000000001,0.0,0.0,0.0,-3.3930000000000002,-2.7430000000000003,-1.511,0.0,0.0,0.0,-3.302,-3.0460000000000003,-1.3969999999999998,0.0,0.0,0.0,-3.29,-3.719,-0.99,0.0,0.0,0.0,-3.238,-3.4560000000000004,-0.977,0.0,0.0,0.0,-3.145,-3.3560000000000003,-0.879,0.0,0.0,0.0,-3.17,-4.184,0.0,0.0,0.0,0.0,-3.1830000000000003,-5.205,0.504,0.0,0.0,0.0,-2.637,-4.813,0.0,0.0,0.0,0.0,-2.296,-4.353,0.0,0.0,0.0,0.0,-2.072,-3.718,0.552,0.0,0.0,0.0,-1.9580000000000002,-3.508,0.629,0.0,0.0,0.0,-1.837,-3.424,0.639,0.0,0.0,0.0,-1.618,-3.513,0.537,0.0,0.0,0.0,-1.3030000000000002,-3.4930000000000003,0.691,0.0,0.0,0.0,-0.9790000000000001,-2.888,0.542,0.0,0.0,0.0,-0.7440000000000001,-1.899,0.0,0.0,0.0,0.0,-0.634,-1.53,0.0,0.0,0.0,0.0,-0.518,-1.531,0.0,0.0,0.0,0.0,0.0,-1.45,0.0,0.0,0.0,0.0,0.0,-0.853,0.0,0.0,0.0,0.0,0.0,0.0,0.0,0.0,0.0,0.0,0.0,0.0,0.0,0.0,0.0,0.0,0.0,0.0,0.0,0.0,0.0,0.0,0.0,0.0,-0.515,0.0,0.0,0.0,0.0,0.0,0.0,0.0,0.0,0.0,0.0,0.0,0.0,0.0,0.0,0.0,0.0,0.0,0.0,0.0,0.0,0.0,0.0,0.0,0.0,0.0,0.0,0.0,0.0,0.0,0.0,0.0,0.0,0.0,0.0,0.0,0.0,0.0,0.0,0.0,0.0,0.0,0.0,0.0,0.0,0.0,0.0,0.0,0.0,0.0,0.0,0.0,0.0,0.0,0.0,0.0,0.0,0.0,0.0,0.693,-0.733,0.0,0.0,0.0,0.0,0.0,-0.5479999999999999,0.0,0.0,0.0,0.0,0.0,0.0,0.0,0.0,0.0,0.0,,,,,,,,,,,,,,,,,,,,,,,,,,,,,,,,,,,,,,,,,,,,,,,,,,,,,,,,,,,,,,,,,,,,,,,,,,,,,,,,,,,,,,,,,,,,,,,,,,,,,,,,,,,,,,,,,,,,,,,,,,,,,,,swingAndPointForward
accX,0.935,-1.169,-0.768,0.0,0.0,0.0,1.9240000000000002,-1.8559999999999999,-0.927,0.0,0.0,-0.5479999999999999,1.868,-2.454,-0.763,-0.501,0.0,-0.8,1.649,-2.312,0.0,-0.5429999999999999,0.0,-1.044,1.44,-1.909,0.0,0.0,0.0,-1.278,1.3940000000000001,-1.909,0.8220000000000001,0.0,0.0,-1.49,1.256,-2.44,0.698,0.0,0.0,-1.6780000000000002,0.86,-2.025,0.0,0.0,0.0,-1.9480000000000002,0.0,-2.063,0.0,0.0,-0.5379999999999999,-2.046,0.0,-2.489,0.0,0.0,-0.52,-2.185,0.0,-2.526,0.0,-0.578,0.0,-2.249,-0.5539999999999999,-1.443,0.7040000000000001,0.0,0.0,-2.2680000000000002,0.0,-1.429,0.9279999999999999,0.0,0.0,-2.34,-0.8290000000000001,-1.609,0.8690000000000001,0.0,0.0,-2.461,-1.3769999999999998,-1.551,0.639,0.0,0.0,-2.513,-1.157,-1.7890000000000001,0.0,0.0,0.0,-2.543,-0.982,-2.263,0.0,0.0,0.0,-2.638,-1.868,-1.2590000000000001,0.0,0.0,0.0,-2.696,-2.613,0.0,0.521,0.0,0.0,-2.61,-2.7310000000000003,0.0,0.597,0.0,0.0,-2.516,-2.254,-0.815,0.0,0.0,0.0,-2.539,-1.7930000000000001,-1.3090000000000002,0.0,0.0,0.0,-2.5989999999999998,-2.638,0.0,0.6829999999999999,0.0,0.0,-2.546,-2.58,0.0,0.858,0.0,0.0,-2.455,-2.346,-0.509,0.604,0.0,0.0,-2.452,-2.6639999999999997,0.0,0.0,0.0,0.0,-2.403,-3.332,0.0,0.0,0.0,0.0,-2.238,-3.8360000000000003,0.561,0.0,0.0,0.0,-2.046,-3.5860000000000003,0.0,0.0,0.504,0.0,-1.8519999999999999,-3.8489999999999998,0.64,0.0,0.53,0.0,-1.6869999999999998,-4.181,0.764,-0.831,0.0,0.0,-1.464,-4.3260000000000005,0.9390000000000001,-1.215,0.0,0.0,-1.1340000000000001,-4.105,0.8959999999999999,-1.3730000000000002,0.0,0.0,-0.675,-3.057,0.0,-1.611,0.0,0.0,0.0,-2.373,0.0,-1.499,0.0,0.0,0.0,-1.726,0.0,-0.9179999999999999,0.0,0.0,0.0,-1.048,0.0,0.0,0.0,0.0,0.0,0.0,0.0,0.0,0.0,0.0,0.0,0.0,0.0,0.0,0.0,0.0,0.0,0.0,0.0,0.831,0.0,0.0,0.0,0.0,0.0,0.892,0.0,0.0,0.0,0.0,-0.625,0.0,0.0,0.0,0.0,0.0,0.0,0.0,0.0,0.0,0.0,0.0,0.0,0.0,0.0,0.0,0.0,0.0,0.0,0.0,0.0,0.0,0.0,0.0,0.0,0.0,0.0,0.0,0.0,0.0,0.0,0.0,0.0,0.0,0.0,0.0,0.0,0.0,0.0,0.0,0.0,0.0,0.0,0.0,0.0,0.0,0.0,0.0,0.0,0.0,0.0,0.0,0.0,0.0,0.0,0.0,0.0,0.0,0.0,0.0,0.0,0.0,0.0,0.0,0.0,0.0,0.0,0.0,0.0,0.0,0.0,0.0,0.0,0.0,0.0,0.0,0.0,0.0,0.0,0.0,0.0,0.0,0.0,-0.877,0.0,0.0,0.0,0.0,0.0,,,,,,,,,,,,,,,,,,,,,,,,,,,,,,,,,,,,,,,,,,,,,,,,,,,,,,,,,,,,,,,,,,,,,,,,,,,,,,,,,,,,,,,,,,,,,,,,,,,,,,,,,,,,,,,,,,,,,,,,,,,,,,,,,,,,,,,,,,,,,,,,,swingAndPointForward
accX,0.0,0.0,0.0,0.0,0.0,0.0,-0.629,0.0,0.0,0.0,0.0,0.0,-0.67,0.0,0.0,0.0,0.0,0.0,0.0,0.0,0.0,0.0,0.0,0.0,0.0,0.0,0.0,0.0,0.0,0.0,0.0,0.0,0.0,0.0,0.0,0.0,0.0,0.0,0.0,0.0,0.0,0.0,0.0,0.0,0.0,0.0,0.0,0.0,0.0,0.0,-0.532,0.0,0.0,0.0,0.0,0.0,-0.5720000000000001,0.0,0.0,0.0,0.0,0.0,0.0,0.0,0.0,0.0,0.0,0.0,0.0,0.0,0.0,0.0,0.0,0.0,0.0,0.0,0.0,0.0,0.0,0.0,0.0,0.0,0.0,0.0,0.0,-0.606,0.0,0.0,0.0,0.0,0.615,-0.768,-0.5870000000000001,0.0,0.0,0.0,0.812,-0.7859999999999999,-0.581,0.0,0.0,0.0,1.104,-1.055,-0.595,0.0,0.0,0.0,1.636,-1.61,-0.617,0.0,0.0,-0.612,1.8719999999999999,-2.1069999999999998,-0.68,0.0,0.0,-0.836,2.394,-2.639,-0.784,0.0,0.0,-1.069,2.742,-3.112,-0.583,-0.55,0.0,-1.411,2.4730000000000003,-3.407,-0.56,-0.633,0.0,-1.7180000000000002,2.289,-3.409,-0.565,-0.623,0.0,-2.024,2.0869999999999997,-3.9539999999999997,-0.67,-0.644,0.0,-2.34,1.7790000000000001,-4.09,0.0,-0.7809999999999999,0.0,-2.549,1.368,-3.593,0.0,-0.878,0.0,-2.798,0.623,-3.069,0.0,-0.8540000000000001,-0.527,-3.02,0.0,-3.2110000000000003,0.0,-0.8540000000000001,0.0,-3.1910000000000003,-0.9940000000000001,-3.0439999999999996,0.0,-0.825,0.0,-3.2680000000000002,-1.5630000000000002,-2.766,0.0,-0.785,0.0,-3.282,-2.154,-2.185,0.956,-0.679,0.0,-3.265,-2.363,-2.207,0.929,-0.55,0.0,-3.273,-3.3539999999999996,-2.157,0.7559999999999999,0.0,0.0,-3.261,-3.898,-1.305,0.882,0.0,0.0,-3.1719999999999997,-3.907,-1.097,1.069,0.0,0.0,-2.992,-3.985,-0.8640000000000001,1.1440000000000001,0.0,0.0,-2.846,-4.223,0.0,1.062,0.0,0.527,-2.7039999999999997,-4.0680000000000005,0.0,0.9209999999999999,0.0,0.513,-2.53,-4.061,0.0,0.815,0.0,0.0,-2.369,-4.302,0.0,0.669,0.0,0.0,-2.157,-4.361000000000001,0.0,0.66,0.0,0.0,-1.9080000000000001,-4.448,0.515,0.623,0.0,0.551,-1.659,-4.251,0.611,0.0,0.0,0.5429999999999999,-1.411,-4.442,0.595,0.0,0.585,0.0,-1.22,-4.398,0.0,-1.061,0.568,0.0,-0.912,-4.006,0.0,-1.3659999999999999,0.0,0.0,-0.63,-3.237,0.0,-1.196,0.0,0.0,0.0,-2.226,0.0,-0.608,0.0,0.0,0.0,-1.575,0.0,0.0,0.0,0.0,0.0,-0.867,-0.61,0.0,0.0,0.0,0.0,0.0,-0.764,0.0,0.0,0.0,0.0,0.0,-0.746,0.0,0.0,0.0,0.0,0.0,-0.696,0.0,0.0,0.0,0.0,0.0,-0.636,0.0,0.0,0.0,0.0,0.0,0.0,0.0,0.0,0.0,0.0,0.0,0.0,0.0,0.0,0.0,0.0,0.0,0.0,0.0,0.0,0.0,0.0,0.0,0.0,0.0,0.0,0.0,0.0,0.0,0.0,0.0,0.0,0.0,0.0,0.0,0.0,0.0,0.0,0.0,0.0,0.0,0.0,0.0,0.0,0.0,0.0,0.0,0.0,0.0,0.0,0.0,0.0,0.0,0.0,0.0,0.0,0.0,0.0,0.0,0.0,0.0,0.0,0.0,0.0,0.0,0.0,0.0,0.0,0.0,0.0,0.0,0.0,0.0,0.0,0.0,0.0,0.0,0.0,0.0,0.0,0.0,0.0,0.0,0.0,0.0,0.0,0.0,0.0,,,,,,,,,,,,,,,,,,,,,,,,,,,,,,,,,,,,,,,,,,,,,,,,,,,,,,,,,,,,,,,,,,,swingAndPointForward
accX,0.0,0.0,0.0,0.0,0.0,0.0,0.0,0.0,-0.853,0.0,0.0,0.0,0.0,0.0,-0.831,-0.531,0.0,0.0,0.0,0.0,-0.5760000000000001,-0.619,0.0,0.0,0.0,0.0,0.0,-0.5710000000000001,0.0,0.0,0.0,0.0,0.0,0.0,0.0,0.0,0.0,0.0,0.0,0.0,0.0,0.0,0.0,0.0,0.0,0.0,0.0,0.0,0.0,-0.537,0.0,0.0,0.0,0.0,0.0,0.0,0.0,0.0,0.0,0.0,0.0,0.0,0.0,0.0,0.0,0.0,0.0,0.0,0.0,0.0,0.0,0.0,0.563,-0.6890000000000001,0.0,0.0,0.0,0.0,0.9570000000000001,-1.146,0.0,0.0,0.0,0.0,1.03,-1.379,0.0,0.0,0.0,-0.6,1.25,-1.41,-0.616,0.0,0.0,-0.767,1.695,-2.233,-1.071,0.0,0.0,-0.9840000000000001,1.858,-2.863,-1.335,0.0,0.0,-1.228,2.0709999999999997,-2.8680000000000003,-0.888,0.0,0.0,-1.4780000000000002,2.387,-3.173,-0.615,0.0,0.0,-1.8159999999999998,2.292,-3.861,-0.6659999999999999,0.0,0.0,-2.34,1.541,-4.2410000000000005,-0.7340000000000001,-0.5770000000000001,0.0,-2.6830000000000003,0.8240000000000001,-4.027,-0.557,-0.622,0.0,-3.0210000000000004,0.0,-3.448,0.0,-0.574,0.0,-3.335,0.0,-2.654,0.755,0.0,0.0,-3.5410000000000004,-0.821,-2.44,0.5720000000000001,0.0,0.0,-3.6660000000000004,-1.844,-2.459,0.0,0.0,0.0,-3.798,-2.765,-2.391,0.53,0.0,0.0,-3.807,-2.705,-2.2030000000000003,0.716,0.0,0.0,-3.58,-2.8789999999999996,-2.053,1.003,0.0,0.0,-3.411,-3.603,-1.306,1.252,0.0,0.0,-3.344,-3.8739999999999997,-1.046,1.156,0.0,0.0,-3.262,-4.001,-1.006,0.9,0.0,0.0,-3.255,-4.423,-0.6709999999999999,0.727,0.618,0.0,-3.185,-4.681,0.0,0.7,0.602,0.603,-2.852,-3.989,0.0,0.6809999999999999,0.524,0.6920000000000001,-2.4730000000000003,-3.6910000000000003,0.0,0.743,0.0,0.534,-2.344,-4.107,0.0,0.0,0.574,0.0,-2.295,-5.046,0.83,0.0,0.795,0.0,-1.9680000000000002,-4.723,0.0,-0.769,0.855,0.0,-1.5759999999999998,-4.087,0.0,-1.518,0.57,0.0,-1.286,-3.29,0.0,-1.7380000000000002,0.0,0.0,-1.011,-3.1060000000000003,0.0,-1.5519999999999998,0.0,0.0,-0.825,-2.379,0.0,-1.273,0.0,0.0,-0.601,-1.551,-0.5770000000000001,-1.156,0.0,0.0,0.0,-0.857,-0.515,-0.6509999999999999,0.0,0.0,0.0,-0.542,-0.56,0.0,0.0,0.0,0.0,0.0,0.0,0.0,0.0,0.0,0.0,0.0,0.0,0.0,0.0,0.0,0.0,0.0,0.0,0.0,0.0,0.0,0.0,0.0,0.0,0.0,0.0,0.0,0.0,0.0,0.0,0.0,0.0,0.0,0.0,0.0,0.0,0.0,0.0,0.0,0.0,0.0,0.0,0.0,0.0,0.0,0.0,0.0,0.0,0.0,0.0,0.0,0.0,0.0,0.0,0.0,0.0,0.0,0.0,0.0,0.0,0.0,0.0,0.0,0.0,0.0,0.0,0.0,0.0,0.0,0.0,0.0,0.0,-0.517,0.0,0.0,0.0,0.0,0.0,-0.524,0.0,0.0,0.0,0.0,0.0,0.0,0.0,0.0,0.0,0.0,0.0,0.0,0.0,0.0,0.0,0.0,0.0,0.0,0.0,0.0,0.0,0.0,0.0,0.0,0.0,0.0,0.0,,,,,,,,,,,,,,,,,,,,,,,,,,,,,,,,,,,,,,,,,,,,,,,,,,,,,,,,,,,,,,,,,,,,,,,,,,,,,,,,,,,,,,,,,,,,,,,,,swingAndPointForward
accX,0.0,0.0,-0.787,0.0,0.0,0.0,0.0,-0.524,-0.637,0.0,0.0,0.0,0.0,-0.604,-0.547,0.0,0.0,0.0,0.0,0.0,-0.574,0.0,0.0,0.0,0.0,0.0,0.0,0.0,0.0,0.0,0.0,0.0,0.0,0.0,0.0,0.0,0.0,0.0,0.0,0.0,0.0,0.0,0.0,0.0,0.0,0.0,0.0,0.0,0.0,0.0,0.0,0.0,0.0,0.0,0.0,0.0,0.0,0.0,0.0,0.0,0.0,0.0,0.0,0.0,0.0,0.0,0.546,-0.532,0.0,0.0,0.0,0.0,0.753,-0.8540000000000001,-0.545,0.0,0.0,0.0,1.335,-1.4040000000000001,-0.624,0.0,0.0,0.0,1.774,-1.7719999999999998,-0.635,0.0,0.0,-0.608,2.364,-2.716,-0.81,0.0,0.0,-0.794,2.658,-3.167,-0.6990000000000001,0.0,0.0,-1.081,2.61,-3.466,-0.509,0.0,0.0,-1.385,2.614,-4.2780000000000005,0.0,0.0,0.0,-1.7069999999999999,2.63,-4.512,0.0,0.0,0.0,-2.061,3.094,-4.988,0.0,-0.508,0.0,-2.474,2.418,-4.871,0.0,-0.6920000000000001,0.0,-2.945,1.21,-4.378,0.0,-0.795,-0.5660000000000001,-3.2880000000000003,0.7,-4.125,0.0,-0.737,0.0,-3.463,0.0,-4.003,0.579,-0.677,0.0,-3.678,-0.624,-3.551,0.826,-0.623,0.0,-3.885,-1.5819999999999999,-3.0010000000000003,0.838,-0.518,0.0,-4.065,-3.077,-2.231,0.818,0.0,0.0,-4.114,-3.908,-2.001,0.883,0.0,0.0,-3.917,-4.1419999999999995,-1.7469999999999999,1.0959999999999999,0.0,0.0,-3.734,-4.512,-1.209,1.068,0.0,0.682,-3.5780000000000003,-5.3420000000000005,0.0,0.825,0.0,0.8170000000000001,-3.359,-5.608,0.0,0.628,0.588,0.7120000000000001,-3.0989999999999998,-5.4910000000000005,0.0,0.557,0.503,0.0,-2.804,-5.3389999999999995,0.0,0.0,0.0,0.0,-2.483,-5.3229999999999995,0.54,0.0,0.0,0.0,-2.145,-4.756,0.0,0.0,0.0,0.5539999999999999,-1.682,-3.991,0.0,0.0,0.0,0.0,-1.454,-3.3289999999999997,0.0,0.0,0.514,0.0,-1.291,-2.8819999999999997,0.0,-0.585,0.0,0.0,-1.273,-2.951,0.0,-0.815,0.0,0.0,-1.158,-2.9160000000000004,0.0,-0.934,0.0,0.0,-0.968,-2.9019999999999997,0.0,-1.014,0.0,0.0,-0.644,-2.853,0.0,-0.8590000000000001,0.0,0.521,0.0,-1.652,0.0,0.0,0.0,0.0,0.0,-0.9590000000000001,0.0,0.0,0.0,0.0,0.0,-0.701,0.0,0.0,0.0,0.0,0.0,-0.7120000000000001,0.0,-0.5720000000000001,0.0,0.0,0.0,-0.927,0.0,-0.687,0.0,0.0,0.0,0.0,0.0,0.0,0.0,0.0,0.0,0.574,0.0,0.0,0.0,0.0,0.0,0.7809999999999999,-0.622,0.0,0.0,0.0,0.0,0.0,-0.5870000000000001,0.0,0.0,0.0,0.0,0.5760000000000001,-0.547,0.0,0.0,0.0,0.0,0.62,0.0,0.0,0.0,0.0,0.0,0.6579999999999999,0.0,0.0,0.0,0.0,0.0,0.0,0.0,0.0,0.0,0.0,0.0,,,,,,,,,,,,,,,,,,,,,,,,,,,,,,,,,,,,,,,,,,,,,,,,,,,,,,,,,,,,,,,,,,,,,,,,,,,,,,,,,,,,,,,,,,,,,,,,,,,,,,,,,,,,,,,,,,,,,,,,,,,,,,,,,,,,,,,,,,,swingAndPointForward
accX,0.0,0.0,0.0,0.0,0.0,0.0,-0.619,0.0,-0.516,0.0,0.0,0.0,0.0,0.0,0.0,0.0,0.0,0.0,-0.696,0.0,0.0,0.0,0.0,0.0,0.0,0.0,0.0,0.0,0.0,0.0,0.0,0.0,0.0,0.0,0.0,0.0,0.0,0.0,0.0,0.0,0.0,0.0,0.0,0.0,0.0,0.0,0.0,0.0,0.0,0.0,0.0,0.0,0.0,0.0,0.0,0.0,0.0,0.0,0.0,0.0,0.0,0.0,0.0,0.0,0.0,0.0,0.0,0.0,0.0,0.0,0.0,0.0,0.0,0.0,0.0,0.0,0.0,0.0,0.95,-0.985,0.0,0.0,0.0,0.0,0.9520000000000001,-1.1,-0.6709999999999999,0.0,0.0,0.0,1.151,-1.558,-1.018,0.0,0.0,0.0,1.859,-2.396,-1.39,0.0,0.0,-0.6559999999999999,2.324,-3.258,-1.445,0.0,0.0,-0.938,2.557,-3.3369999999999997,-0.9790000000000001,-0.662,0.0,-1.295,2.915,-3.9930000000000003,-0.67,-0.6559999999999999,0.0,-1.591,3.548,-4.753,-0.654,-0.736,0.0,-2.001,2.705,-4.827,-0.8640000000000001,-0.961,-0.6679999999999999,-2.46,1.69,-4.573,-0.7979999999999999,-1.031,0.0,-2.775,1.349,-4.513999999999999,0.0,-0.988,0.0,-3.0780000000000003,1.073,-4.386,0.0,-0.9540000000000001,0.0,-3.365,0.5660000000000001,-3.833,0.0,-0.927,0.0,-3.677,0.0,-3.445,0.0,-0.835,0.0,-4.0,-2.125,-2.81,0.6809999999999999,-0.777,0.0,-4.171,-2.812,-2.819,0.772,-0.64,0.0,-4.064,-2.984,-2.6919999999999997,0.91,-0.524,0.0,-3.833,-3.765,-2.205,0.8370000000000001,0.0,0.535,-3.7230000000000003,-4.775,-1.401,0.909,0.0,0.657,-3.555,-5.207000000000001,-1.213,0.888,0.0,0.8029999999999999,-3.262,-4.689,-1.306,0.862,0.0,0.745,-2.984,-4.601,-1.175,1.107,0.0,0.6409999999999999,-2.765,-5.083,-0.527,1.536,0.0,0.6920000000000001,-2.532,-5.113,0.0,1.72,0.0,0.792,-2.306,-4.743,0.0,1.594,0.7090000000000001,0.795,-2.051,-4.309,0.0,1.3019999999999998,0.8240000000000001,0.6729999999999999,-1.828,-4.053999999999999,0.0,0.765,0.8079999999999999,0.506,-1.672,-3.9930000000000003,0.0,0.0,0.807,0.0,-1.368,-3.133,0.0,0.0,0.7809999999999999,0.0,-1.127,-2.613,0.0,-0.895,0.7609999999999999,0.0,-0.972,-2.6039999999999996,0.0,-1.181,0.69,0.0,-0.8420000000000001,-2.78,0.0,-1.413,0.555,0.0,-0.611,-2.406,0.0,-1.297,0.0,0.528,0.0,-1.6569999999999998,0.0,-0.9209999999999999,0.0,0.0,0.0,-0.938,0.0,-0.78,0.0,0.0,0.0,-0.722,0.0,-0.813,0.0,0.0,0.0,-1.197,-0.589,-1.159,0.0,0.0,0.0,-0.927,0.0,-1.034,0.0,0.0,0.0,0.0,0.0,-0.604,0.0,0.0,0.0,0.0,0.0,0.0,0.0,0.0,0.0,0.0,0.0,0.0,0.0,0.0,0.0,0.0,-0.6579999999999999,0.0,0.0,0.0,0.0,,,,,,,,,,,,,,,,,,,,,,,,,,,,,,,,,,,,,,,,,,,,,,,,,,,,,,,,,,,,,,,,,,,,,,,,,,,,,,,,,,,,,,,,,,,,,,,,,,,,,,,,,,,,,,,,,,,,,,,,,,,,,,,,,,,,,,,,,,,,,,,,,,,,,,,swingAndPointForward
accX,0.0,0.0,0.0,0.0,0.0,0.0,0.0,0.0,-0.591,0.0,0.0,0.0,0.0,0.0,-0.871,0.0,0.0,0.0,0.0,0.0,0.0,0.0,0.0,0.0,0.0,0.0,-0.5760000000000001,0.0,0.0,0.0,0.0,-0.59,-0.764,0.0,0.0,0.0,0.0,-0.595,-0.5770000000000001,0.0,0.0,0.0,0.0,0.0,0.0,0.0,0.0,0.0,0.0,-0.584,0.0,0.0,0.0,0.0,0.0,-0.5489999999999999,0.0,0.0,0.0,0.0,0.0,0.0,0.0,0.0,0.0,0.0,0.0,0.0,0.0,0.0,0.0,0.0,0.0,-0.595,0.0,0.0,0.0,0.0,0.517,-0.945,0.0,0.0,0.0,0.0,0.7809999999999999,-1.349,0.0,0.0,0.0,-0.532,1.234,-1.4140000000000001,0.0,0.0,0.0,-0.69,1.155,-1.3459999999999999,0.0,0.0,0.0,-0.932,0.961,-1.6440000000000001,0.0,0.0,0.0,-1.103,0.929,-2.26,0.0,0.0,0.0,-1.262,1.1079999999999999,-2.535,0.0,0.0,0.0,-1.42,1.49,-2.748,0.0,0.0,0.0,-1.641,1.67,-2.801,0.0,0.0,0.0,-2.001,1.475,-2.84,0.0,0.0,0.0,-2.399,0.795,-3.051,0.0,0.0,0.0,-2.847,0.0,-3.051,0.0,0.0,0.0,-3.072,0.0,-3.322,0.0,0.0,0.0,-3.182,0.0,-2.8819999999999997,0.0,0.0,0.0,-3.574,-0.705,-2.6510000000000002,0.0,0.0,0.0,-3.992,-1.666,-2.5340000000000003,0.0,0.0,0.0,-4.178,-2.741,-2.282,0.0,0.0,0.0,-3.8710000000000004,-2.95,-2.191,0.0,0.0,0.0,-3.475,-3.241,-1.921,0.0,0.0,0.0,-3.4939999999999998,-3.9219999999999997,-1.3259999999999998,0.0,0.0,0.0,-3.5610000000000004,-4.637,-0.8059999999999999,0.0,0.0,0.0,-3.575,-5.228,0.0,0.0,0.0,0.0,-3.3,-5.407,0.0,0.0,0.579,0.0,-2.6210000000000004,-5.529,-0.501,0.0,0.0,0.0,-2.24,-5.098,0.0,0.0,0.0,0.0,-1.9909999999999999,-4.512,0.0,0.0,0.0,0.0,-1.78,-4.553,0.0,0.0,0.0,0.0,-1.636,-4.064,0.0,0.0,0.0,0.0,-1.34,-3.353,0.0,0.0,0.0,0.0,-1.1520000000000001,-3.096,0.0,-0.632,0.0,0.0,-1.02,-2.807,-0.562,-0.873,0.0,0.0,-0.846,-2.4619999999999997,-0.501,-0.833,0.0,0.0,-0.642,-2.005,0.0,0.0,0.0,0.0,-0.565,-1.9709999999999999,0.0,0.0,0.0,0.0,0.0,-1.564,0.0,0.0,0.0,0.0,0.0,-1.1,0.0,0.0,0.0,0.0,0.0,-1.06,-0.6559999999999999,0.0,0.0,0.0,0.0,-0.9490000000000001,-0.615,-0.635,0.0,0.0,0.0,-0.7879999999999999,0.0,0.0,0.0,0.0,0.0,0.0,-0.615,0.0,0.0,0.0,0.0,0.0,-0.847,0.0,0.0,0.0,0.0,0.0,-0.873,0.0,0.0,0.0,0.0,0.0,-0.526,0.0,0.0,0.0,0.0,0.0,0.0,0.0,0.0,0.0,0.0,0.0,0.0,0.0,0.0,0.0,0.0,0.0,0.0,0.0,0.0,0.0,0.0,0.0,0.0,0.0,0.0,0.0,0.0,0.0,0.0,0.0,0.0,0.0,0.0,0.0,0.0,0.0,0.0,0.0,0.0,,,,,,,,,,,,,,,,,,,,,,,,,,,,,,,,,,,,,,,,,,,,,,,,,,,,,,,,,,,,,,,,,,,,,,,,,,,,,,,,,,,,,,,,,,,,,,,,,,,,,,,,,,,,,swingAndPointForward
accX,0.0,0.0,0.0,0.0,0.0,0.0,0.0,0.0,0.0,0.0,0.0,0.0,0.0,0.0,-0.782,0.0,0.0,0.0,-0.57,0.0,-0.81,0.0,0.0,0.0,0.0,0.0,0.0,0.0,0.0,0.0,0.0,0.0,0.0,0.0,0.0,0.0,0.0,0.0,0.0,0.0,0.0,0.0,0.0,0.0,0.0,0.0,0.0,0.0,0.0,0.0,0.0,0.0,0.0,0.0,0.0,0.0,-0.569,0.0,0.0,0.0,0.0,0.0,0.0,0.0,0.0,0.0,0.0,0.0,0.0,0.0,0.0,0.0,0.755,-0.98,0.0,0.0,0.0,0.0,1.1740000000000002,-1.4580000000000002,0.0,0.0,0.0,0.0,1.6380000000000001,-2.046,-0.5770000000000001,0.0,0.0,-0.7040000000000001,1.841,-2.501,-0.6,0.0,0.0,-0.9640000000000001,2.009,-2.863,0.0,0.0,0.0,-1.234,2.202,-3.23,0.0,0.0,0.0,-1.514,2.44,-3.645,0.0,0.0,0.0,-1.9080000000000001,2.614,-4.308,0.0,0.0,0.0,-2.335,2.588,-5.065,0.0,0.0,0.0,-2.748,2.124,-4.747,0.693,0.0,0.0,-3.159,1.807,-4.684,0.747,0.0,0.0,-3.512,0.797,-4.374,0.602,0.0,-0.529,-3.915,0.0,-3.927,0.631,0.0,-0.527,-4.081,-1.228,-3.1689999999999996,0.857,0.0,0.0,-4.093999999999999,-1.6780000000000002,-2.6430000000000002,0.792,0.0,0.0,-3.951,-2.247,-2.44,0.0,0.0,0.0,-3.9019999999999997,-3.218,-2.187,0.0,0.0,0.0,-3.783,-3.778,-1.6580000000000001,0.5429999999999999,0.0,0.0,-3.676,-3.963,-1.646,0.0,0.0,0.0,-3.602,-5.519,0.0,0.0,0.0,0.0,-3.325,-6.417999999999999,0.0,0.787,0.0,1.058,-2.861,-5.797999999999999,0.0,1.158,0.0,1.349,-2.4419999999999997,-4.348,0.0,0.652,0.524,1.136,-2.387,-4.35,0.0,0.0,0.626,0.94,-2.351,-4.069,0.0,0.0,0.8290000000000001,0.708,-2.105,-3.443,0.0,-0.7020000000000001,0.977,0.0,-1.791,-3.125,-0.7440000000000001,-1.3780000000000001,0.9129999999999999,0.0,-1.505,-2.908,-0.877,-1.9569999999999999,0.642,0.0,-1.3430000000000002,-3.0260000000000002,-0.521,-2.103,0.0,0.0,-1.0979999999999999,-2.351,-0.526,-1.935,0.0,0.0,-0.828,-2.198,0.0,-1.5030000000000001,0.0,0.0,-0.721,-2.0380000000000003,0.0,-1.178,0.0,0.0,-0.568,-1.247,-0.609,-1.0759999999999998,0.0,0.0,0.0,-1.207,0.0,-0.92,0.0,0.0,0.0,-1.088,0.0,-0.6859999999999999,0.0,0.0,0.0,-0.7,0.0,0.0,0.0,0.0,0.0,0.0,0.0,0.0,0.0,0.0,0.0,0.0,0.0,0.0,0.0,0.0,0.0,0.0,0.0,0.0,0.0,0.0,0.0,0.0,0.0,0.0,0.0,0.0,0.0,0.0,0.0,0.0,0.0,0.0,0.0,0.0,0.0,0.0,0.0,0.0,0.0,0.0,0.0,0.0,0.0,0.0,0.0,0.0,0.0,0.0,0.0,0.0,0.0,0.0,0.0,0.0,0.0,0.0,0.0,0.0,0.0,0.0,0.0,0.0,0.0,,,,,,,,,,,,,,,,,,,,,,,,,,,,,,,,,,,,,,,,,,,,,,,,,,,,,,,,,,,,,,,,,,,,,,,,,,,,,,,,,,,,,,,,,,,,,,,,,,,,,,,,,,,,,,,,,,,,,,,,,,,,,,,,,,,,,swingAndPointForward
accX,0.0,0.0,0.0,0.0,0.0,0.0,0.0,-0.528,0.0,0.0,0.0,0.0,0.0,-0.5670000000000001,-0.527,0.0,0.0,0.0,0.0,0.0,0.0,0.0,0.0,0.0,0.0,0.0,0.0,0.0,0.0,0.0,0.792,0.0,0.0,0.0,0.0,0.0,0.988,-1.038,0.0,0.0,0.0,-0.542,0.978,-1.364,0.0,0.0,0.0,-0.765,0.8140000000000001,-1.518,0.0,0.0,0.0,-0.894,0.792,-1.771,0.0,0.0,0.0,-1.0070000000000001,1.02,-1.9080000000000001,0.0,0.0,0.0,-1.1540000000000001,1.284,-2.171,0.0,0.0,0.0,-1.3230000000000002,1.78,-2.144,0.0,0.0,0.0,-1.568,1.699,-2.4819999999999998,0.0,0.0,0.0,-1.784,1.266,-3.1430000000000002,-0.929,0.0,0.0,-2.004,1.054,-3.6289999999999996,-1.177,0.0,0.0,-2.214,0.914,-3.3280000000000003,-0.6659999999999999,0.0,0.601,-2.488,0.95,-3.02,0.0,0.0,0.64,-2.784,0.732,-2.955,0.0,0.0,0.0,-3.095,0.0,-2.855,0.0,0.0,0.0,-3.161,-1.931,-2.323,-0.5710000000000001,0.0,0.0,-3.313,-2.7319999999999998,-2.342,-0.866,0.0,0.0,-3.367,-3.6060000000000003,-1.5959999999999999,0.0,0.0,0.0,-3.322,-3.4739999999999998,-1.331,0.575,0.0,0.8240000000000001,-3.197,-3.6010000000000004,-1.131,1.254,0.0,0.813,-3.14,-3.803,-1.075,1.073,0.0,0.593,-3.165,-4.66,-0.665,0.789,0.0,0.0,-3.1910000000000003,-5.66,0.0,0.848,0.0,0.0,-2.9619999999999997,-5.356,0.0,0.929,0.0,0.5770000000000001,-2.539,-4.38,0.0,0.907,0.0,0.585,-2.249,-4.253,0.0,0.84,0.0,0.0,-2.176,-4.552,0.0,0.53,0.616,0.0,-2.076,-4.601,0.0,0.0,0.65,0.0,-1.915,-4.879,0.0,-0.5660000000000001,0.537,0.0,-1.6159999999999999,-4.651,0.0,-0.8370000000000001,0.0,0.0,-1.245,-4.2860000000000005,0.0,-0.84,0.0,0.0,-0.985,-3.803,0.0,-0.836,0.0,0.0,-0.754,-2.951,0.0,-1.256,0.0,0.0,-0.51,-2.01,-0.97,-1.8459999999999999,0.0,0.0,0.0,-2.037,-1.05,-2.093,0.0,0.0,0.0,-1.781,0.0,-1.626,0.0,0.0,0.0,-0.915,0.0,-0.8540000000000001,0.0,0.0,0.0,0.0,0.0,0.0,0.0,0.0,0.0,0.569,-0.733,0.0,0.0,0.0,0.0,0.705,-0.915,0.0,0.0,0.0,0.0,0.0,0.0,0.0,0.0,0.0,0.0,0.0,0.0,0.0,0.0,0.0,0.0,0.0,0.0,0.0,0.0,0.0,0.0,0.0,0.0,0.0,0.0,0.0,0.0,0.0,-0.701,0.0,0.0,0.0,0.0,0.0,0.0,0.0,0.0,0.0,0.0,,,,,,,,,,,,,,,,,,,,,,,,,,,,,,,,,,,,,,,,,,,,,,,,,,,,,,,,,,,,,,,,,,,,,,,,,,,,,,,,,,,,,,,,,,,,,,,,,,,,,,,,,,,,,,,,,,,,,,,,,,,,,,,,,,,,,,,,,,,,,,,,,,,,,,,,,,,,,,,,,,,,,,,,,,,,,,,swingAndPointForward
accX,0.0,0.0,0.0,0.0,0.0,0.0,0.0,0.0,0.0,0.0,0.0,0.0,0.0,-0.633,0.0,0.0,0.0,0.0,0.0,0.0,0.0,0.0,0.0,0.0,0.772,-0.65,0.0,0.0,0.0,0.0,1.247,-0.9209999999999999,0.0,0.0,0.0,0.0,1.256,-1.278,0.0,0.0,0.0,-0.563,0.9229999999999999,-1.263,-0.508,0.0,0.0,-0.685,0.907,-1.3130000000000002,0.0,0.0,0.0,-0.7929999999999999,0.995,-1.3430000000000002,0.0,0.0,0.0,-0.894,1.1440000000000001,-1.486,0.0,0.0,0.0,-1.037,1.6059999999999999,-2.041,0.0,0.0,0.0,-1.254,1.501,-2.1919999999999997,0.0,0.0,0.0,-1.557,0.9690000000000001,-2.2430000000000003,0.0,0.0,0.0,-1.88,0.0,-2.194,-0.67,0.0,0.0,-1.999,0.847,-2.8710000000000004,-0.534,0.0,0.0,-2.101,0.9359999999999999,-3.1719999999999997,0.0,0.0,0.0,-2.307,0.8490000000000001,-2.8819999999999997,0.0,0.0,0.0,-2.5789999999999997,0.0,-2.5469999999999997,0.0,0.0,-0.504,-2.8810000000000002,0.0,-2.468,0.0,0.0,-0.638,-3.085,-0.804,-2.9389999999999996,0.0,0.0,0.0,-3.236,-0.897,-3.333,0.0,0.0,0.0,-3.432,-1.163,-3.1719999999999997,0.0,0.0,0.0,-3.727,-1.9,-2.52,0.0,0.0,0.0,-4.075,-3.141,-1.7730000000000001,0.0,0.0,0.0,-4.235,-4.016,-1.5090000000000001,0.63,0.0,0.0,-3.97,-3.7960000000000003,-1.82,0.0,0.0,0.0,-3.612,-4.039,-1.554,0.0,0.0,0.0,-3.41,-5.132000000000001,0.0,0.6509999999999999,0.0,0.0,-3.222,-5.585,0.0,0.919,0.0,0.511,-2.87,-5.2829999999999995,0.0,1.03,0.0,0.693,-2.523,-5.2170000000000005,0.0,0.956,0.0,0.731,-2.269,-5.006,0.0,0.609,0.0,0.631,-1.97,-4.268,0.0,0.0,0.0,0.0,-1.7280000000000002,-4.055,0.0,0.0,0.0,0.0,-1.584,-3.765,0.0,0.0,0.0,0.0,-1.4,-3.8339999999999996,0.0,-0.596,0.0,0.0,-1.16,-3.383,0.0,0.0,0.0,0.0,-0.8220000000000001,-2.6439999999999997,0.0,0.0,0.0,0.0,-0.693,-2.177,0.0,0.0,0.0,0.0,-0.568,-2.042,0.0,-0.738,0.0,0.0,0.0,-2.407,0.0,-0.836,0.0,0.0,0.0,-2.343,0.0,-0.8340000000000001,0.0,0.0,0.0,-1.507,0.0,-0.7809999999999999,0.0,0.0,0.0,-0.7440000000000001,-0.53,-0.649,0.0,0.0,0.0,0.0,-0.562,-0.5529999999999999,0.0,0.0,0.0,0.0,-0.794,-0.62,0.0,0.0,0.0,0.0,-0.848,-0.555,0.0,0.0,0.0,0.0,-0.634,0.0,0.0,0.0,0.0,0.0,0.0,0.0,0.0,0.0,0.0,0.0,0.0,0.0,0.0,0.0,0.0,0.0,0.0,0.0,0.0,0.0,0.0,0.0,-0.6709999999999999,0.0,0.0,0.0,0.0,0.0,0.0,0.0,0.0,0.0,0.0,,,,,,,,,,,,,,,,,,,,,,,,,,,,,,,,,,,,,,,,,,,,,,,,,,,,,,,,,,,,,,,,,,,,,,,,,,,,,,,,,,,,,,,,,,,,,,,,,,,,,,,,,,,,,,,,,,,,,,,,,,,,,,,,,,,,,,,,,,,,,,,,,,,,,,,,,,,,,swingAndPointForward
accX,-0.69,0.0,-0.8540000000000001,0.0,0.0,0.0,-1.0,0.0,-0.8270000000000001,0.0,0.0,0.0,-0.677,0.0,-0.5920000000000001,0.0,0.0,0.0,0.0,0.0,0.0,0.0,0.0,0.0,0.0,0.0,0.0,0.0,0.0,0.0,0.0,0.0,0.0,0.0,0.0,0.0,0.0,0.0,0.0,0.0,0.0,0.0,0.0,0.0,0.0,0.0,0.0,0.0,0.0,-0.722,0.0,0.0,0.0,0.0,0.573,-1.0290000000000001,0.0,0.0,0.0,0.0,0.633,-0.9670000000000001,0.0,0.0,0.0,0.0,0.853,-1.3359999999999999,-0.54,0.0,0.0,0.0,1.276,-1.882,-0.539,0.0,0.0,-0.5579999999999999,1.7819999999999998,-2.614,0.0,0.0,0.0,-0.745,2.126,-3.298,0.0,0.0,0.0,-1.046,2.234,-3.971,0.0,-0.501,0.0,-1.422,2.296,-3.545,0.55,-0.534,0.0,-1.8430000000000002,2.154,-3.855,0.0,0.0,0.0,-2.244,2.084,-4.544,-0.613,0.0,0.0,-2.5610000000000004,1.041,-4.492,0.0,-0.6,0.0,-2.872,0.5429999999999999,-3.8369999999999997,0.0,-0.746,0.0,-3.07,0.667,-3.457,0.972,-0.639,0.0,-3.304,0.0,-3.8810000000000002,0.0,0.0,0.0,-3.803,-1.095,-3.688,0.0,0.0,0.0,-4.003,-2.089,-2.753,0.0,0.0,0.0,-3.787,-2.441,-2.415,0.753,-0.645,0.0,-3.7119999999999997,-2.594,-2.165,0.9179999999999999,-0.7120000000000001,0.0,-3.7510000000000003,-3.483,-1.501,0.7020000000000001,-0.511,0.0,-3.845,-4.399,-1.1340000000000001,0.713,0.0,0.0,-3.7260000000000004,-5.106,-0.72,0.8240000000000001,0.0,0.0,-3.5269999999999997,-5.062,-0.516,1.038,0.0,0.7340000000000001,-3.0580000000000003,-4.534,-0.607,1.14,0.0,0.9059999999999999,-2.8989999999999996,-4.236000000000001,0.0,1.328,0.513,0.7609999999999999,-2.778,-4.32,0.0,1.347,0.89,0.0,-2.555,-4.742,0.0,0.731,1.136,0.0,-2.343,-5.183,0.0,0.0,1.018,0.0,-2.068,-5.257000000000001,0.0,-1.024,0.7240000000000001,0.0,-1.726,-4.796,0.0,-1.268,0.0,0.0,-1.3969999999999998,-3.775,0.0,-1.49,0.0,0.0,-1.137,-3.2319999999999998,0.0,-1.435,0.0,0.0,-0.905,-2.722,0.0,-1.632,0.0,0.0,-0.7190000000000001,-2.6,-0.696,-1.851,0.0,0.0,-0.541,-2.43,-0.569,-1.7209999999999999,0.0,0.0,0.0,-1.453,-0.638,-1.32,0.0,0.0,0.0,-0.9540000000000001,-0.525,-0.672,0.0,0.0,0.0,0.0,0.0,0.0,0.0,0.0,0.0,0.0,0.0,0.0,0.0,0.0,0.0,0.0,0.0,0.0,0.0,0.0,0.0,0.0,0.0,0.0,0.0,0.0,0.0,0.0,0.0,0.0,0.0,0.0,0.0,0.0,0.0,0.0,0.0,0.0,0.0,0.0,0.0,0.0,0.0,0.0,0.0,0.0,0.0,0.0,0.0,0.0,0.0,0.0,-0.787,0.0,0.0,0.0,0.0,0.0,0.0,0.0,0.0,0.0,0.0,0.0,0.0,0.0,0.0,0.0,0.0,0.0,0.0,0.0,0.0,0.0,0.0,0.0,0.0,0.0,0.0,0.0,0.0,,,,,,,,,,,,,,,,,,,,,,,,,,,,,,,,,,,,,,,,,,,,,,,,,,,,,,,,,,,,,,,,,,,,,,,,,,,,,,,,,,,,,,,,,,,,,,,,,,,,,,,,,,,,,,,,,,,,,,,,,,,,,,,,,,,,,swingAndPointForward
accX,-0.544,0.0,0.0,0.0,0.0,0.0,-0.547,0.0,0.0,0.0,0.0,0.0,0.0,0.0,0.0,0.0,0.0,0.0,0.0,0.0,0.0,0.0,0.0,0.0,0.0,-0.542,0.0,0.0,0.0,0.0,0.812,-0.835,0.0,0.0,0.0,0.0,1.074,-0.9590000000000001,0.0,0.0,0.0,0.0,1.525,-1.2670000000000001,0.0,0.0,0.0,0.0,1.92,-1.6969999999999998,-0.601,0.0,0.0,0.0,2.4330000000000003,-2.6210000000000004,-0.838,0.0,0.0,-0.608,2.7969999999999997,-3.275,-1.01,0.0,0.0,-0.907,3.141,-4.12,-1.043,0.0,0.0,-1.2309999999999999,3.5210000000000004,-4.6419999999999995,-0.7490000000000001,-0.522,0.0,-1.577,3.415,-4.556,0.0,-0.526,0.0,-2.0180000000000002,2.9789999999999996,-4.94,0.0,0.0,0.0,-2.532,2.334,-5.27,0.0,0.0,0.0,-2.9610000000000003,1.679,-5.192,0.0,-0.633,0.0,-3.304,1.091,-4.656000000000001,0.0,-0.6779999999999999,0.0,-3.557,0.653,-4.644,0.0,-0.631,0.0,-3.779,0.0,-4.101,0.0,-0.584,0.0,-4.01,-1.486,-3.3160000000000003,0.0,0.0,0.0,-4.265,-3.159,-2.379,0.0,0.0,0.0,-4.225,-4.359,-2.126,0.0,0.0,0.0,-3.781,-4.62,-1.9040000000000001,0.861,0.0,0.8009999999999999,-3.5580000000000003,-4.545,-1.3719999999999999,1.357,0.0,0.8009999999999999,-3.406,-4.72,-0.907,1.3019999999999998,0.0,0.5770000000000001,-3.3160000000000003,-5.575,0.0,1.1520000000000001,0.0,0.0,-3.057,-6.004,0.0,0.9940000000000001,0.0,0.5870000000000001,-2.6489999999999996,-5.9479999999999995,0.0,1.006,0.0,0.7559999999999999,-2.265,-5.359,0.0,0.991,0.0,0.768,-2.006,-4.747,0.0,0.745,0.687,0.585,-1.771,-4.22,0.0,0.0,0.958,0.0,-1.5519999999999998,-3.3689999999999998,0.0,0.0,1.092,0.0,-1.3659999999999999,-3.36,-0.7959999999999999,-1.496,0.75,0.0,-1.298,-4.121,0.0,-2.006,0.0,0.0,-1.016,-3.74,0.0,-2.052,0.0,0.0,-0.69,-2.6910000000000003,0.0,-1.6740000000000002,0.0,0.0,-0.503,-1.9409999999999998,0.0,-1.5130000000000001,0.0,0.0,0.0,-1.1909999999999998,-0.762,-1.5719999999999998,0.0,0.0,0.0,-0.96,-0.8290000000000001,-1.49,0.0,0.0,0.0,-1.016,-0.55,-1.186,0.0,0.0,0.0,-0.615,0.0,-0.795,0.0,0.0,0.0,0.0,0.0,0.0,0.0,0.0,0.0,0.0,0.0,0.0,0.0,0.0,0.0,0.0,0.0,0.0,0.0,0.0,0.0,0.0,0.0,0.0,0.0,0.0,0.0,0.0,0.0,0.0,0.0,0.0,0.0,0.0,0.0,0.0,0.0,0.0,0.0,0.0,0.0,0.0,0.0,0.0,0.0,0.0,0.0,0.0,0.0,0.0,0.0,0.0,0.0,0.0,0.0,0.0,0.0,0.0,0.0,0.0,0.0,0.0,0.0,0.0,0.0,0.0,0.0,0.0,0.0,0.0,0.0,0.0,0.0,0.0,0.0,0.0,0.0,0.0,0.0,0.0,0.0,0.0,0.0,0.0,0.0,0.0,0.0,0.0,0.0,0.0,0.0,0.0,0.0,0.0,0.0,0.0,0.0,0.0,0.0,0.0,0.0,0.0,0.0,0.0,0.0,0.0,0.0,0.0,0.0,0.0,0.0,0.0,0.0,0.0,0.0,0.0,0.0,0.0,0.0,0.0,0.0,0.0,0.0,-0.794,0.0,0.0,0.0,0.0,0.0,-0.807,0.0,0.0,0.0,0.511,0.0,-0.897,0.0,0.568,0.0,0.606,0.0,-1.733,0.7659999999999999,0.8590000000000001,0.0,0.607,0.602,,,,,,,,,,,,,,,,,,,,,,,,,,,,,,,,,,,,,,,,,,,,,,,,,,,,,,,,,,,,,,,,,,,,,,,,,,,,,,,,,,,,,swingAndPointForward
accX,0.0,0.0,0.0,0.0,0.0,0.0,0.0,0.0,0.0,0.0,0.0,0.0,0.0,0.0,0.0,0.0,0.0,0.0,0.0,-0.7909999999999999,-0.51,0.0,0.0,0.0,0.0,-1.014,-0.659,0.0,0.0,0.0,0.632,-1.23,-0.6970000000000001,0.0,0.0,0.0,1.207,-1.485,-0.534,-0.527,0.0,-0.585,1.5390000000000001,-1.963,0.0,-0.512,0.0,-0.8140000000000001,1.526,-2.314,-0.696,-0.531,0.0,-1.061,1.4809999999999999,-2.274,-0.755,-0.539,0.0,-1.276,1.431,-2.457,-0.607,0.0,0.0,-1.4809999999999999,1.371,-2.9960000000000004,-0.647,-0.51,0.0,-1.6909999999999998,1.4680000000000002,-3.225,-0.513,-0.5820000000000001,0.0,-1.899,1.7180000000000002,-3.448,0.0,-0.58,0.0,-2.1790000000000003,1.5590000000000002,-3.54,0.0,-0.51,0.0,-2.572,1.2009999999999998,-3.5869999999999997,0.0,0.0,0.0,-2.9019999999999997,0.66,-3.498,0.0,0.0,0.0,-3.116,0.0,-3.895,0.0,0.0,0.0,-3.372,0.0,-3.5669999999999997,0.0,0.0,0.0,-3.5580000000000003,-0.6729999999999999,-3.036,0.904,0.0,0.0,-3.778,-1.389,-2.573,1.053,0.0,0.0,-3.94,-2.157,-2.388,0.956,0.0,0.0,-3.775,-2.9330000000000003,-2.17,1.17,0.0,0.0,-3.6689999999999996,-3.4139999999999997,-2.009,1.271,0.0,0.0,-3.517,-3.701,-1.692,1.358,0.0,0.0,-3.5,-4.17,0.0,1.284,0.643,0.0,-3.534,-4.968999999999999,0.0,0.7609999999999999,0.946,0.0,-3.278,-5.572,0.0,0.0,0.932,0.0,-2.773,-5.756,0.0,0.731,0.515,0.7040000000000001,-2.191,-4.486000000000001,0.557,1.077,0.0,0.6629999999999999,-1.8980000000000001,-3.985,0.513,0.708,0.696,0.0,-1.732,-4.103,0.0,0.0,0.9279999999999999,0.0,-1.604,-4.435,0.0,-1.536,0.858,0.0,-1.382,-4.0280000000000005,0.0,-1.892,0.0,0.0,-0.995,-2.7569999999999997,0.0,-1.357,0.0,0.0,-0.56,-1.817,0.0,-0.6409999999999999,0.0,0.0,0.0,-1.6880000000000002,-0.595,-0.615,0.0,0.0,0.0,-1.5119999999999998,-0.691,-0.696,0.0,0.0,0.0,-1.079,-1.046,-0.8370000000000001,0.0,0.0,0.0,-0.7859999999999999,-1.058,-0.898,0.0,0.0,0.0,-0.877,0.0,-0.655,0.0,0.0,0.0,-0.735,0.0,-0.525,0.0,0.0,0.0,-0.652,0.0,0.0,0.0,0.0,0.0,0.0,0.0,0.0,0.0,0.0,0.0,0.0,0.0,0.0,0.0,0.0,0.0,0.0,0.0,-0.52,0.0,0.0,0.0,0.0,0.0,0.0,0.0,0.0,0.0,0.0,0.0,0.0,0.0,0.0,0.0,0.0,0.0,0.0,0.0,0.0,0.0,0.0,0.0,0.0,0.0,0.0,0.0,0.0,0.0,0.0,0.0,0.0,0.0,0.0,0.0,0.0,0.0,0.0,0.0,0.0,0.0,0.0,0.0,0.0,0.0,0.0,0.0,0.0,0.0,0.0,0.0,0.0,0.0,0.0,0.0,0.0,0.0,0.0,0.0,0.0,0.0,0.0,0.0,0.0,0.0,0.0,0.0,0.0,0.0,0.523,0.0,0.0,0.0,0.0,0.0,,,,,,,,,,,,,,,,,,,,,,,,,,,,,,,,,,,,,,,,,,,,,,,,,,,,,,,,,,,,,,,,,,,,,,,,,,,,,,,,,,,,,,,,,,,,,,,,,,,,,,,,,,,,,,,,,,,,,,,,,,,,,,,,,,,,,swingAndPointForward
accX,0.0,0.0,0.0,0.0,0.0,0.0,0.0,-0.622,-0.557,0.0,0.0,0.0,0.0,-0.764,-0.655,0.0,0.0,0.0,0.0,-0.7609999999999999,-0.6679999999999999,0.0,0.0,0.0,0.852,-1.101,0.0,0.0,0.0,0.0,1.425,-1.327,0.0,0.0,0.0,0.0,1.7790000000000001,-1.636,0.0,0.0,0.0,-0.561,1.831,-2.125,0.0,0.0,0.0,-0.828,1.588,-2.29,-0.507,0.0,0.0,-1.056,1.55,-2.845,-0.703,0.0,0.0,-1.249,1.643,-3.286,0.0,-0.626,0.0,-1.412,1.751,-2.907,0.0,-0.691,0.0,-1.6340000000000001,1.618,-2.741,0.0,-0.659,0.0,-1.885,1.227,-3.168,0.0,-0.659,0.0,-2.059,1.109,-3.575,0.525,-0.6579999999999999,0.0,-2.289,1.074,-3.5069999999999997,0.726,-0.545,0.0,-2.728,0.0,-3.11,0.732,0.0,0.0,-2.949,0.0,-2.5540000000000003,1.2329999999999999,0.0,0.0,-3.083,-0.748,-2.369,1.391,-0.507,0.0,-3.182,-1.1440000000000001,-2.0180000000000002,1.206,-0.519,0.0,-3.26,-2.006,-1.919,0.754,0.0,0.0,-3.365,-2.801,-1.632,0.522,0.0,0.0,-3.365,-3.0260000000000002,-1.5630000000000002,0.0,0.0,0.0,-3.252,-3.591,-0.698,0.613,0.0,0.0,-3.094,-3.38,-0.5579999999999999,0.638,0.0,0.0,-2.926,-3.62,0.0,0.581,0.0,0.0,-2.8160000000000003,-3.8560000000000003,0.0,0.0,0.0,0.0,-2.75,-3.967,0.0,0.0,0.0,0.0,-2.595,-4.186,0.0,0.0,0.0,0.0,-2.364,-4.215,0.0,0.0,0.0,0.51,-2.095,-3.5989999999999998,0.0,0.0,0.0,0.682,-1.896,-2.717,0.0,0.0,0.0,0.55,-1.7790000000000001,-2.78,0.0,-0.525,0.0,0.0,-1.6909999999999998,-2.958,0.0,-0.885,0.0,0.0,-1.4980000000000002,-3.464,0.0,-1.149,0.0,0.0,-1.354,-3.299,0.0,-1.3,0.0,0.0,-1.1159999999999999,-2.658,0.0,-1.193,0.0,0.0,-0.982,-2.057,0.0,-0.99,0.0,0.0,-0.888,-2.116,0.0,-0.895,0.0,0.0,-0.789,-2.1430000000000002,0.0,-1.11,0.0,0.0,0.0,-2.224,0.0,-1.15,0.0,0.0,0.0,-1.6580000000000001,0.0,-0.971,0.0,0.0,0.0,-0.815,0.0,0.0,0.0,0.0,0.0,0.0,0.0,0.0,0.0,0.0,0.0,0.0,0.0,0.0,0.0,0.0,0.0,0.0,0.0,0.0,0.0,0.0,0.0,0.0,0.0,0.0,0.0,0.0,0.0,0.0,0.0,0.0,0.0,0.0,0.0,0.0,0.0,0.525,0.0,0.0,0.0,0.5489999999999999,0.0,0.0,0.0,0.0,0.0,0.0,0.0,0.0,0.0,0.0,0.0,0.0,0.0,0.0,0.0,0.0,0.0,0.0,0.0,-0.644,0.0,0.0,0.0,0.0,0.0,0.0,0.0,0.0,0.0,0.0,0.0,0.0,0.0,0.0,0.0,,,,,,,,,,,,,,,,,,,,,,,,,,,,,,,,,,,,,,,,,,,,,,,,,,,,,,,,,,,,,,,,,,,,,,,,,,,,,,,,,,,,,,,,,,,,,,,,,,,,,,,,,,,,,,,,,,,,,,,,,,,,,,,,,,,,,,,,,,,,,,,,,,,,,,,swingAndPointForward
accX,0.0,0.0,0.0,0.0,0.0,0.0,0.0,0.0,0.0,0.0,0.0,0.0,-0.742,0.0,-0.6679999999999999,0.0,0.0,0.0,-0.863,0.0,-0.642,0.0,0.0,0.0,0.0,0.0,0.0,0.0,0.0,0.0,0.0,0.0,0.0,0.0,0.0,0.0,0.0,0.0,0.0,0.0,0.0,0.0,0.0,0.0,0.0,0.0,0.0,0.0,0.0,0.0,0.0,0.0,0.0,0.0,0.0,0.0,0.0,0.0,0.0,0.0,0.5920000000000001,-0.723,0.0,0.0,0.0,0.0,1.119,-1.443,0.0,0.0,0.0,0.0,1.599,-1.933,0.0,0.0,0.0,-0.638,1.8,-2.128,0.0,0.0,0.0,-0.882,1.886,-2.114,0.0,0.0,0.0,-1.26,1.587,-3.108,-1.208,0.0,0.0,-1.4480000000000002,1.92,-3.793,-1.068,0.0,0.0,-1.715,2.316,-3.972,0.0,-0.507,0.0,-2.0469999999999997,2.057,-3.608,0.0,0.0,0.0,-2.48,1.558,-3.576,0.0,0.0,0.0,-2.964,1.008,-4.3389999999999995,0.0,0.0,0.0,-3.4810000000000003,0.0,-4.345,0.0,0.0,0.0,-3.84,0.0,-3.804,0.706,0.0,0.0,-4.1,0.0,-3.603,1.014,0.0,0.0,-4.2,-1.216,-2.655,1.008,0.0,0.0,-4.216,-2.31,-2.537,0.843,0.0,-0.621,-4.196000000000001,-3.2119999999999997,-2.565,0.816,0.0,-0.927,-4.039,-4.247,-2.094,1.08,-0.563,-0.769,-3.9160000000000004,-4.5089999999999995,-1.81,1.173,-0.511,0.0,-3.728,-4.678,-1.393,1.19,0.0,0.0,-3.418,-5.295,-1.159,1.1159999999999999,0.0,0.0,-3.238,-6.35,0.0,0.627,0.0,0.637,-3.193,-6.97,0.0,0.0,0.698,0.7340000000000001,-2.8819999999999997,-6.345,0.0,0.0,0.9520000000000001,0.638,-2.4219999999999997,-5.4079999999999995,0.0,0.0,0.978,0.0,-2.1519999999999997,-5.294,0.0,-0.669,0.708,0.0,-1.761,-4.735,0.0,-0.74,0.0,0.0,-1.3119999999999998,-3.654,0.0,-0.768,0.0,0.0,-0.927,-2.877,0.0,-0.723,0.0,0.0,-0.626,-2.15,0.0,-0.9329999999999999,0.0,0.0,0.0,-1.686,-0.732,-1.082,0.0,0.0,0.0,-1.236,-0.72,-0.9520000000000001,0.0,0.0,0.0,-0.924,-0.601,-0.631,0.0,0.0,0.0,-0.531,-0.618,-0.511,0.0,0.0,0.0,-0.574,0.0,0.0,0.0,0.0,0.0,-0.9620000000000001,0.0,0.0,0.0,0.0,0.0,-0.8190000000000001,0.0,0.0,0.0,0.0,0.0,-0.523,0.0,0.0,0.0,0.0,0.0,0.0,-0.506,0.0,0.0,0.0,0.0,0.0,0.0,0.0,0.0,0.0,0.0,0.0,0.0,0.0,0.0,0.0,0.0,0.0,0.0,0.0,0.0,0.0,0.0,0.0,-0.53,0.0,0.0,0.0,0.0,0.0,0.0,0.0,0.0,0.0,0.0,0.0,-0.596,0.0,0.0,0.0,0.0,0.0,-0.508,0.0,0.0,0.0,0.0,0.0,0.0,0.0,0.0,0.0,0.0,0.0,0.0,0.0,0.0,0.0,0.0,0.0,0.0,0.0,0.0,0.0,0.0,,,,,,,,,,,,,,,,,,,,,,,,,,,,,,,,,,,,,,,,,,,,,,,,,,,,,,,,,,,,,,,,,,,,,,,,,,,,,,,,,,,,,,,,,,,,,,,,,,,,,,,,,,,,,,,,,,,,,,,,,,,,,,,swingAndPointForward
accX,0.0,0.0,-0.617,0.0,0.0,0.0,0.5379999999999999,-0.5710000000000001,-0.574,0.0,0.0,0.0,0.672,-1.169,-0.6559999999999999,0.0,0.0,0.0,0.6829999999999999,-1.17,-0.6779999999999999,0.0,0.0,0.0,0.754,-1.1159999999999999,-0.552,0.0,0.0,0.0,1.082,-1.273,0.0,0.0,0.0,-0.536,1.3980000000000001,-1.8219999999999998,0.0,0.0,0.0,-0.6829999999999999,1.71,-2.472,0.0,0.0,0.0,-0.852,1.671,-2.825,0.0,0.0,0.0,-1.122,1.286,-2.438,0.0,0.0,0.0,-1.386,0.77,-2.324,0.0,0.0,0.0,-1.5959999999999999,0.0,-2.541,0.0,0.0,0.0,-1.755,0.0,-2.7439999999999998,0.0,0.0,0.0,-1.912,0.815,-2.964,0.0,-0.557,0.0,-2.042,0.818,-2.866,0.653,-0.579,0.0,-2.301,0.758,-2.682,0.715,0.0,0.0,-2.519,0.0,-2.963,0.5770000000000001,0.0,-0.557,-2.745,-0.525,-2.8110000000000004,0.0,0.0,-0.53,-2.9810000000000003,-0.605,-2.8169999999999997,0.0,0.0,0.0,-3.0460000000000003,-0.53,-2.8280000000000003,0.0,0.0,0.0,-3.18,-0.6459999999999999,-3.19,0.0,0.0,0.0,-3.424,-1.6280000000000001,-2.401,0.0,0.0,0.0,-3.495,-2.173,-2.1109999999999998,0.0,-0.667,0.0,-3.489,-2.977,-1.5319999999999998,0.0,-0.868,0.0,-3.517,-3.116,-1.22,0.0,-0.843,0.0,-3.395,-3.6839999999999997,0.0,1.0,0.0,0.5589999999999999,-3.177,-4.069,0.0,1.4140000000000001,0.0,0.828,-2.96,-3.948,0.0,1.595,0.0,0.9,-2.7489999999999997,-3.715,-0.556,1.465,0.0,0.799,-2.7239999999999998,-4.723,0.0,1.368,0.0,0.96,-2.5610000000000004,-4.768,0.552,1.103,0.591,1.051,-2.173,-4.1419999999999995,0.0,0.5820000000000001,0.789,0.807,-1.864,-4.17,0.0,0.0,0.784,0.0,-1.74,-5.176,0.708,-0.7509999999999999,0.747,0.0,-1.4669999999999999,-5.482,0.0,-1.5719999999999998,0.627,0.0,-1.158,-5.705,0.6890000000000001,-2.004,0.0,0.516,-0.772,-5.172000000000001,0.69,-1.9669999999999999,0.0,0.532,0.0,-3.8989999999999996,0.0,-1.829,0.0,0.0,0.0,-2.861,0.0,-1.903,0.0,0.0,0.0,-2.1959999999999997,0.0,-1.618,0.0,0.0,0.0,-1.508,0.0,-1.3419999999999999,0.0,0.0,0.0,-0.654,-0.527,-1.001,0.0,0.0,0.0,0.0,-0.527,-0.513,0.0,0.0,0.0,0.0,0.0,0.0,0.0,0.0,0.0,0.0,0.0,0.0,0.0,0.0,0.0,0.0,-0.6709999999999999,0.0,0.0,0.0,0.0,0.0,0.0,0.0,0.0,0.0,0.0,0.0,0.0,0.0,0.0,0.0,0.0,0.0,0.0,0.0,0.0,0.0,0.0,0.0,0.0,0.0,0.0,0.0,0.0,,,,,,,,,,,,,,,,,,,,,,,,,,,,,,,,,,,,,,,,,,,,,,,,,,,,,,,,,,,,,,,,,,,,,,,,,,,,,,,,,,,,,,,,,,,,,,,,,,,,,,,,,,,,,,,,,,,,,,,,,,,,,,,,,,,,,,,,,,,,,,,,,,,,,,,,,,,,,,,,,,,,,,,,,,,,,,,,,,,,,swingAndPointForward
accX,0.0,0.0,0.0,0.0,0.0,0.0,0.0,0.0,0.0,0.0,0.0,0.0,0.0,0.0,0.0,0.0,0.0,0.0,0.0,0.0,0.0,0.0,0.0,0.0,0.5539999999999999,-0.561,0.0,0.0,0.0,0.0,1.1079999999999999,-0.8220000000000001,0.0,0.0,0.0,0.0,1.268,-1.27,0.0,0.0,0.0,0.0,1.094,-1.004,0.0,0.0,0.0,-0.568,0.0,-0.642,0.0,0.0,0.0,-0.6920000000000001,0.0,0.0,-0.564,0.0,0.0,-0.7140000000000001,0.0,-0.797,-0.504,0.0,0.0,-0.706,0.624,-1.389,0.0,0.0,0.0,-0.728,1.189,-1.643,0.0,0.0,0.0,-0.877,1.212,-1.642,0.0,0.0,0.0,-1.1179999999999999,0.555,-1.175,0.0,0.0,0.0,-1.3090000000000002,0.0,-1.496,0.0,0.0,0.0,-1.4140000000000001,0.0,-1.7919999999999998,0.0,0.0,0.0,-1.565,0.937,-2.151,0.0,0.0,0.0,-1.7630000000000001,1.46,-2.282,0.6659999999999999,0.0,0.0,-2.0540000000000003,1.4240000000000002,-2.38,0.507,0.0,0.0,-2.3209999999999997,1.147,-2.8,0.0,0.0,-0.619,-2.569,0.927,-2.804,0.0,0.0,-0.738,-2.7539999999999996,0.522,-2.967,0.0,0.0,-0.6509999999999999,-2.963,0.0,-2.551,0.0,0.0,0.0,-3.071,-0.83,-1.749,0.0,0.0,0.0,-3.208,-1.355,-1.87,-0.838,0.0,0.0,-3.307,-1.8130000000000002,-2.193,-1.194,0.0,0.0,-3.303,-2.496,-1.855,-0.882,0.0,0.0,-3.303,-3.252,-1.1059999999999999,0.0,-0.5539999999999999,0.0,-3.135,-3.178,-0.8440000000000001,0.507,-0.5579999999999999,0.527,-3.0060000000000002,-3.697,0.0,0.861,0.0,0.0,-2.9330000000000003,-4.327,0.0,0.895,0.0,0.0,-2.847,-5.209,0.0,1.153,0.0,0.629,-2.6489999999999996,-5.031000000000001,0.639,1.193,0.0,0.7859999999999999,-2.416,-4.637,0.638,1.175,0.0,0.6409999999999999,-2.193,-3.992,0.0,0.537,0.0,0.0,-1.9680000000000002,-4.439,0.0,0.0,0.0,0.0,-1.87,-4.992,0.5870000000000001,0.0,0.0,0.0,-1.713,-5.122000000000001,0.986,-0.917,0.0,0.0,-1.361,-4.738,1.1420000000000001,-0.813,0.5710000000000001,0.0,-0.94,-4.187,0.0,-1.037,0.0,0.0,-0.769,-4.263,0.0,-1.382,0.0,0.0,0.0,-1.984,0.0,-0.6729999999999999,0.0,0.0,0.0,-1.251,0.0,0.0,0.0,0.0,0.0,-0.9259999999999999,0.0,0.0,0.0,0.0,0.0,-0.6659999999999999,-0.6859999999999999,0.0,0.0,0.0,0.0,0.0,-0.775,0.0,0.0,0.0,0.0,0.0,-0.586,0.0,0.0,0.0,0.0,0.0,0.0,0.0,0.0,0.0,0.0,0.0,0.0,0.0,0.0,0.0,0.0,0.0,0.0,0.0,0.0,0.0,0.0,0.0,0.0,0.0,0.0,0.0,0.0,0.0,0.0,0.0,0.0,0.0,0.0,0.0,0.0,0.0,0.0,0.0,0.0,0.0,0.0,0.0,0.0,0.0,0.0,,,,,,,,,,,,,,,,,,,,,,,,,,,,,,,,,,,,,,,,,,,,,,,,,,,,,,,,,,,,,,,,,,,,,,,,,,,,,,,,,,,,,,,,,,,,,,,,,,,,,,,,,,,,,,,,,,,,,,,,,,,,,,,,,,,,,,,,,,,,,,,,,,,,,,,swingAndPointForward
accX,0.0,0.0,0.0,0.0,0.0,0.0,0.0,0.0,0.0,0.0,0.0,0.0,0.0,0.0,0.0,0.0,0.0,0.0,0.0,0.0,0.0,0.0,0.0,0.0,0.0,0.0,0.0,0.0,0.0,0.0,0.0,0.0,0.0,0.0,0.0,0.0,0.0,0.0,0.0,0.0,0.0,0.0,0.79,-0.8390000000000001,0.0,0.0,0.0,0.0,1.1159999999999999,-1.4980000000000002,0.0,0.0,0.0,0.0,1.4880000000000002,-1.8619999999999999,-0.639,0.0,0.0,0.0,1.844,-2.186,-0.805,0.0,0.0,-0.568,2.276,-2.597,-0.8140000000000001,0.0,0.0,-0.792,2.489,-3.0810000000000004,-0.7140000000000001,0.0,0.0,-1.037,2.855,-4.0889999999999995,-0.774,0.0,0.0,-1.329,3.438,-5.031000000000001,-0.5539999999999999,0.0,0.0,-1.755,3.597,-5.718999999999999,0.0,0.0,0.0,-2.218,3.727,-5.457999999999999,0.8109999999999999,-0.507,0.0,-2.7110000000000003,3.2510000000000003,-5.249,1.1440000000000001,0.0,0.0,-3.112,2.4,-5.331,1.2409999999999999,0.0,-0.563,-3.45,1.2830000000000001,-5.308,1.401,-0.615,-0.5579999999999999,-3.6710000000000003,0.69,-4.955,1.646,-0.64,-0.599,-3.906,-0.506,-4.119,1.6569999999999998,-0.544,-0.612,-4.133,-2.221,-2.763,1.757,0.0,-0.519,-4.103,-3.405,-2.177,1.7009999999999998,0.0,0.0,-3.887,-3.966,-2.012,1.6280000000000001,0.0,0.0,-3.7689999999999997,-4.238,-1.665,1.39,0.0,0.0,-3.5989999999999998,-4.476,-0.88,1.2890000000000001,0.0,0.0,-3.432,-4.947,0.0,0.885,0.0,0.0,-3.241,-5.156000000000001,0.0,0.0,0.552,0.0,-2.965,-5.1160000000000005,0.0,0.0,0.568,0.0,-2.694,-4.883,0.0,-0.708,0.0,0.0,-2.327,-4.444,0.0,-1.518,0.0,0.0,-2.052,-4.218,0.0,-1.93,0.0,0.0,-1.86,-4.796,0.0,-2.146,0.0,0.0,-1.64,-4.7219999999999995,0.0,-2.25,0.0,0.5489999999999999,-1.3530000000000002,-4.444,0.0,-2.109,0.0,0.674,-1.02,-3.966,0.0,-1.665,0.0,0.687,-0.71,-3.2560000000000002,0.503,-1.109,0.0,0.584,-0.508,-2.614,0.0,-0.8809999999999999,0.0,0.0,0.0,-2.2159999999999997,0.0,0.0,0.0,0.0,0.0,-1.541,0.0,0.0,0.0,0.0,0.0,-0.614,0.0,0.695,0.0,0.0,0.0,0.0,0.0,0.986,0.0,0.0,0.0,0.0,-0.616,0.0,0.691,0.0,0.0,0.0,-0.995,0.0,0.56,0.0,0.0,0.0,-0.632,0.0,0.0,0.0,0.0,0.927,-0.8059999999999999,0.0,0.0,0.0,0.0,0.9209999999999999,-0.862,0.0,0.0,0.0,0.0,0.0,-0.639,0.0,0.0,0.0,0.0,0.0,0.0,0.0,0.0,0.0,0.0,0.0,0.0,0.0,0.0,0.0,0.0,,,,,,,,,,,,,,,,,,,,,,,,,,,,,,,,,,,,,,,,,,,,,,,,,,,,,,,,,,,,,,,,,,,,,,,,,,,,,,,,,,,,,,,,,,,,,,,,,,,,,,,,,,,,,,,,,,,,,,,,,,,,,,,,,,,,,,,,,,,,,,,,,,,,,,,,,,,,,,,,,,,,,,,,,,,,,,,swingAndPointForward
accX,0.0,0.0,0.0,0.0,0.0,0.0,0.0,0.0,0.0,0.0,0.0,0.0,0.0,0.0,0.0,0.0,0.0,0.0,0.0,0.0,0.0,0.0,0.0,0.0,0.0,0.0,0.0,0.0,0.0,0.0,0.0,0.0,0.0,0.0,0.0,0.0,0.0,0.0,0.0,0.0,0.0,0.0,0.0,0.0,0.0,0.0,0.0,0.0,0.0,-0.551,0.0,0.0,0.0,0.0,0.0,-0.629,0.0,0.0,0.0,0.0,0.0,-0.812,0.0,0.0,0.0,0.0,0.5529999999999999,-1.288,0.0,0.0,0.0,0.0,0.0,-1.11,0.0,0.0,0.0,-0.519,0.758,-1.3869999999999998,-0.551,0.0,0.0,-0.594,1.218,-1.879,-0.5870000000000001,-0.546,0.0,-0.722,1.5930000000000002,-2.285,0.0,-0.613,0.0,-0.973,1.8019999999999998,-3.09,0.0,-0.589,0.0,-1.193,1.982,-3.22,0.0,0.0,0.0,-1.489,2.315,-3.4419999999999997,0.0,0.0,0.0,-1.875,2.488,-3.6489999999999996,0.0,0.0,0.0,-2.252,2.708,-4.059,0.0,0.0,0.0,-2.596,2.3369999999999997,-5.0680000000000005,0.0,-0.506,0.0,-2.9019999999999997,1.278,-4.4030000000000005,0.0,-0.623,0.0,-3.347,0.0,-2.695,1.131,0.0,0.0,-3.6319999999999997,-0.9840000000000001,-2.7769999999999997,0.649,0.0,0.0,-3.952,-2.175,-2.648,0.611,0.0,0.0,-3.844,-3.052,-2.178,1.165,0.0,0.0,-3.65,-3.51,-2.0540000000000003,1.1840000000000002,0.0,0.0,-3.549,-4.548,-1.251,1.058,-0.513,0.0,-3.515,-5.766,0.0,1.024,0.0,0.0,-3.359,-5.992000000000001,0.0,0.904,0.0,0.0,-3.073,-6.057,0.0,0.858,0.0,0.706,-2.7430000000000003,-5.556,0.0,1.008,0.0,0.946,-2.391,-5.17,0.0,0.879,0.0,0.922,-2.1390000000000002,-4.525,0.0,0.0,0.0,0.65,-1.901,-4.474,0.0,-0.502,0.0,0.0,-1.7,-4.181,0.0,-1.24,0.0,0.0,-1.4909999999999999,-3.952,0.0,-1.5619999999999998,0.0,0.0,-1.285,-3.69,0.0,-1.536,0.0,0.0,-1.097,-3.698,0.0,-1.306,0.0,0.0,-0.932,-3.44,0.0,-1.327,0.0,0.0,-0.748,-2.747,0.0,-1.453,0.0,0.0,-0.603,-2.3,0.0,-1.494,0.0,0.0,0.0,-1.883,0.0,-1.412,0.0,0.0,0.0,-1.516,0.0,-1.091,0.0,0.0,0.0,-0.96,0.0,-0.925,0.0,0.0,0.0,-0.772,0.0,-0.624,0.0,0.0,0.0,-0.525,-0.524,-0.534,0.0,0.0,0.0,0.0,-0.583,0.0,0.0,0.0,0.0,0.0,0.0,0.0,0.0,0.0,0.0,0.0,0.0,0.0,0.0,0.0,0.0,0.0,0.0,0.0,0.0,0.0,0.0,0.0,0.0,0.0,0.0,0.0,0.0,0.0,0.0,0.0,0.0,0.0,0.0,0.0,0.0,0.0,0.0,0.0,0.0,0.0,0.0,0.0,0.0,0.0,0.0,0.0,0.0,0.0,0.0,0.0,0.0,0.0,0.0,0.0,0.0,0.0,0.0,0.0,0.0,0.0,0.0,0.0,0.0,0.0,0.0,0.0,0.0,0.0,0.0,0.0,0.0,0.0,0.0,0.0,0.0,,,,,,,,,,,,,,,,,,,,,,,,,,,,,,,,,,,,,,,,,,,,,,,,,,,,,,,,,,,,,,,,,,,,,,,,,,,,,,,,,,,,,,,,,,,,,,,,,,,,,,,,,,,,,,,,,,,swingAndPointForward
accX,0.0,0.0,0.0,0.0,0.0,0.0,0.0,0.0,-0.518,0.0,0.0,0.0,0.0,0.0,-0.775,0.0,0.0,0.0,0.0,0.0,0.0,-0.545,0.0,0.0,0.0,0.0,0.0,0.0,0.0,0.0,0.0,0.0,0.0,0.0,0.0,0.0,0.0,0.0,0.0,0.0,0.0,0.0,0.584,-0.5920000000000001,0.0,0.0,0.0,0.0,0.5760000000000001,-0.674,0.0,0.0,0.0,0.0,0.5770000000000001,-0.893,-0.815,0.0,0.0,0.0,1.112,-1.17,-0.9079999999999999,0.0,0.0,0.0,1.608,-1.742,-0.915,0.0,0.0,-0.518,1.923,-2.208,-0.836,0.0,0.0,-0.735,2.396,-2.78,-0.746,0.0,0.0,-0.982,2.838,-3.863,-0.809,0.0,0.0,-1.254,3.162,-4.336,-0.611,0.0,0.0,-1.61,3.245,-4.763999999999999,0.0,0.0,0.0,-2.108,2.658,-5.01,0.0,0.0,0.0,-2.6010000000000004,1.695,-5.042,0.0,0.0,0.0,-2.9810000000000003,1.48,-5.852,-0.58,0.0,0.0,-3.318,0.6759999999999999,-5.125,0.0,-0.607,0.0,-3.65,0.0,-4.468,0.846,-0.604,0.0,-3.965,-0.812,-4.407,0.835,0.0,0.0,-4.3469999999999995,-2.492,-3.397,0.9740000000000001,0.0,0.0,-4.48,-4.258,-2.6260000000000003,0.7559999999999999,0.0,0.0,-4.238,-4.865,-2.025,1.042,0.0,0.0,-3.967,-5.218999999999999,-1.466,1.402,0.0,0.544,-3.7119999999999997,-5.205,-1.03,1.617,0.0,0.613,-3.4389999999999996,-5.401,0.0,1.505,0.0,0.0,-3.1519999999999997,-6.281000000000001,0.0,1.171,0.0,0.517,-2.878,-6.782,0.634,0.8759999999999999,0.0,0.81,-2.481,-6.436,0.902,0.9390000000000001,0.545,1.065,-2.055,-5.524,0.594,0.746,0.575,0.985,-1.732,-4.657,0.0,0.0,0.623,0.541,-1.499,-4.452,0.0,0.0,0.642,0.0,-1.3459999999999999,-4.928,0.5329999999999999,-0.96,0.6509999999999999,0.0,-1.122,-4.87,0.0,-1.5130000000000001,0.5429999999999999,0.0,-0.8390000000000001,-4.226,0.0,-1.7730000000000001,0.0,0.0,0.0,-3.341,0.0,-1.829,0.0,0.0,0.0,-2.2359999999999998,0.0,-1.7519999999999998,0.0,0.0,0.0,-1.4469999999999998,-0.7490000000000001,-1.68,0.0,0.0,0.0,-0.966,-0.838,-1.5719999999999998,0.0,0.0,0.0,-0.672,-0.732,-1.376,0.0,0.0,0.0,-0.5870000000000001,0.0,-1.0490000000000002,0.0,0.0,0.0,0.0,0.0,-0.6459999999999999,0.0,0.0,0.0,0.0,0.0,0.0,0.0,0.0,0.0,0.0,0.0,0.0,0.0,0.0,0.0,0.0,0.0,0.0,0.0,0.0,0.0,0.0,0.0,0.0,0.0,0.0,0.0,-0.517,0.0,0.0,0.0,0.0,0.0,-0.655,0.0,0.0,0.0,0.0,0.0,-0.599,0.0,0.0,0.0,0.0,0.0,,,,,,,,,,,,,,,,,,,,,,,,,,,,,,,,,,,,,,,,,,,,,,,,,,,,,,,,,,,,,,,,,,,,,,,,,,,,,,,,,,,,,,,,,,,,,,,,,,,,,,,,,,,,,,,,,,,,,,,,,,,,,,,,,,,,,,,,,,,,,,,,,,,,,,,,,,,,,,,,,,,,,,,,,swingAndPointForward
accX,0.0,0.0,0.0,0.0,0.0,0.0,-0.535,0.0,0.0,0.0,0.0,0.0,-0.536,0.0,0.0,0.0,0.0,0.0,0.0,0.0,0.0,0.0,0.0,0.0,0.0,0.0,0.0,0.0,0.0,0.0,0.0,0.0,0.0,0.0,0.0,0.0,0.0,0.0,0.0,0.0,0.0,0.0,0.0,0.0,0.0,0.0,0.0,0.0,0.0,0.0,0.0,0.0,0.0,0.0,0.0,0.0,0.0,0.0,0.0,0.0,0.0,0.0,0.0,0.0,0.0,0.0,0.0,0.0,0.0,0.0,0.0,0.0,0.0,0.0,0.0,0.0,0.0,0.0,0.0,0.0,0.0,0.0,0.0,0.0,0.0,0.0,0.0,0.0,0.0,0.0,0.0,0.0,0.0,0.0,0.0,0.0,0.0,-0.525,0.0,0.0,0.0,0.0,0.0,-0.503,0.0,0.0,0.0,0.0,0.0,-0.608,0.0,0.0,0.0,0.0,0.733,-0.97,0.0,0.0,0.0,0.0,1.29,-1.673,0.0,0.0,0.0,0.0,1.6640000000000001,-1.673,-0.528,0.0,0.0,-0.711,1.733,-1.834,-0.838,0.0,0.0,-0.927,1.591,-2.175,-0.887,0.0,-0.506,-1.1320000000000001,1.797,-2.6069999999999998,-0.863,-0.529,-0.536,-1.3419999999999999,2.113,-3.21,-0.792,-0.515,0.0,-1.575,2.8339999999999996,-4.213,-0.8740000000000001,0.0,0.0,-1.9180000000000001,2.986,-4.842,-0.742,-0.615,0.0,-2.343,3.105,-5.382000000000001,-0.659,-0.64,0.0,-2.84,2.339,-4.927,0.0,-0.696,-0.6,-3.412,1.022,-4.32,0.0,-0.66,-0.5660000000000001,-3.8280000000000003,0.0,-4.369,0.0,-0.605,0.0,-3.965,-1.597,-3.472,0.0,-0.589,0.0,-4.03,-2.877,-2.611,0.713,0.0,0.0,-3.9730000000000003,-3.3739999999999997,-2.225,1.119,0.0,0.624,-3.895,-4.005,-1.766,1.273,0.0,0.65,-3.616,-4.477,-1.4480000000000002,1.2770000000000001,0.0,0.536,-3.429,-5.048,-1.139,1.246,0.0,0.0,-3.214,-5.643,0.0,1.445,0.0,0.66,-2.905,-5.93,0.5489999999999999,1.808,0.0,1.0090000000000001,-2.623,-5.53,0.8859999999999999,1.984,0.0,1.219,-2.334,-4.613,0.535,1.686,0.555,1.058,-2.094,-4.081,0.0,1.087,0.535,0.7140000000000001,-1.926,-4.272,0.0,0.541,0.0,0.564,-1.696,-4.291,0.654,0.0,0.0,0.621,-1.4509999999999998,-3.951,0.588,0.0,0.0,0.633,-1.182,-3.759,0.0,-0.841,0.0,0.535,-0.96,-3.99,0.555,-1.147,0.0,0.0,-0.6729999999999999,-4.062,0.738,-1.153,0.0,0.0,0.0,-3.79,0.0,-1.671,0.0,0.0,0.0,-3.449,0.0,-1.9180000000000001,0.0,0.0,0.0,-2.734,0.0,-1.824,0.0,0.0,0.0,-1.51,-0.71,-1.798,0.0,0.0,0.0,-0.654,-0.779,-1.395,0.0,0.0,0.0,0.0,-0.83,-0.9670000000000001,0.0,0.0,0.0,0.0,-0.861,0.0,0.0,0.0,0.0,0.0,-0.732,0.0,0.0,0.0,0.0,0.628,-0.679,0.0,0.0,0.0,0.0,0.0,-0.645,0.0,0.0,0.0,0.0,0.0,0.0,0.0,0.0,0.0,0.0,0.0,0.0,0.0,0.0,0.0,0.0,0.0,0.0,0.0,0.0,0.0,0.0,,,,,,,,,,,,,,,,,,,,,,,,,,,,,,,,,,,,,,,,,,,,,,,,,,,,,,,,,,,,,,,,,,,,,,,,,,,,,,,,,,,,,,,,,,,,,,,,,,,,,,,,,,,,,swingAndPointForward
accX,0.0,0.0,0.0,0.0,0.0,0.0,0.0,0.0,-0.512,0.0,0.0,0.0,0.0,0.0,-0.523,0.0,0.0,0.0,-0.615,0.0,-0.529,0.0,0.0,0.0,0.0,0.0,0.0,0.0,0.0,0.0,0.0,0.0,0.0,0.0,0.0,0.0,0.0,0.0,0.0,0.0,0.0,0.0,0.0,0.0,0.0,0.0,0.0,0.0,0.0,0.0,0.0,0.0,0.0,0.0,0.0,0.0,0.0,0.0,0.0,0.0,0.0,0.0,0.0,0.0,0.0,0.0,0.0,0.0,0.0,0.0,0.0,0.0,0.0,0.0,0.0,0.0,0.0,0.0,0.0,0.0,0.0,0.0,0.0,0.0,0.0,0.0,0.0,0.0,0.0,0.0,0.0,0.0,0.0,0.0,0.0,0.0,0.0,0.0,0.0,0.0,0.0,0.0,0.0,0.0,0.0,0.0,0.0,0.0,0.698,-1.02,0.0,0.0,0.0,0.0,1.4180000000000001,-1.9269999999999998,-0.593,0.0,0.0,0.0,2.154,-2.75,-0.794,0.0,0.0,-0.58,2.548,-3.355,-0.703,0.0,0.0,-0.922,2.8169999999999997,-3.864,0.0,0.0,0.0,-1.307,3.4,-4.507,0.0,0.0,0.0,-1.9469999999999998,3.64,-5.587999999999999,-0.698,0.0,0.0,-2.485,3.333,-5.345,-0.501,0.0,0.0,-3.102,2.5540000000000003,-5.162000000000001,0.0,0.0,0.0,-3.662,2.1319999999999997,-5.039,0.0,0.0,0.0,-4.035,1.626,-4.862,0.0,0.0,0.0,-4.254,0.542,-4.313,0.544,0.0,0.0,-4.334,-0.877,-3.411,0.9159999999999999,0.0,-0.6970000000000001,-4.361000000000001,-1.778,-3.2439999999999998,0.823,-0.525,-0.657,-4.414,-3.162,-2.411,0.624,0.0,0.0,-4.475,-5.287999999999999,-1.197,0.0,0.0,0.0,-4.032,-6.478,0.0,0.0,0.0,0.0,-3.542,-6.019,0.0,0.602,0.0,0.8640000000000001,-3.179,-5.604,0.0,0.54,0.0,0.907,-3.034,-6.011,0.0,0.735,0.0,0.915,-2.9989999999999997,-5.617999999999999,0.0,0.622,0.0,0.784,-2.8110000000000004,-5.447,0.0,0.642,0.0,0.5720000000000001,-2.267,-4.4910000000000005,0.0,0.0,0.0,0.0,-1.89,-4.477,0.0,0.0,0.0,0.0,-1.7,-4.355,0.0,0.0,0.0,0.0,-1.431,-4.003,0.0,0.0,0.0,0.0,-1.24,-3.603,0.0,0.0,0.0,0.0,-1.037,-3.491,0.0,-0.564,0.0,0.0,-0.743,-3.003,0.0,-0.52,0.0,0.0,-0.555,-2.628,0.0,-0.601,0.0,0.0,0.0,-2.166,0.0,-0.8029999999999999,0.0,0.0,0.0,-1.6909999999999998,0.0,-0.6890000000000001,0.0,0.0,0.0,-0.609,-0.557,0.0,0.0,0.0,0.0,0.0,-0.767,0.0,0.0,0.0,0.0,0.0,-0.779,-0.574,0.0,0.0,0.0,0.0,0.0,-0.546,0.0,0.0,0.0,0.0,0.0,0.0,0.0,0.0,0.0,0.0,0.0,0.0,0.0,0.0,0.0,0.0,0.0,0.0,0.0,0.0,0.0,0.0,-0.563,0.0,0.0,0.0,0.0,-0.585,-0.716,-0.604,0.0,0.701,0.0,0.0,-0.556,-0.5329999999999999,-0.7609999999999999,0.985,0.0,0.0,0.0,0.0,-0.787,0.981,0.0,0.0,0.0,0.0,-0.544,0.6509999999999999,0.0,0.0,0.0,0.5770000000000001,0.0,0.0,0.0,,,,,,,,,,,,,,,,,,,,,,,,,,,,,,,,,,,,,,,,,,,,,,,,,,,,,,,,,,,,,,,,,,,,,,,,,,,,,,,,,,,,,,,,,,,,,,,,,,,,,,,swingAndPointForward
accX,0.0,0.0,0.0,0.0,0.0,0.0,0.0,0.0,-0.818,0.0,0.0,0.0,-0.56,0.0,-0.799,0.0,0.0,0.0,0.0,0.0,0.0,0.0,0.0,0.0,0.0,0.0,0.0,0.0,0.0,0.0,0.868,0.0,0.721,0.0,0.0,0.0,0.611,-0.637,0.0,0.0,0.0,0.0,0.0,0.0,0.0,0.0,0.0,0.0,0.0,0.0,0.0,0.0,0.0,0.0,0.0,0.0,0.0,0.0,0.0,0.0,0.0,0.0,0.0,0.0,0.0,0.0,0.0,0.0,0.0,0.0,0.0,0.0,0.701,-0.6729999999999999,0.0,0.0,0.0,0.0,0.953,-1.03,0.0,0.0,0.0,-0.506,0.925,-1.2890000000000001,0.0,0.0,0.0,-0.659,1.203,-1.574,0.0,0.0,0.0,-0.784,1.8130000000000002,-2.41,0.0,0.0,0.0,-1.05,2.4330000000000003,-3.0439999999999996,-0.53,0.0,0.0,-1.411,2.592,-3.755,-0.736,0.0,0.0,-1.776,2.435,-3.778,-0.604,0.0,0.0,-2.093,2.549,-3.935,0.0,0.0,0.0,-2.423,2.7030000000000003,-4.254,0.0,0.0,0.0,-2.728,2.249,-4.7330000000000005,-0.503,0.0,0.0,-3.063,1.4280000000000002,-4.792,0.0,-0.544,0.0,-3.361,0.586,-4.542,0.0,-0.7859999999999999,0.0,-3.6039999999999996,0.0,-3.9019999999999997,0.0,-0.8270000000000001,0.0,-3.8080000000000003,-1.4180000000000001,-3.2889999999999997,0.0,-0.8170000000000001,0.0,-3.918,-2.742,-2.7910000000000004,0.0,-0.768,0.0,-3.833,-3.636,-2.2569999999999997,0.5920000000000001,-0.698,0.0,-3.72,-4.141,-1.472,0.7759999999999999,-0.518,0.0,-3.6310000000000002,-4.248,-1.5590000000000002,0.708,0.0,0.0,-3.5060000000000002,-4.7589999999999995,-1.1340000000000001,1.163,0.0,0.0,-3.286,-5.14,-0.998,1.062,0.0,0.0,-3.0060000000000002,-5.572,-0.53,0.883,0.0,0.0,-2.7539999999999996,-5.627999999999999,0.0,0.804,0.0,0.755,-2.5269999999999997,-5.986000000000001,0.752,1.14,0.0,1.031,-2.229,-5.169,0.643,1.258,0.5760000000000001,0.885,-1.911,-4.468999999999999,0.0,0.946,0.0,0.0,-1.601,-4.527,0.0,0.0,0.0,0.0,-1.4340000000000002,-4.846,0.607,-0.8109999999999999,0.579,0.0,-1.225,-4.29,0.0,-1.121,0.606,0.0,-0.8909999999999999,-3.667,0.0,-1.0090000000000001,0.514,0.511,-0.5720000000000001,-2.595,0.0,-0.8540000000000001,0.0,0.0,0.0,-1.7690000000000001,0.0,-0.86,0.0,0.0,0.0,-1.505,0.0,-0.8190000000000001,0.0,0.0,0.0,-1.452,0.0,-0.623,0.0,0.0,0.0,-0.922,0.0,0.0,0.0,0.0,0.0,0.0,-0.5539999999999999,0.0,0.0,0.0,0.0,0.0,-0.721,0.0,0.0,0.0,0.0,0.0,-0.662,0.0,0.0,0.0,0.0,0.0,-0.5479999999999999,0.0,0.0,0.0,0.0,0.0,0.0,0.0,0.0,0.0,0.0,0.0,0.0,0.0,0.0,0.0,0.0,0.0,0.0,0.0,0.0,0.0,0.0,0.0,-0.667,0.0,0.0,0.0,0.0,0.0,-0.7190000000000001,-0.69,0.0,0.0,0.0,,,,,,,,,,,,,,,,,,,,,,,,,,,,,,,,,,,,,,,,,,,,,,,,,,,,,,,,,,,,,,,,,,,,,,,,,,,,,,,,,,,,,,,,,,,,,,,,,,,,,,,,,,,,,,,,,,,,,,,,,,,,,,,,,,,,,,,,,,,,,,,,,swingAndPointForward
accX,0.0,0.0,0.0,0.0,0.0,0.0,0.0,0.0,-0.617,0.0,0.0,0.0,-0.526,0.0,-0.9540000000000001,0.0,0.0,0.0,-0.943,0.0,-0.9790000000000001,0.0,0.0,0.0,0.0,0.0,0.0,0.0,0.0,0.0,0.0,0.0,0.0,0.0,0.0,0.0,0.0,0.0,0.0,0.0,0.0,0.0,0.0,-0.575,-0.597,0.0,0.0,0.0,0.0,0.0,-0.619,0.0,0.0,0.0,0.0,0.0,0.0,0.0,0.0,0.0,0.0,0.0,0.0,0.0,0.0,0.0,0.0,-0.5529999999999999,0.0,0.0,0.0,0.0,0.0,-0.523,0.0,0.0,0.0,0.0,0.0,-0.76,0.0,0.0,0.0,0.0,0.0,-0.778,0.0,0.0,0.0,0.0,0.682,-1.054,0.0,0.0,0.0,0.0,1.246,-1.626,0.0,0.0,0.0,0.0,1.881,-2.347,0.0,0.0,0.0,-0.693,2.57,-3.16,0.0,0.0,0.0,-1.014,2.792,-3.7030000000000003,0.0,0.0,0.0,-1.339,2.7680000000000002,-3.557,0.0,0.0,0.0,-1.692,2.735,-3.89,0.0,0.0,0.0,-2.044,2.469,-4.566,0.0,0.0,0.0,-2.411,2.464,-5.008,0.0,-0.503,0.0,-2.7319999999999998,2.697,-5.207999999999999,0.0,-0.662,0.0,-3.1510000000000002,1.5219999999999998,-4.712,0.0,-0.758,-0.59,-3.4610000000000003,0.0,-3.645,0.0,-0.703,0.0,-3.557,-0.752,-3.6439999999999997,0.0,-0.599,0.0,-3.64,-1.2109999999999999,-3.8,0.0,-0.514,0.0,-3.77,-2.2840000000000003,-3.1639999999999997,0.0,0.0,0.0,-3.866,-3.383,-2.366,0.0,0.0,0.0,-3.7680000000000002,-3.9589999999999996,-2.062,0.0,0.0,0.0,-3.639,-5.106,-1.047,0.0,0.0,0.0,-3.415,-5.801,-0.585,0.774,0.0,0.743,-2.987,-5.439,0.0,1.0979999999999999,0.0,0.9179999999999999,-2.633,-4.501,0.0,1.1179999999999999,0.0,0.866,-2.356,-4.335,0.0,0.821,0.0,0.598,-2.235,-4.968999999999999,0.0,0.526,0.0,0.0,-2.12,-4.842,0.0,0.0,0.0,0.0,-1.895,-4.23,0.0,0.0,0.591,0.506,-1.636,-3.722,0.0,0.0,0.613,0.0,-1.419,-3.7030000000000003,0.0,0.0,0.621,0.0,-1.271,-3.884,0.0,-0.557,0.6559999999999999,0.0,-1.12,-4.032,0.0,-1.1159999999999999,0.545,0.0,-0.934,-3.875,0.0,-1.3430000000000002,0.0,0.0,-0.626,-3.167,0.0,-1.2309999999999999,0.0,0.0,0.0,-2.246,0.0,-1.145,0.0,0.0,0.0,-1.4709999999999999,0.0,-1.115,0.0,0.0,0.0,-1.249,0.0,-1.1909999999999998,0.0,0.0,0.0,-0.768,-0.6829999999999999,-1.119,0.0,0.0,0.0,0.0,-0.785,-0.586,0.0,0.0,0.0,0.0,-0.83,0.0,0.0,0.0,0.0,0.0,-0.713,0.0,0.0,0.0,0.0,0.0,-0.75,0.0,0.0,0.0,0.0,0.0,-0.55,0.0,0.0,0.0,0.0,0.0,-0.514,0.0,0.0,0.0,0.0,0.0,-0.563,0.0,0.0,0.0,0.0,0.0,0.0,0.0,0.0,0.0,0.0,0.0,0.0,0.517,0.0,0.0,0.0,,,,,,,,,,,,,,,,,,,,,,,,,,,,,,,,,,,,,,,,,,,,,,,,,,,,,,,,,,,,,,,,,,,,,,,,,,,,,,,,,,,,,,,,,,,,,,,,,,,,,,,,,,,,,,,,,,,,,,,,,,,,,,,swingAndPointForward
accX,0.0,0.0,0.0,0.0,0.0,0.0,0.0,0.0,0.0,0.0,0.0,0.0,0.0,0.0,0.0,0.0,0.0,0.0,0.0,0.0,0.0,0.0,0.0,0.0,0.0,0.0,-0.515,0.0,0.0,0.0,0.0,0.0,0.0,0.0,0.0,0.0,0.927,0.0,0.0,0.0,0.0,0.0,0.9940000000000001,-0.619,0.0,0.0,0.0,0.0,1.02,-1.182,0.0,0.0,0.0,0.0,1.44,-2.174,-0.9109999999999999,0.0,0.0,-0.55,1.8259999999999998,-2.523,-0.821,0.0,0.0,-0.792,2.363,-2.6889999999999996,0.0,0.0,0.0,-1.071,2.443,-2.7910000000000004,0.0,0.0,0.0,-1.36,2.182,-3.0060000000000002,0.0,0.0,0.0,-1.651,1.605,-3.5660000000000003,-0.588,0.0,0.0,-1.864,1.4780000000000002,-3.659,0.0,0.0,0.0,-2.068,1.649,-3.891,0.0,0.0,0.0,-2.375,1.6159999999999999,-3.648,0.0,0.0,0.0,-2.733,0.929,-3.2960000000000003,0.0,0.0,0.0,-2.9619999999999997,0.0,-3.1039999999999996,0.508,0.0,0.0,-3.056,-0.6,-2.9010000000000002,0.615,0.0,0.0,-3.139,-0.83,-2.6189999999999998,0.634,0.0,0.0,-3.213,-1.584,-2.362,0.5720000000000001,0.0,0.0,-3.285,-2.258,-1.81,0.755,0.0,0.0,-3.284,-2.449,-1.4480000000000002,0.627,0.0,0.0,-3.279,-3.19,-1.578,0.0,0.0,0.0,-3.128,-4.048,-0.6990000000000001,0.0,0.0,0.0,-2.94,-3.907,-0.565,0.0,0.0,0.0,-2.838,-3.838,-0.613,0.0,0.0,0.0,-2.783,-4.496,0.0,0.0,0.0,0.0,-2.73,-5.065,0.0,0.0,0.0,0.0,-2.414,-5.0360000000000005,0.0,-0.5479999999999999,0.0,0.0,-2.155,-4.854,0.0,0.0,0.0,0.7490000000000001,-1.9069999999999998,-4.445,0.528,-0.519,0.0,0.684,-1.693,-4.322,0.0,-0.7070000000000001,0.606,0.0,-1.5190000000000001,-4.143,0.0,-1.186,0.555,0.0,-1.344,-4.101,0.0,-1.431,0.0,0.0,-1.1440000000000001,-3.542,0.0,-1.197,0.0,0.0,-0.8109999999999999,-2.997,0.0,-0.883,0.0,0.591,-0.621,-2.5660000000000003,0.0,-0.521,0.0,0.0,0.0,-1.625,0.0,0.0,0.0,0.0,0.0,-1.005,-0.775,0.0,0.0,0.0,0.0,-0.5920000000000001,-0.835,0.0,0.0,0.0,0.0,0.0,0.0,0.0,0.0,0.0,0.0,0.0,0.0,0.0,0.0,0.0,0.0,0.0,0.0,0.0,0.0,0.0,0.0,0.0,0.0,0.0,0.0,0.0,0.0,0.0,0.0,0.0,0.0,0.0,0.0,0.0,0.0,0.0,0.0,0.0,0.0,0.0,0.0,0.601,0.0,0.0,0.0,0.0,0.0,0.0,0.0,0.0,0.0,0.0,0.0,0.0,0.0,0.0,0.0,0.0,0.0,-0.51,0.0,0.0,0.0,0.0,0.0,0.0,0.0,0.0,0.0,0.0,0.0,0.0,0.0,0.0,0.0,0.0,0.0,0.0,0.0,0.0,0.0,0.0,0.0,0.0,0.0,0.0,0.0,0.0,0.0,0.0,0.0,0.0,0.0,0.0,0.0,0.0,0.0,0.0,0.0,,,,,,,,,,,,,,,,,,,,,,,,,,,,,,,,,,,,,,,,,,,,,,,,,,,,,,,,,,,,,,,,,,,,,,,,,,,,,,,,,,,,,,,,,,,,,,,,,,,,,,,,,,,,,,,,,,,,,,,,,,,,,,,swingAndPointForward
accX,0.0,0.0,0.0,0.0,0.0,0.0,0.0,0.0,0.0,0.0,0.0,0.0,0.531,-0.843,0.0,0.0,0.0,0.0,0.0,-0.7140000000000001,-0.5579999999999999,0.0,0.0,0.0,0.0,0.0,-0.613,0.0,0.0,0.0,0.0,-0.5770000000000001,0.0,0.0,0.0,0.0,1.042,-0.815,0.0,0.0,0.0,0.0,1.474,-1.4269999999999998,0.0,0.0,0.0,0.0,1.796,-1.632,0.0,0.0,0.0,-0.6779999999999999,1.906,-2.025,0.0,0.0,0.0,-0.91,2.023,-2.228,0.0,0.0,0.0,-1.171,2.1919999999999997,-2.8339999999999996,0.0,0.0,0.0,-1.426,2.235,-3.424,0.0,0.0,0.0,-1.7180000000000002,2.329,-3.6210000000000004,0.0,0.0,0.0,-2.059,2.4090000000000003,-3.795,-0.738,0.0,0.0,-2.537,1.67,-4.135,0.0,0.0,0.0,-2.833,1.429,-3.353,0.0,0.0,0.0,-3.273,0.0,-3.0269999999999997,0.0,0.0,0.0,-3.673,-0.725,-2.966,0.0,0.0,0.0,-3.7030000000000003,-1.568,-3.035,0.0,0.0,0.0,-3.641,-2.012,-2.503,0.0,0.0,0.534,-3.6919999999999997,-2.46,-2.262,0.0,0.0,0.675,-3.865,-3.483,-1.725,0.0,0.0,0.64,-3.755,-3.85,-1.555,0.732,0.0,0.593,-3.4219999999999997,-4.191,-0.799,1.479,0.0,0.0,-3.219,-3.972,-0.893,1.496,0.0,0.0,-3.102,-4.063,-0.799,1.193,0.0,0.0,-3.04,-4.787,0.0,0.5710000000000001,0.0,0.0,-3.028,-5.087,0.0,0.0,0.0,0.0,-2.7560000000000002,-4.992,0.0,0.0,0.0,0.0,-2.359,-4.7010000000000005,0.0,0.0,0.0,0.0,-2.062,-4.325,0.0,0.0,0.0,0.0,-1.829,-3.889,0.0,-0.759,0.0,0.0,-1.651,-3.525,0.0,-1.0590000000000002,0.0,0.0,-1.3840000000000001,-3.235,0.0,-1.062,0.0,0.0,-1.08,-2.8680000000000003,0.0,-0.905,0.0,0.0,-0.833,-2.7239999999999998,0.0,-0.695,0.0,0.0,-0.6679999999999999,-2.862,0.0,-0.613,0.0,0.0,-0.55,-2.484,0.0,-0.631,0.0,0.0,0.0,-1.935,-0.557,-0.748,0.0,0.0,0.0,-1.2429999999999999,-0.7440000000000001,-0.723,0.0,0.0,0.0,-0.6890000000000001,-0.626,-0.583,0.0,0.0,0.0,-0.532,0.0,0.0,0.0,0.0,0.0,-0.551,0.0,0.0,0.0,0.0,0.0,0.0,0.0,0.0,0.0,0.0,0.0,0.0,0.0,0.0,0.0,0.0,0.0,0.0,0.0,0.0,0.0,0.0,0.0,0.0,0.0,0.0,0.0,0.0,0.0,0.0,0.0,0.0,0.0,0.0,0.0,0.0,-0.588,0.0,0.0,0.0,0.0,0.0,-0.628,-0.505,0.0,0.0,0.0,0.0,0.0,0.0,0.0,0.0,0.0,0.624,0.0,0.0,0.0,0.0,0.0,,,,,,,,,,,,,,,,,,,,,,,,,,,,,,,,,,,,,,,,,,,,,,,,,,,,,,,,,,,,,,,,,,,,,,,,,,,,,,,,,,,,,,,,,,,,,,,,,,,,,,,,,,,,,,,,,,,,,,,,,,,,,,,,,,,,,,,,,,,,,,,,,,,,,,,,,,,,,,,,,,,swingAndPointForward
accX,0.0,0.0,0.0,0.0,0.0,0.0,0.0,0.0,0.0,0.0,0.0,0.0,0.0,0.0,0.0,0.0,0.0,0.0,0.0,0.0,0.0,0.0,0.0,0.0,0.0,0.0,0.0,0.0,0.0,0.0,0.547,-0.5820000000000001,0.0,0.0,0.0,0.0,1.339,-0.8059999999999999,0.0,0.0,0.0,0.0,1.4180000000000001,-1.838,0.0,0.0,0.0,-0.542,0.985,-1.736,-0.6779999999999999,0.0,0.0,-0.8059999999999999,0.575,-1.5930000000000002,-1.011,0.0,0.0,-0.935,0.809,-1.7109999999999999,-0.8340000000000001,0.0,0.0,-0.977,1.4480000000000002,-2.464,0.0,0.0,0.0,-1.122,1.9369999999999998,-2.924,0.0,0.0,0.0,-1.3090000000000002,2.023,-2.971,0.0,0.0,0.0,-1.633,1.685,-3.0669999999999997,0.0,0.0,0.0,-1.974,1.222,-3.199,0.0,0.0,0.0,-2.27,1.05,-3.3339999999999996,0.763,0.0,0.0,-2.539,0.991,-3.59,0.9490000000000001,0.0,0.0,-2.792,0.8370000000000001,-3.554,0.893,0.0,0.0,-3.0989999999999998,0.0,-3.105,0.922,0.0,-0.503,-3.395,-0.679,-3.0789999999999997,0.8809999999999999,0.0,-0.601,-3.608,-1.605,-2.596,0.0,0.0,-0.617,-3.801,-2.895,-2.116,0.0,0.0,-0.569,-3.603,-3.464,-1.875,0.0,0.0,0.0,-3.353,-3.505,-1.5519999999999998,0.0,-0.604,0.0,-3.227,-3.472,-1.172,0.7140000000000001,-0.7170000000000001,0.0,-3.1689999999999996,-3.5980000000000003,-0.867,0.51,-0.536,0.0,-3.3080000000000003,-4.542,0.0,0.0,0.0,0.0,-3.0580000000000003,-5.343999999999999,0.0,0.0,0.0,0.0,-2.722,-5.033,0.0,0.0,0.0,0.847,-2.4330000000000003,-4.11,0.0,0.602,0.0,0.935,-2.1519999999999997,-3.758,0.0,0.662,0.0,0.67,-2.0780000000000003,-4.048,0.0,0.9,0.0,0.0,-1.876,-4.458,0.0,0.69,0.5670000000000001,0.0,-1.709,-4.6739999999999995,0.0,0.0,0.578,0.674,-1.589,-4.9,0.0,-0.71,0.529,0.888,-1.37,-4.441,0.0,-1.212,0.521,0.9129999999999999,-1.08,-3.965,0.0,-1.367,0.0,0.657,-0.821,-3.465,0.0,-1.5619999999999998,0.0,0.0,0.0,-2.952,0.0,-1.569,0.0,0.0,0.0,-2.456,0.0,-1.6,0.0,0.0,0.0,-1.798,0.0,-1.406,0.0,0.0,0.0,-0.6829999999999999,-0.564,-1.235,0.0,0.0,0.0,0.0,0.0,-0.67,0.0,0.0,0.0,0.0,0.0,0.0,0.0,0.0,0.0,0.0,0.0,0.0,0.0,0.0,0.0,0.54,0.0,0.0,0.0,0.0,0.0,0.0,0.0,0.0,0.0,0.0,0.0,0.0,0.0,0.0,0.0,0.0,0.0,0.0,0.0,0.542,0.0,0.0,0.0,0.0,0.0,0.0,0.0,0.0,0.0,0.0,0.0,0.0,0.0,0.0,0.0,0.0,0.0,0.0,0.0,0.0,0.0,0.0,0.0,0.0,0.0,0.0,0.0,0.0,0.0,0.0,0.0,0.0,0.0,,,,,,,,,,,,,,,,,,,,,,,,,,,,,,,,,,,,,,,,,,,,,,,,,,,,,,,,,,,,,,,,,,,,,,,,,,,,,,,,,,,,,,,,,,,,,,,,,,,,,,,,,,,,,,,,,,,,,,,,,,,,,,,,,,,,,,,,,,,,,,,,,,,,,,,swingAndPointForward
accX,0.0,-0.541,0.0,0.0,0.0,0.0,0.539,-0.669,0.0,0.0,0.0,0.0,0.0,-0.591,0.0,-0.5720000000000001,0.0,0.0,0.0,0.0,0.0,-0.542,0.0,0.0,0.0,-0.772,0.0,0.0,0.0,0.0,0.9209999999999999,-1.147,0.0,0.0,0.0,0.0,1.8130000000000002,-1.797,0.0,0.0,0.0,-0.518,2.522,-2.376,0.0,0.0,0.0,-0.794,2.89,-3.1519999999999997,0.0,0.0,0.0,-1.136,2.9610000000000003,-4.0569999999999995,0.0,0.0,0.0,-1.535,2.85,-4.308,0.0,0.0,0.0,-1.933,2.335,-4.121,0.0,0.0,0.0,-2.273,1.715,-3.8480000000000003,0.0,0.0,0.0,-2.5580000000000003,1.692,-3.8480000000000003,0.0,0.0,0.0,-2.775,1.4680000000000002,-4.048,0.0,0.0,0.0,-3.053,0.847,-4.093,0.0,0.0,0.0,-3.384,0.0,-4.258,0.516,0.0,0.0,-3.638,-1.735,-3.318,0.8,0.0,0.0,-3.806,-2.932,-2.365,0.93,0.0,0.0,-3.8110000000000004,-3.786,-1.81,0.866,0.0,0.0,-3.758,-4.6610000000000005,-1.253,1.021,0.0,0.0,-3.6039999999999996,-5.072,-0.838,1.271,0.0,0.0,-3.3789999999999996,-4.758,-0.925,1.3030000000000002,0.0,0.5329999999999999,-3.1039999999999996,-4.129,-1.19,1.159,0.0,0.5429999999999999,-2.793,-4.209,-0.902,0.8809999999999999,0.0,0.0,-2.687,-5.263999999999999,-0.503,0.0,0.0,0.0,-2.478,-5.385,0.0,0.0,0.0,0.0,-2.197,-5.143,0.0,0.0,0.0,0.0,-1.954,-4.402,0.0,0.0,0.551,0.0,-1.7009999999999998,-3.833,0.0,0.0,0.612,0.0,-1.631,-3.344,0.0,-0.545,0.687,0.0,-1.575,-2.6839999999999997,-0.529,-0.669,0.735,0.0,-1.53,-2.418,-0.765,-0.96,0.733,0.0,-1.4969999999999999,-3.298,0.0,-1.286,0.695,0.0,-1.185,-3.245,0.0,-1.484,0.514,0.0,-0.903,-3.1180000000000003,0.0,-1.6280000000000001,0.0,0.0,-0.644,-2.88,0.0,-1.454,0.0,0.0,0.0,-2.414,0.0,-1.192,0.0,0.0,0.0,-1.902,0.0,-0.8370000000000001,0.0,0.0,0.0,-1.624,0.0,0.0,0.0,0.0,0.0,-1.136,0.0,0.0,0.0,0.0,0.0,0.0,-0.58,0.0,0.0,0.0,0.0,0.0,-0.685,0.0,0.0,0.0,0.0,0.804,-0.8640000000000001,0.0,0.0,0.0,0.0,0.878,-0.914,0.0,0.0,0.0,0.0,0.653,-0.8140000000000001,0.0,0.0,0.0,0.0,0.0,-0.94,0.0,0.0,0.0,0.0,0.0,-0.7509999999999999,0.0,0.0,0.0,0.0,0.0,-0.563,0.0,0.0,0.0,0.0,0.0,0.0,0.0,0.0,0.0,0.0,0.0,0.0,0.0,0.0,0.0,0.0,0.0,-0.6859999999999999,0.0,0.0,0.0,0.0,0.0,0.0,0.0,0.0,0.0,0.0,0.0,0.0,0.0,0.0,0.0,0.0,0.0,0.0,0.0,0.0,0.0,0.0,-0.6559999999999999,0.0,0.0,0.0,0.0,0.0,,,,,,,,,,,,,,,,,,,,,,,,,,,,,,,,,,,,,,,,,,,,,,,,,,,,,,,,,,,,,,,,,,,,,,,,,,,,,,,,,,,,,,,,,,,,,,,,,,,,,,,,,,,,,,,,,,,,,,,,,,,,,,,,,,,,,,,,,,,,,,,,,swingAndPointForward
accX,0.0,0.0,0.0,0.0,0.0,0.0,0.0,0.0,0.0,0.0,0.0,0.0,-0.841,0.0,-0.618,0.0,0.0,0.0,-0.5760000000000001,0.0,-0.51,0.0,0.0,0.0,0.0,0.0,0.0,0.0,0.0,0.0,0.61,0.0,0.0,0.0,0.0,0.0,0.82,-0.836,0.0,0.0,0.0,0.0,0.91,-1.104,0.0,0.0,0.0,0.0,1.188,-1.4180000000000001,-0.561,0.0,0.0,0.0,1.406,-1.535,-0.7090000000000001,0.0,0.0,-0.529,1.445,-1.655,-0.757,0.0,0.0,-0.67,1.84,-2.0580000000000003,-0.659,0.0,0.0,-0.8220000000000001,2.417,-2.798,-0.522,0.0,0.0,-1.035,2.6010000000000004,-3.58,0.0,0.0,0.0,-1.345,2.765,-3.62,-0.518,0.0,0.0,-1.706,3.065,-4.359,-0.748,0.0,0.0,-2.057,2.374,-4.678,-0.617,-0.605,-0.511,-2.4659999999999997,1.992,-4.485,0.0,-0.629,0.0,-2.8160000000000003,1.489,-4.316,0.0,0.0,0.0,-3.178,0.892,-3.859,0.0,0.0,0.0,-3.5780000000000003,0.0,-3.55,0.5489999999999999,0.0,0.0,-3.8989999999999996,-0.938,-3.4419999999999997,0.561,0.0,0.0,-3.714,-1.608,-3.463,0.905,0.0,0.0,-3.627,-2.423,-3.0180000000000002,1.121,0.0,0.0,-3.739,-3.674,-1.9680000000000002,1.31,0.0,0.0,-3.767,-4.591,-1.167,1.33,0.0,0.0,-3.6,-4.671,-1.183,1.046,0.0,0.0,-3.2760000000000002,-4.479,-1.567,0.8759999999999999,0.0,0.0,-3.1039999999999996,-4.815,-1.085,0.9940000000000001,0.0,0.0,-2.977,-4.636,-0.8959999999999999,1.092,0.0,0.0,-2.7689999999999997,-5.069,0.0,1.068,0.0,0.0,-2.591,-5.635,0.0,0.512,0.769,0.0,-2.355,-5.825,0.0,0.0,1.0090000000000001,0.0,-2.021,-5.445,0.0,-0.743,0.838,0.0,-1.729,-4.531000000000001,-1.011,-1.287,0.507,0.0,-1.516,-4.166,-0.8270000000000001,-1.551,0.0,0.0,-1.253,-4.198,0.0,-1.206,0.0,0.0,-1.0290000000000001,-3.8,0.0,-0.789,0.0,0.0,-0.872,-3.178,0.0,-0.736,0.0,0.0,-0.6809999999999999,-2.7089999999999996,0.0,-0.787,0.0,0.0,0.0,-2.511,0.0,-0.7040000000000001,0.0,0.0,0.0,-1.871,0.0,-0.5760000000000001,0.0,0.0,0.0,-1.426,0.0,0.0,0.0,0.0,0.0,-1.111,0.0,0.0,0.0,0.0,0.0,-0.759,0.0,0.0,0.0,0.0,0.0,0.0,-0.612,0.0,0.0,0.0,0.0,0.0,-0.773,0.0,0.0,0.0,0.0,0.0,-0.603,0.0,0.0,0.0,0.0,0.0,-0.9670000000000001,0.0,0.0,0.0,0.0,0.0,-0.75,0.0,0.0,0.0,0.0,0.0,0.0,0.0,0.0,0.0,0.0,0.0,0.0,0.0,0.0,0.0,0.0,0.0,0.0,0.0,0.0,0.0,0.0,0.0,-0.502,0.0,0.0,0.0,0.0,0.0,-0.528,0.0,0.0,0.0,0.0,0.0,0.0,0.0,0.0,0.0,0.0,0.0,0.0,0.0,0.0,0.0,0.0,0.0,0.0,0.0,0.0,0.0,0.0,-0.525,-0.768,-0.602,0.0,0.0,0.0,-0.67,0.0,-0.9690000000000001,0.0,0.0,0.0,,,,,,,,,,,,,,,,,,,,,,,,,,,,,,,,,,,,,,,,,,,,,,,,,,,,,,,,,,,,,,,,,,,,,,,,,,,,,,,,,,,,,,,,,,,,,,,,,,,,,,,,,,,,,,,,,,,,,,,,,swingAndPointForward
accX,0.0,0.0,0.0,0.0,0.0,0.0,0.0,-0.579,-0.615,0.0,0.0,0.0,0.0,-0.575,-0.711,0.0,0.0,0.0,0.0,-0.523,-0.616,0.0,0.0,0.0,0.0,0.0,0.0,0.0,0.0,0.0,0.0,0.0,0.0,0.0,0.0,0.0,0.0,0.0,0.0,0.0,0.0,0.0,0.0,0.0,0.0,0.0,0.0,0.0,0.0,-0.653,0.0,0.0,0.0,0.0,0.0,-1.169,-0.581,0.0,0.0,-0.602,0.647,-1.337,-0.667,0.0,0.0,-0.733,1.263,-1.892,-0.62,0.0,0.0,-0.924,1.7269999999999999,-2.57,0.0,-0.527,0.0,-1.13,1.7,-2.472,0.0,-0.594,0.0,-1.367,1.598,-2.398,0.0,0.0,0.0,-1.565,1.8940000000000001,-3.234,0.0,0.0,0.0,-1.827,1.6780000000000002,-3.69,0.0,0.0,0.0,-2.1719999999999997,1.147,-3.388,0.0,-0.545,0.0,-2.432,1.5590000000000002,-3.688,0.0,-0.609,0.0,-2.622,2.083,-4.581,0.0,-0.742,0.0,-2.9989999999999997,1.248,-4.243,0.0,-0.8,-0.662,-3.428,0.0,-3.4739999999999998,0.0,-0.601,-0.621,-3.761,-2.032,-2.8560000000000003,0.0,0.0,0.0,-3.7960000000000003,-2.4419999999999997,-2.773,0.604,0.0,0.0,-3.514,-2.541,-2.7039999999999997,0.75,-0.588,0.0,-3.53,-3.582,-1.673,0.893,0.0,0.0,-3.485,-4.435,-1.276,0.93,0.0,0.0,-3.3789999999999996,-4.988,-0.95,1.01,0.0,0.0,-3.194,-5.14,-0.846,1.159,0.0,0.0,-2.964,-4.981,-0.847,1.162,0.0,0.5329999999999999,-2.762,-4.659,-0.621,1.169,0.0,0.516,-2.608,-4.748,0.0,1.135,0.0,0.516,-2.4419999999999997,-5.0360000000000005,0.0,1.015,0.0,0.612,-2.224,-4.956,0.0,0.742,0.0,0.626,-1.9669999999999999,-4.761,0.0,0.0,0.0,0.0,-1.7109999999999999,-4.758,0.0,0.0,0.0,0.0,-1.3219999999999998,-4.337,0.0,0.0,0.527,0.0,-1.1179999999999999,-3.99,0.0,-0.861,0.595,0.0,-0.9009999999999999,-4.1419999999999995,0.0,-1.517,0.0,0.0,-0.693,-3.536,0.0,-1.315,0.0,0.0,0.0,-2.051,0.0,-0.669,0.0,0.53,0.0,-1.143,0.0,0.0,0.0,0.0,0.0,-0.893,-0.691,-0.63,0.0,0.0,0.0,-1.002,-0.843,-0.85,0.0,0.0,0.0,0.0,-0.8370000000000001,-0.574,0.0,0.0,0.0,0.0,-0.816,0.0,0.0,0.0,0.0,0.0,-0.853,0.0,0.0,0.0,0.0,0.0,-0.715,0.0,0.0,0.0,0.0,0.0,-0.6629999999999999,0.0,0.0,0.0,0.0,0.0,-0.501,0.0,0.0,0.0,0.0,0.0,0.0,0.0,0.0,0.0,0.0,0.0,0.0,0.0,0.0,0.0,0.0,0.0,0.0,0.0,0.0,0.0,0.0,0.0,0.0,0.0,0.0,0.0,0.0,0.0,0.0,0.0,0.0,0.0,0.0,0.0,0.0,0.0,0.0,0.0,0.0,,,,,,,,,,,,,,,,,,,,,,,,,,,,,,,,,,,,,,,,,,,,,,,,,,,,,,,,,,,,,,,,,,,,,,,,,,,,,,,,,,,,,,,,,,,,,,,,,,,,,,,,,,,,,,,,,,,,,,,,,,,,,,,,,,,,,,,,,,,,,,,,,swingAndPointForward
accX,0.0,0.0,-0.753,0.0,0.0,0.0,0.0,0.0,-0.6759999999999999,0.0,0.0,0.0,0.0,0.0,-0.5870000000000001,0.0,0.0,0.0,0.0,0.0,0.0,0.0,0.0,0.0,0.9309999999999999,-0.889,0.0,0.0,0.0,0.0,1.3319999999999999,-1.7719999999999998,0.0,0.0,0.0,0.0,1.195,-1.912,-0.745,0.0,0.0,-0.522,0.953,-1.56,-0.784,0.0,0.0,-0.753,0.6,-1.207,-0.8059999999999999,0.0,0.0,-0.8959999999999999,0.0,-0.7440000000000001,-0.631,0.0,0.0,-0.9840000000000001,0.0,-0.9440000000000001,-0.634,0.0,0.0,-1.0170000000000001,0.591,-1.73,-0.5820000000000001,-0.504,0.0,-1.128,0.8859999999999999,-2.1390000000000002,0.0,-0.654,0.0,-1.266,1.109,-2.275,0.0,-0.6809999999999999,0.0,-1.4680000000000002,0.953,-2.2880000000000003,0.0,-0.598,0.0,-1.7080000000000002,0.532,-2.338,0.0,-0.546,0.0,-1.916,0.0,-2.173,0.0,-0.565,0.0,-2.074,0.0,-2.335,0.0,-0.638,0.0,-2.191,0.516,-2.7510000000000003,0.0,-0.7929999999999999,0.0,-2.384,0.0,-2.6489999999999996,0.597,-0.934,0.0,-2.608,0.0,-2.214,1.054,-0.863,0.0,-2.762,-0.5720000000000001,-2.188,1.105,-0.629,0.0,-2.9930000000000003,-1.135,-2.283,0.738,0.0,0.0,-3.103,-1.9709999999999999,-2.05,0.5820000000000001,0.0,0.0,-3.093,-2.4090000000000003,-1.633,0.8590000000000001,-0.5329999999999999,0.0,-3.069,-2.687,-1.006,1.4469999999999998,0.0,0.0,-3.1189999999999998,-3.003,-0.8590000000000001,1.611,0.0,0.0,-3.219,-4.3469999999999995,0.0,1.186,0.0,0.0,-2.988,-4.913,0.0,0.887,0.0,0.0,-2.727,-4.546,0.0,0.982,0.0,0.0,-2.487,-4.42,0.0,1.255,0.0,0.0,-2.29,-4.165,0.0,1.2670000000000001,0.0,0.0,-2.17,-4.09,0.65,0.0,0.6940000000000001,0.0,-1.9369999999999998,-3.925,0.0,-0.903,0.626,0.0,-1.6369999999999998,-3.339,0.0,-0.8079999999999999,0.0,0.0,-1.4040000000000001,-2.987,0.0,-0.72,0.0,0.0,-1.212,-3.159,0.0,-0.595,0.0,0.0,-1.107,-3.306,0.0,-0.562,0.0,0.0,-0.965,-2.56,0.0,0.0,0.0,0.0,-0.718,-2.145,0.0,0.0,0.0,0.0,-0.59,-1.983,0.0,0.0,0.0,0.0,0.0,-1.81,0.0,0.0,0.0,0.0,0.0,-1.626,0.0,0.0,0.0,0.0,0.0,-1.185,0.0,0.0,0.0,0.0,0.0,-0.5820000000000001,0.0,0.0,0.0,0.0,0.0,0.0,-0.529,0.0,0.0,0.0,0.0,0.0,-0.684,-0.659,0.0,0.0,0.0,0.0,-0.614,-0.613,0.0,0.0,0.0,0.0,0.0,0.0,0.0,0.0,0.0,0.0,0.0,0.0,0.0,0.0,0.0,0.0,0.0,0.0,0.0,0.0,0.0,0.0,0.0,0.0,0.0,0.0,0.0,0.0,0.0,0.0,0.0,0.0,0.0,0.0,0.0,0.0,0.0,0.0,0.0,0.0,0.0,0.0,0.0,0.0,0.0,0.0,0.0,0.0,0.0,0.0,0.0,0.0,0.0,0.0,0.0,0.0,0.0,0.0,0.0,0.0,0.0,0.0,0.0,0.0,0.0,0.0,0.0,0.544,0.0,,,,,,,,,,,,,,,,,,,,,,,,,,,,,,,,,,,,,,,,,,,,,,,,,,,,,,,,,,,,,,,,,,,,,,,,,,,,,,,,,,,,,,,,,,,,,,,,,,,,,,,,,,,,,,,,,,,,,,,,,,,,,,,swingAndPointForward
