,00_accX,00_accY,00_accZ,00_gyroX,00_gyroY,00_gyroZ,01_accX,01_accY,01_accZ,01_gyroX,01_gyroY,01_gyroZ,02_accX,02_accY,02_accZ,02_gyroX,02_gyroY,02_gyroZ,03_accX,03_accY,03_accZ,03_gyroX,03_gyroY,03_gyroZ,04_accX,04_accY,04_accZ,04_gyroX,04_gyroY,04_gyroZ,05_accX,05_accY,05_accZ,05_gyroX,05_gyroY,05_gyroZ,06_accX,06_accY,06_accZ,06_gyroX,06_gyroY,06_gyroZ,07_accX,07_accY,07_accZ,07_gyroX,07_gyroY,07_gyroZ,08_accX,08_accY,08_accZ,08_gyroX,08_gyroY,08_gyroZ,09_accX,09_accY,09_accZ,09_gyroX,09_gyroY,09_gyroZ,10_accX,10_accY,10_accZ,10_gyroX,10_gyroY,10_gyroZ,11_accX,11_accY,11_accZ,11_gyroX,11_gyroY,11_gyroZ,12_accX,12_accY,12_accZ,12_gyroX,12_gyroY,12_gyroZ,13_accX,13_accY,13_accZ,13_gyroX,13_gyroY,13_gyroZ,14_accX,14_accY,14_accZ,14_gyroX,14_gyroY,14_gyroZ,15_accX,15_accY,15_accZ,15_gyroX,15_gyroY,15_gyroZ,16_accX,16_accY,16_accZ,16_gyroX,16_gyroY,16_gyroZ,17_accX,17_accY,17_accZ,17_gyroX,17_gyroY,17_gyroZ,18_accX,18_accY,18_accZ,18_gyroX,18_gyroY,18_gyroZ,19_accX,19_accY,19_accZ,19_gyroX,19_gyroY,19_gyroZ,20_accX,20_accY,20_accZ,20_gyroX,20_gyroY,20_gyroZ,21_accX,21_accY,21_accZ,21_gyroX,21_gyroY,21_gyroZ,22_accX,22_accY,22_accZ,22_gyroX,22_gyroY,22_gyroZ,23_accX,23_accY,23_accZ,23_gyroX,23_gyroY,23_gyroZ,24_accX,24_accY,24_accZ,24_gyroX,24_gyroY,24_gyroZ,25_accX,25_accY,25_accZ,25_gyroX,25_gyroY,25_gyroZ,26_accX,26_accY,26_accZ,26_gyroX,26_gyroY,26_gyroZ,27_accX,27_accY,27_accZ,27_gyroX,27_gyroY,27_gyroZ,28_accX,28_accY,28_accZ,28_gyroX,28_gyroY,28_gyroZ,29_accX,29_accY,29_accZ,29_gyroX,29_gyroY,29_gyroZ,30_accX,30_accY,30_accZ,30_gyroX,30_gyroY,30_gyroZ,31_accX,31_accY,31_accZ,31_gyroX,31_gyroY,31_gyroZ,32_accX,32_accY,32_accZ,32_gyroX,32_gyroY,32_gyroZ,33_accX,33_accY,33_accZ,33_gyroX,33_gyroY,33_gyroZ,34_accX,34_accY,34_accZ,34_gyroX,34_gyroY,34_gyroZ,35_accX,35_accY,35_accZ,35_gyroX,35_gyroY,35_gyroZ,36_accX,36_accY,36_accZ,36_gyroX,36_gyroY,36_gyroZ,37_accX,37_accY,37_accZ,37_gyroX,37_gyroY,37_gyroZ,38_accX,38_accY,38_accZ,38_gyroX,38_gyroY,38_gyroZ,39_accX,39_accY,39_accZ,39_gyroX,39_gyroY,39_gyroZ,40_accX,40_accY,40_accZ,40_gyroX,40_gyroY,40_gyroZ,41_accX,41_accY,41_accZ,41_gyroX,41_gyroY,41_gyroZ,42_accX,42_accY,42_accZ,42_gyroX,42_gyroY,42_gyroZ,43_accX,43_accY,43_accZ,43_gyroX,43_gyroY,43_gyroZ,44_accX,44_accY,44_accZ,44_gyroX,44_gyroY,44_gyroZ,45_accX,45_accY,45_accZ,45_gyroX,45_gyroY,45_gyroZ,46_accX,46_accY,46_accZ,46_gyroX,46_gyroY,46_gyroZ,47_accX,47_accY,47_accZ,47_gyroX,47_gyroY,47_gyroZ,48_accX,48_accY,48_accZ,48_gyroX,48_gyroY,48_gyroZ,49_accX,49_accY,49_accZ,49_gyroX,49_gyroY,49_gyroZ,50_accX,50_accY,50_accZ,50_gyroX,50_gyroY,50_gyroZ,51_accX,51_accY,51_accZ,51_gyroX,51_gyroY,51_gyroZ,52_accX,52_accY,52_accZ,52_gyroX,52_gyroY,52_gyroZ,53_accX,53_accY,53_accZ,53_gyroX,53_gyroY,53_gyroZ,54_accX,54_accY,54_accZ,54_gyroX,54_gyroY,54_gyroZ,55_accX,55_accY,55_accZ,55_gyroX,55_gyroY,55_gyroZ,56_accX,56_accY,56_accZ,56_gyroX,56_gyroY,56_gyroZ,57_accX,57_accY,57_accZ,57_gyroX,57_gyroY,57_gyroZ,58_accX,58_accY,58_accZ,58_gyroX,58_gyroY,58_gyroZ,59_accX,59_accY,59_accZ,59_gyroX,59_gyroY,59_gyroZ,60_accX,60_accY,60_accZ,60_gyroX,60_gyroY,60_gyroZ,61_accX,61_accY,61_accZ,61_gyroX,61_gyroY,61_gyroZ,62_accX,62_accY,62_accZ,62_gyroX,62_gyroY,62_gyroZ,63_accX,63_accY,63_accZ,63_gyroX,63_gyroY,63_gyroZ,64_accX,64_accY,64_accZ,64_gyroX,64_gyroY,64_gyroZ,65_accX,65_accY,65_accZ,65_gyroX,65_gyroY,65_gyroZ,66_accX,66_accY,66_accZ,66_gyroX,66_gyroY,66_gyroZ,67_accX,67_accY,67_accZ,67_gyroX,67_gyroY,67_gyroZ,68_accX,68_accY,68_accZ,68_gyroX,68_gyroY,68_gyroZ,69_accX,69_accY,69_accZ,69_gyroX,69_gyroY,69_gyroZ,70_accX,70_accY,70_accZ,70_gyroX,70_gyroY,70_gyroZ,71_accX,71_accY,71_accZ,71_gyroX,71_gyroY,71_gyroZ,72_accX,72_accY,72_accZ,72_gyroX,72_gyroY,72_gyroZ,73_accX,73_accY,73_accZ,73_gyroX,73_gyroY,73_gyroZ,74_accX,74_accY,74_accZ,74_gyroX,74_gyroY,74_gyroZ,75_accX,75_accY,75_accZ,75_gyroX,75_gyroY,75_gyroZ,76_accX,76_accY,76_accZ,76_gyroX,76_gyroY,76_gyroZ,77_accX,77_accY,77_accZ,77_gyroX,77_gyroY,77_gyroZ,78_accX,78_accY,78_accZ,78_gyroX,78_gyroY,78_gyroZ,79_accX,79_accY,79_accZ,79_gyroX,79_gyroY,79_gyroZ,category
accX,0.5539999999999999,-0.634,0.0,0.0,0.0,0.0,1.359,-0.855,0.0,0.0,0.0,-0.609,1.3659999999999999,-0.6709999999999999,0.0,-0.642,-0.591,-0.89,0.0,0.0,0.0,-0.659,-0.877,-1.1179999999999999,0.0,0.0,0.0,-0.5539999999999999,-0.718,-1.143,0.0,-0.631,0.0,0.0,0.0,-0.9840000000000001,0.843,-0.8740000000000001,0.0,0.0,0.0,-0.9470000000000001,1.324,-0.7170000000000001,0.628,0.0,0.0,-1.0759999999999998,1.942,-0.603,0.0,0.0,-0.527,-1.321,1.4869999999999999,-0.68,0.0,0.0,-0.765,-1.7309999999999999,0.95,-1.01,-0.878,0.0,-0.86,-2.065,0.551,-0.54,-1.315,0.0,-0.7909999999999999,-2.266,0.0,-0.68,-1.933,0.0,-0.7440000000000001,-2.369,-0.767,-0.504,-2.162,0.0,-0.617,-2.437,-1.933,0.0,-1.761,-0.545,0.0,-2.282,-2.8480000000000003,0.0,-1.226,-0.601,0.0,-1.849,-3.0410000000000004,0.0,-0.797,-0.639,0.654,-1.3419999999999999,-2.603,0.0,0.0,-0.723,0.968,-0.946,-1.871,0.0,0.0,-0.753,1.0070000000000001,-0.66,-1.331,0.0,0.505,-0.78,0.5820000000000001,0.0,-1.4169999999999998,0.0,0.8540000000000001,-0.7609999999999999,0.0,0.0,-1.9140000000000001,0.0,0.997,-0.642,0.0,0.0,-2.22,0.0,0.927,-0.521,0.0,0.0,-1.994,0.0,0.618,0.0,0.0,0.0,-1.9669999999999999,0.0,0.0,0.0,0.0,0.0,-1.631,-0.6659999999999999,0.0,0.0,0.0,0.0,-1.169,-0.5660000000000001,0.0,0.0,0.0,0.535,0.0,-0.522,0.0,0.0,0.0,0.606,0.0,-0.551,0.0,0.0,0.0,0.589,0.904,-0.934,0.0,0.0,0.0,0.0,1.151,-0.96,0.0,0.0,0.0,0.0,0.778,-0.596,0.0,0.0,0.0,0.0,0.6970000000000001,0.0,0.0,0.0,0.0,0.0,0.893,-0.515,0.0,0.0,0.0,0.0,0.9740000000000001,0.0,0.0,0.0,0.0,0.0,0.6559999999999999,0.0,0.0,0.0,0.0,0.0,0.588,0.0,0.0,0.0,0.0,0.0,0.0,0.0,0.0,0.0,0.0,-0.54,0.0,0.0,0.0,0.0,0.0,-0.55,0.0,0.0,0.0,0.0,0.0,-0.583,0.0,0.0,0.0,0.0,0.0,-0.602,0.0,0.0,0.0,0.0,0.0,-0.594,0.0,0.0,0.0,0.0,0.0,-0.568,0.0,0.0,0.0,0.0,0.0,0.0,-0.618,0.0,0.0,0.0,0.0,0.0,0.0,0.0,-0.706,0.0,0.0,0.0,0.0,0.0,-1.016,0.0,0.0,0.0,0.0,0.0,-0.9670000000000001,0.0,0.0,0.0,0.0,0.0,-0.7509999999999999,0.0,0.0,0.0,0.0,0.0,0.0,0.0,0.0,0.0,0.0,0.0,0.0,0.0,0.0,0.0,0.0,0.0,0.0,0.0,0.0,0.0,0.58,0.0,-0.662,0.0,0.0,0.0,0.0,0.0,-0.6940000000000001,0.0,0.0,0.0,0.0,0.0,-0.564,0.0,0.0,0.0,0.0,0.0,0.0,0.0,0.0,0.0,0.0,0.0,0.0,0.0,0.0,0.0,0.946,0.0,0.0,0.0,0.0,0.0,1.225,0.0,0.0,0.0,0.0,0.0,0.6409999999999999,0.0,0.0,0.0,-0.633,-0.609,0.0,0.0,0.0,0.0,-0.5770000000000001,-0.6809999999999999,0.0,0.0,0.0,0.0,0.0,-0.695,0.0,0.0,0.0,0.0,0.0,-0.7190000000000001,0.0,0.0,0.0,0.0,0.0,-0.759,0.0,0.0,0.0,0.0,0.0,-0.799,-0.5720000000000001,0.0,0.0,0.0,0.0,-0.794,0.0,0.0,0.0,0.0,0.0,-0.731,0.0,0.0,0.0,0.0,0.0,-0.799,0.0,0.0,0.0,0.0,0.0,-0.8170000000000001,-0.6990000000000001,0.0,0.0,0.0,0.0,-0.725,-0.754,0.0,-0.69,0.0,0.0,-0.579,-0.532,0.0,-0.754,0.0,0.0,0.0,0.0,0.0,-0.696,0.0,0.0,0.0,0.0,0.0,0.0,0.0,0.0,0.0,0.579,0.0,0.0,0.0,0.0,0.0,0.0,0.0,0.0,0.0,0.0,0.0,0.0,0.0,0.0,0.0,0.0,0.0,0.0,0.0,0.0,0.0,0.0,0.0,0.0,0.0,0.0,0.0,0.0,0.0,0.0,0.0,0.0,0.0,0.0,0.0,swingAndPointForward
accX,0.0,0.0,0.0,-0.505,0.5720000000000001,0.0,0.7290000000000001,-0.629,0.0,0.0,0.0,0.0,0.0,0.0,0.0,0.0,0.0,0.0,0.0,0.0,0.0,0.0,0.0,0.0,-0.565,0.0,0.0,0.0,0.0,0.0,0.0,0.0,0.0,0.0,0.0,0.0,0.0,0.0,0.0,0.0,0.0,0.0,0.0,0.0,0.0,0.0,0.0,0.0,-0.552,0.0,0.0,0.0,0.0,0.0,0.0,0.0,0.0,0.0,0.0,0.0,0.775,-0.539,0.0,0.0,0.0,0.0,1.791,-1.3330000000000002,0.0,0.0,0.0,0.0,2.477,-1.4169999999999998,0.0,0.0,0.0,0.0,2.995,-1.34,-0.86,0.0,0.0,-0.618,3.341,-2.191,-1.538,0.0,0.0,-0.868,4.751,-3.218,-1.955,-0.7829999999999999,0.0,-1.298,4.843999999999999,-4.06,-1.555,-1.014,0.0,-1.96,4.418,-3.997,-1.139,-1.125,0.0,-2.4459999999999997,4.217,-3.593,-1.01,-0.9990000000000001,0.0,-3.002,2.119,-4.185,-1.472,-0.915,0.0,-3.2430000000000003,1.1840000000000002,-4.895,-1.291,-1.006,0.75,-3.298,1.507,-4.833,0.0,-1.062,1.2429999999999999,-3.389,2.028,-4.37,0.0,-0.909,1.444,-3.609,1.62,-4.673,0.0,-0.638,1.229,-3.928,1.033,-5.03,0.0,0.0,1.004,-4.2860000000000005,0.0,-5.452000000000001,0.0,0.0,1.145,-4.546,0.0,-5.6,0.0,0.0,1.34,-4.658,0.0,-5.473,0.0,0.0,1.54,-4.66,0.0,-6.547999999999999,0.0,0.0,1.635,-4.593,-1.379,-6.244,-0.625,0.0,1.489,-4.3180000000000005,-3.045,-5.9110000000000005,-0.7959999999999999,0.0,1.5,-4.316,-4.246,-4.638999999999999,0.0,0.0,1.652,-4.422,-4.211,-3.966,0.0,0.0,1.751,-4.293,-4.2860000000000005,-4.563,0.0,0.0,1.53,-3.728,-5.095,-4.728,-0.66,0.0,1.276,-3.137,-6.267,-3.779,-1.0090000000000001,0.0,1.558,-3.071,-6.621,-2.531,-0.8240000000000001,0.0,1.75,-3.015,-6.8629999999999995,-2.175,-0.619,0.0,1.58,-2.411,-6.069,-2.5180000000000002,-0.978,0.0,1.4180000000000001,-1.827,-5.284,-1.6030000000000002,-0.966,0.0,1.2429999999999999,-1.459,-4.936,-1.04,-1.699,0.0,0.9640000000000001,-1.361,-5.268,-1.281,-2.94,0.0,0.528,-1.365,-7.121,-1.226,-3.13,0.0,0.0,-0.546,-7.375,0.0,-1.8980000000000001,0.0,0.795,0.0,-4.541,0.0,-0.7929999999999999,0.0,1.013,0.0,-2.2119999999999997,0.0,-0.929,0.0,0.0,0.0,-2.056,0.0,-1.455,0.0,0.0,0.0,-2.932,-0.6659999999999999,-1.829,0.0,0.0,0.0,-1.9340000000000002,0.0,-1.224,0.0,0.0,0.0,-0.536,0.0,0.0,0.0,0.0,0.0,0.0,0.0,0.0,0.0,0.0,0.0,0.0,-0.634,0.0,0.0,0.0,0.0,0.0,-0.762,0.0,0.0,0.0,0.0,0.6940000000000001,-0.8340000000000001,0.0,0.0,0.0,0.0,0.769,-0.669,0.0,0.0,0.0,0.0,0.569,-0.6990000000000001,0.0,0.0,0.0,0.0,0.615,-0.6729999999999999,0.0,0.0,0.0,0.0,0.629,-0.6579999999999999,0.0,0.0,0.0,0.0,0.826,-0.653,0.0,0.0,0.0,0.0,0.563,0.0,0.0,0.0,0.0,0.0,0.0,0.0,0.0,0.0,0.0,0.0,0.0,0.0,0.0,0.0,0.0,0.0,-0.6920000000000001,0.0,0.0,0.0,0.0,0.0,,,,,,,,,,,,,,,,,,,,,,,,,,,,,,,,,,,,,,,,,,,,,,,,,,,,,,,,,,,,,,,,,,,,,,,,,,,,,,,,,,,,,,,,,,,,,,,,,,,,,,,swingAndPointForward
accX,-1.431,0.0,0.0,0.0,0.0,0.0,0.0,0.0,0.0,0.0,0.0,0.0,2.263,-2.1959999999999997,-0.7240000000000001,0.0,0.0,-1.281,2.89,-2.592,-0.8909999999999999,0.0,0.0,-1.564,4.246,-4.24,-1.035,0.0,0.0,-1.879,4.388,-5.1739999999999995,-0.828,-0.904,0.0,-2.456,3.8739999999999997,-4.474,0.0,-1.202,0.0,-3.116,2.173,-3.8,-0.6609999999999999,-1.219,0.0,-3.5460000000000003,0.526,-3.989,-1.3319999999999999,-1.16,0.0,-3.613,-0.6679999999999999,-3.918,-1.403,-1.286,0.0,-3.56,-1.143,-3.465,-0.607,-1.317,0.693,-3.5780000000000003,0.0,-2.946,0.0,-1.1520000000000001,1.075,-3.502,0.0,-2.748,0.0,-0.802,1.045,-3.66,-1.21,-4.031000000000001,-0.625,-0.85,0.639,-3.5410000000000004,-2.305,-3.886,-0.652,-1.25,0.0,-3.3739999999999997,-3.115,-3.182,0.0,-1.4169999999999998,0.742,-3.4330000000000003,-3.002,-2.73,0.0,-1.224,0.977,-3.398,-2.7569999999999997,-2.551,1.002,-0.895,1.224,-3.133,-2.377,-2.603,0.0,-0.578,1.226,-2.784,-2.838,-3.1439999999999997,0.0,0.0,0.905,-2.682,-3.693,-3.563,0.0,-0.648,0.856,-2.622,-2.702,-2.891,0.0,-0.7559999999999999,1.141,-2.513,-1.6740000000000002,-2.655,0.0,0.0,1.281,-2.335,-1.821,-2.741,0.0,0.0,1.1440000000000001,-2.327,-2.9339999999999997,-3.26,0.0,0.0,1.064,-2.301,-2.8810000000000002,-2.475,0.0,0.0,1.35,-2.176,-1.979,-1.87,0.0,0.0,1.46,-1.899,-1.5430000000000001,-1.59,-0.883,0.0,1.052,-1.841,-3.188,-1.999,-1.651,0.0,0.9940000000000001,-1.8130000000000002,-3.622,-1.39,-1.6540000000000001,0.0,1.1640000000000001,-1.584,-3.511,-0.725,-1.109,0.0,1.4040000000000001,-1.285,-2.656,0.0,-0.9670000000000001,0.0,1.2990000000000002,-1.166,-2.783,0.0,-1.51,0.0,0.848,-1.0859999999999999,-3.542,0.0,-1.8969999999999998,0.0,0.705,-0.9420000000000001,-3.713,0.0,-1.273,0.0,0.888,-0.695,-2.803,0.0,-0.72,0.0,0.968,0.0,-1.234,0.0,0.0,0.0,0.8059999999999999,0.0,-0.7440000000000001,0.0,0.0,0.0,0.521,-0.501,-0.975,0.0,0.0,0.0,0.0,-0.573,-1.169,0.0,0.0,0.0,0.0,-0.527,0.0,-0.785,0.0,0.0,0.0,0.0,0.0,-0.8740000000000001,0.0,0.0,0.0,-0.51,0.7509999999999999,0.0,0.0,0.0,0.0,-0.519,0.0,0.0,0.0,0.0,0.0,0.0,0.0,0.0,-0.502,0.0,0.0,0.0,0.0,-0.581,-0.6829999999999999,0.0,0.0,0.0,0.986,-0.531,-0.599,0.0,0.0,0.0,0.632,0.0,-0.679,0.0,0.0,0.0,0.0,0.0,-0.8440000000000001,0.0,0.0,0.0,-1.52,0.0,-1.03,0.0,0.0,0.0,-1.1340000000000001,0.0,-0.633,0.0,0.0,0.0,-1.0270000000000001,0.0,0.0,0.0,0.0,0.0,-0.545,0.0,-0.6809999999999999,0.0,0.0,0.0,0.0,0.0,-0.877,0.0,0.0,0.0,0.0,0.0,-0.752,0.0,0.0,0.0,0.0,0.0,0.0,0.0,0.0,0.0,0.677,0.0,0.0,0.0,0.0,0.0,0.919,0.0,0.0,0.0,0.0,0.0,0.8240000000000001,0.0,0.0,0.0,0.0,0.0,0.529,0.0,0.0,0.0,0.0,0.0,0.0,0.0,0.0,0.0,0.0,0.0,0.0,0.0,0.0,0.0,0.0,0.0,,,,,,,,,,,,,,,,,,,,,,,,,,,,,,,,,,,,,,,,,,,,,,,,,,,,,,,,,,,,,,,,,,,,,,,,,,,,,,,,,,,,,,,,,,,,,,,,,,,,,,,,,,,,,swingAndPointForward
accX,0.792,-0.96,0.0,-0.895,0.514,0.0,1.551,-0.6809999999999999,0.0,-0.934,0.524,0.0,1.485,-0.8029999999999999,0.0,-0.7879999999999999,0.0,0.0,2.102,-1.298,0.0,-0.534,0.0,0.0,2.573,-1.69,0.0,0.0,0.0,-0.764,2.148,-1.699,-0.621,0.0,0.0,-1.228,1.209,-1.617,-0.6509999999999999,0.0,0.0,-1.579,0.9670000000000001,-1.8719999999999999,-0.6459999999999999,0.0,0.0,-1.673,0.748,-2.568,0.0,0.0,0.0,-1.671,1.7380000000000002,-2.7539999999999996,0.0,0.0,0.735,-1.899,3.1010000000000004,-2.7239999999999998,0.0,0.0,0.0,-2.3369999999999997,2.7060000000000004,-3.6069999999999998,-1.103,0.0,0.0,-2.844,0.737,-3.9410000000000003,-1.167,-0.9620000000000001,0.0,-3.156,0.0,-3.0810000000000004,0.0,-1.15,0.0,-3.18,0.0,-1.959,0.0,-0.794,0.0,-3.175,0.0,-2.5140000000000002,-0.518,-0.536,0.0,-3.111,-1.146,-2.9339999999999997,-0.531,-0.645,0.526,-3.016,-1.4480000000000002,-3.267,0.0,-0.753,0.8909999999999999,-3.034,-0.5589999999999999,-2.8089999999999997,0.0,-0.621,1.01,-3.136,0.0,-2.445,-0.7809999999999999,0.0,0.6409999999999999,-3.533,-1.285,-3.174,-1.426,-0.703,0.0,-3.7760000000000002,-2.7889999999999997,-3.699,-1.391,-1.186,0.0,-3.537,-3.3280000000000003,-3.138,-0.6579999999999999,-1.232,0.802,-3.235,-3.138,-2.055,0.0,-0.7440000000000001,1.4140000000000001,-3.14,-2.658,-2.6830000000000003,-0.684,0.0,1.354,-2.995,-2.701,-3.2889999999999997,-0.706,-0.5870000000000001,1.215,-2.877,-2.721,-3.262,0.0,-0.6920000000000001,1.318,-2.9139999999999997,-2.572,-3.645,0.0,-0.764,1.376,-2.863,-2.536,-2.415,0.0,0.0,1.337,-3.002,-2.95,-2.766,0.0,0.0,1.07,-2.9130000000000003,-4.04,-2.226,-0.6679999999999999,0.0,0.8220000000000001,-2.616,-4.8839999999999995,-1.651,-0.792,0.0,0.946,-2.294,-5.025,-1.24,-0.5760000000000001,0.0,1.235,-1.771,-4.487,-0.557,0.0,0.0,1.08,-1.444,-4.388999999999999,-0.563,0.0,0.0,0.843,-1.056,-3.93,-0.614,0.0,0.0,0.7859999999999999,-0.77,-3.573,0.0,0.0,0.0,0.7509999999999999,-0.615,-3.227,0.0,-0.677,0.0,0.528,0.0,-2.812,-0.6859999999999999,-0.773,0.0,0.0,0.0,-2.2840000000000003,-0.586,-0.6559999999999999,0.0,0.0,0.0,-1.6059999999999999,-0.679,-0.615,0.0,0.0,0.0,-0.838,-0.823,-0.541,0.0,0.0,0.0,0.0,-0.8859999999999999,-0.505,0.0,0.0,0.0,0.0,-1.006,-0.679,0.0,0.0,0.0,0.0,-1.194,-0.7020000000000001,0.0,0.0,0.0,0.622,-0.862,-0.541,0.0,0.0,0.0,0.0,-0.636,0.0,0.0,0.0,0.0,0.0,0.0,0.0,0.0,0.0,0.0,0.0,0.0,0.0,0.0,0.0,0.0,0.0,-0.5489999999999999,0.0,0.0,0.0,0.0,0.0,0.0,0.0,0.0,0.0,0.0,0.0,0.0,0.0,0.0,0.0,0.0,-0.8009999999999999,0.0,0.0,0.0,0.0,0.0,-0.948,0.0,0.0,0.0,0.0,0.0,-0.7340000000000001,0.0,0.0,0.0,0.0,0.0,0.0,0.0,0.0,0.0,0.0,0.0,0.0,0.0,0.0,0.0,0.0,0.0,-0.504,0.0,-0.5539999999999999,0.0,0.0,0.0,-0.622,0.0,-0.782,0.0,0.0,0.0,0.0,0.0,-0.873,0.0,0.0,0.0,0.0,0.0,-0.708,0.0,0.0,0.0,,,,,,,,,,,,,,,,,,,,,,,,,,,,,,,,,,,,,,,,,,,,,,,,,,,,,,,,,,,,,,,,,,,,,,,,,,,,,,,,,,,,,,,,,,,,,,,,,,,,,,,,,,,,,,,,,,,swingAndPointForward
accX,0.659,-0.8490000000000001,0.0,-0.731,0.0,0.0,1.71,-1.27,0.0,-0.657,0.0,0.0,2.329,-1.128,0.0,0.0,0.0,-0.546,2.713,-2.5660000000000003,0.0,0.0,0.0,-0.951,3.0610000000000004,-3.0580000000000003,0.0,0.0,0.0,-1.252,3.8139999999999996,-3.133,0.0,0.0,0.0,-1.6740000000000002,4.023,-3.1489999999999996,-0.552,0.0,0.0,-2.234,3.0239999999999996,-3.7310000000000003,-0.862,-0.693,-0.59,-2.665,1.716,-4.1,0.0,-0.897,0.0,-2.924,1.2329999999999999,-3.4010000000000002,0.0,-0.77,0.0,-3.082,1.679,-3.022,0.0,0.0,0.0,-3.2560000000000002,1.76,-3.492,0.0,0.0,0.0,-3.6439999999999997,0.828,-4.763999999999999,-1.311,-0.759,0.0,-3.7310000000000003,-0.598,-3.805,-0.8759999999999999,-1.338,0.0,-3.7689999999999997,-1.524,-2.8089999999999997,0.0,-1.09,0.0,-3.6439999999999997,-2.3169999999999997,-2.708,-1.115,-0.805,0.0,-3.596,-3.1519999999999997,-3.522,-0.983,-1.034,0.0,-3.514,-2.665,-3.043,0.0,-1.385,0.507,-3.332,-2.435,-1.848,0.0,-1.2409999999999999,0.624,-3.37,-3.4789999999999996,-2.049,0.0,-0.937,0.0,-3.388,-4.322,-1.985,0.0,-0.7859999999999999,0.0,-3.1519999999999997,-4.625,-2.225,0.0,-0.675,0.754,-2.819,-3.017,-2.6689999999999996,0.0,0.0,1.357,-2.611,-2.109,-2.6489999999999996,0.0,0.0,1.3840000000000001,-2.445,-2.148,-3.0060000000000002,-0.68,0.0,0.932,-2.301,-2.593,-2.696,0.0,-0.574,0.812,-2.1790000000000003,-2.7060000000000004,-2.5180000000000002,0.0,-0.522,1.043,-2.029,-2.43,-2.128,0.0,0.0,1.2770000000000001,-1.946,-2.0180000000000002,-1.8880000000000001,0.0,0.0,1.249,-1.98,-2.15,-2.209,0.0,0.0,1.117,-1.9969999999999999,-1.6480000000000001,-2.131,-0.7020000000000001,0.0,1.224,-2.068,-1.9140000000000001,-1.7919999999999998,-0.612,0.0,1.1740000000000002,-1.855,-3.074,-1.2309999999999999,-0.745,0.0,1.169,-1.675,-3.8110000000000004,-0.8420000000000001,-0.831,0.0,1.078,-1.456,-4.046,0.0,-0.5329999999999999,0.0,1.067,-1.287,-3.6319999999999997,0.0,0.0,0.0,0.988,-1.087,-3.286,0.0,0.0,0.0,0.743,-0.831,-3.35,0.0,0.0,0.0,0.507,0.0,-2.9619999999999997,0.0,0.0,0.0,0.521,0.0,-2.262,0.0,0.0,0.0,0.51,0.0,-1.335,0.0,0.0,0.0,0.0,0.0,0.0,0.0,0.0,0.0,0.0,0.0,0.565,-0.621,0.0,0.0,0.0,0.0,0.863,-1.056,0.0,0.0,0.0,0.0,0.561,-1.1520000000000001,0.0,0.0,0.0,0.0,0.0,-0.586,0.0,0.0,0.0,0.0,0.0,0.0,0.0,0.0,0.0,0.0,-0.55,0.0,-0.59,0.0,0.0,0.0,-0.722,0.0,-0.826,0.0,0.0,0.0,-0.536,0.0,-0.602,0.0,0.0,0.0,0.0,0.0,0.0,0.0,0.0,0.0,0.0,0.0,0.0,0.0,0.0,0.0,-0.875,0.0,-0.687,0.0,0.0,0.0,-1.6219999999999999,0.542,-0.73,0.0,0.0,0.0,,,,,,,,,,,,,,,,,,,,,,,,,,,,,,,,,,,,,,,,,,,,,,,,,,,,,,,,,,,,,,,,,,,,,,,,,,,,,,,,,,,,,,,,,,,,,,,,,,,,,,,,,,,,,,,,,,,,,,,,,,,,,,,,,,,,,,,,,,,,,,,,,,,,,,,,,,,,,swingAndPointForward
accX,1.3319999999999999,-3.177,-1.0390000000000001,-1.163,0.9,-0.6409999999999999,2.117,-2.548,-0.691,-1.21,0.0,-0.9840000000000001,1.163,-2.219,0.0,-0.887,0.0,-1.334,0.737,-2.491,0.0,0.0,0.0,-1.682,1.165,-2.573,0.638,0.0,0.521,-1.9569999999999999,1.16,-4.2139999999999995,1.074,0.0,0.0,-2.436,2.0340000000000003,-4.538,0.65,0.0,0.0,-3.123,1.656,-4.336,0.0,-0.669,-0.907,-3.8489999999999998,-1.635,-3.305,0.664,-0.892,-0.6759999999999999,-3.98,-1.518,-2.832,1.196,-0.7559999999999999,0.0,-3.8169999999999997,-0.868,-1.944,0.0,0.0,0.0,-3.522,-1.486,-2.43,-1.069,0.0,0.0,-3.5410000000000004,-2.84,-3.464,-1.784,0.0,0.0,-3.56,-3.42,-2.872,-0.9209999999999999,-0.69,0.0,-3.437,-2.977,-1.425,0.0,-0.7490000000000001,0.555,-3.287,-2.4730000000000003,-1.5190000000000001,0.0,0.0,0.7290000000000001,-3.122,-2.645,-1.98,-1.07,0.0,0.562,-2.935,-3.6239999999999997,-3.1,-1.743,0.0,0.0,-2.737,-3.6460000000000004,-2.778,-1.28,-0.7170000000000001,0.685,-2.715,-2.6710000000000003,-1.8840000000000001,0.0,-0.8059999999999999,1.028,-2.6010000000000004,-1.889,-1.604,0.0,0.0,1.124,-2.394,-2.128,-2.417,0.0,0.0,1.054,-2.428,-2.739,-2.8560000000000003,-0.767,0.0,1.054,-2.565,-2.238,-2.734,-1.236,0.0,1.053,-2.66,-2.26,-2.146,-1.439,0.0,1.0070000000000001,-2.68,-3.557,-1.5090000000000001,-1.452,0.0,0.94,-2.8080000000000003,-4.8,-1.3559999999999999,-1.2990000000000002,0.0,0.7509999999999999,-2.57,-5.63,-1.338,-0.865,-0.527,0.8140000000000001,-1.9369999999999998,-4.801,-1.074,-0.509,-0.632,1.055,-1.3969999999999998,-3.4360000000000004,-0.6709999999999999,0.0,-0.521,1.056,-1.0170000000000001,-2.654,-0.605,0.0,0.0,0.797,-0.982,-3.009,-1.044,-0.647,0.0,0.0,-0.8340000000000001,-3.1510000000000002,-1.03,0.0,0.0,0.0,-0.65,-2.395,-0.758,0.0,0.0,0.519,0.0,-1.058,-0.924,0.0,0.0,0.0,0.0,0.0,-0.767,0.0,0.0,0.0,0.0,0.0,-0.866,0.0,0.0,0.0,0.0,-0.815,-0.754,0.0,0.0,0.0,0.0,-0.7,-0.5489999999999999,0.0,0.0,0.0,0.0,0.0,0.0,0.0,0.0,0.0,0.0,0.0,0.0,0.0,0.0,0.0,0.0,0.0,0.0,0.0,0.0,0.0,0.0,0.0,0.0,0.0,0.0,0.0,0.0,0.0,0.0,0.0,0.0,0.0,0.0,0.0,0.0,-0.506,0.0,0.0,0.0,0.0,0.0,0.0,0.0,0.0,0.0,0.0,0.0,-0.59,0.0,0.0,0.0,-0.602,0.0,-0.8370000000000001,0.0,0.0,0.0,-1.386,0.0,-0.9390000000000001,0.0,0.0,0.0,-2.0909999999999997,0.79,-0.998,0.0,0.0,0.0,-2.718,0.927,-1.078,0.0,0.0,0.0,-4.168,0.93,-1.374,0.0,0.0,0.0,-5.75,0.521,-1.5119999999999998,0.0,0.0,0.0,,,,,,,,,,,,,,,,,,,,,,,,,,,,,,,,,,,,,,,,,,,,,,,,,,,,,,,,,,,,,,,,,,,,,,,,,,,,,,,,,,,,,,,,,,,,,,,,,,,,,,,,,,,,,,,,,,,,,,,,,,,,,,,,,,,,,,,,,,,,,,,,,,,,,,,,,,,,,,,,,,,swingAndPointForward
accX,0.0,-0.838,-0.5479999999999999,-0.531,0.0,0.0,0.0,-0.509,0.0,-0.544,0.0,0.0,-0.754,0.0,0.0,0.0,0.0,0.0,-0.59,0.0,0.0,0.0,0.0,0.0,0.0,0.0,0.0,0.0,0.0,0.0,0.0,-0.915,0.0,0.0,0.0,0.0,0.0,-1.7409999999999999,-1.023,0.0,0.0,0.0,0.682,-1.348,-0.745,-0.5710000000000001,0.0,-0.634,0.745,-1.383,-0.519,-0.573,0.0,-0.763,2.22,-2.155,0.0,-0.574,0.0,-1.01,3.409,-3.7439999999999998,0.0,-0.634,0.0,-1.47,4.465,-4.5969999999999995,0.594,-0.929,0.0,-2.112,4.211,-3.958,0.7509999999999999,-1.182,-1.073,-2.819,2.7310000000000003,-4.68,0.0,-1.226,-1.287,-3.489,2.008,-4.809,0.0,-1.3559999999999999,-1.0090000000000001,-3.897,2.148,-4.869,0.0,-1.452,-0.747,-4.164,1.8419999999999999,-3.943,0.0,-1.3259999999999998,0.0,-4.5,0.609,-3.5269999999999997,-1.1059999999999999,-0.904,0.0,-4.888999999999999,-0.736,-4.621,-2.03,-0.882,0.0,-4.907,-2.092,-4.143,-1.725,-1.431,0.0,-4.44,-1.936,-2.983,-0.7390000000000001,-1.611,0.601,-3.9539999999999997,-1.3780000000000001,-2.7710000000000004,-0.631,-1.249,1.307,-3.4939999999999998,-1.033,-3.0669999999999997,-1.046,-0.67,1.715,-3.6289999999999996,-1.608,-4.438,-1.176,-0.591,1.5590000000000002,-3.806,-2.4,-4.512,-0.872,-0.991,1.367,-3.645,-2.679,-3.8160000000000003,0.0,-1.1520000000000001,1.6380000000000001,-3.378,-2.713,-3.51,0.0,-0.769,1.999,-3.23,-2.761,-3.852,-0.67,0.0,2.089,-3.478,-3.37,-4.824,-0.7490000000000001,0.0,2.029,-3.763,-3.675,-5.2,-0.552,0.0,1.715,-3.53,-4.4830000000000005,-4.502,0.0,-1.004,1.409,-2.847,-4.686,-2.83,0.0,-0.8590000000000001,1.7409999999999999,-2.693,-4.836,-2.657,-0.59,0.0,1.739,-2.674,-5.038,-2.824,-1.083,0.0,1.334,-2.265,-5.609,-2.839,-1.444,-0.618,1.24,-1.7919999999999998,-5.282,-1.5190000000000001,-1.247,-0.532,1.244,-1.3259999999999998,-5.585,-1.41,-1.305,0.0,1.222,-1.087,-5.185,-1.319,-1.254,0.0,1.004,-0.89,-4.323,-1.044,-0.978,0.0,0.713,-0.654,-3.3569999999999998,-0.975,-1.052,0.0,0.573,0.0,-2.205,-0.948,-1.018,0.0,0.0,0.0,-1.3159999999999998,0.0,-0.5539999999999999,0.0,0.0,0.0,0.0,0.0,0.0,0.0,0.0,0.0,0.0,-0.88,0.0,0.0,0.0,0.0,0.0,-0.614,0.0,0.0,0.0,0.0,0.0,0.0,0.0,0.0,0.0,0.0,0.0,0.0,0.0,0.0,0.0,0.0,-0.55,-0.5379999999999999,0.0,0.0,0.0,0.0,-0.753,-0.5670000000000001,0.0,0.0,0.0,0.0,-1.476,0.0,0.0,0.0,0.0,0.0,-2.412,0.0,0.0,0.0,0.0,0.0,-3.9539999999999997,0.0,-0.6629999999999999,0.643,0.0,0.0,,,,,,,,,,,,,,,,,,,,,,,,,,,,,,,,,,,,,,,,,,,,,,,,,,,,,,,,,,,,,,,,,,,,,,,,,,,,,,,,,,,,,,,,,,,,,,,,,,,,,,,,,,,,,,,,,,,,,,,,,,,,,,,,,,,,,,,,,,,,,,,,,,,,,,,,,,,,,,,,,,,,,,,,,swingAndPointForward
accX,-1.2009999999999998,0.0,-0.5529999999999999,-1.1159999999999999,0.0,0.0,-0.9159999999999999,0.0,0.0,-0.9490000000000001,0.0,0.0,0.0,-0.534,0.0,-0.674,0.0,0.0,0.7929999999999999,-0.769,0.0,0.0,0.0,0.0,1.7069999999999999,-1.4580000000000002,0.0,0.0,0.0,0.0,2.457,-1.912,-0.6920000000000001,0.0,0.0,-0.645,2.88,-2.469,-1.2570000000000001,0.0,0.0,-1.135,2.555,-2.54,-1.23,-0.647,0.0,-1.5519999999999998,2.171,-2.8510000000000004,-0.888,-0.728,0.0,-1.786,2.138,-3.2739999999999996,0.0,-0.73,0.0,-2.036,2.272,-3.304,-0.598,-0.6890000000000001,0.0,-2.508,2.647,-3.737,0.0,-0.7509999999999999,0.0,-2.839,2.042,-4.269,0.0,-0.934,0.0,-3.33,0.0,-3.9339999999999997,0.0,-0.843,0.0,-3.72,0.0,-4.09,0.0,-0.8370000000000001,0.0,-3.985,0.0,-4.22,0.0,-0.919,0.0,-3.951,0.0,-4.002,0.0,-0.893,0.0,-3.82,-0.8029999999999999,-3.53,-0.6970000000000001,-0.67,0.0,-3.9819999999999998,-1.885,-4.243,-1.275,-0.613,0.0,-4.291,-2.865,-4.335,-0.866,-1.0290000000000001,0.0,-4.209,-3.6519999999999997,-3.562,0.0,-1.3259999999999998,0.618,-3.815,-3.395,-2.6239999999999997,0.0,-1.095,1.1340000000000001,-3.426,-3.177,-2.891,-0.561,-0.59,1.382,-3.3339999999999996,-3.446,-3.862,-1.016,0.0,1.28,-3.34,-3.637,-3.9189999999999996,-0.727,-0.745,1.29,-3.2889999999999997,-3.509,-3.3760000000000003,0.0,-0.868,1.365,-3.037,-2.958,-2.785,0.0,-0.59,1.4980000000000002,-2.795,-3.58,-2.909,-1.136,0.0,1.4169999999999998,-2.8139999999999996,-4.296,-2.927,-1.6380000000000001,0.0,1.084,-2.883,-5.531000000000001,-2.4090000000000003,-1.486,-0.546,0.9309999999999999,-2.485,-5.371,-1.381,-0.968,-0.657,1.246,-1.919,-4.415,-1.048,-0.621,0.0,1.557,-1.499,-3.8960000000000004,-1.3430000000000002,-1.133,0.0,1.406,-1.2819999999999998,-3.112,-1.1440000000000001,-1.39,0.0,0.85,-1.218,-3.306,-1.395,-1.525,0.0,0.0,-1.119,-3.426,-1.368,-1.15,-0.56,0.529,-0.986,-2.9410000000000003,-1.1179999999999999,-0.53,0.0,0.745,-0.627,-2.363,-1.224,0.0,0.0,0.8420000000000001,0.0,-1.111,-1.265,0.0,0.0,0.594,0.0,-1.196,-1.24,0.0,0.0,0.0,0.0,-1.705,-1.4269999999999998,0.0,0.0,0.0,0.0,-2.117,-1.124,0.0,0.0,0.0,0.0,-1.516,-0.8029999999999999,0.0,0.0,0.0,0.0,-0.581,-0.713,0.0,0.0,0.0,0.0,0.0,-1.073,0.0,0.0,0.0,0.0,0.0,-1.314,-0.6809999999999999,0.0,0.0,0.0,0.0,-0.932,-0.6509999999999999,0.0,0.0,0.0,0.536,-0.5670000000000001,0.0,0.0,0.0,0.0,0.978,-0.721,-0.568,0.0,0.0,0.0,0.644,-0.7929999999999999,-0.723,0.0,0.0,0.0,0.0,-0.529,-0.539,0.0,0.0,0.0,0.0,0.0,0.0,0.0,0.0,0.0,0.0,0.0,0.0,0.0,0.0,0.0,0.0,-0.5489999999999999,0.0,0.0,0.0,0.0,0.0,0.0,0.0,0.0,0.0,0.0,-0.938,0.0,0.0,0.0,0.0,0.0,-0.8420000000000001,0.0,0.0,0.561,0.0,0.0,,,,,,,,,,,,,,,,,,,,,,,,,,,,,,,,,,,,,,,,,,,,,,,,,,,,,,,,,,,,,,,,,,,,,,,,,,,,,,,,,,,,,,,,,,,,,,,,,,,,,,,,,,,,,,,,,,,,,,,,,,,,,,,,,,,,,,,,,,,swingAndPointForward
accX,0.0,-1.216,-0.585,-0.8640000000000001,0.0,0.0,0.0,0.0,0.0,-0.978,0.0,0.0,1.155,0.0,0.0,-0.536,0.0,0.0,1.8719999999999999,-1.35,0.0,0.0,0.0,0.0,2.276,-1.4180000000000001,0.0,0.0,0.0,-0.698,2.249,-1.661,0.0,0.0,0.0,-1.097,1.9969999999999999,-1.462,0.0,0.0,0.0,-1.3619999999999999,2.016,-2.522,-0.858,0.0,0.0,-1.535,2.218,-3.2439999999999998,-0.629,-0.66,0.0,-1.754,2.7710000000000004,-3.3789999999999996,0.0,-0.727,0.0,-2.073,3.362,-3.3539999999999996,0.0,-0.585,0.0,-2.582,2.984,-4.664,0.0,-0.612,0.0,-3.085,2.176,-5.284,0.0,-0.9329999999999999,0.0,-3.674,1.131,-4.773,0.0,-1.156,0.0,-4.086,1.173,-2.535,0.0,-0.9159999999999999,0.0,-4.3260000000000005,0.0,-3.406,-1.5619999999999998,0.0,0.0,-4.696000000000001,-1.8519999999999999,-4.511,-2.401,-0.94,0.0,-4.5089999999999995,-3.253,-3.037,-1.557,-1.676,0.0,-4.117,-2.8819999999999997,-1.694,0.0,-1.6130000000000002,0.9279999999999999,-3.688,-1.75,-1.8940000000000001,0.0,-0.9440000000000001,1.619,-3.2489999999999997,-0.6990000000000001,-3.392,-0.981,0.0,1.806,-3.2,-0.56,-4.21,-1.453,-0.507,1.6159999999999999,-3.423,-1.505,-4.194,-1.084,-0.758,1.4,-3.681,-1.575,-3.7089999999999996,-0.8190000000000001,-0.68,1.521,-3.859,-1.926,-3.8539999999999996,-0.821,0.0,1.695,-4.093999999999999,-1.8230000000000002,-4.25,-1.0490000000000002,0.0,1.746,-4.428999999999999,-2.526,-5.94,-1.662,-0.518,1.065,-3.991,-4.876,-4.74,-1.359,-0.953,1.186,-3.471,-6.027,-3.214,-1.051,-0.618,1.791,-3.2689999999999997,-5.6739999999999995,-2.765,-0.534,0.0,1.995,-2.958,-5.39,-2.8110000000000004,0.0,0.0,1.6680000000000001,-2.67,-5.399,-2.427,-0.506,0.0,1.014,-2.177,-6.87,-1.609,0.0,0.0,0.79,-1.625,-6.928,-1.7730000000000001,-0.632,0.0,0.9259999999999999,-1.147,-5.827000000000001,-1.507,0.0,0.0,1.092,-0.8420000000000001,-4.224,-1.105,0.0,0.0,0.8540000000000001,-0.635,-3.278,-1.073,-0.529,0.0,0.506,-0.574,-3.005,-1.195,-0.763,0.0,0.0,-0.51,-2.3680000000000003,-0.9159999999999999,-0.9390000000000001,0.0,0.0,0.0,-2.167,-1.13,-1.102,0.0,0.0,0.0,-1.483,-0.914,-0.9109999999999999,0.0,0.0,0.0,-0.747,-0.629,-0.5329999999999999,0.0,0.0,0.0,0.0,-0.535,0.0,0.0,0.0,0.0,0.0,-0.629,0.0,0.0,0.0,0.0,0.0,-0.665,0.0,0.0,0.0,0.0,-0.853,0.0,0.0,0.0,0.0,0.0,-1.4080000000000001,0.56,0.0,0.519,0.0,0.0,,,,,,,,,,,,,,,,,,,,,,,,,,,,,,,,,,,,,,,,,,,,,,,,,,,,,,,,,,,,,,,,,,,,,,,,,,,,,,,,,,,,,,,,,,,,,,,,,,,,,,,,,,,,,,,,,,,,,,,,,,,,,,,,,,,,,,,,,,,,,,,,,,,,,,,,,,,,,,,,,,,,,,,,,,,,,,,,,,,,,,,,,,,,,,,,,,,,,,,swingAndPointForward
accX,-1.055,0.0,0.0,-0.76,0.625,0.0,0.0,0.0,0.0,-0.6679999999999999,0.752,0.0,0.0,0.0,0.0,0.0,0.6559999999999999,0.0,0.622,-0.718,0.0,0.0,0.0,0.0,0.0,-0.9740000000000001,0.0,0.0,0.0,0.0,0.0,-0.527,0.0,0.0,0.0,-0.629,0.0,-0.871,-0.711,0.0,0.0,-0.687,0.0,-0.983,-0.695,0.0,0.0,-0.733,0.0,-0.845,-0.713,0.0,0.0,-0.8490000000000001,0.0,-0.863,0.0,0.0,0.0,-0.9790000000000001,0.0,-0.9540000000000001,0.0,0.0,0.0,-1.14,1.2229999999999999,-2.199,-0.893,0.0,0.0,-1.55,0.0,-1.2429999999999999,-1.07,0.0,0.56,-1.693,0.0,-1.797,-1.1340000000000001,0.0,0.856,-1.7590000000000001,0.0,-1.869,-0.705,0.0,0.9940000000000001,-1.8840000000000001,0.9840000000000001,-2.95,0.0,0.0,0.757,-2.187,2.384,-3.5839999999999996,0.0,-0.7290000000000001,0.0,-2.852,1.465,-3.99,0.5329999999999999,-0.991,-0.726,-3.67,0.718,-4.48,0.794,-1.078,-0.988,-4.373,-0.759,-3.563,0.0,-1.047,-0.943,-4.785,-2.041,-3.792,0.0,-0.8270000000000001,-0.502,-4.746,-1.646,-3.992,-0.5539999999999999,-0.718,0.0,-4.721,-1.173,-4.322,0.0,-0.708,0.516,-4.695,-0.7440000000000001,-3.9410000000000003,0.7709999999999999,-0.684,0.595,-4.6610000000000005,-1.0759999999999998,-3.406,0.564,0.0,0.588,-4.739,-1.5930000000000002,-4.254,0.0,0.0,0.598,-5.043,-2.252,-5.856,-0.721,0.0,0.523,-4.92,-3.074,-5.631,-0.644,-0.861,0.0,-4.293,-3.467,-4.249,0.0,-1.3130000000000002,0.532,-3.573,-3.261,-4.131,0.0,-1.0979999999999999,1.083,-3.0460000000000003,-1.985,-4.341,0.0,-0.662,1.5719999999999998,-2.822,-1.053,-4.771,0.0,0.0,1.6280000000000001,-2.7489999999999997,-1.324,-4.42,0.0,0.0,1.465,-2.927,-2.515,-4.2589999999999995,-1.348,0.0,1.3530000000000002,-3.301,-4.66,-3.678,-1.4880000000000002,0.0,1.208,-3.1689999999999996,-6.32,-2.625,-1.214,0.0,1.215,-1.9680000000000002,-6.211,-2.039,-0.8140000000000001,0.0,1.551,-1.2919999999999998,-4.981,-2.167,-1.105,0.0,1.4409999999999998,-1.061,-3.75,-2.022,-1.5219999999999998,0.0,0.998,-1.149,-4.245,-1.889,-1.6669999999999998,0.0,0.66,-1.124,-4.815,-1.364,-1.5330000000000001,0.0,0.611,-0.85,-4.7330000000000005,-0.648,-1.258,0.0,0.613,0.0,-3.7880000000000003,-0.6990000000000001,-1.1640000000000001,0.0,0.551,0.0,-2.5469999999999997,-1.615,-1.653,0.0,0.508,0.0,-1.55,-1.5390000000000001,-1.598,0.0,0.0,0.0,-1.344,-0.843,-0.6409999999999999,0.0,0.0,0.0,-0.511,0.0,0.0,0.0,0.0,0.0,0.0,-0.573,0.0,0.0,0.0,0.0,0.0,-1.286,0.0,0.0,0.0,0.0,-0.7809999999999999,-1.082,-0.81,0.0,0.0,0.0,-0.534,-0.871,0.0,0.0,0.0,0.0,0.0,0.0,0.0,0.0,0.0,0.0,,,,,,,,,,,,,,,,,,,,,,,,,,,,,,,,,,,,,,,,,,,,,,,,,,,,,,,,,,,,,,,,,,,,,,,,,,,,,,,,,,,,,,,,,,,,,,,,,,,,,,,,,,,,,,,,,,,,,,,,,,,,,,,,,,,,,,,,,,,,,,,,,,,,,,,,,,,,,,,,,,,,,,,,,swingAndPointForward
accX,0.0,-0.802,0.0,-0.7509999999999999,0.0,0.0,0.0,-0.69,0.0,-0.879,0.0,0.0,0.52,-0.7929999999999999,0.0,-0.973,0.0,0.0,1.462,-1.2670000000000001,0.0,-0.813,0.0,-0.546,1.8359999999999999,-2.206,-0.594,-0.745,0.0,-0.9520000000000001,2.059,-2.6210000000000004,0.0,-0.6759999999999999,0.0,-1.285,2.292,-2.391,0.0,-0.541,0.0,-1.669,2.855,-2.8510000000000004,0.0,0.0,0.0,-2.095,2.042,-3.305,0.0,-0.529,0.0,-2.594,1.158,-3.983,0.0,-0.736,0.0,-3.0460000000000003,0.0,-4.285,0.687,-0.8859999999999999,0.0,-3.306,0.0,-2.912,1.122,-0.615,0.0,-3.4389999999999996,0.525,-2.83,0.0,0.0,0.0,-3.552,0.0,-4.024,-0.705,0.0,0.0,-3.965,0.0,-4.287,-1.385,0.0,0.0,-4.257,-1.81,-3.773,-1.011,-0.853,0.0,-4.158,-2.318,-2.679,0.0,-0.92,0.0,-3.8689999999999998,-1.93,-1.996,0.0,0.0,0.81,-3.6260000000000003,-1.5759999999999998,-3.01,-1.115,0.0,1.015,-3.825,-2.26,-4.138999999999999,-1.578,0.0,0.895,-3.963,-3.1439999999999997,-3.88,-1.4580000000000002,-0.552,0.745,-3.8360000000000003,-3.766,-2.7239999999999998,-1.265,-0.792,0.769,-3.537,-4.224,-2.7430000000000003,-1.321,-0.7020000000000001,0.927,-3.2680000000000002,-4.026,-3.576,-1.2429999999999999,-0.561,1.3730000000000002,-3.008,-2.9139999999999997,-3.722,-0.591,-0.5579999999999999,1.807,-2.775,-1.7630000000000001,-3.6689999999999996,-0.6920000000000001,0.0,1.733,-2.7289999999999996,-1.69,-3.675,-1.465,0.0,1.177,-3.033,-3.2960000000000003,-4.217,-2.248,-0.583,0.69,-3.266,-4.459,-3.4189999999999996,-1.824,-0.8759999999999999,0.9209999999999999,-3.187,-4.3069999999999995,-2.427,-0.759,-0.8440000000000001,1.449,-2.668,-3.185,-2.824,0.0,-0.546,1.714,-2.072,-2.334,-2.6,0.0,0.0,1.649,-1.844,-2.775,-2.501,-1.065,0.0,1.275,-1.955,-3.312,-2.157,-1.754,0.0,0.735,-1.8980000000000001,-4.632,-1.969,-1.765,-0.6559999999999999,0.5720000000000001,-1.4480000000000002,-4.89,-1.811,-1.466,-0.779,0.938,-0.978,-4.067,-1.4409999999999998,-0.705,-0.579,1.189,0.0,-2.716,-1.285,0.0,0.0,0.815,0.0,-2.12,-1.3,0.0,0.0,0.0,0.0,-2.097,-1.5659999999999998,0.0,0.0,0.0,0.0,-1.6030000000000002,-1.226,-0.5820000000000001,0.0,0.0,0.0,-1.146,-1.119,-0.831,0.0,0.0,0.0,-0.903,-1.095,-0.693,0.0,0.0,0.0,-0.848,-1.099,0.0,0.0,0.0,0.0,0.0,-0.9440000000000001,0.0,0.0,0.0,0.0,0.0,-0.905,0.0,0.0,0.0,0.0,0.92,0.0,0.0,0.0,0.0,0.0,0.0,-1.288,0.0,0.0,0.0,0.0,0.0,-1.261,-0.7120000000000001,0.0,0.0,0.0,-0.741,0.0,0.0,0.0,0.0,0.0,,,,,,,,,,,,,,,,,,,,,,,,,,,,,,,,,,,,,,,,,,,,,,,,,,,,,,,,,,,,,,,,,,,,,,,,,,,,,,,,,,,,,,,,,,,,,,,,,,,,,,,,,,,,,,,,,,,,,,,,,,,,,,,,,,,,,,,,,,,,,,,,,,,,,,,,,,,,,,,,,,,,,,,,,,,,,,,,,,,,,swingAndPointForward
accX,-0.945,0.0,0.0,-1.0090000000000001,0.583,0.0,0.0,0.0,0.0,-0.863,0.524,0.0,0.7709999999999999,0.0,0.0,-0.563,0.0,0.0,1.814,-1.1520000000000001,0.0,0.0,0.0,0.0,2.634,-2.386,-0.903,0.0,0.0,-0.616,3.017,-2.9010000000000002,-1.1640000000000001,-0.5820000000000001,0.0,-1.2409999999999999,2.8139999999999996,-2.379,-0.941,-0.693,0.0,-1.7169999999999999,2.209,-2.715,-0.5539999999999999,-0.7340000000000001,0.0,-1.965,1.2229999999999999,-2.5340000000000003,0.0,-0.638,0.0,-2.07,0.9109999999999999,-2.698,0.0,-0.527,0.0,-2.181,1.193,-2.8539999999999996,0.0,0.0,0.0,-2.423,1.2590000000000001,-3.21,-0.627,0.0,0.0,-2.72,0.0,-3.5189999999999997,0.0,-0.654,0.0,-2.9210000000000003,0.0,-3.78,0.0,-0.7340000000000001,0.0,-3.103,0.0,-3.7439999999999998,0.0,-0.627,0.679,-3.227,0.0,-3.563,0.0,0.0,0.0,-3.574,-1.013,-4.678999999999999,0.0,0.0,0.0,-3.7319999999999998,-1.909,-4.632,0.0,-0.7120000000000001,0.0,-3.759,-1.558,-3.804,0.0,-0.6559999999999999,0.685,-3.875,-1.781,-3.734,-0.56,0.0,0.612,-3.884,-2.7319999999999998,-4.17,-0.647,-0.501,0.0,-3.8680000000000003,-3.658,-4.397,-0.5329999999999999,-0.631,0.535,-3.77,-3.702,-3.63,0.0,-0.69,0.9790000000000001,-3.5460000000000003,-3.341,-3.3510000000000004,0.0,0.0,1.227,-3.505,-3.472,-3.6839999999999997,0.0,0.0,1.207,-3.417,-3.888,-3.9410000000000003,-0.632,0.0,1.1340000000000001,-3.1439999999999997,-4.03,-3.27,-1.105,0.0,1.109,-2.9019999999999997,-4.187,-3.5389999999999997,-1.393,0.0,1.057,-2.8280000000000003,-4.26,-2.943,-0.855,0.0,1.147,-2.72,-3.7539999999999996,-2.5,0.0,0.0,1.335,-2.557,-2.465,-2.4330000000000003,0.0,0.0,1.348,-2.27,-2.049,-3.0180000000000002,-0.879,0.0,1.03,-2.112,-2.353,-2.7489999999999997,-1.413,0.0,0.836,-2.214,-3.267,-1.925,-2.13,0.0,0.743,-2.326,-4.801,-0.7709999999999999,-2.1,0.0,0.6890000000000001,-2.245,-5.707999999999999,0.0,-1.916,0.0,0.7759999999999999,-1.714,-4.9719999999999995,0.0,-1.72,0.0,0.8959999999999999,-1.001,-3.855,-0.594,-1.527,0.0,1.0170000000000001,-0.598,-2.812,-0.83,-1.245,0.0,0.9079999999999999,0.0,-2.084,-0.6809999999999999,-0.792,0.0,0.74,0.0,-1.432,-0.645,-0.638,0.0,0.0,0.0,-1.432,-0.6920000000000001,-0.789,0.0,0.0,0.0,-1.819,-0.716,-0.7559999999999999,0.0,0.0,0.0,-1.489,-0.889,-0.675,0.0,0.0,0.0,-0.5710000000000001,-0.75,0.0,0.0,0.0,0.0,0.655,-0.8029999999999999,-0.509,0.0,0.0,0.0,0.846,-1.037,-0.6659999999999999,0.0,0.0,0.0,0.0,-1.159,-0.8390000000000001,0.0,0.0,0.0,0.0,0.0,-0.7759999999999999,0.0,0.0,0.0,,,,,,,,,,,,,,,,,,,,,,,,,,,,,,,,,,,,,,,,,,,,,,,,,,,,,,,,,,,,,,,,,,,,,,,,,,,,,,,,,,,,,,,,,,,,,,,,,,,,,,,,,,,,,,,,,,,,,,,,,,,,,,,,,,,,,,,,,,,,,,,,,,,,,,,,,,,,,,,,,,,,,,,,,,,,,,,,,,,,,,,,,,,swingAndPointForward
accX,1.2830000000000001,-1.534,-1.105,-1.204,0.5539999999999999,0.0,1.7790000000000001,-0.637,-0.687,-0.9009999999999999,0.0,0.0,2.217,-1.6769999999999998,-0.966,-0.725,0.0,-0.6940000000000001,1.54,-2.265,-1.3419999999999999,-0.6759999999999999,0.0,-1.193,1.067,-1.962,-0.857,-0.654,0.0,-1.5090000000000001,0.902,-1.618,0.0,0.0,0.0,-1.617,1.028,-2.347,0.0,0.0,0.505,-1.797,1.4980000000000002,-2.998,0.0,0.0,0.514,-2.069,1.885,-3.0439999999999996,0.0,0.0,0.0,-2.5669999999999997,1.9069999999999998,-3.557,-0.727,0.0,0.0,-3.08,0.8640000000000001,-3.947,-0.877,-0.713,0.0,-3.429,-0.513,-3.911,-0.529,-0.894,0.0,-3.4819999999999998,-0.919,-3.134,0.0,-0.7509999999999999,0.0,-3.489,0.0,-2.259,-1.1,0.0,0.0,-3.8089999999999997,-0.6920000000000001,-3.469,-2.1590000000000003,-0.6709999999999999,0.0,-3.995,-2.44,-3.673,-2.121,-1.094,0.0,-3.918,-3.312,-2.833,-1.19,-1.1340000000000001,0.8029999999999999,-3.406,-3.386,-2.435,0.0,-0.6809999999999999,1.6669999999999998,-2.784,-1.889,-2.717,0.0,0.0,2.147,-2.656,0.0,-4.138999999999999,-0.657,0.0,1.6369999999999998,-3.343,-0.6659999999999999,-5.42,-0.617,0.0,1.053,-3.907,-1.703,-4.535,-0.845,0.0,0.713,-4.25,-3.202,-4.313,-1.156,0.0,0.7440000000000001,-4.371,-3.697,-4.4,-1.085,0.0,1.1,-4.388,-4.111000000000001,-5.212000000000001,-1.168,0.0,1.29,-3.845,-3.989,-4.025,-0.5429999999999999,0.0,1.5490000000000002,-3.075,-3.4339999999999997,-2.972,0.0,0.0,1.795,-2.562,-3.347,-2.985,-0.745,0.0,1.75,-2.45,-3.593,-3.2060000000000004,-1.163,0.0,1.464,-2.296,-3.86,-2.423,-1.0090000000000001,0.0,1.357,-2.0869999999999997,-3.24,-1.577,-0.846,0.0,1.3619999999999999,-1.8359999999999999,-3.3569999999999998,-1.0,-1.2,0.0,1.213,-1.675,-3.748,-0.6729999999999999,-1.202,0.0,0.8590000000000001,-1.5490000000000002,-3.998,0.0,-1.3130000000000002,0.0,0.664,-1.197,-3.699,-0.715,-1.545,0.0,0.831,-0.835,-2.721,-0.9179999999999999,-1.547,0.0,1.0390000000000001,-0.535,-2.0140000000000002,-1.051,-1.6469999999999998,0.0,1.0,-0.503,-2.335,-0.7879999999999999,-1.472,0.0,0.682,-0.56,-2.7889999999999997,0.0,-1.222,0.0,0.0,0.0,-2.792,0.0,-1.291,0.0,0.0,0.0,-2.041,-0.591,-1.197,0.0,0.0,0.0,-0.929,0.0,-1.0,0.0,0.0,0.0,0.0,0.0,-0.9,0.0,0.0,0.0,0.0,-0.556,-0.868,0.0,0.0,0.0,0.0,0.0,-0.631,0.0,0.0,0.0,0.0,0.0,-0.561,0.0,0.0,0.0,0.52,-0.909,-0.5429999999999999,0.0,0.0,0.0,0.0,-0.5760000000000001,-0.6659999999999999,0.0,0.0,0.0,,,,,,,,,,,,,,,,,,,,,,,,,,,,,,,,,,,,,,,,,,,,,,,,,,,,,,,,,,,,,,,,,,,,,,,,,,,,,,,,,,,,,,,,,,,,,,,,,,,,,,,,,,,,,,,,,,,,,,,,,,,,,,,,,,,,,,,,,,,,,,,,,,,,,,,,,,,,,,,,,,,,,,,,,,,,,,,,,,,,,,,,,,,,,,,,,swingAndPointForward
accX,2.748,-2.441,-1.207,-1.494,0.0,-1.006,2.454,-1.8719999999999999,0.0,-1.207,0.0,-1.365,0.816,-1.859,0.0,-0.767,0.0,-1.463,0.0,-2.095,0.0,0.0,0.8059999999999999,-1.569,1.466,-2.588,0.0,0.0,0.9740000000000001,-1.864,2.112,-3.4339999999999997,0.0,0.0,0.821,-2.381,2.08,-3.952,-0.617,0.0,0.0,-2.85,1.207,-4.2219999999999995,0.0,-0.574,0.0,-3.2510000000000003,0.0,-4.038,0.0,-0.605,0.0,-3.455,0.0,-3.583,0.0,0.0,0.605,-3.5469999999999997,0.536,-3.5260000000000002,-0.654,0.0,0.0,-3.676,0.0,-4.43,-1.338,0.0,0.0,-3.9189999999999996,-0.961,-4.023,-0.593,-0.605,0.706,-4.156000000000001,-0.7020000000000001,-3.572,0.0,0.0,0.99,-4.148,0.0,-3.596,0.0,0.0,1.099,-4.131,0.0,-4.886,-1.544,0.0,0.685,-4.093,-1.057,-5.4670000000000005,-2.332,-0.7829999999999999,0.0,-4.268,-2.3609999999999998,-4.335,-1.3219999999999998,-1.02,0.833,-4.357,-2.722,-3.22,0.0,-0.598,1.3019999999999998,-4.062,-2.918,-3.2539999999999996,0.0,0.0,1.7009999999999998,-3.873,-2.47,-4.041,-1.575,0.0,1.226,-3.678,-6.021,-3.0639999999999996,-2.0580000000000003,-0.501,1.156,-3.534,-6.172999999999999,-1.632,-1.7930000000000001,0.0,1.588,-3.111,-6.1339999999999995,-1.912,-2.12,0.0,1.742,-2.682,-5.874,-2.65,-2.088,0.0,1.577,-2.351,-5.718,-1.9469999999999998,-1.589,0.0,1.409,-2.003,-5.003,-1.419,-1.249,0.0,1.382,-1.735,-3.957,-1.022,-1.29,0.0,1.2109999999999999,-1.521,-3.968,-1.5030000000000001,-1.8730000000000002,0.0,1.01,-1.3559999999999999,-3.9189999999999996,-1.726,-1.906,0.0,0.968,-1.2209999999999999,-3.775,-1.23,-1.47,0.0,0.991,-0.973,-2.748,-0.965,-1.065,0.0,0.927,-0.741,-2.425,-0.732,-0.595,0.0,0.733,-0.581,-2.423,-0.9990000000000001,-0.504,0.0,0.562,0.0,-2.25,-1.35,-0.9,0.0,0.0,0.0,-1.766,-1.3619999999999999,-0.846,0.0,0.522,0.0,-1.3659999999999999,-1.1,0.0,0.0,0.0,0.0,-1.094,0.0,0.0,0.0,0.0,0.0,-1.158,-0.514,0.0,0.0,0.0,0.0,-1.044,-1.06,-0.54,0.0,0.0,0.0,-0.7120000000000001,-1.272,-0.741,0.0,0.0,0.0,0.0,-1.158,-0.562,0.0,0.0,0.0,0.0,-0.6890000000000001,0.0,0.0,0.0,0.0,,,,,,,,,,,,,,,,,,,,,,,,,,,,,,,,,,,,,,,,,,,,,,,,,,,,,,,,,,,,,,,,,,,,,,,,,,,,,,,,,,,,,,,,,,,,,,,,,,,,,,,,,,,,,,,,,,,,,,,,,,,,,,,,,,,,,,,,,,,,,,,,,,,,,,,,,,,,,,,,,,,,,,,,,,,,,,,,,,,,,,,,,,,,,,,,,,,,,,,,,,,,,,,,,,,,,,,,,,,,,,,swingAndPointForward
accX,0.0,-1.176,-0.565,-0.638,0.0,0.0,0.0,0.0,0.0,-0.7390000000000001,0.5479999999999999,0.0,1.815,-0.9159999999999999,0.0,0.0,0.502,0.0,3.2910000000000004,-2.843,0.0,0.0,0.0,0.0,4.558,-4.004,0.0,0.0,0.0,-1.3,5.066,-4.041,0.0,0.0,-0.546,-2.295,4.567,-3.9989999999999997,-0.611,-0.519,-1.13,-2.99,2.237,-4.095,-0.7829999999999999,-0.7829999999999999,-1.0170000000000001,-3.285,0.67,-3.59,-0.535,-0.72,0.0,-3.208,0.0,-3.377,0.0,0.0,0.519,-3.009,0.743,-3.405,-0.621,0.0,0.972,-3.062,1.452,-3.906,-1.093,0.0,0.685,-3.292,0.0,-4.498,-1.051,-0.66,0.506,-3.575,0.0,-4.503,0.0,-0.777,0.7390000000000001,-3.765,0.0,-3.65,0.0,0.0,0.985,-3.8560000000000003,0.0,-3.225,-0.557,0.0,0.83,-4.188,0.0,-5.242000000000001,-2.641,0.0,0.0,-4.208,-3.193,-5.144,-2.904,-1.155,0.579,-4.173,-4.045,-3.55,-1.405,-1.163,1.444,-3.909,-3.5380000000000003,-2.181,0.0,0.0,2.052,-3.431,-2.274,-2.603,0.0,0.0,2.229,-3.2510000000000003,-1.436,-3.7689999999999997,-0.878,0.583,1.9480000000000002,-3.4560000000000004,-2.074,-5.442,-2.208,0.0,1.425,-3.648,-3.6519999999999997,-4.129,-1.574,-0.502,1.361,-3.6519999999999997,-4.055,-2.688,0.0,0.0,1.581,-3.273,-4.187,-2.42,0.0,0.0,2.063,-3.0389999999999997,-3.108,-3.187,-1.496,0.541,1.83,-3.307,-4.206,-3.392,-1.633,0.0,1.056,-3.157,-5.587000000000001,-1.751,-1.399,0.0,0.7509999999999999,-2.6319999999999997,-5.605,-1.03,-1.505,0.0,1.1520000000000001,-2.272,-5.002,-0.634,-1.5090000000000001,0.0,1.16,-1.85,-4.606,-0.82,-1.365,0.0,1.035,-1.4269999999999998,-3.6430000000000002,-1.06,-1.619,0.0,0.816,-1.207,-3.023,-0.843,-1.494,0.0,0.54,-1.187,-3.0060000000000002,0.0,-1.2590000000000001,0.0,0.0,-1.1320000000000001,-2.947,0.0,-1.087,0.0,0.0,-0.912,-2.9410000000000003,0.0,-1.215,0.0,0.0,-0.601,-2.265,-0.511,-1.249,0.0,0.0,0.0,-0.932,-0.96,-1.12,0.0,0.0,0.0,0.0,-0.608,-0.55,0.0,0.0,0.0,0.0,0.0,0.0,0.0,0.0,0.0,-0.645,0.0,0.0,0.0,0.0,0.0,-1.4680000000000002,-0.632,0.0,0.0,0.0,0.0,-1.699,-0.963,-0.638,0.0,0.0,0.0,,,,,,,,,,,,,,,,,,,,,,,,,,,,,,,,,,,,,,,,,,,,,,,,,,,,,,,,,,,,,,,,,,,,,,,,,,,,,,,,,,,,,,,,,,,,,,,,,,,,,,,,,,,,,,,,,,,,,,,,,,,,,,,,,,,,,,,,,,,,,,,,,,,,,,,,,,,,,,,,,,,,,,,,,,,,,,,,,,,,,,,,,,,,,,,,,,,,,,,,,,,,,,,,,,,,,,,,,swingAndPointForward
accX,0.0,0.0,0.0,-0.7829999999999999,0.0,0.0,0.765,0.0,0.0,-0.502,0.0,0.0,0.7020000000000001,-1.4180000000000001,-0.5539999999999999,0.0,0.0,0.0,1.182,-2.7039999999999997,-0.815,0.0,0.555,-0.787,1.757,-3.239,-0.68,0.0,0.6609999999999999,-1.296,1.804,-4.021,0.0,0.0,0.531,-1.8419999999999999,1.446,-4.239,0.0,0.0,0.0,-2.254,1.514,-4.176,0.0,0.0,0.0,-2.676,0.9740000000000001,-3.867,0.0,0.0,0.0,-3.1660000000000004,0.0,-4.162,-1.061,0.0,0.0,-3.693,-1.409,-4.6,-1.127,-0.885,0.0,-3.7689999999999997,-2.7039999999999997,-4.178999999999999,0.0,-1.021,0.518,-3.693,-2.041,-3.008,0.0,-0.665,0.8490000000000001,-3.6839999999999997,-1.121,-2.255,0.0,0.0,0.591,-3.843,-1.574,-3.637,-1.409,0.0,0.0,-3.997,-3.445,-4.71,-1.875,-0.9059999999999999,0.0,-3.81,-3.9939999999999998,-3.096,-0.885,-0.875,1.1540000000000001,-3.5389999999999997,-2.8810000000000002,-2.137,0.0,0.0,1.4080000000000001,-3.302,-2.289,-2.401,-0.909,0.0,1.145,-3.3680000000000003,-2.492,-3.8539999999999996,-1.86,0.0,0.802,-3.616,-3.713,-4.613,-1.9580000000000002,-0.706,0.853,-3.4589999999999996,-4.285,-3.234,-0.924,-0.649,1.431,-3.19,-3.0989999999999998,-2.495,0.0,0.0,1.72,-2.904,-2.202,-3.61,-0.606,0.0,1.685,-2.966,-1.214,-3.812,-1.403,0.0,1.354,-3.529,-1.857,-5.092,-2.708,0.0,0.662,-3.91,-3.7230000000000003,-4.258,-2.7430000000000003,-0.8190000000000001,0.0,-3.613,-5.976,-2.583,-1.743,-0.753,1.111,-3.017,-5.018,-1.851,-0.831,0.0,1.682,-2.407,-3.5039999999999996,-2.3,-1.489,0.0,1.6540000000000001,-2.384,-3.002,-3.552,-2.495,0.0,0.9620000000000001,-2.4290000000000003,-4.843999999999999,-2.505,-2.461,-0.6459999999999999,0.623,-2.059,-5.875,-1.401,-1.777,-0.579,1.037,-1.5430000000000001,-4.439,-0.917,-1.014,0.0,1.171,-1.051,-3.009,-1.6030000000000002,-1.016,0.0,1.0070000000000001,-0.856,-1.7890000000000001,-2.19,-1.307,0.0,0.586,-0.7929999999999999,-1.568,-0.976,-0.907,0.0,0.645,-0.6509999999999999,-0.574,-0.84,-0.9440000000000001,0.0,0.6729999999999999,-0.524,0.0,-1.3630000000000002,-0.89,0.0,0.59,0.0,-1.008,-1.3659999999999999,0.0,0.0,0.502,-0.512,-1.6469999999999998,-1.188,0.0,0.0,0.0,0.0,-2.57,-1.159,0.0,0.0,0.0,0.0,-2.698,-0.7859999999999999,0.5429999999999999,0.0,0.0,0.0,-2.313,-1.0659999999999998,0.0,0.0,0.0,0.0,-1.4709999999999999,-1.246,-0.6890000000000001,0.0,0.0,0.0,-0.617,0.0,-1.1840000000000002,0.525,0.0,0.0,-1.6669999999999998,0.0,-2.211,0.833,0.0,0.0,,,,,,,,,,,,,,,,,,,,,,,,,,,,,,,,,,,,,,,,,,,,,,,,,,,,,,,,,,,,,,,,,,,,,,,,,,,,,,,,,,,,,,,,,,,,,,,,,,,,,,,,,,,,,,,,,,,,,,,,,,,,,,,,,,,,,,,,,,,,,,,,,,,,,,,,,,,,,,,,,,,,,,,,,,,,,,,,,,,,,,,,,,,,,,,,,,,,,,,swingAndPointForward
accX,0.0,0.0,0.0,-0.92,0.73,0.0,0.7070000000000001,0.0,0.5760000000000001,-0.685,0.596,0.0,1.05,-0.5760000000000001,0.0,0.0,0.0,0.0,1.249,-0.794,0.0,0.0,0.0,0.0,0.7609999999999999,-1.3530000000000002,-0.7020000000000001,0.0,0.0,0.0,0.0,-0.84,0.0,0.0,0.0,-0.82,0.0,-0.5710000000000001,0.0,0.0,0.0,-0.889,0.0,-0.541,0.0,0.0,0.0,-0.848,0.5720000000000001,-1.486,0.0,0.0,0.0,-0.731,1.693,-2.353,-0.7240000000000001,0.0,0.0,-0.943,2.0580000000000003,-2.9160000000000004,-0.7829999999999999,0.0,0.0,-1.35,1.9709999999999999,-3.13,-0.606,0.0,0.0,-1.9140000000000001,0.9670000000000001,-2.9139999999999997,0.0,0.0,0.0,-2.399,0.0,-2.693,0.0,0.0,0.0,-2.6310000000000002,0.0,-2.927,0.0,0.0,0.0,-2.605,0.0,-3.451,0.0,0.0,0.5760000000000001,-2.546,0.855,-3.8789999999999996,-0.821,0.0,0.888,-2.725,0.9229999999999999,-4.302,-0.948,0.0,0.816,-3.145,0.0,-4.618,-0.6609999999999999,0.0,0.623,-3.407,0.0,-4.668,-0.516,0.0,0.607,-3.5869999999999997,0.0,-4.209,-1.215,0.0,0.529,-4.258,-1.074,-5.0969999999999995,-2.026,0.0,0.0,-4.677,-2.574,-5.349,-1.926,-0.6459999999999999,0.0,-4.809,-3.9330000000000003,-4.854,-1.101,-0.711,0.983,-4.492,-3.34,-3.69,-0.5720000000000001,0.0,1.3719999999999999,-4.189,-2.71,-3.998,-0.804,0.0,1.393,-4.177,-2.725,-5.1339999999999995,-1.31,0.0,1.28,-4.2410000000000005,-3.2710000000000004,-5.978,-1.547,0.0,1.229,-4.184,-3.6060000000000003,-5.547000000000001,-1.182,0.0,1.1909999999999998,-3.93,-3.571,-4.5360000000000005,-1.225,0.0,1.161,-3.929,-3.915,-4.888999999999999,-1.365,0.0,0.983,-3.835,-4.7139999999999995,-4.785,-1.173,0.0,1.078,-3.597,-4.748,-4.275,-1.278,0.0,1.149,-3.2689999999999997,-4.652,-3.892,-1.768,0.0,1.015,-3.034,-4.782,-3.136,-1.953,0.0,0.86,-2.758,-5.593,-2.3680000000000003,-1.758,0.0,1.028,-2.27,-5.71,-2.043,-1.528,0.0,1.361,-1.683,-4.461,-1.04,-1.186,0.0,1.416,-1.2429999999999999,-3.266,-0.955,-1.197,0.0,1.091,-1.01,-2.925,-1.328,-1.892,0.0,0.7040000000000001,-1.02,-2.9730000000000003,-1.0270000000000001,-2.2230000000000003,0.0,0.0,-1.042,-3.4419999999999997,-0.7809999999999999,-2.122,0.0,0.0,-0.8540000000000001,-3.37,0.0,-1.4980000000000002,0.0,0.583,-0.569,-3.092,-0.504,-1.069,0.0,0.5820000000000001,0.0,-2.491,-0.9279999999999999,-1.063,0.0,0.0,0.0,-1.974,-1.071,-0.892,0.0,0.0,0.0,-2.602,-0.5670000000000001,-0.9209999999999999,0.0,0.0,0.0,-3.05,-0.552,-1.046,0.0,0.0,0.0,-2.9010000000000002,-1.456,-1.5290000000000001,0.528,0.0,0.0,-2.9339999999999997,-1.4769999999999999,-2.0340000000000003,0.0,0.0,0.0,,,,,,,,,,,,,,,,,,,,,,,,,,,,,,,,,,,,,,,,,,,,,,,,,,,,,,,,,,,,,,,,,,,,,,,,,,,,,,,,,,,,,,,,,,,,,,,,,,,,,,,,,,,,,,,,,,,,,,,,,,,,,,,,,,,,,,,,,,,,,,,,,,,,,,,,,,,,,,,,,,,,,,,,,,,,,,,,,,,,,swingAndPointForward
accX,-0.84,0.0,-1.07,-0.836,0.623,0.0,0.0,0.0,-0.915,-0.9470000000000001,0.742,0.0,0.0,0.0,0.0,-0.7859999999999999,0.7,0.0,0.888,-0.652,0.0,-0.5760000000000001,0.0,0.0,1.294,-0.82,0.0,0.0,0.0,-0.569,2.039,-1.77,-0.948,0.0,0.0,-0.932,2.017,-2.081,-1.213,0.0,0.0,-1.284,1.8730000000000002,-2.468,-1.071,0.0,0.0,-1.7069999999999999,1.3419999999999999,-2.246,-0.9740000000000001,0.0,0.0,-2.063,0.64,-2.219,-0.81,0.0,0.0,-2.299,0.0,-2.431,-0.743,0.0,0.0,-2.3819999999999997,0.0,-2.9989999999999997,0.0,0.0,0.0,-2.4130000000000003,0.0,-3.082,0.0,0.0,0.635,-2.469,0.0,-3.323,0.0,0.0,0.594,-2.64,0.0,-3.988,0.0,0.0,0.0,-2.885,0.0,-4.293,-0.5720000000000001,0.0,0.0,-3.207,-1.119,-4.288,0.0,-0.5429999999999999,0.0,-3.5210000000000004,-1.517,-4.28,0.0,-0.531,0.0,-3.68,-1.653,-4.172,0.0,0.0,0.53,-3.74,-1.442,-4.36,0.0,0.0,0.648,-3.7260000000000004,-1.5819999999999999,-4.644,-0.7440000000000001,0.0,0.504,-3.707,-2.106,-4.496,-0.5479999999999999,-0.56,0.657,-3.785,-1.9469999999999998,-3.609,0.0,0.0,1.022,-3.761,-1.595,-3.4219999999999997,-0.584,0.0,1.182,-3.745,-1.9909999999999999,-5.1160000000000005,-1.536,0.0,0.992,-3.6919999999999997,-3.1919999999999997,-4.3069999999999995,-1.473,0.0,0.968,-3.508,-3.0610000000000004,-2.917,-1.425,0.0,1.321,-3.505,-3.06,-2.792,-1.8769999999999998,0.0,1.138,-3.622,-4.584,-3.11,-2.17,0.0,0.768,-3.4010000000000002,-6.138999999999999,-2.215,-1.4880000000000002,-0.55,1.08,-2.859,-6.358,-1.242,-0.863,0.0,1.66,-2.2569999999999997,-4.792,-1.415,-0.73,0.0,1.819,-1.839,-3.576,-2.08,-1.024,0.0,1.577,-1.786,-3.2089999999999996,-2.995,-1.47,0.0,1.249,-1.942,-2.926,-2.6710000000000003,-1.318,0.0,0.99,-2.089,-3.111,-2.013,-1.364,0.0,0.748,-2.194,-3.6839999999999997,-1.9469999999999998,-1.874,0.0,0.0,-2.148,-4.92,-1.639,-1.933,0.0,0.0,-1.798,-5.597,-1.261,-1.624,0.0,0.6729999999999999,-1.222,-4.803,0.0,-0.816,0.0,0.9420000000000001,-0.6920000000000001,-3.049,0.0,-0.841,0.0,0.8740000000000001,0.0,-1.466,-1.037,-1.062,0.0,0.0,0.0,-1.4069999999999998,-1.4140000000000001,-1.4969999999999999,0.0,0.0,0.0,-1.975,-1.012,-1.653,0.0,0.0,0.0,-1.6909999999999998,-0.552,-1.204,0.0,0.0,0.0,-1.1540000000000001,0.0,-0.841,0.0,0.0,0.0,-0.897,-0.66,-0.6859999999999999,0.0,0.0,0.0,0.0,-1.0959999999999999,-0.795,0.0,0.0,0.0,0.0,0.0,-0.542,0.0,0.0,0.0,0.0,0.0,0.0,0.601,0.0,0.0,-0.604,0.0,0.0,0.8170000000000001,0.0,0.0,,,,,,,,,,,,,,,,,,,,,,,,,,,,,,,,,,,,,,,,,,,,,,,,,,,,,,,,,,,,,,,,,,,,,,,,,,,,,,,,,,,,,,,,,,,,,,,,,,,,,,,,,,,,,,,,,,,,,,,,,,,,,,,,,,,,,,,,,,,,,,,,,,,,,,,,,,,,,,,,,,,,,,,,,,,,,,,swingAndPointForward
accX,0.0,0.0,-0.696,-0.55,0.0,0.0,0.0,0.0,0.0,-0.53,0.581,0.0,0.657,0.0,0.0,0.0,0.0,0.0,0.0,0.0,0.0,0.0,0.0,0.0,0.0,-0.544,-0.525,0.0,0.0,0.0,0.0,-1.062,-0.68,0.0,0.0,-0.5770000000000001,0.91,-0.7759999999999999,-0.525,0.0,0.0,-0.7490000000000001,1.064,-1.393,-0.591,0.0,0.0,-0.948,1.44,-2.141,0.0,0.0,0.0,-1.3259999999999998,1.821,-2.504,0.0,0.0,0.0,-1.776,1.29,-3.094,0.0,0.0,0.0,-2.14,0.737,-3.196,0.0,-0.5720000000000001,0.0,-2.398,0.581,-3.352,0.0,-0.5579999999999999,0.0,-2.641,0.525,-3.352,0.0,0.0,0.0,-2.9,0.512,-3.052,0.0,0.0,0.0,-3.1639999999999997,0.0,-3.759,-0.745,0.0,0.0,-3.335,-1.35,-3.841,-0.597,-0.759,0.0,-3.407,-1.743,-3.286,0.0,-0.81,0.0,-3.36,-1.245,-2.6489999999999996,0.552,-0.575,0.981,-3.148,0.0,-2.642,0.0,0.0,1.156,-3.103,0.0,-4.371,-1.734,0.0,0.654,-3.255,-1.765,-4.551,-2.0269999999999997,0.0,0.585,-3.516,-1.974,-3.299,-0.8079999999999999,-0.6990000000000001,1.072,-3.7239999999999998,-1.6769999999999998,-2.556,0.0,0.0,1.465,-3.659,-0.82,-3.5439999999999996,-1.021,0.0,1.545,-3.7260000000000004,-1.189,-5.377999999999999,-2.641,0.0,0.9179999999999999,-3.884,-3.2060000000000004,-5.234,-2.648,-0.616,0.565,-4.155,-4.165,-3.875,-1.1740000000000002,-0.887,0.909,-4.303999999999999,-4.546,-2.573,0.0,0.0,1.4769999999999999,-3.911,-3.7110000000000003,-3.105,-1.093,0.0,1.949,-3.552,-3.23,-4.563,-2.35,0.0,1.45,-3.437,-4.989,-3.627,-2.169,0.0,0.86,-3.4330000000000003,-5.605,-1.954,-1.205,-0.664,0.863,-3.158,-5.8020000000000005,-0.8959999999999999,-1.1909999999999998,0.0,1.36,-2.627,-5.105,-1.75,-1.528,0.0,1.565,-2.09,-4.449,-1.912,-1.32,0.0,1.466,-1.554,-4.078,-1.42,-0.726,0.0,1.5219999999999998,-1.4140000000000001,-3.228,-0.667,-1.022,0.0,1.236,-1.5019999999999998,-3.73,-0.652,-1.331,0.0,0.759,-1.485,-4.562,0.0,-1.157,0.0,0.561,-1.222,-5.073,0.0,-1.092,0.0,0.5670000000000001,-0.7509999999999999,-4.821000000000001,0.0,-1.426,0.0,0.7490000000000001,0.0,-3.503,0.0,-1.15,0.0,0.6920000000000001,0.0,,,,,,,,,,,,,,,,,,,,,,,,,,,,,,,,,,,,,,,,,,,,,,,,,,,,,,,,,,,,,,,,,,,,,,,,,,,,,,,,,,,,,,,,,,,,,,,,,,,,,,,,,,,,,,,,,,,,,,,,,,,,,,,,,,,,,,,,,,,,,,,,,,,,,,,,,,,,,,,,,,,,,,,,,,,,,,,,,,,,,,,,,,,,,,,,,,,,,,,,,,,,,,,,,,,,,,,,,,,,,,,swingAndPointForward
accX,0.0,0.0,-1.067,-0.7509999999999999,0.655,0.0,0.0,0.0,0.0,-0.612,0.868,0.0,0.534,0.0,0.0,0.0,0.74,0.0,0.868,0.0,0.0,0.0,0.0,0.0,0.0,0.0,0.0,0.0,0.0,0.0,0.0,-0.815,0.0,0.0,0.0,0.0,0.0,-0.909,0.0,0.0,0.0,-0.61,0.0,-0.639,0.0,0.0,0.0,-0.607,0.517,-0.768,0.0,0.0,0.0,-0.706,0.963,-1.474,0.0,0.0,0.0,-0.9279999999999999,1.046,-1.751,-0.517,0.0,0.0,-1.195,0.589,-1.911,-0.618,0.0,0.0,-1.426,0.0,-1.915,0.0,0.0,0.0,-1.62,0.0,-1.8219999999999998,0.0,0.0,0.0,-1.7519999999999998,0.0,-2.108,0.0,0.0,0.0,-1.8559999999999999,0.624,-2.516,0.0,0.0,0.0,-2.12,1.206,-2.803,0.0,0.0,0.0,-2.695,0.0,-3.2089999999999996,0.0,0.0,0.0,-2.904,-0.517,-3.1519999999999997,0.0,0.0,0.0,-2.989,0.0,-3.0239999999999996,0.0,0.0,0.0,-3.115,0.0,-3.091,-1.028,0.0,0.0,-3.281,-0.58,-3.784,-1.545,0.0,0.0,-3.428,-0.973,-3.782,-1.689,0.0,0.0,-3.645,-1.6909999999999998,-3.628,-1.6030000000000002,-0.555,0.653,-3.736,-2.066,-3.0460000000000003,-1.1059999999999999,0.0,1.128,-3.555,-1.714,-3.253,-0.9570000000000001,0.0,1.466,-3.267,-1.756,-3.134,-0.879,0.0,1.51,-2.987,-1.298,-2.935,-0.981,0.0,1.561,-3.049,-1.528,-3.089,-1.411,0.0,1.286,-3.3710000000000004,-2.639,-3.158,-1.551,0.0,1.075,-3.608,-3.665,-2.799,-1.202,0.0,1.016,-3.5589999999999997,-4.444,-2.655,-0.616,0.0,1.1159999999999999,-3.068,-4.459,-2.57,-0.68,0.0,1.5759999999999998,-2.665,-3.4610000000000003,-2.489,-1.124,0.0,1.755,-2.499,-3.1710000000000003,-2.4419999999999997,-1.355,0.0,1.291,-2.6489999999999996,-4.359,-1.815,-1.0270000000000001,0.0,0.6809999999999999,-2.74,-5.256,-1.101,-0.517,0.0,0.516,-2.569,-5.2589999999999995,-1.042,-0.9179999999999999,0.0,0.765,-2.085,-4.215,-1.415,-1.054,0.0,1.158,-1.775,-3.25,-1.765,-1.062,0.0,1.119,-1.574,-2.875,-1.2009999999999998,-0.659,0.0,0.6809999999999999,-1.5319999999999998,-2.523,0.0,-0.608,0.0,0.0,-1.5219999999999998,-3.02,-0.857,-1.3430000000000002,0.0,0.0,-1.5230000000000001,-4.035,-0.899,-1.8090000000000002,0.0,0.0,-1.3780000000000001,-3.884,0.0,-1.389,0.0,0.0,-1.0759999999999998,-3.0,0.0,-0.907,0.0,0.0,-0.79,-2.0180000000000002,0.0,-0.8490000000000001,0.0,0.0,-0.665,-2.0380000000000003,-0.759,-1.288,0.0,0.0,-0.591,-1.8430000000000002,-0.7609999999999999,-1.3769999999999998,0.0,0.0,-0.502,-1.5290000000000001,-0.557,-1.345,0.0,0.0,0.0,-1.064,0.745,-0.905,0.715,0.0,0.0,,,,,,,,,,,,,,,,,,,,,,,,,,,,,,,,,,,,,,,,,,,,,,,,,,,,,,,,,,,,,,,,,,,,,,,,,,,,,,,,,,,,,,,,,,,,,,,,,,,,,,,,,,,,,,,,,,,,,,,,,,,,,,,,,,,,,,,,,,,,,,,,,,,,,,,,,,,,,,,,,,,,,,,,,,,,,,,swingAndPointForward
accX,-1.444,0.0,0.0,-1.055,0.943,0.0,-0.57,0.0,0.0,-0.855,1.242,0.0,1.169,-0.6890000000000001,0.0,-0.514,1.183,0.0,2.41,-1.837,0.0,0.0,0.9109999999999999,0.0,2.5810000000000004,-2.904,-0.674,0.0,0.586,-1.165,2.484,-3.2910000000000004,-1.2229999999999999,0.0,0.0,-1.699,1.604,-3.761,-1.4780000000000002,0.0,0.0,-2.089,0.5329999999999999,-4.121,-0.9079999999999999,0.0,0.8959999999999999,-2.245,0.635,-4.381,0.0,0.0,1.304,-2.339,1.433,-4.837,0.0,0.0,1.4469999999999998,-2.681,1.98,-5.346,0.0,0.0,1.016,-3.2760000000000002,1.189,-5.853,-0.67,0.0,0.0,-3.716,0.0,-5.473,0.0,-0.5820000000000001,0.0,-4.052,-1.1179999999999999,-4.828,0.0,0.0,0.8,-4.107,-1.016,-3.562,0.0,0.0,1.135,-4.181,-0.526,-3.365,0.0,0.752,1.284,-4.3389999999999995,0.0,-5.382999999999999,-1.9769999999999999,0.0,0.742,-4.3580000000000005,-1.7369999999999999,-4.538,-2.372,-0.6659999999999999,0.0,-4.473,-4.496,-2.823,-1.4769999999999999,-0.731,0.0,-4.3580000000000005,-5.244,-2.428,-0.887,-0.525,0.903,-3.767,-4.598,-2.056,0.0,0.0,1.9480000000000002,-3.1889999999999996,-2.8080000000000003,-1.518,-0.799,0.611,2.445,-3.185,-2.1919999999999997,-3.688,-2.2319999999999998,0.91,1.861,-3.563,-2.9810000000000003,-3.908,-2.7110000000000003,0.0,0.753,-3.5069999999999997,-5.492999999999999,-2.977,-1.804,-0.633,0.502,-3.222,-5.553,-2.024,-0.925,0.0,1.24,-2.716,-4.846,-2.227,-0.922,0.0,1.949,-2.1959999999999997,-3.428,-3.363,-1.3719999999999999,0.0,2.089,-2.12,-2.54,-3.361,-1.605,0.0,1.59,-2.051,-3.7569999999999997,-2.1430000000000002,-1.74,0.0,1.062,-1.9269999999999998,-4.231,-1.672,-1.932,0.0,0.885,-1.88,-5.164,-1.401,-1.906,0.0,0.8190000000000001,-1.591,-4.925,-0.976,-1.585,0.0,0.948,-1.13,-3.9330000000000003,-0.632,-1.129,0.0,1.063,-0.56,-2.468,-0.8690000000000001,-1.157,0.0,1.068,0.0,-1.1740000000000002,-1.244,-0.843,0.0,0.929,0.0,-1.0290000000000001,-1.564,-0.754,0.0,0.6759999999999999,0.0,-1.4040000000000001,-0.914,-0.841,0.0,0.596,0.0,-2.072,0.0,-1.023,0.0,0.0,-0.5820000000000001,-3.097,0.0,-1.489,0.0,0.0,0.0,-3.687,0.0,-1.659,0.0,0.0,0.0,-2.425,0.0,-1.186,0.0,0.596,0.0,-0.6409999999999999,0.0,-1.504,0.536,0.0,0.0,0.0,0.0,-1.719,0.61,0.0,0.0,-0.745,-0.665,-1.7169999999999999,0.5379999999999999,0.0,0.0,0.0,-1.033,-1.412,0.0,0.0,0.0,,,,,,,,,,,,,,,,,,,,,,,,,,,,,,,,,,,,,,,,,,,,,,,,,,,,,,,,,,,,,,,,,,,,,,,,,,,,,,,,,,,,,,,,,,,,,,,,,,,,,,,,,,,,,,,,,,,,,,,,,,,,,,,,,,,,,,,,,,,,,,,,,,,,,,,,,,,,,,,,,,,,,,,,,,,,,,,,,,,,,,,,,,,,,,,,,,,,,,,,,,,,,swingAndPointForward
accX,0.0,-0.904,-0.6,-0.8959999999999999,0.898,0.0,0.745,-0.7020000000000001,0.0,-0.8740000000000001,0.94,0.0,1.45,-0.996,0.0,-0.69,0.758,0.0,1.364,-1.726,0.0,0.0,0.66,-0.657,1.42,-2.254,0.0,0.0,0.6409999999999999,-0.982,1.7109999999999999,-2.54,-0.6609999999999999,0.0,0.516,-1.344,1.666,-2.951,-0.7929999999999999,0.0,0.0,-1.819,1.6769999999999998,-3.622,-0.835,0.0,0.0,-2.1830000000000003,0.9059999999999999,-4.521,0.0,-0.693,0.0,-2.53,0.878,-4.115,0.0,-0.6759999999999999,0.0,-2.927,0.578,-4.217,0.0,-0.617,0.0,-3.216,0.0,-4.16,0.0,-0.518,0.0,-3.514,0.0,-4.5489999999999995,0.0,0.0,0.0,-3.7880000000000003,0.0,-4.289,-0.62,0.0,0.0,-3.9539999999999997,-1.52,-4.893,-1.078,-0.632,0.0,-3.949,-1.9069999999999998,-4.135,0.0,-0.611,0.935,-3.787,-2.404,-3.534,0.573,0.0,1.5019999999999998,-3.5860000000000003,0.0,-2.155,0.0,0.5660000000000001,1.4280000000000002,-3.827,0.0,-3.6439999999999997,-1.6380000000000001,0.57,0.0,-4.385,-2.562,-5.876,-3.306,-0.664,0.0,-4.43,-5.432,-3.1489999999999996,-2.064,-1.295,0.0,-3.992,-6.392,-0.9570000000000001,0.0,0.0,2.0069999999999997,-2.6319999999999997,-3.7430000000000003,-1.421,0.0,0.615,2.28,-2.343,-4.172,-3.195,-1.33,0.0,1.791,-2.26,-3.9330000000000003,-1.7309999999999999,-0.5870000000000001,0.0,1.579,-2.145,-3.4010000000000002,-1.217,0.0,0.0,1.617,-1.965,-2.273,-1.2670000000000001,-1.054,0.0,1.646,-1.859,-2.406,-2.1719999999999997,-2.52,0.6890000000000001,1.2229999999999999,-2.3369999999999997,-4.471,-2.324,-2.997,0.0,0.0,-2.597,-5.975,0.0,-1.7480000000000002,0.0,0.0,-2.356,-6.093,0.0,-1.172,0.0,0.858,-1.624,-4.093,-0.505,-1.056,0.0,1.281,-0.879,-2.438,-1.61,-1.526,0.0,1.3430000000000002,-0.7709999999999999,-2.457,-1.44,-2.074,0.0,1.0390000000000001,-1.1540000000000001,-3.8080000000000003,0.0,-1.591,0.0,0.0,-1.2819999999999998,-4.819,0.0,-1.0090000000000001,0.0,0.0,-0.919,-4.285,0.0,-0.6829999999999999,0.0,0.0,0.0,-3.1,-1.412,-1.104,0.0,0.505,0.0,-1.368,-1.1179999999999999,-0.6729999999999999,0.0,0.547,0.0,0.0,-0.823,-0.525,0.0,0.0,0.0,0.0,-0.616,0.0,0.0,0.0,0.0,0.0,-0.8240000000000001,0.0,0.0,0.0,0.0,0.0,-1.367,0.0,0.0,0.0,0.0,,,,,,,,,,,,,,,,,,,,,,,,,,,,,,,,,,,,,,,,,,,,,,,,,,,,,,,,,,,,,,,,,,,,,,,,,,,,,,,,,,,,,,,,,,,,,,,,,,,,,,,,,,,,,,,,,,,,,,,,,,,,,,,,,,,,,,,,,,,,,,,,,,,,,,,,,,,,,,,,,,,,,,,,,,,,,,,,,,,,,,,,,,,,,,,,,,,,,,,,,,,,,,,,,,,,,,,,,,,,,,,swingAndPointForward
accX,0.0,-1.9140000000000001,-1.472,-0.843,0.569,0.0,0.0,0.0,-0.8640000000000001,-1.547,0.797,0.0,0.0,0.708,0.0,-1.3219999999999998,0.7859999999999999,0.0,0.0,0.0,0.0,-0.6659999999999999,0.627,0.0,0.0,0.0,0.0,0.0,0.5870000000000001,0.0,1.073,-1.368,0.0,0.0,0.0,0.0,1.92,-2.185,0.0,0.0,0.0,-0.9109999999999999,2.82,-2.4619999999999997,-0.608,0.0,0.0,-1.423,2.295,-2.927,-0.688,0.0,0.0,-1.882,1.686,-3.457,-0.6890000000000001,0.0,0.0,-2.22,1.515,-3.2910000000000004,0.0,0.0,0.0,-2.495,1.42,-3.718,0.0,0.0,0.0,-2.657,1.5930000000000002,-4.125,0.0,0.0,0.0,-2.86,0.619,-4.988,-0.54,-0.66,0.0,-3.065,0.0,-4.746,0.0,-0.6970000000000001,0.727,-3.174,0.0,-4.164,0.506,0.0,1.0759999999999998,-3.342,0.721,-4.044,0.0,0.0,0.988,-3.585,0.0,-5.263,-0.563,0.0,0.524,-3.707,-0.679,-4.992,-0.75,-0.588,0.516,-3.8489999999999998,-1.14,-3.248,0.0,0.0,0.7390000000000001,-3.955,-1.7830000000000001,-2.9419999999999997,-0.527,0.0,0.888,-3.885,-1.8319999999999999,-2.487,-1.046,0.0,0.905,-3.96,-2.741,-4.09,-1.86,0.0,0.706,-3.6439999999999997,-4.138,-2.813,-1.12,-0.521,1.2,-3.304,-4.385,-2.1830000000000003,0.0,0.0,1.9509999999999998,-2.773,-2.716,-1.706,0.0,0.5579999999999999,2.2319999999999998,-2.391,-1.6440000000000001,-2.32,-1.218,0.8079999999999999,1.621,-2.69,-2.274,-4.033,-2.755,0.0,0.778,-3.053,-5.375,-2.9160000000000004,-0.852,0.0,1.104,-2.872,-4.577,-1.203,0.0,0.0,1.6680000000000001,-2.224,-3.26,-2.11,-0.589,0.617,1.925,-1.705,-2.251,-2.6239999999999997,-1.39,0.7140000000000001,1.633,-1.751,-2.9960000000000004,-2.14,-1.703,0.0,1.113,-2.037,-3.6919999999999997,-1.2209999999999999,-1.751,0.0,0.8190000000000001,-2.184,-4.493,-0.792,-1.5090000000000001,0.0,0.816,-1.985,-4.025,-0.5920000000000001,-1.452,0.0,0.991,-1.595,-3.4339999999999997,0.0,-1.845,0.0,0.995,-1.192,-3.103,-0.645,-2.597,0.0,0.755,-1.0659999999999998,-3.457,0.0,-1.9980000000000002,0.0,0.593,-1.025,-3.7769999999999997,0.0,-1.318,0.0,0.648,-0.8190000000000001,-3.54,0.0,-0.888,0.0,0.742,0.0,-2.8080000000000003,0.0,-1.127,0.0,0.626,0.0,-2.068,0.0,-1.385,0.0,0.0,0.0,-1.745,0.0,-1.148,0.0,0.0,0.0,-1.099,0.0,-0.703,0.0,0.0,0.0,-1.093,0.0,0.0,0.0,0.0,0.0,,,,,,,,,,,,,,,,,,,,,,,,,,,,,,,,,,,,,,,,,,,,,,,,,,,,,,,,,,,,,,,,,,,,,,,,,,,,,,,,,,,,,,,,,,,,,,,,,,,,,,,,,,,,,,,,,,,,,,,,,,,,,,,,,,,,,,,,,,,,,,,,,,,,,,,,,,,,,,,,,,,,,,,,,,,,,,,,,,,,,,,,,,,,,,,,,,,,,,,,,,,,,swingAndPointForward
accX,0.0,-0.8140000000000001,-1.0490000000000002,-0.825,0.546,0.0,0.0,0.0,0.0,-1.196,0.514,0.0,-0.867,0.754,0.0,-0.955,0.5429999999999999,0.0,-0.996,0.0,0.0,-0.602,0.5379999999999999,0.0,0.0,0.0,0.0,0.0,0.0,0.0,0.504,-0.634,0.0,0.0,0.0,0.0,0.8240000000000001,-0.9990000000000001,0.0,0.0,0.0,0.0,0.8140000000000001,-1.182,0.0,0.0,0.0,-0.607,0.873,-1.249,0.0,0.0,0.0,-0.799,0.815,-1.281,0.0,0.0,0.0,-0.946,1.0270000000000001,-1.755,0.0,0.0,0.0,-1.05,1.2770000000000001,-1.8719999999999999,-0.51,0.0,0.0,-1.238,1.166,-2.54,-0.5539999999999999,0.0,0.0,-1.452,1.193,-2.867,0.0,0.0,0.0,-1.62,0.975,-3.783,0.0,0.0,0.583,-1.7830000000000001,1.296,-3.884,0.7490000000000001,0.0,0.745,-2.072,1.7369999999999999,-3.6319999999999997,0.96,0.0,0.617,-2.475,2.02,-4.319,0.0,0.0,0.0,-2.9189999999999996,1.1179999999999999,-5.611000000000001,-0.924,0.0,0.0,-3.4330000000000003,0.0,-5.979,-0.883,-0.838,0.0,-3.682,-0.5920000000000001,-4.298,0.536,-0.691,0.895,-3.577,0.0,-3.926,1.2770000000000001,0.0,1.301,-3.4419999999999997,0.976,-3.568,0.55,0.752,1.2770000000000001,-3.8160000000000003,1.0070000000000001,-5.627000000000001,-1.682,0.653,0.784,-4.47,0.0,-6.625,-2.75,0.0,0.0,-4.907,-2.6260000000000003,-5.141,-1.659,-0.679,0.0,-4.705,-3.907,-3.427,0.0,0.0,1.157,-4.2669999999999995,-3.117,-2.463,-0.626,0.0,1.516,-3.9539999999999997,-3.261,-3.984,-1.94,0.0,1.341,-3.9,-4.635,-3.949,-1.982,0.0,1.524,-3.4930000000000003,-4.805,-1.3090000000000002,-0.879,0.0,1.913,-2.937,-3.928,-1.575,-1.915,0.728,1.7480000000000002,-2.679,-4.999,-1.29,-2.204,0.565,1.141,-2.505,-6.358,-1.8769999999999998,-2.4219999999999997,0.0,1.0270000000000001,-2.34,-5.947,-0.7829999999999999,-1.99,0.0,1.291,-2.028,-4.765,0.0,-2.0,0.0,1.33,-1.725,-4.635,0.0,-2.596,0.0,0.9520000000000001,-1.516,-5.172999999999999,0.0,-2.544,0.0,0.6579999999999999,-1.3780000000000001,-5.166,-0.631,-2.275,0.0,0.634,-1.155,-4.416,0.0,-1.7590000000000001,0.0,0.696,-0.871,-3.035,0.0,-1.393,0.0,0.6629999999999999,-0.706,-2.198,0.0,-1.4140000000000001,0.0,0.0,-0.601,-2.7089999999999996,0.0,-1.5390000000000001,0.0,0.0,-0.55,-2.847,-0.87,-1.5390000000000001,0.0,0.0,0.0,-2.115,-1.055,-0.866,0.0,0.0,0.0,-1.216,-0.81,0.0,0.0,0.0,0.0,0.0,-0.777,0.0,0.0,0.0,0.0,0.0,-1.162,0.0,0.0,0.0,0.0,0.0,-1.097,0.0,0.0,0.0,0.0,0.0,-0.7929999999999999,0.0,0.0,0.0,0.0,,,,,,,,,,,,,,,,,,,,,,,,,,,,,,,,,,,,,,,,,,,,,,,,,,,,,,,,,,,,,,,,,,,,,,,,,,,,,,,,,,,,,,,,,,,,,,,,,,,,,,,,,,,,,,,,,,,,,,,,,,,,,,,,,,,,,,,,,,,,,,,,,,,,,,,,,,,,,,,,,,,,,,,,,,,,,,,,,,,,,swingAndPointForward
accX,-1.486,0.0,0.0,-0.797,0.562,0.0,-0.7909999999999999,0.0,0.0,-0.934,0.713,0.0,0.0,0.0,0.0,-0.915,0.667,0.0,0.644,-0.68,0.0,-0.721,0.0,0.0,1.163,-1.22,0.0,0.0,0.0,0.0,1.64,-1.85,-0.893,0.0,0.0,-0.662,1.9809999999999999,-2.7110000000000003,-0.78,0.0,0.0,-1.013,2.2430000000000003,-2.8760000000000003,0.0,0.0,0.0,-1.464,2.1069999999999998,-3.19,0.0,0.0,0.0,-1.744,1.9809999999999999,-3.728,0.0,0.0,0.0,-2.061,1.645,-4.133,0.0,0.0,0.0,-2.4130000000000003,1.646,-4.042,0.0,0.0,0.0,-2.78,0.6559999999999999,-4.723,0.0,0.0,0.0,-2.9960000000000004,0.0,-4.41,0.0,0.0,0.6779999999999999,-3.1430000000000002,0.0,-3.865,0.5720000000000001,0.0,0.8270000000000001,-3.335,1.003,-4.704,0.0,0.0,0.624,-3.656,0.9490000000000001,-5.209,-1.34,0.0,0.0,-4.131,-1.224,-5.239,-1.86,-0.551,0.0,-4.274,-3.13,-3.75,-1.1440000000000001,-0.629,0.0,-3.991,-3.721,-2.523,0.0,0.0,1.3030000000000002,-3.5439999999999996,-2.246,-1.788,0.0,0.0,1.5390000000000001,-3.2680000000000002,-1.6640000000000001,-3.02,-1.8719999999999999,0.0,0.871,-3.275,-3.1719999999999997,-3.43,-2.522,0.0,0.679,-3.321,-4.478,-2.469,-1.412,0.0,1.175,-3.1439999999999997,-4.438,-1.043,0.0,0.0,1.761,-2.602,-3.5069999999999997,-1.063,0.0,0.58,1.943,-2.164,-2.8760000000000003,-1.758,-0.927,0.6779999999999999,1.426,-2.126,-2.983,-2.6639999999999997,-2.043,0.0,0.925,-2.3280000000000003,-4.195,-2.177,-1.767,0.0,1.088,-2.2769999999999997,-3.36,-0.843,-1.5730000000000002,0.0,1.219,-2.039,-3.937,-1.915,-2.017,0.0,0.975,-1.946,-4.059,-1.205,-1.6059999999999999,0.0,0.935,-1.7690000000000001,-3.656,-1.196,-1.442,0.0,1.012,-1.5659999999999998,-2.72,-0.726,-1.415,0.0,0.983,-1.4709999999999999,-2.833,-1.2329999999999999,-1.413,0.0,0.7879999999999999,-1.379,-2.531,-0.775,-0.925,0.0,0.66,-1.244,-2.319,-0.975,-0.758,0.0,0.6459999999999999,-1.133,-2.083,-0.737,-0.927,0.0,0.645,-0.971,-2.5540000000000003,-0.584,-1.423,0.0,0.0,-0.9540000000000001,-3.198,0.0,-1.432,0.0,0.0,-0.866,-2.9389999999999996,0.0,-0.938,0.0,0.0,-0.6990000000000001,-2.509,0.0,-0.779,0.0,0.0,-0.524,-2.194,0.0,-0.532,0.0,0.0,0.0,-1.8519999999999999,0.0,-0.575,0.0,0.0,0.0,-1.242,0.0,-0.635,0.0,0.0,0.0,0.0,-0.5589999999999999,-0.589,0.0,0.0,0.0,0.0,-0.574,0.0,0.536,0.0,0.0,,,,,,,,,,,,,,,,,,,,,,,,,,,,,,,,,,,,,,,,,,,,,,,,,,,,,,,,,,,,,,,,,,,,,,,,,,,,,,,,,,,,,,,,,,,,,,,,,,,,,,,,,,,,,,,,,,,,,,,,,,,,,,,,,,,,,,,,,,,,,,,,,,,,,,,,,,,,,,,,,,,,,,,,,,,,,,,,,,,,,,,,,,,,,,,,,,,,,,,swingAndPointForward
accX,-0.564,-0.6779999999999999,-0.93,-0.7490000000000001,0.0,0.0,-1.067,0.0,0.0,-1.055,0.598,0.0,-0.6629999999999999,0.0,0.0,-0.932,0.628,0.0,0.0,0.0,0.0,-0.634,0.0,0.0,0.0,0.0,0.0,0.0,0.0,0.0,0.0,-1.101,0.0,0.0,0.0,0.0,0.0,-0.977,0.0,0.0,0.0,0.0,0.0,-1.073,0.0,0.0,0.0,0.0,0.75,-1.053,0.0,0.0,0.0,0.0,1.365,-1.59,0.0,0.0,0.0,-0.667,1.7009999999999998,-1.854,0.0,0.0,0.0,-0.9570000000000001,1.8219999999999998,-2.472,0.0,0.0,0.0,-1.276,2.032,-3.0810000000000004,-0.664,0.0,0.0,-1.676,1.804,-3.0410000000000004,0.0,0.0,0.0,-2.072,1.14,-3.391,0.0,0.0,0.0,-2.2,0.8220000000000001,-3.167,0.0,0.0,0.547,-2.282,0.945,-3.825,-0.512,0.0,0.736,-2.444,0.6509999999999999,-4.822,-0.976,0.0,0.789,-2.707,0.0,-4.558,0.0,0.0,0.805,-3.062,0.539,-4.409,0.0,0.0,0.664,-3.3480000000000003,0.0,-4.191,0.0,0.0,0.632,-3.5860000000000003,0.0,-4.939,0.0,0.0,0.511,-3.6710000000000003,-0.932,-4.354,-0.778,0.0,0.0,-3.886,-1.318,-4.2219999999999995,0.0,0.0,0.517,-3.988,-1.318,-3.102,0.0,0.0,0.593,-4.013,-1.794,-2.661,-1.024,0.0,0.555,-4.096,-2.785,-2.949,-1.8419999999999999,0.0,0.0,-3.772,-4.734,-2.287,-1.159,0.0,1.129,-3.4389999999999996,-4.449,-1.097,0.0,0.531,1.8659999999999999,-2.736,-3.3080000000000003,-1.949,-1.8090000000000002,0.794,1.719,-2.7430000000000003,-3.6289999999999996,-1.9709999999999999,-2.454,0.0,1.023,-2.8939999999999997,-4.946000000000001,-0.644,-1.8319999999999999,0.0,0.665,-3.023,-5.309,0.0,-1.149,0.0,0.736,-2.713,-5.274,0.0,-0.711,0.0,1.19,-2.235,-3.447,-1.021,-1.073,0.642,1.4780000000000002,-1.839,-2.436,-1.531,-1.9980000000000002,0.5529999999999999,1.175,-1.679,-2.498,-0.754,-2.1630000000000003,0.0,0.7829999999999999,-1.926,-3.302,0.0,-2.005,0.0,0.0,-2.059,-3.8569999999999998,0.0,-1.3980000000000001,0.0,0.0,-1.868,-3.1289999999999996,0.0,-0.8740000000000001,0.0,0.6559999999999999,-1.6380000000000001,-1.838,-0.584,-0.657,0.0,0.583,-1.334,-1.9980000000000002,-0.654,-0.6759999999999999,0.0,0.0,-1.145,-2.3369999999999997,-0.722,-1.001,0.0,0.0,-1.072,-2.6519999999999997,-0.7040000000000001,-1.048,0.0,0.0,-1.056,,,,,,,,,,,,,,,,,,,,,,,,,,,,,,,,,,,,,,,,,,,,,,,,,,,,,,,,,,,,,,,,,,,,,,,,,,,,,,,,,,,,,,,,,,,,,,,,,,,,,,,,,,,,,,,,,,,,,,,,,,,,,,,,,,,,,,,,,,,,,,,,,,,,,,,,,,,,,,,,,,,,,,,,,,,,,,,,,,,,,,,,,,,,,,,,,,,,,,,,,,,,,,,,,,,,,,,,,swingAndPointForward
accX,0.0,0.0,0.0,-0.8140000000000001,0.593,0.0,0.0,0.0,0.0,0.0,0.0,0.0,0.565,-1.004,0.0,0.0,0.0,0.0,1.761,-1.367,0.0,0.0,0.0,0.0,2.748,-2.148,-0.8079999999999999,0.0,0.0,-0.574,2.2969999999999997,-2.334,-0.973,0.0,0.0,-1.022,1.4680000000000002,-2.008,-0.866,0.0,0.0,-1.227,0.857,-2.077,-0.664,0.0,0.0,-1.321,0.732,-1.946,0.0,0.0,0.508,-1.464,0.86,-2.259,0.0,0.0,0.508,-1.609,0.5539999999999999,-2.431,0.0,0.0,0.557,-1.7730000000000001,0.0,-2.4930000000000003,0.0,0.0,0.619,-1.848,0.0,-2.65,0.0,0.0,0.723,-2.029,0.624,-2.819,0.0,0.0,0.503,-2.2769999999999997,0.742,-3.003,0.0,0.0,0.0,-2.623,0.0,-3.66,0.0,0.0,0.0,-2.986,-0.684,-3.016,0.0,-0.503,0.0,-3.127,-0.991,-2.517,0.0,0.0,0.0,-3.076,0.0,-2.472,0.7979999999999999,0.0,0.0,-3.011,0.0,-3.1310000000000002,0.522,0.0,0.0,-3.0869999999999997,0.644,-3.653,0.0,0.0,0.0,-3.445,0.0,-3.721,-1.197,0.0,0.0,-3.696,-1.1340000000000001,-3.383,-1.172,-0.51,0.0,-3.716,-1.979,-2.943,-0.5720000000000001,0.0,0.955,-3.5389999999999997,-2.099,-2.844,-1.127,0.0,0.83,-3.45,-3.306,-3.312,-1.249,0.0,0.812,-3.3930000000000002,-3.2430000000000003,-2.296,0.0,0.0,1.1740000000000002,-3.292,-3.033,-2.353,0.0,0.0,1.541,-2.938,-2.019,-2.046,0.0,0.0,1.71,-2.5810000000000004,-1.912,-3.339,-0.941,0.602,1.253,-2.6430000000000002,-3.013,-3.4539999999999997,-1.423,0.0,0.735,-2.821,-3.95,-2.205,-0.7659999999999999,0.0,0.7879999999999999,-2.9019999999999997,-3.9160000000000004,-0.69,0.0,0.0,1.111,-2.5839999999999996,-3.491,-0.873,0.0,0.0,1.365,-2.079,-2.8810000000000002,-0.988,-1.234,0.596,1.215,-1.85,-3.7030000000000003,-1.261,-2.137,0.0,0.56,-1.99,-5.212000000000001,-0.648,-2.431,0.0,0.0,-1.99,-5.159,0.512,-2.115,0.0,0.0,-1.751,-4.673,0.616,-2.092,0.0,0.5720000000000001,-1.3330000000000002,-3.969,0.0,-2.1830000000000003,0.0,0.631,-0.912,-3.273,0.0,-2.024,0.0,0.588,-0.711,-3.0789999999999997,0.0,-1.6740000000000002,0.0,0.58,-0.632,-2.7110000000000003,0.0,-1.12,0.0,0.6509999999999999,0.0,-2.39,0.0,-0.782,0.0,0.5760000000000001,0.0,-2.01,0.0,0.0,0.0,0.0,0.0,-1.9869999999999999,-0.68,0.0,0.0,0.0,0.0,-1.3519999999999999,-0.604,0.0,0.0,0.0,0.0,-0.7490000000000001,-0.55,0.0,0.0,0.0,0.0,-0.504,-0.991,0.0,0.0,0.0,0.0,0.0,0.0,0.0,0.0,0.0,0.0,0.0,0.0,0.0,0.0,0.0,0.0,0.0,-0.919,-0.5529999999999999,0.0,0.0,0.0,,,,,,,,,,,,,,,,,,,,,,,,,,,,,,,,,,,,,,,,,,,,,,,,,,,,,,,,,,,,,,,,,,,,,,,,,,,,,,,,,,,,,,,,,,,,,,,,,,,,,,,,,,,,,,,,,,,,,,,,,,,,,,,,,,,,,,,,,,,,,,,,,,,,,,,,,,,,,,,,,,,,,,,,,swingAndPointForward
accX,0.0,-0.732,-1.178,-1.006,0.67,0.0,0.0,0.0,0.0,-1.08,0.752,0.0,0.0,0.0,0.0,-0.748,0.569,0.0,0.0,0.0,0.0,0.0,0.0,0.0,0.0,0.0,0.0,0.0,0.0,0.0,-0.539,-0.722,-0.621,0.0,0.0,0.0,0.0,-0.855,0.0,0.0,0.0,0.0,1.172,-1.435,-0.525,0.0,0.0,-0.568,1.8780000000000001,-2.202,-0.555,0.0,0.0,-0.9259999999999999,1.8659999999999999,-2.384,0.0,-0.502,0.0,-1.3459999999999999,1.49,-2.682,0.0,-0.529,0.0,-1.591,1.225,-2.5340000000000003,0.0,0.0,0.0,-1.7180000000000002,0.8370000000000001,-3.057,0.0,0.0,0.0,-1.867,1.256,-2.8139999999999996,0.0,0.0,0.0,-2.164,1.031,-3.3489999999999998,0.0,0.0,0.0,-2.4930000000000003,0.8009999999999999,-3.505,0.0,0.0,0.0,-2.775,0.0,-4.062,0.0,-0.527,0.0,-2.875,0.0,-3.8280000000000003,0.0,0.0,0.69,-3.0,0.0,-3.2030000000000003,0.0,0.0,0.75,-3.2969999999999997,0.0,-3.928,-0.5820000000000001,0.0,0.0,-3.5810000000000004,-0.61,-4.6419999999999995,-1.046,-0.5539999999999999,0.0,-3.73,-1.756,-4.323,-0.531,-0.605,0.61,-3.716,-1.694,-3.0260000000000002,0.0,0.0,0.983,-3.603,-1.819,-3.069,0.0,0.0,1.235,-3.6319999999999997,-2.9360000000000004,-3.891,-0.621,0.0,1.021,-3.3539999999999996,-3.049,-2.478,0.0,0.0,1.359,-3.071,-2.906,-2.253,-0.672,0.0,1.496,-2.889,-3.576,-2.532,-1.2890000000000001,0.0,1.43,-2.696,-4.294,-2.521,-1.0170000000000001,0.0,1.526,-2.419,-3.909,-1.671,0.0,0.0,1.9140000000000001,-2.141,-2.68,-0.585,-0.86,0.529,1.9280000000000002,-2.009,-3.04,-1.3969999999999998,-1.9180000000000001,0.65,1.235,-2.101,-4.296,-1.23,-2.235,0.0,0.768,-2.15,-4.916,-0.534,-1.8090000000000002,0.0,0.828,-2.026,-4.9319999999999995,0.0,-1.611,0.0,1.0979999999999999,-1.63,-3.804,0.0,-1.821,0.0,1.2690000000000001,-1.28,-3.282,-0.52,-2.201,0.0,1.03,-1.234,-3.665,-0.8,-2.484,0.0,0.638,-1.255,-3.562,0.0,-2.037,0.0,0.597,-1.2009999999999998,-3.2539999999999996,0.0,-1.64,0.0,0.706,-1.05,-2.5839999999999996,0.0,-1.3130000000000002,0.0,0.718,-0.8390000000000001,-2.213,0.0,-0.983,0.0,0.605,-0.6759999999999999,-1.84,-0.526,-0.934,0.0,0.523,-0.6729999999999999,-1.725,-0.841,-0.735,0.0,0.0,-0.6759999999999999,-1.724,0.0,-0.746,0.0,0.0,-0.619,-1.9340000000000002,0.0,-0.588,0.0,0.0,-0.557,-1.919,0.0,0.0,0.0,0.0,0.0,-1.001,0.0,0.0,0.0,0.0,0.0,0.0,-0.634,0.0,0.0,0.0,0.0,0.0,0.0,0.0,0.0,0.0,0.0,-0.659,0.0,0.0,0.706,0.0,0.0,0.0,0.0,-0.784,0.7909999999999999,0.0,0.0,,,,,,,,,,,,,,,,,,,,,,,,,,,,,,,,,,,,,,,,,,,,,,,,,,,,,,,,,,,,,,,,,,,,,,,,,,,,,,,,,,,,,,,,,,,,,,,,,,,,,,,,,,,,,,,,,,,,,,,,,,,,,,,,,,,,,,,,,,,,,,,,,,,,,,,,,,,,,,,,,,,,,,,,,swingAndPointForward
accX,0.0,-1.525,-1.192,-0.6859999999999999,0.848,0.0,1.645,-2.08,-1.624,-0.9890000000000001,0.9420000000000001,0.0,2.725,-2.347,-1.395,-1.1,0.706,-0.5720000000000001,2.17,-2.5669999999999997,-0.746,-0.971,0.505,-1.028,1.615,-2.873,0.0,-0.679,0.5720000000000001,-1.3319999999999999,1.3619999999999999,-3.338,0.0,0.0,0.789,-1.685,1.443,-3.883,0.0,0.0,0.795,-2.031,1.655,-4.887,0.0,0.0,0.748,-2.414,0.946,-4.684,0.0,0.0,0.708,-2.8819999999999997,0.547,-4.572,0.0,0.0,0.721,-3.2769999999999997,0.765,-4.6819999999999995,0.0,0.0,0.0,-3.53,0.0,-4.624,-0.7959999999999999,-0.7140000000000001,0.0,-3.823,-0.934,-4.426,-0.885,-1.045,0.0,-4.063,-1.9169999999999998,-3.833,0.0,-1.09,0.0,-4.067,-2.298,-2.71,0.0,-0.687,0.596,-3.9939999999999998,-2.235,-2.513,0.0,0.0,0.75,-3.695,-2.89,-2.832,0.0,0.0,0.865,-3.42,-3.326,-3.502,-0.569,0.0,1.12,-3.283,-3.196,-2.93,0.0,0.0,1.472,-3.17,-2.14,-2.237,0.0,0.0,1.383,-3.1710000000000003,-2.0180000000000002,-3.3289999999999997,-1.484,0.0,0.6679999999999999,-3.2569999999999997,-5.0760000000000005,-2.552,-0.805,0.0,1.061,-3.068,-3.804,-1.7469999999999999,0.0,0.0,1.693,-2.597,-2.4859999999999998,-1.7990000000000002,-1.003,0.0,1.791,-2.3369999999999997,-2.9930000000000003,-2.456,-1.921,0.0,1.1640000000000001,-2.535,-4.169,-1.501,-2.001,0.0,0.784,-2.59,-4.586,-0.929,-1.666,0.0,0.938,-2.385,-3.4930000000000003,0.0,-1.139,0.0,1.3980000000000001,-1.965,-2.698,-1.209,-1.09,0.0,1.624,-1.557,-1.959,-1.5730000000000002,-1.296,0.0,1.495,-1.4909999999999999,-2.4,-1.381,-1.9180000000000001,0.0,1.018,-1.6340000000000001,-4.092,-0.9470000000000001,-2.2769999999999997,0.0,0.69,-1.746,-4.7780000000000005,0.0,-1.9780000000000002,0.0,0.7490000000000001,-1.58,-5.285,0.0,-1.7069999999999999,0.0,0.7340000000000001,-1.146,-5.558,0.0,-1.227,0.0,0.6409999999999999,-0.7,-5.149,0.0,-1.0170000000000001,0.0,0.647,0.0,-3.675,-0.602,-0.685,0.0,0.631,0.0,-2.4330000000000003,-0.615,-0.561,0.0,0.0,0.0,-1.88,-0.9440000000000001,-0.792,0.0,0.0,0.0,-1.255,-0.882,-0.813,0.0,0.0,0.0,0.0,-1.03,-0.9,0.0,0.0,0.0,0.0,-1.143,-0.67,0.0,0.0,0.0,0.741,-1.426,0.0,0.0,0.0,0.0,1.508,-1.47,0.0,0.0,0.0,0.0,1.3940000000000001,-1.68,0.0,0.0,0.0,0.0,0.929,-1.329,0.0,0.0,0.0,0.0,1.124,-0.7979999999999999,0.0,0.0,0.0,0.0,1.246,-1.147,0.0,0.0,0.0,0.0,0.59,-1.2670000000000001,0.0,0.0,0.0,0.0,0.0,0.0,0.0,0.0,0.0,0.0,,,,,,,,,,,,,,,,,,,,,,,,,,,,,,,,,,,,,,,,,,,,,,,,,,,,,,,,,,,,,,,,,,,,,,,,,,,,,,,,,,,,,,,,,,,,,,,,,,,,,,,,,,,,,,,,,,,,,,,,,,,,,,,,,,,,,,,,,,,,,,,,,,,,,,,,,,,,,,,,,,,,,,,,,,,,,,,,,,,,,swingAndPointForward
accX,0.0,0.0,0.0,-1.047,0.858,0.0,0.532,0.0,0.0,-0.877,0.574,0.0,1.2109999999999999,-0.9520000000000001,0.0,-0.621,0.0,0.0,3.031,-2.85,-0.81,-0.599,0.0,0.0,4.864,-4.163,-0.591,-0.8390000000000001,0.0,-1.411,4.5169999999999995,-4.123,0.0,-0.919,-0.625,-2.219,3.2439999999999998,-3.995,-0.755,-0.802,-0.513,-2.61,1.7369999999999999,-4.5089999999999995,-1.359,-0.797,0.0,-2.6919999999999997,1.137,-5.178,-1.2890000000000001,-0.8109999999999999,0.9109999999999999,-2.844,1.75,-4.98,-0.634,-0.792,1.2309999999999999,-3.103,2.323,-4.154,0.0,-0.5920000000000001,1.1420000000000001,-3.363,1.75,-4.917,-0.8740000000000001,-0.621,0.8009999999999999,-3.555,0.0,-4.841,-1.126,-0.8059999999999999,0.664,-3.7760000000000002,-0.961,-4.272,-0.945,-0.8690000000000001,0.94,-3.7039999999999997,-1.446,-2.988,-0.5579999999999999,0.0,1.4140000000000001,-3.5189999999999997,-0.946,-2.8810000000000002,-0.594,0.0,1.361,-3.555,-1.865,-2.759,-0.938,0.0,1.0490000000000002,-3.575,-2.656,-2.526,-1.419,0.0,0.897,-3.707,-3.5780000000000003,-2.565,-1.325,0.0,0.9009999999999999,-3.69,-3.875,-2.722,-0.613,-0.518,1.2,-3.5380000000000003,-3.699,-2.3680000000000003,0.0,0.0,1.695,-3.39,-3.491,-2.364,-0.5589999999999999,0.0,1.671,-2.987,-3.8960000000000004,-2.9589999999999996,-0.873,0.0,1.452,-2.884,-4.2,-2.866,0.0,0.0,1.392,-2.853,-3.7060000000000004,-2.5340000000000003,0.0,0.0,1.486,-2.7939999999999996,-3.48,-2.469,0.544,0.0,1.624,-2.8,-3.353,-2.616,0.0,0.0,1.337,-2.634,-3.43,-2.186,-1.207,0.0,0.737,-2.6260000000000003,-4.808,-1.83,-1.521,0.0,0.0,-2.58,-5.322,-0.682,-1.122,0.0,0.8340000000000001,-2.282,-4.5760000000000005,0.0,-0.9470000000000001,0.0,1.26,-1.724,-4.377,0.0,-1.5190000000000001,0.0,1.122,-1.2229999999999999,-3.958,0.629,-1.62,0.0,0.722,-1.028,-4.128,0.0,-1.7,0.0,0.0,-0.883,-3.813,0.0,-1.234,0.0,0.546,-0.7,-3.2239999999999998,0.69,-0.56,0.0,0.588,0.0,-2.221,0.584,0.0,0.0,0.523,0.0,-1.067,0.0,-0.5579999999999999,0.0,0.0,0.0,0.0,-0.644,-0.688,0.0,0.0,0.0,0.0,-0.8540000000000001,0.0,0.0,0.0,0.0,0.0,0.0,0.0,0.0,0.0,0.0,0.0,0.0,0.0,0.0,0.0,0.0,-0.551,0.0,-0.51,0.0,0.0,0.0,-1.167,0.0,-0.858,0.0,0.0,0.0,-1.6569999999999998,0.0,-0.872,0.0,0.0,0.0,-1.057,0.981,0.0,0.62,0.0,0.0,,,,,,,,,,,,,,,,,,,,,,,,,,,,,,,,,,,,,,,,,,,,,,,,,,,,,,,,,,,,,,,,,,,,,,,,,,,,,,,,,,,,,,,,,,,,,,,,,,,,,,,,,,,,,,,,,,,,,,,,,,,,,,,,,,,,,,,,,,,,,,,,,,,,,,,,,,,,,,,,,,,,,,,,,,,,,,,,,,,,,,,,,,,,,,,,,,,,,,,,,,,,,swingAndPointForward
accX,0.9059999999999999,-1.514,-0.865,-0.805,0.0,0.0,0.919,-1.3090000000000002,-0.998,-1.015,0.0,0.0,1.3980000000000001,-1.567,-0.802,-1.065,0.0,0.0,1.775,-2.0780000000000003,-1.203,-1.05,0.612,-0.71,2.458,-2.1319999999999997,-1.18,-0.932,0.557,-1.112,2.444,-2.248,-0.997,-0.6629999999999999,0.0,-1.452,1.73,-3.248,-1.365,-0.563,0.613,-1.749,1.19,-3.0189999999999997,-0.982,0.0,0.872,-2.062,0.9690000000000001,-3.7260000000000004,-0.6679999999999999,-0.5479999999999999,0.966,-2.202,0.85,-3.9739999999999998,0.0,-0.537,1.005,-2.478,0.569,-4.185,0.0,-0.535,0.833,-2.7430000000000003,0.564,-4.02,0.0,0.0,0.614,-3.122,0.0,-4.505,0.0,-0.607,0.0,-3.457,0.0,-4.265,0.0,-0.773,0.0,-3.665,-1.662,-3.832,0.0,-0.821,0.0,-3.717,-2.467,-3.24,0.0,-0.644,0.0,-3.55,-2.843,-2.734,0.0,0.0,0.778,-3.467,-2.9739999999999998,-3.056,0.0,0.0,1.035,-3.1919999999999997,-3.263,-2.5469999999999997,0.0,0.0,1.1159999999999999,-2.937,-3.1430000000000002,-2.367,0.0,0.0,1.081,-2.8489999999999998,-3.3080000000000003,-2.989,0.0,0.0,1.025,-2.7539999999999996,-3.0780000000000003,-3.478,0.0,0.0,1.063,-2.8689999999999998,-3.457,-3.17,0.0,0.0,1.185,-2.865,-2.823,-2.231,0.0,0.0,1.288,-2.5780000000000003,-2.488,-2.234,0.0,0.579,1.064,-2.496,-2.888,-2.9139999999999997,-1.245,0.565,0.6759999999999999,-2.503,-3.449,-2.295,-1.081,0.0,0.675,-2.544,-2.7969999999999997,-1.724,-1.0290000000000001,0.0,0.956,-2.373,-2.365,0.0,-1.818,0.505,1.034,-2.185,-3.069,-0.981,-2.6919999999999997,0.0,0.7190000000000001,-2.169,-3.6719999999999997,-0.752,-2.505,0.0,0.59,-2.186,-4.3389999999999995,0.0,-1.8980000000000001,0.0,0.735,-2.193,-4.074,0.0,-1.103,0.0,0.835,-1.943,-4.37,0.888,-1.171,0.0,0.6940000000000001,-1.617,-5.0,0.638,-1.4169999999999998,0.0,0.505,-1.321,-5.43,0.0,-1.598,0.0,0.505,-0.993,-4.524,0.0,-0.975,0.0,0.688,-0.6679999999999999,-3.167,0.0,0.0,0.0,0.698,0.0,-1.7180000000000002,0.0,0.0,0.0,0.0,0.0,-0.9390000000000001,-0.589,-0.778,0.0,0.0,0.0,-0.747,-0.747,-0.784,0.0,0.0,0.0,-0.745,-0.519,-0.66,0.0,0.0,0.0,0.0,0.0,0.0,0.0,0.0,0.0,0.716,-0.632,0.0,0.0,0.0,0.0,1.124,-1.0490000000000002,0.0,0.0,0.0,0.0,0.0,-0.8009999999999999,0.0,0.0,0.0,0.0,0.0,0.0,0.0,0.0,0.0,0.0,-0.852,0.0,0.0,0.0,0.517,0.0,,,,,,,,,,,,,,,,,,,,,,,,,,,,,,,,,,,,,,,,,,,,,,,,,,,,,,,,,,,,,,,,,,,,,,,,,,,,,,,,,,,,,,,,,,,,,,,,,,,,,,,,,,,,,,,,,,,,,,,,,,,,,,,,,,,,,,,,,,,,,,,,,,,,,,,,,,,,,,,,,,,,,,,,,,,,,,,,,,,,,,,,,,,,,,,,,swingAndPointForward
accX,-0.847,-0.9159999999999999,-0.598,-1.097,0.8109999999999999,0.0,0.0,-1.158,-0.9640000000000001,-1.4080000000000001,0.951,0.0,1.273,-0.833,-0.569,-1.335,0.797,0.0,1.666,-0.85,0.0,-1.022,0.0,-0.534,1.268,-0.769,0.7909999999999999,-0.62,0.0,-0.8270000000000001,1.109,-0.64,0.6459999999999999,0.0,0.0,-0.958,1.381,-2.364,0.0,0.0,0.0,-1.103,2.29,-3.08,-0.7609999999999999,0.0,0.0,-1.609,2.943,-3.088,-0.71,0.0,0.0,-2.136,2.839,-3.4330000000000003,-0.775,0.0,0.0,-2.595,1.508,-3.855,-0.821,-0.524,0.0,-2.932,0.0,-4.273,-0.858,-0.67,0.0,-2.9960000000000004,-0.6559999999999999,-3.675,0.0,-0.675,0.552,-2.9189999999999996,0.0,-3.193,0.0,0.0,0.765,-2.85,0.7490000000000001,-2.594,0.0,0.0,0.0,-3.035,0.0,-3.437,-0.5479999999999999,0.0,0.0,-3.216,-1.847,-3.535,-0.703,-0.579,0.532,-2.967,-1.238,-1.6019999999999999,0.0,0.0,1.245,-2.838,-1.213,-1.9369999999999998,-0.612,0.0,0.868,-2.9419999999999997,-2.1919999999999997,-2.498,-1.057,0.0,0.0,-3.0839999999999996,-3.653,-2.3369999999999997,-1.069,0.0,0.0,-3.1310000000000002,-3.5639999999999996,-1.3159999999999998,0.0,0.0,0.805,-2.853,-2.905,-1.0490000000000002,-0.614,0.0,1.131,-2.522,-2.7689999999999997,-1.695,-0.8109999999999999,0.0,1.102,-2.346,-2.784,-2.246,-0.595,0.0,1.2690000000000001,-2.287,-2.302,-2.659,0.0,0.0,1.665,-2.2680000000000002,-0.552,-2.544,0.511,0.0,1.7790000000000001,-2.34,0.0,-2.92,-0.524,0.0,1.263,-2.557,-1.4809999999999999,-2.958,-1.4280000000000002,0.0,0.0,-2.88,-3.532,-2.766,-1.5530000000000002,0.0,0.0,-3.014,-4.431,-1.7169999999999999,-0.6990000000000001,0.0,0.731,-2.8139999999999996,-2.945,-1.341,0.0,0.0,1.298,-2.369,-1.4609999999999999,-1.75,0.0,0.0,1.264,-1.959,-0.948,-2.345,0.0,0.0,1.1079999999999999,-1.949,-1.649,-2.001,0.0,0.0,0.938,-2.061,-2.803,-0.889,0.0,0.0,1.025,-2.076,-3.918,0.0,0.0,0.0,1.127,-1.8519999999999999,-4.468,0.0,0.0,0.0,1.028,-1.607,-4.8,0.0,0.0,0.0,0.8079999999999999,-1.379,-4.824,0.536,-0.544,0.0,0.603,-1.188,-4.43,0.998,-0.932,0.0,0.0,-0.981,-4.58,1.008,-1.307,0.0,0.0,-0.691,-4.25,0.618,-1.8980000000000001,0.0,0.0,0.0,-3.239,0.0,-2.2769999999999997,0.0,0.0,0.0,-2.002,0.0,-2.237,0.0,0.0,0.0,-0.693,0.0,-2.1919999999999997,0.0,0.0,0.0,0.0,0.0,-1.943,0.0,0.0,0.0,-0.628,0.0,-1.4709999999999999,0.0,0.0,0.0,0.0,0.0,-0.894,0.0,0.0,0.0,,,,,,,,,,,,,,,,,,,,,,,,,,,,,,,,,,,,,,,,,,,,,,,,,,,,,,,,,,,,,,,,,,,,,,,,,,,,,,,,,,,,,,,,,,,,,,,,,,,,,,,,,,,,,,,,,,,,,,,,,,,,,,,,,,,,,,,,,,,,,,,,,,,,,,,,,,,,,,,,,,,,,,,,,,,,,,,,,,,,,,,,,,,swingAndPointForward
accX,0.0,0.0,0.0,-0.774,0.6579999999999999,0.0,0.0,0.0,0.0,-0.7040000000000001,0.735,0.0,0.8320000000000001,-1.058,0.0,-0.631,0.722,0.0,1.63,-1.475,0.0,-0.53,0.61,0.0,1.9709999999999999,-1.82,-0.75,0.0,0.0,-0.597,2.0140000000000002,-2.18,-1.1179999999999999,0.0,0.0,-0.8959999999999999,1.5859999999999999,-2.641,-1.276,0.0,0.672,-1.251,1.3719999999999999,-3.023,-0.996,0.0,0.868,-1.51,1.6130000000000002,-2.457,0.0,0.0,0.792,-1.797,1.715,-2.693,-0.54,0.0,0.588,-2.024,1.18,-3.318,-0.8,0.0,0.0,-2.3040000000000003,0.0,-3.9760000000000004,-0.863,0.0,0.593,-2.543,0.0,-3.695,0.0,0.0,0.83,-2.764,0.0,-4.323,-0.578,0.0,0.8059999999999999,-2.927,0.0,-4.666,-0.7090000000000001,0.0,0.544,-3.2239999999999998,0.0,-4.797,-0.691,-0.63,0.0,-3.633,-1.569,-5.297000000000001,-0.514,-0.825,0.0,-3.937,-2.103,-4.39,0.0,-0.787,0.679,-4.217,-1.946,-4.291,0.648,-0.55,0.0,-3.8930000000000002,-3.5660000000000003,-3.695,0.0,0.0,0.0,-3.8760000000000003,-4.746,-3.213,0.0,0.0,0.5670000000000001,-3.763,-4.638,-2.209,0.0,0.0,1.091,-3.5189999999999997,-3.7910000000000004,-2.029,0.0,0.0,1.208,-3.37,-4.552,-2.6889999999999996,0.0,0.0,0.8740000000000001,-3.103,-4.746,-2.383,0.0,0.0,0.955,-2.9589999999999996,-4.55,-1.607,0.0,0.0,1.0859999999999999,-2.795,-4.195,-1.6,0.0,0.0,0.94,-2.728,-3.487,-2.076,-0.862,0.0,0.701,-2.641,-2.344,-2.6260000000000003,-1.291,0.0,0.0,-2.6519999999999997,-2.6639999999999997,-2.339,-1.227,0.0,0.0,-2.767,-3.38,-1.6480000000000001,-1.167,0.0,0.0,-2.676,-3.8789999999999996,0.0,-1.4069999999999998,0.0,0.6809999999999999,-2.265,-4.121,-0.6409999999999999,-1.943,0.0,0.9590000000000001,-1.798,-3.7,-0.7879999999999999,-1.788,0.0,1.188,-1.4809999999999999,-3.446,0.0,-0.9690000000000001,0.0,1.1740000000000002,-1.331,-3.378,0.0,-0.5489999999999999,0.0,0.9490000000000001,-1.244,-3.4330000000000003,0.0,0.0,0.0,0.6890000000000001,-1.111,-3.862,0.0,-0.87,0.0,0.0,-0.894,-3.821,0.0,-0.87,0.0,0.532,-0.7,-2.862,0.0,-0.624,0.0,0.61,-0.526,-1.9080000000000001,0.0,-0.528,0.0,0.517,0.0,-1.811,0.0,-0.6609999999999999,0.0,0.0,0.0,-1.921,0.0,-0.733,0.0,0.0,0.0,-1.819,-0.616,-0.782,0.0,0.0,0.0,-0.862,0.0,-0.632,0.0,0.0,0.0,-0.767,0.0,-0.556,0.0,0.0,0.0,-1.0659999999999998,0.0,-0.586,0.8170000000000001,0.0,0.0,-1.359,0.0,-0.909,0.89,0.0,0.0,,,,,,,,,,,,,,,,,,,,,,,,,,,,,,,,,,,,,,,,,,,,,,,,,,,,,,,,,,,,,,,,,,,,,,,,,,,,,,,,,,,,,,,,,,,,,,,,,,,,,,,,,,,,,,,,,,,,,,,,,,,,,,,,,,,,,,,,,,,,,,,,,,,,,,,,,,,,,,,,,,,,,,,,,,,,,,,,,,,,,,,,,,,,,,,,,swingAndPointForward
accX,-0.9590000000000001,0.0,-0.826,-0.871,0.7190000000000001,0.0,0.0,0.0,0.0,-0.86,0.7120000000000001,0.0,0.7020000000000001,0.0,0.0,-0.67,0.665,0.0,1.569,-1.426,-0.598,-0.561,0.624,0.0,2.36,-2.235,-0.9590000000000001,-0.5529999999999999,0.0,-0.509,2.545,-2.415,-1.35,-0.536,0.0,-1.004,2.218,-2.855,-1.524,-0.563,0.0,-1.4340000000000002,1.199,-3.286,-1.386,-0.575,0.0,-1.776,1.2990000000000002,-4.102,-0.526,-0.6629999999999999,0.655,-1.9409999999999998,1.1320000000000001,-3.5810000000000004,0.0,0.0,0.7509999999999999,-2.2359999999999998,0.774,-4.082,0.0,0.0,0.624,-2.461,0.0,-4.128,0.0,0.0,0.0,-2.867,0.0,-4.073,0.0,-0.7,0.0,-3.2110000000000003,-0.914,-3.44,0.0,-0.836,0.0,-3.3760000000000003,-1.465,-2.557,0.0,-0.8140000000000001,0.0,-3.367,-2.344,-2.603,0.0,-0.71,0.0,-3.133,-2.861,-2.274,0.0,-0.5579999999999999,0.706,-2.927,-2.6430000000000002,-1.913,0.0,0.0,1.1740000000000002,-2.64,-1.704,-1.605,0.741,0.0,1.324,-2.452,-0.609,-1.86,0.0,0.0,1.018,-2.662,-0.73,-2.906,-1.209,0.0,0.0,-2.907,-2.53,-3.4739999999999998,-1.729,0.0,0.0,-2.99,-3.198,-2.475,-0.76,0.0,1.033,-2.594,-1.117,-1.1079999999999999,0.0,0.0,1.653,-2.358,-0.862,-2.9619999999999997,-0.563,0.638,1.361,-2.488,-1.261,-3.843,-1.045,0.0,0.9740000000000001,-2.7289999999999996,-1.8030000000000002,-2.52,-0.882,0.0,0.8909999999999999,-2.887,-2.136,-1.5830000000000002,-1.218,0.0,0.871,-3.0039999999999996,-3.48,-1.9580000000000002,-1.5090000000000001,0.0,0.72,-2.9210000000000003,-3.87,-1.349,-0.836,0.0,0.924,-2.745,-3.759,-1.349,0.0,0.0,1.073,-2.503,-2.5789999999999997,-1.2930000000000001,-0.6920000000000001,0.0,1.1059999999999999,-2.423,-3.049,-0.778,-1.6580000000000001,0.0,0.841,-2.4659999999999997,-4.357,0.0,-2.094,0.0,0.0,-2.4419999999999997,-5.396,0.0,-1.386,0.0,0.545,-2.142,-5.357,0.0,-0.915,0.0,0.9620000000000001,-1.72,-2.911,0.0,0.0,0.0,1.15,-1.402,-1.8969999999999998,-0.5710000000000001,0.0,0.0,0.7659999999999999,-1.357,-2.41,-0.593,-0.523,0.0,0.0,-1.347,-3.21,0.0,-0.527,0.0,0.0,-1.141,-3.4739999999999998,0.0,-0.623,0.0,0.513,-0.7340000000000001,-2.84,0.0,-0.5660000000000001,0.0,0.687,0.0,-2.055,0.0,0.0,0.0,0.565,0.0,-1.625,0.0,-0.501,0.0,0.0,0.0,-1.249,0.0,-0.711,0.0,0.0,0.0,-0.757,0.0,-0.924,0.0,0.0,0.0,0.0,0.0,-1.222,0.0,0.0,0.0,0.0,0.0,-0.956,0.0,0.0,0.0,0.0,-0.517,-0.677,0.0,0.0,0.0,1.041,-0.971,-0.618,0.0,0.0,0.0,,,,,,,,,,,,,,,,,,,,,,,,,,,,,,,,,,,,,,,,,,,,,,,,,,,,,,,,,,,,,,,,,,,,,,,,,,,,,,,,,,,,,,,,,,,,,,,,,,,,,,,,,,,,,,,,,,,,,,,,,,,,,,,,,,,,,,,,,,,,,,,,,,,,,,,,,,,,,,,,,,,,,,,,,,,,,,,,,,,,,swingAndPointForward
accX,0.0,0.0,0.0,-0.66,0.698,0.0,0.0,0.0,0.0,-0.515,0.519,0.0,0.7809999999999999,-1.325,0.0,0.0,0.0,0.0,1.81,-1.81,0.0,0.0,0.54,0.0,3.07,-2.866,-0.759,0.0,0.0,-0.7509999999999999,3.3160000000000003,-4.274,-1.199,0.0,0.0,-1.4580000000000002,2.8110000000000004,-4.106,-1.193,-0.574,0.0,-2.1180000000000003,2.265,-3.5869999999999997,-1.0979999999999999,-0.715,0.0,-2.53,1.194,-3.517,-0.893,-0.736,0.0,-2.74,0.648,-3.833,-0.532,-0.628,0.0,-2.772,0.629,-4.535,0.0,-0.555,0.75,-3.029,0.611,-4.647,-0.765,-0.622,0.7509999999999999,-3.492,0.672,-4.289,-0.56,-0.825,0.0,-3.784,0.0,-3.6919999999999997,0.0,-0.998,0.0,-3.926,-1.038,-3.468,0.0,-0.9520000000000001,0.0,-3.984,-2.044,-3.569,0.0,-0.823,0.0,-3.968,-2.639,-3.2910000000000004,0.0,-0.565,1.161,-3.969,-1.695,-3.313,0.0,0.0,0.987,-3.66,-2.162,-2.5639999999999996,-0.53,0.0,0.758,-3.543,-2.637,-3.049,-1.133,-0.57,0.59,-3.5989999999999998,-3.9360000000000004,-3.418,-1.111,-0.773,1.2,-3.548,-3.609,-1.931,0.0,0.0,1.392,-3.1519999999999997,-3.73,-2.168,0.0,0.0,1.2830000000000001,-2.665,-3.491,-2.59,0.0,0.0,1.4369999999999998,-2.411,-2.6689999999999996,-2.971,0.0,0.0,1.565,-2.327,-1.817,-2.728,0.0,0.0,1.6230000000000002,-2.373,-1.315,-2.8689999999999998,0.0,0.0,1.5030000000000001,-2.447,-1.484,-2.448,-1.101,0.0,1.107,-2.503,-2.925,-2.6660000000000004,-1.574,0.0,0.825,-2.6010000000000004,-3.699,-2.009,-1.123,0.0,0.9520000000000001,-2.583,-3.622,-1.1909999999999998,0.0,0.0,1.263,-2.392,-3.2569999999999997,-0.778,0.0,0.0,1.358,-2.083,-3.591,0.0,-0.74,0.0,1.058,-1.946,-4.287,0.0,-1.09,0.0,0.6409999999999999,-1.8359999999999999,-4.963,0.0,-1.079,0.0,0.502,-1.567,-4.92,0.0,-1.0390000000000001,0.0,0.626,-1.262,-4.148,0.0,-0.961,0.0,0.696,-0.9159999999999999,-3.884,0.0,-1.226,0.0,0.584,-0.628,-3.588,0.687,-0.9590000000000001,0.0,0.0,0.0,-2.515,0.0,-0.841,0.0,0.0,0.0,-1.214,0.0,-0.8320000000000001,0.0,0.0,0.0,0.0,0.0,-0.8029999999999999,0.0,0.0,0.0,0.0,0.0,-0.9490000000000001,0.0,0.0,0.0,0.0,-0.7020000000000001,-0.982,0.0,0.0,0.0,0.0,-1.148,-0.862,0.0,0.0,0.0,1.131,-0.5589999999999999,0.0,0.0,0.0,0.0,0.728,-0.703,0.0,0.0,0.0,0.0,0.5770000000000001,0.0,0.0,0.0,0.0,0.0,,,,,,,,,,,,,,,,,,,,,,,,,,,,,,,,,,,,,,,,,,,,,,,,,,,,,,,,,,,,,,,,,,,,,,,,,,,,,,,,,,,,,,,,,,,,,,,,,,,,,,,,,,,,,,,,,,,,,,,,,,,,,,,,,,,,,,,,,,,,,,,,,,,,,,,,,,,,,,,,,,,,,,,,,,,,,,,,,,,,,,,,,,,,,,,,,swingAndPointForward
accX,1.402,-0.757,-0.521,-0.6920000000000001,0.524,0.0,1.975,-1.031,0.0,-0.506,0.0,-0.575,2.184,-2.136,0.0,0.0,0.0,-0.987,2.156,-2.952,0.0,0.0,0.0,-1.4369999999999998,2.1180000000000003,-3.373,-0.532,0.0,0.0,-1.819,1.482,-3.864,0.0,-0.505,0.0,-2.1790000000000003,1.197,-3.775,0.0,0.0,0.542,-2.5469999999999997,0.752,-3.9219999999999997,0.0,0.0,0.0,-2.905,0.0,-4.407,-0.718,-0.502,0.0,-3.156,-0.934,-4.348,0.0,-0.67,0.0,-3.3110000000000004,-0.6970000000000001,-3.575,0.0,-0.5589999999999999,0.0,-3.4960000000000004,-0.568,-3.705,0.0,0.0,0.0,-3.696,-1.3130000000000002,-4.295,-1.192,-0.509,0.0,-3.9339999999999997,-2.516,-4.735,-1.393,-0.792,0.0,-4.035,-2.8569999999999998,-3.944,-0.722,-0.797,0.698,-3.904,-2.737,-3.0639999999999996,0.0,0.0,0.98,-3.813,-2.7910000000000004,-3.687,0.0,0.0,1.031,-3.7230000000000003,-2.99,-3.86,0.0,0.0,1.048,-3.5439999999999996,-3.188,-3.88,0.0,0.0,1.014,-3.492,-3.216,-3.3989999999999996,-0.9109999999999999,0.0,0.85,-3.5389999999999997,-4.365,-3.7560000000000002,-0.8909999999999999,0.0,0.948,-3.3510000000000004,-4.862,-3.0269999999999997,0.0,0.0,1.4769999999999999,-2.968,-3.802,-2.4,0.0,0.0,1.527,-2.7689999999999997,-3.875,-3.11,-0.785,0.0,1.102,-2.7319999999999998,-4.783,-2.9730000000000003,-0.8190000000000001,0.0,0.773,-2.783,-5.261,-1.9169999999999998,0.0,0.0,0.8859999999999999,-2.658,-4.982,-1.187,0.0,0.0,1.028,-2.292,-4.114,-1.0979999999999999,-0.935,0.0,0.927,-2.051,-4.211,-1.617,-2.056,0.0,0.0,-1.911,-5.022,-1.099,-2.136,0.0,0.0,-1.7730000000000001,-5.379,0.0,-1.565,0.0,0.0,-1.495,-4.645,0.645,-1.093,0.0,0.6940000000000001,-0.983,-3.737,0.51,-1.318,0.0,0.726,-0.603,-3.247,0.0,-1.54,0.0,0.546,0.0,-3.122,0.0,-1.2109999999999999,0.0,0.0,0.0,-2.314,0.0,-0.76,0.0,0.0,0.0,-1.6159999999999999,0.0,0.0,0.0,0.0,0.0,-1.1909999999999998,0.0,0.0,0.0,0.0,0.0,-0.887,-1.061,-0.5539999999999999,0.0,0.0,0.0,0.0,-1.003,-0.752,0.0,0.0,0.0,0.0,-1.329,-0.7140000000000001,0.0,0.0,0.0,0.0,-0.757,-0.79,0.0,0.0,0.0,-0.752,0.0,0.0,0.0,0.0,0.0,0.0,-0.9540000000000001,0.0,0.0,0.0,0.0,-0.57,-1.3730000000000002,-0.7070000000000001,0.0,0.0,0.0,-0.521,-0.621,-0.5710000000000001,0.0,0.0,0.0,,,,,,,,,,,,,,,,,,,,,,,,,,,,,,,,,,,,,,,,,,,,,,,,,,,,,,,,,,,,,,,,,,,,,,,,,,,,,,,,,,,,,,,,,,,,,,,,,,,,,,,,,,,,,,,,,,,,,,,,,,,,,,,,,,,,,,,,,,,,,,,,,,,,,,,,,,,,,,,,,,,,,,,,,,,,,,,,,,,,,,,,,,,,,,,,,,,,,,,,,,,,,swingAndPointForward
accX,0.0,0.0,-1.028,0.0,0.0,0.0,0.0,-0.536,-1.061,-0.804,0.623,0.0,0.894,-0.557,-0.961,-0.755,0.594,0.0,1.2830000000000001,-1.067,-1.24,-0.5660000000000001,0.605,-0.595,1.242,-2.081,-1.483,-0.514,0.696,-0.8370000000000001,1.4280000000000002,-2.26,-1.215,0.0,0.8140000000000001,-1.23,1.6769999999999998,-2.2569999999999997,-0.6829999999999999,0.0,0.603,-1.694,1.2919999999999998,-2.426,0.0,-0.527,0.0,-2.124,0.711,-2.9539999999999997,0.0,-0.684,0.0,-2.477,0.0,-3.3510000000000004,0.0,-0.872,0.0,-2.713,-0.778,-3.008,0.0,-0.912,0.0,-2.783,-0.546,-2.4130000000000003,0.0,-0.742,0.581,-2.815,0.0,-2.521,0.0,-0.557,0.529,-2.888,0.0,-2.8760000000000003,0.0,-0.514,0.0,-3.0660000000000003,-1.2329999999999999,-3.9530000000000003,0.0,-0.685,0.602,-3.2539999999999996,-1.4369999999999998,-3.7430000000000003,0.0,-0.718,0.861,-3.3089999999999997,-1.062,-2.947,0.0,-0.519,0.823,-3.3560000000000003,-1.4909999999999999,-3.34,-0.76,-0.514,0.586,-3.338,-2.8810000000000002,-3.9419999999999997,-0.9179999999999999,-0.7070000000000001,0.797,-3.282,-3.2539999999999996,-3.292,0.0,-0.679,1.227,-3.176,-2.862,-2.505,0.0,0.0,1.484,-3.085,-2.253,-2.574,0.0,0.0,1.251,-2.9989999999999997,-2.841,-3.245,-0.821,0.0,0.9640000000000001,-2.93,-3.827,-3.475,-1.042,0.0,1.075,-2.925,-4.297,-2.7689999999999997,0.0,0.0,1.433,-2.7260000000000004,-4.033,-2.379,0.0,0.0,1.68,-2.381,-2.719,-3.409,-0.777,0.569,1.306,-2.448,-3.48,-2.966,-0.8909999999999999,0.0,0.9840000000000001,-2.454,-3.077,-2.02,0.0,0.0,1.0759999999999998,-2.3890000000000002,-2.842,-1.4480000000000002,-0.563,0.0,1.138,-2.22,-3.1210000000000004,-1.91,-1.506,0.607,0.985,-2.194,-3.0989999999999998,-1.739,-2.209,0.0,0.6579999999999999,-2.201,-3.98,-1.097,-1.825,0.0,0.531,-2.129,-4.342,0.0,-1.47,0.0,0.7170000000000001,-1.8130000000000002,-4.428999999999999,0.0,-1.8359999999999999,0.0,0.8270000000000001,-1.508,-4.772,0.0,-2.0780000000000003,0.0,0.733,-1.208,-4.1,0.0,-1.598,0.0,0.792,-0.922,-3.427,0.0,-1.307,0.0,0.732,-0.662,-2.7689999999999997,0.0,-1.011,0.0,0.536,-0.536,-2.414,0.0,-0.9640000000000001,0.0,0.0,0.0,-2.498,-0.752,-0.836,0.0,0.0,0.0,-2.097,0.0,0.0,0.0,0.0,0.0,-1.6230000000000002,-0.672,0.0,0.0,0.542,0.0,-0.8240000000000001,-1.093,0.0,0.0,0.0,0.0,-0.784,-1.01,-0.54,0.0,0.0,0.0,-1.11,-0.992,0.0,0.0,0.0,0.0,-0.8420000000000001,-0.547,0.0,0.0,0.0,0.0,0.0,0.0,0.0,0.0,0.0,0.0,0.0,-0.6659999999999999,-0.897,0.0,0.0,0.0,,,,,,,,,,,,,,,,,,,,,,,,,,,,,,,,,,,,,,,,,,,,,,,,,,,,,,,,,,,,,,,,,,,,,,,,,,,,,,,,,,,,,,,,,,,,,,,,,,,,,,,,,,,,,,,,,,,,,,,,,,,,,,,,,,,,,,,,,,,,,,,,,,,,,,,,,,,,,,,,,,,,,,,,,,,,,,,,,,,,,,,,,,,swingAndPointForward
accX,-0.825,-0.7190000000000001,-1.032,-1.196,0.5770000000000001,0.0,0.0,0.653,0.0,-1.222,0.75,0.0,0.0,0.0,0.0,0.0,0.522,0.0,1.026,-1.074,0.0,0.0,0.0,0.0,1.5590000000000002,-2.546,-1.17,0.0,0.547,-0.897,2.498,-3.589,-1.28,0.0,0.0,-1.52,2.415,-4.122,-1.213,-0.648,0.0,-2.224,1.766,-4.144,-0.897,-0.924,0.0,-2.7689999999999997,0.81,-3.707,-0.6990000000000001,-1.043,0.0,-3.096,0.0,-3.641,0.0,-0.995,0.0,-3.139,-1.268,-3.888,0.0,-0.852,0.616,-3.048,0.0,-3.7089999999999996,0.0,-0.5870000000000001,0.9620000000000001,-3.029,0.0,-3.7569999999999997,0.0,0.0,0.841,-3.1839999999999997,0.0,-4.37,-0.835,0.0,0.529,-3.4730000000000003,0.0,-4.731,-1.4,-0.594,0.0,-3.821,-1.659,-5.1160000000000005,-1.685,-0.8370000000000001,0.0,-3.9410000000000003,-2.46,-3.93,-0.883,-0.9670000000000001,0.5379999999999999,-3.891,-2.5380000000000003,-2.813,0.0,-0.6970000000000001,0.688,-3.889,-2.764,-2.3930000000000002,0.0,0.0,0.623,-3.761,-3.455,-2.658,0.0,0.0,0.65,-3.48,-4.288,-2.803,-0.737,0.0,0.986,-3.127,-4.32,-2.227,-0.622,0.0,1.405,-2.7969999999999997,-4.316,-1.545,0.0,0.0,1.724,-2.524,-3.202,-1.6540000000000001,0.0,0.0,1.554,-2.334,-2.838,-2.2640000000000002,0.0,0.0,1.3459999999999999,-2.342,-1.992,-2.8689999999999998,0.0,0.0,1.094,-2.437,-1.8530000000000002,-2.792,-0.785,0.0,0.8290000000000001,-2.6489999999999996,-3.4789999999999996,-3.362,-1.29,0.0,0.758,-2.61,-3.97,-2.149,0.0,0.0,1.1,-2.384,-3.0980000000000003,-1.541,0.0,0.0,1.337,-2.017,-3.196,-1.6740000000000002,-0.843,0.0,1.247,-1.7690000000000001,-3.8569999999999998,-1.357,-0.76,0.0,0.8959999999999999,-1.626,-4.519,-0.9540000000000001,0.0,0.0,0.8859999999999999,-1.507,-4.209,-0.562,0.0,0.0,1.023,-1.2429999999999999,-3.228,-0.581,-0.833,0.0,0.97,-0.9390000000000001,-3.339,-0.728,-1.176,0.0,0.625,-0.915,-4.055,0.0,-0.77,0.0,0.0,-0.904,-3.911,0.657,-0.552,0.0,0.0,-0.648,-3.345,0.0,-0.899,0.0,0.0,0.0,-2.1180000000000003,0.0,-1.189,0.0,0.0,0.0,-0.9740000000000001,-0.6509999999999999,-1.043,0.0,0.0,0.0,0.0,-0.61,-0.898,0.0,0.0,0.0,0.0,-0.607,-1.005,0.0,0.0,0.0,0.0,-0.902,-1.2670000000000001,0.0,0.0,0.0,0.0,-0.6459999999999999,-0.8809999999999999,0.0,0.0,0.0,,,,,,,,,,,,,,,,,,,,,,,,,,,,,,,,,,,,,,,,,,,,,,,,,,,,,,,,,,,,,,,,,,,,,,,,,,,,,,,,,,,,,,,,,,,,,,,,,,,,,,,,,,,,,,,,,,,,,,,,,,,,,,,,,,,,,,,,,,,,,,,,,,,,,,,,,,,,,,,,,,,,,,,,,,,,,,,,,,,,,,,,,,,,,,,,,,,,,,,,,,,,,,,,,,,swingAndPointForward
accX,0.5920000000000001,-0.855,-0.65,-0.5329999999999999,0.6859999999999999,0.0,1.151,-1.23,-1.168,-0.715,0.868,0.0,1.9609999999999999,-1.6740000000000002,-1.15,-0.769,0.915,0.0,1.9980000000000002,-2.045,-0.945,-0.711,0.868,-0.6559999999999999,1.7409999999999999,-2.344,-0.7040000000000001,-0.5489999999999999,0.7090000000000001,-1.1079999999999999,1.224,-2.963,-0.71,0.0,0.0,-1.446,0.0,-3.761,-0.861,0.0,0.0,-1.805,0.0,-3.6660000000000004,0.0,0.0,0.648,-2.167,0.0,-3.61,0.0,-0.597,0.524,-2.5810000000000004,0.0,-3.764,0.0,-0.728,0.0,-2.832,0.0,-4.008,-0.654,-0.9309999999999999,0.0,-3.1010000000000004,-1.3840000000000001,-4.489,-0.84,-1.1440000000000001,0.0,-3.258,-2.144,-3.9760000000000004,0.0,-1.163,0.557,-3.4339999999999997,-1.682,-3.2289999999999996,0.0,-0.772,0.937,-3.4939999999999998,-1.2329999999999999,-3.426,0.0,0.0,0.772,-3.451,-1.693,-3.738,-0.718,-0.605,0.0,-3.51,-1.983,-3.8110000000000004,-1.218,-0.963,0.0,-3.707,-3.088,-3.262,-0.68,-1.145,0.505,-3.867,-3.003,-2.256,0.0,-0.8170000000000001,0.8740000000000001,-3.898,-3.321,-2.316,-0.504,-0.588,0.7290000000000001,-3.665,-4.533,-2.647,-0.812,-0.7070000000000001,0.728,-3.213,-4.4110000000000005,-1.966,-0.562,-0.625,1.0,-3.0010000000000003,-4.793,-2.366,0.0,0.0,1.4669999999999999,-2.763,-3.3560000000000003,-2.161,0.0,0.0,1.714,-2.625,-2.399,-1.829,-0.5870000000000001,0.0,1.032,-2.802,-3.014,-2.918,-1.98,0.0,0.0,-2.7969999999999997,-4.519,-1.93,-1.9380000000000002,-0.675,0.0,-2.658,-4.971,-1.5230000000000001,-1.295,-0.634,1.103,-2.283,-3.455,-1.084,0.0,0.0,1.6980000000000002,-1.9140000000000001,-1.611,-1.6340000000000001,0.7659999999999999,0.0,1.756,-1.771,0.0,-2.539,0.555,0.0,1.319,-1.9080000000000001,-1.854,-2.275,0.0,0.0,0.907,-2.1630000000000003,-3.7289999999999996,-1.337,-0.518,0.0,0.973,-1.911,-4.865,-0.514,-0.555,0.0,1.087,-1.554,-4.67,0.0,0.0,0.0,0.912,-1.32,-4.848,0.0,0.0,0.0,0.775,-1.0979999999999999,-4.099,0.0,0.0,0.0,0.775,-0.9259999999999999,-3.227,0.0,0.0,0.0,0.674,-0.6709999999999999,-3.115,0.6709999999999999,-0.778,0.0,0.0,0.0,-2.046,0.0,-1.4069999999999998,0.8540000000000001,0.0,0.0,-1.495,-0.889,-1.706,0.632,0.0,0.0,,,,,,,,,,,,,,,,,,,,,,,,,,,,,,,,,,,,,,,,,,,,,,,,,,,,,,,,,,,,,,,,,,,,,,,,,,,,,,,,,,,,,,,,,,,,,,,,,,,,,,,,,,,,,,,,,,,,,,,,,,,,,,,,,,,,,,,,,,,,,,,,,,,,,,,,,,,,,,,,,,,,,,,,,,,,,,,,,,,,,,,,,,,,,,,,,,,,,,,,,,,,,,,,,,,,,,,,,,,,,,,,,,,,,,,,,,,swingAndPointForward
accX,0.0,0.0,-0.956,-0.84,0.8540000000000001,0.0,0.0,0.0,-0.5670000000000001,-0.8109999999999999,1.014,0.0,0.0,0.0,-0.688,-0.784,0.912,0.0,1.137,0.0,-0.723,-0.612,0.7140000000000001,0.0,1.538,-1.202,-0.9520000000000001,0.0,0.609,0.0,1.665,-2.225,-1.033,0.0,0.72,-0.601,2.286,-2.823,-0.858,0.0,0.8029999999999999,-1.068,2.7939999999999996,-3.44,-0.8809999999999999,0.0,0.539,-1.6019999999999999,1.858,-3.3930000000000002,-1.195,0.0,0.0,-2.106,0.601,-3.407,-1.379,-0.711,0.0,-2.5789999999999997,-1.0490000000000002,-3.571,-1.016,-0.945,0.0,-2.7230000000000003,-1.45,-3.361,0.0,-0.938,0.0,-2.69,-1.0,-3.09,0.5529999999999999,-0.722,1.003,-2.62,0.0,-3.392,0.8029999999999999,0.0,0.909,-2.825,0.0,-3.9989999999999997,0.0,0.0,0.0,-3.147,0.0,-4.992,0.0,-0.627,0.0,-3.5439999999999996,-1.608,-5.005,0.0,-0.9179999999999999,0.0,-3.8080000000000003,-2.005,-3.648,0.0,-0.711,0.6609999999999999,-3.673,-1.876,-3.0860000000000003,0.795,0.0,0.9009999999999999,-3.5639999999999996,-1.178,-3.053,0.0,0.0,0.698,-3.5589999999999997,-1.321,-4.203,-0.51,0.0,0.0,-3.677,-2.3480000000000003,-4.381,-0.858,0.0,0.511,-3.7960000000000003,-2.8310000000000004,-2.7289999999999996,-1.042,0.0,0.795,-3.674,-3.234,-2.778,-1.199,0.0,0.9209999999999999,-3.353,-3.489,-2.946,-0.794,0.0,1.1520000000000001,-3.096,-3.32,-3.0460000000000003,0.0,0.0,1.3019999999999998,-2.833,-2.725,-3.284,0.0,0.0,1.401,-2.773,-1.806,-3.13,0.0,0.0,1.02,-2.947,-2.695,-3.543,-0.955,0.0,0.763,-2.96,-3.8689999999999998,-2.924,-0.742,0.0,0.902,-2.86,-3.7889999999999997,-2.241,-0.535,0.0,1.127,-2.543,-3.035,-2.487,0.0,0.0,1.2309999999999999,-2.3280000000000003,-2.12,-2.75,-0.9129999999999999,0.0,0.9990000000000001,-2.428,-2.969,-2.3080000000000003,-1.195,0.0,0.723,-2.459,-4.567,-1.432,-1.329,0.0,0.728,-2.287,-5.483,-0.58,-1.395,0.0,0.937,-1.874,-5.4479999999999995,0.0,-1.52,0.0,1.023,-1.46,-5.309,0.0,-1.588,0.0,0.8640000000000001,-1.036,-4.918,0.0,-0.84,0.0,0.609,-0.938,-3.772,0.0,-0.564,0.0,0.0,-0.8390000000000001,-3.1660000000000004,0.0,0.0,0.0,0.0,-0.653,-2.605,0.0,-0.625,0.0,0.0,0.0,-1.973,-0.725,-1.175,0.0,0.0,0.0,-1.209,0.0,-1.5859999999999999,0.0,0.0,0.0,-1.547,0.0,-1.6569999999999998,0.0,0.0,0.0,-1.801,0.0,-1.3130000000000002,0.675,0.0,0.0,,,,,,,,,,,,,,,,,,,,,,,,,,,,,,,,,,,,,,,,,,,,,,,,,,,,,,,,,,,,,,,,,,,,,,,,,,,,,,,,,,,,,,,,,,,,,,,,,,,,,,,,,,,,,,,,,,,,,,,,,,,,,,,,,,,,,,,,,,,,,,,,,,,,,,,,,,,,,,,,,,,,,,,,,,,,,,,,,,,,,,,,,,,,,,,,,,,,,,,,,,,,,swingAndPointForward
accX,0.0,0.0,-1.107,0.0,0.0,0.0,-0.55,0.0,-0.669,-0.535,0.0,0.0,-0.6859999999999999,0.0,-0.7759999999999999,-0.5429999999999999,0.0,0.0,0.0,0.0,-0.742,0.0,0.0,0.0,0.6559999999999999,-0.516,-0.9009999999999999,0.0,0.0,0.0,1.7830000000000001,-1.287,-0.946,0.0,0.5770000000000001,0.0,2.114,-2.21,-1.328,0.0,0.0,-0.61,1.9080000000000001,-2.552,-1.6980000000000002,0.0,0.0,-1.112,1.3630000000000002,-3.117,-1.51,-0.519,0.0,-1.67,0.608,-2.898,-0.973,-0.955,0.0,-2.012,0.0,-2.947,0.0,-1.143,0.0,-2.292,0.0,-2.6860000000000004,0.0,-1.092,0.0,-2.472,0.0,-3.052,0.0,-0.888,0.0,-2.532,0.0,-3.158,0.0,-0.778,0.6809999999999999,-2.728,0.0,-3.702,0.0,-0.8290000000000001,0.624,-2.9160000000000004,0.0,-3.6710000000000003,-0.5920000000000001,-1.0659999999999998,0.0,-3.125,-1.103,-3.638,0.0,-1.218,0.0,-3.3089999999999997,-1.453,-3.142,0.0,-1.15,0.5429999999999999,-3.398,-1.472,-2.7969999999999997,0.0,-0.9620000000000001,0.723,-3.3819999999999997,-1.824,-3.1660000000000004,-0.54,-0.828,0.693,-3.302,-2.659,-3.341,0.0,-0.898,0.981,-3.158,-2.6860000000000004,-3.1839999999999997,0.0,-0.655,1.3840000000000001,-2.9619999999999997,-2.169,-2.845,0.0,0.0,1.716,-2.938,-2.069,-3.656,0.0,0.0,1.608,-2.8280000000000003,-2.32,-3.403,0.0,0.0,1.604,-2.6839999999999997,-1.96,-3.343,0.0,0.0,1.579,-2.822,-1.867,-3.407,0.0,0.0,1.181,-3.094,-2.608,-3.46,0.0,0.0,0.887,-3.158,-3.656,-2.79,0.0,0.0,1.032,-2.9010000000000002,-4.146,-2.37,0.0,0.0,1.473,-2.563,-2.855,-1.092,-0.6579999999999999,0.537,1.167,-2.681,-2.804,-2.043,-2.265,0.0,0.0,-2.8560000000000003,-5.001,-1.47,-2.218,0.0,0.0,-2.7760000000000002,-6.232,0.0,-1.192,0.0,0.8590000000000001,-2.32,-5.566,1.663,-0.865,0.0,1.193,-1.766,-4.857,1.045,-1.329,0.0,1.025,-1.296,-4.388999999999999,0.0,-1.614,0.0,0.772,-1.006,-4.361000000000001,-0.56,-1.771,0.0,0.8909999999999999,-0.94,-3.2460000000000004,0.0,-1.2830000000000001,0.0,0.9009999999999999,-0.807,-3.082,0.0,-1.276,0.0,0.755,-0.7559999999999999,-3.466,0.0,-0.992,0.0,0.556,-0.634,-3.615,0.0,0.0,0.0,0.0,0.0,-2.773,-0.537,0.0,0.0,0.0,0.0,-1.124,-1.075,0.0,0.0,0.0,0.0,0.0,-1.3359999999999999,0.0,0.0,0.0,0.0,-1.401,-1.087,0.0,0.0,0.0,0.0,-1.625,-0.7240000000000001,0.0,0.0,0.0,0.0,-0.642,-0.672,0.0,0.0,0.0,0.0,0.596,-0.945,0.0,0.0,0.0,0.0,0.0,-0.9640000000000001,-0.631,0.0,0.0,-0.513,-1.6980000000000002,0.0,-1.45,0.5720000000000001,0.0,-0.7170000000000001,-4.901,0.914,-2.042,1.008,0.0,-0.79,,,,,,,,,,,,,,,,,,,,,,,,,,,,,,,,,,,,,,,,,,,,,,,,,,,,,,,,,,,,,,,,,,,,,,,,,,,,,,,,,,,,,,,,,,,,,,,,,,,,,,,,,,,,,,,,,,,,,,,,,,,,,,,,,,,,,,,,,,,,,,,,,,,,,,,,,,,,,,,,,,,,,,,,,swingAndPointForward
accX,1.41,-1.05,0.0,-0.9209999999999999,0.0,-0.518,1.5719999999999998,-1.385,-0.527,-0.882,0.0,-0.747,1.087,-1.865,-0.866,-0.872,0.0,-0.965,0.7959999999999999,-1.8969999999999998,-0.8690000000000001,-0.8490000000000001,0.0,-1.2329999999999999,0.0,-1.8780000000000001,-0.5579999999999999,-0.738,0.0,-1.5019999999999998,0.521,-1.682,0.0,-0.5329999999999999,0.0,-1.6269999999999998,0.0,-2.023,0.0,0.0,0.0,-1.778,0.0,-2.603,0.0,0.0,0.0,-1.993,-0.599,-3.6889999999999996,-1.107,0.0,0.0,-2.222,-1.016,-3.4789999999999996,-0.995,-0.706,0.0,-2.59,-0.755,-2.773,0.0,-0.9279999999999999,0.521,-2.843,-0.797,-2.6839999999999997,0.0,-0.883,0.0,-3.072,-1.064,-3.218,0.0,-0.778,0.0,-3.327,-1.8,-3.8810000000000002,-0.5589999999999999,-0.7120000000000001,0.0,-3.6,-2.633,-3.6289999999999996,0.0,-1.044,0.0,-3.418,-2.61,-3.0269999999999997,0.0,-1.166,0.755,-3.409,-2.001,-2.411,0.77,-0.9209999999999999,0.976,-3.4019999999999997,-1.787,-2.7510000000000003,0.0,-0.513,0.873,-3.5069999999999997,-2.452,-3.427,-0.614,0.0,0.6709999999999999,-3.677,-3.832,-3.892,-0.685,-0.89,0.0,-3.4530000000000003,-4.175,-2.725,0.0,-0.872,1.044,-3.3810000000000002,-3.522,-1.695,0.65,0.0,1.205,-3.2260000000000004,-3.082,-1.8430000000000002,0.0,0.0,0.895,-3.194,-3.7939999999999996,-2.78,-0.998,0.0,0.7070000000000001,-3.139,-4.606,-3.0810000000000004,-0.74,-0.7020000000000001,0.802,-2.682,-4.632,-2.351,0.0,-0.612,1.4,-2.369,-2.57,-1.599,1.1640000000000001,0.0,1.646,-2.129,-1.821,-2.88,0.716,0.0,1.5519999999999998,-2.1830000000000003,-1.538,-3.165,0.0,0.0,1.071,-2.359,-2.79,-2.5660000000000003,-0.606,0.0,0.765,-2.354,-3.491,-1.669,0.0,0.0,0.86,-2.174,-3.799,-1.042,0.0,0.0,1.028,-1.984,-3.804,-0.938,-0.726,0.574,0.885,-1.78,-4.556,-0.9,-1.3130000000000002,0.0,0.684,-1.52,-4.757,0.0,-1.2690000000000001,0.0,0.667,-1.2690000000000001,-4.255,0.0,-1.367,0.0,0.636,-1.048,-4.0760000000000005,0.0,-1.3259999999999998,0.0,0.526,-0.9490000000000001,-4.064,0.0,-1.148,0.0,0.0,-0.787,-3.248,0.0,-0.934,0.0,0.0,-0.507,-2.364,0.0,-1.158,0.0,0.0,0.0,-1.921,-0.87,-1.824,0.0,0.0,0.0,-1.912,-0.621,-1.5659999999999998,0.0,0.0,0.0,-1.751,0.0,-1.099,0.0,0.0,0.0,-1.168,0.0,-0.767,0.0,0.0,0.0,-1.145,0.0,-1.11,0.0,0.0,0.0,-1.996,0.0,-1.247,0.0,0.0,0.0,-2.375,0.8690000000000001,-1.07,0.0,0.0,0.0,-2.929,1.102,-0.866,0.63,0.0,0.0,-4.095,0.0,-1.436,0.73,0.0,0.0,,,,,,,,,,,,,,,,,,,,,,,,,,,,,,,,,,,,,,,,,,,,,,,,,,,,,,,,,,,,,,,,,,,,,,,,,,,,,,,,,,,,,,,,,,,,,,,,,,,,,,,,,,,,,,,,,,,,,,,,,,,,,,,,,,,,,,,,,,,,,,,,,,,,,,,,,,,,,,,,,,,,,,,,,,,,,,,,,,,,,,,,,,,swingAndPointForward
accX,1.479,-1.102,-1.5430000000000001,-0.593,0.0,-0.599,1.7530000000000001,-2.0980000000000003,-1.7280000000000002,-0.995,0.0,-0.763,2.013,-2.001,-1.4769999999999999,-1.1320000000000001,0.637,-1.051,2.094,-2.233,-1.399,-1.041,0.598,-1.462,1.7890000000000001,-2.8569999999999998,-1.452,-0.883,0.0,-1.896,0.951,-3.452,-1.328,-0.853,0.0,-2.271,0.0,-4.046,-1.314,-0.905,0.0,-2.615,-0.752,-4.218,-1.07,-1.014,0.544,-2.85,-0.884,-4.013,0.0,-1.023,0.823,-3.0580000000000003,-0.75,-4.081,0.0,-0.835,0.909,-3.321,-1.244,-4.462,0.0,-0.8590000000000001,0.606,-3.449,-1.932,-4.954,0.0,-1.045,0.0,-3.758,-2.441,-4.618,0.0,-1.271,0.5710000000000001,-3.9189999999999996,-2.136,-3.398,0.0,-1.131,0.722,-4.037,-2.326,-3.764,0.0,-0.754,0.607,-4.123,-3.455,-4.072,0.0,-0.8420000000000001,0.0,-3.8110000000000004,-3.734,-4.029,0.0,-0.9109999999999999,0.672,-3.5980000000000003,-3.136,-3.1289999999999996,0.0,-0.685,1.1079999999999999,-3.542,-3.1060000000000003,-3.733,0.0,0.0,1.101,-3.562,-3.037,-3.513,0.0,0.0,1.006,-3.53,-3.5639999999999996,-4.141,0.0,0.0,1.024,-3.29,-3.185,-3.3110000000000004,0.0,0.0,1.021,-3.194,-3.803,-3.841,-0.8270000000000001,0.0,0.745,-3.1719999999999997,-4.406000000000001,-3.758,-0.6809999999999999,0.0,0.624,-3.1830000000000003,-5.007,-3.2680000000000002,0.0,0.0,1.0590000000000002,-2.8689999999999998,-4.123,-2.795,0.0,0.0,1.208,-2.532,-3.068,-2.673,0.0,0.0,1.026,-2.404,-2.7510000000000003,-3.4760000000000004,0.0,0.0,0.7659999999999999,-2.379,-2.9,-3.222,-0.7290000000000001,0.0,0.7859999999999999,-2.285,-3.051,-3.135,-1.3780000000000001,0.0,1.034,-2.105,-3.208,-2.494,-1.7819999999999998,0.0,1.014,-1.969,-3.2310000000000003,-1.725,-1.7369999999999999,0.0,0.8220000000000001,-1.794,-3.8569999999999998,-1.173,-1.4409999999999998,0.0,0.7959999999999999,-1.546,-4.204,-1.058,-1.391,0.0,0.91,-1.246,-3.66,-0.721,-1.3030000000000002,0.0,0.97,-0.977,-3.824,-0.532,-1.3880000000000001,0.0,0.8590000000000001,-0.684,-3.4789999999999996,0.0,-1.249,0.0,0.669,0.0,-3.0669999999999997,0.0,-1.1159999999999999,0.0,0.0,0.0,-2.499,0.0,-1.246,0.0,0.0,0.0,-1.906,-0.609,-1.167,0.0,0.0,0.0,-1.577,-0.736,-1.18,0.0,0.0,0.0,-0.9990000000000001,-0.629,-1.028,0.0,0.0,0.0,-0.623,-0.81,-0.966,0.0,0.0,0.0,0.0,-0.946,-0.965,0.0,0.0,0.0,0.0,-1.229,-0.8640000000000001,0.0,0.0,0.0,0.0,-0.9690000000000001,-0.561,0.0,0.0,0.0,-0.9840000000000001,-0.54,0.0,0.0,0.0,0.0,-1.511,0.0,0.0,0.0,0.0,0.0,-1.399,0.0,0.0,0.7509999999999999,0.0,0.0,-2.2880000000000003,-0.7929999999999999,-0.573,0.7040000000000001,0.0,0.0,,,,,,,,,,,,,,,,,,,,,,,,,,,,,,,,,,,,,,,,,,,,,,,,,,,,,,,,,,,,,,,,,,,,,,,,,,,,,,,,,,,,,,,,,,,,,,,,,,,,,,,,,,,,,,,,,,,,,,,,,,,,,,,,,,,,,,,,,,,,,,,,,,,,,,,,,,,,,,,,,,,,,,,,,,,,,,,,,,,,,swingAndPointForward
accX,1.3219999999999998,-1.942,-1.298,-0.8690000000000001,0.0,-0.6920000000000001,1.672,-2.134,-1.232,-1.04,0.547,-0.915,2.234,-2.279,-1.24,-1.0590000000000002,0.519,-1.163,2.069,-2.955,-1.285,-1.021,0.509,-1.706,1.306,-3.0410000000000004,-0.653,-0.855,0.552,-2.062,0.5429999999999999,-3.593,-0.8059999999999999,-0.738,0.604,-2.4,0.0,-3.77,-0.863,-0.7859999999999999,0.654,-2.714,-0.536,-4.058,-0.645,-0.7859999999999999,0.66,-2.8960000000000004,-1.148,-4.023,0.0,-0.847,0.816,-3.008,-0.878,-3.815,0.0,-0.851,0.9079999999999999,-3.321,-0.775,-3.4539999999999997,0.0,-0.9129999999999999,0.652,-3.6210000000000004,-1.275,-3.69,0.0,-0.9890000000000001,0.0,-3.9210000000000003,-2.69,-3.975,0.0,-1.084,0.0,-4.095,-3.77,-3.623,0.0,-1.131,0.0,-3.8280000000000003,-3.4,-3.15,0.0,-0.857,1.1740000000000002,-3.648,-2.4019999999999997,-3.5780000000000003,0.0,0.0,1.4809999999999999,-3.53,-2.178,-3.7460000000000004,0.0,0.0,1.095,-3.4419999999999997,-3.1719999999999997,-4.291,0.0,0.0,0.758,-3.596,-3.889,-4.032,0.0,-0.588,0.7859999999999999,-3.56,-3.551,-3.1630000000000003,0.595,-0.514,1.225,-3.3960000000000004,-2.935,-3.1660000000000004,0.0,0.0,1.4069999999999998,-3.3930000000000002,-2.872,-4.327,0.0,0.0,0.937,-3.2969999999999997,-4.1610000000000005,-4.184,0.0,0.0,0.611,-3.0639999999999996,-3.4930000000000003,-3.542,0.0,0.0,0.919,-3.09,-3.176,-2.977,0.0,0.0,0.902,-3.074,-3.992,-3.03,-0.5429999999999999,0.0,0.6890000000000001,-2.938,-4.412,-2.875,0.0,0.0,0.698,-2.6510000000000002,-4.381,-2.241,0.0,0.0,0.943,-2.062,-3.012,-1.788,-0.568,0.0,1.041,-1.954,-2.7969999999999997,-1.9580000000000002,-1.081,0.0,0.733,-1.905,-3.505,-1.632,-1.321,0.0,0.0,-1.78,-4.398,-0.8690000000000001,-1.479,0.0,0.0,-1.5819999999999999,-5.0760000000000005,0.0,-1.7919999999999998,0.0,0.0,-1.266,-5.087,0.0,-1.848,0.0,0.0,-0.912,-4.78,0.504,-1.71,0.0,0.0,-0.524,-4.3919999999999995,0.0,-1.6159999999999999,0.0,0.0,0.0,-3.397,0.0,-1.452,0.0,0.0,0.0,-1.986,0.0,-1.4909999999999999,0.0,0.0,0.0,-1.1420000000000001,-0.6729999999999999,-1.301,0.0,0.0,0.0,0.0,0.0,-0.9390000000000001,0.0,0.0,0.0,0.0,-0.556,-0.835,0.0,0.0,0.0,0.0,-0.5760000000000001,-0.755,0.0,0.0,0.0,0.0,-0.614,-0.5329999999999999,0.0,0.0,0.0,0.0,-0.815,-0.53,0.0,0.0,0.0,0.0,0.0,0.0,0.0,0.0,0.0,-0.826,0.0,-0.527,0.0,0.0,0.0,-2.6830000000000003,0.847,0.0,0.5489999999999999,0.0,0.0,-4.63,0.664,-0.513,0.619,0.0,0.0,-6.1739999999999995,0.0,-0.9,0.0,0.0,1.065,,,,,,,,,,,,,,,,,,,,,,,,,,,,,,,,,,,,,,,,,,,,,,,,,,,,,,,,,,,,,,,,,,,,,,,,,,,,,,,,,,,,,,,,,,,,,,,,,,,,,,,,,,,,,,,,,,,,,,,,,,,,,,,,,,,,,,,,,,,,,,,,,,,,,,,,,,,,,,,,,,,,,,,,,,,,,,,,,,,,,,,,,,,swingAndPointForward
accX,0.522,0.0,-1.101,-0.6559999999999999,0.0,0.0,0.0,0.0,-1.021,-0.825,0.0,0.0,0.0,0.0,-0.8190000000000001,-0.852,0.505,0.0,0.672,-0.649,-0.7090000000000001,-0.7090000000000001,0.653,0.0,1.161,-1.064,-1.04,-0.599,0.5579999999999999,-0.67,0.8029999999999999,-1.318,-1.09,-0.537,0.0,-0.898,0.7759999999999999,-1.621,-1.115,0.0,0.0,-1.176,0.0,-2.803,-1.59,-0.6920000000000001,0.682,-1.557,0.0,-2.883,-0.965,-0.897,0.9129999999999999,-1.857,0.0,-2.7560000000000002,0.0,-0.82,1.081,-2.084,0.0,-2.77,0.0,-0.627,0.915,-2.296,0.0,-3.25,0.0,-0.637,0.552,-2.461,0.0,-4.044,-0.5329999999999999,-0.883,0.513,-2.8560000000000003,-0.728,-4.303,-0.512,-1.1640000000000001,0.6779999999999999,-3.241,-0.737,-3.773,0.0,-0.986,0.8740000000000001,-3.485,-1.111,-3.205,0.0,0.0,1.016,-3.5410000000000004,-2.028,-4.647,0.0,-0.505,0.6459999999999999,-3.227,-1.986,-4.493,0.0,-0.742,0.917,-3.325,-1.3780000000000001,-3.3560000000000003,0.0,-0.607,1.138,-3.45,-1.58,-3.783,0.0,0.0,1.053,-3.687,-2.7689999999999997,-4.577,-0.965,0.0,0.925,-3.594,-3.505,-3.7439999999999998,0.0,-0.509,1.141,-3.313,-2.875,-2.377,0.0,0.0,1.452,-3.2769999999999997,-3.065,-3.168,-1.091,0.0,1.078,-3.467,-4.752,-3.215,-1.548,0.0,0.754,-3.533,-5.696000000000001,-3.1430000000000002,-1.104,-0.507,0.965,-3.3480000000000003,-5.506,-1.869,0.0,-0.511,1.405,-2.838,-4.95,-1.3659999999999999,0.0,0.0,1.817,-2.398,-3.745,-1.9269999999999998,0.0,0.585,1.754,-2.234,-4.041,-2.716,-1.11,0.732,1.383,-2.295,-4.333,-3.4339999999999997,-1.541,0.0,0.988,-2.43,-4.275,-2.279,-0.997,0.0,0.7170000000000001,-2.338,-4.078,-1.683,0.0,0.0,0.764,-2.133,-3.62,-1.314,0.0,0.0,0.8420000000000001,-1.874,-3.8360000000000003,-1.2670000000000001,-1.1740000000000002,0.679,0.625,-1.7080000000000002,-4.437,-1.295,-2.035,0.5329999999999999,0.0,-1.561,-4.441,-0.872,-2.1790000000000003,0.0,0.0,-1.392,-4.075,0.0,-1.739,0.0,0.0,-1.155,-3.6060000000000003,0.0,-1.13,0.0,0.0,-0.831,-3.178,0.0,-0.848,0.0,0.0,0.0,-2.562,-0.602,-1.2,0.0,0.0,0.0,-1.975,-1.101,-1.446,0.0,0.0,0.0,-1.4569999999999999,-0.665,-1.07,0.0,0.0,0.0,-0.821,-0.604,-0.93,0.0,0.0,0.0,0.0,-0.639,-0.846,0.0,0.0,0.0,-0.564,-1.038,-0.977,0.0,0.0,0.0,-0.51,-0.961,-0.914,0.0,0.0,0.0,0.0,-0.687,-0.575,0.0,0.0,0.0,0.0,-0.674,0.0,0.0,0.0,0.0,0.0,0.0,0.0,0.0,0.0,0.0,0.0,-0.598,0.0,0.557,0.0,0.0,-0.6729999999999999,-0.551,0.0,0.0,0.0,0.0,-1.016,0.0,0.0,0.521,0.0,0.0,,,,,,,,,,,,,,,,,,,,,,,,,,,,,,,,,,,,,,,,,,,,,,,,,,,,,,,,,,,,,,,,,,,,,,,,,,,,,,,,,,,,,,,,,,,,,,,,,,,,,,,,,,,,,,,,,,,,,,,,,,,,,,,,,,,,,,,,,,,,,,,,,,,,,,,,,,,,,,,,,,,swingAndPointForward
accX,1.7930000000000001,-1.247,-0.675,-0.532,0.0,-0.695,2.1590000000000003,-1.6780000000000002,-0.8540000000000001,-0.705,0.0,-1.026,1.694,-1.646,-0.7390000000000001,-0.8190000000000001,0.0,-1.3159999999999998,0.6779999999999999,-1.409,-0.8079999999999999,-0.7829999999999999,0.0,-1.483,0.0,-1.294,-0.622,-0.654,0.0,-1.555,0.0,-1.6340000000000001,0.0,-0.541,0.0,-1.671,0.0,-2.205,-0.532,-0.534,0.0,-1.883,0.0,-2.8560000000000003,0.0,-0.597,0.0,-2.178,0.0,-3.361,0.0,-0.66,0.0,-2.521,0.0,-3.4019999999999997,0.0,-0.675,0.0,-2.948,0.0,-4.0760000000000005,0.0,-0.8440000000000001,0.0,-3.298,-1.248,-4.002,0.0,-1.024,0.0,-3.62,-1.8630000000000002,-3.7889999999999997,0.0,-1.028,0.0,-3.745,-1.8619999999999999,-3.1430000000000002,0.523,-0.833,0.0,-3.81,-2.055,-3.427,0.5529999999999999,-0.603,0.0,-3.8789999999999996,-2.141,-3.998,0.0,0.0,0.888,-4.135,-1.683,-3.472,0.0,0.0,1.153,-4.441,-1.7269999999999999,-4.135,-0.968,0.0,1.001,-4.63,-2.762,-4.882,-1.314,0.0,0.0,-3.862,-4.512,-3.832,-1.0,-1.12,0.0,-3.157,-4.425,-2.7739999999999996,0.0,-1.081,0.861,-2.9410000000000003,-3.637,-2.279,0.0,0.0,1.6780000000000002,-2.673,-3.193,-2.596,0.0,0.0,1.992,-2.499,-2.988,-3.0989999999999998,0.0,0.0,1.932,-2.265,-2.8110000000000004,-3.3289999999999997,0.0,0.0,1.775,-2.124,-2.577,-3.3689999999999998,0.0,0.0,1.646,-2.202,-2.9610000000000003,-3.287,0.0,0.0,1.5190000000000001,-2.191,-2.955,-3.014,0.0,0.0,1.665,-2.048,-2.189,-2.3930000000000002,0.0,0.0,1.7590000000000001,-1.868,-2.4130000000000003,-2.427,-1.6780000000000002,0.64,1.3259999999999998,-1.935,-3.363,-2.6010000000000004,-2.861,0.0,0.83,-2.1109999999999998,-4.68,-1.626,-2.838,0.0,0.764,-2.18,-4.879,-0.585,-2.665,0.0,0.731,-1.8880000000000001,-5.278,0.0,-2.36,0.0,0.5489999999999999,-1.452,-5.537999999999999,0.0,-1.6469999999999998,0.0,0.535,-1.138,-5.263,0.0,-1.235,0.0,0.547,-0.7859999999999999,-4.486000000000001,0.0,-0.917,0.0,0.5870000000000001,0.0,-3.475,0.0,-0.934,0.0,0.546,0.0,-2.306,-0.902,-1.197,0.0,0.0,0.0,-1.5930000000000002,-1.375,-1.4040000000000001,0.0,0.0,0.0,-0.9570000000000001,-1.452,-1.168,0.0,0.0,0.0,-0.868,-0.884,-0.762,0.0,0.0,0.0,-1.053,-0.6679999999999999,0.0,0.0,0.0,0.0,-0.657,-0.8059999999999999,0.0,0.0,0.0,0.0,0.0,-1.107,0.0,0.0,0.0,0.0,0.74,-1.423,-0.515,0.0,0.0,0.0,0.0,-1.189,-0.599,0.0,0.0,0.0,0.0,-0.7240000000000001,0.0,0.0,0.0,0.0,0.0,0.0,0.0,0.0,0.0,0.0,0.0,0.0,0.0,0.0,0.0,0.0,-0.745,-0.6990000000000001,0.0,0.0,0.0,0.0,-0.7440000000000001,0.0,0.0,0.66,0.0,0.0,,,,,,,,,,,,,,,,,,,,,,,,,,,,,,,,,,,,,,,,,,,,,,,,,,,,,,,,,,,,,,,,,,,,,,,,,,,,,,,,,,,,,,,,,,,,,,,,,,,,,,,,,,,,,,,,,,,,,,,,,,,,,,,,,,,,,,,,,,,,,,,,,,,,,,,,,,,,,,,,,,,,,,,,,swingAndPointForward
