,00_accX,00_accY,00_accZ,00_gyroX,00_gyroY,00_gyroZ,01_accX,01_accY,01_accZ,01_gyroX,01_gyroY,01_gyroZ,02_accX,02_accY,02_accZ,02_gyroX,02_gyroY,02_gyroZ,03_accX,03_accY,03_accZ,03_gyroX,03_gyroY,03_gyroZ,04_accX,04_accY,04_accZ,04_gyroX,04_gyroY,04_gyroZ,05_accX,05_accY,05_accZ,05_gyroX,05_gyroY,05_gyroZ,06_accX,06_accY,06_accZ,06_gyroX,06_gyroY,06_gyroZ,07_accX,07_accY,07_accZ,07_gyroX,07_gyroY,07_gyroZ,08_accX,08_accY,08_accZ,08_gyroX,08_gyroY,08_gyroZ,09_accX,09_accY,09_accZ,09_gyroX,09_gyroY,09_gyroZ,10_accX,10_accY,10_accZ,10_gyroX,10_gyroY,10_gyroZ,11_accX,11_accY,11_accZ,11_gyroX,11_gyroY,11_gyroZ,12_accX,12_accY,12_accZ,12_gyroX,12_gyroY,12_gyroZ,13_accX,13_accY,13_accZ,13_gyroX,13_gyroY,13_gyroZ,14_accX,14_accY,14_accZ,14_gyroX,14_gyroY,14_gyroZ,15_accX,15_accY,15_accZ,15_gyroX,15_gyroY,15_gyroZ,16_accX,16_accY,16_accZ,16_gyroX,16_gyroY,16_gyroZ,17_accX,17_accY,17_accZ,17_gyroX,17_gyroY,17_gyroZ,18_accX,18_accY,18_accZ,18_gyroX,18_gyroY,18_gyroZ,19_accX,19_accY,19_accZ,19_gyroX,19_gyroY,19_gyroZ,20_accX,20_accY,20_accZ,20_gyroX,20_gyroY,20_gyroZ,21_accX,21_accY,21_accZ,21_gyroX,21_gyroY,21_gyroZ,22_accX,22_accY,22_accZ,22_gyroX,22_gyroY,22_gyroZ,23_accX,23_accY,23_accZ,23_gyroX,23_gyroY,23_gyroZ,24_accX,24_accY,24_accZ,24_gyroX,24_gyroY,24_gyroZ,25_accX,25_accY,25_accZ,25_gyroX,25_gyroY,25_gyroZ,26_accX,26_accY,26_accZ,26_gyroX,26_gyroY,26_gyroZ,27_accX,27_accY,27_accZ,27_gyroX,27_gyroY,27_gyroZ,28_accX,28_accY,28_accZ,28_gyroX,28_gyroY,28_gyroZ,29_accX,29_accY,29_accZ,29_gyroX,29_gyroY,29_gyroZ,30_accX,30_accY,30_accZ,30_gyroX,30_gyroY,30_gyroZ,31_accX,31_accY,31_accZ,31_gyroX,31_gyroY,31_gyroZ,32_accX,32_accY,32_accZ,32_gyroX,32_gyroY,32_gyroZ,33_accX,33_accY,33_accZ,33_gyroX,33_gyroY,33_gyroZ,34_accX,34_accY,34_accZ,34_gyroX,34_gyroY,34_gyroZ,35_accX,35_accY,35_accZ,35_gyroX,35_gyroY,35_gyroZ,36_accX,36_accY,36_accZ,36_gyroX,36_gyroY,36_gyroZ,37_accX,37_accY,37_accZ,37_gyroX,37_gyroY,37_gyroZ,38_accX,38_accY,38_accZ,38_gyroX,38_gyroY,38_gyroZ,39_accX,39_accY,39_accZ,39_gyroX,39_gyroY,39_gyroZ,40_accX,40_accY,40_accZ,40_gyroX,40_gyroY,40_gyroZ,41_accX,41_accY,41_accZ,41_gyroX,41_gyroY,41_gyroZ,42_accX,42_accY,42_accZ,42_gyroX,42_gyroY,42_gyroZ,43_accX,43_accY,43_accZ,43_gyroX,43_gyroY,43_gyroZ,category
accX,-6.024420024420023,-6.854700854700853,-2.4920634920634916,-1.5625,-1.5625,3.84375,-5.595848595848596,-6.8046398046398044,-1.8327228327228329,-1.53125,-1.65625,3.96875,-4.954822954822955,-6.814407814407813,-0.8937728937728938,-1.1875,-1.6875,4.09375,-4.876678876678877,-6.868131868131868,-0.6007326007326007,-0.625,-1.6875,4.34375,-4.536019536019536,-8.286935286935286,-2.347985347985348,0.0,-1.3125,4.5625,-3.6105006105006106,-9.147741147741149,-2.145299145299145,-0.6875,-1.03125,4.59375,-3.0976800976800978,-8.307692307692307,-1.678876678876679,-0.75,-1.1875,4.53125,-3.5384615384615383,-7.84004884004884,-1.887667887667888,-0.5625,-1.4375,4.46875,-3.7448107448107453,-8.054945054945055,-1.8730158730158732,0.0,-1.53125,4.625,-3.533577533577533,-9.628815628815627,-1.5164835164835164,0.0,-1.15625,4.875,-1.0390720390720392,-9.924297924297925,0.0,0.0,0.0,4.9375,2.4346764346764345,-9.711843711843713,0.7619047619047619,0.0,0.0,4.8125,4.814407814407813,-9.476190476190476,1.5604395604395604,0.0,0.0,4.25,4.459096459096459,-7.442002442002442,1.6043956043956045,0.0,-1.03125,3.40625,2.627594627594628,-6.361416361416361,0.8327228327228328,0.0,-1.40625,2.8125,3.1916971916971923,-5.53968253968254,0.0,0.0,-1.125,2.5625,4.355311355311355,-4.355311355311355,0.0,0.0,-0.78125,2.34375,5.411477411477412,-4.5054945054945055,0.0,0.0,-0.71875,2.125,7.250305250305249,-4.417582417582418,0.0,0.0,-0.59375,1.6875,8.078144078144078,-4.0647130647130645,-0.8449328449328449,0.0,0.0,1.21875,7.912087912087912,-3.2124542124542126,-0.9829059829059827,0.0,0.0,0.71875,7.454212454212454,-2.3626373626373627,-1.4004884004884004,0.0,0.0,0.0,6.907203907203908,-1.9047619047619049,-1.4456654456654456,0.0,0.0,0.0,5.7313797313797314,-1.3113553113553114,-1.4737484737484738,0.0,0.0,0.0,4.205128205128204,-0.9169719169719168,-1.4151404151404152,0.0,0.0,-0.53125,2.645909645909646,-0.5299145299145299,-0.8351648351648352,0.0,0.0,-0.65625,1.043956043956044,0.0,0.0,0.0,0.0,-0.65625,,,,,,,,,,,,,,,,,,,,,,,,,,,,,,,,,,,,,,,,,,,,,,,,,,,,,,,,,,,,,,,,,,,,,,,,,,,,,,,,,,,,,,,,,,,,,,,,,,,,,,,wp_next
accX,-3.782661782661783,1.2258852258852257,-0.7557997557997558,0.0,0.0,0.0,-5.141636141636141,0.9548229548229548,-1.7533577533577531,0.0,0.0,0.0,-6.564102564102564,2.2014652014652016,-1.9206349206349207,0.0,0.0,0.875,-7.671550671550674,2.771672771672772,-1.5885225885225884,0.53125,0.0,1.6875,-8.437118437118437,0.0,-3.0024420024420024,1.0625,-0.90625,3.1875,-8.476190476190476,-2.2698412698412698,-4.417582417582418,0.65625,-0.5625,3.40625,-6.581196581196581,-2.6605616605616604,-3.483516483516484,0.0,0.0,3.46875,-4.987789987789989,-2.245421245421245,-2.9426129426129437,-0.65625,0.0,3.75,-4.294261294261294,-2.330891330891331,-2.1684981684981683,-0.84375,-0.625,4.0,-3.358974358974359,-3.0891330891330893,-1.5152625152625152,-0.59375,-1.1875,4.1875,-4.101343101343101,-6.655677655677656,-2.9609279609279615,-0.59375,-1.34375,4.0,-3.527472527472528,-6.504273504273504,-2.457875457875458,-1.375,-0.9375,3.8125,-2.934065934065934,-5.507936507936507,-1.3943833943833943,-1.6875,-0.78125,4.09375,-2.11965811965812,-5.838827838827839,-0.7326007326007326,-1.40625,-0.71875,4.1875,-1.3614163614163617,-6.818070818070817,-0.8070818070818071,-1.03125,-0.78125,4.15625,-0.6739926739926739,-7.146520146520147,-0.7496947496947497,-0.71875,-1.34375,3.9375,-1.78998778998779,-7.7997557997558,-1.8632478632478635,-0.84375,-1.28125,3.65625,-2.5457875457875456,-6.9694749694749705,-1.5665445665445663,-0.90625,-0.78125,3.71875,-1.5934065934065933,-6.64957264957265,-0.5372405372405372,-0.75,-0.5625,3.78125,-0.9035409035409036,-6.682539682539683,0.0,-0.625,-0.8125,3.65625,-0.8803418803418803,-6.747252747252747,0.0,-0.59375,-1.0625,3.65625,-1.7887667887667889,-6.321123321123321,0.8315018315018315,0.0,-0.5625,3.78125,-1.0158730158730158,-6.551892551892553,0.8827838827838828,0.0,0.0,4.0625,2.203907203907204,-6.744810744810745,1.2258852258852257,0.0,0.0,3.84375,4.5738705738705745,-6.744810744810745,1.7826617826617828,0.0,0.0,3.21875,4.549450549450549,-5.877899877899878,2.3626373626373627,0.0,-0.65625,2.8125,4.6800976800976795,-5.439560439560441,2.13064713064713,0.0,0.0,2.40625,6.271062271062272,-4.4896214896214905,0.9975579975579976,0.0,-0.53125,1.78125,5.413919413919414,-2.978021978021978,0.0,0.0,-0.5625,1.375,4.9682539682539675,-1.927960927960928,0.0,0.0,0.0,1.1875,5.0769230769230775,-1.537240537240537,-1.0256410256410255,0.0,0.0,1.0625,5.5555555555555545,-1.1428571428571428,-1.0866910866910866,0.0,0.0,0.8125,5.482295482295481,-1.0048840048840049,-1.0525030525030523,0.0,0.0,0.0,4.380952380952381,-0.63003663003663,-1.2295482295482296,0.0,0.0,0.0,3.382173382173382,0.0,-1.1721611721611722,0.0,0.0,0.0,2.4029304029304033,0.0,-0.8998778998778999,0.0,0.0,0.0,1.5836385836385836,0.0,-0.6739926739926739,0.0,0.0,0.0,1.4664224664224663,0.0,0.0,0.0,0.0,0.0,,,,,,,,,,,,,,,,,,,,,,,,,,,,,,,,,,,,,wp_next
accX,-2.207570207570208,1.8644688644688645,0.0,0.53125,0.53125,-1.0,-3.826617826617827,1.5714285714285714,0.0,1.0,0.0,-0.9375,-4.576312576312576,1.8693528693528692,-0.7081807081807082,1.15625,0.0,-0.59375,-6.262515262515263,1.192918192918193,-1.47985347985348,0.90625,0.0,0.0,-8.05982905982906,0.0,-2.6373626373626373,0.53125,0.0,1.03125,-8.556776556776558,0.0,-3.2576312576312576,0.0,0.0,1.625,-8.294261294261295,0.0,-3.2063492063492065,0.0,0.0,2.375,-8.335775335775336,0.0,-2.9914529914529915,-0.625,-0.53125,3.0,-8.589743589743591,0.0,-2.3736263736263736,0.0,-0.875,3.53125,-8.874236874236875,-2.3736263736263736,-2.965811965811966,0.0,-0.96875,4.21875,-8.290598290598291,-5.212454212454213,-4.1098901098901095,-1.09375,-0.78125,4.65625,-6.387057387057388,-5.361416361416361,-3.431013431013431,-1.5,-0.8125,4.65625,-4.63980463980464,-5.64957264957265,-2.417582417582417,-1.71875,-1.34375,4.65625,-4.378510378510379,-5.411477411477412,-2.053724053724053,-1.59375,-1.9375,4.625,-4.755799755799756,-5.632478632478633,-1.4261294261294262,-1.28125,-2.375,5.0625,-4.4041514041514045,-8.280830280830282,-0.6251526251526252,-0.5625,-1.75,5.5,-1.9768009768009769,-9.328449328449327,0.0,-0.65625,-0.96875,5.125,0.0,-9.202686202686204,0.0,-0.78125,-1.0625,4.90625,0.0,-8.163614163614163,0.0,-0.84375,-2.0,4.71875,-2.3321123321123323,-7.163614163614165,0.0,0.0,-2.375,4.46875,-3.073260073260073,-7.9181929181929185,0.0,0.0,-1.6875,4.625,-0.9279609279609279,-9.2979242979243,-0.9401709401709402,0.59375,-0.78125,5.03125,1.5482295482295485,-9.72161172161172,-1.6153846153846154,0.65625,0.0,5.0,2.537240537240537,-8.672771672771674,-1.9328449328449329,0.0,0.0,4.5,2.47008547008547,-7.299145299145299,-1.7631257631257633,0.0,0.0,3.96875,3.0085470085470085,-6.418803418803419,-0.9792429792429792,0.0,0.0,3.53125,4.015873015873016,-5.648351648351648,0.0,0.0,0.0,2.71875,4.126984126984127,-4.831501831501831,0.6471306471306472,0.0,-0.59375,2.21875,3.717948717948718,-3.4285714285714284,0.778998778998779,0.0,-0.625,1.90625,3.11965811965812,-2.6227106227106227,0.0,0.0,0.0,1.8125,3.8083028083028077,-2.5433455433455427,0.0,0.0,0.0,1.6875,4.695970695970696,-2.5885225885225887,0.0,0.0,0.0,1.375,5.728937728937728,-2.4590964590964592,0.0,0.0,0.0,1.03125,5.886446886446887,-1.94993894993895,0.0,0.0,0.0,0.625,5.532356532356533,-1.8547008547008548,0.0,0.0,0.0,0.0,5.230769230769232,-1.3858363858363858,-0.5091575091575091,0.0,0.0,0.0,3.934065934065934,-0.9010989010989012,-1.0305250305250304,0.0,0.0,0.0,2.8754578754578755,-0.536019536019536,-1.3247863247863247,0.0,0.0,0.0,2.527472527472528,0.0,-1.166056166056166,0.0,0.0,0.0,2.0476190476190474,-0.9975579975579976,-1.164835164835165,0.0,0.0,0.0,,,,,,,,,,,,,,,,,,,,,,,,,wp_next
accX,-2.511599511599512,1.7435897435897436,0.0,0.96875,0.0,-1.0625,-1.380952380952381,0.8290598290598291,0.0,1.09375,0.0,-0.9375,-3.2808302808302807,1.4407814407814408,-2.075702075702076,1.0,0.0,-0.84375,-3.8437118437118434,1.3894993894993894,-1.3724053724053724,1.09375,0.0,-0.625,-4.809523809523808,2.2295482295482296,-1.3308913308913308,1.125,0.0,0.0,-6.158730158730159,1.4285714285714286,-2.571428571428572,1.3125,0.0,0.0,-7.970695970695972,0.8925518925518926,-3.245421245421245,1.1875,0.0,0.78125,-9.443223443223443,0.0,-4.183150183150183,0.8125,0.0,1.5,-9.1013431013431,-0.7582417582417582,-4.5177045177045185,0.0,0.0,1.90625,-8.074481074481074,-0.6153846153846154,-4.140415140415141,-0.78125,0.0,2.25,-7.164835164835164,-0.6105006105006106,-3.628815628815629,-1.375,0.0,2.75,-7.180708180708182,-1.4456654456654456,-3.937728937728938,-1.71875,-1.0,3.3125,-7.512820512820514,-2.5006105006105006,-4.264957264957265,-1.8125,-1.5625,3.875,-6.957264957264957,-4.772893772893774,-4.858363858363859,-1.96875,-1.34375,4.375,-5.683760683760683,-5.913308913308914,-4.367521367521366,-2.25,-1.0625,4.75,-4.01953601953602,-6.344322344322344,-3.4603174603174605,-2.21875,-1.03125,4.84375,-2.7142857142857144,-6.826617826617826,-2.4444444444444446,-1.84375,-1.3125,4.71875,-2.518925518925519,-8.34920634920635,-1.7960927960927962,-1.6875,-1.625,4.71875,-2.879120879120879,-8.732600732600732,-1.3772893772893773,-1.53125,-1.6875,4.71875,-3.869352869352869,-9.744810744810744,-1.7716727716727716,-1.375,-1.46875,4.875,-4.028083028083028,-9.98046398046398,-1.2393162393162394,-1.21875,-1.03125,5.09375,-3.7557997557997562,-9.498168498168498,-1.0073260073260073,-0.78125,-0.625,5.3125,-2.9401709401709404,-10.402930402930403,-0.6227106227106227,0.0,0.0,5.5625,-1.815628815628816,-10.938949938949941,0.0,0.0,0.0,5.5,-1.1526251526251523,-10.427350427350428,0.0,0.0,0.0,5.21875,0.8327228327228328,-9.328449328449327,2.072039072039072,0.0,0.0,4.78125,3.326007326007326,-9.056166056166056,3.5824175824175826,0.0,0.0,4.53125,5.822954822954823,-9.905982905982906,3.5042735042735043,0.0,0.0,3.90625,6.719169719169719,-8.627594627594629,2.263736263736264,0.0,-0.59375,3.0625,7.722832722832723,-8.334554334554335,1.1855921855921856,0.0,-0.78125,2.34375,9.55921855921856,-6.844932844932845,0.0,0.0,-0.78125,1.625,9.537240537240537,-5.339438339438339,0.0,0.0,-1.0,0.875,8.042735042735043,-3.771672771672772,-1.4932844932844933,0.0,-1.03125,0.0,6.117216117216118,-2.9010989010989015,-2.3919413919413923,0.0,-0.75,0.0,4.858363858363859,-1.8547008547008548,-2.503052503052503,0.0,0.0,0.0,4.31013431013431,-1.0818070818070815,-1.5238095238095235,0.0,0.0,0.0,3.4249084249084247,-0.7228327228327228,0.0,0.0,0.0,0.0,2.6764346764346763,0.0,0.5262515262515263,0.0,0.0,-0.53125,1.8522588522588523,-0.7045177045177046,0.8827838827838828,0.0,0.0,-0.5625,,,,,,,,,,,,,,,,,,,,,,,,,,,,,,,wp_next
accX,-4.816849816849817,1.8168498168498168,-0.5970695970695971,0.0,0.0,-1.0625,-4.827838827838828,2.7887667887667886,0.0,0.0,0.0,-0.9375,-4.9584859584859595,1.8656898656898655,-0.9963369963369964,0.65625,0.0,0.0,-6.733821733821733,1.824175824175824,-2.028083028083028,0.0,0.0,0.0,-6.9804639804639805,2.2527472527472527,-2.2625152625152625,0.0,0.0,1.0625,-7.324786324786324,2.6349206349206344,-2.3174603174603177,0.0,0.0,1.65625,-7.313797313797313,1.5665445665445663,-2.7228327228327234,0.0,0.0,2.125,-7.536019536019536,0.9059829059829059,-2.6715506715506714,0.0,-0.6875,2.6875,-7.728937728937728,-0.5262515262515263,-3.1575091575091574,-0.5625,-0.78125,3.125,-6.68986568986569,-1.2991452991452992,-2.8583638583638584,-0.75,-0.9375,3.46875,-5.371184371184371,-1.8131868131868127,-2.2344322344322345,-0.75,-1.375,3.75,-4.307692307692308,-2.503052503052503,-1.7973137973137974,-0.625,-1.96875,3.96875,-5.269841269841269,-5.17948717948718,-3.3382173382173383,-0.75,-1.96875,3.96875,-5.302808302808303,-6.695970695970696,-4.074481074481073,-1.375,-1.3125,4.125,-3.783882783882784,-5.583638583638583,-2.8986568986568986,-1.4375,-1.125,4.5,-1.536019536019536,-7.744810744810745,-2.6031746031746037,-1.28125,-1.125,4.53125,0.0,-8.306471306471307,-2.559218559218559,-1.375,-1.03125,4.28125,0.0,-7.993894993894994,-2.385836385836386,-1.4375,-1.125,4.0,0.0,-7.560439560439559,-2.0268620268620268,-1.40625,-1.34375,3.71875,0.0,-6.947496947496947,-1.3076923076923077,-1.25,-1.40625,3.65625,0.0,-6.990231990231991,-0.6691086691086691,-0.84375,-1.125,3.75,0.0,-6.996336996336996,0.0,0.0,-0.78125,3.84375,0.0,-6.930402930402932,-0.6019536019536019,0.0,-0.6875,3.75,0.0,-5.954822954822955,0.0,0.0,-0.71875,3.5625,0.0,-5.648351648351648,0.0,0.0,-0.625,3.4375,0.0,-5.12087912087912,0.818070818070818,0.0,0.0,3.4375,0.0,-4.8498168498168495,1.6153846153846154,0.0,-0.625,3.25,0.0,-4.507936507936508,1.989010989010989,0.0,-0.90625,3.0625,0.0,-3.6703296703296697,2.173382173382173,0.0,-1.15625,2.96875,0.0,-4.083028083028083,1.5506715506715507,0.59375,-1.0625,2.96875,1.78021978021978,-3.826617826617827,0.0,0.71875,-0.8125,2.84375,3.4481074481074483,-3.412698412698413,-0.6153846153846154,0.8125,-0.78125,2.59375,5.061050061050062,-3.2612942612942613,-1.4407814407814408,0.75,-0.8125,2.1875,5.915750915750916,-3.175824175824176,-1.8485958485958487,0.59375,-0.71875,1.71875,6.224664224664225,-3.3382173382173383,-1.8315018315018317,0.0,0.0,1.1875,6.476190476190476,-2.4652014652014653,-1.8180708180708183,0.0,0.0,0.8125,6.277167277167277,-1.7692307692307692,-1.7313797313797314,0.0,0.0,0.0,4.953601953601954,-1.2735042735042734,-1.8974358974358971,0.0,0.0,0.0,3.4847374847374852,-0.7875457875457875,-0.5177045177045178,0.0,0.0,0.0,3.240537240537241,-0.73992673992674,0.0,0.0,0.0,0.0,,,,,,,,,,,,,,,,,,,,,,,,,wp_next
accX,-3.8376068376068377,3.571428571428572,-0.6019536019536019,1.03125,0.0,-0.71875,-4.6874236874236885,2.0525030525030523,-1.4908424908424909,0.96875,0.0,0.0,-4.847374847374847,1.617826617826618,-1.9816849816849815,0.6875,0.0,0.0,-4.588522588522588,2.8424908424908426,-1.122100122100122,0.75,0.0,0.0,-6.910866910866911,2.924297924297924,-1.2698412698412698,0.78125,-0.78125,0.78125,-8.145299145299145,2.4505494505494507,-1.47985347985348,0.9375,-0.9375,1.4375,-9.825396825396826,0.0,-2.8705738705738706,0.8125,-0.59375,1.96875,-9.085470085470083,0.0,-2.717948717948718,0.0,0.0,2.5625,-7.214896214896215,0.0,-2.166056166056166,0.0,0.0,3.03125,-6.61050061050061,0.6105006105006106,-1.8339438339438336,-0.65625,-0.71875,3.34375,-6.349206349206349,0.0,-2.1697191697191696,0.0,-1.28125,3.5,-6.36019536019536,-3.0048840048840044,-3.6593406593406588,-0.65625,-1.5,3.65625,-5.233211233211233,-3.7960927960927964,-3.4065934065934065,-1.21875,-1.375,3.6875,-4.3748473748473735,-3.4371184371184373,-2.6935286935286937,-1.53125,-1.34375,3.90625,-3.9059829059829063,-4.227106227106227,-2.547008547008547,-1.375,-1.28125,4.21875,-2.706959706959707,-5.627594627594628,-2.1965811965811968,-0.90625,-1.125,4.53125,-1.6495726495726497,-7.136752136752138,-2.3003663003662997,-0.78125,-1.125,4.4375,-1.293040293040293,-8.357753357753358,-2.393162393162393,-0.90625,-1.09375,4.21875,-0.9951159951159952,-7.83028083028083,-1.8632478632478635,-0.9375,-1.03125,4.09375,-0.7594627594627594,-7.89010989010989,-1.120879120879121,-0.8125,-0.9375,4.03125,0.0,-7.6190476190476195,-0.7948717948717948,-0.5625,-1.0,3.84375,0.0,-7.603174603174603,-0.6581196581196581,0.0,-1.0625,3.59375,0.0,-7.354090354090353,0.0,0.0,-0.875,3.40625,-0.6654456654456654,-6.721611721611723,0.0,0.0,-0.5625,3.34375,0.0,-5.965811965811965,1.0341880341880345,0.0,0.0,3.28125,0.0,-5.05128205128205,1.7264957264957266,0.0,0.0,3.125,0.0,-4.599511599511598,1.7997557997557998,0.0,0.0,2.9375,0.0,-3.7240537240537237,1.7313797313797314,0.0,0.0,2.8125,-0.525030525030525,-3.5836385836385842,1.6275946275946276,0.0,-0.53125,2.78125,0.0,-3.1916971916971923,1.9352869352869355,0.0,0.0,2.875,0.7130647130647131,-2.9853479853479854,2.1587301587301586,0.59375,0.0,2.96875,1.3943833943833943,-3.2710622710622714,1.6336996336996337,0.78125,0.0,2.84375,1.8485958485958487,-2.9609279609279615,1.1709401709401708,0.875,-0.53125,2.75,3.028083028083028,-2.9035409035409034,0.0,1.0,0.0,2.65625,4.567765567765568,-3.2295482295482296,-1.7142857142857142,1.125,0.0,2.5,6.1611721611721615,-3.0085470085470085,-2.9255189255189253,1.0,0.0,2.15625,6.925518925518925,-3.0830280830280827,-2.913308913308913,0.78125,0.0,1.6875,7.747252747252747,-2.814407814407814,-2.0195360195360195,0.0,0.6875,1.15625,7.866910866910866,-2.2820512820512815,-1.6105006105006106,0.0,0.0,0.0,6.063492063492062,-1.7032967032967032,-1.641025641025641,0.0,0.0,0.0,3.5909645909645915,-0.8876678876678876,-1.31990231990232,0.0,0.0,-0.5625,2.2014652014652016,0.0,-0.6117216117216118,0.0,0.0,-0.59375,,,,,,,,,,,,,wp_next
accX,-0.5274725274725275,1.194139194139194,0.0,0.8125,0.0,-0.8125,-0.9768009768009768,0.0,-1.0757020757020757,0.71875,0.0,-0.96875,-1.9010989010989008,0.7777777777777778,-2.051282051282051,0.0,0.0,-1.03125,-3.067155067155068,2.1355311355311355,-2.3223443223443225,0.0,0.0,-0.75,-4.598290598290598,2.211233211233212,-2.358974358974359,0.0,-0.625,0.0,-5.892551892551893,2.2246642246642248,-2.686202686202686,0.0,-0.75,0.0,-7.644688644688644,1.868131868131868,-3.2429792429792434,0.0,-0.71875,0.84375,-8.401709401709402,1.6459096459096458,-4.224664224664225,0.0,-0.625,1.4375,-8.11965811965812,1.8070818070818069,-3.6471306471306466,-0.71875,-0.75,2.09375,-7.653235653235654,1.4932844932844933,-3.507936507936508,-0.75,-0.9375,2.71875,-7.126984126984127,0.6666666666666666,-3.043956043956044,0.0,-1.21875,3.78125,-6.08058608058608,-3.173382173382173,-3.9194139194139193,-0.53125,-1.25,4.3125,-4.345543345543345,-4.670329670329671,-3.4993894993894994,-1.09375,-1.125,4.46875,-2.4273504273504267,-4.53968253968254,-1.6727716727716728,-1.40625,-1.4375,4.375,-1.424908424908425,-4.4322344322344325,0.0,-1.28125,-2.09375,4.125,-2.034188034188034,-5.1672771672771685,0.0,-0.875,-2.875,4.1875,-3.9841269841269837,-8.948717948717949,-2.3223443223443225,-0.875,-2.6875,4.125,-2.145299145299145,-8.267399267399268,-1.7484737484737485,-1.375,-1.78125,4.09375,-0.5836385836385837,-7.084249084249084,-0.7533577533577533,-1.1875,-1.59375,4.21875,0.0,-7.378510378510379,-1.0695970695970696,-0.65625,-1.71875,4.21875,-0.5470085470085471,-7.523809523809524,-0.9536019536019535,0.0,-1.9375,4.1875,-1.115995115995116,-8.19047619047619,-1.5054945054945057,0.0,-1.9375,4.15625,-1.7655677655677655,-8.8974358974359,-2.4310134310134313,0.0,-1.0625,4.0,-0.6532356532356532,-7.1037851037851025,-1.4163614163614164,0.0,-0.84375,3.96875,0.0,-6.483516483516484,-0.6483516483516484,0.0,-0.90625,3.84375,0.0,-6.6190476190476195,0.0,0.0,-0.96875,3.75,-0.5543345543345544,-6.456654456654457,0.6495726495726496,0.0,-0.875,3.65625,-0.5763125763125763,-6.542124542124543,1.0366300366300367,0.0,-0.6875,3.53125,0.0,-5.63980463980464,1.678876678876679,0.0,-0.53125,3.40625,1.3357753357753357,-5.003663003663004,2.096459096459097,0.71875,-0.6875,3.28125,3.389499389499389,-5.205128205128204,0.9230769230769232,0.8125,-1.125,2.84375,5.208791208791209,-5.0708180708180715,-0.5079365079365079,0.65625,-1.59375,2.09375,4.984126984126983,-3.908424908424908,-1.953601953601953,0.0,-1.5625,1.5,5.015873015873017,-2.6312576312576312,-2.6092796092796093,0.0,-1.1875,1.25,5.684981684981684,-1.7692307692307692,-2.192918192918193,0.0,-0.65625,1.03125,5.17948717948718,-1.4615384615384617,-2.3321123321123323,0.0,0.0,0.75,4.671550671550672,-0.7753357753357754,-2.41025641025641,0.0,0.0,0.0,3.958485958485959,0.0,-2.192918192918193,0.0,0.0,0.0,3.0842490842490844,0.0,-2.0061050061050056,0.0,0.0,0.0,2.7032967032967035,0.0,-1.5909645909645909,0.0,0.0,0.0,2.559218559218559,0.0,-1.3406593406593406,0.0,0.0,0.0,,,,,,,,,,,,,,,,,,,wp_next
accX,-2.0354090354090357,2.94993894993895,-0.6361416361416361,0.625,0.0,-0.5625,-1.6862026862026862,2.195360195360196,0.0,1.15625,0.0,0.0,-2.9865689865689866,1.1086691086691087,-1.7301587301587302,1.25,-0.65625,0.0,-4.089133089133089,1.514041514041514,-2.56043956043956,0.8125,-0.65625,0.0,-5.732600732600732,2.829059829059829,-2.6935286935286937,0.0,-0.6875,0.0,-6.9010989010989015,3.7655677655677655,-2.330891330891331,0.53125,-0.5625,1.25,-6.937728937728938,2.0427350427350426,-3.0048840048840044,0.84375,-0.53125,2.03125,-6.885225885225887,-0.9731379731379732,-5.184371184371185,0.53125,0.0,2.28125,-6.394383394383395,0.0,-4.827838827838828,-0.78125,0.0,2.59375,-5.559218559218558,0.0,-4.076923076923077,-1.125,-0.8125,2.96875,-4.733821733821734,0.0,-3.42002442002442,-1.0,-1.1875,3.25,-3.768009768009768,0.0,-2.4603174603174605,-0.59375,-1.65625,3.75,-3.8021978021978016,-2.565323565323565,-2.971916971916972,0.0,-1.875,4.03125,-4.047619047619048,-6.68986568986569,-5.124542124542124,-1.28125,-1.25,3.78125,-2.305250305250305,-6.233211233211232,-4.0818070818070815,-2.03125,-1.03125,3.78125,-0.8229548229548229,-5.235653235653237,-2.346764346764347,-2.0,-1.25,3.65625,0.0,-5.824175824175824,-1.5958485958485962,-1.75,-1.75,3.625,-1.120879120879121,-6.125763125763125,-0.7521367521367521,-1.5,-1.96875,3.8125,-1.275946275946276,-6.137973137973138,0.0,-1.03125,-1.96875,4.0625,-1.9658119658119655,-8.048840048840049,-1.195360195360195,-0.84375,-1.25,4.03125,0.0,-7.792429792429793,-0.6605616605616605,-0.8125,-0.875,3.84375,0.0,-7.2918192918192934,0.0,-0.71875,-1.03125,3.71875,0.0,-6.676434676434678,0.0,0.0,-1.125,3.5625,-0.6190476190476191,-6.288156288156288,1.2857142857142858,0.0,-1.125,3.59375,0.0,-6.363858363858364,1.982905982905983,0.0,-1.0,3.65625,0.0,-6.658119658119658,2.101343101343101,0.53125,-0.875,3.53125,0.0,-6.213675213675214,2.36019536019536,0.6875,-0.9375,3.40625,0.6275946275946276,-5.83028083028083,2.8302808302808304,0.90625,-1.125,3.21875,1.0231990231990231,-5.570207570207571,2.590964590964591,1.0,-1.34375,2.90625,0.9206349206349206,-4.678876678876679,2.133089133089133,1.03125,-1.5625,2.71875,1.2576312576312576,-4.349206349206349,0.9365079365079364,1.25,-1.5,2.5625,2.385836385836386,-4.142857142857143,-0.5018315018315018,1.34375,-1.40625,2.125,3.683760683760684,-3.568986568986569,-1.7252747252747254,1.21875,-1.6875,1.8125,3.5457875457875456,-3.3345543345543347,-2.688644688644689,0.96875,-1.59375,1.625,4.407814407814408,-2.8803418803418803,-3.225885225885226,0.75,-1.1875,1.40625,5.7484737484737485,-2.383394383394384,-4.062271062271062,0.59375,-0.78125,1.0625,5.8669108669108665,-2.0354090354090357,-4.819291819291818,0.0,0.0,0.71875,5.675213675213676,-1.7387057387057387,-4.941391941391942,0.0,0.0,0.0,5.722832722832723,-1.4481074481074483,-3.938949938949939,0.0,0.0,0.0,5.065934065934067,-1.1172161172161172,-3.095238095238096,0.0,0.0,0.0,4.0085470085470085,-0.9010989010989012,-2.437118437118437,0.0,0.0,0.0,,,,,,,,,,,,,,,,,,,wp_next
accX,-1.0683760683760684,2.091575091575092,-0.8901098901098901,0.75,0.0,0.0,-1.1086691086691087,2.844932844932845,-0.9157509157509156,1.09375,0.0,0.0,-2.208791208791209,2.8986568986568986,-1.623931623931624,1.4375,0.0,0.0,-4.213675213675214,3.0048840048840044,-2.437118437118437,1.1875,0.0,0.0,-5.108669108669108,3.0207570207570207,-3.2026862026862033,0.9375,0.0,0.71875,-6.496947496947497,2.5213675213675213,-3.9694749694749696,0.71875,0.0,1.125,-8.849816849816849,0.0,-5.08058608058608,0.0,0.0,1.53125,-10.057387057387057,0.0,-4.349206349206349,-0.78125,0.0,2.03125,-9.02930402930403,0.6202686202686203,-2.935286935286935,-1.46875,0.0,2.6875,-7.477411477411477,-0.8888888888888888,-2.445665445665446,-1.5,0.0,3.15625,-6.660561660561662,-2.0073260073260077,-2.7765567765567765,-1.5625,-0.5625,3.5625,-5.547008547008547,-3.5409035409035408,-3.2625152625152625,-1.59375,-0.875,3.90625,-4.4371184371184365,-4.87057387057387,-3.404151404151404,-1.84375,-1.15625,4.0,-3.7142857142857135,-5.034188034188034,-2.9023199023199022,-2.21875,-1.375,3.96875,-3.627594627594628,-5.615384615384616,-2.102564102564102,-2.03125,-1.53125,4.15625,-2.8949938949938954,-6.205128205128204,-1.7167277167277166,-1.5625,-1.5625,4.40625,-2.551892551892552,-6.7094017094017095,-1.0244200244200243,-1.09375,-1.5625,4.75,-2.3003663003662997,-8.476190476190476,-0.8241758241758241,-0.71875,-1.3125,4.875,-1.5067155067155067,-10.584859584859585,-1.1452991452991452,-0.875,-0.78125,4.625,0.0,-10.091575091575091,-0.6862026862026862,-0.96875,-0.59375,4.25,0.0,-8.703296703296703,0.0,-0.78125,-0.71875,3.9375,0.0,-7.892551892551893,0.7704517704517705,-0.53125,-0.90625,3.75,-0.7350427350427351,-7.3369963369963385,1.4065934065934067,0.0,-0.875,3.65625,-0.6703296703296703,-7.234432234432234,1.434676434676435,0.0,-0.5625,3.4375,-0.6642246642246642,-7.117216117216118,1.0244200244200243,0.0,0.0,3.28125,-0.7020757020757019,-6.0769230769230775,2.3663003663003663,0.0,0.0,3.125,2.667887667887668,-4.979242979242978,4.305250305250305,0.53125,0.0,2.78125,2.5128205128205128,-5.134310134310135,2.283272283272283,0.6875,-1.28125,2.1875,0.6813186813186813,-3.88034188034188,0.0,0.0,-1.75,1.65625,0.0,-2.0366300366300365,0.0,0.0,-1.71875,1.53125,0.0,-1.3516483516483515,-0.6568986568986569,0.5625,-1.4375,1.625,0.8205128205128205,-1.1391941391941391,-0.5323565323565324,0.75,-1.09375,1.75,1.7008547008547008,-1.387057387057387,0.0,0.78125,-0.84375,1.8125,2.8705738705738706,-1.293040293040293,-1.0586080586080586,0.8125,-0.625,1.875,4.394383394383396,-1.2283272283272284,-2.3162393162393164,0.84375,0.0,1.8125,5.3760683760683765,-1.3992673992673992,-3.361416361416361,0.84375,0.0,1.625,6.096459096459097,-1.7838827838827842,-3.695970695970696,0.65625,0.0,1.28125,7.146520146520147,-1.691086691086691,-3.3296703296703303,0.0,0.0,0.5625,7.202686202686203,-1.586080586080586,-2.8253968253968256,0.0,0.0,0.0,5.7936507936507935,-1.137973137973138,-2.490842490842491,-0.625,0.0,0.0,,,,,,,,,,,,,,,,,,,,,,,,,wp_next
accX,-4.8107448107448105,2.627594627594628,-0.7264957264957265,0.0,0.0,-0.59375,-5.377289377289378,3.6471306471306466,0.0,0.875,0.0,0.0,-5.588522588522588,3.3443223443223444,-0.5567765567765568,1.5,0.0,0.0,-5.112332112332112,4.101343101343101,0.0,1.96875,0.0,0.9375,-5.920634920634921,4.506715506715507,0.6654456654456654,2.46875,0.0,1.75,-7.814407814407813,1.7374847374847375,-2.266178266178266,2.625,0.0,2.375,-9.952380952380953,-3.161172161172161,-6.158730158730159,1.0625,0.875,2.375,-7.484737484737486,-2.8571428571428568,-5.108669108669108,-0.78125,1.59375,2.625,-4.527472527472527,0.0,-2.8534798534798536,-1.28125,0.9375,2.8125,-3.771672771672772,0.5372405372405372,-2.376068376068376,-1.25,0.0,2.78125,-4.660561660561661,-0.7142857142857143,-3.4627594627594624,-1.4375,-0.65625,2.90625,-5.4041514041514045,-2.533577533577533,-4.8498168498168495,-1.96875,-0.625,3.15625,-5.485958485958487,-2.9609279609279615,-4.6361416361416365,-2.34375,0.0,3.53125,-4.931623931623932,-3.4737484737484734,-3.7387057387057383,-2.34375,0.0,4.0,-2.3772893772893773,-5.564102564102564,-2.37973137973138,-2.28125,0.0,4.125,-2.103785103785104,-6.371184371184371,-1.6495726495726497,-2.25,-0.625,4.1875,-2.299145299145299,-6.566544566544566,-0.5970695970695971,-2.0,-0.6875,4.25,-2.1855921855921854,-6.568986568986569,0.5921855921855922,-1.40625,-0.65625,4.34375,-1.800976800976801,-8.142857142857142,0.7765567765567766,-0.71875,-0.6875,4.4375,-1.3443223443223444,-9.164835164835164,0.6862026862026862,-0.6875,0.0,4.15625,-0.5262515262515263,-8.26862026862027,1.2954822954822955,-0.96875,0.0,3.8125,0.0,-7.263736263736264,2.139194139194139,-1.09375,-0.59375,3.46875,0.0,-6.223443223443224,2.948717948717949,-0.9375,-0.84375,3.21875,0.0,-5.656898656898657,3.655677655677656,-0.59375,-1.0625,3.0625,0.0,-5.633699633699634,4.0,0.0,-1.09375,3.03125,0.0,-6.045177045177045,3.7216117216117217,0.0,-1.03125,2.9375,0.7521367521367521,-5.736263736263736,3.5579975579975582,0.0,-1.0625,2.71875,1.2625152625152625,-5.003663003663004,3.435897435897436,0.0,-1.28125,2.5,1.7228327228327232,-4.440781440781441,3.245421245421245,0.0,-1.5625,2.25,2.3846153846153846,-4.065934065934067,2.873015873015873,0.65625,-1.84375,2.03125,3.1538461538461537,-3.912087912087912,1.1343101343101345,0.8125,-1.84375,1.8125,4.282051282051282,-3.435897435897436,-1.4407814407814408,0.75,-1.78125,1.4375,4.481074481074482,-2.2527472527472527,-3.6214896214896215,0.59375,-1.65625,1.125,4.065934065934067,-1.0341880341880345,-4.413919413919414,0.0,-1.1875,1.03125,4.069597069597069,0.0,-4.266178266178266,0.0,0.0,1.03125,4.677655677655678,0.0,-3.8217338217338215,0.0,0.0,0.96875,5.31013431013431,0.0,-3.5470085470085464,0.0,0.0,0.65625,5.0647130647130645,0.0,-3.2490842490842486,0.0,0.0,0.0,4.660561660561661,0.0,-2.4664224664224665,0.0,0.0,0.0,4.024420024420024,0.0,-1.684981684981685,0.0,0.0,0.0,3.4065934065934065,0.0,-1.0708180708180708,0.0,0.0,0.0,2.551892551892552,-0.6349206349206349,-0.757020757020757,0.0,0.0,-0.53125,,,,,,,,,,,,,wp_next
accX,-3.3272283272283274,2.600732600732601,-1.6862026862026862,0.0,0.0,0.0,-2.7765567765567765,2.6312576312576312,-1.485958485958486,0.0,0.0,0.0,-2.5262515262515257,2.012210012210012,-1.6214896214896215,0.0,0.0,0.0,-3.1074481074481075,1.5726495726495726,-1.982905982905983,0.0,0.0,0.0,-3.705738705738706,1.9267399267399268,-2.236874236874237,0.0,0.0,0.0,-4.15995115995116,2.061050061050061,-2.6666666666666665,0.0,0.0,0.71875,-5.31013431013431,1.3516483516483515,-2.975579975579976,0.0,0.0,1.03125,-6.362637362637362,1.6153846153846154,-2.6715506715506714,-0.75,0.0,1.5,-6.266178266178267,1.465201465201465,-2.340659340659341,-0.9375,0.0,2.03125,-5.814407814407813,0.6446886446886447,-2.0586080586080584,-1.0,0.0,2.375,-6.307692307692308,0.0,-1.8888888888888888,-1.09375,-0.9375,2.65625,-7.9291819291819285,-2.31013431013431,-3.268620268620269,-1.21875,-1.1875,3.125,-6.527472527472527,-2.9938949938949935,-2.8937728937728937,-1.6875,-0.8125,3.4375,-4.82051282051282,-2.8913308913308917,-1.752136752136752,-1.9375,-0.96875,3.625,-4.247863247863248,-3.33943833943834,-1.5506715506715507,-1.65625,-1.6875,3.78125,-4.045177045177045,-3.8608058608058613,-1.537240537240537,-1.3125,-1.875,4.0625,-4.433455433455434,-6.875457875457876,-3.0354090354090357,-1.4375,-1.4375,4.15625,-2.5750915750915757,-6.905982905982907,-2.6996336996337003,-1.625,-1.125,4.15625,-0.9584859584859584,-6.374847374847374,-1.5482295482295485,-1.40625,-1.25,4.09375,-0.5299145299145299,-6.2857142857142865,-1.1428571428571428,-1.0625,-1.46875,3.96875,-0.6581196581196581,-6.275946275946276,-0.8229548229548229,-0.71875,-1.59375,4.0,-1.1355311355311355,-5.7887667887667895,0.0,0.0,-1.65625,4.09375,-1.463980463980464,-6.925518925518925,0.0,0.0,-1.28125,4.03125,0.0,-7.476190476190476,0.0,0.0,-0.96875,3.6875,0.5152625152625152,-6.802197802197803,0.0,0.0,-1.0,3.375,0.0,-5.958485958485959,0.9206349206349206,0.0,-1.15625,3.0625,0.0,-4.802197802197801,2.533577533577533,0.0,-1.125,3.0625,-0.6239316239316239,-6.0317460317460325,1.5824175824175823,0.71875,-1.03125,2.9375,0.7252747252747253,-5.230769230769232,1.534798534798535,0.0,-0.8125,2.625,1.6605616605616609,-4.230769230769232,1.5445665445665446,0.0,-0.9375,2.34375,1.8571428571428568,-3.764346764346764,1.398046398046398,0.0,-1.1875,2.125,2.073260073260073,-2.7448107448107453,1.4505494505494505,0.5625,-1.46875,1.90625,2.092796092796093,-2.4444444444444446,0.9157509157509156,0.75,-1.625,1.75,2.216117216117216,-2.05006105006105,0.0,0.84375,-1.5,1.53125,2.4322344322344316,-1.3772893772893773,-1.192918192918193,0.84375,-1.25,1.46875,3.05982905982906,-1.2148962148962148,-1.7277167277167278,0.8125,-1.0,1.46875,4.244200244200244,-0.912087912087912,-2.0695970695970702,0.6875,-0.75,1.34375,5.634920634920635,0.0,-2.511599511599512,0.6875,-0.53125,1.0625,5.970695970695972,-0.8803418803418803,-3.145299145299145,0.53125,0.0,0.65625,5.531135531135532,-0.7619047619047619,-3.56043956043956,0.0,0.0,0.0,4.417582417582418,0.0,-3.1282051282051277,0.0,0.0,0.0,4.083028083028083,0.0,-2.2808302808302807,0.0,0.0,0.0,3.6593406593406588,0.0,-1.5763125763125765,0.0,0.0,0.0,3.1697191697191696,0.0,-1.0989010989010992,0.0,0.0,0.0,wp_next
accX,-3.915750915750916,2.36019536019536,-1.5067155067155067,0.0,0.0,0.0,-4.235653235653237,2.7301587301587302,-1.5946275946275947,0.0,0.0,0.53125,-5.653235653235654,2.404151404151404,-2.3418803418803416,0.0,0.0,0.8125,-6.117216117216118,1.6092796092796091,-2.687423687423687,0.0,0.0,1.125,-7.454212454212454,2.5641025641025643,-2.514041514041514,0.0,0.0,1.59375,-7.866910866910866,1.6703296703296704,-2.6507936507936507,0.0,0.0,2.0625,-8.247863247863247,0.6910866910866911,-2.8107448107448105,-0.875,0.0,2.59375,-8.192918192918192,0.0,-3.1257631257631258,-1.15625,0.0,3.09375,-6.932844932844932,-0.6715506715506715,-2.6373626373626373,-1.3125,-0.65625,3.59375,-4.655677655677657,-2.7887667887667886,-2.9951159951159956,-1.3125,-1.03125,3.71875,-4.5555555555555545,-3.9462759462759465,-3.3638583638583635,-1.4375,-1.40625,3.78125,-5.4664224664224665,-5.433455433455434,-3.7472527472527473,-1.65625,-1.375,3.96875,-4.641025641025641,-5.826617826617826,-2.8351648351648358,-1.78125,-0.9375,4.25,-3.131868131868132,-6.965811965811965,-1.7728937728937728,-1.65625,-0.6875,4.53125,-1.7960927960927962,-7.527472527472527,0.0,-1.34375,-0.6875,4.65625,-1.0256410256410255,-7.7936507936507935,0.5909645909645911,-0.875,-0.78125,4.625,-0.8901098901098901,-8.296703296703297,1.006105006105006,0.0,-0.90625,4.59375,-0.9792429792429792,-9.31013431013431,0.0,0.0,-0.8125,4.375,0.0,-9.177045177045176,0.0,0.0,0.0,3.90625,0.9255189255189256,-7.496947496947497,1.4212454212454213,-0.71875,0.0,3.3125,0.9755799755799756,-6.024420024420023,2.4822954822954824,-0.5625,-1.0625,2.78125,0.0,-5.260073260073259,3.0073260073260077,0.0,-1.1875,2.5625,0.0,-4.888888888888889,3.0903540903540905,0.0,-1.25,2.46875,0.0,-5.183150183150183,2.4517704517704515,0.0,-1.125,2.3125,1.0854700854700854,-4.456654456654457,2.3821733821733817,0.0,-1.125,2.125,1.8363858363858363,-3.5836385836385842,2.56043956043956,0.0,-1.40625,1.90625,2.043956043956044,-3.1245421245421245,2.207570207570208,0.0,-1.625,1.6875,1.8107448107448108,-2.496947496947497,1.6153846153846154,0.6875,-1.65625,1.5625,1.733821733821734,-1.843711843711844,0.7338217338217338,0.78125,-1.5,1.40625,1.6605616605616609,-1.5433455433455434,0.0,0.8125,-1.375,1.375,1.4432234432234432,0.0,-1.3247863247863247,0.8125,-1.1875,1.40625,1.0769230769230769,0.0,-1.6483516483516485,0.8125,-0.5625,1.5625,3.4505494505494507,-0.5995115995115995,-1.5811965811965811,0.78125,0.0,1.5,4.556776556776557,-0.6605616605616605,-2.0854700854700856,0.71875,0.0,1.21875,4.547008547008547,0.0,-2.915750915750916,0.5625,0.0,0.875,3.975579975579976,0.0,-3.0854700854700856,0.0,0.0,0.5625,3.5470085470085464,0.0,-2.7008547008547015,0.0,0.0,0.0,2.975579975579976,0.0,-1.9731379731379728,0.0,0.0,0.0,2.4444444444444446,0.0,-1.3492063492063493,0.0,0.0,0.0,1.9548229548229548,0.0,-0.7350427350427351,0.0,0.0,0.0,1.5018315018315018,0.0,0.0,0.0,0.0,0.0,,,,,,,,,,,,,,,,,,,wp_next
accX,-2.2063492063492065,0.0,-1.5909645909645909,0.0,0.0,0.0,-3.456654456654457,0.0,-2.244200244200244,0.0,0.0,0.0,-5.1330891330891335,0.0,-2.3382173382173383,0.0,0.0,1.21875,-7.085470085470085,1.0879120879120878,-1.7545787545787546,0.0,0.0,1.6875,-7.158730158730159,0.0,-1.3186813186813189,0.0,0.0,2.09375,-6.978021978021977,-1.3162393162393162,-1.8388278388278387,0.0,0.0,2.40625,-8.04761904761905,-1.691086691086691,-1.7423687423687424,-1.125,-0.65625,2.75,-8.097680097680097,-1.2612942612942613,-1.8913308913308915,-1.4375,-0.8125,3.28125,-7.549450549450549,-1.5518925518925517,-2.1648351648351647,-1.40625,-0.8125,3.78125,-6.162393162393162,-2.811965811965812,-2.6105006105006106,-1.375,-0.9375,4.125,-5.08058608058608,-4.3748473748473735,-3.221001221001221,-1.5625,-1.1875,4.4375,-5.412698412698413,-5.4664224664224665,-3.8962148962148966,-1.75,-1.0625,4.75,-4.633699633699634,-5.958485958485959,-3.293040293040293,-1.71875,-0.75,5.0625,-3.412698412698413,-6.818070818070817,-2.6617826617826617,-1.46875,-0.625,5.1875,-2.3846153846153846,-7.858363858363857,-1.0903540903540905,-1.09375,-0.53125,5.21875,-1.2332112332112333,-9.107448107448107,0.0,-0.90625,0.0,5.25,-0.5299145299145299,-9.412698412698411,0.0,-0.75,0.0,5.03125,0.0,-8.866910866910867,1.0183150183150182,-0.5625,0.0,4.6875,0.6446886446886447,-7.956043956043956,1.5421245421245422,0.0,0.0,4.3125,0.0,-7.625152625152626,2.1587301587301586,0.0,0.0,3.9375,0.0,-7.05982905982906,2.1184371184371185,0.0,-0.59375,3.46875,0.8717948717948718,-6.174603174603175,2.5225885225885225,0.0,-0.65625,3.0625,1.3357753357753357,-5.2295482295482305,2.6324786324786325,0.0,-0.8125,2.65625,1.3406593406593406,-5.03052503052503,2.2796092796092795,0.0,-1.09375,2.28125,0.8620268620268621,-4.3748473748473735,1.4725274725274726,0.0,-1.34375,1.9375,0.7130647130647131,-3.3663003663003663,1.1672771672771671,0.0,-1.46875,1.8125,0.6556776556776557,-2.9902319902319903,0.8522588522588522,0.0,-1.28125,1.53125,0.6947496947496947,-2.467643467643468,0.6031746031746031,0.53125,-1.0625,1.5,0.9474969474969476,-1.9609279609279608,0.0,0.5625,-0.90625,1.5625,0.9230769230769232,-1.876678876678877,0.0,0.0,-0.75,1.53125,1.0463980463980465,-1.188034188034188,-0.5665445665445665,0.0,-0.5625,1.40625,1.2295482295482296,0.0,0.0,0.0,0.0,1.40625,1.9242979242979243,0.0,0.0,0.65625,0.0,1.4375,2.8351648351648358,0.0,-1.0293040293040292,0.71875,0.0,1.3125,3.371184371184371,0.0,-1.9242979242979243,0.625,0.0,1.09375,3.6910866910866913,0.0,-2.6166056166056166,0.0,0.0,0.96875,4.2735042735042725,0.0,-2.8925518925518925,0.0,0.5625,0.71875,4.691086691086691,0.0,-2.4029304029304033,0.0,0.625,0.0,4.091575091575091,0.0,-1.5970695970695972,0.0,0.59375,0.0,,,,,,,,,,,,,,,,,,,,,,,,,,,,,,,wp_next
accX,-3.0109890109890114,0.706959706959707,0.0,0.0,0.0,-1.25,-3.211233211233212,1.362637362637363,0.0,0.625,0.0,-1.15625,-3.743589743589744,1.4884004884004884,-0.5873015873015873,0.78125,0.0,-0.875,-4.479853479853481,1.188034188034188,-1.4188034188034189,0.9375,0.0,-0.59375,-4.9682539682539675,0.0,-3.10989010989011,0.0,0.0,0.0,-7.498168498168497,0.5396825396825397,-2.5836385836385842,0.0,-0.53125,0.8125,-9.557997557997558,1.4542124542124542,-1.750915750915751,0.0,0.0,1.4375,-10.622710622710622,1.1111111111111112,-0.967032967032967,0.0,0.0,2.375,-9.816849816849818,0.0,-0.5897435897435898,0.0,0.0,3.4375,-8.57997557997558,-3.5946275946275947,-3.086691086691087,0.0,0.0,4.09375,-8.263736263736265,-5.126984126984127,-3.9413919413919416,0.0,0.0,4.0,-6.8840048840048835,-3.8205128205128207,-2.7851037851037854,-1.34375,0.0,4.25,-5.565323565323565,-4.8327228327228315,-2.1074481074481075,-1.59375,0.0,4.65625,-4.5787545787545785,-5.643467643467643,-1.6324786324786325,-1.6875,-0.6875,4.875,-3.937728937728938,-6.650793650793651,-1.3333333333333333,-1.65625,-1.03125,4.96875,-3.4224664224664223,-7.479853479853481,-1.0573870573870574,-1.375,-1.21875,5.15625,-2.681318681318681,-8.617826617826617,-1.4969474969474967,-1.25,-1.03125,5.15625,-1.9865689865689864,-9.636141636141636,-2.003663003663004,-1.28125,-0.75,5.0625,-1.4383394383394383,-9.776556776556776,-1.6251526251526252,-1.375,0.0,5.0,-0.6544566544566545,-8.987789987789988,-0.6239316239316239,-1.1875,0.0,4.78125,0.0,-8.257631257631258,0.0,-0.90625,0.0,4.46875,1.0549450549450552,-7.559218559218558,1.0818070818070815,-0.53125,-0.625,4.09375,0.5091575091575091,-7.048840048840049,1.0573870573870574,0.0,-0.90625,3.84375,-0.6324786324786325,-7.1037851037851025,0.0,0.0,-0.625,3.59375,0.0,-6.16971916971917,0.9108669108669109,0.0,0.0,3.46875,0.7680097680097681,-5.106227106227107,1.9804639804639803,0.0,0.0,3.21875,1.3357753357753357,-4.835164835164835,2.324786324786325,0.0,-0.65625,2.84375,1.4041514041514038,-4.627594627594628,2.025641025641025,0.0,-0.90625,2.40625,1.8559218559218558,-3.2857142857142856,1.5470085470085468,0.0,-0.90625,2.25,2.0476190476190474,-2.8803418803418803,0.9218559218559218,0.53125,-1.0625,1.96875,2.0378510378510377,-2.068376068376069,0.8778998778998779,0.59375,-1.25,1.65625,1.608058608058608,-1.2576312576312576,0.63003663003663,0.6875,-1.28125,1.4375,2.0024420024420024,-1.2539682539682542,0.0,0.875,-1.03125,1.3125,3.3162393162393164,-1.2222222222222223,-1.387057387057387,0.84375,-0.84375,1.25,4.163614163614163,-0.7960927960927959,-2.15018315018315,0.6875,-0.8125,1.03125,4.214896214896215,0.0,-3.021978021978022,0.0,-0.71875,0.75,3.9169719169719173,0.0,-2.8852258852258847,0.0,-0.53125,0.53125,3.6056166056166057,0.0,-2.2600732600732596,0.0,0.0,0.0,3.505494505494505,0.5213675213675214,-1.4004884004884004,0.0,0.0,0.0,3.263736263736264,0.5714285714285714,-1.126984126984127,0.0,0.0,0.0,,,,,,,,,,,,,,,,,,,,,,,,,wp_next
accX,-5.881562881562883,0.8449328449328449,-1.5982905982905984,0.0,0.0,0.0,-7.372405372405372,0.5885225885225885,-2.244200244200244,0.0,0.0,0.8125,-10.411477411477412,0.0,-2.4884004884004884,0.0,0.0,1.8125,-8.638583638583638,-1.0561660561660562,-1.072039072039072,0.0,1.28125,3.15625,-6.5555555555555545,-2.2014652014652016,-1.2075702075702075,0.0,0.84375,3.5625,-6.2173382173382175,-3.096459096459097,-2.073260073260073,0.0,0.0,3.78125,-6.338217338217338,-2.9511599511599518,-2.4761904761904763,-0.9375,0.0,4.125,-5.632478632478633,-3.043956043956044,-2.2905982905982905,-1.125,-0.625,4.40625,-4.9291819291819285,-4.5006105006105015,-2.4920634920634916,-1.09375,-0.84375,4.4375,-4.484737484737486,-4.921855921855922,-2.4713064713064714,-1.40625,-1.0,4.5,-3.7997557997558,-5.611721611721611,-2.173382173382173,-1.59375,-1.0,4.625,-2.9829059829059825,-5.960927960927961,-1.9633699633699635,-1.78125,-0.8125,4.75,-1.661782661782662,-6.218559218559219,-1.194139194139194,-1.5625,-0.71875,4.8125,-0.8888888888888888,-6.7716727716727725,0.0,-1.25,-0.75,4.71875,-0.6092796092796092,-7.776556776556776,0.0,-0.875,-0.6875,4.5,0.0,-7.824175824175824,0.0,-0.84375,0.0,4.3125,1.083028083028083,-7.446886446886448,0.5347985347985348,-0.8125,-0.59375,4.09375,1.431013431013431,-6.7264957264957275,0.9706959706959708,-0.5625,-0.8125,3.6875,0.912087912087912,-5.981684981684983,1.3846153846153846,0.0,-0.9375,3.4375,0.0,-5.424908424908424,1.943833943833944,0.0,-0.78125,3.4375,0.0,-5.2967032967032965,2.2283272283272284,0.0,-0.53125,3.40625,1.3553113553113554,-5.63980463980464,1.7887667887667889,0.0,0.0,3.1875,2.126984126984127,-5.135531135531137,1.6056166056166057,0.0,-0.625,2.84375,2.324786324786325,-4.6800976800976795,1.8107448107448108,0.0,-0.6875,2.53125,2.1623931623931623,-4.267399267399267,1.962148962148962,0.0,-0.625,2.3125,2.148962148962149,-3.5506715506715505,1.6581196581196582,0.0,0.0,2.125,2.4639804639804637,-2.6910866910866917,1.2515262515262515,0.0,-0.53125,1.84375,2.371184371184371,-1.2271062271062272,0.7936507936507936,0.0,-0.5625,1.65625,2.4297924297924296,-1.0976800976800978,0.0,0.0,-0.53125,1.5,2.829059829059829,-0.8253968253968254,0.0,0.0,0.0,1.375,3.323565323565324,0.0,-0.5677655677655677,0.0,0.0,1.25,3.492063492063492,0.0,-0.8876678876678876,0.0,0.0,1.0,3.7423687423687424,0.0,-1.4126984126984128,0.0,0.0,0.75,3.595848595848596,0.0,-2.4688644688644694,0.0,0.0,0.0,2.8803418803418803,0.0,-2.8766788766788767,0.0,0.0,0.0,2.8632478632478637,0.6105006105006106,-2.034188034188034,0.0,0.0,0.0,3.216117216117216,0.6153846153846154,-1.1257631257631258,0.0,0.0,0.0,2.8925518925518925,0.0,-0.7838827838827839,0.0,0.0,0.0,2.148962148962149,0.0,-0.9169719169719168,0.0,0.0,0.0,1.5164835164835164,0.0,-1.0634920634920637,0.0,0.0,0.0,0.7619047619047619,0.0,-0.8547008547008547,-0.5625,0.0,0.0,,,,,,,,,,,,,,,,,,,wp_next
accX,-5.485958485958487,3.2332112332112333,-1.7973137973137974,0.65625,0.0,-0.53125,-6.0305250305250295,1.3797313797313795,-2.952380952380953,0.71875,0.0,0.0,-7.777777777777778,1.3846153846153846,-3.5750915750915757,0.0,0.0,0.71875,-7.912087912087912,2.105006105006105,-2.7216117216117217,0.0,0.0,1.28125,-7.9633699633699635,1.4993894993894994,-2.230769230769231,0.0,0.0,1.875,-8.164835164835164,0.0,-2.418803418803418,0.0,0.0,2.59375,-7.534798534798535,-0.5201465201465202,-2.457875457875458,-0.65625,0.0,3.03125,-6.847374847374848,-1.2747252747252746,-2.1868131868131866,-1.03125,0.0,3.28125,-6.835164835164836,-1.177045177045177,-1.9975579975579976,-1.21875,-0.625,3.53125,-6.131868131868132,-1.465201465201465,-1.8986568986568984,-1.15625,-0.96875,3.8125,-5.1147741147741135,-3.043956043956044,-2.0488400488400487,-1.21875,-1.3125,3.96875,-4.713064713064713,-4.971916971916972,-2.7399267399267404,-1.53125,-1.5,3.96875,-4.515262515262514,-5.7997557997558,-2.9108669108669107,-1.78125,-1.375,4.0,-3.965811965811966,-5.534798534798535,-2.238095238095238,-1.65625,-1.25,4.25,-2.2466422466422467,-6.141636141636143,-0.5531135531135531,-1.1875,-1.1875,4.5625,-2.0061050061050056,-7.326007326007326,-0.5067155067155067,-0.8125,-1.15625,4.6875,-2.2551892551892547,-8.644688644688642,-0.9133089133089132,-0.65625,-0.9375,4.78125,-1.3540903540903542,-8.417582417582418,0.0,-0.78125,0.0,4.625,0.0,-7.623931623931623,0.8913308913308914,-0.75,0.0,4.375,0.0,-6.803418803418803,1.6019536019536018,-0.53125,0.0,4.0625,0.0,-6.560439560439559,1.8522588522588523,0.0,-0.6875,3.75,0.0,-5.996336996336996,2.3907203907203907,0.0,-0.75,3.59375,0.0,-5.8339438339438345,2.4590964590964592,0.0,-0.65625,3.4375,0.0,-4.84004884004884,2.593406593406593,0.0,-0.59375,3.28125,0.0,-4.073260073260073,2.2234432234432235,0.0,0.0,3.3125,1.6336996336996337,-4.78998778998779,1.3882783882783882,0.78125,0.0,2.96875,3.161172161172161,-4.1941391941391934,0.0,0.71875,-0.6875,2.53125,2.9206349206349205,-3.361416361416361,-0.7313797313797313,0.5625,-1.09375,2.1875,2.503052503052503,-2.686202686202686,-1.363858363858364,0.0,-1.09375,1.90625,2.184371184371184,-2.029304029304029,-1.094017094017094,0.0,-0.90625,1.75,2.7557997557997562,-1.6214896214896215,0.0,0.0,-0.6875,1.59375,3.4786324786324787,-1.4334554334554337,0.0,0.0,-0.65625,1.46875,3.8864468864468864,-1.1868131868131868,-0.5470085470085471,0.0,-0.53125,1.34375,4.1391941391941405,-1.5506715506715507,-1.0048840048840049,0.0,0.0,1.125,4.650793650793651,-1.387057387057387,-1.4810744810744811,0.0,0.0,0.78125,4.829059829059829,-1.0647130647130647,-1.6141636141636142,0.0,0.0,0.0,4.551892551892552,-0.7032967032967034,-1.0964590964590966,0.0,0.0,0.0,4.197802197802199,-0.503052503052503,-0.6434676434676435,0.0,0.0,0.0,,,,,,,,,,,,,,,,,,,,,,,,,,,,,,,,,,,,,wp_next
accX,-4.289377289377289,2.6910866910866917,-1.1013431013431014,0.75,0.0,-1.5625,-6.2735042735042725,2.191697191697192,-1.065934065934066,0.84375,0.0,-1.03125,-8.672771672771674,1.9511599511599511,-2.003663003663004,0.0,0.0,0.0,-9.866910866910867,2.393162393162393,-0.8974358974358975,0.0,0.0,0.65625,-9.394383394383397,1.4847374847374848,-0.525030525030525,0.5625,0.59375,1.9375,-8.781440781440782,0.7594627594627594,-0.6202686202686203,0.53125,0.0,2.5625,-9.427350427350428,-0.9108669108669109,-1.5213675213675213,0.0,0.0,3.03125,-9.18192918192918,-1.7277167277167278,-2.1098901098901104,0.0,0.0,3.46875,-7.589743589743589,-1.612942612942613,-1.4664224664224663,-0.9375,0.0,3.96875,-5.487179487179486,-2.4224664224664223,-1.5225885225885225,-1.0625,0.0,4.3125,-3.88034188034188,-3.496947496947497,-1.431013431013431,-1.0625,-0.84375,4.40625,-3.571428571428572,-5.172161172161172,-2.2210012210012207,-1.15625,-1.46875,4.3125,-3.37973137973138,-5.576312576312577,-2.3418803418803416,-1.40625,-1.53125,4.125,-2.6971916971916974,-5.775335775335775,-1.709401709401709,-1.46875,-1.375,4.21875,-1.3663003663003663,-5.995115995115995,-1.21001221001221,-1.28125,-1.21875,4.34375,-1.05006105006105,-6.593406593406592,-0.5775335775335775,-0.78125,-1.1875,4.46875,0.0,-6.634920634920635,0.0,0.0,-1.09375,4.5,0.0,-7.0256410256410255,0.0,0.0,-1.0,4.5,0.0,-7.366300366300366,0.0,0.0,-0.75,4.28125,0.6336996336996337,-6.818070818070817,0.0,0.0,-0.6875,3.96875,0.9597069597069596,-6.437118437118437,0.0,0.0,-0.78125,3.71875,0.8498168498168498,-5.88034188034188,0.5115995115995116,0.0,-0.71875,3.375,0.9487179487179488,-5.073260073260073,0.6398046398046398,0.0,-0.71875,3.1875,0.6923076923076923,-4.212454212454213,0.7313797313797313,0.0,-0.75,3.125,0.0,-4.656898656898657,0.6373626373626373,0.0,0.0,2.90625,0.8095238095238095,-4.083028083028083,0.7851037851037851,0.0,0.0,2.71875,1.5164835164835164,-3.2063492063492065,1.144078144078144,0.0,0.0,2.5,0.8827838827838828,-2.236874236874237,0.993894993894994,0.0,-0.59375,2.40625,0.7594627594627594,-2.0463980463980462,0.0,0.625,0.0,2.53125,1.9658119658119655,-1.4993894993894994,0.0,0.71875,0.0,2.5625,3.686202686202686,-1.3748473748473748,0.0,0.84375,0.0,2.46875,4.3247863247863245,-1.8754578754578757,-1.0793650793650793,0.78125,0.0,2.09375,4.571428571428571,-2.1294261294261294,-1.020757020757021,0.0,0.0,1.625,4.873015873015873,-1.8522588522588523,0.0,0.0,0.0,1.1875,4.684981684981684,-0.9511599511599512,0.0,0.0,0.0,0.78125,4.212454212454213,0.0,0.0,0.0,0.0,0.0,4.406593406593408,-0.6874236874236874,-0.525030525030525,0.0,0.0,0.0,4.315018315018315,-0.7631257631257631,-0.993894993894994,0.0,0.0,0.0,,,,,,,,,,,,,,,,,,,,,,,,,,,,,,,,,,,,,wp_next
accX,-4.833943833943834,1.4078144078144081,-0.5921855921855922,0.0,0.0,0.0,-5.3015873015873005,1.5543345543345544,-0.6544566544566545,0.0,0.0,0.0,-7.015873015873016,2.21001221001221,-0.9963369963369964,0.0,0.0,0.0,-8.305250305250306,2.217338217338217,-0.8620268620268621,0.625,0.0,0.0,-8.125763125763125,0.5067155067155067,-2.05982905982906,0.53125,0.0,1.1875,-6.913308913308914,0.0,-2.43956043956044,0.0,0.0,1.5,-7.90964590964591,0.0,-1.465201465201465,-0.9375,-1.21875,1.71875,-9.704517704517704,0.0,-0.8852258852258852,-1.0625,-1.28125,2.375,-11.030525030525029,0.0,-0.6092796092796092,-0.84375,-0.75,3.34375,-9.087912087912088,-1.133089133089133,-0.8363858363858364,-0.6875,-0.59375,4.28125,-6.507936507936507,-2.6263736263736264,-1.0854700854700854,-0.59375,-0.90625,4.6875,-4.387057387057388,-3.94993894993895,-1.4334554334554337,-0.625,-1.375,4.6875,-3.0354090354090357,-5.308913308913309,-2.0695970695970702,-0.8125,-1.71875,4.46875,-2.7338217338217334,-5.568986568986569,-1.6263736263736264,-0.875,-1.8125,4.4375,-2.7533577533577533,-5.3015873015873005,-1.3089133089133091,-0.5625,-1.65625,4.6875,-2.1697191697191696,-5.311355311355311,-0.6446886446886447,0.0,-1.5625,5.0,-1.9865689865689864,-7.224664224664225,-1.1184371184371185,0.0,-1.25,4.96875,-1.1697191697191698,-8.774114774114775,-1.695970695970696,0.0,-0.8125,4.59375,0.0,-6.371184371184371,-0.9804639804639804,0.0,-0.75,4.1875,0.0,-5.401709401709403,-1.1892551892551892,0.0,-0.78125,4.125,-0.6263736263736264,-5.166056166056166,0.0,0.0,-0.71875,4.125,0.0,-5.538461538461538,0.0,0.0,-0.59375,4.1875,0.0,-6.473748473748474,0.0,0.0,0.0,4.0,0.9352869352869352,-5.431013431013431,0.9242979242979243,0.0,0.0,3.6875,1.2686202686202686,-4.119658119658118,1.2039072039072038,0.0,0.0,3.4375,0.6825396825396826,-3.838827838827839,1.3003663003663004,0.0,0.0,3.1875,0.503052503052503,-3.663003663003663,1.4126984126984128,0.0,0.0,3.03125,1.3443223443223444,-3.3870573870573866,1.4566544566544566,0.0,0.0,2.84375,2.238095238095238,-2.716727716727717,1.531135531135531,0.0,0.0,2.65625,3.0097680097680097,-2.5286935286935286,1.1111111111111112,0.625,-0.5625,2.34375,3.0158730158730163,-2.496947496947497,0.5079365079365079,0.625,-0.59375,2.125,3.8302808302808304,-2.5665445665445668,0.0,0.5625,-0.53125,1.78125,4.831501831501831,-2.36019536019536,0.0,0.0,-0.5625,1.34375,5.608058608058609,-2.2295482295482296,-0.6007326007326007,0.0,-0.78125,0.9375,5.847374847374848,-1.7606837606837606,-0.8840048840048841,0.0,-0.90625,0.53125,5.269841269841269,-1.1465201465201464,-1.1831501831501832,0.0,-0.6875,0.0,4.356532356532357,-0.8388278388278388,-1.2967032967032968,0.0,0.0,0.0,,,,,,,,,,,,,,,,,,,,,,,,,,,,,,,,,,,,,,,,,,,wp_next
accX,-3.0305250305250304,1.465201465201465,0.0,0.65625,0.0,0.0,-4.406593406593408,1.4847374847374848,0.0,0.59375,0.0,0.0,-5.450549450549451,0.9987789987789988,-0.7826617826617827,0.0,0.0,0.0,-5.5628815628815635,1.7582417582417582,-0.8583638583638583,0.53125,0.0,0.59375,-5.997557997557997,1.8180708180708183,-0.9279609279609279,0.59375,0.0,1.03125,-7.6593406593406606,1.5897435897435896,-0.8754578754578755,0.59375,0.0,1.59375,-8.658119658119658,1.2295482295482296,-1.275946275946276,0.0,0.0,2.1875,-8.587301587301589,0.0,-1.5714285714285714,0.0,0.0,2.9375,-5.498168498168498,-1.0952380952380951,-2.318681318681319,0.0,-0.78125,3.0625,-5.0427350427350435,-0.6959706959706959,-2.42002442002442,-0.71875,-1.59375,3.15625,-5.418803418803419,-1.010989010989011,-2.485958485958486,-0.65625,-2.15625,3.375,-5.506715506715507,-2.556776556776557,-3.7753357753357752,-0.625,-2.15625,3.8125,-4.152625152625153,-4.2405372405372415,-3.9169719169719173,-0.8125,-1.75,3.875,-2.7997557997558,-4.012210012210011,-3.051282051282051,-1.15625,-1.53125,4.0625,-2.0525030525030523,-4.638583638583639,-2.0818070818070815,-1.0625,-1.625,4.15625,-1.8058608058608057,-4.998778998778999,-1.3150183150183148,-0.84375,-1.65625,4.40625,-1.3064713064713065,-5.934065934065933,0.0,0.0,-1.53125,4.71875,-0.7277167277167277,-7.8962148962148975,0.0,0.0,-1.21875,4.9375,0.8644688644688645,-8.572649572649572,0.0,0.0,-0.78125,4.6875,1.8901098901098898,-7.875457875457876,0.6068376068376068,0.0,-0.84375,4.1875,1.7057387057387057,-6.842490842490842,1.0842490842490842,0.0,-1.0625,3.96875,0.7716727716727717,-5.854700854700853,1.5518925518925517,0.59375,-1.0625,3.96875,0.0,-5.719169719169719,1.6495726495726497,1.0,-0.84375,3.90625,0.0,-6.695970695970696,1.1562881562881564,0.90625,0.0,3.625,1.3064713064713065,-6.277167277167277,0.9584859584859584,0.59375,0.0,3.15625,2.3772893772893773,-4.653235653235653,0.984126984126984,0.0,-0.59375,2.84375,1.8180708180708183,-3.8058608058608057,1.0256410256410255,0.0,-0.875,2.65625,1.175824175824176,-3.0903540903540905,0.7875457875457875,0.0,-0.78125,2.59375,0.9792429792429792,-3.1123321123321124,0.0,0.59375,0.0,2.59375,2.299145299145299,-2.5885225885225887,0.0,0.6875,0.0,2.5,4.540903540903541,-2.15018315018315,-0.7521367521367521,0.6875,0.0,2.15625,3.824175824175824,-1.391941391941392,-0.9597069597069596,0.0,0.0,1.625,4.74969474969475,-1.3724053724053724,-0.9816849816849816,0.0,0.0,1.46875,5.87057387057387,-1.5518925518925517,-1.4017094017094016,0.0,0.0,1.21875,6.339438339438338,-1.9609279609279608,-2.189255189255189,0.0,0.0,0.90625,,,,,,,,,,,,,,,,,,,,,,,,,,,,,,,,,,,,,,,,,,,,,,,,,,,,,,,wp_next
accX,-5.495726495726496,3.15018315018315,-1.4371184371184371,0.0,0.0,0.0,-4.978021978021979,2.7362637362637363,-1.5457875457875458,0.59375,0.0,0.0,-6.455433455433456,1.9853479853479852,-1.6581196581196582,0.53125,0.0,0.0,-7.873015873015873,2.0134310134310134,-1.2796092796092795,0.0,0.0,1.0,-7.094017094017093,1.534798534798535,-0.8107448107448108,0.0,0.5625,1.6875,-6.509157509157508,0.9181929181929182,-0.7887667887667887,0.0,0.0,2.15625,-6.83028083028083,0.5213675213675214,-1.3736263736263736,0.0,0.0,2.4375,-7.216117216117216,0.0,-2.0097680097680097,0.0,0.0,2.71875,-6.750915750915752,-0.9157509157509156,-2.433455433455433,-0.75,-0.53125,3.09375,-5.023199023199024,-1.175824175824176,-2.3064713064713063,-1.15625,-0.78125,3.3125,-3.913308913308913,-1.557997557997558,-2.266178266178266,-1.40625,-1.25,3.40625,-3.62026862026862,-1.989010989010989,-2.0976800976800978,-1.5,-1.71875,3.5,-3.667887667887668,-2.025641025641025,-1.7728937728937728,-1.40625,-1.875,3.6875,-3.155067155067155,-3.283272283272283,-1.7643467643467643,-1.0,-1.71875,4.1875,-2.275946275946276,-5.102564102564102,-2.015873015873016,-1.0,-1.5,4.3125,-0.9743589743589745,-6.575091575091576,-2.103785103785104,-1.25,-1.3125,4.15625,0.0,-6.094017094017093,-1.5885225885225884,-1.25,-1.34375,3.96875,0.0,-5.852258852258853,-1.0476190476190477,-1.0625,-1.5,3.90625,0.0,-5.976800976800977,-0.6214896214896215,-0.84375,-1.53125,3.90625,0.0,-5.813186813186812,0.0,0.0,-1.5625,3.875,0.0,-6.3760683760683765,0.0,0.0,-1.46875,3.78125,0.5164835164835165,-6.7704517704517695,0.0,0.0,-1.21875,3.5,0.0,-6.111111111111112,0.0,0.0,-1.03125,3.34375,-0.7130647130647131,-5.433455433455434,0.8827838827838828,0.0,-0.84375,3.375,0.0,-4.864468864468863,1.8547008547008548,0.0,-0.65625,3.28125,2.2735042735042734,-4.947496947496949,1.8168498168498168,0.5625,-0.625,3.125,3.7216117216117217,-4.750915750915751,1.2124542124542124,0.5625,-0.71875,2.71875,4.231990231990232,-3.525030525030525,0.6495726495726496,0.0,-1.15625,2.21875,3.5641025641025643,-2.675213675213675,0.0,0.59375,-1.375,1.875,3.6703296703296697,-2.496947496947497,-1.0805860805860803,0.6875,-1.03125,1.6875,4.691086691086691,-1.9987789987789988,-1.2564102564102564,0.65625,-0.59375,1.5,5.323565323565323,-1.5775335775335777,-1.3089133089133091,0.5625,0.0,1.25,5.2405372405372415,-1.0744810744810744,-1.343101343101343,0.0,-0.53125,1.03125,5.526251526251526,-0.5201465201465202,-1.31013431013431,0.0,0.0,0.8125,5.192918192918193,-0.5641025641025641,-1.6019536019536018,0.0,0.0,0.59375,4.9304029304029315,0.0,-1.9072039072039075,0.0,0.0,0.0,,,,,,,,,,,,,,,,,,,,,,,,,,,,,,,,,,,,,,,,,,,,,,,,,wp_next
accX,-4.914529914529915,2.705738705738706,-2.4297924297924296,0.65625,0.0,0.0,-5.4261294261294255,3.5225885225885225,-2.758241758241758,0.0,0.0,0.0,-5.5054945054945055,2.3553113553113554,-2.5384615384615383,0.59375,0.0,0.0,-5.451770451770452,1.750915750915751,-2.625152625152625,0.0,0.0,0.6875,-4.910866910866911,1.8266178266178263,-1.956043956043956,0.0,0.0,0.96875,-5.01953601953602,1.5873015873015872,-1.804639804639805,0.0,0.0,1.3125,-4.974358974358975,0.9072039072039072,-1.6031746031746033,0.0,0.0,1.6875,-4.598290598290598,0.0,-1.537240537240537,-0.71875,0.0,2.1875,-3.9841269841269837,0.0,-1.6666666666666667,-0.96875,-0.5625,2.34375,-3.336996336996337,0.0,-1.8644688644688645,-1.1875,-0.9375,2.375,-2.681318681318681,-0.6837606837606838,-1.5103785103785103,-1.34375,-1.40625,2.34375,-2.7203907203907205,-1.1501831501831499,-0.9487179487179488,-1.4375,-1.8125,2.3125,-3.231990231990232,-1.195360195360195,-0.8681318681318682,-1.375,-1.90625,2.53125,-3.4786324786324787,-1.2551892551892552,-0.7045177045177046,-1.15625,-1.78125,2.96875,-2.9633699633699635,-1.8778998778998781,-0.5628815628815629,-0.8125,-1.6875,3.34375,-3.003663003663004,-3.1086691086691087,-0.8168498168498168,-0.65625,-1.5625,3.53125,-2.8217338217338215,-5.177045177045176,-1.4285714285714286,-0.96875,-1.125,3.53125,-0.9658119658119658,-4.8901098901098905,0.0,-1.09375,-1.15625,3.53125,0.0,-4.534798534798535,0.0,-0.78125,-1.75,3.34375,0.0,-4.931623931623932,0.0,-0.53125,-1.84375,3.40625,0.0,-5.942612942612943,0.0,0.0,-1.59375,3.53125,0.9597069597069596,-6.214896214896215,0.0,0.0,-1.21875,3.5,1.8742368742368745,-5.670329670329671,0.0,0.0,-1.15625,3.4375,1.7313797313797314,-5.238095238095238,0.0,0.0,-1.28125,3.28125,1.3345543345543345,-5.119658119658119,0.0,0.0,-1.125,3.21875,1.5970695970695972,-5.007326007326007,0.0,0.75,-0.90625,3.28125,2.1514041514041518,-5.4664224664224665,0.0,0.78125,-0.65625,3.1875,3.31013431013431,-4.7252747252747245,0.0,0.65625,-0.625,2.75,3.1404151404151404,-3.595848595848596,0.0,0.5625,-0.8125,2.34375,3.1648351648351647,-3.238095238095238,-0.568986568986569,0.65625,-0.75,2.15625,3.6214896214896215,-2.727716727716728,-1.1819291819291822,0.65625,0.0,1.84375,3.5946275946275947,-2.0793650793650795,-1.7924297924297925,0.53125,0.0,1.65625,3.776556776556777,-0.6275946275946276,-1.702075702075702,0.0,0.0,1.46875,3.1660561660561664,0.0,-1.4774114774114775,0.0,0.0,1.40625,3.4029304029304033,0.0,-1.2258852258852257,0.0,0.0,1.375,3.8351648351648353,-0.9682539682539684,-1.8058608058608057,0.0,0.0,1.1875,4.744810744810745,-1.205128205128205,-1.987789987789988,0.0,0.5625,0.875,,,,,,,,,,,,,,,,,,,,,,,,,,,,,,,,,,,,,,,,,,,wp_next
accX,-6.2112332112332105,4.058608058608058,-1.9304029304029304,0.6875,0.0,-1.0,-6.521367521367521,3.63003663003663,-2.063492063492064,0.75,0.0,0.0,-7.553113553113552,3.4932844932844933,-2.8180708180708183,0.5625,0.0,0.0,-9.075702075702075,1.4578754578754578,-3.467643467643468,0.0,0.0,0.6875,-8.473748473748474,2.42002442002442,-2.5177045177045176,-0.6875,0.0,1.25,-8.0,2.0903540903540905,-1.5286935286935286,-0.78125,0.0,1.8125,-8.207570207570207,1.3076923076923077,-1.4029304029304028,-0.78125,-0.75,2.34375,-7.736263736263736,0.6019536019536019,-1.5006105006105006,-0.78125,-0.96875,2.9375,-6.974358974358975,-0.6202686202686203,-1.6691086691086692,-0.90625,-1.15625,3.375,-6.2014652014652025,-1.4908424908424909,-1.9584859584859584,-1.09375,-1.28125,3.71875,-5.023199023199024,-2.0549450549450547,-1.7142857142857142,-1.0625,-1.46875,4.03125,-3.935286935286935,-2.7851037851037854,-1.326007326007326,-0.875,-1.65625,4.3125,-2.7594627594627594,-3.3345543345543347,-1.3125763125763126,-0.5625,-1.9375,4.53125,-2.6263736263736264,-4.94871794871795,-2.8412698412698414,-0.5625,-1.71875,4.5625,-1.4615384615384617,-7.327228327228327,-2.844932844932845,-1.0625,-1.25,4.5,-0.6166056166056166,-6.538461538461537,-1.9548229548229548,-1.46875,-0.9375,4.5,0.0,-5.498168498168498,-0.9987789987789988,-1.3125,-0.875,4.4375,0.0,-6.0537240537240535,0.0,-0.78125,-0.96875,4.28125,0.0,-6.079365079365079,0.0,0.0,-1.0,4.3125,0.0,-7.107448107448107,-1.0598290598290598,0.0,-0.875,4.1875,0.6471306471306472,-6.2014652014652025,-0.9523809523809524,0.0,-0.53125,3.875,0.9902319902319904,-5.442002442002442,0.0,0.0,0.0,3.65625,1.3406593406593406,-4.851037851037852,0.9865689865689866,0.0,-0.5625,3.46875,1.358974358974359,-4.847374847374847,1.3076923076923077,0.0,-0.6875,3.21875,0.5726495726495726,-5.1001221001221,1.0085470085470083,0.0,-0.6875,3.09375,0.9523809523809524,-5.0134310134310125,1.1843711843711844,0.0,0.0,2.90625,2.034188034188034,-3.9829059829059825,1.68986568986569,0.0,0.0,2.71875,2.47985347985348,-3.391941391941392,2.064713064713065,0.59375,-0.59375,2.5,2.7008547008547015,-3.611721611721612,1.7875457875457876,0.78125,-0.53125,2.3125,3.9072039072039066,-3.7802197802197797,1.3406593406593406,0.6875,-0.59375,1.96875,5.128205128205129,-3.0158730158730163,0.0,0.53125,-0.9375,1.4375,4.791208791208791,-2.236874236874237,0.0,0.0,-1.1875,1.03125,4.0976800976800964,-1.757020757020757,-0.7838827838827839,0.0,-0.90625,0.875,4.841269841269841,-1.586080586080586,-1.0244200244200243,0.0,0.0,0.71875,5.410256410256411,-1.321123321123321,-1.7704517704517704,0.0,0.0,0.0,5.0927960927960925,-1.122100122100122,-2.4285714285714284,0.0,0.0,0.0,4.118437118437118,-0.7753357753357754,-2.3687423687423688,0.0,0.0,0.0,,,,,,,,,,,,,,,,,,,,,,,,,,,,,,,,,,,,,,,,,,,wp_next
accX,-6.238095238095237,2.645909645909646,-1.5909645909645909,0.9375,0.59375,-1.5625,-6.4322344322344325,2.6092796092796093,-1.205128205128205,1.0,0.0,-1.28125,-7.976800976800977,3.0170940170940175,-1.2124542124542124,1.0,0.0,-0.71875,-8.559218559218557,3.1074481074481075,-1.3748473748473748,0.875,0.0,0.0,-9.197802197802195,2.05982905982906,-1.586080586080586,0.625,0.0,0.0,-8.615384615384615,1.8705738705738704,-1.735042735042735,0.0,0.0,0.9375,-8.122100122100122,1.4224664224664223,-1.7826617826617828,0.0,0.0,1.40625,-8.678876678876678,1.6300366300366298,-1.7985347985347986,0.0,0.0,1.9375,-8.25885225885226,1.264957264957265,-1.5616605616605617,0.0,0.0,2.46875,-7.083028083028082,0.0,-1.7594627594627594,-0.625,0.0,2.9375,-5.532356532356533,-0.7619047619047619,-1.652014652014652,-0.90625,-0.6875,3.1875,-3.6471306471306466,-1.6678876678876684,-1.5433455433455434,-1.28125,-1.59375,3.15625,-3.6166056166056166,-1.9267399267399268,-1.7643467643467643,-1.375,-1.90625,3.125,-3.305250305250305,-2.2503052503052503,-1.6007326007326008,-1.34375,-1.90625,3.3125,-2.2722832722832718,-2.6043956043956045,-1.1587301587301588,-1.125,-1.875,3.59375,-1.6141636141636142,-3.2197802197802203,-0.6410256410256411,-0.78125,-1.90625,3.8125,-1.4065934065934067,-4.7484737484737485,-0.7167277167277167,0.0,-1.9375,4.0625,-0.9987789987789988,-6.388278388278389,-1.5787545787545787,0.0,-1.65625,4.09375,0.0,-5.882783882783882,-1.2405372405372406,-0.625,-1.25,3.96875,0.0,-5.2905982905982905,0.0,0.0,-1.15625,3.90625,0.7460317460317459,-4.888888888888889,0.0,0.0,-1.125,3.84375,1.0048840048840049,-5.141636141636141,0.0,0.0,-1.1875,3.84375,0.0,-6.356532356532357,-0.8803418803418803,0.0,-1.15625,3.625,0.0,-5.7435897435897445,-0.9548229548229548,0.0,-0.625,3.5,1.0598290598290598,-4.783882783882785,0.0,0.0,0.0,3.4375,1.9658119658119655,-4.456654456654457,0.0,0.0,0.0,3.21875,2.0207570207570207,-4.345543345543345,0.6996336996336996,0.0,-0.5625,2.96875,1.824175824175824,-4.207570207570208,0.8070818070818071,0.0,-0.59375,2.75,1.0,-3.809523809523809,0.6678876678876678,0.0,0.0,2.53125,0.0,-2.235653235653236,1.2967032967032968,0.0,0.0,2.625,1.0622710622710625,-1.8937728937728937,1.6166056166056166,0.59375,0.0,2.6875,1.7777777777777777,-1.7912087912087913,1.7496947496947497,0.75,0.0,2.5,1.8192918192918195,-1.987789987789988,0.9450549450549449,0.75,0.0,2.34375,2.021978021978022,-1.9072039072039075,0.0,0.53125,0.0,2.09375,2.1074481074481075,-0.8205128205128205,0.0,0.625,0.0,1.90625,3.2429792429792434,-0.8937728937728938,-0.6410256410256411,0.59375,0.0,1.71875,4.308913308913309,-0.8937728937728938,-0.7228327228327228,0.53125,0.0,1.5,4.564102564102563,-0.7985347985347986,-1.3418803418803418,0.0,0.0,1.1875,4.609279609279608,-0.8290598290598291,-2.1404151404151404,0.0,0.0,0.96875,5.468864468864468,-0.9511599511599512,-2.3015873015873014,0.0,0.0,0.71875,,,,,,,,,,,,,,,,,,,,,,,,,wp_next
accX,-5.107448107448106,1.565323565323565,0.0,0.84375,0.90625,-3.375,-4.1440781440781445,1.3137973137973138,-0.8840048840048841,1.125,0.0,-2.65625,-6.368742368742367,0.9413919413919414,-1.5714285714285714,0.8125,0.5625,-1.71875,-6.592185592185593,1.9792429792429795,-1.6825396825396826,0.8125,1.03125,-1.375,-6.367521367521367,2.3076923076923075,-1.4993894993894994,0.75,0.9375,-0.875,-6.482295482295482,2.244200244200244,-1.7008547008547008,0.59375,0.53125,-0.53125,-8.321123321123322,2.3076923076923075,-2.0573870573870567,0.0,0.0,0.0,-11.34065934065934,1.927960927960928,-2.6092796092796093,0.0,0.0,1.25,-10.976800976800975,2.7020757020757022,-1.3113553113553114,0.0,0.75,2.25,-8.866910866910867,1.1575091575091576,-1.21001221001221,0.0,0.59375,2.875,-7.796092796092796,0.0,-1.5995115995115996,-0.65625,0.0,3.3125,-6.2967032967032965,-1.0293040293040292,-1.7411477411477412,-0.96875,0.0,3.5625,-5.311355311355311,-1.2686202686202686,-1.5225885225885225,-1.28125,0.0,3.78125,-3.7570207570207566,-1.800976800976801,-1.0793650793650793,-1.4375,0.0,3.875,-3.0268620268620268,-2.36019536019536,-0.9389499389499391,-1.53125,-0.625,3.9375,-2.371184371184371,-3.034188034188034,-1.0891330891330893,-1.4375,-0.875,3.96875,-1.9181929181929185,-4.218559218559219,-1.5433455433455434,-1.53125,-0.9375,3.90625,-1.6813186813186811,-4.172161172161172,-1.3052503052503053,-1.6875,-0.84375,3.84375,-0.8864468864468864,-3.908424908424908,-0.5238095238095238,-1.5625,-0.84375,3.84375,0.0,-4.145299145299147,0.0,-1.09375,-1.03125,3.78125,-0.5103785103785103,-4.550671550671551,0.0,-0.84375,-1.09375,3.75,-0.9145299145299144,-5.492063492063493,0.0,-0.84375,-0.8125,3.59375,0.0,-4.87057387057387,0.0,-0.9375,-0.71875,3.46875,0.0,-4.057387057387056,1.0085470085470083,-0.6875,-0.84375,3.3125,0.6727716727716728,-3.6544566544566544,1.352869352869353,0.0,-1.125,3.125,0.0,-3.117216117216117,1.5531135531135531,0.0,-1.4375,3.03125,-0.5714285714285714,-3.6568986568986563,1.3272283272283272,0.0,-1.375,2.96875,0.0,-4.263736263736264,0.0,0.0,-1.03125,2.75,0.8974358974358975,-3.091575091575092,0.6959706959706959,0.0,-1.21875,2.65625,0.9658119658119658,-2.3443223443223444,0.851037851037851,0.0,-1.4375,2.46875,0.0,-1.9975579975579976,1.2014652014652014,0.0,-1.46875,2.5625,-1.3540903540903542,-2.0573870573870567,1.3089133089133091,0.0,-1.09375,2.9375,0.6471306471306472,-1.8730158730158732,1.2075702075702075,0.0,-0.84375,3.15625,2.2210012210012207,-2.0097680097680097,0.0,0.65625,-0.90625,3.15625,2.7887667887667886,-2.267399267399268,0.0,0.84375,-0.8125,3.09375,3.5982905982905984,-2.6324786324786325,-1.1782661782661783,1.0,0.0,3.03125,4.94017094017094,-2.9792429792429798,-1.6275946275946276,0.9375,0.0,2.84375,6.864468864468863,-2.6129426129426134,-1.1245421245421243,0.78125,0.0,2.46875,7.6007326007325995,-2.217338217338217,-0.5934065934065934,0.59375,0.0,1.875,7.261294261294261,-1.7716727716727716,-0.6788766788766789,0.0,0.0,1.34375,7.1050061050061055,-1.4737484737484738,-1.123321123321123,0.0,0.0,0.875,,,,,,,,,,,,,,,,,,,wp_next
accX,-8.390720390720391,2.1611721611721606,-1.4529914529914532,1.21875,1.40625,-2.4375,-9.040293040293038,2.313797313797314,-1.7301587301587302,1.03125,1.15625,-0.84375,-9.394383394383397,2.2210012210012207,-2.0305250305250304,1.15625,0.9375,0.0,-10.057387057387057,1.2283272283272284,-3.0073260073260077,0.84375,0.6875,0.0,-11.415140415140414,1.0366300366300367,-3.145299145299145,0.0,0.0,0.75,-13.632478632478634,1.3235653235653235,-3.0354090354090357,0.0,0.0,1.84375,-14.420024420024419,1.126984126984127,-2.1672771672771667,-0.65625,0.59375,3.125,-11.725274725274724,0.5201465201465202,-1.6141636141636142,-0.78125,1.09375,4.09375,-8.129426129426129,-0.6495726495726496,-1.413919413919414,-1.03125,0.65625,4.71875,-6.140415140415142,-1.380952380952381,-1.9426129426129424,-1.375,0.0,4.875,-5.258852258852259,-2.4603174603174605,-2.2649572649572653,-1.40625,-1.03125,4.59375,-5.307692307692308,-2.5995115995116,-2.0061050061050056,-1.65625,-1.46875,4.5625,-5.067155067155066,-2.2210012210012207,-1.3699633699633702,-1.59375,-1.5625,4.8125,-4.398046398046398,-2.686202686202686,-0.6739926739926739,-1.0,-1.59375,5.4375,-3.501831501831502,-6.542124542124543,-2.1868131868131866,-1.0625,-1.15625,5.21875,-1.0463980463980465,-7.365079365079365,-1.9511599511599511,-1.5,-0.78125,4.75,0.0,-6.825396825396825,-0.8754578754578755,-1.59375,-0.84375,4.5625,0.0,-6.0085470085470085,0.0,-1.375,-0.90625,4.375,0.0,-6.039072039072039,0.7777777777777778,-1.0,-0.875,4.46875,0.0,-5.568986568986569,1.975579975579976,0.0,-0.75,4.53125,0.0,-5.1379731379731375,2.267399267399268,0.0,-0.75,4.5,0.0,-7.355311355311356,0.0,0.0,-0.5625,4.125,0.8620268620268621,-6.495726495726496,0.0,0.0,0.0,3.625,1.3882783882783882,-4.733821733821734,1.4761904761904765,0.0,-0.78125,3.375,1.2796092796092795,-3.4639804639804637,2.120879120879121,0.0,-0.96875,3.15625,0.5836385836385837,-3.836385836385837,1.4725274725274726,0.625,-1.09375,2.9375,2.062271062271062,-3.351648351648352,1.0390720390720392,0.0,-1.0,2.71875,3.3382173382173383,-2.128205128205128,1.0598290598290598,0.0,-1.25,2.4375,3.0573870573870563,-1.5433455433455434,0.0,0.0,-1.4375,2.25,2.5946275946275947,-1.4297924297924298,0.0,0.6875,-1.34375,2.25,3.10989010989011,-2.614163614163614,-0.8168498168498168,0.75,-1.0,2.25,4.282051282051282,-1.9047619047619049,-1.5445665445665446,0.0,-0.5625,1.96875,4.891330891330892,-0.9389499389499391,-1.3247863247863247,0.0,0.0,1.8125,4.984126984126983,-0.7826617826617827,-0.8656898656898657,0.0,0.0,1.5625,5.5103785103785095,-0.9706959706959708,0.0,0.0,0.0,1.4375,6.544566544566544,-1.2551892551892552,-0.7875457875457875,0.0,0.0,1.15625,6.865689865689865,-1.485958485958486,-1.4981684981684982,0.0,0.0,0.625,6.0927960927960925,-1.2991452991452992,-1.8339438339438336,0.0,0.0,0.0,,,,,,,,,,,,,,,,,,,,,,,,,,,,,,,,,,,,,wp_next
accX,-9.462759462759463,3.2869352869352872,0.0,0.90625,0.90625,-1.78125,-10.459096459096461,3.053724053724053,-0.8742368742368742,1.28125,0.75,-0.875,-10.73137973137973,2.6935286935286937,-0.9059829059829059,1.40625,0.0,0.0,-11.814407814407813,1.9609279609279608,-1.647130647130647,1.34375,0.59375,0.84375,-11.782661782661785,0.9743589743589745,-1.8730158730158732,1.03125,0.65625,1.4375,-11.852258852258851,1.1526251526251523,-1.4554334554334554,0.625,0.53125,2.125,-11.594627594627594,0.8485958485958486,-1.4713064713064714,0.0,0.0,2.875,-10.097680097680096,0.0,-1.3308913308913308,0.0,0.0,3.65625,-7.915750915750916,0.0,-1.072039072039072,0.0,0.0,4.25,-6.855921855921856,-1.6043956043956045,-1.6227106227106227,0.0,0.0,4.5625,-6.297924297924298,-3.3724053724053724,-2.4322344322344316,0.0,-0.53125,4.5625,-5.166056166056166,-4.1672771672771685,-2.122100122100122,-1.375,-0.6875,4.40625,-4.043956043956044,-3.2783882783882783,-0.9743589743589745,-1.46875,-0.90625,4.4375,-3.2539682539682535,-3.3382173382173383,0.0,-1.1875,-1.15625,4.5625,-2.1526251526251525,-3.407814407814408,0.0,-0.6875,-1.5,4.71875,-2.4285714285714284,-4.074481074481073,0.0,0.0,-1.75,4.96875,-3.6825396825396814,-7.346764346764346,-2.0183150183150182,0.0,-1.09375,4.90625,-2.253968253968254,-7.711843711843712,-1.5225885225885225,-0.90625,0.0,4.6875,0.0,-6.1440781440781445,0.0,-0.90625,0.0,4.75,0.0,-5.727716727716727,0.7411477411477412,-0.625,-0.6875,4.59375,0.0,-5.7435897435897445,1.3663003663003663,0.0,-0.84375,4.5,0.0,-5.95970695970696,1.3711843711843712,0.0,-0.71875,4.5,0.9877899877899878,-6.448107448107447,1.0769230769230769,0.0,-0.5625,4.125,1.6153846153846154,-5.21978021978022,1.1636141636141637,0.0,-0.6875,3.78125,1.5213675213675213,-4.333333333333333,1.9096459096459095,0.0,-0.71875,3.5,1.2991452991452992,-3.673992673992674,1.9609279609279608,0.0,-0.78125,3.40625,1.188034188034188,-3.3150183150183152,1.277167277167277,0.0,-0.65625,3.375,2.4615384615384617,-3.660561660561661,0.0,0.5625,0.0,3.28125,3.272283272283272,-3.0573870573870563,-0.5347985347985348,0.0,0.0,3.0,2.9365079365079363,-2.7594627594627594,-0.7496947496947497,0.0,0.0,2.75,2.8937728937728937,-1.7362637362637363,0.0,0.0,0.0,2.59375,3.1416361416361416,-1.4078144078144081,0.0,0.0,0.0,2.59375,4.321123321123321,-2.195360195360196,0.0,0.5625,0.0,2.46875,6.31013431013431,-2.388278388278388,0.0,0.53125,0.0,2.0625,7.095238095238094,-2.462759462759463,0.0,0.0,0.0,1.3125,7.631257631257633,-2.32967032967033,-0.5042735042735043,0.0,0.0,0.84375,8.025641025641027,-2.0854700854700856,-0.818070818070818,0.0,0.0,0.0,,,,,,,,,,,,,,,,,,,,,,,,,,,,,,,,,,,,,,,,,,,wp_next
accX,-8.042735042735043,1.915750915750916,-1.3455433455433456,0.0,0.5625,-0.6875,-6.778998778998778,1.4175824175824177,-1.4065934065934067,0.0,0.5625,0.0,-7.244200244200244,0.9987789987789988,-1.684981684981685,0.53125,0.0,0.0,-9.862026862026863,0.0,-2.2344322344322345,0.0,0.0,0.96875,-11.275946275946277,0.0,-2.091575091575092,0.0,0.0,1.90625,-10.214896214896212,-0.5262515262515263,-0.8363858363858364,-0.5625,0.0,3.21875,-8.473748473748474,-1.0390720390720392,0.0,-0.625,0.0,3.625,-7.1660561660561655,-1.3748473748473748,0.0,-0.71875,0.0,3.84375,-6.344322344322344,-2.115995115995116,0.0,-0.8125,-1.21875,3.96875,-5.992673992673992,-3.0293040293040288,-1.1294261294261294,-1.09375,-1.34375,3.96875,-5.440781440781442,-2.8962148962148966,-1.1477411477411477,-1.125,-1.34375,4.21875,-4.12087912087912,-2.6227106227106227,-0.8229548229548229,-0.96875,-1.4375,4.5625,-3.792429792429792,-3.0109890109890114,0.0,-0.625,-1.59375,4.90625,-3.0366300366300365,-4.274725274725275,-0.5714285714285714,0.0,-1.53125,5.09375,-2.3040293040293043,-7.05982905982906,-1.5970695970695972,-0.6875,-1.125,4.8125,-0.6141636141636142,-6.164835164835164,-0.6739926739926739,-0.8125,-1.03125,4.59375,0.0,-5.345543345543344,0.0,0.0,-1.125,4.46875,0.6654456654456654,-5.006105006105006,0.5128205128205128,0.0,-1.53125,4.4375,-0.5470085470085471,-6.643467643467643,0.0,0.0,-1.375,4.3125,0.9023199023199024,-5.565323565323565,0.6398046398046398,0.0,-0.875,3.9375,2.294261294261294,-4.206349206349207,1.2844932844932846,0.0,-0.84375,3.75,2.7496947496947497,-3.7777777777777777,1.1452991452991452,0.53125,-1.25,3.53125,1.8986568986568984,-4.056166056166056,0.0,0.75,-1.65625,3.3125,0.8205128205128205,-4.380952380952381,-0.8913308913308914,0.5625,-1.40625,3.15625,1.2539682539682542,-2.8986568986568986,0.0,0.0,-0.90625,3.125,1.8058608058608057,-2.330891330891331,0.0,0.53125,-0.625,3.15625,2.247863247863248,-2.673992673992674,0.6703296703296703,0.75,-0.59375,3.0625,2.191697191697192,-2.573870573870574,0.5641025641025641,0.8125,-0.6875,3.03125,2.56043956043956,-3.324786324786325,0.0,0.75,0.0,2.78125,2.1147741147741153,-2.1672771672771667,0.0,0.0,0.0,2.5,1.5885225885225884,-1.0818070818070815,0.8717948717948718,0.53125,0.0,2.375,1.5763125763125765,0.0,1.3418803418803418,0.75,0.0,2.28125,1.896214896214896,0.0,1.3455433455433456,0.9375,0.0,2.34375,2.2698412698412698,0.0,0.0,1.0,0.0,2.5,2.7851037851037854,-0.8840048840048841,-1.5262515262515262,0.90625,0.0,2.375,3.980463980463981,-1.0818070818070815,-1.1684981684981686,0.8125,0.0,2.15625,6.16971916971917,-0.8632478632478633,0.0,0.875,0.0,1.75,7.593406593406592,-1.3235653235653235,0.0,0.75,0.0,1.125,7.722832722832723,-1.7557997557997558,-1.465201465201465,0.0,0.0,0.0,6.628815628815629,-1.6422466422466422,-1.9609279609279608,0.0,0.0,0.0,5.343101343101343,-0.5335775335775336,-1.8888888888888888,0.0,0.0,-0.71875,4.086691086691086,0.0,-1.2625152625152625,0.0,0.0,-0.90625,,,,,,,,,,,,,wp_next
accX,-8.913308913308914,3.6617826617826617,-0.7728937728937729,1.25,0.6875,-1.0625,-9.669108669108667,2.93040293040293,-1.1135531135531136,1.3125,0.0,0.0,-11.477411477411476,2.131868131868132,-2.3382173382173383,0.9375,0.65625,0.0,-11.128205128205128,2.029304029304029,-2.3638583638583643,0.5625,0.875,1.15625,-10.837606837606838,2.772893772893773,-1.5763125763125765,0.0,0.9375,1.875,-10.394383394383397,2.043956043956044,-1.5604395604395604,0.0,0.8125,2.53125,-10.918192918192918,0.8681318681318682,-1.94017094017094,0.0,0.84375,3.09375,-9.760683760683762,0.0,-2.0073260073260077,-0.75,0.71875,3.625,-8.157509157509157,-0.8302808302808303,-1.94017094017094,-1.1875,0.0,3.84375,-6.926739926739928,-1.9523809523809523,-2.068376068376069,-1.59375,0.0,4.0,-5.877899877899878,-2.6544566544566544,-2.0488400488400487,-1.8125,-0.75,4.03125,-5.545787545787546,-3.851037851037851,-1.735042735042735,-2.125,-0.875,4.25,-4.603174603174604,-4.995115995115995,-1.1172161172161172,-2.3125,-0.625,4.53125,-3.051282051282051,-5.614163614163614,0.0,-2.28125,0.0,4.78125,-2.095238095238096,-5.727716727716727,0.0,-2.0625,0.0,4.8125,-1.7142857142857142,-5.855921855921856,0.0,-1.59375,-0.65625,4.75,-1.9902319902319905,-5.947496947496947,0.5201465201465202,-1.125,-0.78125,4.71875,-2.063492063492064,-6.391941391941392,0.5079365079365079,-0.78125,-0.75,4.6875,-1.9768009768009769,-7.210012210012209,0.0,-0.8125,0.0,4.5,-0.7582417582417582,-5.825396825396825,1.2625152625152625,-0.96875,0.0,4.1875,0.0,-4.384615384615385,1.9133089133089132,-0.75,-0.71875,3.875,-0.5372405372405372,-4.130647130647131,1.8473748473748477,0.0,-1.21875,3.5625,-1.0744810744810744,-3.7948717948717943,1.5128205128205128,0.0,-1.40625,3.5,-0.5604395604395604,-4.211233211233211,0.8937728937728938,0.0,-1.21875,3.375,0.0,-4.014652014652015,0.5750915750915749,0.0,-1.28125,3.28125,1.5555555555555556,-3.346764346764347,0.6971916971916972,0.0,-1.40625,3.0625,1.9926739926739927,-2.9682539682539684,0.8046398046398047,0.0,-1.5,3.0,2.120879120879121,-2.8632478632478637,0.6996336996336996,0.0,-1.3125,2.90625,3.115995115995116,-2.8034188034188032,0.0,0.0,-1.0,2.8125,4.35042735042735,-2.5665445665445668,0.0,0.0,-0.8125,2.625,5.603174603174603,-2.2210012210012207,-1.006105006105006,0.53125,-0.78125,2.375,5.7716727716727725,-1.9658119658119655,-1.1086691086691087,0.0,-0.53125,2.09375,5.998778998778999,-1.94017094017094,0.0,0.0,0.0,1.8125,6.295482295482294,-2.0989010989010994,0.0,0.0,0.0,1.4375,7.148962148962148,-1.5958485958485962,0.0,0.0,0.0,0.71875,6.575091575091576,-1.10989010989011,0.0,0.0,0.0,0.0,6.37973137973138,-1.0256410256410255,-0.9706959706959708,0.0,0.0,0.0,5.914529914529915,-0.9853479853479854,-1.321123321123321,0.0,0.0,0.0,,,,,,,,,,,,,,,,,,,,,,,,,,,,,,,,,,,,,wp_next
accX,-8.71062271062271,2.330891330891331,-2.5811965811965814,0.84375,0.0,-0.84375,-10.705738705738703,2.590964590964591,-2.4920634920634916,0.59375,0.0,0.0,-13.168498168498168,3.268620268620269,-1.938949938949939,0.5625,0.0,1.0,-13.742368742368742,2.688644688644689,-1.4444444444444444,0.5625,0.0,2.34375,-11.93162393162393,1.0451770451770452,-1.6947496947496947,0.0,0.59375,3.25,-9.732600732600732,0.0,-2.335775335775336,0.0,0.0,3.65625,-8.562881562881563,-0.7496947496947497,-2.8571428571428568,-0.875,0.0,3.90625,-7.697191697191697,-1.1111111111111112,-2.771672771672772,-1.25,-0.59375,4.15625,-6.332112332112333,-2.15018315018315,-2.1416361416361416,-1.25,-1.09375,4.59375,-5.4896214896214905,-4.682539682539684,-2.7924297924297923,-1.5,-1.1875,4.625,-3.9426129426129437,-4.658119658119658,-1.915750915750916,-1.90625,-1.1875,4.5,-2.7411477411477403,-4.346764346764346,-0.7655677655677655,-1.84375,-1.4375,4.4375,-2.142857142857143,-4.278388278388278,0.0,-1.53125,-1.6875,4.5,-2.9633699633699635,-5.264957264957265,0.0,-1.0,-1.90625,4.78125,-3.4627594627594624,-8.71062271062271,-1.8571428571428568,-0.90625,-1.3125,4.875,-0.6361416361416361,-7.061050061050061,0.0,-1.21875,-0.5625,4.6875,0.0,-6.542124542124543,0.78998778998779,-0.9375,-0.65625,4.5,0.0,-6.173382173382174,0.9438339438339438,-0.59375,-0.875,4.25,-0.9584859584859584,-7.2918192918192934,0.0,0.0,-0.90625,4.0625,0.0,-6.2393162393162385,0.0,-0.6875,0.0,3.8125,0.0,-5.0927960927960925,0.8498168498168498,-0.53125,-0.59375,3.6875,0.0,-4.743589743589744,1.1892551892551892,0.0,-0.625,3.53125,0.0,-4.6422466422466435,1.4432234432234432,0.0,-0.53125,3.46875,0.8058608058608059,-3.945054945054945,2.1184371184371185,0.0,0.0,3.34375,1.8656898656898655,-3.523809523809524,2.4017094017094016,0.0,-0.59375,3.09375,2.5494505494505493,-3.2332112332112333,2.086691086691087,0.0,-0.875,2.78125,2.84004884004884,-2.56043956043956,1.4102564102564104,0.0,-1.03125,2.5,2.8547008547008548,-2.0134310134310134,0.757020757020757,0.53125,-0.9375,2.34375,3.62026862026862,-1.531135531135531,0.0,0.5625,-0.875,2.125,4.135531135531137,-1.2063492063492065,0.0,0.0,-0.875,1.90625,4.918192918192919,-1.0671550671550671,0.0,0.0,-0.84375,1.5625,5.492063492063493,-0.9010989010989012,-1.4029304029304028,0.0,-0.65625,1.125,5.332112332112332,0.0,-2.003663003663004,0.0,0.0,0.96875,5.246642246642247,0.0,-1.4102564102564104,0.0,0.0,0.875,5.818070818070817,0.0,-0.5702075702075702,0.0,0.0,0.71875,6.262515262515263,0.0,0.0,0.0,0.0,0.0,,,,,,,,,,,,,,,,,,,,,,,,,,,,,,,,,,,,,,,,,,,,,,,,,wp_next
accX,-7.003663003663004,2.15995115995116,-0.7753357753357754,1.65625,0.78125,-1.40625,-8.158730158730158,2.2612942612942613,-1.9792429792429795,1.53125,0.53125,-0.96875,-10.333333333333334,2.8205128205128207,-2.2808302808302807,1.21875,0.71875,0.0,-11.677655677655675,3.2625152625152625,-2.3663003663003663,1.0,1.03125,0.9375,-12.023199023199025,3.11965811965812,-2.2735042735042734,0.75,1.125,1.9375,-11.33943833943834,1.8803418803418803,-2.5763125763125765,0.0,1.03125,2.5625,-10.505494505494504,1.120879120879121,-2.5164835164835164,0.0,0.78125,3.0625,-9.634920634920633,0.9279609279609279,-1.9914529914529917,-0.8125,0.5625,3.59375,-6.800976800976801,-0.7680097680097681,-1.4566544566544566,-1.25,0.0,3.75,-6.702075702075702,-1.362637362637363,-1.336996336996337,-1.5,-0.6875,3.875,-5.965811965811965,-2.5164835164835164,-1.4737484737484738,-1.625,-0.96875,4.03125,-4.974358974358975,-3.1123321123321124,-1.31013431013431,-1.65625,-1.125,4.09375,-3.5970695970695967,-3.9047619047619047,-1.164835164835165,-1.625,-1.21875,4.1875,-3.161172161172161,-4.561660561660561,-0.8986568986568987,-1.59375,-1.34375,4.34375,-2.9536019536019538,-5.0927960927960925,-0.8608058608058609,-1.375,-1.34375,4.5,-2.593406593406593,-6.172161172161172,-1.0854700854700854,-1.09375,-1.21875,4.53125,-1.8559218559218558,-6.438339438339439,-0.9230769230769232,-1.0,-1.0,4.46875,-1.6251526251526252,-6.096459096459097,-0.6544566544566545,-0.9375,-0.84375,4.3125,-1.297924297924298,-5.438339438339439,0.0,-0.78125,-0.78125,4.25,-1.2503052503052503,-4.881562881562882,0.5262515262515263,0.0,-0.78125,4.15625,-1.0525030525030523,-5.354090354090353,0.5921855921855922,0.0,-0.6875,4.0,-0.5763125763125763,-5.725274725274725,0.0,0.0,-0.59375,3.78125,0.0,-5.391941391941391,0.5763125763125763,0.0,-0.5625,3.53125,0.7008547008547008,-4.525030525030525,0.818070818070818,0.0,-0.65625,3.28125,1.0647130647130647,-3.931623931623931,1.065934065934066,0.0,-0.8125,3.0625,0.811965811965812,-3.2539682539682535,1.4615384615384617,0.0,-0.96875,2.9375,0.8021978021978022,-3.31013431013431,1.3687423687423688,0.0,-0.84375,2.78125,1.757020757020757,-2.7203907203907205,1.5763125763125765,0.0,-0.84375,2.65625,2.559218559218559,-2.0842490842490844,1.4041514041514038,0.0,-0.9375,2.5,2.844932844932845,-1.7496947496947497,1.0085470085470083,0.0,-0.9375,2.375,3.2124542124542126,-1.4590964590964588,0.9597069597069596,0.0,-0.875,2.25,,,,,,,,,,,,,,,,,,,,,,,,,,,,,,,,,,,,,,,,,,,,,,,,,,,,,,,,,,,,,,,,,,,,,,,,,,,,,,,wp_next
