,00_accX,00_accY,00_accZ,00_gyroX,00_gyroY,00_gyroZ,01_accX,01_accY,01_accZ,01_gyroX,01_gyroY,01_gyroZ,02_accX,02_accY,02_accZ,02_gyroX,02_gyroY,02_gyroZ,03_accX,03_accY,03_accZ,03_gyroX,03_gyroY,03_gyroZ,04_accX,04_accY,04_accZ,04_gyroX,04_gyroY,04_gyroZ,05_accX,05_accY,05_accZ,05_gyroX,05_gyroY,05_gyroZ,06_accX,06_accY,06_accZ,06_gyroX,06_gyroY,06_gyroZ,07_accX,07_accY,07_accZ,07_gyroX,07_gyroY,07_gyroZ,08_accX,08_accY,08_accZ,08_gyroX,08_gyroY,08_gyroZ,09_accX,09_accY,09_accZ,09_gyroX,09_gyroY,09_gyroZ,10_accX,10_accY,10_accZ,10_gyroX,10_gyroY,10_gyroZ,11_accX,11_accY,11_accZ,11_gyroX,11_gyroY,11_gyroZ,12_accX,12_accY,12_accZ,12_gyroX,12_gyroY,12_gyroZ,13_accX,13_accY,13_accZ,13_gyroX,13_gyroY,13_gyroZ,14_accX,14_accY,14_accZ,14_gyroX,14_gyroY,14_gyroZ,15_accX,15_accY,15_accZ,15_gyroX,15_gyroY,15_gyroZ,16_accX,16_accY,16_accZ,16_gyroX,16_gyroY,16_gyroZ,17_accX,17_accY,17_accZ,17_gyroX,17_gyroY,17_gyroZ,18_accX,18_accY,18_accZ,18_gyroX,18_gyroY,18_gyroZ,19_accX,19_accY,19_accZ,19_gyroX,19_gyroY,19_gyroZ,20_accX,20_accY,20_accZ,20_gyroX,20_gyroY,20_gyroZ,21_accX,21_accY,21_accZ,21_gyroX,21_gyroY,21_gyroZ,22_accX,22_accY,22_accZ,22_gyroX,22_gyroY,22_gyroZ,23_accX,23_accY,23_accZ,23_gyroX,23_gyroY,23_gyroZ,24_accX,24_accY,24_accZ,24_gyroX,24_gyroY,24_gyroZ,25_accX,25_accY,25_accZ,25_gyroX,25_gyroY,25_gyroZ,26_accX,26_accY,26_accZ,26_gyroX,26_gyroY,26_gyroZ,27_accX,27_accY,27_accZ,27_gyroX,27_gyroY,27_gyroZ,28_accX,28_accY,28_accZ,28_gyroX,28_gyroY,28_gyroZ,29_accX,29_accY,29_accZ,29_gyroX,29_gyroY,29_gyroZ,30_accX,30_accY,30_accZ,30_gyroX,30_gyroY,30_gyroZ,31_accX,31_accY,31_accZ,31_gyroX,31_gyroY,31_gyroZ,32_accX,32_accY,32_accZ,32_gyroX,32_gyroY,32_gyroZ,33_accX,33_accY,33_accZ,33_gyroX,33_gyroY,33_gyroZ,34_accX,34_accY,34_accZ,34_gyroX,34_gyroY,34_gyroZ,35_accX,35_accY,35_accZ,35_gyroX,35_gyroY,35_gyroZ,36_accX,36_accY,36_accZ,36_gyroX,36_gyroY,36_gyroZ,37_accX,37_accY,37_accZ,37_gyroX,37_gyroY,37_gyroZ,38_accX,38_accY,38_accZ,38_gyroX,38_gyroY,38_gyroZ,39_accX,39_accY,39_accZ,39_gyroX,39_gyroY,39_gyroZ,40_accX,40_accY,40_accZ,40_gyroX,40_gyroY,40_gyroZ,41_accX,41_accY,41_accZ,41_gyroX,41_gyroY,41_gyroZ,42_accX,42_accY,42_accZ,42_gyroX,42_gyroY,42_gyroZ,43_accX,43_accY,43_accZ,43_gyroX,43_gyroY,43_gyroZ,44_accX,44_accY,44_accZ,44_gyroX,44_gyroY,44_gyroZ,45_accX,45_accY,45_accZ,45_gyroX,45_gyroY,45_gyroZ,46_accX,46_accY,46_accZ,46_gyroX,46_gyroY,46_gyroZ,category
accX,4.927960927960927,-2.9108669108669107,0.0,0.0,0.0,-2.0625,4.7997557997558,-3.8766788766788767,0.0,0.0,0.0,-2.40625,3.9145299145299135,-5.0085470085470085,-1.617826617826618,0.0,0.0,-3.03125,4.520146520146519,-5.269841269841269,-1.3076923076923077,0.0,0.0,-3.6875,4.260073260073259,-5.557997557997558,0.0,0.0,0.0,-3.96875,1.5555555555555556,-5.317460317460316,0.7948717948717948,0.0,0.0,-3.8125,0.6593406593406593,-6.677655677655678,0.0,0.0,0.78125,-3.875,0.0,-7.0256410256410255,-0.78998778998779,0.0,1.09375,-4.03125,-1.0891330891330893,-6.029304029304028,-0.6459096459096461,0.0,1.1875,-4.34375,-1.468864468864469,-6.114774114774113,0.6935286935286935,0.0,1.15625,-4.59375,-1.5641025641025639,-6.0317460317460325,1.0463980463980465,0.0,0.6875,-4.53125,-5.990231990231991,-5.158730158730159,0.0,0.0,0.8125,-4.53125,-5.863247863247862,-4.035409035409035,1.7191697191697193,0.0,1.53125,-4.375,-4.073260073260073,-3.8717948717948723,1.5616605616605617,0.5625,1.78125,-4.25,-5.3577533577533565,-4.0024420024420015,0.0,0.65625,1.0,-4.03125,-7.097680097680098,-3.705738705738706,0.0,0.53125,0.75,-3.90625,-6.973137973137972,-2.6178266178266183,1.6202686202686205,0.5625,1.0625,-3.71875,-5.862026862026862,-2.623931623931624,2.389499389499389,0.96875,1.46875,-3.34375,-4.64957264957265,-2.404151404151404,1.4847374847374848,1.375,1.34375,-3.125,-4.9584859584859595,-2.590964590964591,0.0,1.4375,0.78125,-2.875,-5.4261294261294255,-1.9658119658119655,0.0,1.40625,0.78125,-2.71875,-4.964590964590965,-1.4700854700854702,-1.1611721611721613,1.5,1.15625,-2.53125,-4.230769230769232,-0.7057387057387058,-2.8217338217338215,1.5,1.0625,-2.28125,-5.713064713064713,0.0,-3.8815628815628815,1.03125,0.0,-2.03125,-6.809523809523809,0.9450549450549449,-4.367521367521366,0.71875,0.8125,-1.625,-6.433455433455434,2.4590964590964592,-4.235653235653237,0.625,0.96875,-1.25,-5.808302808302808,3.075702075702076,-3.6507936507936503,0.59375,0.75,-0.96875,-5.871794871794871,3.0097680097680097,-3.681318681318681,0.0,0.0,-0.6875,-6.557997557997558,3.5836385836385842,-3.3907203907203907,0.0,0.0,0.0,-5.5628815628815635,3.6581196581196584,-3.611721611721612,0.0,0.0,0.0,-3.791208791208791,3.0781440781440783,-3.172161172161172,0.0,0.53125,0.0,-2.236874236874237,2.354090354090354,-2.073260073260073,0.0,0.0,0.0,-1.4884004884004884,1.4297924297924298,-1.376068376068376,0.0,0.0,0.0,-1.1514041514041513,0.9035409035409036,-0.7032967032967034,0.0,0.0,0.0,-0.7997557997557998,0.0,0.0,0.0,0.0,0.0,0.0,0.0,1.2319902319902318,0.0,0.0,0.0,0.0,-0.503052503052503,1.0158730158730158,0.0,0.0,0.0,0.0,-0.6886446886446886,0.5653235653235653,0.0,0.0,0.0,0.0,-0.6007326007326007,0.0,0.0,0.0,0.0,0.0,0.0,-0.6251526251526252,0.0,0.0,0.0,-0.5396825396825397,0.0,-0.6788766788766789,0.0,0.0,0.0,0.0,0.0,0.0,0.0,0.0,0.0,0.0,0.0,0.0,0.0,0.0,0.0,,,,,,,,,,,,,,,,,,,,,,,,,wp_nextR
accX,2.3076923076923075,-0.7277167277167277,0.0,0.75,0.0,-0.78125,1.9743589743589745,-0.6214896214896215,0.0,0.59375,0.0,-0.90625,1.3846153846153846,-0.6898656898656899,-0.6593406593406593,0.53125,0.0,-0.84375,1.6312576312576312,-0.7094017094017094,-1.7179487179487178,0.0,0.0,-0.75,2.061050061050061,-0.8498168498168498,-2.457875457875458,0.0,0.0,-0.96875,2.7802197802197797,-1.8485958485958487,-2.9890109890109886,0.0,0.0,-1.0625,3.1001221001221,-4.245421245421245,-3.003663003663004,0.0,0.78125,-1.375,4.4151404151404146,-4.9304029304029315,-1.968253968253968,0.0,1.25,-1.84375,4.781440781440781,-5.078144078144078,0.0,-0.71875,1.0625,-2.53125,3.667887667887668,-5.118437118437118,0.0,-0.78125,0.5625,-3.40625,1.844932844932845,-5.21001221001221,0.0,-0.875,0.0,-3.78125,0.0,-5.186813186813186,0.0,-0.9375,0.0,-4.0,-0.5006105006105006,-4.742368742368742,0.0,-0.8125,0.65625,-4.15625,-1.1526251526251523,-5.424908424908424,0.0,-0.71875,0.75,-4.1875,-1.9035409035409037,-5.6996336996337,0.0,-0.78125,0.71875,-4.1875,-2.807081807081807,-5.123321123321123,1.1025641025641026,-0.71875,0.9375,-4.1875,-2.9865689865689866,-4.775335775335775,2.195360195360196,0.0,1.25,-4.09375,-2.625152625152625,-4.413919413919414,1.4822954822954824,0.0,1.28125,-4.34375,-2.9609279609279615,-5.6813186813186825,0.0,0.0,0.78125,-4.125,-4.507936507936508,-4.473748473748474,0.0,0.0,0.90625,-4.0,-4.7704517704517695,-3.758241758241758,0.6837606837606838,0.0,1.21875,-3.84375,-4.87057387057387,-3.3943833943833943,0.6251526251526252,0.0,1.3125,-3.53125,-4.721611721611722,-3.474969474969475,0.7191697191697192,0.0,1.28125,-3.375,-4.384615384615385,-3.2490842490842486,0.7008547008547008,0.59375,1.25,-3.15625,-4.251526251526252,-3.086691086691087,0.0,0.78125,1.0625,-3.1875,-5.262515262515263,-2.4273504273504267,-0.7374847374847375,0.71875,0.84375,-3.125,-5.661782661782662,-1.8144078144078144,0.0,0.71875,1.0,-2.875,-3.7948717948717943,-1.608058608058608,-1.2319902319902318,0.96875,1.25,-2.5,-3.565323565323565,-1.794871794871795,-2.415140415140415,1.15625,1.1875,-2.4375,-4.656898656898657,-1.537240537240537,-2.8363858363858365,1.09375,1.0625,-2.34375,-5.113553113553113,-0.568986568986569,-2.2295482295482296,0.9375,1.21875,-2.1875,-4.1330891330891335,0.0,-1.9035409035409037,0.9375,1.3125,-1.9375,-4.529914529914531,0.0,-1.8937728937728937,0.90625,1.1875,-1.59375,-4.2405372405372415,0.6910866910866911,-1.6227106227106227,0.875,1.125,-1.28125,-4.9023199023199036,1.4358974358974361,-1.8205128205128205,0.8125,0.84375,-1.0625,-6.061050061050061,2.2051282051282053,-1.9328449328449329,0.6875,0.8125,-0.65625,-5.523809523809524,2.5689865689865687,-1.8669108669108667,0.59375,0.78125,0.0,-4.7997557997558,2.8253968253968256,-1.9181929181929185,0.0,0.0,0.0,-4.627594627594628,2.5970695970695967,-2.2527472527472527,0.0,0.0,0.0,-4.095238095238095,2.6507936507936507,-1.967032967032967,0.0,0.0,0.0,-2.727716727716728,2.0573870573870567,-1.5177045177045176,0.0,0.0,0.0,-1.336996336996337,1.2393162393162394,-0.7875457875457875,0.0,0.0,0.0,-0.5457875457875457,0.0,-0.5836385836385837,0.0,0.0,0.0,0.0,0.0,0.0,0.0,0.0,0.0,0.0,0.0,0.0,0.0,0.0,0.0,0.0,-0.5934065934065934,0.0,-0.5625,0.0,0.625,0.0,0.0,0.0,-0.78125,0.0,0.84375,wp_nextR
accX,4.5225885225885225,-2.4603174603174605,-0.7814407814407814,0.53125,0.0,-1.375,6.046398046398046,-3.407814407814408,-0.8559218559218559,0.0,0.0,-1.90625,5.299145299145299,-3.641025641025641,-1.0476190476190477,0.0,0.0,-2.3125,4.199023199023198,-5.368742368742368,-2.242979242979243,0.0,0.0,-2.6875,3.7289377289377286,-7.010989010989012,-2.2002442002442004,0.0,0.8125,-3.34375,2.935286935286935,-7.463980463980464,-1.0732600732600732,-0.75,0.875,-3.78125,1.6141636141636142,-7.062271062271062,0.0,-0.9375,0.875,-4.09375,-0.9633699633699634,-6.670329670329671,0.0,-0.8125,1.0,-4.34375,-1.5763125763125765,-6.212454212454213,0.5262515262515263,-0.75,1.0625,-4.40625,-2.2808302808302807,-5.647130647130648,1.2039072039072038,0.0,1.03125,-4.34375,-1.9474969474969477,-5.0256410256410255,1.9572649572649568,0.0,1.3125,-4.375,-0.8363858363858364,-4.9133089133089145,1.7264957264957266,0.0,1.21875,-4.5,-1.8498168498168501,-5.317460317460316,0.0,0.0,0.71875,-4.65625,-4.418803418803419,-4.630036630036631,-1.028083028083028,0.0,0.53125,-4.65625,-5.514041514041513,-3.2148962148962146,0.0,0.0,1.125,-4.4375,-4.457875457875458,-2.5347985347985347,0.0,0.53125,1.71875,-4.1875,-4.561660561660561,-3.388278388278388,-1.120879120879121,0.6875,1.625,-4.0625,-5.982905982905983,-3.6129426129426134,-0.7545787545787546,0.0,1.46875,-3.75,-5.424908424908424,-2.351648351648352,0.0,0.625,1.78125,-3.53125,-5.1330891330891335,-1.8730158730158732,0.0,0.84375,1.4375,-3.625,-5.641025641025642,-2.4566544566544573,-1.2332112332112333,0.71875,1.03125,-3.6875,-6.230769230769232,-2.1074481074481075,-0.9743589743589745,0.0,0.8125,-3.3125,-6.8046398046398044,-1.4713064713064714,0.0,0.0,1.21875,-2.96875,-5.5335775335775335,0.0,0.0,0.90625,1.5,-2.5,-5.078144078144078,0.0,-1.7789987789987791,1.0625,1.40625,-2.375,-5.241758241758243,-0.989010989010989,-3.208791208791209,0.65625,1.125,-2.09375,-5.4444444444444455,0.0,-2.9841269841269837,0.0,1.125,-1.875,-5.428571428571429,1.2002442002442002,-1.8363858363858363,0.0,1.15625,-1.625,-5.4664224664224665,1.73992673992674,-1.468864468864469,0.0,1.125,-1.28125,-5.702075702075702,2.0781440781440783,-1.9035409035409037,0.0,1.03125,-0.8125,-5.691086691086691,1.6324786324786325,-1.8205128205128205,0.0,0.875,0.0,-4.650793650793651,2.087912087912088,-0.8644688644688645,0.0,0.8125,0.0,-4.074481074481073,1.7252747252747254,0.0,0.0,0.5625,0.0,-3.1416361416361416,0.9365079365079364,0.0,0.0,0.0,0.0,-2.687423687423687,0.0,0.0,0.0,0.0,0.0,-1.6605616605616609,0.0,0.0,0.0,0.0,0.0,0.0,0.0,0.0,0.0,0.0,0.0,0.0,0.0,0.0,0.0,0.0,0.0,0.0,0.0,0.0,0.0,0.0,0.0,0.0,0.0,0.0,0.0,0.0,0.0,0.0,0.0,0.0,0.0,0.0,0.0,0.0,0.0,0.0,0.0,0.0,0.0,0.0,0.0,0.0,0.0,0.0,0.0,0.0,0.0,0.0,0.0,0.0,0.53125,,,,,,,,,,,,,,,,,,,wp_nextR
accX,3.33943833943834,-2.57997557997558,-2.236874236874237,0.0,0.0,-1.5,5.057387057387056,-2.0525030525030523,-1.126984126984127,0.0,0.0,-1.96875,5.146520146520147,-3.274725274725274,-0.7277167277167277,0.0,0.0,-2.25,4.647130647130648,-3.8949938949938954,-1.3711843711843712,0.0,0.0,-2.6875,2.868131868131868,-4.697191697191697,-2.0061050061050056,0.0,0.0,-3.0625,1.7203907203907205,-5.045177045177045,-1.8974358974358971,-0.8125,0.0,-3.46875,0.9768009768009768,-5.599511599511598,-0.894993894993895,-1.03125,0.8125,-3.59375,1.2954822954822955,-5.336996336996338,0.0,-0.84375,1.0625,-4.0,0.0,-6.31013431013431,0.0,-0.75,0.9375,-4.3125,0.0,-6.667887667887667,0.7509157509157509,-0.875,0.75,-4.5625,0.0,-6.678876678876679,0.6166056166056166,-1.09375,0.0,-4.875,-1.5665445665445663,-6.678876678876679,0.0,-1.1875,0.0,-5.0625,-3.293040293040293,-5.5054945054945055,0.0,-1.0625,0.78125,-5.03125,-4.448107448107448,-5.170940170940171,0.0,-0.8125,1.40625,-4.65625,-3.9975579975579976,-5.3247863247863245,0.0,-0.65625,1.8125,-4.28125,-3.33943833943834,-4.753357753357753,0.9365079365079364,0.0,1.84375,-4.15625,-3.584859584859585,-5.177045177045176,0.0,0.0,1.71875,-4.0625,-4.04029304029304,-5.1941391941391934,0.0,0.0,1.71875,-4.03125,-4.0415140415140405,-4.4493284493284495,0.956043956043956,0.0,1.5,-3.90625,-4.498168498168498,-3.782661782661783,0.6849816849816851,0.0,1.28125,-3.8125,-5.523809523809524,-3.7936507936507935,0.0,0.0,1.25,-3.59375,-6.406593406593408,-3.15018315018315,0.0,0.0,1.40625,-3.03125,-5.710622710622711,-2.1697191697191696,0.7777777777777778,0.8125,1.84375,-2.5,-4.221001221001221,-2.677655677655677,0.0,1.09375,1.90625,-2.21875,-3.474969474969475,-2.67032967032967,-1.017094017094017,1.1875,1.4375,-2.3125,-4.803418803418802,-2.299145299145299,-1.5152625152625152,0.96875,0.84375,-2.4375,-5.7435897435897445,-0.6166056166056166,-1.5958485958485962,0.78125,0.6875,-2.34375,-6.09035409035409,0.0,-1.987789987789988,0.84375,0.875,-1.90625,-5.266178266178266,0.6080586080586079,-2.6080586080586077,1.0,1.15625,-1.34375,-3.9621489621489614,0.8290598290598291,-2.9438339438339436,0.875,1.21875,-0.96875,-3.6434676434676434,1.2991452991452992,-2.68009768009768,0.625,1.0625,-0.75,-4.108669108669108,1.623931623931624,-2.0268620268620268,0.0,0.90625,-0.65625,-4.4151404151404146,2.217338217338217,-1.2295482295482296,0.0,0.75,0.0,-4.462759462759463,2.4249084249084247,-0.8498168498168498,0.0,0.6875,0.0,-4.076923076923077,2.417582417582417,-0.6361416361416361,0.0,0.71875,0.0,-3.335775335775337,1.7423687423687424,-0.6288156288156288,0.0,0.59375,0.0,-2.7106227106227108,1.26007326007326,-0.7057387057387058,0.0,0.0,0.0,-1.8559218559218558,0.9645909645909646,-0.6410256410256411,0.0,0.0,0.0,-1.5042735042735045,0.5091575091575091,-0.7045177045177046,0.0,0.0,0.0,-0.9157509157509156,0.0,-0.5616605616605617,0.0,0.0,0.0,-0.5396825396825397,0.0,-0.984126984126984,0.0,0.0,0.53125,,,,,,,,,,,,,,,,,,,,,,,,,,,,,,,,,,,,,wp_nextR
accX,4.852258852258852,0.0,-1.6886446886446886,0.875,0.0,-0.9375,3.9047619047619047,-0.9548229548229548,-1.5103785103785103,0.625,0.0,-1.09375,5.112332112332112,-1.199023199023199,-1.3956043956043955,0.0,0.0,-1.25,5.395604395604397,-1.982905982905983,-1.931623931623932,0.0,0.0,-1.4375,5.7606837606837615,-3.31013431013431,-2.175824175824176,0.0,0.0,-1.71875,5.967032967032968,-4.405372405372407,-2.004884004884005,0.0,0.0,-2.15625,4.575091575091576,-4.785103785103785,-1.474969474969475,-0.8125,0.0,-2.75,3.56043956043956,-5.451770451770452,-0.57997557997558,-0.90625,0.0,-3.21875,2.6080586080586077,-5.0866910866910855,0.0,-0.96875,0.0,-3.625,1.0427350427350428,-5.6984126984126995,-0.7435897435897436,-0.90625,0.0,-3.9375,0.0,-5.711843711843712,0.0,-1.0,0.0,-4.1875,-0.9145299145299144,-5.543345543345543,0.0,-0.875,0.71875,-4.28125,-1.5714285714285714,-5.4493284493284495,0.0,-0.59375,1.0,-4.28125,-2.2869352869352872,-5.838827838827839,0.0,-0.5625,1.3125,-4.3125,-2.3553113553113554,-5.947496947496947,0.0,-0.5625,1.375,-4.25,-1.8302808302808304,-5.7765567765567765,1.321123321123321,0.0,1.3125,-4.3125,-2.1111111111111107,-5.598290598290597,0.6153846153846154,0.0,1.03125,-4.40625,-3.9975579975579976,-5.666666666666668,0.0,0.0,1.15625,-4.34375,-4.641025641025641,-4.7936507936507935,0.0,0.0,1.5625,-4.15625,-4.186813186813187,-4.146520146520147,1.1343101343101345,0.0,1.65625,-3.78125,-4.264957264957265,-3.4432234432234434,0.8302808302808303,0.0,1.5,-3.625,-5.256410256410256,-3.5775335775335777,0.0,0.0,1.5625,-3.34375,-4.937728937728939,-3.122100122100122,0.9572649572649572,0.0,1.84375,-3.0625,-4.113553113553113,-3.4652014652014653,0.0,0.78125,1.78125,-2.875,-3.948717948717949,-3.418803418803418,0.0,0.8125,1.59375,-2.875,-3.692307692307693,-3.1684981684981683,0.0,0.8125,1.28125,-2.96875,-4.564102564102563,-1.5030525030525033,-0.9951159951159952,0.84375,1.0,-2.96875,-5.852258852258853,-0.9413919413919414,-2.183150183150183,1.03125,0.875,-2.625,-5.434676434676435,0.0,-2.3956043956043955,1.03125,0.96875,-2.21875,-5.111111111111111,0.8485958485958486,-2.0744810744810747,0.8125,0.71875,-1.90625,-6.434676434676435,2.126984126984127,-1.6214896214896215,0.5625,0.0,-1.625,-7.269841269841269,3.0805860805860807,-1.7411477411477412,0.0,0.0,-0.96875,-6.722832722832723,2.6630036630036633,-2.2026862026862033,0.0,0.65625,0.0,-5.920634920634921,2.85958485958486,-1.8730158730158732,0.0,0.6875,0.0,-5.1159951159951165,2.673992673992674,-1.2686202686202686,0.0,0.0,0.0,-4.293040293040293,2.5347985347985347,-0.9304029304029304,0.0,0.0,0.0,-2.9572649572649574,1.6691086691086692,-1.3162393162393162,0.0,0.0,0.0,-1.4920634920634919,1.094017094017094,-1.733821733821734,0.0,0.0,0.0,0.0,0.0,-1.5189255189255189,0.0,0.0,0.0,0.0,0.0,-0.5958485958485958,0.0,0.0,0.0,1.010989010989011,-0.6715506715506715,0.0,0.0,0.0,0.0,0.0,0.0,0.7533577533577533,0.0,0.0,0.0,0.0,0.0,0.7704517704517705,0.0,0.0,0.0,-1.3736263736263736,0.0,0.0,0.0,0.0,0.0,-2.0244200244200243,0.0,0.0,0.0,0.5625,0.0,,,,,,,,,,,,,wp_nextR
accX,5.235653235653237,-2.128205128205128,-2.166056166056166,0.0,0.0,-1.03125,5.202686202686203,-2.0268620268620268,-1.4603174603174602,0.0,0.0,-1.5,6.188034188034187,-4.107448107448107,-1.5103785103785103,0.59375,0.0,-1.875,5.565323565323565,-4.8901098901098905,-2.155067155067155,0.0,0.0,-2.25,4.9865689865689875,-5.256410256410256,-2.073260073260073,0.0,0.0,-2.75,4.056166056166056,-5.78021978021978,-1.4224664224664223,-0.78125,0.0,-3.1875,2.7924297924297923,-5.789987789987791,-0.5128205128205128,-1.09375,0.0,-3.59375,1.6971916971916972,-5.794871794871796,0.0,-1.0625,0.65625,-3.9375,0.7973137973137974,-6.061050061050061,-0.894993894993895,-1.03125,0.75,-4.125,0.0,-5.979242979242978,-0.6483516483516484,-1.125,0.71875,-4.34375,-1.1672771672771671,-6.046398046398046,0.0,-1.1875,0.625,-4.59375,-2.0061050061050056,-5.455433455433456,0.5384615384615384,-1.15625,0.625,-4.5625,-2.78998778998779,-5.683760683760683,0.0,-0.9375,0.84375,-4.5,-3.5470085470085464,-5.523809523809524,0.0,-0.78125,1.21875,-4.21875,-3.8229548229548236,-5.0,1.0537240537240538,-0.5625,1.65625,-4.15625,-2.6312576312576312,-4.599511599511598,1.398046398046398,0.0,1.53125,-3.96875,-2.8632478632478637,-4.835164835164835,0.503052503052503,0.0,1.125,-3.9375,-4.1159951159951165,-5.026862026862027,0.0,0.0,1.09375,-3.90625,-4.766788766788767,-3.9670329670329667,0.8888888888888888,0.0,1.40625,-3.71875,-4.4774114774114775,-3.31013431013431,0.9072039072039072,0.0,1.59375,-3.5,-4.01953601953602,-3.1978021978021984,0.6788766788766789,0.5625,1.4375,-3.25,-4.25030525030525,-3.305250305250305,0.0,0.53125,1.34375,-3.03125,-4.0415140415140405,-2.6434676434676434,0.0,0.65625,1.5,-2.84375,-3.8217338217338215,-1.5531135531135531,0.0,0.9375,1.53125,-2.75,-4.247863247863248,-1.6581196581196582,-0.6459096459096461,0.96875,1.34375,-2.53125,-4.451770451770452,-1.290598290598291,-1.2393162393162394,0.75,1.125,-2.34375,-4.446886446886447,0.0,-0.8803418803418803,0.75,1.21875,-2.15625,-4.594627594627593,1.1025641025641026,-1.2185592185592184,0.9375,1.1875,-1.90625,-4.8046398046398044,1.3150183150183148,-2.1404151404151404,1.0625,1.03125,-1.59375,-4.462759462759463,1.4017094017094016,-2.9670329670329667,0.9375,1.09375,-1.34375,-3.868131868131868,1.752136752136752,-3.2014652014652016,0.71875,1.0625,-1.25,-3.73015873015873,2.496947496947497,-2.683760683760684,0.0,0.875,-1.15625,-3.5152625152625148,2.683760683760684,-2.2283272283272284,0.0,0.65625,-1.0625,-3.903540903540904,2.52991452991453,-2.0695970695970702,0.0,0.0,-0.78125,-4.015873015873016,2.688644688644689,-1.5091575091575091,0.0,0.59375,0.0,-3.072039072039072,2.855921855921856,-0.8571428571428571,0.0,0.71875,0.0,-1.9694749694749696,2.105006105006105,0.0,0.0,0.0,0.0,-1.5079365079365081,1.3943833943833943,0.0,0.0,0.0,0.0,-2.411477411477412,1.387057387057387,0.5848595848595849,0.0,0.0,0.0,-2.5811965811965814,1.266178266178266,0.0,0.0,0.0,0.0,-2.452991452991453,1.2686202686202686,0.0,0.0,0.0,0.0,-1.6947496947496947,0.8266178266178266,-0.5274725274725275,0.0,0.0,0.71875,,,,,,,,,,,,,,,,,,,,,,,,,,,,,,,wp_nextR
accX,6.2905982905982905,-1.8937728937728937,-2.2954822954822958,0.53125,0.0,-1.25,5.837606837606838,-2.8180708180708183,-2.681318681318681,0.0,0.0,-1.46875,4.791208791208791,-2.122100122100122,-2.688644688644689,0.0,0.0,-1.875,4.786324786324786,-2.7387057387057387,-2.3675213675213675,0.0,0.53125,-2.09375,4.716727716727717,-3.47985347985348,-2.0891330891330893,0.0,0.59375,-2.40625,3.7399267399267404,-4.4322344322344325,-2.0366300366300365,0.0,0.8125,-2.625,3.195360195360196,-4.993894993894994,-2.0573870573870567,-0.5625,1.09375,-3.0,2.8632478632478637,-5.175824175824176,-1.8925518925518925,-0.90625,0.90625,-3.5625,0.0,-5.471306471306471,-0.8156288156288156,-1.125,0.59375,-3.875,-1.8058608058608057,-4.826617826617826,0.0,-1.25,0.75,-3.875,-2.2954822954822958,-4.667887667887668,0.8351648351648352,-0.9375,1.21875,-3.75,-1.7973137973137974,-5.15995115995116,0.9291819291819292,-0.5625,1.53125,-3.59375,-1.5641025641025639,-5.945054945054944,0.6666666666666666,0.0,1.59375,-3.6875,-1.4481074481074483,-6.134310134310135,0.0,0.0,1.3125,-3.9375,-2.9035409035409034,-5.57997557997558,0.0,-0.59375,0.96875,-4.125,-4.814407814407813,-5.221001221001221,0.0,0.0,1.09375,-3.96875,-4.442002442002441,-4.554334554334553,1.0781440781440779,0.0,1.6875,-3.65625,-3.063492063492064,-4.446886446886447,1.7533577533577531,0.0,2.03125,-3.40625,-2.3150183150183152,-5.08058608058608,0.7533577533577533,0.0,1.8125,-3.34375,-2.5079365079365084,-4.549450549450549,0.0,0.0,1.28125,-3.625,-3.3455433455433456,-4.130647130647131,0.0,0.0,1.28125,-3.71875,-3.2344322344322345,-3.0854700854700856,0.8717948717948718,0.5625,1.34375,-3.59375,-3.1330891330891335,-2.484737484737485,0.6715506715506715,0.84375,1.21875,-3.40625,-3.1404151404151404,-2.354090354090354,0.0,1.0,1.1875,-3.28125,-3.678876678876679,-1.9609279609279608,-1.0573870573870574,1.09375,1.4375,-3.03125,-3.0268620268620268,-1.3345543345543345,-1.4847374847374848,1.3125,1.75,-2.78125,-2.649572649572649,-0.5555555555555556,-1.9267399267399268,1.4375,1.78125,-2.6875,-3.051282051282051,0.0,-3.0769230769230766,1.28125,1.375,-2.75,-5.396825396825397,0.7240537240537241,-3.4529914529914536,0.9375,1.125,-2.71875,-7.284493284493284,3.0122100122100113,-2.78998778998779,0.875,1.25,-2.1875,-8.012210012210012,3.687423687423687,-2.619047619047619,1.0,1.53125,-1.15625,-4.705738705738706,2.2783882783882783,-2.4420024420024418,0.875,1.25,-0.875,-4.299145299145299,1.8632478632478635,-2.562881562881563,0.0,0.6875,-0.8125,-4.433455433455434,2.1965811965811968,-1.943833943833944,0.0,0.0,-0.75,-4.3418803418803416,2.437118437118437,-1.020757020757021,0.0,0.0,-0.59375,-3.9145299145299135,2.407814407814408,-0.6886446886446886,0.0,0.0,0.0,-3.122100122100122,1.6837606837606838,-0.9523809523809524,0.0,0.0,0.0,-2.0976800976800978,1.0622710622710625,-0.9853479853479854,0.0,0.0,0.0,-0.9145299145299144,0.7448107448107448,-0.6666666666666666,0.0,0.0,0.0,0.0,0.0,0.0,0.0,0.0,0.0,0.0,0.0,0.0,0.0,0.0,0.0,0.0,0.0,0.0,0.0,0.0,0.0,-0.8449328449328449,0.0,-0.6446886446886447,0.0,0.0,0.0,,,,,,,,,,,,,,,,,,,,,,,,,wp_nextR
accX,6.195360195360196,-1.4285714285714286,-1.5921855921855919,0.59375,0.0,-0.59375,6.010989010989012,-1.9242979242979243,-1.1746031746031746,0.71875,0.0,-0.96875,6.800976800976801,-3.4297924297924296,-1.8571428571428568,0.84375,0.0,-1.25,7.180708180708182,-4.543345543345543,-2.115995115995116,0.0,0.0,-1.8125,5.846153846153847,-4.5335775335775335,-1.380952380952381,0.0,0.0,-2.625,3.7338217338217334,-4.711843711843712,-1.3186813186813189,0.0,0.6875,-2.875,2.2344322344322345,-4.893772893772893,-0.8021978021978022,0.0,1.1875,-3.0625,2.1184371184371185,-4.964590964590965,0.0,0.0,1.3125,-3.25,1.6764346764346765,-4.786324786324786,0.0,0.0,1.0625,-3.53125,0.0,-4.710622710622711,-0.7106227106227107,-0.625,0.9375,-3.6875,-1.1355311355311355,-4.772893772893774,-0.7326007326007326,-0.75,1.0625,-3.75,-2.173382173382173,-4.196581196581197,0.0,-0.71875,1.3125,-3.6875,-2.3821733821733817,-3.9426129426129437,0.0,0.0,1.5,-3.6875,-2.15018315018315,-4.134310134310135,0.5995115995115995,0.0,1.46875,-3.6875,-2.1611721611721606,-4.655677655677657,0.0,0.0,1.28125,-3.8125,-2.606837606837607,-4.877899877899878,-0.5628815628815629,-0.53125,0.96875,-3.9375,-5.347985347985348,-3.324786324786325,0.6410256410256411,0.0,1.3125,-3.75,-4.512820512820513,-3.117216117216117,1.0048840048840049,0.0,1.6875,-3.40625,-3.804639804639805,-3.6666666666666665,0.7460317460317459,0.0,1.65625,-3.21875,-3.915750915750916,-4.142857142857143,0.8363858363858364,0.0,1.53125,-3.1875,-3.2442002442002438,-3.2954822954822958,1.5641025641025639,0.0,1.4375,-3.15625,-2.948717948717949,-3.102564102564102,1.051282051282051,0.625,1.21875,-3.15625,-3.4249084249084247,-3.1037851037851034,0.0,0.71875,0.78125,-3.28125,-4.536019536019536,-2.5177045177045176,0.0,0.65625,0.65625,-3.21875,-4.8217338217338215,-1.6544566544566544,0.0,0.78125,0.90625,-3.0,-3.9230769230769234,-0.6361416361416361,0.0,1.03125,1.1875,-2.625,-3.6312576312576312,-0.6129426129426129,-1.0427350427350428,1.3125,1.21875,-2.375,-3.7557997557997562,0.0,-1.7912087912087913,1.1875,0.84375,-2.21875,-4.3821733821733835,0.0,-2.2954822954822958,0.84375,0.75,-2.0625,-4.78021978021978,1.7728937728937728,-1.9523809523809523,0.71875,0.8125,-1.75,-5.307692307692308,3.52014652014652,-1.6300366300366298,0.875,1.03125,-1.25,-5.242979242979243,3.247863247863248,-1.6336996336996337,1.0,1.28125,-0.75,-3.6214896214896215,2.590964590964591,-2.04029304029304,0.90625,1.3125,0.0,-2.2564102564102564,2.2210012210012207,-2.039072039072039,0.59375,1.0625,0.0,-1.7301587301587302,2.457875457875458,-1.9194139194139197,0.0,0.65625,-0.5625,-2.3211233211233213,2.7496947496947497,-1.735042735042735,0.0,0.0,-0.625,-3.457875457875458,2.9438339438339436,-1.750915750915751,0.0,0.0,0.0,-3.73015873015873,2.52991452991453,-1.7875457875457876,0.0,0.0,0.0,-2.826617826617827,1.78021978021978,-1.5567765567765568,0.0,0.0,0.0,-2.37973137973138,1.5775335775335777,-0.8485958485958486,0.0,0.0,0.0,-2.6166056166056166,1.4395604395604396,-0.8253968253968254,0.0,0.0,0.0,-2.8547008547008548,1.3931623931623929,-0.6703296703296703,-0.53125,0.0,0.53125,,,,,,,,,,,,,,,,,,,,,,,,,,,,,,,wp_nextR
accX,5.7081807081807066,-1.5616605616605617,-0.8852258852258852,0.90625,0.0,0.0,6.05982905982906,-2.474969474969475,-1.9694749694749696,0.65625,0.0,-1.25,5.516483516483516,-3.023199023199023,-1.4334554334554337,0.0,0.0,-1.59375,4.956043956043956,-3.926739926739927,-1.4737484737484738,0.0,0.0,-1.9375,4.710622710622711,-5.075702075702075,-1.2442002442002442,0.0,0.65625,-2.375,4.964590964590965,-5.151404151404153,-1.619047619047619,0.0,0.6875,-2.96875,3.7350427350427347,-5.979242979242978,-2.3211233211233213,-0.65625,0.0,-3.59375,0.6581196581196581,-5.212454212454213,-1.7264957264957266,-1.15625,0.0,-4.09375,-1.3663003663003663,-4.387057387057388,-0.6190476190476191,-1.15625,0.0,-4.15625,-1.0842490842490842,-4.615384615384615,0.0,-0.71875,1.125,-3.9375,0.0,-5.730158730158731,0.0,0.0,1.3125,-3.90625,0.0,-6.2173382173382175,0.0,0.0,1.09375,-4.1875,-0.525030525030525,-6.722832722832723,-0.5006105006105006,-0.53125,0.71875,-4.59375,-2.2625152625152625,-6.735042735042735,-1.3565323565323566,-0.96875,0.0,-4.875,-4.87912087912088,-4.792429792429792,-0.663003663003663,-0.75,0.9375,-4.53125,-4.742368742368742,-3.7692307692307687,0.0,0.0,1.8125,-4.03125,-2.938949938949939,-4.067155067155067,0.0,0.0,1.8125,-3.8125,-3.051282051282051,-3.9609279609279615,-0.7692307692307693,0.0,1.59375,-3.875,-3.0549450549450547,-2.9145299145299144,0.0,0.0,1.5,-3.90625,-3.2612942612942613,-2.7753357753357752,0.0,0.0,1.625,-3.96875,-2.9328449328449326,-3.0769230769230766,0.0,0.0,1.65625,-4.0625,-3.2344322344322345,-2.6507936507936507,0.0,0.0,1.40625,-3.65625,-4.122100122100122,-1.7008547008547008,0.7216117216117216,0.0,1.78125,-3.4375,-3.571428571428572,-1.1294261294261294,0.0,0.75,1.84375,-3.1875,-3.4065934065934065,-1.4603174603174602,-0.8559218559218559,0.75,1.8125,-3.28125,-3.7142857142857135,-1.2747252747252746,-0.8901098901098901,0.59375,1.46875,-3.15625,-4.814407814407813,0.0,-0.8705738705738706,0.0,1.3125,-3.0,-5.561660561660561,0.0,-0.7704517704517705,0.0,1.25,-2.75,-5.5787545787545785,1.094017094017094,-0.557997557997558,0.5625,1.375,-2.3125,-5.058608058608058,1.242979242979243,0.0,0.65625,1.5,-1.90625,-4.413919413919414,1.514041514041514,-0.6202686202686203,0.65625,1.28125,-1.59375,-4.677655677655678,1.978021978021978,-0.7338217338217338,0.53125,0.96875,-1.40625,-4.557997557997559,2.483516483516484,-0.7643467643467643,0.0,0.75,-1.125,-4.4261294261294255,3.1575091575091574,-0.873015873015873,0.0,0.53125,-0.84375,-4.57997557997558,2.5689865689865687,-1.7155067155067154,0.0,0.0,-0.5625,-3.028083028083028,2.8192918192918195,-1.8119658119658117,0.0,0.0,0.0,-1.9743589743589745,2.2527472527472527,-1.6825396825396826,0.0,0.0,0.0,-1.0818070818070815,1.7875457875457876,-1.0586080586080586,0.0,0.0,0.0,-0.9902319902319904,1.0573870573870574,-0.6495726495726496,0.0,0.0,0.0,-1.7692307692307692,0.7765567765567766,0.0,0.0,0.0,0.0,-3.1086691086691087,0.5506715506715507,0.0,0.0,0.0,0.0,-3.56043956043956,0.9230769230769232,0.0,-0.71875,0.0,0.71875,,,,,,,,,,,,,,,,,,,,,,,,,,,,,,,wp_nextR
accX,4.99023199023199,-1.2967032967032968,-2.2783882783882783,1.125,0.0,0.875,6.08058608058608,-1.881562881562881,-3.5262515262515266,0.90625,0.0,0.59375,7.826617826617826,-1.968253968253968,-3.117216117216117,0.5625,0.0,0.0,7.553113553113552,-1.7594627594627594,-3.1282051282051277,0.0,0.0,-0.78125,6.859584859584858,-2.8107448107448105,-3.357753357753358,0.0,0.0,-1.28125,6.666666666666668,-3.4065934065934065,-3.1672771672771667,0.0,0.65625,-1.78125,6.250305250305249,-3.615384615384616,-2.709401709401709,0.0,0.78125,-2.25,5.195360195360196,-4.135531135531137,-2.4713064713064714,-0.59375,0.875,-2.6875,4.1159951159951165,-4.606837606837607,-2.5763125763125765,-0.6875,1.03125,-3.0625,2.4383394383394386,-4.912087912087912,-2.533577533577533,-0.78125,1.28125,-3.3125,1.4529914529914532,-5.101343101343102,-1.794871794871795,-0.8125,1.46875,-3.5625,1.0842490842490842,-5.045177045177045,-0.9462759462759462,-0.84375,1.4375,-3.84375,0.7484737484737485,-5.492063492063493,-0.7863247863247863,-0.875,1.1875,-4.125,-0.6923076923076923,-5.335775335775336,-0.7765567765567766,-0.9375,1.0625,-4.21875,-2.8034188034188032,-5.0769230769230775,0.0,-0.6875,1.5625,-4.21875,-2.3663003663003663,-5.074481074481074,0.5347985347985348,0.0,1.8125,-4.21875,-2.2771672771672766,-6.470085470085469,0.0,0.0,1.84375,-4.375,-2.8998778998779,-6.05982905982906,0.0,0.0,1.6875,-4.375,-3.267399267399268,-5.333333333333333,0.5738705738705738,0.0,1.59375,-4.40625,-4.34065934065934,-4.816849816849817,0.0,0.0,1.5625,-4.375,-5.09035409035409,-4.5335775335775335,0.6129426129426129,0.0,1.6875,-4.28125,-4.6422466422466435,-3.678876678876679,0.0,0.0,1.75,-4.03125,-5.643467643467643,-3.449328449328449,0.0,0.0,1.5625,-3.75,-6.495726495726496,-3.1062271062271063,-0.7118437118437119,0.59375,1.625,-3.53125,-6.443223443223442,-2.2344322344322345,0.0,0.625,1.96875,-3.125,-5.275946275946276,-1.5897435897435896,0.0,0.84375,2.0625,-2.84375,-5.336996336996338,-1.4981684981684982,-0.5347985347985348,0.875,1.53125,-2.53125,-5.534798534798535,-1.2271062271062272,-0.9291819291819292,0.84375,1.40625,-2.3125,-5.717948717948718,-0.6666666666666666,-1.0757020757020757,0.8125,1.53125,-2.03125,-4.678876678876679,0.5311355311355311,-1.2258852258852257,0.90625,1.4375,-1.78125,-3.561660561660561,1.21978021978022,-2.1611721611721606,0.9375,0.9375,-1.59375,-3.1770451770451764,0.7863247863247863,-3.235653235653236,0.71875,0.59375,-1.5625,-4.197802197802199,0.8815628815628815,-3.1672771672771667,0.0,0.71875,-1.46875,-5.177045177045176,2.2857142857142856,-1.948717948717949,0.0,1.125,-1.0,-4.556776556776557,2.418803418803418,-1.194139194139194,0.0,1.25,0.0,-4.214896214896215,1.9645909645909645,-0.7484737484737485,0.0,0.6875,0.0,-7.507936507936507,3.421245421245421,-1.0329670329670328,0.0,0.0,0.0,-7.235653235653236,1.9853479853479852,-1.2796092796092795,0.0,0.0,0.0,-3.0329670329670333,0.9816849816849816,-0.6275946275946276,0.0,0.0,0.625,-2.128205128205128,1.3516483516483515,-0.8608058608058609,-0.84375,0.0,0.84375,-1.800976800976801,1.3894993894993894,-1.6275946275946276,-0.71875,0.0,1.0,0.0,0.7142857142857143,-1.1477411477411477,0.0,0.0,1.0,0.0,0.0,-1.0561660561660562,0.0,0.0,1.0625,,,,,,,,,,,,,,,,,,,,,,,,,wp_nextR
accX,7.819291819291818,-2.481074481074481,-2.457875457875458,0.59375,0.0,0.0,7.289377289377289,-3.4224664224664223,-2.5042735042735043,0.59375,0.0,-0.6875,7.411477411477412,-3.6849816849816848,-2.240537240537241,0.0,0.0,-1.28125,7.020757020757022,-3.85958485958486,-1.8266178266178263,0.0,0.0,-1.78125,5.702075702075702,-4.750915750915751,-1.5848595848595848,0.0,0.0,-2.28125,4.608058608058609,-5.0866910866910855,-0.873015873015873,0.0,0.0,-2.71875,3.389499389499389,-5.2905982905982905,-0.8852258852258852,0.0,0.59375,-3.0625,2.484737484737485,-5.567765567765568,-0.8962148962148963,-0.59375,0.71875,-3.4375,1.927960927960928,-5.492063492063493,0.0,-0.71875,0.625,-3.75,0.8388278388278388,-5.62026862026862,0.0,-0.8125,0.0,-4.0,0.0,-4.621489621489621,0.0,-0.90625,0.0,-4.15625,-1.896214896214896,-4.402930402930403,0.0,-0.875,0.0,-4.125,-2.2698412698412698,-4.096459096459096,0.0,-0.625,0.9375,-4.09375,-1.5714285714285714,-3.8437118437118434,0.9023199023199024,0.0,1.03125,-4.03125,-1.2319902319902318,-4.786324786324786,0.0,0.0,0.8125,-4.0625,-2.2722832722832718,-4.6923076923076925,0.0,0.0,0.75,-4.15625,-3.433455433455433,-4.095238095238095,0.0,0.0,1.03125,-4.09375,-3.2967032967032965,-3.3858363858363862,0.6336996336996337,0.0,1.21875,-3.90625,-2.95970695970696,-3.102564102564102,0.5628815628815629,0.0,1.03125,-3.75,-3.791208791208791,-3.42002442002442,0.0,0.0,1.03125,-3.625,-4.485958485958486,-3.117216117216117,0.0,0.0,1.4375,-3.4375,-3.927960927960928,-2.5079365079365084,1.1001221001221002,0.0,1.78125,-3.21875,-2.6727716727716726,-2.376068376068376,0.7545787545787546,0.0,1.5625,-3.09375,-2.800976800976801,-2.57997557997558,-0.8742368742368742,0.0,1.0625,-3.15625,-5.247863247863248,-1.6886446886446886,0.0,0.0,1.25,-3.03125,-5.542124542124542,0.0,0.5811965811965812,0.0,1.8125,-2.8125,-4.831501831501831,0.0,0.5787545787545788,0.625,2.21875,-2.5625,-4.051282051282051,0.0,0.0,0.53125,2.03125,-1.9375,-3.0744810744810747,0.6678876678876678,0.0,0.5625,1.6875,-1.625,-2.8021978021978016,0.5262515262515263,-1.8229548229548234,0.625,1.125,-1.8125,-3.5543345543345537,1.6935286935286935,-2.351648351648352,0.0,0.78125,-1.90625,-4.242979242979243,2.2869352869352872,-2.267399267399268,0.0,0.9375,-1.9375,-3.1709401709401708,3.2063492063492065,-1.6752136752136753,0.0,1.34375,-2.0,-2.3382173382173383,1.2417582417582418,-2.554334554334554,0.53125,1.15625,-1.65625,-4.8327228327228315,1.9365079365079363,-2.061050061050061,0.0,0.65625,-0.78125,-4.411477411477412,2.924297924297924,-0.8571428571428571,0.0,1.40625,0.0,-3.0989010989010985,2.527472527472528,0.0,0.0,1.28125,0.0,-2.289377289377289,2.075702075702076,0.0,0.0,0.71875,0.0,-2.120879120879121,1.6532356532356531,0.0,0.0,0.0,0.0,-2.299145299145299,1.4224664224664223,-0.7411477411477412,0.0,0.0,0.0,-1.8315018315018317,1.1611721611721613,-0.8998778998778999,0.0,0.0,0.0,-1.2258852258852257,1.2124542124542124,-1.0549450549450552,0.0,0.0,0.0,-1.0586080586080586,0.9438339438339438,-1.1965811965811963,0.0,0.0,0.0,-0.7057387057387058,0.0,-0.9450549450549449,-0.5625,0.0,0.0,,,,,,,,,,,,,,,,,,,wp_nextR
accX,8.028083028083028,-3.404151404151404,-2.3455433455433456,0.96875,0.0,0.625,6.863247863247862,-3.4261294261294264,-3.4652014652014653,0.6875,0.0,0.0,7.014652014652015,-2.7484737484737485,-2.2283272283272284,0.0,0.0,-0.65625,7.197802197802197,-2.2503052503052503,-1.1794871794871795,0.0,0.0,-1.0625,6.4041514041514045,-2.772893772893773,-1.868131868131868,0.0,0.0,-1.375,5.482295482295481,-3.1050061050061046,-2.7326007326007327,0.0,0.0,-1.71875,4.974358974358975,-4.018315018315018,-3.067155067155068,0.0,0.0,-2.28125,4.926739926739927,-3.8815628815628815,-1.9426129426129424,-0.75,0.0,-2.84375,3.926739926739927,-4.247863247863248,-1.188034188034188,-1.0,0.0,-3.3125,-0.6019536019536019,-3.7692307692307687,-1.6398046398046398,-1.09375,0.0,-3.40625,-0.9352869352869352,-3.7777777777777777,-1.264957264957265,-1.15625,0.8125,-3.28125,0.0,-4.054945054945056,0.0,-1.0625,1.28125,-3.34375,0.0,-4.057387057387056,0.0,-1.0,1.21875,-3.46875,-0.557997557997558,-4.8217338217338215,0.0,-1.0,0.90625,-3.75,-1.7362637362637363,-4.708180708180708,0.0,-1.15625,0.78125,-3.84375,-2.045177045177045,-3.947496947496948,0.8681318681318682,-1.0625,1.03125,-3.8125,-1.6654456654456655,-3.781440781440781,1.072039072039072,-0.75,1.34375,-3.71875,-0.8632478632478633,-4.383394383394384,0.6092796092796092,0.0,1.21875,-3.78125,-1.275946275946276,-4.683760683760683,0.0,0.0,0.875,-3.875,-2.335775335775336,-3.927960927960928,0.557997557997558,-0.5625,0.84375,-4.0,-2.9255189255189253,-3.003663003663004,0.503052503052503,0.0,1.15625,-3.78125,-2.807081807081807,-2.7448107448107453,0.0,0.0,1.5625,-3.6875,-2.669108669108669,-3.225885225885226,0.0,0.0,1.46875,-3.5625,-3.0366300366300365,-2.3943833943833943,0.6349206349206349,0.0,1.4375,-3.375,-2.9462759462759465,-2.15018315018315,0.0,0.0,1.4375,-3.28125,-3.096459096459097,-2.3455433455433456,-0.7057387057387058,0.0,1.25,-3.15625,-3.7020757020757022,-1.6703296703296704,0.0,0.0,1.34375,-3.09375,-3.4713064713064714,-0.9951159951159952,0.0,0.0,1.46875,-2.9375,-2.9511599511599518,-0.5262515262515263,0.0,0.0,1.34375,-2.84375,-3.2002442002442004,-1.1587301587301588,0.0,0.0,1.1875,-2.8125,-3.7142857142857135,-0.6239316239316239,-0.6703296703296703,0.0,1.15625,-2.6875,-4.608058608058609,0.0,0.0,0.0,1.3125,-2.375,-3.9987789987789983,0.8156288156288156,-1.122100122100122,0.71875,1.3125,-1.96875,-3.6996336996337003,0.0,-1.4212454212454213,0.5625,1.125,-1.9375,-4.582417582417582,0.5641025641025641,-0.8901098901098901,0.0,1.0625,-1.84375,-5.00976800976801,1.827838827838828,0.0,0.0,1.03125,-1.5625,-4.113553113553113,1.984126984126984,-0.9645909645909646,0.0,0.875,-1.1875,-3.908424908424908,1.8253968253968251,-1.724053724053724,0.0,0.65625,-0.9375,-3.5885225885225887,1.2173382173382172,-2.0073260073260077,0.0,0.59375,-0.78125,-3.3504273504273505,2.147741147741148,-1.1123321123321124,0.0,0.0,-0.625,-3.6495726495726495,2.399267399267399,0.0,0.0,0.0,0.0,-3.4456654456654463,2.1355311355311355,0.0,0.0,0.0,0.0,-2.5873015873015874,1.3455433455433456,0.0,0.0,0.0,0.0,-1.3467643467643469,0.0,-0.8131868131868132,0.0,0.0,0.0,-0.9682539682539684,0.0,-0.7936507936507936,-0.71875,0.0,0.0,,,,,,,,,,,,,wp_nextR
accX,5.05128205128205,-2.299145299145299,-1.8937728937728937,0.71875,0.0,0.0,5.339438339438339,-3.0744810744810747,-2.8058608058608057,0.0,0.0,-0.84375,6.1660561660561655,-3.221001221001221,-2.6971916971916974,0.0,0.0,-1.5,6.339438339438338,-2.9975579975579976,-2.1721611721611715,-0.5625,0.0,-2.0625,5.291819291819292,-3.6141636141636138,-2.0525030525030523,-0.6875,0.0,-2.59375,4.166056166056166,-3.543345543345543,-2.0903540903540905,-0.65625,0.0,-2.90625,3.2515262515262515,-4.076923076923077,-1.9047619047619049,-0.75,0.0,-3.09375,2.6361416361416357,-4.6984126984126995,-2.227106227106227,-0.9375,0.71875,-3.3125,2.268620268620269,-4.752136752136752,-1.95970695970696,-1.125,0.78125,-3.625,1.413919413919414,-4.962148962148962,-1.2246642246642248,-1.28125,0.6875,-3.84375,0.0,-5.195360195360196,0.0,-1.375,0.75,-4.0,-0.5921855921855922,-4.941391941391942,0.0,-1.34375,0.96875,-4.0625,-1.0268620268620268,-4.8901098901098905,0.6019536019536019,-1.1875,1.15625,-4.09375,-1.7387057387057387,-5.224664224664225,0.8327228327228328,-0.90625,1.375,-4.03125,-1.6813186813186811,-4.976800976800976,0.5213675213675214,-0.75,1.375,-4.03125,-2.584859584859585,-5.057387057387056,0.0,-0.71875,1.28125,-3.9375,-2.652014652014652,-4.203907203907204,0.8131868131868132,-0.625,1.5,-3.96875,-2.3785103785103785,-4.2735042735042725,0.6947496947496947,0.0,1.65625,-3.90625,-2.7020757020757022,-4.764346764346763,0.0,0.0,1.53125,-3.75,-3.4444444444444446,-3.978021978021978,0.0,0.0,1.46875,-3.65625,-3.615384615384616,-3.4273504273504267,0.0,0.0,1.625,-3.5625,-3.3626373626373627,-2.9206349206349205,0.0,0.0,1.59375,-3.53125,-4.31990231990232,-2.958485958485958,0.0,0.0,1.46875,-3.40625,-5.032967032967034,-2.413919413919414,0.0,0.0,1.5,-3.125,-4.637362637362638,-1.3076923076923077,0.0,0.65625,1.78125,-2.65625,-4.384615384615385,-1.2698412698412698,-0.5323565323565324,0.8125,1.71875,-2.5,-3.9816849816849818,-0.9474969474969476,-1.358974358974359,0.78125,1.4375,-2.375,-4.965811965811966,0.0,-1.8315018315018317,0.625,1.34375,-2.15625,-5.195360195360196,1.0036630036630036,-1.9133089133089132,0.71875,1.40625,-1.78125,-5.857142857142858,1.7973137973137974,-1.9474969474969477,0.78125,1.625,-1.34375,-5.800976800976801,1.5824175824175823,-2.092796092796093,0.71875,1.625,-0.9375,-4.962148962148962,1.6923076923076923,-2.0854700854700856,0.0,1.3125,-0.75,-4.495726495726496,1.5836385836385836,-2.271062271062271,0.0,0.9375,-0.625,-4.785103785103785,1.8424908424908424,-1.9194139194139197,0.0,0.75,0.0,-4.903540903540903,2.37973137973138,-1.0231990231990231,0.0,0.75,0.0,-3.956043956043956,2.481074481074481,0.0,0.0,0.71875,0.0,-2.771672771672772,1.78021978021978,0.0,0.0,0.53125,0.0,-0.7387057387057387,0.6129426129426129,0.0,0.0,0.0,0.0,0.0,0.8644688644688645,0.0,0.0,0.0,0.0,-0.5555555555555556,0.6251526251526252,0.7496947496947497,0.0,0.0,0.0,-1.266178266178266,0.9816849816849816,0.6703296703296703,0.0,0.0,0.0,-2.1257631257631258,0.978021978021978,0.0,0.0,0.0,0.0,-2.347985347985348,1.1111111111111112,0.0,0.0,0.0,0.5625,,,,,,,,,,,,,,,,,,,,,,,,,wp_nextR
accX,3.4029304029304033,-1.0586080586080586,-1.824175824175824,0.0,0.0,-0.6875,3.578754578754579,0.0,-1.1074481074481075,0.0,0.0,-1.0,3.6166056166056166,-0.6361416361416361,-1.0122100122100122,0.0,0.0,-1.1875,3.4444444444444446,-1.123321123321123,-1.5787545787545787,0.0,0.0,-1.3125,3.391941391941392,-1.8253968253968251,-2.352869352869353,0.0,0.0,-1.53125,3.189255189255189,-2.8693528693528694,-2.653235653235653,0.0,0.5625,-1.84375,2.771672771672772,-2.7802197802197797,-2.087912087912088,-0.65625,0.84375,-2.1875,2.15018315018315,-2.5079365079365084,-1.3345543345543345,-0.84375,0.90625,-2.46875,1.6214896214896215,-2.9230769230769234,-0.9255189255189256,-0.875,0.84375,-2.625,1.5518925518925517,-3.4383394383394386,-0.5384615384615384,-1.03125,0.84375,-3.03125,1.15995115995116,-3.5702075702075704,0.0,-1.03125,0.75,-3.25,0.0,-4.084249084249084,0.0,-1.0625,0.84375,-3.40625,0.0,-4.473748473748474,0.0,-1.03125,1.0,-3.59375,0.0,-4.741147741147741,0.0,-0.875,1.125,-3.71875,-0.811965811965812,-4.833943833943834,0.0,-0.71875,1.125,-3.78125,-1.612942612942613,-4.979242979242978,0.0,-0.71875,1.25,-3.875,-1.804639804639805,-4.547008547008547,0.8498168498168498,-0.625,1.3125,-3.8125,-1.8547008547008548,-4.211233211233211,0.5054945054945055,0.0,1.34375,-3.8125,-2.2600732600732596,-4.407814407814408,0.0,0.0,1.21875,-3.8125,-3.3382173382173383,-4.09035409035409,0.0,0.0,1.3125,-3.71875,-4.37973137973138,-3.0048840048840044,0.5238095238095238,0.0,1.65625,-3.40625,-4.128205128205129,-2.862026862026862,0.0,0.0,1.84375,-3.0625,-4.094017094017094,-3.175824175824176,0.0,0.0,1.78125,-2.96875,-3.826617826617827,-2.7106227106227108,0.5323565323565324,0.0,1.78125,-2.90625,-4.151404151404152,-2.358974358974359,0.0,0.0,1.46875,-2.84375,-4.671550671550672,-2.039072039072039,0.0,0.5625,1.25,-2.78125,-4.638583638583639,-1.7472527472527473,-0.5152625152625152,0.5625,1.21875,-2.65625,-4.2002442002442,-1.0903540903540905,-0.518925518925519,0.625,1.375,-2.5,-3.4004884004884004,-0.9072039072039072,-0.8302808302808303,0.75,1.3125,-2.28125,-3.5409035409035408,0.0,-1.115995115995116,0.875,1.0625,-2.1875,-3.5457875457875456,0.5726495726495726,-1.297924297924298,0.875,1.03125,-2.0625,-4.483516483516484,0.7106227106227107,-1.8608058608058609,0.90625,0.90625,-1.78125,-5.170940170940171,0.7851037851037851,-2.083028083028083,0.5625,0.96875,-1.5,-4.84004884004884,2.034188034188034,-1.3247863247863247,0.0,1.0,-1.21875,-5.141636141636141,2.312576312576313,-1.2124542124542124,0.53125,1.0,-0.90625,-4.91941391941392,1.9426129426129424,-1.1111111111111112,0.0,0.90625,-0.625,-3.888888888888889,1.7533577533577531,-1.3504273504273503,0.0,0.75,0.0,-3.2539682539682535,1.3699633699633702,-1.42002442002442,0.0,0.59375,0.0,-2.667887667887668,1.5457875457875458,-1.0293040293040292,0.0,0.0,0.0,-2.9438339438339436,1.1306471306471306,-0.6752136752136753,0.0,0.0,0.0,-3.6996336996337003,0.8766788766788767,-0.5457875457875457,0.0,0.0,0.0,-4.792429792429792,1.144078144078144,0.0,0.0,0.0,0.0,,,,,,,,,,,,,,,,,,,,,,,,,,,,,,,wp_nextR
accX,4.627594627594628,-1.3235653235653235,-1.531135531135531,0.0,0.0,-1.03125,3.503052503052503,-1.8412698412698407,-2.133089133089133,0.0,0.0,-1.46875,3.5189255189255184,-2.2295482295482296,-2.133089133089133,-0.59375,0.0,-1.8125,3.0048840048840044,-1.4322344322344325,-1.7032967032967032,-0.65625,0.0,-2.125,1.8119658119658117,-0.8339438339438342,-1.2234432234432235,0.0,0.625,-2.09375,1.9426129426129424,-2.3675213675213675,-0.8327228327228328,0.0,0.96875,-1.9375,2.5396825396825395,-3.1257631257631258,-0.9987789987789988,-0.6875,1.09375,-2.1875,2.15995115995116,-2.9609279609279615,-0.7777777777777778,-0.96875,0.96875,-2.59375,1.0329670329670328,-2.934065934065934,0.0,-1.0625,0.65625,-2.9375,0.0,-2.8705738705738706,0.0,-1.0625,0.53125,-3.15625,-1.0964590964590966,-2.7924297924297923,0.6495726495726496,-1.0,0.71875,-3.1875,-1.4676434676434675,-2.555555555555556,0.0,-0.875,1.03125,-3.0625,-1.166056166056166,-2.5177045177045176,0.6434676434676435,-0.6875,1.21875,-2.96875,-0.8962148962148963,-2.7557997557997562,0.9328449328449328,-0.53125,1.21875,-2.9375,-0.6764346764346765,-3.11965811965812,1.1257631257631258,0.0,1.125,-3.0625,-0.94993894993895,-3.2759462759462763,0.5702075702075702,0.0,1.0,-3.1875,-1.6312576312576312,-3.642246642246642,0.0,0.0,1.0625,-3.3125,-1.7313797313797314,-3.1086691086691087,0.0,0.0,1.21875,-3.25,-1.7496947496947497,-2.978021978021978,0.7655677655677655,0.0,1.28125,-3.21875,-1.7838827838827842,-2.7973137973137967,0.0,0.0,1.21875,-3.21875,-2.477411477411477,-3.1050061050061046,0.0,0.0,1.3125,-3.21875,-2.7460317460317465,-3.0586080586080584,0.0,0.0,1.46875,-3.15625,-3.115995115995116,-2.9865689865689866,0.0,0.0,1.65625,-3.03125,-2.68986568986569,-2.6617826617826617,0.0,0.0,1.59375,-2.9375,-2.9438339438339436,-2.5067155067155067,0.0,0.0,1.625,-3.0,-3.0024420024420024,-2.0659340659340657,0.0,0.0,1.53125,-2.96875,-3.678876678876679,-2.305250305250305,-0.5592185592185592,0.0,1.53125,-2.96875,-3.586080586080586,-1.3565323565323566,-0.57997557997558,0.0,1.21875,-2.96875,-5.343101343101343,0.0,-0.7948717948717948,0.0,0.9375,-2.875,-5.656898656898657,1.177045177045177,-1.4004884004884004,0.0,0.6875,-2.5625,-6.545787545787546,1.7997557997557998,-1.804639804639805,0.0,0.65625,-2.15625,-6.717948717948718,2.102564102564102,-1.568986568986569,0.0,0.875,-1.65625,-5.0695970695970685,2.183150183150183,-1.3052503052503053,0.0,1.09375,-1.15625,-3.9645909645909647,1.4713064713064714,-1.0195360195360197,0.0,0.96875,-0.90625,-3.927960927960928,0.9462759462759462,-0.536019536019536,0.0,0.75,-0.8125,-4.280830280830282,1.3492063492063493,0.0,0.0,0.6875,-0.625,-4.111111111111111,1.1892551892551892,0.0,0.0,0.875,0.0,-3.231990231990232,1.006105006105006,0.0,0.0,0.90625,0.0,-2.4017094017094016,0.6764346764346765,0.7008547008547008,0.0,0.71875,0.0,-2.241758241758242,0.0,0.9426129426129426,0.0,0.0,0.0,-2.9743589743589745,0.5372405372405372,0.9731379731379732,0.0,0.0,0.0,-4.065934065934067,1.031746031746032,0.7741147741147741,0.0,0.0,0.0,-5.05006105006105,0.9426129426129426,0.0,0.0,0.0,0.0,,,,,,,,,,,,,,,,,,,,,,,,,wp_nextR
accX,4.363858363858364,-0.8742368742368742,-1.4175824175824177,0.0,0.0,0.0,4.373626373626373,-1.0036630036630036,-1.6446886446886446,0.0,0.0,-1.03125,4.577533577533577,-1.4407814407814408,-2.0744810744810747,0.0,0.0,-1.3125,4.0427350427350435,-1.5323565323565325,-1.982905982905983,0.0,0.625,-1.5625,3.7142857142857135,-2.05982905982906,-1.6214896214896215,0.0,0.84375,-1.75,3.6495726495726495,-2.58974358974359,-1.0256410256410255,0.0,0.9375,-1.96875,3.2661782661782666,-3.061050061050061,-0.9389499389499391,-0.53125,0.96875,-2.25,2.7326007326007327,-3.7753357753357752,-0.5714285714285714,-0.6875,1.0,-2.5625,2.527472527472528,-3.6581196581196584,0.0,-0.75,0.9375,-2.9375,2.1147741147741153,-3.687423687423687,0.0,-0.8125,0.71875,-3.3125,0.6971916971916972,-3.7374847374847375,-0.7667887667887668,-0.875,0.5625,-3.59375,-1.175824175824176,-3.407814407814408,0.0,-0.84375,0.90625,-3.53125,-1.7130647130647132,-3.1562881562881566,0.0,-0.5625,1.375,-3.34375,-0.7301587301587301,-3.772893772893773,0.0,0.0,1.625,-3.34375,-1.2954822954822955,-4.38949938949939,0.0,0.0,1.21875,-3.53125,-2.58974358974359,-3.527472527472528,0.0,0.0,1.15625,-3.65625,-2.915750915750916,-3.0146520146520146,0.6605616605616605,0.0,1.46875,-3.5625,-2.844932844932845,-3.382173382173382,0.0,0.0,1.8125,-3.40625,-1.943833943833944,-3.505494505494505,0.0,0.0,2.0625,-3.46875,-2.1721611721611715,-4.645909645909647,0.0,0.0,1.6875,-3.34375,-2.954822954822955,-3.0781440781440783,0.0,0.0,1.53125,-3.34375,-2.8583638583638584,-2.6105006105006106,0.0,0.59375,1.65625,-3.34375,-3.031746031746032,-3.3528693528693534,-0.9157509157509156,0.875,1.5625,-3.25,-2.6764346764346763,-3.3626373626373627,-1.5702075702075702,0.875,1.59375,-3.3125,-2.357753357753358,-3.235653235653236,-1.4822954822954824,0.59375,1.28125,-3.34375,-3.655677655677656,-1.6166056166056166,-1.363858363858364,0.75,1.21875,-3.40625,-4.653235653235653,-0.503052503052503,-1.6691086691086692,0.84375,1.25,-3.09375,-5.504273504273504,-0.5616605616605617,-2.087912087912088,0.6875,1.25,-2.78125,-5.8217338217338215,0.0,-2.145299145299145,0.53125,1.15625,-2.46875,-6.366300366300366,1.3052503052503053,-1.871794871794872,0.0,1.09375,-2.125,-7.212454212454213,1.8827838827838828,-1.4004884004884004,0.0,1.15625,-1.65625,-7.085470085470085,2.1587301587301586,-1.031746031746032,0.0,1.15625,-1.21875,-6.442002442002442,2.6129426129426134,-0.6239316239316239,0.0,0.90625,-0.90625,-6.627594627594628,2.7326007326007327,-0.7924297924297924,0.0,0.6875,-0.625,-5.487179487179486,2.137973137973138,-1.2161172161172158,0.0,0.0,0.0,-4.550671550671551,2.083028083028083,-1.31013431013431,0.0,0.0,0.0,-4.628815628815629,2.2857142857142856,-1.2087912087912087,0.0,0.0,0.0,-5.197802197802199,1.9706959706959708,-1.2783882783882785,0.0,0.0,0.0,,,,,,,,,,,,,,,,,,,,,,,,,,,,,,,,,,,,,,,,,,,,,,,,,,,,,,,wp_nextR
accX,3.68009768009768,-0.5115995115995116,-0.5763125763125763,0.625,0.0,0.0,4.7252747252747245,-1.4151404151404152,-0.7374847374847375,0.0,0.0,0.0,5.275946275946276,-1.8852258852258847,-1.4713064713064714,0.0,0.0,-0.71875,5.445665445665447,-1.4932844932844933,-1.647130647130647,0.0,0.0,-1.15625,4.641025641025641,-0.9853479853479854,-1.4884004884004884,0.0,0.0,-1.53125,4.12942612942613,-2.5677655677655684,-1.3479853479853479,0.0,0.59375,-1.8125,3.632478632478633,-3.1514041514041518,-0.9926739926739928,0.0,0.65625,-2.125,3.3455433455433456,-2.9645909645909647,-0.8168498168498168,-0.65625,0.65625,-2.53125,2.6910866910866917,-3.0463980463980462,-0.5567765567765568,-0.8125,0.65625,-2.84375,1.8363858363858363,-3.3772893772893773,-0.5567765567765568,-0.9375,0.65625,-3.0625,1.3333333333333333,-3.609279609279609,0.0,-0.90625,0.6875,-3.34375,0.5347985347985348,-3.694749694749695,0.0,-0.875,0.78125,-3.5,0.0,-4.065934065934067,0.0,-0.84375,1.09375,-3.5625,0.0,-3.6507936507936503,0.0,-0.8125,1.40625,-3.6875,0.0,-3.940170940170941,0.0,-0.6875,1.28125,-3.84375,-0.9133089133089132,-3.655677655677656,0.0,-0.6875,1.09375,-3.96875,-2.5103785103785103,-2.9255189255189253,0.0,0.0,1.375,-3.75,-2.9829059829059825,-2.6263736263736264,0.0,0.0,1.90625,-3.5,-2.586080586080586,-2.7545787545787546,0.0,0.0,2.0,-3.34375,-2.5970695970695967,-2.800976800976801,0.0,0.0,2.0,-3.375,-2.305250305250305,-2.7496947496947497,0.0,0.0,1.6875,-3.375,-3.2771672771672766,-3.062271062271062,0.0,0.0,1.46875,-3.46875,-3.940170940170941,-2.6056166056166057,0.0,0.0,1.40625,-3.5,-4.964590964590965,-1.691086691086691,0.5372405372405372,0.0,1.53125,-3.3125,-5.252747252747253,-1.5848595848595848,0.6910866910866911,0.53125,1.71875,-3.0625,-4.575091575091576,-1.3675213675213675,0.0,0.71875,1.65625,-2.84375,-4.3821733821733835,-1.4700854700854702,0.0,0.65625,1.5,-2.75,-3.8571428571428568,-1.3907203907203909,-0.6361416361416361,0.625,1.28125,-2.71875,-4.716727716727717,-0.6007326007326007,-0.9438339438339438,0.71875,1.1875,-2.6875,-4.411477411477412,0.5665445665445665,-1.8510378510378511,0.6875,0.90625,-2.4375,-5.787545787545787,0.0,-2.935286935286935,0.0,0.6875,-2.1875,-6.604395604395603,1.5042735042735045,-2.4065934065934065,0.0,0.84375,-1.8125,-7.192918192918192,2.647130647130647,-1.3479853479853479,0.0,1.125,-1.28125,-7.199023199023199,2.855921855921856,0.0,0.0,1.28125,-0.65625,-5.800976800976801,2.7191697191697197,0.0,0.0,1.25,0.0,-3.5067155067155067,1.5189255189255189,0.0,0.0,0.9375,0.0,-2.8913308913308917,0.7716727716727717,0.0,0.0,0.0,0.0,-3.0781440781440783,1.2515262515262515,0.6092796092796092,0.0,0.0,0.0,-3.8376068376068377,1.8180708180708183,0.9304029304029304,0.0,0.0,0.0,,,,,,,,,,,,,,,,,,,,,,,,,,,,,,,,,,,,,,,,,,,,,,,,,wp_nextR
accX,5.261294261294262,-1.0476190476190477,-0.9755799755799756,0.53125,0.0,0.0,5.048840048840049,-1.3003663003663004,-1.5445665445665446,0.0,0.0,0.0,5.560439560439559,-1.4102564102564104,-1.6654456654456655,0.0,0.0,-0.78125,5.536019536019536,-1.7912087912087913,-1.647130647130647,0.0,0.0,-1.03125,5.637362637362638,-2.6263736263736264,-1.5384615384615383,0.0,0.71875,-1.4375,5.0024420024420015,-2.8705738705738706,-1.5030525030525033,0.0,0.84375,-1.9375,4.00976800976801,-3.556776556776557,-1.4102564102564104,0.0,0.90625,-2.46875,2.877899877899878,-3.6825396825396814,-1.0097680097680095,0.0,1.125,-2.75,2.380952380952381,-3.435897435897436,0.0,0.0,1.15625,-2.9375,2.0769230769230766,-3.208791208791209,0.0,0.0,1.03125,-3.125,1.9853479853479852,-3.131868131868132,0.0,-0.53125,0.78125,-3.375,0.7655677655677655,-3.638583638583639,0.0,-0.71875,0.75,-3.5625,0.0,-3.245421245421245,-0.6471306471306472,-0.6875,0.96875,-3.5625,-1.0903540903540905,-3.3150183150183152,0.0,0.0,1.40625,-3.53125,-0.6849816849816851,-3.36996336996337,0.0,0.0,1.6875,-3.625,0.0,-4.277167277167277,0.0,0.0,1.5,-3.65625,-0.514041514041514,-4.611721611721611,0.0,0.0,1.34375,-3.9375,-1.2454212454212454,-3.940170940170941,-0.5775335775335775,0.0,1.21875,-4.03125,-3.2844932844932844,-2.877899877899878,0.0,0.0,1.71875,-3.9375,-2.8217338217338215,-3.52014652014652,0.0,0.0,1.84375,-3.78125,-3.2796092796092795,-3.415140415140415,-0.8266178266178266,0.0,1.75,-3.6875,-4.156288156288157,-3.161172161172161,-1.2722832722832722,0.0,1.875,-3.59375,-4.3528693528693525,-2.4383394383394386,-1.3076923076923077,0.0,2.09375,-3.53125,-4.881562881562882,-2.335775335775336,-1.1965811965811963,0.53125,2.03125,-3.5,-4.57997557997558,-1.8547008547008548,-1.3028083028083028,0.53125,1.75,-3.4375,-6.196581196581197,-1.3137973137973138,-1.4163614163614164,0.0,1.5625,-3.3125,-7.5726495726495715,-0.5946275946275946,-1.6837606837606838,0.0,1.53125,-3.09375,-8.72039072039072,0.7741147741147741,-0.8998778998778999,0.0,1.84375,-2.625,-8.582417582417582,1.5286935286935286,0.0,0.625,2.09375,-1.9375,-7.431013431013431,1.2551892551892552,0.7167277167277167,0.90625,1.9375,-1.1875,-6.224664224664225,0.9145299145299144,0.0,0.9375,1.5625,-0.90625,-5.413919413919414,0.6642246642246642,0.0,0.875,1.25,-0.78125,-5.450549450549451,0.9047619047619048,-1.362637362637363,0.6875,0.96875,-0.53125,-8.824175824175825,2.9511599511599518,-2.311355311355311,0.0,0.0,0.0,-10.0989010989011,4.380952380952381,-2.677655677655677,0.0,0.6875,0.0,-6.247863247863247,2.829059829059829,-2.6849816849816848,0.0,0.0,0.6875,-4.05006105006105,1.7228327228327232,-1.948717948717949,-0.71875,0.0,0.71875,,,,,,,,,,,,,,,,,,,,,,,,,,,,,,,,,,,,,,,,,,,,,,,,,,,,,,,,,,,,,wp_nextR
accX,4.811965811965811,-1.7313797313797314,-2.195360195360196,0.0,0.0,-0.90625,4.31013431013431,-2.383394383394384,-2.1770451770451764,0.0,0.59375,-1.46875,4.553113553113553,-2.5579975579975582,-1.8107448107448108,0.0,0.71875,-1.8125,4.197802197802199,-2.571428571428572,-1.321123321123321,0.0,0.65625,-2.1875,3.5836385836385842,-3.1794871794871797,-1.3015873015873016,0.0,0.0,-2.4375,2.6312576312576312,-2.9206349206349205,-1.195360195360195,-0.71875,0.0,-2.8125,1.0818070818070815,-3.68986568986569,-0.9304029304029304,-0.75,0.90625,-2.9375,1.0525030525030523,-4.024420024420024,-0.5714285714285714,-0.75,1.21875,-3.15625,0.8339438339438342,-4.65934065934066,0.0,-0.71875,1.15625,-3.46875,0.0,-4.766788766788767,0.8351648351648352,-0.75,1.03125,-3.75,-0.5384615384615384,-4.483516483516484,0.7851037851037851,-0.59375,0.875,-3.875,-1.4407814407814408,-4.424908424908424,0.706959706959707,0.0,1.0,-3.9375,-1.4945054945054943,-4.054945054945056,0.7655677655677655,0.0,1.1875,-3.875,-1.1892551892551892,-3.3418803418803416,0.956043956043956,0.0,1.3125,-3.84375,-1.2857142857142858,-3.192918192918193,0.8095238095238095,0.0,1.09375,-3.9375,-2.231990231990232,-3.2600732600732596,0.0,0.0,0.96875,-4.0,-3.1465201465201464,-3.0573870573870563,0.0,0.0,1.125,-3.90625,-3.3540903540903533,-2.791208791208791,0.0,0.0,1.5625,-3.625,-3.637362637362637,-2.333333333333333,0.0,0.625,1.65625,-3.40625,-3.763125763125763,-2.4224664224664223,0.0,0.71875,1.625,-3.34375,-4.12087912087912,-2.1611721611721606,-0.5177045177045178,0.6875,1.5,-3.28125,-4.666666666666667,-2.2210012210012207,-0.5042735042735043,0.6875,1.5625,-3.15625,-4.726495726495727,-1.4542124542124542,0.0,0.84375,1.6875,-2.875,-4.617826617826617,-0.8840048840048841,-0.894993894993895,1.0,1.6875,-2.65625,-4.506715506715507,-0.7228327228327228,-1.5909645909645909,0.9375,1.5,-2.53125,-5.567765567765568,0.0,-1.9853479853479852,0.78125,1.4375,-2.375,-6.343101343101343,0.8376068376068376,-1.6043956043956045,0.6875,1.53125,-2.03125,-6.433455433455434,1.4468864468864469,-0.9768009768009768,0.71875,1.5,-1.65625,-5.594627594627593,1.485958485958486,-1.0952380952380951,0.5625,1.25,-1.375,-4.757020757020757,1.5152625152625152,-2.41025641025641,0.0,0.6875,-1.34375,-5.606837606837607,2.1245421245421245,-2.166056166056166,0.0,0.875,-1.09375,-5.1892551892551895,2.3956043956043955,-1.575091575091575,0.0,1.21875,-0.625,-5.1330891330891335,2.6092796092796093,-1.0476190476190477,0.0,1.1875,0.0,-4.3418803418803416,2.7228327228327234,-1.1428571428571428,0.0,1.1875,0.0,-3.2063492063492065,1.8070818070818069,-1.6678876678876684,0.0,1.0625,0.625,-2.115995115995116,1.249084249084249,-1.757020757020757,0.0,0.5625,0.53125,,,,,,,,,,,,,,,,,,,,,,,,,,,,,,,,,,,,,,,,,,,,,,,,,,,,,,,,,,,,,,,,,,,wp_nextR
accX,4.35042735042735,-1.5079365079365081,-2.413919413919414,0.0,0.0,-1.125,3.7606837606837606,-1.1404151404151404,-1.7484737484737485,0.0,0.0,-1.5,3.1233211233211238,-1.7680097680097682,-1.0390720390720392,0.0,0.0,-1.8125,2.737484737484737,-2.6727716727716726,-0.6544566544566545,0.0,0.53125,-2.0625,2.68009768009768,-3.1245421245421245,0.0,0.0,0.625,-2.3125,2.393162393162393,-3.4725274725274726,0.0,-0.78125,0.53125,-2.625,1.4297924297924298,-3.8998778998779,0.0,-1.0625,0.0,-2.9375,0.5067155067155067,-4.113553113553113,0.0,-1.21875,0.0,-3.4375,0.0,-4.206349206349207,0.894993894993895,-1.09375,0.75,-3.59375,0.0,-4.252747252747253,1.2466422466422469,-1.03125,0.59375,-3.625,0.0,-4.278388278388278,1.2295482295482296,-1.0,0.0,-3.8125,-0.7960927960927959,-4.301587301587301,1.2625152625152625,-1.0,0.0,-3.96875,-1.6654456654456655,-3.655677655677656,1.4542124542124542,-0.75,0.6875,-3.9375,-2.105006105006105,-3.1636141636141635,1.2368742368742371,0.0,1.03125,-3.65625,-2.173382173382173,-3.542124542124542,0.0,0.0,1.28125,-3.5,-2.175824175824176,-3.676434676434676,0.557997557997558,0.0,1.375,-3.5,-1.9242979242979243,-3.268620268620269,0.9865689865689866,0.0,1.3125,-3.5625,-1.85958485958486,-3.1562881562881566,0.5860805860805861,0.0,1.03125,-3.75,-2.783882783882784,-3.615384615384616,0.0,0.0,0.75,-3.71875,-4.451770451770452,-2.8424908424908426,0.0,0.0,1.1875,-3.53125,-3.8034188034188032,-1.5164835164835164,0.9743589743589745,0.0,1.375,-3.28125,-3.9609279609279615,-2.1184371184371185,0.0,0.0,1.25,-3.15625,-4.380952380952381,-1.724053724053724,-0.5152625152625152,0.0,1.15625,-2.96875,-4.7203907203907205,-1.092796092796093,-0.6263736263736264,0.0,1.4375,-2.6875,-4.024420024420024,-0.8327228327228328,-0.5775335775335775,0.65625,1.71875,-2.5,-4.073260073260073,-0.7374847374847375,-1.1367521367521367,0.71875,1.59375,-2.375,-4.598290598290598,0.0,-1.3443223443223444,0.625,1.3125,-2.3125,-5.398046398046398,0.0,-1.2735042735042734,0.5625,1.125,-2.15625,-6.216117216117216,0.5506715506715507,-1.1978021978021978,0.0,1.1875,-1.875,-6.446886446886448,1.1575091575091576,-0.8095238095238095,0.0,1.3125,-1.5,-6.294261294261293,1.6459096459096458,-0.6129426129426129,0.0,1.3125,-1.09375,-5.7594627594627585,1.6715506715506716,-0.7326007326007326,0.0,0.84375,-0.75,-5.202686202686203,1.565323565323565,-1.275946275946276,0.0,0.0,-0.65625,-4.915750915750916,1.3076923076923077,-1.5836385836385836,0.0,0.0,-0.625,-4.802197802197801,1.7973137973137974,-1.1855921855921856,0.0,0.0,0.0,-4.842490842490842,1.94993894993895,-0.7191697191697192,0.0,0.0,0.0,-4.825396825396825,1.6043956043956045,-0.7374847374847375,0.0,0.0,0.0,,,,,,,,,,,,,,,,,,,,,,,,,,,,,,,,,,,,,,,,,,,,,,,,,,,,,,,,,,,,,wp_nextR
accX,5.095238095238095,-1.2820512820512822,0.0,0.78125,0.0,0.0,5.3821733821733835,-1.0879120879120878,-0.503052503052503,0.5625,0.0,0.0,5.581196581196581,-1.1916971916971917,-0.6874236874236874,0.0,0.0,-1.125,4.17948717948718,-1.6288156288156288,-1.3235653235653235,0.0,0.0,-1.53125,3.217338217338217,-1.387057387057387,-1.7496947496947497,0.0,0.0,-1.75,3.2002442002442004,-1.1636141636141637,-1.6105006105006106,0.0,0.0,-1.875,3.0573870573870563,-1.735042735042735,-1.6825396825396826,0.0,0.0,-2.125,2.627594627594628,-2.47008547008547,-1.4065934065934067,-0.71875,0.0,-2.34375,2.324786324786325,-2.43956043956044,-0.9084249084249084,-0.84375,0.53125,-2.625,1.7032967032967032,-2.8131868131868134,0.0,-0.90625,0.0,-2.96875,1.2686202686202686,-2.8583638583638584,0.0,-0.9375,0.0,-3.21875,0.0,-3.389499389499389,0.5018315018315018,-1.0,0.0,-3.40625,0.0,-3.225885225885226,0.5848595848595849,-0.90625,0.0,-3.53125,-0.8241758241758241,-3.6581196581196584,0.0,-0.875,0.0,-3.59375,-1.4957264957264955,-3.68009768009768,1.083028083028083,-0.71875,0.84375,-3.71875,-1.123321123321123,-3.8412698412698414,1.2026862026862026,0.0,0.875,-3.6875,-1.5091575091575091,-4.56043956043956,0.6544566544566545,0.0,0.78125,-3.78125,-2.1123321123321124,-4.383394383394384,0.0,0.0,0.8125,-3.90625,-2.6605616605616604,-3.8937728937728937,0.7777777777777778,0.0,1.0625,-3.90625,-2.1416361416361416,-4.026862026862027,1.10989010989011,0.0,1.4375,-3.875,-2.126984126984127,-3.75946275946276,0.9706959706959708,0.0,1.375,-3.65625,-2.1575091575091574,-4.087912087912088,0.0,0.0,1.34375,-3.78125,-3.0573870573870563,-4.26984126984127,0.0,0.0,1.1875,-3.84375,-3.683760683760684,-3.851037851037851,0.0,0.0,1.34375,-3.84375,-3.716727716727717,-3.468864468864469,0.0,0.0,1.625,-3.8125,-3.8412698412698414,-3.0976800976800978,-0.6361416361416361,0.0,1.3125,-3.71875,-5.361416361416361,-2.7606837606837606,-0.9291819291819292,0.0,1.0625,-3.65625,-5.727716727716727,-2.120879120879121,-1.1562881562881564,0.0,1.21875,-3.375,-5.897435897435898,-0.9597069597069596,-1.4517704517704515,0.0,1.5625,-3.09375,-6.401709401709403,-0.9511599511599512,-1.8217338217338217,0.0,1.9375,-2.71875,-6.621489621489621,0.0,-1.474969474969475,0.0,1.9375,-2.125,-6.435897435897436,0.7484737484737485,-1.380952380952381,0.0,1.9375,-1.6875,-6.0818070818070815,0.0,-1.6996336996336996,0.0,1.90625,-1.4375,-6.035409035409035,0.7008547008547008,-1.3479853479853479,0.0,1.8125,-1.3125,-6.0757020757020745,0.6556776556776557,-0.7606837606837606,0.0,1.34375,-1.09375,-7.1098901098901095,1.0622710622710625,0.0,0.0,0.96875,-0.75,-7.498168498168497,1.6874236874236874,0.0,0.0,0.75,0.0,-7.384615384615384,1.8693528693528692,0.0,0.0,0.0,0.0,-6.162393162393162,1.6874236874236874,-0.6373626373626373,0.0,0.0,0.0,-5.5738705738705745,1.531135531135531,-0.8156288156288156,0.0,0.0,0.0,-5.934065934065933,1.297924297924298,-1.3345543345543345,0.0,0.0,0.8125,-5.7203907203907205,1.0683760683760684,-1.568986568986569,0.0,-0.5625,1.1875,,,,,,,,,,,,,,,,,,,,,,,,,,,,,,,wp_nextR
accX,4.3125763125763115,-1.065934065934066,-1.1807081807081807,0.71875,0.0,-0.75,4.704517704517705,-2.3369963369963367,-1.6874236874236874,0.0,0.0,-1.15625,4.413919413919414,-2.175824175824176,-1.68986568986569,0.0,0.0,-1.6875,4.09035409035409,-1.7887667887667889,-1.5958485958485962,0.0,0.0,-2.09375,2.4310134310134313,-0.7301587301587301,0.0,-0.5625,0.0,-2.375,2.1123321123321124,-2.7606837606837606,-0.6031746031746031,0.0,0.75,-2.21875,3.1147741147741153,-3.829059829059829,-0.8351648351648352,0.0,1.25,-2.5,3.357753357753358,-3.8815628815628815,-0.5286935286935287,-0.78125,1.0625,-3.0,1.84004884004884,-3.6581196581196584,0.0,-1.03125,0.0,-3.5,0.0,-3.8339438339438336,0.0,-1.21875,0.0,-3.90625,-1.126984126984127,-3.3663003663003663,1.1147741147741148,-1.25,0.0,-4.0625,-1.4236874236874235,-3.3553113553113554,1.0402930402930404,-1.09375,0.6875,-4.0,-1.5738705738705738,-3.84981684981685,0.7240537240537241,-0.90625,0.75,-3.90625,-1.7130647130647132,-3.862026862026862,0.7118437118437119,-0.84375,0.8125,-3.9375,-2.268620268620269,-4.117216117216117,0.0,-0.75,0.875,-4.0625,-2.811965811965812,-3.9438339438339436,0.0,-0.71875,0.9375,-4.0625,-3.2612942612942613,-3.836385836385837,0.0,-0.65625,1.03125,-3.9375,-3.996336996336997,-3.2148962148962146,0.993894993894994,0.0,1.34375,-3.65625,-4.021978021978022,-2.879120879120879,1.1697191697191698,0.0,1.71875,-3.40625,-3.52991452991453,-3.043956043956044,0.8827838827838828,0.0,1.75,-3.3125,-3.56043956043956,-2.9938949938949935,0.7020757020757019,0.0,1.5625,-3.28125,-3.826617826617827,-2.313797313797314,1.05006105006105,0.0,1.53125,-3.15625,-4.543345543345543,-2.2527472527472527,0.8217338217338217,0.59375,1.75,-2.90625,-3.978021978021978,-1.5018315018315018,0.5091575091575091,0.90625,1.9375,-2.75,-4.272283272283272,-1.757020757020757,0.0,1.03125,1.90625,-2.46875,-4.875457875457876,-1.1245421245421243,0.0,1.0625,2.0,-2.25,-4.495726495726496,-0.971916971916972,-0.8437118437118437,1.1875,2.03125,-1.9375,-4.294261294261294,0.0,-1.9218559218559217,1.21875,1.9375,-1.78125,-4.873015873015873,0.0,-2.312576312576313,1.0625,1.65625,-1.65625,-6.063492063492062,1.05006105006105,-2.15018315018315,0.78125,1.46875,-1.46875,-6.7264957264957275,1.8144078144078144,-1.7667887667887667,0.65625,1.40625,-1.21875,-6.991452991452992,2.909645909645909,-1.5189255189255189,0.65625,1.28125,-0.875,-6.877899877899878,3.072039072039072,-1.8669108669108667,0.65625,1.09375,0.0,-6.881562881562883,2.7606837606837606,-2.4590964590964592,0.53125,0.8125,0.0,-6.8669108669108665,2.6361416361416357,-2.9145299145299144,0.0,0.53125,0.0,-6.863247863247862,3.217338217338217,-2.7106227106227108,0.0,0.0,0.0,-6.233211233211232,3.7875457875457874,-2.028083028083028,0.0,0.0,0.5625,-5.235653235653237,2.8693528693528694,-1.9047619047619049,0.0,0.0,0.84375,-5.035409035409035,1.8485958485958487,-2.3076923076923075,0.0,0.0,1.28125,-5.021978021978021,1.10989010989011,-2.3003663003662997,-0.71875,0.0,1.46875,-5.107448107448106,1.3064713064713065,-1.6813186813186811,-1.0625,0.0,1.71875,,,,,,,,,,,,,,,,,,,,,,,,,,,,,,,,,,,,,wp_nextR
accX,5.124542124542124,-0.7912087912087912,-0.5262515262515263,0.75,0.0,0.0,5.0024420024420015,-1.931623931623932,-1.5445665445665446,0.71875,0.0,-0.59375,5.474969474969474,-2.245421245421245,-1.975579975579976,0.0,0.625,-1.0625,5.545787545787546,-2.3321123321123323,-1.6703296703296704,0.0,0.75,-1.53125,5.09035409035409,-2.6056166056166057,-1.3724053724053724,0.0,0.71875,-2.03125,4.253968253968254,-3.148962148962149,-1.3968253968253967,0.0,0.5625,-2.46875,2.827838827838828,-3.9951159951159956,-1.065934065934066,0.0,0.5625,-2.8125,2.0793650793650795,-3.870573870573871,0.0,-0.71875,0.84375,-3.0,1.9938949938949944,-3.892551892551893,0.0,-0.71875,1.0,-3.28125,1.2356532356532357,-4.202686202686203,0.0,-0.71875,0.8125,-3.59375,0.0,-4.385836385836386,-0.6886446886446886,-0.9375,0.625,-4.0,-1.343101343101343,-3.95970695970696,0.0,-0.96875,0.75,-4.0625,-1.824175824175824,-3.3956043956043955,0.0,-0.75,0.96875,-4.03125,-2.358974358974359,-3.023199023199023,0.0,0.0,1.09375,-3.90625,-3.0170940170940175,-3.175824175824176,0.0,0.0,1.25,-3.78125,-3.031746031746032,-3.0989010989010985,0.0,0.0,1.3125,-3.65625,-3.1257631257631258,-3.1428571428571432,0.6227106227106227,0.0,1.40625,-3.59375,-2.9365079365079363,-2.9181929181929176,0.9792429792429792,0.0,1.40625,-3.59375,-3.126984126984127,-3.147741147741148,0.7460317460317459,0.0,1.28125,-3.53125,-3.915750915750916,-2.411477411477412,0.978021978021978,0.0,1.28125,-3.4375,-4.0427350427350435,-2.3321123321123323,0.9951159951159952,0.0,1.375,-3.28125,-3.7216117216117217,-1.9010989010989008,0.8717948717948718,0.5625,1.3125,-3.1875,-4.135531135531137,-2.4346764346764345,0.0,0.625,1.4375,-2.9375,-3.507936507936508,-1.5335775335775337,0.0,0.71875,1.5,-2.6875,-3.102564102564102,-1.6336996336996337,-0.6605616605616605,0.875,1.46875,-2.59375,-2.477411477411477,-1.1868131868131868,-1.2136752136752136,0.9375,1.375,-2.5625,-3.1282051282051277,-1.2295482295482296,-1.5518925518925517,0.875,1.21875,-2.5625,-3.498168498168498,0.0,-1.6214896214896215,0.75,1.125,-2.5,-4.711843711843712,0.5177045177045178,-1.7301587301587302,0.6875,1.21875,-2.28125,-5.493284493284493,1.4468864468864469,-1.6153846153846154,0.75,1.5,-1.875,-5.852258852258853,1.9096459096459095,-1.8937728937728937,0.8125,1.65625,-1.4375,-6.406593406593408,2.0097680097680097,-1.934065934065934,0.71875,1.46875,-1.15625,-7.468864468864468,2.6446886446886446,-1.586080586080586,0.0,1.125,-0.9375,-8.097680097680097,3.431013431013431,-1.332112332112332,0.0,0.65625,0.0,-9.169719169719171,3.525030525030525,-1.5457875457875458,0.0,0.0,0.0,-8.538461538461537,3.1330891330891335,-1.6825396825396826,0.0,0.0,0.5625,-8.503052503052503,2.571428571428572,-1.9267399267399268,-0.8125,0.0,0.90625,,,,,,,,,,,,,,,,,,,,,,,,,,,,,,,,,,,,,,,,,,,,,,,,,,,,,,,,,,,,,wp_nextR
accX,5.17948717948718,-1.8498168498168501,-1.4713064713064714,0.84375,0.0,-0.6875,4.811965811965811,-2.15018315018315,-1.6385836385836383,0.59375,0.0,-1.0625,5.544566544566544,-2.659340659340659,-1.6019536019536018,0.0,0.5625,-1.46875,5.438339438339439,-3.1282051282051277,-1.4908424908424909,0.0,0.65625,-1.96875,4.882783882783882,-3.8827838827838823,-1.586080586080586,0.0,0.0,-2.78125,3.417582417582417,-3.952380952380953,-1.297924297924298,-0.6875,0.0,-3.1875,1.6837606837606838,-3.7985347985347984,-0.5506715506715507,-0.71875,0.625,-3.34375,0.956043956043956,-3.710622710622711,0.0,-0.625,0.90625,-3.34375,0.0,-4.427350427350428,0.568986568986569,-0.59375,1.09375,-3.5,0.5506715506715507,-4.38949938949939,0.8620268620268621,-0.5625,1.03125,-3.8125,0.0,-4.448107448107448,0.5653235653235653,-0.59375,0.59375,-4.09375,0.0,-4.781440781440781,0.0,-0.75,0.0,-4.3125,-2.1904761904761907,-4.4163614163614175,0.0,-0.84375,0.0,-4.375,-2.9035409035409034,-3.5702075702075704,0.0,-0.625,0.875,-4.1875,-2.3553113553113554,-2.851037851037851,0.0,0.0,1.0,-4.09375,-2.3650793650793656,-3.313797313797314,0.0,0.0,0.9375,-4.0,-3.5262515262515266,-3.086691086691087,0.0,0.0,1.125,-3.90625,-3.2551892551892547,-2.333333333333333,0.0,0.0,1.3125,-3.78125,-3.7863247863247858,-2.501831501831502,0.0,0.0,1.15625,-3.75,-4.275946275946276,-2.490842490842491,0.0,0.0,1.15625,-3.71875,-4.588522588522588,-2.053724053724053,0.0,0.0,1.28125,-3.59375,-4.0818070818070815,-1.8327228327228329,0.0,0.0,1.4375,-3.4375,-3.7118437118437115,-1.6312576312576312,0.0,0.0,1.46875,-3.25,-3.398046398046398,-1.2918192918192921,0.0,0.0,1.46875,-3.0625,-3.6214896214896215,-1.1978021978021978,-0.6581196581196581,0.0,1.34375,-2.9375,-4.617826617826617,-0.8986568986568987,-0.9438339438339438,0.0,1.3125,-2.84375,-5.135531135531137,0.0,-0.6068376068376068,0.0,1.53125,-2.625,-4.68986568986569,0.0,-0.536019536019536,0.0,1.5,-2.0625,-5.459096459096459,0.0,-1.137973137973138,0.0,1.375,-1.90625,-6.2967032967032965,0.8485958485958486,-1.358974358974359,0.0,1.28125,-1.59375,-7.125763125763125,1.4725274725274726,-1.1257631257631258,0.0,1.3125,-1.1875,-6.932844932844932,2.3174603174603177,-0.6373626373626373,0.0,1.1875,-0.78125,-6.642246642246642,2.347985347985348,-0.9255189255189256,0.0,0.9375,0.0,-5.575091575091576,2.2735042735042734,-1.1123321123321124,0.0,0.625,0.0,-4.595848595848596,2.1086691086691087,-1.4163614163614164,0.0,0.0,0.0,-4.484737484737486,1.7997557997557998,-1.5518925518925517,0.0,0.0,0.0,-4.676434676434677,1.684981684981685,-1.5421245421245422,0.0,0.0,0.0,,,,,,,,,,,,,,,,,,,,,,,,,,,,,,,,,,,,,,,,,,,,,,,,,,,,,,,,,,,,,wp_nextR
accX,4.557997557997559,0.0,-1.1306471306471306,0.75,0.0,0.0,4.235653235653237,-0.9926739926739928,-1.0818070818070815,0.59375,0.0,0.0,4.589743589743589,-1.3663003663003663,-1.336996336996337,0.0,0.0,-0.75,4.402930402930403,-1.6031746031746033,-1.6275946275946276,0.0,0.6875,-1.0625,4.15995115995116,-1.9548229548229548,-1.4578754578754578,0.0,0.75,-1.5,3.7802197802197797,-2.1257631257631258,-1.1489621489621489,0.0,0.65625,-1.8125,3.0525030525030523,-2.515262515262515,-0.5164835164835165,0.0,0.625,-2.09375,2.627594627594628,-3.0170940170940175,0.0,-0.5625,0.6875,-2.34375,2.445665445665446,-3.357753357753358,0.0,-0.625,0.625,-2.71875,2.017094017094017,-3.687423687423687,0.0,-0.71875,0.0,-3.09375,1.6544566544566544,-3.7960927960927964,0.6251526251526252,-0.8125,0.0,-3.59375,-1.0952380952380951,-3.804639804639805,0.0,-0.90625,0.0,-3.84375,-2.6727716727716726,-3.267399267399268,0.0,-0.90625,0.0,-3.78125,-2.4884004884004884,-3.2063492063492065,0.0,-0.65625,0.84375,-3.5625,-1.4542124542124542,-3.4053724053724053,0.9682539682539684,0.0,1.25,-3.40625,-1.0390720390720392,-3.7936507936507935,0.5494505494505495,0.0,1.1875,-3.4375,-1.7545787545787546,-4.0647130647130645,0.0,0.0,0.96875,-3.5,-2.1611721611721606,-3.3504273504273505,0.7545787545787546,0.0,1.0625,-3.5625,-2.63980463980464,-2.3211233211233213,1.4224664224664223,0.0,1.25,-3.4375,-2.796092796092796,-2.4004884004884004,1.1965811965811963,0.0,1.5625,-3.1875,-2.1672771672771667,-2.9230769230769234,0.8266178266178266,0.65625,1.8125,-2.9375,-1.3150183150183148,-2.600732600732601,1.293040293040293,0.78125,1.84375,-2.96875,-1.2503052503052503,-2.6153846153846154,0.8827838827838828,1.0625,1.4375,-3.25,-2.072039072039072,-2.462759462759463,-0.5763125763125763,1.125,1.15625,-3.40625,-3.608058608058608,-2.4713064713064714,-1.3882783882783882,1.0,1.28125,-3.34375,-3.8437118437118434,-0.9511599511599512,-1.0134310134310134,1.125,1.53125,-3.0625,-3.807081807081807,-1.0073260073260073,-1.0146520146520146,1.3125,1.71875,-2.875,-3.411477411477412,-1.1746031746031746,-1.3516483516483515,1.3125,1.5625,-2.84375,-3.671550671550672,-0.9584859584859584,-1.702075702075702,1.09375,1.28125,-2.84375,-4.924297924297925,0.0,-1.8327228327228329,0.875,1.15625,-2.78125,-5.842490842490842,0.9133089133089132,-1.4334554334554337,0.875,1.15625,-2.5,-6.824175824175824,1.6398046398046398,-1.4554334554334554,1.0,1.28125,-2.0625,-7.126984126984127,1.4896214896214897,-1.6837606837606838,0.875,1.34375,-1.625,-6.931623931623932,2.249084249084249,-1.6666666666666667,0.78125,1.21875,-1.0625,-6.797313797313797,2.9169719169719173,-2.0769230769230766,0.59375,0.9375,-0.78125,-6.5335775335775335,3.0024420024420024,-2.5177045177045176,0.0,0.625,-0.53125,-6.855921855921856,3.3675213675213675,-2.7826617826617825,0.0,0.0,0.0,-6.9523809523809526,3.617826617826618,-2.913308913308913,0.0,0.0,0.0,-6.672771672771673,3.23931623931624,-3.0366300366300365,-0.625,0.0,0.625,-5.57997557997558,3.6703296703296697,-2.5531135531135534,-0.71875,0.0,0.78125,,,,,,,,,,,,,,,,,,,,,,,,,,,,,,,,,,,,,,,,,,,wp_nextR
accX,5.236874236874237,-1.2063492063492065,-0.5115995115995116,0.59375,0.0,0.0,5.020757020757022,-1.1904761904761905,-0.8986568986568987,0.5625,0.0,0.0,4.6129426129426125,-1.2918192918192921,-1.0183150183150182,0.0,0.0,-0.625,5.004884004884005,-1.3687423687423688,-1.1709401709401708,0.0,0.0,-0.90625,4.858363858363859,-1.9987789987789988,-1.5873015873015872,0.0,0.0,-1.65625,3.4615384615384617,-2.1538461538461537,-1.3394383394383391,0.0,0.0,-2.0625,2.1111111111111107,-2.0549450549450547,-0.8742368742368742,-0.65625,0.0,-2.25,2.0024420024420024,-2.242979242979243,0.0,-0.6875,0.53125,-2.375,2.437118437118437,-2.3650793650793656,0.0,-0.65625,0.625,-2.5625,2.0085470085470085,-3.1538461538461537,0.0,-0.6875,0.0,-2.96875,1.0744810744810744,-3.628815628815629,0.0,-0.90625,0.0,-3.40625,0.0,-3.2576312576312576,0.0,-1.0625,0.0,-3.625,-0.6556776556776557,-3.247863247863248,0.0,-0.96875,0.0,-3.6875,-0.9304029304029304,-3.412698412698413,0.0,-0.78125,0.53125,-3.65625,-0.8742368742368742,-3.6984126984126986,0.0,-0.6875,0.71875,-3.625,-0.7167277167277167,-3.3663003663003663,0.0,-0.65625,0.75,-3.59375,-0.6385836385836385,-3.2002442002442004,0.0,-0.5625,0.5625,-3.875,-1.7142857142857142,-3.312576312576313,0.0,-0.59375,0.625,-3.84375,-2.7045177045177047,-2.7118437118437115,0.0,0.0,1.0625,-3.5625,-2.484737484737485,-2.8327228327228333,0.0,0.0,1.5,-3.28125,-2.0207570207570207,-2.7643467643467643,0.0,0.0,1.65625,-3.1875,-1.7423687423687424,-2.9963369963369964,0.0,0.0,1.5625,-3.28125,-2.376068376068376,-3.1184371184371185,0.0,0.0,1.5,-3.28125,-2.7301587301587302,-2.4884004884004884,0.0,0.0,1.59375,-3.21875,-3.101343101343101,-2.1721611721611715,0.0,0.0,1.59375,-3.09375,-3.531135531135531,-1.8901098901098898,0.0,0.0,1.65625,-2.9375,-3.2844932844932844,-1.6923076923076923,0.0,0.5625,1.71875,-2.78125,-3.0109890109890114,-1.746031746031746,0.0,0.78125,1.78125,-2.6875,-3.5592185592185586,-1.092796092796093,0.0,0.90625,1.8125,-2.59375,-4.061050061050061,-0.7326007326007326,-0.568986568986569,1.0,1.8125,-2.375,-4.561660561660561,0.0,-0.9255189255189256,0.9375,1.78125,-2.21875,-5.2905982905982905,0.0,-0.6324786324786325,0.875,1.5,-2.21875,-5.183150183150183,1.5384615384615383,-0.9218559218559218,0.8125,1.09375,-2.125,-6.351648351648352,1.678876678876679,-1.7765567765567765,0.8125,0.6875,-1.96875,-7.564102564102564,2.2014652014652016,-2.144078144078144,0.71875,0.78125,-1.65625,-7.424908424908424,3.0476190476190474,-2.0769230769230766,0.59375,1.125,-1.125,-6.716727716727718,2.9255189255189253,-2.1343101343101343,0.0,1.21875,-0.53125,-6.257631257631258,2.8083028083028077,-2.155067155067155,0.0,1.03125,0.0,-6.096459096459097,2.4945054945054945,-1.434676434676435,0.0,0.5625,0.0,,,,,,,,,,,,,,,,,,,,,,,,,,,,,,,,,,,,,,,,,,,,,,,,,wp_nextR
accX,7.101343101343101,-1.4017094017094016,-1.746031746031746,0.78125,0.0,0.0,6.710622710622711,-1.5787545787545787,-2.028083028083028,0.0,0.0,-0.75,5.91941391941392,-1.7411477411477412,-2.2124542124542126,0.0,0.0,-1.25,5.162393162393163,-1.474969474969475,-1.6776556776556777,0.0,0.0,-1.625,4.547008547008547,-1.376068376068376,-1.2796092796092795,0.0,0.0,-1.90625,4.0024420024420015,-1.9194139194139197,-1.31013431013431,0.0,0.0,-2.09375,3.2307692307692313,-2.417582417582417,-1.4481074481074483,-0.65625,0.5625,-2.375,2.2051282051282053,-2.706959706959707,-1.1489621489621489,-1.03125,0.5625,-2.8125,1.0622710622710625,-2.5042735042735043,0.0,-1.0625,0.71875,-2.96875,0.8693528693528694,-2.2905982905982905,0.5396825396825397,-0.90625,0.71875,-3.09375,0.6495726495726496,-2.9059829059829063,0.0,-0.875,0.59375,-3.21875,0.0,-3.4371184371184373,0.0,-0.96875,0.59375,-3.375,-0.7106227106227107,-3.5091575091575087,0.0,-1.0,0.78125,-3.53125,-0.7533577533577533,-3.6336996336996337,0.7777777777777778,-0.875,0.9375,-3.65625,-0.5372405372405372,-3.931623931623931,1.2014652014652014,-0.71875,0.90625,-3.8125,-0.6923076923076923,-4.196581196581197,1.1074481074481075,-0.625,0.6875,-3.9375,-1.6166056166056166,-4.473748473748474,0.7973137973137974,-0.625,0.625,-4.0,-2.593406593406593,-4.091575091575091,0.8559218559218559,0.0,0.9375,-3.84375,-2.5970695970695967,-3.5970695970695967,1.3675213675213675,0.0,1.34375,-3.6875,-2.413919413919414,-3.5995115995116,0.9365079365079364,0.0,1.34375,-3.5625,-2.677655677655677,-3.8156288156288163,0.6898656898656899,0.0,1.34375,-3.59375,-2.879120879120879,-3.11965811965812,0.5677655677655677,0.0,1.375,-3.625,-3.8339438339438336,-3.115995115995116,0.0,0.0,1.375,-3.5625,-4.604395604395603,-2.5396825396825395,0.0,0.59375,1.59375,-3.28125,-3.6703296703296697,-1.5738705738705738,0.0,0.8125,1.90625,-2.96875,-2.380952380952381,-1.7692307692307692,-0.9291819291819292,1.1875,1.75,-2.78125,-1.7655677655677655,-1.68009768009768,-2.611721611721612,1.21875,1.25,-2.8125,-4.288156288156288,-1.8901098901098898,-3.383394383394384,1.0,0.96875,-2.9375,-6.713064713064713,-0.5054945054945055,-2.3223443223443225,0.625,1.3125,-2.875,-7.993894993894994,1.413919413919414,0.0,0.59375,1.84375,-2.375,-7.881562881562883,2.092796092796093,0.5164835164835165,0.90625,2.15625,-1.5625,-7.471306471306471,1.6288156288156288,0.0,1.125,1.84375,-1.0,-7.594627594627593,1.4554334554334554,-1.0634920634920637,0.75,1.3125,-1.0,-7.993894993894994,2.5433455433455427,-1.2002442002442002,0.0,0.875,-0.84375,-8.406593406593407,3.694749694749695,-1.2222222222222223,0.0,0.5625,0.0,,,,,,,,,,,,,,,,,,,,,,,,,,,,,,,,,,,,,,,,,,,,,,,,,,,,,,,,,,,,,,,,,,,,,,,,,wp_nextR
accX,6.5103785103785095,-1.4578754578754578,-2.683760683760684,0.8125,0.0,0.0,5.531135531135532,-0.9194139194139194,-2.537240537240537,0.0,0.0,0.0,5.661782661782662,-1.1318681318681318,-2.144078144078144,0.0,0.75,-1.0,5.772893772893772,-1.2356532356532357,-1.3858363858363858,0.0,0.75,-1.3125,5.485958485958487,-2.2185592185592187,-1.3675213675213675,0.0,0.8125,-1.71875,5.142857142857143,-2.8937728937728937,-1.1306471306471306,0.0,0.78125,-2.25,4.74969474969475,-3.095238095238096,-0.6544566544566545,-0.8125,0.0,-2.6875,4.164835164835165,-3.091575091575092,0.0,-1.0625,0.0,-3.15625,2.5286935286935286,-3.5750915750915757,0.0,-1.34375,0.0,-3.5625,0.8669108669108669,-3.137973137973138,0.0,-1.34375,0.0,-3.71875,0.0,-2.761904761904762,0.5775335775335775,-1.09375,0.0,-3.71875,0.0,-3.505494505494505,0.0,-0.96875,0.0,-3.6875,-1.0989010989010992,-4.0085470085470085,0.0,-1.03125,0.65625,-3.6875,-1.4065934065934067,-3.956043956043956,0.8229548229548229,-1.09375,0.8125,-3.6875,-1.8351648351648349,-3.0109890109890114,1.3052503052503053,-0.75,0.78125,-3.75,-2.6434676434676434,-3.593406593406593,0.8986568986568987,-0.5625,0.71875,-3.6875,-2.9975579975579976,-3.5873015873015874,1.0329670329670328,-0.5625,0.96875,-3.5625,-2.761904761904762,-3.0842490842490844,1.6105006105006106,0.0,1.3125,-3.375,-1.9768009768009769,-2.6984126984126986,1.514041514041514,0.0,1.4375,-3.28125,-2.1904761904761907,-3.236874236874237,0.9157509157509156,0.0,1.3125,-3.3125,-2.7020757020757022,-3.235653235653236,0.7252747252747253,0.0,1.21875,-3.3125,-3.1367521367521367,-2.6178266178266183,0.7631257631257631,0.0,1.3125,-3.21875,-3.2344322344322345,-2.2222222222222223,0.8485958485958486,0.0,1.53125,-3.09375,-3.0854700854700856,-1.9645909645909645,0.912087912087912,0.5625,1.71875,-2.96875,-3.1343101343101343,-1.757020757020757,0.8461538461538461,0.75,1.75,-2.8125,-2.4822954822954824,-1.7362637362637363,0.0,1.0,1.71875,-2.65625,-2.6105006105006106,-1.6654456654456655,-0.6825396825396826,1.0,1.5625,-2.71875,-2.862026862026862,-0.9291819291819292,-1.2466422466422469,1.0,1.53125,-2.65625,-3.694749694749695,0.0,-1.5152625152625152,1.0,1.5625,-2.5625,-5.0415140415140405,0.5763125763125763,-1.3516483516483515,1.0,1.65625,-2.25,-5.705738705738707,1.199023199023199,-1.2893772893772897,1.09375,1.84375,-1.875,-6.274725274725275,1.5030525030525033,-1.266178266178266,1.0625,1.96875,-1.46875,-6.363858363858364,1.9951159951159951,-1.2234432234432235,0.96875,1.78125,-1.25,-6.415140415140415,2.8998778998779,-1.205128205128205,0.875,1.34375,-1.125,-6.841269841269841,3.2014652014652016,-1.8925518925518925,0.6875,0.75,-0.96875,-7.9865689865689875,3.4932844932844933,-2.385836385836386,0.0,0.0,-0.71875,-9.058608058608057,3.758241758241758,-2.78998778998779,0.0,0.0,0.0,-8.967032967032967,4.00976800976801,-2.445665445665446,-0.53125,0.0,0.0,,,,,,,,,,,,,,,,,,,,,,,,,,,,,,,,,,,,,,,,,,,,,,,,,,,,,,,wp_nextR
accX,5.278388278388278,-1.0586080586080586,-2.7448107448107453,0.59375,0.0,0.0,5.643467643467643,-0.7594627594627594,-1.9719169719169718,0.0,0.0,0.0,6.289377289377289,-1.021978021978022,-1.2258852258852257,0.0,0.0,-0.625,5.855921855921856,-1.3833943833943834,-1.1147741147741148,0.0,0.0,-1.0,5.1892551892551895,-1.733821733821734,-1.4029304029304028,0.0,0.0,-1.34375,4.684981684981684,-2.235653235653236,-1.4884004884004884,-0.59375,0.53125,-1.71875,4.233211233211233,-2.2051282051282053,-1.5457875457875458,-0.84375,0.0,-2.09375,3.3540903540903533,-1.733821733821734,-0.8864468864468864,-0.96875,0.0,-2.375,2.3626373626373627,-2.1184371184371185,-0.5567765567765568,-0.96875,0.0,-2.5625,1.9194139194139197,-2.6166056166056166,0.0,-0.96875,0.78125,-2.875,1.3650793650793651,-3.525030525030525,0.0,-1.0,0.78125,-3.03125,0.8339438339438342,-3.4517704517704515,0.0,-1.1875,0.625,-3.34375,0.0,-3.1623931623931623,0.7387057387057387,-1.28125,0.0,-3.65625,-0.9133089133089132,-2.978021978021978,0.9169719169719168,-1.15625,0.0,-3.78125,-1.5702075702075702,-3.5775335775335777,0.7728937728937729,-0.96875,0.65625,-3.8125,-1.9902319902319905,-3.431013431013431,0.9523809523809524,-1.0,0.84375,-3.65625,-1.804639804639805,-3.0170940170940175,1.1355311355311355,-0.84375,1.0625,-3.53125,-1.5641025641025639,-3.2332112332112333,0.7533577533577533,-0.5625,1.15625,-3.46875,-1.7057387057387057,-3.5225885225885225,0.5238095238095238,0.0,1.21875,-3.46875,-1.884004884004884,-3.4273504273504267,0.8021978021978022,0.0,1.375,-3.5,-1.6935286935286935,-3.0940170940170937,0.6642246642246642,0.0,1.34375,-3.46875,-2.481074481074481,-2.9438339438339436,0.0,0.0,1.25,-3.4375,-3.3540903540903533,-2.8058608058608057,0.0,0.0,1.40625,-3.28125,-3.736263736263736,-2.0207570207570207,1.0073260073260073,0.0,1.71875,-3.0625,-3.4444444444444446,-1.8205128205128205,1.0915750915750917,0.0,1.84375,-2.8125,-3.283272283272283,-1.6275946275946276,0.6703296703296703,0.625,1.78125,-2.625,-3.5177045177045176,-1.4175824175824177,0.5909645909645911,0.75,1.90625,-2.53125,-3.3785103785103785,-0.7936507936507936,0.5775335775335775,1.03125,1.96875,-2.375,-3.293040293040293,0.0,0.0,1.1875,1.75,-2.34375,-4.031746031746032,0.0,-1.3186813186813189,1.03125,1.53125,-2.34375,-4.367521367521366,0.568986568986569,-1.2918192918192921,0.90625,1.40625,-2.3125,-5.429792429792429,1.2271062271062272,-0.9365079365079364,0.8125,1.3125,-2.15625,-5.882783882783882,2.0818070818070815,-0.9096459096459096,0.875,1.3125,-1.8125,-5.8498168498168495,1.5738705738705738,-1.7545787545787546,0.8125,1.34375,-1.28125,-5.989010989010988,2.1147741147741153,-1.3748473748473748,0.5625,1.40625,-1.03125,-6.315018315018316,2.305250305250305,-1.192918192918193,0.0,1.28125,-0.78125,-6.647130647130648,2.656898656898657,-1.3113553113553114,0.0,0.96875,-0.5625,-7.4884004884004876,3.1086691086691087,-1.2942612942612943,0.0,0.0,0.0,-8.913308913308914,3.5152625152625148,-0.9511599511599512,-0.53125,0.0,0.0,,,,,,,,,,,,,,,,,,,,,,,,,,,,,,,,,,,,,,,,,,,,,,,,,wp_nextR
accX,6.601953601953603,-1.0891330891330893,-1.2063492063492065,0.0,0.0,0.0,5.996336996336996,-1.1318681318681318,-0.9926739926739928,0.0,0.0,-0.59375,5.184371184371185,-1.1001221001221002,-0.8046398046398047,0.0,0.0,-0.90625,4.5555555555555545,-1.0903540903540905,-0.5714285714285714,0.0,0.0,-1.21875,4.311355311355311,-1.5531135531135531,-0.5103785103785103,0.0,0.625,-1.34375,4.216117216117216,-2.231990231990232,-0.9206349206349206,0.0,0.75,-1.625,3.9645909645909647,-2.656898656898657,-0.9621489621489622,0.0,0.78125,-2.0625,3.1135531135531136,-3.1343101343101343,-0.6410256410256411,-0.6875,0.6875,-2.5,2.445665445665446,-2.8766788766788767,0.0,-0.8125,0.59375,-2.90625,1.7057387057387057,-3.2661782661782666,0.6141636141636142,-0.78125,0.0,-3.21875,0.6984126984126984,-3.1904761904761907,0.7435897435897436,-0.8125,0.0,-3.40625,0.0,-3.433455433455433,0.6593406593406593,-0.84375,0.0,-3.53125,-0.6385836385836385,-3.4273504273504267,0.9523809523809524,-0.78125,0.625,-3.53125,0.0,-3.371184371184371,1.1282051282051282,-0.5625,0.8125,-3.59375,0.0,-4.111111111111111,0.7362637362637363,0.0,0.8125,-3.78125,-0.9413919413919414,-4.427350427350428,0.0,0.0,0.71875,-4.0,-1.2148962148962148,-4.406593406593408,0.5299145299145299,0.0,0.78125,-4.0625,-1.5079365079365081,-4.258852258852259,0.5958485958485958,0.0,0.84375,-4.125,-1.8778998778998781,-4.156288156288157,0.0,0.0,0.9375,-4.125,-2.6349206349206344,-3.7094017094017095,0.0,0.0,1.09375,-4.0625,-2.768009768009768,-2.8095238095238093,0.5372405372405372,0.0,1.21875,-3.9375,-3.1770451770451764,-2.9255189255189253,0.0,0.0,1.25,-3.78125,-3.9951159951159956,-2.619047619047619,-0.7228327228327228,0.0,1.375,-3.59375,-4.647130647130648,-2.155067155067155,0.0,0.0,1.53125,-3.28125,-4.752136752136752,-1.2918192918192921,0.0,0.625,1.625,-3.0,-4.5848595848595854,-1.0952380952380951,-1.3699633699633702,0.6875,1.28125,-2.75,-5.992673992673992,-1.3443223443223444,-1.9084249084249083,0.0,1.28125,-2.53125,-6.390720390720391,0.6446886446886447,-0.978021978021978,0.0,1.46875,-2.25,-6.4322344322344325,1.144078144078144,-0.5018315018315018,0.0,1.59375,-1.84375,-6.293040293040294,1.1684981684981686,0.0,0.53125,1.65625,-1.40625,-5.611721611721611,1.2967032967032968,0.0,0.625,1.71875,-1.03125,-5.181929181929182,1.2173382173382172,0.0,0.625,1.6875,-0.78125,-4.418803418803419,1.5616605616605617,0.0,0.59375,1.5,-0.6875,-4.306471306471306,1.8339438339438336,0.0,0.53125,1.09375,-0.75,-3.93040293040293,2.075702075702076,-1.0305250305250304,0.0,0.59375,-0.8125,-4.868131868131869,2.6373626373626373,-1.387057387057387,0.0,0.0,-0.84375,-5.454212454212454,2.9816849816849818,-1.205128205128205,0.0,0.0,-0.71875,-5.816849816849817,3.115995115995116,-1.2808302808302807,0.0,0.0,0.0,-6.329670329670329,3.1001221001221,-1.4590964590964588,0.0,0.0,0.0,-7.553113553113552,3.514041514041514,-1.3956043956043955,-0.65625,0.0,0.0,,,,,,,,,,,,,,,,,,,,,,,,,,,,,,,,,,,,,,,,,,,wp_nextR
accX,6.002442002442003,-1.3394383394383391,-0.7350427350427351,0.78125,0.0,0.0,5.9462759462759465,-1.9865689865689864,-0.8803418803418803,0.625,0.0,0.0,6.394383394383395,-1.7924297924297925,-1.238095238095238,0.0,0.0,-0.59375,6.0256410256410255,-2.0488400488400487,-1.290598290598291,0.0,0.0,-0.96875,5.7606837606837615,-2.3650793650793656,-1.166056166056166,0.0,0.0,-1.40625,5.2405372405372415,-2.5750915750915757,-0.8034188034188035,0.0,0.0,-1.90625,4.252747252747253,-2.6166056166056166,-0.5616605616605617,-0.53125,0.0,-2.34375,2.8754578754578755,-2.537240537240537,-0.6214896214896215,-0.71875,0.0,-2.71875,1.8376068376068373,-2.37973137973138,-0.6153846153846154,-0.75,0.53125,-2.9375,1.1978021978021978,-2.5811965811965814,0.0,-0.71875,0.6875,-3.1875,0.8009768009768009,-3.0305250305250304,0.0,-0.78125,0.5625,-3.34375,0.0,-2.93040293040293,0.0,-0.84375,0.0,-3.59375,-0.5616605616605617,-3.10989010989011,0.0,-0.9375,0.0,-3.78125,-1.7216117216117215,-2.881562881562881,0.7472527472527473,-0.875,0.53125,-3.8125,-2.2783882783882783,-2.6434676434676434,1.1086691086691087,-0.5625,0.9375,-3.6875,-1.7374847374847375,-3.0366300366300365,1.1245421245421243,0.0,1.0625,-3.4375,-1.4017094017094016,-3.208791208791209,1.0256410256410255,0.0,1.0625,-3.46875,-1.343101343101343,-3.433455433455433,0.7216117216117216,0.0,1.0,-3.625,-1.31990231990232,-3.1794871794871797,0.8485958485958486,0.0,0.9375,-3.75,-1.7643467643467643,-2.9865689865689866,0.8717948717948718,0.0,0.96875,-3.71875,-2.1343101343101343,-2.6507936507936507,0.5628815628815629,0.0,1.125,-3.5625,-3.0830280830280827,-2.3504273504273505,0.0,0.0,1.4375,-3.375,-2.8827838827838828,-2.1782661782661785,0.7301587301587301,0.625,1.71875,-3.21875,-2.148962148962149,-2.421245421245421,0.0,0.90625,1.78125,-3.15625,-2.527472527472528,-2.3553113553113554,-1.3772893772893773,0.875,1.4375,-3.25,-4.01953601953602,-1.5494505494505495,-1.4004884004884004,0.65625,1.25,-3.34375,-4.791208791208791,-0.663003663003663,-1.0732600732600732,0.75,1.375,-3.21875,-4.905982905982906,-0.6007326007326007,-1.0903540903540905,0.875,1.65625,-2.90625,-5.0256410256410255,-0.5152625152625152,-0.7460317460317459,0.9375,1.84375,-2.625,-4.892551892551894,0.0,-1.021978021978022,0.9375,1.78125,-2.46875,-5.9413919413919425,0.0,-1.4188034188034189,0.8125,1.34375,-2.40625,-7.725274725274725,1.3406593406593406,-1.4822954822954824,0.625,0.96875,-2.21875,-9.512820512820513,1.9194139194139197,-1.7057387057387057,0.0,0.96875,-1.5625,-9.715506715506717,3.1562881562881566,-1.2002442002442002,0.0,1.25,-0.9375,-8.340659340659341,3.289377289377289,-0.8620268620268621,0.53125,1.25,0.0,-6.7435897435897445,2.8351648351648358,-0.9987789987789988,0.59375,0.90625,0.0,-5.741147741147741,2.7802197802197797,-1.5067155067155067,0.0,0.0,0.0,-5.763125763125763,2.2808302808302807,-2.6349206349206344,0.0,0.0,0.0,-6.174603174603175,2.681318681318681,-2.9401709401709404,0.0,0.0,0.0,,,,,,,,,,,,,,,,,,,,,,,,,,,,,,,,,,,,,,,,,,,,,,,,,wp_nextR
accX,5.9242979242979255,-0.7741147741147741,-1.3663003663003663,0.96875,1.03125,0.6875,6.956043956043956,-1.2857142857142858,-1.2454212454212454,0.90625,1.0625,0.0,7.6630036630036615,-1.887667887667888,-0.7728937728937729,0.75,0.8125,0.0,7.111111111111112,-2.3943833943833943,-0.9059829059829059,0.0,0.0,-1.375,6.147741147741147,-2.7008547008547015,-0.8608058608058609,0.0,0.0,-1.96875,5.371184371184371,-2.7032967032967035,-0.6874236874236874,0.0,0.0,-2.40625,4.540903540903541,-2.7399267399267404,-0.7094017094017094,0.0,0.0,-2.75,3.161172161172161,-3.003663003663004,-0.9926739926739928,-0.75,0.0,-2.96875,1.652014652014652,-2.709401709401709,-0.8449328449328449,-0.84375,0.0,-3.09375,1.1819291819291822,-2.7777777777777777,0.0,-0.6875,0.71875,-3.21875,1.2527472527472527,-3.2869352869352872,0.0,-0.65625,0.65625,-3.4375,0.7484737484737485,-3.8815628815628815,0.0,-0.75,0.0,-3.71875,-0.7167277167277167,-3.7704517704517695,0.0,-0.90625,0.0,-3.8125,-1.6141636141636142,-2.9682539682539684,0.8168498168498168,-0.75,0.75,-3.75,-1.3956043956043955,-2.7423687423687424,1.413919413919414,0.0,1.0,-3.71875,-0.9242979242979243,-2.743589743589744,0.6495726495726496,0.0,0.78125,-3.75,-2.346764346764347,-3.5641025641025643,0.0,0.0,0.75,-3.71875,-2.501831501831502,-2.8229548229548236,1.1343101343101345,0.0,0.96875,-3.6875,-2.3223443223443225,-2.230769230769231,1.5018315018315018,0.0,1.125,-3.6875,-2.6300366300366296,-2.7594627594627594,0.7557997557997558,0.0,1.125,-3.59375,-3.37973137973138,-2.8583638583638584,0.0,0.0,1.125,-3.46875,-3.4261294261294264,-1.9926739926739927,0.9706959706959708,0.0,1.3125,-3.34375,-3.10989010989011,-1.7557997557997558,0.0,0.71875,1.4375,-3.21875,-3.117216117216117,-2.263736263736264,0.0,0.9375,1.46875,-3.15625,-3.2612942612942613,-1.9010989010989008,-0.8131868131868132,0.9375,1.5,-3.0625,-3.4346764346764345,-1.3675213675213675,-0.9755799755799756,0.9375,1.5,-2.96875,-3.715506715506716,-0.7179487179487181,-1.1257631257631258,1.0,1.46875,-2.9375,-4.6996336996337,0.0,-1.6666666666666667,0.9375,1.28125,-2.875,-5.7606837606837615,0.0,-2.244200244200244,0.71875,1.25,-2.59375,-6.529914529914531,1.1843711843711844,-1.938949938949939,0.59375,1.3125,-2.3125,-6.3760683760683765,1.8986568986568984,-1.641025641025641,0.625,1.25,-1.96875,-6.26007326007326,1.5641025641025639,-1.967032967032967,0.53125,1.09375,-1.71875,-6.671550671550674,1.794871794871795,-1.7045177045177045,0.0,1.0625,-1.46875,-6.7203907203907205,2.21978021978022,-1.3223443223443223,0.0,1.0,-1.09375,-7.097680097680098,2.63980463980464,-0.9059829059829059,0.0,1.0,-0.6875,-6.697191697191697,2.6605616605616604,-1.0134310134310134,0.0,0.78125,0.0,-6.976800976800977,2.5811965811965814,-1.1843711843711844,0.0,0.0,0.0,,,,,,,,,,,,,,,,,,,,,,,,,,,,,,,,,,,,,,,,,,,,,,,,,,,,,,,,,,,,,wp_nextR
accX,8.466422466422467,-3.88034188034188,0.0,0.0,0.0,-0.9375,7.428571428571429,-3.10989010989011,0.6166056166056166,0.0,-0.5625,-1.59375,6.429792429792429,-2.6984126984126986,0.0,0.0,-0.59375,-2.0,5.521367521367521,-2.8363858363858365,0.0,0.0,0.0,-2.28125,4.601953601953602,-2.9023199023199022,0.0,0.0,0.0,-2.59375,4.247863247863248,-2.9181929181929176,0.0,0.0,0.0,-2.84375,3.6935286935286937,-3.0891330891330893,0.0,0.0,0.0,-3.15625,2.43956043956044,-3.120879120879121,0.0,-0.625,0.0,-3.34375,0.9413919413919414,-2.3687423687423688,0.0,-0.5625,0.0,-3.3125,0.0,-2.42002442002442,0.0,0.0,0.625,-3.1875,0.9096459096459096,-2.5384615384615383,0.0,0.0,0.6875,-3.34375,0.0,-2.7973137973137967,-0.5006105006105006,0.0,0.0,-3.59375,-1.5421245421245422,-2.561660561660561,0.0,-0.625,0.0,-3.75,-2.1465201465201464,-1.1965811965811963,1.028083028083028,-0.59375,0.5625,-3.625,-1.7985347985347986,-1.3089133089133091,1.5494505494505495,0.0,0.9375,-3.375,-0.978021978021978,-1.9694749694749696,0.7973137973137974,0.0,1.15625,-3.34375,-0.9865689865689866,-3.11965811965812,0.0,0.0,1.0,-3.4375,-1.706959706959707,-2.5885225885225887,0.0,0.0,0.90625,-3.40625,-1.387057387057387,-1.78998778998779,0.0,0.0,1.09375,-3.46875,-1.6068376068376071,-2.3284493284493286,0.0,0.0,1.0,-3.59375,-2.5262515262515257,-2.2820512820512815,-0.8376068376068376,0.0,0.96875,-3.78125,-3.43956043956044,-2.217338217338217,-0.5848595848595849,0.0,0.96875,-3.46875,-3.496947496947497,-1.6691086691086692,0.0,0.0,1.4375,-3.25,-2.8107448107448105,-1.3687423687423688,0.0,0.53125,1.53125,-3.1875,-2.5873015873015874,-1.4090354090354091,0.0,0.625,1.34375,-3.1875,-2.9816849816849818,-1.2161172161172158,-0.6678876678876678,0.53125,1.28125,-3.1875,-3.289377289377289,-1.0085470085470083,0.0,0.53125,1.40625,-3.1875,-3.1648351648351647,0.0,0.0,0.65625,1.46875,-3.21875,-3.844932844932845,0.0,-0.967032967032967,0.75,1.375,-3.3125,-4.747252747252747,0.0,-1.4578754578754578,0.0,0.90625,-3.15625,-6.951159951159951,0.5115995115995116,-0.978021978021978,0.0,0.96875,-2.84375,-7.741147741147741,1.4297924297924298,0.0,0.0,1.25,-2.375,-8.627594627594629,2.0085470085470085,0.0,0.0,1.6875,-1.96875,-8.053724053724054,2.4004884004884004,0.0,0.71875,1.9375,-1.21875,-6.568986568986569,2.039072039072039,-0.5873015873015873,0.0,1.5,-0.6875,-6.31990231990232,2.388278388278388,-0.8656898656898657,0.0,1.15625,-0.53125,-6.963369963369964,2.533577533577533,-1.3748473748473748,0.0,0.6875,0.0,,,,,,,,,,,,,,,,,,,,,,,,,,,,,,,,,,,,,,,,,,,,,,,,,,,,,,,,,,,,,wp_nextR
accX,5.203907203907204,-0.9926739926739928,-0.8437118437118437,1.03125,0.0,0.0,6.140415140415142,-1.5384615384615383,0.0,1.03125,0.0,0.0,6.550671550671551,-2.072039072039072,-0.9328449328449328,0.59375,0.0,-0.78125,5.868131868131868,-1.728937728937729,-1.382173382173382,0.0,0.0,-1.25,5.124542124542124,-1.8913308913308915,-1.4468864468864469,0.0,0.0,-1.65625,4.623931623931624,-1.4029304029304028,-1.0451770451770452,0.0,0.0,-2.03125,3.2039072039072036,-1.537240537240537,-1.362637362637363,-0.59375,0.0,-2.34375,2.4590964590964592,-1.6385836385836383,-1.277167277167277,-0.71875,0.0,-2.53125,1.637362637362637,-1.8180708180708183,-0.9426129426129426,-0.78125,0.53125,-2.71875,1.05006105006105,-2.217338217338217,0.0,-0.78125,0.71875,-2.875,1.020757020757021,-2.0354090354090357,0.0,-0.75,0.78125,-3.0625,0.0,-2.1611721611721606,0.0,-0.75,0.59375,-3.1875,0.0,-2.1135531135531136,0.0,-0.75,0.53125,-3.34375,-0.7777777777777778,-2.238095238095238,0.0,-0.65625,0.65625,-3.40625,-0.9194139194139194,-2.36019536019536,0.6410256410256411,0.0,1.0,-3.40625,0.0,-2.7106227106227108,0.8412698412698413,0.0,1.125,-3.34375,0.0,-3.2246642246642248,0.5323565323565324,0.0,1.03125,-3.4375,-0.5873015873015873,-3.417582417582417,0.0,0.0,0.8125,-3.75,-1.4847374847374848,-3.091575091575092,0.0,0.0,0.90625,-3.875,-1.975579975579976,-2.8925518925518925,0.0,0.0,1.15625,-3.90625,-2.213675213675214,-2.9108669108669107,0.0,0.0,1.21875,-3.75,-2.771672771672772,-2.509157509157509,0.6031746031746031,0.0,1.34375,-3.625,-2.621489621489621,-2.0134310134310134,0.7142857142857143,0.0,1.3125,-3.59375,-2.9706959706959712,-2.0195360195360195,0.0,0.0,1.25,-3.59375,-4.029304029304028,-1.6459096459096458,0.0,0.0,1.34375,-3.53125,-4.515262515262514,-0.9743589743589745,0.0,0.59375,1.4375,-3.21875,-4.938949938949938,-0.514041514041514,0.0,0.71875,1.625,-2.9375,-4.6361416361416365,-0.5067155067155067,0.0,0.84375,1.625,-2.75,-4.523809523809524,0.0,-0.5238095238095238,0.8125,1.4375,-2.6875,-5.984126984126984,0.7252747252747253,-0.536019536019536,0.6875,1.34375,-2.375,-5.885225885225887,1.3455433455433456,-0.5103785103785103,0.75,1.4375,-2.0,-5.5628815628815635,1.0964590964590966,-0.7423687423687424,0.8125,1.5,-1.625,-5.04029304029304,1.382173382173382,-0.6105006105006106,0.78125,1.4375,-1.375,-5.188034188034189,1.5006105006105006,-0.6263736263736264,0.71875,1.25,-1.25,-5.997557997557997,2.1257631257631258,-0.7301587301587301,0.625,1.0,-1.09375,-6.711843711843712,2.8058608058608057,-0.9181929181929182,0.53125,0.84375,-0.84375,-7.388278388278389,3.10989010989011,-1.0744810744810744,0.0,0.5625,0.0,-7.808302808302808,3.283272283272283,-1.4456654456654456,0.0,0.0,0.0,,,,,,,,,,,,,,,,,,,,,,,,,,,,,,,,,,,,,,,,,,,,,,,,,,,,,,,wp_nextR
accX,5.683760683760683,0.0,-1.2454212454212454,0.875,0.0,0.0,5.15995115995116,0.0,-1.612942612942613,0.6875,0.0,-0.5625,5.305250305250305,-0.811965811965812,-1.827838827838828,0.5625,0.0,-0.6875,5.642246642246642,-1.0793650793650793,-2.1807081807081805,0.0,0.625,-0.96875,5.3418803418803416,-1.363858363858364,-1.7692307692307692,0.0,0.59375,-1.46875,4.536019536019536,-1.5836385836385836,-1.2014652014652014,0.0,0.0,-1.90625,3.086691086691087,-1.9047619047619049,-0.6288156288156288,-0.5625,0.0,-2.1875,2.091575091575092,-1.5555555555555556,0.0,-0.75,0.53125,-2.375,1.5628815628815629,-1.2576312576312576,0.0,-0.6875,0.59375,-2.5,1.249084249084249,-1.5518925518925517,0.0,-0.59375,0.71875,-2.65625,1.0366300366300367,-1.9047619047619049,0.0,-0.53125,0.65625,-2.90625,0.0,-2.41025641025641,0.0,-0.5625,0.5625,-3.125,-0.7509157509157509,-2.3064713064713063,0.0,-0.75,0.5625,-3.21875,-1.2124542124542124,-2.0024420024420024,0.6227106227106227,-0.625,0.75,-3.21875,-1.0268620268620268,-2.144078144078144,1.0818070818070815,0.0,0.84375,-3.3125,-0.6568986568986569,-2.5641025641025643,1.1306471306471306,0.0,0.6875,-3.34375,-0.94993894993895,-3.0,0.9658119658119658,0.0,0.65625,-3.4375,-1.6117216117216118,-2.877899877899878,0.7216117216117216,0.0,0.65625,-3.5,-2.333333333333333,-2.409035409035409,0.9865689865689866,0.0,0.96875,-3.4375,-2.012210012210012,-2.1746031746031744,1.1367521367521367,0.0,1.0625,-3.3125,-1.6385836385836383,-2.361416361416361,1.293040293040293,0.0,0.9375,-3.25,-1.6459096459096458,-2.3821733821733817,0.8083028083028083,0.0,0.8125,-3.34375,-2.6092796092796093,-2.3638583638583643,0.514041514041514,0.0,0.84375,-3.34375,-3.192918192918193,-1.9194139194139197,0.5775335775335775,0.0,1.125,-3.21875,-2.9462759462759465,-1.6776556776556777,0.7350427350427351,0.0,1.1875,-2.96875,-2.681318681318681,-1.0195360195360197,0.0,0.625,1.21875,-2.9375,-3.0781440781440783,-1.1001221001221002,0.0,0.75,1.1875,-2.90625,-3.4945054945054945,0.0,-0.5677655677655677,0.78125,1.1875,-2.8125,-3.9328449328449326,0.0,0.0,0.84375,1.25,-2.65625,-3.8412698412698414,0.5885225885225885,0.0,0.9375,1.375,-2.46875,-3.938949938949939,0.0,-1.271062271062271,1.0,1.34375,-2.34375,-4.388278388278389,0.6971916971916972,-1.434676434676435,0.84375,1.1875,-2.21875,-4.984126984126983,1.5677655677655675,-1.2673992673992671,0.71875,1.0625,-2.09375,-5.688644688644688,1.9291819291819288,-1.2612942612942613,0.6875,1.09375,-1.8125,-5.9242979242979255,2.4310134310134313,-1.0915750915750917,0.65625,1.1875,-1.46875,-5.422466422466423,2.413919413919414,-1.3504273504273503,0.59375,1.0625,-1.0,-5.35042735042735,2.6129426129426134,-1.3846153846153846,0.0,0.84375,-0.84375,-5.666666666666668,3.0268620268620268,-1.1807081807081807,0.0,0.75,-0.59375,-5.487179487179486,3.5225885225885225,-1.2271062271062272,0.0,0.5625,0.0,-5.295482295482295,3.2515262515262515,-1.5067155067155067,0.0,0.0,0.0,-5.594627594627593,2.5286935286935286,-1.8266178266178263,0.0,0.0,0.0,,,,,,,,,,,,,,,,,,,,,,,,,,,,,,,,,,,,,wp_nextR
accX,6.1440781440781445,-2.0024420024420024,-0.6434676434676435,1.15625,0.0,0.9375,5.855921855921856,-2.1257631257631258,-1.0903540903540905,0.84375,0.0,0.53125,5.623931623931624,-1.619047619047619,-0.9706959706959708,0.53125,0.0,0.0,5.334554334554333,-1.338217338217338,-0.5396825396825397,0.0,0.0,0.0,5.724053724053724,-1.6019536019536018,-0.5641025641025641,0.0,0.0,-0.65625,5.875457875457876,-2.393162393162393,-1.115995115995116,0.0,0.0,-1.03125,5.62026862026862,-3.1074481074481075,-1.6446886446886446,0.0,0.0,-1.5,4.86935286935287,-3.1636141636141635,-1.2844932844932846,-0.71875,0.0,-2.34375,3.978021978021978,-2.956043956043956,-0.5470085470085471,-0.875,0.0,-2.78125,2.935286935286935,-2.8485958485958487,0.0,-0.9375,0.0,-3.09375,1.2735042735042734,-2.8803418803418803,0.0,-0.96875,0.0,-3.3125,0.0,-2.440781440781441,0.0,-0.875,0.53125,-3.34375,0.0,-2.3968253968253967,0.0,-0.6875,0.6875,-3.34375,0.0,-2.768009768009768,0.0,-0.59375,0.625,-3.4375,-0.7631257631257631,-3.4652014652014653,0.0,-0.65625,0.5625,-3.59375,-1.5628815628815629,-3.0354090354090357,0.7081807081807082,-0.59375,0.75,-3.625,-1.8180708180708183,-3.3492063492063493,0.7020757020757019,0.0,1.0,-3.5625,-1.5616605616605617,-3.498168498168498,0.7264957264957265,0.0,1.09375,-3.625,-1.6593406593406594,-3.2759462759462763,0.9291819291819292,0.0,1.09375,-3.625,-2.139194139194139,-2.6385836385836385,1.1807081807081807,0.0,0.875,-3.625,-2.600732600732601,-2.481074481074481,0.0,0.0,0.8125,-3.65625,-3.57997557997558,-2.4566544566544573,0.0,0.0,0.84375,-3.59375,-3.9975579975579976,-1.188034188034188,0.5067155067155067,0.0,1.125,-3.40625,-3.9645909645909647,-1.122100122100122,0.9035409035409036,0.53125,1.46875,-3.0625,-2.7484737484737485,-1.0708180708180708,0.6080586080586079,0.875,1.6875,-2.84375,-2.938949938949939,-1.3833943833943834,0.0,0.96875,1.5,-2.75,-3.312576312576313,-1.1343101343101345,0.0,0.875,1.34375,-2.78125,-4.018315018315018,-0.5079365079365079,0.0,0.84375,1.40625,-2.6875,-3.6617826617826617,0.0,0.0,1.03125,1.53125,-2.53125,-3.7496947496947497,0.0,-0.7594627594627594,1.09375,1.28125,-2.46875,-4.4444444444444455,0.0,-1.4371184371184371,0.90625,0.84375,-2.34375,-4.7094017094017095,1.3833943833943834,-1.4126984126984128,0.78125,0.84375,-2.1875,-5.472527472527473,2.043956043956044,-0.967032967032967,0.78125,1.0,-1.875,-5.338217338217338,2.5885225885225887,-0.9401709401709402,0.9375,1.125,-1.4375,-4.803418803418802,2.324786324786325,-1.5433455433455434,0.9375,1.25,-1.0,-3.7399267399267404,1.8644688644688645,-1.6581196581196582,0.78125,1.21875,-0.84375,-2.8241758241758244,1.5946275946275947,-1.4481074481074483,0.0,0.78125,-1.0,-4.0708180708180715,2.5262515262515257,-1.485958485958486,0.0,0.0,-1.03125,-6.473748473748474,3.3956043956043955,-1.6251526251526252,0.0,0.0,-0.6875,-8.123321123321121,3.3089133089133087,-1.5946275946275947,0.0,0.0,0.0,,,,,,,,,,,,,,,,,,,,,,,,,,,,,,,,,,,,,,,,,,,wp_nextR
accX,6.08058608058608,-2.4322344322344316,-1.3931623931623929,1.0625,0.0,0.90625,7.435897435897436,-2.398046398046398,-2.056166056166056,0.84375,0.0,0.0,7.545787545787546,-2.4236874236874235,-1.661782661782662,0.0,0.0,0.0,7.096459096459097,-2.1355311355311355,-0.6361416361416361,0.0,0.0,-0.71875,6.586080586080586,-2.3675213675213675,0.0,0.0,0.0,-1.1875,6.0317460317460325,-2.578754578754579,-0.8644688644688645,0.0,0.0,-1.65625,5.004884004884005,-2.7594627594627594,-1.3345543345543345,0.0,0.0,-2.125,3.5665445665445668,-2.311355311355311,-1.2234432234432235,-0.59375,0.0,-2.5,2.1416361416361416,-1.8937728937728937,-0.7484737484737485,-0.71875,0.0,-2.65625,1.5213675213675213,-1.6581196581196582,0.0,-0.65625,0.0,-2.71875,1.5103785103785103,-1.7130647130647132,0.0,0.0,0.0,-2.84375,0.7826617826617827,-2.783882783882784,-0.5384615384615384,-0.6875,0.0,-3.0625,0.0,-2.7008547008547015,0.0,-0.84375,0.625,-3.21875,-0.5714285714285714,-2.1343101343101343,0.5934065934065934,-0.75,0.6875,-3.21875,-1.192918192918193,-3.043956043956044,0.0,-0.53125,0.75,-3.21875,-1.4615384615384617,-3.3553113553113554,0.5177045177045178,0.0,0.9375,-3.28125,-1.2466422466422469,-3.021978021978022,1.0293040293040292,0.0,1.09375,-3.34375,-1.0415140415140416,-2.7350427350427347,0.9157509157509156,0.0,1.03125,-3.34375,-1.2026862026862026,-2.9511599511599518,0.0,0.0,0.8125,-3.4375,-2.0842490842490844,-2.761904761904762,0.0,0.0,0.71875,-3.5625,-2.7570207570207566,-1.94017094017094,0.6385836385836385,0.0,0.96875,-3.5,-3.0207570207570207,-1.297924297924298,0.5506715506715507,0.0,1.21875,-3.21875,-2.737484737484737,-0.9108669108669109,0.0,0.0,1.34375,-3.03125,-2.7802197802197797,-0.7521367521367521,0.0,0.53125,1.4375,-2.8125,-2.7387057387057387,-0.7118437118437119,0.0,0.625,1.53125,-2.75,-2.3663003663003663,0.0,0.0,0.78125,1.40625,-2.71875,-2.7985347985347984,0.0,-0.5470085470085471,0.6875,1.125,-2.75,-3.4945054945054945,0.0,-0.7411477411477412,0.0,1.0,-2.75,-3.8009768009768017,0.6483516483516484,0.0,0.53125,1.0,-2.65625,-2.9792429792429798,0.0,0.0,0.625,0.90625,-2.59375,-2.7924297924297923,0.7448107448107448,0.0,0.65625,0.625,-2.5,-3.6568986568986563,0.0,-0.5518925518925519,0.6875,0.75,-2.3125,-4.1159951159951165,1.2332112332112333,-0.8070818070818071,0.75,0.9375,-2.15625,-4.603174603174604,1.5665445665445663,-0.7338217338217338,0.6875,1.0,-2.0,-5.018315018315018,2.004884004884005,-0.6910866910866911,0.59375,0.875,-1.71875,-6.335775335775336,3.4444444444444446,0.0,0.6875,0.78125,-1.34375,-6.216117216117216,3.0415140415140414,-1.0366300366300367,0.75,0.84375,-0.96875,-6.08058608058608,3.192918192918193,-1.0525030525030523,0.5625,0.75,-0.6875,-5.818070818070817,3.4737484737484734,-1.264957264957265,0.0,0.5625,-0.53125,-6.362637362637362,3.748473748473749,-1.8925518925518925,0.0,0.0,0.0,-7.462759462759463,4.086691086691086,-2.240537240537241,0.0,0.0,0.0,-7.86080586080586,4.058608058608058,-2.551892551892552,0.0,0.0,0.53125,,,,,,,,,,,,,,,,,,,,,,,,,,,,,,,wp_nextR
accX,5.974358974358975,-1.1086691086691087,-1.2210012210012209,0.6875,0.0,0.0,6.0085470085470085,-1.155067155067155,-0.9621489621489622,0.65625,0.0,0.0,6.6593406593406606,-1.6251526251526252,-0.9426129426129426,0.53125,0.0,-0.90625,6.186813186813188,-1.673992673992674,-1.2173382173382172,0.0,0.0,-1.28125,4.598290598290598,-1.7081807081807079,-1.5128205128205128,0.0,0.0,-1.78125,3.913308913308913,-1.982905982905983,-1.8131868131868127,0.0,0.0,-2.03125,3.0463980463980462,-2.0366300366300365,-1.6642246642246643,0.0,0.65625,-2.28125,2.351648351648352,-2.1184371184371185,-1.2637362637362637,-0.65625,0.75,-2.46875,1.5409035409035412,-2.095238095238096,-0.7313797313797313,-0.75,0.8125,-2.625,1.1733821733821734,-2.0903540903540905,0.0,-0.71875,0.84375,-2.78125,0.0,-2.7545787545787546,0.0,-0.75,0.84375,-2.9375,0.0,-2.8131868131868134,0.0,-0.78125,0.84375,-3.09375,-1.0134310134310134,-2.8974358974358974,0.0,-0.78125,0.9375,-3.15625,-1.1538461538461535,-2.7973137973137967,0.9829059829059827,-0.65625,1.0625,-3.1875,-0.9511599511599512,-2.9072039072039066,1.1684981684981686,0.0,1.09375,-3.25,-1.3516483516483515,-3.553113553113553,0.5225885225885226,0.0,0.96875,-3.375,-1.9951159951159951,-3.457875457875458,0.0,0.0,0.84375,-3.40625,-2.291819291819292,-2.9438339438339436,0.6324786324786325,0.0,1.0,-3.375,-2.1855921855921854,-2.9059829059829063,0.6776556776556777,0.0,1.0625,-3.4375,-2.0476190476190474,-2.8571428571428568,0.0,0.0,0.84375,-3.53125,-3.3015873015873014,-2.8034188034188032,0.0,0.0,0.84375,-3.40625,-4.018315018315018,-1.8632478632478635,0.7887667887667887,0.0,1.21875,-3.125,-3.7240537240537237,-1.5641025641025639,1.175824175824176,0.0,1.5625,-2.90625,-2.9682539682539684,-1.7484737484737485,0.9304029304029304,0.5625,1.5625,-2.84375,-2.9023199023199022,-1.8559218559218558,0.0,0.5625,1.3125,-2.78125,-3.15995115995116,-1.2503052503052503,0.6178266178266179,0.59375,1.3125,-2.75,-3.2344322344322345,-1.0012210012210012,0.7496947496947497,0.75,1.375,-2.6875,-2.3772893772893773,0.0,0.0,0.875,1.125,-2.65625,-3.851037851037851,-0.5262515262515263,-0.7240537240537241,0.75,1.0,-2.59375,-4.378510378510379,0.7094017094017094,-0.5054945054945055,0.71875,1.0625,-2.4375,-5.277167277167277,1.4517704517704515,0.0,0.78125,1.0625,-2.15625,-5.487179487179486,2.3638583638583643,0.0,0.84375,1.03125,-1.78125,-5.42002442002442,3.0170940170940175,-1.0183150183150182,0.9375,0.96875,-1.40625,-5.967032967032968,2.6153846153846154,-2.275946275946276,0.90625,0.84375,-1.09375,-5.973137973137972,3.3382173382173383,-2.399267399267399,0.625,0.84375,-0.875,-5.877899877899878,3.9951159951159956,-1.9072039072039075,0.0,0.75,-0.59375,-5.438339438339439,3.8485958485958487,-1.6691086691086692,0.0,0.59375,0.0,-5.258852258852259,3.289377289377289,-1.6068376068376071,0.0,0.0,0.0,-5.108669108669108,3.102564102564102,-1.321123321123321,0.0,0.0,0.0,-5.326007326007327,3.144078144078144,-0.9096459096459096,0.0,0.0,0.0,-6.023199023199023,3.1343101343101343,-0.8559218559218559,-0.78125,0.0,0.8125,,,,,,,,,,,,,,,,,,,,,,,,,,,,,,,,,,,,,wp_nextR
accX,5.722832722832723,-1.1123321123321124,0.0,0.90625,0.0,0.53125,5.528693528693529,-2.1538461538461537,0.0,0.9375,0.0,0.0,5.852258852258853,-2.004884004884005,-0.9133089133089132,0.59375,0.0,0.0,5.7313797313797314,-1.7777777777777777,-1.4835164835164836,0.0,0.0,-0.6875,5.482295482295481,-1.9938949938949944,-1.5995115995115996,0.0,0.0,-0.96875,5.166056166056166,-1.9719169719169718,-1.31990231990232,0.0,0.0,-1.375,4.2002442002442,-2.056166056166056,-0.8302808302808303,0.0,0.0,-1.75,3.5506715506715505,-2.236874236874237,0.0,0.0,0.0,-2.125,2.667887667887668,-2.7081807081807083,0.0,-0.65625,0.5625,-2.5625,2.3724053724053724,-2.376068376068376,0.0,-0.625,0.0,-2.84375,1.95970695970696,-2.8852258852258847,0.0,-0.71875,0.0,-3.125,1.3540903540903542,-3.0927960927960934,0.0,-0.8125,0.0,-3.4375,0.0,-3.1147741147741153,0.0,-0.875,0.0,-3.65625,-1.021978021978022,-3.0244200244200243,0.0,-0.875,0.0,-3.65625,-2.128205128205128,-2.148962148962149,0.6349206349206349,-0.5625,0.84375,-3.4375,-1.6007326007326008,-2.683760683760684,0.7264957264957265,0.0,1.3125,-3.1875,0.0,-2.934065934065934,0.989010989010989,0.0,1.28125,-3.21875,0.0,-3.1538461538461537,0.0,0.0,0.96875,-3.46875,-1.0622710622710625,-3.6984126984126986,0.0,0.0,0.8125,-3.6875,-2.238095238095238,-2.231990231990232,0.6605616605616605,0.0,1.0,-3.625,-2.23931623931624,-1.8925518925518925,0.8693528693528694,0.0,1.21875,-3.3125,-2.3443223443223444,-2.0305250305250304,0.0,0.0,1.1875,-3.3125,-2.717948717948718,-1.9914529914529917,0.0,0.0,1.1875,-3.28125,-2.9230769230769234,-1.5592185592185592,0.0,0.0,1.28125,-3.15625,-2.9426129426129437,-1.0732600732600732,0.0,0.71875,1.375,-3.125,-3.8424908424908426,-0.7240537240537241,0.0,0.875,1.3125,-2.96875,-4.438339438339439,-0.8974358974358975,0.0,0.96875,1.46875,-2.78125,-4.197802197802199,-0.5238095238095238,0.0,1.0,1.59375,-2.5625,-3.52991452991453,0.0,0.0,1.125,1.625,-2.34375,-3.683760683760684,0.0,0.0,1.28125,1.5625,-2.15625,-3.5543345543345537,0.0,-0.5347985347985348,1.34375,1.53125,-2.0625,-3.3772893772893773,0.0,-1.2808302808302807,1.21875,1.28125,-2.21875,-4.252747252747253,0.0,-1.8229548229548234,0.8125,0.59375,-2.25,-5.0866910866910855,1.4835164835164836,-1.575091575091575,0.65625,0.0,-2.15625,-6.047619047619048,2.0781440781440783,-1.3028083028083028,0.625,0.0,-1.875,-5.831501831501831,2.0073260073260077,-1.884004884004884,0.59375,0.0,-1.46875,-5.943833943833944,2.33943833943834,-1.78021978021978,0.53125,0.5625,-1.09375,-5.818070818070817,2.3418803418803416,-1.6483516483516485,0.0,0.71875,-0.625,-5.481074481074481,2.56043956043956,-1.5604395604395604,0.0,0.6875,0.0,-5.908424908424909,2.9792429792429798,-1.6678876678876684,0.0,0.0,0.0,-6.683760683760683,3.173382173382173,-1.844932844932845,0.0,0.0,0.0,-7.578754578754578,3.3028083028083026,-1.7765567765567765,-0.53125,0.0,0.875,-7.545787545787546,4.877899877899878,-1.1074481074481075,0.0,0.0,1.0625,-6.550671550671551,3.2283272283272284,-1.2576312576312576,0.0,0.0,1.6875,,,,,,,,,,,,,,,,,,,wp_nextR
accX,6.975579975579977,-2.6385836385836385,-0.8070818070818071,0.0,0.0,-0.78125,6.344322344322344,-2.33943833943834,-0.6800976800976801,0.0,0.0,-1.375,5.797313797313797,-2.289377289377289,-0.5677655677655677,0.0,0.0,-1.84375,4.914529914529915,-2.1111111111111107,0.0,0.0,0.0,-2.15625,3.7997557997558,-1.9633699633699635,-0.9706959706959708,0.0,0.0,-2.375,2.4664224664224665,-2.3272283272283274,-1.3968253968253967,0.0,0.0,-2.53125,1.7692307692307692,-2.6129426129426134,-1.137973137973138,0.0,0.71875,-2.75,1.6678876678876684,-2.84981684981685,0.0,0.0,0.78125,-2.9375,1.398046398046398,-2.881562881562881,0.0,-0.5625,0.0,-3.15625,0.0,-3.1684981684981683,0.0,-0.8125,0.0,-3.375,-0.6410256410256411,-2.4603174603174605,0.0,-0.84375,0.0,-3.46875,-1.7216117216117215,-2.1367521367521367,0.5970695970695971,-0.59375,0.65625,-3.40625,-0.851037851037851,-2.4590964590964592,0.8620268620268621,0.0,1.09375,-3.28125,-0.9731379731379732,-2.9706959706959712,0.0,0.0,0.71875,-3.25,-1.2942612942612943,-2.562881562881563,0.0,0.0,0.0,-3.5,-2.131868131868132,-1.752136752136752,0.7008547008547008,0.0,0.0,-3.625,-2.7106227106227108,-1.7008547008547008,0.5433455433455433,0.0,0.75,-3.5625,-2.064713064713065,-1.8070818070818069,0.0,0.0,0.90625,-3.4375,-2.625152625152625,-1.5873015873015872,0.0,0.0,0.78125,-3.25,-2.8034188034188032,-1.1013431013431014,0.57997557997558,0.0,0.78125,-3.28125,-2.9047619047619047,-0.6715506715506715,0.8034188034188035,0.0,0.875,-3.25,-2.769230769230769,-0.7704517704517705,0.0,0.0,1.0,-3.21875,-3.388278388278388,-1.4615384615384617,0.0,0.0,0.875,-3.0625,-3.628815628815629,-0.7875457875457875,0.0,0.0,0.90625,-2.96875,-3.8302808302808304,0.0,0.0,0.0,1.0,-2.78125,-4.026862026862027,0.0,0.0,0.5625,1.21875,-2.65625,-3.3675213675213675,-0.5665445665445665,0.0,0.65625,1.3125,-2.5,-2.8608058608058613,0.0,0.0,0.75,1.15625,-2.34375,-3.023199023199023,-0.5787545787545788,0.0,0.625,1.09375,-2.375,-2.8192918192918195,0.0,-1.2576312576312576,0.0,0.875,-2.3125,-3.611721611721612,0.7484737484737485,-1.6300366300366298,0.0,0.84375,-2.34375,-3.937728937728938,1.6691086691086692,-1.266178266178266,0.0,0.90625,-2.28125,-4.520146520146519,1.8351648351648349,-1.1123321123321124,0.53125,1.09375,-2.15625,-4.813186813186814,1.0097680097680095,-1.391941391941392,0.0,0.8125,-1.53125,-5.738705738705739,1.5885225885225884,-1.1355311355311355,0.0,1.09375,-1.25,-5.03052503052503,2.6910866910866917,0.0,0.0,0.9375,-0.90625,-5.373626373626373,2.8083028083028077,0.0,0.0,0.78125,-0.875,-5.782661782661783,2.231990231990232,-0.5372405372405372,0.0,0.75,-0.90625,-7.481074481074481,1.8864468864468864,-1.0683760683760684,0.0,0.0,0.0,-8.097680097680097,3.1074481074481075,0.0,0.0,0.0,0.0,-7.492063492063493,2.1074481074481075,0.0,0.0,0.0,0.9375,-6.974358974358975,1.534798534798535,-0.934065934065934,-0.625,0.0,1.53125,,,,,,,,,,,,,,,,,,,,,,,,,,,,,,,wp_nextR
