,00_accX,00_accY,00_accZ,00_gyroX,00_gyroY,00_gyroZ,01_accX,01_accY,01_accZ,01_gyroX,01_gyroY,01_gyroZ,02_accX,02_accY,02_accZ,02_gyroX,02_gyroY,02_gyroZ,03_accX,03_accY,03_accZ,03_gyroX,03_gyroY,03_gyroZ,04_accX,04_accY,04_accZ,04_gyroX,04_gyroY,04_gyroZ,05_accX,05_accY,05_accZ,05_gyroX,05_gyroY,05_gyroZ,06_accX,06_accY,06_accZ,06_gyroX,06_gyroY,06_gyroZ,07_accX,07_accY,07_accZ,07_gyroX,07_gyroY,07_gyroZ,08_accX,08_accY,08_accZ,08_gyroX,08_gyroY,08_gyroZ,09_accX,09_accY,09_accZ,09_gyroX,09_gyroY,09_gyroZ,10_accX,10_accY,10_accZ,10_gyroX,10_gyroY,10_gyroZ,11_accX,11_accY,11_accZ,11_gyroX,11_gyroY,11_gyroZ,12_accX,12_accY,12_accZ,12_gyroX,12_gyroY,12_gyroZ,13_accX,13_accY,13_accZ,13_gyroX,13_gyroY,13_gyroZ,14_accX,14_accY,14_accZ,14_gyroX,14_gyroY,14_gyroZ,15_accX,15_accY,15_accZ,15_gyroX,15_gyroY,15_gyroZ,16_accX,16_accY,16_accZ,16_gyroX,16_gyroY,16_gyroZ,17_accX,17_accY,17_accZ,17_gyroX,17_gyroY,17_gyroZ,18_accX,18_accY,18_accZ,18_gyroX,18_gyroY,18_gyroZ,19_accX,19_accY,19_accZ,19_gyroX,19_gyroY,19_gyroZ,20_accX,20_accY,20_accZ,20_gyroX,20_gyroY,20_gyroZ,21_accX,21_accY,21_accZ,21_gyroX,21_gyroY,21_gyroZ,22_accX,22_accY,22_accZ,22_gyroX,22_gyroY,22_gyroZ,23_accX,23_accY,23_accZ,23_gyroX,23_gyroY,23_gyroZ,24_accX,24_accY,24_accZ,24_gyroX,24_gyroY,24_gyroZ,25_accX,25_accY,25_accZ,25_gyroX,25_gyroY,25_gyroZ,26_accX,26_accY,26_accZ,26_gyroX,26_gyroY,26_gyroZ,27_accX,27_accY,27_accZ,27_gyroX,27_gyroY,27_gyroZ,28_accX,28_accY,28_accZ,28_gyroX,28_gyroY,28_gyroZ,29_accX,29_accY,29_accZ,29_gyroX,29_gyroY,29_gyroZ,30_accX,30_accY,30_accZ,30_gyroX,30_gyroY,30_gyroZ,31_accX,31_accY,31_accZ,31_gyroX,31_gyroY,31_gyroZ,32_accX,32_accY,32_accZ,32_gyroX,32_gyroY,32_gyroZ,33_accX,33_accY,33_accZ,33_gyroX,33_gyroY,33_gyroZ,34_accX,34_accY,34_accZ,34_gyroX,34_gyroY,34_gyroZ,35_accX,35_accY,35_accZ,35_gyroX,35_gyroY,35_gyroZ,36_accX,36_accY,36_accZ,36_gyroX,36_gyroY,36_gyroZ,37_accX,37_accY,37_accZ,37_gyroX,37_gyroY,37_gyroZ,38_accX,38_accY,38_accZ,38_gyroX,38_gyroY,38_gyroZ,39_accX,39_accY,39_accZ,39_gyroX,39_gyroY,39_gyroZ,40_accX,40_accY,40_accZ,40_gyroX,40_gyroY,40_gyroZ,41_accX,41_accY,41_accZ,41_gyroX,41_gyroY,41_gyroZ,42_accX,42_accY,42_accZ,42_gyroX,42_gyroY,42_gyroZ,43_accX,43_accY,43_accZ,43_gyroX,43_gyroY,43_gyroZ,44_accX,44_accY,44_accZ,44_gyroX,44_gyroY,44_gyroZ,45_accX,45_accY,45_accZ,45_gyroX,45_gyroY,45_gyroZ,46_accX,46_accY,46_accZ,46_gyroX,46_gyroY,46_gyroZ,47_accX,47_accY,47_accZ,47_gyroX,47_gyroY,47_gyroZ,48_accX,48_accY,48_accZ,48_gyroX,48_gyroY,48_gyroZ,49_accX,49_accY,49_accZ,49_gyroX,49_gyroY,49_gyroZ,50_accX,50_accY,50_accZ,50_gyroX,50_gyroY,50_gyroZ,51_accX,51_accY,51_accZ,51_gyroX,51_gyroY,51_gyroZ,52_accX,52_accY,52_accZ,52_gyroX,52_gyroY,52_gyroZ,53_accX,53_accY,53_accZ,53_gyroX,53_gyroY,53_gyroZ,54_accX,54_accY,54_accZ,54_gyroX,54_gyroY,54_gyroZ,55_accX,55_accY,55_accZ,55_gyroX,55_gyroY,55_gyroZ,56_accX,56_accY,56_accZ,56_gyroX,56_gyroY,56_gyroZ,57_accX,57_accY,57_accZ,57_gyroX,57_gyroY,57_gyroZ,58_accX,58_accY,58_accZ,58_gyroX,58_gyroY,58_gyroZ,59_accX,59_accY,59_accZ,59_gyroX,59_gyroY,59_gyroZ,60_accX,60_accY,60_accZ,60_gyroX,60_gyroY,60_gyroZ,61_accX,61_accY,61_accZ,61_gyroX,61_gyroY,61_gyroZ,62_accX,62_accY,62_accZ,62_gyroX,62_gyroY,62_gyroZ,63_accX,63_accY,63_accZ,63_gyroX,63_gyroY,63_gyroZ,64_accX,64_accY,64_accZ,64_gyroX,64_gyroY,64_gyroZ,65_accX,65_accY,65_accZ,65_gyroX,65_gyroY,65_gyroZ,66_accX,66_accY,66_accZ,66_gyroX,66_gyroY,66_gyroZ,67_accX,67_accY,67_accZ,67_gyroX,67_gyroY,67_gyroZ,68_accX,68_accY,68_accZ,68_gyroX,68_gyroY,68_gyroZ,69_accX,69_accY,69_accZ,69_gyroX,69_gyroY,69_gyroZ,70_accX,70_accY,70_accZ,70_gyroX,70_gyroY,70_gyroZ,71_accX,71_accY,71_accZ,71_gyroX,71_gyroY,71_gyroZ,72_accX,72_accY,72_accZ,72_gyroX,72_gyroY,72_gyroZ,73_accX,73_accY,73_accZ,73_gyroX,73_gyroY,73_gyroZ,74_accX,74_accY,74_accZ,74_gyroX,74_gyroY,74_gyroZ,75_accX,75_accY,75_accZ,75_gyroX,75_gyroY,75_gyroZ,76_accX,76_accY,76_accZ,76_gyroX,76_gyroY,76_gyroZ,77_accX,77_accY,77_accZ,77_gyroX,77_gyroY,77_gyroZ,78_accX,78_accY,78_accZ,78_gyroX,78_gyroY,78_gyroZ,79_accX,79_accY,79_accZ,79_gyroX,79_gyroY,79_gyroZ,category
accX,0.0,0.0,0.5811965811965812,0.0,0.0,0.0,-0.6105006105006106,0.0,0.0,0.0,0.0,0.0,-0.7667887667887668,0.0,0.5079365079365079,0.0,0.0,0.0,-1.0463980463980465,0.0,0.5274725274725275,0.0,0.0,0.0,-1.6886446886446886,0.0,0.0,0.0,0.0,0.0,-2.1233211233211238,0.5677655677655677,0.0,0.0,0.0,0.5625,-2.4029304029304033,0.9804639804639804,0.0,0.0,0.0,0.75,-2.694749694749695,1.2087912087912087,-0.873015873015873,0.53125,0.0,1.09375,-3.294261294261294,1.4993894993894994,-2.268620268620269,0.0,0.0,1.34375,-2.816849816849817,1.4273504273504274,-2.6630036630036633,0.0,0.0,1.5625,-2.3907203907203907,1.3833943833943834,-3.236874236874237,0.0,0.0,1.71875,-1.5335775335775337,1.2527472527472527,-4.086691086691086,0.0,0.0,1.84375,-1.536019536019536,1.338217338217338,-5.253968253968254,0.0,-0.6875,2.0,-1.1514041514041513,1.2820512820512822,-5.9010989010989015,0.0,-0.75,2.21875,0.0,0.7960927960927959,-6.536019536019536,0.0,-0.625,2.375,1.10989010989011,0.0,-7.2918192918192934,-0.625,0.0,2.46875,2.593406593406593,-0.9181929181929182,-8.03052503052503,-0.875,0.0,2.5,4.0256410256410255,-1.9096459096459095,-8.575091575091575,-1.21875,-0.53125,2.46875,4.361416361416361,-3.0415140415140414,-9.476190476190476,-1.6875,0.0,2.21875,5.484737484737486,-3.7509157509157514,-9.302808302808305,-2.25,0.0,1.90625,6.881562881562883,-4.557997557997559,-8.532356532356532,-2.46875,0.0,1.65625,7.496947496947497,-5.457875457875458,-7.561660561660561,-2.625,0.0,1.40625,7.612942612942611,-7.089133089133089,-6.61050061050061,-2.8125,0.0,1.15625,7.0769230769230775,-8.959706959706962,-5.7142857142857135,-3.15625,0.75,0.75,6.409035409035409,-9.810744810744813,-4.052503052503051,-3.3125,1.375,0.0,6.21978021978022,-10.406593406593409,-1.5665445665445663,-3.25,1.78125,0.0,5.7203907203907205,-11.021978021978024,0.7472527472527473,-3.125,1.9375,0.0,5.085470085470085,-10.663003663003662,3.0293040293040288,-2.84375,1.9375,-0.71875,4.16971916971917,-10.247863247863249,4.53968253968254,-2.46875,1.96875,-1.0,3.568986568986569,-10.282051282051283,5.633699633699634,-2.0625,1.875,-1.375,2.244200244200244,-10.091575091575091,6.262515262515263,-1.71875,1.90625,-1.78125,0.7081807081807082,-8.098901098901099,7.272283272283273,-1.15625,2.03125,-2.28125,-0.6605616605616605,-7.603174603174603,6.965811965811965,-0.6875,2.0625,-2.5,-1.5030525030525033,-7.500610500610501,6.644688644688644,0.0,2.09375,-2.65625,-1.4676434676434675,-6.8339438339438345,6.90964590964591,0.0,1.9375,-2.71875,-2.2783882783882783,-5.971916971916972,6.652014652014652,0.0,1.625,-2.78125,-2.9975579975579976,-5.443223443223443,5.912087912087912,0.84375,1.46875,-2.8125,-3.1843711843711837,-5.068376068376068,5.630036630036631,1.21875,1.34375,-2.71875,-3.1648351648351647,-4.814407814407813,5.307692307692308,1.4375,1.25,-2.65625,-3.673992673992674,-3.7704517704517695,4.818070818070818,1.78125,1.21875,-2.59375,-3.85958485958486,-3.5470085470085464,4.3992673992674005,2.1875,1.125,-2.46875,-4.046398046398046,-3.5543345543345537,3.8669108669108665,2.46875,1.0,-2.28125,-4.553113553113553,-2.2722832722832718,3.23931623931624,2.6875,0.71875,-1.875,-5.124542124542124,-1.6141636141636142,2.131868131868132,2.78125,0.0,-1.5,-5.338217338217338,-0.8412698412698413,1.072039072039072,2.8125,0.0,-1.15625,-6.400488400488402,0.0,0.0,2.96875,0.0,-0.75,-6.963369963369964,0.0,-1.4578754578754578,3.09375,0.0,0.0,-5.68009768009768,0.0,-2.05982905982906,2.9375,0.0,0.0,-3.456654456654457,-1.0024420024420024,-2.351648351648352,2.5625,0.0,0.0,-2.5750915750915757,0.0,-2.7643467643467643,2.40625,0.0,0.5625,-2.3565323565323566,0.0,-3.6984126984126986,2.4375,0.0,0.65625,-1.9914529914529917,0.0,-4.708180708180708,2.25,0.0,0.84375,-1.3699633699633702,0.0,-5.16971916971917,1.875,0.0,0.96875,-0.557997557997558,0.0,-4.5848595848595854,1.5625,0.0,1.09375,1.5177045177045176,0.5702075702075702,-3.4627594627594624,1.53125,0.0,1.21875,1.5079365079365081,0.0,-4.407814407814408,1.5,0.0,1.25,1.661782661782662,0.0,-4.910866910866911,1.21875,0.0,1.25,1.8070818070818069,0.0,-4.623931623931624,0.78125,0.0,1.25,2.763125763125763,0.8241758241758241,-3.525030525030525,0.0,0.0,1.25,3.4932844932844933,1.0158730158730158,-2.8669108669108665,0.0,0.0,1.25,3.8034188034188032,0.0,-2.8217338217338215,0.0,0.0,1.1875,3.844932844932845,0.0,-2.7570207570207566,0.0,0.0,1.03125,4.163614163614163,-0.5567765567765568,-2.3821733821733817,0.0,0.0,0.875,4.153846153846153,-0.5091575091575091,-1.6984126984126984,0.0,0.0,0.6875,4.062271062271062,0.0,-0.8644688644688645,0.0,0.0,0.0,3.3296703296703303,0.0,-0.5421245421245421,0.0,0.0,0.0,2.5970695970695967,0.0,0.0,0.0,0.0,0.0,1.7435897435897436,0.0,0.0,0.0,0.0,0.0,1.5152625152625152,0.0,0.0,0.0,0.0,0.0,0.8498168498168498,0.0,0.0,0.0,0.0,0.0,0.6520146520146519,0.0,0.0,0.0,0.0,0.0,0.0,0.0,0.0,0.0,0.0,0.0,0.0,0.0,0.0,0.0,0.0,0.0,0.5787545787545788,0.0,0.0,0.0,0.0,0.0,0.5714285714285714,0.0,0.0,0.0,0.0,0.0,0.0,0.0,0.0,0.0,0.0,0.0,0.0,0.0,0.0,0.0,0.0,0.0,0.0,0.0,0.0,0.0,0.0,0.0,0.0,0.0,0.0,0.0,0.0,0.0,0.0,0.0,0.0,0.0,0.0,0.0,wp_del
accX,0.0,0.0,0.0,0.0,0.0,0.0,0.0,0.0,0.0,0.0,0.0,0.0,0.0,0.0,0.0,0.0,0.0,0.0,0.0,0.0,0.5006105006105006,0.0,0.0,0.0,0.0,0.0,0.514041514041514,0.0,0.0,0.0,-0.8424908424908425,0.0,0.6019536019536019,0.0,0.0,0.0,-1.4945054945054943,0.0,0.7973137973137974,0.0,0.0,0.0,-1.844932844932845,0.0,0.8095238095238095,0.0,0.0,0.0,-2.36019536019536,0.0,0.0,0.0,0.0,0.0,-3.323565323565324,0.6349206349206349,0.0,0.53125,0.0,0.5625,-4.4444444444444455,1.0488400488400489,-1.1172161172161172,0.59375,0.0,0.78125,-4.764346764346763,1.5470085470085468,-1.57997557997558,0.65625,0.0,1.03125,-4.507936507936508,1.7777777777777777,-2.0989010989010994,0.6875,0.0,1.28125,-3.844932844932845,1.4175824175824177,-2.877899877899878,0.0,0.0,1.53125,-3.7606837606837606,1.8034188034188037,-3.485958485958486,0.0,0.0,1.78125,-3.926739926739927,2.117216117216117,-4.553113553113553,0.0,0.0,2.0,-3.1965811965811968,1.8827838827838828,-5.694749694749695,0.0,0.0,2.21875,-1.6153846153846154,1.1794871794871795,-6.868131868131868,0.0,0.0,2.40625,0.0,0.0,-8.113553113553113,-0.75,0.0,2.53125,1.1477411477411477,0.0,-9.33943833943834,-1.21875,-0.65625,2.5625,2.4236874236874235,-0.9804639804639804,-10.158730158730158,-1.5625,-0.65625,2.53125,3.584859584859585,-2.311355311355311,-10.985347985347984,-1.84375,0.0,2.46875,5.295482295482295,-5.15995115995116,-11.223443223443224,-2.28125,0.0,2.34375,6.710622710622711,-7.954822954822955,-10.616605616605616,-2.84375,0.0,2.0625,6.233211233211232,-8.694749694749694,-9.144078144078145,-3.28125,0.0,1.75,5.566544566544566,-9.225885225885225,-6.9230769230769225,-3.4375,1.0625,1.46875,6.361416361416361,-10.25885225885226,-3.710622710622711,-3.46875,1.53125,1.125,6.703296703296704,-11.416361416361413,-1.3699633699633702,-3.5,1.75,0.75,6.203907203907204,-11.699633699633699,0.7289377289377289,-3.375,1.96875,0.0,5.368742368742368,-11.388278388278387,2.7423687423687424,-2.90625,2.21875,0.0,4.15995115995116,-9.586080586080586,6.616605616605615,-2.40625,2.28125,-0.875,3.272283272283272,-9.300366300366301,7.503052503052503,-1.9375,2.21875,-1.3125,2.6825396825396823,-8.656898656898656,8.039072039072039,-1.59375,2.0625,-1.71875,1.7789987789987791,-7.549450549450549,8.382173382173383,-1.1875,1.9375,-2.03125,0.5494505494505495,-7.207570207570207,8.107448107448107,-0.65625,1.8125,-2.3125,-0.5921855921855922,-6.697191697191697,7.544566544566544,0.0,1.78125,-2.53125,-0.9743589743589745,-6.568986568986569,7.0586080586080575,0.0,1.75,-2.65625,-1.1538461538461535,-6.244200244200244,6.90964590964591,0.0,1.5,-2.75,-2.9181929181929176,-5.208791208791209,6.415140415140415,0.6875,1.3125,-2.875,-3.5836385836385842,-4.271062271062272,6.048840048840049,1.125,1.34375,-2.8125,-3.89010989010989,-3.935286935286935,5.609279609279609,1.59375,1.34375,-2.75,-4.185592185592186,-3.2844932844932844,4.87057387057387,2.09375,1.0,-2.4375,-4.656898656898657,-2.9181929181929176,3.7094017094017095,2.25,0.78125,-2.25,-5.03052503052503,-2.3638583638583643,2.975579975579976,2.40625,0.65625,-1.96875,-4.526251526251526,-2.122100122100122,2.5665445665445668,2.4375,0.0,-1.78125,-5.164835164835165,-0.6666666666666666,1.656898656898657,2.71875,0.0,-1.5,-5.0024420024420015,0.0,0.6813186813186813,2.875,0.0,-1.09375,-4.306471306471306,-1.0818070818070815,0.0,2.78125,0.0,-0.75,-4.87912087912088,-0.5946275946275946,-1.1172161172161172,2.65625,0.0,-0.5625,-4.117216117216117,-0.6959706959706959,-2.0659340659340657,2.53125,0.0,0.0,-3.555555555555556,0.0,-2.31990231990232,2.40625,0.0,0.0,-2.1794871794871797,0.0,-1.9242979242979243,2.28125,0.0,0.0,-2.0744810744810747,0.0,-2.3089133089133087,2.25,0.0,0.0,-1.6459096459096458,0.0,-3.1391941391941387,2.03125,0.0,0.0,-1.709401709401709,0.0,-3.7509157509157514,1.84375,0.0,0.5625,0.0,0.0,-4.37973137973138,1.6875,0.0,0.8125,0.0,0.0,-4.838827838827839,1.4375,0.0,0.96875,0.0,0.0,-5.148962148962148,1.15625,0.0,1.0625,0.0,0.0,-4.7936507936507935,0.9375,0.0,1.09375,1.1245421245421243,0.0,-3.9975579975579976,0.78125,0.0,1.15625,2.102564102564102,0.0,-3.5347985347985347,0.65625,0.0,1.15625,2.527472527472528,0.0,-3.3272283272283274,0.53125,0.0,1.125,2.4017094017094016,0.0,-3.1037851037851034,0.0,0.0,1.09375,2.5995115995116,0.0,-2.4737484737484743,0.0,0.0,1.03125,3.2466422466422467,0.0,-1.7777777777777777,0.0,0.0,0.875,3.8937728937728937,-0.7057387057387058,-1.2637362637362637,0.0,0.0,0.75,3.717948717948718,-0.6593406593406593,-0.9145299145299144,0.0,0.0,0.59375,3.225885225885226,-0.6727716727716728,-0.7509157509157509,0.0,0.0,0.0,2.952380952380953,-0.6862026862026862,-0.6385836385836385,0.0,0.0,0.0,2.6263736263736264,-0.5787545787545788,0.0,0.0,0.0,0.0,2.614163614163614,-0.6825396825396826,0.0,0.0,0.0,0.0,2.073260073260073,0.0,0.0,0.0,0.0,0.0,1.286935286935287,0.0,0.0,0.0,0.0,0.0,0.9072039072039072,0.0,0.0,0.0,0.0,0.0,0.6446886446886447,0.0,0.0,0.0,0.0,0.0,0.5982905982905983,0.0,0.0,0.0,0.0,0.0,0.0,0.0,0.0,0.0,0.0,0.0,0.0,0.0,0.0,0.0,0.0,0.0,0.0,0.0,0.0,0.0,0.0,0.0,0.0,0.0,0.0,0.0,0.0,0.0,wp_del
accX,0.0,0.0,0.0,0.0,0.0,0.0,0.0,0.0,0.0,0.0,0.0,0.0,0.0,0.0,0.0,0.0,0.0,0.0,0.0,0.0,0.0,0.0,0.0,0.0,0.0,0.0,0.0,0.0,0.0,0.0,0.0,0.0,0.0,0.0,0.0,0.0,-1.051282051282051,0.0,0.0,0.0,0.0,0.0,-1.9023199023199024,0.0,0.0,0.0,0.0,0.0,-2.346764346764347,0.6605616605616605,0.8131868131868132,0.0,0.0,0.0,-3.326007326007326,0.9389499389499391,0.9450549450549449,0.0,0.0,0.59375,-4.905982905982906,1.4163614163614164,0.7741147741147741,0.59375,0.0,0.875,-5.942612942612943,2.2771672771672766,0.5091575091575091,0.625,0.0,1.15625,-6.117216117216118,2.3162393162393164,0.0,0.71875,0.0,1.53125,-6.20879120879121,1.9010989010989008,-2.3382173382173383,0.8125,0.0,1.875,-5.0085470085470085,1.1404151404151404,-3.991452991452992,0.75,0.0,2.1875,-3.8058608058608057,0.6849816849816851,-5.396825396825397,0.0,0.0,2.4375,-2.1086691086691087,0.0,-6.7435897435897445,0.0,0.0,2.625,-1.0573870573870574,0.0,-8.174603174603174,0.0,0.0,2.78125,0.5531135531135531,-0.5225885225885226,-9.233211233211232,-0.84375,0.0,2.90625,2.934065934065934,-1.534798534798535,-10.263736263736263,-1.0625,0.0,2.875,5.146520146520147,-3.245421245421245,-11.206349206349206,-1.375,0.0,2.71875,6.1440781440781445,-5.056166056166056,-11.77899877899878,-2.125,0.0,2.3125,6.407814407814407,-6.206349206349207,-10.841269841269842,-2.6875,0.0,2.03125,6.584859584859585,-6.678876678876679,-8.814407814407815,-2.96875,0.59375,1.6875,7.2295482295482305,-7.811965811965813,-6.565323565323565,-3.25,0.875,1.34375,7.328449328449326,-8.746031746031745,-4.272283272283272,-3.46875,0.96875,1.0,6.402930402930402,-8.913308913308914,-2.283272283272283,-3.46875,1.125,0.65625,5.7606837606837615,-9.123321123321123,-0.5934065934065934,-3.25,1.4375,0.0,4.825396825396825,-9.369963369963369,0.8046398046398047,-3.09375,1.875,0.0,4.599511599511598,-9.776556776556776,2.511599511599512,-2.875,2.1875,0.0,3.9621489621489614,-9.457875457875456,3.910866910866911,-2.625,2.3125,-0.90625,3.4017094017094016,-8.664224664224664,5.177045177045176,-2.28125,2.21875,-1.25,2.9023199023199022,-8.368742368742371,6.054945054945056,-1.90625,2.0,-1.6875,1.275946275946276,-7.905982905982907,6.960927960927961,-1.46875,1.96875,-2.03125,0.0,-7.343101343101343,7.3308913308913315,-1.125,1.96875,-2.34375,-0.7973137973137974,-6.606837606837607,7.477411477411477,-0.625,1.9375,-2.5625,-1.5128205128205128,-6.257631257631258,7.421245421245421,0.0,1.84375,-2.71875,-2.514041514041514,-5.711843711843712,6.768009768009768,0.0,1.625,-2.8125,-3.4896214896214897,-5.307692307692308,5.992673992673992,0.6875,1.46875,-2.84375,-4.123321123321123,-4.322344322344321,5.4371184371184365,1.0,1.40625,-2.78125,-3.5347985347985347,-4.126984126984127,5.557997557997558,1.25,1.25,-2.65625,-3.5921855921855923,-3.5885225885225887,5.5054945054945055,1.5,0.90625,-2.5625,-4.816849816849817,-2.9816849816849818,4.433455433455434,1.875,0.65625,-2.4375,-4.286935286935287,-2.677655677655677,3.772893772893773,2.125,0.65625,-2.25,-3.5372405372405376,-2.8608058608058613,3.4639804639804637,2.25,0.53125,-2.0625,-5.007326007326007,-0.9438339438339438,2.5042735042735043,2.65625,0.0,-1.78125,-5.343101343101343,-0.5885225885225885,1.1636141636141637,2.875,0.0,-1.40625,-4.752136752136752,-1.1672771672771671,0.0,2.78125,0.0,-1.03125,-4.177045177045176,-0.7448107448107448,0.0,2.53125,0.0,-0.78125,-4.3479853479853485,0.0,-1.2087912087912087,2.46875,0.0,0.0,-3.8852258852258847,0.0,-1.85958485958486,2.5,0.0,0.0,-2.8192918192918195,-0.6031746031746031,-2.2332112332112333,2.40625,0.0,0.0,-2.9877899877899887,0.0,-2.881562881562881,2.375,0.0,0.0,-3.05006105006105,0.0,-3.5665445665445668,2.15625,0.0,0.0,-2.4163614163614158,0.0,-3.595848595848596,1.9375,0.0,0.5625,-0.9951159951159952,0.0,-3.3431013431013437,1.8125,0.0,0.71875,0.0,0.0,-4.42002442002442,1.65625,0.0,0.90625,0.0,0.0,-4.446886446886447,1.34375,0.0,0.9375,0.0,0.0,-4.183150183150183,1.0,0.0,0.9375,0.0,0.0,-3.63003663003663,0.8125,0.0,1.0,0.8290598290598291,0.0,-3.028083028083028,0.71875,0.0,1.0625,1.3406593406593406,0.0,-2.765567765567765,0.6875,0.0,1.09375,1.8424908424908424,0.0,-2.611721611721612,0.625,0.0,1.09375,2.352869352869353,0.0,-2.4542124542124544,0.0,0.0,1.03125,2.715506715506716,0.0,-2.4615384615384617,0.0,0.0,0.9375,2.8766788766788767,0.0,-2.05982905982906,0.0,0.0,0.84375,3.0769230769230766,0.0,-1.485958485958486,0.0,0.0,0.78125,3.3321123321123323,0.0,-1.0,0.0,0.0,0.59375,3.514041514041514,0.0,-0.9877899877899878,0.0,0.0,0.0,3.6568986568986563,0.0,-0.9633699633699634,0.0,0.0,0.0,2.9621489621489623,0.0,-1.031746031746032,0.0,0.0,0.0,2.1807081807081805,0.0,-0.8302808302808303,0.0,0.0,0.0,1.5543345543345544,0.0,-0.503052503052503,0.0,0.0,0.0,1.1074481074481075,0.0,0.0,0.0,0.0,0.0,0.7118437118437119,0.0,0.0,0.0,0.0,0.0,0.6043956043956044,0.0,0.0,0.0,0.0,0.0,0.0,0.0,0.0,0.0,0.0,0.0,0.0,0.0,0.0,0.0,0.0,0.0,0.0,0.0,0.0,0.0,0.0,0.0,0.0,0.0,0.0,0.0,0.0,0.0,wp_del
accX,0.0,0.0,0.0,0.0,0.0,0.0,0.0,0.0,0.0,0.0,0.0,0.0,0.0,0.0,0.0,0.0,0.0,0.0,0.0,0.0,0.0,0.0,0.0,0.0,0.0,0.0,0.0,0.0,0.0,0.0,0.0,0.0,0.0,0.0,0.0,0.0,0.0,0.0,0.0,0.0,0.0,0.0,0.0,0.0,0.0,0.0,0.0,0.0,0.0,0.0,0.0,0.0,0.0,0.0,-0.5128205128205128,0.0,0.0,0.0,0.0,0.0,-0.8498168498168498,0.0,0.5763125763125763,0.0,0.0,0.0,-1.0012210012210012,0.0,0.6788766788766789,0.0,0.0,0.0,-1.3748473748473748,0.0,0.8376068376068376,0.0,0.0,0.0,-1.431013431013431,0.0,0.7680097680097681,0.0,0.0,0.0,-1.7216117216117215,0.0,0.7936507936507936,0.0,0.0,0.0,-2.268620268620269,0.0,0.0,0.0,0.0,0.5625,-2.8766788766788767,0.9511599511599512,0.0,0.0,0.0,0.84375,-4.321123321123321,1.934065934065934,-1.637362637362637,0.0,0.0,1.09375,-4.5006105006105015,1.9304029304029304,-3.0769230769230766,0.53125,0.0,1.40625,-3.9511599511599513,1.4297924297924298,-4.3992673992674005,0.0,0.0,1.71875,-3.7802197802197797,1.3650793650793651,-5.335775335775336,0.0,0.0,2.0,-3.474969474969475,1.2039072039072038,-5.746031746031746,0.0,0.0,2.25,-2.561660561660561,0.7448107448107448,-6.017094017094017,-0.5625,0.0,2.5,-1.6324786324786325,0.0,-6.595848595848596,-0.75,0.0,2.71875,0.0,-0.5311355311355311,-7.344322344322344,-0.9375,0.0,2.875,0.6459096459096461,-1.7728937728937728,-8.274725274725276,-1.1875,0.0,2.9375,1.8510378510378511,-3.0109890109890114,-8.626373626373626,-1.5625,0.0,2.875,3.78998778998779,-4.604395604395603,-8.261294261294262,-1.9375,0.0,2.78125,5.416361416361417,-5.94993894993895,-7.697191697191697,-2.375,0.0,2.40625,6.543345543345543,-7.086691086691086,-7.0927960927960925,-2.5625,0.625,2.0625,7.407814407814407,-8.324786324786325,-6.114774114774113,-2.78125,0.875,1.625,7.937728937728938,-9.042735042735043,-4.592185592185592,-2.9375,1.21875,1.125,7.841269841269841,-9.722832722832722,-3.268620268620269,-3.0,1.59375,0.59375,7.487179487179486,-10.201465201465199,-1.5921855921855919,-3.0,1.90625,0.0,6.7655677655677655,-10.213675213675213,0.0,-2.9375,2.09375,0.0,6.014652014652015,-10.588522588522588,1.85958485958486,-2.8125,2.125,-0.75,5.272283272283271,-10.424908424908423,3.4810744810744816,-2.59375,2.0,-1.15625,4.1098901098901095,-9.655677655677655,4.914529914529915,-2.1875,1.9375,-1.5625,3.064713064713065,-8.831501831501832,5.974358974358975,-1.65625,1.90625,-1.9375,2.0573870573870567,-7.9230769230769225,6.654456654456655,-1.15625,1.84375,-2.21875,0.0,-7.432234432234432,6.8339438339438345,-0.5625,1.46875,-2.5625,-1.2295482295482296,-6.536019536019536,6.2857142857142865,0.0,1.375,-2.8125,-2.4322344322344316,-5.6361416361416365,5.915750915750916,0.0,1.46875,-2.90625,-2.884004884004884,-5.207570207570208,6.0366300366300365,0.0,1.5,-2.9375,-3.954822954822955,-4.35042735042735,6.012210012210013,0.5625,1.34375,-2.90625,-4.037851037851038,-3.868131868131868,6.026862026862028,0.90625,1.21875,-2.78125,-4.412698412698413,-3.5702075702075704,5.782661782661783,1.25,0.96875,-2.65625,-5.368742368742368,-2.503052503052503,5.045177045177045,1.59375,0.8125,-2.5,-5.5726495726495715,-2.0134310134310134,4.101343101343101,1.96875,0.75,-2.25,-4.598290598290598,-2.3418803418803416,3.4847374847374852,2.09375,0.53125,-1.90625,-4.349206349206349,-1.9865689865689864,3.1514041514041518,2.03125,0.0,-1.65625,-4.527472527472527,-0.7619047619047619,2.421245421245421,2.34375,0.0,-1.3125,-3.5445665445665444,-0.7411477411477412,1.9987789987789988,2.59375,0.0,-1.03125,-2.706959706959707,-1.164835164835165,1.363858363858364,2.53125,0.0,-0.875,-3.8913308913308913,0.0,0.0,2.5625,0.0,-0.65625,-3.561660561660561,0.0,-1.9413919413919412,2.4375,0.0,0.0,-2.37973137973138,-0.6056166056166056,-2.383394383394384,2.25,0.0,0.0,-1.4358974358974361,-0.7057387057387058,-2.2954822954822958,2.0,0.0,0.0,-2.021978021978022,0.0,-2.6910866910866917,2.0625,0.0,0.0,-2.017094017094017,0.6141636141636142,-3.1282051282051277,2.09375,0.0,0.0,-1.195360195360195,0.0,-3.523809523809524,1.875,0.0,0.0,0.0,0.0,-3.686202686202686,1.5,0.0,0.0,0.0,0.7045177045177046,-4.498168498168498,1.3125,0.0,0.625,0.0,0.0,-4.3418803418803416,1.15625,0.0,0.71875,0.0,0.0,-3.4285714285714284,1.0,0.0,0.71875,1.2185592185592184,0.0,-2.8180708180708183,0.8125,0.0,0.78125,2.4383394383394386,0.0,-2.293040293040293,0.59375,0.0,0.84375,2.374847374847375,0.0,-2.305250305250305,0.0,0.0,0.78125,1.8730158730158732,0.0,-2.761904761904762,0.625,0.0,0.6875,1.827838827838828,0.0,-2.9059829059829063,0.5625,0.0,0.59375,2.4542124542124544,0.0,-2.324786324786325,0.0,0.0,0.5625,2.7606837606837606,0.0,-1.57997557997558,0.0,0.0,0.53125,2.417582417582417,0.0,-1.2148962148962148,0.0,0.0,0.0,2.3968253968253967,0.0,-1.0195360195360197,0.0,0.0,0.0,2.1575091575091574,0.0,-0.8266178266178266,0.0,0.0,0.0,2.1941391941391943,0.0,0.0,0.0,0.0,0.0,1.9804639804639803,0.0,0.0,0.0,0.0,0.0,1.652014652014652,0.0,0.0,0.0,0.0,0.0,0.9731379731379732,0.0,0.0,0.0,0.0,0.0,0.6068376068376068,0.0,0.0,0.0,0.0,0.0,wp_del
accX,0.0,0.0,0.0,0.0,0.0,0.0,0.0,0.0,0.0,0.0,0.0,0.0,0.0,0.0,0.0,0.0,0.0,0.0,0.0,0.0,0.0,0.0,0.0,0.0,-0.6459096459096461,0.0,0.0,0.0,0.0,0.0,0.0,0.0,0.0,0.0,0.0,0.0,-0.8778998778998779,0.0,0.0,0.0,0.0,0.0,-3.752136752136752,1.3882783882783882,0.0,0.0,0.0,0.0,-4.431013431013431,1.652014652014652,0.0,0.53125,0.0,0.65625,-5.079365079365079,1.8510378510378511,0.0,0.6875,0.0,0.96875,-5.147741147741148,1.4444444444444444,-0.8620268620268621,0.71875,0.0,1.3125,-5.621489621489621,1.8974358974358971,-1.8192918192918195,0.0,0.0,1.65625,-5.484737484737486,2.0854700854700856,-2.8363858363858365,0.0,0.0,2.0,-4.438339438339439,1.586080586080586,-3.934065934065934,0.0,0.0,2.28125,-3.221001221001221,1.4676434676434675,-5.206349206349207,0.0,0.0,2.53125,-1.6837606837606838,0.9865689865689866,-7.045177045177045,0.0,0.0,2.71875,0.0,0.0,-9.00976800976801,-0.53125,0.0,2.84375,2.1709401709401708,-2.2515262515262515,-10.727716727716727,-0.9375,0.0,2.84375,3.935286935286935,-4.04029304029304,-11.461538461538463,-1.78125,0.0,2.5,5.728937728937728,-5.461538461538462,-10.894993894993897,-2.40625,0.0,2.21875,6.997557997557997,-6.195360195360196,-9.185592185592185,-2.84375,0.0,1.90625,6.91941391941392,-6.676434676434678,-7.476190476190476,-3.0,0.6875,1.5625,7.235653235653236,-7.897435897435898,-5.411477411477412,-3.21875,0.875,1.21875,6.932844932844932,-8.368742368742371,-3.2246642246642248,-3.375,1.0,0.875,6.500610500610501,-8.487179487179487,-1.3089133089133091,-3.34375,1.15625,0.53125,6.0305250305250295,-8.69108669108669,0.0,-3.0625,1.34375,0.0,4.096459096459096,-8.362637362637363,1.1562881562881564,-2.65625,1.59375,0.0,3.763125763125763,-8.634920634920634,2.3076923076923075,-2.40625,1.78125,0.0,3.388278388278388,-8.743589743589743,3.6166056166056166,-2.25,1.75,-0.65625,2.768009768009768,-9.15995115995116,4.483516483516484,-2.125,1.9375,-1.0,2.133089133089133,-8.903540903540904,7.384615384615384,-1.78125,2.15625,-1.59375,1.3882783882783882,-8.406593406593407,8.446886446886447,-1.3125,2.15625,-1.9375,0.8412698412698413,-8.164835164835164,9.112332112332112,-0.75,2.125,-2.375,0.0,-7.829059829059829,9.118437118437118,0.0,1.90625,-2.75,-1.6483516483516485,-6.789987789987791,8.61050061050061,0.0,1.53125,-3.03125,-3.2783882783882783,-5.559218559218558,7.913308913308914,0.8125,1.34375,-3.15625,-3.4737484737484734,-5.213675213675214,7.454212454212454,1.375,1.25,-3.125,-4.819291819291818,-4.256410256410256,6.327228327228327,1.65625,0.84375,-3.0625,-5.567765567765568,-3.501831501831502,5.183150183150183,1.96875,0.5625,-2.875,-5.750915750915752,-2.611721611721612,4.571428571428571,2.15625,0.0,-2.65625,-4.190476190476192,-2.5763125763125765,4.84004884004884,2.28125,0.0,-2.34375,-6.223443223443224,-0.6532356532356532,3.5091575091575087,2.75,0.0,-2.03125,-7.730158730158731,0.5836385836385837,1.0903540903540905,3.25,0.0,-1.4375,-7.09035409035409,0.0,0.0,3.125,0.0,-0.90625,-4.658119658119658,-0.8083028083028083,-0.6105006105006106,2.6875,0.0,-0.53125,-4.410256410256411,0.0,-1.8852258852258847,2.59375,0.0,0.0,-4.047619047619048,0.0,-2.913308913308913,2.6875,0.0,0.0,-2.8962148962148966,-1.0586080586080586,-3.2710622710622714,2.5,0.0,0.0,-1.3418803418803418,-1.3052503052503053,-2.8962148962148966,2.15625,0.0,0.0,-1.037851037851038,0.0,-3.758241758241758,2.125,0.0,0.0,-0.5934065934065934,0.0,-4.671550671550672,1.9375,0.0,0.53125,0.0,0.0,-4.875457875457876,1.65625,0.0,0.5625,0.0,0.0,-4.892551892551894,1.40625,0.0,0.59375,0.5079365079365079,0.6349206349206349,-4.3028083028083035,1.1875,0.0,0.6875,1.1721611721611722,1.0097680097680095,-4.35042735042735,1.125,0.0,0.75,1.3675213675213675,0.5714285714285714,-4.627594627594628,0.84375,0.0,0.8125,1.2332112332112333,0.0,-4.566544566544566,0.0,0.0,0.84375,0.0,0.6312576312576312,-3.7118437118437115,0.0,0.0,0.875,1.3308913308913308,0.6288156288156288,-2.0842490842490844,0.0,0.0,0.9375,2.0793650793650795,0.0,-1.0708180708180708,0.0,0.0,0.9375,2.208791208791209,0.0,-0.8766788766788767,0.0,0.0,0.875,2.5128205128205128,-0.6214896214896215,-1.021978021978022,0.0,0.0,0.75,2.3382173382173383,-0.8937728937728938,-0.9975579975579976,0.0,0.0,0.59375,2.357753357753358,-0.8339438339438342,-0.5592185592185592,0.0,0.0,0.0,2.532356532356532,-0.7338217338217338,0.0,0.0,0.0,0.0,1.9633699633699635,0.0,0.0,0.0,0.0,0.0,1.7704517704517704,0.0,0.0,0.0,0.0,0.0,1.4566544566544566,-0.514041514041514,-0.5946275946275946,0.0,0.0,0.0,0.8021978021978022,0.0,-0.5665445665445665,0.0,0.0,0.0,0.0,0.0,0.0,0.0,0.0,0.0,0.0,0.0,0.0,0.0,0.0,0.0,0.0,0.0,0.0,0.0,0.0,0.0,0.0,0.0,0.0,0.0,0.0,0.0,0.0,0.0,0.0,0.0,0.0,0.0,0.0,0.0,0.0,0.0,0.0,0.0,,,,,,,,,,,,,,,,,,,,,,,,,,,,,,,wp_del
accX,0.0,0.0,0.0,0.0,0.0,0.0,0.0,0.0,0.0,0.0,0.0,0.0,0.0,0.0,0.0,0.0,0.0,0.0,-0.94993894993895,0.0,0.0,0.0,0.0,0.0,-1.26007326007326,0.7167277167277167,0.5164835164835165,0.0,0.0,0.0,-1.6263736263736264,0.6703296703296703,0.5091575091575091,0.53125,0.0,0.0,-1.557997557997558,0.0,0.0,0.0,0.0,0.0,-2.3785103785103785,0.0,0.0,0.0,0.0,0.0,-3.268620268620269,1.3467643467643469,0.0,0.0,0.0,0.53125,-4.1159951159951165,1.887667887667888,0.0,0.0,0.0,0.71875,-4.091575091575091,1.896214896214896,-1.192918192918193,0.65625,0.0,1.15625,-4.351648351648351,1.887667887667888,-2.457875457875458,0.0,0.0,1.40625,-4.102564102564102,1.8974358974358971,-3.675213675213675,0.0,0.0,1.6875,-3.8107448107448105,1.956043956043956,-4.446886446886447,0.0,0.0,1.96875,-3.137973137973138,1.6105006105006106,-5.396825396825397,0.0,0.0,2.1875,-2.0488400488400487,1.164835164835165,-6.6630036630036615,0.0,0.0,2.375,-0.5323565323565324,0.0,-7.990231990231991,-0.65625,0.0,2.5625,0.7557997557997558,-1.2612942612942613,-8.886446886446887,-1.0625,0.0,2.65625,2.199023199023199,-2.083028083028083,-9.271062271062274,-1.46875,0.0,2.625,3.498168498168498,-3.1001221001221,-9.473748473748474,-1.71875,0.0,2.5625,5.417582417582418,-4.857142857142857,-9.336996336996338,-2.0625,0.0,2.46875,6.601953601953603,-6.490842490842492,-8.5995115995116,-2.59375,0.0,2.0,7.686202686202687,-8.555555555555555,-7.247863247863247,-3.03125,0.96875,1.5625,8.039072039072039,-9.374847374847377,-5.074481074481074,-3.34375,1.34375,1.09375,8.247863247863247,-9.448107448107448,-2.6080586080586077,-3.3125,1.53125,0.59375,7.601953601953603,-9.764346764346763,-0.8058608058608059,-3.125,1.71875,0.0,6.94871794871795,-10.512820512820513,0.7081807081807082,-2.9375,1.96875,0.0,5.877899877899878,-10.744810744810744,2.1111111111111107,-2.75,2.3125,-0.9375,4.8437118437118425,-10.572649572649572,3.791208791208791,-2.5,2.5,-1.4375,4.004884004884005,-10.134310134310132,5.545787545787546,-2.1875,2.40625,-1.90625,2.6727716727716726,-9.92063492063492,6.8962148962148975,-1.8125,2.1875,-2.3125,1.3467643467643469,-9.081807081807082,8.175824175824175,-1.3125,1.90625,-2.65625,-0.6263736263736264,-7.8962148962148975,8.774114774114775,-0.59375,1.78125,-2.875,-3.3028083028083026,-6.781440781440781,8.277167277167278,0.0,1.65625,-2.96875,-3.675213675213675,-5.735042735042735,7.5103785103785095,0.71875,1.3125,-2.90625,-4.4493284493284495,-5.124542124542124,6.9462759462759465,0.8125,0.96875,-2.78125,-4.918192918192919,-3.703296703296704,6.500610500610501,1.03125,0.84375,-2.71875,-5.527472527472527,-2.761904761904762,5.652014652014652,1.53125,0.84375,-2.5,-5.485958485958487,-2.5006105006105006,4.702075702075702,1.96875,0.8125,-2.1875,-4.7765567765567765,-2.606837606837607,4.2686202686202686,2.09375,0.0,-1.84375,-5.786324786324786,-1.4761904761904765,3.2026862026862033,2.125,0.0,-1.625,-5.897435897435898,-1.0244200244200243,1.761904761904762,2.4375,0.0,-1.34375,-5.295482295482295,-1.1343101343101345,1.3015873015873016,2.5625,0.0,-1.0,-3.7557997557997562,-1.4725274725274726,0.9279609279609279,2.46875,0.0,-0.6875,-4.6923076923076925,0.0,-0.5934065934065934,2.46875,0.0,0.0,-3.9536019536019538,-0.5958485958485958,-1.6092796092796091,2.5625,0.0,0.0,-2.6361416361416357,-1.3076923076923077,-1.7362637362637363,2.375,0.0,0.0,-3.0976800976800978,0.0,-2.4822954822954824,2.3125,0.0,0.0,-2.1135531135531136,0.0,-3.4786324786324787,2.25,-0.53125,0.0,-1.9230769230769231,0.0,-4.478632478632479,2.03125,0.0,0.59375,-1.2735042735042734,0.0,-4.993894993894994,1.75,0.0,0.71875,-0.9462759462759462,1.1855921855921856,-5.201465201465202,1.625,0.0,0.9375,0.0,0.7741147741147741,-5.704517704517706,1.40625,0.0,1.125,1.3040293040293038,0.5897435897435898,-5.4212454212454215,1.09375,0.0,1.1875,1.9926739926739927,0.0,-5.262515262515263,0.8125,0.0,1.15625,2.293040293040293,0.0,-4.744810744810745,0.53125,0.0,1.09375,2.455433455433456,0.0,-3.963369963369964,0.0,0.0,0.9375,3.4517704517704515,0.0,-1.3577533577533578,0.0,0.0,0.84375,3.1855921855921854,0.0,-0.8009768009768009,0.0,0.0,0.71875,3.47985347985348,0.0,-0.7704517704517705,0.0,0.0,0.59375,3.507936507936508,-0.7387057387057387,-1.2722832722832722,0.0,0.0,0.0,3.1245421245421245,-0.6874236874236874,-1.4285714285714286,0.0,0.0,0.0,2.7545787545787546,-0.7203907203907204,-1.3577533577533578,0.0,0.0,0.0,2.3504273504273505,-0.7045177045177046,-1.020757020757021,0.0,0.0,0.0,1.8144078144078144,0.0,-0.5213675213675214,0.0,0.0,0.0,1.3943833943833943,0.0,0.0,0.0,0.0,0.0,0.9987789987789988,0.0,0.0,0.0,0.0,0.0,0.6068376068376068,0.0,0.0,0.0,0.0,0.0,0.0,0.0,0.0,0.0,0.0,0.0,0.0,0.0,0.0,0.0,0.0,0.0,0.0,0.0,0.0,0.0,0.0,0.0,0.0,0.0,0.0,0.0,0.0,0.0,0.0,0.0,0.0,0.0,0.0,0.0,0.0,0.0,0.0,0.0,0.0,0.0,0.0,0.0,0.0,0.0,0.0,0.0,0.0,0.0,0.0,0.0,0.0,0.0,,,,,,,,,,,,,,,,,,,,,,,,,wp_del
accX,-0.7191697191697192,0.0,0.6593406593406593,0.0,0.0,0.0,-0.7924297924297924,0.0,0.0,0.0,0.0,0.0,-0.8888888888888888,0.0,0.6849816849816851,0.0,0.0,0.0,-1.4578754578754578,0.6923076923076923,0.9401709401709402,0.0,0.0,0.0,-1.568986568986569,0.8461538461538461,0.894993894993895,0.65625,0.0,0.0,-2.1746031746031744,1.1147741147741148,0.5128205128205128,0.75,0.0,0.0,-3.3455433455433456,1.4407814407814408,0.0,0.65625,0.0,0.6875,-3.8339438339438336,1.94993894993895,-0.6715506715506715,0.5625,0.0,0.9375,-4.190476190476192,1.9816849816849815,-1.4261294261294262,0.0,0.0,1.28125,-3.9816849816849818,2.025641025641025,-2.05006105006105,0.0,0.0,1.59375,-3.8437118437118434,1.9474969474969477,-2.826617826617827,0.0,0.0,1.84375,-4.063492063492063,1.9365079365079363,-5.257631257631258,0.0,0.0,2.21875,-2.351648351648352,1.6385836385836383,-6.214896214896215,0.0,0.0,2.4375,-1.175824175824176,0.8058608058608059,-7.352869352869352,0.0,0.0,2.625,0.0,0.0,-8.564102564102564,-0.71875,0.0,2.75,2.312576312576313,-2.1941391941391943,-10.003663003663004,-1.09375,0.0,2.71875,4.4151404151404146,-3.708180708180708,-10.44078144078144,-1.46875,0.0,2.625,5.9413919413919425,-4.798534798534798,-9.637362637362637,-1.875,0.0,2.3125,7.085470085470085,-6.023199023199023,-8.495726495726496,-2.21875,0.0,1.96875,8.002442002442004,-6.835164835164836,-7.062271062271062,-2.53125,0.0,1.53125,8.518925518925519,-7.172161172161172,-5.278388278388278,-2.875,0.0,1.09375,8.216117216117215,-7.913308913308914,-3.606837606837607,-3.125,0.59375,0.6875,7.656898656898657,-8.5006105006105,-1.8583638583638584,-3.21875,0.84375,0.0,6.752136752136753,-8.526251526251526,0.0,-3.03125,1.375,0.0,5.73992673992674,-8.474969474969473,1.4529914529914532,-2.71875,1.6875,-0.78125,5.264957264957265,-8.523809523809524,2.8424908424908426,-2.4375,1.84375,-1.1875,4.208791208791209,-8.682539682539682,3.920634920634921,-2.3125,1.90625,-1.5625,3.1843711843711837,-8.421245421245422,5.211233211233211,-2.1875,1.9375,-1.9375,2.0268620268620268,-7.764346764346764,6.36019536019536,-1.8125,1.84375,-2.21875,0.7924297924297924,-7.514041514041513,6.8498168498168495,-1.34375,1.6875,-2.4375,-0.514041514041514,-7.213675213675214,6.94871794871795,-0.96875,1.625,-2.625,-1.5079365079365081,-6.396825396825397,6.892551892551893,-0.59375,1.53125,-2.75,-2.4603174603174605,-5.638583638583639,6.5726495726495715,0.0,1.46875,-2.78125,-3.062271062271062,-4.6190476190476195,6.716727716727718,0.0,1.25,-2.71875,-3.6031746031746033,-3.9706959706959712,6.551892551892553,0.78125,1.0,-2.53125,-3.8998778998779,-3.3968253968253967,5.478632478632479,1.0625,0.875,-2.40625,-4.336996336996338,-2.5970695970695967,4.807081807081807,1.34375,0.71875,-2.28125,-4.932844932844934,-2.102564102564102,3.9792429792429793,1.59375,0.71875,-2.125,-4.814407814407813,-1.7765567765567765,3.2735042735042734,1.8125,0.65625,-1.90625,-4.985347985347985,-0.9267399267399268,2.6605616605616604,1.9375,0.0,-1.5625,-4.6129426129426125,-0.5873015873015873,2.028083028083028,2.0625,0.0,-1.28125,-4.627594627594628,0.0,0.9523809523809524,2.0625,0.0,-1.0625,-4.457875457875458,0.0,0.0,2.03125,0.0,-0.78125,-3.358974358974359,0.0,-0.5396825396825397,2.0,0.0,0.0,-2.937728937728938,0.0,-1.1416361416361416,2.03125,0.0,0.0,-3.1147741147741153,0.5274725274725275,-2.1941391941391943,2.125,0.0,0.0,-2.407814407814408,0.0,-2.533577533577533,1.90625,0.0,0.0,-1.9133089133089132,0.0,-2.0891330891330893,1.6875,0.0,0.0,-1.4114774114774116,0.0,-1.6300366300366298,1.59375,0.0,0.0,-1.6068376068376071,0.0,-1.9218559218559217,1.65625,0.0,0.5625,-1.9511599511599511,0.0,-2.5970695970695967,1.59375,0.0,0.75,-1.0427350427350428,0.5787545787545788,-2.4065934065934065,1.4375,0.0,0.875,0.0,0.5848595848595849,-2.244200244200244,1.34375,0.0,1.0,0.7240537240537241,0.5115995115995116,-2.6056166056166057,1.25,0.0,1.09375,1.286935286935287,0.5128205128205128,-3.061050061050061,1.1875,0.0,1.125,1.2735042735042734,0.0,-3.5946275946275947,1.0625,0.0,1.15625,1.7765567765567765,0.0,-3.498168498168498,0.875,0.0,1.125,2.3638583638583643,0.0,-3.1538461538461537,0.6875,0.0,1.03125,3.3724053724053724,0.0,-2.070818070818071,0.0,0.0,0.96875,3.435897435897436,0.0,-1.7594627594627594,0.0,0.0,0.84375,3.172161172161172,0.0,-1.7203907203907205,0.0,0.0,0.75,3.3321123321123323,0.0,-1.7594627594627594,0.0,0.0,0.625,3.5909645909645915,0.0,-1.728937728937729,0.0,0.0,0.0,3.446886446886447,0.0,-1.7179487179487178,0.0,0.0,0.0,2.9255189255189253,-0.5335775335775336,-1.7252747252747254,0.0,0.0,0.0,2.142857142857143,0.0,-1.442002442002442,0.0,0.0,0.0,1.2539682539682542,0.0,-0.9255189255189256,0.0,0.0,0.0,1.0341880341880345,0.0,0.0,0.0,0.0,0.0,0.0,0.0,0.0,0.0,0.0,0.0,0.0,0.0,0.0,0.0,0.0,0.0,0.0,0.0,0.0,0.0,0.0,0.0,0.0,0.0,0.0,0.0,0.0,0.0,0.0,0.0,0.0,0.0,0.0,0.0,0.0,0.0,0.0,0.0,0.0,0.0,0.0,0.0,0.0,0.0,0.0,0.0,0.0,0.0,0.0,0.0,0.0,0.0,0.0,0.0,0.0,0.0,0.0,0.0,0.0,0.0,0.0,0.0,0.0,0.0,0.0,0.0,0.0,0.0,0.0,0.0,,,,,,,wp_del
accX,0.0,0.0,0.0,0.0,0.0,0.0,0.0,0.0,0.0,0.0,0.0,0.0,-0.5506715506715507,0.5006105006105006,0.0,0.0,0.0,0.0,0.0,0.0,0.0,0.0,0.0,0.0,0.0,0.0,0.5213675213675214,0.0,0.0,0.0,0.0,0.0,0.0,0.0,0.0,0.0,-1.1196581196581197,0.0,0.0,0.0,0.0,0.0,-1.728937728937729,0.0,0.0,0.0,0.0,0.0,-2.3650793650793656,0.0,0.0,0.0,0.0,0.0,-3.173382173382173,0.8583638583638583,0.0,0.53125,0.0,0.0,-4.1440781440781445,1.352869352869353,0.0,0.6875,0.0,0.0,-4.792429792429792,1.9548229548229548,0.0,0.625,0.0,0.0,-5.852258852258853,2.8021978021978016,-1.0561660561660562,0.59375,0.0,0.8125,-7.223443223443223,3.5628815628815627,-2.240537240537241,0.6875,0.0,1.1875,-6.852258852258853,2.913308913308913,-3.404151404151404,0.71875,0.0,1.625,-6.536019536019536,2.330891330891331,-4.682539682539684,0.0,0.0,2.0,-5.570207570207571,1.9206349206349207,-5.525030525030526,0.0,0.0,2.34375,-3.9706959706959712,1.5958485958485962,-5.647130647130648,0.0,0.0,2.875,-2.578754578754579,1.0622710622710625,-6.543345543345543,-0.59375,0.0,3.125,0.0,-0.9963369963369964,-8.150183150183151,-0.75,0.0,3.1875,1.8290598290598292,-3.1684981684981683,-9.601953601953602,-1.21875,0.0,3.03125,3.5763125763125765,-4.251526251526252,-9.915750915750916,-1.6875,0.0,2.8125,5.084249084249084,-4.827838827838828,-9.315018315018316,-2.0625,0.0,2.53125,5.8669108669108665,-5.876678876678878,-8.572649572649572,-2.40625,0.0,2.25,6.789987789987791,-7.003663003663004,-7.089133089133089,-2.75,0.0,1.90625,7.31990231990232,-7.7887667887667895,-5.623931623931624,-2.96875,0.53125,1.5,7.145299145299147,-7.938949938949939,-3.8669108669108665,-3.0,0.8125,1.125,7.26007326007326,-8.257631257631258,-2.092796092796093,-2.90625,1.09375,0.71875,7.0,-9.030525030525029,-0.6862026862026862,-2.8125,1.3125,0.0,6.0647130647130645,-8.863247863247864,2.0781440781440783,-2.71875,1.75,0.0,5.405372405372407,-8.390720390720391,3.4590964590964592,-2.46875,1.96875,-0.9375,4.410256410256411,-8.002442002442004,4.564102564102563,-2.21875,2.03125,-1.34375,3.2905982905982905,-7.625152625152626,5.4444444444444455,-1.9375,2.0,-1.71875,1.8620268620268619,-7.177045177045177,6.041514041514041,-1.65625,1.9375,-2.03125,0.6581196581196581,-6.813186813186812,6.4664224664224665,-1.28125,1.90625,-2.34375,-0.6080586080586079,-6.045177045177045,6.730158730158731,-0.90625,1.875,-2.53125,-1.4358974358974361,-5.211233211233211,6.865689865689865,-0.53125,1.84375,-2.6875,-2.3565323565323566,-4.301587301587301,6.7716727716727725,0.0,1.71875,-2.71875,-2.7032967032967035,-3.9609279609279615,6.536019536019536,0.0,1.53125,-2.6875,-3.4945054945054945,-3.655677655677656,6.023199023199023,0.59375,1.34375,-2.625,-3.525030525030525,-3.3504273504273505,5.781440781440781,1.09375,1.15625,-2.5,-3.52014652014652,-2.7032967032967035,5.638583638583639,1.40625,0.9375,-2.375,-3.851037851037851,-2.498168498168498,5.31013431013431,1.6875,0.78125,-2.28125,-4.405372405372407,-2.087912087912088,4.711843711843712,1.90625,0.75,-2.125,-5.4273504273504285,-1.4285714285714286,3.7985347985347984,2.125,0.59375,-1.9375,-5.652014652014652,-0.8034188034188035,3.05006105006105,2.375,0.0,-1.5625,-4.857142857142857,-1.0561660561660562,2.313797313797314,2.34375,0.0,-1.21875,-4.5335775335775335,-1.26007326007326,1.3650793650793651,2.3125,0.0,-1.0,-5.213675213675214,0.0,0.0,2.5,0.0,-0.6875,-4.402930402930403,-0.6373626373626373,-0.8571428571428571,2.46875,0.0,0.0,-3.23931623931624,-0.7326007326007326,-0.6312576312576312,2.25,0.0,0.0,-3.9877899877899887,0.6898656898656899,-1.3907203907203909,2.34375,0.0,0.0,-3.13064713064713,0.0,-3.0854700854700856,2.28125,0.0,0.0,-3.101343101343101,0.0,-3.655677655677656,2.03125,0.0,0.625,-2.495726495726496,0.0,-3.782661782661783,1.84375,0.0,0.875,-0.7765567765567766,0.0,-3.3345543345543347,1.65625,0.0,1.09375,0.0,0.0,-3.8021978021978016,1.625,0.0,1.1875,0.8595848595848596,0.0,-4.673992673992673,1.59375,0.0,1.15625,1.5238095238095235,-0.6398046398046398,-5.338217338217338,1.3125,0.0,1.09375,1.6446886446886446,0.0,-5.3125763125763115,0.96875,0.0,1.03125,1.7362637362637363,0.0,-4.442002442002441,0.75,0.0,0.96875,2.511599511599512,0.0,-3.3846153846153846,0.625,0.0,0.9375,3.5641025641025643,0.0,-2.5579975579975582,0.0,0.0,0.84375,3.6568986568986563,0.0,-2.4224664224664223,0.0,0.0,0.625,3.0818070818070824,0.0,-2.5067155067155067,0.0,0.0,0.0,2.3821733821733817,0.0,-2.241758241758242,0.0,0.0,0.0,1.95970695970696,0.0,-1.5238095238095235,0.0,0.0,0.0,1.8620268620268619,0.0,-0.7680097680097681,0.0,0.0,0.0,1.8339438339438336,0.0,0.0,0.0,0.0,0.0,1.199023199023199,0.0,0.0,0.0,0.0,0.0,0.5909645909645911,0.0,0.0,0.0,0.0,0.0,0.0,0.0,0.0,0.0,0.0,0.0,0.0,0.0,0.0,0.0,0.0,0.0,0.0,0.0,0.0,0.0,0.0,0.0,0.0,0.0,0.0,0.0,0.0,0.0,0.0,0.0,0.0,0.0,0.0,0.0,0.0,0.0,0.0,0.0,0.0,0.0,,,,,,,,,,,,,,,,,,,wp_del
accX,0.0,0.0,0.0,0.0,0.0,0.0,0.0,0.0,0.0,0.0,0.0,0.0,0.0,0.0,0.0,0.0,0.0,0.0,-1.0915750915750917,0.0,0.0,0.0,0.0,0.0,-1.434676434676435,0.6617826617826618,0.0,0.0,0.0,0.0,-1.3137973137973138,0.0,0.0,0.0,0.0,0.0,-1.6349206349206349,0.0,0.0,0.0,0.0,0.0,-2.299145299145299,0.6178266178266179,0.0,0.0,0.0,0.0,-2.2857142857142856,0.0,0.0,0.0,0.0,0.0,-2.627594627594628,0.0,0.0,0.0,0.0,0.59375,-3.1465201465201464,1.1562881562881564,-0.7484737484737485,0.0,0.0,0.8125,-3.4249084249084247,1.3247863247863247,-1.1196581196581197,0.0,0.0,1.03125,-3.235653235653236,1.2442002442002442,-1.4322344322344325,0.0,0.0,1.25,-2.655677655677656,0.8534798534798534,-1.9255189255189256,0.0,0.0,1.46875,-2.4517704517704515,0.8876678876678876,-2.673992673992674,0.0,0.0,1.6875,-2.139194139194139,0.8998778998778999,-3.0781440781440783,0.0,0.0,1.875,-1.9853479853479852,0.8547008547008547,-3.5091575091575087,0.0,0.0,2.0625,-1.0769230769230769,0.6068376068376068,-4.188034188034188,0.0,0.0,2.1875,0.0,0.6666666666666666,-5.286935286935287,0.0,0.0,2.3125,0.0,0.0,-7.131868131868132,-0.6875,0.0,2.34375,2.763125763125763,-1.3785103785103785,-8.942612942612943,-1.375,0.0,2.375,3.495726495726496,-2.6105006105006106,-9.406593406593409,-1.65625,0.0,2.40625,3.9816849816849818,-4.4896214896214905,-9.925518925518926,-2.0,0.0,2.21875,5.451770451770452,-5.953601953601954,-8.77899877899878,-2.46875,0.65625,1.90625,6.4884004884004876,-6.893772893772894,-6.9804639804639805,-2.90625,0.9375,1.59375,6.673992673992674,-7.7606837606837615,-5.112332112332112,-3.15625,1.125,1.28125,6.749694749694751,-8.725274725274724,-3.0830280830280827,-3.1875,1.34375,0.90625,6.642246642246642,-9.518925518925519,-1.0976800976800978,-3.15625,1.53125,0.0,5.938949938949939,-10.014652014652016,0.5848595848595849,-3.0625,1.78125,0.0,5.349206349206349,-10.042735042735043,2.2967032967032965,-2.84375,2.0625,0.0,4.551892551892552,-9.555555555555557,4.018315018315018,-2.5625,2.1875,-0.96875,3.7460317460317465,-9.257631257631258,5.354090354090353,-2.1875,2.21875,-1.5625,2.9890109890109886,-8.786324786324787,6.6996336996337,-1.71875,1.9375,-1.90625,1.5274725274725274,-8.341880341880342,7.235653235653236,-1.40625,1.84375,-2.25,0.0,-7.841269841269841,7.724053724053724,-1.03125,1.6875,-2.5,-1.3028083028083028,-6.94017094017094,7.6630036630036615,0.0,1.5625,-2.65625,-2.2124542124542126,-6.091575091575091,7.411477411477412,0.0,1.4375,-2.6875,-2.4004884004884004,-5.567765567765568,7.4896214896214905,0.0,1.25,-2.6875,-2.283272283272283,-5.438339438339439,7.495726495726496,0.6875,0.96875,-2.71875,-3.3858363858363862,-4.3699633699633695,6.757020757020759,1.0625,0.875,-2.6875,-4.343101343101344,-3.267399267399268,5.881562881562883,1.53125,0.875,-2.5625,-3.851037851037851,-3.091575091575092,5.529914529914531,1.71875,0.78125,-2.40625,-3.04029304029304,-2.9865689865689866,5.6813186813186825,1.84375,0.59375,-2.3125,-4.078144078144078,-1.6031746031746033,4.851037851037852,2.40625,0.0,-1.875,-4.42979242979243,-1.94993894993895,2.0903540903540905,2.59375,0.0,-1.59375,-4.4664224664224665,-1.336996336996337,0.7838827838827839,2.53125,0.0,-1.375,-4.792429792429792,-0.5909645909645911,-0.8485958485958486,2.5625,0.0,-1.0,-4.409035409035409,-0.6312576312576312,-1.948717948717949,2.59375,0.0,-0.65625,-3.0708180708180715,-0.9768009768009768,-1.9548229548229548,2.4375,0.0,0.0,-2.924297924297924,-0.5103785103785103,-2.1807081807081805,2.21875,0.0,0.0,-2.9926739926739927,0.0,-2.7252747252747254,2.28125,0.0,0.0,-2.3174603174603177,0.0,-3.5665445665445668,2.25,0.0,0.0,-2.003663003663004,0.0,-4.188034188034188,2.0,0.0,0.0,-1.6752136752136753,0.0,-4.316239316239317,1.65625,0.0,0.0,-1.343101343101343,0.0,-4.0818070818070815,1.53125,0.0,0.65625,0.0,0.0,-3.892551892551893,1.5,0.0,0.84375,0.5811965811965812,-0.6410256410256411,-4.297924297924298,1.21875,0.0,0.875,1.1697191697191698,-0.6092796092796092,-4.118437118437118,0.875,0.0,0.8125,1.3614163614163617,0.0,-3.6361416361416365,0.59375,0.0,0.8125,1.2954822954822955,0.5811965811965812,-2.5494505494505493,0.5625,0.0,0.84375,1.953601953601953,0.8693528693528694,-2.1794871794871797,0.5625,0.0,0.8125,2.4432234432234434,0.7594627594627594,-2.21978021978022,0.0,0.0,0.75,2.311355311355311,0.6617826617826618,-2.5873015873015874,0.0,0.0,0.71875,2.3284493284493286,0.6764346764346765,-2.3919413919413923,0.0,0.0,0.65625,2.216117216117216,0.5750915750915749,-2.0989010989010994,0.0,0.0,0.65625,2.330891330891331,0.0,-1.5323565323565325,0.0,0.0,0.59375,2.3418803418803416,0.0,-1.3467643467643469,0.0,0.0,0.0,2.4542124542124544,0.0,-0.9059829059829059,0.0,0.0,0.0,1.6996336996336996,0.0,-0.7704517704517705,0.0,0.0,0.0,1.663003663003663,0.0,0.0,0.0,0.0,0.0,1.5384615384615383,0.0,0.0,0.0,0.0,0.0,1.2002442002442002,0.0,0.0,0.0,0.0,0.0,0.6605616605616605,0.0,0.0,0.0,0.0,0.0,0.0,0.0,0.0,0.0,0.0,0.0,0.0,0.0,0.0,0.0,0.0,0.0,0.0,0.0,0.0,0.0,0.0,0.0,0.0,0.0,0.0,0.0,0.0,0.0,0.0,0.0,0.0,0.0,0.0,0.0,0.0,0.0,0.0,0.0,0.0,0.0,0.0,0.0,0.0,0.0,0.0,0.0,wp_del
accX,0.0,0.0,0.0,0.0,0.0,0.0,0.0,0.0,0.0,0.0,0.0,0.0,0.0,0.0,0.0,0.0,0.0,0.0,0.0,0.0,0.0,0.0,0.0,0.0,0.0,0.0,0.0,0.0,0.0,0.0,0.0,0.0,0.0,0.0,0.0,0.0,0.0,0.0,0.0,0.0,0.0,0.0,-0.8241758241758241,0.0,0.6556776556776557,0.0,0.0,0.0,-1.1001221001221002,0.0,1.0463980463980465,0.0,0.0,0.0,-1.78021978021978,0.0,0.9816849816849816,0.0,0.0,0.0,-1.9084249084249083,0.0,0.7948717948717948,0.0,0.0,0.0,-2.7228327228327234,0.0,0.0,0.0,0.0,0.0,-3.811965811965812,1.2942612942612943,0.0,0.5625,0.0,0.71875,-4.837606837606837,2.062271062271062,-1.4481074481074483,0.53125,0.0,1.0,-4.9523809523809526,2.288156288156288,-2.148962148962149,0.0,0.0,1.34375,-5.00976800976801,2.554334554334554,-2.855921855921856,0.0,0.0,1.71875,-4.493284493284493,2.0793650793650795,-3.9829059829059825,0.0,0.0,2.0625,-3.9902319902319903,1.7448107448107448,-5.285714285714286,0.0,0.0,2.34375,-2.547008547008547,1.123321123321123,-6.173382173382174,0.0,0.0,2.625,-1.2222222222222223,0.0,-7.197802197802197,0.0,0.0,2.8125,0.0,-1.5238095238095235,-8.202686202686202,-0.75,0.0,2.84375,2.41025641025641,-2.8742368742368742,-8.805860805860807,-1.125,0.0,2.78125,3.9511599511599513,-3.717948717948718,-9.326007326007328,-1.46875,0.0,2.625,4.764346764346763,-4.7606837606837615,-9.471306471306473,-1.78125,0.0,2.40625,5.515262515262514,-5.783882783882784,-8.7008547008547,-2.4375,0.625,2.0,6.406593406593408,-6.844932844932845,-6.991452991452992,-2.84375,0.84375,1.65625,6.658119658119658,-7.7826617826617825,-5.295482295482295,-3.09375,1.125,1.25,6.562881562881563,-8.373626373626374,-3.584859584859585,-3.1875,1.46875,0.78125,6.716727716727718,-8.832722832722832,-1.6984126984126984,-3.21875,1.65625,0.0,6.282051282051282,-8.805860805860807,0.0,-3.125,1.78125,0.0,5.560439560439559,-8.968253968253967,1.4969474969474967,-2.90625,1.90625,0.0,4.981684981684982,-8.90964590964591,3.225885225885226,-2.53125,1.9375,-0.75,4.2844932844932835,-8.572649572649572,4.557997557997559,-2.0625,1.96875,-1.21875,3.5286935286935286,-8.286935286935286,5.544566544566544,-1.625,1.90625,-1.625,2.743589743589744,-8.415140415140415,6.2686202686202686,-1.34375,1.6875,-2.03125,1.3357753357753357,-7.81074481074481,6.631257631257633,-1.15625,1.625,-2.53125,-1.4920634920634919,-5.727716727716727,7.218559218559219,-0.53125,1.5625,-2.6875,-2.467643467643468,-5.023199023199024,7.2735042735042725,0.0,1.34375,-2.75,-3.4432234432234434,-4.355311355311355,6.7606837606837615,0.0,1.15625,-2.75,-4.472527472527473,-3.47985347985348,6.235653235653236,0.71875,1.15625,-2.71875,-4.440781440781441,-2.78998778998779,6.0927960927960925,1.125,1.15625,-2.53125,-3.7704517704517695,-3.2014652014652016,5.898656898656899,1.375,0.78125,-2.3125,-3.851037851037851,-2.838827838827839,5.597069597069598,1.5,0.0,-2.125,-4.368742368742368,-2.4346764346764345,4.746031746031746,1.78125,0.0,-2.0,-4.2173382173382175,-2.380952380952381,3.84004884004884,2.03125,0.0,-1.84375,-3.681318681318681,-2.271062271062271,3.147741147741148,2.09375,0.0,-1.65625,-4.378510378510379,-0.9413919413919414,2.2234432234432235,2.21875,0.0,-1.46875,-5.085470085470085,0.0,0.6178266178266179,2.59375,0.0,-1.03125,-4.4151404151404146,0.0,-0.6129426129426129,2.46875,0.0,-0.6875,-3.52991452991453,0.0,-1.3308913308913308,2.1875,0.0,0.0,-3.523809523809524,0.0,-1.8473748473748477,2.15625,0.0,0.0,-3.782661782661783,0.0,-2.1416361416361416,2.21875,0.0,0.0,-2.6483516483516483,0.0,-1.752136752136752,2.125,0.0,0.0,-1.3675213675213675,0.0,-1.5409035409035412,1.90625,0.0,0.0,-0.9951159951159952,0.0,-2.4652014652014653,1.84375,0.0,0.0,-0.7728937728937729,0.5909645909645911,-3.609279609279609,1.75,0.0,0.5625,0.0,0.0,-4.338217338217338,1.5625,0.0,0.6875,0.0,0.0,-4.6996336996337,1.28125,0.0,0.8125,0.0,0.0,-4.267399267399267,1.03125,0.0,0.84375,1.9963369963369964,0.0,-2.6666666666666665,0.84375,0.0,0.875,2.289377289377289,0.0,-2.6996336996337003,0.84375,0.0,0.875,1.9365079365079363,0.0,-3.0561660561660564,0.71875,0.0,0.84375,2.087912087912088,-0.6764346764346765,-2.8095238095238093,0.53125,0.0,0.78125,3.4664224664224665,0.0,-1.514041514041514,0.0,0.0,0.65625,3.5225885225885225,0.0,-0.9926739926739928,0.0,0.0,0.5625,2.9047619047619047,0.0,-1.7106227106227103,0.0,0.0,0.0,2.271062271062271,0.0,-2.426129426129426,0.0,0.0,0.0,2.1880341880341883,0.0,-2.5396825396825395,0.0,0.0,0.0,2.122100122100122,0.0,-1.989010989010989,0.0,0.0,0.0,1.8864468864468864,0.0,-1.5921855921855919,0.0,0.0,0.0,1.4835164835164836,0.0,-1.3113553113553114,0.0,0.0,0.0,1.065934065934066,0.0,-0.9218559218559218,0.0,0.0,0.0,0.7313797313797313,0.0,-0.5274725274725275,0.0,0.0,0.0,0.5958485958485958,0.0,0.0,0.0,0.0,0.0,0.0,0.0,0.0,0.0,0.0,0.0,0.0,0.0,0.0,0.0,0.0,0.0,0.0,0.0,0.0,0.0,0.0,0.0,0.0,0.0,0.0,0.0,0.0,0.0,0.0,0.0,0.0,0.0,0.0,0.0,0.0,0.0,0.0,0.0,0.0,0.0,wp_del
accX,0.0,-0.5457875457875457,0.0,0.0,0.0,0.0,0.0,0.0,0.0,0.0,0.0,0.0,0.0,0.0,0.0,0.0,0.0,0.0,0.0,0.0,0.0,0.0,0.0,0.0,0.0,0.0,0.0,0.0,0.0,0.0,0.0,0.0,0.0,0.0,0.0,0.0,0.0,0.0,0.0,0.0,0.0,0.0,0.0,0.0,0.0,0.0,0.0,0.0,0.0,0.0,0.0,0.0,0.0,0.0,0.0,0.0,0.0,0.0,0.0,0.0,-0.5054945054945055,0.0,0.0,0.0,0.0,0.0,-0.6178266178266179,0.0,0.0,0.0,0.0,0.0,-0.6239316239316239,0.0,0.0,0.0,0.0,0.0,-1.0024420024420024,0.0,0.5506715506715507,0.0,0.0,0.0,-1.8620268620268619,0.5262515262515263,0.0,0.0,0.0,0.0,-2.8034188034188032,1.0744810744810744,0.0,0.0,0.0,0.0,-3.660561660561661,1.7789987789987791,0.0,0.0,0.0,0.6875,-4.307692307692308,2.1868131868131866,-0.5103785103785103,0.0,0.0,0.96875,-4.609279609279608,2.087912087912088,-1.2466422466422469,0.0,0.0,1.25,-4.818070818070818,2.103785103785104,-1.987789987789988,0.0,0.0,1.5625,-4.361416361416361,1.7655677655677655,-4.137973137973138,0.0,0.0,2.03125,-3.7289377289377286,1.5958485958485962,-4.934065934065933,0.0,-0.5625,2.3125,-2.518925518925519,1.2319902319902318,-5.676434676434678,0.0,-0.5625,2.53125,-1.2246642246642248,0.5506715506715507,-6.7997557997558,-0.53125,-0.625,2.71875,0.0,0.0,-8.045177045177045,-0.75,-0.625,2.84375,1.1172161172161172,-1.3553113553113554,-9.367521367521366,-1.03125,-0.53125,2.84375,3.0854700854700856,-2.9255189255189253,-9.92918192918193,-1.40625,0.0,2.8125,5.583638583638583,-4.859584859584858,-9.902319902319904,-1.84375,0.0,2.6875,7.136752136752138,-7.2014652014652025,-9.903540903540904,-2.1875,0.0,2.4375,7.543345543345543,-9.017094017094015,-9.335775335775336,-2.53125,0.53125,2.0,7.902319902319902,-10.417582417582418,-7.313797313797313,-2.84375,1.125,1.46875,7.797313797313797,-10.694749694749694,-4.087912087912088,-3.25,1.65625,0.625,7.275946275946276,-10.493284493284493,-0.8534798534798534,-3.25,2.15625,0.0,6.814407814407813,-10.14041514041514,1.9902319902319905,-3.03125,2.1875,0.0,5.957264957264957,-9.652014652014653,3.973137973137973,-2.65625,2.21875,-0.78125,5.344322344322343,-9.246642246642246,5.257631257631258,-2.21875,2.125,-1.25,4.605616605616605,-9.028083028083028,6.213675213675214,-1.8125,1.90625,-1.65625,3.388278388278388,-9.015873015873016,6.509157509157508,-1.4375,1.65625,-2.03125,1.8021978021978025,-8.411477411477412,6.673992673992674,-1.0625,1.59375,-2.34375,0.7496947496947497,-7.349206349206349,7.163614163614165,-0.625,1.5625,-2.59375,-0.5970695970695971,-6.297924297924298,7.31990231990232,0.0,1.53125,-2.8125,-1.4517704517704515,-5.228327228327228,7.1562881562881575,0.0,1.4375,-2.9375,-2.6129426129426134,-3.9670329670329667,6.536019536019536,0.78125,1.375,-2.90625,-2.664224664224664,-3.3431013431013437,4.965811965811966,1.25,1.0,-2.6875,-3.8217338217338215,-3.3015873015873014,4.1941391941391934,1.34375,0.875,-2.53125,-3.8083028083028077,-2.807081807081807,4.162393162393163,1.3125,0.8125,-2.40625,-4.04029304029304,-2.3626373626373627,3.9841269841269837,1.46875,0.5625,-2.25,-5.339438339438339,-1.0683760683760684,3.072039072039072,1.78125,0.0,-2.09375,-4.755799755799756,-0.9450549450549449,2.3919413919413923,2.03125,0.0,-1.8125,-3.976800976800977,-0.9474969474969476,2.1623931623931623,2.0,0.0,-1.46875,-4.8107448107448105,0.0,1.31013431013431,2.03125,0.0,-1.25,-4.074481074481073,0.0,0.7948717948717948,2.25,0.0,-0.9375,-3.0293040293040288,-0.9829059829059827,0.0,2.3125,0.0,-0.625,-2.9975579975579976,-1.1245421245421243,-0.8644688644688645,2.1875,0.0,0.0,-2.7326007326007327,0.0,-1.7106227106227103,2.125,0.0,0.0,-1.761904761904762,0.0,-2.137973137973138,2.15625,0.0,0.0,-0.894993894993895,0.0,-2.42002442002442,2.03125,0.0,0.0,-0.8620268620268621,0.0,-2.8583638583638584,1.90625,0.0,0.0,-0.7728937728937729,0.0,-3.4236874236874235,1.84375,0.0,0.0,0.0,0.0,-3.5372405372405376,1.53125,0.0,0.0,0.6166056166056166,0.5054945054945055,-3.283272283272283,1.3125,0.0,0.0,0.0,1.1782661782661783,-3.52991452991453,1.28125,0.0,0.53125,0.0,0.9987789987789988,-3.736263736263736,1.1875,0.0,0.59375,0.0,0.6007326007326007,-3.358974358974359,1.0625,0.0,0.625,0.7191697191697192,0.0,-2.6935286935286937,0.84375,0.0,0.6875,1.4676434676434675,0.5177045177045178,-2.3443223443223444,0.59375,0.0,0.6875,1.4261294261294262,0.5347985347985348,-2.5360195360195363,0.0,0.0,0.75,1.565323565323565,0.0,-2.5811965811965814,0.0,0.0,0.6875,1.6263736263736264,0.0,-2.2503052503052503,0.0,0.0,0.625,2.2771672771672766,0.0,-1.6288156288156288,0.0,0.0,0.59375,2.5482295482295485,0.0,-1.2112332112332111,0.0,0.0,0.53125,2.6202686202686203,0.0,-1.15995115995116,0.0,0.0,0.0,2.532356532356532,0.0,-1.2503052503052503,0.0,0.0,0.0,2.137973137973138,-0.6556776556776557,-1.2808302808302807,0.0,0.0,0.0,1.948717948717949,0.0,-0.8754578754578755,0.0,0.0,0.0,1.5628815628815629,0.0,0.0,0.0,0.0,0.0,1.166056166056166,0.0,0.0,0.0,0.0,0.0,0.9706959706959708,0.0,0.0,0.0,0.0,0.0,0.0,0.0,0.0,0.0,0.0,0.0,0.0,0.0,0.0,0.0,0.0,0.0,wp_del
accX,0.0,0.0,0.0,0.0,0.0,0.0,0.0,0.0,0.0,0.0,0.0,0.0,0.0,0.0,0.0,0.0,0.0,0.0,0.0,0.0,0.0,0.0,0.0,0.0,0.0,0.0,0.0,0.0,0.0,0.0,-0.6019536019536019,0.0,0.5323565323565324,0.0,0.0,0.0,0.0,0.0,0.0,0.0,0.0,0.0,-0.8156288156288156,0.0,0.0,0.0,0.0,0.0,-0.9194139194139194,0.0,0.6446886446886447,0.0,0.0,0.0,-1.7362637362637363,0.0,0.0,0.0,0.0,0.0,-2.4029304029304033,0.8473748473748474,0.0,0.0,0.0,0.625,-3.4432234432234434,1.1147741147741148,-0.5628815628815629,0.53125,0.0,0.84375,-3.0061050061050065,1.1001221001221002,-0.9096459096459096,0.0,0.0,1.09375,-3.412698412698413,1.321123321123321,-1.9768009768009769,0.0,0.0,1.3125,-3.47985347985348,1.6727716727716728,-2.971916971916972,0.0,0.0,1.53125,-2.975579975579976,1.6642246642246643,-3.78998778998779,0.0,0.0,1.8125,-2.3687423687423688,1.2234432234432235,-4.663003663003662,0.0,0.0,2.03125,-1.2564102564102564,0.5714285714285714,-5.3821733821733835,0.0,0.0,2.1875,0.0,0.0,-6.089133089133089,0.0,0.0,2.28125,0.8852258852258852,0.0,-7.045177045177045,-0.75,0.0,2.34375,1.7216117216117215,-1.1623931623931625,-8.115995115995116,-1.0,0.0,2.3125,3.0854700854700856,-2.1514041514041518,-8.518925518925519,-1.34375,0.0,2.21875,3.9609279609279615,-3.211233211233212,-8.432234432234432,-1.96875,0.0,1.96875,4.910866910866911,-4.146520146520147,-7.94017094017094,-2.40625,0.0,1.78125,5.809523809523809,-4.9865689865689875,-7.026862026862028,-2.71875,0.0,1.5,6.306471306471306,-5.881562881562883,-6.091575091575091,-2.90625,0.71875,1.1875,6.954822954822955,-7.747252747252747,-4.802197802197801,-3.21875,1.0,0.78125,7.157509157509158,-9.1013431013431,-3.0207570207570207,-3.40625,1.21875,0.0,6.7704517704517695,-9.354090354090356,-0.8278388278388278,-3.34375,1.4375,0.0,5.7594627594627585,-9.075702075702075,0.7338217338217338,-3.0625,1.8125,0.0,5.148962148962148,-8.75946275946276,2.3638583638583643,-2.6875,2.0625,-0.9375,4.529914529914531,-9.020757020757019,3.6971916971916974,-2.40625,2.03125,-1.375,3.3760683760683765,-9.125763125763124,4.979242979242978,-2.1875,1.9375,-1.75,1.943833943833944,-8.404151404151404,6.356532356532357,-1.84375,1.8125,-2.03125,0.0,-6.4261294261294255,7.7704517704517695,-0.9375,1.625,-2.40625,-0.6007326007326007,-6.355311355311356,7.476190476190476,0.0,1.46875,-2.53125,-1.6715506715506716,-6.087912087912088,7.12087912087912,0.0,1.3125,-2.625,-2.958485958485958,-5.435897435897436,6.424908424908424,0.0,1.25,-2.65625,-3.3785103785103785,-5.052503052503051,5.851037851037852,0.65625,1.15625,-2.625,-3.3785103785103785,-4.283272283272283,5.7704517704517695,0.84375,1.0,-2.53125,-3.8815628815628815,-3.561660561660561,5.409035409035409,1.09375,0.78125,-2.4375,-4.752136752136752,-2.7301587301587302,4.702075702075702,1.375,0.65625,-2.28125,-4.771672771672772,-2.288156288156288,4.024420024420024,1.75,0.625,-2.0625,-4.407814407814408,-1.8119658119658117,3.37973137973138,1.9375,0.0,-1.8125,-5.16971916971917,-0.5042735042735043,2.0525030525030523,2.0625,0.0,-1.59375,-4.9584859584859595,0.0,0.9328449328449328,2.1875,0.0,-1.03125,-4.172161172161172,0.0,0.0,2.15625,0.0,-0.6875,-4.305250305250305,0.0,-0.5299145299145299,2.21875,0.0,0.0,-4.102564102564102,0.0,-1.706959706959707,2.21875,0.0,0.0,-3.3626373626373627,0.0,-2.3785103785103785,2.03125,0.0,0.0,-2.4615384615384617,0.0,-2.426129426129426,1.875,0.0,0.0,-1.7081807081807079,0.0,-2.5689865689865687,1.8125,0.0,0.59375,-0.9645909645909646,0.0,-2.855921855921856,1.71875,0.0,0.65625,-0.5860805860805861,0.0,-2.7557997557997562,1.5625,0.0,0.6875,0.0,0.0,-2.5396825396825395,1.4375,0.0,0.75,0.0,0.0,-2.3015873015873014,1.3125,0.0,0.8125,0.0,0.0,-2.2612942612942613,1.21875,0.0,0.84375,1.293040293040293,0.0,-2.7704517704517704,1.0,0.0,0.8125,1.6068376068376071,0.0,-3.034188034188034,0.78125,0.0,0.8125,1.6874236874236874,0.0,-2.8424908424908426,0.65625,0.0,0.78125,1.6385836385836383,0.0,-2.67032967032967,0.5625,0.0,0.75,2.0476190476190474,0.0,-2.122100122100122,0.0,0.0,0.6875,2.5750915750915757,0.0,-1.652014652014652,0.0,0.0,0.65625,2.6178266178266183,0.0,-1.5164835164835164,0.0,0.0,0.59375,2.374847374847375,0.0,-1.673992673992674,0.0,0.0,0.53125,2.1074481074481075,0.0,-1.4578754578754578,0.0,0.0,0.0,1.9865689865689864,0.0,-1.0354090354090355,0.0,0.0,0.0,2.13064713064713,0.0,-0.6996336996336996,0.0,0.0,0.0,1.8168498168498168,0.0,-0.8241758241758241,0.0,0.0,0.0,1.6727716727716728,0.0,-0.8791208791208791,0.0,0.0,0.0,0.9645909645909646,0.0,-1.0329670329670328,0.0,0.0,0.0,0.7240537240537241,0.0,-0.8156288156288156,0.0,0.0,0.0,0.0,0.0,0.0,0.0,0.0,0.0,0.5506715506715507,0.0,0.0,0.0,0.0,0.0,0.0,0.0,0.0,0.0,0.0,0.0,0.0,0.0,0.0,0.0,0.0,0.0,0.0,0.0,0.0,0.0,0.0,0.0,0.0,0.0,0.0,0.0,0.0,0.0,,,,,,,,,,,,,wp_del
accX,0.0,0.0,0.0,0.0,0.0,0.0,0.0,0.0,0.0,0.0,0.0,0.0,0.0,0.0,0.0,0.0,0.0,0.0,0.0,0.0,0.0,0.0,0.0,0.0,0.0,0.0,0.0,0.0,0.0,0.0,0.0,0.0,0.0,0.0,0.0,0.0,0.0,0.0,0.0,0.0,0.0,0.0,0.0,0.0,0.0,0.0,0.0,0.0,0.0,0.0,0.0,0.0,0.0,0.0,0.0,0.0,0.0,0.0,0.0,0.0,0.0,0.0,0.0,0.0,0.0,0.0,0.0,0.0,0.0,0.0,0.0,0.0,0.0,0.0,0.0,0.0,0.0,0.0,0.0,0.0,0.0,0.0,0.0,0.0,-1.0024420024420024,0.0,0.0,0.0,0.0,0.0,-1.5970695970695972,0.0,0.7191697191697192,0.0,0.0,0.0,-2.15018315018315,0.0,0.8412698412698413,0.0,0.0,0.0,-2.7667887667887667,0.0,0.9658119658119658,0.0,0.0,0.0,-3.412698412698413,1.1257631257631258,1.021978021978022,0.0,0.0,0.59375,-3.935286935286935,1.8571428571428568,0.7142857142857143,0.0,0.0,0.875,-5.465201465201465,2.9230769230769234,-2.039072039072039,0.5625,0.0,1.375,-4.921855921855922,2.593406593406593,-3.7423687423687424,0.0,0.0,1.78125,-4.3137973137973145,1.9474969474969477,-5.313797313797314,0.0,0.0,2.15625,-3.3382173382173383,1.275946275946276,-6.498168498168497,0.0,0.0,2.4375,-2.0573870573870567,0.0,-7.501831501831503,0.0,0.0,2.6875,-0.63003663003663,-0.8083028083028083,-7.953601953601954,-0.8125,0.0,2.875,1.321123321123321,-1.7631257631257633,-7.687423687423687,-1.15625,0.0,2.90625,2.688644688644689,-2.7765567765567765,-7.710622710622711,-1.40625,0.0,2.8125,4.068376068376068,-3.8815628815628815,-7.565323565323565,-1.6875,0.0,2.625,5.422466422466423,-5.039072039072039,-7.042735042735043,-2.03125,0.0,2.3125,6.181929181929183,-5.86080586080586,-6.108669108669107,-2.375,0.53125,1.96875,6.368742368742367,-6.540903540903541,-5.08058608058608,-2.65625,0.71875,1.375,6.722832722832723,-7.168498168498169,-3.6312576312576312,-2.8125,1.03125,1.0,6.730158730158731,-7.700854700854701,-2.1770451770451764,-2.84375,1.15625,0.5625,6.338217338217338,-7.997557997557997,-0.7802197802197802,-2.78125,1.40625,0.0,5.869352869352869,-8.046398046398046,0.0,-2.625,1.625,0.0,5.481074481074481,-7.914529914529915,1.5836385836385836,-2.40625,1.6875,-0.71875,4.771672771672772,-7.86080586080586,2.371184371184371,-2.25,1.65625,-1.09375,3.763125763125763,-7.781440781440781,3.407814407814408,-1.96875,1.53125,-1.40625,2.924297924297924,-7.456654456654457,4.242979242979243,-1.59375,1.375,-1.6875,2.115995115995116,-7.029304029304028,5.089133089133089,-1.21875,1.25,-1.9375,0.8583638583638583,-6.787545787545787,5.263736263736264,-0.96875,1.3125,-2.28125,-0.7094017094017094,-6.2466422466422475,5.1892551892551895,-0.71875,1.46875,-2.5,-1.2161172161172158,-5.818070818070817,5.540903540903541,0.0,1.1875,-2.5625,-2.844932844932845,-4.091575091575091,5.493284493284493,0.0,1.0,-2.5,-2.8095238095238093,-3.912087912087912,5.623931623931624,0.0,0.96875,-2.4375,-3.5409035409035408,-3.1660561660561664,5.688644688644688,0.59375,1.0,-2.40625,-3.6776556776556775,-2.6727716727716726,5.7606837606837615,0.9375,0.96875,-2.28125,-3.1868131868131866,-2.578754578754579,5.727716727716727,1.25,0.625,-2.09375,-3.897435897435898,-2.010989010989011,4.998778998778999,1.46875,0.0,-1.96875,-4.345543345543345,-1.4664224664224663,3.9194139194139193,1.8125,0.0,-1.84375,-3.771672771672772,-1.380952380952381,3.075702075702076,2.0,0.0,-1.59375,-4.1159951159951165,-0.7851037851037851,2.1904761904761907,2.09375,0.0,-1.375,-3.965811965811966,-0.5897435897435898,1.4590964590964588,2.125,0.0,-1.125,-3.3223443223443225,0.0,1.2808302808302807,2.0625,0.0,-0.90625,-3.673992673992674,0.0,0.0,2.21875,0.0,-0.53125,-3.761904761904762,0.0,-0.8522588522588522,2.3125,0.0,0.0,-3.485958485958486,0.0,-2.0146520146520146,2.15625,0.0,0.0,-2.8534798534798536,0.0,-2.4065934065934065,1.9375,0.0,0.0,-1.5470085470085468,0.0,-2.0329670329670333,1.78125,0.0,0.0,-1.2503052503052503,0.0,-2.3040293040293043,1.78125,0.0,0.0,-0.7326007326007326,0.0,-2.68009768009768,1.78125,0.0,0.0,0.0,0.0,-3.435897435897436,1.625,0.0,0.0,0.0,0.0,-4.180708180708181,1.28125,0.0,0.53125,0.0,0.503052503052503,-4.291819291819292,1.0,0.0,0.625,0.6141636141636142,0.9548229548229548,-3.628815628815629,0.9375,0.0,0.75,1.0158730158730158,1.0244200244200243,-3.289377289377289,0.90625,0.0,0.78125,1.8485958485958487,0.0,-3.0805860805860807,0.75,0.0,0.78125,2.3418803418803416,0.0,-2.652014652014652,0.53125,0.0,0.75,2.2295482295482296,0.0,-2.061050061050061,0.0,0.0,0.6875,2.4590964590964592,0.0,-1.5299145299145298,0.0,0.0,0.59375,2.5702075702075704,0.0,-1.4114774114774116,0.0,0.0,0.53125,2.083028083028083,0.0,-1.557997557997558,0.0,0.0,0.0,1.9511599511599511,0.0,-1.3675213675213675,0.0,0.0,0.0,1.9938949938949944,0.0,-0.8192918192918193,0.0,0.0,0.0,1.8510378510378511,0.0,-0.557997557997558,0.0,0.0,0.0,1.887667887667888,0.0,-0.6361416361416361,0.0,0.0,0.0,1.7838827838827842,0.0,-0.9511599511599512,0.0,0.0,0.0,1.352869352869353,0.0,-0.8864468864468864,0.0,0.0,0.0,0.9829059829059827,0.0,-0.6739926739926739,0.0,0.0,0.0,wp_del
accX,0.0,0.0,0.0,0.0,0.0,0.0,0.0,0.0,0.0,0.0,0.0,0.0,0.0,0.0,0.0,0.0,0.0,0.0,0.0,0.0,0.0,0.0,0.0,0.0,0.0,0.0,0.0,0.0,0.0,0.0,-1.122100122100122,0.0,0.0,0.0,0.0,0.0,-1.7216117216117215,0.5286935286935287,0.0,0.0,0.0,0.0,-2.4932844932844933,0.9487179487179488,1.0634920634920637,0.0,0.0,0.0,-3.062271062271062,1.1733821733821734,1.2637362637362637,0.5625,0.0,0.53125,-3.33943833943834,1.3247863247863247,1.1245421245421243,0.53125,0.0,0.75,-3.869352869352869,1.824175824175824,0.0,0.53125,0.0,1.0625,-4.528693528693529,2.407814407814408,0.0,0.65625,0.0,1.375,-4.361416361416361,1.8742368742368745,-1.5506715506715507,0.65625,0.0,1.8125,-3.398046398046398,1.0476190476190477,-3.382173382173382,0.0,0.0,2.09375,-2.7533577533577533,0.8827838827838828,-4.435897435897437,0.0,0.0,2.34375,-2.3907203907203907,1.1514041514041513,-5.903540903540903,0.0,0.0,2.53125,-1.2002442002442002,0.6361416361416361,-7.257631257631258,0.0,0.0,2.71875,0.0,0.0,-8.08058608058608,-0.5625,0.0,2.84375,1.6214896214896215,-1.3968253968253967,-8.284493284493285,-0.96875,0.0,2.875,3.1623931623931623,-2.7460317460317465,-8.36996336996337,-1.375,0.0,2.8125,4.599511599511598,-3.9169719169719173,-8.422466422466423,-1.75,0.0,2.59375,5.931623931623932,-5.326007326007327,-8.153846153846152,-2.0625,0.0,2.3125,6.625152625152626,-6.754578754578755,-7.5506715506715505,-2.46875,0.0,1.9375,7.492063492063493,-8.031746031746032,-5.976800976800977,-3.0,0.53125,1.5625,7.476190476190476,-8.264957264957268,-3.862026862026862,-3.625,0.59375,1.0,7.1037851037851025,-7.901098901098901,-1.7557997557997558,-3.53125,0.90625,0.5625,6.848595848595848,-7.814407814407813,0.0,-3.15625,1.09375,0.0,6.506715506715508,-7.747252747252747,1.468864468864469,-2.71875,1.21875,0.0,5.645909645909647,-7.871794871794871,2.5726495726495733,-2.3125,1.34375,-0.75,4.384615384615385,-7.851037851037852,2.9938949938949935,-2.0625,1.65625,-1.28125,3.8180708180708174,-7.7594627594627585,4.048840048840049,-1.875,1.78125,-1.6875,3.1391941391941387,-7.529914529914531,4.91941391941392,-1.65625,1.59375,-1.96875,2.0329670329670333,-7.459096459096459,5.21001221001221,-1.3125,1.375,-2.1875,0.8437118437118437,-6.974358974358975,5.135531135531137,-0.9375,1.375,-2.375,0.0,-6.667887667887667,5.1159951159951165,0.0,1.46875,-2.53125,-1.0781440781440779,-6.181929181929183,4.783882783882785,0.0,1.53125,-2.6875,-2.266178266178266,-4.87912087912088,4.589743589743589,0.0,1.25,-2.6875,-3.407814407814408,-3.7289377289377286,4.462759462759463,0.0,1.125,-2.625,-3.609279609279609,-3.5494505494505493,4.205128205128204,0.78125,1.125,-2.53125,-3.418803418803418,-3.5470085470085464,4.067155067155067,0.96875,1.0,-2.4375,-4.35042735042735,-2.7081807081807083,3.6825396825396814,1.125,0.8125,-2.34375,-4.4163614163614175,-1.9926739926739927,3.673992673992674,1.375,0.75,-2.15625,-3.9194139194139193,-1.4481074481074483,3.726495726495727,1.5625,0.59375,-1.96875,-4.703296703296704,0.0,3.0134310134310134,1.78125,0.0,-1.8125,-5.490842490842492,0.0,1.9181929181929185,2.0,0.0,-1.59375,-4.772893772893774,0.6043956043956044,1.3064713064713065,2.0625,0.0,-1.28125,-4.1159951159951165,0.8144078144078144,1.020757020757021,1.96875,0.0,-0.9375,-4.299145299145299,1.5213675213675213,0.5079365079365079,2.03125,0.0,-0.5625,-4.09035409035409,1.4126984126984128,-0.6825396825396826,2.15625,0.0,0.0,-2.94993894993895,0.0,-1.844932844932845,2.03125,0.0,0.0,-2.039072039072039,0.0,-2.606837606837607,1.78125,0.0,0.0,-1.7216117216117215,0.0,-2.956043956043956,1.65625,0.0,0.0,-1.442002442002442,0.6959706959706959,-2.8656898656898657,1.625,0.0,0.0,0.0,0.0,-2.227106227106227,1.5,0.0,0.0,0.0,0.6019536019536019,-1.9230769230769231,1.375,0.0,0.0,0.0,0.9023199023199024,-2.299145299145299,1.375,0.0,0.53125,0.0,0.0,-2.659340659340659,1.25,0.0,0.59375,0.0,0.0,-2.7350427350427347,1.09375,0.0,0.625,0.0,0.0,-2.467643467643468,0.90625,0.0,0.625,1.0915750915750917,0.0,-2.1465201465201464,0.71875,0.0,0.6875,1.3724053724053724,0.0,-2.1697191697191696,0.625,0.0,0.6875,1.5238095238095235,0.0,-2.2014652014652016,0.53125,0.0,0.65625,1.7826617826617828,0.0,-2.0854700854700856,0.0,0.0,0.625,2.142857142857143,0.0,-1.8119658119658117,0.0,0.0,0.5625,2.4383394383394386,0.0,-1.761904761904762,0.0,0.0,0.0,2.2649572649572653,0.0,-1.8083028083028083,0.0,0.0,0.0,1.6874236874236874,0.0,-1.9609279609279608,0.0,0.0,0.0,1.4566544566544566,0.0,-1.8376068376068373,0.0,0.0,0.0,1.0573870573870574,0.0,-1.434676434676435,0.0,0.0,0.0,0.6202686202686203,0.0,-0.94993894993895,0.0,0.0,0.0,0.0,0.0,0.0,0.0,0.0,0.0,0.0,0.0,0.0,0.0,0.0,0.0,0.0,0.0,0.0,0.0,0.0,0.0,0.0,0.0,0.0,0.0,0.0,0.0,0.0,0.0,0.0,0.0,0.0,0.0,0.0,0.0,0.0,0.0,0.0,0.0,0.0,0.0,0.0,0.0,0.0,0.0,0.0,0.0,0.0,0.0,0.0,0.0,0.0,0.0,0.0,0.0,0.0,0.0,0.0,0.0,0.0,0.0,0.0,0.0,wp_del
accX,0.0,0.0,0.0,0.0,0.0,0.0,0.0,0.0,0.0,0.0,0.0,0.0,0.0,0.0,0.0,0.0,0.0,0.0,0.0,0.0,0.0,0.0,0.0,0.0,0.0,0.0,0.0,0.0,0.0,0.0,0.0,0.0,0.0,0.0,0.0,0.0,-0.6031746031746031,0.0,0.0,0.0,0.0,0.0,-1.2991452991452992,0.0,0.7057387057387058,0.0,0.0,0.0,-1.6202686202686205,0.0,1.164835164835165,0.0,0.0,0.0,-2.47008547008547,0.7411477411477412,1.4932844932844933,0.0,0.0,0.0,-3.3150183150183152,1.010989010989011,1.4224664224664223,0.0,0.0,0.0,-3.5384615384615383,0.9597069597069596,1.1086691086691087,0.59375,0.0,0.65625,-3.8656898656898657,1.0805860805860803,0.0,0.53125,0.0,0.90625,-4.550671550671551,1.7496947496947497,0.0,0.53125,0.0,1.21875,-4.771672771672772,1.7374847374847375,-1.4603174603174602,0.625,0.0,1.65625,-4.12087912087912,1.3443223443223444,-2.7875457875457874,0.0,0.0,1.96875,-3.887667887667888,1.3406593406593406,-3.9291819291819285,0.0,0.0,2.28125,-3.2307692307692313,0.8241758241758241,-4.915750915750916,0.0,0.0,2.53125,-1.9352869352869355,0.0,-5.682539682539683,0.0,0.0,2.6875,0.0,-1.0842490842490842,-6.046398046398046,-0.5625,0.0,2.75,1.0781440781440779,-1.575091575091575,-6.967032967032968,-0.84375,0.0,2.6875,3.111111111111111,-2.313797313797314,-7.652014652014652,-1.09375,0.0,2.5625,4.108669108669108,-3.028083028083028,-8.461538461538463,-1.375,0.0,2.34375,4.9462759462759465,-3.829059829059829,-8.532356532356532,-1.78125,0.0,2.0625,5.658119658119658,-4.8840048840048835,-8.333333333333334,-2.1875,0.0,1.78125,6.484737484737486,-6.074481074481075,-7.258852258852259,-2.5,0.71875,1.46875,6.630036630036631,-7.225885225885227,-4.356532356532357,-2.78125,1.15625,0.90625,7.2283272283272275,-8.146520146520146,-2.324786324786325,-2.84375,1.46875,0.0,6.882783882783882,-8.507936507936508,-0.5494505494505495,-2.84375,1.75,0.0,6.4444444444444455,-8.9010989010989,0.8974358974358975,-2.75,1.875,0.0,5.485958485958487,-8.887667887667888,2.173382173382173,-2.6875,1.84375,-0.90625,4.134310134310135,-8.345543345543346,3.267399267399268,-2.46875,1.8125,-1.3125,3.3907203907203907,-8.178266178266178,4.351648351648351,-2.125,1.875,-1.6875,2.4004884004884004,-8.347985347985349,5.175824175824176,-1.8125,1.875,-2.0625,1.2087912087912087,-8.175824175824175,6.089133089133089,-1.5,1.75,-2.375,0.0,-7.378510378510379,6.79120879120879,-1.15625,1.625,-2.65625,-1.2918192918192921,-6.312576312576313,7.272283272283273,-0.6875,1.5,-2.84375,-2.490842490842491,-5.332112332112332,7.305250305250305,0.0,1.40625,-2.9375,-3.5946275946275947,-4.267399267399267,7.1050061050061055,0.0,1.1875,-2.8125,-3.6984126984126986,-3.5091575091575087,7.170940170940171,0.84375,0.90625,-2.65625,-4.166056166056166,-3.05006105006105,6.88034188034188,1.21875,0.65625,-2.46875,-4.764346764346763,-2.3968253968253967,6.274725274725275,1.59375,0.59375,-2.28125,-4.984126984126983,-1.7777777777777777,5.344322344322343,1.875,0.59375,-2.0625,-4.400488400488402,-1.636141636141636,4.747252747252747,2.0625,0.53125,-1.78125,-3.926739926739927,-1.8290598290598292,4.0927960927960925,2.09375,0.0,-1.53125,-4.4664224664224665,-0.9010989010989012,3.0842490842490844,2.25,0.0,-1.21875,-4.00976800976801,-0.9365079365079364,1.9267399267399268,2.40625,0.0,-0.90625,-3.7094017094017095,-1.3956043956043955,0.0,2.375,0.0,-0.75,-3.81929181929182,-0.6654456654456654,-0.8681318681318682,2.3125,0.0,-0.5625,-3.0158730158730163,-0.5958485958485958,-1.4468864468864469,2.15625,0.0,0.0,-2.092796092796093,0.0,-1.9572649572649568,2.125,0.0,0.0,-1.9255189255189256,0.0,-2.9401709401709404,2.15625,0.0,0.0,-0.5286935286935287,-0.7667887667887668,-3.2222222222222223,1.96875,0.0,0.0,-0.5494505494505495,0.0,-3.4346764346764345,1.6875,0.0,0.0,0.0,0.0,-3.3638583638583635,1.53125,0.0,0.0,0.0,0.0,-3.2551892551892547,1.40625,0.0,0.0,0.0,0.7313797313797313,-3.6190476190476186,1.28125,0.0,0.53125,0.0,1.0195360195360197,-4.191697191697192,1.21875,0.0,0.625,0.63003663003663,0.5482295482295483,-4.556776556776557,1.0625,0.0,0.71875,0.8705738705738706,0.0,-4.4151404151404146,0.78125,0.0,0.71875,1.0976800976800978,0.0,-3.56043956043956,0.0,0.0,0.75,1.387057387057387,0.5677655677655677,-2.5641025641025643,0.0,0.0,0.75,1.7118437118437118,0.5177045177045178,-2.0769230769230766,0.0,0.0,0.78125,2.3663003663003663,0.0,-1.953601953601953,0.0,0.0,0.75,2.4615384615384617,0.0,-1.7680097680097682,0.0,0.0,0.625,2.1343101343101343,0.0,-1.5921855921855919,0.0,0.0,0.53125,2.0183150183150182,0.0,-1.0842490842490842,0.0,0.0,0.0,1.9816849816849815,-0.5445665445665445,-0.8302808302808303,0.0,0.0,0.0,2.0354090354090357,-0.5042735042735043,0.0,0.0,0.0,0.0,1.7326007326007329,-0.518925518925519,0.0,0.0,0.0,0.0,1.565323565323565,0.0,0.0,0.0,0.0,0.0,1.2844932844932846,-0.5396825396825397,0.0,0.0,0.0,0.0,1.177045177045177,-0.6275946275946276,0.0,0.0,0.0,0.0,1.0952380952380951,0.0,0.0,0.0,0.0,0.0,0.7020757020757019,0.0,0.0,0.0,0.0,0.0,0.0,0.0,0.0,0.0,0.0,0.0,0.0,0.0,0.0,0.0,0.0,0.0,0.0,0.0,0.0,0.0,0.0,0.0,0.0,0.0,0.0,0.0,0.0,0.0,0.0,0.0,0.0,0.0,0.0,0.0,wp_del
accX,0.0,0.0,0.0,0.0,0.0,0.0,0.0,0.0,0.0,0.0,0.0,0.0,0.0,0.0,0.0,0.0,0.0,0.0,0.0,0.0,0.0,0.0,0.0,0.0,0.0,0.0,0.0,0.0,0.0,0.0,-0.5384615384615384,0.0,0.0,0.0,0.0,0.0,-0.7118437118437119,0.0,0.0,0.0,0.0,0.0,-1.0903540903540905,0.0,0.5396825396825397,0.0,0.0,0.0,-1.1843711843711844,0.0,0.6825396825396826,0.0,0.0,0.0,-1.3650793650793651,0.0,0.6532356532356532,0.0,0.0,0.0,-1.815628815628816,0.0,1.0671550671550671,0.0,0.0,0.0,-2.474969474969475,0.7851037851037851,0.9010989010989012,0.0,0.0,0.53125,-3.0781440781440783,1.3308913308913308,0.5067155067155067,0.0,0.0,0.71875,-3.5470085470085464,1.6117216117216118,0.0,0.59375,0.0,0.96875,-3.7692307692307687,1.8107448107448108,-1.2735042735042734,0.5625,0.0,1.21875,-3.8485958485958487,2.0415140415140414,-2.3064713064713063,0.0,0.0,1.53125,-3.6544566544566544,2.1184371184371185,-3.2649572649572653,0.0,0.0,1.84375,-3.2600732600732596,1.5482295482295485,-4.326007326007327,0.0,0.0,2.125,-2.2735042735042734,1.083028083028083,-5.326007326007327,0.0,0.0,2.34375,-1.3357753357753357,0.0,-6.214896214896215,0.0,0.0,2.5625,0.0,0.0,-6.907203907203908,-0.59375,-0.5625,2.8125,0.0,-0.9047619047619048,-7.808302808302808,-1.34375,-0.875,3.125,0.0,-1.4395604395604396,-8.278388278388281,-1.6875,-0.59375,3.1875,2.0903540903540905,-2.555555555555556,-8.244200244200243,-1.625,0.0,3.09375,3.47985347985348,-5.155067155067155,-8.865689865689868,-1.71875,0.0,2.84375,4.836385836385836,-7.157509157509158,-8.925518925518926,-2.0,1.0,2.4375,6.429792429792429,-8.97069597069597,-7.842490842490842,-2.34375,1.46875,1.90625,7.442002442002442,-10.001221001221,-5.769230769230768,-2.625,1.875,1.28125,8.285714285714286,-10.627594627594627,-3.467643467643468,-2.78125,2.125,0.59375,8.014652014652015,-11.015873015873014,-1.4334554334554337,-2.875,2.21875,0.0,6.851037851037852,-10.757020757020758,0.5238095238095238,-2.78125,2.28125,-0.6875,5.564102564102564,-10.174603174603174,2.380952380952381,-2.46875,2.34375,-1.28125,4.521367521367521,-10.12087912087912,3.6349206349206344,-2.21875,2.34375,-1.8125,2.1001221001221,-8.516483516483516,6.454212454212454,-1.96875,2.03125,-2.4375,0.6068376068376068,-7.29059829059829,7.282051282051282,-1.5625,1.78125,-2.71875,-0.7350427350427351,-6.3992673992674005,7.394383394383395,-1.0,1.6875,-2.9375,-1.7264957264957266,-5.965811965811965,7.0366300366300365,0.0,1.53125,-3.0,-2.84004884004884,-5.039072039072039,6.626373626373629,0.0,1.40625,-3.03125,-3.336996336996337,-4.462759462759463,6.363858363858364,0.0,1.3125,-2.96875,-3.4945054945054945,-3.9462759462759465,6.440781440781442,0.84375,1.25,-2.875,-4.001221001221002,-3.1782661782661785,6.3186813186813175,1.1875,1.15625,-2.8125,-4.130647130647131,-2.8937728937728937,5.606837606837607,1.5625,1.0,-2.625,-4.074481074481073,-2.7399267399267404,4.831501831501831,1.59375,0.65625,-2.34375,-3.6507936507936503,-2.1575091575091574,5.020757020757022,1.53125,0.0,-2.09375,-4.1941391941391934,-1.2283272283272284,4.351648351648351,1.96875,0.0,-1.78125,-4.954822954822955,-0.6544566544566545,2.8205128205128207,2.3125,0.0,-1.5,-4.334554334554333,-1.122100122100122,1.534798534798535,2.34375,0.0,-1.15625,-3.671550671550672,-1.177045177045177,0.0,2.15625,0.0,-0.90625,-4.349206349206349,0.0,-0.9242979242979243,2.1875,0.0,-0.59375,-3.6617826617826617,0.0,-1.5262515262515262,2.21875,0.0,0.0,-2.9255189255189253,0.0,-1.4737484737484738,2.09375,0.0,0.0,-2.294261294261294,0.0,-1.8632478632478635,2.03125,0.0,0.0,-2.641025641025641,0.0,-2.6666666666666665,2.125,0.0,0.0,-2.120879120879121,0.0,-3.47985347985348,1.96875,0.0,0.53125,-1.2173382173382172,-0.5506715506715507,-3.7094017094017095,1.6875,0.0,0.6875,0.0,0.0,-3.782661782661783,1.4375,0.0,0.78125,0.0,0.0,-4.091575091575091,1.28125,0.0,0.84375,0.5750915750915749,0.0,-4.253968253968254,1.15625,0.0,0.875,1.4725274725274726,0.0,-3.95970695970696,0.90625,0.0,0.875,2.012210012210012,0.0,-3.4932844932844933,0.625,0.0,0.90625,2.706959706959707,0.0,-2.6105006105006106,0.0,0.0,0.875,2.6935286935286937,0.0,-2.1416361416361416,0.0,0.0,0.8125,3.0293040293040288,0.0,-1.7887667887667889,0.0,0.0,0.6875,3.304029304029304,0.0,-1.3663003663003663,0.0,0.0,0.5625,3.1416361416361416,0.0,-1.1782661782661783,0.0,0.0,0.0,2.9035409035409034,0.0,-0.9572649572649572,0.0,0.0,0.0,2.385836385836386,0.0,-0.7264957264957265,0.0,0.0,0.0,2.028083028083028,0.0,0.0,0.0,0.0,0.0,1.7960927960927962,0.0,0.0,0.0,0.0,0.0,1.3992673992673992,0.0,0.0,0.0,0.0,0.0,1.0048840048840049,0.0,-0.5653235653235653,0.0,0.0,0.0,0.8559218559218559,0.0,-0.5885225885225885,0.0,0.0,0.0,0.0,0.0,-0.6398046398046398,0.0,0.0,0.0,0.0,0.0,0.0,0.0,0.0,0.0,0.5384615384615384,0.0,0.0,0.0,0.0,0.0,0.0,0.0,0.0,0.0,0.0,0.0,0.0,0.0,0.0,0.0,0.0,0.0,0.0,0.0,0.0,0.0,0.0,0.0,0.0,0.0,0.0,0.0,0.0,0.0,0.0,0.0,0.0,0.0,0.0,0.0,wp_del
accX,0.0,0.0,0.0,0.0,0.0,0.0,0.0,0.0,0.0,0.0,0.0,0.0,0.0,0.0,0.0,0.0,0.0,0.0,0.0,0.0,0.0,0.0,0.0,0.0,0.0,0.0,0.0,0.0,0.0,0.0,0.0,0.0,0.0,0.0,0.0,0.0,-0.7460317460317459,0.0,0.5531135531135531,0.0,0.0,0.0,-0.9658119658119658,0.5543345543345544,0.7167277167277167,0.0,0.0,0.0,-1.2332112332112333,0.0,0.0,0.0,0.0,0.0,-1.5470085470085468,0.6227106227106227,0.0,0.0,0.0,0.0,-2.241758241758242,1.1172161172161172,0.0,0.0,0.0,0.0,-2.9829059829059825,1.3003663003663004,0.0,0.0,0.0,0.65625,-3.3724053724053724,1.7130647130647132,-0.6874236874236874,0.0,0.0,0.875,-3.7142857142857135,2.0854700854700856,-1.0268620268620268,0.0,0.0,1.125,-3.7228327228327234,2.045177045177045,-1.6984126984126984,0.0,0.0,1.40625,-3.4664224664224665,1.984126984126984,-2.6971916971916974,0.0,0.0,1.6875,-3.172161172161172,2.0488400488400487,-3.7094017094017095,0.0,0.0,2.0,-2.36019536019536,1.474969474969475,-4.627594627594628,0.0,0.0,2.25,-1.2148962148962148,0.5482295482295483,-5.559218559218558,0.0,0.0,2.5,0.0,0.0,-6.2918192918192934,-0.5625,0.0,2.5625,1.4554334554334554,0.0,-7.0317460317460325,-0.78125,0.0,2.59375,2.63980463980464,-1.1355311355311355,-8.174603174603174,-1.0,0.0,2.53125,3.910866910866911,-2.6031746031746037,-9.22100122100122,-1.4375,0.0,2.34375,5.147741147741148,-4.407814407814408,-9.575091575091577,-2.0,0.0,2.09375,5.693528693528694,-5.908424908424909,-9.042735042735043,-2.5,0.0,1.84375,5.7142857142857135,-7.153846153846153,-7.711843711843712,-2.875,0.875,1.46875,6.548229548229548,-7.873015873015873,-5.492063492063493,-3.0625,1.3125,1.0625,7.31990231990232,-8.418803418803419,-3.274725274725274,-3.0625,1.5,0.59375,7.0085470085470085,-9.47863247863248,-1.8888888888888888,-3.0625,1.8125,0.0,6.362637362637362,-10.13919413919414,0.0,-2.9375,2.125,-0.8125,4.927960927960927,-8.956043956043958,3.304029304029304,-2.6875,2.0625,-1.28125,3.7948717948717943,-8.576312576312576,4.663003663003662,-2.4375,2.03125,-1.65625,2.8351648351648358,-8.06959706959707,5.882783882783882,-2.125,2.0,-2.0,1.7008547008547008,-7.6593406593406606,6.826617826617826,-1.71875,1.90625,-2.3125,0.0,-6.930402930402932,7.2918192918192934,-1.1875,1.78125,-2.5625,-1.3711843711843712,-5.8107448107448105,7.396825396825397,-0.625,1.71875,-2.71875,-2.043956043956044,-5.124542124542124,7.089133089133089,0.0,1.53125,-2.78125,-2.8742368742368742,-4.606837606837607,6.630036630036631,0.0,1.21875,-2.6875,-3.4065934065934065,-3.8437118437118434,6.20879120879121,0.0,1.09375,-2.59375,-3.7399267399267404,-3.2612942612942613,5.871794871794871,0.8125,1.0625,-2.46875,-3.5262515262515266,-2.8962148962148966,5.754578754578755,1.15625,0.96875,-2.3125,-3.3321123321123323,-2.8363858363858365,5.758241758241758,1.5,0.625,-2.0625,-3.6031746031746033,-1.982905982905983,5.366300366300366,1.8125,0.53125,-1.9375,-4.256410256410256,-1.534798534798535,4.236874236874237,2.09375,0.0,-1.75,-3.9951159951159956,-1.5286935286935286,3.2857142857142856,2.21875,0.0,-1.53125,-4.170940170940171,-1.271062271062271,1.9987789987789988,2.25,0.0,-1.25,-3.8327228327228333,-1.1575091575091576,0.5506715506715507,2.1875,0.0,-0.9375,-3.543345543345543,-0.993894993894994,0.0,2.125,0.0,-0.71875,-3.7374847374847375,0.0,-0.6764346764346765,2.1875,0.0,0.0,-3.694749694749695,0.8473748473748474,-1.4297924297924298,2.375,0.0,0.0,-3.1855921855921854,0.5238095238095238,-2.1684981684981683,2.25,0.0,0.0,-2.122100122100122,0.0,-2.6336996336996337,1.9375,0.0,0.0,-2.263736263736264,0.0,-3.433455433455433,1.71875,0.0,0.0,-1.3882783882783882,0.6105006105006106,-3.6471306471306466,1.59375,0.0,0.6875,0.0,0.0,-3.2551892551892547,1.5,0.0,0.84375,0.5958485958485958,0.0,-3.4065934065934065,1.375,0.0,0.875,0.9242979242979243,0.0,-3.6507936507936503,1.21875,0.0,0.84375,1.1684981684981686,0.0,-3.525030525030525,0.9375,0.0,0.8125,1.3125763125763126,0.0,-3.062271062271062,0.75,0.0,0.8125,1.4285714285714286,0.5091575091575091,-2.5482295482295485,0.6875,0.0,0.84375,1.57997557997558,0.0,-2.023199023199023,0.59375,0.0,0.875,2.3968253968253967,0.5555555555555556,-1.4505494505494505,0.53125,0.0,0.84375,2.9145299145299144,0.0,-1.5079365079365081,0.0,0.0,0.78125,3.2857142857142856,0.0,-1.7301587301587302,0.0,0.0,0.65625,2.913308913308913,0.0,-1.794871794871795,0.0,0.0,0.0,2.4737484737484743,0.0,-1.612942612942613,0.0,0.0,0.0,2.266178266178266,0.0,-1.4126984126984128,0.0,0.0,0.0,2.266178266178266,0.0,-1.382173382173382,0.0,0.0,0.0,2.1611721611721606,0.0,-1.21001221001221,0.0,0.0,0.0,1.4432234432234432,0.0,-1.0842490842490842,0.0,0.0,0.0,1.175824175824176,0.0,-0.8412698412698413,0.0,0.0,0.0,0.7814407814407814,0.0,-0.6654456654456654,0.0,0.0,0.0,0.0,0.0,0.0,0.0,0.0,0.0,0.0,0.0,0.0,0.0,0.0,0.0,0.0,0.0,0.0,0.0,0.0,0.0,0.0,0.0,0.0,0.0,0.0,0.0,0.0,0.0,0.0,0.0,0.0,0.0,0.0,0.0,0.0,0.0,0.0,0.0,0.0,0.0,0.0,0.0,0.0,0.0,0.0,0.0,0.0,0.0,0.0,0.0,wp_del
accX,0.0,0.0,0.5848595848595849,0.0,0.0,0.0,0.0,0.0,0.0,0.0,0.0,0.0,0.0,0.0,0.0,0.0,0.0,0.0,-0.8449328449328449,0.0,0.0,0.0,0.0,0.0,-1.0134310134310134,0.0,0.0,0.0,0.0,0.0,-1.297924297924298,0.0,0.7252747252747253,0.0,0.0,0.0,-2.515262515262515,0.0,0.7179487179487181,0.0,0.0,0.0,-2.800976800976801,1.4236874236874235,1.122100122100122,0.0,0.0,0.0,-3.5970695970695967,1.8571428571428568,0.8156288156288156,0.0,0.0,0.625,-3.8009768009768017,2.242979242979243,0.7411477411477412,0.59375,0.0,0.9375,-3.804639804639805,2.13064713064713,0.0,0.6875,0.0,1.21875,-4.205128205128204,1.4188034188034189,-1.1904761904761905,0.65625,0.0,1.46875,-3.241758241758242,0.9706959706959708,-2.147741147741148,0.53125,0.0,1.71875,-3.122100122100122,0.9706959706959708,-3.3211233211233213,0.0,-0.5625,2.0625,-2.611721611721612,1.2063492063492065,-5.284493284493284,0.0,-0.53125,2.28125,-1.5470085470085468,0.8229548229548229,-5.991452991452992,0.0,0.0,2.5,0.0,0.0,-6.401709401709403,0.0,0.0,2.71875,1.4334554334554337,-1.0366300366300367,-6.9804639804639805,0.0,-0.53125,2.84375,2.851037851037851,-3.023199023199023,-8.273504273504274,-0.75,0.0,2.75,4.993894993894994,-4.452991452991453,-8.532356532356532,-1.1875,0.0,2.5,5.885225885225887,-5.450549450549451,-8.11965811965812,-1.65625,0.0,2.09375,6.5726495726495715,-5.903540903540903,-6.807081807081808,-2.09375,0.71875,1.65625,7.057387057387057,-6.282051282051282,-5.063492063492063,-2.4375,1.0625,1.21875,7.118437118437117,-6.406593406593408,-3.5702075702075704,-2.59375,1.1875,0.8125,6.851037851037852,-6.7435897435897445,-2.687423687423687,-2.5625,1.375,0.0,6.588522588522588,-7.398046398046397,-1.6825396825396826,-2.5625,1.6875,0.0,6.086691086691086,-7.831501831501831,0.0,-2.65625,1.75,-0.6875,4.91941391941392,-7.673992673992674,1.1404151404151404,-2.59375,1.875,-1.09375,3.81929181929182,-7.6691086691086685,2.4652014652014653,-2.4375,2.0,-1.46875,3.0109890109890114,-7.704517704517706,3.758241758241758,-2.1875,1.9375,-1.8125,2.0195360195360195,-7.415140415140415,4.965811965811966,-1.84375,1.875,-2.09375,1.3565323565323566,-6.601953601953603,6.028083028083028,-1.40625,1.6875,-2.3125,0.0,-5.8327228327228315,6.534798534798535,-0.96875,1.53125,-2.5,-1.137973137973138,-5.344322344322343,6.485958485958487,-0.5625,1.5,-2.625,-1.8888888888888888,-4.7997557997558,6.611721611721611,0.0,1.34375,-2.65625,-2.7814407814407813,-4.283272283272283,6.295482295482294,0.0,1.15625,-2.625,-3.3809523809523814,-3.937728937728938,5.967032967032968,0.0,1.09375,-2.59375,-4.594627594627593,-2.6507936507936507,5.494505494505495,0.84375,0.875,-2.40625,-4.531135531135531,-2.2844932844932844,5.224664224664225,1.1875,0.625,-2.15625,-4.515262515262514,-2.347985347985348,4.775335775335775,1.4375,0.0,-1.96875,-4.56043956043956,-1.7203907203907205,4.506715506715507,1.59375,0.0,-1.84375,-4.498168498168498,-1.4896214896214897,3.804639804639805,1.875,0.0,-1.59375,-4.660561660561661,-1.126984126984127,2.5750915750915757,2.125,0.0,-1.34375,-4.673992673992673,-0.6031746031746031,0.9548229548229548,2.28125,0.0,-1.09375,-4.336996336996338,0.0,0.0,2.21875,0.0,-0.8125,-3.884004884004884,0.0,-1.1562881562881564,2.125,0.0,0.0,-3.6495726495726495,0.5213675213675214,-1.462759462759463,2.0625,0.0,0.0,-2.7118437118437115,0.0,-1.5006105006105006,2.03125,0.0,0.0,-2.559218559218559,0.0,-2.029304029304029,1.9375,0.0,0.0,-1.9230769230769231,0.0,-2.4884004884004884,1.90625,0.0,0.0,-0.7985347985347986,0.0,-3.111111111111111,1.71875,0.0,0.5625,0.0,0.0,-3.766788766788767,1.5,0.0,0.59375,0.0,0.0,-4.023199023199023,1.34375,0.0,0.625,0.0,0.0,-3.8583638583638575,1.21875,0.0,0.6875,0.0,0.0,-3.4542124542124544,1.03125,0.0,0.78125,0.9755799755799756,0.6495726495726496,-3.137973137973138,0.8125,0.0,0.84375,1.2942612942612943,0.6239316239316239,-2.8583638583638584,0.6875,0.0,0.90625,1.2820512820512822,0.0,-2.7948717948717947,0.625,0.0,0.875,1.5274725274725274,0.0,-2.4664224664224665,0.53125,0.0,0.84375,1.9474969474969477,0.0,-2.293040293040293,0.0,0.0,0.78125,2.4945054945054945,0.0,-1.8266178266178263,0.0,0.0,0.6875,2.578754578754579,0.0,-1.7826617826617828,0.0,0.0,0.59375,2.311355311355311,0.0,-1.7912087912087913,0.0,0.0,0.0,2.053724053724053,-0.5494505494505495,-1.6007326007326008,0.0,0.0,0.0,2.1123321123321124,-0.5506715506715507,-0.9658119658119658,0.0,0.0,0.0,1.7545787545787546,0.0,0.0,0.0,0.0,0.0,1.2698412698412698,0.0,0.0,0.0,0.0,0.0,0.9584859584859584,0.0,0.0,0.0,0.0,0.0,0.5213675213675214,0.0,0.0,0.0,0.0,0.0,0.0,0.0,0.0,0.0,0.0,0.0,0.0,0.0,0.0,0.0,0.0,0.0,0.0,0.0,0.0,0.0,0.0,0.0,0.0,0.0,0.0,0.0,0.0,0.0,0.0,0.0,0.0,0.0,0.0,0.0,0.0,0.0,0.0,0.0,0.0,0.0,0.0,0.0,0.0,0.0,0.0,0.0,0.0,0.0,0.0,0.0,0.0,0.0,0.0,0.0,0.0,0.0,0.0,0.0,0.0,0.0,0.0,0.0,0.0,0.0,,,,,,,wp_del
accX,0.0,0.0,0.0,0.0,0.0,0.0,0.0,0.0,0.0,0.0,0.0,0.0,0.0,0.0,0.0,0.0,0.0,0.0,0.0,0.0,0.0,0.0,0.0,0.0,0.0,0.0,0.0,0.0,0.0,0.0,0.0,0.0,0.0,0.0,0.0,0.0,0.0,0.0,0.0,0.0,0.0,0.0,0.0,0.0,0.0,0.0,0.0,0.0,0.0,0.0,0.0,0.0,0.0,0.0,-0.7667887667887668,0.0,0.6239316239316239,0.0,0.0,0.0,-1.072039072039072,0.0,0.8803418803418803,0.0,0.0,0.0,-1.7631257631257633,0.0,1.2417582417582418,0.0,0.0,0.0,-2.555555555555556,0.811965811965812,1.4847374847374848,0.0,0.0,0.0,-3.192918192918193,1.3467643467643469,1.3956043956043955,0.5625,0.0,0.625,-3.525030525030525,1.5567765567765568,0.8278388278388278,0.71875,0.0,0.875,-3.407814407814408,1.0427350427350428,0.0,0.6875,0.0,1.125,-3.1037851037851034,0.7826617826617827,-0.8107448107448108,0.59375,0.0,1.34375,-2.656898656898657,0.0,-1.7191697191697193,0.0,0.0,1.53125,-2.326007326007326,0.5494505494505495,-2.4444444444444446,0.0,0.0,1.71875,-2.3663003663003663,0.8876678876678876,-3.3406593406593412,0.0,0.0,1.90625,-1.4505494505494505,0.8424908424908425,-4.047619047619048,0.0,0.0,2.09375,-0.7179487179487181,0.0,-4.859584859584858,0.0,0.0,2.21875,0.0,0.0,-5.463980463980464,0.0,0.0,2.3125,0.0,0.0,-6.6178266178266165,-0.53125,0.0,2.40625,2.096459096459097,-0.8107448107448108,-7.4896214896214905,-0.875,0.0,2.40625,3.5836385836385842,-1.9035409035409037,-8.964590964590965,-1.5,0.0,2.21875,5.078144078144078,-3.7020757020757022,-8.653235653235653,-1.96875,0.0,2.03125,5.814407814407813,-5.205128205128204,-7.719169719169719,-2.40625,0.0,1.78125,5.957264957264957,-6.191697191697192,-6.615384615384616,-2.75,0.8125,1.4375,6.542124542124543,-7.356532356532357,-4.941391941391942,-2.96875,1.25,1.09375,6.943833943833944,-8.317460317460318,-3.1343101343101343,-3.125,1.46875,0.71875,6.710622710622711,-8.730158730158731,-1.2063492063492065,-3.15625,1.59375,0.0,6.122100122100122,-8.737484737484738,0.757020757020757,-3.0,1.71875,0.0,5.478632478632479,-8.525030525030527,2.4639804639804637,-2.65625,1.84375,-0.53125,4.589743589743589,-8.667887667887667,3.4713064713064714,-2.25,1.84375,-0.96875,3.6471306471306466,-8.986568986568988,3.9010989010989015,-1.96875,1.78125,-1.40625,2.47008547008547,-8.66056166056166,4.42979242979243,-1.875,1.875,-1.875,1.6483516483516485,-7.775335775335775,5.372405372405372,-1.46875,1.84375,-2.375,0.0,-7.1037851037851025,5.8437118437118425,-1.03125,1.6875,-2.59375,-1.0122100122100122,-6.333333333333332,6.1050061050061055,-0.5625,1.625,-2.6875,-2.1868131868131866,-5.455433455433456,6.221001221001222,0.0,1.53125,-2.75,-2.7472527472527477,-4.818070818070818,6.363858363858364,0.0,1.40625,-2.75,-3.173382173382173,-4.0305250305250295,6.7142857142857135,0.0,1.1875,-2.65625,-4.061050061050061,-3.1062271062271063,6.87057387057387,0.84375,1.0,-2.5625,-4.251526251526252,-2.7326007326007327,6.710622710622711,1.25,0.78125,-2.375,-3.963369963369964,-2.7399267399267404,6.339438339438338,1.5,0.0,-2.1875,-3.8327228327228333,-2.374847374847375,5.775335775335775,1.71875,0.0,-2.03125,-4.545787545787546,-1.31013431013431,4.846153846153847,2.09375,0.0,-1.78125,-4.046398046398046,-1.4884004884004884,4.079365079365079,2.34375,0.0,-1.375,-4.896214896214897,-0.984126984126984,1.0,2.40625,0.0,-1.125,-4.785103785103785,0.0,-0.9157509157509156,2.59375,0.0,-0.71875,-4.17948717948718,0.0,-2.128205128205128,2.5,0.0,0.0,-3.9975579975579976,0.5506715506715507,-2.357753357753358,2.25,0.0,0.0,-3.6214896214896215,0.0,-2.7667887667887667,2.1875,0.0,0.0,-3.653235653235653,0.0,-3.708180708180708,2.21875,0.0,0.53125,-2.173382173382173,0.0,-3.9853479853479854,2.0625,0.0,0.84375,-0.5909645909645911,0.0,-3.6666666666666665,1.78125,0.0,0.96875,0.0,-0.7118437118437119,-3.532356532356532,1.5625,0.0,1.0,0.9194139194139194,-0.5885225885225885,-3.4163614163614158,1.34375,0.0,0.96875,0.956043956043956,0.0,-3.4786324786324787,1.21875,0.0,0.90625,1.5714285714285714,0.0,-3.2905982905982905,1.0,0.0,0.875,1.9792429792429795,0.0,-3.4236874236874235,0.78125,0.0,0.84375,2.075702075702076,0.0,-3.3638583638583635,0.53125,0.0,0.78125,2.0427350427350426,0.0,-3.1123321123321124,0.0,0.0,0.6875,2.238095238095238,0.0,-2.4065934065934065,0.0,0.0,0.59375,2.5873015873015874,0.5958485958485958,-1.6507936507936507,0.0,0.0,0.0,2.7130647130647128,0.6153846153846154,-1.2295482295482296,0.0,0.0,0.0,2.5177045177045176,0.0,-1.5128205128205128,0.0,0.0,0.0,2.0891330891330893,0.0,-1.3907203907203909,0.0,0.0,0.0,1.7863247863247864,0.0,-1.238095238095238,0.0,0.0,0.0,1.7179487179487178,0.0,-0.6752136752136753,0.0,0.0,0.0,1.332112332112332,0.0,-0.5848595848595849,0.0,0.0,0.0,0.7594627594627594,0.0,0.0,0.0,0.0,0.0,0.6349206349206349,0.0,0.0,0.0,0.0,0.0,0.0,0.0,0.0,0.0,0.0,0.0,0.0,0.0,0.0,0.0,0.0,0.0,0.0,0.0,0.0,0.0,0.0,0.0,0.0,0.0,0.0,0.0,0.0,0.0,0.0,0.0,0.0,0.0,0.0,0.0,0.0,0.0,0.0,0.0,0.0,0.0,wp_del
accX,0.0,0.0,0.0,0.0,0.0,0.0,0.0,0.0,0.0,0.0,0.0,0.0,0.0,0.0,0.0,0.0,0.0,0.0,0.0,0.0,0.0,0.0,0.0,0.0,0.0,0.0,0.0,0.0,0.0,0.0,0.0,0.0,0.0,0.0,0.0,0.0,0.0,0.0,0.0,0.0,0.0,0.0,-1.0488400488400489,0.0,0.5543345543345544,0.0,0.0,0.0,-1.4603174603174602,0.0,1.0341880341880345,0.0,0.0,0.0,-2.126984126984127,0.5482295482295483,1.4871794871794872,0.0,0.0,0.0,-2.6349206349206344,0.6593406593406593,1.4334554334554337,0.0,0.0,0.0,-2.8803418803418803,0.7814407814407814,1.199023199023199,0.0,0.0,0.5625,-3.725274725274725,1.0354090354090355,0.0,0.53125,0.0,0.78125,-4.727716727716729,1.9255189255189256,-0.7948717948717948,0.65625,0.0,1.03125,-5.252747252747253,2.415140415140415,-2.148962148962149,0.71875,0.0,1.40625,-5.409035409035409,2.1562881562881557,-3.6507936507936503,0.625,0.0,1.8125,-4.5006105006105015,1.6666666666666667,-4.62026862026862,0.0,0.0,2.34375,-3.3223443223443225,1.188034188034188,-5.201465201465202,0.0,0.0,2.65625,-1.7728937728937728,0.0,-5.778998778998778,0.0,0.0,2.84375,0.0,-0.5982905982905983,-6.722832722832723,-0.625,0.0,2.90625,1.536019536019536,-1.9987789987789988,-7.858363858363857,-0.84375,0.0,2.9375,3.0366300366300365,-3.293040293040293,-8.811965811965813,-1.1875,0.0,2.8125,5.158730158730159,-4.86080586080586,-9.006105006105006,-1.71875,0.0,2.53125,6.191697191697192,-5.814407814407813,-8.31990231990232,-2.21875,0.0,2.125,6.500610500610501,-6.147741147741147,-7.017094017094017,-2.53125,0.65625,1.71875,7.371184371184371,-7.1159951159951165,-5.238095238095238,-2.78125,0.875,1.34375,7.592185592185593,-7.965811965811965,-3.638583638583639,-2.96875,1.15625,0.84375,7.487179487179486,-8.442002442002442,-1.8315018315018317,-2.96875,1.375,0.0,6.7985347985347975,-8.537240537240537,1.3296703296703296,-2.6875,1.6875,0.0,6.096459096459097,-8.572649572649572,2.9169719169719173,-2.53125,1.90625,-0.9375,4.974358974358975,-8.261294261294262,4.180708180708181,-2.34375,1.9375,-1.40625,4.12087912087912,-8.056166056166056,5.190476190476192,-2.125,1.84375,-1.78125,3.0122100122100113,-7.571428571428571,6.124542124542124,-1.84375,1.75,-2.09375,1.5115995115995116,-6.84004884004884,6.438339438339439,-1.40625,1.625,-2.4375,0.0,-6.0256410256410255,6.367521367521367,-0.90625,1.59375,-2.6875,-1.0366300366300367,-5.231990231990231,6.142857142857142,0.0,1.53125,-2.84375,-1.6336996336996337,-5.1330891330891335,5.94993894993895,0.0,1.46875,-2.875,-2.7326007326007327,-4.272283272283272,5.710622710622711,0.0,1.34375,-2.875,-3.938949938949939,-2.8034188034188032,5.5225885225885225,0.0,1.21875,-2.78125,-4.117216117216117,-2.4249084249084247,5.472527472527473,0.875,1.09375,-2.5,-3.956043956043956,-2.3785103785103785,5.5225885225885225,1.03125,0.90625,-2.3125,-4.987789987789989,-1.1452991452991452,4.981684981684982,1.375,0.6875,-2.0625,-5.181929181929182,-0.8974358974358975,4.1440781440781445,1.71875,0.5625,-1.71875,-4.467643467643468,-1.31990231990232,3.748473748473749,1.8125,0.0,-1.46875,-4.203907203907204,-1.0634920634920637,3.120879120879121,1.9375,0.0,-1.21875,-4.285714285714286,-0.8571428571428571,1.956043956043956,2.21875,0.0,-0.875,-4.124542124542124,-0.9059829059829059,0.0,2.28125,0.0,-0.65625,-3.1990231990231983,-1.0024420024420024,0.0,2.15625,0.0,0.0,-3.1746031746031744,0.0,-1.1477411477411477,2.15625,0.0,0.0,-2.9169719169719173,0.0,-1.7252747252747254,2.21875,0.0,0.0,-2.4322344322344316,0.0,-2.5225885225885225,2.125,-0.53125,0.0,-1.043956043956044,0.0,-3.43956043956044,1.84375,0.0,0.0,-0.5091575091575091,0.0,-3.9621489621489614,1.6875,0.0,0.0,0.0,0.0,-3.727716727716728,1.4375,0.0,0.53125,0.0,0.0,-3.1684981684981683,1.28125,0.0,0.59375,0.0,0.0,-2.94993894993895,1.1875,0.0,0.65625,1.1111111111111112,0.0,-2.4603174603174605,1.0625,0.0,0.71875,1.586080586080586,0.0,-2.3650793650793656,0.9375,0.0,0.71875,1.5836385836385836,0.0,-2.619047619047619,0.78125,0.0,0.6875,1.5286935286935286,0.0,-2.9194139194139197,0.65625,0.0,0.6875,1.3028083028083028,0.0,-2.800976800976801,0.0,0.0,0.65625,1.4273504273504274,0.6373626373626373,-2.0305250305250304,0.0,0.0,0.6875,1.42002442002442,0.0,-1.7912087912087913,0.0,0.0,0.6875,1.9609279609279608,0.0,-1.4835164835164836,0.0,0.0,0.65625,2.004884004884005,0.0,-1.387057387057387,0.0,0.0,0.59375,1.8266178266178263,0.0,-1.380952380952381,0.0,0.0,0.0,1.7008547008547008,0.0,-1.1404151404151404,0.0,0.0,0.0,1.7167277167277166,0.0,-0.8437118437118437,0.0,0.0,0.0,1.6446886446886446,0.0,0.0,0.0,0.0,0.0,1.5115995115995116,0.0,0.0,0.0,0.0,0.0,1.3150183150183148,0.0,0.0,0.0,0.0,0.0,1.0805860805860803,-0.5653235653235653,0.0,0.0,0.0,0.0,0.8852258852258852,-0.5787545787545788,0.0,0.0,0.0,0.0,0.6971916971916972,0.0,0.0,0.0,0.0,0.0,0.0,0.0,0.0,0.0,0.0,0.0,0.0,0.0,0.0,0.0,0.0,0.0,0.0,0.0,0.0,0.0,0.0,0.0,0.0,0.0,0.0,0.0,0.0,0.0,0.0,0.0,0.0,0.0,0.0,0.0,0.0,0.0,0.0,0.0,0.0,0.0,wp_del
accX,0.0,0.0,0.0,0.0,0.0,0.0,0.0,0.0,0.0,0.0,0.0,0.0,0.0,0.0,0.0,0.0,0.0,0.0,0.0,0.0,0.0,0.0,0.0,0.0,0.0,0.0,0.0,0.0,0.0,0.0,-0.5384615384615384,0.0,0.0,0.0,0.0,0.0,-0.8498168498168498,0.0,0.0,0.0,0.0,0.0,-1.1086691086691087,0.0,0.5274725274725275,0.0,0.0,0.0,-1.3931623931623929,0.0,0.7313797313797313,0.0,0.0,0.0,-1.8534798534798536,0.0,0.5018315018315018,0.0,0.0,0.0,-2.5811965811965814,0.7423687423687424,0.0,0.0,0.0,0.0,-3.2551892551892547,1.1916971916971917,0.0,0.0,0.0,0.65625,-3.7472527472527473,1.4505494505494505,0.0,0.5625,0.0,0.90625,-4.0,1.4835164835164836,0.0,0.59375,0.0,1.25,-3.75946275946276,1.636141636141636,-0.8046398046398047,0.625,0.0,1.53125,-3.920634920634921,1.5604395604395604,-1.975579975579976,0.0,0.0,1.75,-3.236874236874237,1.3565323565323566,-3.1868131868131866,0.0,0.0,2.0,-2.462759462759463,1.5543345543345544,-4.244200244200244,0.0,-0.5625,2.25,-1.6214896214896215,1.0256410256410255,-5.638583638583639,0.0,-0.59375,2.4375,0.0,-0.503052503052503,-7.188034188034187,0.0,0.0,2.5,1.2332112332112333,-1.702075702075702,-8.427350427350428,-0.71875,0.0,2.5,2.6446886446886446,-2.829059829059829,-9.058608058608057,-1.15625,0.0,2.375,4.26984126984127,-3.514041514041514,-8.576312576312576,-1.59375,0.0,2.125,5.797313797313797,-3.9010989010989015,-7.466422466422466,-1.96875,0.0,1.875,6.306471306471306,-4.57997557997558,-6.666666666666668,-2.40625,0.53125,1.34375,6.478632478632479,-5.334554334554333,-4.3479853479853485,-2.5625,0.6875,1.0,6.406593406593408,-5.405372405372407,-3.0170940170940175,-2.59375,0.84375,0.65625,6.083028083028082,-5.766788766788768,-1.8888888888888888,-2.5,1.03125,0.0,6.073260073260072,-6.622710622710622,-0.778998778998779,-2.53125,1.15625,0.0,5.483516483516484,-7.1050061050061055,0.0,-2.625,1.1875,0.0,4.7655677655677655,-6.937728937728938,1.884004884004884,-2.59375,1.375,-0.625,3.965811965811966,-6.645909645909647,3.2808302808302807,-2.375,1.59375,-0.96875,3.503052503052503,-6.366300366300366,4.575091575091576,-2.03125,1.71875,-1.25,3.0891330891330893,-6.487179487179486,5.5738705738705745,-1.6875,1.6875,-1.53125,2.426129426129426,-6.238095238095237,6.411477411477412,-1.40625,1.53125,-1.8125,0.7826617826617827,-5.64957264957265,6.415140415140415,-1.0,1.34375,-2.03125,-0.5921855921855922,-5.003663003663004,6.087912087912088,0.0,1.4375,-2.28125,-1.6544566544566544,-4.343101343101344,5.808302808302808,0.0,1.5,-2.34375,-2.2808302808302807,-4.203907203907204,5.521367521367521,0.0,1.375,-2.375,-3.111111111111111,-3.5384615384615383,5.202686202686203,0.0,1.21875,-2.3125,-4.017094017094017,-2.6166056166056166,4.987789987789989,0.0,1.15625,-2.15625,-3.9072039072039066,-2.275946275946276,5.21978021978022,0.75,0.90625,-1.96875,-3.7350427350427347,-2.031746031746032,5.373626373626373,1.03125,0.625,-1.78125,-4.398046398046398,-1.619047619047619,4.721611721611722,1.375,0.5625,-1.59375,-4.470085470085469,-1.2161172161172158,4.0647130647130645,1.65625,0.0,-1.4375,-4.37973137973138,-1.2271062271062272,3.053724053724053,1.78125,0.0,-1.25,-4.076923076923077,-0.9316239316239316,2.144078144078144,1.75,0.0,-1.03125,-3.869352869352869,0.0,1.3833943833943834,1.875,0.0,-0.625,-3.1355311355311355,-0.5555555555555556,0.0,2.0625,0.0,0.0,-3.086691086691087,0.0,-0.9523809523809524,2.0,0.0,0.0,-2.4273504273504267,0.0,-1.1074481074481075,1.9375,0.0,0.0,-1.2612942612942613,0.0,-1.123321123321123,1.84375,0.0,0.0,-1.3284493284493284,0.0,-1.9096459096459095,1.84375,-0.5625,0.0,-1.3687423687423688,0.0,-2.763125763125763,1.875,-0.53125,0.0,-0.8095238095238095,0.0,-3.1941391941391943,1.6875,0.0,0.0,0.0,0.0,-3.145299145299145,1.375,0.0,0.59375,0.5079365079365079,0.0,-3.189255189255189,1.21875,0.0,0.65625,0.57997557997558,0.0,-3.5982905982905984,1.1875,0.0,0.65625,1.2551892551892552,0.0,-4.043956043956044,1.125,0.0,0.71875,1.4847374847374848,0.0,-4.128205128205129,0.6875,0.0,0.65625,1.5665445665445663,0.0,-3.660561660561661,0.0,0.0,0.625,1.2234432234432235,0.0,-2.8351648351648358,0.0,0.0,0.625,0.8754578754578755,0.0,-1.8034188034188037,0.0,0.0,0.625,1.8827838827838828,0.7460317460317459,-0.7643467643467643,0.0,0.0,0.625,2.4932844932844933,0.0,-1.0036630036630036,0.0,0.0,0.5625,2.5384615384615383,0.0,-1.5824175824175823,0.0,0.0,0.0,2.1245421245421245,0.0,-1.7582417582417582,0.0,0.0,0.0,1.6715506715506716,0.0,-2.05006105006105,0.0,0.0,0.0,1.4053724053724053,0.0,-1.6336996336996337,0.0,0.0,0.0,1.3357753357753357,0.0,-1.0024420024420024,0.0,0.0,0.0,1.2295482295482296,0.0,-0.6483516483516484,0.0,0.0,0.0,0.9597069597069596,0.0,0.0,0.0,0.0,0.0,0.5457875457875457,0.0,0.0,0.0,0.0,0.0,0.0,0.0,0.0,0.0,0.0,0.0,0.0,0.0,0.0,0.0,0.0,0.0,0.0,0.0,0.0,0.0,0.0,0.0,0.0,0.0,0.0,0.0,0.0,0.0,,,,,,,,,,,,,,,,,,,wp_del
accX,0.0,0.0,0.0,0.0,0.0,0.0,0.0,0.0,0.0,0.0,0.0,0.0,0.0,0.0,0.5470085470085471,0.0,0.0,0.0,0.0,0.0,0.5335775335775336,0.0,0.0,0.0,0.0,0.0,0.0,0.0,0.0,0.0,0.0,0.0,0.0,0.0,0.0,0.0,-0.9926739926739928,0.0,0.0,0.0,0.0,0.0,-1.424908424908425,0.0,0.8229548229548229,0.0,0.0,0.0,-1.7753357753357752,0.0,1.3650793650793651,0.0,0.0,0.0,-2.04029304029304,0.0,1.52014652014652,0.0,0.0,0.0,-2.2771672771672766,0.0,1.0976800976800978,0.0,0.0,0.0,-2.1746031746031744,0.0,0.8608058608058609,0.0,0.0,0.625,-3.207570207570208,1.0708180708180708,0.0,0.53125,0.0,0.78125,-3.4529914529914536,1.4981684981684982,-1.043956043956044,0.65625,0.0,1.0,-3.5775335775335777,1.7545787545787546,-2.021978021978022,0.625,0.0,1.21875,-3.3345543345543347,1.6971916971916972,-3.065934065934066,0.0,0.0,1.625,-2.4420024420024418,0.8156288156288156,-4.3247863247863245,0.0,0.0,1.875,-1.5091575091575091,0.0,-5.336996336996338,0.0,0.0,2.09375,-0.8351648351648352,0.0,-6.465201465201465,0.0,0.0,2.15625,0.0,-0.5238095238095238,-7.107448107448107,-0.5625,0.0,2.1875,1.2942612942612943,-0.5653235653235653,-7.582417582417582,-0.90625,0.0,2.15625,2.8021978021978016,-0.9658119658119658,-7.703296703296703,-1.28125,0.0,2.125,3.6507936507936503,-1.413919413919414,-7.655677655677656,-1.625,0.0,2.0,4.754578754578755,-2.4444444444444446,-7.366300366300366,-2.03125,0.0,1.8125,5.548229548229548,-3.305250305250305,-6.744810744810745,-2.40625,0.0,1.53125,6.264957264957265,-4.561660561660561,-5.682539682539683,-2.6875,0.0,1.28125,6.7655677655677655,-5.584859584859585,-4.2576312576312585,-2.84375,0.65625,0.96875,7.501831501831503,-7.378510378510379,-1.2564102564102564,-2.875,1.0,0.0,7.2466422466422475,-7.903540903540903,0.0,-2.65625,1.0625,0.0,6.101343101343101,-8.645909645909644,0.5775335775335775,-2.375,1.1875,0.0,5.363858363858364,-9.040293040293038,1.678876678876679,-2.25,1.53125,-0.8125,4.3931623931623935,-8.797313797313796,2.888888888888889,-2.25,1.71875,-1.28125,3.3015873015873014,-8.269841269841269,4.27960927960928,-2.15625,1.78125,-1.625,2.411477411477412,-7.431013431013431,5.6361416361416365,-1.84375,1.75,-1.96875,1.3040293040293038,-6.653235653235654,6.307692307692308,-1.375,1.625,-2.25,0.0,-6.010989010989012,6.627594627594628,-0.90625,1.53125,-2.46875,-1.3137973137973138,-5.37973137973138,6.575091575091576,-0.53125,1.5,-2.6875,-2.0903540903540905,-4.8217338217338215,6.672771672771673,0.0,1.46875,-2.71875,-2.8376068376068377,-3.940170940170941,6.862026862026862,0.0,1.1875,-2.625,-3.4456654456654463,-3.0573870573870563,6.727716727716727,0.6875,0.875,-2.53125,-3.9645909645909647,-2.561660561660561,6.247863247863247,1.09375,0.84375,-2.4375,-3.9865689865689866,-2.4285714285714284,5.710622710622711,1.28125,0.75,-2.34375,-4.371184371184371,-1.9133089133089132,5.006105006105006,1.4375,0.71875,-2.125,-4.5555555555555545,-1.043956043956044,4.65934065934066,1.75,0.0,-1.84375,-4.633699633699634,-0.6837606837606838,3.6239316239316235,2.0625,0.0,-1.53125,-4.586080586080586,-0.6227106227106227,2.2905982905982905,2.125,0.0,-1.25,-4.736263736263736,0.0,0.0,2.0625,0.0,-0.90625,-4.390720390720391,0.0,-0.6251526251526252,1.875,0.0,-0.5625,-3.8339438339438336,0.0,-1.1001221001221002,1.78125,0.0,0.0,-3.3528693528693534,0.0,-1.3223443223443223,1.84375,0.0,0.0,-2.6935286935286937,0.0,-2.1868131868131866,1.75,0.0,0.0,-1.0451770451770452,-0.57997557997558,-2.3028083028083026,1.59375,0.0,0.0,0.0,0.0,-2.7570207570207566,1.40625,0.0,0.0,-0.5518925518925519,0.0,-3.145299145299145,1.34375,0.0,0.53125,-0.9157509157509156,0.0,-3.593406593406593,1.375,0.0,0.625,0.0,0.0,-3.0708180708180715,1.28125,0.0,0.71875,1.2356532356532357,0.6837606837606838,-2.4652014652014653,1.09375,0.0,0.78125,1.800976800976801,0.7667887667887668,-2.6153846153846154,1.0,0.0,0.8125,1.868131868131868,0.0,-3.0525030525030523,0.90625,0.0,0.8125,1.7032967032967032,0.0,-3.117216117216117,0.78125,0.0,0.78125,1.6324786324786325,0.0,-2.9181929181929176,0.6875,0.0,0.6875,2.1819291819291817,0.0,-2.010989010989011,0.0,0.0,0.65625,2.625152625152625,0.0,-1.3223443223443223,0.0,0.0,0.59375,2.6849816849816848,0.5042735042735043,-1.0549450549450552,0.0,0.0,0.53125,2.3272283272283274,0.0,-1.2503052503052503,0.0,0.0,0.0,2.072039072039072,0.0,-1.4676434676434675,0.0,0.0,0.0,1.94017094017094,0.0,-1.3601953601953602,0.0,0.0,0.0,1.8522588522588523,0.0,-0.8656898656898657,0.0,0.0,0.0,1.5616605616605617,0.0,0.0,0.0,0.0,0.0,1.061050061050061,0.0,0.0,0.0,0.0,0.0,1.105006105006105,0.0,0.0,0.0,0.0,0.0,0.9010989010989012,0.0,0.0,0.0,0.0,0.0,0.5286935286935287,0.0,0.0,0.0,0.0,0.0,0.0,0.0,0.0,0.0,0.0,0.0,0.0,0.0,0.0,0.0,0.0,0.0,0.0,0.0,0.0,0.0,0.0,0.0,0.0,0.0,0.0,0.0,0.0,0.0,0.0,0.0,0.0,0.0,0.0,0.0,0.0,0.0,0.0,0.0,0.0,0.0,0.0,0.0,0.0,0.0,0.0,0.0,wp_del
accX,0.0,0.0,0.0,0.0,0.0,0.0,0.0,0.0,0.0,0.0,0.0,0.0,0.0,0.0,0.0,0.0,0.0,0.0,0.0,0.0,0.0,0.0,0.0,0.0,0.0,0.0,0.0,0.0,0.0,0.0,0.0,0.0,0.0,0.0,0.0,0.0,-0.706959706959707,0.0,0.0,0.0,0.0,0.0,-1.0012210012210012,0.0,0.7191697191697192,0.0,0.0,0.0,-1.249084249084249,0.0,1.0268620268620268,0.0,0.0,0.0,-1.3748473748473748,0.0,1.2539682539682542,0.0,0.0,0.0,-2.318681318681319,0.5067155067155067,0.8803418803418803,0.0,0.0,0.0,-2.844932844932845,0.7155067155067155,0.0,0.0,0.0,0.59375,-2.68009768009768,0.9169719169719168,0.0,0.53125,0.0,0.78125,-2.9291819291819285,0.9987789987789988,-0.6739926739926739,0.53125,0.0,1.0,-3.2576312576312576,1.290598290598291,-1.3736263736263736,0.0,0.0,1.25,-3.5225885225885225,1.5787545787545787,-2.241758241758242,0.0,0.0,1.5,-3.2515262515262515,1.290598290598291,-3.3345543345543347,0.0,0.0,1.75,-2.7118437118437115,1.1465201465201464,-4.113553113553113,0.0,0.0,1.96875,-1.8058608058608057,1.0891330891330893,-4.6874236874236885,0.0,0.0,2.21875,-0.5042735042735043,0.0,-5.390720390720391,0.0,0.0,2.40625,0.5628815628815629,0.0,-6.481074481074481,0.0,-0.5625,2.46875,1.57997557997558,-0.9267399267399268,-7.95970695970696,-0.75,-0.5625,2.5,2.758241758241758,-2.313797313797314,-9.251526251526252,-1.28125,0.0,2.40625,4.402930402930403,-2.9975579975579976,-9.311355311355314,-1.75,0.0,2.21875,5.601953601953602,-4.0,-8.51037851037851,-2.03125,0.0,1.96875,6.730158730158731,-5.42002442002442,-7.652014652014652,-2.3125,0.0,1.59375,7.498168498168497,-6.5738705738705745,-6.35042735042735,-2.53125,0.84375,1.1875,8.336996336996338,-7.992673992673992,-4.726495726495727,-2.84375,1.03125,0.71875,8.126984126984128,-8.478632478632479,-2.8192918192918195,-3.0625,1.15625,0.0,7.652014652014652,-8.683760683760683,-1.0231990231990231,-3.09375,1.28125,0.0,6.6923076923076925,-8.488400488400488,0.706959706959707,-2.9375,1.5,-0.65625,5.644688644688644,-8.312576312576313,2.1367521367521367,-2.71875,1.5625,-1.0625,4.267399267399267,-8.162393162393162,3.3736263736263736,-2.28125,1.59375,-1.5,1.6556776556776556,-7.6923076923076925,5.531135531135532,-2.0,1.625,-1.8125,0.7533577533577533,-6.903540903540903,6.520146520146519,-1.6875,1.78125,-2.125,0.0,-5.981684981684983,7.134310134310135,-1.15625,1.78125,-2.3125,-1.133089133089133,-5.474969474969474,7.118437118437117,-0.59375,1.65625,-2.375,-2.023199023199023,-5.12087912087912,6.871794871794871,0.0,1.5625,-2.4375,-2.495726495726496,-4.428571428571429,6.825396825396825,0.0,1.4375,-2.46875,-3.086691086691087,-3.7240537240537237,6.730158730158731,0.0,1.28125,-2.375,-3.358974358974359,-2.9816849816849818,6.484737484737486,0.8125,1.125,-2.28125,-4.067155067155067,-2.330891330891331,5.876678876678878,1.28125,0.90625,-2.125,-3.844932844932845,-2.3919413919413923,5.3015873015873005,1.625,0.8125,-1.9375,-4.047619047619048,-2.4297924297924296,4.362637362637362,1.65625,0.59375,-1.78125,-4.964590964590965,-0.9816849816849816,3.3846153846153846,1.9375,0.0,-1.40625,-4.4993894993894985,-0.6263736263736264,2.606837606837607,2.25,0.0,-1.125,-4.197802197802199,-1.0158730158730158,1.2344322344322345,2.28125,0.0,-0.875,-4.68986568986569,0.0,0.0,2.3125,0.0,-0.59375,-4.001221001221002,-0.9365079365079364,-1.2576312576312576,2.125,0.0,0.0,-2.6715506715506714,-0.7838827838827839,-1.0134310134310134,1.96875,0.0,0.0,-2.7777777777777777,0.7533577533577533,-1.7594627594627594,2.125,0.0,0.0,-1.3894993894993894,0.5885225885225885,-2.6227106227106227,2.09375,0.0,0.0,0.0,0.0,-3.525030525030525,1.78125,0.0,0.0,0.0,0.0,-3.7606837606837606,1.4375,0.0,0.0,0.5726495726495726,0.0,-3.7985347985347984,1.25,0.0,0.0,0.8168498168498168,0.7753357753357754,-3.937728937728938,1.1875,0.0,0.53125,1.0879120879120878,0.0,-3.6129426129426134,1.0,0.0,0.53125,0.7362637362637363,0.0,-3.2197802197802203,0.8125,0.0,0.0,1.2039072039072038,0.6398046398046398,-2.449328449328449,0.65625,0.0,0.0,1.8021978021978025,0.6312576312576312,-1.9328449328449329,0.0,0.0,0.0,1.931623931623932,0.8351648351648352,-1.514041514041514,0.0,0.0,0.0,1.1562881562881564,1.0757020757020757,-1.52014652014652,0.0,0.0,0.0,0.7081807081807082,0.6996336996336996,-1.8131868131868127,0.0,0.0,0.0,1.1855921855921856,0.0,-1.6544566544566544,0.0,0.0,0.0,1.3943833943833943,0.0,-1.188034188034188,0.0,0.0,0.0,1.0964590964590966,0.0,-0.6764346764346765,0.0,0.0,0.0,0.8363858363858364,0.0,-0.5506715506715507,0.0,0.0,0.0,1.0402930402930404,0.0,0.0,0.0,0.0,0.0,1.3247863247863247,0.0,-0.6336996336996337,0.0,0.0,0.0,1.2112332112332111,0.0,-0.78998778998779,0.0,0.0,0.0,1.0793650793650793,0.0,-0.8498168498168498,0.0,0.0,0.0,0.9047619047619048,0.0,-0.8021978021978022,0.0,0.0,0.0,0.5885225885225885,0.0,-0.6935286935286935,0.0,0.0,0.0,0.5372405372405372,0.0,-0.6984126984126984,0.0,0.0,0.0,0.0,0.0,-0.7631257631257631,0.0,0.0,0.0,0.0,0.0,-0.5897435897435898,0.0,0.0,0.0,0.0,0.0,0.0,0.0,0.0,0.0,0.0,0.0,0.0,0.0,0.0,0.0,0.0,0.0,0.0,0.0,0.0,0.0,0.0,0.0,0.0,0.0,0.0,0.0,wp_del
accX,0.0,0.0,0.0,0.0,0.0,0.0,0.0,0.0,0.0,0.0,0.0,0.0,0.0,0.0,0.0,0.0,0.0,0.0,-0.6105006105006106,0.0,0.0,0.0,0.0,0.0,-0.7106227106227107,0.0,0.0,0.0,0.0,0.0,-0.5042735042735043,0.0,0.0,0.0,0.0,0.0,-0.9157509157509156,0.0,0.0,0.0,0.0,0.0,-1.4126984126984128,0.0,0.0,0.0,0.0,0.0,-2.1514041514041518,0.6874236874236874,0.0,0.0,0.0,0.0,-2.737484737484737,1.017094017094017,0.0,0.0,0.0,0.6875,-3.2539682539682535,1.4004884004884004,0.0,0.625,0.0,0.9375,-3.075702075702076,1.1452991452991452,0.0,0.625,0.0,1.1875,-2.9328449328449326,1.0634920634920637,-0.8034188034188035,0.0,0.0,1.40625,-2.9890109890109886,1.3076923076923077,-1.2112332112332111,0.0,0.0,1.59375,-2.9536019536019538,1.7728937728937728,-2.1672771672771667,0.0,0.0,1.8125,-2.4053724053724053,1.431013431013431,-3.6776556776556775,0.0,0.0,2.0,-0.9157509157509156,0.7313797313797313,-5.023199023199024,0.0,-0.53125,2.1875,1.2832722832722834,0.0,-7.886446886446887,-0.5625,-0.625,2.25,2.028083028083028,-0.6434676434676435,-9.334554334554337,-0.78125,0.0,2.21875,3.692307692307693,-1.8534798534798536,-10.004884004884003,-1.09375,0.0,2.1875,4.577533577533577,-3.2857142857142856,-9.90964590964591,-1.6875,0.0,2.09375,5.813186813186812,-4.586080586080586,-8.483516483516484,-2.34375,0.0,1.8125,6.827838827838828,-5.543345543345543,-6.424908424908424,-2.75,0.625,1.5,7.8840048840048835,-6.267399267399268,-4.336996336996338,-3.0,0.84375,1.125,8.296703296703297,-6.7313797313797314,-2.376068376068376,-3.1875,0.875,0.78125,7.356532356532357,-6.82051282051282,-1.155067155067155,-3.21875,0.9375,0.0,6.7094017094017095,-7.501831501831503,0.0,-3.125,1.0625,0.0,5.446886446886448,-7.88034188034188,1.3455433455433456,-3.09375,1.1875,0.0,4.5848595848595854,-7.5726495726495715,2.7142857142857144,-3.0,1.40625,-0.84375,3.36996336996337,-7.3406593406593394,3.7753357753357752,-2.4375,1.65625,-1.3125,2.6349206349206344,-7.437118437118437,4.461538461538462,-1.9375,1.71875,-1.59375,2.175824175824176,-7.499389499389499,4.905982905982906,-1.5625,1.59375,-1.84375,0.989010989010989,-6.686202686202687,5.442002442002442,-1.21875,1.46875,-2.0,0.0,-6.264957264957265,5.691086691086691,-0.90625,1.40625,-2.125,-1.1196581196581197,-5.411477411477412,6.145299145299147,-0.5625,1.375,-2.21875,-1.9719169719169718,-4.824175824175824,6.483516483516484,0.0,1.28125,-2.25,-2.4053724053724053,-4.052503052503051,6.687423687423687,0.0,1.125,-2.21875,-2.7765567765567765,-3.6312576312576312,6.448107448107447,0.71875,0.96875,-2.1875,-3.326007326007326,-3.2136752136752142,5.95970695970696,1.0,0.90625,-2.15625,-3.5409035409035408,-2.8241758241758244,5.445665445665447,1.21875,0.84375,-2.0,-3.485958485958486,-2.525030525030525,5.1941391941391934,1.53125,0.0,-1.6875,-3.8571428571428568,-1.9462759462759465,3.5543345543345537,1.8125,0.0,-1.53125,-4.442002442002441,-1.3833943833943834,2.155067155067155,2.03125,0.0,-1.34375,-4.142857142857143,-1.2002442002442002,1.264957264957265,2.03125,0.0,-1.0625,-3.761904761904762,0.0,0.5616605616605617,1.96875,0.0,-0.8125,-3.9890109890109886,0.0,-0.6324786324786325,2.09375,0.0,-0.5625,-3.3089133089133087,0.0,-1.575091575091575,2.1875,0.0,0.0,-2.4273504273504267,0.0,-1.9523809523809523,2.0,0.0,0.0,-1.95970695970696,0.0,-2.0891330891330893,1.8125,0.0,0.0,-1.3125763125763126,0.0,-2.214896214896215,1.71875,0.0,0.0,-0.7887667887667887,0.8327228327228328,-2.484737484737485,1.71875,0.0,0.0,0.0,0.9072039072039072,-3.2869352869352872,1.71875,0.0,0.0,0.0,0.0,-4.373626373626373,1.25,0.0,0.53125,0.0,0.0,-4.434676434676434,0.90625,0.0,0.59375,0.0,0.0,-3.641025641025641,0.71875,0.0,0.625,0.778998778998779,1.2405372405372406,-2.4468864468864466,0.78125,0.0,0.75,1.2735042735042734,0.9987789987789988,-2.275946275946276,0.78125,0.0,0.8125,1.3614163614163617,0.0,-2.565323565323565,0.59375,0.0,0.8125,1.2222222222222223,0.0,-2.8156288156288163,0.0,0.0,0.71875,1.0683760683760684,0.0,-2.3968253968253967,0.0,0.0,0.6875,2.1001221001221,0.6080586080586079,-1.1819291819291822,0.0,0.0,0.6875,2.4615384615384617,0.8034188034188035,-0.8217338217338217,0.0,0.0,0.65625,2.705738705738706,0.0,-1.0805860805860803,0.0,0.0,0.59375,2.758241758241758,0.0,-1.4493284493284493,0.0,0.0,0.0,2.31013431013431,-0.5702075702075702,-1.247863247863248,0.0,0.0,0.0,2.1636141636141635,0.0,-0.6813186813186813,0.0,0.0,0.0,1.7594627594627594,0.0,0.0,0.0,0.0,0.0,1.5628815628815629,0.0,0.0,0.0,0.0,0.0,1.0231990231990231,0.0,0.0,0.0,0.0,0.0,1.0195360195360197,0.0,0.0,0.0,0.0,0.0,1.0146520146520146,0.0,0.0,0.0,0.0,0.0,0.0,0.0,0.0,0.0,0.0,0.0,0.0,0.0,0.0,0.0,0.0,0.0,0.0,0.0,0.0,0.0,0.0,0.0,0.0,0.0,0.0,0.0,0.0,0.0,0.0,0.0,0.0,0.0,0.0,0.0,,,,,,,,,,,,,,,,,,,,,,,,,wp_del
