,00_accX,00_accY,00_accZ,00_gyroX,00_gyroY,00_gyroZ,01_accX,01_accY,01_accZ,01_gyroX,01_gyroY,01_gyroZ,02_accX,02_accY,02_accZ,02_gyroX,02_gyroY,02_gyroZ,03_accX,03_accY,03_accZ,03_gyroX,03_gyroY,03_gyroZ,04_accX,04_accY,04_accZ,04_gyroX,04_gyroY,04_gyroZ,05_accX,05_accY,05_accZ,05_gyroX,05_gyroY,05_gyroZ,06_accX,06_accY,06_accZ,06_gyroX,06_gyroY,06_gyroZ,07_accX,07_accY,07_accZ,07_gyroX,07_gyroY,07_gyroZ,08_accX,08_accY,08_accZ,08_gyroX,08_gyroY,08_gyroZ,09_accX,09_accY,09_accZ,09_gyroX,09_gyroY,09_gyroZ,10_accX,10_accY,10_accZ,10_gyroX,10_gyroY,10_gyroZ,11_accX,11_accY,11_accZ,11_gyroX,11_gyroY,11_gyroZ,12_accX,12_accY,12_accZ,12_gyroX,12_gyroY,12_gyroZ,13_accX,13_accY,13_accZ,13_gyroX,13_gyroY,13_gyroZ,14_accX,14_accY,14_accZ,14_gyroX,14_gyroY,14_gyroZ,15_accX,15_accY,15_accZ,15_gyroX,15_gyroY,15_gyroZ,16_accX,16_accY,16_accZ,16_gyroX,16_gyroY,16_gyroZ,17_accX,17_accY,17_accZ,17_gyroX,17_gyroY,17_gyroZ,18_accX,18_accY,18_accZ,18_gyroX,18_gyroY,18_gyroZ,19_accX,19_accY,19_accZ,19_gyroX,19_gyroY,19_gyroZ,20_accX,20_accY,20_accZ,20_gyroX,20_gyroY,20_gyroZ,21_accX,21_accY,21_accZ,21_gyroX,21_gyroY,21_gyroZ,22_accX,22_accY,22_accZ,22_gyroX,22_gyroY,22_gyroZ,23_accX,23_accY,23_accZ,23_gyroX,23_gyroY,23_gyroZ,24_accX,24_accY,24_accZ,24_gyroX,24_gyroY,24_gyroZ,25_accX,25_accY,25_accZ,25_gyroX,25_gyroY,25_gyroZ,26_accX,26_accY,26_accZ,26_gyroX,26_gyroY,26_gyroZ,27_accX,27_accY,27_accZ,27_gyroX,27_gyroY,27_gyroZ,28_accX,28_accY,28_accZ,28_gyroX,28_gyroY,28_gyroZ,29_accX,29_accY,29_accZ,29_gyroX,29_gyroY,29_gyroZ,30_accX,30_accY,30_accZ,30_gyroX,30_gyroY,30_gyroZ,31_accX,31_accY,31_accZ,31_gyroX,31_gyroY,31_gyroZ,32_accX,32_accY,32_accZ,32_gyroX,32_gyroY,32_gyroZ,33_accX,33_accY,33_accZ,33_gyroX,33_gyroY,33_gyroZ,34_accX,34_accY,34_accZ,34_gyroX,34_gyroY,34_gyroZ,35_accX,35_accY,35_accZ,35_gyroX,35_gyroY,35_gyroZ,36_accX,36_accY,36_accZ,36_gyroX,36_gyroY,36_gyroZ,37_accX,37_accY,37_accZ,37_gyroX,37_gyroY,37_gyroZ,38_accX,38_accY,38_accZ,38_gyroX,38_gyroY,38_gyroZ,39_accX,39_accY,39_accZ,39_gyroX,39_gyroY,39_gyroZ,40_accX,40_accY,40_accZ,40_gyroX,40_gyroY,40_gyroZ,41_accX,41_accY,41_accZ,41_gyroX,41_gyroY,41_gyroZ,42_accX,42_accY,42_accZ,42_gyroX,42_gyroY,42_gyroZ,43_accX,43_accY,43_accZ,43_gyroX,43_gyroY,43_gyroZ,44_accX,44_accY,44_accZ,44_gyroX,44_gyroY,44_gyroZ,45_accX,45_accY,45_accZ,45_gyroX,45_gyroY,45_gyroZ,46_accX,46_accY,46_accZ,46_gyroX,46_gyroY,46_gyroZ,47_accX,47_accY,47_accZ,47_gyroX,47_gyroY,47_gyroZ,48_accX,48_accY,48_accZ,48_gyroX,48_gyroY,48_gyroZ,49_accX,49_accY,49_accZ,49_gyroX,49_gyroY,49_gyroZ,50_accX,50_accY,50_accZ,50_gyroX,50_gyroY,50_gyroZ,51_accX,51_accY,51_accZ,51_gyroX,51_gyroY,51_gyroZ,52_accX,52_accY,52_accZ,52_gyroX,52_gyroY,52_gyroZ,53_accX,53_accY,53_accZ,53_gyroX,53_gyroY,53_gyroZ,54_accX,54_accY,54_accZ,54_gyroX,54_gyroY,54_gyroZ,55_accX,55_accY,55_accZ,55_gyroX,55_gyroY,55_gyroZ,56_accX,56_accY,56_accZ,56_gyroX,56_gyroY,56_gyroZ,57_accX,57_accY,57_accZ,57_gyroX,57_gyroY,57_gyroZ,58_accX,58_accY,58_accZ,58_gyroX,58_gyroY,58_gyroZ,59_accX,59_accY,59_accZ,59_gyroX,59_gyroY,59_gyroZ,60_accX,60_accY,60_accZ,60_gyroX,60_gyroY,60_gyroZ,61_accX,61_accY,61_accZ,61_gyroX,61_gyroY,61_gyroZ,62_accX,62_accY,62_accZ,62_gyroX,62_gyroY,62_gyroZ,63_accX,63_accY,63_accZ,63_gyroX,63_gyroY,63_gyroZ,64_accX,64_accY,64_accZ,64_gyroX,64_gyroY,64_gyroZ,65_accX,65_accY,65_accZ,65_gyroX,65_gyroY,65_gyroZ,66_accX,66_accY,66_accZ,66_gyroX,66_gyroY,66_gyroZ,67_accX,67_accY,67_accZ,67_gyroX,67_gyroY,67_gyroZ,68_accX,68_accY,68_accZ,68_gyroX,68_gyroY,68_gyroZ,69_accX,69_accY,69_accZ,69_gyroX,69_gyroY,69_gyroZ,70_accX,70_accY,70_accZ,70_gyroX,70_gyroY,70_gyroZ,71_accX,71_accY,71_accZ,71_gyroX,71_gyroY,71_gyroZ,category
accX,0.0,0.0,0.0,0.0,0.0,0.0,1.7301587301587302,-1.0793650793650793,-1.1184371184371185,0.0,-0.5625,0.0,2.5873015873015874,-1.9072039072039075,-2.208791208791209,0.0,-0.53125,0.0,3.774114774114774,-3.025641025641025,-2.412698412698413,0.0,0.0,0.0,5.146520146520147,-2.8754578754578755,-1.3601953601953602,-0.625,0.0,-0.625,4.7374847374847375,-2.523809523809524,-1.5506715506715507,-0.59375,0.0,-1.21875,3.627594627594628,-3.415140415140415,-2.477411477411477,0.0,0.0,-1.4375,2.8742368742368742,-5.238095238095238,-2.976800976800977,0.0,0.53125,-1.65625,2.774114774114774,-6.531135531135532,-1.953601953601953,0.0,0.9375,-2.03125,1.8937728937728937,-7.764346764346764,0.0,0.0,0.90625,-2.5625,0.7289377289377289,-8.114774114774113,1.5042735042735045,0.0,0.84375,-3.0,0.0,-8.321123321123322,1.7155067155067154,0.0,0.84375,-3.21875,-2.23931623931624,-7.847374847374848,1.3333333333333333,0.0,0.90625,-2.96875,-2.6434676434676434,-6.885225885225887,1.6031746031746033,0.0,1.1875,-2.875,-1.271062271062271,-5.283272283272283,2.195360195360196,0.84375,1.03125,-2.9375,-1.4664224664224663,-5.043956043956044,1.6703296703296704,0.96875,0.71875,-3.125,-2.9084249084249083,-3.772893772893773,0.9804639804639804,1.15625,0.5625,-3.0625,-4.842490842490842,-2.8547008547008548,0.0,1.28125,0.8125,-2.875,-5.516483516483516,-1.623931623931624,0.0,1.5,1.28125,-2.53125,-3.63003663003663,-1.5982905982905984,0.9389499389499391,1.59375,1.15625,-2.5625,-3.2026862026862033,-1.1636141636141637,0.8522588522588522,1.4375,0.625,-2.71875,-4.140415140415141,-0.5946275946275946,0.0,1.1875,0.0,-2.84375,-5.616605616605615,0.7387057387057387,0.0,1.25,0.53125,-2.625,-4.471306471306471,1.2576312576312576,0.0,1.5625,0.5625,-2.5,-4.713064713064713,0.0,-2.3443223443223444,1.625,0.0,-2.3125,-4.185592185592186,0.5860805860805861,-2.128205128205128,1.375,0.0,-2.28125,-5.221001221001221,2.0085470085470085,-2.0769230769230766,1.15625,0.0,-2.28125,-5.953601953601954,3.9926739926739927,-2.481074481074481,1.28125,0.0,-2.03125,-5.509157509157508,3.7936507936507935,-3.358974358974359,1.40625,0.0,-1.59375,-4.791208791208791,3.669108669108669,-3.283272283272283,1.28125,0.0,-1.25,-3.844932844932845,3.4664224664224665,-2.9328449328449326,1.0625,0.0,-1.0625,-4.297924297924298,4.3931623931623935,-3.1978021978021984,0.78125,0.0,-0.875,-4.175824175824176,4.6361416361416365,-2.7997557997558,0.625,0.0,-0.53125,-3.4761904761904763,4.305250305250305,-2.3150183150183152,0.53125,0.0,0.0,-2.3821733821733817,3.9145299145299135,-1.989010989010989,0.0,0.0,0.0,-0.9743589743589745,2.6630036630036633,-2.1074481074481075,0.0,0.0,0.0,0.0,1.4786324786324787,-2.0134310134310134,0.0,0.0,0.0,0.0,1.1282051282051282,-1.1282051282051282,0.0,0.0,0.0,0.0,0.8778998778998779,-0.6764346764346765,0.0,0.0,0.0,0.0,0.7216117216117216,0.0,0.0,0.0,0.0,0.0,0.0,-0.5653235653235653,0.0,0.0,0.0,0.0,0.0,0.0,0.0,0.0,0.0,0.0,0.0,0.0,0.0,0.0,0.0,0.0,-0.5763125763125763,0.0,0.0,0.0,0.0,0.0,0.0,0.0,0.0,0.0,0.0,0.0,-0.5079365079365079,0.0,0.0,0.0,0.0,0.0,0.0,0.0,0.0,0.0,0.0,0.0,0.0,0.0,0.0,0.0,0.0,0.0,-0.5421245421245421,0.0,0.0,0.0,0.0,0.0,0.0,0.0,0.0,0.0,0.0,0.0,0.0,0.0,0.0,0.0,0.0,0.0,0.0,0.0,0.0,0.0,0.0,0.0,0.0,0.0,0.0,0.0,0.0,0.0,0.0,0.0,0.0,0.0,0.0,0.0,0.0,0.0,0.0,0.0,0.0,0.0,0.0,0.0,0.0,0.0,0.0,0.0,0.0,0.0,0.0,0.0,0.0,0.0,0.0,0.0,0.0,0.0,0.0,0.0,0.0,0.0,0.0,0.0,0.0,,,,,,,,,,,,,,,,,,,,,,,,,,,,,,,,,,,,,,,,,,,,,,,,,,,,,,,,,,,,,,,,,,,,,,,,,,,,,,,wp_nextR
accX,0.8498168498168498,0.0,0.0,0.0,0.0,0.0,0.993894993894994,-0.6227106227106227,0.0,0.0,-0.53125,0.0,1.5873015873015872,-0.8803418803418803,-0.8595848595848596,0.0,-0.75,0.0,1.652014652014652,-1.0268620268620268,-1.0769230769230769,0.0,0.0,0.0,2.1880341880341883,-1.1843711843711844,-1.5042735042735045,0.0,0.0,0.0,3.753357753357753,-2.376068376068376,-2.56043956043956,0.0,0.0,0.0,4.796092796092796,-4.224664224664225,-3.3809523809523814,0.0,0.625,0.0,5.474969474969474,-5.749694749694751,-3.282051282051282,0.0,0.0,-1.21875,2.9108669108669107,-6.1941391941391934,-1.4163614163614164,-1.03125,0.0,-2.40625,1.1916971916971917,-5.848595848595848,-1.1489621489621489,-1.125,0.0,-2.75,0.0,-5.982905982905983,-0.8009768009768009,-0.96875,0.8125,-2.8125,-0.6288156288156288,-5.6593406593406606,0.0,-0.75,1.21875,-2.90625,-0.6263736263736264,-5.368742368742368,1.05006105006105,0.0,1.5625,-3.03125,0.0,-5.045177045177045,1.2673992673992671,0.0,1.59375,-3.28125,-1.1062271062271063,-5.328449328449328,0.9987789987789988,0.0,1.34375,-3.5,-2.483516483516484,-5.153846153846153,1.043956043956044,0.0,1.25,-3.59375,-2.7008547008547015,-4.848595848595847,1.7118437118437118,0.0,1.375,-3.71875,-2.656898656898657,-3.879120879120879,1.956043956043956,0.0,1.375,-3.90625,-3.826617826617827,-3.3650793650793656,1.78021978021978,0.0,1.0625,-4.03125,-4.632478632478633,-2.621489621489621,1.7753357753357752,0.0,0.78125,-3.71875,-5.085470085470085,-1.8620268620268619,1.6422466422466422,0.6875,0.6875,-3.4375,-5.851037851037852,-1.68986568986569,1.6288156288156288,0.84375,1.0625,-3.25,-4.572649572649572,-1.617826617826618,1.7960927960927962,1.03125,1.1875,-3.125,-3.727716727716728,-1.7326007326007329,1.3724053724053724,1.0,0.8125,-3.0,-4.195360195360196,-1.5531135531135531,0.8827838827838828,0.84375,0.0,-2.90625,-5.763125763125763,0.0,0.7203907203907204,0.90625,0.0,-2.6875,-6.196581196581197,0.7411477411477412,0.6788766788766789,1.28125,0.875,-2.28125,-4.609279609279608,0.0,0.0,1.34375,0.9375,-2.15625,-3.93040293040293,0.0,0.0,1.21875,0.5625,-2.0,-3.7973137973137967,0.0,-0.5873015873015873,0.96875,0.0,-2.03125,-4.2405372405372415,0.5152625152625152,-0.8766788766788767,0.84375,0.0,-2.0625,-4.593406593406592,1.0805860805860803,-3.892551892551893,0.75,0.0,-1.8125,-5.9291819291819285,3.4053724053724053,-4.5006105006105015,0.71875,0.0,-1.375,-5.010989010989012,3.627594627594628,-4.247863247863248,0.625,0.0,-0.96875,-3.887667887667888,3.421245421245421,-3.692307692307693,0.59375,0.0,-0.625,-3.0976800976800978,3.1050061050061046,-2.9841269841269837,0.53125,0.0,0.0,-2.216117216117216,2.8693528693528694,-2.1965811965811968,0.5625,0.0,0.0,-1.31013431013431,1.8852258852258847,-1.7912087912087913,0.65625,0.0,0.0,-1.2173382173382172,1.2527472527472527,-1.3894993894993894,0.53125,0.0,0.0,-0.73992673992674,1.3003663003663004,-0.6581196581196581,0.0,0.0,0.0,-0.5054945054945055,1.4481074481074483,0.0,0.0,0.0,0.0,-1.3846153846153846,1.7106227106227103,-0.5091575091575091,0.0,0.0,0.0,-1.9145299145299144,1.4871794871794872,-0.8205128205128205,0.0,0.0,0.0,-1.122100122100122,0.7997557997557998,-0.8095238095238095,0.0,0.0,0.0,0.0,0.0,-0.5213675213675214,0.0,0.0,0.0,0.0,0.0,0.0,0.0,0.0,0.0,0.0,0.0,0.0,0.0,0.0,0.0,0.0,0.0,0.0,0.0,0.0,0.0,0.5274725274725275,0.0,0.0,0.0,0.0,0.0,0.7252747252747253,-0.8070818070818071,0.0,0.0,0.0,0.0,0.6739926739926739,-0.7106227106227107,0.0,0.0,0.0,0.0,0.0,0.0,0.0,0.0,0.0,0.0,0.0,0.0,0.0,0.0,0.0,0.0,0.0,0.0,0.0,0.0,0.0,0.0,0.0,0.0,0.0,0.0,0.0,0.0,0.0,0.0,0.0,0.0,0.0,0.0,0.0,0.0,0.0,0.0,0.0,0.0,0.0,0.0,0.0,0.0,0.0,0.0,0.0,0.0,0.0,0.0,0.0,0.0,0.0,0.0,0.0,0.0,0.0,0.0,0.0,0.0,0.0,0.0,0.0,0.0,0.0,0.0,0.0,0.0,0.0,0.0,0.0,0.0,0.0,0.0,0.0,0.0,0.0,0.0,0.0,0.0,0.0,0.0,0.0,0.0,-0.6263736263736264,0.0,0.0,0.0,0.0,0.0,-0.5750915750915749,0.0,0.0,0.0,0.0,0.0,0.0,0.0,0.0,0.0,,,,,,,,,,,,,,,,,,,,,,,,,,,,,,,wp_nextR
accX,0.0,0.5653235653235653,0.0,0.0,0.0,0.0,0.7728937728937729,-0.8461538461538461,-1.0012210012210012,0.0,-0.6875,0.0,1.7362637362637363,-2.04029304029304,-2.139194139194139,0.0,0.0,0.0,2.7496947496947497,-2.6324786324786325,-2.2979242979242978,0.0,0.0,0.0,3.731379731379731,-3.183150183150183,-1.8632478632478635,0.0,0.53125,0.0,4.343101343101344,-3.9694749694749696,-1.8351648351648349,0.0,0.65625,0.0,4.0647130647130645,-5.0317460317460325,-1.934065934065934,0.0,0.5625,-0.9375,3.131868131868132,-5.570207570207571,-1.5225885225885225,0.0,0.0,-1.4375,2.1794871794871797,-5.985347985347985,-0.971916971916972,0.0,0.0,-1.84375,0.0,-5.7142857142857135,0.0,0.0,0.65625,-2.09375,-0.5750915750915749,-5.450549450549451,1.133089133089133,0.0,1.21875,-2.125,0.0,-5.277167277167277,2.2295482295482296,0.0,1.625,-2.25,0.0,-5.887667887667887,1.987789987789988,0.0,1.15625,-2.71875,-0.8534798534798534,-5.7985347985347975,1.26007326007326,0.0,0.625,-2.90625,-2.9169719169719173,-5.603174603174603,1.0781440781440779,0.0,0.84375,-3.09375,-3.0073260073260077,-4.014652014652015,1.4590964590964588,0.0,1.21875,-3.15625,-2.346764346764347,-3.333333333333333,1.8669108669108667,0.59375,1.09375,-3.25,-2.771672771672772,-3.064713064713065,1.7582417582417582,0.78125,0.8125,-3.21875,-3.3846153846153846,-2.5225885225885225,1.434676434676435,0.90625,0.5625,-3.125,-4.735042735042735,-1.641025641025641,1.21978021978022,1.1875,0.65625,-2.9375,-5.168498168498169,-0.5702075702075702,1.2625152625152625,1.5,1.125,-2.75,-4.634920634920634,0.0,1.0293040293040292,1.75,1.125,-2.5,-4.36019536019536,0.0,0.0,1.8125,0.75,-2.3125,-3.9865689865689866,0.5982905982905983,0.0,1.78125,0.53125,-2.21875,-4.157509157509158,0.6617826617826618,-1.2442002442002442,1.8125,0.53125,-1.96875,-3.725274725274725,1.1892551892551892,-2.0781440781440783,1.71875,0.0,-1.8125,-3.763125763125763,1.1355311355311355,-2.326007326007326,1.625,0.0,-1.625,-2.816849816849817,1.1855921855921856,-2.584859584859585,1.59375,0.0,-1.4375,-2.8644688644688645,1.3846153846153846,-3.468864468864469,1.59375,0.0,-1.3125,-2.542124542124542,2.175824175824176,-4.336996336996338,1.5,0.0,-1.15625,-2.7802197802197797,2.31990231990232,-4.587301587301587,1.09375,0.0,-1.0625,-2.8192918192918195,3.4627594627594624,-4.275946275946276,0.6875,0.0,-1.0,-4.2393162393162385,4.90964590964591,-4.35042735042735,0.5625,0.0,-0.8125,-3.7228327228327234,4.380952380952381,-4.091575091575091,0.5625,0.0,0.0,-1.9951159951159951,3.2051282051282053,-3.1514041514041518,0.0,0.0,0.0,-1.0195360195360197,2.407814407814408,-2.1636141636141635,0.0,0.0,0.0,-0.9902319902319904,2.389499389499389,-1.5885225885225884,0.0,0.0,0.0,-1.249084249084249,2.102564102564102,-1.15995115995116,0.0,0.0,0.0,-1.2820512820512822,1.7789987789987791,-0.7203907203907204,0.0,0.0,0.0,0.0,0.7936507936507936,-0.5286935286935287,0.0,0.0,0.0,0.0,0.8192918192918193,0.0,0.0,0.0,0.0,-0.6019536019536019,1.1257631257631258,0.0,0.0,0.0,0.0,-0.6825396825396826,0.9523809523809524,-1.1391941391941391,0.0,0.0,0.0,0.0,0.0,-1.6288156288156288,0.0,0.0,0.0,0.5421245421245421,0.0,-1.1746031746031746,0.0,0.0,0.0,0.7106227106227107,0.0,-0.5286935286935287,0.0,0.0,0.0,0.0,0.0,0.0,0.0,0.0,0.0,0.63003663003663,-0.6129426129426129,0.0,0.0,0.0,0.0,0.7350427350427351,-0.7704517704517705,0.0,0.0,0.0,0.0,0.0,0.0,0.0,0.0,0.0,0.0,0.0,0.0,0.0,0.0,0.0,0.0,0.0,0.0,0.0,0.0,0.0,0.0,0.0,0.0,0.0,0.0,0.0,0.0,0.0,0.0,0.0,0.0,0.0,0.0,0.0,0.0,0.0,0.0,0.0,0.0,0.0,0.0,0.0,0.0,0.0,0.0,0.0,0.0,0.0,0.0,0.0,0.0,0.0,0.0,0.0,0.0,0.0,0.0,0.0,0.0,0.0,0.0,0.0,0.0,0.0,0.0,0.0,0.0,0.0,0.0,0.0,0.0,0.0,0.0,0.0,0.0,0.0,0.0,0.0,0.0,0.0,0.0,0.0,0.0,0.0,0.0,0.0,0.0,0.0,0.0,-0.5946275946275946,0.0,0.0,0.0,0.0,0.0,-0.9084249084249084,0.0,0.0,0.0,0.0,0.0,-0.9548229548229548,0.0,0.0,0.0,,,,,,,,,,,,,,,,,,,,,,,,,,,,,,,,,,,,,wp_nextR
accX,0.0,0.0,0.0,0.0,-0.5625,0.0,0.0,0.0,-0.6544566544566545,0.0,-0.75,0.0,0.0,0.0,-1.010989010989011,0.0,-0.6875,0.0,0.0,0.0,-1.413919413919414,0.0,0.0,0.0,1.1257631257631258,-0.6910866910866911,-1.5836385836385836,0.0,0.0,0.0,1.9694749694749696,-1.2368742368742371,-1.9426129426129424,0.0,0.0,0.0,2.881562881562881,-2.7570207570207566,-2.565323565323565,0.0,0.0,0.0,3.781440781440781,-4.344322344322343,-2.4163614163614158,0.0,0.59375,-0.71875,2.7594627594627594,-4.871794871794871,-1.3003663003663004,0.0,0.84375,-1.1875,2.2551892551892547,-4.085470085470085,0.0,0.0,1.25,-1.46875,2.807081807081807,-4.5177045177045185,0.0,0.0,1.03125,-1.71875,1.800976800976801,-5.601953601953602,-0.7118437118437119,0.0,0.625,-2.0625,-0.8070818070818071,-6.192918192918192,-0.984126984126984,0.0,0.78125,-2.375,-2.413919413919414,-4.788766788766789,0.0,0.0,1.3125,-2.34375,-1.9865689865689864,-3.873015873015873,2.1294261294261294,0.0,1.65625,-2.28125,-1.3614163614163617,-3.8962148962148966,3.3443223443223444,0.0,1.5625,-2.34375,-0.7338217338217338,-4.7765567765567765,2.715506715506716,0.625,1.0,-2.5625,-2.3675213675213675,-4.886446886446887,1.6043956043956045,0.0,0.59375,-2.6875,-3.752136752136752,-4.151404151404152,1.144078144078144,0.0,0.71875,-2.65625,-4.034188034188034,-2.389499389499389,1.8266178266178263,0.78125,1.03125,-2.625,-3.8949938949938954,-2.4993894993894994,1.6703296703296704,1.09375,1.0,-2.53125,-3.2307692307692313,-2.393162393162393,1.6886446886446886,1.1875,0.96875,-2.5,-3.095238095238096,-1.7374847374847375,1.7789987789987791,1.21875,0.6875,-2.5625,-3.615384615384616,-0.6214896214896215,1.7692307692307692,1.21875,0.0,-2.53125,-5.119658119658119,0.0,0.8217338217338217,1.4375,0.53125,-2.40625,-4.0366300366300365,0.0,0.6141636141636142,1.6875,0.75,-2.15625,-3.2991452991452985,0.0,0.0,1.78125,0.53125,-2.125,-3.431013431013431,0.0,0.0,1.875,0.0,-2.125,-3.7387057387057383,0.989010989010989,-1.3992673992673992,1.96875,0.0,-2.03125,-3.0390720390720385,0.9426129426129426,-2.623931623931624,2.0,0.0,-1.9375,-4.605616605616605,2.145299145299145,-4.180708180708181,1.71875,0.0,-1.78125,-4.6984126984126995,3.323565323565324,-4.594627594627593,1.625,0.0,-1.53125,-3.8962148962148966,3.8998778998779,-4.666666666666667,1.5625,0.0,-1.25,-3.4652014652014653,4.446886446886447,-5.126984126984127,1.375,0.0,-0.9375,-2.562881562881563,3.9926739926739927,-5.062271062271061,1.03125,0.0,-0.78125,-2.2551892551892547,3.4737484737484734,-4.82051282051282,0.75,0.0,-0.65625,-1.9023199023199024,3.1416361416361416,-4.1391941391941405,0.5625,0.0,-0.5625,-2.145299145299145,2.7191697191697197,-3.313797313797314,0.0,0.0,-0.53125,-2.155067155067155,2.838827838827839,-2.481074481074481,0.0,0.0,0.0,-1.7179487179487178,2.42002442002442,-1.6593406593406594,0.0,0.0,0.0,-1.1697191697191698,2.004884004884005,-1.043956043956044,0.0,0.0,0.0,-0.5982905982905983,1.4871794871794872,-0.9194139194139194,0.0,0.0,0.0,-1.938949938949939,2.2026862026862033,-1.5335775335775337,0.0,0.0,0.0,-1.2564102564102564,1.5384615384615383,-1.3540903540903542,0.0,0.0,0.0,0.0,0.0,-1.0293040293040292,0.0,0.0,0.0,0.0,0.0,-0.8498168498168498,0.0,0.0,0.0,0.0,0.0,-0.5079365079365079,0.0,0.0,0.0,0.0,0.0,0.0,0.0,0.0,0.0,0.0,0.0,0.0,0.0,0.0,0.0,0.5775335775335775,-0.5616605616605617,0.0,0.0,0.0,0.0,0.0,-0.5592185592185592,0.0,0.0,0.0,0.0,0.0,0.0,0.0,0.0,0.0,0.0,0.0,0.0,0.0,0.0,0.0,0.0,0.0,0.0,0.0,0.0,0.0,0.0,0.0,0.0,0.0,0.0,0.0,0.0,0.0,0.0,0.0,0.0,0.0,0.0,0.0,0.0,0.0,0.0,0.0,0.0,0.0,0.0,0.0,0.0,0.0,0.0,0.0,0.0,0.0,0.0,0.0,0.0,0.0,0.0,0.0,0.0,0.0,0.0,0.0,0.0,0.0,0.0,0.0,0.0,0.0,0.0,-0.5909645909645911,0.0,0.0,0.0,0.0,0.5555555555555556,-0.8669108669108669,0.0,0.0,0.0,,,,,,,,,,,,,,,,,,,,,,,,,,,,,,,,,,,,,,,,,,,,,,,,,,,,,,,wp_nextR
accX,0.0,0.0,-0.8217338217338217,0.0,0.0,0.0,0.8058608058608059,0.0,-0.894993894993895,0.0,0.0,0.0,1.4212454212454213,-0.7606837606837606,-1.4224664224664223,0.0,0.0,0.0,2.4713064713064714,-1.5213675213675213,-2.0134310134310134,0.0,0.0,0.0,2.877899877899878,-2.0146520146520146,-2.3956043956043955,0.0,0.0,0.0,3.1770451770451764,-3.126984126984127,-2.4383394383394386,0.0,0.0,0.0,3.2564102564102564,-4.365079365079366,-2.2869352869352872,0.0,0.71875,-0.90625,2.772893772893773,-4.733821733821734,-1.2161172161172158,0.0,0.90625,-1.375,2.2222222222222223,-5.0317460317460325,0.0,0.0,1.0,-1.78125,1.4969474969474967,-5.428571428571429,0.0,0.0,0.96875,-2.0625,0.0,-5.543345543345543,1.1501831501831499,0.0,1.09375,-2.25,-0.8424908424908425,-6.1001221001221,1.4615384615384617,0.0,1.40625,-2.40625,-1.7142857142857142,-5.863247863247862,1.7851037851037852,0.0,1.625,-2.5625,-2.1770451770451764,-5.153846153846153,2.3418803418803416,0.0,1.65625,-2.59375,-1.4468864468864469,-4.626373626373627,2.84981684981685,0.6875,1.3125,-2.71875,-1.9206349206349207,-4.078144078144078,2.0427350427350426,0.71875,0.84375,-2.90625,-3.6349206349206344,-3.556776556776557,1.47985347985348,0.6875,0.0,-3.0625,-5.435897435897436,-2.4761904761904763,1.1684981684981686,0.8125,0.5625,-2.96875,-5.142857142857143,-1.4713064713064714,1.761904761904762,1.09375,0.96875,-2.65625,-3.89010989010989,-1.0952380952380951,2.070818070818071,1.40625,0.9375,-2.46875,-2.235653235653236,-1.1428571428571428,1.8547008547008548,1.40625,0.0,-2.375,-3.852258852258852,0.0,1.0451770451770452,1.1875,0.0,-2.40625,-5.012210012210011,0.7619047619047619,0.0,1.1875,0.0,-2.34375,-5.191697191697192,1.242979242979243,0.0,1.53125,0.0,-2.0625,-3.8962148962148966,1.1623931623931625,0.0,1.84375,0.59375,-1.71875,-2.3284493284493286,0.0,-1.0622710622710625,1.875,0.0,-1.5625,-2.485958485958486,0.0,-2.263736263736264,1.59375,0.0,-1.5625,-3.888888888888889,1.42002442002442,-2.7460317460317465,1.53125,0.0,-1.4375,-3.36019536019536,1.7448107448107448,-2.3455433455433456,1.6875,0.53125,-1.21875,-1.750915750915751,1.3235653235653235,-2.4236874236874235,1.75,0.0,-1.125,-2.511599511599512,1.565323565323565,-3.8656898656898657,1.65625,0.0,-0.96875,-3.2295482295482296,1.938949938949939,-4.501831501831502,1.375,0.0,-0.875,-3.15018315018315,2.975579975579976,-4.014652014652015,1.125,0.0,-0.75,-2.249084249084249,3.593406593406593,-3.3528693528693534,1.0,0.0,-0.53125,-1.6507936507936507,3.15995115995116,-3.289377289377289,0.9375,0.0,0.0,-1.275946275946276,2.3919413919413923,-3.6849816849816848,0.71875,0.0,0.0,-0.525030525030525,1.2564102564102564,-3.4603174603174605,0.0,0.0,0.0,-0.6288156288156288,1.1111111111111112,-1.4847374847374848,0.0,0.0,0.0,-1.4847374847374848,2.887667887667888,-1.4456654456654456,0.0,0.0,0.0,-2.1782661782661785,2.954822954822955,-1.73992673992674,0.0,0.0,0.0,-1.4126984126984128,2.3211233211233213,-1.7789987789987791,0.0,0.0,0.0,-0.9218559218559218,1.7264957264957266,-1.6385836385836383,0.0,0.0,0.0,0.0,0.9462759462759462,-1.321123321123321,0.0,0.0,0.0,0.0,0.0,-0.8156288156288156,0.0,0.0,0.0,0.0,0.0,-0.5201465201465202,0.0,0.0,0.0,0.0,0.0,-0.5006105006105006,0.0,0.0,0.0,0.6984126984126984,-0.6275946275946276,0.0,0.0,0.0,0.0,1.1477411477411477,-0.978021978021978,0.0,0.0,0.0,0.0,0.9584859584859584,-1.0573870573870574,0.0,0.0,0.0,0.0,0.6446886446886447,-0.5934065934065934,0.0,0.0,0.0,0.0,0.0,0.0,0.0,0.0,0.0,0.0,0.0,0.0,0.0,0.0,0.0,0.0,0.0,0.0,0.0,0.0,0.0,0.0,0.0,0.0,0.0,0.0,0.0,0.0,0.0,0.0,0.0,0.0,0.0,0.0,0.0,0.0,0.0,0.0,0.0,0.0,0.0,0.0,0.0,0.0,0.0,0.0,0.0,0.5238095238095238,0.0,0.0,0.0,0.0,0.0,0.0,0.0,0.0,0.0,0.0,0.0,0.0,-0.6715506715506715,0.0,0.0,0.0,0.0,0.0,-0.6275946275946276,0.0,0.0,0.0,,,,,,,,,,,,,,,,,,,,,,,,,,,,,,,,,,,,,,,,,,,,,,,,,,,,,,,,,,,,,,,,,,,wp_nextR
accX,0.818070818070818,0.0,0.0,0.0,-0.59375,0.0,1.0146520146520146,0.0,-0.6398046398046398,0.0,-0.90625,0.0,1.3894993894993894,0.0,-0.7655677655677655,0.0,-1.03125,0.0,1.4529914529914532,-1.434676434676435,-1.7716727716727716,0.0,-0.8125,0.0,2.1611721611721606,-2.105006105006105,-2.3150183150183152,0.0,0.0,0.0,3.131868131868132,-2.5579975579975582,-1.9658119658119655,0.0,0.0,0.0,4.062271062271062,-3.6239316239316235,-1.623931623931624,0.0,0.65625,0.0,3.676434676434676,-4.078144078144078,-1.1868131868131868,0.0,0.90625,-0.84375,2.9841269841269837,-4.43956043956044,-0.6007326007326007,0.0,0.875,-1.25,2.1746031746031744,-4.726495726495727,0.0,0.0,0.78125,-1.59375,1.0671550671550671,-4.726495726495727,0.0,0.0,0.84375,-1.90625,0.0,-4.383394383394384,1.1025641025641026,0.0,1.03125,-2.0,0.0,-4.512820512820513,1.4945054945054943,0.0,1.21875,-2.25,-1.2356532356532357,-4.774114774114773,1.2014652014652014,0.0,1.21875,-2.46875,-2.288156288156288,-4.316239316239317,1.1391941391941391,0.0,1.09375,-2.625,-3.75946275946276,-4.222222222222221,1.0537240537240538,0.0,1.21875,-2.65625,-4.299145299145299,-4.01953601953602,1.6166056166056166,0.625,1.65625,-2.59375,-3.0354090354090357,-3.720390720390721,2.207570207570208,1.0,1.46875,-2.625,-2.727716727716728,-3.2466422466422467,1.8608058608058609,1.09375,1.0625,-2.6875,-3.642246642246642,-3.1697191697191696,0.967032967032967,1.03125,0.0,-2.78125,-5.238095238095238,-2.4420024420024418,0.0,0.96875,0.0,-2.78125,-5.058608058608058,-0.6556776556776557,0.0,1.15625,0.6875,-2.59375,-4.205128205128204,0.0,0.0,1.5,0.78125,-2.4375,-3.622710622710623,0.0,0.0,1.65625,0.0,-2.1875,-4.006105006105006,0.0,-1.2271062271062272,1.625,0.0,-2.0625,-3.7606837606837606,0.0,-1.868131868131868,1.625,0.0,-1.9375,-3.2625152625152625,1.1416361416361416,-2.1416361416361416,1.65625,0.0,-1.8125,-2.2564102564102564,1.5409035409035412,-2.064713064713065,1.53125,0.0,-1.6875,-2.1086691086691087,1.8034188034188037,-2.2735042735042734,1.4375,0.0,-1.5,-2.973137973137973,1.4664224664224663,-3.351648351648352,1.46875,0.0,-1.3125,-2.4346764346764345,1.1611721611721613,-3.3431013431013437,1.34375,0.0,-1.28125,-2.063492063492064,1.3492063492063493,-2.6654456654456653,1.15625,0.0,-1.25,-2.483516483516484,3.216117216117216,-2.5689865689865687,1.125,0.0,-1.125,-3.5885225885225887,3.888888888888889,-2.8864468864468864,1.0,0.0,-0.9375,-3.1794871794871797,4.3125763125763115,-2.9108669108669107,0.90625,0.0,-0.71875,-2.9267399267399266,4.048840048840049,-2.9206349206349205,0.625,0.0,-0.53125,-2.7081807081807083,3.8485958485958487,-2.9963369963369964,0.0,0.0,0.0,-2.3028083028083026,3.5775335775335777,-2.816849816849817,0.0,0.0,0.0,-1.3015873015873016,2.796092796092796,-2.6959706959706957,0.0,0.0,0.0,0.0,1.7411477411477412,-2.3382173382173383,0.0,0.0,0.0,0.0,1.1904761904761905,-1.5299145299145298,0.0,0.0,0.0,0.0,1.0097680097680095,-1.0647130647130647,0.0,0.0,0.0,0.0,0.0,-0.5921855921855922,0.0,0.0,0.0,0.7741147741147741,0.0,0.0,0.0,0.0,0.0,0.7936507936507936,0.0,0.0,0.0,0.0,0.0,0.0,0.0,0.0,0.0,0.0,0.0,0.0,0.0,0.0,0.0,0.0,0.0,0.0,0.0,0.0,0.0,0.0,0.0,0.0,0.0,0.0,0.0,0.0,0.0,0.0,0.0,-0.7692307692307693,0.0,0.0,0.0,0.0,0.0,-0.7655677655677655,0.0,0.0,0.0,0.0,0.0,0.0,0.0,0.0,0.0,0.0,0.0,0.0,0.0,0.0,0.0,0.0,0.0,0.0,0.0,0.0,0.0,0.0,0.0,0.0,0.0,0.0,0.0,0.0,0.0,0.5274725274725275,0.0,0.0,0.0,0.0,0.0,0.6105006105006106,0.0,0.0,0.0,0.0,0.0,0.0,0.0,0.0,0.0,0.0,0.0,0.0,0.0,0.0,0.0,0.0,0.0,0.0,0.0,0.0,0.0,0.0,0.0,0.0,0.0,0.0,0.0,0.0,0.0,0.0,0.0,0.0,0.0,0.0,0.0,0.0,0.0,0.0,0.0,0.0,0.0,0.0,0.0,0.0,0.0,0.0,0.0,0.0,0.0,0.0,0.0,0.0,0.5042735042735043,0.0,0.0,0.0,0.0,-0.7680097680097681,1.122100122100122,-0.7155067155067155,0.0,0.0,0.0,,,,,,,,,,,,,,,,,,,,,,,,,,,,,,,wp_nextR
accX,1.1391941391941391,0.0,0.0,0.0,0.0,0.0,1.4407814407814408,0.0,0.0,0.0,-0.65625,0.0,0.9963369963369964,-0.9706959706959708,-0.6715506715506715,0.0,-0.5625,0.0,0.9474969474969476,-1.5506715506715507,-1.5848595848595848,0.0,0.0,0.0,1.413919413919414,-1.673992673992674,-1.5934065934065933,0.0,0.0,0.0,2.0476190476190474,-2.1074481074481075,-1.277167277167277,0.0,0.0,0.0,2.4652014652014653,-2.621489621489621,-1.2124542124542124,0.0,0.71875,-0.5625,2.68009768009768,-3.37973137973138,-0.7448107448107448,0.0,0.84375,-0.96875,2.5689865689865687,-4.2905982905982905,-0.8583638583638583,0.0,0.84375,-1.375,1.7301587301587302,-4.507936507936508,-0.8608058608058609,0.0,0.90625,-1.75,0.8534798534798534,-4.898656898656898,-0.5457875457875457,0.0,1.03125,-2.0,0.0,-5.388278388278389,0.0,0.0,1.25,-2.28125,0.0,-5.554334554334553,0.5347985347985348,0.0,1.4375,-2.5,-0.7179487179487181,-5.2967032967032965,1.4407814407814408,0.0,1.46875,-2.75,-1.6202686202686205,-5.124542124542124,1.5470085470085468,0.0,1.28125,-3.03125,-3.1062271062271063,-4.7484737484737485,0.7338217338217338,0.0,0.875,-3.25,-4.7936507936507935,-3.807081807081807,0.0,0.0,0.78125,-3.25,-5.355311355311356,-2.5457875457875456,0.557997557997558,0.0,1.09375,-3.03125,-4.703296703296704,-1.8510378510378511,0.9755799755799756,0.6875,1.28125,-2.71875,-4.113553113553113,-0.9877899877899878,1.31013431013431,1.15625,1.3125,-2.53125,-3.792429792429792,-0.9536019536019535,0.9145299145299144,1.46875,1.125,-2.40625,-3.868131868131868,-1.1404151404151404,0.0,1.46875,0.75,-2.3125,-4.4554334554334565,-0.8327228327228328,0.0,1.3125,0.53125,-2.28125,-4.474969474969475,0.0,0.0,1.28125,0.0,-2.21875,-4.523809523809524,1.4725274725274726,0.0,1.4375,0.0,-2.0625,-4.202686202686203,1.7863247863247864,0.0,1.625,0.0,-1.5625,-3.492063492063492,1.0244200244200243,-0.557997557997558,1.65625,0.0,-1.4375,-2.9694749694749696,0.9096459096459096,-0.9645909645909646,1.625,0.0,-1.4375,-3.2979242979242978,1.0732600732600732,-1.7155067155067154,1.625,0.0,-1.40625,-3.43956043956044,0.6520146520146519,-2.3492063492063493,1.5625,0.0,-1.34375,-3.37973137973138,1.5848595848595848,-2.31013431013431,1.5625,0.53125,-1.25,-3.1123321123321124,2.0329670329670333,-2.6312576312576312,1.5,0.0,-1.125,-3.1978021978021984,2.3040293040293043,-2.9572649572649574,1.375,0.0,-1.0,-2.9670329670329667,2.7142857142857144,-2.8962148962148966,1.25,0.0,-0.84375,-2.511599511599512,2.5885225885225887,-2.7997557997558,1.09375,0.0,-0.6875,-2.5347985347985347,2.8485958485958487,-3.028083028083028,0.96875,0.0,0.0,-2.242979242979243,2.47008547008547,-3.304029304029304,0.75,0.0,0.0,-1.7777777777777777,2.3211233211233213,-2.8534798534798536,0.0,0.0,0.0,-1.126984126984127,2.3028083028083026,-2.0781440781440783,0.0,0.0,0.0,-0.6715506715506715,1.8192918192918195,-2.096459096459097,0.0,0.0,0.0,-0.5433455433455433,1.1904761904761905,-2.062271062271062,0.0,0.0,0.0,-0.5457875457875457,1.0354090354090355,-1.673992673992674,0.0,0.0,0.0,0.0,0.8412698412698413,-1.1306471306471306,0.0,0.0,0.0,0.0,0.0,-0.706959706959707,0.0,0.0,0.0,0.0,0.0,0.0,0.0,0.0,0.0,0.0,0.0,0.0,0.0,0.0,0.0,0.0,-0.5238095238095238,0.0,0.0,0.0,0.0,0.0,-0.5409035409035409,0.0,0.0,0.0,0.0,0.0,-0.5347985347985348,0.0,0.0,0.0,0.0,0.0,0.0,0.0,0.0,0.0,0.0,0.0,0.0,0.0,0.0,0.0,0.0,0.0,0.0,0.0,0.0,0.0,0.0,0.0,0.0,0.0,0.0,0.0,0.0,0.0,0.0,0.0,0.0,0.0,0.0,0.0,0.0,0.0,0.0,0.0,0.0,0.0,0.0,0.0,0.0,0.0,0.0,0.0,0.0,0.0,0.0,0.0,0.0,0.0,0.0,0.0,0.0,0.0,0.0,0.0,0.0,0.0,0.0,0.0,0.0,0.0,0.0,0.0,0.0,0.0,0.0,0.0,0.0,0.0,0.0,0.0,0.0,0.0,0.0,0.0,0.0,0.0,0.0,0.0,0.0,-0.5641025641025641,0.0,0.0,0.0,0.0,0.0,-0.8461538461538461,0.0,0.0,0.0,0.0,0.0,-1.0964590964590966,0.0,0.0,0.0,,,,,,,,,,,,,,,,,,,,,,,,,,,,,,,,,,,,,,,,,,,wp_nextR
accX,0.9035409035409036,0.0,0.0,0.0,0.0,0.0,0.8107448107448108,0.0,0.0,0.0,-0.6875,0.0,0.8937728937728938,-0.8693528693528694,-0.8632478632478633,0.0,-0.84375,0.0,0.8351648351648352,-1.103785103785104,-1.5641025641025639,0.0,-0.71875,0.0,1.7753357753357752,-1.1538461538461535,-1.7008547008547008,0.0,0.0,0.0,2.7777777777777777,-1.9230769230769231,-1.8669108669108667,0.0,0.0,0.0,3.3663003663003663,-2.667887667887668,-2.1868131868131866,0.0,0.5625,0.0,3.781440781440781,-3.4517704517704515,-2.028083028083028,0.0,0.75,-0.5625,2.9426129426129437,-4.006105006105006,-1.5177045177045176,0.0,0.75,-0.78125,2.2503052503052503,-4.3418803418803416,-0.6727716727716728,0.0,0.84375,-1.46875,1.5909645909645909,-4.2844932844932835,0.0,0.0,0.875,-1.71875,0.0,-4.334554334554333,0.0,0.0,1.09375,-1.875,-0.9010989010989012,-4.3992673992674005,0.0,0.0,1.625,-1.9375,-0.9096459096459096,-4.716727716727717,1.2026862026862026,0.0,1.9375,-2.09375,-0.9230769230769232,-5.175824175824176,1.6275946275946276,0.0,1.8125,-2.34375,-1.5811965811965811,-5.623931623931624,1.68986568986569,0.53125,1.53125,-2.59375,-2.0769230769230766,-5.440781440781442,2.225885225885226,0.59375,1.28125,-2.8125,-2.7106227106227108,-4.308913308913309,2.1294261294261294,0.65625,1.03125,-2.9375,-3.1697191697191696,-3.495726495726496,1.5323565323565325,0.71875,0.84375,-2.96875,-3.7460317460317465,-2.318681318681319,0.9706959706959708,0.8125,0.75,-2.875,-3.4542124542124544,-1.85958485958486,0.9621489621489622,1.0625,0.6875,-2.875,-4.383394383394384,-0.9462759462759462,0.7264957264957265,1.34375,0.6875,-2.65625,-3.4725274725274726,-0.8534798534798534,1.2271062271062272,1.5625,0.5625,-2.5,-3.3272283272283274,-1.2857142857142858,0.0,1.59375,0.0,-2.59375,-4.5335775335775335,-0.7667887667887668,-0.5567765567765568,1.4375,0.0,-2.59375,-5.439560439560441,0.8815628815628815,-0.5567765567765568,1.40625,0.0,-2.46875,-4.807081807081807,1.4529914529914532,-0.6727716727716728,1.75,0.0,-2.21875,-3.4847374847374852,1.0976800976800978,-1.2136752136752136,2.03125,0.5625,-2.0,-3.2539682539682535,0.8168498168498168,-1.362637362637363,1.84375,0.0,-1.90625,-3.371184371184371,0.7814407814407814,-1.6312576312576312,1.625,0.0,-1.875,-4.526251526251526,2.1526251526251525,-2.8803418803418803,1.5625,0.0,-1.78125,-5.255189255189255,3.115995115995116,-3.5225885225885225,1.65625,0.0,-1.59375,-3.3956043956043955,2.3943833943833943,-3.5677655677655684,1.59375,0.0,-1.28125,-3.3418803418803416,2.7020757020757022,-4.485958485958486,1.21875,0.0,-1.125,-4.511599511599512,3.7655677655677655,-5.236874236874237,0.9375,0.0,-0.84375,-4.1330891330891335,4.1672771672771685,-4.863247863247863,0.78125,0.0,-0.5625,-2.851037851037851,3.2185592185592187,-4.062271062271062,0.53125,0.0,0.0,-1.750915750915751,2.101343101343101,-3.293040293040293,0.0,0.0,0.0,-1.1123321123321124,1.7313797313797314,-2.4713064713064714,0.0,0.0,0.0,-0.7753357753357754,1.4993894993894994,-1.8070818070818069,0.0,0.0,0.0,-0.8571428571428571,1.326007326007326,-1.5934065934065933,0.0,0.0,0.0,-1.1404151404151404,1.5482295482295485,-0.8778998778998779,0.0,0.0,0.0,-1.5018315018315018,1.6678876678876684,0.0,0.0,0.0,0.0,-1.3015873015873016,1.804639804639805,0.0,0.0,0.0,0.0,0.0,0.0,0.0,0.0,0.0,0.0,0.6007326007326007,0.0,0.0,0.0,0.0,0.0,1.0989010989010992,-0.9108669108669109,0.0,0.0,0.0,0.0,1.2295482295482296,-1.275946275946276,0.0,0.0,0.0,0.0,1.0866910866910866,-1.0769230769230769,0.0,0.0,0.0,0.0,0.7191697191697192,-0.7606837606837606,0.0,0.0,0.0,0.0,0.6007326007326007,-0.6935286935286935,0.6471306471306472,0.0,0.0,0.0,0.0,0.0,0.7692307692307693,0.0,0.0,0.0,0.0,0.0,0.0,0.0,0.0,0.0,0.0,0.0,0.0,0.0,0.0,0.0,-0.5665445665445665,0.0,0.0,0.0,0.0,0.0,-0.5177045177045178,0.0,0.0,0.0,0.0,0.0,0.0,0.0,0.0,0.0,0.0,0.0,0.0,0.0,-0.5714285714285714,0.0,0.0,0.0,0.0,0.0,-0.6568986568986569,0.0,0.0,0.0,0.0,0.0,0.0,0.0,0.0,0.0,0.0,0.0,0.0,0.0,0.0,0.0,0.0,0.0,0.0,0.0,0.0,0.0,0.0,0.0,0.0,0.0,0.0,0.0,0.0,0.6434676434676435,0.0,0.0,0.0,0.0,-0.6483516483516484,0.0,-1.122100122100122,0.0,0.0,0.0,,,,,,,,,,,,,,,,,,,,,,,,,,,,,,,,,,,,,,,,,,,wp_nextR
accX,0.8192918192918193,-0.5238095238095238,0.0,0.0,-0.59375,0.0,1.4017094017094016,-0.8705738705738706,0.0,0.0,0.0,0.0,1.9609279609279608,-1.9609279609279608,-0.6862026862026862,0.53125,0.0,0.0,2.2954822954822958,-3.2124542124542126,-1.608058608058608,0.65625,0.0,0.0,2.601953601953602,-3.9230769230769234,-2.191697191697192,0.53125,0.625,-0.625,2.2124542124542126,-5.015873015873017,-2.131868131868132,0.0,0.71875,-0.90625,1.5213675213675213,-5.2393162393162385,-1.0781440781440779,0.0,0.96875,-1.28125,1.1391941391941391,-4.630036630036631,0.5995115995115995,0.0,1.1875,-1.65625,0.6202686202686203,-4.931623931623932,1.0256410256410255,0.0,1.125,-1.96875,-0.5067155067155067,-4.995115995115995,0.912087912087912,0.0,1.09375,-2.1875,-1.1562881562881564,-5.073260073260073,1.3443223443223444,0.0,1.125,-2.34375,-1.7851037851037852,-5.553113553113552,1.7191697191697193,0.0,1.28125,-2.5625,-1.7203907203907205,-5.0024420024420015,1.8974358974358971,0.59375,1.34375,-2.90625,-2.1294261294261294,-5.1001221001221,1.9975579975579976,0.59375,0.875,-3.09375,-2.532356532356532,-4.554334554334553,1.7789987789987791,0.53125,0.0,-3.28125,-3.52991452991453,-4.010989010989012,0.9108669108669109,0.0,0.0,-3.34375,-4.648351648351649,-2.5213675213675213,0.0,0.0,0.0,-3.1875,-5.183150183150183,-1.2466422466422469,0.7826617826617827,0.8125,0.0,-3.0625,-4.714285714285714,0.0,1.0195360195360197,1.3125,0.6875,-2.90625,-4.550671550671551,0.0,0.0,1.5625,0.65625,-2.78125,-4.606837606837607,-0.7008547008547008,-0.5506715506715507,1.5,0.5625,-2.71875,-4.2393162393162385,0.0,-0.5445665445665445,1.40625,0.0,-2.625,-4.4322344322344325,1.194139194139194,-0.5921855921855922,1.5,0.0,-2.5,-4.3028083028083035,1.4029304029304028,-1.3064713064713065,1.65625,0.0,-2.28125,-4.766788766788767,1.5042735042735045,-2.5164835164835164,1.65625,0.0,-2.03125,-4.501831501831502,1.3650793650793651,-2.8949938949938954,1.6875,0.0,-1.875,-4.410256410256411,1.623931623931624,-3.6996336996337003,1.625,0.0,-1.75,-3.8021978021978016,2.6507936507936507,-3.7606837606837606,1.3125,0.0,-1.59375,-4.4774114774114775,3.326007326007326,-3.627594627594628,1.1875,0.0,-1.40625,-3.753357753357753,2.9450549450549453,-3.862026862026862,1.09375,0.0,-1.15625,-2.978021978021978,2.184371184371184,-4.048840048840049,0.84375,0.0,-0.9375,-2.5702075702075704,2.3675213675213675,-3.4908424908424913,0.53125,0.0,-0.78125,-2.385836385836386,2.283272283272283,-2.814407814407814,0.0,0.0,-0.65625,-2.2124542124542126,2.1587301587301586,-2.1782661782661785,0.0,0.0,0.0,-2.2210012210012207,2.3699633699633704,-1.5531135531135531,0.0,0.0,0.0,-1.6275946275946276,2.075702075702076,-1.332112332112332,0.0,0.0,0.0,-1.133089133089133,1.623931623931624,-0.8876678876678876,0.0,0.0,0.0,-0.8913308913308914,1.321123321123321,0.0,0.0,0.0,0.0,-0.5213675213675214,0.6312576312576312,0.0,0.0,0.0,0.0,-0.5457875457875457,0.0,0.0,0.0,0.0,0.0,0.0,0.0,0.0,0.0,0.0,0.0,0.0,0.0,-0.5750915750915749,0.0,0.0,0.0,0.0,-0.5164835164835165,-0.7521367521367521,0.0,0.0,0.0,0.0,0.0,0.0,0.0,0.0,0.0,0.0,0.0,0.0,0.0,0.0,0.0,0.0,0.0,0.0,0.0,0.0,0.0,0.0,0.0,0.0,0.0,0.0,0.0,0.0,0.0,0.0,0.0,0.0,0.0,0.0,0.0,0.0,0.0,0.0,0.0,0.0,0.0,0.0,0.0,0.0,0.0,0.0,0.0,0.0,0.0,0.0,0.0,0.0,0.0,0.0,0.0,0.0,0.0,0.0,0.0,0.0,0.0,0.0,0.0,0.0,0.0,0.0,0.0,0.0,0.0,0.0,0.0,0.0,0.0,0.0,0.0,0.0,0.0,0.0,0.0,0.0,0.0,0.0,0.0,0.0,0.0,0.0,0.0,0.0,0.0,0.0,0.0,0.0,0.0,0.0,0.0,0.0,0.0,0.0,0.0,0.0,0.0,0.0,0.0,0.0,0.0,0.0,0.0,0.0,0.0,0.0,0.0,0.0,0.0,0.0,0.0,0.0,0.0,0.0,0.0,0.0,0.0,0.0,0.0,0.0,0.0,0.0,0.0,0.0,0.0,0.0,0.0,-0.5018315018315018,0.0,0.0,0.0,,,,,,,,,,,,,,,,,,,,,,,,,,,,,,,,,,,,,,,,,,,wp_nextR
accX,0.8705738705738706,-1.0085470085470083,-0.7423687423687424,0.0,-0.625,0.0,0.7350427350427351,-0.5152625152625152,-1.05006105006105,0.0,-0.53125,0.0,0.8241758241758241,-0.6153846153846154,-1.1807081807081807,0.0,0.0,0.0,1.094017094017094,-0.934065934065934,-1.2246642246642248,0.0,0.0,0.0,2.128205128205128,-1.7936507936507935,-1.4078144078144081,0.0,0.53125,0.0,2.4505494505494507,-2.614163614163614,-2.0891330891330893,0.0,0.5625,-0.59375,2.3076923076923075,-3.492063492063492,-1.8852258852258847,0.0,0.75,-0.9375,2.0183150183150182,-4.294261294261294,-1.2319902319902318,0.0,1.125,-1.4375,1.78021978021978,-4.822954822954824,-0.6043956043956044,0.0,1.21875,-1.84375,1.297924297924298,-4.847374847374847,0.0,0.0,1.03125,-2.21875,-1.3894993894993894,-5.293040293040293,0.5702075702075702,0.0,1.125,-2.1875,-1.3968253968253967,-4.8998778998779,1.1416361416361416,0.0,1.4375,-2.3125,-1.4920634920634919,-4.5555555555555545,1.514041514041514,0.0,1.53125,-2.59375,-1.3089133089133091,-4.487179487179487,1.3345543345543345,0.53125,1.28125,-2.875,-2.2735042735042734,-3.8302808302808304,0.8424908424908425,0.0,0.8125,-3.0625,-3.774114774114774,-3.1990231990231983,0.5738705738705738,0.0,0.0,-3.09375,-4.398046398046398,-2.68986568986569,0.9511599511599512,0.59375,0.59375,-2.9375,-4.2405372405372415,-1.5836385836385836,1.1721611721611722,1.03125,1.03125,-2.90625,-3.5811965811965814,-1.2405372405372406,1.3540903540903542,1.46875,1.1875,-2.78125,-3.7191697191697193,-1.0781440781440779,0.8253968253968254,1.65625,0.8125,-2.78125,-4.586080586080586,-0.8412698412698413,0.0,1.625,0.0,-2.59375,-5.422466422466423,0.0,0.0,1.375,0.0,-2.53125,-4.6923076923076925,0.5824175824175825,0.0,1.46875,0.0,-2.375,-4.020757020757022,1.1831501831501832,0.0,1.71875,0.0,-2.28125,-4.356532356532357,0.6935286935286935,-1.0195360195360197,1.6875,0.0,-2.09375,-4.367521367521366,0.7545787545787546,-1.321123321123321,1.46875,0.0,-2.03125,-4.148962148962149,0.6422466422466423,-1.31990231990232,1.3125,0.0,-1.90625,-3.6459096459096467,1.2783882783882785,-1.4053724053724053,1.3125,0.0,-1.8125,-3.93040293040293,1.1489621489621489,-2.1819291819291817,1.21875,0.0,-1.6875,-3.85958485958486,1.4175824175824177,-2.7191697191697197,1.125,0.0,-1.40625,-4.157509157509158,2.2649572649572653,-2.5665445665445668,1.0,0.0,-1.25,-3.7008547008547015,2.4920634920634916,-1.9768009768009769,1.0625,0.0,-1.0625,-1.5995115995115996,1.815628815628816,-1.6532356532356531,1.09375,0.0,-1.0,-3.6166056166056166,2.4542124542124544,-4.301587301587301,0.8125,0.0,-0.65625,-3.4444444444444446,2.743589743589744,-3.940170940170941,0.5625,0.0,0.0,-2.1575091575091574,2.073260073260073,-2.774114774114774,0.0,0.0,0.0,-0.9926739926739928,1.3015873015873016,-1.881562881562881,0.0,0.0,0.0,-1.0036630036630036,1.0451770451770452,-1.2014652014652014,0.0,0.0,0.0,-0.9279609279609279,0.8791208791208791,-0.63003663003663,0.0,0.0,0.0,-0.7582417582417582,0.7924297924297924,0.0,0.0,0.0,0.0,-0.7008547008547008,0.5067155067155067,0.0,0.0,0.0,0.0,-0.5970695970695971,0.6581196581196581,0.0,0.0,0.0,0.0,0.0,0.0,0.0,0.0,0.0,0.0,0.0,0.0,-0.6654456654456654,0.0,0.0,0.0,0.0,0.0,-0.8131868131868132,0.0,0.0,0.0,0.0,0.0,-0.6984126984126984,0.0,0.0,0.0,0.0,0.0,-0.5335775335775336,0.0,0.0,0.0,0.0,-0.5323565323565324,0.0,0.0,0.0,0.0,0.0,-0.6178266178266179,0.0,0.0,0.0,0.0,0.0,-0.6239316239316239,0.0,0.0,0.0,0.0,0.5543345543345544,-0.6910866910866911,0.0,0.0,0.0,0.0,0.0,0.0,0.0,0.0,0.0,0.0,0.0,0.0,0.0,0.0,0.0,0.0,0.0,0.0,0.0,0.0,0.0,0.0,0.0,0.0,0.0,0.0,0.0,0.0,0.0,0.0,0.0,0.0,0.0,0.0,0.0,0.0,0.0,0.0,0.0,0.0,0.0,0.0,0.0,0.0,0.0,0.0,0.0,0.0,0.0,0.0,0.0,0.0,0.0,0.0,0.0,0.0,0.0,0.0,0.0,0.0,0.0,0.0,0.0,0.0,0.0,0.0,0.0,0.0,0.0,0.0,0.0,0.0,-0.5518925518925519,0.0,0.0,0.0,0.0,0.0,-0.5787545787545788,0.0,0.0,0.0,0.0,0.0,-0.5970695970695971,0.0,0.0,0.0,0.0,0.0,0.0,0.0,0.0,0.0,,,,,,,,,,,,,,,,,,,,,,,,,,,,,,,,,,,,,wp_nextR
accX,0.6056166056166056,0.0,0.0,0.0,-0.5625,0.0,0.6324786324786325,0.0,-0.503052503052503,0.0,-0.625,0.0,0.0,-1.5457875457875458,-2.1880341880341883,0.0,0.0,0.0,1.380952380952381,-1.3394383394383391,-2.5811965811965814,0.0,0.0,0.0,2.5006105006105006,-1.2527472527472527,-2.1074481074481075,0.0,0.0,0.0,3.991452991452992,-2.783882783882784,-2.5360195360195363,0.0,0.6875,0.0,4.654456654456656,-4.887667887667888,-2.7130647130647128,0.0,1.09375,0.0,4.676434676434677,-5.87912087912088,-1.9108669108669107,0.0,1.28125,-1.21875,3.664224664224663,-6.362637362637362,-0.8693528693528694,0.0,1.15625,-1.8125,2.791208791208791,-6.124542124542124,0.0,0.0,0.84375,-2.21875,1.1135531135531136,-5.603174603174603,0.5299145299145299,0.0,0.59375,-2.4375,0.0,-4.86935286935287,1.061050061050061,0.0,0.625,-2.46875,-1.5873015873015872,-4.595848595848596,1.1111111111111112,0.53125,0.96875,-2.53125,-2.003663003663004,-4.953601953601954,1.123321123321123,0.5625,1.34375,-2.71875,-0.7521367521367521,-3.9609279609279615,1.474969474969475,0.59375,1.0625,-3.0,-1.7142857142857142,-4.1330891330891335,0.8131868131868132,0.0,0.53125,-3.1875,-3.3211233211233213,-2.9059829059829063,0.0,0.0,0.0,-3.15625,-4.307692307692308,-1.8913308913308915,0.7252747252747253,0.65625,0.75,-2.96875,-3.772893772893773,-0.9926739926739928,1.2295482295482296,1.0,0.90625,-2.9375,-4.0537240537240535,-1.0244200244200243,0.0,1.28125,0.65625,-2.8125,-4.532356532356532,-0.6556776556776557,0.0,1.375,0.6875,-2.59375,-4.177045177045176,0.0,0.0,1.46875,0.84375,-2.46875,-4.262515262515263,0.0,0.0,1.59375,0.78125,-2.375,-4.323565323565323,0.6691086691086691,0.0,1.65625,0.75,-2.21875,-3.5909645909645915,0.7118437118437119,0.0,1.5625,0.71875,-2.0625,-3.2649572649572653,0.514041514041514,0.0,1.46875,0.0,-2.03125,-3.333333333333333,1.1978021978021978,-0.7057387057387058,1.3125,0.0,-1.9375,-3.2857142857142856,1.8522588522588523,-0.8388278388278388,1.28125,0.0,-1.78125,-3.6190476190476186,2.083028083028083,-1.3992673992673992,1.375,0.0,-1.59375,-3.183150183150183,2.274725274725274,-2.0549450549450547,1.40625,0.0,-1.375,-2.659340659340659,2.067155067155068,-2.225885225885226,1.4375,0.0,-1.125,-2.2234432234432235,1.5079365079365081,-2.4896214896214897,1.125,0.0,-1.03125,-1.9328449328449329,1.7789987789987791,-2.4725274725274726,0.90625,0.0,-0.96875,-2.139194139194139,1.9194139194139197,-2.417582417582417,0.84375,0.0,-0.78125,-1.4517704517704515,1.463980463980464,-2.6385836385836385,0.78125,0.0,-0.65625,-1.4871794871794872,1.5897435897435896,-2.318681318681319,0.71875,0.0,-0.59375,-1.2026862026862026,1.800976800976801,-1.4981684981684982,0.6875,0.0,-0.53125,-0.5995115995115995,1.5091575091575091,-1.5006105006105006,0.5625,0.0,0.0,-0.8742368742368742,1.8754578754578757,-1.824175824175824,0.0,0.0,0.0,-1.4664224664224663,1.9926739926739927,-2.323565323565324,0.0,0.0,0.0,-1.4188034188034189,1.9352869352869355,-1.8693528693528692,0.0,0.0,0.0,-0.894993894993895,1.6947496947496947,-1.3162393162393162,0.0,0.0,0.0,0.0,0.9658119658119658,-1.2258852258852257,0.0,0.0,0.0,0.0,0.0,-0.7228327228327228,0.0,0.0,0.0,0.7362637362637363,-0.7460317460317459,-0.663003663003663,0.0,0.0,0.0,0.6361416361416361,-0.8315018315018315,-0.5457875457875457,0.0,0.0,0.0,0.5628815628815629,-0.7704517704517705,0.0,0.0,0.0,0.0,0.0,0.0,0.0,0.0,0.0,0.0,0.0,0.0,0.6227106227106227,0.0,0.0,0.0,0.0,0.0,0.0,0.0,0.0,0.0,0.0,0.0,0.0,0.0,0.0,0.0,0.0,0.0,0.0,0.0,0.0,0.0,0.0,0.0,0.0,0.0,0.0,0.0,0.0,0.0,0.0,0.0,0.0,0.0,0.0,0.0,0.0,0.0,0.0,0.0,0.0,0.0,0.0,0.0,0.0,0.0,0.0,0.0,0.0,0.0,0.0,0.0,0.0,0.0,0.0,0.0,0.0,0.0,0.0,0.0,0.0,0.0,0.0,0.0,0.0,0.0,0.0,0.0,0.0,0.0,0.0,0.0,0.0,0.0,0.0,0.0,0.0,0.0,0.0,0.0,0.0,0.0,0.0,0.0,0.0,0.0,0.0,0.0,0.0,0.0,0.0,0.0,0.0,0.0,0.0,0.0,0.0,0.0,0.0,0.0,0.0,0.0,0.0,0.0,0.0,0.0,0.0,0.0,0.0,0.0,0.0,0.0,0.0,0.0,-0.9169719169719168,0.0,0.0,0.0,,,,,,,,,,,,,,,,,,,,,,,,,wp_nextR
accX,1.0903540903540905,0.0,0.0,0.0,-0.5625,0.0,1.0476190476190477,-0.5433455433455433,0.5445665445665445,0.0,-0.75,0.0,0.8302808302808303,-0.5335775335775336,0.0,0.0,-0.65625,0.0,2.380952380952381,-3.3626373626373627,-2.6043956043956045,0.0,0.0,0.0,4.020757020757022,-5.7203907203907205,-3.0842490842490844,0.0,0.0,-0.65625,4.174603174603175,-6.20879120879121,-2.4065934065934065,0.0,0.0,-1.28125,3.1648351648351647,-7.63980463980464,-1.3455433455433456,-0.53125,0.0,-1.90625,1.663003663003663,-6.8339438339438345,0.0,-0.625,0.84375,-2.21875,1.137973137973138,-6.852258852258853,0.7704517704517705,0.0,1.25,-2.5,0.0,-5.937728937728938,0.8656898656898657,0.0,1.28125,-2.5,0.5677655677655677,-5.236874236874237,1.3235653235653235,0.0,1.0,-2.59375,-0.7619047619047619,-4.622710622710622,0.9218559218559218,0.0,0.6875,-2.8125,-2.23931623931624,-4.819291819291818,0.0,0.0,0.6875,-2.96875,-2.518925518925519,-4.575091575091576,0.0,0.0,1.125,-2.96875,-2.0891330891330893,-3.9413919413919416,0.9194139194139194,0.78125,1.34375,-3.0625,-2.128205128205128,-3.1294261294261294,1.1404151404151404,0.875,0.78125,-3.1875,-4.208791208791209,-2.5775335775335777,0.0,0.875,0.59375,-3.15625,-5.5555555555555545,-1.3711843711843712,0.0,1.0625,0.9375,-2.96875,-5.738705738705739,-0.7582417582417582,0.0,1.25,1.3125,-2.8125,-4.294261294261294,0.6910866910866911,0.6312576312576312,1.625,1.0625,-2.6875,-5.221001221001221,0.0,-0.6947496947496947,1.625,0.65625,-2.53125,-6.052503052503053,0.0,-1.7582417582417582,1.34375,0.65625,-2.40625,-6.514041514041513,1.6251526251526252,-1.4835164835164836,1.25,1.03125,-2.15625,-6.021978021978023,2.214896214896215,-1.0525030525030523,1.1875,1.03125,-1.78125,-4.531135531135531,1.9768009768009769,-0.8998778998778999,1.03125,0.53125,-1.5625,-4.703296703296704,2.3919413919413923,-0.6703296703296703,1.09375,0.0,-1.375,-3.5665445665445668,2.045177045177045,-1.7179487179487178,1.28125,0.78125,-1.15625,-3.5164835164835164,2.433455433455433,-2.7240537240537246,1.15625,0.625,-0.90625,-3.584859584859585,2.8571428571428568,-3.2136752136752142,0.9375,0.0,-0.65625,-4.196581196581197,3.2625152625152625,-3.3150183150183152,0.71875,0.0,0.0,-2.796092796092796,2.9951159951159956,-2.7362637362637363,0.59375,0.59375,0.0,-1.5079365079365081,2.064713064713065,-2.0903540903540905,0.0,0.0,0.0,-0.9645909645909646,1.2673992673992671,-1.9255189255189256,0.0,0.0,0.0,-1.1733821733821734,1.652014652014652,-1.8803418803418803,0.0,0.0,0.0,-1.155067155067155,1.6666666666666667,-1.709401709401709,0.0,0.0,0.0,-0.9450549450549449,1.5665445665445663,-1.3137973137973138,0.0,0.0,0.0,-0.5567765567765568,1.0183150183150182,-0.8705738705738706,0.0,0.0,0.0,0.0,0.7155067155067155,-0.6532356532356532,0.0,0.0,0.0,0.0,0.0,-0.6813186813186813,0.0,0.0,0.0,0.0,0.0,-0.7179487179487181,0.0,0.0,0.0,0.0,0.0,-0.5958485958485958,0.0,0.0,0.0,0.0,0.0,-0.536019536019536,0.0,0.0,0.0,0.0,-0.5347985347985348,0.0,0.0,0.0,0.0,0.0,-0.5506715506715507,0.0,0.0,0.0,0.0,0.0,-0.6007326007326007,0.0,0.0,0.0,0.0,0.0,-0.6251526251526252,0.0,0.0,0.0,0.0,0.0,0.0,0.0,0.0,0.0,0.0,0.0,0.0,0.0,0.0,0.0,0.0,0.0,0.0,0.0,0.0,0.0,0.0,0.0,0.0,0.0,0.0,0.0,0.0,0.0,0.0,0.0,0.0,0.0,0.0,0.0,0.0,0.0,0.0,0.0,0.0,0.0,0.0,0.0,0.0,0.0,0.0,0.0,0.0,0.0,0.0,0.0,0.0,0.0,0.0,0.0,0.0,0.0,0.0,0.0,0.0,0.0,0.0,0.0,0.0,0.0,0.0,0.0,0.0,0.0,0.0,0.0,0.0,-0.5775335775335775,0.0,0.0,0.0,0.0,0.5018315018315018,-0.7985347985347986,0.0,0.0,0.0,0.0,0.6105006105006106,-0.6202686202686203,0.0,0.0,0.0,0.0,0.5128205128205128,0.0,0.0,0.0,0.0,0.0,0.0,0.0,0.0,0.0,0.0,0.0,0.0,-0.5177045177045178,0.0,0.0,0.0,0.0,0.0,-0.5018315018315018,0.0,0.0,0.0,0.0,0.0,0.0,0.0,0.0,0.0,0.0,0.0,0.0,0.0,0.0,0.0,0.0,0.0,0.0,0.0,0.0,0.0,0.0,0.0,-0.9865689865689866,0.0,0.0,0.0,0.0,0.0,-1.0366300366300367,0.0,0.0,0.0,0.0,0.0,-1.4969474969474967,0.0,0.0,0.0,-0.8571428571428571,1.3687423687423688,-2.1941391941391943,0.0,0.0,0.0,,,,,,,wp_nextR
accX,0.0,0.0,0.5604395604395604,0.0,0.0,0.0,0.6984126984126984,0.0,0.0,0.0,-0.53125,0.0,1.0671550671550671,0.0,0.0,0.0,-0.625,0.0,1.3577533577533578,0.0,0.0,0.0,-0.625,0.0,1.1245421245421243,-1.205128205128205,-1.6813186813186811,0.0,0.0,0.0,1.9035409035409037,-2.5225885225885225,-2.862026862026862,0.0,0.0,0.0,2.1880341880341883,-3.3736263736263736,-3.4322344322344316,0.0,0.59375,0.0,2.628815628815629,-3.5677655677655684,-2.3699633699633704,0.0,0.8125,-0.65625,1.945054945054945,-4.01953601953602,-1.2210012210012209,0.0,0.8125,-1.15625,0.0,-3.5384615384615383,0.0,0.0,0.875,-1.1875,-0.8778998778998779,-3.9975579975579976,0.0,0.0,1.21875,-1.21875,-0.9328449328449328,-4.672771672771673,0.8241758241758241,0.0,1.6875,-1.28125,-1.0451770451770452,-4.822954822954824,1.6275946275946276,0.0,1.71875,-1.46875,-1.8180708180708183,-3.9609279609279615,2.449328449328449,0.53125,1.5625,-1.46875,-1.962148962148962,-4.0366300366300365,2.8327228327228333,0.75,1.46875,-1.59375,-1.1147741147741148,-3.708180708180708,2.571428571428572,0.78125,1.4375,-1.90625,-0.7423687423687424,-2.3150183150183152,2.043956043956044,0.625,0.96875,-2.15625,-2.623931623931624,-1.5506715506715507,1.1147741147741148,0.0,0.0,-2.34375,-4.470085470085469,-0.5372405372405372,0.8620268620268621,0.0,0.0,-2.375,-4.035409035409035,0.9694749694749696,1.5726495726495726,0.8125,0.5625,-2.09375,-3.6935286935286937,1.42002442002442,1.4884004884004884,1.09375,0.0,-1.8125,-3.4420024420024418,1.4517704517704515,0.9218559218559218,1.25,0.0,-1.6875,-2.4652014652014653,0.6886446886446886,0.0,1.25,0.0,-1.71875,-2.0073260073260077,0.0,0.0,1.125,0.0,-1.78125,-2.227106227106227,0.0,0.0,1.125,0.0,-1.84375,-2.750915750915751,1.1001221001221002,0.0,1.34375,0.0,-1.8125,-3.2014652014652016,1.2796092796092795,0.0,1.5625,0.0,-1.65625,-3.1184371184371185,0.9987789987789988,0.0,1.625,0.0,-1.5625,-2.324786324786325,1.7387057387057387,0.0,1.71875,0.0,-1.46875,-1.84004884004884,1.9902319902319905,-0.9474969474969476,2.0,0.0,-1.40625,-2.8583638583638584,2.6324786324786325,-2.7216117216117217,2.0625,0.0,-1.25,-2.778998778998779,3.404151404151404,-4.703296703296704,1.9375,0.0,-0.96875,-1.3956043956043955,2.3821733821733817,-4.587301587301587,1.6875,0.0,-0.84375,-1.1892551892551892,2.0989010989010994,-3.9975579975579976,1.25,0.0,-0.78125,-1.0183150183150182,2.5128205128205128,-3.0891330891330893,0.9375,0.0,-0.6875,0.0,2.63980463980464,-2.094017094017094,0.875,0.0,-0.625,-0.5384615384615384,2.122100122100122,-1.94017094017094,0.84375,0.0,-0.65625,0.0,2.0818070818070815,-1.1684981684981686,0.6875,0.0,-0.6875,-1.695970695970696,3.075702075702076,-1.1489621489621489,0.59375,0.0,-0.6875,-1.752136752136752,3.189255189255189,-1.3663003663003663,0.59375,0.0,-0.53125,-1.4468864468864469,2.485958485958486,-1.6691086691086692,0.0,0.0,0.0,-1.2576312576312576,1.8290598290598292,-1.8608058608058609,0.0,0.0,0.0,-0.7557997557997558,1.0866910866910866,-1.8742368742368745,0.0,0.0,0.0,-0.568986568986569,0.8559218559218559,-1.7973137973137974,0.0,0.0,0.0,0.0,0.5445665445665445,-1.4969474969474967,0.0,0.0,0.0,0.0,0.0,-0.9645909645909646,0.0,0.0,0.0,0.0,0.0,0.0,0.0,0.0,0.0,0.6227106227106227,0.0,0.0,0.0,0.0,0.0,0.5213675213675214,-0.6227106227106227,0.0,0.0,0.0,0.0,0.0,0.0,0.0,0.0,0.0,0.0,0.0,0.0,0.0,0.0,0.0,0.0,0.0,0.0,0.0,0.0,0.0,0.0,0.0,0.0,0.0,0.0,0.0,0.0,0.0,0.0,0.0,0.0,0.0,0.0,0.0,0.0,0.5103785103785103,0.0,0.0,0.0,0.0,0.0,0.0,0.0,0.0,0.0,0.0,0.0,0.0,0.0,0.0,0.0,0.0,0.0,0.0,0.0,0.0,0.0,0.0,0.0,0.0,0.0,0.0,0.0,0.0,0.0,0.0,0.0,0.0,0.0,0.0,0.0,0.0,0.0,0.0,0.0,0.0,0.0,0.0,0.0,0.0,0.0,0.0,0.0,0.0,0.0,0.0,0.0,0.0,0.0,0.0,0.0,0.0,0.0,0.0,0.0,0.0,0.0,0.0,0.0,0.0,0.0,0.0,0.0,0.0,0.0,0.0,0.0,0.0,0.0,0.0,0.0,0.0,0.0,0.0,0.0,0.0,0.0,0.0,0.0,0.0,0.0,0.0,0.0,0.0,0.0,0.0,0.0,0.0,0.0,0.0,0.0,0.0,0.0,0.0,0.0,0.0,0.0,0.0,0.0,0.0,0.0,wp_nextR
accX,2.542124542124542,-1.68009768009768,-0.7557997557997558,0.0,-0.84375,0.0,2.4822954822954824,-1.9145299145299144,-1.5970695970695972,0.0,-0.9375,0.0,2.6788766788766787,-3.217338217338217,-2.485958485958486,0.0,-0.53125,0.0,2.5494505494505493,-3.418803418803418,-2.5384615384615383,0.0,0.0,0.0,2.061050061050061,-4.417582417582418,-2.1623931623931623,0.0,0.75,0.0,1.7545787545787546,-6.332112332112333,-1.434676434676435,0.65625,1.34375,-0.8125,2.57997557997558,-6.671550671550674,0.0,0.0,1.4375,-1.53125,1.8571428571428568,-6.53968253968254,1.0,0.0,0.96875,-2.125,0.0,-5.358974358974359,1.5164835164835164,0.0,0.65625,-2.46875,-0.9511599511599512,-4.3003663003663,1.8986568986568984,0.0,0.5625,-2.5625,-1.8412698412698407,-4.474969474969475,2.072039072039072,0.0,0.78125,-2.59375,-2.021978021978022,-3.5811965811965814,2.2954822954822958,0.6875,0.90625,-2.71875,-1.7875457875457876,-3.637362637362637,2.0415140415140414,0.78125,0.0,-2.90625,-3.117216117216117,-4.045177045177045,1.2075702075702075,0.0,0.0,-3.0,-4.1037851037851025,-2.505494505494505,1.9548229548229548,0.0,0.0,-2.96875,-5.017094017094017,-1.1465201465201464,2.274725274725274,0.71875,0.5625,-2.8125,-4.332112332112332,-0.5750915750915749,1.8144078144078144,1.1875,0.84375,-2.59375,-3.33943833943834,-0.9352869352869352,1.6666666666666667,1.21875,0.0,-2.34375,-3.323565323565324,0.0,1.123321123321123,1.09375,0.0,-2.3125,-4.291819291819292,0.8278388278388278,0.0,1.28125,0.0,-2.21875,-4.576312576312576,1.1611721611721613,0.0,1.59375,0.0,-1.9375,-3.0708180708180715,1.065934065934066,0.0,1.8125,0.75,-1.6875,-2.231990231990232,0.8852258852258852,-0.8168498168498168,1.6875,0.59375,-1.53125,-1.879120879120879,0.7716727716727717,-1.5897435897435896,1.625,0.0,-1.40625,-2.5482295482295485,1.1172161172161172,-1.8351648351648349,1.5,0.0,-1.3125,-1.871794871794872,1.275946275946276,-1.4163614163614164,1.5,0.53125,-1.1875,-1.2857142857142858,0.8034188034188035,-1.57997557997558,1.625,0.5625,-1.0625,-1.0293040293040292,1.5470085470085468,-2.3028083028083026,1.59375,0.0,-1.03125,-0.6520146520146519,1.238095238095238,-2.6300366300366296,1.5,0.0,-0.96875,-1.3992673992673992,1.7301587301587302,-3.3443223443223444,1.21875,0.0,-1.0,-2.559218559218559,3.1623931623931623,-3.9645909645909647,1.25,0.0,-0.78125,-2.253968253968254,3.1770451770451764,-4.00976800976801,1.125,0.0,-0.59375,-1.6825396825396826,2.831501831501832,-3.741147741147741,0.84375,0.0,-0.53125,-1.2820512820512822,2.9816849816849818,-3.5409035409035408,0.6875,0.0,0.0,-1.9023199023199024,3.289377289377289,-3.7973137973137967,0.0,0.0,0.0,-1.8522588522588523,3.2625152625152625,-3.6581196581196584,0.0,0.0,0.0,-2.5445665445665444,3.6166056166056166,-3.421245421245421,0.0,0.0,0.0,-1.975579975579976,2.52991452991453,-2.9267399267399266,0.0,0.0,0.0,-0.6581196581196581,1.5409035409035412,-1.9108669108669107,0.0,0.0,0.0,0.0,0.6910866910866911,-1.277167277167277,0.0,0.0,0.0,0.0,0.0,-0.5384615384615384,0.0,0.0,0.0,1.0158730158730158,-0.6336996336996337,0.0,0.0,0.0,0.0,0.7448107448107448,-0.5616605616605617,0.0,0.0,0.0,0.0,0.0,0.0,0.0,0.0,0.0,0.0,0.0,0.0,0.0,0.0,0.0,0.0,0.5518925518925519,0.0,0.0,0.0,0.0,0.0,0.0,0.0,0.0,0.0,0.0,0.0,0.0,0.0,0.0,0.0,0.0,0.0,0.0,0.0,0.0,0.0,0.0,0.0,0.0,0.0,0.0,0.0,0.0,0.0,0.0,0.0,0.0,0.0,0.0,0.0,0.0,0.0,0.0,0.0,0.0,0.0,0.0,0.0,0.0,0.0,0.0,0.0,0.0,0.0,0.0,0.0,0.0,0.0,0.0,0.0,0.0,0.0,0.0,0.0,0.0,0.0,0.0,0.0,0.0,0.0,0.0,0.0,0.0,0.0,0.0,0.0,0.0,0.0,0.0,0.0,0.0,0.0,0.0,0.0,0.0,0.0,0.0,0.0,0.0,0.0,0.0,0.0,0.0,0.0,0.0,0.0,0.0,0.0,0.0,0.0,0.0,0.0,0.0,0.0,0.0,0.0,0.0,0.0,0.0,0.0,0.0,0.0,0.0,0.0,0.0,0.0,0.0,0.0,0.0,0.0,0.0,0.0,0.0,0.0,0.0,0.0,0.0,0.0,0.0,0.0,0.0,0.0,0.0,0.0,0.0,0.0,0.0,0.0,-0.5335775335775336,0.0,0.0,0.0,0.0,0.0,-0.7374847374847375,0.0,0.0,0.0,0.0,0.0,-1.2014652014652014,0.0,0.0,0.0,,,,,,,,,,,,,wp_nextR
accX,1.5567765567765568,0.0,0.0,0.0,-0.6875,0.0,1.7362637362637363,0.0,0.0,0.0,-1.28125,0.0,0.7741147741147741,-0.8083028083028083,0.0,0.0,-1.0625,0.0,1.188034188034188,-1.8742368742368745,-1.8510378510378511,0.0,0.0,0.0,2.2466422466422467,-2.445665445665446,-2.1904761904761907,0.0,0.0,0.0,2.415140415140415,-3.555555555555556,-2.5995115995116,0.0,0.59375,0.0,2.238095238095238,-4.141636141636142,-2.0769230769230766,0.0,0.875,-0.59375,1.9145299145299144,-4.9133089133089145,-0.8876678876678876,0.0,1.15625,-0.84375,1.7191697191697193,-5.554334554334553,1.4029304029304028,0.0,1.1875,-1.34375,0.0,-5.164835164835165,1.5873015873015872,0.53125,1.0,-1.53125,-1.5567765567765568,-5.396825396825397,1.843711843711844,0.75,1.0625,-1.53125,-0.8547008547008547,-5.0317460317460325,2.498168498168498,0.8125,1.4375,-1.8125,0.0,-4.626373626373627,2.4017094017094016,0.78125,1.3125,-2.25,-1.4322344322344325,-4.772893772893774,1.3479853479853479,0.71875,0.59375,-2.5,-2.9035409035409034,-3.9694749694749696,1.4102564102564104,0.59375,0.0,-2.59375,-3.1245421245421245,-2.4896214896214897,1.5628815628815629,0.65625,0.0,-2.71875,-4.0927960927960925,-1.0305250305250304,0.8107448107448108,0.84375,0.0,-2.71875,-4.974358974358975,0.0,0.0,1.21875,0.0,-2.4375,-5.170940170940171,0.0,0.0,1.46875,0.0,-2.15625,-3.5225885225885225,0.0,0.0,1.40625,0.53125,-2.03125,-3.505494505494505,0.0,0.0,1.3125,0.0,-1.96875,-3.211233211233212,-0.5152625152625152,0.0,1.25,0.0,-1.90625,-3.0586080586080584,-0.8315018315018315,0.0,0.96875,0.0,-1.9375,-3.173382173382173,0.8327228327228328,0.0,1.125,0.0,-1.875,-4.0415140415140405,1.8571428571428568,-0.5518925518925519,1.5,0.0,-1.6875,-2.7301587301587302,1.656898656898657,-1.043956043956044,1.8125,0.0,-1.5,-2.93040293040293,1.750915750915751,-2.7045177045177047,1.65625,0.0,-1.4375,-3.4371184371184373,2.203907203907204,-3.6434676434676434,1.40625,0.0,-1.28125,-2.6153846153846154,2.435897435897436,-3.935286935286935,1.21875,0.0,-1.09375,-3.0,2.7228327228327234,-4.5054945054945055,1.09375,0.0,-0.9375,-2.737484737484737,2.7594627594627594,-4.472527472527473,1.0625,0.0,-0.75,-1.1086691086691087,2.0854700854700856,-2.2222222222222223,0.78125,0.59375,-0.5625,-0.9865689865689866,2.664224664224664,-1.8937728937728937,0.75,0.53125,-0.53125,-1.1477411477411477,2.884004884004884,-2.2234432234432235,0.75,0.0,0.0,-0.7680097680097681,2.421245421245421,-2.578754578754579,0.625,0.0,0.0,-0.8363858363858364,2.1672771672771667,-2.42002442002442,0.0,0.0,0.0,-0.7203907203907204,2.245421245421245,-1.94017094017094,0.0,0.0,0.0,-1.155067155067155,2.9743589743589745,-1.5482295482295485,0.0,0.0,0.0,-1.4114774114774116,3.111111111111111,-1.5677655677655675,0.0,0.0,0.0,-1.1562881562881564,2.225885225885226,-1.5091575091575091,0.0,0.0,0.0,0.0,1.4395604395604396,-1.105006105006105,0.0,0.0,0.0,0.0,0.8424908424908425,-0.6422466422466423,0.0,0.0,0.0,0.0,0.0,0.0,0.0,0.0,0.0,0.0,0.0,0.0,0.0,0.0,0.0,0.5042735042735043,-0.7374847374847375,0.0,0.0,0.0,0.0,0.5555555555555556,-0.8901098901098901,0.0,0.0,0.0,0.0,0.6642246642246642,-0.8888888888888888,0.0,0.0,0.0,0.0,0.0,-0.8656898656898657,0.0,0.0,0.0,0.0,0.0,0.0,0.0,0.0,0.0,0.0,0.0,0.0,0.0,0.0,0.0,0.0,0.0,0.0,0.0,0.0,0.0,0.0,0.0,0.0,0.0,0.0,0.0,0.0,0.0,0.0,0.0,0.0,0.0,0.0,0.0,0.0,0.0,0.0,0.0,0.0,0.0,0.0,0.0,0.0,0.0,0.0,0.0,0.0,0.0,0.0,0.0,0.0,0.0,0.0,0.0,0.0,0.0,0.0,0.0,0.0,0.0,0.0,0.0,0.0,0.0,0.0,0.0,0.0,0.0,0.0,0.0,0.0,0.0,0.0,0.0,0.0,0.0,0.0,0.0,0.0,0.0,0.0,0.0,0.0,0.0,0.0,0.0,0.0,0.0,0.0,0.0,0.0,0.0,0.0,0.0,0.0,0.0,0.0,0.0,0.0,0.0,0.0,0.0,0.0,0.0,0.0,0.0,0.0,-1.0,0.0,0.0,0.0,,,,,,,,,,,,,,,,,,,,,,,,,,,,,,,,,,,,,wp_nextR
accX,0.0,0.0,-0.6324786324786325,0.0,0.0,0.0,0.0,0.0,0.0,0.0,0.0,0.0,0.934065934065934,0.0,0.0,0.0,0.0,0.0,1.4566544566544566,-2.7350427350427347,-2.4249084249084247,0.0,0.0,0.0,1.5628815628815629,-3.660561660561661,-2.31013431013431,0.0,0.8125,0.0,1.8290598290598292,-4.291819291819292,-2.028083028083028,0.0,1.15625,0.0,0.5995115995115995,-4.08058608058608,-0.8888888888888888,0.0,1.15625,0.0,1.6507936507936507,-4.3028083028083035,1.4444444444444444,0.0,1.34375,0.0,2.9609279609279615,-5.087912087912088,1.8290598290598292,0.0,1.09375,-1.03125,0.0,-4.683760683760683,0.5873015873015873,0.0,0.0,-1.625,-2.85958485958486,-3.8534798534798536,0.0,0.0,0.0,-1.9375,-3.492063492063492,-3.147741147741148,0.9462759462759462,0.0,0.84375,-1.9375,-2.8363858363858365,-2.52991452991453,2.1746031746031744,0.59375,1.21875,-1.96875,-2.1294261294261294,-2.145299145299145,2.126984126984127,1.03125,1.28125,-2.03125,-2.214896214896215,-2.8632478632478637,1.9426129426129424,1.125,0.78125,-2.21875,-3.652014652014652,-2.086691086691087,1.6691086691086692,0.90625,0.0,-2.28125,-5.368742368742368,-1.1196581196581197,1.192918192918193,1.0,0.59375,-2.1875,-4.492063492063492,-0.6703296703296703,1.881562881562881,1.1875,0.8125,-2.0625,-3.5445665445665444,0.0,2.1526251526251525,1.34375,0.5625,-1.96875,-1.896214896214896,0.0,2.2649572649572653,1.375,0.0,-2.0,-3.0207570207570207,0.0,0.7960927960927959,1.3125,0.0,-2.0,-4.039072039072039,0.0,0.0,1.21875,0.0,-1.9375,-3.6251526251526247,1.4664224664224663,0.5006105006105006,1.4375,0.0,-1.8125,-3.23931623931624,1.061050061050061,0.0,1.6875,0.0,-1.59375,-2.514041514041514,0.0,-0.8363858363858364,1.59375,0.0,-1.53125,-2.407814407814408,0.0,-1.010989010989011,1.375,0.0,-1.53125,-3.0,0.7765567765567766,-1.5873015873015872,1.5,0.0,-1.4375,-2.139194139194139,0.9633699633699634,-2.1343101343101343,1.5,0.0,-1.21875,-1.5067155067155067,0.5787545787545788,-2.155067155067155,1.375,0.0,-1.125,-1.7326007326007329,1.2503052503052503,-2.8107448107448105,1.3125,0.0,-1.09375,-2.064713064713065,1.968253968253968,-3.4249084249084247,1.375,0.0,-1.0,-1.761904761904762,1.843711843711844,-3.4945054945054945,1.3125,0.0,-0.84375,-1.474969474969475,1.871794871794872,-3.1660561660561664,1.125,0.0,-0.71875,-1.881562881562881,2.6617826617826617,-3.36996336996337,1.03125,0.0,-0.625,-1.4993894993894994,3.0146520146520146,-3.43956043956044,1.03125,0.0,0.0,-0.8498168498168498,2.593406593406593,-3.351648351648352,0.875,0.0,0.0,-0.7472527472527473,2.6764346764346763,-2.9853479853479854,0.65625,0.0,0.0,-1.021978021978022,3.087912087912088,-2.8998778998779,0.0,0.0,0.0,-0.8473748473748474,2.9951159951159956,-2.525030525030525,0.0,0.0,0.0,-0.894993894993895,2.47008547008547,-2.225885225885226,0.0,0.0,0.0,0.0,1.6349206349206349,-1.709401709401709,0.0,0.0,0.0,0.0,1.0818070818070815,-1.21001221001221,0.0,0.0,0.0,0.0,0.6874236874236874,-0.8901098901098901,0.0,0.0,0.0,0.0,0.6739926739926739,0.0,0.0,0.0,0.0,-0.6495726495726496,0.7887667887667887,0.0,0.0,0.0,0.0,0.0,0.5445665445665445,0.0,0.0,0.0,0.0,0.0,0.0,0.0,0.0,0.0,0.0,0.0,0.0,0.0,0.0,0.0,0.0,0.518925518925519,-0.8547008547008547,0.0,0.0,0.0,0.0,0.0,-0.6385836385836385,0.0,0.0,0.0,0.0,0.0,-0.5213675213675214,0.0,0.0,0.0,0.0,0.0,0.0,0.0,0.0,0.0,0.0,0.5201465201465202,-0.6141636141636142,0.0,0.0,0.0,0.0,0.0,0.0,0.0,0.0,0.0,0.0,0.0,0.0,0.0,0.0,0.0,0.0,0.0,0.0,0.0,0.0,0.0,0.0,0.0,0.0,0.0,0.0,0.0,0.0,0.0,0.0,0.0,0.0,0.0,0.0,0.0,0.0,0.0,0.0,0.0,0.0,0.0,0.0,0.0,0.0,0.0,0.0,0.0,0.0,0.0,0.0,0.0,0.0,0.0,0.0,0.0,0.0,0.0,0.0,0.0,0.0,0.0,0.0,0.0,0.0,0.0,0.0,0.0,0.0,0.0,0.0,0.0,0.0,0.0,0.0,0.0,0.0,0.0,0.0,0.0,0.0,0.0,0.0,0.0,0.7777777777777778,-0.5433455433455433,0.0,0.0,0.0,,,,,,,,,,,,,,,,,,,,,,,,,,,,,,,wp_nextR
accX,0.8083028083028083,0.0,0.0,0.0,0.0,0.0,0.0,0.0,0.0,0.0,-0.53125,0.0,1.4029304029304028,-1.326007326007326,-0.5006105006105006,0.0,0.0,0.0,2.313797313797314,-2.4444444444444446,-0.7118437118437119,0.0,0.0,0.0,2.293040293040293,-2.6105006105006106,-1.0842490842490842,0.0,0.0,0.0,2.0903540903540905,-3.4029304029304033,-1.2234432234432235,0.0,0.0,0.0,1.7741147741147743,-4.527472527472527,-0.9084249084249084,0.0,0.0,-0.75,1.474969474969475,-4.554334554334553,0.0,0.0,0.0,-1.125,1.557997557997558,-3.9975579975579976,0.5323565323565324,0.0,0.59375,-1.5,1.092796092796093,-4.205128205128204,0.7631257631257631,0.0,0.0,-1.5625,0.0,-4.063492063492063,1.0134310134310134,0.0,0.0,-1.75,-0.5824175824175825,-3.655677655677656,1.0122100122100122,0.0,0.0,-1.8125,0.0,-3.78998778998779,1.0048840048840049,0.0,0.625,-2.125,-1.6300366300366298,-3.8608058608058613,0.5445665445665445,0.0,0.8125,-2.40625,-2.3736263736263736,-3.225885225885226,0.0,0.0,0.9375,-2.4375,-3.5006105006105006,-2.6935286935286937,0.6874236874236874,0.0,0.96875,-2.4375,-3.8571428571428568,-2.5457875457875456,1.1062271062271063,0.625,1.03125,-2.4375,-3.8229548229548236,-1.5738705738705738,2.0097680097680097,0.9375,1.21875,-2.53125,-3.358974358974359,-1.5775335775335777,2.1782661782661785,1.1875,1.1875,-2.59375,-3.073260073260073,-1.0488400488400489,1.6593406593406594,1.1875,0.875,-2.65625,-4.8620268620268625,0.0,0.8205128205128205,0.90625,0.0,-2.5,-4.438339438339439,1.2148962148962148,0.9389499389499391,1.03125,0.0,-2.375,-4.431013431013431,1.3614163614163617,0.0,1.3125,0.625,-2.21875,-3.3284493284493286,0.5970695970695971,0.0,1.28125,0.0,-2.09375,-4.231990231990232,1.4774114774114775,0.0,1.15625,0.0,-2.0,-4.095238095238095,2.483516483516484,-0.7851037851037851,1.25,0.0,-1.78125,-3.888888888888889,2.8302808302808304,-1.884004884004884,1.46875,0.0,-1.5625,-3.326007326007326,2.5433455433455427,-2.686202686202686,1.53125,0.0,-1.25,-2.051282051282051,1.5152625152625152,-2.8962148962148966,1.21875,0.0,-1.09375,-2.5079365079365084,2.2551892551892547,-3.117216117216117,0.78125,0.0,-1.0625,-3.927960927960928,3.543345543345543,-3.1709401709401708,0.6875,0.0,-0.875,-2.5982905982905984,2.8913308913308917,-2.8632478632478637,1.03125,0.59375,-0.53125,-1.0854700854700854,1.6764346764346765,-2.669108669108669,0.78125,0.0,0.0,-1.2136752136752136,1.5921855921855919,-3.1575091575091574,0.0,0.0,0.0,-2.2735042735042734,2.3162393162393164,-3.0073260073260077,0.0,0.0,0.0,-2.0903540903540905,2.3028083028083026,-2.5677655677655684,0.0,0.0,0.0,-1.2417582417582418,1.8498168498168501,-2.0,0.0,0.0,0.0,-1.387057387057387,1.8632478632478635,-2.155067155067155,0.0,0.0,0.0,-1.7203907203907205,2.096459096459097,-1.9474969474969477,0.0,0.0,0.0,-1.85958485958486,2.0805860805860807,-1.3272283272283272,0.0,0.0,0.0,-1.2735042735042734,1.984126984126984,0.0,0.0,0.0,0.0,-0.9145299145299144,1.2637362637362637,0.0,0.0,0.0,0.0,0.0,0.5995115995115995,0.0,0.0,0.0,0.0,-0.5067155067155067,0.0,0.0,0.0,0.0,0.0,0.0,0.0,-0.6312576312576312,0.0,0.0,0.0,0.0,-0.6288156288156288,-0.5665445665445665,0.0,0.0,0.0,0.5531135531135531,0.0,0.0,0.0,0.0,0.0,0.0,0.0,-0.6825396825396826,0.0,0.0,0.0,0.0,0.0,-0.7814407814407814,0.0,0.0,0.0,0.0,0.0,-0.5787545787545788,0.0,0.0,0.0,0.0,0.0,0.0,0.0,0.0,0.0,0.0,0.0,0.0,0.0,0.0,0.0,0.0,0.0,0.0,0.0,0.0,0.0,0.0,0.0,0.0,0.0,0.0,0.0,0.0,0.0,0.0,0.0,0.0,0.0,0.0,0.0,0.0,0.0,0.0,0.0,0.0,0.0,0.0,0.0,0.0,0.0,0.0,0.0,0.0,0.0,0.0,0.0,0.0,0.0,0.0,0.0,0.0,0.0,0.0,0.0,0.0,0.0,0.0,0.0,0.0,0.0,0.0,0.0,0.0,0.0,0.0,0.0,0.0,0.0,0.0,0.0,0.0,0.0,-0.5738705738705738,0.0,0.0,0.0,0.0,0.0,-0.6092796092796092,0.0,0.0,0.0,0.0,0.0,-0.5946275946275946,0.0,0.0,0.0,0.0,0.5286935286935287,0.0,0.0,0.0,0.0,0.0,0.0,0.0,0.0,0.0,0.0,0.0,0.0,-0.5641025641025641,0.0,0.0,0.0,,,,,,,,,,,,,,,,,,,,,,,,,wp_nextR
accX,0.8937728937728938,0.5128205128205128,0.5824175824175825,0.0,0.0,0.0,0.0,0.0,0.5421245421245421,0.53125,-0.65625,0.0,0.9401709401709402,-1.967032967032967,-1.2295482295482296,0.0,0.0,0.0,2.0573870573870567,-3.351648351648352,-2.8192918192918195,0.0,0.71875,0.0,2.5995115995116,-4.431013431013431,-2.2503052503052503,0.0,1.03125,0.0,2.7423687423687424,-4.632478632478633,-1.094017094017094,0.0,1.15625,-0.53125,2.6373626373626373,-4.514041514041514,0.0,0.0,1.125,-0.96875,1.824175824175824,-4.142857142857143,0.9487179487179488,0.0,1.0,-1.28125,1.706959706959707,-3.483516483516484,2.0085470085470085,0.0,0.75,-1.46875,0.0,-4.21001221001221,1.967032967032967,0.75,0.0,-1.71875,-1.3540903540903542,-4.396825396825397,1.7301587301587302,0.96875,0.0,-2.0,-2.05006105006105,-4.037851037851038,1.7826617826617828,1.15625,0.625,-2.21875,-2.4822954822954824,-3.4322344322344316,1.8363858363858363,1.125,0.65625,-2.40625,-2.954822954822955,-2.6825396825396823,1.3968253968253967,0.9375,0.59375,-2.5,-3.604395604395605,-2.2698412698412698,0.9206349206349206,0.6875,0.0,-2.34375,-4.04029304029304,-1.4993894993894994,1.3553113553113554,0.75,0.0,-2.3125,-4.020757020757022,-1.332112332112332,1.9035409035409037,0.84375,0.75,-2.3125,-2.291819291819292,-0.7973137973137974,2.7448107448107453,0.96875,0.53125,-2.25,-2.667887667887668,-1.0976800976800978,2.4432234432234434,1.0625,0.0,-2.15625,-2.717948717948718,-1.0048840048840049,2.1636141636141635,1.15625,0.0,-2.15625,-2.9291819291819285,0.0,2.073260073260073,1.21875,0.0,-2.125,-3.1001221001221,0.6117216117216118,1.5494505494505495,1.40625,0.0,-1.9375,-2.9291819291819285,0.9328449328449328,0.0,1.53125,0.0,-1.75,-2.6715506715506714,0.8461538461538461,0.0,1.5,0.0,-1.6875,-2.934065934065934,1.0183150183150182,-1.5885225885225884,1.46875,0.0,-1.5625,-3.9169719169719173,2.881562881562881,-2.1562881562881557,1.46875,0.0,-1.4375,-3.4542124542124544,3.8034188034188032,-2.417582417582417,1.6875,0.0,-1.03125,-2.031746031746032,1.3772893772893773,-3.3431013431013437,1.625,0.0,-0.875,-1.586080586080586,1.0976800976800978,-3.9145299145299135,1.375,0.0,-0.8125,-1.028083028083028,1.6483516483516485,-3.6434676434676434,1.125,0.0,-0.8125,-1.358974358974359,2.3663003663003663,-3.855921855921856,1.09375,0.0,-0.75,-1.4908424908424909,2.351648351648352,-3.844932844932845,1.0,0.0,-0.59375,-0.663003663003663,2.2234432234432235,-3.4285714285714284,0.8125,0.0,0.0,-1.1196581196581197,2.9145299145299144,-3.551892551892552,0.6875,0.0,0.0,-1.247863247863248,3.2026862026862033,-3.5164835164835164,0.625,0.0,0.0,-0.7557997557997558,2.5921855921855923,-2.881562881562881,0.0,0.0,0.0,0.0,2.3162393162393164,-1.987789987789988,0.0,0.0,0.0,-0.9426129426129426,2.3272283272283274,-1.876678876678877,0.0,0.0,0.0,-1.1623931623931625,2.4786324786324787,-1.8070818070818069,0.0,0.0,0.0,-1.1184371184371185,2.249084249084249,-1.5787545787545787,0.0,0.0,0.0,0.0,1.1782661782661783,-1.0634920634920637,0.0,0.0,0.0,0.0,0.6739926739926739,0.0,0.0,0.0,0.0,0.0,0.7081807081807082,0.0,0.0,0.0,0.0,0.0,0.0,0.0,0.0,0.0,0.0,0.0,0.0,0.0,0.0,0.0,0.0,0.73992673992674,-0.7326007326007326,0.0,0.0,0.0,0.0,0.0,0.0,0.0,0.0,0.0,0.0,0.0,0.0,0.0,0.0,0.0,0.0,0.0,0.0,0.0,0.0,0.0,0.0,0.0,0.0,0.0,0.0,0.0,0.0,0.0,0.0,0.0,0.0,0.0,0.0,0.0,0.0,0.0,0.0,0.0,0.0,0.0,0.0,0.0,0.0,0.0,0.0,0.0,0.0,0.0,0.0,0.0,0.0,0.0,0.0,0.0,0.0,0.0,0.0,,,,,,,,,,,,,,,,,,,,,,,,,,,,,,,,,,,,,,,,,,,,,,,,,,,,,,,,,,,,,,,,,,,,,,,,,,,,,,,,,,,,,,,,,,,,,,,,,,,,,,,wp_nextR
accX,0.0,0.0,0.0,0.0,0.0,0.0,0.0,-0.663003663003663,0.0,0.0,0.0,0.0,0.6471306471306472,-0.7338217338217338,0.0,0.0,0.0,0.0,0.7838827838827839,-0.6007326007326007,-0.7472527472527473,0.0,0.0,0.0,0.5213675213675214,0.0,-0.5238095238095238,0.0,0.0,0.0,0.0,0.0,0.0,0.0,0.0,0.0,0.0,0.0,0.0,0.0,0.0,0.0,0.0,0.0,0.0,0.0,0.0,0.0,0.0,0.0,-0.5958485958485958,0.0,0.0,0.0,0.0,-0.5006105006105006,-0.8009768009768009,0.0,0.0,0.0,0.663003663003663,-0.7423687423687424,-0.6507936507936508,0.0,0.0,0.0,1.1684981684981686,-1.5616605616605617,-0.5299145299145299,0.0,0.0,0.0,0.8547008547008547,-1.9633699633699635,0.0,0.0,0.0,0.0,0.978021978021978,-2.7264957264957266,0.0,0.0,0.59375,0.0,1.896214896214896,-2.7399267399267404,0.5628815628815629,0.0,0.625,-0.75,2.4603174603174605,-3.715506715506716,0.6678876678876678,0.0,0.0,-1.0625,1.8669108669108667,-4.211233211233211,0.0,0.0,0.0,-1.3125,0.8266178266178266,-5.045177045177045,0.0,0.0,0.0,-1.6875,-1.3943833943833943,-4.91941391941392,0.0,0.0,0.84375,-1.875,-1.1514041514041513,-4.509157509157508,1.0390720390720392,0.0,1.125,-2.0,-1.4065934065934067,-3.294261294261294,1.4517704517704515,0.0,1.03125,-2.03125,-1.8302808302808304,-3.0268620268620268,1.68009768009768,0.0,0.84375,-1.90625,-1.761904761904762,-2.2612942612942613,2.0476190476190474,0.5625,0.71875,-1.96875,-2.800976800976801,-2.7826617826617825,2.514041514041514,0.78125,0.625,-1.96875,-1.465201465201465,-2.3369963369963367,3.5164835164835164,1.09375,0.84375,-2.0,-0.8693528693528694,-2.4664224664224665,3.5641025641025643,1.28125,0.59375,-2.15625,0.0,-2.709401709401709,2.6336996336996337,1.0625,0.0,-2.28125,-3.4407814407814414,-1.103785103785104,0.8937728937728938,0.78125,-0.65625,-2.4375,-4.677655677655678,0.7875457875457875,0.0,1.0,0.0,-2.40625,-3.9181929181929176,1.5091575091575091,0.0,1.46875,0.0,-2.28125,-2.8583638583638584,0.9914529914529916,-0.8351648351648352,1.625,0.0,-2.09375,-2.7350427350427347,0.0,-1.4041514041514038,1.25,0.0,-1.875,-2.5177045177045176,0.9474969474969476,-0.8107448107448108,0.78125,0.0,-1.9375,-4.3125763125763115,3.976800976800977,-1.927960927960928,0.9375,0.0,-2.0,-4.7326007326007336,4.87057387057387,-3.417582417582417,1.6875,0.0,-1.4375,-3.172161172161172,3.7216117216117217,-4.08058608058608,1.4375,0.0,-1.125,-2.333333333333333,2.7948717948717947,-3.910866910866911,0.875,0.0,-1.0,-2.937728937728938,3.664224664224663,-3.862026862026862,0.75,0.0,-0.90625,-2.4822954822954824,3.5982905982905984,-3.3943833943833943,0.78125,0.0,-0.8125,-1.247863247863248,2.3870573870573866,-2.9462759462759465,0.625,0.0,-0.78125,-1.2136752136752136,2.0244200244200243,-2.5531135531135534,0.0,0.0,-0.78125,-2.664224664224664,3.0940170940170937,-2.9072039072039066,0.0,0.0,-0.65625,-2.2612942612942613,2.9975579975579976,-2.449328449328449,0.0,0.0,-0.53125,-1.6422466422466422,2.6227106227106227,-1.8412698412698407,0.0,0.0,0.0,-1.5982905982905984,2.619047619047619,-1.2332112332112333,0.0,0.0,0.0,-1.47985347985348,2.2588522588522593,-1.2820512820512822,0.0,0.0,0.0,-1.020757020757021,1.7216117216117215,-1.3797313797313795,0.0,0.0,0.0,-0.5396825396825397,1.4017094017094016,-0.9474969474969476,0.0,0.0,0.0,0.0,0.7448107448107448,-0.6825396825396826,0.0,0.0,0.0,0.0,0.0,-0.8913308913308914,0.0,0.0,0.0,0.0,0.0,-1.0146520146520146,0.0,0.0,0.0,0.0,0.0,-0.6984126984126984,0.0,0.0,0.0,0.0,0.0,0.0,0.0,0.0,0.0,0.0,0.0,0.0,0.0,0.0,0.0,0.0,0.0,0.0,0.0,0.0,0.0,0.0,0.0,-0.5421245421245421,0.0,0.0,0.0,0.0,0.0,-0.6483516483516484,0.0,0.0,0.0,0.0,0.0,0.0,0.0,0.0,0.0,0.0,-0.5482295482295483,0.0,0.0,0.0,0.0,0.0,-0.5384615384615384,0.0,0.0,0.0,0.0,0.0,0.0,0.0,0.0,0.0,0.0,0.0,0.0,0.0,0.0,0.0,0.0,0.0,0.0,0.0,0.0,0.0,0.0,0.0,0.0,0.0,0.0,0.0,0.0,0.0,0.0,0.0,0.0,0.0,0.0,0.0,0.0,0.0,0.0,0.0,0.0,0.0,0.0,0.0,0.0,0.0,0.0,0.0,0.0,0.0,0.0,0.0,0.0,0.0,0.0,0.0,0.0,0.0,0.0,,,,,,,,,,,,,,,,,,,wp_nextR
accX,0.0,0.0,0.0,0.0,0.0,0.0,1.072039072039072,0.0,0.7460317460317459,0.0,0.0,0.0,0.7838827838827839,-0.6214896214896215,0.0,0.0,-0.625,0.0,0.7533577533577533,-1.0866910866910866,-0.7338217338217338,0.0,-0.625,0.0,0.9157509157509156,-1.2234432234432235,-0.9328449328449328,0.0,0.0,0.0,2.2735042735042734,-3.47985347985348,-0.6105006105006106,0.0,0.0,0.0,2.9816849816849818,-5.273504273504273,0.0,0.0,0.53125,0.0,2.092796092796093,-5.938949938949939,0.0,0.0,0.625,-0.8125,0.0,-5.887667887667887,0.0,0.0,0.96875,-1.28125,-0.8473748473748474,-5.450549450549451,1.4224664224664223,0.0,1.375,-1.46875,0.0,-4.627594627594628,3.043956043956044,0.0,1.625,-1.46875,0.5372405372405372,-4.014652014652015,3.144078144078144,0.5625,1.375,-1.53125,0.0,-4.327228327228327,1.7301587301587302,0.78125,0.78125,-1.6875,-1.84004884004884,-4.012210012210011,0.0,0.0,0.0,-2.03125,-2.9865689865689866,-1.7631257631257633,0.0,0.0,0.0,-2.1875,-2.750915750915751,-0.9096459096459096,0.9487179487179488,0.5625,0.78125,-2.125,-1.2173382173382172,-0.7948717948717948,1.293040293040293,0.875,0.0,-2.03125,-0.9706959706959708,-1.2283272283272284,0.5262515262515263,0.0,0.0,-2.0625,-3.245421245421245,0.0,0.0,0.0,-0.53125,-1.96875,-4.4371184371184365,1.0122100122100122,0.0,0.71875,0.0,-1.8125,-3.245421245421245,1.3089133089133091,0.9914529914529916,1.28125,0.0,-1.6875,-1.6251526251526252,0.0,0.0,1.3125,0.0,-1.625,-0.8461538461538461,-0.5042735042735043,0.0,0.84375,-0.53125,-1.6875,-2.4273504273504267,0.0,-0.851037851037851,0.0,-0.625,-1.75,-3.761904761904762,1.6495726495726497,-1.0012210012210012,0.84375,0.0,-1.6875,-3.115995115995116,2.021978021978022,-0.94993894993895,1.28125,0.0,-1.5625,-2.148962148962149,1.343101343101343,-0.8827838827838828,1.3125,0.0,-1.40625,-1.2002442002442002,0.0,-1.3724053724053724,1.03125,0.0,-1.3125,-1.5470085470085468,1.6153846153846154,-1.3052503052503053,0.75,0.0,-1.3125,-1.5946275946275947,2.418803418803418,-1.3931623931623929,1.03125,0.0,-1.3125,-1.9963369963369964,2.0659340659340657,-2.667887667887668,1.25,0.0,-1.21875,-2.0354090354090357,2.5396825396825395,-2.9963369963369964,1.15625,0.0,-1.03125,-1.7655677655677655,2.8021978021978016,-2.758241758241758,0.9375,0.0,-0.90625,-1.7362637362637363,3.3675213675213675,-2.8058608058608057,0.78125,0.0,-0.78125,-2.388278388278388,3.9047619047619047,-2.912087912087912,0.6875,0.0,-0.65625,-1.3650793650793651,3.748473748473749,-2.656898656898657,0.625,0.0,0.0,-0.9413919413919414,2.9365079365079363,-2.5396825396825395,0.0,0.0,0.0,0.0,2.33943833943834,-2.0781440781440783,0.0,0.0,0.0,-0.5238095238095238,2.2063492063492065,-1.6166056166056166,0.0,0.0,0.0,-1.1501831501831499,2.562881562881563,-1.2442002442002442,0.0,0.0,0.0,0.0,1.9719169719169718,-0.7338217338217338,0.0,0.0,0.0,0.0,1.0036630036630036,-0.6263736263736264,0.0,0.0,0.0,0.0,0.0,0.0,0.0,0.0,0.0,0.0,0.0,0.0,0.0,0.0,0.0,0.0,0.0,0.0,0.0,0.0,0.0,0.0,0.0,-0.5518925518925519,0.0,0.0,0.0,0.0,0.0,0.0,0.0,0.0,0.0,0.0,0.0,0.0,0.0,0.0,0.0,0.0,0.0,0.0,0.0,0.0,0.0,0.0,0.0,-0.503052503052503,0.0,0.0,0.0,0.0,0.0,0.0,0.0,0.0,0.0,0.0,0.0,0.0,0.0,0.0,0.0,0.0,0.0,0.0,0.0,0.0,0.0,0.0,0.0,0.0,0.0,0.0,0.0,0.0,0.0,0.0,0.0,0.0,0.0,0.0,0.0,0.0,0.0,0.0,0.0,0.0,0.0,0.0,0.0,0.0,0.0,0.0,0.0,0.0,0.0,0.0,0.0,0.0,0.0,0.0,0.0,0.0,0.0,0.0,0.0,-0.8253968253968254,0.0,0.0,0.0,,,,,,,,,,,,,,,,,,,,,,,,,,,,,,,,,,,,,,,,,,,,,,,,,,,,,,,,,,,,,,,,,,,,,,,,,wp_nextR
accX,2.7252747252747254,-2.094017094017094,-1.6092796092796091,0.0,-0.53125,0.0,2.881562881562881,-3.851037851037851,-1.3894993894993894,0.0,0.0,0.0,2.8937728937728937,-4.1843711843711855,-1.5543345543345544,0.0,0.0,-0.75,1.0634920634920637,-4.2295482295482305,-1.6642246642246643,0.0,0.0,-0.9375,0.0,-4.4896214896214905,-0.8058608058608059,0.0,0.71875,-0.9375,0.0,-4.3577533577533565,0.7936507936507936,0.0,1.375,-1.25,-1.021978021978022,-4.410256410256411,2.086691086691087,0.0,1.8125,-1.28125,0.0,-4.1098901098901095,3.667887667887668,0.8125,1.71875,-1.28125,0.0,-4.207570207570208,3.710622710622711,1.21875,1.09375,-1.5,-1.2222222222222223,-4.833943833943834,2.1538461538461537,1.25,0.53125,-1.8125,-2.449328449328449,-4.2295482295482305,1.1916971916971917,0.71875,0.0,-2.3125,-2.5506715506715505,-3.06959706959707,1.2832722832722834,0.0,0.0,-2.5,-2.868131868131868,-2.238095238095238,1.794871794871795,0.0,0.0,-2.5625,-3.283272283272283,-0.9059829059829059,2.023199023199023,0.625,0.0,-2.46875,-3.2954822954822958,-1.2148962148962148,1.2881562881562882,0.75,0.0,-2.34375,-4.0708180708180715,-0.6166056166056166,0.0,0.59375,0.0,-2.28125,-4.362637362637362,0.0,0.0,0.6875,0.0,-2.0625,-3.836385836385837,0.7936507936507936,0.5225885225885226,0.90625,0.0,-2.03125,-3.6129426129426134,1.709401709401709,0.0,1.15625,0.0,-1.90625,-3.7142857142857135,2.3003663003662997,-0.557997557997558,1.28125,0.0,-1.625,-2.57997557997558,1.6874236874236874,-1.15995115995116,1.03125,0.0,-1.40625,-3.3687423687423688,2.435897435897436,-1.3284493284493284,0.96875,0.0,-1.25,-2.412698412698413,1.962148962148962,-1.5262515262515262,1.125,0.0,-1.125,-2.0305250305250304,1.8583638583638584,-2.087912087912088,1.21875,0.0,-1.0,-2.6483516483516483,2.421245421245421,-2.645909645909646,1.15625,0.0,-0.90625,-1.3443223443223444,2.061050061050061,-2.3663003663003663,1.03125,0.0,-0.75,-1.4358974358974361,2.4053724053724053,-2.3626373626373627,0.875,0.0,-0.6875,-1.2356532356532357,2.426129426129426,-2.4688644688644694,0.90625,0.0,-0.59375,-1.0195360195360197,2.0488400488400487,-2.85958485958486,0.875,0.0,-0.5625,-1.5763125763125765,2.7362637362637363,-3.0463980463980462,0.6875,0.0,-0.59375,-1.6214896214896215,3.467643467643468,-2.9401709401709404,0.65625,0.0,0.0,-1.2893772893772897,3.2576312576312576,-2.9914529914529915,0.625,0.0,0.0,-0.9755799755799756,2.7594627594627594,-2.6092796092796093,0.0,0.0,0.0,-1.0146520146520146,2.6361416361416357,-2.139194139194139,0.0,0.0,0.0,-0.6764346764346765,2.1001221001221,-1.9242979242979243,0.0,0.0,0.0,0.0,1.2832722832722834,-1.463980463980464,0.0,0.0,0.0,0.0,0.9658119658119658,-0.7472527472527473,0.0,0.0,0.0,0.0,0.5934065934065934,-0.5494505494505495,0.0,0.0,0.0,0.0,0.0,-0.6166056166056166,0.0,0.0,0.0,0.0,0.0,-0.5079365079365079,0.0,0.0,0.0,0.5470085470085471,-0.5274725274725275,0.0,0.0,0.0,0.0,0.0,-0.6446886446886447,0.0,0.0,0.0,0.0,0.0,0.0,0.0,0.0,0.0,0.0,0.0,0.0,0.0,0.0,0.0,0.0,0.0,0.0,0.0,0.0,0.0,0.0,0.0,0.0,0.0,0.0,0.0,0.0,0.0,0.0,0.0,0.0,0.0,0.0,0.0,0.0,0.0,0.0,0.0,0.0,0.0,0.0,0.0,0.0,0.0,0.0,0.0,0.0,0.0,0.0,0.0,0.0,0.0,0.0,0.0,0.0,0.0,0.0,0.0,0.0,0.0,0.0,0.0,0.0,0.0,0.0,0.0,0.0,0.0,0.0,0.0,0.0,0.0,0.0,0.0,0.0,0.0,0.0,0.0,0.0,0.0,0.0,0.0,0.0,0.0,0.0,0.0,0.0,0.0,0.0,0.0,0.0,0.0,0.0,0.0,0.0,-0.5225885225885226,0.0,0.0,0.0,,,,,,,,,,,,,,,,,,,,,,,,,,,,,,,,,,,,,,,,,,,,,,,,,,,,,,,,,,,,,,,,,,,,,,,,,,,,,,,,,,,,,wp_nextR
accX,1.2588522588522588,-0.9706959706959708,0.5018315018315018,0.0,-0.71875,0.0,1.2185592185592184,-0.9706959706959708,0.0,0.0,-1.1875,0.0,0.5506715506715507,-0.9304029304029304,0.0,0.0,-1.15625,0.625,0.7179487179487181,-1.6642246642246643,-0.8217338217338217,0.0,-0.5625,0.0,1.4090354090354091,-2.3907203907203907,-1.2295482295482296,0.0,0.0,0.0,2.5225885225885225,-3.241758241758242,-1.537240537240537,0.0,0.65625,0.0,2.6910866910866917,-4.1440781440781445,-1.6752136752136753,0.0,0.75,-0.5625,2.326007326007326,-4.351648351648351,-1.4102564102564104,0.0,0.8125,-1.0625,0.8669108669108669,-3.935286935286935,-0.9975579975579976,0.0,0.78125,-1.375,0.0,-3.551892551892552,0.0,0.0,1.0,-1.5625,-0.7631257631257631,-3.2246642246642248,1.0073260073260073,0.0,1.34375,-1.625,0.0,-3.47985347985348,1.47985347985348,0.0,1.375,-1.71875,-1.2673992673992671,-3.811965811965812,1.0842490842490842,0.625,1.1875,-1.9375,-2.010989010989011,-3.532356532356532,0.9743589743589745,0.0,1.0,-2.21875,-2.8131868131868134,-2.9816849816849818,1.1452991452991452,0.0,0.96875,-2.3125,-3.467643467643468,-1.85958485958486,1.3711843711843712,0.59375,0.90625,-2.21875,-3.5103785103785103,-1.663003663003663,1.5018315018315018,0.75,0.71875,-2.0625,-3.5164835164835164,-1.896214896214896,1.363858363858364,0.59375,0.5625,-2.0,-3.312576312576313,-0.894993894993895,1.7594627594627594,0.5625,0.53125,-1.9375,-3.586080586080586,0.0,1.2271062271062272,0.75,0.5625,-1.875,-3.393162393162393,0.0,0.8754578754578755,0.9375,0.625,-1.6875,-3.710622710622711,0.0,0.5079365079365079,1.0625,0.6875,-1.5,-2.417582417582417,0.0,0.6825396825396826,0.875,0.5625,-1.5,-3.091575091575092,0.0,0.6031746031746031,0.71875,0.0,-1.46875,-3.0842490842490844,0.8803418803418803,1.1001221001221002,0.8125,0.0,-1.3125,-2.028083028083028,1.2026862026862026,1.881562881562881,1.40625,0.0,-1.28125,-2.9047619047619047,1.0293040293040292,0.0,1.84375,0.0,-1.3125,-2.0427350427350426,1.5286935286935286,-1.1733821733821734,1.90625,0.0,-1.21875,-2.5811965811965814,1.9804639804639803,-2.2283272283272284,1.875,0.0,-1.09375,-2.681318681318681,2.669108669108669,-2.973137973137973,1.8125,0.0,-0.96875,-1.8937728937728937,3.5738705738705736,-3.5445665445665444,1.8125,0.0,-0.8125,-1.934065934065934,3.9890109890109886,-4.672771672771673,1.71875,0.0,-0.65625,-1.881562881562881,4.148962148962149,-5.523809523809524,1.4375,0.0,0.0,-1.2368742368742371,3.622710622710623,-5.5555555555555545,1.03125,0.0,0.0,-0.525030525030525,3.311355311355311,-4.7326007326007336,0.65625,0.0,0.0,0.0,2.656898656898657,-3.7509157509157514,0.0,0.0,0.0,0.0,2.1111111111111107,-2.8754578754578755,0.0,0.0,0.0,-0.6324786324786325,2.5079365079365084,-2.2466422466422467,0.0,0.0,0.0,-0.7106227106227107,2.242979242979243,-1.6971916971916972,0.0,0.0,0.0,0.0,1.6275946275946276,-1.0122100122100122,0.0,0.0,0.0,0.0,0.9072039072039072,-0.6398046398046398,0.0,0.0,0.0,0.0,1.2368742368742371,-0.6483516483516484,0.0,0.0,0.0,-0.894993894993895,1.1843711843711844,-0.5982905982905983,0.0,0.0,0.0,-0.6935286935286935,0.9694749694749696,0.0,0.0,0.0,0.0,0.0,0.6007326007326007,0.0,0.0,0.0,0.0,0.0,0.0,0.0,0.0,0.0,0.0,0.0,0.0,-0.5335775335775336,0.0,0.0,0.0,0.0,0.0,0.0,0.0,0.0,0.0,0.0,0.0,0.0,0.0,0.0,0.0,0.0,0.0,0.0,0.0,0.0,0.0,0.0,-0.57997557997558,0.0,0.0,0.0,0.0,0.0,-0.5641025641025641,0.0,0.0,0.0,0.0,0.5543345543345544,-0.5665445665445665,0.0,0.0,0.0,0.0,0.0,0.0,0.0,0.0,0.0,0.0,0.0,0.0,0.0,0.0,0.0,0.0,0.0,0.0,0.0,0.0,0.0,0.0,0.0,0.0,0.0,0.0,0.0,0.0,0.0,0.0,0.0,0.0,0.0,0.0,0.0,0.0,0.0,0.0,0.0,0.0,0.0,0.0,0.0,0.0,0.0,0.0,0.0,0.0,0.0,0.0,0.0,0.0,0.0,0.0,0.0,0.0,0.0,0.0,0.0,0.0,0.0,0.0,0.0,0.0,0.0,0.0,0.0,0.0,0.0,0.0,0.0,0.0,-0.5604395604395604,0.0,0.0,0.0,0.0,0.6434676434676435,-1.010989010989011,0.0,0.0,0.0,-0.8681318681318682,1.7179487179487178,-1.8644688644688645,0.0,0.0,0.0,,,,,,,,,,,,,,,,,,,,,,,,,,,,,,,wp_nextR
accX,0.6190476190476191,0.0,0.0,0.0,0.0,0.0,0.8205128205128205,-0.5506715506715507,0.0,0.0,-0.53125,0.0,0.9365079365079364,-0.9474969474969476,-0.9633699633699634,0.0,0.0,0.0,1.8266178266178263,-1.9072039072039075,-1.0488400488400489,0.0,0.0,0.0,4.266178266178266,-2.9951159951159956,-1.0964590964590966,0.0,0.0,0.0,3.238095238095238,-2.9877899877899887,-1.1794871794871795,0.0,0.0,0.0,1.7252747252747254,-3.336996336996337,-1.5445665445665446,0.0,0.0,0.0,0.8095238095238095,-4.671550671550672,-1.6776556776556777,0.0,1.15625,-0.53125,0.5213675213675214,-5.611721611721611,-0.8815628815628815,0.0,1.75,-0.65625,0.0,-5.186813186813186,0.9731379731379732,0.0,1.875,-0.75,0.9328449328449328,-4.2844932844932835,3.4652014652014653,0.0,0.71875,-1.125,-1.7496947496947497,-3.782661782661783,2.6935286935286937,0.0,0.0,-1.3125,-3.4652014652014653,-3.855921855921856,2.0354090354090357,0.0,0.0,-1.46875,-3.4420024420024418,-2.120879120879121,2.0805860805860807,0.0,1.25,-1.75,-1.7753357753357752,-2.89010989010989,2.3919413919413923,0.0,1.125,-2.09375,-2.3369963369963367,-2.6544566544566544,2.485958485958486,0.0,0.0,-2.15625,-3.6349206349206344,-1.2820512820512822,2.6373626373626373,0.0,0.0,-2.21875,-4.0085470085470085,0.0,2.1416361416361416,0.75,0.0,-2.09375,-3.2026862026862033,0.0,0.6654456654456654,1.28125,0.0,-1.96875,-3.2039072039072036,0.0,-0.6996336996336996,1.09375,0.0,-1.96875,-3.8180708180708174,0.0,-0.8644688644688645,0.6875,0.0,-1.875,-4.12942612942613,1.133089133089133,0.0,0.65625,0.0,-1.6875,-3.4884004884004884,2.0061050061050056,0.0,1.1875,0.0,-1.53125,-2.2515262515262515,1.5848595848595848,0.0,1.40625,0.0,-1.4375,-2.0695970695970702,1.3247863247863247,0.0,1.28125,0.0,-1.40625,-2.52991452991453,1.7081807081807079,-1.4078144078144081,1.25,0.0,-1.3125,-2.9328449328449326,2.184371184371184,-1.9804639804639803,1.375,0.0,-1.25,-2.15995115995116,2.330891330891331,-2.195360195360196,1.4375,0.0,-1.125,-3.1587301587301586,4.108669108669108,-2.9084249084249083,1.5625,0.0,-0.90625,-3.766788766788767,4.981684981684982,-3.660561660561661,1.75,0.53125,-0.59375,-2.593406593406593,4.1611721611721615,-4.322344322344321,1.5625,0.53125,0.0,-0.9255189255189256,2.838827838827839,-4.4444444444444455,1.125,0.0,0.0,0.0,2.4713064713064714,-3.84981684981685,0.875,0.0,0.0,0.0,2.2002442002442004,-3.669108669108669,0.78125,0.0,0.0,-1.1111111111111112,2.8608058608058613,-3.6251526251526247,0.71875,0.0,0.0,-0.9438339438339438,2.42002442002442,-3.15018315018315,0.5625,0.0,0.0,0.0,1.6935286935286935,-2.0476190476190474,0.0,0.0,0.0,0.8327228327228328,0.9047619047619048,-1.2796092796092795,0.0,0.0,0.0,0.6471306471306472,0.6288156288156288,-0.8315018315018315,0.0,0.0,0.0,0.0,1.1135531135531136,-0.5042735042735043,0.0,0.0,0.0,0.0,1.4126984126984128,0.0,0.0,0.0,0.0,0.0,1.338217338217338,0.0,0.0,0.0,0.0,-0.503052503052503,1.2148962148962148,0.0,0.0,0.0,0.0,0.0,0.7387057387057387,0.0,0.0,0.0,0.0,0.0,0.0,0.0,0.0,0.0,0.0,0.0,0.0,0.0,0.0,0.0,0.0,0.0,0.0,-0.525030525030525,0.0,0.0,0.0,0.0,0.0,0.0,0.0,0.0,0.0,0.5775335775335775,-0.5323565323565324,0.0,0.0,0.0,0.0,0.0,-0.5396825396825397,0.0,0.0,0.0,0.0,0.0,-0.5457875457875457,0.0,0.0,0.0,0.0,0.0,-0.5909645909645911,0.0,0.0,0.0,0.0,0.0,0.0,0.0,0.0,0.0,0.0,0.0,0.0,0.0,0.0,0.0,0.0,0.0,0.0,0.0,0.0,0.0,0.0,0.0,0.0,0.0,0.0,0.0,0.0,0.0,0.0,0.0,0.0,0.0,0.0,0.0,0.0,0.0,0.0,0.0,0.0,0.0,0.0,0.0,0.0,0.0,0.0,0.0,0.0,-0.9987789987789988,0.0,0.0,0.0,,,,,,,,,,,,,,,,,,,,,,,,,,,,,,,,,,,,,,,,,,,,,,,,,,,,,,,,,,,,,,,,,,,,,,,,,wp_nextR
accX,1.2368742368742371,0.0,0.0,0.0,-0.71875,0.0,0.0,0.0,0.0,0.0,-0.78125,0.0,0.536019536019536,-1.462759462759463,-0.7387057387057387,0.0,0.0,0.0,1.1013431013431014,-2.0903540903540905,-1.1343101343101345,0.0,0.0,0.0,1.5042735042735045,-2.85958485958486,-1.514041514041514,0.0,0.0,0.0,1.894993894993895,-3.9609279609279615,-1.6886446886446886,0.0,0.0,0.0,2.117216117216117,-5.172161172161172,-1.4102564102564104,0.0,0.0,0.0,0.7460317460317459,-5.032967032967034,-0.9072039072039072,-0.65625,0.0,-0.78125,-1.0158730158730158,-3.611721611721612,0.0,-0.53125,0.0,-0.90625,-1.3833943833943834,-3.4603174603174605,1.0244200244200243,0.0,1.25,-1.0,0.0,-4.717948717948718,1.8864468864468864,0.53125,1.53125,-1.03125,0.0,-5.8901098901098905,2.0818070818070815,0.5625,1.28125,-1.40625,-0.7448107448107448,-5.4884004884004876,2.015873015873016,0.0,1.0625,-1.84375,-1.5897435897435896,-4.023199023199023,2.034188034188034,0.0,0.75,-2.21875,-2.313797313797314,-2.010989010989011,1.5811965811965811,0.0,0.625,-2.25,-2.4566544566544573,-1.4102564102564104,1.1404151404151404,0.625,0.0,-2.15625,-3.1770451770451764,-1.608058608058608,0.0,0.0,0.0,-2.1875,-3.1294261294261294,-1.382173382173382,0.6654456654456654,0.0,0.0,-2.25,-2.9914529914529915,0.0,1.9133089133089132,0.0,0.0,-2.1875,-2.642246642246642,0.0,2.681318681318681,0.59375,0.0,-2.15625,-3.2857142857142856,0.7313797313797313,2.211233211233212,0.9375,0.0,-2.03125,-3.485958485958486,0.9755799755799756,1.1416361416361416,1.03125,0.0,-1.90625,-4.177045177045176,1.0805860805860803,0.0,0.84375,0.0,-1.8125,-3.641025641025641,2.1343101343101343,0.0,0.90625,0.0,-1.625,-3.655677655677656,3.031746031746032,0.0,1.34375,0.0,-1.34375,-3.358974358974359,3.1135531135531136,-1.5286935286935286,1.53125,0.0,-1.15625,-2.148962148962149,2.2063492063492065,-2.039072039072039,1.4375,0.0,-1.0,-2.063492063492064,2.3626373626373627,-2.606837606837607,1.15625,0.0,-0.90625,-2.2698412698412698,2.4236874236874235,-3.263736263736264,1.125,0.0,-0.78125,-1.9963369963369964,2.1343101343101343,-3.346764346764347,1.0625,0.0,-0.65625,-1.2686202686202686,2.0769230769230766,-2.9401709401709404,0.9375,0.0,-0.65625,-1.3003663003663004,2.23931623931624,-3.1355311355311355,0.84375,0.0,-0.5625,-0.8901098901098901,2.1001221001221,-2.627594627594628,0.78125,0.0,0.0,0.0,1.684981684981685,-1.7496947496947497,0.71875,0.0,0.0,0.0,1.8253968253968251,-1.3443223443223444,0.71875,0.0,-0.53125,-0.7692307692307693,2.58974358974359,-1.5079365079365081,0.84375,0.0,-0.53125,-0.8021978021978022,2.484737484737485,-1.78021978021978,0.65625,0.0,0.0,-0.7106227106227107,2.485958485958486,-1.7692307692307692,0.0,0.0,0.0,0.0,2.5970695970695967,-1.1892551892551892,0.0,0.0,0.0,0.0,1.8083028083028083,-1.1868131868131868,0.53125,0.0,0.0,0.0,1.3284493284493284,-1.382173382173382,0.0,0.0,0.0,0.0,1.2637362637362637,-1.5677655677655675,0.0,0.0,0.0,-0.5201465201465202,1.2515262515262515,-1.2942612942612943,0.0,0.0,0.0,0.0,1.2417582417582418,-1.137973137973138,0.0,0.0,0.0,0.0,0.6434676434676435,-0.894993894993895,0.0,0.0,0.0,0.0,0.0,-0.8522588522588522,0.0,0.0,0.0,0.0,0.0,-0.6336996336996337,0.0,0.0,0.0,0.0,0.0,0.0,0.0,0.0,0.0,0.5543345543345544,-0.6568986568986569,0.0,0.0,0.0,0.0,0.0,-0.7948717948717948,0.0,0.0,0.0,0.0,0.0,-0.73992673992674,0.0,0.0,0.0,0.0,0.0,0.0,0.0,0.0,0.0,0.0,0.0,0.0,0.0,0.0,0.0,0.0,0.0,0.0,0.0,0.0,0.0,0.0,0.0,0.0,0.0,0.0,0.0,0.0,0.0,0.0,0.0,0.0,0.0,0.0,0.0,0.0,0.0,0.0,0.0,0.0,0.0,0.0,0.0,0.0,0.0,0.0,0.0,0.0,0.0,0.0,0.0,0.0,0.0,0.0,0.0,0.0,0.0,0.0,,,,,,,,,,,,,,,,,,,,,,,,,,,,,,,,,,,,,,,,,,,,,,,,,,,,,,,,,,,,,,,,,,,,,,,,,wp_nextR
accX,0.0,0.0,0.0,0.0,0.0,0.0,0.5409035409035409,0.0,0.5323565323565324,0.0,0.0,0.0,0.0,-0.9328449328449328,0.0,0.0,0.0,0.0,0.6434676434676435,-1.5177045177045176,-0.7142857142857143,0.0,0.0,0.0,0.8669108669108669,-1.4908424908424909,-1.0366300366300367,0.0,0.0,0.0,0.9755799755799756,-1.809523809523809,-1.2735042735042734,0.0,0.0,0.0,1.9059829059829057,-2.7557997557997562,-1.4053724053724053,0.0,0.0,0.0,1.9706959706959708,-4.174603174603175,-1.5396825396825398,0.0,0.0,0.0,1.3601953601953602,-4.53968253968254,-1.0402930402930404,0.0,0.0,-0.78125,0.5714285714285714,-4.691086691086691,0.0,0.0,0.625,-1.03125,0.0,-3.6666666666666665,0.7460317460317459,0.0,0.5625,-0.96875,-0.6178266178266179,-3.1562881562881566,1.352869352869353,0.0,0.53125,-0.9375,-2.3076923076923075,-3.527472527472528,0.8266178266178266,0.0,0.90625,-0.84375,-2.7387057387057387,-4.3760683760683765,1.0134310134310134,0.0,1.3125,-0.8125,-2.012210012210012,-4.548229548229548,1.7765567765567765,0.0,1.5,-1.0,-1.5421245421245422,-4.119658119658118,2.555555555555556,0.0,0.875,-1.5625,-2.227106227106227,-3.0109890109890114,2.3626373626373627,0.0,0.53125,-1.84375,-3.813186813186813,-1.6068376068376071,1.7496947496947497,0.0,0.0,-1.84375,-3.9902319902319903,0.0,1.794871794871795,0.6875,0.0,-1.75,-3.5982905982905984,0.0,1.6117216117216118,0.8125,0.0,-1.625,-3.6910866910866913,1.1343101343101345,1.4713064713064714,0.75,0.0,-1.59375,-4.102564102564102,1.4334554334554337,1.1746031746031746,0.9375,0.0,-1.5,-3.7863247863247858,1.623931623931624,0.0,1.125,0.0,-1.46875,-3.9975579975579976,2.532356532356532,0.0,1.25,0.0,-1.375,-4.634920634920634,3.5885225885225887,0.0,1.46875,0.0,-1.1875,-3.84981684981685,2.4725274725274726,-0.8522588522588522,1.8125,0.0,-0.8125,-2.2002442002442004,1.6385836385836383,-1.3748473748473748,1.84375,0.0,-0.6875,-2.235653235653236,2.245421245421245,-2.389499389499389,1.875,0.0,-0.625,-2.145299145299145,2.6324786324786325,-3.2124542124542126,1.8125,0.0,-0.5625,-1.1489621489621489,2.913308913308913,-3.389499389499389,1.65625,0.0,-0.59375,-1.531135531135531,3.925518925518925,-4.131868131868131,1.59375,0.0,-0.53125,-2.1709401709401708,4.459096459096459,-5.349206349206349,1.46875,0.0,0.0,-1.5995115995115996,3.783882783882784,-5.401709401709403,1.03125,0.0,0.0,-0.557997557997558,2.8986568986568986,-4.637362637362638,0.625,0.0,0.0,0.0,2.8644688644688645,-3.2466422466422467,0.0,0.0,0.0,-1.4334554334554337,3.766788766788767,-2.8986568986568986,0.0,0.0,0.0,-0.9743589743589745,3.415140415140415,-2.1672771672771667,0.0,0.0,0.0,-0.7496947496947497,2.7643467643467643,-1.1782661782661783,0.0,0.0,0.0,0.0,2.045177045177045,0.0,0.0,0.0,0.0,0.0,1.1904761904761905,-0.5054945054945055,0.0,0.0,0.0,0.0,0.6483516483516484,0.0,0.0,0.0,0.0,0.0,0.0,-0.5286935286935287,0.0,0.0,0.0,0.0,0.0,-0.57997557997558,0.0,0.0,0.0,0.0,0.0,0.0,0.0,0.0,0.0,0.0,0.0,0.0,0.0,0.0,0.0,0.0,0.0,0.0,0.0,0.0,0.0,0.0,-0.5177045177045178,0.0,0.0,0.0,0.0,0.0,0.0,0.0,0.0,0.0,0.0,0.0,0.0,0.0,0.0,0.0,0.0,0.0,0.0,0.0,0.0,0.0,0.0,0.0,0.0,0.0,0.0,0.0,0.0,0.0,0.0,0.0,0.0,0.0,0.0,0.0,0.0,0.0,0.0,0.0,0.0,0.0,0.0,0.0,0.0,0.0,0.0,0.0,0.0,0.0,0.0,0.0,0.0,0.0,0.0,0.0,0.0,0.0,0.0,0.0,0.0,0.0,0.0,0.0,0.0,0.0,0.0,0.0,0.0,0.0,0.0,0.0,0.0,0.0,0.0,0.0,0.0,0.0,0.0,0.0,0.0,0.0,0.0,,,,,,,,,,,,,,,,,,,,,,,,,,,,,,,,,,,,,,,,,,,,,,,,,,,,,,,,,,,,,,,,,,,,,,,,,wp_nextR
accX,0.5347985347985348,-0.5567765567765568,0.0,0.0,0.0,0.0,1.2673992673992671,0.0,0.0,0.0,0.0,0.0,2.7606837606837606,-1.5885225885225884,-0.6703296703296703,0.0,0.0,0.0,3.0158730158730163,-5.006105006105006,-2.912087912087912,0.0,0.0,0.0,1.474969474969475,-6.009768009768009,-1.5238095238095235,0.0,1.375,-1.15625,1.4407814407814408,-6.041514041514041,0.0,0.0,1.78125,-1.3125,0.5018315018315018,-5.400488400488402,1.4957264957264955,0.0,1.65625,-1.40625,0.0,-4.758241758241757,2.217338217338217,0.0,1.375,-1.25,-2.2649572649572653,-3.78998778998779,2.15018315018315,0.0,1.15625,-1.0,-1.4920634920634919,-3.561660561660561,2.7301587301587302,0.875,1.1875,-0.8125,0.0,-3.748473748473749,2.3553113553113554,1.1875,1.03125,-1.25,0.0,-4.264957264957265,1.1819291819291822,0.96875,0.0,-1.6875,-2.683760683760684,-4.113553113553113,0.0,0.0,0.0,-2.25,-5.123321123321123,-1.2783882783882785,0.0,0.0,0.0,-2.5,-4.9010989010989015,0.0,1.2637362637362637,0.0,0.59375,-2.28125,-3.4786324786324787,0.0,1.387057387057387,0.9375,0.5625,-2.03125,-3.1794871794871797,0.0,0.8327228327228328,1.09375,0.0,-1.84375,-3.3064713064713063,0.0,0.0,0.875,0.0,-1.96875,-4.791208791208791,1.465201465201465,-1.1868131868131868,0.71875,0.0,-1.875,-4.1550671550671545,2.1575091575091574,-0.6593406593406593,0.90625,0.0,-1.59375,-3.764346764346764,1.7643467643467643,0.0,1.0,0.0,-1.5,-2.641025641025641,1.4896214896214897,0.0,1.125,0.0,-1.375,-2.688644688644689,1.0854700854700854,-1.2136752136752136,1.125,0.0,-1.3125,-2.9255189255189253,1.2612942612942613,-1.5628815628815629,1.03125,0.0,-1.28125,-2.7948717948717947,2.166056166056166,-1.2722832722832722,1.0,0.0,-1.21875,-3.15018315018315,3.2466422466422467,-1.5067155067155067,1.15625,0.0,-0.90625,-2.5775335775335777,2.4993894993894994,-2.5433455433455427,1.125,0.0,-0.625,-1.8913308913308915,1.7301587301587302,-3.1526251526251525,0.71875,0.0,-0.59375,-2.3638583638583643,3.0769230769230766,-2.8192918192918195,0.75,0.0,-0.625,-1.4383394383394383,2.8913308913308917,-2.371184371184371,0.875,0.0,0.0,-0.9865689865689866,2.5970695970695967,-1.9242979242979243,0.71875,0.0,0.0,-1.3601953601953602,3.175824175824176,-1.7631257631257633,0.625,0.0,0.0,-1.2014652014652014,3.155067155067155,-1.8485958485958487,0.71875,0.0,0.0,-0.8253968253968254,2.4517704517704515,-1.5909645909645909,0.625,0.0,0.0,0.0,1.9010989010989008,-1.1489621489621489,0.0,0.0,0.0,0.0,1.531135531135531,-0.9010989010989012,0.0,0.0,0.0,0.0,0.9487179487179488,-1.249084249084249,0.0,0.0,0.0,0.0,0.0,-1.0366300366300367,0.0,0.0,0.0,0.0,0.0,-0.6434676434676435,0.0,0.0,0.0,0.0,0.663003663003663,-0.5531135531135531,0.0,0.0,0.0,0.0,0.5006105006105006,-0.7118437118437119,0.0,0.0,0.0,0.0,0.0,-0.8388278388278388,0.0,0.0,0.0,0.0,0.0,-0.9682539682539684,0.0,0.0,0.0,0.0,0.0,-0.934065934065934,0.0,0.0,0.0,0.0,0.0,-0.5006105006105006,0.0,0.0,0.0,0.0,0.0,0.0,0.0,0.0,0.0,0.0,0.0,0.0,0.0,0.0,0.0,0.0,0.0,0.0,0.0,0.0,0.0,0.0,0.0,0.0,0.0,0.0,0.0,0.0,0.0,0.0,0.0,0.0,0.0,0.0,0.0,0.0,0.0,0.0,0.0,0.0,0.0,0.0,0.0,0.0,0.0,0.0,-0.5286935286935287,0.0,0.0,0.0,0.0,0.0,0.0,0.0,0.0,0.0,0.0,0.0,0.0,0.0,0.0,0.0,0.0,0.0,0.0,0.0,0.0,0.0,0.0,0.0,0.0,0.0,0.0,0.0,0.0,0.0,0.0,0.0,0.0,0.0,0.0,0.0,0.0,0.0,0.0,0.0,0.0,0.0,0.0,0.0,0.0,0.0,0.0,0.0,0.0,0.0,0.0,0.0,0.0,0.0,0.0,-0.6361416361416361,0.0,0.0,0.0,0.0,0.5164835164835165,-1.0854700854700854,0.0,0.0,0.0,-0.5042735042735043,0.9633699633699634,-1.5946275946275947,0.0,0.0,0.0,,,,,,,,,,,,,,,,,,,,,,,,,,,,,,,,,,,,,,,,,,,,,,,,,wp_nextR
accX,1.6349206349206349,0.0,0.0,0.0,0.0,0.0,3.087912087912088,-2.0891330891330893,-0.5494505494505495,0.0,-0.625,0.0,2.655677655677656,-3.5946275946275947,-1.804639804639805,0.0,0.0,0.0,1.9242979242979243,-4.57020757020757,-2.6935286935286937,0.0,0.0,-0.5625,1.2747252747252746,-5.3003663003663,-2.5396825396825395,0.0,1.09375,-1.09375,0.8901098901098901,-5.157509157509158,-0.7277167277167277,0.0,1.5,-1.375,0.8376068376068376,-5.2295482295482305,0.9328449328449328,0.0,1.53125,-1.5,0.0,-5.4212454212454215,1.1391941391941391,0.0,1.28125,-1.65625,-0.9865689865689866,-4.978021978021979,0.9902319902319904,0.0,0.84375,-1.75,-2.496947496947497,-3.5921855921855923,1.6971916971916972,0.0,0.65625,-1.53125,-2.84004884004884,-2.498168498168498,2.268620268620269,0.53125,0.5625,-1.34375,-3.1868131868131866,-3.6507936507936503,1.4212454212454213,0.875,0.65625,-1.5,-3.5738705738705736,-4.4896214896214905,0.7728937728937729,0.65625,0.75,-1.5625,-3.025641025641025,-3.782661782661783,1.7765567765567765,0.0,0.59375,-1.90625,-2.935286935286935,-2.2210012210012207,1.724053724053724,0.53125,0.5625,-2.09375,-2.8608058608058613,-0.57997557997558,1.4395604395604396,0.0,0.0,-2.1875,-4.079365079365079,0.6520146520146519,1.1868131868131868,0.0,0.0,-2.0,-5.058608058608058,1.809523809523809,0.6568986568986569,0.5625,0.0,-1.8125,-4.706959706959707,2.15995115995116,0.0,0.9375,0.0,-1.6875,-3.705738705738706,2.238095238095238,0.0,1.125,0.0,-1.46875,-2.4713064713064714,1.876678876678877,0.0,1.125,0.0,-1.25,-2.7667887667887667,2.087912087912088,-0.6019536019536019,0.96875,0.0,-1.21875,-2.937728937728938,2.1782661782661785,-0.7912087912087912,0.96875,0.0,-1.1875,-2.7448107448107453,2.293040293040293,-1.0195360195360197,1.1875,0.0,-1.0625,-1.8119658119658117,2.2051282051282053,-1.2246642246642248,1.3125,0.0,-0.90625,-1.8864468864468864,2.0818070818070815,-1.8021978021978025,1.28125,0.0,-0.78125,-2.3211233211233213,2.578754578754579,-2.4896214896214897,1.34375,0.0,-0.6875,-1.8925518925518925,2.7777777777777777,-2.6446886446886446,1.34375,0.0,-0.5625,-1.4529914529914532,2.8241758241758244,-2.6788766788766787,1.25,0.0,-0.53125,-1.120879120879121,2.937728937728938,-2.9987789987789983,1.09375,0.0,0.0,-1.557997557997558,3.4896214896214897,-3.5470085470085464,1.0,0.0,0.0,-1.0085470085470083,2.772893772893773,-3.5409035409035408,0.75,0.0,0.0,0.0,2.028083028083028,-2.8827838827838828,0.0,0.0,0.0,0.0,1.4114774114774116,-2.053724053724053,0.0,0.0,0.0,0.0,1.5299145299145298,-1.3418803418803418,0.0,0.0,0.0,0.0,1.4896214896214897,-0.912087912087912,0.53125,0.0,0.0,0.0,1.4261294261294262,-0.94993894993895,0.0,0.0,0.0,-0.5604395604395604,1.1843711843711844,-0.8791208791208791,0.0,0.0,0.0,0.0,1.0415140415140416,-0.6324786324786325,0.0,0.0,0.0,-0.5518925518925519,0.8852258852258852,-0.6556776556776557,0.0,0.0,0.0,0.0,0.0,-0.7851037851037851,0.0,0.0,0.0,0.0,0.0,-0.8644688644688645,0.0,0.0,0.0,0.0,0.0,-0.6691086691086691,0.0,0.0,0.0,0.0,0.0,0.0,0.0,0.0,0.0,0.0,0.0,0.0,0.0,0.0,0.0,0.0,0.0,0.0,0.0,0.0,0.0,0.0,0.0,0.0,0.0,0.0,0.0,0.0,0.0,0.0,0.0,0.0,0.0,0.0,0.0,0.0,0.0,0.0,0.0,0.0,0.0,0.0,0.0,0.0,0.0,0.0,0.0,0.0,0.0,0.0,0.0,0.0,0.0,0.0,0.0,0.0,0.0,0.0,0.0,0.0,0.0,0.0,0.0,0.0,0.0,0.0,0.0,0.0,0.0,0.0,0.0,0.0,0.0,0.0,0.0,0.0,0.0,0.0,0.0,0.0,0.0,0.0,0.0,0.0,0.0,0.0,0.0,0.0,0.0,0.0,0.0,0.0,0.0,0.0,0.0,0.0,0.0,0.0,0.0,0.0,0.0,0.0,0.0,0.0,0.0,0.0,0.0,0.0,0.0,0.0,0.0,0.0,0.0,-0.6092796092796092,0.0,0.0,0.0,0.0,0.0,-0.7142857142857143,0.0,0.0,0.0,,,,,,,,,,,,,,,,,,,,,,,,,,,,,,,,,,,,,,,,,,,,,,,,,,,,,,,wp_nextR
accX,1.868131868131868,-2.562881562881563,0.0,0.0,0.0,0.0,1.8339438339438336,-3.52991452991453,-1.092796092796093,0.0,0.0,0.0,2.0146520146520146,-4.738705738705738,-1.8351648351648349,0.0,0.0,-0.53125,2.5164835164835164,-5.117216117216118,-1.2136752136752136,0.0,0.53125,-0.84375,2.1611721611721606,-5.05006105006105,0.0,0.0,0.53125,-0.90625,1.1074481074481075,-4.778998778998779,0.5213675213675214,0.0,0.0,-1.1875,-0.9267399267399268,-3.3675213675213675,0.6385836385836385,0.0,0.0,-1.125,-1.0402930402930404,-3.608058608058608,0.9401709401709402,0.0,0.78125,-1.0,-0.6117216117216118,-4.039072039072039,0.8693528693528694,0.8125,1.03125,-1.125,0.0,-4.515262515262514,1.2039072039072038,0.875,1.0,-1.46875,0.0,-4.267399267399267,1.6288156288156288,0.875,0.59375,-1.71875,0.0,-4.0647130647130645,1.8485958485958487,0.8125,0.0,-2.21875,-1.4664224664224663,-3.087912087912088,1.065934065934066,0.625,0.0,-2.46875,-3.673992673992674,-1.94017094017094,0.0,0.5625,0.0,-2.53125,-3.924297924297924,-1.010989010989011,0.0,0.71875,0.0,-2.40625,-4.242979242979243,0.0,-0.7484737484737485,0.71875,0.0,-2.34375,-3.9291819291819285,0.0,-0.6935286935286935,0.75,0.0,-2.28125,-3.1819291819291817,0.0,-0.8192918192918193,0.0,0.0,-2.21875,-3.282051282051282,0.0,-0.5677655677655677,0.0,0.0,-2.125,-4.457875457875458,1.4114774114774116,0.0,0.0,0.0,-2.0625,-4.245421245421245,2.343101343101343,0.0,0.71875,0.625,-1.9375,-3.417582417582417,2.195360195360196,-0.6373626373626373,0.84375,0.0,-1.75,-3.446886446886447,1.987789987789988,-1.043956043956044,0.65625,0.0,-1.59375,-3.413919413919414,1.4517704517704515,-1.2417582417582418,0.0,0.0,-1.4375,-3.9072039072039066,3.3492063492063493,0.0,0.0,0.0,-1.34375,-3.0146520146520146,2.4468864468864466,-0.9316239316239316,0.75,0.0,-1.1875,-2.514041514041514,2.1245421245421245,-1.4908424908424909,0.71875,0.0,-1.03125,-3.101343101343101,2.8925518925518925,-1.7326007326007329,0.625,0.0,-0.9375,-1.945054945054945,2.7081807081807083,-1.3577533577533578,0.78125,0.0,-0.78125,-1.5518925518925517,2.4945054945054945,-1.619047619047619,0.9375,0.0,-0.65625,-1.3028083028083028,2.352869352869353,-1.94993894993895,1.0625,0.0,-0.53125,-0.6507936507936508,1.8522588522588523,-1.9719169719169718,0.96875,0.0,0.0,-0.8107448107448108,2.1880341880341883,-1.9206349206349207,0.71875,0.0,0.0,-1.194139194139194,2.727716727716728,-1.9291819291819288,0.65625,0.0,0.0,-0.5482295482295483,2.47985347985348,-1.5677655677655675,0.5625,0.0,0.0,0.0,2.0415140415140414,-1.0012210012210012,0.0,0.0,0.0,0.0,1.2698412698412698,-0.6715506715506715,0.0,0.0,0.0,0.0,0.0,-0.7167277167277167,0.0,0.0,0.0,0.0,0.0,-0.536019536019536,0.0,0.0,0.0,-0.8217338217338217,0.8595848595848596,-0.6336996336996337,0.0,0.0,0.0,-0.94993894993895,0.9462759462759462,-0.6336996336996337,0.0,0.0,0.0,-0.8986568986568987,0.6959706959706959,-0.7985347985347986,0.0,0.0,0.0,-0.6898656898656899,0.0,-0.5995115995115995,0.0,0.0,0.0,-0.6837606837606838,0.0,-0.6532356532356532,0.0,0.0,0.0,0.0,0.0,-0.5006105006105006,0.0,0.0,0.0,0.0,0.0,0.0,0.0,0.0,0.0,0.0,0.0,0.0,0.0,0.0,0.0,0.6056166056166056,-0.8693528693528694,0.0,0.0,0.0,0.0,0.5201465201465202,-0.6691086691086691,0.0,0.0,0.0,0.0,0.0,0.0,0.0,0.0,0.0,0.0,0.0,0.0,0.0,0.0,0.0,0.0,0.0,0.0,0.0,0.0,0.0,0.0,0.0,0.0,0.0,0.0,0.0,0.0,0.0,0.0,0.0,0.0,0.0,0.0,0.0,0.0,0.0,0.0,0.0,0.0,0.0,0.0,0.0,0.0,0.0,0.0,0.0,0.0,0.0,0.0,0.0,0.0,0.0,0.0,0.0,0.0,0.0,0.0,0.0,0.0,-0.5543345543345544,0.0,0.0,0.0,0.0,0.0,-1.15995115995116,0.0,0.0,0.0,,,,,,,,,,,,,,,,,,,,,,,,,,,,,,,,,,,,,,,,,,,,,,,,,,,,,,,,,,,,,,,,,,,,,,,,,wp_nextR
accX,0.0,-0.5665445665445665,0.0,0.0,-0.5625,0.0,0.0,0.0,-0.8583638583638583,0.0,-0.5625,0.0,0.0,0.0,-0.9450549450549449,0.0,0.0,0.0,0.0,0.0,-0.5543345543345544,0.0,0.0,0.0,0.7619047619047619,-0.5982905982905983,-0.5921855921855922,0.0,0.0,0.0,1.8119658119658117,-1.8827838827838828,-0.956043956043956,0.0,0.0,0.0,2.7252747252747254,-2.573870573870574,-0.8620268620268621,0.0,0.0,0.0,2.653235653235653,-2.9706959706959712,-0.6312576312576312,0.0,0.0,0.0,2.5677655677655684,-3.2014652014652016,0.0,0.0,0.0,0.0,1.9242979242979243,-3.7118437118437115,0.0,0.0,0.0,-0.71875,0.6422466422466423,-3.9511599511599513,0.0,0.0,0.625,-0.75,0.0,-4.407814407814408,0.0,0.0,1.125,-0.90625,0.0,-3.9059829059829063,1.4529914529914532,0.78125,1.53125,-1.09375,1.0048840048840049,-4.3137973137973145,1.8473748473748477,1.03125,1.34375,-1.4375,0.7802197802197802,-5.7655677655677655,1.0586080586080586,0.71875,0.75,-1.75,0.5482295482295483,-6.135531135531137,0.0,0.0,0.0,-2.1875,-1.73992673992674,-3.927960927960928,0.6581196581196581,0.0,0.0,-2.40625,-3.289377289377289,-1.21001221001221,1.1428571428571428,0.0,0.0,-2.375,-3.0085470085470085,0.0,1.1465201465201464,0.8125,0.0,-2.21875,-3.888888888888889,-0.8192918192918193,-0.8681318681318682,0.5625,0.0,-2.09375,-3.9059829059829063,0.0,0.0,0.0,0.0,-2.0,-3.3003663003662997,0.0,0.7741147741147741,0.0,0.0,-2.03125,-3.404151404151404,0.6373626373626373,0.5347985347985348,0.0,0.0,-1.96875,-3.4432234432234434,0.7338217338217338,0.0,0.53125,0.0,-1.84375,-2.9902319902319903,0.9706959706959708,0.5970695970695971,0.0,0.0,-1.75,-3.2612942612942613,2.1978021978021984,0.0,0.53125,0.0,-1.65625,-2.737484737484737,2.374847374847375,0.0,0.78125,0.0,-1.46875,-2.117216117216117,1.887667887667888,0.0,0.9375,0.0,-1.3125,-2.247863247863248,2.2026862026862033,0.0,0.78125,0.0,-1.3125,-2.772893772893773,3.312576312576313,-0.7106227106227107,0.8125,0.0,-1.15625,-2.2649572649572653,2.769230769230769,-1.0866910866910866,0.96875,0.0,-0.875,-0.9426129426129426,1.9035409035409037,-1.0329670329670328,0.875,0.0,-0.84375,-2.012210012210012,3.155067155067155,-1.6642246642246643,1.03125,0.0,-0.78125,-2.455433455433456,3.8913308913308913,-2.5750915750915757,1.1875,0.0,-0.625,-1.761904761904762,3.1782661782661785,-2.9316239316239314,0.96875,0.0,0.0,-0.8742368742368742,3.0122100122100113,-2.3015873015873014,0.6875,0.0,0.0,-1.065934065934066,3.2490842490842486,-2.063492063492064,0.59375,0.0,0.0,-1.1282051282051282,3.189255189255189,-1.9047619047619049,0.5625,0.0,0.0,-0.8840048840048841,2.7399267399267404,-1.4725274725274726,0.0,0.0,0.0,0.0,1.5128205128205128,-0.9047619047619048,0.0,0.0,0.0,0.0,0.9853479853479854,-1.031746031746032,0.0,0.0,0.0,0.0,0.9242979242979243,-1.1562881562881564,0.0,0.0,0.0,0.0,0.0,-1.1489621489621489,0.0,0.0,0.0,0.0,0.0,-0.9218559218559218,0.0,0.0,0.0,0.0,0.0,-0.6129426129426129,0.0,0.0,0.0,0.0,0.0,0.0,0.0,0.0,0.0,0.0,0.0,0.0,0.0,0.0,0.0,0.0,0.0,0.0,0.0,0.0,0.0,0.0,0.0,0.0,0.0,0.0,0.0,0.0,0.0,0.0,0.0,0.0,0.0,0.0,0.0,0.0,0.0,0.0,0.0,0.0,0.0,0.0,0.0,0.0,0.0,0.0,0.0,0.0,0.0,0.0,0.0,0.0,0.0,0.0,0.0,0.0,0.0,0.0,0.0,0.0,0.0,0.0,0.0,0.0,0.0,0.0,0.0,0.0,0.0,0.0,0.0,0.0,0.0,0.0,0.0,0.0,0.0,0.0,0.0,0.0,0.0,0.0,0.0,0.0,0.0,0.0,0.0,0.0,0.0,0.0,0.0,0.0,0.0,0.0,0.0,0.0,0.0,0.0,0.0,0.0,0.0,0.0,0.0,0.0,0.0,0.0,0.0,0.0,0.0,0.0,0.0,0.0,0.0,0.0,0.0,0.0,0.0,0.0,0.0,0.0,0.0,0.0,0.0,-0.6947496947496947,0.0,-0.8363858363858364,0.0,0.0,0.0,,,,,,,,,,,,,,,,,,,,,,,,,,,,,,,,,,,,,wp_nextR
accX,0.5274725274725275,0.0,0.0,0.0,0.0,0.0,0.525030525030525,-1.2014652014652014,0.0,0.0,0.0,0.0,0.0,-0.5433455433455433,0.0,0.0,0.0,0.0,0.0,0.0,0.0,0.0,0.0,0.0,0.0,0.0,0.0,0.0,0.0,0.0,0.0,-0.8620268620268621,-0.6691086691086691,0.0,0.0,0.0,0.5433455433455433,-1.1807081807081807,-1.1794871794871795,0.0,0.0,0.0,1.1623931623931625,-1.8315018315018317,-1.7045177045177045,0.0,0.0,0.0,1.7313797313797314,-2.3321123321123323,-1.8315018315018317,0.0,0.0,0.0,2.208791208791209,-2.8949938949938954,-0.9523809523809524,0.0,0.0,-0.625,1.5738705738705738,-2.8156288156288163,0.0,0.0,0.0,-0.9375,0.7545787545787546,-2.9084249084249083,0.0,0.0,0.0,-1.125,0.0,-2.9365079365079363,0.0,0.0,0.59375,-1.125,-0.9584859584859584,-3.0769230769230766,0.0,0.0,0.8125,-1.15625,-1.1819291819291822,-3.9169719169719173,0.9304029304029304,0.53125,1.15625,-1.34375,-0.5396825396825397,-3.3870573870573866,1.8498168498168501,0.625,1.46875,-1.59375,0.0,-3.9621489621489614,1.956043956043956,0.71875,1.125,-1.875,-1.617826617826618,-3.3736263736263736,1.6312576312576312,0.0,0.59375,-2.0,-2.352869352869353,-2.4896214896214897,1.6117216117216118,0.0,0.0,-2.09375,-3.2344322344322345,-1.9304029304029304,1.3687423687423688,0.0,0.0,-2.15625,-3.3675213675213675,-1.1489621489621489,1.4236874236874235,0.78125,0.6875,-2.125,-3.0525030525030523,-0.7423687423687424,1.617826617826618,0.9375,0.78125,-2.0625,-2.087912087912088,-1.0561660561660562,1.8705738705738704,0.84375,0.0,-2.0,-2.1416361416361416,-1.3089133089133091,1.7985347985347986,0.65625,0.0,-2.0625,-2.5921855921855923,-0.6642246642246642,1.5274725274725274,0.65625,0.0,-2.125,-3.555555555555556,0.8547008547008547,1.382173382173382,1.0,0.0,-2.0625,-3.4224664224664223,1.133089133089133,1.1245421245421243,1.375,0.0,-1.9375,-2.6483516483516483,0.8327228327228328,0.0,1.5,0.0,-1.78125,-2.554334554334554,0.0,-0.5934065934065934,1.15625,0.0,-1.75,-1.956043956043956,1.641025641025641,-0.7094017094017094,1.0,0.0,-1.6875,-2.32967032967033,2.7533577533577533,-1.3443223443223444,1.15625,0.0,-1.59375,-3.1746031746031744,3.2771672771672766,-2.4713064713064714,1.25,0.0,-1.34375,-2.028083028083028,3.1416361416361416,-2.645909645909646,1.1875,0.0,-1.09375,-1.9059829059829057,2.562881562881563,-2.8547008547008548,1.0,0.0,-1.0,-1.9291819291819288,2.8424908424908426,-3.0158730158730163,0.875,0.0,-0.90625,-1.804639804639805,3.0378510378510377,-2.9426129426129437,0.75,0.0,-0.78125,-1.4334554334554337,2.7533577533577533,-2.4993894993894994,0.65625,0.0,-0.65625,-0.8644688644688645,2.0146520146520146,-2.3492063492063493,0.65625,0.0,-0.5625,-1.4126984126984128,2.039072039072039,-2.6507936507936507,0.59375,0.0,-0.53125,-1.4981684981684982,2.1684981684981683,-2.417582417582417,0.0,0.0,0.0,0.0,1.9059829059829057,-1.5592185592185592,0.0,0.0,0.0,-0.8229548229548229,1.9133089133089132,-1.3247863247863247,0.0,0.0,0.0,-1.1245421245421243,2.271062271062271,-1.2393162393162394,0.0,0.0,0.0,-1.0781440781440779,1.9609279609279608,-1.2014652014652014,0.0,0.0,0.0,-0.8913308913308914,1.8534798534798536,-0.8009768009768009,0.0,0.0,0.0,-0.7936507936507936,1.7912087912087913,-0.6141636141636142,0.0,0.0,0.0,-0.6825396825396826,1.15995115995116,-0.7387057387057387,0.0,0.0,0.0,0.0,0.5311355311355311,-0.7643467643467643,0.0,0.0,0.0,0.0,0.0,-0.6593406593406593,0.0,0.0,0.0,0.0,0.0,0.0,0.0,0.0,0.0,0.0,0.0,0.0,0.0,0.0,0.0,0.0,0.0,0.0,0.0,0.0,0.0,0.0,0.0,0.0,0.0,0.0,0.0,0.0,0.0,0.0,0.0,0.0,0.0,0.0,0.0,0.0,0.0,0.0,0.0,0.0,0.0,0.0,0.0,0.0,0.0,0.0,0.0,0.0,0.0,0.0,0.0,0.0,0.0,0.0,0.0,0.0,0.0,0.0,0.0,0.0,0.0,0.0,0.0,0.0,0.0,0.0,0.0,0.0,0.0,0.0,0.0,0.0,0.0,0.0,0.0,0.0,0.0,0.0,0.0,0.0,0.0,0.0,0.0,0.0,0.0,0.0,0.0,0.0,0.0,-0.5677655677655677,0.0,0.0,0.0,,,,,,,,,,,,,,,,,,,,,,,,,,,,,,,,,,,,,,,,,,,,,,,,,wp_nextR
accX,0.5726495726495726,0.0,0.7350427350427351,0.0,0.0,0.0,1.0854700854700854,0.0,0.5848595848595849,0.0,-0.875,0.0,0.0,0.0,0.0,0.0,-1.03125,0.0,0.0,0.0,-0.5616605616605617,0.0,-0.875,0.0,0.5616605616605617,0.0,-1.3504273504273503,0.0,0.0,0.0,2.415140415140415,-2.227106227106227,-1.8180708180708183,0.65625,0.0,0.0,3.3626373626373627,-3.5775335775335777,-2.238095238095238,0.625,0.0,0.0,3.41025641025641,-4.174603174603175,-2.0061050061050056,0.0,0.0,0.0,2.6105006105006106,-3.925518925518925,-1.3125763125763126,0.0,0.0,-0.625,1.7081807081807079,-4.072039072039072,0.0,0.0,0.0,-0.9375,0.9242979242979243,-4.174603174603175,0.6007326007326007,0.0,0.625,-1.125,0.0,-4.521367521367521,1.0549450549450552,0.0,0.84375,-1.28125,0.0,-4.557997557997559,0.9157509157509156,0.0,1.0,-1.625,-1.1672771672771671,-3.89010989010989,0.9169719169719168,0.0,1.0,-1.875,-1.750915750915751,-3.6495726495726495,1.1916971916971917,0.0,0.90625,-2.09375,-2.1807081807081805,-2.796092796092796,1.3614163614163617,0.0,0.8125,-2.28125,-2.8827838827838828,-2.122100122100122,1.1868131868131868,0.0,0.59375,-2.375,-3.6105006105006106,-1.8827838827838828,0.9755799755799756,0.0,0.75,-2.3125,-2.7301587301587302,-1.5592185592185592,1.0354090354090355,0.59375,0.8125,-2.375,-2.3772893772893773,-1.794871794871795,0.6886446886446886,0.0,0.0,-2.46875,-2.6581196581196584,-1.7228327228327232,0.0,0.0,0.0,-2.53125,-4.515262515262514,-0.8571428571428571,0.0,0.0,0.0,-2.40625,-4.543345543345543,0.5763125763125763,1.2735042735042734,0.5625,0.0,-2.0625,-3.1782661782661785,0.0,1.525030525030525,0.90625,0.0,-1.84375,-2.166056166056166,0.0,1.6336996336996337,0.96875,0.0,-1.8125,-2.3638583638583643,0.0,0.7216117216117216,0.84375,0.0,-1.84375,-2.8656898656898657,0.5433455433455433,0.0,0.875,0.0,-1.71875,-2.47008547008547,1.7496947496947497,0.0,0.96875,0.0,-1.53125,-2.8644688644688645,2.3028083028083026,-1.5567765567765568,0.9375,0.0,-1.34375,-3.347985347985348,2.380952380952381,-2.0085470085470085,1.03125,0.0,-1.15625,-2.192918192918193,2.4688644688644694,-1.4603174603174602,1.0,0.53125,-1.03125,-1.2576312576312576,2.2344322344322345,-2.126984126984127,0.875,0.0,-0.90625,-0.8913308913308914,2.389499389499389,-2.971916971916972,0.65625,0.0,-0.6875,-1.2857142857142858,2.2820512820512815,-3.0012210012210017,0.625,0.0,0.0,-0.7374847374847375,1.6642246642246643,-2.3687423687423688,0.6875,0.0,0.0,-0.8669108669108669,1.3284493284493284,-1.9511599511599511,0.8125,0.625,0.0,0.0,1.4554334554334554,-1.2466422466422469,0.71875,0.625,-0.5625,-1.21001221001221,2.4932844932844933,-1.1868131868131868,0.625,0.0,-0.5625,-1.2783882783882785,2.542124542124542,-1.3308913308913308,0.59375,0.0,0.0,-1.7557997557997558,2.5677655677655684,-1.4932844932844933,0.0,0.0,0.0,-1.824175824175824,2.7032967032967035,-1.3345543345543345,0.5625,0.0,0.0,-0.7350427350427351,2.2796092796092795,-0.9621489621489622,0.5625,0.0,0.0,0.0,1.5836385836385836,-0.6507936507936508,0.0,0.0,0.0,0.6385836385836385,0.9548229548229548,0.0,0.0,0.0,0.0,0.0,1.072039072039072,-0.5702075702075702,0.0,0.0,0.0,-0.8803418803418803,1.2026862026862026,-1.1538461538461535,0.0,0.0,0.0,-0.5641025641025641,0.7008547008547008,-1.474969474969475,0.0,0.0,0.0,-0.7155067155067155,0.778998778998779,-1.277167277167277,0.0,0.0,0.0,-0.6019536019536019,0.5897435897435898,-1.343101343101343,0.0,0.0,0.0,0.0,0.0,-1.2222222222222223,0.0,0.0,0.0,0.0,0.0,-0.6825396825396826,0.0,0.0,0.0,0.5665445665445665,0.0,0.0,0.0,0.0,0.0,0.518925518925519,-0.5445665445665445,0.0,0.0,0.0,0.0,0.6446886446886447,-0.5299145299145299,0.0,0.0,0.0,0.0,0.5286935286935287,-0.5274725274725275,0.0,0.0,0.0,0.0,0.0,0.0,0.0,0.0,0.0,0.0,0.0,0.0,0.0,0.0,0.0,0.0,0.0,0.0,0.0,0.0,0.0,0.0,0.0,-0.5335775335775336,0.0,0.0,0.0,0.0,0.0,0.0,0.0,0.0,0.0,0.0,,,,,,,,,,,,,,,,,,,,,,,,,,,,,,,,,,,,,,,,,,,,,,,,,,,,,,,,,,,,,,,,,,,,,,,,,wp_nextR
