,00_accX,00_accY,00_accZ,00_gyroX,00_gyroY,00_gyroZ,01_accX,01_accY,01_accZ,01_gyroX,01_gyroY,01_gyroZ,02_accX,02_accY,02_accZ,02_gyroX,02_gyroY,02_gyroZ,03_accX,03_accY,03_accZ,03_gyroX,03_gyroY,03_gyroZ,04_accX,04_accY,04_accZ,04_gyroX,04_gyroY,04_gyroZ,05_accX,05_accY,05_accZ,05_gyroX,05_gyroY,05_gyroZ,06_accX,06_accY,06_accZ,06_gyroX,06_gyroY,06_gyroZ,07_accX,07_accY,07_accZ,07_gyroX,07_gyroY,07_gyroZ,08_accX,08_accY,08_accZ,08_gyroX,08_gyroY,08_gyroZ,09_accX,09_accY,09_accZ,09_gyroX,09_gyroY,09_gyroZ,10_accX,10_accY,10_accZ,10_gyroX,10_gyroY,10_gyroZ,11_accX,11_accY,11_accZ,11_gyroX,11_gyroY,11_gyroZ,12_accX,12_accY,12_accZ,12_gyroX,12_gyroY,12_gyroZ,13_accX,13_accY,13_accZ,13_gyroX,13_gyroY,13_gyroZ,14_accX,14_accY,14_accZ,14_gyroX,14_gyroY,14_gyroZ,15_accX,15_accY,15_accZ,15_gyroX,15_gyroY,15_gyroZ,16_accX,16_accY,16_accZ,16_gyroX,16_gyroY,16_gyroZ,17_accX,17_accY,17_accZ,17_gyroX,17_gyroY,17_gyroZ,18_accX,18_accY,18_accZ,18_gyroX,18_gyroY,18_gyroZ,19_accX,19_accY,19_accZ,19_gyroX,19_gyroY,19_gyroZ,20_accX,20_accY,20_accZ,20_gyroX,20_gyroY,20_gyroZ,21_accX,21_accY,21_accZ,21_gyroX,21_gyroY,21_gyroZ,22_accX,22_accY,22_accZ,22_gyroX,22_gyroY,22_gyroZ,23_accX,23_accY,23_accZ,23_gyroX,23_gyroY,23_gyroZ,24_accX,24_accY,24_accZ,24_gyroX,24_gyroY,24_gyroZ,25_accX,25_accY,25_accZ,25_gyroX,25_gyroY,25_gyroZ,26_accX,26_accY,26_accZ,26_gyroX,26_gyroY,26_gyroZ,27_accX,27_accY,27_accZ,27_gyroX,27_gyroY,27_gyroZ,28_accX,28_accY,28_accZ,28_gyroX,28_gyroY,28_gyroZ,29_accX,29_accY,29_accZ,29_gyroX,29_gyroY,29_gyroZ,30_accX,30_accY,30_accZ,30_gyroX,30_gyroY,30_gyroZ,31_accX,31_accY,31_accZ,31_gyroX,31_gyroY,31_gyroZ,32_accX,32_accY,32_accZ,32_gyroX,32_gyroY,32_gyroZ,33_accX,33_accY,33_accZ,33_gyroX,33_gyroY,33_gyroZ,34_accX,34_accY,34_accZ,34_gyroX,34_gyroY,34_gyroZ,35_accX,35_accY,35_accZ,35_gyroX,35_gyroY,35_gyroZ,36_accX,36_accY,36_accZ,36_gyroX,36_gyroY,36_gyroZ,37_accX,37_accY,37_accZ,37_gyroX,37_gyroY,37_gyroZ,38_accX,38_accY,38_accZ,38_gyroX,38_gyroY,38_gyroZ,39_accX,39_accY,39_accZ,39_gyroX,39_gyroY,39_gyroZ,40_accX,40_accY,40_accZ,40_gyroX,40_gyroY,40_gyroZ,41_accX,41_accY,41_accZ,41_gyroX,41_gyroY,41_gyroZ,42_accX,42_accY,42_accZ,42_gyroX,42_gyroY,42_gyroZ,43_accX,43_accY,43_accZ,43_gyroX,43_gyroY,43_gyroZ,44_accX,44_accY,44_accZ,44_gyroX,44_gyroY,44_gyroZ,45_accX,45_accY,45_accZ,45_gyroX,45_gyroY,45_gyroZ,46_accX,46_accY,46_accZ,46_gyroX,46_gyroY,46_gyroZ,47_accX,47_accY,47_accZ,47_gyroX,47_gyroY,47_gyroZ,48_accX,48_accY,48_accZ,48_gyroX,48_gyroY,48_gyroZ,49_accX,49_accY,49_accZ,49_gyroX,49_gyroY,49_gyroZ,50_accX,50_accY,50_accZ,50_gyroX,50_gyroY,50_gyroZ,51_accX,51_accY,51_accZ,51_gyroX,51_gyroY,51_gyroZ,52_accX,52_accY,52_accZ,52_gyroX,52_gyroY,52_gyroZ,53_accX,53_accY,53_accZ,53_gyroX,53_gyroY,53_gyroZ,54_accX,54_accY,54_accZ,54_gyroX,54_gyroY,54_gyroZ,55_accX,55_accY,55_accZ,55_gyroX,55_gyroY,55_gyroZ,56_accX,56_accY,56_accZ,56_gyroX,56_gyroY,56_gyroZ,57_accX,57_accY,57_accZ,57_gyroX,57_gyroY,57_gyroZ,58_accX,58_accY,58_accZ,58_gyroX,58_gyroY,58_gyroZ,59_accX,59_accY,59_accZ,59_gyroX,59_gyroY,59_gyroZ,60_accX,60_accY,60_accZ,60_gyroX,60_gyroY,60_gyroZ,61_accX,61_accY,61_accZ,61_gyroX,61_gyroY,61_gyroZ,62_accX,62_accY,62_accZ,62_gyroX,62_gyroY,62_gyroZ,63_accX,63_accY,63_accZ,63_gyroX,63_gyroY,63_gyroZ,64_accX,64_accY,64_accZ,64_gyroX,64_gyroY,64_gyroZ,65_accX,65_accY,65_accZ,65_gyroX,65_gyroY,65_gyroZ,66_accX,66_accY,66_accZ,66_gyroX,66_gyroY,66_gyroZ,67_accX,67_accY,67_accZ,67_gyroX,67_gyroY,67_gyroZ,68_accX,68_accY,68_accZ,68_gyroX,68_gyroY,68_gyroZ,69_accX,69_accY,69_accZ,69_gyroX,69_gyroY,69_gyroZ,70_accX,70_accY,70_accZ,70_gyroX,70_gyroY,70_gyroZ,71_accX,71_accY,71_accZ,71_gyroX,71_gyroY,71_gyroZ,72_accX,72_accY,72_accZ,72_gyroX,72_gyroY,72_gyroZ,73_accX,73_accY,73_accZ,73_gyroX,73_gyroY,73_gyroZ,74_accX,74_accY,74_accZ,74_gyroX,74_gyroY,74_gyroZ,75_accX,75_accY,75_accZ,75_gyroX,75_gyroY,75_gyroZ,76_accX,76_accY,76_accZ,76_gyroX,76_gyroY,76_gyroZ,category
accX,0.0,0.0,0.0,0.0,0.0,0.0,0.0,0.0,0.0,0.0,0.0,0.0,0.0,0.0,0.0,0.0,0.0,0.0,0.7301587301587301,0.0,0.0,0.0,0.0,0.0,0.0,0.0,0.0,0.0,0.0,0.0,0.0,0.0,0.0,0.0,0.0,0.0,0.0,0.7643467643467643,0.0,0.0,0.0,0.0,-0.6556776556776557,1.1282051282051282,-0.9365079365079364,0.0,0.0,-0.5625,-1.290598290598291,1.6752136752136753,-1.656898656898657,0.0,0.0,-0.65625,-0.9597069597069596,1.1709401709401708,-2.2979242979242978,0.0,0.0,-0.78125,-1.413919413919414,1.2612942612942613,-2.7643467643467643,0.0,0.0,-1.0625,-3.2039072039072036,2.85958485958486,-3.3724053724053724,0.0,-0.71875,-1.15625,-6.411477411477412,4.615384615384615,-4.462759462759463,0.0,-0.75,-0.9375,-8.505494505494505,6.072039072039073,-4.315018315018315,0.0,-0.78125,0.0,-9.172161172161172,6.09035409035409,-4.56043956043956,-0.59375,-0.71875,0.75,-8.996336996336996,5.323565323565323,-4.691086691086691,-0.75,-0.78125,1.40625,-9.048840048840047,4.396825396825397,-4.7594627594627585,-1.03125,-0.9375,1.96875,-8.390720390720391,3.4761904761904763,-4.410256410256411,-1.21875,-1.1875,2.46875,-6.87912087912088,1.78998778998779,-4.289377289377289,-1.28125,-1.5625,3.0,-5.647130647130648,-0.5885225885225885,-4.9865689865689875,-1.46875,-1.875,3.25,-5.483516483516484,-2.9438339438339436,-5.363858363858364,-1.875,-1.96875,3.40625,-5.338217338217338,-4.112332112332112,-4.493284493284493,-2.15625,-1.96875,3.6875,-4.582417582417582,-5.452991452991453,-3.227106227106227,-2.0625,-1.96875,3.96875,-3.4627594627594624,-7.106227106227106,-2.3272283272283274,-1.71875,-2.03125,4.1875,-3.1904761904761907,-8.577533577533577,-1.6642246642246643,-1.34375,-2.0,4.40625,-3.675213675213675,-10.076923076923077,-1.5091575091575091,-1.125,-1.59375,4.59375,-1.4529914529914532,-11.300366300366301,-0.7008547008547008,-0.78125,-0.875,4.6875,0.0,-11.538461538461537,0.0,-0.5625,-0.9375,4.53125,0.0,-10.940170940170939,0.0,0.0,-1.0,4.21875,-0.514041514041514,-10.205128205128204,1.1538461538461535,0.0,-0.875,3.96875,0.0,-9.571428571428571,1.7838827838827842,0.0,-0.5625,3.75,1.7545787545787546,-8.3992673992674,2.0586080586080584,0.0,0.0,3.40625,2.2063492063492065,-7.829059829059829,1.6422466422466422,0.0,-0.75,2.9375,1.6214896214896215,-7.190476190476191,1.2283272283272284,0.0,-1.03125,2.46875,2.245421245421245,-5.885225885225887,1.474969474969475,0.0,-1.03125,2.09375,3.2442002442002438,-4.572649572649572,1.536019536019536,0.0,-1.1875,1.84375,3.5103785103785103,-3.936507936507936,0.6324786324786325,0.0,-1.40625,1.5,3.2307692307692313,-3.838827838827839,-0.5018315018315018,0.0,-1.3125,1.0625,3.532356532356532,-2.6483516483516483,-1.0708180708180708,0.0,-1.09375,0.84375,3.758241758241758,-2.0207570207570207,-1.474969474969475,0.0,-0.90625,0.71875,3.7240537240537237,-1.4334554334554337,-1.9865689865689864,0.0,-0.78125,0.53125,3.4444444444444446,-0.9633699633699634,-2.067155067155068,0.0,-0.5625,0.0,2.9536019536019538,-0.6544566544566545,-2.0244200244200243,0.0,0.0,0.0,2.8180708180708183,0.0,-1.8693528693528692,0.0,0.0,0.0,2.4652014652014653,0.0,-1.7435897435897436,0.0,0.0,0.0,1.678876678876679,0.0,-1.4981684981684982,0.0,0.0,0.0,0.6691086691086691,0.0,-1.1489621489621489,0.0,0.0,0.0,0.6886446886446886,0.0,0.0,0.0,0.0,0.0,0.6275946275946276,0.0,0.0,0.0,0.0,0.0,-0.6813186813186813,0.0,-0.9352869352869352,0.0,0.0,0.0,-1.4456654456654456,0.5262515262515263,-0.5934065934065934,0.0,0.0,0.0,-1.2295482295482296,0.6605616605616605,0.0,0.0,0.0,0.0,-0.7362637362637363,0.0,0.0,0.0,0.0,0.0,-0.6825396825396826,0.0,0.0,0.0,0.0,0.0,-0.7045177045177046,0.0,0.0,0.0,0.0,0.0,0.0,0.0,0.0,0.0,0.0,0.0,0.0,0.0,0.0,0.0,0.0,0.0,0.0,0.0,0.0,0.0,0.0,0.0,-0.7765567765567766,0.0,0.0,0.0,0.0,0.0,-0.6129426129426129,0.0,0.0,0.0,0.0,0.0,0.0,0.0,0.0,0.0,0.0,0.0,0.0,0.0,0.0,0.0,0.0,0.0,0.0,0.0,0.0,0.0,0.0,0.0,-0.5433455433455433,0.0,0.0,0.0,0.0,0.0,0.0,0.0,0.0,0.0,0.0,0.0,0.0,0.0,0.0,0.0,0.0,0.0,0.0,0.0,0.0,0.0,0.0,0.0,0.0,0.0,0.0,0.0,0.0,0.0,0.0,0.0,0.0,0.0,0.0,0.0,0.0,0.0,0.0,0.0,0.0,0.0,0.0,0.0,0.0,0.0,0.0,0.0,0.0,0.0,0.0,0.0,0.0,0.0,0.0,0.0,0.0,0.0,0.0,0.0,,,,,,,,,,,,,,,,,,,,,,,,,wp_next
accX,0.0,0.0,0.0,0.0,0.0,0.0,0.0,0.0,0.0,0.0,0.0,0.0,0.0,0.7960927960927959,0.0,0.0,0.0,0.0,0.0,1.0488400488400489,-0.5738705738705738,0.0,0.0,0.0,-0.9706959706959708,1.0671550671550671,-1.568986568986569,0.0,0.0,0.0,-4.434676434676434,2.326007326007326,-3.1514041514041518,0.0,0.0,-0.5625,-8.338217338217339,4.4993894993894985,-3.84981684981685,0.0,0.0,0.0,-10.479853479853482,6.564102564102564,-3.9511599511599513,0.0,0.0,0.0,-10.179487179487179,5.8962148962148975,-4.3589743589743595,0.0,0.0,0.90625,-9.4993894993895,4.94993894993895,-4.728937728937728,0.0,-0.96875,1.4375,-9.916971916971915,3.925518925518925,-5.487179487179486,-0.53125,-1.3125,2.09375,-8.738705738705738,1.4090354090354091,-6.20879120879121,-0.78125,-1.21875,2.8125,-7.565323565323565,-0.5323565323565324,-6.329670329670329,-1.375,-1.15625,3.53125,-6.440781440781442,-2.462759462759463,-5.976800976800977,-1.71875,-1.21875,3.9375,-4.876678876678877,-4.721611721611722,-5.037851037851038,-2.0625,-1.5,4.125,-3.117216117216117,-6.2344322344322345,-3.9072039072039066,-2.15625,-2.0625,4.09375,-3.3870573870573866,-7.642246642246642,-3.3809523809523814,-2.15625,-2.40625,4.0625,-3.710622710622711,-8.296703296703297,-2.4590964590964592,-1.875,-2.40625,4.21875,-3.6129426129426134,-9.51037851037851,-1.7680097680097682,-1.5,-2.125,4.4375,-3.1074481074481075,-10.37973137973138,-1.4676434676434675,-1.15625,-1.90625,4.6875,-2.912087912087912,-11.02930402930403,-1.5128205128205128,-0.90625,-1.65625,4.71875,-2.294261294261294,-11.312576312576313,-1.4761904761904765,-0.65625,-1.40625,4.71875,-2.0891330891330893,-11.053724053724055,-1.3089133089133091,0.0,-0.96875,4.6875,-1.4847374847374848,-10.68009768009768,-0.8400488400488401,0.0,0.0,4.46875,1.1746031746031746,-9.384615384615383,1.1123321123321124,0.0,0.0,4.1875,1.5189255189255189,-8.191697191697191,2.148962148962149,0.0,-0.53125,3.84375,1.2087912087912087,-7.4884004884004876,2.652014652014652,0.0,-0.71875,3.46875,2.3785103785103785,-6.551892551892553,2.6996336996337003,0.0,-0.90625,3.09375,3.3772893772893773,-5.971916971916972,2.452991452991453,0.0,-1.28125,2.5625,3.474969474969475,-5.190476190476192,1.1501831501831499,0.0,-1.8125,2.1875,3.632478632478633,-4.9523809523809526,-0.63003663003663,0.0,-2.0625,1.90625,3.4420024420024418,-3.725274725274725,-2.4322344322344316,0.5625,-1.84375,1.71875,3.2967032967032965,-3.496947496947497,-3.10989010989011,0.625,-1.0,1.625,3.877899877899878,-3.1941391941391943,-2.142857142857143,0.5625,0.0,1.5,5.515262515262514,-3.1855921855921854,-0.9963369963369964,0.0,0.0,1.25,5.78021978021978,-2.881562881562881,-0.9316239316239316,0.0,0.0,0.0,3.3650793650793656,-1.750915750915751,-1.133089133089133,0.0,0.0,0.0,1.9694749694749696,-0.8315018315018315,-1.0842490842490842,0.0,0.0,0.0,2.421245421245421,-0.7228327228327228,-0.6935286935286935,0.0,0.0,0.0,1.9633699633699635,0.0,-0.8400488400488401,0.0,0.0,0.0,0.6471306471306472,0.0,-0.7228327228327228,0.0,0.0,0.0,0.0,0.0,-0.5811965811965812,0.0,0.0,0.0,0.0,0.0,0.0,0.0,0.0,0.0,0.0,0.5518925518925519,0.0,0.0,0.0,0.0,0.0,0.0,0.0,0.0,0.0,0.0,0.0,0.0,-0.6117216117216118,0.0,0.0,0.0,0.0,0.0,-0.5421245421245421,0.0,0.0,0.0,0.0,0.0,0.0,0.0,0.0,0.0,0.0,0.0,0.0,0.0,0.0,0.0,0.0,0.0,0.0,0.0,0.0,0.0,0.0,0.0,0.0,0.0,0.0,0.0,0.0,0.0,0.0,0.0,0.0,0.0,0.0,0.0,0.0,0.0,0.0,0.0,0.0,0.0,0.0,0.0,0.0,0.0,0.0,0.0,0.0,0.0,0.0,0.0,0.0,0.0,0.0,0.0,0.0,0.0,0.0,0.0,0.0,0.0,0.0,0.0,0.0,0.0,0.0,0.0,0.0,0.0,0.0,0.0,0.0,0.0,0.0,0.0,0.0,0.0,-0.5238095238095238,0.0,0.0,0.0,0.0,0.0,-0.6935286935286935,0.0,0.0,0.0,0.0,0.0,0.0,0.0,0.0,0.0,0.0,0.0,0.0,0.0,0.0,0.0,0.0,0.0,0.0,0.0,0.0,0.0,0.0,0.0,0.0,0.0,0.0,0.0,0.0,0.0,0.0,0.0,0.0,0.0,,,,,,,,,,,,,,,,,,,,,,,,,,,,,,,,,,,,,,,,,,,,,,,,,,,,,,,,,,,,,,,,,,,wp_next
accX,0.0,0.0,0.0,0.0,0.0,0.0,0.0,0.0,-0.6239316239316239,0.0,0.0,0.0,-0.9755799755799756,0.6239316239316239,-1.072039072039072,0.0,0.0,0.0,-3.2063492063492065,1.3992673992673992,-1.6324786324786325,0.0,0.0,0.0,-4.981684981684982,2.433455433455433,-2.1343101343101343,0.0,0.0,0.0,-7.601953601953603,3.507936507936508,-3.172161172161172,0.0,0.0,0.0,-10.64102564102564,3.7606837606837606,-4.9023199023199036,0.0,0.0,0.0,-12.894993894993894,4.101343101343101,-5.418803418803419,0.0,-0.71875,0.84375,-12.857142857142858,3.5457875457875456,-5.25030525030525,0.0,-0.6875,1.84375,-11.804639804639804,2.247863247863248,-5.249084249084249,0.0,-0.5625,2.8125,-9.616605616605616,0.0,-5.772893772893772,0.0,0.0,3.78125,-6.459096459096459,-2.501831501831502,-5.807081807081808,-0.875,0.0,4.5625,-3.952380952380953,-4.410256410256411,-5.527472527472527,-1.78125,-1.125,4.5,-2.433455433455433,-5.136752136752137,-4.450549450549451,-2.15625,-1.59375,4.21875,-1.8266178266178263,-5.17948717948718,-3.3431013431013437,-2.125,-1.9375,4.125,-1.6019536019536018,-5.808302808302808,-2.4615384615384617,-1.9375,-2.1875,4.1875,-1.636141636141636,-6.615384615384616,-1.752136752136752,-1.78125,-2.3125,4.375,-2.1587301587301586,-8.167277167277168,-1.3907203907203909,-1.65625,-2.125,4.34375,-1.3076923076923077,-8.604395604395602,-0.5262515262515263,-1.46875,-1.9375,4.25,0.0,-8.940170940170939,0.0,-1.15625,-2.21875,4.1875,0.6007326007326007,-9.039072039072039,0.0,-0.84375,-2.5,4.03125,0.0,-9.483516483516485,-0.73992673992674,-0.59375,-2.34375,3.84375,-0.8937728937728938,-9.538461538461537,-1.0366300366300367,0.0,-1.5625,3.75,0.0,-8.354090354090356,0.0,0.0,-0.78125,3.78125,0.0,-7.29059829059829,0.7326007326007326,0.0,-0.5625,3.75,0.0,-7.023199023199023,1.3089133089133091,0.0,0.0,3.8125,0.0,-6.514041514041513,1.9572649572649568,0.0,0.0,3.78125,0.7411477411477412,-5.8998778998779,3.06959706959707,0.0,0.0,3.71875,2.9743589743589745,-5.891330891330893,3.5579975579975582,0.0,0.0,3.5,4.838827838827839,-6.2344322344322345,2.6996336996337003,0.0,-0.71875,2.96875,6.1050061050061055,-5.903540903540903,1.2087912087912087,0.0,-1.5625,2.0625,5.7094017094017095,-3.8815628815628815,-0.7948717948717948,0.0,-2.125,1.25,4.4371184371184365,-2.15995115995116,-1.9267399267399268,0.0,-1.96875,0.75,4.175824175824176,-1.021978021978022,-2.1343101343101343,0.0,-1.25,0.6875,4.998778998778999,-0.989010989010989,-2.2698412698412698,0.0,0.0,0.71875,4.446886446886447,-1.1636141636141637,-2.4517704517704515,0.0,0.0,0.0,3.225885225885226,-0.5921855921855922,-1.5677655677655675,0.0,0.0,0.0,3.1709401709401708,0.0,-0.8412698412698413,0.0,0.0,0.0,2.8547008547008548,0.0,-1.051282051282051,0.0,0.0,0.0,1.5213675213675213,0.0,-1.8485958485958487,0.0,0.0,0.0,0.0,0.6666666666666666,-1.5396825396825398,0.0,0.0,0.0,0.0,0.9316239316239316,-0.9181929181929182,0.0,0.0,0.0,0.6654456654456654,0.0,0.0,0.0,0.0,0.0,0.5494505494505495,0.0,0.0,0.0,0.0,0.0,0.0,0.0,0.0,0.0,0.0,0.0,0.0,0.0,0.0,0.0,0.0,0.0,0.0,0.0,0.0,0.0,0.0,0.0,-0.9133089133089132,0.0,0.0,0.0,0.0,0.0,-0.8424908424908425,0.0,0.0,0.0,0.0,0.0,-0.5335775335775336,0.0,0.0,0.0,0.0,0.0,0.0,0.0,0.0,0.0,0.0,0.0,0.0,0.0,0.0,0.0,0.0,0.0,0.0,0.0,0.0,0.0,0.0,0.0,0.0,0.0,0.0,0.0,0.0,0.0,0.0,0.0,0.0,0.0,0.0,0.0,0.0,0.0,0.0,0.0,0.0,0.0,-0.5543345543345544,0.0,0.0,0.0,0.0,0.0,0.0,0.0,0.0,0.0,0.0,0.0,0.0,0.0,0.0,0.0,0.0,0.0,0.0,0.0,0.0,0.0,0.0,0.0,0.0,0.0,0.0,0.0,0.0,0.0,0.0,0.0,0.0,0.0,0.0,0.0,0.0,0.0,0.0,0.0,0.0,0.0,0.0,0.0,0.0,0.0,0.0,0.0,,,,,,,,,,,,,,,,,,,,,,,,,,,,,,,,,,,,,,,,,,,,,,,,,,,,,,,,,,,,,,,,,,,,,,,,,,,,,,,wp_next
accX,-1.4786324786324787,0.8339438339438342,0.0,0.0,0.0,0.0,-0.5445665445665445,0.0,-0.5128205128205128,0.0,0.0,0.0,0.0,0.0,-0.7240537240537241,0.0,0.0,0.0,-1.4175824175824177,1.1575091575091576,-1.1611721611721613,0.0,0.0,0.0,-2.5286935286935286,1.6141636141636142,-1.8412698412698407,0.0,0.0,0.0,-8.002442002442004,3.5067155067155067,-3.5677655677655684,0.0,0.0,0.0,-9.956043956043958,3.433455433455433,-4.256410256410256,0.0,0.0,0.0,-10.932844932844931,3.7228327228327234,-4.126984126984127,0.0,-0.75,0.75,-10.737484737484737,3.457875457875458,-3.934065934065934,0.0,-0.96875,1.5,-8.717948717948719,1.3125763125763126,-4.315018315018315,0.0,-1.03125,2.21875,-7.225885225885227,0.0,-4.5335775335775335,0.0,-1.25,2.75,-5.595848595848596,-1.5506715506715507,-5.018315018315018,-0.625,-1.40625,3.15625,-4.164835164835165,-2.068376068376069,-4.925518925518926,-0.96875,-1.625,3.40625,-3.9169719169719173,-2.673992673992674,-4.492063492063492,-1.09375,-1.75,3.5625,-3.705738705738706,-3.5885225885225887,-3.8766788766788767,-1.1875,-1.90625,3.71875,-3.7973137973137967,-4.886446886446887,-3.3321123321123323,-1.3125,-2.15625,3.96875,-3.565323565323565,-5.881562881562883,-2.4383394383394386,-1.1875,-2.3125,4.3125,-3.4847374847374852,-6.995115995115995,-1.661782661782662,-1.0,-2.4375,4.59375,-2.532356532356532,-7.873015873015873,-0.7948717948717948,-0.6875,-2.53125,4.84375,-1.4945054945054943,-9.692307692307693,-1.2307692307692308,0.0,-2.59375,4.75,-1.1477411477411477,-11.050061050061052,-1.989010989010989,0.0,-2.1875,4.40625,-0.8168498168498168,-10.084249084249084,-1.2991452991452992,0.0,-1.875,4.375,0.0,-9.52991452991453,-0.6007326007326007,0.0,-1.71875,4.375,1.2783882783882785,-9.338217338217339,0.0,0.0,-1.75,4.28125,1.7924297924297925,-8.695970695970695,0.0,0.625,-1.8125,4.1875,0.8168498168498168,-9.704517704517704,-0.5811965811965812,0.5625,-1.0625,3.84375,1.5909645909645909,-9.24053724053724,-0.7045177045177046,0.0,0.0,3.5,1.6703296703296704,-7.479853479853481,0.6483516483516484,0.0,0.0,3.3125,2.4346764346764345,-5.537240537240537,3.2905982905982905,0.0,0.59375,3.1875,3.0989010989010985,-4.550671550671551,3.8376068376068377,0.0,0.0,3.09375,4.172161172161172,-4.6996336996337,2.947496947496948,0.625,0.0,2.71875,4.112332112332112,-3.879120879120879,1.7924297924297925,0.0,-0.59375,2.15625,3.0805860805860807,-2.656898656898657,0.8083028083028083,0.0,-1.0625,1.65625,2.8424908424908426,-1.978021978021978,0.0,0.0,-1.125,1.4375,3.411477411477412,-1.6422466422466422,-0.7374847374847375,0.625,-1.0625,1.34375,3.628815628815629,-1.637362637362637,-2.1538461538461537,0.6875,-0.96875,1.15625,3.5836385836385842,-1.4456654456654456,-2.913308913308913,0.59375,-0.59375,0.90625,3.4371184371184373,-0.7387057387057387,-2.687423687423687,0.0,0.0,0.71875,3.0158730158730163,0.0,-1.9938949938949944,0.0,0.0,0.53125,2.829059829059829,0.0,-1.3882783882783882,0.0,0.0,0.0,2.398046398046398,0.0,-1.565323565323565,0.0,0.0,0.0,1.3418803418803418,0.0,-1.9609279609279608,0.0,0.0,0.0,1.3675213675213675,0.0,-1.5506715506715507,0.0,0.0,0.0,1.0366300366300367,0.0,-0.7973137973137974,0.0,0.0,0.0,0.0,0.0,-0.5970695970695971,0.0,0.0,0.0,0.0,0.0,0.0,0.0,0.0,0.0,0.0,0.0,0.0,0.0,0.0,0.0,0.0,0.0,0.0,0.0,0.0,0.0,-0.5018315018315018,0.0,0.0,0.0,0.0,0.0,0.0,0.0,0.0,0.0,0.0,0.0,0.0,0.0,0.0,0.0,0.0,0.0,0.0,0.0,0.0,0.0,0.0,0.0,0.0,0.0,0.0,0.0,0.0,0.0,0.0,0.0,0.0,0.0,0.0,0.0,0.0,0.0,0.0,0.0,0.0,0.0,0.0,0.0,0.0,0.0,0.0,0.0,0.0,0.0,0.0,0.0,0.0,0.0,0.0,0.0,0.0,0.0,0.0,0.0,0.0,0.0,0.0,0.0,0.0,0.0,0.0,0.0,0.0,0.0,0.0,0.0,0.0,0.0,0.0,0.0,0.0,0.0,0.0,0.0,0.0,0.0,0.0,0.0,0.0,0.0,0.0,0.0,0.0,0.0,0.0,0.0,0.0,0.0,0.0,0.0,0.0,0.0,0.0,0.0,0.0,0.0,0.0,0.0,0.0,0.0,0.0,0.0,0.0,0.0,0.0,0.0,0.0,0.0,0.0,0.0,0.0,0.0,0.0,0.0,0.0,0.0,0.0,0.0,0.0,0.0,0.0,0.0,0.0,0.0,0.0,0.0,0.0,0.0,0.0,0.0,0.0,0.0,0.0,0.0,0.0,0.0,0.0,0.0,0.0,0.0,0.0,0.0,0.0,0.0,,,,,,,,,,,,,,,,,,,,,,,,,wp_next
accX,0.0,1.78998778998779,0.5470085470085471,1.28125,0.0,-0.78125,-2.2051282051282053,0.8656898656898657,-2.192918192918193,1.53125,0.0,-1.0,-5.451770451770452,1.9230769230769231,-3.313797313797314,1.125,0.0,-0.9375,-9.152625152625152,3.8083028083028077,-3.8156288156288163,0.78125,0.0,0.0,-10.947496947496948,4.297924297924298,-4.7094017094017095,0.78125,0.0,0.0,-11.74847374847375,3.578754578754579,-5.173382173382174,0.6875,-0.5625,0.90625,-12.568986568986569,1.6886446886446886,-5.825396825396825,0.0,-0.90625,1.71875,-11.412698412698411,0.8034188034188035,-5.236874236874237,0.0,-0.75,2.40625,-9.783882783882783,-0.7240537240537241,-4.675213675213676,0.0,-0.53125,3.3125,-6.984126984126984,-3.412698412698413,-4.3125763125763115,-0.625,0.0,4.0625,-4.438339438339439,-5.349206349206349,-3.4432234432234434,-1.03125,-0.65625,4.3125,-3.752136752136752,-7.185592185592187,-3.0146520146520146,-1.625,-1.3125,4.21875,-3.6776556776556775,-6.755799755799756,-2.010989010989011,-2.03125,-1.59375,4.15625,-2.5103785103785103,-7.148962148962148,-1.2002442002442002,-1.78125,-1.65625,4.46875,-2.199023199023199,-7.540903540903541,-0.6202686202686203,-1.5,-1.78125,4.6875,-2.6178266178266183,-8.608058608058608,-0.6495726495726496,-1.34375,-1.65625,4.96875,-2.8852258852258847,-9.06959706959707,-0.5506715506715507,-1.15625,-1.28125,5.125,-1.5409035409035412,-9.0,0.0,-0.71875,-1.15625,5.1875,0.0,-9.001221001221003,0.7521367521367521,0.0,-1.34375,5.1875,0.0,-9.843711843711844,0.6141636141636142,0.0,-1.53125,4.96875,1.2857142857142858,-10.676434676434676,0.0,0.0,-1.5,4.4375,1.514041514041514,-9.853479853479854,0.0,0.0,-1.375,3.96875,1.0488400488400489,-8.081807081807082,0.0,0.0,-1.15625,3.78125,0.0,-6.703296703296704,0.0,0.0,-0.625,3.8125,0.0,-6.5225885225885225,1.15995115995116,0.0,0.0,3.78125,1.746031746031746,-5.446886446886448,2.072039072039072,0.0,0.0,3.5625,3.42002442002442,-4.7203907203907205,2.4688644688644694,0.0,0.0,3.28125,4.173382173382174,-4.34065934065934,2.2820512820512815,0.0,0.0,2.78125,3.2136752136752142,-4.1159951159951165,1.7387057387057387,0.0,-1.0625,2.25,3.73015873015873,-3.418803418803418,0.0,0.0,-1.25,1.875,3.0134310134310134,-2.4468864468864466,-1.2295482295482296,0.0,-1.25,1.5625,2.0183150183150182,-1.78021978021978,-1.380952380952381,0.0,-0.78125,1.4375,2.9853479853479854,-1.2405372405372406,-0.8351648351648352,0.0,0.0,1.46875,3.9865689865689866,-1.673992673992674,-0.8827838827838828,0.59375,0.0,1.34375,4.6642246642246645,-1.8534798534798536,-1.4334554334554337,0.0,0.0,1.0,4.402930402930403,-1.326007326007326,-1.6092796092796091,0.0,0.0,0.65625,3.5409035409035408,-0.7350427350427351,-1.5421245421245422,0.0,0.0,0.0,2.9804639804639805,0.0,-1.4822954822954824,0.0,0.0,0.0,1.987789987789988,0.0,-1.3956043956043955,0.0,0.0,0.0,1.3113553113553114,0.0,-0.9059829059829059,0.0,0.0,0.0,0.6324786324786325,0.6068376068376068,-0.5958485958485958,0.0,0.0,0.0,0.0,0.6336996336996337,-0.6678876678876678,0.0,0.0,0.0,0.0,0.6422466422466423,0.0,0.0,0.0,0.0,0.0,0.0,0.0,0.0,0.0,0.0,0.0,0.0,0.0,0.0,0.0,0.0,0.0,0.0,-0.5115995115995116,0.0,0.0,0.0,-1.05006105006105,0.0,0.0,0.0,0.0,0.0,0.0,0.0,0.5970695970695971,0.0,0.0,0.0,0.0,-0.5531135531135531,0.0,0.0,0.0,0.0,0.0,0.0,0.0,0.0,0.0,0.0,-0.5897435897435898,0.0,0.0,0.0,0.0,0.0,0.0,0.0,0.0,0.0,0.0,0.0,0.0,0.0,0.0,0.0,0.0,0.0,0.0,0.0,0.0,0.0,0.0,0.0,0.0,0.0,0.0,0.0,0.0,0.0,0.0,0.0,0.0,0.0,0.0,0.0,0.0,0.0,0.0,0.0,0.0,0.0,0.0,0.0,0.0,0.0,0.0,0.0,0.0,0.0,0.0,0.0,0.0,0.0,0.0,0.0,0.0,0.0,0.0,0.0,0.57997557997558,0.0,0.0,0.0,0.0,0.0,0.0,0.0,0.0,0.0,0.0,0.0,0.0,0.0,0.0,0.0,0.0,0.0,0.0,0.0,0.0,0.0,0.0,0.0,0.0,0.0,0.0,0.0,0.0,0.0,0.0,0.0,0.0,0.0,0.0,0.0,0.0,0.0,0.0,0.0,0.0,0.0,0.0,0.0,0.0,0.0,0.0,0.0,0.0,0.0,0.0,0.0,0.0,0.0,0.0,0.0,0.0,0.0,0.0,0.0,0.0,0.0,0.0,0.0,0.0,0.0,0.0,0.0,0.0,0.0,0.0,0.0,0.0,0.0,0.0,0.0,0.0,0.0,,,,,,,,,,,,,,,,,,,,,,,,,wp_next
accX,0.0,0.0,0.0,0.0,0.0,0.0,-0.7484737484737485,0.0,0.0,0.0,0.0,0.0,0.0,0.0,-0.5970695970695971,0.0,0.0,0.0,0.0,0.0,-0.7057387057387058,0.0,0.0,0.0,0.0,0.0,-1.037851037851038,0.0,0.0,0.0,0.0,0.7130647130647131,-1.2991452991452992,0.0,0.0,0.0,-0.78998778998779,1.122100122100122,-1.7374847374847375,0.0,0.0,0.0,-3.838827838827839,1.5299145299145298,-2.2246642246642248,0.0,0.0,0.0,-4.423687423687424,1.652014652014652,-2.912087912087912,0.0,0.0,0.0,-4.62026862026862,1.5299145299145298,-3.5628815628815627,0.0,0.0,0.0,-7.157509157509158,2.145299145299145,-3.7350427350427347,0.0,-0.78125,0.0,-8.323565323565324,2.652014652014652,-3.2783882783882783,-0.5625,-0.78125,0.84375,-7.5506715506715505,1.7191697191697193,-3.131868131868132,-0.53125,-0.875,1.53125,-6.520146520146519,0.6080586080586079,-3.3382173382173383,-0.625,-1.34375,2.03125,-6.367521367521367,0.0,-3.7496947496947497,-0.78125,-1.8125,2.40625,-6.825396825396825,0.6642246642246642,-3.7374847374847375,-0.84375,-1.9375,2.875,-6.515262515262514,-0.7448107448107448,-4.024420024420024,-0.78125,-1.78125,3.53125,-4.586080586080586,-1.752136752136752,-3.8986568986568986,-0.8125,-1.71875,4.125,-3.3650793650793656,-2.667887667887668,-3.653235653235653,-0.90625,-2.3125,4.375,-4.571428571428571,-3.5995115995116,-3.391941391941392,-0.9375,-2.40625,4.5,-5.1159951159951165,-4.549450549450549,-2.6996336996337003,-0.8125,-2.0625,4.96875,-4.2576312576312585,-6.746031746031746,-2.133089133089133,-0.53125,-1.65625,5.46875,-2.7484737484737485,-8.997557997557998,-1.5677655677655675,0.0,-1.4375,5.625,-2.105006105006105,-10.612942612942613,-0.9413919413919414,0.0,-1.21875,5.40625,-1.7692307692307692,-11.006105006105006,0.0,-0.53125,-1.03125,5.15625,-0.7216117216117216,-11.113553113553113,0.9755799755799756,0.0,-1.125,5.03125,0.6825396825396826,-11.623931623931625,0.7887667887667887,0.0,-1.46875,4.75,0.8571428571428571,-11.661782661782661,0.0,0.0,-1.53125,4.25,0.5018315018315018,-10.4993894993895,0.0,0.0,-1.1875,3.78125,1.0293040293040292,-9.073260073260073,0.0,0.0,-0.875,3.46875,0.9755799755799756,-6.94993894993895,0.6263736263736264,0.0,0.0,3.09375,1.9511599511599511,-6.2405372405372415,1.2075702075702075,0.0,0.0,2.96875,3.2234432234432235,-5.665445665445667,1.5714285714285714,0.0,0.0,2.59375,2.9462759462759465,-4.623931623931624,1.8412698412698407,0.0,0.0,2.1875,3.2014652014652016,-3.608058608058608,1.6874236874236874,0.0,-0.8125,1.84375,3.8766788766788767,-3.3272283272283274,0.6495726495726496,0.0,-1.125,1.53125,3.884004884004884,-3.1416361416361416,-1.1147741147741148,0.0,-1.375,1.125,3.2014652014652016,-2.1904761904761907,-2.240537240537241,0.0,-1.375,0.6875,2.0146520146520146,-1.0903540903540905,-2.496947496947497,0.0,-0.875,0.5625,2.8803418803418803,-0.6312576312576312,-2.092796092796093,0.0,0.0,0.625,3.336996336996337,-0.5873015873015873,-1.9792429792429795,0.0,0.0,0.5625,2.694749694749695,-0.5372405372405372,-1.9768009768009769,0.0,0.0,0.0,2.1245421245421245,0.0,-1.8571428571428568,0.0,0.0,0.0,1.5811965811965811,0.0,-1.7680097680097682,0.0,0.0,0.0,1.21001221001221,0.0,-1.5885225885225884,0.0,0.0,0.0,0.8302808302808303,0.0,-1.4969474969474967,0.0,0.0,0.0,0.6019536019536019,0.0,-1.2393162393162394,0.0,0.0,0.0,0.0,0.0,-0.9755799755799756,0.0,0.0,0.0,0.0,0.0,0.0,0.0,0.0,0.0,-0.5299145299145299,0.0,0.0,0.0,0.0,0.0,0.0,0.0,0.0,0.0,0.0,0.0,0.0,0.0,0.0,0.0,0.0,0.0,-0.8266178266178266,0.0,0.0,0.0,0.0,0.0,-0.6471306471306472,0.0,0.0,0.0,0.0,0.0,0.0,0.0,0.0,0.0,0.0,0.0,-0.5885225885225885,0.0,0.0,0.0,0.0,0.0,-0.6117216117216118,0.0,0.0,0.0,0.0,0.0,0.0,0.0,0.0,0.0,0.0,0.0,0.0,0.0,0.0,0.0,0.0,0.0,0.0,0.0,0.0,0.0,0.0,0.0,-0.6935286935286935,0.0,0.0,0.0,0.0,0.0,0.0,0.0,0.0,0.0,0.0,0.0,0.0,0.0,0.0,0.0,0.0,0.0,0.0,0.0,0.0,0.0,0.0,0.0,0.0,0.0,0.0,0.0,0.0,0.0,0.0,0.0,0.0,0.0,0.0,0.0,0.0,0.0,0.0,0.0,0.0,0.0,0.0,0.6581196581196581,0.0,0.0,0.0,0.0,0.0,0.0,0.0,0.0,0.0,0.0,0.0,0.0,0.0,0.0,0.0,0.0,0.5457875457875457,0.0,0.0,0.0,0.0,0.0,0.0,0.0,-0.5311355311355311,0.0,0.0,0.0,0.0,0.0,-0.5775335775335775,0.0,0.0,0.0,,,,,,,,,,,,,,,,,,,,,,,,,wp_next
accX,-1.1807081807081807,0.0,0.0,0.625,0.0,-0.8125,-1.4236874236874235,0.0,-1.1782661782661783,0.0,0.0,-0.8125,-3.468864468864469,0.9792429792429792,-1.4261294261294262,0.0,0.0,-0.71875,-6.409035409035409,2.2771672771672766,-1.5115995115995116,0.0,0.0,0.0,-7.385836385836386,3.5726495726495733,-1.3443223443223444,0.0,0.0,0.0,-7.463980463980464,2.7362637362637363,-2.4029304029304033,0.53125,0.0,0.625,-9.789987789987789,2.4737484737484743,-3.3870573870573866,0.0,-0.5625,1.0,-11.02930402930403,2.571428571428572,-3.813186813186813,0.0,-0.625,1.625,-10.401709401709402,2.1111111111111107,-3.5824175824175826,0.0,-0.6875,2.40625,-8.925518925518926,0.7435897435897436,-3.9218559218559217,0.0,-1.0,3.15625,-6.7936507936507935,-1.5531135531135531,-4.515262515262514,0.0,-1.40625,3.65625,-5.166056166056166,-3.0903540903540905,-4.818070818070818,-0.78125,-1.84375,3.75,-4.400488400488402,-3.5164835164835164,-4.351648351648351,-1.375,-2.40625,3.84375,-4.6923076923076925,-3.2735042735042734,-3.706959706959707,-1.1875,-2.4375,4.21875,-3.9621489621489614,-3.991452991452992,-3.064713064713065,-0.84375,-2.4375,4.75,-3.31013431013431,-6.518925518925519,-3.3406593406593412,-0.75,-2.3125,5.0,-2.7557997557997562,-8.163614163614163,-3.4615384615384617,-0.9375,-1.84375,4.875,-2.025641025641025,-8.581196581196581,-2.7020757020757022,-0.96875,-1.5625,4.9375,-1.0244200244200243,-8.565323565323565,-1.8913308913308915,-0.65625,-1.5,5.03125,0.0,-8.627594627594629,-1.468864468864469,0.0,-1.53125,5.03125,0.0,-9.945054945054943,-2.010989010989011,0.0,-1.46875,4.875,0.0,-11.085470085470085,-2.5347985347985347,0.0,-0.90625,4.4375,1.188034188034188,-9.55067155067155,-1.42002442002442,-0.59375,-0.65625,4.34375,2.183150183150183,-8.857142857142858,0.0,0.0,0.0,3.90625,2.1294261294261294,-7.3186813186813175,1.7106227106227103,0.0,0.0,3.625,2.514041514041514,-6.7094017094017095,2.4383394383394386,0.0,0.0,3.375,2.4053724053724053,-6.039072039072039,2.9572649572649574,0.0,0.0,3.125,2.5885225885225887,-5.313797313797314,3.5641025641025643,0.0,0.0,2.84375,3.3272283272283274,-5.16971916971917,3.4615384615384617,0.59375,0.0,2.53125,3.2307692307692313,-4.752136752136752,2.600732600732601,0.0,-0.59375,1.90625,1.8034188034188037,-3.1843711843711837,1.9951159951159951,0.0,-0.9375,1.46875,1.728937728937729,-2.070818070818071,2.056166056166056,0.0,-0.90625,1.375,2.8913308913308917,-2.0989010989010994,1.4505494505494505,0.5625,-0.9375,1.28125,2.388278388278388,-1.5885225885225884,0.0,0.65625,-1.0,1.09375,1.8547008547008548,-1.2735042735042734,-0.9804639804639804,0.65625,-0.6875,0.96875,3.087912087912088,-1.195360195360195,-1.6141636141636142,0.0,0.0,0.625,3.501831501831502,-0.6336996336996337,-1.8888888888888888,0.0,0.0,0.0,2.3418803418803416,0.0,-2.063492063492064,0.0,0.0,0.0,2.0012210012210008,0.0,-2.05006105006105,0.0,0.0,0.0,1.9706959706959708,0.0,-1.8547008547008548,0.0,0.0,0.0,1.7179487179487178,0.0,-1.3492063492063493,0.0,0.0,0.0,1.5115995115995116,0.7289377289377289,-1.1514041514041513,0.0,0.0,0.0,0.5396825396825397,0.6752136752136753,-1.242979242979243,0.0,0.0,0.0,0.0,0.7509157509157509,-1.4297924297924298,0.0,0.0,0.0,0.0,0.7216117216117216,-1.3308913308913308,0.0,0.0,0.0,0.0,0.6984126984126984,-1.0451770451770452,0.0,0.0,0.0,0.0,0.7094017094017094,0.0,0.0,0.0,0.0,0.0,0.0,0.0,0.0,0.0,0.0,0.0,0.0,0.0,0.0,0.0,0.0,0.0,0.0,0.0,0.0,0.0,0.0,0.0,0.0,0.0,0.0,0.0,0.0,0.0,0.0,0.5909645909645911,0.0,0.0,0.0,0.0,0.0,0.0,0.0,0.0,0.0,0.0,0.0,0.0,0.0,0.0,0.0,0.0,0.0,0.0,0.0,0.0,0.0,0.0,0.0,0.0,0.0,0.0,0.0,0.0,0.0,0.0,0.0,0.0,0.0,0.0,0.0,0.0,0.0,0.0,0.0,0.0,0.0,0.0,0.0,0.0,0.0,0.0,0.0,0.0,0.0,0.0,0.0,0.0,0.0,0.0,0.0,0.0,0.0,0.0,0.0,0.0,0.0,0.0,0.0,0.0,0.0,-0.5115995115995116,0.0,0.0,0.0,0.0,0.0,-0.5702075702075702,0.0,0.0,0.0,0.0,0.0,-0.5335775335775336,0.0,0.0,0.0,0.0,0.0,-0.5921855921855922,0.0,0.0,0.0,0.0,0.0,0.0,0.0,0.0,0.0,0.0,0.0,0.0,0.0,0.0,0.0,0.0,0.0,0.0,0.0,0.0,0.0,0.0,0.0,0.0,0.0,0.0,0.0,0.0,0.0,0.0,0.0,0.0,0.0,0.0,0.0,0.0,0.0,0.0,0.0,,,,,,,,,,,,,,,,,,,,,,,,,,,,,,,wp_next
accX,-0.9096459096459096,0.6263736263736264,-0.7936507936507936,1.03125,0.0,-0.875,-3.2979242979242978,0.9291819291819292,-1.5995115995115996,0.71875,0.0,0.0,-8.659340659340659,1.8058608058608057,-2.0842490842490844,0.0,-0.53125,0.0,-12.68009768009768,1.9084249084249083,-2.7362637362637363,0.0,0.0,1.1875,-13.947496947496948,3.087912087912088,-2.1587301587301586,0.0,0.0,2.71875,-12.224664224664226,3.2002442002442004,-2.0842490842490844,0.0,-0.6875,3.8125,-10.488400488400488,0.0,-3.5726495726495733,0.625,-1.65625,4.625,-9.63125763125763,-4.8498168498168495,-6.4774114774114775,0.0,-2.1875,4.78125,-6.7313797313797314,-5.095238095238095,-6.183150183150183,-1.125,-1.875,4.46875,-4.962148962148962,-3.975579975579976,-4.251526251526252,-1.6875,-1.65625,4.78125,-3.1684981684981683,-4.7313797313797314,-2.9023199023199022,-1.46875,-1.75,5.0,-2.2002442002442004,-5.503052503052503,-1.7545787545787546,-1.15625,-2.03125,5.15625,-2.095238095238096,-7.661782661782662,-2.0061050061050056,-1.03125,-2.03125,5.0625,-1.5628815628815629,-8.039072039072039,-2.0024420024420024,-0.875,-1.90625,4.90625,-1.7765567765567765,-7.695970695970696,-1.2893772893772897,-0.5625,-1.90625,4.96875,-2.166056166056166,-7.902319902319902,0.0,0.0,-1.8125,5.09375,-1.5225885225885225,-8.633699633699633,0.0,0.0,-1.84375,5.34375,-0.8974358974358975,-9.630036630036631,0.0,0.71875,-2.0,5.375,0.0,-11.304029304029305,-0.956043956043956,0.6875,-2.0,5.0,-0.5518925518925519,-12.117216117216115,-2.1245421245421245,0.0,-1.5,4.5,0.0,-10.054945054945057,-1.7667887667887667,0.0,-0.84375,4.1875,0.6727716727716728,-8.041514041514041,0.0,0.0,0.0,4.0625,1.876678876678877,-6.293040293040294,1.5067155067155067,0.0,0.0,3.8125,2.537240537240537,-7.012210012210013,0.971916971916972,0.75,0.0,3.375,3.542124542124542,-5.8669108669108665,0.0,0.0,0.0,2.78125,2.7106227106227108,-4.616605616605616,0.0,0.0,0.0,2.25,2.9829059829059825,-3.4481074481074483,0.6227106227106227,0.0,0.0,1.8125,2.8974358974358974,-2.501831501831502,0.0,0.0,-0.59375,1.46875,2.6166056166056166,-2.1257631257631258,0.0,0.0,-0.71875,1.25,2.7643467643467643,-1.358974358974359,-0.6336996336996337,0.0,-0.625,1.0625,3.4432234432234434,-1.4774114774114775,-1.4261294261294262,0.0,0.0,1.03125,4.0427350427350435,-1.4175824175824177,-2.0305250305250304,0.0,0.0,0.96875,4.029304029304028,-0.9047619047619048,-2.0146520146520146,0.0,0.0,0.8125,3.78998778998779,-0.5616605616605617,-1.8998778998779,0.0,0.0,0.59375,4.0,-0.7081807081807082,-1.7387057387057387,0.0,0.0,0.0,2.7106227106227108,-0.6715506715506715,-1.5396825396825398,0.0,0.0,0.0,1.4297924297924298,0.0,-1.0586080586080586,0.0,0.0,0.0,1.2832722832722834,0.0,0.0,0.0,0.0,0.0,1.3284493284493284,0.0,0.0,0.0,0.0,0.0,0.0,0.0,0.0,0.0,0.0,0.0,-0.9951159951159952,0.0,-0.8046398046398047,0.0,0.0,0.0,-0.8974358974358975,0.0,-0.6117216117216118,0.0,0.0,0.0,0.0,0.0,0.0,0.0,0.0,0.0,-0.8058608058608059,0.0,0.0,0.0,0.0,0.0,-1.0915750915750917,0.0,0.0,0.0,0.0,0.0,0.0,0.0,0.0,0.0,0.0,0.0,0.0,-0.6227106227106227,0.0,0.0,0.0,0.0,0.0,0.0,0.0,0.0,0.0,0.0,0.0,0.0,0.0,0.0,0.0,0.0,0.0,0.0,0.0,0.0,0.0,0.0,0.0,0.0,0.0,0.0,0.0,0.0,0.0,0.0,0.0,0.0,0.0,0.0,0.0,0.0,0.0,0.0,0.0,0.0,0.0,0.0,0.0,0.0,0.0,0.0,0.0,0.0,0.0,0.0,0.0,0.0,0.0,0.0,0.0,0.0,0.0,0.0,0.0,0.0,0.0,0.0,0.0,0.0,0.0,0.0,0.0,0.0,0.0,0.0,0.0,0.0,0.0,0.0,0.0,0.0,0.0,0.0,0.0,0.0,0.0,0.0,0.0,0.0,0.0,0.0,0.0,0.0,0.0,0.0,0.0,0.0,0.0,0.0,0.0,0.0,0.0,0.0,0.0,0.0,0.0,0.0,0.0,0.0,0.0,0.0,0.5152625152625152,0.0,0.0,0.0,0.0,0.0,0.0,0.0,0.0,0.0,0.0,0.0,0.0,0.0,0.0,0.0,0.0,0.0,0.0,0.0,0.0,0.0,0.0,0.0,0.7863247863247863,-0.5067155067155067,0.0,0.0,0.0,0.0,1.1489621489621489,-0.9072039072039072,0.0,0.0,0.0,0.0,1.4725274725274726,-1.3064713064713065,-0.5714285714285714,0.0,0.0,0.0,,,,,,,,,,,,,,,,,,,,,,,,,,,,,,,,,,,,,wp_next
accX,-1.2612942612942613,0.6056166056166056,-1.043956043956044,0.6875,0.53125,0.0,-2.669108669108669,0.6056166056166056,-1.3540903540903542,0.59375,0.0,0.0,-5.653235653235654,2.3736263736263736,-0.9584859584859584,0.875,0.59375,0.0,-5.096459096459097,2.3028083028083026,-0.5604395604395604,1.125,0.0,0.6875,-8.048840048840049,0.0,-2.7594627594627594,0.6875,0.0,0.9375,-9.448107448107448,1.557997557997558,-3.05006105006105,0.0,0.0,1.4375,-9.717948717948717,1.9133089133089132,-3.525030525030525,0.0,0.0,2.15625,-10.62148962148962,0.9279609279609279,-3.93040293040293,0.0,-0.625,2.78125,-8.278388278388281,-1.358974358974359,-4.2576312576312585,0.0,-0.96875,3.5625,-5.7094017094017095,-3.5445665445665444,-4.553113553113553,-1.0,-1.6875,3.9375,-5.21978021978022,-3.7374847374847375,-4.255189255189255,-1.40625,-2.1875,4.0,-5.553113553113552,-4.626373626373627,-3.8083028083028077,-1.40625,-2.28125,4.21875,-4.547008547008547,-5.446886446886448,-3.2185592185592187,-1.375,-2.375,4.875,-3.7374847374847375,-7.061050061050061,-3.05982905982906,-1.03125,-2.5625,5.5,-3.456654456654457,-11.647130647130648,-4.660561660561661,-0.84375,-2.53125,5.78125,-1.3858363858363858,-12.061050061050059,-3.908424908424908,-1.34375,-1.65625,5.3125,-0.967032967032967,-12.001221001221001,-2.862026862026862,-1.3125,-1.46875,5.4375,0.0,-11.996336996336995,-2.115995115995116,-1.0,-1.40625,5.59375,1.6300366300366298,-11.242979242979242,-1.164835164835165,0.0,-1.4375,5.34375,1.1465201465201464,-11.291819291819294,-0.757020757020757,0.0,-1.1875,4.96875,0.5848595848595849,-11.398046398046398,-0.8021978021978022,0.0,0.0,4.53125,1.586080586080586,-9.373626373626372,0.0,0.0,0.0,4.125,2.1355311355311355,-8.178266178266178,0.8485958485958486,0.0,0.0,3.90625,2.687423687423687,-7.0317460317460325,1.7179487179487178,0.0,0.0,3.53125,3.3687423687423688,-6.124542124542124,1.9584859584859584,0.0,-0.59375,2.90625,2.3675213675213675,-5.614163614163614,1.2063492063492065,0.0,-0.625,2.375,1.3687423687423688,-4.334554334554333,0.8144078144078144,0.0,-0.59375,2.21875,1.6141636141636142,-2.4322344322344316,1.0195360195360197,0.0,-0.5625,2.375,1.6996336996336996,-2.244200244200244,0.0,0.0,-0.65625,2.21875,0.7264957264957265,-2.244200244200244,0.0,0.625,0.0,2.09375,2.061050061050061,-2.1636141636141635,0.0,0.5625,0.0,2.09375,3.58974358974359,-2.299145299145299,-0.9084249084249084,0.53125,0.0,1.9375,3.9072039072039066,-2.2295482295482296,-1.3711843711843712,0.0,0.0,1.625,4.335775335775336,-1.8620268620268619,-1.2026862026862026,0.0,0.0,1.25,4.6422466422466435,-1.6544566544566544,-1.2722832722832722,0.0,0.0,0.84375,3.8034188034188032,-1.0866910866910866,-1.678876678876679,0.0,0.0,0.0,2.311355311355311,0.0,-1.8302808302808304,0.0,0.0,0.0,1.5836385836385836,0.0,-1.3675213675213675,0.0,0.0,0.0,1.6031746031746033,0.0,-0.8815628815628815,0.0,0.0,0.0,1.1794871794871795,0.0,-0.8058608058608059,0.0,0.0,0.0,0.0,0.0,-1.0012210012210012,0.0,0.0,0.0,-0.8131868131868132,0.7301587301587301,-0.984126984126984,0.0,0.0,0.0,-0.5592185592185592,0.0,0.0,0.0,0.0,0.0,0.0,0.0,0.0,0.0,0.0,0.0,0.0,0.0,0.0,0.0,0.0,0.0,0.0,0.0,0.0,0.0,0.0,0.0,-0.7802197802197802,0.0,0.0,0.0,0.0,0.0,-0.8424908424908425,0.0,0.0,0.0,0.0,0.0,-0.5470085470085471,0.0,0.0,0.0,0.0,0.0,0.0,0.0,0.0,0.0,0.0,0.0,0.0,0.0,0.0,0.0,0.0,0.0,0.0,0.0,0.0,0.0,0.0,0.0,0.0,0.0,-0.5311355311355311,0.0,0.0,0.0,0.0,0.0,0.0,0.0,0.0,0.0,0.0,0.0,0.0,0.0,0.0,0.0,0.0,0.6043956043956044,0.0,0.0,0.0,0.0,0.0,0.0,0.0,0.0,0.0,0.0,0.0,0.0,-0.7106227106227107,0.0,0.0,0.0,0.5811965811965812,0.0,-0.8937728937728938,0.0,0.0,0.0,0.0,0.0,-0.978021978021978,0.0,0.0,0.0,0.0,0.0,-0.8315018315018315,0.0,0.0,0.0,0.0,0.0,-0.6446886446886447,0.0,0.0,0.0,,,,,,,,,,,,,,,,,,,,,,,,,,,,,,,,,,,,,,,,,,,,,,,,,,,,,,,,,,,,,,,,,,,,,,,,,,,,,,,,,,,,,,,,,,,wp_next
accX,-0.6788766788766789,0.8376068376068376,0.0,0.0,0.0,0.0,-1.2588522588522588,0.6336996336996337,0.0,0.0,0.0,0.0,-2.3211233211233213,0.0,0.0,0.0,0.0,0.0,-3.31990231990232,0.9304029304029304,-0.9645909645909646,0.0,0.0,0.0,-5.797313797313797,1.8547008547008548,-1.398046398046398,0.0,0.0,0.0,-8.001221001221001,1.9914529914529917,-2.2588522588522593,0.0,0.0,0.6875,-12.564102564102564,3.2063492063492065,-3.6776556776556775,0.0,-0.78125,1.40625,-13.811965811965814,3.021978021978022,-4.245421245421245,0.0,-1.125,2.4375,-11.699633699633699,0.0,-5.21978021978022,0.0,-1.0625,3.5,-7.995115995115995,-1.9047619047619049,-5.275946275946276,0.0,-1.40625,4.15625,-6.366300366300366,-2.705738705738706,-4.412698412698413,-0.9375,-2.125,4.375,-5.710622710622711,-3.5665445665445668,-3.667887667887668,-1.125,-2.53125,4.65625,-4.865689865689865,-4.875457875457876,-3.0830280830280827,-0.96875,-2.59375,5.1875,-3.398046398046398,-6.892551892551893,-2.9438339438339436,-0.71875,-2.40625,5.59375,-1.3418803418803418,-9.046398046398048,-2.9938949938949935,-0.6875,-2.1875,5.5625,0.0,-9.935286935286936,-2.8217338217338215,-0.90625,-2.15625,5.28125,-0.8412698412698413,-9.540903540903539,-2.3064713064713063,-0.96875,-2.15625,5.09375,-1.6947496947496947,-9.390720390720393,-1.7472527472527473,-0.6875,-1.84375,5.40625,-1.2637362637362637,-10.053724053724054,-1.115995115995116,0.0,-1.3125,5.71875,0.0,-11.73137973137973,-1.164835164835165,0.0,-0.90625,5.625,0.0,-12.13919413919414,-1.2246642246642248,0.0,0.0,5.21875,0.0,-10.808302808302807,0.0,0.0,0.0,5.09375,0.6190476190476191,-9.284493284493283,1.2576312576312576,0.0,0.0,5.0,1.4224664224664223,-8.285714285714286,2.7399267399267404,0.0,0.0,4.75,3.2979242979242978,-8.84859584859585,2.95970695970696,0.6875,0.0,4.09375,4.907203907203908,-7.9743589743589745,1.8290598290598292,0.0,0.0,3.0625,4.236874236874237,-6.473748473748474,0.8192918192918193,0.0,-1.125,2.34375,1.2893772893772897,-4.625152625152626,0.5396825396825397,0.0,-1.0,1.875,1.177045177045177,-3.21001221001221,1.2210012210012209,0.0,-0.65625,1.8125,1.8632478632478635,-2.937728937728938,0.7240537240537241,0.0,-0.5625,1.4375,0.9743589743589745,-1.4273504273504274,0.0,0.0,0.0,1.375,1.5982905982905984,-1.2844932844932846,-0.7448107448107448,0.0,0.0,1.375,2.225885225885226,-1.1807081807081807,-1.8168498168498168,0.0,0.0,1.34375,3.336996336996337,-1.5225885225885225,-1.9951159951159951,0.0,0.0,1.21875,4.719169719169718,-1.8058608058608057,-2.0354090354090357,0.0,0.0,0.96875,4.683760683760683,-1.4981684981684982,-1.945054945054945,0.0,0.0,0.0,3.4090354090354085,0.0,-1.5702075702075702,0.0,0.0,0.0,2.3638583638583643,0.0,-1.31013431013431,0.0,0.0,0.0,1.678876678876679,0.0,-1.536019536019536,0.0,0.0,0.0,0.5421245421245421,0.0,-1.6874236874236874,0.0,0.0,0.0,-0.7032967032967034,0.7997557997557998,-1.4358974358974361,0.0,0.0,0.0,-1.1123321123321124,1.175824175824176,0.0,0.0,0.0,0.0,0.0,0.7802197802197802,0.0,0.0,0.0,0.0,0.0,0.0,0.0,0.0,0.0,0.0,-0.971916971916972,0.0,0.0,0.0,0.0,0.0,-0.6715506715506715,0.0,0.0,0.0,0.0,0.0,0.0,0.0,0.0,0.0,0.0,0.0,0.0,0.0,0.0,0.0,0.0,0.0,-0.7838827838827839,0.0,0.0,0.0,0.0,0.0,-0.5873015873015873,0.0,0.0,0.0,0.0,0.0,-0.7716727716727717,0.0,0.0,0.0,0.0,0.0,0.0,0.0,0.0,0.0,0.0,0.0,0.0,0.0,0.0,0.0,0.0,0.0,0.0,0.0,0.0,0.0,0.0,0.0,0.0,0.0,0.0,0.0,0.0,0.0,0.0,0.0,-0.5592185592185592,0.0,0.0,0.0,0.0,0.0,-0.5628815628815629,0.0,0.0,0.0,0.5262515262515263,0.0,-0.6923076923076923,0.0,0.0,0.0,,,,,,,,,,,,,,,,,,,,,,,,,,,,,,,,,,,,,,,,,,,,,,,,,,,,,,,,,,,,,,,,,,,,,,,,,,,,,,,,,,,,,,,,,,,,,,,,,,,,,,,,,,,,,,,,,,,wp_next
accX,0.0,0.0,0.0,0.6875,0.0,0.0,-0.5421245421245421,0.0,-0.7020757020757019,0.0,0.0,0.0,-2.6178266178266183,0.9914529914529916,-1.376068376068376,0.0,-0.84375,0.0,-6.634920634920635,2.3015873015873014,-2.2612942612942613,0.0,-0.84375,0.0,-9.402930402930403,3.240537240537241,-2.245421245421245,0.0,0.0,0.5625,-9.544566544566543,3.1135531135531136,-1.7777777777777777,0.0,0.0,1.28125,-9.256410256410255,1.9743589743589745,-2.490842490842491,0.0,-0.625,1.71875,-10.179487179487179,2.1746031746031744,-3.525030525030525,0.0,-1.375,2.09375,-10.925518925518926,0.8962148962148963,-4.366300366300366,0.0,-1.03125,3.09375,-8.304029304029305,-1.3284493284493284,-3.84004884004884,0.0,-1.0625,3.875,-5.014652014652015,-3.6129426129426134,-3.627594627594628,-0.78125,-1.59375,4.15625,-4.037851037851038,-3.9926739926739927,-3.4664224664224665,-1.03125,-2.0,4.21875,-3.771672771672772,-4.252747252747253,-3.225885225885226,-1.0,-2.21875,4.53125,-3.8656898656898657,-4.9584859584859595,-2.9035409035409034,-0.78125,-2.34375,4.9375,-4.362637362637362,-7.730158730158731,-3.717948717948718,-0.8125,-2.0625,5.40625,-3.073260073260073,-9.728937728937726,-4.277167277167277,-1.03125,-1.4375,5.53125,-0.6593406593406593,-10.637362637362637,-4.010989010989012,-1.125,-1.25,5.46875,0.0,-10.44932844932845,-3.4932844932844933,-1.0,-1.28125,5.21875,-0.7362637362637363,-10.146520146520146,-2.655677655677656,-0.8125,-1.28125,5.28125,-1.2857142857142858,-10.19047619047619,-1.6275946275946276,0.0,-0.90625,5.625,2.2344322344322345,-11.902319902319903,-1.1746031746031746,0.0,0.0,5.09375,3.351648351648352,-10.164835164835164,0.0,-0.65625,0.0,4.5,2.4346764346764345,-8.586080586080586,1.2185592185592184,-0.625,0.0,3.96875,1.3992673992673992,-7.544566544566544,2.4713064713064714,-0.5625,0.0,3.65625,1.3540903540903542,-5.57997557997558,3.4896214896214897,0.0,0.0,3.53125,0.0,-5.398046398046398,3.3968253968253967,0.0,0.0,3.34375,1.1245421245421243,-4.908424908424909,3.2014652014652016,0.0,0.0,3.125,2.11965811965812,-4.634920634920634,2.927960927960928,0.0,0.0,2.78125,1.9975579975579976,-3.7399267399267404,2.7301587301587302,0.0,-0.6875,2.40625,2.1782661782661785,-3.335775335775337,2.4945054945054945,0.0,-1.1875,2.03125,2.1098901098901104,-2.8095238095238093,1.5592185592185592,0.0,-1.53125,1.78125,2.485958485958486,-3.031746031746032,0.0,0.53125,-1.46875,1.34375,3.593406593406593,-2.614163614163614,-0.9157509157509156,0.0,-1.5625,1.03125,4.020757020757022,-2.147741147741148,-2.3418803418803416,0.0,-1.625,0.8125,3.7545787545787546,-1.4896214896214897,-3.47008547008547,0.0,-1.1875,0.65625,3.13064713064713,-0.6227106227106227,-3.9816849816849818,0.0,0.0,0.59375,2.811965811965812,-0.5518925518925519,-3.4615384615384617,0.0,0.0,0.53125,2.6935286935286937,0.0,-2.57997557997558,0.0,0.53125,0.0,2.4822954822954824,0.5421245421245421,-1.9523809523809523,0.0,0.0,0.0,1.8730158730158732,0.0,-2.0805860805860807,0.0,0.0,0.0,1.4761904761904765,0.0,-1.884004884004884,0.0,0.0,0.0,0.7960927960927959,0.0,-1.6227106227106227,0.0,0.0,0.0,0.0,0.0,-0.7838827838827839,0.0,0.0,0.0,-1.4004884004884004,1.0,0.0,0.0,0.0,0.0,-1.761904761904762,0.7326007326007326,0.0,0.0,0.0,0.0,-1.4004884004884004,0.0,0.0,0.0,0.0,0.0,0.0,0.0,0.0,0.0,0.0,0.0,0.0,-0.5421245421245421,0.0,0.0,0.0,0.0,0.0,0.0,0.0,0.0,0.0,0.0,-1.0488400488400489,0.0,0.0,0.0,0.0,0.0,0.0,0.0,0.6837606837606838,0.0,0.0,0.0,0.0,0.0,0.6862026862026862,0.0,0.0,0.0,-0.5531135531135531,0.0,0.0,0.0,0.0,0.0,0.0,0.0,0.0,0.0,0.0,0.0,0.0,0.0,0.0,0.0,0.0,0.0,0.0,0.0,0.0,0.0,0.0,0.0,-0.5396825396825397,0.0,0.0,0.0,0.0,0.0,0.0,0.0,-0.6862026862026862,0.0,0.0,0.0,0.0,0.0,-0.7216117216117216,0.0,0.0,0.0,0.706959706959707,0.0,-0.5225885225885226,0.0,0.0,0.0,0.6703296703296703,0.0,-0.5409035409035409,0.0,0.0,0.0,0.5335775335775336,0.0,-0.6019536019536019,0.0,0.0,0.0,0.0,0.0,-1.0537240537240538,0.0,0.0,0.0,0.0,0.0,-1.4151404151404152,0.0,0.0,0.0,0.7118437118437119,0.0,-1.5934065934065933,0.0,0.0,0.0,,,,,,,,,,,,,,,,,,,,,,,,,,,,,,,,,,,,,,,,,,,,,,,,,,,,,,,,,,,,,,,,,,,,,,,,,wp_next
accX,-1.5982905982905984,0.5836385836385837,-1.0757020757020757,0.53125,0.0,0.0,-1.092796092796093,0.5518925518925519,-1.8253968253968251,0.0,0.0,0.0,-3.501831501831502,2.7985347985347984,-1.7704517704517704,0.0,-0.53125,0.0,-6.4273504273504285,2.5665445665445668,-2.445665445665446,0.6875,0.0,0.0,-7.684981684981684,1.879120879120879,-3.5262515262515266,0.0,0.0,0.84375,-8.067155067155069,1.2112332112332111,-4.615384615384615,0.0,-0.65625,1.59375,-9.479853479853482,1.0048840048840049,-5.289377289377289,0.0,-1.09375,2.0,-10.075702075702075,0.0,-5.626373626373627,-0.71875,-1.1875,2.71875,-8.07081807081807,-2.240537240537241,-5.249084249084249,-1.25,-1.1875,3.5625,-5.91941391941392,-3.245421245421245,-4.5335775335775335,-1.90625,-1.75,4.28125,-4.926739926739927,-3.5738705738705736,-3.653235653235653,-1.96875,-2.3125,4.5,-4.5848595848595854,-4.9865689865689875,-3.5103785103785103,-1.65625,-2.53125,4.65625,-4.131868131868131,-6.0,-3.258852258852259,-1.59375,-2.5625,4.9375,-3.8485958485958487,-6.813186813186812,-2.5665445665445668,-1.4375,-2.5625,5.375,-3.8827838827838823,-8.11965811965812,-2.148962148962149,-1.0,-2.28125,5.75,-3.1587301587301586,-9.457875457875456,-1.3333333333333333,0.0,-1.96875,5.90625,-3.0586080586080584,-12.26862026862027,-1.6483516483516485,0.0,-1.65625,5.6875,-1.827838827838828,-13.427350427350428,-1.4383394383394383,-0.65625,-1.03125,5.375,0.0,-12.675213675213676,0.0,-0.75,-1.0625,5.28125,0.9804639804639804,-11.705738705738705,0.0,0.0,-1.1875,5.0,1.4017094017094016,-10.885225885225887,0.8656898656898657,0.0,-1.0,4.6875,1.6398046398046398,-11.65934065934066,0.0,0.0,-0.59375,4.25,2.053724053724053,-9.714285714285714,0.0,0.0,0.0,3.9375,1.2295482295482296,-7.721611721611723,0.663003663003663,0.0,0.0,3.65625,1.0598290598290598,-6.288156288156288,1.8547008547008548,0.0,0.78125,3.46875,2.8046398046398044,-5.781440781440781,2.888888888888889,0.0,0.0,3.21875,4.191697191697192,-5.2967032967032965,2.800976800976801,0.0,0.0,2.65625,3.2869352869352872,-4.385836385836386,1.6251526251526252,0.0,-0.8125,2.125,1.9218559218559217,-2.9926739926739927,0.0,0.0,-0.90625,1.71875,2.0012210012210008,-1.3992673992673992,-0.5409035409035409,0.0,-0.875,1.6875,2.3321123321123323,-2.2014652014652016,-1.3882783882783882,0.53125,-0.625,1.625,3.421245421245421,-2.0097680097680097,-1.637362637362637,0.0,0.0,1.375,3.75946275946276,-1.8144078144078144,-1.6666666666666667,0.0,0.0,1.125,3.8156288156288163,-1.2039072039072038,-1.5885225885225884,0.0,0.0,0.9375,3.7326007326007327,-0.8547008547008547,-1.6691086691086692,0.0,0.0,0.6875,3.731379731379731,-1.2417582417582418,-2.3150183150183152,0.0,0.0,0.0,3.4090354090354085,-0.8766788766788767,-2.3785103785103785,0.0,0.0,0.0,2.0549450549450547,0.0,-1.7887667887667889,0.0,0.0,0.0,0.5177045177045178,0.0,-1.271062271062271,0.0,0.0,0.0,0.0,0.6153846153846154,-0.9755799755799756,0.0,0.0,0.0,0.0,0.0,-0.8986568986568987,0.0,0.0,0.0,0.0,0.0,-0.7716727716727717,0.0,0.0,0.0,-0.5225885225885226,0.0,0.0,0.0,0.0,0.0,-0.6788766788766789,0.0,0.0,0.0,0.0,0.0,-1.1184371184371185,0.0,0.0,0.0,0.0,0.0,-0.7350427350427351,0.0,0.0,0.0,0.0,0.0,0.0,0.0,0.0,0.0,0.0,0.0,0.0,0.0,0.8791208791208791,0.0,0.0,0.0,0.0,0.0,0.8705738705738706,0.0,0.0,0.0,-0.9035409035409036,0.0,0.5653235653235653,0.0,0.0,0.0,-1.105006105006105,0.0,0.0,0.0,0.0,0.0,0.0,0.0,0.0,0.0,0.0,0.0,0.0,0.0,0.0,0.0,0.0,0.0,0.0,0.0,0.0,0.0,0.0,0.0,0.0,0.0,0.0,0.0,0.0,0.0,0.0,0.0,0.0,0.0,0.0,0.0,1.0048840048840049,0.0,-0.5299145299145299,0.0,0.0,0.0,1.5567765567765568,-0.6361416361416361,-1.065934065934066,0.0,0.0,0.0,1.0354090354090355,-0.5824175824175825,-1.5934065934065933,0.0,0.0,0.0,,,,,,,,,,,,,,,,,,,,,,,,,,,,,,,,,,,,,,,,,,,,,,,,,,,,,,,,,,,,,,,,,,,,,,,,,,,,,,,,,,,,,,,,,,,,,,,,,,,,,,,,,,,,,wp_next
accX,0.0,0.0,0.9304029304029304,0.0,0.0,0.0,0.0,0.0,0.0,0.625,0.0,0.0,-1.5079365079365081,0.0,-0.971916971916972,0.0,0.0,0.0,-2.9169719169719173,0.978021978021978,-1.2857142857142858,0.0,0.0,0.0,-4.202686202686203,1.2210012210012209,-1.462759462759463,0.65625,0.0,0.0,-4.829059829059829,1.2148962148962148,-2.3785103785103785,0.71875,0.0,0.0,-6.715506715506716,0.7496947496947497,-3.638583638583639,0.0,0.0,0.53125,-9.858363858363859,1.42002442002442,-3.9169719169719173,0.0,0.0,1.28125,-10.72039072039072,1.8705738705738704,-3.7020757020757022,0.0,0.0,2.09375,-8.531135531135531,0.912087912087912,-3.7020757020757022,0.0,0.0,2.75,-5.898656898656899,0.0,-3.5628815628815627,0.0,-1.34375,3.1875,-4.987789987789989,-2.606837606837607,-4.317460317460317,-1.09375,-1.9375,3.1875,-5.589743589743589,-1.9169719169719168,-3.81929181929182,-1.5,-1.875,3.75,-4.323565323565323,-2.101343101343101,-2.192918192918193,-1.375,-1.65625,4.46875,-2.9841269841269837,-2.6971916971916974,-1.4456654456654456,-1.125,-1.96875,5.0,-3.358974358974359,-5.147741147741148,-2.2124542124542126,-0.78125,-2.46875,5.34375,-3.216117216117216,-6.935286935286936,-3.0781440781440783,-0.75,-2.15625,5.15625,-3.137973137973138,-7.185592185592187,-2.791208791208791,-0.96875,-1.5625,5.0625,-2.614163614163614,-7.095238095238094,-1.6837606837606838,-1.03125,-1.3125,5.375,-1.6446886446886446,-7.1611721611721615,-0.5262515262515263,-0.59375,-1.28125,5.65625,-1.0842490842490842,-7.744810744810745,0.0,0.0,-1.3125,5.875,-1.2454212454212454,-11.655677655677655,-1.338217338217338,0.625,-1.1875,5.71875,0.0,-12.072039072039072,-1.5164835164835164,0.0,0.0,5.03125,1.6141636141636142,-9.750915750915752,0.0,-0.71875,0.0,4.5625,2.2600732600732596,-8.284493284493285,1.1282051282051282,0.0,0.0,4.0,1.2588522588522588,-7.548229548229548,1.7997557997557998,0.0,0.0,3.84375,1.3247863247863247,-7.210012210012209,1.953601953601953,0.0,0.0,3.625,1.8351648351648349,-6.73992673992674,1.474969474969475,0.0,0.0,3.15625,2.542124542124542,-5.246642246642247,2.191697191697192,0.0,0.0,2.84375,4.1941391941391934,-4.061050061050061,2.1416361416361416,0.0,-0.875,2.21875,3.3028083028083026,-4.1782661782661785,1.021978021978022,0.0,-1.28125,1.71875,1.5164835164835164,-3.0708180708180715,0.0,0.0,-1.0625,1.5625,1.2063492063492065,-1.7203907203907205,-0.5738705738705738,0.0,-0.875,1.46875,1.4090354090354091,-1.238095238095238,-0.6007326007326007,0.0,-0.875,1.4375,2.0769230769230766,0.0,0.0,0.0,-0.78125,1.34375,2.133089133089133,-1.0634920634920637,-0.6837606837606838,0.0,0.0,1.21875,4.162393162393163,-1.8730158730158732,-1.8424908424908424,0.0,0.0,0.8125,3.8815628815628815,-1.1282051282051282,-1.8253968253968251,0.0,0.0,0.0,3.0244200244200243,0.0,-1.3577533577533578,0.0,0.0,0.0,2.8949938949938954,0.0,-1.2893772893772897,0.0,0.0,0.0,2.437118437118437,0.0,-1.4713064713064714,0.0,0.0,0.0,0.94993894993895,0.0,-1.5885225885225884,0.0,0.0,0.0,0.0,0.6227106227106227,-1.0891330891330893,0.0,0.0,0.0,0.0,0.9010989010989012,0.0,0.0,0.0,0.0,0.0,0.0,0.0,0.0,0.0,0.0,0.0,0.0,0.0,0.0,0.0,0.0,-0.9145299145299144,0.0,0.0,0.0,0.0,0.0,-1.3162393162393162,0.0,0.0,0.0,0.0,0.0,-0.6446886446886447,0.0,0.0,0.0,0.0,0.0,0.0,0.0,0.0,0.0,0.0,0.0,0.0,0.0,0.0,0.0,0.0,0.0,0.0,0.0,0.5079365079365079,0.0,0.0,0.0,0.0,0.0,0.0,0.0,0.0,0.0,0.0,0.0,0.0,0.0,0.0,0.0,0.0,0.0,0.0,0.0,0.0,0.0,0.0,0.0,0.0,0.0,0.0,0.0,0.0,0.0,0.0,0.0,0.0,0.0,0.0,0.0,0.0,0.0,0.0,0.0,0.0,0.0,0.0,0.0,0.0,0.0,0.0,0.0,0.0,0.0,0.0,0.0,,,,,,,,,,,,,,,,,,,,,,,,,,,,,,,,,,,,,,,,,,,,,,,,,,,,,,,,,,,,,,,,,,,,,,,,,,,,,,,,,,,,,,,,,,,,,,,,,,,,,,,wp_next
accX,-0.6214896214896215,1.0195360195360197,0.0,0.0,0.0,0.0,0.0,0.0,-0.8009768009768009,0.0,0.0,0.0,-2.0366300366300365,1.2515262515262515,-3.236874236874237,0.0,0.0,0.0,-4.256410256410256,2.3663003663003663,-3.0744810744810747,0.0,0.0,0.0,-5.251526251526252,2.092796092796093,-3.358974358974359,0.0,0.0,0.53125,-6.390720390720391,1.4957264957264955,-3.9511599511599513,0.0,0.0,0.75,-8.063492063492061,1.3443223443223444,-4.443223443223443,0.0,0.0,1.0,-9.443223443223443,1.4468864468864469,-4.137973137973138,-0.5625,-0.71875,1.40625,-10.19047619047619,1.3882783882783882,-3.8962148962148966,-0.75,-0.96875,2.09375,-8.428571428571429,0.0,-3.9511599511599513,-0.78125,-1.09375,2.75,-6.409035409035409,-1.8424908424908424,-4.158730158730159,-1.0,-1.53125,3.28125,-5.323565323565323,-2.6202686202686203,-4.134310134310135,-1.4375,-1.96875,3.53125,-5.470085470085469,-2.6605616605616604,-3.5836385836385842,-1.625,-2.1875,3.8125,-4.935286935286936,-3.238095238095238,-3.072039072039072,-1.5,-1.875,4.53125,-3.811965811965812,-4.305250305250305,-2.3785103785103785,-1.28125,-1.84375,5.0,-2.133089133089133,-5.544566544566544,-1.5616605616605617,-1.0,-2.03125,5.15625,-1.8827838827838828,-7.913308913308914,-1.9633699633699635,-0.9375,-1.875,5.15625,-1.0354090354090355,-9.876678876678877,-2.087912087912088,-1.15625,-1.46875,5.0,0.0,-10.148962148962148,-1.5457875457875458,-1.125,-1.28125,5.0,0.0,-10.227106227106226,-0.7606837606837606,-0.8125,-1.1875,5.0,0.0,-10.2002442002442,0.0,0.0,-1.15625,5.0,0.0,-10.614163614163614,0.0,0.0,-0.96875,4.90625,-1.0525030525030523,-12.230769230769232,0.0,0.0,0.0,4.625,0.7875457875457875,-10.557997557997558,0.503052503052503,-0.5625,0.0,4.34375,1.912087912087912,-8.903540903540904,0.5653235653235653,0.0,0.0,3.9375,1.6312576312576312,-7.985347985347985,1.1672771672771671,0.0,0.0,3.40625,1.868131868131868,-6.678876678876679,0.0,0.0,0.0,3.03125,1.4615384615384617,-5.37973137973138,0.0,0.0,0.0,2.625,1.6776556776556777,-3.7692307692307687,0.8095238095238095,0.0,0.0,2.4375,2.6166056166056166,-2.7496947496947497,1.5054945054945057,0.0,-0.625,2.15625,2.831501831501832,-3.0549450549450547,0.7106227106227107,0.0,-1.0625,1.78125,2.6434676434676434,-2.8827838827838828,0.0,0.0,-1.21875,1.46875,3.361416361416361,-2.2783882783882783,-1.3504273504273503,0.0,-0.90625,1.28125,3.8998778998779,-2.0476190476190474,-1.656898656898657,0.0,-0.59375,1.15625,4.4554334554334565,-1.4578754578754578,-1.2234432234432235,0.0,0.0,0.96875,4.688644688644689,-1.6691086691086692,-1.2527472527472527,0.0,0.0,0.71875,4.481074481074482,-1.4395604395604396,-1.4371184371184371,0.0,0.0,0.0,3.3956043956043955,-0.6483516483516484,-1.6874236874236874,0.0,0.0,0.0,1.083028083028083,0.0,-1.68009768009768,0.0,0.0,0.0,1.3235653235653235,0.0,-1.1538461538461535,0.0,0.0,0.0,1.8107448107448108,0.0,-1.0231990231990231,0.0,0.0,0.0,0.7228327228327228,0.0,-0.8864468864468864,0.0,0.0,0.0,-0.9694749694749696,0.0,-0.7142857142857143,0.0,0.0,0.0,-1.6153846153846154,0.0,0.0,0.0,0.0,0.0,-0.9548229548229548,0.0,0.0,0.0,0.0,0.0,0.0,0.0,0.7252747252747253,0.0,0.0,0.0,-0.6398046398046398,0.0,0.0,0.0,0.0,0.0,-0.894993894993895,0.0,0.0,0.0,0.0,0.0,-0.536019536019536,0.0,0.0,0.0,0.0,0.0,-1.4957264957264955,0.0,0.0,0.0,0.0,0.0,-0.7411477411477412,0.0,0.0,0.0,0.0,0.0,0.0,0.0,0.0,0.0,0.0,0.0,0.0,0.0,-0.9072039072039072,0.0,0.0,0.0,-0.7838827838827839,0.0,-0.7179487179487181,0.0,0.0,0.0,0.0,0.0,0.0,0.0,0.0,0.0,0.0,0.0,0.0,0.0,0.0,0.0,0.0,0.0,-0.5238095238095238,0.0,0.0,0.0,0.0,0.0,-0.5848595848595849,0.0,0.0,0.0,0.0,0.0,0.0,0.0,0.0,0.0,0.5299145299145299,0.0,0.0,0.0,0.0,0.0,0.0,0.0,0.0,0.0,0.0,0.0,0.0,0.0,0.0,0.0,0.0,0.0,0.0,0.0,0.0,0.0,0.0,0.0,0.8449328449328449,0.0,0.0,0.0,0.0,0.0,0.7411477411477412,0.0,0.0,0.0,0.0,0.0,0.0,0.0,0.0,0.0,0.0,0.0,0.0,0.0,-0.5897435897435898,0.0,0.0,0.0,0.0,0.0,-0.6532356532356532,0.0,0.0,0.0,,,,,,,,,,,,,,,,,,,,,,,,,,,,,,,,,,,,,,,,,,,,,,,,,,,,,,,wp_next
accX,-2.3650793650793656,1.8754578754578757,-1.0024420024420024,0.0,0.0,-0.625,-2.4224664224664223,0.8815628815628815,-1.092796092796093,0.0,0.0,0.0,-4.010989010989012,1.1733821733821734,-1.6532356532356531,0.0,0.0,0.0,-4.488400488400488,1.1086691086691087,-1.9645909645909645,0.0,0.0,0.0,-5.808302808302808,1.5189255189255189,-2.4065934065934065,0.0,0.0,0.5625,-6.787545787545787,1.7484737484737485,-2.763125763125763,0.0,0.0,0.90625,-8.377289377289378,1.2319902319902318,-3.6666666666666665,0.0,0.0,1.375,-9.371184371184373,1.2576312576312576,-4.2283272283272275,0.0,-0.65625,1.96875,-9.144078144078145,1.0793650793650793,-4.106227106227107,0.0,-0.9375,2.6875,-8.81929181929182,0.0,-4.192918192918193,-0.59375,-1.03125,3.375,-6.871794871794871,-2.004884004884005,-3.7118437118437115,-0.9375,-1.21875,3.8125,-4.893772893772893,-3.584859584859585,-3.1916971916971923,-1.40625,-1.71875,3.96875,-3.954822954822955,-3.807081807081807,-2.6202686202686203,-1.71875,-2.40625,4.1875,-3.9609279609279615,-3.8949938949938954,-1.8534798534798536,-1.46875,-2.3125,4.53125,-2.816849816849817,-4.594627594627593,-1.6336996336996337,-1.03125,-1.96875,4.84375,-1.8510378510378511,-7.417582417582418,-2.8644688644688645,-0.90625,-1.9375,5.03125,0.0,-7.866910866910866,-2.952380952380953,-1.46875,-1.78125,4.75,0.0,-6.945054945054944,-2.062271062271062,-1.65625,-1.78125,4.5625,0.0,-7.2515262515262515,-1.8852258852258847,-1.34375,-1.75,4.5,0.0,-7.656898656898657,-1.8620268620268619,-1.03125,-1.4375,4.65625,0.0,-7.904761904761906,-1.3040293040293038,-0.625,-0.9375,4.875,0.7924297924297924,-9.267399267399268,-1.3040293040293038,0.0,-0.625,4.75,1.5995115995115996,-7.8949938949938945,0.0,-0.59375,0.0,4.375,1.6703296703296704,-7.275946275946276,0.0,-0.53125,0.0,4.0625,1.7582417582417582,-6.62026862026862,1.3565323565323566,0.0,-0.6875,3.625,2.101343101343101,-6.034188034188035,1.9572649572649568,0.0,-0.9375,3.40625,2.0268620268620268,-6.597069597069598,1.15995115995116,0.0,-0.90625,3.0625,2.606837606837607,-5.803418803418803,0.6532356532356532,0.0,-0.6875,2.59375,2.8766788766788767,-4.791208791208791,0.7008547008547008,0.0,-0.59375,2.1875,3.6971916971916974,-4.424908424908424,0.0,0.0,-0.75,1.84375,3.2051282051282053,-3.1684981684981683,0.0,0.0,-0.75,1.53125,2.05006105006105,-2.532356532356532,0.0,0.0,0.0,1.375,1.6068376068376071,-1.2857142857142858,0.0,0.0,0.0,1.28125,2.7399267399267404,-1.0256410256410255,0.8278388278388278,0.0,-0.71875,1.09375,2.8021978021978016,-0.9536019536019535,0.0,0.0,-0.84375,0.875,2.4322344322344316,-1.3785103785103785,-0.7875457875457875,0.0,-0.53125,0.71875,3.527472527472528,-1.0024420024420024,-1.3076923076923077,0.0,0.0,0.0,2.7484737484737485,0.0,-1.2527472527472527,0.0,0.0,0.0,1.4969474969474967,0.0,-1.083028083028083,0.0,0.0,0.0,1.1074481074481075,0.5506715506715507,-0.7716727716727717,0.0,0.0,0.0,1.21001221001221,0.5628815628815629,-0.536019536019536,0.0,0.0,0.0,0.8473748473748474,0.0,0.0,0.0,0.0,0.0,0.0,0.0,-0.5982905982905983,0.0,0.0,0.0,0.0,0.0,-0.6581196581196581,0.0,0.0,0.0,0.0,0.0,-0.6568986568986569,0.0,0.0,0.0,-0.5054945054945055,0.0,0.0,0.0,0.0,0.0,-0.6117216117216118,0.0,0.0,0.0,0.0,0.0,-0.8095238095238095,0.0,0.0,0.0,0.0,0.0,-0.7912087912087912,0.0,0.0,0.0,0.0,0.0,0.0,0.0,0.0,0.0,0.0,0.0,0.0,0.0,0.0,0.0,0.0,0.0,0.0,0.0,0.0,0.0,0.0,0.0,0.0,0.0,0.0,0.0,0.0,0.0,0.0,0.0,0.5042735042735043,0.0,0.0,0.0,0.0,0.0,0.0,0.0,0.0,0.0,0.0,0.0,0.0,0.0,0.0,0.0,0.0,0.0,0.0,0.0,0.0,0.0,0.0,0.0,0.0,0.0,0.0,0.0,-0.6141636141636142,0.0,0.0,0.0,0.0,0.0,0.0,0.0,0.0,0.0,0.0,0.0,0.0,0.0,0.0,0.0,0.0,0.0,0.0,0.0,0.0,0.0,0.0,0.0,0.0,0.0,0.0,0.0,0.0,0.0,0.0,0.0,0.0,0.0,0.0,0.0,0.0,0.0,0.0,0.0,0.0,0.0,0.0,0.0,0.0,0.0,0.0,0.0,0.0,0.0,0.0,0.0,0.0,0.0,0.0,0.0,0.0,0.0,0.0,0.0,0.0,0.0,-0.6373626373626373,0.0,0.0,0.0,0.0,0.0,-0.6336996336996337,0.0,0.0,0.0,0.0,0.0,-0.8095238095238095,0.0,0.0,0.0,0.0,0.0,-1.0305250305250304,0.0,0.0,0.0,0.5641025641025641,0.0,-0.9352869352869352,0.0,0.0,0.0,0.8815628815628815,0.0,-0.8034188034188035,0.0,0.0,0.0,0.8449328449328449,-0.525030525030525,-0.9523809523809524,-0.5625,0.0,0.0,,,,,,,,,,,,,wp_next
accX,-1.2063492063492065,1.0476190476190477,-0.6166056166056166,0.0,0.0,0.0,-1.3699633699633702,0.9462759462759462,-0.5372405372405372,0.0,0.0,0.0,-2.7814407814407813,1.0305250305250304,-1.2319902319902318,0.53125,0.0,0.0,-5.495726495726496,0.0,-2.092796092796093,0.0,0.0,0.0,-8.869352869352868,1.4468864468864469,-3.42002442002442,0.0,0.0,1.03125,-10.8986568986569,1.641025641025641,-3.9291819291819285,0.0,-0.71875,1.4375,-12.156288156288154,1.6385836385836383,-4.323565323565323,0.0,-1.21875,2.1875,-11.466422466422467,0.0,-4.148962148962149,0.0,-1.5,3.09375,-9.306471306471305,-1.1709401709401708,-4.034188034188034,0.0,-1.875,3.96875,-7.792429792429793,-2.7814407814407813,-4.1782661782661785,0.0,-2.1875,4.75,-6.311355311355312,-5.0695970695970685,-4.301587301587301,-0.59375,-2.25,5.4375,-5.211233211233211,-7.009768009768009,-4.015873015873016,-0.90625,-2.09375,5.875,-3.716727716727717,-7.501831501831503,-2.8864468864468864,-1.125,-1.8125,6.03125,-1.7362637362637363,-8.960927960927961,-2.417582417582417,-1.125,-1.65625,5.9375,0.0,-9.505494505494504,-1.706959706959707,-1.03125,-1.9375,5.96875,-1.3296703296703296,-10.097680097680096,-1.5042735042735045,-0.6875,-2.21875,5.84375,-2.0805860805860807,-11.503052503052507,-1.6862026862026862,0.0,-1.65625,5.71875,-1.9853479853479852,-11.859584859584858,-1.485958485958486,0.0,-0.84375,5.59375,-0.7191697191697192,-11.366300366300369,-0.6446886446886447,0.0,0.0,5.5,0.0,-10.742368742368742,0.0,0.0,0.0,5.3125,0.0,-10.207570207570207,0.7216117216117216,0.0,0.0,5.03125,0.0,-9.803418803418804,1.1391941391941391,0.0,0.0,4.65625,0.0,-9.142857142857142,1.2893772893772897,0.0,0.0,4.46875,1.1135531135531136,-7.868131868131868,1.5995115995115996,0.0,0.0,4.15625,2.0195360195360195,-6.758241758241758,2.083028083028083,0.0,0.0,3.78125,1.2844932844932846,-6.043956043956044,2.1746031746031744,0.0,0.0,3.375,1.286935286935287,-5.111111111111111,2.105006105006105,0.0,0.0,3.03125,1.9133089133089132,-4.56043956043956,1.6837606837606838,0.0,-1.03125,2.53125,2.868131868131868,-4.157509157509158,0.0,0.0,-1.21875,2.15625,3.5946275946275947,-3.716727716727717,-0.514041514041514,0.0,-1.0625,1.75,3.924297924297924,-2.9743589743589745,-1.4114774114774116,0.0,-0.9375,1.46875,3.741147741147741,-2.267399267399268,-2.0476190476190474,0.0,-0.78125,1.25,4.547008547008547,-2.0024420024420024,-2.0024420024420024,0.0,0.0,1.0625,5.7533577533577525,-2.3028083028083026,-2.199023199023199,0.0,0.0,0.6875,4.597069597069597,-1.6605616605616609,-2.4163614163614158,0.0,0.0,0.0,2.242979242979243,0.0,-1.956043956043956,0.0,0.0,0.0,1.3846153846153846,0.989010989010989,-1.3968253968253967,0.0,0.0,0.0,1.5616605616605617,0.9279609279609279,-1.6202686202686205,0.0,0.0,0.0,1.3565323565323566,0.5274725274725275,-1.8998778998779,0.0,0.0,0.0,0.0,0.0,-1.6288156288156288,0.0,0.0,0.0,0.0,0.5982905982905983,-0.9438339438339438,0.0,0.0,0.0,-0.6153846153846154,0.6813186813186813,-0.5262515262515263,0.0,0.0,0.0,-0.9609279609279608,0.7472527472527473,0.0,0.0,0.0,0.0,-0.9474969474969476,0.0,0.0,0.0,0.0,0.0,0.0,0.0,0.0,0.0,0.0,0.0,-0.5811965811965812,0.0,0.0,0.0,0.0,0.0,0.0,0.0,0.7301587301587301,0.0,0.0,0.0,-0.6910866910866911,0.0,0.8449328449328449,0.0,0.0,0.0,-0.6080586080586079,0.0,0.8095238095238095,0.0,0.0,0.0,0.0,0.0,0.5543345543345544,0.0,0.0,0.0,0.0,0.0,0.0,0.0,0.0,0.0,0.0,0.0,0.0,0.0,0.0,0.0,0.0,0.0,0.0,0.0,0.0,0.0,0.0,0.0,0.0,0.0,0.0,0.0,0.0,0.0,0.0,0.0,0.0,0.0,0.0,0.0,0.0,0.0,0.0,0.0,0.0,0.0,-0.5384615384615384,0.0,0.0,0.0,0.0,0.0,-0.8424908424908425,0.0,0.0,0.0,0.0,0.0,-0.9706959706959708,0.0,0.0,0.0,0.0,0.0,-0.7631257631257631,0.0,0.0,0.0,0.0,0.0,-0.5970695970695971,0.0,0.0,0.0,0.0,0.0,-0.78998778998779,0.0,0.0,0.0,0.0,0.0,-1.0537240537240538,0.0,0.0,0.0,0.0,0.0,-1.1636141636141637,0.0,0.0,0.0,,,,,,,,,,,,,,,,,,,,,,,,,,,,,,,,,,,,,,,,,,,,,,,,,,,,,,,,,,,,,,,,,,,,,,,,,,,,,,,wp_next
accX,0.0,0.0,0.0,0.0,0.0,0.0,-1.8803418803418803,0.0,-1.2344322344322345,0.0,0.0,0.0,-2.268620268620269,1.1843711843711844,-0.989010989010989,0.0,0.0,0.0,-4.2344322344322345,1.7313797313797314,-0.9865689865689866,0.0,0.0,0.0,-6.107448107448107,1.5006105006105006,-2.1404151404151404,0.0,0.0,0.0,-7.888888888888888,0.0,-3.675213675213675,0.0,-0.8125,0.65625,-10.086691086691086,1.3223443223443223,-3.965811965811966,0.0,-1.4375,1.4375,-10.967032967032967,1.1123321123321124,-4.170940170940171,0.0,-1.6875,2.0625,-10.058608058608057,0.0,-4.5628815628815635,0.0,-2.0,2.75,-9.78876678876679,-2.1111111111111107,-5.322344322344322,-0.8125,-1.9375,3.4375,-8.032967032967033,-3.4481074481074483,-5.327228327228327,-1.34375,-1.90625,4.25,-6.0927960927960925,-4.288156288156288,-4.589743589743589,-1.6875,-2.0625,5.21875,-4.113553113553113,-4.255189255189255,-2.7191697191697197,-1.21875,-2.21875,5.5625,-2.78998778998779,-7.952380952380952,-3.7570207570207566,-1.0,-2.125,5.65625,-1.6532356532356531,-7.927960927960927,-3.189255189255189,-1.40625,-2.0625,5.78125,-0.9902319902319904,-8.365079365079366,-2.783882783882784,-1.46875,-2.0,5.75,-1.1746031746031746,-7.504273504273504,-1.7045177045177045,-1.125,-1.84375,5.5,-1.1868131868131868,-7.958485958485959,-0.8571428571428571,0.0,-1.75,5.46875,-1.42002442002442,-8.694749694749694,-0.6227106227106227,0.0,-1.84375,5.9375,-1.4297924297924298,-13.124542124542124,-2.7301587301587302,0.0,-1.5,5.875,0.5518925518925519,-11.253968253968255,-2.2783882783882783,0.0,-0.59375,5.15625,0.9816849816849816,-9.862026862026863,-1.1514041514041513,0.0,0.0,4.9375,0.0,-9.426129426129426,0.0,0.0,0.0,4.84375,-1.2356532356532357,-8.341880341880342,1.1684981684981686,0.0,0.0,5.03125,-0.9743589743589745,-8.870573870573871,2.096459096459097,0.0,0.90625,4.9375,1.0073260073260073,-7.987789987789987,2.4822954822954824,0.0,1.0,4.5,2.32967032967033,-7.140415140415142,2.9865689865689866,0.0,0.0,3.96875,3.2527472527472527,-6.5555555555555545,2.8632478632478637,0.0,0.0,3.40625,3.411477411477412,-5.581196581196581,2.293040293040293,0.0,-0.9375,2.625,3.2295482295482296,-5.183150183150183,1.4664224664224663,0.0,-1.375,2.0,3.965811965811966,-4.682539682539684,0.6715506715506715,0.0,-1.59375,1.5,4.8498168498168495,-3.5873015873015874,0.0,0.0,-1.84375,0.96875,3.1257631257631258,-2.3321123321123323,-1.15995115995116,0.0,-1.625,0.65625,2.137973137973138,-1.1428571428571428,-1.137973137973138,0.0,-1.0,0.6875,3.2649572649572653,-1.2014652014652014,-1.3724053724053724,0.0,-0.6875,0.65625,4.134310134310135,-1.1111111111111112,-2.5067155067155067,0.0,-0.625,0.0,3.4871794871794872,-0.5909645909645911,-2.505494505494505,0.0,-0.53125,0.0,2.8534798534798536,0.0,-2.477411477411477,0.0,0.0,0.0,1.9731379731379728,0.0,-2.383394383394384,0.0,0.0,0.0,0.7814407814407814,0.7826617826617827,-2.1904761904761907,0.0,0.0,0.0,0.0,1.0891330891330893,-1.7496947496947497,0.0,0.0,0.0,0.0,0.7875457875457875,-1.382173382173382,0.0,0.0,0.0,0.0,0.6678876678876678,-1.0891330891330893,0.0,0.0,0.0,-0.5494505494505495,0.0,-0.7472527472527473,0.0,0.0,0.0,0.0,0.0,0.0,0.0,0.0,0.0,0.0,-0.6202686202686203,0.0,0.0,0.0,0.0,-0.6385836385836385,0.0,0.0,0.0,0.0,0.0,-1.3064713064713065,0.0,0.934065934065934,0.0,0.0,0.0,-0.6153846153846154,0.0,1.463980463980464,0.0,0.0,0.0,0.0,-0.7240537240537241,1.2954822954822955,0.0,0.0,0.0,-0.663003663003663,-0.8290598290598291,1.0842490842490842,0.0,0.0,0.0,-1.0634920634920637,-0.5445665445665445,0.8888888888888888,0.0,0.0,0.0,0.0,0.0,0.9792429792429792,0.0,0.0,0.0,0.0,0.0,0.0,0.0,0.0,0.0,0.0,0.0,0.0,0.0,0.0,0.0,0.0,0.0,-0.6483516483516484,0.0,0.0,0.0,0.0,0.0,0.0,0.0,0.0,0.0,0.0,0.0,0.0,0.0,0.0,0.0,-0.557997557997558,0.5128205128205128,0.0,0.0,0.0,0.0,0.0,0.0,0.0,0.0,0.0,0.0,0.9621489621489622,0.0,0.0,0.0,0.0,0.0,0.9523809523809524,0.0,-0.8363858363858364,0.0,0.0,0.0,0.0,0.0,-1.0854700854700854,0.0,0.0,0.0,0.0,0.0,-0.9963369963369964,0.0,0.0,0.0,0.7338217338217338,0.0,-0.9328449328449328,0.0,0.0,0.0,0.6410256410256411,-0.5103785103785103,-1.3894993894993894,0.0,0.0,0.0,0.6080586080586079,0.0,-1.6336996336996337,-0.84375,0.0,0.0,,,,,,,,,,,,,,,,,,,,,,,,,,,,,,,,,,,,,,,,,,,,,,,,,,,,,,,,,,,,,wp_next
accX,-1.462759462759463,0.0,0.0,0.0,0.0,-0.84375,-1.5494505494505495,0.9914529914529916,0.0,0.0,0.0,-0.84375,-1.7643467643467643,1.9352869352869355,0.6739926739926739,0.71875,0.0,-0.65625,-3.3626373626373627,1.3785103785103785,0.0,0.96875,0.0,0.0,-6.964590964590965,0.0,-1.8705738705738704,0.5625,0.0,0.0,-10.737484737484737,1.586080586080586,-2.4065934065934065,0.0,0.0,0.84375,-11.47863247863248,2.5006105006105006,-2.7338217338217334,0.0,0.0,1.625,-10.426129426129426,1.931623931623932,-3.6593406593406588,0.0,-0.78125,2.21875,-9.192918192918194,0.0,-4.706959706959707,0.0,-1.625,2.6875,-8.8998778998779,-1.362637362637363,-4.908424908424909,-0.875,-2.0625,3.03125,-9.401709401709402,-1.2539682539682542,-4.2905982905982905,-1.125,-1.96875,3.8125,-8.437118437118437,-2.266178266178266,-3.555555555555556,-1.0,-1.65625,4.6875,-4.1782661782661785,-3.688644688644689,-3.115995115995116,-0.71875,-2.03125,5.3125,-4.648351648351649,-6.807081807081808,-3.382173382173382,-0.96875,-2.15625,5.25,-4.407814407814408,-6.609279609279609,-2.7350427350427347,-1.125,-2.0,5.5625,-2.573870573870574,-7.17948717948718,-2.087912087912088,-0.6875,-1.875,5.90625,-1.868131868131868,-8.462759462759463,-2.0989010989010994,0.0,-2.0625,6.0625,-3.1465201465201464,-13.384615384615385,-4.318681318681318,0.0,-1.84375,5.875,-1.4945054945054943,-12.157509157509155,-3.73015873015873,-0.75,-0.8125,5.5625,0.6080586080586079,-10.85103785103785,-2.47008547008547,-1.0,0.0,5.625,1.7924297924297925,-10.124542124542122,-1.5909645909645909,-0.59375,0.0,5.375,0.0,-9.887667887667888,-0.778998778998779,0.0,0.0,4.96875,0.0,-9.52991452991453,0.0,0.0,0.0,4.96875,1.0463980463980465,-8.322344322344323,1.7851037851037852,0.0,0.5625,4.625,2.527472527472528,-7.2283272283272275,2.7301587301587302,0.0,0.0,4.0,2.6715506715506714,-6.452991452991452,2.655677655677656,0.0,0.0,3.3125,1.343101343101343,-5.38949938949939,2.484737484737485,0.0,-0.875,2.9375,0.6092796092796092,-4.656898656898657,2.0134310134310134,0.0,-1.0,2.78125,0.9047619047619048,-4.124542124542124,1.0158730158730158,0.0,-0.875,2.5625,0.0,-3.1684981684981683,0.8473748473748474,0.0,-0.5625,2.53125,1.8266178266178263,-3.2576312576312576,1.205128205128205,0.53125,0.0,2.40625,3.8864468864468864,-4.013431013431013,0.0,0.0,-0.5625,1.9375,4.1941391941391934,-3.5445665445665444,0.0,0.0,-0.5625,1.5,4.561660561660561,-2.7667887667887667,0.0,0.0,0.0,1.15625,5.094017094017094,-2.4725274725274726,-0.6117216117216118,0.0,0.0,0.8125,4.5848595848595854,-1.7655677655677655,-0.9926739926739928,0.0,0.0,0.0,2.409035409035409,0.0,-1.5909645909645909,0.0,0.0,0.0,2.978021978021978,0.0,-1.4761904761904765,0.0,0.0,0.0,3.0805860805860807,0.0,-1.5274725274725274,0.0,0.0,0.0,1.4993894993894994,0.0,-1.5445665445665446,0.0,0.0,0.0,0.0,0.7802197802197802,-0.9597069597069596,0.0,0.0,0.0,-0.6361416361416361,1.3333333333333333,0.0,0.0,0.0,0.0,-0.5641025641025641,1.105006105006105,0.0,0.0,0.0,0.0,0.0,0.0,-0.5995115995115995,0.0,0.0,0.0,0.5665445665445665,-0.5177045177045178,-0.6459096459096461,0.0,0.0,0.0,0.0,0.0,0.0,0.0,0.0,0.0,0.0,0.0,0.0,0.0,0.0,0.0,0.0,0.0,0.0,0.0,0.0,0.0,-0.5018315018315018,0.0,0.0,0.0,0.0,0.0,0.0,0.0,0.0,0.0,0.0,0.0,0.0,0.0,0.0,0.0,0.0,0.0,0.0,0.0,0.6043956043956044,0.0,0.0,0.0,0.0,0.0,0.0,0.0,0.0,0.0,0.0,0.0,0.0,0.0,0.0,0.0,0.0,0.0,0.0,0.0,0.0,0.0,0.0,0.0,0.0,0.0,0.0,0.0,0.0,0.0,0.0,0.0,0.0,0.0,0.0,0.0,-0.6520146520146519,0.0,0.0,0.0,0.0,0.0,-0.7460317460317459,0.0,0.0,0.0,0.0,0.0,-1.4529914529914532,0.0,0.0,0.0,0.0,0.9694749694749696,-1.028083028083028,-0.59375,0.0,0.0,,,,,,,,,,,,,,,,,,,,,,,,,,,,,,,,,,,,,,,,,,,,,,,,,,,,,,,,,,,,,,,,,,,,,,,,,,,,,,,,,,,,,,,,,,,,,,,,,wp_next
accX,0.0,0.0,0.5128205128205128,0.0,0.0,0.0,0.0,0.0,0.0,0.0,0.0,0.0,0.0,-0.6495726495726496,-0.7912087912087912,0.0,0.0,0.0,-1.0537240537240538,0.0,-1.2539682539682542,0.0,0.0,0.0,-1.26007326007326,0.6031746031746031,-0.8608058608058609,0.0,0.0,0.0,-0.7619047619047619,1.15995115995116,0.0,0.0,0.0,0.0,-0.6092796092796092,0.5054945054945055,0.0,0.0,0.0,0.0,-0.7106227106227107,0.0,-0.6788766788766789,0.0,0.0,0.0,-0.7350427350427351,0.0,-1.297924297924298,0.0,0.0,0.0,-0.7802197802197802,0.7387057387057387,-0.9584859584859584,0.0,0.0,0.0,-1.4481074481074483,0.9316239316239316,-0.8705738705738706,0.0,0.0,0.0,-1.8253968253968251,0.6568986568986569,-1.247863247863248,0.0,0.0,0.0,-2.3040293040293043,0.6715506715506715,-1.2442002442002442,0.0,0.0,0.0,-3.4053724053724053,0.7496947496947497,-1.166056166056166,0.0,0.0,0.0,-5.588522588522588,1.2637362637362637,-1.6776556776556777,0.0,0.0,0.6875,-7.551892551892553,1.4920634920634919,-2.347985347985348,0.0,0.0,1.28125,-7.4163614163614175,0.7326007326007326,-2.9194139194139197,0.0,0.0,1.75,-6.749694749694751,0.0,-3.0390720390720385,0.0,-1.0625,2.03125,-7.763125763125763,0.0,-3.2967032967032965,-0.625,-1.28125,2.40625,-7.975579975579977,0.0,-3.4065934065934065,-0.6875,-1.21875,3.09375,-5.7606837606837615,-3.0012210012210017,-3.216117216117216,-0.96875,-1.375,3.875,-4.7252747252747245,-3.6971916971916974,-2.8766788766788767,-1.15625,-1.75,4.15625,-4.935286935286936,-4.065934065934067,-2.8192918192918195,-1.125,-2.0625,4.40625,-4.9572649572649565,-5.588522588522588,-3.211233211233212,-0.875,-2.25,4.9375,-4.372405372405372,-8.35897435897436,-4.0976800976800964,-0.8125,-2.0625,5.28125,-2.6727716727716726,-9.633699633699633,-4.2173382173382175,-1.25,-1.59375,5.28125,-1.8583638583638584,-9.006105006105006,-3.3418803418803416,-1.53125,-1.5625,5.3125,-1.57997557997558,-9.302808302808305,-2.8424908424908426,-1.28125,-1.625,5.34375,-1.5873015873015872,-9.865689865689868,-2.275946275946276,-0.75,-1.5625,5.46875,-1.6166056166056166,-11.722832722832722,-2.426129426129426,0.0,-1.375,5.625,0.0,-12.554334554334554,-2.3455433455433456,-0.59375,-0.8125,5.46875,1.4529914529914532,-11.128205128205128,-1.5970695970695972,-0.8125,-0.5625,4.90625,1.2625152625152625,-9.7008547008547,-0.9169719169719168,-0.65625,0.0,4.53125,0.8400488400488401,-8.808302808302809,0.0,0.0,0.0,4.375,0.0,-7.656898656898657,1.8705738705738704,0.0,0.0,4.34375,0.0,-7.738705738705739,2.407814407814408,0.0,0.53125,4.1875,2.518925518925519,-7.517704517704518,2.6764346764346763,0.0,0.0,3.6875,3.844932844932845,-6.584859584859585,2.7765567765567765,0.0,0.0,3.03125,2.7142857142857144,-5.468864468864468,2.768009768009768,0.0,-0.90625,2.46875,2.7545787545787546,-4.495726495726496,2.4297924297924296,0.0,-1.21875,2.15625,3.2808302808302807,-4.057387057387056,1.4566544566544566,0.53125,-1.375,1.75,3.1465201465201464,-3.826617826617827,0.0,0.53125,-1.34375,1.375,3.498168498168498,-3.7008547008547015,-0.818070818070818,0.0,-1.09375,1.125,3.829059829059829,-1.7814407814407816,-2.0366300366300365,0.0,-0.75,0.625,2.1562881562881557,0.0,-2.1062271062271063,0.0,0.0,0.0,2.139194139194139,0.0,-1.968253968253968,0.0,0.0,0.5625,2.3064713064713063,0.0,-2.231990231990232,0.0,0.0,0.0,2.2588522588522593,0.0,-2.2234432234432235,0.0,0.0,0.0,1.3113553113553114,0.0,-1.8547008547008548,0.0,0.0,0.0,1.103785103785104,0.5323565323565324,-1.5482295482295485,0.0,0.0,0.0,0.0,0.0,-1.8192918192918195,0.0,0.0,0.0,0.0,0.5555555555555556,-1.6752136752136753,0.0,0.0,0.0,-0.5323565323565324,0.0,-1.1721611721611722,0.0,0.0,0.0,0.0,0.0,-0.6654456654456654,0.0,0.0,0.0,0.0,0.0,0.0,0.0,0.0,0.0,0.0,0.0,0.0,0.0,0.0,0.0,-0.818070818070818,0.0,0.0,0.0,0.0,0.0,-1.092796092796093,0.0,0.0,0.0,0.0,0.0,-1.043956043956044,0.0,0.0,0.0,0.0,0.0,0.0,0.0,0.6166056166056166,0.0,0.0,0.0,0.0,0.0,0.5726495726495726,0.0,0.0,0.0,-0.5787545787545788,0.0,0.0,0.0,0.0,0.0,-1.0549450549450552,0.0,0.0,0.0,0.0,0.0,0.0,0.0,0.0,0.0,0.0,0.0,0.0,0.0,0.0,0.0,0.0,0.0,0.0,0.0,0.0,0.0,0.0,0.0,0.0,0.0,0.0,0.0,0.0,0.0,0.0,0.0,0.0,0.0,-0.53125,0.0,0.0,0.0,-0.7472527472527473,0.0,-0.59375,0.0,0.0,0.0,-1.0744810744810744,0.0,0.0,0.0,0.0,0.5372405372405372,-1.1343101343101345,0.0,0.0,0.0,0.0,0.0,-1.2820512820512822,0.0,0.0,0.0,0.0,0.0,-1.271062271062271,0.0,0.0,0.0,0.9816849816849816,0.0,-1.0244200244200243,0.0,0.0,0.0,0.6385836385836385,0.0,-1.2454212454212454,0.0,0.0,0.0,0.6373626373626373,0.0,-1.7851037851037852,0.0,0.0,0.0,1.0854700854700854,0.0,-1.78998778998779,-0.625,0.0,0.0,wp_next
accX,-0.5494505494505495,0.0,0.0,0.0,0.0,0.0,-1.0354090354090355,0.0,-1.037851037851038,0.0,0.0,0.0,0.0,0.0,-0.9706959706959708,0.0,0.0,0.0,-1.1416361416361416,0.5396825396825397,-1.0427350427350428,0.0,0.0,0.0,-1.7362637362637363,0.6336996336996337,-1.1526251526251523,0.5625,0.0,0.0,-1.31990231990232,0.0,-1.3931623931623929,0.6875,0.0,0.0,-1.8754578754578757,0.0,-1.7106227106227103,0.6875,0.0,0.0,-4.351648351648351,0.6043956043956044,-1.9010989010989008,0.5625,0.0,0.0,-6.383394383394385,0.0,-1.4468864468864469,0.0,0.0,0.78125,-7.479853479853481,0.5018315018315018,-0.6837606837606838,0.0,0.0,1.46875,-7.8327228327228315,0.0,0.0,0.0,0.0,2.21875,-6.439560439560441,0.0,-1.1684981684981686,0.0,0.0,2.65625,-5.263736263736264,-0.6202686202686203,-2.768009768009768,0.0,-0.71875,2.9375,-5.802197802197803,-0.9279609279609279,-4.423687423687424,-0.5625,-1.09375,3.375,-5.175824175824176,-1.525030525030525,-4.851037851037852,-0.90625,-1.3125,3.84375,-4.3589743589743595,-2.3626373626373627,-4.1843711843711855,-1.0625,-1.46875,4.1875,-3.1233211233211238,-3.1794871794871797,-3.615384615384616,-1.125,-1.8125,4.5625,-3.0048840048840044,-4.833943833943834,-4.065934065934067,-1.15625,-2.125,4.75,-3.3418803418803416,-5.921855921855923,-4.181929181929182,-1.3125,-1.9375,4.875,-2.4713064713064714,-6.570207570207571,-3.1672771672771667,-1.4375,-1.6875,5.09375,-1.8229548229548234,-6.778998778998778,-2.0146520146520146,-1.34375,-1.5625,5.3125,-1.0256410256410255,-7.5726495726495715,-1.0915750915750917,-0.9375,-1.75,5.5625,-1.7484737484737485,-9.518925518925519,-1.5079365079365081,0.0,-1.84375,5.8125,-1.2612942612942613,-12.136752136752136,-2.7448107448107453,-0.53125,-1.03125,5.65625,0.0,-11.185592185592185,-1.7936507936507935,-1.0625,0.0,5.34375,1.126984126984127,-9.547008547008547,0.0,-1.0,0.0,4.84375,0.663003663003663,-9.059829059829061,0.6471306471306472,-0.71875,0.0,4.53125,0.0,-8.438339438339439,1.3113553113553114,0.0,0.0,4.4375,-0.8705738705738706,-7.582417582417582,2.311355311355311,0.0,0.0,4.46875,-1.103785103785104,-7.289377289377289,2.9328449328449326,0.0,0.0,4.375,0.0,-7.188034188034187,2.361416361416361,0.0,0.0,3.96875,0.7802197802197802,-7.131868131868132,2.2698412698412698,0.0,0.0,3.5625,1.4078144078144081,-5.932844932844932,2.333333333333333,0.0,0.0,3.125,2.0378510378510377,-5.551892551892551,2.195360195360196,0.0,-0.8125,2.65625,2.43956043956044,-4.916971916971917,1.514041514041514,0.0,-1.15625,2.1875,1.7484737484737485,-4.413919413919414,0.5409035409035409,0.0,-1.15625,1.90625,2.068376068376069,-3.4420024420024418,0.0,0.0,-1.25,1.5625,3.727716727716728,-2.927960927960928,-1.6544566544566544,0.53125,-1.4375,1.28125,4.094017094017094,-2.7863247863247858,-2.593406593406593,0.0,-1.1875,1.0,4.907203907203908,-2.4432234432234434,-3.1746031746031744,0.0,-0.6875,0.65625,5.15995115995116,-1.962148962148962,-3.4224664224664223,0.0,0.0,0.0,3.5042735042735043,-0.894993894993895,-3.126984126984127,0.0,0.0,0.0,2.1355311355311355,0.0,-2.2820512820512815,0.0,0.0,0.0,1.4175824175824177,0.6764346764346765,-1.7924297924297925,0.0,0.0,0.0,0.5811965811965812,0.6520146520146519,-1.8937728937728937,0.0,0.0,0.0,-0.5018315018315018,0.8034188034188035,-2.0183150183150182,0.0,0.0,0.0,0.0,0.8485958485958486,-1.3443223443223444,0.0,0.0,0.0,0.0,0.6764346764346765,-0.8864468864468864,0.0,0.0,0.0,0.0,0.0,-0.9316239316239316,0.0,0.0,0.0,0.0,0.0,0.0,0.0,0.0,0.0,-0.7875457875457875,0.0,0.0,0.0,0.0,0.0,0.0,0.0,0.0,0.0,0.0,0.0,0.0,-0.5714285714285714,0.0,0.0,0.0,0.0,0.0,-0.8424908424908425,0.7057387057387058,0.0,0.0,0.0,0.5543345543345544,-0.6935286935286935,0.8473748473748474,0.0,0.0,0.0,0.0,-0.6312576312576312,0.0,0.0,0.0,0.0,-1.137973137973138,0.0,0.0,0.0,0.0,0.0,-0.5103785103785103,0.0,0.5006105006105006,0.0,0.0,0.0,0.0,0.0,0.0,0.0,0.0,0.0,0.5543345543345544,0.0,0.0,0.0,0.0,0.0,-0.5482295482295483,0.0,0.0,0.0,0.0,0.0,0.0,0.0,0.0,0.0,0.0,0.0,0.0,0.0,0.0,0.0,0.0,0.0,0.5042735042735043,0.0,-0.5909645909645911,0.0,0.0,0.0,0.0,0.0,-0.9474969474969476,0.0,0.0,0.0,0.0,0.7924297924297924,-0.7924297924297924,0.0,0.0,0.0,0.0,0.0,-0.9230769230769232,0.0,0.0,0.0,0.0,0.0,-1.0341880341880345,0.0,0.0,0.0,0.0,0.0,-0.993894993894994,0.0,0.0,0.0,0.5384615384615384,0.0,-0.9072039072039072,0.0,0.0,0.0,0.0,0.0,-1.1477411477411477,0.0,0.0,0.0,0.6227106227106227,-0.5091575091575091,-1.3443223443223444,-0.59375,0.0,0.0,,,,,,,,,,,,,,,,,,,,,,,,,,,,,,,wp_next
accX,-0.6678876678876678,1.4896214896214897,0.0,0.5625,0.0,-0.6875,0.0,0.0,-0.8266178266178266,0.8125,0.0,-1.03125,-1.072039072039072,0.0,-1.6752136752136753,0.0,-0.59375,-0.875,-3.763125763125763,0.9816849816849816,-2.1343101343101343,0.0,0.0,0.0,-6.087912087912088,1.5115995115995116,-2.525030525030525,0.0,0.0,0.0,-6.848595848595848,1.4529914529914532,-2.5482295482295485,0.0,0.0,0.78125,-7.321123321123321,1.1855921855921856,-2.6080586080586077,0.0,0.0,1.40625,-9.295482295482296,1.3858363858363858,-3.3943833943833943,0.0,-1.03125,2.3125,-10.239316239316238,0.8449328449328449,-3.8485958485958487,0.0,-1.40625,3.0625,-8.842490842490843,-1.5518925518925517,-4.94017094017094,-0.9375,-1.53125,3.34375,-6.428571428571429,-1.6385836385836383,-4.264957264957265,-1.28125,-2.0625,3.625,-5.688644688644688,-1.827838827838828,-3.9670329670329667,-1.21875,-2.40625,4.0,-5.637362637362638,-2.1684981684981683,-3.525030525030525,-0.875,-2.4375,4.65625,-3.813186813186813,-7.123321123321122,-4.396825396825397,-0.8125,-1.90625,5.09375,-2.527472527472528,-6.786324786324786,-3.496947496947497,-1.40625,-1.53125,5.03125,-2.1355311355311355,-5.886446886446887,-2.263736263736264,-1.4375,-1.53125,4.96875,-2.7997557997558,-6.2283272283272275,-1.2454212454212454,-1.09375,-1.78125,5.03125,-3.766788766788767,-7.130647130647131,-0.6862026862026862,-0.59375,-1.90625,5.40625,-3.2625152625152625,-10.938949938949941,-1.7435897435897436,0.0,-1.5,5.78125,-0.8693528693528694,-11.329670329670328,-1.4224664224664223,0.0,-0.8125,5.65625,0.0,-10.849816849816849,-0.6849816849816851,0.0,-0.65625,5.34375,0.6056166056166056,-10.347985347985347,0.0,0.0,-0.875,5.125,0.0,-10.158730158730158,0.0,0.0,-0.96875,4.875,-0.7045177045177046,-9.383394383394384,0.0,0.0,-0.65625,4.6875,-1.1367521367521367,-9.887667887667888,0.6251526251526252,0.0,0.0,4.3125,0.9633699633699634,-8.22100122100122,2.062271062271062,0.0,0.8125,3.9375,3.954822954822955,-6.3186813186813175,3.0586080586080584,0.0,0.0,3.3125,4.170940170940171,-5.785103785103785,2.4420024420024418,0.0,-1.28125,2.40625,2.380952380952381,-5.328449328449328,1.1294261294261294,0.0,-1.8125,1.78125,1.1282051282051282,-3.57997557997558,0.0,0.0,-1.75,1.4375,0.5457875457875457,-2.1855921855921854,-1.3333333333333333,0.0,-1.46875,1.46875,0.0,-1.1404151404151404,-1.3516483516483515,0.0,-0.875,1.625,0.7692307692307693,-1.031746031746032,-0.6422466422466423,0.0,0.0,1.84375,3.1001221001221,-1.7081807081807079,-0.8070818070818071,0.5625,-0.5625,1.75,4.1843711843711855,-2.8046398046398044,-2.025641025641025,0.0,-0.53125,1.34375,3.748473748473749,-2.4346764346764345,-2.240537240537241,0.0,0.0,1.125,4.816849816849817,-2.0415140415140414,-1.0964590964590966,0.0,0.0,0.59375,4.516483516483516,-1.5982905982905984,-1.2991452991452992,0.0,0.0,0.0,2.8217338217338215,-1.2246642246642248,-1.4615384615384617,0.0,0.0,0.0,2.1587301587301586,0.0,-1.3907203907203909,0.0,0.0,0.0,1.0757020757020757,0.0,-1.199023199023199,0.0,0.0,0.0,-0.9682539682539684,1.1001221001221002,-0.9597069597069596,0.0,0.0,0.0,-1.752136752136752,1.31990231990232,-0.6520146520146519,0.0,0.0,0.0,0.0,0.0,0.0,0.0,0.0,0.0,0.5225885225885226,0.0,0.0,0.0,0.0,0.0,0.6385836385836385,0.0,0.0,0.0,0.0,0.0,0.0,0.0,0.0,0.0,0.0,0.0,-0.8803418803418803,0.0,0.0,0.0,0.0,0.0,-0.8925518925518926,0.0,0.7045177045177046,0.0,0.0,0.0,-0.6691086691086691,0.0,0.6739926739926739,0.0,0.0,0.0,-0.7130647130647131,0.0,0.0,0.0,0.0,0.0,-1.0525030525030523,0.0,0.0,0.0,0.0,0.0,-0.7142857142857143,0.0,0.0,0.0,0.0,0.0,0.0,0.0,0.0,0.0,0.0,0.0,0.0,0.0,0.0,0.0,0.0,0.0,0.0,0.0,0.0,0.0,0.0,0.0,0.0,0.0,0.0,0.0,0.0,0.0,0.0,0.0,0.0,0.0,0.0,0.0,0.0,0.525030525030525,0.0,0.0,0.0,0.0,0.0,0.0,0.0,0.0,0.0,0.0,0.6080586080586079,0.0,-1.0671550671550671,0.0,0.0,0.0,0.5592185592185592,0.0,-1.2087912087912087,0.0,0.0,0.0,0.0,0.0,-1.1025641025641026,0.0,0.0,0.0,0.9792429792429792,0.0,-1.2466422466422469,0.0,0.0,0.0,1.0708180708180708,-0.6727716727716728,-1.8217338217338217,-0.5625,0.0,0.0,,,,,,,,,,,,,,,,,,,,,,,,,,,,,,,,,,,,,,,,,,,,,,,,,,,,,,,,,,,,,,,,,,,,,,,,,wp_next
accX,0.0,0.5628815628815629,0.0,0.90625,0.0,-0.75,0.0,0.0,-0.8644688644688645,0.71875,0.0,-0.78125,0.0,-0.8461538461538461,-1.1489621489621489,0.0,0.0,0.0,-2.481074481074481,0.7533577533577533,-1.2637362637362637,0.0,0.0,0.0,-3.1086691086691087,1.2185592185592184,-1.363858363858364,0.0,0.0,0.0,-3.716727716727717,0.6129426129426129,-1.5421245421245422,0.0,0.0,0.0,-4.851037851037852,0.0,-2.0769230769230766,0.0,0.0,0.0,-6.462759462759463,0.7704517704517705,-2.3369963369963367,0.0,0.0,0.0,-7.937728937728938,1.1489621489621489,-2.385836385836386,0.0,0.0,0.90625,-7.6752136752136755,0.5604395604395604,-2.6166056166056166,0.0,0.0,1.5625,-7.523809523809524,0.0,-3.067155067155068,0.0,-0.625,2.15625,-7.1440781440781445,-1.2087912087912087,-3.763125763125763,0.0,-0.75,2.75,-5.693528693528694,-1.3711843711843712,-3.6495726495726495,-0.84375,-0.84375,3.28125,-5.1098901098901095,-1.4664224664224663,-3.117216117216117,-1.03125,-1.09375,3.6875,-5.214896214896215,-2.1111111111111107,-2.619047619047619,-1.0625,-1.53125,4.34375,-4.842490842490842,-4.5836385836385825,-2.9926739926739927,-1.28125,-1.625,4.5625,-4.672771672771673,-5.7655677655677655,-3.211233211233212,-1.6875,-1.46875,4.53125,-3.678876678876679,-5.485958485958487,-2.3846153846153846,-1.78125,-1.65625,4.5625,-2.5873015873015874,-6.148962148962148,-1.6202686202686205,-1.65625,-2.25,4.6875,-2.677655677655677,-6.559218559218558,-1.238095238095238,-1.3125,-2.71875,4.9375,-3.2551892551892547,-8.918192918192918,-2.3968253968253967,-1.09375,-2.5625,5.1875,-2.4932844932844933,-10.555555555555557,-3.318681318681319,-1.21875,-1.84375,5.25,-0.7741147741147741,-9.80952380952381,-2.52014652014652,-1.0,-1.4375,5.21875,0.0,-10.111111111111109,-1.9426129426129424,-0.75,-1.40625,5.3125,0.0,-9.7997557997558,-1.2173382173382172,0.0,-1.1875,5.46875,0.0,-9.905982905982906,0.0,0.0,0.0,5.375,1.757020757020757,-10.344322344322345,0.0,0.0,0.0,5.0625,2.3675213675213675,-8.971916971916972,1.4065934065934067,0.0,0.0,4.5625,2.8852258852258847,-7.435897435897436,2.37973137973138,0.0,0.0,4.1875,3.1575091575091574,-6.407814407814407,2.7545787545787546,0.0,0.0,3.6875,1.5885225885225884,-5.852258852258853,2.086691086691087,0.53125,0.0,3.3125,1.249084249084249,-5.368742368742368,1.4395604395604396,0.0,0.0,3.09375,2.532356532356532,-4.0708180708180715,0.9768009768009768,0.0,-0.53125,2.71875,2.9914529914529915,-3.6617826617826617,0.6605616605616605,0.0,-0.84375,2.34375,2.655677655677656,-3.347985347985348,0.6727716727716728,0.5625,-0.96875,2.03125,3.418803418803418,-3.2246642246642248,0.0,0.65625,-0.90625,1.8125,3.36996336996337,-2.645909645909646,-1.3772893772893773,0.59375,-0.75,1.40625,2.4993894993894994,-1.7826617826617828,-1.684981684981685,0.0,0.0,1.15625,3.664224664224663,-1.3174603174603174,-1.3247863247863247,0.0,0.0,0.96875,4.173382173382174,-1.0744810744810744,-1.7997557997557998,0.0,0.0,0.71875,3.68009768009768,-0.8473748473748474,-2.5006105006105006,0.0,0.0,0.0,3.21001221001221,-1.0293040293040292,-2.838827838827839,0.0,0.0,0.0,2.769230769230769,0.0,-2.5970695970695967,0.0,0.0,0.0,1.8803418803418803,0.6935286935286935,-2.189255189255189,0.0,0.0,0.0,0.0,1.0268620268620268,-1.915750915750916,0.0,0.0,0.0,0.0,1.0744810744810744,-1.3601953601953602,0.0,0.0,0.0,0.0,0.0,-1.266178266178266,0.0,0.0,0.0,0.6251526251526252,0.0,-1.0256410256410255,0.0,0.0,0.0,0.0,0.0,-0.8315018315018315,0.0,0.0,0.0,-1.1294261294261294,0.0,0.0,0.0,0.0,0.0,-0.9963369963369964,0.0,0.0,0.0,0.0,0.0,0.0,0.0,0.5909645909645911,0.0,0.0,0.0,0.0,-0.6959706959706959,0.6520146520146519,0.0,0.0,0.0,-0.7545787545787546,0.0,0.8840048840048841,0.0,0.0,0.0,-1.4212454212454213,0.0,1.2039072039072038,0.0,0.0,0.0,-1.2442002442002442,0.0,1.4334554334554337,0.0,0.0,0.0,-0.8058608058608059,0.0,1.177045177045177,0.0,0.0,0.0,0.0,0.0,0.5836385836385837,0.0,0.0,0.0,0.0,0.0,0.0,0.0,0.0,0.0,0.0,0.0,0.0,0.0,0.0,0.0,0.0,0.0,0.0,0.0,0.0,0.0,0.0,0.6239316239316239,0.0,0.0,0.0,0.0,0.0,0.0,-0.6556776556776557,0.0,0.0,0.0,0.6459096459096461,0.0,-1.4432234432234432,0.0,0.0,0.0,0.0,0.5115995115995116,-1.5445665445665446,0.0,0.0,0.0,0.0,0.5836385836385837,-1.2564102564102564,0.0,0.0,0.0,0.6971916971916972,0.6141636141636142,-1.3907203907203909,0.0,0.0,0.0,0.6495726495726496,0.0,-1.7496947496947497,0.0,0.0,0.0,0.8656898656898657,0.0,-1.9951159951159951,0.0,0.0,0.0,,,,,,,,,,,,,,,,,,,,,,,,,,,,,,,,,,,,,,,,,,,,,,,,,wp_next
accX,-1.1672771672771671,0.6984126984126984,-0.5311355311355311,0.0,0.0,0.0,-0.7509157509157509,0.9645909645909646,-0.5286935286935287,0.625,0.0,0.0,-0.5750915750915749,0.0,-0.7448107448107448,0.625,0.0,0.0,-0.7240537240537241,0.0,-1.6984126984126984,0.0,0.0,0.0,-0.9755799755799756,0.0,-2.145299145299145,0.0,0.0,0.0,-2.0842490842490844,1.2686202686202686,-2.23931623931624,0.0,0.0,0.0,-2.9328449328449326,1.2942612942612943,-2.52991452991453,0.0,0.0,0.0,-4.069597069597069,1.3418803418803418,-2.9890109890109886,0.0,0.0,0.0,-4.974358974358975,1.4884004884004884,-3.6495726495726495,0.0,0.0,0.6875,-5.205128205128204,1.934065934065934,-3.78998778998779,0.0,0.0,0.9375,-5.606837606837607,1.7777777777777777,-3.7020757020757022,0.0,-0.9375,1.15625,-6.471306471306471,1.2271062271062272,-3.671550671550672,0.0,-1.15625,1.59375,-5.997557997557997,0.0,-4.156288156288157,-0.90625,-1.1875,2.28125,-5.347985347985348,-0.5396825396825397,-4.021978021978022,-1.1875,-1.34375,2.6875,-5.174603174603175,-1.612942612942613,-3.8571428571428568,-1.3125,-1.375,3.09375,-5.282051282051282,-3.1282051282051277,-3.653235653235653,-1.5,-1.0625,3.46875,-4.461538461538462,-4.101343101343101,-3.2991452991452985,-1.84375,-0.9375,3.96875,-3.7008547008547015,-4.6800976800976795,-2.6324786324786325,-2.0625,-1.03125,4.4375,-2.752136752136752,-4.891330891330892,-1.3724053724053724,-1.8125,-1.21875,4.71875,-2.3553113553113554,-5.998778998778999,0.0,-1.375,-1.53125,4.96875,-2.4761904761904763,-7.567765567765567,0.0,-1.0,-1.59375,5.125,-2.122100122100122,-9.24053724053724,0.0,-1.09375,-1.40625,5.25,-1.275946275946276,-8.438339438339439,0.0,-1.21875,-1.1875,5.1875,0.0,-7.809523809523809,1.0244200244200243,0.0,-1.46875,5.03125,0.0,-8.18070818070818,0.0,0.0,-1.8125,4.8125,-0.7643467643467643,-10.177045177045176,-0.9926739926739928,0.0,-1.5625,4.375,-0.9792429792429792,-10.245421245421245,-1.5030525030525033,-0.71875,-0.9375,4.03125,0.0,-8.401709401709402,0.0,-0.65625,-0.6875,3.96875,0.0,-7.528693528693529,0.0,0.0,-0.59375,4.0,-1.0390720390720392,-6.802197802197803,1.5054945054945057,0.0,0.0,3.9375,-0.6007326007326007,-6.637362637362638,2.9206349206349205,0.0,0.0,4.0,1.1245421245421243,-7.2686202686202686,3.3626373626373627,0.0,0.0,3.84375,2.3846153846153846,-6.869352869352869,3.417582417582417,0.0,0.0,3.46875,2.6129426129426134,-5.682539682539683,3.776556776556777,0.0,-0.65625,2.90625,2.7545787545787546,-4.622710622710622,3.686202686202686,0.59375,-1.3125,2.46875,1.5604395604395604,-3.8583638583638575,0.9645909645909646,0.6875,-1.90625,2.0,1.9035409035409037,-3.023199023199023,0.0,0.6875,-1.875,1.8125,2.7765567765567765,-2.6385836385836385,-1.531135531135531,0.71875,-1.84375,1.59375,2.467643467643468,-1.9816849816849815,-2.807081807081807,0.75,-1.59375,1.375,3.096459096459097,-1.695970695970696,-3.551892551892552,0.65625,-1.15625,1.28125,4.063492063492063,-1.536019536019536,-4.074481074481073,0.59375,-0.78125,1.09375,3.5470085470085464,-0.9682539682539684,-4.126984126984127,0.0,0.0,0.875,4.024420024420024,0.0,-3.2625152625152625,0.0,0.0,0.6875,4.457875457875458,0.0,-2.9255189255189253,0.0,0.0,0.0,3.4407814407814414,0.0,-3.15995115995116,0.0,0.0,0.0,1.0231990231990231,0.5225885225885226,-2.9706959706959712,0.0,0.0,0.0,0.0,1.1404151404151404,-2.133089133089133,0.0,0.0,0.0,1.1404151404151404,0.8168498168498168,-1.5726495726495726,0.0,0.0,0.0,0.0,0.0,-1.6495726495726497,0.0,0.0,0.0,-1.4188034188034189,0.6324786324786325,-1.2783882783882785,0.0,0.0,0.0,-1.565323565323565,0.5506715506715507,-0.5677655677655677,0.0,0.0,0.0,0.0,0.0,0.0,0.0,0.0,0.0,0.0,-0.5897435897435898,0.7631257631257631,0.0,0.0,0.0,0.0,-0.912087912087912,1.4224664224664223,0.0,0.0,0.0,0.0,-1.0549450549450552,1.8217338217338217,0.0,0.0,0.0,0.0,-0.7912087912087912,1.9230769230769231,0.0,0.0,0.0,0.0,-0.5347985347985348,1.3577533577533578,0.0,0.0,0.0,0.0,0.0,0.9169719169719168,0.0,-0.53125,0.0,-1.4566544566544566,0.0,0.0,0.0,0.0,0.0,-0.5091575091575091,0.8461538461538461,0.0,0.0,0.0,0.0,0.0,0.0,0.0,0.0,0.0,0.0,0.0,0.0,0.0,0.0,0.0,0.0,-0.6251526251526252,0.5274725274725275,-0.8290598290598291,0.0,0.0,0.0,0.0,0.0,-0.8937728937728938,0.0,0.0,0.0,0.0,0.0,-0.9902319902319904,0.0,0.0,0.0,0.7301587301587301,0.0,-1.3577533577533578,0.0,0.0,0.0,0.6666666666666666,0.0,-1.7753357753357752,0.0,0.0,0.0,0.0,0.0,-1.9377289377289375,0.0,0.0,0.0,0.0,0.0,-2.1819291819291817,0.0,0.0,0.0,,,,,,,,,,,,,,,,,,,,,,,,,,,,,,,,,,,,,,,,,,,,,,,,,wp_next
accX,0.0,0.0,-0.9792429792429792,0.0,0.0,0.0,0.0,0.0,-0.9169719169719168,0.0,0.0,-0.5625,-0.8315018315018315,1.293040293040293,-0.5409035409035409,0.0,0.0,-0.6875,-1.3174603174603174,0.5115995115995116,-1.2161172161172158,0.0,-0.5625,-0.65625,-3.936507936507936,0.0,-2.3382173382173383,0.0,-0.625,-0.65625,-7.258852258852259,1.0989010989010992,-2.518925518925519,0.0,0.0,0.0,-8.578754578754578,1.8327228327228329,-2.3504273504273505,0.0,0.0,0.9375,-9.421245421245422,1.2356532356532357,-2.868131868131868,0.0,0.0,1.4375,-10.6007326007326,1.2686202686202686,-3.245421245421245,0.0,-0.625,2.15625,-10.384615384615383,0.0,-3.9816849816849818,0.0,-1.0625,2.78125,-9.063492063492065,0.0,-4.075702075702075,-0.75,-1.4375,3.40625,-8.573870573870574,-1.3186813186813189,-3.874236874236874,-0.9375,-1.46875,3.96875,-7.742368742368742,-2.3492063492063493,-3.096459096459097,-1.0,-1.40625,4.625,-5.918192918192919,-3.9072039072039066,-2.505494505494505,-1.03125,-1.65625,5.34375,-4.7936507936507935,-5.507936507936507,-2.3223443223443225,-0.84375,-1.84375,5.625,-4.4664224664224665,-8.007326007326007,-2.652014652014652,-0.90625,-1.78125,5.59375,-2.7326007326007327,-9.213675213675213,-2.5726495726495733,-1.21875,-1.8125,5.46875,-1.5006105006105006,-11.018315018315016,-2.9975579975579976,-1.84375,-1.9375,5.09375,-0.8339438339438342,-9.137973137973137,-0.9694749694749696,-1.625,-1.90625,5.0,-1.2136752136752136,-9.196581196581196,0.0,-1.0625,-1.8125,5.125,-1.1404151404151404,-9.633699633699633,0.0,0.0,-1.65625,5.40625,-0.7301587301587301,-11.224664224664226,-0.8559218559218559,0.0,-1.40625,5.46875,0.0,-10.75946275946276,-1.2637362637362637,0.0,-1.0,5.25,0.0,-9.288156288156287,-0.8913308913308914,0.0,-0.625,5.0625,0.0,-8.59096459096459,0.0,0.0,0.0,4.8125,0.0,-8.278388278388281,0.0,0.0,0.0,4.78125,0.0,-7.748473748473748,1.0842490842490842,0.0,0.0,4.65625,1.1587301587301588,-7.034188034188035,1.277167277167277,0.0,0.0,4.3125,0.811965811965812,-6.485958485958487,1.2173382173382172,0.0,0.0,3.90625,1.4432234432234432,-5.627594627594628,1.623931623931624,0.0,0.0,3.40625,3.3406593406593412,-5.211233211233211,1.3040293040293038,0.0,-0.78125,2.8125,4.537240537240537,-5.1562881562881575,0.0,0.0,-1.46875,2.0625,3.3296703296703303,-4.094017094017094,-0.8571428571428571,0.0,-1.65625,1.53125,2.9829059829059825,-2.934065934065934,-1.1013431013431014,0.0,-1.375,1.3125,3.664224664224663,-2.1111111111111107,-1.6776556776556777,0.0,-1.15625,1.125,4.175824175824176,-1.844932844932845,-2.039072039072039,0.0,-1.03125,0.78125,4.003663003663004,-1.1623931623931625,-2.518925518925519,0.0,-0.8125,0.5625,2.934065934065934,-0.8107448107448108,-2.8937728937728937,0.0,0.0,0.0,3.4236874236874235,0.0,-2.145299145299145,0.0,0.0,0.0,3.6971916971916974,0.0,-1.7582417582417582,0.0,0.0,0.0,2.8363858363858365,0.0,-1.6971916971916972,0.0,0.0,0.0,0.6654456654456654,0.0,-0.6898656898656899,0.0,0.0,0.0,0.6959706959706959,0.0,-0.6227106227106227,0.0,0.0,0.0,0.0,0.0,0.0,0.0,0.0,0.0,0.0,0.0,0.0,0.0,0.0,0.0,0.0,0.0,0.0,0.0,0.0,0.0,0.0,0.0,0.0,0.0,0.0,0.0,-0.5128205128205128,0.0,0.0,0.0,0.0,0.0,0.0,0.0,0.0,0.0,0.0,0.0,0.0,0.0,0.0,0.0,0.0,0.0,0.0,0.0,0.0,0.0,0.0,0.0,0.0,0.0,0.0,0.0,0.0,0.0,0.0,0.0,0.0,0.0,0.0,0.0,0.0,0.0,0.0,0.0,0.0,0.0,-0.57997557997558,0.0,0.0,0.0,0.0,0.0,-0.8070818070818071,0.0,0.0,0.0,0.0,0.0,0.0,0.0,0.0,0.0,0.0,0.0,0.536019536019536,0.0,0.0,0.0,0.0,0.0,0.0,0.0,0.0,0.0,0.0,0.0,0.0,0.0,0.0,0.0,0.0,0.0,0.0,0.0,0.0,0.0,0.0,0.0,0.6166056166056166,0.0,-0.7179487179487181,0.0,0.0,0.0,0.0,0.0,-0.7606837606837606,0.0,0.0,0.0,0.0,0.0,0.0,0.0,0.0,0.0,0.0,0.0,0.0,0.0,0.0,0.0,0.0,0.0,-0.8229548229548229,0.0,0.0,0.0,,,,,,,,,,,,,,,,,,,,,,,,,,,,,,,,,,,,,,,,,,,,,,,,,,,,,,,,,,,,,,,,,,,wp_next
accX,-1.120879120879121,0.8791208791208791,-1.0134310134310134,0.0,0.0,0.0,-0.5787545787545788,0.9621489621489622,-1.105006105006105,0.0,0.0,0.0,-0.7960927960927959,0.0,-1.5494505494505495,0.0,0.0,-0.65625,-1.68986568986569,0.0,-2.0488400488400487,0.0,-0.53125,-0.90625,-3.571428571428572,0.0,-2.2210012210012207,0.0,-0.5625,0.0,-8.026862026862027,1.5531135531135531,-2.0525030525030523,0.0,-0.53125,0.59375,-9.532356532356532,1.2210012210012209,-2.3663003663003663,0.0,0.0,0.84375,-11.713064713064714,0.6752136752136753,-2.8412698412698414,0.0,0.0,1.65625,-11.324786324786324,0.0,-2.7997557997558,0.0,0.0,2.8125,-9.366300366300367,0.0,-2.4420024420024418,-0.65625,0.0,3.71875,-7.269841269841269,-1.4713064713064714,-2.213675213675214,-0.65625,-0.65625,4.09375,-5.630036630036631,-2.7643467643467643,-2.6166056166056166,-0.5625,-1.28125,4.21875,-5.548229548229548,-4.587301587301587,-3.632478632478633,-1.09375,-1.8125,4.375,-5.416361416361417,-4.417582417582418,-3.4236874236874235,-1.75,-1.9375,4.65625,-4.987789987789989,-3.6105006105006106,-2.4920634920634916,-1.71875,-1.875,5.0,-3.4627594627594624,-4.34065934065934,-1.827838827838828,-1.0625,-2.09375,5.34375,-3.695970695970696,-7.654456654456655,-3.267399267399268,0.0,-2.53125,5.71875,-4.493284493284493,-9.946275946275946,-4.504273504273504,-1.25,-1.84375,5.65625,-3.804639804639805,-9.44932844932845,-3.4420024420024418,-1.4375,-1.21875,5.71875,-2.467643467643468,-9.376068376068378,-1.9059829059829057,-1.0625,-1.0625,5.65625,-1.6019536019536018,-9.757020757020758,-0.757020757020757,-0.5625,-1.28125,5.625,-0.7411477411477412,-9.404151404151404,0.6764346764346765,0.0,-1.6875,5.6875,-1.4737484737484738,-11.548229548229546,0.0,0.0,-1.5,5.5,-1.0744810744810744,-11.959706959706962,-0.7338217338217338,0.0,-0.71875,5.03125,0.0,-11.201465201465199,-0.8656898656898657,0.0,0.0,4.71875,1.2612942612942613,-9.212454212454213,0.0,0.0,0.0,4.34375,0.0,-7.428571428571429,0.5665445665445665,0.0,0.0,4.09375,-0.7313797313797313,-6.11965811965812,1.6007326007326008,0.0,0.0,4.03125,2.061050061050061,-6.212454212454213,2.374847374847375,0.0,0.0,3.9375,3.776556776556777,-5.847374847374848,2.067155067155068,0.0,0.0,3.46875,3.7142857142857135,-4.964590964590965,1.9572649572649568,0.0,-0.96875,2.8125,3.7802197802197797,-4.478632478632479,1.6825396825396826,0.0,-1.53125,2.25,3.7118437118437115,-3.936507936507936,0.0,0.0,-1.78125,1.6875,3.936507936507936,-2.909645909645909,-1.1697191697191698,0.0,-1.71875,1.3125,3.5628815628815627,-2.2857142857142856,-1.868131868131868,0.0,-1.375,1.09375,3.9169719169719173,-1.7557997557997558,-1.6544566544566544,0.0,-0.8125,1.09375,5.05006105006105,-1.9365079365079363,-1.5995115995115996,0.0,0.0,1.0,5.345543345543344,-1.6581196581196582,-1.73992673992674,0.0,0.0,0.625,4.537240537240537,-0.9242979242979243,-1.8754578754578757,0.0,0.0,0.0,3.81929181929182,0.0,-2.3076923076923075,0.0,0.0,0.0,2.5225885225885225,0.0,-2.752136752136752,0.0,0.0,0.0,1.2014652014652014,0.6898656898656899,-2.4444444444444446,0.0,0.0,0.0,0.0,0.8315018315018315,-1.684981684981685,0.0,0.0,0.0,0.0,1.065934065934066,-0.8791208791208791,0.0,0.0,0.0,0.0,0.6837606837606838,0.0,0.0,0.0,0.0,-0.5262515262515263,0.0,0.0,0.0,0.0,0.0,-0.6349206349206349,0.0,0.0,0.0,0.0,0.0,0.0,0.0,0.0,0.0,0.0,0.0,0.0,0.0,0.0,0.0,0.0,0.0,0.0,0.0,0.0,0.0,0.0,0.0,0.0,0.0,0.6947496947496947,0.0,0.0,0.0,-0.514041514041514,0.0,0.0,0.0,0.0,0.0,0.0,0.0,0.0,0.0,0.0,0.0,0.0,0.0,0.0,0.0,0.0,0.0,0.0,0.0,0.0,0.0,0.0,0.0,0.0,0.0,0.0,0.0,0.0,0.0,0.0,0.0,0.0,0.0,0.0,0.0,0.0,0.0,0.0,0.0,0.0,0.0,0.0,0.0,0.0,0.0,0.0,0.0,0.0,0.0,0.0,0.0,0.0,0.0,0.0,0.5494505494505495,0.0,0.0,0.0,0.0,0.0,0.0,0.0,0.0,0.0,0.0,0.0,0.0,0.0,0.0,0.0,0.0,0.0,0.0,-0.6581196581196581,0.0,0.0,0.0,0.7728937728937729,0.0,-1.1123321123321124,0.0,0.0,0.0,,,,,,,,,,,,,,,,,,,,,,,,,,,,,,,,,,,,,,,,,,,,,,,,,,,,,,,,,,,,,,,,,,,,,,,,,wp_next
accX,0.0,0.0,-0.5079365079365079,0.0,0.0,0.0,-0.557997557997558,0.7313797313797313,-1.1306471306471306,0.0,0.0,0.0,0.0,1.1575091575091576,-0.9108669108669109,0.53125,0.0,0.0,-1.195360195360195,0.0,-1.2918192918192921,0.78125,0.0,0.0,-1.7728937728937728,0.0,-1.989010989010989,0.8125,0.0,0.0,-1.8547008547008548,0.0,-2.4517704517704515,0.0,0.0,0.0,-3.766788766788767,0.6495726495726496,-2.829059829059829,0.0,0.0,0.0,-5.83028083028083,1.1684981684981686,-3.2954822954822958,0.0,0.0,0.0,-7.190476190476191,0.7936507936507936,-3.782661782661783,0.0,0.0,0.84375,-7.664224664224664,0.0,-3.88034188034188,0.0,0.0,1.5,-7.407814407814407,-0.5470085470085471,-3.5885225885225887,-1.0625,-0.6875,2.03125,-7.7936507936507935,0.0,-2.934065934065934,-1.15625,-0.875,2.5625,-8.03052503052503,-0.9413919413919414,-2.7301587301587302,-1.15625,-0.8125,3.25,-6.5225885225885225,-2.4273504273504267,-2.5531135531135534,-1.25,-0.96875,3.84375,-4.623931623931624,-3.527472527472528,-2.2954822954822958,-1.4375,-1.625,4.28125,-4.992673992673993,-3.776556776556777,-2.235653235653236,-1.40625,-2.0625,4.6875,-4.938949938949938,-4.024420024420024,-2.0573870573870567,-0.875,-2.03125,4.96875,-4.8852258852258865,-5.882783882783882,-2.47985347985348,-0.65625,-1.9375,5.34375,-4.652014652014652,-9.130647130647132,-3.5921855921855923,-1.3125,-1.5625,5.40625,-3.8766788766788767,-9.250305250305251,-3.1245421245421245,-1.90625,-1.34375,5.9375,-2.7228327228327234,-7.622710622710622,-0.7643467643467643,-1.0625,-1.125,6.0625,-2.4993894993894994,-9.417582417582418,-0.5909645909645911,0.0,-1.03125,6.40625,-1.7216117216117215,-12.978021978021976,-2.023199023199023,0.0,-0.6875,6.1875,-0.7851037851037851,-11.675213675213676,-1.4578754578754578,-0.78125,0.0,5.78125,0.0,-9.810744810744813,0.0,-1.03125,0.0,5.53125,0.0,-9.08058608058608,0.7106227106227107,-0.6875,0.0,5.15625,1.0463980463980465,-8.851037851037852,0.7423687423687424,0.0,-0.65625,4.8125,0.0,-9.483516483516485,0.0,0.0,-1.0,4.34375,0.5006105006105006,-8.354090354090356,0.7264957264957265,-0.59375,-0.75,3.90625,0.6837606837606838,-6.457875457875457,1.1526251526251523,-0.59375,-0.65625,3.6875,0.7765567765567766,-5.676434676434678,1.8461538461538465,0.0,-0.65625,3.5,1.5909645909645909,-5.311355311355311,2.347985347985348,0.0,-0.96875,3.0,2.063492063492064,-5.0085470085470085,2.0573870573870567,0.0,-1.53125,2.65625,1.3479853479853479,-4.785103785103785,0.514041514041514,0.0,-1.71875,2.3125,0.0,-3.4871794871794872,0.0,0.0,-1.5625,2.1875,0.0,-2.4737484737484743,0.0,0.0,-1.21875,2.09375,0.8095238095238095,-2.3846153846153846,0.0,0.625,-0.84375,2.03125,1.2954822954822955,-2.559218559218559,-0.5335775335775336,0.625,-0.59375,1.9375,3.2185592185592187,-2.6581196581196584,-1.0476190476190477,0.0,-0.625,1.6875,4.483516483516484,-2.230769230769231,-1.3406593406593406,0.0,-0.84375,1.25,4.768009768009769,-1.8217338217338217,-1.5396825396825398,0.0,-0.9375,0.9375,4.666666666666667,-1.4395604395604396,-2.383394383394384,0.53125,-0.625,0.65625,5.351648351648351,-1.6825396825396826,-3.3284493284493286,0.0,0.0,0.0,2.9682539682539684,0.0,-3.1672771672771667,0.0,0.0,0.0,1.1538461538461535,0.851037851037851,-2.4737484737484743,0.0,0.0,0.0,0.0,1.3064713064713065,-1.6214896214896215,0.0,0.0,0.0,0.0,0.7460317460317459,-1.3125763125763126,0.0,0.0,0.0,0.0,0.0,-1.0183150183150182,0.0,0.0,0.0,0.0,0.0,0.0,0.0,0.0,0.0,-1.1684981684981686,0.0,0.0,0.0,0.0,0.0,-1.7216117216117215,0.7631257631257631,0.7313797313797313,0.0,0.0,0.0,-1.126984126984127,0.0,0.7203907203907204,0.0,0.0,0.0,-0.63003663003663,-0.7130647130647131,0.0,0.0,0.0,0.0,-0.6837606837606838,0.0,0.0,0.0,0.0,0.0,-0.7985347985347986,0.0,0.0,0.0,0.0,0.0,0.0,0.0,0.0,0.0,0.0,0.0,0.0,0.0,0.0,0.0,0.0,0.0,0.0,0.0,0.0,0.0,0.0,0.0,0.0,0.0,0.0,0.0,0.0,0.0,0.0,0.0,0.0,0.0,0.0,0.0,0.0,0.0,0.0,0.0,0.0,0.0,0.0,0.0,0.0,0.0,0.0,0.0,0.0,0.0,-0.5518925518925519,0.0,0.0,0.0,0.0,0.0,-0.6080586080586079,0.0,0.0,0.0,0.9352869352869352,0.0,-0.7130647130647131,0.0,0.0,0.0,0.8803418803418803,0.0,-0.9975579975579976,0.0,0.0,0.0,1.1074481074481075,0.0,-1.5286935286935286,0.0,0.0,0.0,,,,,,,,,,,,,,,,,,,,,,,,,,,,,,,,,,,,,,,,,,,,,,,,,,,,,,,,,,,,,wp_next
accX,-1.9658119658119655,1.0683760683760684,0.0,0.59375,0.0,0.0,-1.7875457875457876,0.7374847374847375,-0.8131868131868132,0.625,0.0,0.0,-2.5286935286935286,0.6202686202686203,-1.6312576312576312,0.0,0.0,0.0,-3.7387057387057383,1.0366300366300367,-1.7753357753357752,0.0,0.0,0.0,-5.273504273504273,1.5189255189255189,-2.2124542124542126,0.0,0.0,0.0,-6.8962148962148975,0.9902319902319904,-3.1526251526251525,0.0,0.0,0.53125,-9.0989010989011,0.0,-4.317460317460317,0.0,-0.6875,1.34375,-11.109890109890111,0.8778998778998779,-4.515262515262514,-0.78125,-1.25,2.1875,-11.938949938949941,1.8131868131868127,-3.7191697191697193,-0.625,-1.34375,3.09375,-11.195360195360196,0.6727716727716728,-3.5396825396825395,0.0,-1.15625,4.625,-6.0537240537240535,-5.338217338217338,-4.5445665445665435,-1.0625,-1.21875,4.71875,-4.673992673992673,-4.338217338217338,-2.6043956043956045,-1.96875,-1.6875,4.65625,-4.295482295482295,-4.037851037851038,-1.5335775335775337,-1.96875,-2.125,4.6875,-2.924297924297924,-4.3699633699633695,-0.6910866910866911,-1.375,-2.34375,4.84375,-1.978021978021978,-5.6190476190476195,-0.8327228327228328,-0.5625,-2.6875,5.125,-2.6361416361416357,-8.592185592185592,-2.6727716727716726,0.0,-2.71875,5.125,-2.9462759462759465,-8.623931623931622,-2.6092796092796093,-0.6875,-2.1875,4.96875,-2.1147741147741153,-7.445665445665447,-1.1855921855921856,-0.78125,-1.6875,5.15625,-0.9023199023199024,-7.653235653235654,0.0,0.0,-1.65625,5.21875,-2.293040293040293,-7.448107448107447,0.0,0.0,-1.96875,5.25,-3.58974358974359,-8.493284493284493,0.0,0.0,-2.15625,5.75,-2.7985347985347984,-9.863247863247864,-0.7716727716727717,0.0,-1.65625,5.8125,-1.194139194139194,-9.771672771672772,-1.0537240537240538,0.0,-1.40625,5.40625,0.0,-9.465201465201462,-1.1916971916971917,0.0,-1.5625,5.09375,-0.5860805860805861,-8.772893772893774,-0.9389499389499391,0.53125,-1.40625,4.78125,0.0,-8.50915750915751,-0.8058608058608059,0.75,-0.78125,4.5625,0.0,-8.717948717948719,-0.7545787545787546,0.75,0.0,4.375,0.63003663003663,-7.777777777777778,0.0,0.59375,0.53125,4.03125,2.8583638583638584,-6.641025641025642,1.4761904761904765,0.59375,0.53125,3.65625,4.702075702075702,-5.965811965811965,1.6727716727716728,0.65625,0.0,3.0625,5.557997557997558,-5.9291819291819285,1.1892551892551892,0.0,-0.75,2.25,5.543345543345543,-5.083028083028083,0.0,0.0,-1.125,1.46875,4.7606837606837615,-3.57997557997558,-0.6520146520146519,0.0,-1.1875,1.0,2.388278388278388,-0.9987789987789988,-0.6776556776556777,0.0,-0.65625,0.84375,3.117216117216117,-1.0573870573870574,-1.115995115995116,0.0,0.0,0.90625,3.417582417582417,-1.363858363858364,-2.2979242979242978,0.0,0.0,0.71875,3.4713064713064714,-1.2039072039072038,-2.6996336996337003,0.0,0.0,0.5625,3.514041514041514,0.0,-2.3369963369963367,0.0,0.0,0.0,2.9853479853479854,0.0,-2.299145299145299,0.0,0.0,0.0,1.9645909645909645,0.0,-2.21978021978022,0.0,0.0,0.0,1.1636141636141637,0.0,-1.8058608058608057,0.0,0.0,0.0,1.2173382173382172,0.514041514041514,-0.9242979242979243,0.0,0.0,0.0,1.6043956043956045,0.0,0.0,0.0,0.0,0.0,1.0146520146520146,0.0,0.0,0.0,0.0,0.0,0.0,0.0,-0.6849816849816851,0.0,0.0,0.0,-0.7020757020757019,0.0,-0.6642246642246642,0.0,0.0,0.0,-1.1257631257631258,0.6984126984126984,0.0,0.0,0.0,0.0,-0.6947496947496947,0.0,0.7619047619047619,0.0,0.0,0.0,0.0,0.0,1.1636141636141637,0.0,0.0,0.0,0.0,0.0,0.9316239316239316,0.0,0.0,0.0,0.0,0.0,0.8241758241758241,0.0,0.0,0.0,-0.6373626373626373,0.0,0.6324786324786325,0.0,0.0,0.0,-0.5274725274725275,0.0,0.6996336996336996,0.0,0.0,0.0,-0.5616605616605617,0.0,0.557997557997558,0.0,0.0,0.0,0.0,0.0,0.0,0.0,0.0,0.0,0.0,0.0,0.0,0.0,0.0,0.0,0.0,0.0,0.0,0.0,0.0,0.0,0.0,0.6434676434676435,0.0,0.0,0.0,0.0,0.0,0.0,0.0,0.0,0.0,0.0,0.7851037851037851,0.0,-0.5604395604395604,0.0,0.0,0.0,0.0,0.0,-0.9462759462759462,0.0,0.0,0.0,0.0,0.0,-0.8595848595848596,0.0,0.0,0.0,0.6532356532356532,0.0,-1.1123321123321124,0.0,0.0,0.0,0.0,0.0,-1.7167277167277166,0.0,0.0,0.0,,,,,,,,,,,,,,,,,,,,,,,,,,,,,,,,,,,,,,,,,,,,,,,,,,,,,,,,,,,,,,,,,,,,,,,,,,,,,,,wp_next
accX,-1.525030525030525,1.5970695970695972,0.0,0.78125,0.0,0.0,-0.5970695970695971,0.0,-0.7081807081807082,0.96875,0.0,0.0,-0.811965811965812,0.0,-1.2637362637362637,0.0,0.0,0.0,-2.5824175824175826,0.0,-1.3663003663003663,0.0,-0.5625,0.0,-5.604395604395603,1.557997557997558,-1.4126984126984128,0.0,0.0,0.0,-7.7533577533577525,2.126984126984127,-1.9206349206349207,0.0,0.0,1.09375,-8.383394383394384,1.5518925518925517,-2.1001221001221,0.0,0.0,1.53125,-8.797313797313796,1.413919413919414,-2.155067155067155,0.0,0.0,1.90625,-8.935286935286936,0.9230769230769232,-2.556776556776557,0.0,-0.8125,2.4375,-8.473748473748474,0.0,-2.95970695970696,0.0,-1.03125,3.09375,-7.338217338217338,-1.021978021978022,-2.9890109890109886,0.0,-1.3125,3.59375,-6.423687423687423,-1.7301587301587302,-2.4896214896214897,-0.65625,-1.75,4.09375,-5.5115995115995124,-2.3650793650793656,-2.236874236874237,-0.53125,-2.15625,4.40625,-5.177045177045176,-5.304029304029304,-3.3907203907203907,-0.90625,-2.09375,4.40625,-3.937728937728938,-4.94993894993895,-1.6996336996336996,-0.90625,-2.0625,4.65625,-3.1245421245421245,-4.714285714285714,-0.9377289377289376,-0.53125,-2.3125,5.03125,-3.2185592185592187,-6.09035409035409,-1.0036630036630036,0.0,-2.59375,5.34375,-5.278388278388278,-10.072039072039072,-2.6178266178266183,0.0,-2.125,5.34375,-3.120879120879121,-10.498168498168498,-2.3003663003662997,0.0,-0.9375,5.34375,-1.0915750915750917,-9.404151404151404,-1.0036630036630036,-0.75,-0.65625,5.4375,0.0,-9.527472527472527,0.0,0.0,-0.96875,5.34375,0.0,-9.733821733821733,-0.6544566544566545,0.0,-1.25,5.21875,0.0,-10.714285714285714,-1.5177045177045176,0.0,-1.09375,5.09375,0.6593406593406593,-10.224664224664224,-1.5641025641025639,0.0,-0.59375,4.90625,1.7191697191697193,-8.908424908424909,-1.2722832722832722,0.0,0.0,4.71875,2.0134310134310134,-7.975579975579977,-0.7228327228327228,0.0,0.0,4.25,1.4456654456654456,-6.914529914529915,0.0,0.0,0.0,3.75,0.0,-5.554334554334553,0.6068376068376068,0.0,0.0,3.53125,1.2173382173382172,-5.112332112332112,1.2612942612942613,0.0,0.0,3.28125,3.2051282051282053,-5.0024420024420015,1.0634920634920637,0.0,0.0,2.6875,3.8571428571428568,-4.768009768009769,0.0,0.0,-0.96875,1.96875,2.3003663003662997,-3.9072039072039066,0.0,0.0,-1.0,1.59375,2.3040293040293043,-2.5677655677655684,0.0,0.0,-0.9375,1.5,3.1819291819291817,-2.2234432234432235,0.0,0.0,-0.9375,1.3125,3.5445665445665444,-1.9377289377289375,-1.0989010989010992,0.0,-0.75,1.125,3.1941391941391943,-1.623931623931624,-1.5091575091575091,0.0,0.0,1.0,3.9096459096459095,-1.5054945054945057,-1.4285714285714286,0.0,0.0,0.78125,4.811965811965811,-1.4432234432234432,-1.463980463980464,0.0,0.0,0.0,2.595848595848596,0.0,-1.6691086691086692,0.0,0.0,0.0,2.3650793650793656,0.0,-1.6422466422466422,0.0,0.0,0.0,1.5714285714285714,0.0,-1.4432234432234432,0.0,0.0,0.0,0.7716727716727717,0.6727716727716728,-1.120879120879121,0.0,0.0,0.0,0.0,0.6190476190476191,-1.1807081807081807,0.0,0.0,0.0,0.0,0.0,-1.006105006105006,0.0,0.0,0.0,0.0,0.0,0.0,0.0,0.0,0.0,0.0,0.0,0.0,0.0,0.0,0.0,0.0,0.0,0.0,0.0,0.0,0.0,-0.6776556776556777,0.0,0.0,0.0,0.0,0.0,-0.8901098901098901,0.0,0.5677655677655677,0.0,0.0,0.0,-0.6361416361416361,0.0,0.5604395604395604,0.0,0.0,0.0,-0.7741147741147741,0.0,0.0,0.0,0.0,0.0,-0.6214896214896215,0.0,0.0,0.0,0.0,0.0,0.0,0.0,0.0,0.0,0.0,0.0,0.0,0.0,0.0,0.0,0.0,0.0,0.0,0.0,0.0,0.0,0.0,0.0,0.0,0.0,0.0,0.0,0.0,0.0,0.0,0.0,0.0,0.0,0.0,0.0,0.8412698412698413,0.0,0.0,0.0,0.0,0.0,0.518925518925519,0.0,-0.6605616605616605,0.0,0.0,0.0,0.0,0.0,-0.7533577533577533,0.0,0.0,0.0,0.0,0.0,-0.9816849816849816,0.0,0.0,0.0,0.8192918192918193,0.0,-1.336996336996337,0.0,0.0,0.0,0.8351648351648352,0.0,-1.3150183150183148,0.0,0.0,0.0,0.8266178266178266,0.0,-1.5567765567765568,0.0,0.0,0.0,,,,,,,,,,,,,,,,,,,,,,,,,,,,,,,,,,,,,,,,,,,,,,,,,,,,,,,,,,,,,,,,,,,,,,,,,,,,,,,wp_next
accX,-0.934065934065934,0.7936507936507936,0.0,0.6875,0.0,-0.71875,-1.6202686202686205,0.9987789987789988,-0.5665445665445665,0.5625,0.0,0.0,-2.4566544566544573,0.6239316239316239,-1.31013431013431,0.0,0.0,0.0,-3.84981684981685,1.275946275946276,-2.3846153846153846,0.0,0.0,0.0,-5.824175824175824,1.6984126984126984,-2.8669108669108665,0.0,0.0,0.875,-7.315018315018316,2.145299145299145,-2.4932844932844933,0.0,0.0,1.53125,-7.568986568986569,0.9487179487179488,-2.1611721611721606,0.0,0.0,1.90625,-7.568986568986569,0.9010989010989012,-2.31013431013431,0.0,-0.6875,2.21875,-7.6984126984126995,0.9633699633699634,-2.614163614163614,0.0,-1.21875,2.46875,-7.192918192918192,-0.5128205128205128,-2.9975579975579976,0.0,-1.59375,2.8125,-5.979242979242978,-2.311355311355311,-3.638583638583639,-0.5625,-1.8125,3.09375,-5.871794871794871,-2.5689865689865687,-3.383394383394384,-1.09375,-1.9375,3.375,-4.8852258852258865,-2.393162393162393,-2.6581196581196584,-1.3125,-1.9375,3.875,-3.7545787545787546,-3.3626373626373627,-1.9951159951159951,-1.09375,-2.03125,4.21875,-3.926739926739927,-3.9230769230769234,-1.6825396825396826,-0.875,-2.5,4.65625,-3.8083028083028077,-7.173382173382174,-3.2466422466422467,0.0,-2.71875,4.875,-1.9609279609279608,-8.853479853479854,-4.355311355311355,-0.8125,-2.375,4.6875,-0.6923076923076923,-7.705738705738707,-3.4725274725274726,-1.125,-2.25,4.5625,-0.956043956043956,-7.421245421245421,-2.873015873015873,-0.75,-2.1875,4.5625,-1.7411477411477412,-7.183150183150183,-1.967032967032967,0.0,-1.96875,4.90625,-2.283272283272283,-9.333333333333334,-2.5946275946275947,0.0,-1.3125,5.03125,-0.8241758241758241,-10.49084249084249,-3.025641025641025,0.0,0.0,4.75,0.8156288156288156,-9.134310134310132,-1.5811965811965811,-0.5625,0.0,4.59375,1.0915750915750917,-8.184371184371184,-0.818070818070818,0.0,0.0,4.375,0.0,-7.459096459096459,0.0,0.0,0.0,4.25,-0.63003663003663,-7.0305250305250295,0.5506715506715507,0.0,0.0,4.1875,0.0,-6.9230769230769225,1.0622710622710625,0.0,0.0,3.96875,0.0,-6.004884004884005,1.474969474969475,0.0,0.0,3.6875,0.0,-4.9291819291819285,2.067155067155068,0.0,0.0,3.46875,1.8424908424908424,-4.641025641025641,1.5018315018315018,0.0,-0.75,3.0625,2.010989010989011,-4.796092796092796,0.57997557997558,0.0,-1.21875,2.6875,2.2503052503052503,-4.422466422466423,0.0,0.0,-1.28125,2.1875,3.115995115995116,-3.4236874236874235,0.0,0.0,-1.25,1.875,4.106227106227107,-3.0048840048840044,0.0,0.5625,-1.25,1.5,3.968253968253968,-2.3076923076923075,-1.155067155067155,0.65625,-1.34375,1.15625,3.727716727716728,-1.8827838827838828,-1.844932844932845,0.625,-1.1875,0.96875,3.8058608058608057,-1.52014652014652,-2.183150183150183,0.0,-0.78125,0.75,3.155067155067155,-0.6275946275946276,-1.9169719169719168,0.0,0.0,0.59375,2.11965811965812,0.0,-1.4945054945054943,0.0,0.0,0.5625,2.4017094017094016,0.0,-0.9157509157509156,0.0,0.0,0.5625,3.0061050061050065,0.0,-1.3699633699633702,0.0,0.0,0.0,2.294261294261294,0.0,-2.2564102564102564,0.0,0.0,0.0,1.7179487179487178,0.0,-2.2344322344322345,0.0,0.0,0.0,1.6275946275946276,0.0,-1.343101343101343,0.0,0.0,0.0,0.9621489621489622,0.0,-0.9865689865689866,0.0,0.0,0.0,0.0,0.6678876678876678,-0.8559218559218559,0.0,0.0,0.0,0.0,0.0,-0.6764346764346765,0.0,0.0,0.0,0.0,0.0,0.0,0.0,0.0,0.0,0.0,0.0,0.0,0.0,0.0,0.0,-0.7008547008547008,0.0,0.0,0.0,0.0,0.0,-1.5054945054945057,0.0,0.0,0.0,0.0,0.0,-1.363858363858364,0.0,0.5177045177045178,0.0,0.0,0.0,0.0,0.0,0.0,0.0,0.0,0.0,0.0,-0.5738705738705738,0.0,0.0,0.0,0.0,0.0,0.0,0.0,0.0,0.0,0.0,-0.8070818070818071,0.0,0.0,0.0,0.0,0.0,-0.7680097680097681,0.0,0.0,0.0,0.0,0.0,0.0,0.0,0.5091575091575091,0.0,0.0,0.0,0.0,0.0,0.0,0.0,0.0,0.0,0.0,0.0,0.0,0.0,0.0,0.0,0.0,0.0,0.0,0.0,0.0,0.0,0.7948717948717948,0.0,0.0,0.0,0.0,0.0,0.0,0.0,0.0,0.0,0.0,0.0,0.0,0.7008547008547008,0.0,0.0,0.0,0.0,0.0,0.5054945054945055,0.0,0.0,0.0,0.0,0.0,0.0,-0.94993894993895,0.0,0.0,0.0,0.8400488400488401,0.0,-1.6874236874236874,0.0,0.0,0.0,1.2673992673992671,0.0,-1.978021978021978,0.0,0.0,0.0,1.702075702075702,-0.6275946275946276,-1.9426129426129424,0.0,0.0,0.0,,,,,,,,,,,,,,,,,,,,,,,,,,,,,,,,,,,,,,,,,,,,,,,,,wp_next
