,00_accX,00_accY,00_accZ,00_gyroX,00_gyroY,00_gyroZ,01_accX,01_accY,01_accZ,01_gyroX,01_gyroY,01_gyroZ,02_accX,02_accY,02_accZ,02_gyroX,02_gyroY,02_gyroZ,03_accX,03_accY,03_accZ,03_gyroX,03_gyroY,03_gyroZ,04_accX,04_accY,04_accZ,04_gyroX,04_gyroY,04_gyroZ,05_accX,05_accY,05_accZ,05_gyroX,05_gyroY,05_gyroZ,06_accX,06_accY,06_accZ,06_gyroX,06_gyroY,06_gyroZ,07_accX,07_accY,07_accZ,07_gyroX,07_gyroY,07_gyroZ,08_accX,08_accY,08_accZ,08_gyroX,08_gyroY,08_gyroZ,09_accX,09_accY,09_accZ,09_gyroX,09_gyroY,09_gyroZ,10_accX,10_accY,10_accZ,10_gyroX,10_gyroY,10_gyroZ,11_accX,11_accY,11_accZ,11_gyroX,11_gyroY,11_gyroZ,12_accX,12_accY,12_accZ,12_gyroX,12_gyroY,12_gyroZ,13_accX,13_accY,13_accZ,13_gyroX,13_gyroY,13_gyroZ,14_accX,14_accY,14_accZ,14_gyroX,14_gyroY,14_gyroZ,15_accX,15_accY,15_accZ,15_gyroX,15_gyroY,15_gyroZ,16_accX,16_accY,16_accZ,16_gyroX,16_gyroY,16_gyroZ,17_accX,17_accY,17_accZ,17_gyroX,17_gyroY,17_gyroZ,18_accX,18_accY,18_accZ,18_gyroX,18_gyroY,18_gyroZ,19_accX,19_accY,19_accZ,19_gyroX,19_gyroY,19_gyroZ,20_accX,20_accY,20_accZ,20_gyroX,20_gyroY,20_gyroZ,21_accX,21_accY,21_accZ,21_gyroX,21_gyroY,21_gyroZ,22_accX,22_accY,22_accZ,22_gyroX,22_gyroY,22_gyroZ,23_accX,23_accY,23_accZ,23_gyroX,23_gyroY,23_gyroZ,24_accX,24_accY,24_accZ,24_gyroX,24_gyroY,24_gyroZ,25_accX,25_accY,25_accZ,25_gyroX,25_gyroY,25_gyroZ,26_accX,26_accY,26_accZ,26_gyroX,26_gyroY,26_gyroZ,27_accX,27_accY,27_accZ,27_gyroX,27_gyroY,27_gyroZ,28_accX,28_accY,28_accZ,28_gyroX,28_gyroY,28_gyroZ,29_accX,29_accY,29_accZ,29_gyroX,29_gyroY,29_gyroZ,30_accX,30_accY,30_accZ,30_gyroX,30_gyroY,30_gyroZ,31_accX,31_accY,31_accZ,31_gyroX,31_gyroY,31_gyroZ,32_accX,32_accY,32_accZ,32_gyroX,32_gyroY,32_gyroZ,33_accX,33_accY,33_accZ,33_gyroX,33_gyroY,33_gyroZ,34_accX,34_accY,34_accZ,34_gyroX,34_gyroY,34_gyroZ,35_accX,35_accY,35_accZ,35_gyroX,35_gyroY,35_gyroZ,36_accX,36_accY,36_accZ,36_gyroX,36_gyroY,36_gyroZ,37_accX,37_accY,37_accZ,37_gyroX,37_gyroY,37_gyroZ,38_accX,38_accY,38_accZ,38_gyroX,38_gyroY,38_gyroZ,39_accX,39_accY,39_accZ,39_gyroX,39_gyroY,39_gyroZ,40_accX,40_accY,40_accZ,40_gyroX,40_gyroY,40_gyroZ,41_accX,41_accY,41_accZ,41_gyroX,41_gyroY,41_gyroZ,42_accX,42_accY,42_accZ,42_gyroX,42_gyroY,42_gyroZ,43_accX,43_accY,43_accZ,43_gyroX,43_gyroY,43_gyroZ,44_accX,44_accY,44_accZ,44_gyroX,44_gyroY,44_gyroZ,45_accX,45_accY,45_accZ,45_gyroX,45_gyroY,45_gyroZ,46_accX,46_accY,46_accZ,46_gyroX,46_gyroY,46_gyroZ,47_accX,47_accY,47_accZ,47_gyroX,47_gyroY,47_gyroZ,48_accX,48_accY,48_accZ,48_gyroX,48_gyroY,48_gyroZ,49_accX,49_accY,49_accZ,49_gyroX,49_gyroY,49_gyroZ,50_accX,50_accY,50_accZ,50_gyroX,50_gyroY,50_gyroZ,51_accX,51_accY,51_accZ,51_gyroX,51_gyroY,51_gyroZ,52_accX,52_accY,52_accZ,52_gyroX,52_gyroY,52_gyroZ,53_accX,53_accY,53_accZ,53_gyroX,53_gyroY,53_gyroZ,54_accX,54_accY,54_accZ,54_gyroX,54_gyroY,54_gyroZ,55_accX,55_accY,55_accZ,55_gyroX,55_gyroY,55_gyroZ,56_accX,56_accY,56_accZ,56_gyroX,56_gyroY,56_gyroZ,57_accX,57_accY,57_accZ,57_gyroX,57_gyroY,57_gyroZ,58_accX,58_accY,58_accZ,58_gyroX,58_gyroY,58_gyroZ,59_accX,59_accY,59_accZ,59_gyroX,59_gyroY,59_gyroZ,60_accX,60_accY,60_accZ,60_gyroX,60_gyroY,60_gyroZ,61_accX,61_accY,61_accZ,61_gyroX,61_gyroY,61_gyroZ,62_accX,62_accY,62_accZ,62_gyroX,62_gyroY,62_gyroZ,63_accX,63_accY,63_accZ,63_gyroX,63_gyroY,63_gyroZ,64_accX,64_accY,64_accZ,64_gyroX,64_gyroY,64_gyroZ,65_accX,65_accY,65_accZ,65_gyroX,65_gyroY,65_gyroZ,66_accX,66_accY,66_accZ,66_gyroX,66_gyroY,66_gyroZ,67_accX,67_accY,67_accZ,67_gyroX,67_gyroY,67_gyroZ,68_accX,68_accY,68_accZ,68_gyroX,68_gyroY,68_gyroZ,69_accX,69_accY,69_accZ,69_gyroX,69_gyroY,69_gyroZ,70_accX,70_accY,70_accZ,70_gyroX,70_gyroY,70_gyroZ,71_accX,71_accY,71_accZ,71_gyroX,71_gyroY,71_gyroZ,72_accX,72_accY,72_accZ,72_gyroX,72_gyroY,72_gyroZ,73_accX,73_accY,73_accZ,73_gyroX,73_gyroY,73_gyroZ,74_accX,74_accY,74_accZ,74_gyroX,74_gyroY,74_gyroZ,75_accX,75_accY,75_accZ,75_gyroX,75_gyroY,75_gyroZ,76_accX,76_accY,76_accZ,76_gyroX,76_gyroY,76_gyroZ,77_accX,77_accY,77_accZ,77_gyroX,77_gyroY,77_gyroZ,78_accX,78_accY,78_accZ,78_gyroX,78_gyroY,78_gyroZ,79_accX,79_accY,79_accZ,79_gyroX,79_gyroY,79_gyroZ,category
accX,0.0,0.0,0.0,0.0,0.0,0.0,0.0,0.0,0.0,0.0,0.0,0.0,0.0,0.0,0.0,0.0,0.0,0.0,0.0,0.0,0.0,0.0,0.0,0.0,0.0,0.0,0.0,0.0,0.0,0.0,0.0,0.0,0.0,0.0,0.0,0.0,0.0,0.0,0.0,0.0,0.0,0.0,0.0,0.0,0.0,0.0,0.0,0.0,0.0,0.0,0.0,0.0,0.0,0.0,0.0,0.0,0.0,0.0,0.0,0.0,0.0,0.0,0.0,0.0,0.0,0.0,0.0,0.0,0.0,0.0,0.0,0.0,0.0,0.0,0.0,0.0,0.0,0.0,0.0,0.0,0.0,0.0,0.0,0.0,0.0,0.0,0.0,0.0,0.0,0.0,0.0,0.0,0.0,0.0,0.0,0.0,0.0,0.0,0.0,0.0,0.0,0.0,0.0,0.0,0.0,0.0,0.0,0.0,0.0,0.0,0.0,0.0,0.0,0.0,0.0,0.0,0.0,0.0,0.0,0.0,0.0,0.0,0.0,0.0,0.0,0.0,0.0,0.0,0.0,0.0,0.0,0.0,0.0,0.0,0.0,0.0,0.0,0.0,0.0,0.0,0.0,0.0,0.0,0.0,0.0,0.0,0.0,0.0,0.0,0.0,0.0,0.0,0.0,0.0,0.0,0.0,0.0,0.0,0.0,0.0,0.0,0.0,0.0,0.0,0.0,0.0,0.0,0.0,0.0,0.0,0.0,0.0,0.0,0.0,0.0,0.0,0.0,0.0,0.0,0.0,0.0,0.0,0.0,0.0,0.0,0.0,0.0,0.0,0.0,0.0,0.0,0.0,0.8717948717948718,0.0,0.5763125763125763,0.0,0.0,0.0,1.7411477411477412,0.0,0.6398046398046398,0.0,0.0,0.0,3.21001221001221,0.0,0.0,0.0,0.0,0.0,5.354090354090353,0.0,-0.5921855921855922,0.0,0.0,0.0,7.800976800976801,-0.8962148962148963,-2.021978021978022,0.0,-0.59375,0.0,8.822954822954824,-1.684981684981685,-4.6129426129426125,0.5625,-0.65625,-1.0,8.406593406593407,-2.3223443223443225,-8.118437118437118,0.625,0.0,-1.75,7.84004884004884,-3.1074481074481075,-11.404151404151404,0.53125,0.0,-2.15625,6.935286935286936,-3.783882783882784,-13.040293040293038,0.0,1.0625,-2.71875,5.428571428571429,-4.753357753357753,-13.34920634920635,0.0,1.625,-3.25,3.5457875457875456,-5.700854700854701,-12.24175824175824,-0.8125,1.46875,-3.75,0.8534798534798534,-5.736263736263736,-10.356532356532355,-1.625,1.0,-4.09375,-1.9938949938949944,-6.257631257631258,-8.601953601953603,-2.40625,0.5625,-4.25,-5.147741147741148,-6.168498168498169,-6.308913308913309,-2.875,0.625,-4.21875,-7.470085470085469,-6.151404151404152,-4.061050061050061,-2.90625,0.875,-3.90625,-8.356532356532359,-6.87057387057387,-2.095238095238096,-2.90625,0.90625,-3.46875,-8.744810744810744,-6.815628815628816,0.0,-2.9375,0.75,-2.9375,-8.738705738705738,-6.819291819291818,1.3553113553113554,-2.90625,0.53125,-2.125,-8.421245421245422,-5.645909645909647,3.1367521367521367,-2.8125,0.0,-1.59375,-8.053724053724054,-5.377289377289378,3.282051282051282,-2.59375,0.0,-1.09375,-7.626373626373629,-5.174603174603175,3.7509157509157514,-2.5,0.0,-0.5625,-7.440781440781442,-4.758241758241757,4.065934065934067,-2.40625,0.0,0.0,-7.312576312576313,-3.9645909645909647,3.869352869352869,-2.25,0.0,0.0,-6.782661782661783,-3.703296703296704,3.5347985347985347,-2.0625,-0.5625,0.625,-6.363858363858364,-3.7606837606837606,3.2527472527472527,-1.875,-0.75,1.0625,-5.61050061050061,-4.128205128205129,2.851037851037851,-1.6875,-0.875,1.4375,-4.942612942612944,-4.609279609279608,2.559218559218559,-1.625,-0.90625,1.71875,-4.068376068376068,-5.068376068376068,2.7130647130647128,-1.5625,-0.96875,1.9375,-3.4017094017094016,-5.0415140415140405,2.9792429792429798,-1.46875,-1.125,2.125,-2.947496947496948,-4.752136752136752,3.37973137973138,-1.25,-1.4375,2.34375,-2.93040293040293,-4.520146520146519,3.330891330891331,-1.0,-1.46875,2.46875,-2.4688644688644694,-4.2405372405372415,3.2429792429792434,-0.78125,-1.4375,2.59375,-1.7216117216117215,-4.643467643467643,3.468864468864469,-0.65625,-1.53125,2.65625,-1.166056166056166,-4.31013431013431,3.809523809523809,-0.5625,-1.75,2.75,-1.1355311355311355,-3.660561660561661,4.1001221001221,0.0,-1.75,2.84375,-0.5873015873015873,-3.7802197802197797,4.001221001221002,0.0,-1.625,2.90625,0.6459096459096461,-4.1001221001221,4.102564102564102,0.0,-1.5625,2.875,1.9938949938949944,-4.609279609279608,4.0989010989010985,0.59375,-1.71875,2.75,2.385836385836386,-4.742368742368742,4.051282051282051,0.75,-1.90625,2.59375,3.2576312576312576,-3.9694749694749696,3.7374847374847375,1.03125,-2.03125,2.4375,3.0927960927960934,-3.6349206349206344,2.9426129426129437,1.46875,-1.75,2.28125,4.7252747252747245,-5.6996336996337,1.2234432234432235,1.65625,-1.46875,1.90625,4.738705738705738,-4.647130647130648,1.7252747252747254,1.5625,-1.5,1.59375,5.107448107448106,-3.021978021978022,2.41025641025641,1.8125,-1.34375,1.25,4.846153846153847,-1.915750915750916,1.4835164835164836,2.28125,-1.34375,0.96875,4.4371184371184365,-2.2600732600732596,-0.6336996336996337,2.53125,-1.28125,0.78125,4.315018315018315,-2.9230769230769234,-2.122100122100122,2.34375,-1.21875,0.59375,4.594627594627593,-2.4444444444444446,-2.2771672771672766,2.03125,-1.0625,0.0,wp_set
accX,0.0,0.0,0.5555555555555556,0.0,0.0,0.0,0.0,0.0,0.0,0.0,0.0,0.0,0.0,0.0,1.26007326007326,0.0,0.0,0.0,1.1562881562881564,1.1245421245421243,2.352869352869353,0.0,0.0,0.0,2.318681318681319,0.0,2.092796092796093,0.59375,-0.59375,0.0,2.8742368742368742,-0.6190476190476191,0.0,0.65625,-0.875,0.0,3.844932844932845,-1.0341880341880345,-0.9572649572649572,0.53125,-0.84375,0.0,4.739926739926741,-1.166056166056166,-1.7557997557997558,0.53125,-0.75,-0.75,4.625152625152626,-1.290598290598291,-2.4652014652014653,0.59375,-0.6875,-1.125,3.926739926739927,-1.4114774114774116,-3.660561660561661,0.65625,-0.625,-1.40625,3.601953601953602,-1.0122100122100122,-5.1672771672771685,0.65625,0.0,-1.59375,3.407814407814408,-1.3736263736263736,-7.042735042735043,0.5625,0.0,-1.78125,3.5470085470085464,-2.9645909645909647,-8.092796092796092,0.0,0.0,-2.0625,2.483516483516484,-3.47985347985348,-7.921855921855923,0.0,0.0,-2.375,0.0,-1.9633699633699635,-7.195360195360196,-0.65625,0.0,-2.53125,0.0,-1.0866910866910866,-7.085470085470085,-0.65625,0.6875,-2.46875,-0.9597069597069596,-2.7753357753357752,-7.6300366300366305,-1.03125,0.625,-2.5,-2.7216117216117217,-3.7142857142857135,-7.4945054945054945,-1.6875,0.0,-2.5625,-4.516483516483516,-3.7008547008547015,-6.339438339438338,-2.21875,0.53125,-2.5,-5.614163614163614,-3.57997557997558,-5.001221001221001,-2.4375,0.78125,-2.34375,-6.650793650793651,-3.725274725274725,-3.9609279609279615,-2.5625,1.0625,-2.09375,-6.763125763125763,-4.383394383394384,-2.7228327228327234,-2.78125,1.15625,-1.78125,-7.667887667887667,-4.653235653235653,-1.4358974358974361,-3.0625,1.125,-1.46875,-8.139194139194139,-4.7655677655677655,0.0,-3.15625,1.21875,-1.0625,-8.035409035409035,-4.714285714285714,1.4981684981684982,-3.1875,1.21875,-0.75,-7.903540903540903,-4.802197802197801,2.7020757020757022,-3.1875,1.09375,0.0,-7.7606837606837615,-4.877899877899878,3.555555555555556,-3.125,0.84375,0.0,-7.450549450549451,-4.476190476190476,4.212454212454213,-3.0,0.0,0.0,-6.774114774114773,-4.141636141636142,4.9462759462759465,-2.8125,0.0,0.78125,-6.564102564102564,-3.996336996336997,4.984126984126983,-2.5,0.0,1.15625,-5.8339438339438345,-4.034188034188034,5.266178266178266,-2.1875,0.0,1.46875,-4.815628815628815,-4.3479853479853485,5.7704517704517695,-1.8125,0.0,1.71875,-3.632478632478633,-4.540903540903541,6.0537240537240535,-1.53125,-0.75,1.90625,-2.462759462759463,-4.814407814407813,6.042735042735043,-1.3125,-1.0625,2.03125,-1.5714285714285714,-4.777777777777779,6.255189255189255,-1.09375,-1.40625,2.09375,-1.175824175824176,-4.42002442002442,6.148962148962148,-0.71875,-1.625,2.09375,-0.9682539682539684,-3.945054945054945,6.164835164835164,0.0,-1.65625,2.0625,-0.6898656898656899,-3.2844932844932844,6.074481074481075,0.0,-1.65625,2.0625,0.0,-2.7472527472527477,5.506715506715507,0.8125,-1.9375,2.09375,0.0,-4.7936507936507935,2.9169719169719173,0.75,-2.15625,2.125,0.0,-3.673992673992674,2.938949938949939,0.65625,-2.3125,2.125,0.9645909645909646,-2.89010989010989,2.686202686202686,1.09375,-2.0625,2.03125,2.3076923076923075,-3.862026862026862,1.5433455433455434,1.625,-1.78125,1.90625,2.614163614163614,-4.814407814407813,0.0,1.71875,-1.75,1.71875,2.947496947496948,-3.8156288156288163,0.0,1.53125,-1.65625,1.53125,4.221001221001221,-2.716727716727717,0.0,1.59375,-1.53125,1.375,4.665445665445667,-2.131868131868132,0.0,1.8125,-1.5625,1.21875,5.431013431013431,-2.8913308913308917,-1.5543345543345544,2.09375,-1.34375,1.03125,5.6984126984126995,-2.9963369963369964,-2.52991452991453,2.03125,-1.0625,0.625,5.6642246642246645,-1.9267399267399268,-2.5763125763125765,1.84375,-0.875,0.0,5.244200244200244,-1.072039072039072,-2.388278388278388,1.6875,-0.75,0.0,3.948717948717949,0.0,-2.619047619047619,1.65625,-0.625,0.0,2.909645909645909,0.0,-3.2295482295482296,1.65625,0.0,0.0,1.9951159951159951,0.0,-3.776556776556777,1.625,0.0,-0.59375,2.147741147741148,0.0,-3.95970695970696,1.4375,0.0,-0.78125,1.376068376068376,0.0,-4.242979242979243,1.21875,0.0,-0.90625,0.0,0.757020757020757,-4.295482295482295,1.0625,0.0,-1.0,-0.8070818070818071,1.2210012210012209,-3.8998778998779,0.96875,0.0,-1.0,-1.413919413919414,1.2136752136752136,-3.852258852258852,0.875,0.0,-0.9375,-2.120879120879121,0.8754578754578755,-4.170940170940171,0.6875,0.0,-0.84375,-2.433455433455433,0.0,-4.039072039072039,0.0,0.0,-0.8125,-2.23931623931624,0.0,-2.956043956043956,0.0,0.0,-0.75,-3.0561660561660564,1.0586080586080586,-1.6312576312576312,0.0,0.0,-0.625,-3.073260073260073,0.7924297924297924,-1.6422466422466422,0.0,0.0,0.0,-2.3724053724053724,0.0,-1.4151404151404152,0.0,0.0,0.0,-1.7130647130647132,0.0,-1.0915750915750917,0.0,0.0,0.0,-1.144078144078144,0.0,-0.9462759462759462,0.0,0.0,0.0,-1.065934065934066,0.0,-0.6568986568986569,0.0,0.0,0.0,-0.9035409035409036,0.0,0.0,0.0,0.0,0.0,-0.6910866910866911,0.0,0.0,0.0,0.0,0.0,0.0,0.0,0.0,0.0,0.0,0.0,0.0,0.0,0.0,0.0,0.0,0.0,0.0,0.0,0.0,0.0,0.0,0.0,0.0,0.0,0.0,0.0,0.0,0.0,0.0,0.0,0.0,0.0,0.0,0.0,0.0,0.0,0.0,0.0,0.0,0.0,0.0,0.0,0.0,0.0,0.0,0.0,0.0,0.0,0.0,0.0,0.0,0.0,0.0,0.0,0.0,0.0,0.0,0.0,0.0,0.0,0.0,0.0,0.0,0.0,wp_set
accX,0.0,0.0,0.5604395604395604,0.0,0.0,0.0,0.0,0.0,0.0,0.0,0.0,0.0,0.9255189255189256,0.0,0.0,0.0,0.0,0.0,1.1294261294261294,0.0,0.0,0.0,0.0,0.0,1.2210012210012209,0.0,-0.9633699633699634,0.53125,0.0,0.0,1.6971916971916972,-1.0463980463980465,-1.887667887667888,0.5625,0.0,0.0,2.6935286935286937,-0.9645909645909646,-2.245421245421245,0.0,0.0,0.0,4.095238095238095,-1.4554334554334554,-2.9108669108669107,0.0,0.0,0.0,3.4603174603174605,-1.05006105006105,-3.63980463980464,0.0,0.0,-0.8125,3.061050061050061,-0.7606837606837606,-3.8852258852258847,0.0,0.0,-1.15625,3.147741147741148,-0.7472527472527473,-3.9230769230769234,0.0,0.0,-1.53125,2.7142857142857144,0.0,-3.8766788766788767,0.0,0.0,-1.78125,2.2063492063492065,0.0,-3.9194139194139193,0.0,0.0,-2.0,1.4175824175824177,-1.1416361416361416,-4.774114774114773,0.0,0.0,-2.25,1.0463980463980465,-1.8217338217338217,-5.553113553113552,-0.53125,0.0,-2.40625,0.0,-0.6105006105006106,-5.95970695970696,-1.0,0.0,-2.5,-1.1111111111111112,0.0,-6.554334554334553,-1.1875,0.0,-2.40625,-2.4871794871794872,-1.0634920634920637,-7.195360195360196,-1.28125,0.5625,-2.34375,-2.7875457875457874,-2.025641025641025,-7.1892551892551895,-1.53125,0.78125,-2.21875,-3.0134310134310134,-3.0927960927960934,-6.869352869352869,-2.03125,0.75,-2.09375,-5.174603174603175,-3.496947496947497,-5.123321123321123,-2.9375,0.78125,-1.78125,-6.368742368742367,-3.913308913308913,-3.667887667887668,-3.0625,1.0625,-1.5625,-7.2393162393162385,-4.691086691086691,-2.6605616605616604,-3.0,1.375,-1.3125,-7.655677655677656,-5.018315018315018,-1.2673992673992671,-3.0625,1.5625,-1.03125,-8.347985347985349,-5.142857142857143,0.0,-3.25,1.53125,-0.71875,-8.656898656898656,-5.260073260073259,1.2442002442002442,-3.40625,1.34375,0.0,-8.427350427350428,-5.125763125763126,2.888888888888889,-3.625,0.96875,0.0,-8.097680097680097,-5.0976800976800964,4.457875457875458,-3.5625,0.0,0.0,-7.575091575091576,-5.034188034188034,5.196581196581198,-3.3125,0.0,0.84375,-6.733821733821733,-5.1159951159951165,5.5335775335775335,-2.96875,0.0,1.1875,-5.650793650793651,-5.2393162393162385,5.670329670329671,-2.59375,0.0,1.46875,-4.156288156288157,-5.443223443223443,5.94871794871795,-2.25,-0.71875,1.84375,-3.236874236874237,-5.703296703296704,5.688644688644688,-1.65625,-1.25,2.0,-1.434676434676435,-6.435897435897436,5.416361416361417,-1.625,-1.78125,2.03125,-0.984126984126984,-5.417582417582418,5.448107448107449,-1.46875,-2.125,1.9375,-1.6422466422466422,-3.6166056166056166,5.3577533577533565,-0.625,-1.78125,1.9375,-0.8046398046398047,-3.553113553113553,4.660561660561661,0.0,-1.46875,1.9375,0.5811965811965812,-4.6007326007325995,3.869352869352869,0.0,-1.71875,1.875,0.9462759462759462,-3.931623931623931,3.3663003663003663,0.0,-1.96875,1.78125,0.8058608058608059,-2.9865689865689866,2.9816849816849818,0.53125,-1.96875,1.71875,1.0293040293040292,-2.7557997557997562,2.5396825396825395,0.75,-1.90625,1.65625,1.2612942612942613,-2.7313797313797314,2.5286935286935286,1.0,-1.84375,1.59375,1.5677655677655675,-2.7460317460317465,2.437118437118437,1.1875,-1.875,1.5,1.0525030525030523,-2.796092796092796,1.6654456654456655,1.40625,-1.625,1.3125,1.5225885225885225,-1.931623931623932,1.3601953601953602,1.5625,-1.46875,1.21875,1.7728937728937728,-1.871794871794872,0.557997557997558,1.78125,-1.40625,1.125,2.274725274725274,-2.2820512820512815,-0.6788766788766789,1.90625,-1.28125,1.03125,2.8058608058608057,-2.3638583638583643,-1.3699633699633702,1.8125,-1.0625,0.84375,3.3846153846153846,-1.8510378510378511,-1.463980463980464,1.71875,-0.90625,0.625,3.4053724053724053,-1.1575091575091576,-1.3687423687423688,1.625,-0.84375,0.0,2.3919413919413923,0.0,-1.9169719169719168,1.71875,-0.84375,0.0,1.6385836385836383,0.0,-2.9621489621489623,1.75,-0.6875,0.0,1.8205128205128205,0.0,-3.3418803418803416,1.59375,0.0,0.0,2.207570207570208,0.0,-2.8241758241758244,1.40625,0.0,0.0,1.9096459096459095,0.0,-2.6788766788766787,1.3125,0.0,0.0,1.0549450549450552,0.7350427350427351,-2.937728937728938,1.40625,0.0,0.0,0.6825396825396826,0.5286935286935287,-2.9694749694749696,1.3125,0.0,-0.59375,0.0,0.0,-2.7948717948717947,1.15625,0.0,-0.6875,0.0,0.0,-2.705738705738706,1.0625,0.0,-0.78125,-0.8412698412698413,0.663003663003663,-2.593406593406593,1.0,0.0,-0.78125,-0.8644688644688645,0.536019536019536,-2.266178266178266,0.9375,0.0,-0.78125,-0.9059829059829059,0.0,-1.7643467643467643,0.875,0.0,-0.875,-1.0402930402930404,0.0,-1.8498168498168501,0.78125,0.0,-0.90625,-1.5079365079365081,0.5457875457875457,-2.191697191697192,0.71875,0.0,-0.875,-2.017094017094017,0.8070818070818071,-2.6373626373626373,0.625,0.0,-0.8125,-2.263736263736264,0.934065934065934,-2.4664224664224665,0.53125,0.0,-0.78125,-2.217338217338217,1.0598290598290598,-2.242979242979243,0.0,0.0,-0.65625,-2.0549450549450547,1.1452991452991452,-2.063492063492064,0.0,0.0,-0.59375,-2.2698412698412698,1.0085470085470083,-2.1868131868131866,0.0,0.0,0.0,-2.0463980463980462,0.9951159951159952,-1.912087912087912,0.0,0.0,0.0,-1.8144078144078144,0.8815628815628815,-1.5897435897435896,0.0,0.0,0.0,-1.2857142857142858,0.6739926739926739,-1.120879120879121,0.0,0.0,0.0,-0.9401709401709402,0.0,-0.7924297924297924,0.0,0.0,0.0,-0.7326007326007326,0.0,-0.5238095238095238,0.0,0.0,0.0,-0.6849816849816851,0.0,0.0,0.0,0.0,0.0,0.0,0.0,0.0,0.0,0.0,0.0,0.0,0.0,0.0,0.0,0.0,0.0,0.0,0.0,0.0,0.0,0.0,0.0,0.0,0.0,0.0,0.0,0.0,0.0,0.0,0.0,0.0,0.0,0.0,0.0,wp_set
accX,0.0,0.0,0.0,0.0,0.0,0.0,0.0,0.0,0.0,0.0,0.0,0.0,0.0,0.0,0.0,0.0,0.0,0.0,0.0,0.0,0.0,0.0,0.0,0.0,0.0,0.0,0.0,0.0,0.0,0.0,0.0,0.0,0.0,0.0,0.0,0.0,0.0,0.0,0.6849816849816851,0.0,0.0,0.0,0.0,0.0,0.7765567765567766,0.0,0.0,0.0,0.6849816849816851,0.0,0.7203907203907204,0.0,0.0,0.0,0.7643467643467643,0.0,0.0,0.0,0.0,0.0,1.0744810744810744,0.0,0.0,0.0,0.0,0.0,1.514041514041514,0.0,0.0,0.0,-0.53125,0.0,1.8913308913308915,0.0,0.0,0.53125,0.0,0.0,3.2661782661782666,-0.9816849816849816,-1.691086691086691,0.59375,0.0,-0.59375,4.168498168498169,-0.8058608058608059,-2.4383394383394386,0.5625,0.0,-0.84375,4.897435897435898,-1.021978021978022,-3.687423687423687,0.0,0.0,-1.125,3.829059829059829,-1.5616605616605617,-5.769230769230768,0.0,-0.5625,-1.4375,2.6617826617826617,-1.7374847374847375,-7.2283272283272275,0.0,0.0,-1.75,2.1770451770451764,-1.2148962148962148,-7.543345543345543,0.0,0.0,-2.0,1.6300366300366298,-1.0451770451770452,-7.8998778998779,0.0,0.0,-2.1875,0.0,-1.3736263736263736,-8.622710622710622,0.0,0.75,-2.34375,-0.9279609279609279,-1.586080586080586,-8.598290598290598,-0.59375,0.96875,-2.46875,-1.5274725274725274,-1.5006105006105006,-8.361416361416362,-1.15625,0.875,-2.53125,-2.9890109890109886,-2.1575091575091574,-8.261294261294262,-1.59375,0.8125,-2.5,-4.125763125763126,-3.2014652014652016,-7.155067155067155,-2.28125,0.875,-2.34375,-5.655677655677656,-3.938949938949939,-5.452991452991453,-2.625,0.9375,-2.125,-6.107448107448107,-4.255189255189255,-3.511599511599512,-2.90625,0.96875,-1.875,-6.506715506715508,-4.681318681318682,-2.070818070818071,-3.125,0.90625,-1.53125,-6.356532356532357,-4.763125763125763,0.0,-3.28125,0.84375,-1.1875,-6.417582417582418,-5.0818070818070815,1.0293040293040292,-3.25,0.75,-0.8125,-6.4322344322344325,-5.00976800976801,2.1526251526251525,-3.125,0.625,0.0,-6.5836385836385825,-5.015873015873017,2.7570207570207566,-2.9375,0.0,0.0,-6.516483516483516,-5.134310134310135,2.913308913308913,-2.8125,0.0,0.0,-6.0769230769230775,-4.953601953601954,3.542124542124542,-2.6875,0.0,0.0,-5.876678876678878,-4.7313797313797314,3.792429792429792,-2.5,0.0,0.75,-5.112332112332112,-4.587301587301587,4.212454212454213,-2.125,0.0,1.15625,-4.527472527472527,-3.683760683760684,4.576312576312576,-1.78125,0.0,1.375,-3.33943833943834,-4.021978021978022,4.824175824175824,-1.46875,0.0,1.59375,-2.3345543345543347,-4.125763125763126,4.963369963369964,-1.28125,-0.71875,1.75,-1.4224664224664223,-4.2686202686202686,4.936507936507937,-1.15625,-1.125,1.875,-1.123321123321123,-3.9230769230769234,4.87912087912088,-1.0625,-1.59375,1.9375,-1.31990231990232,-3.145299145299145,4.7313797313797314,-0.78125,-1.8125,1.96875,-1.3040293040293038,-2.7594627594627594,4.356532356532357,0.0,-1.78125,2.0,-0.7826617826617827,-2.8534798534798536,4.086691086691086,0.0,-1.65625,2.03125,0.0,-3.3540903540903533,3.456654456654457,0.0,-1.6875,2.0625,1.332112332112332,-3.627594627594628,2.47008547008547,0.0,-2.0,2.0625,1.4774114774114775,-3.6776556776556775,1.2857142857142858,0.5625,-2.25,1.96875,1.4065934065934067,-3.772893772893773,0.6910866910866911,0.71875,-2.0,1.71875,1.5848595848595848,-3.411477411477412,1.1245421245421243,1.03125,-1.5625,1.5625,2.418803418803418,-2.811965811965812,1.691086691086691,1.40625,-1.3125,1.40625,3.2429792429792434,-2.6923076923076925,1.5274725274725274,1.53125,-1.40625,1.21875,3.1514041514041518,-2.4652014652014653,0.6593406593406593,1.59375,-1.4375,1.03125,2.7350427350427347,-2.5579975579975582,0.0,1.59375,-1.25,0.8125,2.6910866910866917,-2.4871794871794872,-0.6373626373626373,1.5625,-1.0,0.625,3.4847374847374852,-1.463980463980464,0.0,1.59375,-0.90625,0.0,3.4444444444444446,-0.8009768009768009,-0.6837606837606838,1.71875,-0.9375,0.0,2.84981684981685,-0.5067155067155067,-1.6422466422466422,1.71875,-0.8125,0.0,2.2063492063492065,0.0,-2.5763125763125765,1.625,-0.59375,0.0,1.7411477411477412,0.0,-2.8998778998779,1.5,0.0,0.0,1.26007326007326,0.0,-2.4346764346764345,1.3125,0.0,0.0,0.9304029304029304,0.7411477411477412,-1.8937728937728937,1.28125,0.0,0.0,0.8083028083028083,0.0,-1.7362637362637363,1.34375,0.0,0.0,0.0,0.0,-2.361416361416361,1.3125,0.0,-0.59375,0.0,0.0,-2.7045177045177047,1.1875,0.0,-0.6875,0.0,0.0,-2.4932844932844933,1.09375,0.0,-0.75,0.0,0.0,-2.166056166056166,0.96875,0.0,-0.78125,0.0,0.0,-2.2515262515262515,0.96875,0.0,-0.84375,-0.8974358974358975,0.0,-2.873015873015873,0.9375,0.0,-0.875,-1.4847374847374848,0.0,-3.095238095238096,0.78125,0.0,-0.875,-1.5409035409035412,0.0,-2.831501831501832,0.625,0.0,-0.84375,-1.10989010989011,0.0,-2.126984126984127,0.0,0.0,-0.78125,-1.8485958485958487,1.094017094017094,-1.9181929181929185,0.0,0.0,-0.6875,-2.411477411477412,1.1416361416361416,-1.94017094017094,0.0,0.0,-0.59375,-1.9377289377289375,0.5982905982905983,-1.7753357753357752,0.0,0.0,0.0,-1.6422466422466422,0.0,-1.5238095238095235,0.0,0.0,0.0,-1.6703296703296704,0.0,-1.2368742368742371,0.0,0.0,0.0,-1.7313797313797314,0.0,-1.0647130647130647,0.0,0.0,0.0,-1.695970695970696,0.0,-0.8461538461538461,0.0,0.0,0.0,-1.1257631257631258,0.0,-0.5164835164835165,0.0,0.0,0.0,-0.9279609279609279,0.0,0.0,0.0,0.0,0.0,wp_set
accX,0.0,0.0,0.0,0.0,0.0,0.0,0.0,0.0,0.0,0.0,0.0,0.0,0.0,0.0,0.0,0.0,0.0,0.0,0.0,0.0,0.0,0.0,0.0,0.0,0.0,0.0,0.8253968253968254,0.0,0.0,0.0,0.0,0.8339438339438342,1.2918192918192921,0.0,0.0,0.0,0.7142857142857143,1.0915750915750917,1.7448107448107448,0.0,0.0,0.0,1.3492063492063493,0.0,0.8131868131868132,0.59375,0.0,0.0,2.0549450549450547,-0.6312576312576312,-0.63003663003663,0.0,0.0,0.0,3.9194139194139193,-0.967032967032967,-2.115995115995116,0.0,0.0,0.0,4.087912087912088,-0.912087912087912,-2.772893772893773,0.0,0.0,-0.6875,4.173382173382174,-0.7997557997557998,-3.578754578754579,0.0,0.0,-0.96875,4.046398046398046,-0.9621489621489622,-5.1562881562881575,0.0,0.0,-1.25,3.3943833943833943,-1.5384615384615383,-6.903540903540903,0.0,0.0,-1.5,3.1965811965811968,-2.1404151404151404,-7.410256410256411,0.0,0.0,-1.8125,2.9890109890109886,-2.207570207570208,-7.126984126984127,0.0,0.0,-2.09375,1.94993894993895,-2.0207570207570207,-7.267399267399268,0.0,0.0,-2.375,0.0,-2.2844932844932844,-7.634920634920635,0.0,0.0,-2.5625,-1.6752136752136753,-2.413919413919414,-7.543345543345543,-1.03125,0.0,-2.6875,-3.192918192918193,-2.357753357753358,-6.819291819291818,-1.5,0.0,-2.6875,-4.68986568986569,-3.115995115995116,-6.111111111111112,-2.1875,0.0,-2.5,-6.2393162393162385,-3.3223443223443225,-5.107448107448106,-2.65625,0.0,-2.21875,-6.549450549450549,-3.061050061050061,-3.6263736263736255,-2.9375,0.0,-1.8125,-7.423687423687423,-3.1257631257631258,-2.4285714285714284,-3.0625,0.5625,-1.34375,-7.81074481074481,-3.4908424908424913,-1.194139194139194,-3.09375,0.78125,-0.875,-7.534798534798535,-4.174603174603175,0.0,-3.09375,0.875,0.0,-7.095238095238094,-4.631257631257632,1.4395604395604396,-3.0625,0.78125,0.0,-6.976800976800977,-4.831501831501831,2.398046398046398,-3.0625,0.59375,0.0,-7.037851037851037,-4.87057387057387,3.3028083028083026,-2.96875,0.0,0.5625,-6.8998778998779,-4.6129426129426125,4.130647130647131,-2.71875,0.0,0.90625,-6.308913308913309,-4.702075702075702,4.9584859584859595,-2.40625,0.0,1.21875,-5.333333333333333,-4.717948717948718,5.531135531135532,-2.09375,0.0,1.5,-4.271062271062272,-4.658119658119658,5.914529914529915,-1.71875,0.0,1.78125,-3.1330891330891335,-4.615384615384615,6.328449328449326,-1.4375,-0.5625,1.9375,-2.056166056166056,-4.388278388278389,6.481074481074481,-1.125,-0.8125,2.0625,-1.6312576312576312,-4.152625152625153,6.222222222222222,-0.78125,-1.125,2.09375,-1.21978021978022,-4.095238095238095,5.6813186813186825,0.0,-1.3125,2.125,-0.5445665445665445,-4.233211233211233,5.435897435897436,0.0,-1.46875,2.09375,-0.7594627594627594,-4.004884004884005,5.047619047619048,0.0,-1.625,2.0,0.0,-3.5665445665445668,4.882783882783882,0.0,-1.6875,1.9375,0.0,-3.404151404151404,4.304029304029304,0.53125,-1.90625,1.90625,0.5775335775335775,-3.3028083028083026,3.4322344322344316,0.84375,-1.96875,1.84375,1.4945054945054943,-3.4847374847374852,2.5225885225885225,1.09375,-1.84375,1.75,3.1636141636141635,-3.4786324786324787,1.8205128205128205,1.3125,-1.8125,1.625,3.6434676434676434,-4.058608058608058,0.6849816849816851,1.65625,-1.875,1.3125,3.62026862026862,-3.781440781440781,0.0,1.6875,-1.59375,1.03125,4.0976800976800964,-1.95970695970696,0.0,1.84375,-1.3125,0.84375,4.012210012210011,-1.1684981684981686,-1.0634920634920637,1.9375,-1.0,0.6875,4.8107448107448105,-1.0891330891330893,-1.7692307692307692,1.9375,-1.03125,0.53125,4.407814407814408,-1.1978021978021978,-2.7997557997558,1.8125,-1.0,0.0,4.01953601953602,-1.061050061050061,-3.335775335775337,1.6875,-0.59375,0.0,4.339438339438339,0.0,-2.7228327228327234,1.625,0.0,0.0,3.920634920634921,0.0,-3.0830280830280827,1.625,0.0,0.0,3.115995115995116,0.536019536019536,-3.3174603174603177,1.53125,0.0,0.0,2.5409035409035408,0.0,-4.285714285714286,1.40625,0.0,-0.65625,1.537240537240537,0.0,-4.829059829059829,1.09375,0.0,-0.9375,0.0,1.474969474969475,-3.7289377289377286,1.0,0.0,-0.9375,-0.7606837606837606,1.4517704517704515,-2.8656898656898657,0.96875,0.0,-0.9375,-1.0341880341880345,1.105006105006105,-2.547008547008547,0.84375,0.0,-0.90625,-1.5787545787545787,0.5445665445665445,-3.1819291819291817,0.8125,0.0,-0.9375,-2.340659340659341,0.0,-3.501831501831502,0.5625,0.0,-0.90625,-2.8717948717948723,0.8315018315018315,-2.934065934065934,0.0,0.0,-0.84375,-2.7985347985347984,0.7509157509157509,-2.211233211233212,0.0,0.0,-0.78125,-2.324786324786325,0.0,-1.4285714285714286,0.0,0.0,-0.71875,-2.407814407814408,0.0,-1.1416361416361416,0.0,0.0,-0.65625,-2.333333333333333,0.0,-1.0525030525030523,0.0,0.0,-0.59375,-2.4566544566544573,0.0,-1.122100122100122,0.0,0.0,-0.53125,-2.547008547008547,0.5616605616605617,-1.1526251526251523,0.0,0.0,0.0,-2.274725274725274,0.5860805860805861,-0.8827838827838828,0.0,0.0,0.0,-1.6727716727716728,0.0,0.0,0.0,0.0,0.0,-1.271062271062271,0.0,0.0,0.0,0.0,0.0,-0.8559218559218559,0.0,0.0,0.0,0.0,0.0,-0.5042735042735043,0.0,0.0,0.0,0.0,0.0,0.0,0.0,0.0,0.0,0.0,0.0,0.0,0.0,0.0,0.0,0.0,0.0,0.0,0.0,0.0,0.0,0.0,0.0,0.0,0.0,0.0,0.0,0.0,0.0,0.0,0.0,0.0,0.0,0.0,0.0,0.0,0.0,0.0,0.0,0.0,0.0,0.0,0.0,0.0,0.0,0.0,0.0,wp_set
accX,0.0,0.0,0.0,0.0,0.0,0.0,0.0,0.0,0.0,0.0,0.0,0.0,0.0,0.0,-0.5396825396825397,0.0,0.0,0.0,0.9951159951159952,0.0,0.0,0.0,0.0,0.0,1.2466422466422469,0.0,0.0,0.625,0.0,0.0,1.3931623931623929,0.0,-0.6251526251526252,0.625,0.0,0.0,2.1770451770451764,-0.5299145299145299,-1.3137973137973138,0.0,0.0,0.0,2.9853479853479854,0.0,-2.225885225885226,0.0,-0.53125,-0.71875,3.7240537240537237,0.0,-2.9438339438339436,0.0,-0.5625,-1.0,4.462759462759463,0.0,-4.278388278388278,0.0,-0.65625,-1.3125,3.7472527472527473,-1.6996336996336996,-6.835164835164836,0.0,0.0,-1.625,2.655677655677656,-2.347985347985348,-8.786324786324787,0.0,0.0,-2.03125,1.42002442002442,-2.1941391941391943,-9.113553113553113,0.0,0.75,-2.3125,1.7582417582417582,-1.8376068376068373,-7.672771672771673,-0.71875,0.75,-2.625,-2.3028083028083026,-1.934065934065934,-7.274725274725275,-1.375,0.0,-2.6875,-3.6593406593406588,-1.4358974358974361,-6.394383394383395,-1.90625,0.5625,-2.59375,-5.0769230769230775,-1.7973137973137974,-5.667887667887667,-2.15625,0.875,-2.46875,-5.183150183150183,-2.93040293040293,-4.588522588522588,-2.3125,0.9375,-2.21875,-5.898656898656899,-3.5262515262515266,-3.5482295482295485,-2.6875,0.75,-1.96875,-6.989010989010988,-3.511599511599512,-2.511599511599512,-3.09375,0.59375,-1.6875,-7.956043956043956,-3.7008547008547015,-1.7142857142857142,-3.25,0.53125,-1.25,-8.280830280830282,-4.2967032967032965,-0.6507936507936508,-3.1875,0.6875,-0.8125,-7.6923076923076925,-4.631257631257632,0.7741147741147741,-3.0625,0.875,0.0,-7.493284493284492,-5.0024420024420015,1.931623931623932,-2.9375,0.875,0.0,-6.982905982905983,-4.8620268620268625,3.2124542124542126,-2.875,0.71875,0.0,-6.521367521367521,-4.876678876678877,4.407814407814408,-2.6875,0.0,0.75,-6.213675213675214,-4.4493284493284495,5.261294261294262,-2.4375,0.0,1.125,-5.769230769230768,-4.398046398046398,5.394383394383395,-2.09375,0.0,1.4375,-5.4884004884004876,-4.4261294261294255,5.367521367521367,-1.78125,0.0,1.6875,-4.791208791208791,-4.7655677655677655,5.146520146520147,-1.4375,0.0,1.9375,-3.043956043956044,-5.336996336996338,5.452991452991453,-1.1875,-0.625,2.09375,-1.9255189255189256,-5.157509157509158,5.400488400488402,-0.875,-0.96875,2.1875,-1.0989010989010992,-4.835164835164835,5.247863247863248,-0.53125,-1.15625,2.15625,-1.0793650793650793,-4.566544566544566,4.21001221001221,0.0,-1.15625,2.125,-0.6666666666666666,-3.9169719169719173,4.128205128205129,0.0,-1.34375,2.125,0.0,-3.388278388278388,4.422466422466423,0.0,-1.59375,2.15625,0.0,-1.5555555555555556,4.656898656898657,0.0,-1.59375,2.1875,1.3162393162393162,-3.0488400488400487,3.0329670329670333,0.90625,-1.34375,2.1875,1.6996336996336996,-3.687423687423687,2.4481074481074483,0.78125,-1.5625,2.03125,1.275946275946276,-3.0134310134310134,2.554334554334554,0.75,-1.75,1.84375,1.7142857142857142,-1.8998778998779,2.6654456654456653,1.125,-1.6875,1.6875,2.230769230769231,-1.5274725274725274,1.6446886446886446,1.5625,-1.5625,1.5625,2.120879120879121,-2.3565323565323566,0.0,1.71875,-1.53125,1.4375,2.144078144078144,-2.5177045177045176,-1.175824175824176,1.53125,-1.34375,1.28125,3.283272283272283,-2.056166056166056,-0.57997557997558,1.34375,-1.09375,1.0625,3.383394383394384,0.0,0.0,1.3125,-1.1875,0.78125,2.2002442002442004,0.7533577533577533,-0.9010989010989012,1.59375,-1.21875,0.6875,2.694749694749695,0.0,-2.1880341880341883,1.71875,-0.96875,0.625,3.3284493284493286,-0.9230769230769232,-3.031746031746032,1.40625,-0.75,0.0,3.3223443223443225,-0.8681318681318682,-2.7448107448107453,1.1875,-0.59375,0.0,2.6923076923076925,0.0,-2.21001221001221,1.1875,0.0,0.0,2.4517704517704515,0.0,-1.824175824175824,1.3125,0.0,0.0,2.6349206349206344,0.0,-2.063492063492064,1.28125,0.0,0.0,1.815628815628816,0.0,-2.547008547008547,1.1875,0.0,-0.65625,0.8070818070818071,0.0,-2.5689865689865687,1.15625,0.0,-0.78125,0.0,0.0,-1.9230769230769231,1.15625,0.0,-0.875,0.6068376068376068,0.0,-1.5152625152625152,1.21875,0.0,-1.0,0.0,0.0,-2.5873015873015874,1.125,0.0,-1.09375,-1.5470085470085468,0.0,-3.6971916971916974,0.90625,0.0,-1.09375,-2.189255189255189,0.851037851037851,-3.764346764346764,0.71875,0.0,-1.0625,-2.4932844932844933,1.4224664224664223,-2.584859584859585,0.5625,0.0,-0.96875,-2.9816849816849818,1.3394383394383391,-2.855921855921856,0.0,0.0,-0.84375,-3.144078144078144,1.0915750915750917,-2.9072039072039066,0.0,0.0,-0.6875,-3.1086691086691087,0.7631257631257631,-2.653235653235653,0.0,0.0,-0.5625,-2.811965811965812,0.6202686202686203,-2.067155067155068,0.0,0.0,0.0,-2.323565323565324,0.0,-1.343101343101343,0.0,0.0,0.0,-1.9072039072039075,0.0,-0.9169719169719168,0.0,0.0,0.0,-2.0659340659340657,0.0,-0.7875457875457875,0.0,0.0,0.0,-1.691086691086691,0.0,0.0,0.0,0.0,0.0,-1.5335775335775337,0.0,0.0,0.0,0.0,0.0,-1.0354090354090355,0.0,0.0,0.0,0.0,0.0,-0.8266178266178266,0.0,0.0,0.0,0.0,0.0,-0.5225885225885226,0.0,0.0,0.0,0.0,0.0,0.0,0.0,0.0,0.0,0.0,0.0,0.0,0.0,0.0,0.0,0.0,0.0,0.0,0.0,0.0,0.0,0.0,0.0,0.0,0.0,0.0,0.0,0.0,0.0,0.0,0.0,0.0,0.0,0.0,0.0,0.0,0.0,0.0,0.0,0.0,0.0,0.0,0.0,0.0,0.0,0.0,0.0,wp_set
accX,0.0,0.0,1.103785103785104,0.0,0.0,0.0,0.0,0.0,0.8412698412698413,0.0,0.0,0.0,0.0,0.0,0.0,0.0,0.0,0.0,1.0073260073260073,0.0,0.9987789987789988,0.0,0.0,0.0,1.7216117216117215,0.0,1.2258852258852257,0.53125,0.0,0.0,2.2820512820512815,-0.6947496947496947,0.0,0.78125,-0.625,0.0,2.8021978021978016,-0.9084249084249084,-1.0805860805860803,0.71875,-0.6875,0.0,3.0805860805860807,-0.6373626373626373,-1.7081807081807079,0.53125,-0.5625,-0.59375,3.3724053724053724,-0.7435897435897436,-2.4517704517704515,0.0,-0.59375,-0.78125,3.0097680097680097,0.0,-3.291819291819292,0.0,-0.5625,-1.0,3.330891330891331,0.0,-3.664224664224663,0.53125,0.0,-1.125,3.323565323565324,0.0,-4.550671550671551,0.0,0.0,-1.3125,3.0573870573870563,-0.6495726495726496,-5.362637362637362,0.0,0.0,-1.5625,3.2515262515262515,-1.3186813186813189,-5.996336996336996,0.0,0.0,-1.8125,2.9230769230769234,-1.7789987789987791,-6.557997557997558,0.0,0.0,-2.125,1.4334554334554337,-1.9975579975579976,-6.595848595848596,0.0,0.0,-2.53125,-0.6752136752136753,-1.0012210012210012,-6.225885225885227,-0.625,0.0,-2.65625,-1.824175824175824,0.0,-6.123321123321122,-0.65625,0.65625,-2.625,-1.5836385836385836,-0.8363858363858364,-6.479853479853481,-0.96875,0.0,-2.53125,-2.409035409035409,-2.227106227106227,-6.9523809523809526,-1.65625,0.0,-2.40625,-4.323565323565323,-2.584859584859585,-6.394383394383395,-2.28125,0.0,-2.21875,-5.295482295482295,-2.3870573870573866,-5.0708180708180715,-2.4375,0.0,-1.90625,-6.125763125763125,-3.227106227106227,-3.88034188034188,-2.4375,0.8125,-1.59375,-6.029304029304028,-4.365079365079366,-2.5885225885225887,-2.59375,0.96875,-1.28125,-6.605616605616605,-4.96947496947497,-1.5763125763125765,-2.84375,0.90625,-1.0,-7.368742368742367,-4.876678876678877,0.0,-3.0,0.90625,-0.625,-7.816849816849817,-4.982905982905983,0.6996336996336996,-3.03125,0.90625,0.0,-7.437118437118437,-4.588522588522588,2.873015873015873,-2.96875,0.625,0.0,-7.202686202686203,-4.715506715506716,3.57997557997558,-2.9375,0.0,0.5625,-6.774114774114773,-4.387057387057388,4.255189255189255,-2.78125,0.0,0.90625,-6.413919413919414,-4.091575091575091,4.61050061050061,-2.5,0.0,1.25,-5.661782661782662,-4.2393162393162385,4.764346764346763,-2.1875,0.0,1.59375,-4.880341880341881,-4.272283272283272,5.0427350427350435,-1.90625,0.0,1.84375,-3.9865689865689866,-4.383394383394384,5.222222222222221,-1.65625,-0.5625,2.0625,-2.5982905982905984,-4.390720390720391,5.373626373626373,-1.46875,-0.8125,2.21875,-1.9816849816849815,-3.968253968253968,5.261294261294262,-1.28125,-1.15625,2.34375,-1.2783882783882785,-3.768009768009768,5.190476190476192,-1.03125,-1.4375,2.4375,-1.1196581196581197,-3.766788766788767,5.278388278388278,-0.71875,-1.65625,2.4375,-0.6056166056166056,-3.313797313797314,5.609279609279609,0.0,-1.6875,2.46875,0.0,-3.0561660561660564,5.553113553113552,0.0,-1.6875,2.40625,0.9536019536019535,-3.247863247863248,4.981684981684982,0.875,-1.65625,2.34375,1.8644688644688645,-3.771672771672772,4.089133089133089,1.03125,-1.78125,2.25,2.924297924297924,-4.7484737484737485,2.9267399267399266,0.96875,-2.09375,2.0625,2.6654456654456653,-4.809523809523808,2.2234432234432235,0.90625,-2.15625,1.78125,2.503052503052503,-3.2515262515262515,2.4029304029304033,1.34375,-1.84375,1.5625,2.7313797313797314,-2.6910866910866917,2.3504273504273505,1.90625,-1.4375,1.375,3.8949938949938954,-2.4920634920634916,1.42002442002442,2.15625,-1.3125,1.1875,4.078144078144078,-2.7606837606837606,0.0,2.0,-1.3125,1.0,4.474969474969475,-2.667887667887668,-0.5518925518925519,1.78125,-1.25,0.71875,4.63980463980464,-1.9511599511599511,-0.6190476190476191,1.75,-1.1875,0.0,4.174603174603175,-1.1452991452991452,-2.573870573870574,1.96875,-0.84375,0.0,4.672771672771673,-1.531135531135531,-3.4017094017094016,1.84375,-0.59375,0.0,4.798534798534798,-1.3577533577533578,-3.421245421245421,1.53125,0.0,0.0,3.0390720390720385,0.0,-4.108669108669108,1.40625,0.0,-0.6875,1.8070818070818069,0.0,-4.390720390720391,1.46875,0.0,-0.8125,1.194139194139194,0.0,-3.6459096459096467,1.34375,0.0,-0.9375,1.15995115995116,0.0,-2.485958485958486,1.125,0.0,-1.0625,0.0,0.7753357753357754,-2.010989010989011,0.96875,0.0,-1.21875,-0.9536019536019535,1.2319902319902318,-2.6043956043956045,1.0625,0.0,-1.28125,-1.894993894993895,0.8400488400488401,-3.681318681318681,1.0625,0.0,-1.21875,-2.1245421245421245,0.0,-4.3296703296703285,0.90625,0.0,-1.1875,-2.9169719169719173,0.778998778998779,-4.4444444444444455,0.625,0.0,-1.15625,-3.0390720390720385,1.1855921855921856,-3.879120879120879,0.0,0.0,-0.96875,-3.2808302808302807,1.3345543345543345,-3.2857142857142856,0.0,0.0,-0.8125,-3.3870573870573866,1.3052503052503053,-2.8253968253968256,0.0,0.0,-0.59375,-3.068376068376069,0.9267399267399268,-2.399267399267399,0.0,0.0,0.0,-2.800976800976801,0.5335775335775336,-2.0573870573870567,0.0,0.0,0.0,-2.133089133089133,0.0,-1.3174603174603174,0.0,0.0,0.0,-1.7826617826617828,0.0,-0.9181929181929182,0.0,0.0,0.0,-1.199023199023199,0.0,0.0,0.0,0.0,0.0,-1.0463980463980465,0.0,0.0,0.0,0.0,0.0,-0.7997557997557998,0.0,0.0,0.0,0.0,0.0,0.0,0.0,0.0,0.0,0.0,0.0,0.0,0.0,0.0,0.0,0.0,0.0,0.0,0.0,0.0,0.0,0.0,0.0,0.0,0.0,0.0,0.0,0.0,0.0,0.0,0.0,0.0,0.0,0.0,0.0,0.0,0.0,0.0,0.0,0.0,0.0,0.0,0.0,0.0,0.0,0.0,0.0,0.0,0.0,0.0,0.0,0.0,0.0,wp_set
accX,0.7545787545787546,0.0,0.7619047619047619,0.0,0.0,0.0,0.9255189255189256,0.0,0.6288156288156288,0.0,0.0,0.0,1.2503052503052503,0.0,0.0,0.0,0.0,0.0,2.0573870573870567,0.0,0.0,0.5625,0.0,0.0,2.2954822954822958,0.0,-0.9804639804639804,0.6875,0.0,0.0,2.4420024420024418,0.0,-2.086691086691087,0.84375,0.0,0.0,2.737484737484737,-0.7619047619047619,-3.556776556776557,0.84375,0.0,-0.8125,3.3907203907203907,-0.9487179487179488,-4.677655677655678,0.78125,0.0,-1.09375,3.855921855921856,-1.6605616605616609,-5.6813186813186825,0.0,0.0,-1.375,3.31013431013431,-1.9719169719169718,-6.367521367521367,0.0,0.0,-1.71875,2.385836385836386,-1.0793650793650793,-6.175824175824176,0.0,0.0,-1.96875,0.8266178266178266,-0.7814407814407814,-6.656898656898657,0.0,0.90625,-2.1875,1.3333333333333333,-2.236874236874237,-6.757020757020759,0.0,1.09375,-2.4375,1.1123321123321124,-3.3956043956043955,-6.328449328449326,-0.96875,0.0,-2.6875,-1.7142857142857142,-2.13064713064713,-5.206349206349207,-1.59375,0.0,-2.71875,-3.9877899877899887,-0.8315018315018315,-4.3479853479853485,-1.5,0.53125,-2.59375,-4.285714285714286,-1.3443223443223444,-3.9621489621489614,-1.3125,0.75,-2.34375,-4.294261294261294,-2.5641025641025643,-3.5225885225885225,-1.875,0.0,-1.96875,-5.891330891330893,-3.282051282051282,-2.7863247863247858,-2.375,0.0,-1.65625,-6.595848595848596,-3.4847374847374852,-1.695970695970696,-2.5625,0.0,-1.3125,-6.763125763125763,-3.5982905982905984,0.0,-2.5625,0.71875,-0.9375,-6.768009768009768,-3.870573870573871,1.3089133089133091,-2.4375,0.78125,-0.625,-6.818070818070817,-3.9072039072039066,2.2869352869352872,-2.40625,0.71875,0.0,-6.490842490842492,-3.948717948717949,3.1147741147741153,-2.4375,0.0,0.0,-6.548229548229548,-3.676434676434676,3.7545787545787546,-2.40625,0.0,0.0,-6.227106227106228,-3.0976800976800978,4.3296703296703285,-2.25,0.0,0.65625,-5.962148962148963,-2.915750915750916,4.677655677655678,-2.03125,0.0,1.0,-5.13919413919414,-3.067155067155068,5.096459096459097,-1.71875,0.0,1.3125,-4.815628815628815,-2.67032967032967,5.0134310134310125,-1.34375,0.0,1.59375,-3.5763125763125765,-3.0561660561660564,4.836385836385836,-1.125,0.0,1.875,-2.2026862026862033,-3.0793650793650795,4.892551892551894,-1.28125,-0.65625,2.0625,0.0,-3.5811965811965814,5.203907203907204,-1.625,-1.53125,2.125,-1.3150183150183148,-2.311355311355311,5.354090354090353,-1.28125,-1.8125,2.09375,-2.0268620268620268,-1.123321123321123,5.17948717948718,0.0,-1.09375,2.0625,0.0,-2.1855921855921854,4.606837606837607,0.96875,-0.625,2.0,1.894993894993895,-4.164835164835165,3.3382173382173383,1.0,-0.90625,1.90625,3.0488400488400487,-4.982905982905983,2.495726495726496,0.0,-1.6875,1.65625,1.5543345543345544,-2.827838827838828,2.4761904761904763,0.0,-1.71875,1.53125,1.31990231990232,-1.5457875457875458,2.9511599511599518,0.90625,-1.4375,1.4375,1.612942612942613,-1.7448107448107448,2.7240537240537246,1.375,-1.1875,1.375,2.3821733821733817,-2.8608058608058613,1.6459096459096458,1.25,-1.28125,1.21875,2.6483516483516483,-2.318681318681319,1.0598290598290598,1.21875,-1.375,1.09375,2.877899877899878,-1.6605616605616609,0.8449328449328449,1.46875,-1.1875,0.9375,2.5921855921855923,-1.5995115995115996,0.0,1.75,-0.9375,0.8125,2.4224664224664223,-1.6385836385836383,-1.3443223443223444,1.65625,-0.8125,0.6875,3.1697191697191696,-1.15995115995116,-1.1282051282051282,1.4375,-0.59375,0.5625,4.054945054945056,-1.2722832722832722,-0.9768009768009768,1.3125,0.0,0.0,3.7655677655677655,-0.7228327228327228,-1.2832722832722834,1.21875,-0.5625,0.0,2.2905982905982905,0.0,-1.6263736263736264,1.09375,-0.5625,0.0,1.8192918192918195,0.0,-1.884004884004884,1.09375,0.0,0.0,2.330891330891331,0.0,-2.241758241758242,1.15625,0.0,0.0,2.614163614163614,-0.8717948717948718,-2.6166056166056166,1.125,0.0,0.0,1.3785103785103785,0.0,-2.7228327228327234,0.875,0.0,-0.625,0.5738705738705738,0.0,-2.503052503052503,0.875,0.0,-0.71875,0.0,0.5494505494505495,-2.8156288156288163,0.84375,0.0,-0.75,-0.7106227106227107,0.6495726495726496,-3.388278388278388,0.71875,0.0,-0.75,-1.2918192918192921,0.8925518925518926,-3.435897435897436,0.625,0.0,-0.6875,-1.462759462759463,0.8156288156288156,-2.9010989010989015,0.5625,0.0,-0.6875,-1.2063492063492065,0.0,-2.6971916971916974,0.0,0.0,-0.6875,-1.8119658119658117,0.5921855921855922,-2.619047619047619,0.0,0.0,-0.65625,-1.8424908424908424,0.0,-2.705738705738706,0.0,0.0,-0.5625,-1.9938949938949944,0.0,-2.313797313797314,0.0,0.0,-0.53125,-2.2503052503052503,0.5787545787545788,-1.868131868131868,0.0,0.0,0.0,-1.9474969474969477,0.0,-1.326007326007326,0.0,0.0,0.0,-2.166056166056166,0.0,-1.3174603174603174,0.0,0.0,0.0,-1.7777777777777777,0.0,-1.2002442002442002,0.0,0.0,0.0,-1.6043956043956045,0.0,-0.8388278388278388,0.0,0.0,0.0,-1.4334554334554337,0.0,-0.5531135531135531,0.0,0.0,0.0,-1.3162393162393162,0.0,0.0,0.0,0.0,0.0,-0.8840048840048841,0.0,0.0,0.0,0.0,0.0,-0.5811965811965812,0.0,0.0,0.0,0.0,0.0,0.0,0.0,0.0,0.0,0.0,0.0,0.0,0.0,0.0,0.0,0.0,0.0,0.0,0.0,0.0,0.0,0.0,0.0,0.0,0.0,0.0,0.0,0.0,0.0,0.0,0.0,0.0,0.0,0.0,0.0,0.0,0.0,0.0,0.0,0.0,0.0,0.0,0.0,0.0,0.0,0.0,0.0,0.0,0.0,0.0,0.0,0.0,0.0,0.0,0.0,0.0,0.0,0.0,0.0,wp_set
accX,0.0,0.518925518925519,1.3137973137973138,0.0,0.0,0.0,0.6019536019536019,0.0,0.8485958485958486,0.0,0.0,0.0,1.3015873015873016,0.0,0.0,0.625,0.0,0.0,2.838827838827839,-0.5299145299145299,0.0,0.65625,-0.65625,0.0,3.3553113553113554,0.0,-0.8705738705738706,0.75,-0.8125,0.0,3.3321123321123323,0.0,-2.2063492063492065,0.90625,-0.6875,-0.75,2.884004884004884,-0.6520146520146519,-3.7655677655677655,0.9375,0.0,-1.03125,2.9890109890109886,-0.9304029304029304,-4.973137973137973,0.96875,0.0,-1.34375,3.4847374847374852,-1.4578754578754578,-5.556776556776557,0.875,0.0,-1.59375,3.2539682539682535,-2.3174603174603177,-6.08058608058608,0.53125,0.0,-1.9375,1.987789987789988,-2.5006105006105006,-6.526251526251526,0.0,0.0,-2.21875,0.0,-1.8192918192918195,-6.7765567765567765,0.0,0.0,-2.3125,-1.21001221001221,-1.0744810744810744,-6.727716727716727,-0.65625,0.0,-2.28125,-1.1501831501831499,-1.4053724053724053,-6.518925518925519,-1.03125,0.0,-2.25,-2.6178266178266183,-2.0415140415140414,-6.844932844932845,-1.75,0.0,-2.0625,-5.345543345543344,-2.068376068376069,-5.6642246642246645,-2.125,0.0,-1.8125,-6.294261294261293,-2.627594627594628,-4.3699633699633695,-2.375,0.65625,-1.46875,-6.283272283272282,-3.305250305250305,-2.6202686202686203,-2.5625,1.03125,-1.09375,-6.451770451770452,-3.764346764346764,-0.8852258852258852,-2.6875,1.125,-0.78125,-7.014652014652015,-3.8351648351648353,0.5079365079365079,-2.71875,1.03125,0.0,-7.31990231990232,-3.7887667887667886,1.7533577533577531,-2.6875,0.96875,0.0,-7.424908424908424,-3.7448107448107453,2.8913308913308917,-2.65625,0.84375,0.0,-6.974358974358975,-4.012210012210011,3.565323565323565,-2.59375,0.5625,0.0,-6.891330891330893,-3.688644688644689,4.006105006105006,-2.59375,0.0,0.65625,-6.308913308913309,-3.4420024420024418,4.628815628815629,-2.5,0.0,0.96875,-6.045177045177045,-3.15995115995116,4.892551892551894,-2.28125,0.0,1.25,-5.656898656898657,-2.9365079365079363,4.857142857142857,-1.6875,0.0,1.625,-4.638583638583639,-2.947496947496948,4.96947496947497,-1.34375,0.0,1.84375,-3.3858363858363862,-3.183150183150183,4.918192918192919,-1.125,0.0,2.0,-2.1709401709401708,-3.3785103785103785,4.7252747252747245,-1.125,-0.84375,2.125,-1.3540903540903542,-3.0195360195360195,4.688644688644689,-1.0625,-1.28125,2.21875,-0.9474969474969476,-2.8217338217338215,4.553113553113553,-0.90625,-1.4375,2.25,-0.5604395604395604,-2.6092796092796093,4.621489621489621,-0.625,-1.40625,2.21875,0.5470085470085471,-2.4322344322344316,4.918192918192919,0.0,-1.46875,2.15625,1.2258852258852257,-2.452991452991453,4.936507936507937,0.0,-1.53125,2.0625,2.4249084249084247,-3.2967032967032965,4.0256410256410255,0.59375,-1.71875,1.90625,3.4444444444444446,-3.7802197802197797,3.0366300366300365,0.59375,-1.96875,1.71875,3.431013431013431,-3.3809523809523814,2.1355311355311355,0.71875,-1.84375,1.4375,3.498168498168498,-3.1562881562881566,1.2283272283272284,1.21875,-1.40625,1.03125,3.4884004884004884,-2.978021978021978,1.1819291819291822,1.46875,-1.1875,0.84375,4.054945054945056,-1.7716727716727716,1.0989010989010992,1.65625,-1.15625,0.65625,3.731379731379731,-1.8192918192918195,0.0,1.75,-1.09375,0.0,3.782661782661783,-1.8998778998779,-1.10989010989011,1.625,-0.9375,0.0,3.571428571428572,-1.8742368742368745,-1.431013431013431,1.5,-0.78125,0.0,3.2295482295482296,-1.2503052503052503,-1.1452991452991452,1.46875,-0.5625,0.0,2.829059829059829,0.0,-0.7814407814407814,1.5625,0.0,0.0,2.6788766788766787,0.0,-1.431013431013431,1.625,0.0,0.0,2.584859584859585,-0.7081807081807082,-2.686202686202686,1.53125,0.0,-0.5625,2.3174603174603177,-0.7973137973137974,-3.467643467643468,1.1875,0.0,-0.75,1.0891330891330893,0.0,-3.655677655677656,1.03125,0.0,-1.03125,-0.5201465201465202,1.3601953601953602,-3.6459096459096467,1.09375,0.0,-1.0,0.0,1.358974358974359,-2.9291819291819285,1.125,0.0,-0.96875,0.0,0.8253968253968254,-3.067155067155068,0.96875,0.0,-1.0,-0.7777777777777778,0.7277167277167277,-3.8962148962148966,0.6875,0.0,-0.9375,-1.5824175824175823,0.8974358974358975,-4.2002442002442,0.0,0.0,-0.90625,-1.876678876678877,1.2039072039072038,-3.527472527472528,0.0,0.0,-0.875,-1.9206349206349207,0.9084249084249084,-2.8485958485958487,0.0,0.0,-0.875,-2.3675213675213675,0.7997557997557998,-2.8107448107448105,0.0,0.0,-0.8125,-2.855921855921856,0.8766788766788767,-2.7338217338217334,0.0,0.0,-0.6875,-3.3809523809523814,1.0854700854700854,-2.3015873015873014,0.0,0.0,-0.53125,-3.2136752136752142,0.9291819291819292,-1.637362637362637,0.0,0.0,0.0,-2.41025641025641,0.0,-0.5518925518925519,0.0,0.0,0.0,-1.982905982905983,0.0,0.0,0.0,0.0,0.0,-1.6825396825396826,0.0,0.0,0.0,0.0,0.0,-1.3137973137973138,0.0,0.0,0.0,0.0,0.0,-0.9010989010989012,0.0,0.0,0.0,0.0,0.0,-0.7081807081807082,0.0,0.0,0.0,0.0,0.0,0.0,0.0,0.0,0.0,0.0,0.0,0.0,0.0,0.0,0.0,0.0,0.0,0.0,0.0,0.0,0.0,0.0,0.0,0.0,0.0,0.0,0.0,0.0,0.0,0.0,0.0,0.0,0.0,0.0,0.0,0.0,0.0,0.0,0.0,0.0,0.0,0.0,0.0,0.0,0.0,0.0,0.0,0.0,0.0,0.0,0.0,0.0,0.0,0.0,0.0,0.0,0.0,0.0,0.0,0.0,0.0,0.0,0.0,0.0,0.0,0.0,0.0,0.0,0.0,0.0,0.0,,,,,,,,,,,,,wp_set
accX,0.0,0.8705738705738706,1.6654456654456655,0.0,0.0,0.0,0.9865689865689866,0.5592185592185592,1.6507936507936507,0.65625,0.0,0.0,1.0842490842490842,0.9853479853479854,1.5054945054945057,0.625,-0.53125,0.0,2.5177045177045176,0.8498168498168498,1.531135531135531,0.78125,-0.65625,0.0,3.417582417582417,0.0,0.0,1.03125,-0.875,0.0,3.498168498168498,-1.47985347985348,-1.6202686202686205,1.0,-0.9375,0.0,3.653235653235653,-2.101343101343101,-3.431013431013431,0.84375,-0.6875,-0.71875,4.188034188034188,-1.9768009768009769,-4.764346764346763,0.71875,0.0,-1.0625,4.57020757020757,-1.9902319902319905,-5.6361416361416365,0.625,0.0,-1.375,3.954822954822955,-3.073260073260073,-7.324786324786324,0.0,0.0,-1.71875,3.1807081807081805,-3.3540903540903533,-8.402930402930403,0.0,0.0,-2.03125,2.128205128205128,-2.8217338217338215,-8.517704517704518,0.0,0.0,-2.3125,0.7167277167277167,-2.600732600732601,-8.655677655677655,-0.53125,0.59375,-2.5,-2.388278388278388,-2.3870573870573866,-7.7435897435897445,-1.21875,0.84375,-2.5,-3.5677655677655684,-2.0,-6.876678876678878,-1.78125,0.71875,-2.4375,-5.456654456654457,-2.3443223443223444,-6.398046398046397,-2.125,0.8125,-2.25,-6.715506715506716,-2.8217338217338215,-4.750915750915751,-2.34375,1.15625,-2.0,-6.875457875457876,-3.3003663003662997,-2.5946275946275947,-2.5,1.375,-1.6875,-7.467643467643467,-4.225885225885226,-1.0329670329670328,-2.6875,1.21875,-1.375,-8.01953601953602,-4.266178266178266,0.6434676434676435,-2.90625,1.09375,-1.03125,-7.871794871794871,-3.935286935286935,2.3150183150183152,-2.96875,0.9375,-0.71875,-8.108669108669107,-3.6361416361416365,3.283272283272283,-2.90625,0.6875,0.0,-7.837606837606838,-3.346764346764347,3.9645909645909647,-2.8125,0.0,0.0,-6.934065934065933,-3.6263736263736255,4.351648351648351,-2.65625,0.0,0.0,-6.3369963369963385,-3.6031746031746033,4.873015873015873,-2.40625,0.0,1.09375,-5.976800976800977,-3.4481074481074483,5.014652014652015,-2.125,0.0,1.40625,-5.4371184371184365,-3.6312576312576312,4.882783882783882,-1.78125,0.0,1.6875,-4.559218559218559,-3.8815628815628815,4.992673992673993,-1.5625,0.0,1.90625,-3.3687423687423688,-4.145299145299147,5.332112332112332,-1.40625,0.0,2.15625,-2.1416361416361416,-4.1330891330891335,5.83028083028083,-1.25,-0.84375,2.3125,-1.051282051282051,-4.0366300366300365,6.183150183150183,-1.0,-1.25,2.375,-1.031746031746032,-3.2246642246642248,5.841269841269841,-0.59375,-1.46875,2.46875,0.0,-3.0012210012210017,5.808302808302808,0.0,-1.5625,2.46875,0.8559218559218559,-3.6190476190476186,5.593406593406592,0.0,-1.875,2.40625,2.189255189255189,-3.9902319902319903,5.183150183150183,0.0,-2.5,2.28125,2.145299145299145,-3.31990231990232,3.809523809523809,0.53125,-2.71875,2.09375,3.291819291819292,-3.11965811965812,1.2747252747252746,1.125,-2.03125,1.75,3.0305250305250304,-4.333333333333333,1.2075702075702075,1.25,-1.84375,1.46875,3.2344322344322345,-3.492063492063492,1.536019536019536,1.375,-1.625,1.21875,3.8632478632478633,-2.4920634920634916,1.363858363858364,1.59375,-1.5,0.96875,3.3174603174603177,-2.1074481074481075,0.0,1.78125,-1.46875,0.75,2.6227106227106227,-1.9352869352869355,-1.2112332112332111,1.8125,-1.25,0.59375,2.565323565323565,-2.0146520146520146,-1.8571428571428568,1.75,-0.96875,0.0,3.485958485958486,-1.1355311355311355,-1.6813186813186811,1.65625,-0.71875,0.0,4.180708180708181,-1.1746031746031746,-1.8461538461538465,1.6875,-0.65625,0.0,3.175824175824176,-0.6581196581196581,-2.9682539682539684,1.6875,-0.625,0.0,2.8644688644688645,-0.9304029304029304,-3.874236874236874,1.65625,0.0,0.0,2.6043956043956045,-0.9474969474969476,-4.069597069597069,1.40625,0.0,0.0,2.645909645909646,0.0,-3.347985347985348,1.125,0.0,-0.78125,1.5152625152625152,0.7228327228327228,-3.2490842490842486,1.1875,0.0,-0.875,0.7020757020757019,0.6715506715506715,-3.398046398046398,1.125,0.0,-0.90625,0.5299145299145299,0.0,-3.4810744810744816,0.9375,0.0,-1.0,0.0,0.0,-3.435897435897436,0.71875,0.0,-1.09375,-1.199023199023199,0.5665445665445665,-3.783882783882784,0.625,0.0,-1.125,-1.9047619047619049,1.020757020757021,-3.4481074481074483,0.5625,0.0,-1.09375,-2.0903540903540905,0.9401709401709402,-2.844932844932845,0.0,0.0,-1.0,-1.9352869352869355,0.8253968253968254,-2.0781440781440783,0.0,0.0,-0.96875,-1.7045177045177045,0.7814407814407814,-1.3724053724053724,0.0,0.0,-0.90625,-2.7081807081807083,1.010989010989011,-1.7216117216117215,0.0,0.0,-0.78125,-3.2661782661782666,1.0708180708180708,-1.8864468864468864,0.0,0.0,-0.53125,-2.3968253968253967,0.5738705738705738,-1.3418803418803418,0.0,0.0,0.0,-1.9523809523809523,0.0,-0.9096459096459096,0.0,0.0,0.0,-1.5006105006105006,0.0,0.0,0.0,0.0,0.0,-1.1514041514041513,0.0,0.0,0.0,0.0,0.0,-0.9609279609279608,0.0,0.0,0.0,0.0,0.0,-0.5567765567765568,0.0,0.0,0.0,0.0,0.0,0.0,0.0,0.0,0.0,0.0,0.0,0.0,0.0,0.0,0.0,0.0,0.0,0.0,0.0,0.0,0.0,0.0,0.0,0.0,0.0,0.0,0.0,0.0,0.0,0.0,0.0,0.0,0.0,0.0,0.0,0.0,0.0,0.0,0.0,0.0,0.0,0.0,0.0,0.0,0.0,0.0,0.0,0.0,0.0,0.0,0.0,0.0,0.0,0.0,0.0,0.0,0.0,0.0,0.0,0.0,0.0,0.0,0.0,0.0,0.0,0.0,0.0,0.0,0.0,0.0,0.0,0.0,0.0,0.0,0.0,0.0,0.0,0.0,0.0,0.0,0.0,0.0,0.0,0.0,0.0,0.0,0.0,0.0,0.0,wp_set
accX,1.0976800976800978,0.6385836385836385,1.1428571428571428,0.65625,-0.625,0.0,1.105006105006105,-0.6874236874236874,0.0,0.84375,-0.84375,0.0,1.4835164835164836,-0.8229548229548229,-1.424908424908425,0.65625,-0.59375,0.0,3.0903540903540905,-1.0366300366300367,-1.9633699633699635,0.5625,0.0,0.0,3.8302808302808304,-1.133089133089133,-2.380952380952381,0.5625,-0.59375,-0.5625,3.456654456654457,-1.4774114774114775,-3.7460317460317465,0.53125,-0.71875,-0.8125,2.717948717948718,-2.2295482295482296,-6.032967032967032,0.0,-0.59375,-1.09375,2.838827838827839,-1.7191697191697193,-6.8046398046398044,0.0,0.0,-1.375,2.7667887667887667,-1.4395604395604396,-6.964590964590965,0.0,0.0,-1.65625,2.003663003663004,-1.7936507936507935,-7.338217338217338,0.0,0.0,-1.9375,0.8473748473748474,-1.912087912087912,-7.177045177045177,0.0,0.59375,-2.25,0.0,-1.5494505494505495,-6.755799755799756,-0.59375,0.8125,-2.5,-1.7960927960927962,-1.7875457875457876,-6.648351648351648,-1.03125,1.0,-2.625,-3.1257631257631258,-2.3064713064713063,-6.286935286935287,-1.625,0.9375,-2.5625,-3.8656898656898657,-2.3565323565323566,-4.8852258852258865,-2.15625,0.625,-2.40625,-5.311355311355311,-2.501831501831502,-4.576312576312576,-2.53125,0.0,-2.125,-6.584859584859585,-2.2796092796092795,-3.9096459096459095,-2.59375,0.9375,-1.8125,-6.9694749694749705,-2.4639804639804637,-2.253968253968254,-2.40625,1.40625,-1.4375,-7.096459096459097,-3.847374847374848,-1.1746031746031746,-2.40625,1.6875,-1.125,-6.746031746031746,-4.548229548229548,0.0,-2.59375,1.46875,-0.84375,-7.087912087912088,-4.592185592185592,0.6935286935286935,-2.78125,1.0625,0.0,-7.725274725274725,-4.102564102564102,1.7008547008547008,-2.90625,0.84375,0.0,-7.627594627594628,-4.067155067155067,2.3076923076923075,-2.9375,0.625,0.0,-7.434676434676435,-4.0818070818070815,2.5262515262515257,-2.96875,0.0,0.84375,-6.286935286935287,-3.694749694749695,3.7557997557997562,-2.875,0.0,1.21875,-5.412698412698413,-3.584859584859585,4.493284493284493,-2.625,0.0,1.59375,-4.5225885225885225,-3.62026862026862,5.1611721611721615,-2.25,-0.53125,1.9375,-3.831501831501832,-3.9792429792429793,5.561660561660561,-1.78125,-0.6875,2.1875,-2.912087912087912,-4.225885225885226,6.112332112332113,-1.375,-0.6875,2.375,-1.277167277167277,-4.485958485958486,6.738705738705739,-1.0,-0.875,2.46875,0.0,-4.3247863247863245,6.91941391941392,-0.625,-1.28125,2.5,0.0,-4.280830280830282,6.682539682539683,0.0,-1.59375,2.5,0.0,-4.280830280830282,5.935286935286936,0.0,-1.8125,2.40625,0.0,-4.0256410256410255,5.38949938949939,0.53125,-1.84375,2.40625,1.1782661782661783,-4.122100122100122,4.638583638583639,1.09375,-1.6875,2.3125,2.85958485958486,-4.37973137973138,3.667887667887668,1.625,-1.5625,2.0625,3.934065934065934,-4.87912087912088,2.1587301587301586,1.46875,-1.78125,1.8125,3.6239316239316235,-4.603174603174604,1.2393162393162394,1.0625,-2.0625,1.5625,1.9609279609279608,-2.9035409035409034,1.5274725274725274,1.21875,-1.78125,1.3125,1.6105006105006106,-1.5079365079365081,1.8376068376068373,1.84375,-1.3125,1.21875,2.7045177045177047,-2.0366300366300365,0.8742368742368742,2.15625,-1.0625,1.09375,4.938949938949938,-3.716727716727717,0.0,1.5,-1.625,0.90625,4.402930402930403,-3.0268620268620268,-1.1501831501831499,1.0,-1.9375,0.5625,2.9706959706959712,-1.2539682539682542,-1.9242979242979243,1.21875,-1.5625,0.0,3.2783882783882783,-0.956043956043956,-2.5811965811965814,1.40625,-1.25,0.0,3.5482295482295485,-0.9255189255189256,-3.1770451770451764,1.25,-1.125,0.0,3.7142857142857135,-0.8803418803418803,-3.5750915750915757,0.9375,-1.03125,0.0,1.9975579975579976,0.0,-4.236874236874237,0.9375,-0.625,-0.59375,1.623931623931624,0.0,-4.197802197802199,0.96875,0.0,-0.75,1.2796092796092795,0.0,-3.7448107448107453,0.84375,0.0,-0.90625,0.0,0.0,-3.2051282051282053,0.75,0.0,-1.0,-0.5677655677655677,0.8644688644688645,-3.122100122100122,0.78125,0.0,-1.0625,-0.7387057387057387,0.6910866910866911,-3.0463980463980462,0.78125,0.0,-1.03125,-0.9059829059829059,0.0,-3.06959706959707,0.6875,0.0,-1.03125,-1.020757020757021,0.0,-2.7460317460317465,0.0,0.0,-1.0625,-1.9328449328449329,0.5457875457875457,-2.6202686202686203,0.0,0.0,-1.03125,-2.5494505494505493,0.7802197802197802,-2.236874236874237,0.0,0.0,-0.96875,-2.3369963369963367,0.5604395604395604,-1.68009768009768,0.0,0.0,-0.875,-2.268620268620269,0.0,-1.2844932844932846,0.0,0.0,-0.78125,-2.5006105006105006,0.0,-1.1025641025641026,0.0,0.0,-0.6875,-2.584859584859585,0.0,-0.8791208791208791,0.0,0.0,-0.59375,-2.5396825396825395,0.5738705738705738,-0.6349206349206349,0.0,0.0,0.0,-2.2967032967032965,0.0,0.0,0.0,0.0,0.0,-1.8266178266178263,0.0,0.0,0.0,0.0,0.0,-1.4981684981684982,0.0,0.0,0.0,0.0,0.0,-1.2283272283272284,0.0,0.0,0.0,0.0,0.0,-0.7094017094017094,0.0,0.0,0.0,0.0,0.0,-0.5921855921855922,0.0,0.0,0.0,0.0,0.0,0.0,0.0,0.0,0.0,0.0,0.0,0.0,0.0,0.0,0.0,0.0,0.0,0.5518925518925519,0.0,0.0,0.0,0.0,0.0,0.0,0.0,0.0,0.0,0.0,0.0,0.5274725274725275,0.0,0.0,0.0,0.0,0.0,0.0,0.0,0.0,0.0,0.0,0.0,0.0,0.0,0.0,0.0,0.0,0.0,0.0,0.0,0.0,0.0,0.0,0.0,0.0,0.0,0.0,0.0,0.0,0.0,0.0,0.0,0.0,0.0,0.0,0.0,0.0,0.0,0.0,0.0,0.0,0.0,0.0,0.0,0.0,0.0,0.0,0.0,wp_set
accX,0.0,0.0,1.3284493284493284,0.0,0.0,0.0,0.0,0.5604395604395604,1.336996336996337,0.53125,0.0,0.0,2.4004884004884004,0.0,0.0,0.78125,-0.6875,0.0,3.3687423687423688,-0.8803418803418803,-1.2637362637362637,0.90625,-0.78125,0.0,4.575091575091576,-1.8730158730158732,-2.7496947496947497,0.8125,-0.5625,0.0,5.518925518925519,-1.8632478632478635,-4.105006105006105,0.0,0.0,-0.96875,5.934065934065933,-1.3675213675213675,-5.5738705738705745,0.0,-0.6875,-1.40625,4.995115995115995,-1.4261294261294262,-7.136752136752138,0.0,-0.84375,-1.8125,3.36019536019536,-1.8424908424908424,-8.496947496947497,0.0,-0.6875,-2.125,1.5299145299145298,-1.2161172161172158,-9.153846153846152,0.0,0.0,-2.4375,0.5616605616605617,-1.1123321123321124,-9.183150183150182,0.0,0.59375,-2.59375,0.0,-2.4163614163614158,-8.7997557997558,0.0,1.0625,-2.71875,-1.0989010989010992,-3.2735042735042734,-8.098901098901099,-0.78125,0.875,-2.78125,-3.467643467643468,-2.783882783882784,-6.967032967032968,-2.03125,0.0,-2.65625,-5.869352869352869,-2.6727716727716726,-6.247863247863247,-2.4375,0.0,-2.40625,-8.387057387057387,-2.417582417582417,-5.847374847374848,-2.46875,0.71875,-1.96875,-8.888888888888891,-2.8608058608058613,-4.245421245421245,-2.46875,1.09375,-1.5,-8.796092796092797,-4.0366300366300365,-2.5970695970695967,-2.59375,1.125,-1.0,-8.926739926739927,-5.244200244200244,-1.0647130647130647,-2.90625,1.09375,-0.59375,-8.956043956043958,-5.483516483516484,0.7936507936507936,-3.09375,0.9375,0.0,-8.7008547008547,-5.302808302808303,2.647130647130647,-3.09375,0.8125,0.0,-8.396825396825397,-5.015873015873017,4.181929181929182,-2.90625,0.65625,0.53125,-7.869352869352869,-4.96947496947497,5.1050061050061055,-2.625,0.0,0.90625,-6.838827838827839,-4.824175824175824,5.561660561660561,-2.34375,0.0,1.21875,-6.278388278388277,-4.503052503052503,5.7264957264957275,-2.0625,0.0,1.625,-4.962148962148962,-4.26984126984127,5.479853479853481,-1.59375,0.0,1.875,-3.824175824175824,-4.0024420024420015,5.713064713064713,-1.3125,0.0,2.09375,-2.743589743589744,-3.9902319902319903,5.721611721611723,-1.0,-0.6875,2.28125,-2.2051282051282053,-3.9621489621489614,5.2673992673992664,-0.78125,-0.9375,2.375,-0.9548229548229548,-4.202686202686203,5.112332112332112,-0.75,-1.15625,2.4375,0.0,-3.1868131868131866,5.487179487179486,-0.65625,-1.46875,2.46875,0.0,-2.9328449328449326,5.549450549450549,0.0,-1.46875,2.4375,1.0341880341880345,-3.7570207570207566,5.122100122100122,0.0,-1.375,2.3125,1.6837606837606838,-4.318681318681318,4.617826617826617,0.71875,-1.4375,2.15625,2.7765567765567765,-3.6776556776556775,4.168498168498169,0.875,-1.6875,1.96875,3.2307692307692313,-3.3687423687423688,3.247863247863248,1.125,-1.90625,1.8125,3.4664224664224665,-3.389499389499389,1.9694749694749696,1.5,-1.75,1.40625,3.2002442002442004,-3.4261294261294264,0.8803418803418803,1.6875,-1.46875,1.15625,3.4456654456654463,-3.357753357753358,0.0,1.65625,-1.34375,0.9375,3.4273504273504267,-2.2722832722832718,0.0,1.65625,-1.28125,0.75,3.655677655677656,-1.2026862026862026,0.0,1.71875,-1.15625,0.59375,3.3870573870573866,0.0,-1.0891330891330893,1.84375,-1.0625,0.0,3.221001221001221,-0.7179487179487181,-2.5775335775335777,1.8125,-1.0,0.0,3.0305250305250304,-1.2210012210012209,-3.5506715506715505,1.5,-0.78125,0.0,3.096459096459097,-0.8388278388278388,-3.15995115995116,1.21875,0.0,0.0,3.6129426129426134,0.0,-2.4224664224664223,1.21875,0.0,0.0,2.6630036630036633,0.0,-3.0268620268620268,1.3125,0.0,0.0,1.7557997557997558,0.0,-3.9853479853479854,1.21875,0.0,-0.59375,1.2258852258852257,0.0,-3.694749694749695,0.90625,0.0,-0.8125,0.6385836385836385,0.0,-3.13064713064713,0.8125,0.0,-0.9375,-0.6019536019536019,0.6398046398046398,-3.062271062271062,0.84375,0.0,-1.0,-1.0964590964590966,0.5848595848595849,-3.0525030525030523,0.875,0.0,-1.03125,-1.2832722832722834,0.0,-2.8131868131868134,0.6875,0.0,-1.03125,-1.2686202686202686,0.0,-2.4053724053724053,0.0,0.0,-1.03125,-2.0695970695970702,0.8241758241758241,-2.4468864468864466,0.0,0.0,-1.03125,-2.888888888888889,1.0573870573870574,-2.514041514041514,0.0,0.0,-0.90625,-3.0109890109890114,1.2014652014652014,-2.214896214896215,0.0,0.0,-0.78125,-2.6092796092796093,0.8266178266178266,-1.887667887667888,0.0,0.0,-0.6875,-2.1819291819291817,0.7020757020757019,-1.434676434676435,0.0,0.0,-0.59375,-2.2002442002442004,0.8595848595848596,-1.1172161172161172,0.0,0.0,0.0,-2.52014652014652,0.8315018315018315,-1.177045177045177,0.0,0.0,0.0,-2.37973137973138,0.7716727716727717,-1.0024420024420024,0.0,0.0,0.0,-2.1111111111111107,0.6153846153846154,-0.8083028083028083,0.0,0.0,0.0,-1.4297924297924298,0.0,-0.5811965811965812,0.0,0.0,0.0,-1.0781440781440779,0.0,-0.5079365079365079,0.0,0.0,0.0,-0.7667887667887668,0.0,0.0,0.0,0.0,0.0,-0.778998778998779,0.0,0.0,0.0,0.0,0.0,-0.7362637362637363,0.0,0.0,0.0,0.0,0.0,0.0,0.0,0.0,0.0,0.0,0.0,0.0,0.0,0.0,0.0,0.0,0.0,0.0,0.0,0.0,0.0,0.0,0.0,0.0,0.0,0.0,0.0,0.0,0.0,0.0,0.0,0.0,0.0,0.0,0.0,0.0,0.0,0.0,0.0,0.0,0.0,0.0,0.0,0.0,0.0,0.0,0.0,0.0,0.0,0.0,0.0,0.0,0.0,0.0,0.0,0.0,0.0,0.0,0.0,0.0,0.0,0.0,0.0,0.0,0.0,0.0,0.0,0.0,0.0,0.0,0.0,0.0,0.0,0.0,0.0,0.0,0.0,wp_set
accX,0.0,0.5164835164835165,1.641025641025641,0.5625,0.0,0.0,0.9279609279609279,0.6349206349206349,2.208791208791209,0.8125,-0.5625,0.0,1.948717948717949,0.0,2.455433455433456,0.875,-0.625,0.0,2.5177045177045176,-1.2991452991452992,1.485958485958486,0.9375,-0.59375,0.0,4.031746031746032,-1.804639804639805,0.0,0.8125,-0.6875,0.0,5.456654456654457,-2.1880341880341883,-1.8131868131868127,0.8125,-0.96875,-0.875,4.42002442002442,-2.5347985347985347,-3.8864468864468864,0.75,-0.90625,-1.34375,4.322344322344321,-2.0268620268620268,-5.131868131868131,0.5625,-0.59375,-1.71875,4.2002442002442,-1.8998778998779,-6.517704517704518,0.0,-0.53125,-2.03125,2.2967032967032965,-1.9572649572649568,-8.368742368742371,0.0,0.0,-2.34375,0.0,-2.235653235653236,-9.65079365079365,0.0,0.0,-2.53125,-2.2332112332112333,-1.3675213675213675,-9.673992673992672,0.0,0.0,-2.625,-2.4420024420024418,-0.8363858363858364,-8.786324786324787,0.0,0.75,-2.59375,-2.2564102564102564,-1.8424908424908424,-8.01953601953602,-0.84375,0.8125,-2.46875,-3.144078144078144,-3.1819291819291817,-7.395604395604397,-1.59375,0.0,-2.375,-4.2967032967032965,-3.829059829059829,-5.982905982905983,-2.4375,0.0,-2.1875,-5.3809523809523805,-4.188034188034188,-4.586080586080586,-3.21875,0.0,-1.75,-5.964590964590965,-3.836385836385837,-2.8473748473748475,-3.25,0.0,-1.40625,-6.347985347985348,-4.2405372405372415,-1.3076923076923077,-3.125,0.84375,-1.03125,-6.638583638583639,-4.868131868131869,0.0,-3.125,1.0625,-0.71875,-6.521367521367521,-5.102564102564102,2.0268620268620268,-3.15625,1.0625,0.0,-6.5555555555555545,-4.726495726495727,3.5189255189255184,-3.03125,0.84375,0.0,-6.831501831501831,-4.137973137973138,4.3028083028083035,-2.75,0.71875,0.0,-6.816849816849817,-3.892551892551893,4.5836385836385825,-2.46875,0.625,0.0,-6.481074481074481,-3.52991452991453,4.881562881562882,-2.1875,0.53125,0.78125,-5.930402930402932,-3.496947496947497,4.778998778998779,-1.96875,0.0,1.125,-5.108669108669108,-3.5726495726495733,4.744810744810745,-1.84375,0.0,1.40625,-4.647130647130648,-3.311355311355311,4.841269841269841,-1.65625,0.0,1.6875,-3.045177045177045,-3.05006105006105,5.2344322344322345,-1.3125,0.0,2.0,-2.04029304029304,-3.36996336996337,5.202686202686203,-1.125,-0.5625,2.21875,-1.4481074481074483,-3.4444444444444446,5.047619047619048,-0.9375,-1.0,2.375,-1.0427350427350428,-3.1330891330891335,5.235653235653237,-0.6875,-1.21875,2.4375,-0.7594627594627594,-2.8192918192918195,5.395604395604397,0.0,-1.28125,2.4375,0.0,-3.003663003663004,5.25030525030525,0.0,-1.28125,2.40625,0.7264957264957265,-3.8205128205128207,4.526251526251526,0.0,-1.53125,2.375,0.873015873015873,-4.018315018315018,3.4322344322344316,0.6875,-1.875,2.28125,1.2014652014652014,-3.931623931623931,2.5677655677655684,0.90625,-1.90625,2.15625,1.575091575091575,-3.5995115995116,2.354090354090354,1.1875,-1.8125,1.96875,2.0354090354090357,-3.47985347985348,2.133089133089133,1.40625,-1.625,1.8125,2.6996336996337003,-3.456654456654457,1.534798534798535,1.625,-1.53125,1.5625,2.750915750915751,-3.274725274725274,0.6703296703296703,1.75,-1.46875,1.375,3.2051282051282053,-2.7387057387057387,0.0,1.78125,-1.3125,1.1875,3.6336996336996337,-1.9108669108669107,0.0,1.78125,-1.25,0.96875,3.8351648351648353,-1.7557997557997558,-0.6703296703296703,1.78125,-1.0625,0.78125,4.191697191697192,-1.6214896214896215,-1.0952380952380951,1.6875,-1.03125,0.5625,4.252747252747253,-1.735042735042735,-2.015873015873016,1.59375,-1.0625,0.0,3.879120879120879,-1.2283272283272284,-2.4273504273504267,1.4375,-0.875,0.0,3.710622710622711,-0.6996336996336996,-2.1514041514041518,1.40625,-0.59375,0.0,3.351648351648352,0.0,-2.4432234432234434,1.3125,-0.53125,0.0,2.271062271062271,0.0,-3.7387057387057383,1.25,0.0,0.0,1.6312576312576312,0.0,-4.561660561660561,1.125,0.0,-0.5625,1.177045177045177,0.0,-4.548229548229548,0.8125,0.0,-0.75,0.6776556776556777,0.0,-3.283272283272283,0.75,0.0,-0.84375,0.0,0.0,-3.313797313797314,0.65625,0.0,-0.9375,-0.5897435897435898,0.0,-3.330891330891331,0.5625,0.0,-0.96875,-1.0036630036630036,0.0,-3.1672771672771667,0.0,0.0,-0.9375,-0.9597069597069596,0.0,-2.561660561660561,0.0,0.0,-0.9375,-1.3162393162393162,0.0,-2.1514041514041518,0.0,0.0,-0.9375,-1.695970695970696,0.0,-2.0549450549450547,0.0,0.0,-0.90625,-2.0366300366300365,0.0,-1.8571428571428568,0.0,0.0,-0.84375,-1.912087912087912,0.0,-1.5006105006105006,0.0,0.0,-0.78125,-1.868131868131868,0.0,-0.9548229548229548,0.0,0.0,-0.6875,-2.15995115995116,0.5311355311355311,-0.818070818070818,0.0,0.0,-0.625,-2.0818070818070815,0.518925518925519,-0.6007326007326007,0.0,0.0,0.0,-1.8547008547008548,0.0,-0.5873015873015873,0.0,0.0,0.0,-1.6459096459096458,0.0,0.0,0.0,0.0,0.0,-1.1074481074481075,0.0,0.0,0.0,0.0,0.0,-0.9474969474969476,0.0,0.0,0.0,0.0,0.0,-0.6800976800976801,0.0,0.0,0.0,0.0,0.0,-0.6361416361416361,0.0,0.0,0.0,0.0,0.0,0.0,0.0,0.0,0.0,0.0,0.0,0.0,0.0,0.0,0.0,0.0,0.0,0.0,0.0,0.0,0.0,0.0,0.0,0.0,0.0,0.0,0.0,0.0,0.0,0.0,0.0,0.0,0.0,0.0,0.0,0.0,0.0,0.0,0.0,0.0,0.0,0.0,0.0,0.0,0.0,0.0,0.0,0.0,0.0,0.0,0.0,0.0,0.0,0.0,0.0,0.0,0.0,0.0,0.0,0.0,0.0,0.0,0.0,0.0,0.0,wp_set
accX,0.0,0.0,0.0,0.0,0.0,0.0,0.0,0.0,0.0,0.0,0.0,0.0,0.0,0.0,0.0,0.0,0.0,0.0,1.4835164835164836,0.5299145299145299,0.0,0.0,0.0,0.0,2.324786324786325,0.73992673992674,0.0,0.71875,0.0,0.0,3.6361416361416365,-0.8083028083028083,-2.6654456654456653,0.78125,0.0,0.0,4.3589743589743595,-1.709401709401709,-4.644688644688644,0.625,0.0,-0.8125,4.603174603174604,-2.3626373626373627,-5.7997557997558,0.0,0.0,-1.15625,3.681318681318681,-2.2649572649572653,-6.2295482295482305,0.0,0.0,-1.5,2.501831501831502,-1.6678876678876684,-6.014652014652015,0.0,0.0,-1.84375,1.8034188034188037,-0.6507936507936508,-5.8339438339438345,0.0,0.59375,-2.15625,0.9706959706959708,-1.3504273504273503,-6.472527472527473,0.0,0.8125,-2.40625,-0.9743589743589745,-1.843711843711844,-7.26007326007326,-0.53125,0.5625,-2.5,-1.809523809523809,-1.7741147741147743,-7.056166056166056,-1.40625,0.0,-2.4375,-3.311355311355311,-1.2954822954822955,-6.31990231990232,-2.09375,0.0,-2.3125,-4.7936507936507935,-1.6532356532356531,-5.733821733821733,-2.3125,0.0,-2.125,-5.21978021978022,-2.2466422466422467,-4.724053724053724,-2.40625,0.90625,-1.75,-5.537240537240537,-3.2991452991452985,-3.652014652014652,-2.65625,1.0,-1.46875,-6.238095238095237,-4.285714285714286,-2.5311355311355306,-3.0,1.0625,-1.15625,-6.838827838827839,-4.5738705738705745,-0.956043956043956,-3.21875,1.0625,-0.84375,-7.029304029304028,-4.446886446886447,0.6691086691086691,-3.1875,0.90625,-0.53125,-7.4896214896214905,-4.431013431013431,1.7435897435897436,-3.09375,0.78125,0.0,-7.456654456654457,-4.514041514041514,2.5982905982905984,-3.03125,0.65625,0.0,-7.113553113553113,-4.56043956043956,3.1684981684981683,-2.96875,0.0,0.53125,-6.527472527472527,-4.333333333333333,4.006105006105006,-2.78125,0.0,0.875,-6.0927960927960925,-4.288156288156288,4.3589743589743595,-2.5625,0.0,1.25,-5.424908424908424,-4.122100122100122,5.282051282051282,-2.25,0.0,1.53125,-4.495726495726496,-4.249084249084248,5.705738705738707,-1.90625,0.0,1.78125,-3.5726495726495733,-4.199023199023198,5.869352869352869,-1.34375,-0.875,2.09375,-2.0012210012210008,-4.256410256410256,6.017094017094017,-1.03125,-1.09375,2.21875,-1.0744810744810744,-4.402930402930403,6.31013431013431,-0.71875,-1.25,2.3125,0.0,-4.185592185592186,6.412698412698412,0.0,-1.4375,2.3125,0.0,-3.7460317460317465,5.844932844932845,0.0,-1.625,2.28125,0.6434676434676435,-3.926739926739927,4.758241758241757,0.0,-1.625,2.21875,1.565323565323565,-4.638583638583639,3.938949938949939,0.75,-1.6875,2.15625,2.4920634920634916,-4.8949938949938945,3.41025641025641,0.875,-1.84375,2.03125,2.877899877899878,-4.634920634920634,2.807081807081807,1.03125,-1.9375,1.84375,3.2014652014652016,-3.6312576312576312,2.1794871794871797,1.3125,-1.71875,1.65625,3.36996336996337,-2.9743589743589745,1.5518925518925517,1.6875,-1.34375,1.4375,3.85958485958486,-3.1391941391941387,0.9536019536019535,1.9375,-1.0,1.21875,4.387057387057388,-3.283272283272283,0.0,1.78125,-1.1875,0.90625,4.628815628815629,-2.9975579975579976,0.0,1.5,-1.40625,0.65625,4.371184371184371,-2.0073260073260077,-0.6886446886446886,1.40625,-1.375,0.0,3.608058608058608,-0.9365079365079364,-1.3577533577533578,1.625,-0.90625,0.0,3.485958485958486,0.0,-2.148962148962149,1.875,-0.53125,0.0,3.710622710622711,-1.120879120879121,-2.9694749694749696,1.78125,0.0,0.0,3.531135531135531,-1.4090354090354091,-3.183150183150183,1.375,0.0,0.0,3.1819291819291817,-0.7887667887667887,-2.5689865689865687,1.15625,0.0,-0.59375,2.0,0.0,-2.3565323565323566,1.21875,0.0,-0.75,0.8669108669108669,0.5152625152625152,-2.976800976800977,1.28125,0.0,-0.8125,0.0,0.0,-3.8656898656898657,1.15625,0.0,-0.875,0.5421245421245421,0.0,-3.8608058608058613,0.8125,0.0,-1.03125,-0.503052503052503,0.0,-2.947496947496948,0.71875,0.0,-1.0625,-1.661782661782662,0.8693528693528694,-3.0183150183150182,0.75,0.0,-1.03125,-1.68009768009768,0.7167277167277167,-2.9108669108669107,0.75,0.0,-0.9375,-1.5030525030525033,0.0,-2.7826617826617825,0.59375,0.0,-0.875,-1.6678876678876684,0.0,-2.601953601953602,0.0,0.0,-0.8125,-2.4017094017094016,0.7435897435897436,-2.706959706959707,0.0,0.0,-0.71875,-2.4713064713064714,0.8241758241758241,-2.291819291819292,0.0,0.0,-0.59375,-2.2564102564102564,0.7631257631257631,-1.7191697191697193,0.0,0.0,0.0,-1.6947496947496947,0.5433455433455433,-1.1465201465201464,0.0,0.0,0.0,-1.387057387057387,0.0,-0.8156288156288156,0.0,0.0,0.0,-1.2539682539682542,0.0,-0.5238095238095238,0.0,0.0,0.0,-0.9072039072039072,0.0,0.0,0.0,0.0,0.0,-0.5665445665445665,0.0,0.0,0.0,0.0,0.0,0.0,0.0,0.0,0.0,0.0,0.0,0.0,0.0,0.0,0.0,0.0,0.0,0.0,0.0,0.0,0.0,0.0,0.0,0.0,0.0,0.0,0.0,0.0,0.0,0.0,0.0,0.0,0.0,0.0,0.0,0.0,0.0,0.0,0.0,0.0,0.0,0.0,0.0,0.0,0.0,0.0,0.0,0.0,0.0,0.0,0.0,0.0,0.0,0.0,0.0,0.0,0.0,0.0,0.0,0.0,0.0,0.0,0.0,0.0,0.0,0.0,0.0,0.0,0.0,0.0,0.0,,,,,,,,,,,,,,,,,,,,,,,,,wp_set
accX,0.0,0.0,0.5091575091575091,0.0,0.0,0.0,0.0,0.0,0.0,0.53125,0.0,0.0,0.7533577533577533,0.0,0.0,0.0,0.0,0.0,1.7362637362637363,0.0,0.0,0.5625,0.0,0.0,2.0525030525030523,0.0,0.0,0.71875,0.0,0.0,2.578754578754579,-0.503052503052503,-1.266178266178266,0.6875,-0.53125,0.0,3.3382173382173383,-0.7704517704517705,-2.043956043956044,0.0,0.0,-0.71875,3.660561660561661,-0.94993894993895,-4.532356532356532,0.0,0.0,-1.0625,3.3296703296703303,-0.8534798534798534,-5.62026862026862,0.0,0.0,-1.34375,3.1843711843711837,-0.978021978021978,-6.084249084249084,0.0,0.0,-1.59375,2.7973137973137967,-1.8925518925518925,-6.802197802197803,0.0,0.0,-1.90625,2.053724053724053,-2.230769230769231,-7.063492063492062,0.0,0.59375,-2.3125,0.7619047619047619,-1.9694749694749696,-7.230769230769232,0.0,0.53125,-2.5625,-1.2527472527472527,-1.5409035409035412,-7.506715506715508,-0.625,0.0,-2.6875,-2.56043956043956,-1.5006105006105006,-7.774114774114773,-1.09375,0.0,-2.6875,-4.5445665445665435,-1.463980463980464,-7.835164835164836,-1.5625,0.53125,-2.53125,-5.684981684981684,-1.9352869352869355,-7.0586080586080575,-2.03125,0.90625,-2.3125,-6.158730158730159,-2.4920634920634916,-5.37973137973138,-2.375,1.03125,-2.0,-6.278388278388277,-3.304029304029304,-3.6495726495726495,-2.90625,0.8125,-1.5,-7.529914529914531,-4.004884004884005,-2.305250305250305,-3.125,0.96875,-1.1875,-8.056166056166056,-4.263736263736264,-0.7680097680097681,-3.1875,1.15625,-0.84375,-7.981684981684983,-4.465201465201465,0.8009768009768009,-3.125,1.125,0.0,-7.575091575091576,-4.7326007326007336,2.267399267399268,-3.09375,0.84375,0.0,-7.559218559218558,-4.594627594627593,3.1648351648351647,-3.03125,0.5625,0.0,-7.434676434676435,-4.400488400488402,3.716727716727717,-2.90625,0.0,0.59375,-7.05982905982906,-4.263736263736264,4.206349206349207,-2.71875,0.0,0.96875,-6.297924297924298,-4.31990231990232,4.446886446886447,-2.46875,0.0,1.28125,-5.667887667887667,-4.3821733821733835,4.654456654456656,-2.1875,0.0,1.5625,-4.998778998778999,-4.442002442002441,4.704517704517705,-1.875,-0.65625,1.84375,-4.235653235653237,-4.402930402930403,5.2405372405372415,-1.40625,-0.78125,2.1875,-2.2844932844932844,-4.258852258852259,5.809523809523809,-1.0625,-1.03125,2.28125,-1.5213675213675213,-4.306471306471306,5.803418803418803,-0.75,-1.28125,2.375,-0.8339438339438342,-4.135531135531137,5.732600732600732,0.0,-1.5,2.40625,0.0,-4.058608058608058,5.3125763125763115,0.0,-1.5625,2.34375,0.7264957264957265,-3.6263736263736255,4.782661782661783,0.0,-1.59375,2.28125,1.5531135531135531,-3.7875457875457874,3.827838827838828,0.0,-1.75,2.21875,2.398046398046398,-4.368742368742368,2.877899877899878,0.65625,-1.9375,2.09375,2.6959706959706957,-4.318681318681318,2.357753357753358,0.6875,-2.125,1.90625,2.6105006105006106,-2.9511599511599518,2.2808302808302807,0.84375,-2.03125,1.625,2.32967032967033,-1.7997557997557998,1.7130647130647132,1.40625,-1.5,1.40625,3.195360195360196,-1.6263736263736264,0.8852258852258852,1.96875,-1.0,1.34375,3.9890109890109886,-2.481074481074481,0.0,1.90625,-0.90625,1.125,3.927960927960928,-3.0463980463980462,-1.4017094017094016,1.46875,-1.09375,0.90625,3.335775335775337,-2.275946275946276,-1.1391941391941391,1.1875,-1.03125,0.6875,3.225885225885226,-0.8388278388278388,0.0,1.4375,-0.75,0.0,3.7509157509157514,0.0,0.0,1.78125,-0.53125,0.0,4.057387057387056,-1.1672771672771671,-1.1623931623931625,1.8125,0.0,0.0,4.006105006105006,-1.612942612942613,-2.1709401709401708,1.4375,-0.5625,0.0,3.9975579975579976,-1.8315018315018317,-2.2649572649572653,0.9375,-0.84375,0.0,3.0109890109890114,-0.9438339438339438,-1.2014652014652014,0.78125,-0.90625,-0.625,1.9352869352869355,0.0,0.0,1.1875,0.0,-0.8125,1.967032967032967,0.0,-0.7106227106227107,1.53125,0.0,-1.03125,1.043956043956044,0.0,-2.347985347985348,1.375,0.0,-1.125,0.0,0.0,-2.8669108669108665,0.96875,0.0,-1.34375,-1.4505494505494505,1.2673992673992671,-3.4273504273504267,1.03125,0.0,-1.4375,-2.452991452991453,1.5457875457875458,-4.1843711843711855,1.1875,0.0,-1.3125,-2.8437118437118434,1.4554334554334554,-4.615384615384615,1.125,0.0,-1.1875,-2.7765567765567765,1.3711843711843712,-4.423687423687424,0.8125,0.0,-1.0625,-2.879120879120879,1.4590964590964588,-3.954822954822955,0.5625,0.0,-0.96875,-3.1880341880341883,1.5555555555555556,-3.7326007326007327,0.0,0.0,-0.8125,-3.5543345543345537,1.5384615384615383,-3.485958485958486,0.0,0.0,-0.6875,-3.417582417582417,1.4529914529914532,-2.8229548229548236,0.0,0.0,-0.53125,-3.2295482295482296,1.4188034188034189,-2.0769230769230766,0.0,0.0,0.0,-2.6715506715506714,0.984126984126984,-1.5641025641025639,0.0,0.0,0.0,-2.147741147741148,0.6288156288156288,-1.1086691086691087,0.0,0.0,0.0,-1.73992673992674,0.0,-0.8351648351648352,0.0,0.0,0.0,-1.2417582417582418,0.0,0.0,0.0,0.0,0.0,-1.0097680097680095,0.0,0.0,0.0,0.0,0.0,-0.6178266178266179,0.0,0.0,0.0,0.0,0.0,0.0,0.0,0.0,0.0,0.0,0.0,0.0,0.0,0.0,0.0,0.0,0.0,0.0,0.0,0.0,0.0,0.0,0.0,0.0,0.0,0.0,0.0,0.0,0.0,0.0,0.0,0.0,0.0,0.0,0.0,0.0,0.0,0.0,0.0,0.0,0.0,0.0,0.0,0.0,0.0,0.0,0.0,0.0,0.0,0.0,0.0,0.0,0.0,0.0,0.0,0.0,0.0,0.0,0.0,0.0,0.0,0.0,0.0,0.0,0.0,0.0,0.0,0.0,0.0,0.0,0.0,wp_set
accX,0.0,0.0,0.5873015873015873,0.53125,0.0,0.0,0.5311355311355311,0.0,0.0,0.96875,0.0,0.0,1.0695970695970696,0.0,0.0,1.0625,0.0,0.0,2.6654456654456653,0.0,-0.7912087912087912,1.15625,0.0,0.0,3.3736263736263736,-0.6178266178266179,-1.7118437118437118,1.03125,-0.6875,0.0,3.804639804639805,0.0,-2.8754578754578755,0.8125,-0.65625,-0.59375,5.705738705738707,-1.1306471306471306,-4.134310134310135,0.59375,-0.75,-0.96875,5.538461538461538,-2.2014652014652016,-6.175824175824176,0.0,-0.625,-1.5,3.915750915750916,-2.937728937728938,-8.553113553113553,0.0,0.0,-1.90625,3.543345543345543,-3.0305250305250304,-8.985347985347984,0.0,0.0,-2.28125,2.9023199023199022,-2.7142857142857144,-8.156288156288156,0.0,0.65625,-2.59375,0.0,-2.503052503052503,-7.694749694749695,-0.625,0.71875,-2.84375,-2.807081807081807,-1.927960927960928,-7.7606837606837615,-0.96875,1.0,-2.75,-4.8949938949938945,-2.1819291819291817,-7.148962148962148,-1.71875,1.0625,-2.53125,-6.560439560439559,-2.664224664224664,-5.910866910866911,-2.40625,1.0,-2.28125,-7.603174603174603,-2.8547008547008548,-3.7387057387057383,-2.90625,1.1875,-1.9375,-8.296703296703297,-2.976800976800977,-1.4615384615384617,-3.125,1.3125,-1.59375,-8.382173382173383,-3.102564102564102,0.0,-3.09375,1.4375,-1.15625,-7.749694749694751,-3.6471306471306466,1.6862026862026862,-2.9375,1.3125,-0.75,-7.862026862026862,-4.166056166056166,1.8693528693528692,-2.9375,0.875,0.0,-7.927960927960927,-4.075702075702075,2.1672771672771667,-3.09375,0.5625,0.0,-7.537240537240537,-3.741147741147741,2.9267399267399266,-3.1875,0.0,0.0,-7.046398046398046,-3.137973137973138,3.8608058608058613,-3.0625,0.0,0.78125,-6.316239316239317,-3.2148962148962146,4.3577533577533565,-2.6875,0.0,1.1875,-5.706959706959706,-3.511599511599512,4.459096459096459,-2.0625,0.0,1.65625,-4.68986568986569,-3.9230769230769234,4.829059829059829,-1.71875,0.0,1.875,-3.7118437118437115,-4.219780219780221,5.201465201465202,-1.53125,-0.625,2.03125,-2.63980463980464,-4.251526251526252,5.716727716727718,-1.34375,-0.90625,2.15625,-1.4493284493284493,-4.037851037851038,6.0647130647130645,-1.09375,-1.34375,2.21875,-1.031746031746032,-3.94993894993895,5.7655677655677655,-0.84375,-1.65625,2.25,-1.0781440781440779,-3.525030525030525,5.650793650793651,-0.53125,-1.6875,2.21875,-0.6617826617826618,-3.3443223443223444,5.677655677655678,0.0,-1.53125,2.21875,0.0,-3.5225885225885225,5.336996336996338,0.53125,-1.53125,2.15625,1.4810744810744811,-3.6007326007326013,4.627594627594628,0.84375,-1.59375,2.09375,1.934065934065934,-3.7851037851037854,3.9010989010989015,0.90625,-1.625,1.90625,2.388278388278388,-3.9169719169719173,3.4004884004884004,0.84375,-1.6875,1.71875,2.3345543345543347,-2.484737484737485,3.2515262515262515,1.28125,-1.625,1.46875,2.2735042735042734,-2.32967032967033,2.1684981684981683,1.84375,-1.4375,1.375,3.455433455433456,-3.2783882783882783,0.6654456654456654,2.09375,-1.21875,1.25,4.383394383394384,-3.7606837606837606,0.0,1.875,-1.21875,1.0,4.260073260073259,-2.89010989010989,-0.7362637362637363,1.5625,-1.3125,0.6875,3.776556776556777,-1.7789987789987791,-1.3455433455433456,1.5625,-1.21875,0.0,3.8424908424908426,-1.1855921855921856,-1.9304029304029304,1.71875,-0.90625,0.0,4.012210012210011,-1.1672771672771671,-2.7460317460317465,1.75,-0.6875,0.0,3.6593406593406588,-0.9975579975579976,-3.5836385836385842,1.625,0.0,0.0,3.1684981684981683,-0.6410256410256411,-3.9096459096459095,1.5,0.0,0.0,3.0207570207570207,-0.5128205128205128,-3.371184371184371,1.375,0.0,-0.53125,2.7106227106227108,0.0,-2.8351648351648358,1.21875,0.0,-0.875,1.1562881562881564,0.0,-3.47008547008547,1.25,0.0,-1.0,0.0,0.0,-3.9975579975579976,1.125,0.0,-1.03125,0.0,0.0,-3.9902319902319903,0.9375,0.0,-1.09375,0.0,0.0,-3.7387057387057383,0.71875,0.0,-1.1875,-0.9450549450549449,0.6959706959706959,-3.641025641025641,0.625,0.0,-1.21875,-2.133089133089133,1.4493284493284493,-3.7387057387057383,0.59375,0.0,-1.09375,-2.8986568986568986,1.617826617826618,-3.5763125763125765,0.0,0.0,-0.9375,-2.975579975579976,1.4212454212454213,-3.2625152625152625,0.0,0.0,-0.8125,-2.7643467643467643,1.266178266178266,-2.6349206349206344,0.0,0.0,-0.6875,-2.208791208791209,1.10989010989011,-1.7032967032967032,0.0,0.0,-0.59375,-2.2844932844932844,1.0744810744810744,-1.1684981684981686,0.0,0.0,-0.5625,-1.975579975579976,0.7692307692307693,-0.7289377289377289,0.0,0.0,-0.53125,-1.5128205128205128,0.0,-0.7045177045177046,0.0,0.0,-0.53125,-1.6214896214896215,0.0,-1.0989010989010992,0.0,0.0,0.0,-1.9914529914529917,0.6398046398046398,-1.0451770451770452,0.0,0.0,0.0,-1.7985347985347986,0.5836385836385837,-0.9047619047619048,0.0,0.0,0.0,-1.4053724053724053,0.0,-0.7423687423687424,0.0,0.0,0.0,-0.8534798534798534,0.0,-0.5213675213675214,0.0,0.0,0.0,0.0,0.0,0.0,0.0,0.0,0.0,0.0,0.0,0.0,0.0,0.0,0.0,0.0,0.0,0.0,0.0,0.0,0.0,0.0,0.0,0.5225885225885226,0.0,0.0,0.0,0.0,0.0,0.5421245421245421,0.0,0.0,0.0,0.0,0.0,0.0,0.0,0.0,0.0,0.0,0.0,0.0,0.0,0.0,0.0,0.0,0.0,0.0,0.0,0.0,0.0,0.0,0.0,0.0,0.0,0.0,0.0,0.0,0.0,0.0,0.0,0.0,0.0,0.0,0.0,0.0,0.0,0.0,0.0,0.0,0.0,0.0,0.0,0.0,0.0,0.0,0.0,0.0,0.0,0.0,0.0,0.0,0.0,0.0,0.0,0.0,0.0,wp_set
accX,0.6935286935286935,0.0,0.6214896214896215,0.0,0.0,0.0,1.3467643467643469,0.0,0.0,0.53125,0.0,0.0,1.3699633699633702,0.0,0.0,0.59375,-0.59375,0.0,2.6654456654456653,-0.6678876678876678,-0.9658119658119658,0.71875,-0.625,0.0,3.2527472527472527,-1.1794871794871795,-1.746031746031746,0.75,-0.71875,0.0,3.091575091575092,-1.2258852258852257,-2.4993894993894994,0.65625,-0.59375,-0.65625,3.7985347985347984,-0.7362637362637363,-2.838827838827839,0.625,0.0,-1.0,4.0976800976800964,-0.6642246642246642,-3.7570207570207566,0.71875,0.0,-1.28125,3.6129426129426134,-0.9230769230769232,-4.859584859584858,0.8125,0.0,-1.625,2.5689865689865687,-0.9706959706959708,-6.145299145299147,0.78125,0.53125,-1.96875,1.8901098901098898,-0.6727716727716728,-6.9694749694749705,0.6875,0.71875,-2.1875,1.4774114774114775,-0.9072039072039072,-7.234432234432234,0.0,0.75,-2.34375,0.9694749694749696,-1.7057387057387057,-7.227106227106228,0.0,0.59375,-2.53125,0.0,-2.0366300366300365,-7.495726495726496,-0.59375,0.0,-2.625,-2.8217338217338215,-1.8388278388278387,-8.168498168498168,-1.09375,0.0,-2.53125,-3.4420024420024418,-2.175824175824176,-7.561660561660561,-1.53125,0.65625,-2.375,-3.245421245421245,-3.31013431013431,-6.547008547008548,-2.0625,0.59375,-2.1875,-4.38949938949939,-4.151404151404152,-5.435897435897436,-2.53125,0.0,-1.9375,-6.017094017094017,-4.052503052503051,-1.431013431013431,-2.8125,0.8125,-1.5,-6.7081807081807066,-4.538461538461538,0.0,-2.78125,0.9375,-1.25,-6.915750915750916,-4.666666666666667,1.2747252747252746,-2.71875,0.9375,-0.9375,-7.0989010989010985,-4.5555555555555545,2.1721611721611715,-2.71875,0.71875,-0.625,-7.282051282051282,-4.277167277167277,2.6935286935286937,-2.75,0.0,0.0,-7.468864468864468,-3.8058608058608057,3.1074481074481075,-2.75,0.0,0.0,-7.468864468864468,-3.561660561660561,3.485958485958486,-2.6875,0.0,0.0,-7.061050061050061,-3.4615384615384617,4.023199023199023,-2.5625,0.0,0.84375,-6.306471306471306,-3.3345543345543347,4.37973137973138,-2.28125,0.0,1.21875,-5.5225885225885225,-3.571428571428572,4.5445665445665435,-1.96875,0.0,1.5,-4.611721611721611,-3.9072039072039066,4.719169719169718,-1.6875,0.0,1.78125,-3.6056166056166057,-4.085470085470085,5.035409035409035,-1.46875,0.0,2.03125,-2.6654456654456653,-3.8339438339438336,5.241758241758243,-1.25,-0.75,2.1875,-1.8058608058608057,-3.632478632478633,5.388278388278389,-1.0,-0.96875,2.25,-0.8656898656898657,-3.3553113553113554,5.586080586080586,-0.625,-1.1875,2.28125,-0.8253968253968254,-3.2808302808302807,5.228327228327228,0.0,-1.25,2.28125,0.0,-3.361416361416361,5.028083028083028,0.0,-1.25,2.25,0.8339438339438342,-3.63980463980464,4.797313797313797,0.0,-1.40625,2.21875,1.6043956043956045,-3.8253968253968256,4.238095238095238,0.0,-1.6875,2.125,2.31013431013431,-3.4481074481074483,3.9462759462759465,0.0,-1.90625,2.0,2.518925518925519,-3.0354090354090357,3.571428571428572,0.65625,-1.84375,1.84375,2.37973137973138,-3.0793650793650795,2.947496947496948,1.125,-1.46875,1.625,2.6630036630036633,-3.2039072039072036,2.5726495726495733,1.53125,-0.96875,1.40625,3.565323565323565,-3.3003663003662997,1.5543345543345544,1.71875,-1.0,1.15625,4.728937728937728,-3.542124542124542,0.0,1.375,-1.46875,1.03125,3.5921855921855923,-2.383394383394384,0.0,1.0625,-1.6875,0.78125,3.688644688644689,-1.5995115995115996,0.0,1.28125,-1.28125,0.5625,3.7655677655677655,-1.4102564102564104,-0.8205128205128205,1.6875,-0.84375,0.0,4.567765567765568,-1.735042735042735,-1.6153846153846154,1.71875,-0.6875,0.0,4.2002442002442,-1.3345543345543345,-2.213675213675214,1.40625,-0.8125,0.0,3.4639804639804637,-0.8656898656898657,-2.9694749694749696,1.21875,-0.75,0.0,2.184371184371184,-0.5824175824175825,-3.836385836385837,1.15625,-0.65625,0.0,1.752136752136752,0.0,-3.9291819291819285,1.125,0.0,-0.625,1.6691086691086692,0.0,-3.6190476190476186,1.03125,0.0,-0.75,1.0695970695970696,0.0,-3.2710622710622714,0.84375,0.0,-0.90625,0.0,0.0,-3.1562881562881566,0.84375,0.0,-1.09375,0.0,0.0,-3.407814407814408,0.84375,0.0,-1.1875,-1.0634920634920637,0.5995115995115995,-3.435897435897436,0.8125,0.0,-1.21875,-1.6336996336996337,0.6678876678876678,-3.388278388278388,0.75,0.0,-1.21875,-2.347985347985348,1.0366300366300367,-3.42002442002442,0.65625,0.0,-1.15625,-2.826617826617827,1.275946275946276,-3.4444444444444446,0.53125,0.0,-1.0,-3.2503052503052503,1.6117216117216118,-3.051282051282051,0.0,0.0,-0.84375,-3.2551892551892547,1.380952380952381,-2.5177045177045176,0.0,0.0,-0.6875,-2.8656898656898657,1.3137973137973138,-1.9194139194139197,0.0,0.0,-0.5625,-2.6373626373626373,1.5409035409035412,-1.5518925518925517,0.0,0.0,0.0,-3.091575091575092,1.424908424908425,-1.7387057387057387,0.0,0.0,0.0,-2.6361416361416357,0.9304029304029304,-1.6446886446886446,0.0,0.0,0.0,-1.3137973137973138,0.0,-0.8461538461538461,0.0,0.0,0.0,-0.8852258852258852,0.0,0.0,0.0,0.0,0.0,-1.037851037851038,0.0,0.0,0.0,0.0,0.0,0.0,0.0,0.0,0.0,0.0,0.0,0.0,0.0,0.0,0.0,0.0,0.0,0.0,0.0,0.0,0.0,0.0,0.0,0.0,0.0,0.0,0.0,0.0,0.0,0.0,0.0,0.0,0.0,0.0,0.0,0.0,0.0,0.0,0.0,0.0,0.0,0.0,0.0,0.0,0.0,0.0,0.0,0.0,0.0,0.0,0.0,0.0,0.0,0.0,0.0,0.0,0.0,0.0,0.0,0.0,0.0,0.0,0.0,0.0,0.0,0.0,0.0,0.0,0.0,0.0,0.0,0.0,0.0,0.0,0.0,0.0,0.0,wp_set
accX,0.0,0.0,0.0,0.0,0.0,0.0,0.5836385836385837,0.0,0.0,0.65625,0.0,0.0,1.1794871794871795,0.0,-0.6776556776556777,0.625,0.0,0.0,2.2002442002442004,0.0,-0.8131868131868132,0.625,0.0,0.0,2.0805860805860807,-0.5128205128205128,-1.321123321123321,0.78125,-0.625,0.0,2.0134310134310134,-0.9755799755799756,-2.2735042735042734,0.71875,-0.59375,-0.625,3.41025641025641,-0.7179487179487181,-2.7814407814407813,0.0,0.0,-1.0,4.131868131868131,-1.0866910866910866,-3.978021978021978,0.0,0.0,-1.34375,3.931623931623931,-2.010989010989011,-5.37973137973138,0.0,0.0,-1.78125,2.4285714285714284,-2.231990231990232,-6.322344322344322,0.0,0.0,-2.1875,1.5665445665445663,-1.617826617826618,-6.592185592185593,0.0,0.625,-2.5,0.557997557997558,-1.7753357753357752,-6.6190476190476195,0.0,0.75,-2.65625,-0.9511599511599512,-2.267399267399268,-7.052503052503053,0.0,0.6875,-2.71875,-2.1904761904761907,-2.1770451770451764,-6.951159951159951,-0.71875,0.0,-2.65625,-3.9413919413919416,-2.5360195360195363,-7.358974358974358,-1.25,0.0,-2.53125,-4.786324786324786,-3.117216117216117,-6.829059829059829,-1.90625,0.625,-2.28125,-5.684981684981684,-3.6544566544566544,-5.468864468864468,-2.53125,0.59375,-2.0,-6.592185592185593,-3.9743589743589753,-3.6910866910866913,-3.0,0.65625,-1.4375,-7.975579975579977,-3.9877899877899887,-1.1245421245421243,-3.125,0.75,-1.03125,-8.417582417582418,-4.504273504273504,0.0,-3.21875,0.96875,-0.625,-7.931623931623932,-4.738705738705738,1.4981684981684982,-3.34375,1.03125,0.0,-7.710622710622711,-4.8107448107448105,2.411477411477412,-3.4375,0.65625,0.0,-7.627594627594628,-4.974358974358975,2.7887667887667886,-3.4375,0.0,0.0,-7.417582417582418,-4.509157509157508,3.6312576312576312,-3.375,0.0,0.875,-6.882783882783882,-4.231990231990232,4.4822954822954815,-3.0625,0.0,1.21875,-6.135531135531137,-4.001221001221002,5.2747252747252755,-2.59375,0.0,1.5625,-4.743589743589744,-4.246642246642247,5.746031746031746,-2.03125,0.0,1.8125,-3.6996336996337003,-4.245421245421245,5.94017094017094,-1.59375,0.0,2.0,-2.934065934065934,-4.5445665445665435,5.643467643467643,-1.28125,-0.59375,2.15625,-2.203907203907204,-4.747252747252747,5.224664224664225,-1.25,-1.125,2.3125,-1.4932844932844933,-4.0305250305250295,5.266178266178266,-1.15625,-1.46875,2.375,-1.3601953601953602,-2.9621489621489623,5.223443223443224,-0.65625,-1.53125,2.4375,-0.9902319902319904,-2.6129426129426134,4.871794871794871,0.0,-1.34375,2.46875,0.0,-3.1562881562881566,4.0647130647130645,0.0,-1.28125,2.4375,0.9926739926739928,-4.244200244200244,3.2539682539682535,0.0,-1.46875,2.34375,1.7765567765567765,-4.3577533577533565,2.881562881562881,0.0,-1.84375,2.21875,2.061050061050061,-3.1001221001221,3.021978021978022,0.0,-1.9375,2.09375,1.7643467643467643,-2.5995115995116,2.623931623931624,0.75,-1.53125,1.9375,2.2295482295482296,-2.8742368742368742,2.393162393162393,1.125,-1.1875,1.75,2.6129426129426134,-3.2991452991452985,2.067155067155068,1.21875,-1.15625,1.59375,3.9169719169719173,-2.533577533577533,1.8339438339438336,1.15625,-1.5,1.40625,3.326007326007326,-1.7313797313797314,0.0,1.125,-1.5,1.03125,2.8827838827838828,-1.844932844932845,-1.5970695970695972,1.0625,-1.3125,0.78125,2.8021978021978016,-1.2283272283272284,-1.8864468864468864,0.875,-1.0,0.53125,3.407814407814408,-1.3113553113553114,-1.5262515262515262,0.84375,-0.875,0.0,3.609279609279609,-0.9035409035409036,-1.4456654456654456,0.78125,-0.9375,0.0,2.435897435897436,0.0,-2.05982905982906,0.875,-0.90625,0.0,2.0329670329670333,0.0,-2.7338217338217334,0.96875,-0.625,0.0,1.9328449328449329,0.0,-2.8412698412698414,0.875,0.0,0.0,1.8253968253968251,0.0,-2.477411477411477,0.875,0.0,-0.53125,0.5653235653235653,0.7484737484737485,-2.7423687423687424,1.03125,0.0,-0.65625,0.0,0.6752136752136753,-2.9059829059829063,1.1875,0.0,-0.71875,0.0,0.0,-2.8217338217338215,1.03125,0.0,-0.8125,0.0,0.0,-2.4444444444444446,0.90625,0.0,-0.9375,0.0,0.0,-2.3675213675213675,0.84375,0.0,-1.0625,-0.8253968253968254,0.0,-2.417582417582417,0.8125,0.0,-1.09375,-1.3833943833943834,0.5347985347985348,-2.1416361416361416,0.75,0.0,-1.09375,-1.155067155067155,0.0,-1.6507936507936507,0.6875,0.0,-1.09375,-1.2222222222222223,0.8144078144078144,-1.5067155067155067,0.6875,0.0,-1.125,-2.294261294261294,1.275946275946276,-2.2576312576312576,0.65625,0.0,-1.03125,-3.0830280830280827,1.608058608058608,-2.774114774114774,0.0,0.0,-0.875,-3.1428571428571432,1.7179487179487178,-2.7533577533577533,0.0,0.0,-0.78125,-2.5970695970695967,1.5079365079365081,-2.3443223443223444,0.0,0.0,-0.65625,-2.0976800976800978,1.343101343101343,-1.7130647130647132,0.0,0.0,-0.5625,-2.0073260073260077,0.9621489621489622,-1.2148962148962148,0.0,0.0,0.0,-1.68009768009768,0.6703296703296703,-1.0989010989010992,0.0,0.0,0.0,-1.3015873015873016,0.5787545787545788,-0.7741147741147741,0.0,0.0,0.0,-1.2954822954822955,0.5641025641025641,-0.5128205128205128,0.0,0.0,0.0,-0.912087912087912,0.0,0.0,0.0,0.0,0.0,0.0,0.0,0.0,0.0,0.0,0.0,0.0,0.0,0.0,0.0,0.0,0.0,0.0,0.0,0.0,0.0,0.0,0.0,0.0,0.0,0.0,0.0,0.0,0.0,0.0,0.0,0.0,0.0,0.0,0.0,0.0,0.0,0.0,0.0,0.0,0.0,0.0,0.0,0.0,0.0,0.0,0.0,0.0,0.0,0.0,0.0,0.0,0.0,0.0,0.0,0.0,0.0,0.0,0.0,0.0,0.0,0.0,0.0,0.0,0.0,0.0,0.0,0.0,0.0,0.0,0.0,wp_set
accX,0.0,0.0,0.525030525030525,0.0,0.0,0.0,0.7264957264957265,0.0,0.94993894993895,0.0,0.0,0.0,0.6398046398046398,0.0,0.7118437118437119,0.0,0.0,0.0,0.7167277167277167,0.0,0.0,0.0,0.0,0.0,1.695970695970696,0.0,0.0,0.6875,0.0,0.0,2.542124542124542,0.0,-0.8742368742368742,0.875,0.0,0.0,3.852258852258852,0.0,-1.8473748473748477,0.90625,0.0,-0.53125,3.766788766788767,-2.064713064713065,-4.412698412698413,0.0,0.0,-1.0625,3.5482295482295485,-1.5665445665445663,-4.4322344322344325,0.0,0.0,-1.4375,2.8827838827838828,-0.6996336996336996,-4.289377289377289,0.0,0.0,-1.71875,2.7032967032967035,-0.7973137973137974,-4.140415140415141,0.0,0.0,-1.9375,1.3479853479853479,-1.1013431013431014,-4.3528693528693525,0.0,0.0,-2.1875,0.0,-1.0463980463980465,-5.01953601953602,0.0,0.0,-2.4375,0.0,-0.6764346764346765,-5.4322344322344325,0.0,0.59375,-2.53125,-0.7155067155067155,-0.8815628815628815,-5.9865689865689875,0.0,0.0,-2.5625,-2.3223443223443225,-1.21001221001221,-6.8840048840048835,-0.84375,0.0,-2.53125,-3.561660561660561,-1.982905982905983,-7.481074481074481,-1.28125,0.0,-2.40625,-5.094017094017094,-2.2234432234432235,-7.069597069597068,-1.84375,0.0,-2.1875,-5.841269841269841,-2.5384615384615383,-5.854700854700853,-2.28125,0.53125,-1.71875,-6.2918192918192934,-3.238095238095238,-4.1611721611721615,-2.8125,0.75,-1.34375,-6.467643467643467,-4.242979242979243,-2.601953601953602,-3.0625,0.71875,-1.0,-7.046398046398046,-4.581196581196581,-1.3235653235653235,-3.21875,0.78125,-0.65625,-7.561660561660561,-4.605616605616605,0.0,-3.21875,1.0,0.0,-7.173382173382174,-4.363858363858364,1.7557997557997558,-3.03125,0.90625,0.0,-6.688644688644688,-4.434676434676434,2.9059829059829063,-2.84375,0.59375,0.0,-6.7142857142857135,-4.858363858363859,2.8180708180708183,-2.78125,0.0,0.71875,-6.482295482295482,-4.775335775335775,3.3003663003662997,-2.75,0.0,1.03125,-6.134310134310135,-4.496947496947497,3.958485958485959,-2.59375,0.0,1.34375,-5.258852258852259,-4.3418803418803416,4.848595848595847,-2.28125,0.0,1.625,-4.62026862026862,-4.606837606837607,5.315018315018316,-1.96875,0.0,1.90625,-3.6935286935286937,-4.851037851037852,5.931623931623932,-1.5625,-0.90625,2.1875,-2.003663003663004,-4.454212454212454,7.006105006105006,-1.21875,-1.09375,2.25,-1.0744810744810744,-4.428571428571429,7.085470085470085,-0.71875,-1.28125,2.34375,0.0,-4.275946275946276,6.7313797313797314,0.0,-1.5,2.34375,0.757020757020757,-4.601953601953602,6.046398046398046,0.0,-1.75,2.28125,0.536019536019536,-4.615384615384615,5.3528693528693525,0.0,-2.03125,2.15625,1.3028083028083028,-4.106227106227107,4.896214896214897,0.53125,-2.0625,2.03125,1.7704517704517704,-4.137973137973138,4.142857142857143,1.03125,-1.9375,1.875,3.1782661782661785,-4.554334554334553,3.1843711843711837,1.5,-1.78125,1.71875,4.336996336996338,-5.4322344322344325,2.1794871794871797,1.65625,-1.71875,1.46875,3.9694749694749696,-5.0024420024420015,1.6031746031746033,1.5625,-1.8125,1.125,4.1037851037851025,-3.095238095238096,1.3601953601953602,1.59375,-1.71875,0.875,3.8571428571428568,-1.691086691086691,0.0,2.1875,-1.375,0.59375,4.474969474969475,-1.6007326007326008,-1.31990231990232,2.375,-1.09375,0.0,4.572649572649572,-2.0659340659340657,-3.245421245421245,2.09375,-0.96875,0.0,4.201465201465202,-1.6300366300366298,-3.611721611721612,1.6875,-0.65625,0.0,4.5103785103785095,-1.0634920634920637,-2.706959706959707,1.46875,0.0,0.0,4.130647130647131,0.0,-2.4163614163614158,1.40625,-0.5625,0.0,3.065934065934066,0.0,-3.330891330891331,1.40625,-0.5625,0.0,2.095238095238096,0.0,-4.291819291819292,1.25,0.0,-0.625,1.3699633699633702,0.0,-4.628815628815629,1.09375,0.0,-0.75,0.0,0.7277167277167277,-4.7252747252747245,0.96875,0.0,-0.84375,-1.2014652014652014,1.2832722832722834,-4.065934065934067,0.9375,0.0,-0.78125,-1.1025641025641026,1.1306471306471306,-3.1855921855921854,0.75,0.0,-0.65625,-1.0073260073260073,0.0,-2.965811965811966,0.6875,0.0,-0.6875,-2.0525030525030523,0.0,-3.931623931623931,0.625,0.0,-0.6875,-2.2576312576312576,0.0,-3.7460317460317465,0.0,0.0,-0.6875,-2.0097680097680097,0.0,-2.9951159951159956,0.0,0.0,-0.65625,-1.4822954822954824,0.6080586080586079,-2.0976800976800978,0.0,0.0,-0.59375,-1.7912087912087913,0.6739926739926739,-1.6727716727716728,0.0,0.0,-0.5625,-1.8412698412698407,0.6862026862026862,-1.3931623931623929,0.0,0.0,0.0,-1.4810744810744811,0.7423687423687424,-0.7973137973137974,0.0,0.0,0.0,-1.2954822954822955,0.5396825396825397,0.0,0.0,0.0,0.0,-0.5885225885225885,0.0,0.0,0.0,0.0,0.0,0.0,0.0,0.0,0.0,0.0,0.0,0.0,0.0,0.0,0.0,0.0,0.0,0.0,0.0,0.0,0.0,0.0,0.0,0.0,0.0,0.0,0.0,0.0,0.0,0.0,0.0,0.0,0.0,0.0,0.0,0.0,0.0,0.0,0.0,0.0,0.0,0.0,0.0,0.0,0.0,0.0,0.0,0.0,0.0,0.0,0.0,0.0,0.0,0.0,0.0,-0.5885225885225885,0.0,0.0,0.0,0.0,0.0,0.0,0.0,0.0,0.0,0.0,0.0,-0.6190476190476191,0.0,0.0,0.0,0.0,0.0,0.0,0.0,0.0,0.0,0.0,0.0,0.0,0.0,0.0,0.0,,,,,,,,,,,,,,,,,,,wp_set
accX,0.0,0.0,0.6605616605616605,0.0,0.0,0.0,0.0,0.6874236874236874,1.0366300366300367,0.0,0.0,0.0,0.78998778998779,0.0,1.15995115995116,0.65625,0.0,0.0,1.4041514041514038,0.0,0.0,0.8125,0.0,0.0,2.505494505494505,-0.8058608058608059,0.0,0.875,0.0,0.0,3.6251526251526247,-0.9316239316239316,-0.9987789987789988,0.78125,0.0,0.0,4.713064713064713,-0.6654456654456654,-2.1404151404151404,0.71875,0.0,0.0,5.346764346764347,-1.0952380952380951,-3.68009768009768,0.75,0.0,-0.6875,4.700854700854701,0.0,-5.256410256410256,0.875,0.0,-1.125,5.177045177045176,-0.9474969474969476,-6.377289377289378,1.3125,0.78125,-1.40625,5.927960927960927,-3.034188034188034,-7.589743589743589,1.28125,0.9375,-1.8125,5.898656898656899,-3.6214896214896215,-7.666666666666668,0.0,0.5625,-2.34375,3.4249084249084247,-2.7448107448107453,-6.958485958485959,0.0,0.0,-2.78125,0.0,-1.8644688644688645,-6.549450549450549,-0.84375,0.0,-3.0625,-1.6068376068376071,-1.6923076923076923,-6.470085470085469,-0.90625,0.0,-3.15625,-2.8192918192918195,-2.4322344322344316,-6.892551892551893,-1.21875,0.0,-3.0625,-4.413919413919414,-3.2759462759462763,-6.858363858363857,-1.875,0.0,-2.84375,-5.9462759462759465,-3.5628815628815627,-6.1001221001221,-2.4375,0.0,-2.5625,-7.515262515262514,-3.483516483516484,-4.663003663003662,-2.78125,0.0,-2.125,-8.354090354090356,-3.874236874236874,-3.678876678876679,-2.96875,0.625,-1.625,-9.146520146520146,-4.470085470085469,-2.4615384615384617,-3.15625,0.875,-1.125,-9.040293040293038,-4.808302808302808,-0.8608058608058609,-3.28125,0.90625,-0.6875,-8.672771672771674,-4.859584859584858,0.757020757020757,-3.34375,0.71875,0.0,-8.545787545787546,-4.842490842490842,1.94993894993895,-3.34375,0.0,0.0,-8.175824175824175,-4.926739926739927,2.8583638583638584,-3.21875,0.0,0.65625,-7.90964590964591,-5.035409035409035,3.6263736263736255,-2.8125,0.0,1.25,-6.172161172161172,-5.183150183150183,5.378510378510379,-2.375,0.0,1.5625,-4.877899877899878,-5.6361416361416365,5.630036630036631,-2.03125,0.0,1.78125,-3.748473748473749,-5.467643467643467,6.068376068376068,-1.8125,-0.53125,1.96875,-2.7887667887667886,-5.192918192918193,6.317460317460317,-1.59375,-0.9375,2.09375,-2.3272283272283274,-4.667887667887668,6.282051282051282,-1.34375,-1.21875,2.15625,-2.0305250305250304,-4.418803418803419,6.308913308913309,-0.90625,-1.375,2.21875,-1.5873015873015872,-4.53968253968254,6.3699633699633695,0.0,-1.4375,2.25,-0.7912087912087912,-4.27960927960928,6.454212454212454,0.0,-1.53125,2.25,0.0,-3.5824175824175826,6.0537240537240535,0.0,-1.875,2.25,0.5079365079365079,-3.606837606837607,5.020757020757022,0.0,-2.25,2.25,1.5702075702075702,-4.249084249084248,3.748473748473749,0.59375,-2.40625,2.1875,2.056166056166056,-4.754578754578755,2.385836385836386,0.9375,-2.25,1.90625,2.523809523809524,-3.9865689865689866,1.8376068376068373,1.34375,-1.84375,1.6875,3.556776556776557,-2.778998778998779,1.4737484737484738,1.78125,-1.40625,1.53125,4.593406593406592,-2.948717948717949,0.8095238095238095,1.9375,-1.28125,1.375,5.581196581196581,-3.7142857142857135,0.0,1.75,-1.375,1.09375,5.623931623931624,-3.7118437118437115,-0.5567765567765568,1.5,-1.53125,0.75,4.7313797313797314,-2.6336996336996337,-0.811965811965812,1.53125,-1.28125,0.0,5.0,-0.8742368742368742,-0.6739926739926739,1.8125,-0.90625,0.0,5.678876678876679,-0.9426129426129426,-1.8351648351648349,1.9375,-0.75,0.0,5.719169719169719,-1.2893772893772897,-3.1391941391941387,1.78125,-0.75,0.0,4.3992673992674005,-0.989010989010989,-4.4993894993894985,1.625,0.0,-0.65625,3.2796092796092795,0.0,-4.951159951159951,1.5,0.0,-0.90625,1.4224664224664223,0.0,-4.061050061050061,1.28125,0.0,-1.09375,0.8473748473748474,0.0,-3.2967032967032965,1.125,0.0,-1.21875,0.6483516483516484,0.0,-3.391941391941392,0.90625,0.0,-1.375,-2.004884004884005,1.072039072039072,-4.632478632478633,0.71875,0.0,-1.46875,-3.4065934065934065,1.7887667887667889,-4.8949938949938945,0.65625,0.0,-1.34375,-3.47985347985348,1.8205128205128205,-4.3760683760683765,0.5625,0.0,-1.15625,-3.1562881562881566,1.8070818070818069,-3.5091575091575087,0.0,0.0,-1.0,-3.641025641025641,1.7216117216117215,-3.10989010989011,0.0,0.0,-0.84375,-3.94993894993895,1.636141636141636,-2.628815628815629,0.0,0.0,-0.65625,-3.816849816849817,1.5714285714285714,-1.8913308913308915,0.0,0.0,0.0,-3.2124542124542126,1.1855921855921856,-1.2857142857142858,0.0,0.0,0.0,-2.407814407814408,0.6520146520146519,-0.7704517704517705,0.0,0.0,0.0,-1.7301587301587302,0.0,0.0,0.0,0.0,0.0,-1.1587301587301588,0.0,0.0,0.0,0.0,0.0,-0.9047619047619048,0.0,0.0,0.0,0.0,0.0,-0.5995115995115995,0.0,0.0,0.0,0.0,0.0,0.0,0.0,0.0,0.0,0.0,0.0,0.0,0.0,0.0,0.0,0.0,0.0,0.0,0.0,0.0,0.0,0.0,0.0,0.0,0.0,0.0,0.0,0.0,0.0,,,,,,,,,,,,,,,,,,,,,,,,,,,,,,,,,,,,,,,,,,,,,,,,,,,,,,,,,,,,,,,,,,,wp_set
accX,0.0,0.6886446886446886,1.2075702075702075,0.0,0.0,0.0,0.0,0.0,0.0,0.75,0.0,0.0,1.2539682539682542,0.0,-0.5885225885225885,0.71875,0.0,0.0,2.4004884004884004,0.0,-0.9523809523809524,0.75,0.0,0.0,3.0488400488400487,0.0,-1.326007326007326,0.875,0.0,0.0,4.061050061050061,0.0,-1.9474969474969477,0.9375,0.0,0.0,4.809523809523808,0.0,-3.3638583638583635,0.96875,0.0,-0.8125,4.798534798534798,-0.6666666666666666,-4.3760683760683765,1.0,0.0,-1.1875,4.854700854700853,-1.5726495726495726,-5.702075702075702,1.4375,0.71875,-1.5625,6.6996336996337,-2.7472527472527477,-6.755799755799756,1.75,1.3125,-1.96875,5.637362637362638,-3.4273504273504267,-7.493284493284492,1.59375,1.34375,-2.59375,3.1697191697191696,-3.5482295482295485,-7.472527472527473,0.59375,1.03125,-3.28125,1.7252747252747254,-2.948717948717949,-6.7374847374847375,0.0,0.0,-3.375,-0.9010989010989012,-2.2332112332112333,-6.224664224664225,-1.3125,-0.65625,-3.375,-4.496947496947497,-1.8192918192918195,-6.7374847374847375,-1.71875,-0.5625,-3.15625,-6.813186813186812,-2.351648351648352,-7.284493284493284,-2.09375,0.0,-2.78125,-7.4444444444444455,-3.2039072039072036,-6.277167277167277,-2.53125,0.0,-2.3125,-8.03052503052503,-4.410256410256411,-4.836385836385836,-3.0,0.0,-1.84375,-8.356532356532359,-5.3199023199023205,-3.5885225885225887,-3.40625,0.0,-1.375,-9.288156288156287,-5.527472527472527,-2.1086691086691087,-3.6875,0.59375,-0.875,-9.111111111111109,-5.6691086691086685,0.0,-3.75,0.78125,0.0,-8.507936507936508,-6.007326007326008,0.7509157509157509,-3.71875,0.75,0.0,-7.807081807081808,-6.344322344322344,1.5982905982905984,-3.65625,0.625,0.0,-6.8217338217338215,-4.924297924297925,3.851037851037851,-3.25,0.0,0.78125,-6.559218559218558,-4.847374847374847,4.283272283272283,-2.96875,0.0,1.125,-5.4371184371184365,-4.6422466422466435,5.118437118437118,-2.75,0.0,1.4375,-4.305250305250305,-4.637362637362638,5.882783882783882,-2.5,0.0,1.71875,-3.6129426129426134,-4.724053724053724,6.136752136752138,-2.21875,-0.8125,1.96875,-2.6092796092796093,-4.78021978021978,6.503052503052503,-1.84375,-1.1875,2.15625,-1.8730158730158732,-4.673992673992673,6.73992673992674,-1.4375,-1.4375,2.28125,-1.2515262515262515,-4.3296703296703285,6.891330891330893,-0.90625,-1.4375,2.3125,-0.7667887667887668,-3.9706959706959712,6.456654456654457,0.0,-1.4375,2.3125,0.0,-4.509157509157508,5.548229548229548,0.0,-1.65625,2.34375,0.0,-4.289377289377289,4.7997557997558,0.0,-2.0625,2.25,0.8083028083028083,-4.387057387057388,4.0989010989010985,0.0,-2.3125,2.125,0.5714285714285714,-4.058608058608058,3.357753357753358,0.78125,-2.25,2.0,1.166056166056166,-3.1404151404151404,2.7008547008547015,1.1875,-1.9375,1.90625,2.3943833943833943,-3.0207570207570207,2.0378510378510377,1.5625,-1.65625,1.8125,3.2307692307692313,-3.457875457875458,1.0964590964590966,1.625,-1.53125,1.65625,3.954822954822955,-4.196581196581197,0.0,1.375,-1.59375,1.40625,3.7399267399267404,-3.3015873015873014,0.0,1.15625,-1.59375,1.125,3.13064713064713,-1.6092796092796091,0.0,1.34375,-1.21875,0.9375,3.7655677655677655,-0.8705738705738706,0.0,1.75,-0.90625,0.8125,4.294261294261294,-1.3186813186813189,-1.1355311355311355,1.875,-0.875,0.625,4.0366300366300365,-1.8266178266178263,-2.4053724053724053,1.59375,-0.75,0.0,3.7509157509157514,-1.706959706959707,-2.675213675213675,1.25,0.0,0.0,3.433455433455433,-1.1709401709401708,-2.311355311355311,1.125,0.0,0.0,2.737484737484737,0.0,-2.5225885225885225,1.25,0.0,0.0,2.144078144078144,0.0,-2.927960927960928,1.28125,0.0,-0.6875,1.6593406593406594,0.0,-3.671550671550672,1.21875,0.0,-0.84375,0.0,0.5128205128205128,-4.42002442002442,1.09375,0.0,-0.96875,0.0,0.6971916971916972,-4.203907203907204,1.0,0.0,-0.96875,0.0,0.7032967032967034,-3.6971916971916974,0.8125,0.0,-1.0625,0.0,0.5543345543345544,-2.9023199023199022,0.6875,0.0,-1.15625,-0.9633699633699634,0.0,-3.398046398046398,0.625,0.0,-1.28125,-2.5665445665445668,1.115995115995116,-3.9609279609279615,0.0,0.0,-1.28125,-3.3528693528693534,1.8669108669108667,-3.3626373626373627,0.0,0.0,-1.09375,-3.4664224664224665,1.6996336996336996,-2.687423687423687,0.0,0.0,-0.9375,-2.7045177045177047,0.8925518925518926,-2.1648351648351647,0.0,0.0,-0.75,-2.3504273504273505,0.0,-1.8498168498168501,0.0,0.0,-0.71875,-2.1562881562881557,0.7155067155067155,-1.0195360195360197,0.0,0.0,-0.65625,-2.7032967032967035,0.5128205128205128,-0.9877899877899878,0.0,0.0,-0.53125,-2.268620268620269,0.0,-0.8266178266178266,0.0,0.0,0.0,-1.8021978021978025,0.0,-0.7924297924297924,0.0,0.0,0.0,-1.4053724053724053,0.0,-0.5018315018315018,0.0,0.0,0.0,-1.6813186813186811,0.0,0.0,0.0,0.0,0.0,-1.431013431013431,0.0,0.0,0.0,0.0,0.0,-1.006105006105006,0.0,0.0,0.0,0.0,0.0,0.0,0.0,0.0,0.0,0.0,0.0,0.0,0.0,0.0,0.0,0.0,0.0,0.0,0.0,0.0,0.0,0.0,0.0,0.0,0.0,0.0,0.0,0.0,0.0,0.0,0.0,0.0,0.0,0.0,0.0,0.0,0.0,0.0,0.0,0.0,0.0,0.0,0.0,0.0,0.0,0.0,0.0,0.0,0.0,0.0,0.0,0.0,0.0,0.0,0.0,0.0,0.0,0.0,0.0,0.0,0.0,0.0,0.0,0.0,0.0,0.0,0.0,0.0,0.0,0.0,0.0,0.0,0.0,0.0,0.0,0.0,0.0,wp_set
accX,0.0,0.0,0.6349206349206349,0.0,0.0,0.0,0.0,0.7960927960927959,1.017094017094017,0.0,0.0,0.0,0.5115995115995116,0.0,0.0,0.8125,-0.5625,0.0,0.0,-0.7472527472527473,-1.0268620268620268,1.0,-0.59375,0.0,0.8998778998778999,-1.2466422466422469,-2.139194139194139,0.75,0.0,0.0,2.7643467643467643,-1.1782661782661783,-1.5995115995115996,0.5625,0.0,0.0,2.9365079365079363,0.0,-1.175824175824176,0.71875,0.0,0.0,4.1550671550671545,0.0,-1.6336996336996337,1.0625,0.0,0.0,4.532356532356532,-1.5494505494505495,-3.4285714285714284,1.28125,0.0,-0.90625,4.205128205128204,-2.515262515262515,-5.333333333333333,1.09375,0.0,-1.40625,5.450549450549451,-1.9792429792429795,-5.4212454212454215,0.8125,0.0,-1.8125,5.661782661782662,-2.0183150183150182,-5.825396825396825,0.0,0.0,-2.25,4.297924297924298,-2.8156288156288163,-7.001221001221001,0.0,0.0,-2.65625,1.9865689865689864,-2.778998778998779,-6.985347985347985,0.0,0.0,-3.03125,0.0,-2.7216117216117217,-6.518925518925519,-0.625,0.0,-3.1875,-0.5409035409035409,-1.9694749694749696,-5.8339438339438345,-1.25,0.0,-3.1875,-3.7020757020757022,-1.724053724053724,-5.63980463980464,-1.59375,0.0,-3.09375,-5.521367521367521,-2.2503052503052503,-5.549450549450549,-1.84375,0.0,-2.90625,-6.440781440781442,-2.628815628815629,-5.007326007326007,-2.15625,0.625,-2.59375,-7.047619047619048,-3.3858363858363862,-4.218559218559219,-2.34375,0.84375,-2.21875,-7.775335775335775,-4.282051282051282,-3.2698412698412698,-2.59375,1.09375,-1.8125,-8.042735042735043,-4.681318681318682,-1.531135531135531,-2.90625,1.34375,-1.4375,-8.089133089133089,-4.625152625152626,0.0,-3.0625,1.34375,-1.0625,-8.227106227106226,-4.622710622710622,1.8021978021978025,-3.0,1.0625,-0.625,-8.687423687423687,-4.5335775335775335,2.3956043956043955,-3.0,0.8125,0.0,-8.472527472527473,-4.380952380952381,3.291819291819292,-3.03125,0.59375,0.0,-7.761904761904763,-4.551892551892552,4.299145299145299,-3.09375,0.0,0.65625,-6.851037851037852,-4.529914529914531,5.252747252747253,-2.90625,0.0,1.28125,-6.686202686202687,-4.216117216117216,5.628815628815629,-2.46875,-0.65625,1.65625,-5.687423687423687,-4.086691086691086,5.814407814407813,-1.875,-0.625,2.0,-4.346764346764346,-4.333333333333333,5.719169719169719,-1.40625,-0.625,2.1875,-3.115995115995116,-4.68986568986569,5.463980463980464,-1.15625,-0.71875,2.34375,-1.8070818070818069,-4.838827838827839,5.4884004884004876,-1.0,-1.09375,2.40625,-0.9768009768009768,-4.897435897435898,5.549450549450549,-0.9375,-1.5625,2.4375,0.0,-3.991452991452992,5.871794871794871,-0.71875,-1.84375,2.375,0.0,-2.8180708180708183,5.483516483516484,0.0,-1.875,2.375,0.0,-2.8656898656898657,4.753357753357753,0.0,-1.6875,2.375,0.8791208791208791,-3.6105006105006106,4.293040293040293,0.0,-1.8125,2.3125,2.705738705738706,-4.4151404151404146,3.8632478632478633,0.0,-2.3125,2.09375,2.649572649572649,-2.887667887667888,2.3663003663003663,0.53125,-2.28125,1.9375,3.1062271062271063,-3.4236874236874235,1.4358974358974361,0.90625,-1.96875,1.71875,3.4713064713064714,-3.7606837606837606,1.1721611721611722,1.09375,-1.75,1.5,3.81929181929182,-2.573870573870574,1.376068376068376,1.125,-1.65625,1.25,3.8534798534798536,-1.7118437118437118,0.525030525030525,1.40625,-1.5,1.03125,3.804639804639805,-1.7973137973137974,0.0,1.5,-1.375,0.90625,3.688644688644689,-1.7191697191697193,-0.6849816849816851,1.40625,-1.25,0.71875,3.638583638583639,-1.3089133089133091,-1.0366300366300367,1.4375,-0.96875,0.0,3.9621489621489614,-0.7521367521367521,-1.442002442002442,1.59375,-0.75,0.0,3.9670329670329667,0.0,-2.0378510378510377,1.6875,-0.71875,0.0,3.5921855921855923,-0.5616605616605617,-2.7765567765567765,1.5625,-0.6875,0.0,2.8962148962148966,-0.6227106227106227,-3.8107448107448105,1.28125,0.0,0.0,1.8559218559218558,0.0,-4.244200244200244,1.15625,0.0,-0.5625,1.1001221001221002,0.6446886446886447,-3.5702075702075704,1.125,0.0,-0.65625,1.2808302808302807,0.5934065934065934,-2.433455433455433,1.125,0.0,-0.75,0.7777777777777778,0.0,-2.086691086691087,1.09375,0.0,-0.875,0.0,0.0,-3.383394383394384,0.96875,0.0,-0.96875,-1.6874236874236874,0.0,-4.4993894993894985,0.75,0.0,-1.0,-2.072039072039072,0.8840048840048841,-4.307692307692308,0.53125,0.0,-0.96875,-2.1684981684981683,1.051282051282051,-3.289377289377289,0.0,0.0,-0.9375,-2.6581196581196584,1.5396825396825398,-2.8180708180708183,0.0,0.0,-0.84375,-3.117216117216117,1.5836385836385836,-2.6544566544566544,0.0,0.0,-0.6875,-3.1587301587301586,1.290598290598291,-2.437118437118437,0.0,0.0,-0.53125,-2.3846153846153846,0.7631257631257631,-1.5054945054945057,0.0,0.0,0.0,-1.9267399267399268,0.6019536019536019,-1.0989010989010992,0.0,0.0,0.0,-2.025641025641025,0.0,-1.0256410256410255,0.0,0.0,0.0,-1.343101343101343,0.0,-0.6800976800976801,0.0,0.0,0.0,-1.0293040293040292,0.0,-0.5543345543345544,0.0,0.0,0.0,-0.78998778998779,0.5323565323565324,0.0,0.0,0.0,0.0,-1.0354090354090355,0.0,-0.5262515262515263,0.0,0.0,0.0,0.0,0.0,-0.5311355311355311,0.0,0.0,0.0,0.0,0.0,0.0,0.0,0.0,0.0,0.0,0.0,0.0,0.0,0.0,0.0,0.0,0.0,0.0,0.0,0.0,0.0,0.0,0.0,0.0,0.0,0.0,0.0,0.0,0.0,0.0,0.0,0.0,0.0,0.0,0.0,0.0,0.0,0.0,0.0,,,,,,,,,,,,,,,,,,,,,,,,,wp_set
accX,0.7179487179487181,0.0,0.811965811965812,0.5625,0.0,0.0,0.6971916971916972,0.0,0.0,0.59375,0.0,0.0,1.2039072039072038,0.0,0.0,0.5625,0.0,0.0,3.101343101343101,0.0,-0.6764346764346765,0.8125,-0.59375,0.0,3.371184371184371,-0.5787545787545788,-1.8058608058608057,1.03125,-0.53125,-0.59375,5.111111111111111,0.0,-2.4420024420024418,1.0,0.0,-0.90625,5.383394383394385,0.0,-4.385836385836386,0.875,0.0,-1.3125,4.937728937728939,-1.0842490842490842,-6.111111111111112,0.71875,0.0,-1.71875,3.873015873015873,-1.8266178266178263,-7.709401709401709,0.0,0.0,-2.09375,2.52991452991453,-1.8070818070818069,-9.052503052503052,0.0,0.0,-2.40625,1.266178266178266,-2.0695970695970702,-10.002442002442002,0.0,0.0,-2.65625,0.0,-2.8534798534798536,-10.07936507936508,0.0,0.78125,-2.875,-1.5299145299145298,-2.3663003663003663,-8.714285714285714,-1.125,0.875,-2.9375,-3.0976800976800978,-2.621489621489621,-7.295482295482294,-1.65625,0.0,-2.875,-6.113553113553113,-2.84981684981685,-6.551892551892553,-2.21875,0.0,-2.5625,-8.179487179487179,-3.241758241758242,-5.544566544566544,-2.375,1.0625,-2.15625,-8.333333333333334,-4.354090354090353,-3.9023199023199022,-2.59375,1.4375,-1.78125,-8.608058608058608,-5.2002442002442,-2.1746031746031744,-2.8125,1.34375,-1.375,-8.915750915750916,-5.818070818070817,0.0,-2.9375,1.15625,-0.9375,-9.56166056166056,-5.8217338217338215,0.9731379731379732,-2.96875,1.25,-0.53125,-9.01953601953602,-5.597069597069598,2.4822954822954824,-2.96875,1.1875,0.0,-8.181929181929181,-5.434676434676435,3.7948717948717943,-2.9375,0.75,0.0,-8.023199023199023,-4.9230769230769225,4.658119658119658,-2.8125,0.0,0.625,-7.274725274725275,-4.744810744810745,5.457875457875458,-2.59375,0.0,1.0,-6.853479853479853,-4.246642246642247,6.08058608058608,-2.21875,0.0,1.375,-5.932844932844932,-4.0927960927960925,6.4261294261294255,-1.78125,0.0,1.6875,-3.4407814407814414,-4.207570207570208,6.09035409035409,-1.3125,-0.65625,2.0,-2.6507936507936507,-4.072039072039072,6.018315018315017,-1.1875,-0.90625,2.125,-1.8974358974358971,-3.7802197802197797,6.177045177045177,-0.9375,-1.21875,2.21875,-1.78021978021978,-3.782661782661783,5.8949938949938945,0.0,-1.4375,2.25,-1.3345543345543345,-3.875457875457876,5.516483516483516,0.0,-1.46875,2.25,-0.5958485958485958,-3.2967032967032965,5.246642246642247,0.0,-1.34375,2.25,0.6654456654456654,-3.1575091575091574,4.233211233211233,0.8125,-1.25,2.21875,2.203907203907204,-4.351648351648351,2.9841269841269837,0.96875,-1.40625,2.21875,2.1868131868131866,-4.7374847374847375,2.023199023199023,0.875,-1.84375,2.0625,2.1184371184371185,-3.57997557997558,1.9255189255189256,0.84375,-1.84375,1.8125,2.2564102564102564,-2.245421245421245,1.78021978021978,1.0625,-1.4375,1.625,3.0268620268620268,-1.0036630036630036,1.010989010989011,1.5625,-1.09375,1.46875,3.417582417582417,-2.0586080586080584,0.0,1.875,-1.03125,1.34375,4.396825396825397,-3.578754578754579,-1.4969474969474967,1.375,-1.03125,1.03125,4.142857142857143,-3.028083028083028,-0.8998778998778999,0.9375,-0.96875,0.6875,4.162393162393163,-0.6471306471306472,0.0,1.1875,-0.875,0.0,2.9181929181929176,0.0,-0.5873015873015873,1.6875,-0.625,0.0,2.9804639804639805,0.0,-1.3443223443223444,1.8125,0.0,0.0,3.7960927960927964,-1.1611721611721613,-2.3943833943833943,1.59375,0.0,0.0,3.5579975579975582,-1.3956043956043955,-3.1746031746031744,1.09375,-0.5625,0.0,1.9792429792429795,0.0,-2.8327228327228333,0.875,0.0,0.0,0.8083028083028083,1.3235653235653235,-2.05006105006105,1.09375,0.0,-0.5625,0.8327228327228328,1.2551892551892552,-1.8986568986568984,1.3125,0.0,-0.625,0.0,0.9474969474969476,-4.014652014652015,1.125,0.0,-0.59375,-0.7252747252747253,0.0,-4.2576312576312585,0.78125,0.0,-0.6875,-0.8791208791208791,0.0,-3.3504273504273505,0.625,0.0,-0.8125,-1.7704517704517704,0.7692307692307693,-3.1001221001221,0.65625,0.0,-0.8125,-2.0463980463980462,0.7912087912087912,-2.9365079365079363,0.71875,0.0,-0.6875,-1.879120879120879,0.0,-2.8424908424908426,0.65625,0.0,-0.59375,-1.5909645909645909,0.0,-2.7142857142857144,0.0,0.0,-0.5625,-2.1098901098901104,0.0,-2.1587301587301586,0.0,0.0,-0.59375,-2.352869352869353,0.525030525030525,-1.6642246642246643,0.0,0.0,-0.53125,-2.31013431013431,0.5421245421245421,-1.15995115995116,0.0,0.0,0.0,-2.0085470085470085,0.0,-0.6410256410256411,0.0,0.0,0.0,-1.6019536019536018,0.0,0.0,0.0,0.0,0.0,-1.4822954822954824,0.0,-0.5152625152625152,0.0,0.0,0.0,-1.637362637362637,0.0,-0.7667887667887668,0.0,0.0,0.0,-1.376068376068376,0.0,-0.8217338217338217,0.0,0.0,0.0,-1.3724053724053724,0.0,-0.9584859584859584,0.0,0.0,0.0,-0.63003663003663,0.0,-0.6703296703296703,0.0,0.0,0.0,-0.6092796092796092,0.0,-0.956043956043956,0.0,0.0,0.0,-0.6312576312576312,0.0,-0.7118437118437119,0.0,0.0,0.0,0.0,0.0,-0.6593406593406593,0.0,0.0,0.0,0.0,0.0,0.0,0.0,0.0,0.0,,,,,,,,,,,,,,,,,,,,,,,,,,,,,,,,,,,,,,,,,,,,,,,,,,,,,,,,,,,,,wp_set
