,00_accX,00_accY,00_gyroZ,01_accX,01_accY,01_gyroZ,02_accX,02_accY,02_gyroZ,03_accX,03_accY,03_gyroZ,04_accX,04_accY,04_gyroZ,05_accX,05_accY,05_gyroZ,06_accX,06_accY,06_gyroZ,07_accX,07_accY,07_gyroZ,08_accX,08_accY,08_gyroZ,09_accX,09_accY,09_gyroZ,10_accX,10_accY,10_gyroZ,11_accX,11_accY,11_gyroZ,12_accX,12_accY,12_gyroZ,13_accX,13_accY,13_gyroZ,14_accX,14_accY,14_gyroZ,15_accX,15_accY,15_gyroZ,16_accX,16_accY,16_gyroZ,17_accX,17_accY,17_gyroZ,18_accX,18_accY,18_gyroZ,19_accX,19_accY,19_gyroZ,20_accX,20_accY,20_gyroZ,21_accX,21_accY,21_gyroZ,22_accX,22_accY,22_gyroZ,23_accX,23_accY,23_gyroZ,24_accX,24_accY,24_gyroZ,25_accX,25_accY,25_gyroZ,26_accX,26_accY,26_gyroZ,27_accX,27_accY,27_gyroZ,28_accX,28_accY,28_gyroZ,29_accX,29_accY,29_gyroZ,30_accX,30_accY,30_gyroZ,31_accX,31_accY,31_gyroZ,32_accX,32_accY,32_gyroZ,33_accX,33_accY,33_gyroZ,34_accX,34_accY,34_gyroZ,35_accX,35_accY,35_gyroZ,36_accX,36_accY,36_gyroZ,37_accX,37_accY,37_gyroZ,38_accX,38_accY,38_gyroZ,39_accX,39_accY,39_gyroZ,40_accX,40_accY,40_gyroZ,41_accX,41_accY,41_gyroZ,42_accX,42_accY,42_gyroZ,43_accX,43_accY,43_gyroZ,44_accX,44_accY,44_gyroZ,45_accX,45_accY,45_gyroZ,46_accX,46_accY,46_gyroZ,47_accX,47_accY,47_gyroZ,48_accX,48_accY,48_gyroZ,49_accX,49_accY,49_gyroZ,50_accX,50_accY,50_gyroZ,51_accX,51_accY,51_gyroZ,52_accX,52_accY,52_gyroZ,53_accX,53_accY,53_gyroZ,54_accX,54_accY,54_gyroZ,55_accX,55_accY,55_gyroZ,56_accX,56_accY,56_gyroZ,57_accX,57_accY,57_gyroZ,58_accX,58_accY,58_gyroZ,59_accX,59_accY,59_gyroZ,60_accX,60_accY,60_gyroZ,61_accX,61_accY,61_gyroZ,62_accX,62_accY,62_gyroZ,63_accX,63_accY,63_gyroZ,64_accX,64_accY,64_gyroZ,65_accX,65_accY,65_gyroZ,category
0,0.0,0.0,0.0,0.0,0.0,0.0,0.0,0.0,0.0,0.0,0.0,0.0,0.6043956043956044,0.0,0.0,0.7032967032967034,0.0,0.0,0.8144078144078144,0.0,0.0,0.0,0.0,0.0,0.8205128205128205,0.0,0.0,1.376068376068376,0.0,0.0,1.0879120879120878,-0.7057387057387058,0.0,1.3894993894993894,-0.5897435897435898,0.0,1.4126984126984128,-0.5152625152625152,0.0,1.565323565323565,0.0,0.0,1.4603174603174602,-0.7411477411477412,0.0,1.21001221001221,-0.9206349206349206,0.0,1.0476190476190477,-0.6654456654456654,-0.5625,0.6752136752136753,0.0,-0.59375,0.0,0.0,-0.625,0.0,0.0,-0.71875,0.0,0.0,-0.84375,0.0,-0.6434676434676435,-0.8125,0.0,-0.7716727716727717,-0.8125,-0.5103785103785103,0.0,-0.8125,-0.6251526251526252,0.0,-0.8125,0.0,-1.2075702075702075,-0.875,0.0,-1.1978021978021978,-0.96875,-0.8656898656898657,-0.9743589743589745,-1.03125,-1.0390720390720392,-0.9963369963369964,-1.03125,-1.0903540903540905,-0.8095238095238095,-1.09375,-1.9084249084249083,-0.7704517704517705,-1.15625,-2.173382173382173,-1.115995115995116,-1.125,-2.3394383394383396,-0.8547008547008547,-1.125,-2.9743589743589745,0.0,-1.0625,-2.743589743589744,0.0,-0.90625,-2.3076923076923075,0.0,-0.78125,-2.9706959706959712,0.0,-0.6875,-2.5702075702075704,0.0,-0.625,-1.8962148962148961,0.0,-0.5625,-1.1575091575091576,0.0,0.0,-1.297924297924298,0.0,0.0,-2.128205128205128,-1.0463980463980465,0.0,-2.52014652014652,0.0,0.0,-2.774114774114774,0.0,0.0,-2.3882783882783882,0.0,0.0,-2.062271062271062,0.0,0.0,-1.7228327228327232,0.0,0.0,0.0,0.0,0.0,0.0,0.0,0.0,0.0,0.0,0.0,0.0,0.0,0.0,0.0,0.0,0.0,0.0,0.0,0.0,0.0,0.0,0.0,0.0,0.0,0.0,0.0,0.0,0.0,0.0,0.0,0.0,0.0,0.0,0.0,0.0,0.0,0.0,0.0,0.0,0.0,0.0,0.0,0.0,0.0,0.0,0.0,0.0,0.0,0.0,0.0,0.0,0.0,0.0,0.0,0.0,0.0,0.0,0.0,moveNegX2D
1,0.0,0.0,0.0,0.0,0.0,0.0,0.0,-0.6837606837606838,0.0,1.0488400488400489,-0.73992673992674,0.0,0.9914529914529916,-0.5506715506715507,0.0,0.7191697191697192,-0.5177045177045178,0.0,0.9816849816849816,-0.5628815628815629,0.0,1.1916971916971917,-0.927960927960928,0.0,1.2466422466422469,-0.9877899877899878,0.0,0.8229548229548229,-0.6056166056166056,0.0,0.0,0.0,-0.59375,0.0,0.0,-0.625,0.0,-0.6373626373626373,-0.6875,0.0,-0.6251526251526252,-0.78125,0.0,-0.5335775335775336,-0.8125,0.0,0.0,-0.90625,0.0,0.0,-0.8125,0.0,-0.8327228327228328,-0.8125,0.0,-0.7619047619047619,-0.84375,-0.9194139194139194,-0.5067155067155067,-0.96875,-0.9719169719169721,-0.536019536019536,-0.9375,-1.028083028083028,-0.927960927960928,-1.15625,0.0,-1.188034188034188,-1.15625,0.0,-1.2063492063492065,-1.15625,-1.6617826617826619,0.0,-1.1875,-2.9621489621489623,0.0,-1.21875,-2.737484737484737,-0.6642246642246642,-1.1875,-2.9975579975579976,-0.5152625152625152,-1.125,-2.9145299145299144,0.0,-0.9375,-3.007326007326008,0.0,-0.8125,-3.0769230769230766,0.0,-0.65625,-3.514041514041514,0.0,-0.5625,-2.8107448107448105,0.0,0.0,-2.2967032967032965,-0.5543345543345544,0.0,-1.9267399267399268,0.0,0.0,-1.7057387057387057,0.0,0.0,-2.1172161172161172,0.0,0.0,-2.4932844932844933,0.0,0.0,-2.995115995115996,0.0,0.0,-3.091575091575092,0.0,0.0,-2.800976800976801,0.0,0.0,-2.147741147741148,0.0,0.0,-1.9609279609279608,0.0,0.0,0.0,0.0,0.0,0.0,0.0,0.0,0.0,0.0,0.0,0.0,0.0,0.0,0.0,0.0,0.0,0.0,0.0,0.0,0.0,0.0,0.0,0.0,0.0,0.0,0.0,0.0,0.0,0.0,0.0,0.0,0.0,0.0,0.0,0.0,0.0,0.0,0.0,0.0,0.0,0.0,0.0,0.0,0.0,0.0,0.0,0.0,0.0,0.0,0.0,0.0,0.0,0.0,0.0,0.0,0.0,0.0,0.0,0.0,0.0,0.0,0.0,0.0,0.0,0.0,0.0,0.0,0.0,0.0,0.0,moveNegX2D
2,1.188034188034188,0.0,0.0,1.0879120879120878,-1.103785103785104,0.0,1.3076923076923077,-0.6581196581196581,0.0,1.3308913308913308,0.0,0.0,1.1135531135531136,-0.6495726495726496,0.0,0.9743589743589745,-0.9926739926739928,0.0,0.7838827838827839,0.0,0.0,0.0,0.0,0.0,0.5750915750915749,0.0,0.0,0.9938949938949939,-0.7802197802197802,0.0,1.2344322344322345,-1.177045177045177,-0.59375,0.7692307692307693,-1.164835164835165,-0.71875,0.0,-0.5323565323565324,-0.78125,0.0,0.0,-0.8125,-0.8107448107448108,-0.5128205128205128,-0.8125,-0.5995115995115995,-0.9584859584859584,-0.875,0.0,-1.017094017094017,-0.9375,-0.8693528693528694,-0.6336996336996337,-0.96875,-0.8241758241758241,-0.8522588522588522,-1.0,-1.5274725274725274,-0.6129426129426129,-1.0,-1.7472527472527473,0.0,-0.9375,-1.5262515262515262,-0.6862026862026862,-0.90625,-1.9633699633699635,-0.8717948717948718,-0.96875,-1.7252747252747254,-0.8632478632478633,-1.0625,-0.9731379731379732,-0.6434676434676435,-1.0,-1.2210012210012209,0.0,-1.03125,-1.825396825396825,0.0,-1.0,-1.7118437118437118,-0.6764346764346765,-0.96875,-2.15018315018315,-0.8998778998778999,-1.0,-3.5164835164835164,0.0,-0.96875,-3.9365079365079363,0.0,-0.75,-3.2612942612942613,0.0,-0.59375,-2.9206349206349205,0.0,0.0,-2.2783882783882783,0.0,0.0,-2.52014652014652,0.0,0.0,-3.335775335775337,0.0,0.0,-2.9902319902319903,0.0,0.0,-2.595848595848596,0.0,0.0,-2.835164835164836,0.0,0.0,-2.515262515262515,0.0,0.0,0.0,0.0,0.0,0.0,0.0,0.0,0.0,0.0,0.0,0.0,0.0,0.0,0.0,0.0,0.0,0.0,0.0,0.0,0.0,0.0,0.0,0.0,0.0,0.0,0.0,0.0,0.0,0.0,0.0,0.0,0.0,0.0,0.0,0.0,0.0,0.0,0.0,0.0,0.0,0.0,0.0,0.0,0.0,0.0,0.0,0.0,0.0,0.0,0.0,0.0,0.0,0.0,0.0,0.0,0.0,0.0,0.0,0.0,0.0,0.0,0.0,0.0,0.0,0.0,0.0,0.0,0.0,0.0,0.0,0.0,0.0,0.0,0.0,0.0,0.0,0.0,0.0,0.0,moveNegX2D
3,0.0,0.0,0.0,0.7606837606837606,-0.7557997557997558,0.0,0.7667887667887668,0.0,0.0,0.0,0.0,0.0,0.0,0.0,0.0,0.0,0.0,0.0,0.0,0.0,0.0,0.0,0.0,0.0,0.0,0.0,0.0,0.0,-0.5665445665445665,-0.53125,1.0390720390720392,-0.9340659340659341,-0.5625,0.5482295482295483,-0.7387057387057387,-0.71875,-0.5372405372405372,0.0,-0.71875,-0.5091575091575091,0.0,-0.75,0.0,0.0,-0.71875,0.0,0.0,-0.75,0.0,0.0,-0.8125,0.0,-0.6178266178266179,-0.875,0.0,-0.7863247863247863,-0.90625,-1.1623931623931625,0.0,-0.875,-1.3540903540903542,0.0,-0.875,-1.2002442002442002,0.0,-0.8125,0.0,-0.6275946275946276,-0.78125,0.0,-0.5299145299145299,-0.78125,0.0,-0.5225885225885226,-0.84375,-1.199023199023199,-1.0390720390720392,-1.0625,-2.148962148962149,-0.8852258852258852,-1.03125,-1.4444444444444444,-0.9108669108669109,-1.0,-1.120879120879121,-0.6837606837606838,-1.0,-2.0329670329670333,0.0,-1.0,-2.8376068376068377,0.0,-0.9375,-2.7045177045177047,0.0,-0.84375,-3.336996336996337,0.5409035409035409,-0.75,-2.894993894993896,0.0,-0.65625,-2.7887667887667886,0.5103785103785103,-0.65625,-4.0366300366300365,1.05006105006105,-0.625,-3.78021978021978,0.0,0.0,-3.56043956043956,0.0,0.0,-2.9853479853479854,0.0,0.0,-2.688644688644689,0.0,0.0,0.0,0.0,0.0,0.0,0.0,0.0,0.0,0.0,0.0,0.0,0.0,0.0,0.0,0.0,0.0,0.0,0.0,0.0,0.0,0.0,0.0,0.0,0.0,0.0,0.0,0.0,0.0,0.0,0.0,0.0,0.0,0.0,0.0,0.0,0.0,0.0,0.0,0.0,0.0,0.0,0.0,0.0,0.0,0.0,0.0,0.0,0.0,0.0,0.0,0.0,0.0,0.0,0.0,0.0,0.0,0.0,0.0,0.0,0.0,0.0,0.0,0.0,0.0,0.0,0.0,0.0,0.0,0.0,0.0,0.0,0.0,0.0,0.0,0.0,0.0,0.0,0.0,0.0,moveNegX2D
4,0.0,0.0,0.0,0.0,0.0,0.0,0.0,0.0,0.0,0.0,0.0,0.0,0.0,0.0,0.0,0.0,0.0,0.0,0.0,0.0,0.0,0.0,0.0,0.0,0.0,0.0,0.0,0.5103785103785103,0.0,0.0,0.0,-0.5323565323565324,0.0,0.0,0.0,0.0,0.0,0.0,0.0,0.6227106227106227,0.0,0.0,0.5470085470085471,0.0,0.0,0.0,-0.5677655677655677,-0.5625,0.0,-0.8669108669108669,-0.6875,0.0,-0.6129426129426129,-0.8125,-0.5702075702075702,0.0,-0.8125,-0.9987789987789988,0.0,-0.875,-1.15995115995116,0.0,-0.875,-1.3577533577533578,0.0,-0.8125,-0.5970695970695971,0.0,-0.8125,0.0,-0.7081807081807082,-0.875,0.0,0.0,-0.9375,-1.1684981684981686,0.0,-1.09375,-1.7411477411477412,0.0,-1.03125,-1.619047619047619,0.0,-0.9375,-1.6422466422466422,0.0,-0.9375,-1.4517704517704515,-0.6410256410256411,-0.9375,-1.3711843711843712,-0.7350427350427351,-0.96875,-1.7692307692307692,-0.5970695970695971,-0.84375,-1.6605616605616609,-0.7704517704517705,-0.8125,-1.5030525030525033,-0.8046398046398047,-0.875,-2.5689865689865687,0.0,-0.84375,-3.5213675213675213,0.0,-0.8125,-3.5665445665445668,0.5335775335775336,-0.59375,-3.17948717948718,0.6678876678876678,0.0,-3.3492063492063493,0.6410256410256411,0.0,-3.0549450549450547,0.0,0.0,-2.4395604395604398,0.0,0.0,-2.467643467643468,0.0,0.0,-2.7765567765567765,0.0,0.0,-2.501831501831502,0.0,0.0,0.0,0.0,0.0,0.0,0.0,0.0,0.0,0.0,0.0,0.0,0.0,0.0,0.0,0.0,0.0,0.0,0.0,0.0,0.0,0.0,0.0,0.0,0.0,0.0,0.0,0.0,0.0,0.0,0.0,0.0,0.0,0.0,0.0,0.0,0.0,0.0,0.0,0.0,0.0,0.0,0.0,0.0,0.0,0.0,0.0,0.0,0.0,0.0,0.0,0.0,0.0,0.0,0.0,0.0,0.0,0.0,0.0,0.0,0.0,0.0,0.0,0.0,0.0,0.0,0.0,0.0,moveNegX2D
5,1.5128205128205128,-0.5811965811965812,0.0,1.2637362637362637,0.0,0.0,0.8876678876678876,0.0,0.0,1.0036630036630036,-0.8827838827838828,0.0,0.9682539682539684,0.0,0.0,0.0,0.0,0.0,0.0,0.0,0.0,0.0,0.0,0.0,0.0,0.0,0.0,0.5396825396825397,0.0,0.0,0.0,0.0,0.0,0.0,0.0,-0.53125,0.0,0.0,-0.5625,0.0,0.0,-0.59375,0.0,0.0,-0.625,0.0,0.0,-0.65625,0.0,-0.8424908424908425,-0.65625,-0.7667887667887668,0.0,-0.71875,-0.5042735042735043,0.0,-0.75,0.0,0.0,-0.78125,-1.0146520146520146,0.0,-0.75,-2.5128205128205128,0.7741147741147741,-0.8125,-2.1086691086691087,0.6202686202686203,-0.8125,-0.8278388278388278,0.0,-0.6875,-0.5848595848595849,0.0,-0.5625,0.0,0.0,0.0,0.0,-0.8595848595848596,0.0,0.0,-2.025641025641025,-0.65625,-2.4383394383394386,-1.0634920634920637,-1.09375,-2.4713064713064714,-0.8644688644688645,-1.0625,-2.0659340659340657,-0.9072039072039072,-1.03125,-2.1623931623931623,-0.7277167277167277,-0.875,-2.1709401709401708,0.0,-0.84375,-2.4896214896214897,0.0,-0.875,-3.1904761904761907,0.0,-0.8125,-3.776556776556777,0.0,-0.625,-3.5103785103785103,0.0,0.0,-3.211233211233212,0.0,0.0,-3.4822954822954824,0.0,0.0,-3.2002442002442004,0.0,0.0,-3.0024420024420024,0.0,0.0,-3.3089133089133087,0.0,0.0,0.0,0.0,0.0,0.0,0.0,0.0,0.0,0.0,0.0,0.0,0.0,0.0,0.0,0.0,0.0,0.0,0.0,0.0,0.0,0.0,0.0,0.0,0.0,0.0,0.0,0.0,0.0,0.0,0.0,0.0,0.0,0.0,0.0,0.0,0.0,0.0,0.0,0.0,0.0,0.0,0.0,0.0,0.0,0.0,0.0,0.0,0.0,0.0,0.0,0.0,0.0,0.0,0.0,0.0,0.0,0.0,0.0,0.0,0.0,0.0,0.0,0.0,0.0,0.0,0.0,0.0,0.0,0.0,0.0,0.0,0.0,0.0,moveNegX2D
6,0.956043956043956,0.0,0.0,1.0586080586080586,-0.8302808302808303,0.0,0.8852258852258852,0.0,0.0,0.818070818070818,0.0,0.0,0.0,0.0,0.0,0.5482295482295483,0.0,0.0,0.0,0.0,0.0,0.0,0.0,0.0,0.0,0.0,0.0,0.0,0.0,0.0,0.5885225885225885,-0.7667887667887668,0.0,0.6825396825396826,-0.7167277167277167,0.0,0.0,0.0,-0.53125,0.0,0.0,-0.5625,0.0,0.0,-0.75,-0.5433455433455433,0.0,-0.75,-0.8290598290598291,0.0,-0.8125,-0.6715506715506715,-0.5836385836385837,-0.8125,0.0,-0.7472527472527473,-0.875,-0.5177045177045178,0.0,-0.875,-0.5274725274725275,-0.5946275946275946,-0.875,-1.1245421245421243,0.0,-0.9375,-1.0976800976800978,0.0,-0.90625,0.0,-0.9743589743589745,-0.90625,-1.1916971916971917,-1.115995115995116,-1.03125,-1.343101343101343,-0.6581196581196581,-1.09375,-1.192918192918193,-0.6678876678876678,-1.125,-1.7753357753357752,0.0,-1.09375,-2.645909645909646,0.0,-1.03125,-2.028083028083028,0.0,-0.875,-1.7887667887667889,-1.010989010989011,-0.84375,-2.8595848595848596,0.0,-0.875,-2.835164835164836,0.0,-0.78125,-2.282051282051281,0.0,-0.75,-2.7106227106227108,0.0,-0.75,-3.0085470085470085,0.0,-0.6875,-3.0268620268620268,0.0,-0.65625,-3.7606837606837606,0.0,-0.625,-4.35897435897436,0.0,0.0,-4.339438339438339,0.0,0.0,-3.8253968253968256,0.0,0.0,0.0,0.0,0.0,0.0,0.0,0.0,0.0,0.0,0.0,0.0,0.0,0.0,0.0,0.0,0.0,0.0,0.0,0.0,0.0,0.0,0.0,0.0,0.0,0.0,0.0,0.0,0.0,0.0,0.0,0.0,0.0,0.0,0.0,0.0,0.0,0.0,0.0,0.0,0.0,0.0,0.0,0.0,0.0,0.0,0.0,0.0,0.0,0.0,0.0,0.0,0.0,0.0,0.0,0.0,0.0,0.0,0.0,0.0,0.0,0.0,0.0,0.0,0.0,0.0,0.0,0.0,0.0,0.0,0.0,0.0,0.0,0.0,0.0,0.0,0.0,moveNegX2D
7,0.9645909645909646,0.0,0.0,0.5616605616605617,-1.1782661782661783,0.0,0.5787545787545788,0.0,0.0,0.5934065934065934,0.0,0.0,0.5982905982905983,-0.7484737484737485,0.0,0.5665445665445665,-0.7655677655677655,0.0,0.8742368742368742,0.0,0.0,0.0,0.0,0.0,0.0,0.0,0.0,0.5592185592185592,0.0,0.0,0.0,0.0,0.0,0.6324786324786325,0.0,0.0,0.7289377289377289,0.0,-0.53125,0.0,0.0,-0.5625,0.0,0.0,-0.5625,0.0,-0.6288156288156288,-0.75,0.0,0.0,-0.65625,0.0,0.0,-0.6875,0.0,0.0,-0.71875,0.0,0.0,-0.71875,-0.7289377289377289,0.0,-0.78125,-0.7130647130647131,0.0,-0.8125,0.0,-0.7863247863247863,-0.75,-1.021978021978022,0.0,-0.84375,-1.5946275946275947,0.0,-0.75,-0.9438339438339438,0.0,-0.84375,-1.0366300366300367,-0.7875457875457875,-0.90625,-1.424908424908425,-0.6043956043956044,-0.9375,-1.1367521367521367,0.0,-0.90625,-1.7435897435897436,-1.6654456654456655,-0.9375,-4.083028083028083,-0.8864468864468864,-0.875,-3.4810744810744816,0.0,-0.8125,-2.0976800976800978,0.0,-0.6875,-2.5433455433455427,0.0,-0.65625,-3.4810744810744816,0.0,-0.75,-4.434676434676434,0.0,-0.84375,-4.3247863247863245,0.0,-0.71875,-4.365079365079366,0.0,0.0,-4.921855921855922,0.0,0.0,0.0,0.0,0.0,0.0,0.0,0.0,0.0,0.0,0.0,0.0,0.0,0.0,0.0,0.0,0.0,0.0,0.0,0.0,0.0,0.0,0.0,0.0,0.0,0.0,0.0,0.0,0.0,0.0,0.0,0.0,0.0,0.0,0.0,0.0,0.0,0.0,0.0,0.0,0.0,0.0,0.0,0.0,0.0,0.0,0.0,0.0,0.0,0.0,0.0,0.0,0.0,0.0,0.0,0.0,0.0,0.0,0.0,0.0,0.0,0.0,0.0,0.0,0.0,0.0,0.0,0.0,0.0,0.0,0.0,0.0,0.0,0.0,0.0,0.0,0.0,0.0,0.0,0.0,0.0,0.0,0.0,moveNegX2D
8,0.0,0.0,0.0,0.0,0.0,0.0,0.0,-0.5457875457875457,0.0,0.0,0.0,0.0,0.0,0.0,0.0,0.0,0.0,0.0,0.0,0.0,0.0,0.5238095238095238,0.0,0.0,0.0,0.0,0.0,0.0,0.0,0.0,0.0,0.0,0.0,0.0,0.0,0.0,0.7313797313797313,-0.5067155067155067,0.0,1.1489621489621489,-0.757020757020757,-0.5625,0.0,0.0,-0.75,0.0,0.0,-0.78125,-0.7692307692307693,0.0,-0.84375,0.0,0.0,-0.78125,0.0,0.0,-0.8125,-1.0451770451770452,0.0,-0.875,-1.249084249084249,0.0,-0.78125,0.0,0.0,-0.65625,-1.0744810744810744,0.0,-0.78125,-1.4505494505494505,0.0,-0.6875,-0.7411477411477412,0.0,-0.625,-0.6959706959706959,0.0,-0.6875,0.0,-0.7326007326007326,-0.71875,0.0,-1.120879120879121,-0.875,-1.3894993894993894,-0.6153846153846154,-1.03125,-2.578754578754579,0.0,-0.9375,-2.4334554334554332,0.0,-0.8125,-1.706959706959707,-0.6715506715506715,-0.75,-1.435897435897436,-0.8754578754578755,-0.84375,-1.4236874236874235,-0.5262515262515263,-0.84375,-1.991452991452992,0.0,-0.75,-3.0561660561660564,0.0,-0.71875,-3.236874236874237,0.0,-0.71875,-2.927960927960928,0.0,-0.65625,-3.4652014652014653,0.0,-0.5625,-4.048840048840049,0.6849816849816851,0.0,-3.3870573870573866,0.0,0.0,-3.1953601953601964,0.0,0.0,-2.97924297924298,0.0,0.0,0.0,0.0,0.0,0.0,0.0,0.0,0.0,0.0,0.0,0.0,0.0,0.0,0.0,0.0,0.0,0.0,0.0,0.0,0.0,0.0,0.0,0.0,0.0,0.0,0.0,0.0,0.0,0.0,0.0,0.0,0.0,0.0,0.0,0.0,0.0,0.0,0.0,0.0,0.0,0.0,0.0,0.0,0.0,0.0,0.0,0.0,0.0,0.0,0.0,0.0,0.0,0.0,0.0,0.0,0.0,0.0,0.0,0.0,0.0,0.0,0.0,0.0,0.0,0.0,0.0,0.0,0.0,0.0,0.0,moveNegX2D
9,0.9474969474969476,0.0,0.0,0.8437118437118437,0.0,0.0,0.0,0.0,0.0,0.8876678876678876,0.0,0.0,1.0366300366300367,-0.5347985347985348,0.0,0.7008547008547008,-0.7252747252747253,0.0,0.6666666666666666,0.0,0.0,0.0,0.0,0.0,0.0,0.0,0.0,0.0,0.0,0.0,0.0,-0.5970695970695971,0.0,0.0,0.0,0.0,0.5067155067155067,0.0,0.0,0.0,0.0,0.0,0.0,0.0,-0.625,0.0,0.0,-0.71875,0.0,0.0,-0.75,0.0,0.0,-0.71875,0.0,0.0,-0.75,0.0,-0.5054945054945055,-0.84375,0.0,-0.6568986568986569,-0.9375,-0.5714285714285714,0.0,-1.03125,-1.1343101343101345,0.0,-1.0625,-1.3748473748473748,0.0,-1.125,-0.7643467643467643,-0.557997557997558,-1.0,-0.6043956043956044,-0.6959706959706959,-1.03125,-0.7997557997557998,-0.5860805860805861,-1.0625,-1.0927960927960931,-0.5152625152625152,-1.09375,-2.15018315018315,0.0,-1.0625,-2.0476190476190474,0.0,-0.875,-1.8376068376068373,0.0,-0.9375,-2.268620268620269,0.0,-0.90625,-1.752136752136752,-0.6666666666666666,-0.84375,-1.2283272283272284,-0.7924297924297924,-0.90625,-2.191697191697192,0.0,-0.875,-3.2612942612942613,0.0,-0.875,-3.324786324786325,0.0,-0.8125,-2.7216117216117217,0.0,-0.78125,-4.087912087912088,0.5238095238095238,-0.65625,-5.63980463980464,1.0927960927960931,-0.53125,-5.3260073260073275,0.5995115995115995,0.0,-4.142857142857143,0.0,0.0,0.0,0.0,0.0,0.0,0.0,0.0,0.0,0.0,0.0,0.0,0.0,0.0,0.0,0.0,0.0,0.0,0.0,0.0,0.0,0.0,0.0,0.0,0.0,0.0,0.0,0.0,0.0,0.0,0.0,0.0,0.0,0.0,0.0,0.0,0.0,0.0,0.0,0.0,0.0,0.0,0.0,0.0,0.0,0.0,0.0,0.0,0.0,0.0,0.0,0.0,0.0,0.0,0.0,0.0,0.0,0.0,0.0,0.0,0.0,0.0,0.0,0.0,0.0,0.0,0.0,0.0,0.0,0.0,0.0,0.0,0.0,0.0,moveNegX2D
10,0.0,0.0,0.0,0.0,0.0,0.0,0.5836385836385837,0.0,0.0,0.0,-0.6898656898656899,0.0,0.0,0.0,0.0,0.0,0.0,0.0,0.0,0.0,0.0,0.0,0.0,0.0,0.0,0.0,0.0,0.0,0.0,0.0,0.0,0.0,0.0,0.63003663003663,0.0,-0.5625,0.8192918192918193,-0.5677655677655677,-0.625,0.7838827838827839,-0.5641025641025641,-0.75,0.0,0.0,-0.8125,-0.5286935286935287,0.0,-0.875,-0.557997557997558,0.0,-0.90625,-0.8632478632478633,0.0,-0.9375,-0.9975579975579976,0.0,-0.96875,-0.9157509157509156,0.0,-0.96875,-1.358974358974359,0.0,-0.9375,-1.0940170940170941,0.0,-0.90625,0.0,0.0,-0.84375,-0.8400488400488401,0.0,-0.90625,-1.6031746031746033,-0.9365079365079364,-1.03125,-1.3907203907203909,-0.9206349206349206,-1.03125,-1.3992673992673992,-0.6532356532356532,-1.03125,-2.183150183150183,0.0,-1.0,-2.0366300366300365,-0.7985347985347986,-0.90625,-1.7179487179487178,-1.4261294261294262,-0.875,-1.525030525030525,-1.2796092796092795,-0.8125,-1.971916971916972,-0.9511599511599512,-0.875,-2.293040293040293,0.0,-0.875,-2.8754578754578755,0.0,-0.8125,-3.1147741147741157,0.0,-0.75,-3.4652014652014653,0.0,-0.75,-4.113553113553113,0.0,-0.75,-4.327228327228327,0.0,0.0,-3.36996336996337,0.0,0.0,-3.3443223443223444,0.0,0.0,-3.404151404151404,0.0,0.0,-3.4029304029304037,-0.6581196581196581,0.0,0.0,0.0,0.0,0.0,0.0,0.0,0.0,0.0,0.0,0.0,0.0,0.0,0.0,0.0,0.0,0.0,0.0,0.0,0.0,0.0,0.0,0.0,0.0,0.0,0.0,0.0,0.0,0.0,0.0,0.0,0.0,0.0,0.0,0.0,0.0,0.0,0.0,0.0,0.0,0.0,0.0,0.0,0.0,0.0,0.0,0.0,0.0,0.0,0.0,0.0,0.0,0.0,0.0,0.0,0.0,0.0,0.0,0.0,0.0,0.0,0.0,0.0,0.0,0.0,0.0,0.0,0.0,0.0,0.0,0.0,0.0,0.0,moveNegX2D
11,0.0,0.0,0.0,0.0,0.0,0.0,0.0,-0.9658119658119658,0.0,0.0,0.0,0.0,0.0,0.0,0.0,0.0,0.0,0.0,0.0,0.0,0.0,0.0,0.0,0.0,0.8754578754578755,-0.7252747252747253,0.0,0.9462759462759462,-0.6642246642246642,0.0,0.6068376068376068,0.0,0.0,0.6336996336996337,0.0,0.0,0.9609279609279608,0.0,0.0,1.3467643467643469,-1.0744810744810744,-0.59375,0.7460317460317459,-1.0866910866910866,-0.75,0.0,-0.6288156288156288,-0.84375,0.0,0.0,-0.84375,0.0,0.0,-0.875,0.0,-1.1428571428571428,-1.03125,-0.7277167277167277,-0.8058608058608059,-1.03125,-0.8925518925518926,0.0,-1.0625,-1.831501831501832,0.0,-1.0625,-2.253968253968254,-0.7655677655677655,-1.0625,-1.5030525030525033,0.0,-1.03125,-1.0976800976800978,0.0,-0.96875,-1.7582417582417582,-0.7680097680097681,-1.0,-2.722832722832724,0.0,-0.9375,-2.498168498168498,0.0,-1.0,-2.7594627594627594,0.0,-0.9375,-1.4603174603174602,-0.7960927960927959,-0.84375,0.0,-2.52014652014652,-1.0,-3.272283272283272,0.0,-1.0625,-2.3821733821733817,0.0,-1.0,-3.0586080586080584,-0.6007326007326007,-0.96875,-4.536019536019536,0.0,-0.84375,-4.385836385836386,0.7655677655677655,-0.6875,-3.7997557997557996,0.0,-0.53125,-2.5238095238095237,-0.6214896214896215,0.0,-2.6996336996337003,-0.9450549450549448,0.0,-3.312576312576313,-0.8217338217338217,0.0,0.0,0.0,0.0,0.0,0.0,0.0,0.0,0.0,0.0,0.0,0.0,0.0,0.0,0.0,0.0,0.0,0.0,0.0,0.0,0.0,0.0,0.0,0.0,0.0,0.0,0.0,0.0,0.0,0.0,0.0,0.0,0.0,0.0,0.0,0.0,0.0,0.0,0.0,0.0,0.0,0.0,0.0,0.0,0.0,0.0,0.0,0.0,0.0,0.0,0.0,0.0,0.0,0.0,0.0,0.0,0.0,0.0,0.0,0.0,0.0,0.0,0.0,0.0,0.0,0.0,0.0,0.0,0.0,0.0,0.0,0.0,0.0,0.0,0.0,0.0,0.0,0.0,0.0,moveNegX2D
12,0.0,0.0,0.0,-0.9536019536019535,0.0,0.0,-0.6263736263736264,-0.6471306471306472,0.0,0.0,0.0,0.0,0.0,0.0,0.0,0.0,0.0,0.0,0.0,0.0,0.0,0.0,0.0,0.0,0.0,0.0,0.0,0.5311355311355311,0.0,0.0,0.0,0.0,0.0,0.0,0.0,0.0,0.0,0.0,0.0,0.0,0.0,-0.625,0.0,0.0,-0.6875,0.0,0.0,-0.78125,0.0,0.0,-0.84375,0.0,0.0,-0.90625,0.0,0.0,-0.90625,0.0,0.0,-1.0,0.0,0.0,-1.0625,-0.5897435897435898,0.0,-1.09375,-0.9010989010989012,0.0,-1.03125,-0.9499389499389499,0.0,-1.0,-1.2197802197802199,0.0,-1.09375,-1.9255189255189256,0.0,-1.0,-1.5702075702075702,0.0,-0.9375,-1.0744810744810744,0.0,-0.90625,-0.9438339438339438,-0.757020757020757,-0.9375,-1.5628815628815629,0.0,-1.0,-2.733821733821733,0.0,-0.9375,-3.175824175824176,0.0,-0.78125,-3.750915750915752,0.0,-0.6875,-3.003663003663004,-0.6849816849816851,-0.625,-2.4896214896214897,-0.5201465201465202,-0.625,-2.5006105006105006,0.0,0.0,-2.7997557997557996,0.0,0.0,-3.2551892551892547,0.0,0.0,-2.960927960927961,0.0,0.0,0.0,0.0,0.0,0.0,0.0,0.0,0.0,0.0,0.0,0.0,0.0,0.0,0.0,0.0,0.0,0.0,0.0,0.0,0.0,0.0,0.0,0.0,0.0,0.0,0.0,0.0,0.0,0.0,0.0,0.0,0.0,0.0,0.0,0.0,0.0,0.0,0.0,0.0,0.0,0.0,0.0,0.0,0.0,0.0,0.0,0.0,0.0,0.0,0.0,0.0,0.0,0.0,0.0,0.0,0.0,0.0,0.0,0.0,0.0,0.0,0.0,0.0,0.0,0.0,0.0,0.0,0.0,0.0,0.0,0.0,0.0,0.0,0.0,0.0,0.0,0.0,0.0,0.0,0.0,0.0,0.0,moveNegX2D
13,0.0,0.0,0.0,0.0,0.0,0.0,0.0,0.0,0.0,0.0,0.0,0.0,0.0,0.0,0.0,0.0,0.0,0.0,0.0,0.0,0.0,0.0,0.0,0.0,0.0,0.0,0.0,0.0,0.0,0.0,0.0,0.0,0.0,0.0,0.0,0.0,0.0,0.0,0.0,0.0,0.0,0.0,0.0,0.0,-0.53125,0.0,0.0,-0.53125,0.0,0.0,-0.59375,0.0,0.0,-0.625,0.0,0.0,-0.65625,0.0,-0.6251526251526252,-0.75,0.0,0.0,-0.875,0.0,-0.5372405372405372,-0.84375,0.0,-0.5177045177045178,-0.84375,0.0,0.0,-0.9375,-0.8131868131868132,0.0,-0.9375,-0.8266178266178266,0.0,-0.9375,-1.4041514041514038,0.0,-1.03125,-2.0195360195360195,0.0,-1.09375,-1.7155067155067154,0.0,-1.0,-1.6507936507936507,0.0,-0.90625,-1.3858363858363858,-0.5775335775335775,-0.875,-1.9352869352869355,0.0,-0.9375,-2.4664224664224665,0.0,-0.84375,-2.175824175824176,0.0,-0.78125,-1.5482295482295485,-1.0488400488400489,-0.78125,-1.7130647130647132,-0.8705738705738706,-0.84375,-1.9853479853479847,0.0,-0.8125,-3.1050061050061046,0.0,-0.75,-4.032967032967034,0.0,-0.59375,-3.956043956043956,0.0,0.0,-3.7594627594627594,0.0,0.0,-4.335775335775336,0.5824175824175825,0.0,0.0,0.0,0.0,0.0,0.0,0.0,0.0,0.0,0.0,0.0,0.0,0.0,0.0,0.0,0.0,0.0,0.0,0.0,0.0,0.0,0.0,0.0,0.0,0.0,0.0,0.0,0.0,0.0,0.0,0.0,0.0,0.0,0.0,0.0,0.0,0.0,0.0,0.0,0.0,0.0,0.0,0.0,0.0,0.0,0.0,0.0,0.0,0.0,0.0,0.0,0.0,0.0,0.0,0.0,0.0,0.0,0.0,0.0,0.0,0.0,0.0,0.0,0.0,0.0,0.0,0.0,0.0,0.0,0.0,0.0,0.0,0.0,moveNegX2D
14,0.0,0.0,0.0,0.0,0.0,0.0,0.0,0.0,0.0,0.0,-0.5653235653235653,0.0,0.0,-0.6385836385836385,0.0,0.0,0.0,0.0,0.0,0.0,0.0,0.0,0.0,0.0,0.0,0.0,0.0,0.0,0.0,0.0,0.6959706959706959,0.0,0.0,0.8083028083028083,0.0,0.0,0.8144078144078144,-0.7411477411477412,-0.5625,0.0,0.0,-0.65625,0.0,0.0,-0.65625,0.0,-0.5091575091575091,-0.75,0.0,-0.5286935286935287,-0.90625,0.0,-0.6825396825396826,-0.90625,0.0,-0.6691086691086691,-0.875,-0.5457875457875457,0.0,-0.96875,-0.873015873015873,0.0,-0.96875,-0.894993894993895,0.0,-0.9375,-1.2124542124542124,0.0,-0.96875,-1.4774114774114775,0.0,-0.96875,-1.0647130647130647,-0.5848595848595849,-0.875,-0.7252747252747253,-0.9658119658119658,-0.84375,-1.017094017094017,-0.7020757020757019,-0.9375,-1.6874236874236874,0.0,-1.0625,-2.156288156288156,0.0,-1.09375,-2.664224664224664,0.0,-1.0,-2.8424908424908426,0.0,-0.875,-2.625152625152625,0.0,-0.8125,-2.912087912087912,0.0,-0.8125,-3.5482295482295485,0.0,-0.65625,-3.2759462759462763,0.0,0.0,-2.8656898656898657,-0.5787545787545788,0.0,-2.5995115995116,-0.5311355311355311,0.0,-3.0634920634920637,0.0,0.0,-3.6715506715506723,0.0,0.0,-3.9108669108669116,0.5115995115995116,0.0,0.0,0.0,0.0,0.0,0.0,0.0,0.0,0.0,0.0,0.0,0.0,0.0,0.0,0.0,0.0,0.0,0.0,0.0,0.0,0.0,0.0,0.0,0.0,0.0,0.0,0.0,0.0,0.0,0.0,0.0,0.0,0.0,0.0,0.0,0.0,0.0,0.0,0.0,0.0,0.0,0.0,0.0,0.0,0.0,0.0,0.0,0.0,0.0,0.0,0.0,0.0,0.0,0.0,0.0,0.0,0.0,0.0,0.0,0.0,0.0,0.0,0.0,0.0,0.0,0.0,0.0,0.0,0.0,0.0,0.0,0.0,0.0,0.0,0.0,0.0,0.0,0.0,0.0,moveNegX2D
15,0.0,0.0,0.0,0.0,0.0,0.0,0.0,0.6166056166056166,0.0,0.0,0.0,0.0,0.0,0.0,0.0,0.0,0.0,0.0,0.0,0.0,0.0,0.0,0.0,0.0,0.0,0.0,0.0,0.0,0.0,0.0,0.0,0.0,0.0,0.0,0.0,0.0,0.0,0.0,0.0,0.0,0.0,0.0,0.0,0.0,0.0,0.0,0.0,-0.625,0.0,0.0,-0.75,0.0,0.0,-0.78125,0.0,0.0,-0.875,-0.5641025641025641,0.0,-0.84375,-0.9206349206349206,0.0,-0.875,-0.9133089133089132,0.0,-0.90625,-0.7240537240537241,0.0,-0.875,-0.8669108669108669,0.0,-0.84375,-1.564102564102564,0.0,-0.84375,-0.9938949938949939,0.0,-0.8125,0.0,-0.8986568986568987,-0.84375,-0.9816849816849816,-0.5457875457875457,-0.9375,-2.0842490842490844,0.0,-0.96875,-1.7582417582417582,0.0,-0.90625,-1.4212454212454213,0.0,-0.90625,-1.4590964590964588,0.0,-0.8125,-1.3540903540903542,-0.6849816849816851,-0.75,-1.4945054945054943,-0.5372405372405372,-0.78125,-2.1684981684981683,0.0,-0.875,-2.0769230769230766,0.0,-0.71875,-1.4554334554334554,0.0,-0.625,-1.277167277167277,0.0,-0.5625,-1.9413919413919407,0.0,-0.59375,-2.691086691086692,0.0,-0.625,-3.358974358974359,0.0,0.0,-3.3174603174603177,0.0,0.0,0.0,0.0,0.0,0.0,0.0,0.0,0.0,0.0,0.0,0.0,0.0,0.0,0.0,0.0,0.0,0.0,0.0,0.0,0.0,0.0,0.0,0.0,0.0,0.0,0.0,0.0,0.0,0.0,0.0,0.0,0.0,0.0,0.0,0.0,0.0,0.0,0.0,0.0,0.0,0.0,0.0,0.0,0.0,0.0,0.0,0.0,0.0,0.0,0.0,0.0,0.0,0.0,0.0,0.0,0.0,0.0,0.0,0.0,0.0,0.0,0.0,0.0,0.0,0.0,0.0,0.0,0.0,0.0,0.0,0.0,0.0,0.0,moveNegX2D
16,0.0,0.0,0.0,0.0,0.0,0.0,0.0,0.0,0.0,0.0,0.0,0.0,0.0,0.0,0.0,0.0,0.0,0.0,0.0,0.0,0.0,0.0,-0.5018315018315018,0.0,0.0,0.0,0.0,0.5628815628815629,-0.5750915750915749,0.0,0.0,-0.6642246642246642,-0.625,0.0,0.0,-0.625,-0.6288156288156288,0.0,-0.5625,0.0,0.0,0.0,-0.5848595848595849,0.0,-0.53125,0.0,0.0,0.0,0.7057387057387058,-0.9511599511599512,0.0,0.7741147741147741,-0.8986568986568987,-0.65625,0.0,-0.663003663003663,-0.6875,-0.6275946275946276,0.0,-0.78125,-1.1294261294261294,0.0,-0.75,-0.6874236874236874,-0.7985347985347986,-0.75,0.0,-1.0097680097680095,-0.90625,-0.8888888888888888,-0.6141636141636142,-0.9375,-1.1697191697191698,0.0,-0.875,-0.9768009768009768,0.0,-1.0,-0.9951159951159952,0.0,-1.0625,-0.7557997557997558,-0.6642246642246642,-1.09375,-0.9450549450549448,-0.8412698412698413,-1.21875,-1.1746031746031746,-0.5006105006105006,-1.21875,-2.3418803418803416,0.0,-1.03125,-1.5177045177045176,0.0,-0.96875,-2.1880341880341883,-0.8705738705738706,-1.0625,-3.583638583638584,0.0,-1.0625,-4.013431013431013,0.0,-0.96875,-3.523809523809524,0.0,-0.78125,-3.7155067155067165,0.0,-0.71875,-4.278388278388278,0.5824175824175825,-0.65625,-4.0927960927960925,0.0,-0.5625,-4.431013431013431,0.0,0.0,-4.015873015873016,0.0,0.0,0.0,0.0,0.0,0.0,0.0,0.0,0.0,0.0,0.0,0.0,0.0,0.0,0.0,0.0,0.0,0.0,0.0,0.0,0.0,0.0,0.0,0.0,0.0,0.0,0.0,0.0,0.0,0.0,0.0,0.0,0.0,0.0,0.0,0.0,0.0,0.0,0.0,0.0,0.0,0.0,0.0,0.0,0.0,0.0,0.0,0.0,0.0,0.0,0.0,0.0,0.0,0.0,0.0,0.0,0.0,0.0,0.0,0.0,0.0,0.0,0.0,0.0,0.0,0.0,0.0,0.0,0.0,0.0,0.0,0.0,0.0,0.0,0.0,0.0,0.0,moveNegX2D
17,0.0,-0.5543345543345544,0.0,0.0,-0.7142857142857143,0.0,0.0,0.0,0.0,0.0,0.0,0.0,0.0,0.0,0.0,0.0,0.0,0.0,0.0,0.0,0.0,0.0,0.0,0.0,0.0,0.0,0.0,0.0,0.0,0.0,0.0,0.0,0.0,0.6202686202686203,-0.6019536019536019,0.0,0.9291819291819292,-0.8876678876678876,0.0,0.9731379731379732,-0.7179487179487181,0.0,0.0,0.0,-0.59375,0.0,0.0,-0.5625,0.0,0.0,-0.5625,0.0,-0.5152625152625152,-0.65625,0.0,0.0,-0.53125,0.0,0.0,-0.625,0.0,0.0,-0.65625,0.0,0.0,-0.71875,0.0,0.0,-0.71875,0.0,-0.5067155067155067,-0.8125,0.0,-0.6202686202686203,-1.03125,-0.7851037851037851,-0.5518925518925519,-1.09375,-0.7802197802197802,0.0,-1.09375,-0.7960927960927959,0.0,-1.15625,-1.9145299145299144,0.0,-1.21875,-2.628815628815629,0.7142857142857143,-1.25,-2.7094017094017087,0.0,-1.0625,-1.8815628815628809,-0.6446886446886447,-0.84375,-1.0647130647130647,-0.7728937728937729,-0.8125,-1.5372405372405369,0.0,-0.84375,-3.253968253968253,0.5824175824175825,-0.8125,-3.0427350427350426,0.0,-0.6875,-1.94993894993895,-0.6984126984126984,-0.6875,-3.525030525030525,0.0,-0.625,-4.264957264957265,0.0,0.0,-2.5641025641025643,0.0,0.0,-2.3833943833943843,0.0,0.0,-2.8522588522588523,0.0,0.0,0.0,0.0,0.0,0.0,0.0,0.0,0.0,0.0,0.0,0.0,0.0,0.0,0.0,0.0,0.0,0.0,0.0,0.0,0.0,0.0,0.0,0.0,0.0,0.0,0.0,0.0,0.0,0.0,0.0,0.0,0.0,0.0,0.0,0.0,0.0,0.0,0.0,0.0,0.0,0.0,0.0,0.0,0.0,0.0,0.0,0.0,0.0,0.0,0.0,0.0,0.0,0.0,0.0,0.0,0.0,0.0,0.0,0.0,0.0,0.0,0.0,0.0,0.0,0.0,0.0,0.0,0.0,0.0,0.0,0.0,0.0,0.0,moveNegX2D
18,0.0,0.0,0.0,0.0,0.0,0.0,0.0,0.0,0.0,0.0,0.0,0.0,0.0,0.0,0.0,0.0,0.0,0.0,0.0,0.0,0.0,0.0,0.0,0.0,0.0,0.0,0.0,0.6837606837606838,0.0,0.0,0.0,0.0,0.0,0.0,0.0,0.0,0.0,0.0,0.0,0.0,0.0,0.0,0.0,0.0,0.0,0.0,0.0,0.0,0.0,0.0,0.0,0.0,0.0,-0.5625,0.0,-0.5531135531135531,-0.59375,0.0,-0.7338217338217338,-0.65625,0.0,0.0,-0.78125,0.0,0.0,-0.8125,0.0,0.0,-0.78125,0.0,-0.5714285714285714,-0.9375,0.0,0.0,-0.96875,-0.6678876678876678,0.0,-0.9375,-0.6800976800976801,-0.5958485958485958,-1.0,-0.6776556776556777,-0.5054945054945055,-1.0,-1.1233211233211229,0.0,-0.90625,-1.380952380952381,-0.7509157509157509,-0.78125,-1.0390720390720392,-1.2319902319902318,-0.8125,-1.9242979242979243,-0.8376068376068376,-0.96875,-2.783882783882784,0.0,-0.90625,-1.6678876678876684,0.0,-0.84375,-1.1672771672771671,0.0,-0.84375,-1.844932844932845,0.5103785103785103,-0.90625,-2.9987789987789983,0.6788766788766789,-1.03125,-3.7704517704517695,0.0,-1.0,-3.6581196581196576,0.0,-0.65625,-2.1111111111111107,0.0,-0.53125,-2.8547008547008548,0.5042735042735043,-0.53125,-3.5811965811965814,0.7619047619047619,0.0,-3.407814407814408,0.6056166056166056,0.0,-3.4261294261294264,0.0,0.0,0.0,0.0,0.0,0.0,0.0,0.0,0.0,0.0,0.0,0.0,0.0,0.0,0.0,0.0,0.0,0.0,0.0,0.0,0.0,0.0,0.0,0.0,0.0,0.0,0.0,0.0,0.0,0.0,0.0,0.0,0.0,0.0,0.0,0.0,0.0,0.0,0.0,0.0,0.0,0.0,0.0,0.0,0.0,0.0,0.0,0.0,0.0,0.0,0.0,0.0,0.0,0.0,0.0,0.0,0.0,0.0,0.0,0.0,0.0,0.0,0.0,0.0,0.0,0.0,0.0,0.0,moveNegX2D
19,0.0,0.0,0.0,0.0,0.0,0.0,0.0,0.0,0.0,0.0,0.0,0.0,0.5543345543345544,-0.9047619047619048,0.0,0.0,-0.5934065934065934,0.0,0.0,0.0,0.0,0.0,0.0,0.0,0.7240537240537241,0.0,0.0,0.6984126984126984,0.0,0.0,0.0,0.0,0.0,1.1416361416361416,-0.7728937728937729,0.0,1.4676434676434675,-0.9499389499389499,0.0,0.0,0.0,0.0,0.0,0.0,0.0,0.0,0.0,-0.53125,0.7106227106227107,-1.1147741147741148,-0.65625,0.0,-0.8315018315018315,-0.71875,0.0,0.0,-0.78125,0.0,0.0,-0.75,0.0,-0.7350427350427351,-0.75,0.0,-0.8791208791208791,-0.8125,0.0,-0.8669108669108669,-0.90625,-0.73992673992674,-0.7948717948717948,-0.90625,-1.4407814407814408,0.0,-1.0,-1.5262515262515262,0.0,-1.0,-1.4493284493284493,0.0,-1.0625,-1.4932844932844933,-0.6141636141636142,-1.0625,-1.9645909645909645,0.0,-1.03125,-2.421245421245421,0.0,-1.0,-2.7448107448107453,0.0,-0.9375,-2.509157509157509,-0.5873015873015873,-0.8125,-2.1257631257631258,-0.6959706959706959,-0.71875,-2.4334554334554332,-0.5054945054945055,-0.75,-2.3638583638583643,0.0,-0.625,-3.2234432234432235,0.5531135531135531,-0.5625,-2.6117216117216118,0.0,0.0,-2.1648351648351647,-0.8070818070818071,-0.53125,-3.0293040293040288,0.0,0.0,-3.501831501831502,0.0,0.0,-3.6776556776556775,0.0,0.0,0.0,0.0,0.0,0.0,0.0,0.0,0.0,0.0,0.0,0.0,0.0,0.0,0.0,0.0,0.0,0.0,0.0,0.0,0.0,0.0,0.0,0.0,0.0,0.0,0.0,0.0,0.0,0.0,0.0,0.0,0.0,0.0,0.0,0.0,0.0,0.0,0.0,0.0,0.0,0.0,0.0,0.0,0.0,0.0,0.0,0.0,0.0,0.0,0.0,0.0,0.0,0.0,0.0,0.0,0.0,0.0,0.0,0.0,0.0,0.0,0.0,0.0,0.0,0.0,0.0,0.0,0.0,0.0,0.0,0.0,0.0,0.0,0.0,0.0,0.0,moveNegX2D
20,0.0,0.0,0.0,0.5335775335775336,0.0,0.0,0.0,0.0,0.0,0.0,0.0,0.0,0.0,0.0,0.0,0.0,0.0,0.0,0.0,0.0,0.0,0.0,0.0,0.0,0.0,0.0,0.0,0.0,0.0,0.0,0.0,0.0,0.0,0.5592185592185592,0.0,0.0,0.0,-0.536019536019536,-0.59375,0.0,0.0,-0.59375,0.0,0.0,-0.65625,0.0,0.0,-0.6875,0.0,0.0,-0.71875,0.0,0.0,-0.75,-0.6166056166056166,0.0,-0.84375,-0.5335775335775336,0.0,-0.875,-0.6385836385836385,0.0,-0.84375,-0.7704517704517705,0.0,-0.90625,-1.2515262515262515,-0.7142857142857143,-1.0625,-1.4493284493284493,0.0,-1.03125,-0.978021978021978,-0.5152625152625152,-0.9375,-1.1452991452991452,0.0,-1.03125,-1.6214896214896215,0.0,-1.03125,-2.242979242979243,0.0,-0.96875,-2.590964590964591,0.0,-0.96875,-1.706959706959707,-0.6813186813186813,-0.78125,-1.1855921855921856,-1.2161172161172158,-0.71875,-1.612942612942613,-0.7802197802197802,-0.75,-2.5775335775335777,0.0,-0.78125,-3.0134310134310134,0.0,-0.71875,-3.4615384615384617,0.0,-0.59375,-3.5164835164835164,0.0,-0.5625,-3.525030525030525,0.0,-0.53125,-3.8461538461538463,0.0,0.0,-3.6727716727716726,0.0,0.0,-3.3382173382173383,0.0,0.0,0.0,0.0,0.0,0.0,0.0,0.0,0.0,0.0,0.0,0.0,0.0,0.0,0.0,0.0,0.0,0.0,0.0,0.0,0.0,0.0,0.0,0.0,0.0,0.0,0.0,0.0,0.0,0.0,0.0,0.0,0.0,0.0,0.0,0.0,0.0,0.0,0.0,0.0,0.0,0.0,0.0,0.0,0.0,0.0,0.0,0.0,0.0,0.0,0.0,0.0,0.0,0.0,0.0,0.0,0.0,0.0,0.0,0.0,0.0,0.0,0.0,0.0,0.0,0.0,0.0,0.0,0.0,0.0,0.0,0.0,0.0,0.0,0.0,0.0,0.0,0.0,0.0,0.0,moveNegX2D
21,0.9169719169719168,0.0,0.0,0.5934065934065934,0.7667887667887668,0.0,0.5824175824175825,0.0,0.0,0.7704517704517705,-0.8144078144078144,0.0,0.8339438339438342,-0.9597069597069596,0.0,0.0,0.0,0.0,0.0,0.0,0.0,0.0,0.0,0.0,0.0,-0.6422466422466423,0.0,0.5543345543345544,-0.525030525030525,0.0,0.0,0.0,0.0,0.0,0.0,0.0,0.0,0.0,0.0,0.0,0.0,-0.59375,0.0,0.0,-0.65625,0.0,0.0,-0.65625,0.0,0.0,-0.71875,0.0,0.0,-0.78125,0.0,0.0,-0.8125,0.0,0.0,-0.84375,-0.6410256410256411,0.0,-0.90625,-0.9291819291819292,0.0,-0.84375,-0.6227106227106227,-0.5006105006105006,-0.84375,-1.3357753357753357,0.0,-0.90625,-1.728937728937729,0.0,-0.84375,-1.3333333333333333,0.0,-0.8125,-1.2271062271062272,-0.5494505494505495,-0.8125,-1.3333333333333333,-0.6288156288156288,-0.875,-1.2234432234432235,-0.5653235653235653,-0.875,-1.0708180708180708,-0.6446886446886447,-0.9375,-2.092796092796093,0.0,-0.9375,-1.8485958485958487,0.0,-0.8125,-0.8363858363858364,-0.9633699633699634,-0.84375,-1.1172161172161172,-0.7631257631257631,-0.875,-2.4420024420024418,0.0,-0.78125,-2.0097680097680097,0.0,-0.6875,-1.2527472527472527,-1.4285714285714286,-0.625,-0.7167277167277167,-1.4481074481074483,-0.625,-2.0634920634920637,-0.5213675213675214,-0.78125,-3.743589743589743,0.0,-0.9375,-4.581196581196581,0.514041514041514,-0.875,-4.634920634920634,0.0,-0.53125,0.0,0.0,0.0,0.0,0.0,0.0,0.0,0.0,0.0,0.0,0.0,0.0,0.0,0.0,0.0,0.0,0.0,0.0,0.0,0.0,0.0,0.0,0.0,0.0,0.0,0.0,0.0,0.0,0.0,0.0,0.0,0.0,0.0,0.0,0.0,0.0,0.0,0.0,0.0,0.0,0.0,0.0,0.0,0.0,0.0,0.0,0.0,0.0,0.0,0.0,0.0,0.0,0.0,0.0,0.0,0.0,0.0,0.0,0.0,0.0,0.0,0.0,0.0,0.0,0.0,0.0,0.0,0.0,0.0,0.0,0.0,0.0,moveNegX2D
22,1.6385836385836383,0.0,0.0,1.3699633699633702,0.0,0.0,0.9645909645909646,0.0,0.0,0.536019536019536,0.0,0.0,0.5811965811965812,0.0,0.0,0.0,0.0,0.0,0.0,0.0,0.0,0.0,0.0,0.0,0.0,0.0,0.0,0.0,0.0,0.0,0.0,0.0,0.0,0.0,-0.6031746031746031,0.0,0.0,0.0,0.0,0.0,0.0,0.0,0.0,0.0,0.0,0.0,0.0,0.0,0.0,0.0,0.0,0.0,0.0,0.0,0.0,0.0,-0.53125,0.0,0.0,-0.5625,0.0,0.0,-0.625,0.0,0.0,-0.65625,0.0,0.0,-0.6875,0.0,0.0,-0.6875,0.0,0.0,-0.71875,-0.8644688644688645,0.0,-0.71875,-0.663003663003663,0.0,-0.78125,0.0,-0.8107448107448108,-0.90625,0.0,-0.7826617826617827,-0.90625,-0.6373626373626373,-0.7533577533577533,-0.96875,-0.8363858363858364,-0.5836385836385837,-0.9375,-0.5164835164835165,0.0,-0.875,0.0,0.0,-0.9375,-0.7606837606837606,0.0,-1.03125,-1.6373626373626369,0.0,-1.03125,-1.9755799755799759,0.0,-0.9375,-1.702075702075702,0.0,-0.90625,-1.7777777777777777,0.0,-0.9375,-2.045177045177045,0.0,-0.875,-1.4590964590964588,0.0,-0.90625,-1.463980463980464,0.0,-1.03125,-1.8974358974358967,0.0,-0.90625,-1.728937728937729,0.7216117216117216,-0.78125,-1.3052503052503053,0.0,-0.65625,-1.4737484737484738,0.0,-0.625,-1.8192918192918195,-0.989010989010989,-0.59375,-2.774114774114774,-0.8827838827838828,-0.59375,-3.929181929181929,-0.5848595848595849,0.0,0.0,0.0,0.0,0.0,0.0,0.0,0.0,0.0,0.0,0.0,0.0,0.0,0.0,0.0,0.0,0.0,0.0,0.0,0.0,0.0,0.0,0.0,0.0,0.0,0.0,0.0,0.0,0.0,0.0,0.0,0.0,0.0,0.0,0.0,0.0,0.0,0.0,0.0,0.0,0.0,0.0,0.0,0.0,0.0,0.0,0.0,0.0,0.0,0.0,0.0,0.0,0.0,0.0,0.0,moveNegX2D
23,0.536019536019536,0.0,0.0,0.9609279609279608,-0.9731379731379732,0.0,0.778998778998779,-0.5824175824175825,0.0,0.6410256410256411,0.0,0.0,0.0,0.0,0.0,0.0,0.0,0.0,0.0,0.0,0.0,0.0,0.0,0.0,0.0,0.0,0.0,0.0,0.0,0.0,0.0,0.0,0.0,0.0,0.0,0.0,0.0,0.0,0.0,0.0,-0.5299145299145299,-0.59375,-0.6056166056166056,0.0,-0.65625,0.0,0.0,-0.5625,0.0,0.0,-0.625,0.0,0.0,-0.59375,-0.8107448107448108,0.0,-0.65625,0.0,-0.7655677655677655,-0.625,0.0,-0.5677655677655677,-0.65625,0.0,0.0,-0.625,-0.6434676434676435,0.0,-0.625,-0.6703296703296703,0.0,-0.75,-0.518925518925519,0.0,-0.90625,0.0,0.0,-0.90625,-0.9523809523809524,0.0,-0.96875,-1.2503052503052503,-0.5628815628815629,-0.9375,-1.1135531135531136,-0.5726495726495726,-0.84375,-1.0537240537240538,-0.7545787545787546,-0.90625,-1.0512820512820509,-1.122100122100122,-0.90625,-1.2686202686202686,-0.6544566544566545,-0.90625,-1.7155067155067154,-0.7032967032967034,-0.90625,-1.6483516483516485,-0.7387057387057387,-0.875,-1.1819291819291822,-1.0671550671550671,-0.71875,0.0,-1.7814407814407816,-0.625,-1.9853479853479847,0.0,-0.78125,-3.505494505494505,1.2857142857142858,-0.84375,-2.3894993894993894,0.8058608058608059,-0.78125,-1.2637362637362637,0.0,-0.6875,-2.4896214896214897,0.0,-0.65625,-4.031746031746032,1.242979242979243,-0.625,-3.995115995115996,1.0024420024420024,-0.5625,-3.357753357753358,0.5115995115995116,0.0,-2.4334554334554332,0.0,0.0,0.0,0.0,0.0,0.0,0.0,0.0,0.0,0.0,0.0,0.0,0.0,0.0,0.0,0.0,0.0,0.0,0.0,0.0,0.0,0.0,0.0,0.0,0.0,0.0,0.0,0.0,0.0,0.0,0.0,0.0,0.0,0.0,0.0,0.0,0.0,0.0,0.0,0.0,0.0,0.0,0.0,0.0,0.0,0.0,0.0,0.0,0.0,0.0,0.0,0.0,0.0,0.0,0.0,0.0,0.0,0.0,0.0,0.0,0.0,0.0,0.0,0.0,0.0,moveNegX2D
24,0.6373626373626373,0.0,0.0,0.6813186813186813,-0.5433455433455433,0.0,0.8547008547008547,0.0,0.0,0.912087912087912,0.0,0.0,0.9914529914529916,-0.6031746031746031,0.0,0.6288156288156288,-0.6349206349206349,0.0,0.0,0.0,0.0,0.0,0.0,0.0,0.0,0.0,0.0,0.0,0.0,0.0,0.0,-0.5543345543345544,0.0,0.0,0.0,-0.625,0.0,0.0,-0.71875,-0.6007326007326007,0.0,-0.6875,0.0,0.0,-0.65625,0.0,-0.6007326007326007,-0.59375,0.0,-0.6141636141636142,-0.6875,-0.7326007326007326,0.0,-0.8125,-1.4566544566544566,0.0,-0.8125,-1.15018315018315,0.0,-0.71875,-0.8046398046398047,-0.6166056166056166,-0.78125,-0.6263736263736264,-0.9047619047619048,-0.90625,-0.8522588522588522,-0.8327228327228328,-0.9375,-1.4053724053724053,0.0,-0.9375,-1.5128205128205128,0.0,-0.9375,-0.9072039072039072,0.0,-0.90625,-1.0048840048840049,-0.7863247863247863,-0.84375,-1.912087912087912,-0.6398046398046398,-0.84375,-2.3076923076923075,-0.5213675213675214,-0.9375,-1.8180708180708185,-0.5482295482295483,-0.8125,-1.0952380952380951,-0.6312576312576312,-0.75,-1.9633699633699635,0.0,-0.75,-2.352869352869353,0.0,-0.75,-2.15995115995116,0.0,-0.8125,-2.096459096459097,0.0,-0.71875,-1.894993894993895,0.0,-0.65625,-1.6459096459096458,-0.6385836385836385,-0.625,-2.407814407814408,-0.9731379731379732,-0.6875,-2.9035409035409034,-1.0989010989010992,-0.65625,-2.231990231990232,-0.5641025641025641,-0.5625,-3.2051282051282053,1.0048840048840049,0.0,-4.705738705738706,1.4871794871794872,0.0,0.0,0.0,0.0,0.0,0.0,0.0,0.0,0.0,0.0,0.0,0.0,0.0,0.0,0.0,0.0,0.0,0.0,0.0,0.0,0.0,0.0,0.0,0.0,0.0,0.0,0.0,0.0,0.0,0.0,0.0,0.0,0.0,0.0,0.0,0.0,0.0,0.0,0.0,0.0,0.0,0.0,0.0,0.0,0.0,0.0,0.0,0.0,0.0,0.0,0.0,0.0,0.0,0.0,0.0,0.0,0.0,0.0,0.0,0.0,0.0,0.0,0.0,0.0,0.0,0.0,0.0,0.0,0.0,0.0,0.0,0.0,0.0,moveNegX2D
25,0.0,0.0,0.0,0.6874236874236874,0.0,0.0,0.9902319902319904,0.0,0.0,0.6251526251526252,0.0,0.0,0.0,-0.6800976800976801,0.0,0.0,0.0,0.0,0.0,0.0,0.0,0.0,0.0,0.0,0.0,-0.5421245421245421,0.0,0.0,-0.7484737484737485,0.0,0.0,0.0,0.0,0.0,0.0,0.0,0.0,0.0,-0.53125,0.0,-0.5225885225885226,-0.65625,0.0,0.0,-0.65625,0.0,0.0,-0.6875,0.0,0.0,-0.75,0.0,-0.5506715506715507,-0.78125,0.0,0.0,-0.75,0.0,0.0,-0.75,0.0,0.0,-0.78125,0.0,-0.5128205128205128,-0.9375,-0.8021978021978022,0.0,-0.9375,-0.8620268620268621,0.0,-0.90625,-0.5433455433455433,-0.5103785103785103,-0.84375,0.0,0.0,-0.84375,-0.8742368742368742,0.0,-0.90625,-1.803418803418804,0.0,-1.0,-1.6141636141636142,0.0,-0.9375,-0.8693528693528694,-0.6800976800976801,-0.875,-1.1489621489621489,0.0,-0.875,-2.399267399267399,0.0,-0.875,-2.409035409035409,0.0,-0.90625,-1.8644688644688645,0.0,-0.96875,-1.0757020757020757,-1.0097680097680095,-0.8125,-1.8986568986568984,-0.6715506715506715,-0.75,-2.89010989010989,0.0,-0.71875,-3.3748473748473757,0.0,-0.6875,-3.948717948717949,0.0,-0.65625,-3.5665445665445668,0.0,0.0,-3.0940170940170937,0.0,0.0,-3.2503052503052503,0.0,0.0,0.0,0.0,0.0,0.0,0.0,0.0,0.0,0.0,0.0,0.0,0.0,0.0,0.0,0.0,0.0,0.0,0.0,0.0,0.0,0.0,0.0,0.0,0.0,0.0,0.0,0.0,0.0,0.0,0.0,0.0,0.0,0.0,0.0,0.0,0.0,0.0,0.0,0.0,0.0,0.0,0.0,0.0,0.0,0.0,0.0,0.0,0.0,0.0,0.0,0.0,0.0,0.0,0.0,0.0,0.0,0.0,0.0,0.0,0.0,0.0,0.0,0.0,0.0,0.0,0.0,0.0,0.0,0.0,0.0,0.0,0.0,0.0,moveNegX2D
26,0.6886446886446886,0.0,0.0,0.6324786324786325,-0.7887667887667887,0.0,0.6373626373626373,-0.6654456654456654,0.0,0.0,0.0,0.0,0.0,0.0,0.0,0.0,0.0,0.0,0.0,0.0,0.0,0.5604395604395604,0.0,0.0,0.5921855921855922,0.0,0.0,0.5213675213675214,0.0,0.0,0.503052503052503,0.0,0.0,0.0,0.0,0.0,0.5726495726495726,0.0,0.0,0.0,0.0,0.0,0.0,-0.5445665445665445,-0.625,0.0,-0.5702075702075702,-0.71875,0.0,0.0,-0.78125,-1.1636141636141637,0.0,-0.71875,-0.7191697191697192,-0.5470085470085471,-0.8125,-0.6141636141636142,-0.8595848595848596,-0.90625,-0.778998778998779,-0.5054945054945055,-0.84375,0.0,0.0,-0.90625,-0.6752136752136753,0.0,-0.875,-0.9829059829059827,0.0,-0.875,-1.431013431013431,0.0,-0.90625,-1.3394383394383391,0.0,-0.875,-0.7106227106227107,0.0,-0.8125,-1.0268620268620268,-0.5018315018315018,-0.875,-1.492063492063492,0.0,-0.875,-1.9743589743589745,0.0,-0.875,-1.8180708180708185,0.0,-0.8125,-1.6031746031746033,0.0,-0.71875,-1.5286935286935286,0.0,-0.78125,-1.1807081807081807,0.0,-0.78125,-0.6764346764346765,-0.8547008547008547,-0.875,-0.8302808302808303,-1.1294261294261294,-0.8125,-1.4627594627594631,-0.9645909645909646,-0.84375,-2.5921855921855923,0.0,-0.875,-3.111111111111111,0.0,-0.75,-2.667887667887668,-0.5225885225885226,-0.625,-2.7313797313797314,-0.6202686202686203,-0.625,-3.383394383394384,0.0,-0.625,-3.733821733821733,0.0,-0.53125,0.0,0.0,0.0,0.0,0.0,0.0,0.0,0.0,0.0,0.0,0.0,0.0,0.0,0.0,0.0,0.0,0.0,0.0,0.0,0.0,0.0,0.0,0.0,0.0,0.0,0.0,0.0,0.0,0.0,0.0,0.0,0.0,0.0,0.0,0.0,0.0,0.0,0.0,0.0,0.0,0.0,0.0,0.0,0.0,0.0,0.0,0.0,0.0,0.0,0.0,0.0,0.0,0.0,0.0,0.0,0.0,0.0,0.0,0.0,0.0,0.0,0.0,0.0,0.0,0.0,0.0,0.0,0.0,0.0,moveNegX2D
27,0.0,0.0,0.0,0.0,-0.9694749694749696,0.0,0.6776556776556777,-1.0891330891330893,0.0,0.0,0.0,0.0,0.0,0.0,0.0,0.0,0.0,0.0,0.0,0.0,0.0,0.0,0.0,0.0,0.0,0.0,0.0,0.0,0.0,0.0,0.0,0.0,0.0,0.0,0.0,0.0,0.0,0.0,0.0,0.0,0.0,0.0,0.0,0.0,0.0,0.0,0.0,0.0,0.0,-0.6129426129426129,-0.53125,0.0,0.0,-0.53125,0.0,0.0,-0.5625,0.0,0.0,-0.625,0.0,-0.6422466422466423,-0.71875,0.0,0.0,-0.75,-0.6874236874236874,0.0,-0.78125,-0.8498168498168498,0.0,-0.8125,-0.912087912087912,0.0,-0.875,-0.9694749694749696,0.0,-0.9375,-0.8388278388278388,0.0,-1.0,-0.905982905982906,-0.5299145299145299,-1.0,-1.2698412698412698,-0.6935286935286935,-1.03125,-1.5555555555555556,0.0,-1.0625,-1.6642246642246643,0.0,-1.0,-1.9755799755799759,0.0,-0.84375,-1.831501831501832,0.0,-0.78125,-1.5885225885225884,-0.8705738705738706,-0.75,-1.0671550671550671,-0.8962148962148963,-0.78125,-1.6446886446886446,-0.5152625152625152,-0.78125,-2.2576312576312576,0.0,-0.75,-2.2808302808302807,0.0,-0.75,-3.0818070818070824,0.0,-0.71875,-3.2881562881562885,0.0,-0.5625,-1.811965811965812,0.0,0.0,-2.1355311355311355,0.0,0.0,-1.8266178266178263,-0.5848595848595849,0.0,-2.5873015873015874,0.0,0.0,0.0,0.0,0.0,0.0,0.0,0.0,0.0,0.0,0.0,0.0,0.0,0.0,0.0,0.0,0.0,0.0,0.0,0.0,0.0,0.0,0.0,0.0,0.0,0.0,0.0,0.0,0.0,0.0,0.0,0.0,0.0,0.0,0.0,0.0,0.0,0.0,0.0,0.0,0.0,0.0,0.0,0.0,0.0,0.0,0.0,0.0,0.0,0.0,0.0,0.0,0.0,0.0,0.0,0.0,0.0,0.0,0.0,0.0,0.0,0.0,0.0,0.0,0.0,0.0,0.0,0.0,moveNegX2D
28,0.0,0.0,0.0,0.0,0.0,0.0,0.0,0.0,0.0,0.0,0.0,0.0,0.0,0.0,0.0,0.0,0.0,0.0,0.0,0.0,0.0,0.0,0.0,0.0,0.0,0.0,0.0,0.0,0.0,0.0,0.0,0.0,0.0,0.0,0.0,0.0,0.0,0.0,0.0,0.0,0.0,0.0,0.0,0.0,-0.5625,0.0,0.0,-0.59375,0.0,0.0,-0.65625,0.5714285714285714,0.0,-0.71875,0.0,0.0,-0.84375,0.0,0.0,-0.78125,0.0,0.0,-0.9375,-0.6947496947496947,0.0,-0.96875,-0.7008547008547008,0.0,-0.875,0.0,0.0,-0.90625,-0.5396825396825397,0.0,-0.9375,-0.8144078144078144,0.0,-0.96875,-0.7619047619047619,-0.5665445665445665,-1.09375,-0.9877899877899878,0.0,-1.03125,-1.1196581196581197,-0.5531135531135531,-0.96875,-1.291819291819292,0.0,-0.96875,-1.5555555555555556,0.0,-0.96875,-1.673992673992674,0.0,-0.90625,-1.804639804639805,0.0,-0.78125,-2.184371184371184,0.0,-0.75,-1.4725274725274726,-0.6886446886446886,-0.71875,-1.2246642246642248,-0.7936507936507936,-0.65625,-1.8156288156288158,-0.6361416361416361,-0.625,-1.971916971916972,0.0,-0.65625,-1.7826617826617828,0.0,-0.625,-2.128205128205128,0.0,-0.59375,-3.0268620268620268,0.0,-0.59375,-3.5213675213675213,0.0,-0.59375,-3.623931623931624,0.5042735042735043,0.0,-3.7020757020757022,0.0,0.0,0.0,0.0,0.0,0.0,0.0,0.0,0.0,0.0,0.0,0.0,0.0,0.0,0.0,0.0,0.0,0.0,0.0,0.0,0.0,0.0,0.0,0.0,0.0,0.0,0.0,0.0,0.0,0.0,0.0,0.0,0.0,0.0,0.0,0.0,0.0,0.0,0.0,0.0,0.0,0.0,0.0,0.0,0.0,0.0,0.0,0.0,0.0,0.0,0.0,0.0,0.0,0.0,0.0,0.0,0.0,0.0,0.0,0.0,0.0,0.0,0.0,0.0,0.0,0.0,0.0,0.0,moveNegX2D
29,0.8339438339438342,0.0,0.0,0.5750915750915749,0.0,0.0,0.8815628815628815,0.0,0.0,0.6898656898656899,0.0,0.0,0.0,0.0,0.0,0.0,0.0,0.0,0.0,0.0,0.0,0.0,0.0,0.0,0.0,-0.5567765567765568,0.0,0.0,0.0,0.0,0.0,0.0,0.0,0.0,0.0,0.0,0.0,0.0,0.0,0.0,0.0,0.0,1.0244200244200243,-0.5677655677655677,0.0,0.518925518925519,0.0,0.0,0.0,0.0,-0.53125,0.0,0.0,-0.625,0.0,0.0,-0.6875,0.0,0.0,-0.6875,-0.5750915750915749,0.0,-0.6875,-0.8229548229548229,0.0,-0.71875,-0.5006105006105006,0.0,-0.75,-0.7374847374847375,0.0,-0.78125,-0.9572649572649572,0.0,-0.65625,-0.9450549450549448,0.0,-0.625,-0.518925518925519,-0.8376068376068376,-0.6875,-0.5286935286935287,-0.6263736263736264,-0.78125,-1.2246642246642248,0.0,-0.8125,-1.4542124542124542,0.0,-0.75,-1.0427350427350428,0.0,-0.78125,-0.927960927960928,0.0,-0.71875,-1.4065934065934067,0.0,-0.71875,-1.326007326007326,0.0,-0.78125,-0.7887667887667887,0.0,-0.78125,0.0,-1.0940170940170941,-0.8125,-0.7313797313797313,-0.9731379731379732,-0.875,-1.0134310134310134,-0.6495726495726496,-0.90625,-1.1611721611721613,-0.5201465201465202,-0.90625,-1.3272283272283272,-0.7045177045177046,-0.875,-1.391941391941392,-0.5091575091575091,-0.9375,-2.283272283272283,0.0,-0.90625,-3.0183150183150182,0.0,-0.75,-2.649572649572649,0.0,-0.59375,-3.173382173382173,0.0,0.0,-3.782661782661783,0.0,0.0,-3.383394383394384,0.0,0.0,-3.2918192918192917,-0.5482295482295483,0.0,-3.435897435897436,0.0,0.0,0.0,0.0,0.0,0.0,0.0,0.0,0.0,0.0,0.0,0.0,0.0,0.0,0.0,0.0,0.0,0.0,0.0,0.0,0.0,0.0,0.0,0.0,0.0,0.0,0.0,0.0,0.0,0.0,0.0,0.0,0.0,0.0,0.0,0.0,0.0,0.0,0.0,0.0,0.0,0.0,0.0,0.0,0.0,0.0,0.0,0.0,0.0,0.0,0.0,0.0,0.0,moveNegX2D
30,1.0976800976800978,0.0,0.0,1.0915750915750917,0.0,0.0,1.413919413919414,0.0,0.0,1.2857142857142858,-0.6202686202686203,0.0,0.8192918192918193,-0.8107448107448108,0.0,0.0,0.0,0.0,0.0,0.0,0.0,0.5311355311355311,0.0,0.0,0.6166056166056166,0.0,0.0,0.0,-0.9169719169719168,0.0,0.0,-0.7118437118437119,0.0,0.0,-0.6776556776556777,0.0,0.0,-0.5372405372405372,0.0,0.0,0.0,-0.53125,-0.5604395604395604,0.0,-0.625,-0.9755799755799756,0.0,-0.625,-0.7667887667887668,0.0,-0.59375,-0.5787545787545788,-0.5518925518925519,-0.65625,0.0,-0.5946275946275946,-0.625,0.0,0.0,-0.6875,-1.037851037851038,0.0,-0.8125,-1.0818070818070815,0.0,-0.75,-1.1782661782661783,0.0,-0.75,0.0,0.0,-0.53125,0.0,-0.7179487179487181,0.0,0.0,-0.6813186813186813,-0.65625,-1.5970695970695972,0.0,-0.8125,-1.4700854700854702,0.0,-0.625,0.0,-0.5225885225885226,-0.53125,0.0,-0.8778998778998779,-0.71875,-1.2686202686202686,-0.7045177045177046,-0.78125,-1.5091575091575091,0.0,-0.78125,-0.7448107448107448,0.0,-0.625,-0.8656898656898657,0.0,-0.6875,-1.825396825396825,0.0,-0.8125,-2.05982905982906,0.0,-0.84375,-2.175824175824176,0.0,-0.6875,-2.192918192918193,0.0,-0.625,-2.6349206349206344,0.0,-0.625,-3.144078144078144,0.0,-0.71875,-4.2735042735042725,0.0,-0.53125,-4.183150183150183,0.0,0.0,0.0,0.0,0.0,0.0,0.0,0.0,0.0,0.0,0.0,0.0,0.0,0.0,0.0,0.0,0.0,0.0,0.0,0.0,0.0,0.0,0.0,0.0,0.0,0.0,0.0,0.0,0.0,0.0,0.0,0.0,0.0,0.0,0.0,0.0,0.0,0.0,0.0,0.0,0.0,0.0,0.0,0.0,0.0,0.0,0.0,0.0,0.0,0.0,0.0,0.0,0.0,0.0,0.0,0.0,0.0,0.0,0.0,0.0,0.0,0.0,0.0,0.0,0.0,0.0,0.0,0.0,0.0,0.0,0.0,0.0,0.0,0.0,moveNegX2D
31,1.525030525030525,0.0,0.0,1.3968253968253967,0.0,0.0,1.5763125763125765,-0.7851037851037851,0.0,1.4761904761904765,-1.0842490842490842,0.0,0.6520146520146519,0.0,0.0,0.8498168498168498,0.0,0.0,0.9792429792429792,0.0,0.0,0.6129426129426129,0.0,0.0,0.6398046398046398,-0.5958485958485958,0.0,0.0,0.0,0.0,0.0,0.0,0.0,0.5824175824175825,0.0,-0.59375,0.0,0.0,-0.5625,0.0,0.0,-0.59375,0.0,-0.7350427350427351,-0.75,0.0,-0.6336996336996337,-0.875,-0.9072039072039072,0.0,-0.78125,-0.8156288156288156,0.0,-0.71875,-0.8424908424908425,0.0,-0.75,-1.6923076923076923,0.0,-0.8125,-0.9487179487179488,-0.5763125763125763,-0.71875,0.0,-1.1355311355311355,-0.875,-1.2783882783882785,0.0,-0.84375,-2.514041514041514,0.0,-0.6875,-2.183150183150183,0.0,-0.6875,-1.1123321123321124,-0.5457875457875457,-0.6875,-0.9401709401709402,-1.1318681318681318,-0.71875,-1.061050061050061,-1.277167277167277,-0.75,-1.7973137973137974,-0.5934065934065934,-0.8125,-2.5128205128205128,0.0,-0.78125,-2.2808302808302807,-0.6263736263736264,-0.6875,-2.266178266178266,-0.9230769230769232,-0.75,-2.2466422466422467,0.0,-0.78125,-2.056166056166056,0.0,-0.75,-3.137973137973138,0.0,-0.8125,-4.156288156288157,0.6251526251526252,-0.65625,-3.8461538461538463,0.0,0.0,-3.483516483516484,0.0,0.0,-2.5775335775335777,-1.0305250305250304,0.0,-2.275946275946276,-1.15995115995116,0.0,-2.5042735042735043,-0.7496947496947497,0.0,0.0,0.0,0.0,0.0,0.0,0.0,0.0,0.0,0.0,0.0,0.0,0.0,0.0,0.0,0.0,0.0,0.0,0.0,0.0,0.0,0.0,0.0,0.0,0.0,0.0,0.0,0.0,0.0,0.0,0.0,0.0,0.0,0.0,0.0,0.0,0.0,0.0,0.0,0.0,0.0,0.0,0.0,0.0,0.0,0.0,0.0,0.0,0.0,0.0,0.0,0.0,0.0,0.0,0.0,0.0,0.0,0.0,0.0,0.0,0.0,0.0,0.0,0.0,0.0,0.0,0.0,0.0,0.0,0.0,0.0,0.0,0.0,0.0,0.0,0.0,moveNegX2D
32,0.0,0.0,0.0,0.0,0.0,0.0,0.0,0.0,0.0,0.0,0.0,0.0,0.0,0.0,0.0,0.0,0.0,0.0,0.0,0.0,0.0,0.0,0.0,0.0,0.0,0.0,0.0,0.0,0.0,0.0,0.0,0.0,0.0,0.0,0.0,0.0,0.5421245421245421,0.0,0.0,0.7130647130647131,-0.6349206349206349,0.0,0.0,0.0,-0.53125,0.0,0.0,-0.59375,0.0,0.0,-0.65625,-0.6288156288156288,0.0,-0.71875,0.0,0.0,-0.75,0.0,0.0,-0.78125,0.0,0.0,-0.875,-0.7863247863247863,0.0,-0.78125,-0.5347985347985348,-0.6483516483516484,-0.84375,0.0,0.0,-0.875,-0.8583638583638583,-0.5628815628815629,-0.9375,-1.2271062271062272,0.0,-0.9375,-1.1147741147741148,-0.6764346764346765,-0.96875,-2.347985347985348,0.0,-0.9375,-2.217338217338217,0.0,-0.71875,-1.3931623931623929,0.0,-0.71875,-1.5714285714285714,0.0,-0.75,-1.7875457875457876,0.0,-0.8125,-1.7228327228327232,0.0,-0.6875,-0.811965811965812,0.0,-0.625,-0.8864468864468864,-0.5311355311355311,-0.78125,-1.956043956043956,0.0,-0.9375,-2.758241758241758,0.0,-0.9375,-3.120879120879121,0.0,-0.75,-3.2967032967032965,0.0,-0.59375,-3.4945054945054945,0.0,0.0,-3.743589743589743,0.0,0.0,-4.072039072039072,0.0,0.0,0.0,0.0,0.0,0.0,0.0,0.0,0.0,0.0,0.0,0.0,0.0,0.0,0.0,0.0,0.0,0.0,0.0,0.0,0.0,0.0,0.0,0.0,0.0,0.0,0.0,0.0,0.0,0.0,0.0,0.0,0.0,0.0,0.0,0.0,0.0,0.0,0.0,0.0,0.0,0.0,0.0,0.0,0.0,0.0,0.0,0.0,0.0,0.0,0.0,0.0,0.0,0.0,0.0,0.0,0.0,0.0,0.0,0.0,0.0,0.0,0.0,0.0,0.0,0.0,0.0,0.0,0.0,0.0,0.0,0.0,0.0,0.0,moveNegX2D
33,0.8205128205128205,0.0,0.0,0.0,0.0,0.0,0.0,0.0,0.0,0.8840048840048841,-0.6666666666666666,0.0,0.8400488400488401,-0.5702075702075702,0.0,0.7826617826617827,0.0,0.0,0.0,0.0,0.0,0.0,0.0,0.0,-0.5457875457875457,0.0,0.0,0.0,0.0,0.0,0.0,0.0,0.0,0.0,0.0,0.0,0.0,0.0,0.0,0.0,0.0,0.0,0.0,0.0,0.0,0.0,0.0,-0.59375,0.5677655677655677,-0.8095238095238095,-0.625,0.0,-0.7411477411477412,-0.71875,0.0,0.0,-0.84375,-0.6056166056166056,0.0,-0.90625,-0.9218559218559218,0.0,-0.90625,-0.663003663003663,0.0,-0.8125,-0.9438339438339438,0.0,-0.96875,-1.2307692307692308,0.0,-0.9375,-1.1978021978021978,-0.5384615384615384,-0.875,-1.115995115995116,-0.5811965811965812,-0.96875,-0.8315018315018315,0.0,-1.0,-1.3626373626373631,0.0,-0.96875,-2.0573870573870567,0.0,-0.96875,-2.2185592185592187,0.0,-0.9375,-1.6703296703296704,0.0,-0.96875,-1.7264957264957266,0.0,-0.8125,-1.6275946275946276,0.0,-0.8125,-1.0976800976800978,-0.8144078144078144,-0.90625,-1.4285714285714286,0.0,-0.96875,-2.0586080586080584,0.0,-0.96875,-1.9792429792429795,0.0,-0.84375,-1.6666666666666667,-0.5604395604395604,-0.75,-1.8205128205128205,-0.6178266178266179,-0.71875,-2.2026862026862037,-0.6056166056166056,-0.6875,-3.1074481074481075,0.0,-0.625,-3.606837606837607,0.0,0.0,0.0,0.0,0.0,0.0,0.0,0.0,0.0,0.0,0.0,0.0,0.0,0.0,0.0,0.0,0.0,0.0,0.0,0.0,0.0,0.0,0.0,0.0,0.0,0.0,0.0,0.0,0.0,0.0,0.0,0.0,0.0,0.0,0.0,0.0,0.0,0.0,0.0,0.0,0.0,0.0,0.0,0.0,0.0,0.0,0.0,0.0,0.0,0.0,0.0,0.0,0.0,0.0,0.0,0.0,0.0,0.0,0.0,0.0,0.0,0.0,0.0,0.0,0.0,0.0,0.0,0.0,0.0,0.0,0.0,0.0,0.0,0.0,moveNegX2D
34,0.0,0.0,0.0,0.5494505494505495,0.0,0.0,0.5091575091575091,0.0,0.0,0.0,-0.6520146520146519,0.0,0.0,-0.6361416361416361,0.0,0.0,0.0,0.0,0.0,0.0,0.0,0.0,0.0,0.0,0.6398046398046398,0.0,0.0,0.6178266178266179,-0.5567765567765568,-0.59375,0.0,0.0,-0.625,0.0,0.0,-0.625,0.0,0.0,-0.625,0.0,0.0,-0.78125,0.0,-0.568986568986569,-0.8125,-0.7826617826617827,0.0,-0.78125,-1.0305250305250304,0.0,-0.71875,-0.5286935286935287,-0.5042735042735043,-0.65625,0.0,-0.8766788766788767,-0.78125,0.0,-0.7936507936507936,-0.84375,0.0,-0.6288156288156288,-0.84375,0.0,-0.5873015873015873,-0.875,-0.7826617826617827,0.0,-0.96875,-1.3577533577533578,0.0,-0.9375,-1.5396825396825398,0.0,-0.875,-1.4175824175824177,-0.7301587301587301,-0.90625,-1.757020757020757,-0.7362637362637363,-0.96875,-1.4945054945054943,-0.894993894993895,-0.875,-1.2246642246642248,-0.6984126984126984,-0.8125,-1.0842490842490842,0.0,-0.65625,-1.5934065934065933,0.0,-0.65625,-1.336996336996337,-0.7912087912087912,-0.5625,-1.6898656898656899,-1.0122100122100122,-0.78125,-2.562881562881563,0.0,-0.75,-1.3516483516483515,-0.6410256410256411,-0.625,-1.3650793650793651,0.0,-0.625,-2.9413919413919416,0.0,-0.65625,-3.733821733821733,0.0,-0.5625,-3.7496947496947497,0.0,0.0,-2.9987789987789983,0.0,0.0,-2.6227106227106227,0.0,0.0,0.0,0.0,0.0,0.0,0.0,0.0,0.0,0.0,0.0,0.0,0.0,0.0,0.0,0.0,0.0,0.0,0.0,0.0,0.0,0.0,0.0,0.0,0.0,0.0,0.0,0.0,0.0,0.0,0.0,0.0,0.0,0.0,0.0,0.0,0.0,0.0,0.0,0.0,0.0,0.0,0.0,0.0,0.0,0.0,0.0,0.0,0.0,0.0,0.0,0.0,0.0,0.0,0.0,0.0,0.0,0.0,0.0,0.0,0.0,0.0,0.0,0.0,0.0,0.0,0.0,0.0,0.0,0.0,0.0,0.0,0.0,0.0,0.0,0.0,0.0,moveNegX2D
35,1.4835164835164836,0.0,0.0,1.2991452991452992,0.0,0.0,0.9987789987789988,-0.5970695970695971,0.0,1.1794871794871795,-0.9877899877899878,0.0,0.7765567765567766,0.0,0.0,0.5543345543345544,0.0,0.0,0.7985347985347986,0.0,0.0,0.7081807081807082,0.0,0.0,0.7997557997557998,-0.6019536019536019,0.0,0.5738705738705738,-0.6666666666666666,0.0,0.0,0.0,0.0,0.0,0.0,0.0,0.0,0.0,-0.59375,0.0,0.0,-0.6875,0.0,0.0,-0.75,0.0,0.0,-0.75,0.0,0.0,-0.78125,0.0,0.0,-0.84375,0.0,0.0,-0.90625,-1.0451770451770452,0.0,-0.9375,-1.2942612942612943,0.0,-0.8125,-0.8498168498168498,0.0,-0.84375,-1.2954822954822955,0.0,-0.78125,-0.8815628815628815,0.0,-0.75,0.0,-0.7179487179487181,-0.8125,0.0,0.0,-0.90625,-1.2148962148962148,0.0,-0.875,-2.003663003663004,-0.6617826617826618,-0.875,-2.0061050061050056,0.0,-0.875,-1.1147741147741148,0.0,-0.78125,-1.8351648351648349,0.0,-0.84375,-2.025641025641025,0.0,-0.8125,-1.3418803418803418,-0.6190476190476191,-0.6875,-1.0085470085470083,-1.0866910866910866,-0.71875,-1.6141636141636142,0.0,-0.78125,-2.101343101343101,0.0,-0.8125,-2.2612942612942613,-0.518925518925519,-0.75,-2.695970695970696,0.0,-0.78125,-2.954822954822955,0.0,-0.71875,-3.468864468864469,0.0,-0.5625,-3.283272283272283,0.0,0.0,-3.0305250305250304,0.0,0.0,-2.765567765567765,0.0,0.0,-2.4224664224664223,0.0,0.0,0.0,0.0,0.0,0.0,0.0,0.0,0.0,0.0,0.0,0.0,0.0,0.0,0.0,0.0,0.0,0.0,0.0,0.0,0.0,0.0,0.0,0.0,0.0,0.0,0.0,0.0,0.0,0.0,0.0,0.0,0.0,0.0,0.0,0.0,0.0,0.0,0.0,0.0,0.0,0.0,0.0,0.0,0.0,0.0,0.0,0.0,0.0,0.0,0.0,0.0,0.0,0.0,0.0,0.0,0.0,0.0,0.0,0.0,0.0,0.0,0.0,0.0,0.0,0.0,0.0,0.0,moveNegX2D
36,0.9462759462759462,0.0,0.0,0.873015873015873,0.0,0.0,1.0695970695970696,0.0,0.0,0.8083028083028083,-0.7509157509157509,0.0,0.0,-0.6593406593406593,0.0,0.0,0.0,0.0,0.0,0.0,0.0,0.0,0.0,0.0,0.0,0.0,0.0,0.514041514041514,-0.7704517704517705,0.0,0.0,-0.6288156288156288,-0.5625,0.0,0.0,-0.625,0.0,0.0,-0.59375,0.0,0.0,-0.59375,0.0,0.0,-0.625,0.0,-0.9743589743589745,-0.8125,0.0,-0.8205128205128205,-0.84375,0.0,0.0,-0.84375,0.0,0.0,-0.90625,-0.927960927960928,0.0,-0.875,-0.9914529914529916,-0.7631257631257631,-0.875,-0.7741147741147741,-0.6471306471306472,-0.9375,-1.05006105006105,0.0,-0.875,-1.0048840048840049,0.0,-0.8125,-1.0476190476190477,0.0,-0.78125,-0.9023199023199024,0.0,-0.78125,-0.8522588522588522,0.0,-0.78125,-1.0793650793650793,-0.8681318681318682,-0.6875,-0.7252747252747253,-0.6544566544566545,-0.59375,-0.6764346764346765,0.0,0.0,0.0,0.0,-0.65625,-1.5677655677655675,-0.73992673992674,-0.8125,-1.8510378510378511,-0.8766788766788767,-0.84375,-1.3577533577533578,-1.1245421245421243,-0.90625,-2.467643467643468,-0.9133089133089132,-0.90625,-3.851037851037851,0.0,-0.84375,-3.757020757020757,0.0,-0.71875,-3.6825396825396814,-0.5079365079365079,-0.625,-3.5274725274725283,0.0,-0.53125,-3.3345543345543347,0.0,0.0,-4.0256410256410255,0.0,0.0,0.0,0.0,0.0,0.0,0.0,0.0,0.0,0.0,0.0,0.0,0.0,0.0,0.0,0.0,0.0,0.0,0.0,0.0,0.0,0.0,0.0,0.0,0.0,0.0,0.0,0.0,0.0,0.0,0.0,0.0,0.0,0.0,0.0,0.0,0.0,0.0,0.0,0.0,0.0,0.0,0.0,0.0,0.0,0.0,0.0,0.0,0.0,0.0,0.0,0.0,0.0,0.0,0.0,0.0,0.0,0.0,0.0,0.0,0.0,0.0,0.0,0.0,0.0,0.0,0.0,0.0,0.0,0.0,0.0,0.0,0.0,0.0,0.0,0.0,0.0,moveNegX2D
37,0.0,0.0,0.0,0.7948717948717948,0.0,0.0,0.0,0.0,0.0,0.0,0.0,0.0,0.0,0.0,0.0,0.0,0.0,0.0,0.0,0.0,0.0,0.0,-0.5726495726495726,0.0,0.0,0.0,0.0,0.0,0.0,0.0,0.0,0.0,0.0,0.0,0.0,0.0,0.0,0.0,0.0,0.7106227106227107,-0.525030525030525,0.0,0.0,-0.6703296703296703,-0.5625,0.0,-0.5164835164835165,-0.65625,0.0,0.0,-0.65625,0.0,0.0,-0.6875,0.0,-0.6105006105006106,-0.6875,0.0,-0.557997557997558,-0.8125,-0.811965811965812,0.0,-0.78125,-0.8974358974358975,0.0,-0.78125,-0.503052503052503,-0.6507936507936508,-0.9375,0.0,-0.6935286935286935,-1.0625,-1.2515262515262515,0.0,-1.0625,-1.8864468864468864,-0.5824175824175825,-1.0625,-1.9291819291819288,-0.778998778998779,-1.0625,-2.0183150183150182,-0.7301587301587301,-0.84375,-1.4981684981684982,0.0,-0.84375,-1.2881562881562882,0.0,-0.9375,-2.1965811965811968,0.0,-1.0,-2.4664224664224665,0.0,-0.8125,-1.708180708180708,-0.6837606837606838,-0.75,-1.431013431013431,-0.912087912087912,-0.78125,-1.8901098901098896,-0.8095238095238095,-0.8125,-2.7753357753357752,0.0,-0.78125,-3.0903540903540905,0.0,-0.6875,-2.8766788766788767,0.0,-0.5625,-3.282051282051282,0.0,-0.5625,-3.716727716727717,0.0,0.0,-3.675213675213675,0.0,0.0,-3.6007326007326013,0.0,0.0,0.0,0.0,0.0,0.0,0.0,0.0,0.0,0.0,0.0,0.0,0.0,0.0,0.0,0.0,0.0,0.0,0.0,0.0,0.0,0.0,0.0,0.0,0.0,0.0,0.0,0.0,0.0,0.0,0.0,0.0,0.0,0.0,0.0,0.0,0.0,0.0,0.0,0.0,0.0,0.0,0.0,0.0,0.0,0.0,0.0,0.0,0.0,0.0,0.0,0.0,0.0,0.0,0.0,0.0,0.0,0.0,0.0,0.0,0.0,0.0,0.0,0.0,0.0,0.0,0.0,0.0,0.0,0.0,0.0,0.0,0.0,0.0,moveNegX2D
38,0.0,0.0,0.0,0.0,0.0,0.0,0.0,0.0,0.0,0.0,0.0,0.0,0.0,0.0,0.0,0.0,0.0,0.0,0.0,0.0,0.0,0.0,0.0,0.0,0.0,0.0,0.0,0.0,0.0,0.0,0.0,0.0,0.0,0.6800976800976801,-0.6471306471306472,0.0,0.0,-0.5396825396825397,-0.59375,0.0,0.0,-0.59375,0.0,0.0,-0.59375,0.0,0.0,-0.625,0.0,0.0,-0.6875,0.0,0.0,-0.78125,0.0,0.0,-0.78125,0.0,0.0,-0.78125,0.0,0.0,-0.78125,-0.5506715506715507,0.0,-0.75,-0.5921855921855922,0.0,-0.75,-0.5201465201465202,0.0,-0.78125,-0.6275946275946276,0.0,-0.84375,-1.3284493284493284,0.0,-0.90625,-1.2332112332112333,0.0,-0.875,-0.5201465201465202,-0.9413919413919414,-0.84375,-1.1868131868131868,-0.8144078144078144,-0.90625,-1.6398046398046398,0.0,-0.9375,-1.0976800976800978,0.0,-0.9375,-1.0366300366300367,0.0,-0.90625,-1.7875457875457876,0.0,-0.9375,-2.1367521367521367,0.0,-0.9375,-2.1709401709401708,-0.6483516483516484,-0.875,-2.244200244200244,0.0,-0.6875,-2.2857142857142856,0.0,-0.65625,-2.2576312576312576,0.0,-0.625,-2.5946275946275947,0.0,-0.65625,-3.4017094017094016,0.0,-0.59375,-3.3943833943833943,0.0,0.0,-3.4053724053724053,0.0,0.0,-3.3943833943833943,0.0,0.0,-3.0805860805860807,0.0,0.0,0.0,0.0,0.0,0.0,0.0,0.0,0.0,0.0,0.0,0.0,0.0,0.0,0.0,0.0,0.0,0.0,0.0,0.0,0.0,0.0,0.0,0.0,0.0,0.0,0.0,0.0,0.0,0.0,0.0,0.0,0.0,0.0,0.0,0.0,0.0,0.0,0.0,0.0,0.0,0.0,0.0,0.0,0.0,0.0,0.0,0.0,0.0,0.0,0.0,0.0,0.0,0.0,0.0,0.0,0.0,0.0,0.0,0.0,0.0,0.0,0.0,0.0,0.0,0.0,0.0,0.0,moveNegX2D
39,0.0,0.0,0.0,0.0,-1.137973137973138,0.0,0.0,0.0,0.0,0.0,0.0,0.0,0.0,0.0,0.0,0.0,0.0,0.0,0.0,0.0,0.0,0.0,0.0,0.0,0.0,0.0,0.0,0.0,0.0,0.0,0.0,0.0,0.0,0.8290598290598291,0.0,0.0,0.5616605616605617,0.0,0.0,0.0,0.0,0.0,0.0,0.0,-0.5625,0.0,0.0,0.0,0.7423687423687424,0.0,0.0,0.0,-0.5103785103785103,-0.59375,0.0,0.0,-0.75,0.0,-0.568986568986569,-0.78125,0.0,-0.8669108669108669,-0.78125,-0.9609279609279608,0.0,-0.90625,-1.0158730158730158,0.0,-0.9375,-0.6752136752136753,0.0,-0.9375,-0.9206349206349206,0.0,-0.875,-1.1257631257631258,0.0,-0.84375,-1.5494505494505495,0.0,-0.875,-0.8766788766788767,0.0,-0.75,0.0,-0.9829059829059827,-0.71875,0.0,-1.264957264957265,-0.75,-1.492063492063492,-0.7216117216117216,-0.8125,-1.9023199023199024,-0.7728937728937729,-0.875,-2.36019536019536,-1.1709401709401708,-0.875,-1.4554334554334554,-1.4578754578754578,-0.75,-1.05006105006105,-1.115995115995116,-0.90625,-2.706959706959707,0.0,-1.0,-3.4542124542124544,0.0,-0.90625,-3.2136752136752142,0.0,-0.75,-2.814407814407814,0.0,-0.625,-3.2857142857142856,0.0,-0.5625,-3.8253968253968256,0.0,-0.53125,-3.1623931623931623,0.0,0.0,-1.8363858363858363,-1.0866910866910866,0.0,-2.511599511599512,-0.7081807081807082,0.0,0.0,0.0,0.0,0.0,0.0,0.0,0.0,0.0,0.0,0.0,0.0,0.0,0.0,0.0,0.0,0.0,0.0,0.0,0.0,0.0,0.0,0.0,0.0,0.0,0.0,0.0,0.0,0.0,0.0,0.0,0.0,0.0,0.0,0.0,0.0,0.0,0.0,0.0,0.0,0.0,0.0,0.0,0.0,0.0,0.0,0.0,0.0,0.0,0.0,0.0,0.0,0.0,0.0,0.0,0.0,0.0,0.0,0.0,0.0,0.0,0.0,0.0,0.0,0.0,0.0,0.0,moveNegX2D
40,1.485958485958486,0.0,0.0,0.5421245421245421,0.0,0.0,0.0,0.0,0.0,0.0,0.0,0.0,0.0,-0.6666666666666666,0.0,0.0,0.0,0.0,0.0,0.0,0.0,0.0,0.0,0.0,0.0,-0.6886446886446886,0.0,0.0,-0.518925518925519,0.0,0.0,0.0,0.0,0.0,0.0,-0.53125,0.0,0.0,-0.5625,0.0,0.0,-0.625,0.0,0.0,-0.625,0.0,0.0,-0.6875,0.0,0.0,-0.71875,0.0,0.0,-0.875,0.0,-0.5335775335775336,-0.90625,0.0,-0.6007326007326007,-1.0,-0.6434676434676435,0.0,-1.09375,-0.9914529914529916,0.0,-1.03125,-1.3833943833943834,0.0,-0.96875,-1.6874236874236874,0.0,-0.9375,-1.2905982905982911,0.0,-0.875,-0.8669108669108669,-0.6324786324786325,-0.90625,-1.5506715506715507,0.0,-1.0,-1.5592185592185592,0.0,-0.9375,-0.9987789987789988,-0.5665445665445665,-0.90625,-1.1721611721611722,-0.7545787545787546,-0.9375,-1.8852258852258847,-1.021978021978022,-0.96875,-1.531135531135531,-0.9389499389499392,-0.90625,-1.352869352869353,-1.021978021978022,-0.90625,-2.416361416361416,0.0,-0.9375,-3.477411477411477,0.6678876678876678,-0.9375,-3.034188034188034,0.0,-0.90625,-2.7826617826617825,-0.6959706959706959,-0.78125,-3.3943833943833943,0.0,-0.5625,-3.5274725274725283,0.0,0.0,-2.8864468864468864,0.0,0.0,-2.796092796092796,0.0,0.0,-2.399267399267399,0.0,0.0,0.0,0.0,0.0,0.0,0.0,0.0,0.0,0.0,0.0,0.0,0.0,0.0,0.0,0.0,0.0,0.0,0.0,0.0,0.0,0.0,0.0,0.0,0.0,0.0,0.0,0.0,0.0,0.0,0.0,0.0,0.0,0.0,0.0,0.0,0.0,0.0,0.0,0.0,0.0,0.0,0.0,0.0,0.0,0.0,0.0,0.0,0.0,0.0,0.0,0.0,0.0,0.0,0.0,0.0,0.0,0.0,0.0,0.0,0.0,0.0,0.0,0.0,0.0,0.0,0.0,0.0,0.0,0.0,0.0,0.0,0.0,0.0,moveNegX2D
41,0.0,0.9047619047619048,0.0,0.5225885225885226,0.0,0.0,0.5384615384615384,-0.9755799755799756,0.0,0.0,-1.3565323565323566,0.0,0.0,0.0,0.0,0.0,0.0,0.0,0.0,-0.6227106227106227,0.0,0.7216117216117216,-0.73992673992674,0.0,0.0,0.0,0.0,0.0,0.0,0.0,0.0,0.0,0.0,0.0,0.0,0.0,0.0,0.0,0.0,0.0,0.0,0.0,0.0,0.0,0.0,0.0,0.0,-0.53125,0.0,0.0,-0.5625,0.0,0.0,-0.6875,0.0,0.0,-0.6875,0.0,-0.5409035409035409,-0.71875,0.0,-0.6446886446886447,-0.78125,0.0,-0.5384615384615384,-0.8125,-0.8290598290598291,-0.557997557997558,-0.8125,-1.4456654456654456,0.0,-0.75,-1.10989010989011,0.0,-0.71875,-1.0769230769230769,0.0,-0.8125,-0.6825396825396826,-1.133089133089133,-0.90625,0.0,-0.9829059829059827,-0.90625,-0.9035409035409036,-0.7216117216117216,-1.03125,-1.5970695970695972,0.0,-1.0625,-1.0268620268620268,-0.5873015873015873,-1.03125,-1.2673992673992671,-1.0903540903540905,-0.90625,-2.148962148962149,-0.5396825396825397,-0.8125,-2.4004884004884004,0.0,-0.78125,-1.9291819291819288,-0.514041514041514,-0.78125,-1.7387057387057387,-0.7826617826617827,-0.84375,-0.6984126984126984,-0.8937728937728938,-0.84375,-1.6666666666666667,0.0,-0.96875,-2.645909645909646,0.0,-0.96875,-2.727716727716728,0.0,-0.90625,-2.452991452991453,-0.6349206349206349,-0.71875,-2.5409035409035408,-0.8925518925518926,-0.59375,-3.1868131868131866,0.0,-0.625,-3.05006105006105,0.0,-0.65625,-3.007326007326008,0.0,-0.53125,-3.4810744810744816,0.0,0.0,0.0,0.0,0.0,0.0,0.0,0.0,0.0,0.0,0.0,0.0,0.0,0.0,0.0,0.0,0.0,0.0,0.0,0.0,0.0,0.0,0.0,0.0,0.0,0.0,0.0,0.0,0.0,0.0,0.0,0.0,0.0,0.0,0.0,0.0,0.0,0.0,0.0,0.0,0.0,0.0,0.0,0.0,0.0,0.0,0.0,0.0,0.0,0.0,0.0,0.0,0.0,0.0,0.0,0.0,0.0,0.0,0.0,0.0,0.0,0.0,moveNegX2D
42,0.989010989010989,0.0,0.0,0.5787545787545788,-0.5372405372405372,0.0,0.0,0.0,0.0,0.0,0.0,0.0,0.0,0.0,0.0,0.0,0.0,0.0,0.7130647130647131,-0.6849816849816851,0.0,0.6703296703296703,-0.6593406593406593,0.0,0.0,0.0,0.0,0.0,0.0,0.0,0.0,0.0,-0.53125,0.0,0.0,0.0,0.0,0.0,0.0,0.0,0.0,0.0,0.0,-0.5042735042735043,-0.5625,0.0,-0.8095238095238095,-0.6875,0.0,0.0,-0.71875,0.0,0.0,-0.65625,0.0,0.0,-0.6875,0.0,-0.6874236874236874,-0.8125,-0.8742368742368742,-0.6507936507936508,-0.9375,-1.4285714285714286,0.0,-0.875,-1.021978021978022,0.0,-0.84375,-0.8058608058608059,0.0,-0.8125,-1.1294261294261294,0.0,-0.75,-0.7997557997557998,-0.8644688644688645,-0.78125,-0.6544566544566545,-1.1746031746031746,-0.875,-1.0634920634920637,-0.6190476190476191,-0.96875,-1.4517704517704515,0.0,-0.96875,-1.2344322344322345,-0.6642246642246642,-1.0,-1.3223443223443223,-0.5811965811965812,-1.0,-1.8229548229548236,0.0,-0.875,-1.264957264957265,0.0,-0.8125,-1.3040293040293038,-1.0512820512820509,-0.78125,-0.9597069597069596,-0.8095238095238095,-0.84375,-1.115995115995116,-0.7728937728937729,-0.8125,-1.934065934065934,-0.6813186813186813,-0.78125,-2.8107448107448105,0.0,-0.78125,-3.0525030525030523,0.0,-0.71875,-2.673992673992674,0.0,-0.59375,-2.5079365079365084,0.0,0.0,-2.2735042735042734,-0.5018315018315018,0.0,-2.305250305250305,0.0,0.0,-2.6446886446886446,0.0,0.0,-2.452991452991453,-0.6227106227106227,0.0,-1.8583638583638584,-0.7460317460317459,0.0,0.0,0.0,0.0,0.0,0.0,0.0,0.0,0.0,0.0,0.0,0.0,0.0,0.0,0.0,0.0,0.0,0.0,0.0,0.0,0.0,0.0,0.0,0.0,0.0,0.0,0.0,0.0,0.0,0.0,0.0,0.0,0.0,0.0,0.0,0.0,0.0,0.0,0.0,0.0,0.0,0.0,0.0,0.0,0.0,0.0,0.0,0.0,0.0,0.0,0.0,0.0,0.0,0.0,0.0,0.0,0.0,0.0,0.0,0.0,0.0,moveNegX2D
43,0.6105006105006106,0.0,0.0,0.0,0.7606837606837606,0.0,0.0,0.0,0.0,0.0,0.0,0.0,0.0,-0.7887667887667887,0.0,0.0,-0.7716727716727717,0.0,0.0,-0.5091575091575091,0.0,0.0,0.0,-0.53125,0.0,0.0,0.0,0.0,0.0,0.0,0.7118437118437119,-0.7936507936507936,0.0,0.9145299145299144,-0.7838827838827839,-0.53125,0.5787545787545788,-0.6935286935286935,-0.6875,0.0,-0.6129426129426129,-0.71875,0.0,-0.6471306471306472,-0.6875,0.0,-0.9609279609279608,-0.71875,-0.6007326007326007,-0.7106227106227107,-0.8125,-0.8376068376068376,0.0,-0.84375,0.0,0.0,-0.71875,0.0,-0.9108669108669109,-0.78125,-0.6532356532356532,-0.6874236874236874,-0.875,-1.78021978021978,0.0,-0.84375,-1.4017094017094016,0.0,-0.90625,-1.3614163614163617,-0.7631257631257631,-0.9375,-1.9987789987789988,0.0,-0.84375,-1.332112332112332,0.0,-0.78125,0.0,-0.8461538461538461,-0.84375,-1.0134310134310134,-1.1013431013431014,-1.09375,-2.5164835164835164,-0.557997557997558,-1.09375,-1.844932844932845,-0.6166056166056166,-0.9375,-1.3357753357753357,-0.9584859584859584,-0.875,-1.9206349206349207,-0.5970695970695971,-0.8125,-2.435897435897436,0.0,-0.90625,-2.2515262515262515,-0.6275946275946276,-0.9375,-2.4664224664224665,-0.6764346764346765,-0.75,-3.5628815628815627,0.0,-0.65625,-4.485958485958486,0.8656898656898657,-0.53125,-3.47985347985348,0.0,0.0,-2.4932844932844933,-0.7460317460317459,0.0,0.0,0.0,0.0,0.0,0.0,0.0,0.0,0.0,0.0,0.0,0.0,0.0,0.0,0.0,0.0,0.0,0.0,0.0,0.0,0.0,0.0,0.0,0.0,0.0,0.0,0.0,0.0,0.0,0.0,0.0,0.0,0.0,0.0,0.0,0.0,0.0,0.0,0.0,0.0,0.0,0.0,0.0,0.0,0.0,0.0,0.0,0.0,0.0,0.0,0.0,0.0,0.0,0.0,0.0,0.0,0.0,0.0,0.0,0.0,0.0,0.0,0.0,0.0,0.0,0.0,0.0,0.0,0.0,0.0,0.0,0.0,0.0,0.0,0.0,0.0,0.0,0.0,0.0,0.0,0.0,0.0,moveNegX2D
44,1.1282051282051282,-0.7203907203907204,0.0,1.391941391941392,-0.9328449328449328,0.0,0.5836385836385837,0.0,0.0,0.0,0.0,0.0,0.0,0.0,0.0,0.0,0.0,0.0,0.0,0.0,0.0,0.0,0.0,0.0,0.6532356532356532,0.0,0.0,0.5860805860805861,-0.5128205128205128,0.0,0.0,-0.503052503052503,-0.65625,-0.5006105006105006,0.0,-0.75,0.0,0.0,-0.625,0.6056166056166056,-0.6703296703296703,-0.625,0.0,-0.7362637362637363,-0.71875,-0.6312576312576312,0.0,-0.875,-0.6239316239316239,0.0,-0.90625,0.0,0.0,-0.84375,0.0,-0.8009768009768009,-0.84375,0.0,-0.7814407814407814,-0.84375,0.0,-0.5641025641025641,-1.03125,0.0,-0.8058608058608059,-1.0625,-0.818070818070818,-0.8803418803418803,-0.9375,0.0,-0.536019536019536,-0.96875,0.0,-0.7472527472527473,-1.0625,0.0,-0.9865689865689866,-1.03125,-1.5030525030525033,0.0,-1.125,-1.9010989010989008,0.0,-1.09375,-1.492063492063492,0.0,-1.0625,-1.6202686202686205,0.0,-1.0,-1.8669108669108667,0.0,-1.0,-1.6019536019536018,-0.6129426129426129,-0.9375,-1.884004884004884,0.0,-0.90625,-2.4786324786324787,0.0,-0.84375,-2.935286935286935,0.0,-0.875,-3.7387057387057374,0.0,-0.84375,-3.8595848595848596,-0.5604395604395604,-0.6875,-3.467643467643468,0.0,-0.5625,-2.91941391941392,0.0,-0.53125,-2.9059829059829063,0.0,0.0,-3.2881562881562885,0.0,0.0,0.0,0.0,0.0,0.0,0.0,0.0,0.0,0.0,0.0,0.0,0.0,0.0,0.0,0.0,0.0,0.0,0.0,0.0,0.0,0.0,0.0,0.0,0.0,0.0,0.0,0.0,0.0,0.0,0.0,0.0,0.0,0.0,0.0,0.0,0.0,0.0,0.0,0.0,0.0,0.0,0.0,0.0,0.0,0.0,0.0,0.0,0.0,0.0,0.0,0.0,0.0,0.0,0.0,0.0,0.0,0.0,0.0,0.0,0.0,0.0,0.0,0.0,0.0,0.0,0.0,0.0,0.0,0.0,0.0,0.0,0.0,0.0,0.0,0.0,0.0,moveNegX2D
45,0.5873015873015873,0.0,0.0,0.8547008547008547,-0.5323565323565324,0.0,0.0,0.0,0.0,0.0,0.0,0.0,0.0,0.0,0.0,0.0,0.0,0.0,0.0,0.0,0.0,0.0,0.0,0.0,0.0,0.0,0.0,0.0,0.0,0.0,0.0,0.0,0.0,0.0,0.0,0.0,0.5567765567765568,0.0,0.0,0.0,0.0,-0.59375,0.0,0.0,-0.71875,0.0,0.0,-0.78125,0.0,0.0,-0.6875,0.0,0.0,-0.65625,0.0,0.0,-0.71875,-0.5836385836385837,0.0,-0.75,-0.6312576312576312,0.0,-0.8125,0.0,0.0,-0.6875,0.0,0.0,-0.65625,-0.6984126984126984,-0.5592185592185592,-0.75,-0.9853479853479854,0.0,-0.84375,-0.5018315018315018,-0.6202686202686203,-0.90625,0.0,-0.6923076923076923,-0.78125,-0.9987789987789988,-0.6190476190476191,-0.8125,-1.5494505494505495,-0.5213675213675214,-0.96875,-1.4676434676434675,-0.6825396825396826,-0.84375,-0.7887667887667887,-1.0512820512820509,-0.71875,-1.4481074481074483,0.0,-0.84375,-1.894993894993895,-0.5457875457875457,-0.90625,-1.9145299145299144,0.0,-0.78125,-1.4884004884004884,-0.9169719169719168,-0.84375,-1.5494505494505495,0.0,-0.84375,-1.8302808302808304,0.0,-0.84375,-2.8021978021978016,0.0,-0.8125,-3.2124542124542126,0.0,-0.6875,-2.449328449328449,-0.6800976800976801,-0.5625,-1.884004884004884,0.0,0.0,-2.6312576312576312,0.0,0.0,-3.468864468864469,0.0,-0.59375,-3.3650793650793656,0.0,0.0,-3.0830280830280827,0.0,0.0,-3.3076923076923075,0.0,0.0,-2.8693528693528694,0.0,0.0,-2.412698412698413,0.0,0.0,0.0,0.0,0.0,0.0,0.0,0.0,0.0,0.0,0.0,0.0,0.0,0.0,0.0,0.0,0.0,0.0,0.0,0.0,0.0,0.0,0.0,0.0,0.0,0.0,0.0,0.0,0.0,0.0,0.0,0.0,0.0,0.0,0.0,0.0,0.0,0.0,0.0,0.0,0.0,0.0,0.0,0.0,0.0,0.0,0.0,0.0,0.0,0.0,0.0,0.0,0.0,0.0,0.0,0.0,moveNegX2D
46,0.0,0.0,0.0,0.0,-0.7387057387057387,0.0,0.5213675213675214,-1.1233211233211229,0.0,0.9206349206349206,-1.0561660561660562,0.0,0.5518925518925519,0.0,0.0,0.0,0.0,0.0,0.0,0.0,0.0,0.0,0.0,0.0,0.0,0.0,0.0,0.0,0.0,0.0,0.7753357753357754,0.0,0.0,0.9658119658119658,-0.6935286935286935,0.0,0.0,0.0,-0.84375,-0.5067155067155067,0.0,-0.875,0.0,0.0,-0.71875,0.0,-0.6813186813186813,-0.84375,0.0,-0.5006105006105006,-1.03125,-1.1526251526251523,-0.5274725274725275,-1.15625,-1.5164835164835164,0.0,-0.96875,-0.8217338217338217,-0.7496947496947497,-0.96875,-0.5409035409035409,-0.8241758241758241,-1.0,-1.434676434676435,-0.6166056166056166,-1.03125,-1.8510378510378511,0.0,-0.8125,-0.9597069597069596,-1.0683760683760684,-0.84375,-1.5738705738705738,-1.0854700854700854,-1.09375,-2.5970695970695967,-0.9133089133089132,-1.0,-2.4249084249084247,-0.8534798534798534,-0.84375,-1.2551892551892552,-1.0866910866910866,-0.8125,-2.0305250305250304,-0.6459096459096461,-0.90625,-3.4505494505494507,0.0,-0.75,-3.2710622710622714,0.0,-0.78125,-3.1746031746031744,0.0,-0.6875,-2.380952380952381,-0.5775335775335775,0.0,-1.4004884004884004,-0.8192918192918193,-0.59375,-2.1623931623931623,-0.5311355311355311,-0.71875,-3.073260073260073,-0.5921855921855922,-0.71875,-3.061050061050061,-0.7338217338217338,-0.59375,-3.68009768009768,0.0,0.0,-3.854700854700855,0.0,0.0,-3.0195360195360195,0.0,0.0,0.0,0.0,0.0,0.0,0.0,0.0,0.0,0.0,0.0,0.0,0.0,0.0,0.0,0.0,0.0,0.0,0.0,0.0,0.0,0.0,0.0,0.0,0.0,0.0,0.0,0.0,0.0,0.0,0.0,0.0,0.0,0.0,0.0,0.0,0.0,0.0,0.0,0.0,0.0,0.0,0.0,0.0,0.0,0.0,0.0,0.0,0.0,0.0,0.0,0.0,0.0,0.0,0.0,0.0,0.0,0.0,0.0,0.0,0.0,0.0,0.0,0.0,0.0,0.0,0.0,0.0,0.0,0.0,0.0,0.0,0.0,0.0,0.0,0.0,0.0,0.0,0.0,0.0,moveNegX2D
47,0.0,0.0,0.0,0.0,0.0,0.0,0.0,-0.7264957264957265,0.0,0.0,-0.9267399267399268,0.0,0.0,0.0,0.0,0.0,0.0,0.0,0.0,0.0,0.0,0.0,0.0,0.0,0.7777777777777778,-0.8986568986568987,0.0,0.6935286935286935,-0.8009768009768009,0.0,0.0,0.0,0.0,0.0,0.0,0.0,0.0,0.0,-0.5625,0.0,0.0,-0.5625,0.0,0.0,-0.6875,0.0,0.0,-0.75,0.0,0.0,-0.71875,0.0,-0.5726495726495726,-0.65625,0.0,-0.8681318681318682,-0.65625,0.0,0.0,-0.875,-1.6837606837606838,0.0,-0.875,-1.3418803418803418,0.0,-0.75,-0.9792429792429792,0.0,-0.96875,-1.010989010989011,0.0,-0.96875,-0.8290598290598291,-0.6959706959706959,-0.875,-1.0805860805860803,-0.6837606837606838,-0.9375,-1.6886446886446886,0.0,-0.96875,-2.1587301587301586,0.0,-0.90625,-1.5604395604395604,-0.5103785103785103,-0.71875,-0.7191697191697192,-1.1367521367521367,-0.6875,-1.824175824175824,-0.8241758241758241,-0.78125,-4.406593406593408,0.525030525030525,-0.8125,-3.7191697191697193,1.434676434676435,-0.65625,-1.2893772893772897,0.0,-0.625,-0.6959706959706959,-1.1452991452991452,-0.625,-1.623931623931624,-1.3333333333333333,-0.78125,-2.207570207570208,-0.8925518925518926,-0.875,-1.8901098901098896,-1.1965811965811963,-0.625,-2.608058608058608,-1.485958485958486,-0.65625,-3.13064713064713,-0.7814407814407814,-0.53125,-1.9645909645909645,-0.6691086691086691,0.0,-1.7448107448107448,-0.9133089133089132,0.0,-2.352869352869353,-0.8864468864468864,0.0,-2.7081807081807083,0.0,0.0,0.0,0.0,0.0,0.0,0.0,0.0,0.0,0.0,0.0,0.0,0.0,0.0,0.0,0.0,0.0,0.0,0.0,0.0,0.0,0.0,0.0,0.0,0.0,0.0,0.0,0.0,0.0,0.0,0.0,0.0,0.0,0.0,0.0,0.0,0.0,0.0,0.0,0.0,0.0,0.0,0.0,0.0,0.0,0.0,0.0,0.0,0.0,0.0,0.0,0.0,0.0,0.0,0.0,0.0,0.0,0.0,0.0,0.0,0.0,0.0,0.0,0.0,0.0,0.0,0.0,0.0,moveNegX2D
48,0.0,0.0,0.0,0.0,-0.5384615384615384,0.0,0.0,0.0,0.0,0.0,0.0,0.0,0.0,0.0,0.0,0.0,0.0,0.0,0.0,0.0,0.0,0.0,-0.6019536019536019,0.0,0.9548229548229548,-0.6715506715506715,0.0,1.105006105006105,-0.6263736263736264,0.0,0.8156288156288156,0.0,0.0,0.0,0.0,0.0,0.0,0.0,-0.5625,0.0,0.0,-0.53125,0.0,0.0,-0.59375,0.0,-0.6642246642246642,-0.65625,0.0,0.0,-0.71875,0.0,0.0,-0.8125,-0.6117216117216118,0.0,-0.875,0.0,-0.7362637362637363,-0.9375,-0.7252747252747253,0.0,-0.9375,-1.0634920634920637,0.0,-0.90625,-1.4065934065934067,0.0,-0.9375,-1.083028083028083,-0.5909645909645911,-0.84375,-1.2283272283272284,-0.6288156288156288,-0.84375,-1.7191697191697193,-0.6654456654456654,-0.9375,-1.0451770451770452,-0.8095238095238095,-0.875,0.0,-1.2686202686202686,-0.84375,-2.131868131868132,0.0,-0.9375,-2.71916971916972,0.0,-0.8125,-1.706959706959707,0.0,-0.75,-2.012210012210012,-0.6141636141636142,-0.71875,-1.2148962148962148,-1.1538461538461535,-0.5625,0.0,-1.0512820512820509,-0.5625,0.0,0.0,-0.59375,-1.7851037851037852,0.0,-0.5625,-1.7716727716727716,-1.1001221001221002,0.0,-1.0293040293040292,-1.6813186813186811,-0.65625,-1.6874236874236874,-0.8107448107448108,-0.71875,-1.7777777777777777,0.0,-0.59375,-1.31990231990232,0.0,-0.65625,-1.875457875457876,0.0,-0.6875,-2.761904761904762,0.0,-0.625,-2.5824175824175826,0.0,0.0,-2.9670329670329667,0.0,0.0,-3.173382173382173,0.0,0.0,-2.2356532356532357,0.0,0.0,0.0,0.0,0.0,0.0,0.0,0.0,0.0,0.0,0.0,0.0,0.0,0.0,0.0,0.0,0.0,0.0,0.0,0.0,0.0,0.0,0.0,0.0,0.0,0.0,0.0,0.0,0.0,0.0,0.0,0.0,0.0,0.0,0.0,0.0,0.0,0.0,0.0,0.0,0.0,0.0,0.0,0.0,0.0,0.0,0.0,0.0,0.0,0.0,0.0,0.0,0.0,0.0,0.0,0.0,0.0,0.0,0.0,moveNegX2D
49,0.6849816849816851,0.0,0.0,0.9255189255189256,-0.9426129426129426,0.0,0.0,-0.6288156288156288,0.0,0.0,0.0,0.0,0.0,0.0,0.0,0.0,0.0,0.0,0.0,0.0,0.0,0.0,0.0,0.0,0.0,0.0,0.0,0.0,0.0,0.0,0.0,0.0,0.0,0.7509157509157509,-0.6263736263736264,0.0,0.5641025641025641,0.0,-0.625,0.0,0.0,-0.71875,0.0,0.0,-0.75,0.0,-0.6739926739926739,-0.6875,0.5726495726495726,-1.1306471306471306,-0.84375,0.0,0.0,-0.96875,-0.6935286935286935,0.0,-0.9375,0.0,0.0,-0.875,0.0,-0.8632478632478633,-0.9375,0.0,-0.8449328449328449,-1.125,-0.6959706959706959,0.0,-1.03125,-0.8925518925518926,-0.8852258852258852,-1.0,-0.7545787545787546,-0.7716727716727717,-1.0,-0.63003663003663,-0.6422466422466423,-1.0625,-0.7655677655677655,-0.73992673992674,-1.0,-2.765567765567765,0.0,-1.03125,-3.4590964590964592,0.0,-0.90625,-2.399267399267399,0.0,-0.78125,-1.0134310134310134,0.0,-0.71875,0.0,-1.3040293040293038,-0.75,0.0,-1.2539682539682542,-0.78125,-0.8778998778998779,-0.7802197802197802,-0.90625,-1.3724053724053724,-0.6471306471306472,-1.0625,-1.043956043956044,-0.9328449328449328,-1.125,-1.8290598290598288,-0.7838827838827839,-1.09375,-2.503052503052503,0.0,-1.03125,-2.8058608058608057,0.0,-1.0,-2.937728937728938,-1.1465201465201464,-0.84375,-4.38949938949939,-1.2014652014652014,-0.875,-4.781440781440781,-0.7838827838827839,-0.78125,-3.9145299145299135,-0.778998778998779,-0.65625,-4.263736263736264,0.0,0.0,-4.557997557997559,0.0,0.0,-4.170940170940171,0.0,0.0,0.0,0.0,0.0,0.0,0.0,0.0,0.0,0.0,0.0,0.0,0.0,0.0,0.0,0.0,0.0,0.0,0.0,0.0,0.0,0.0,0.0,0.0,0.0,0.0,0.0,0.0,0.0,0.0,0.0,0.0,0.0,0.0,0.0,0.0,0.0,0.0,0.0,0.0,0.0,0.0,0.0,0.0,0.0,0.0,0.0,0.0,0.0,0.0,0.0,0.0,0.0,0.0,0.0,0.0,0.0,0.0,0.0,0.0,0.0,0.0,moveNegX2D
0,0.0,-0.5128205128205128,0.0,0.0,0.0,0.0,0.0,0.0,0.0,0.0,0.0,0.0,0.0,0.5457875457875457,0.0,-0.7264957264957265,0.0,0.0,0.0,0.0,0.0,-1.2393162393162394,0.0,0.0,-0.8901098901098901,0.0,0.0,-0.7289377289377289,0.0,0.0,-0.5506715506715507,0.0,0.0,-0.6764346764346765,0.0,0.0,0.0,-0.5482295482295483,0.0,0.0,-0.6410256410256411,0.0,-0.6031746031746031,0.0,0.0,-1.15018315018315,0.0,0.0,-1.3614163614163617,0.0,0.0,-1.8620268620268616,-0.7985347985347986,0.0,-1.9572649572649568,-0.6581196581196581,0.0,-1.8937728937728937,0.0,0.65625,-1.5115995115995116,0.0,0.78125,-0.978021978021978,-0.8168498168498168,0.8125,-0.8070818070818071,-1.021978021978022,0.875,0.0,-1.0451770451770452,0.96875,0.0,-1.0183150183150182,1.0,0.0,-0.8901098901098901,0.9375,0.0,-1.037851037851038,0.8125,0.0,-1.0122100122100122,0.78125,0.0,-0.5995115995115995,0.96875,0.0,-0.7936507936507936,0.96875,0.0,-0.9841269841269841,0.75,0.0,-0.7814407814407814,0.5625,0.7545787545787546,0.0,0.0,0.5274725274725275,0.0,1.3125,1.3492063492063493,-0.7680097680097681,1.3125,1.1526251526251523,-0.6422466422466423,1.09375,1.2136752136752136,0.0,0.9375,1.1733821733821734,0.0,0.8125,1.2588522588522588,0.0,0.90625,0.8998778998778999,0.0,0.90625,1.4102564102564104,-0.5152625152625152,1.09375,1.6837606837606838,-0.8937728937728938,1.09375,1.9059829059829057,-0.6263736263736264,1.15625,1.757020757020757,0.0,0.96875,1.9242979242979243,0.0,0.84375,1.6715506715506716,0.0,0.65625,1.6398046398046398,0.0,0.625,1.656898656898657,0.0,0.53125,1.7032967032967032,0.0,0.0,1.2063492063492065,0.0,0.0,1.083028083028083,0.0,0.0,1.4175824175824177,0.0,0.0,1.028083028083028,-0.7411477411477412,0.0,0.0,0.0,0.0,1.3797313797313795,0.0,0.0,0.5543345543345544,0.0,0.0,0.0,0.0,0.0,0.0,-0.6324786324786325,0.0,0.0,0.0,0.0,0.0,0.0,0.0,0.0,0.0,0.0,-0.5555555555555556,0.0,0.0,0.0,0.0,0.0,0.0,0.0,0.0,0.0,0.0,0.0,1.2148962148962148,-0.6239316239316239,0.0,movePosX2D
1,0.0,0.0,0.0,0.0,0.0,0.0,0.0,0.0,0.0,0.0,0.0,0.0,-0.5836385836385837,0.0,0.0,-0.9768009768009768,0.0,0.0,-1.0866910866910866,0.0,0.0,-1.1562881562881564,0.0,0.0,-1.9987789987789988,0.0,0.0,-2.21978021978022,0.0,0.0,-2.32967032967033,0.0,0.0,-2.3553113553113554,0.0,0.0,-2.2063492063492065,0.0,0.0,-2.245421245421245,-0.5201465201465202,0.0,-1.9108669108669107,-0.7020757020757019,0.0,-1.3894993894993894,-1.2503052503052503,0.71875,-1.1391941391941391,-1.3785103785103785,0.875,-0.5067155067155067,-1.8888888888888888,0.84375,0.0,-1.825396825396825,0.65625,0.0,-1.424908424908425,0.71875,0.0,-1.336996336996337,1.0,0.0,-0.8669108669108669,1.09375,0.0,-0.5653235653235653,1.0625,0.0,0.0,0.8125,0.0,0.0,0.71875,0.0,0.0,1.0,0.0,0.0,1.09375,0.0,0.0,1.03125,0.0,0.0,0.9375,0.0,0.0,0.8125,0.0,0.0,0.6875,0.0,0.0,0.71875,0.8534798534798534,-0.706959706959707,1.03125,0.8095238095238095,0.0,0.96875,0.0,0.0,0.84375,0.6715506715506715,-0.6275946275946276,0.625,0.8656898656898657,-0.5372405372405372,0.6875,0.7948717948717948,-0.5946275946275946,0.84375,0.6166056166056166,-0.6153846153846154,0.875,0.8754578754578755,-0.9853479853479854,0.8125,0.7045177045177046,-0.8766788766788767,0.84375,0.8778998778998779,-0.7045177045177046,0.9375,1.6019536019536018,0.0,1.0625,1.7435897435897436,-0.5567765567765568,1.03125,1.4774114774114775,-0.9792429792429792,0.84375,0.9438339438339438,0.0,0.6875,1.192918192918193,0.0,0.65625,1.347985347985348,0.0,0.59375,1.1782661782661783,0.0,0.0,1.1489621489621489,0.0,0.0,1.0366300366300367,0.0,0.0,0.557997557997558,0.0,0.0,0.0,0.0,0.0,0.0,0.0,0.0,0.0,0.0,0.0,-0.5543345543345544,0.0,0.0,0.0,0.0,0.0,0.0,0.0,0.0,0.0,0.0,0.0,0.0,0.0,0.0,0.0,0.0,0.0,0.0,0.0,0.0,0.0,0.0,0.0,0.0,0.0,0.0,0.0,0.0,0.0,0.0,0.0,0.0,movePosX2D
2,0.0,0.0,0.0,0.0,0.0,0.0,0.0,0.0,0.0,0.0,0.0,0.0,-0.7460317460317459,0.0,0.0,-0.8449328449328449,0.0,0.0,-1.3943833943833943,0.0,0.0,-1.6666666666666667,0.0,0.0,-1.9352869352869355,0.0,0.0,-2.056166056166056,0.0,0.0,-2.3956043956043955,0.0,0.0,-2.122100122100122,0.0,0.0,-1.84004884004884,0.0,0.0,-1.3137973137973138,0.0,0.5625,-1.1587301587301588,-0.6886446886446886,0.0,-0.873015873015873,-0.7887667887667887,0.5625,0.0,-0.8046398046398047,0.59375,0.0,-0.8266178266178266,0.78125,-0.5726495726495726,-0.706959706959707,0.78125,0.0,-0.8266178266178266,0.875,0.0,-0.7277167277167277,0.71875,0.0,-0.7802197802197802,0.90625,0.7032967032967034,-0.7533577533577533,0.96875,0.7081807081807082,-0.5286935286935287,1.0,0.7863247863247863,0.0,0.90625,1.126984126984127,0.0,0.6875,0.873015873015873,0.0,0.5625,0.63003663003663,-0.5152625152625152,0.625,0.6593406593406593,0.0,0.65625,0.6031746031746031,0.0,0.75,0.0,0.0,0.9375,0.0,0.0,1.03125,1.1343101343101345,-0.7924297924297924,1.15625,2.034188034188034,-1.3748473748473748,1.1875,1.8913308913308915,-1.2698412698412698,1.15625,1.5189255189255189,-1.0952380952380951,1.0625,1.3992673992673992,-0.8717948717948718,0.9375,1.083028083028083,0.0,0.90625,0.9755799755799756,0.0,0.96875,0.7594627594627594,0.0,0.90625,0.0,0.0,0.90625,0.0,-0.6703296703296703,0.8125,0.5335775335775336,0.0,0.8125,1.2942612942612943,0.0,0.90625,1.492063492063492,-0.5775335775335775,0.84375,1.8937728937728937,0.0,0.75,2.142857142857143,0.0,0.65625,1.8693528693528687,0.0,0.0,1.5787545787545787,0.0,0.0,1.3846153846153846,0.0,0.0,1.065934065934066,0.0,0.0,0.8388278388278388,0.0,0.0,0.9413919413919414,0.0,0.0,0.6996336996336996,0.0,0.0,0.0,0.0,0.0,0.0,0.0,0.0,0.0,0.0,0.0,0.0,0.0,0.0,0.0,0.0,0.0,0.0,0.0,0.0,0.0,0.0,0.0,0.0,0.0,0.0,0.0,0.0,0.0,0.0,0.0,0.0,0.0,0.0,0.0,0.0,0.0,0.0,movePosX2D
3,0.0,0.0,0.0,0.0,0.0,0.0,0.0,0.0,0.0,0.0,0.0,0.0,0.0,-0.6373626373626373,0.0,0.0,0.0,0.0,-1.1465201465201464,0.0,0.0,-1.0732600732600732,0.0,0.0,-0.7557997557997558,0.0,0.0,-0.7667887667887668,0.0,0.0,-0.5396825396825397,0.0,0.0,0.0,0.0,0.0,0.0,0.0,0.53125,0.0,0.0,0.0,0.0,0.0,0.0,0.0,0.0,0.0,0.0,-0.5811965811965812,0.65625,0.0,0.0,0.5625,0.5054945054945055,0.0,0.0,0.0,0.0,0.0,0.0,0.0,0.78125,0.6703296703296703,-1.0231990231990231,0.8125,0.0,-0.6495726495726496,0.71875,0.0,0.0,0.59375,0.0,0.0,0.59375,0.0,-0.7008547008547008,0.75,0.0,-0.5421245421245421,0.75,0.0,0.0,0.6875,0.0,0.0,0.8125,0.0,0.0,1.15625,0.0,0.0,1.0625,0.0,0.0,1.03125,0.0,0.0,0.84375,0.0,0.0,0.65625,0.0,0.0,0.65625,0.8095238095238095,-0.7655677655677655,0.78125,0.7814407814407814,-0.7875457875457875,0.75,0.0,0.0,0.65625,0.0,0.0,0.5625,0.956043956043956,-0.6275946275946276,0.75,1.2844932844932846,-0.6141636141636142,0.9375,0.6507936507936508,-0.5946275946275946,0.875,1.1733821733821734,0.0,0.90625,1.7692307692307692,0.0,1.0,1.6886446886446886,-0.6446886446886447,1.0625,1.6092796092796091,0.0,1.125,2.515262515262515,-0.5054945054945055,1.09375,2.9890109890109886,0.0,0.78125,2.95970695970696,0.0,0.65625,1.5677655677655675,0.0,0.5625,0.8998778998778999,0.0,0.53125,1.2967032967032968,0.0,0.0,1.242979242979243,0.0,0.0,0.8766788766788767,0.0,0.0,1.133089133089133,0.0,0.0,0.0,0.0,0.0,0.0,0.0,0.0,0.0,0.0,0.0,0.0,0.0,0.0,0.0,0.0,0.0,0.0,0.0,0.0,0.0,0.0,0.0,0.0,0.0,0.0,0.0,0.0,0.0,0.0,0.0,0.0,0.0,0.0,0.0,movePosX2D
4,0.0,0.0,0.0,0.0,0.0,0.0,0.0,0.0,0.0,-0.6935286935286935,0.0,0.0,-0.73992673992674,-0.6605616605616605,0.0,0.0,0.0,0.0,-1.4065934065934067,0.0,0.0,-1.3040293040293038,0.0,0.0,-1.2014652014652014,0.0,0.0,-1.1684981684981686,-0.5409035409035409,0.0,-0.6971916971916972,0.0,0.0,-0.6935286935286935,0.0,0.0,-0.956043956043956,0.0,0.0,0.0,0.0,0.0,0.0,0.0,0.0,0.0,0.0,0.59375,0.0,0.0,0.71875,0.0,0.0,0.8125,0.0,0.0,0.71875,0.0,0.0,0.59375,0.0,0.0,0.0,0.0,0.0,0.8125,0.0,-0.7912087912087912,1.15625,0.7057387057387058,-1.2222222222222223,1.15625,0.7704517704517705,-0.6288156288156288,1.0,0.5433455433455433,-0.5702075702075702,0.8125,0.0,-0.7277167277167277,0.71875,1.0073260073260073,-0.7032967032967034,0.8125,1.0,-0.5958485958485958,0.6875,0.0,0.0,0.5625,0.0,0.0,0.0,0.0,0.0,0.0,0.7557997557997558,0.0,0.59375,1.2808302808302807,0.0,0.6875,1.8620268620268616,-0.7338217338217338,0.90625,3.0488400488400487,-1.9352869352869355,1.28125,3.4615384615384617,-2.094017094017094,1.25,3.340659340659341,-1.6288156288156288,1.03125,3.175824175824176,-1.0329670329670328,0.875,2.937728937728938,-0.6129426129426129,0.84375,2.15995115995116,0.0,0.84375,1.7484737484737485,-0.5238095238095238,0.78125,1.8278388278388282,0.0,0.75,1.6068376068376071,0.0,0.75,1.5274725274725274,0.0,0.75,1.9511599511599511,0.0,0.6875,1.8327228327228329,0.0,0.59375,2.095238095238096,0.0,0.59375,2.1904761904761907,0.0,0.0,2.1855921855921854,0.0,0.0,1.9975579975579976,0.0,0.0,2.275946275946276,-0.6483516483516484,0.0,0.0,0.0,0.0,0.0,0.0,0.0,0.0,0.0,0.0,0.0,0.0,0.0,0.0,0.0,0.0,0.0,0.0,0.0,0.0,0.0,0.0,0.0,0.0,0.0,0.0,0.0,0.0,0.0,0.0,0.0,0.0,0.0,0.0,0.0,0.0,0.0,0.0,0.0,0.0,0.0,0.0,0.0,movePosX2D
5,0.0,0.0,0.0,0.0,0.0,0.0,0.0,0.0,0.0,0.0,0.0,0.0,0.0,0.0,0.0,0.0,0.0,0.0,0.0,0.0,0.0,-0.7985347985347986,0.0,0.0,-0.9157509157509156,0.0,0.0,-0.6068376068376068,0.0,0.0,-0.8778998778998779,0.0,0.0,-0.5921855921855922,0.0,0.0,-0.525030525030525,0.0,0.0,0.0,0.0,0.59375,0.0,-0.6666666666666666,0.5625,0.0,-0.7594627594627594,0.5625,0.0,0.0,0.75,0.0,0.0,0.78125,0.0,0.0,0.8125,0.0,0.0,0.8125,0.0,0.0,0.875,0.0,0.0,0.9375,0.0,0.0,0.9375,0.5115995115995116,0.0,0.9375,0.7692307692307693,0.0,0.875,0.0,0.0,0.9375,0.6581196581196581,0.0,0.875,0.7130647130647131,0.0,0.65625,0.5665445665445665,0.0,0.0,0.6984126984126984,0.0,0.0,1.1391941391941391,0.0,0.53125,0.8412698412698413,0.0,0.0,0.7130647130647131,0.0,0.0,1.6813186813186811,-0.6361416361416361,0.625,1.695970695970696,-0.63003663003663,0.71875,1.5335775335775337,0.0,0.84375,1.8901098901098896,-0.5909645909645911,0.9375,2.5506715506715505,-1.2271062271062272,0.96875,2.1416361416361416,-0.6910866910866911,0.875,1.9096459096459093,0.0,0.875,1.8131868131868127,0.0,0.75,1.4468864468864469,0.0,0.75,1.592185592185592,0.0,0.84375,1.938949938949939,0.0,0.84375,1.8669108669108667,0.0,0.71875,1.9304029304029304,0.0,0.625,2.241758241758242,0.0,0.0,2.311355311355311,0.0,0.0,2.0366300366300365,0.0,0.0,2.031746031746032,0.0,0.0,0.0,0.0,0.0,0.0,0.0,0.0,0.0,0.0,0.0,0.0,0.0,0.0,0.0,0.0,0.0,0.0,0.0,0.0,0.0,0.0,0.0,0.0,0.0,0.0,0.0,0.0,0.0,0.0,0.0,0.0,0.0,0.0,0.0,0.0,0.0,0.0,0.0,0.0,0.0,0.0,0.0,0.0,0.0,0.0,0.0,0.0,0.0,0.0,movePosX2D
6,0.0,0.0,0.0,0.0,0.0,0.0,0.0,0.0,0.0,-0.5677655677655677,0.0,0.0,0.0,0.0,0.0,0.0,0.0,0.0,0.0,0.0,0.0,0.0,0.0,0.0,-0.5995115995115995,0.0,0.0,-0.7338217338217338,0.0,0.0,-0.7655677655677655,0.0,0.0,-0.8424908424908425,0.0,0.0,-0.6776556776556777,0.0,0.0,0.0,0.0,0.0,0.0,0.0,0.0,0.0,-0.6336996336996337,0.5625,0.0,0.0,0.59375,0.0,0.0,0.59375,0.0,0.0,0.0,0.0,0.0,0.65625,0.0,0.0,0.84375,0.0,0.0,0.84375,0.0,0.0,0.78125,0.0,0.0,0.5625,0.0,0.0,0.5625,0.0,0.0,0.78125,0.0,0.0,0.8125,0.0,0.0,0.71875,0.6874236874236874,-0.5518925518925519,0.59375,0.956043956043956,-0.6605616605616605,0.5625,0.989010989010989,-0.6227106227106227,0.59375,0.8693528693528694,-0.6837606837606838,0.5625,0.0,0.0,0.0,0.5494505494505495,0.0,0.0,1.5946275946275947,0.0,0.0,2.326007326007326,-0.6727716727716728,0.5625,1.8351648351648349,0.0,0.6875,1.175824175824176,0.0,0.8125,1.1562881562881564,0.0,0.84375,0.5946275946275946,0.0,0.78125,0.5128205128205128,0.0,0.9375,0.7509157509157509,0.0,1.09375,0.6642246642246642,-0.5384615384615384,1.0625,0.0,0.0,1.0,0.6715506715506715,0.0,1.0,0.9438339438339438,0.0,1.03125,1.514041514041514,-0.5543345543345544,1.0625,1.4810744810744811,-0.6434676434676435,0.90625,1.4822954822954824,0.0,0.71875,1.6483516483516485,0.0,0.5625,1.4945054945054943,0.0,0.0,1.5262515262515262,0.0,0.0,1.3003663003663004,0.0,0.0,1.1184371184371185,0.0,0.0,1.0305250305250304,0.0,0.0,1.0671550671550671,0.0,0.0,1.1978021978021978,0.0,0.0,0.0,0.0,0.0,0.0,0.0,0.0,0.0,0.0,0.0,0.0,0.0,0.0,0.0,0.0,0.0,0.0,0.0,0.0,0.0,0.0,0.0,0.0,0.0,0.0,0.0,0.0,0.0,movePosX2D
7,0.0,0.0,0.0,0.0,-0.5726495726495726,0.0,0.0,-0.5152625152625152,0.0,0.0,0.0,0.0,0.0,0.0,0.0,0.0,0.0,0.0,-0.6544566544566545,0.0,0.0,-0.663003663003663,0.0,0.0,-0.6275946275946276,0.0,0.0,0.0,0.0,0.0,0.0,0.0,0.0,0.0,0.0,0.0,0.0,0.0,0.0,0.0,0.0,0.0,0.0,0.0,0.59375,0.0,0.0,0.59375,0.0,0.0,0.59375,0.0,0.5225885225885226,0.0,-0.5982905982905983,0.7277167277167277,0.5625,0.0,0.0,0.96875,0.5702075702075702,0.0,0.96875,0.7802197802197802,-0.7753357753357754,0.96875,0.7484737484737485,-0.8424908424908425,0.78125,0.0,0.0,0.53125,0.0,0.0,0.0,0.0,0.0,0.53125,0.0,-0.5079365079365079,0.0,0.0,0.0,0.0,-0.7973137973137974,0.0,0.59375,-0.568986568986569,0.0,0.71875,0.7619047619047619,-0.8644688644688645,0.9375,1.884004884004884,-1.6507936507936507,1.09375,2.417582417582417,-1.6336996336996337,1.09375,2.227106227106227,-1.2307692307692308,1.03125,2.5763125763125765,-1.1306471306471306,1.0625,3.3272283272283274,-1.21001221001221,1.125,3.091575091575092,-1.0598290598290598,1.0,2.8754578754578755,-0.7448107448107448,0.96875,2.793650793650793,0.0,0.96875,2.656898656898657,0.0,1.03125,2.8998778998779,-0.5445665445665445,1.0,2.5396825396825395,-0.7545787545787546,0.71875,2.3736263736263736,-0.5848595848595849,0.53125,2.728937728937729,0.0,0.0,2.2796092796092795,0.0,0.0,1.6776556776556777,0.0,0.0,1.380952380952381,0.0,0.0,1.0671550671550671,0.0,0.0,1.2344322344322345,0.0,0.0,0.0,0.0,0.0,0.0,0.0,0.0,0.0,0.0,0.0,0.0,0.0,0.0,0.0,0.0,0.0,0.0,0.0,0.0,0.0,0.0,0.0,0.0,0.0,0.0,0.0,0.0,0.0,0.0,0.0,0.0,0.0,0.0,0.0,0.0,0.0,0.0,0.0,0.0,0.0,0.0,0.0,0.0,0.0,0.0,0.0,0.0,0.0,0.0,0.0,0.0,0.0,movePosX2D
8,0.0,0.0,0.0,0.0,-0.6385836385836385,0.0,0.0,0.0,0.0,0.0,0.0,0.0,0.0,0.0,0.0,0.0,-0.5897435897435898,0.0,0.0,-0.5714285714285714,0.0,-0.6959706959706959,0.0,0.0,-1.0879120879120878,0.0,0.0,-0.63003663003663,0.0,0.0,-0.6849816849816851,0.0,0.0,-0.5995115995115995,0.0,0.0,0.0,0.0,0.0,0.0,0.0,0.625,0.0,0.0,0.71875,0.0,0.0,0.71875,0.0,0.0,0.59375,0.0,0.0,0.53125,0.0,0.0,0.6875,0.0,0.0,0.71875,0.0,0.0,0.6875,0.0,0.0,0.6875,0.0,0.0,0.9375,0.6105006105006106,-0.5372405372405372,1.03125,0.6336996336996337,-0.7057387057387058,1.0,0.0,-0.6678876678876678,0.78125,0.0,0.0,0.625,0.0,0.0,0.75,0.7326007326007326,-0.7435897435897436,0.90625,1.6544566544566544,-1.286935286935287,1.1875,1.7008547008547008,-1.6984126984126984,1.125,0.7680097680097681,-1.1538461538461535,0.875,0.6178266178266179,0.0,0.875,0.0,0.0,0.78125,0.0,0.0,0.6875,0.0,0.0,0.625,0.0,0.0,0.0,0.0,0.0,0.5625,0.8571428571428571,-1.0134310134310134,0.6875,2.035409035409036,-1.4578754578754578,0.75,2.1172161172161172,-1.338217338217338,0.6875,1.3394383394383391,-0.7240537240537241,0.6875,1.271062271062271,0.0,0.78125,2.3626373626373627,-0.9377289377289376,0.84375,2.358974358974359,-0.8840048840048841,0.75,1.956043956043956,-1.0097680097680095,0.625,1.565323565323565,-0.5433455433455433,0.53125,1.7472527472527473,0.0,0.5625,2.2466422466422467,0.0,0.53125,2.2051282051282053,0.0,0.0,1.6031746031746033,0.0,0.0,1.072039072039072,0.0,0.0,1.0293040293040292,0.0,0.0,0.6471306471306472,0.0,0.0,0.6593406593406593,-0.5457875457875457,0.0,0.0,0.0,0.0,0.0,0.0,0.0,0.0,0.0,0.0,0.0,0.0,0.0,0.0,0.0,0.0,0.0,0.0,0.0,0.0,0.0,0.0,0.0,0.0,0.0,0.0,0.0,0.0,0.0,0.0,0.0,0.0,0.0,0.0,movePosX2D
9,0.0,-0.5006105006105006,0.0,-0.568986568986569,0.0,0.0,0.0,0.0,0.0,-0.7680097680097681,0.0,0.0,-0.5177045177045178,0.0,0.0,-0.5775335775335775,0.0,0.0,-1.0390720390720392,0.0,0.0,-1.0940170940170941,0.0,0.0,-0.9877899877899878,0.0,0.0,-0.5897435897435898,0.0,0.0,-0.9487179487179488,0.0,0.0,-1.3504273504273503,0.0,0.0,-1.0854700854700854,0.0,0.0,-0.7753357753357754,0.0,0.53125,0.0,-0.5616605616605617,0.5625,0.0,-0.7557997557997558,0.0,0.0,-0.8168498168498168,0.90625,0.6043956043956044,-1.3162393162393162,1.03125,0.8791208791208791,-1.0695970695970696,1.0625,1.061050061050061,-1.0488400488400489,0.90625,0.6556776556776557,-0.6080586080586079,0.65625,0.6898656898656899,0.0,0.8125,1.3040293040293038,-0.818070818070818,1.1875,1.1233211233211229,-0.6031746031746031,1.25,0.9694749694749696,-0.5103785103785103,1.15625,0.8107448107448108,0.0,1.03125,0.7667887667887668,0.0,0.96875,0.0,0.0,1.03125,0.0,0.0,0.90625,0.0,0.0,0.8125,0.9352869352869352,-0.7997557997557998,0.625,0.9426129426129426,-0.6556776556776557,0.625,0.6874236874236874,-0.6361416361416361,0.59375,0.0,0.0,0.0,0.0,0.0,0.0,0.8424908424908425,-0.5811965811965812,0.0,1.3284493284493284,-0.5982905982905983,0.0,0.8253968253968254,0.0,0.0,0.5372405372405372,0.0,0.625,0.0,0.0,0.78125,0.6446886446886447,-0.5665445665445665,0.90625,1.0708180708180708,-0.7704517704517705,0.8125,0.6678876678876678,0.0,0.8125,0.0,0.0,0.75,0.8778998778998779,0.0,0.71875,1.3516483516483515,0.0,0.6875,1.1611721611721613,0.0,0.5625,1.0683760683760684,0.0,0.0,1.0757020757020757,0.0,0.0,0.8681318681318682,0.0,0.0,0.0,0.0,0.0,0.0,0.0,0.0,0.0,0.0,0.0,0.0,0.0,0.0,0.0,0.0,0.0,0.0,0.0,0.0,0.0,0.0,0.0,0.0,0.0,0.0,0.0,0.0,0.0,0.0,0.0,0.0,0.0,0.0,0.0,0.0,0.0,0.0,0.0,0.0,0.0,0.0,0.0,0.0,0.0,0.0,0.0,0.0,0.0,0.0,movePosX2D
10,0.0,0.0,0.0,-0.6691086691086691,0.0,0.0,-0.7374847374847375,-0.5128205128205128,0.0,0.0,-0.5262515262515263,0.0,0.0,0.0,0.0,-0.6886446886446886,0.0,0.0,-0.503052503052503,0.0,0.0,0.0,0.0,0.0,-0.8827838827838828,0.0,0.0,-1.1733821733821734,0.0,0.0,-0.8669108669108669,0.0,0.0,-0.9194139194139194,0.0,0.0,-0.8388278388278388,0.0,0.0,0.0,0.0,0.0,-0.6825396825396826,0.0,0.0,0.0,0.0,0.71875,0.0,0.0,0.78125,0.0,0.0,0.78125,0.0,0.0,0.0,0.0,0.0,0.5625,0.0,-0.6593406593406593,0.6875,0.0,0.0,0.75,0.0,0.0,0.71875,0.0,0.0,0.59375,0.0,-0.7362637362637363,0.71875,0.7350427350427351,-0.7423687423687424,0.84375,1.3272283272283272,-0.5482295482295483,0.59375,1.2881562881562882,0.0,0.0,0.8778998778998779,-0.5164835164835165,0.0,0.6495726495726496,-0.5775335775335775,0.75,0.6275946275946276,0.0,0.8125,0.0,0.0,0.78125,0.0,0.0,0.6875,0.0,0.0,0.625,0.6788766788766789,0.0,0.59375,0.873015873015873,0.0,0.53125,0.9340659340659341,0.0,0.59375,1.0183150183150182,0.0,0.875,1.0866910866910866,-0.8693528693528694,0.875,1.1257631257631258,0.0,0.84375,1.0366300366300367,0.0,0.84375,0.0,0.0,0.96875,0.6581196581196581,0.0,1.0,0.6666666666666666,0.0,0.90625,0.5958485958485958,0.0,0.875,0.7252747252747253,0.0,0.96875,1.3821733821733821,-0.5726495726495726,0.9375,1.9584859584859584,0.0,0.78125,2.2771672771672766,0.0,0.6875,2.0744810744810747,0.0,0.625,1.8424908424908424,0.0,0.5625,2.0854700854700856,0.0,0.0,2.440781440781441,0.0,0.0,2.484737484737485,-0.5628815628815629,0.0,0.0,0.0,0.0,0.0,0.0,0.0,0.0,0.0,0.0,0.0,0.0,0.0,0.0,0.0,0.0,0.0,0.0,0.0,0.0,0.0,0.0,0.0,0.0,0.0,0.0,0.0,0.0,0.0,0.0,0.0,0.0,0.0,0.0,0.0,0.0,0.0,movePosX2D
11,0.0,-0.5604395604395604,0.0,0.0,0.0,0.0,0.0,0.0,0.0,0.0,0.0,0.0,0.0,0.0,0.0,-0.663003663003663,0.0,0.0,-0.5409035409035409,0.0,0.0,-0.8986568986568987,0.0,0.0,-1.028083028083028,0.0,0.0,-1.2258852258852255,0.0,0.0,-0.9963369963369964,0.0,0.0,-0.557997557997558,0.0,0.0,-0.5836385836385837,0.0,0.0,0.0,0.0,0.53125,0.0,0.0,0.53125,0.0,0.0,0.53125,0.0,0.0,0.0,0.0,0.0,0.53125,0.0,0.0,1.0,0.0,-0.6886446886446886,1.0,0.0,-0.5006105006105006,0.96875,0.5042735042735043,0.0,0.8125,0.0,0.0,0.625,0.5921855921855922,0.0,0.65625,0.5323565323565324,0.0,0.8125,0.8095238095238095,-0.7619047619047619,0.84375,0.6617826617826618,-0.6190476190476191,0.71875,0.5665445665445665,0.0,0.75,0.7887667887667887,0.0,0.75,0.7753357753357754,0.0,0.625,0.0,-0.5677655677655677,0.65625,0.0,-0.6068376068376068,0.625,1.6068376068376071,-0.6666666666666666,0.625,1.2735042735042734,-0.5177045177045178,0.53125,0.0,0.0,0.71875,1.4493284493284493,0.0,0.9375,2.217338217338217,-0.8034188034188035,1.03125,1.652014652014652,0.0,1.03125,1.2185592185592184,0.0,0.9375,1.8388278388278387,0.0,0.90625,2.029304029304029,0.0,0.8125,0.9010989010989012,0.0,0.75,0.0,0.0,0.8125,1.5262515262515262,-0.6190476190476191,0.84375,1.6349206349206349,-0.5238095238095238,0.6875,1.2442002442002442,0.0,0.59375,1.072039072039072,0.0,0.5625,0.9694749694749696,0.0,0.5625,1.249084249084249,0.0,0.5625,1.2185592185592184,0.0,0.0,1.0695970695970696,0.0,0.0,0.0,0.0,0.0,0.0,0.0,0.0,0.0,0.0,0.0,0.0,0.0,0.0,0.0,0.0,0.0,0.0,0.0,0.0,0.0,0.0,0.0,0.0,0.0,0.0,0.0,0.0,0.0,0.0,0.0,0.0,0.0,0.0,0.0,0.0,0.0,0.0,0.0,0.0,0.0,0.0,0.0,0.0,0.0,0.0,0.0,movePosX2D
12,-1.2881562881562882,-0.7948717948717948,0.0,-0.9719169719169721,0.0,0.0,-0.7472527472527473,0.0,0.0,-1.065934065934066,0.0,0.0,-0.8522588522588522,0.0,0.0,-0.8937728937728938,0.0,0.0,-0.8473748473748474,0.0,0.0,-0.6971916971916972,0.0,0.0,-0.8913308913308914,0.0,0.0,-0.7094017094017094,0.0,0.0,0.0,0.0,0.0,0.0,0.0,0.0,0.0,-0.5531135531135531,0.0,0.0,0.0,0.0,0.0,0.0,0.0,0.0,0.0,0.0,0.0,0.0,0.0,0.0,0.0,0.5625,0.0,0.0,0.5625,0.0,0.0,0.59375,0.0,0.0,0.71875,0.0,-0.5921855921855922,0.875,0.6422466422466423,-1.0671550671550671,0.90625,0.9731379731379732,-0.8046398046398047,0.875,1.0329670329670328,-0.5225885225885226,0.75,0.967032967032967,-0.6691086691086691,0.6875,0.6910866910866911,-0.7130647130647131,0.65625,0.5421245421245421,-0.5323565323565324,0.625,0.0,0.0,0.5625,0.0,0.0,0.5625,0.0,-0.6984126984126984,0.625,0.0,-0.6581196581196581,0.96875,0.0,-0.6495726495726496,0.96875,0.0,-0.5738705738705738,0.78125,1.122100122100122,-0.5018315018315018,0.5625,1.199023199023199,-0.7851037851037851,0.0,0.0,0.0,0.0,0.0,0.5970695970695971,0.0,0.0,0.0,0.0,0.6324786324786325,-0.7130647130647131,0.53125,0.0,-0.503052503052503,0.65625,0.0,0.0,0.8125,0.0,0.0,0.96875,1.1477411477411477,-0.9181929181929182,1.0625,1.4004884004884004,-0.8192918192918193,1.0625,1.1916971916971917,0.0,1.0625,0.8168498168498168,0.0,1.15625,1.7301587301587302,-1.126984126984127,1.21875,3.111111111111111,-1.2319902319902318,1.09375,2.935286935286935,-0.7863247863247863,0.875,2.051282051282051,0.0,0.71875,2.1575091575091574,0.0,0.71875,2.3284493284493286,-0.5702075702075702,0.5625,1.7704517704517704,0.0,0.0,1.6605616605616609,0.0,0.0,1.6666666666666667,0.0,0.0,0.0,0.0,0.0,0.0,0.0,0.0,0.0,0.0,0.0,0.0,0.0,0.0,0.0,0.0,0.0,0.0,0.0,0.0,0.0,0.0,0.0,0.0,0.0,0.0,0.0,0.0,0.0,0.0,0.0,0.0,movePosX2D
13,-0.6385836385836385,0.0,0.0,0.0,0.0,0.0,-0.6422466422466423,0.0,0.0,-0.7045177045177046,0.0,0.0,-0.5067155067155067,-0.5860805860805861,0.0,0.0,0.0,0.0,-0.9572649572649572,0.0,0.0,-0.8778998778998779,0.0,0.0,-0.8302808302808303,0.0,0.0,-0.6361416361416361,0.0,0.0,-0.8046398046398047,0.0,0.0,-0.9157509157509156,0.0,0.5625,0.0,0.0,0.65625,0.0,0.0,0.65625,0.0,0.0,0.625,0.0,0.0,0.59375,0.0,0.0,0.75,0.0,0.0,0.84375,0.0,0.0,0.84375,0.0,-0.6483516483516484,0.75,0.0,-0.5482295482295483,0.8125,0.5470085470085471,0.0,0.875,0.0,0.0,0.9375,0.0,0.0,0.875,0.0,-0.5164835164835165,0.75,0.5909645909645911,0.0,0.84375,0.9218559218559218,-0.7118437118437119,0.75,0.0,-0.7155067155067155,0.78125,0.0,0.0,0.625,0.0,0.0,0.5625,0.6385836385836385,-0.7460317460317459,0.59375,1.0708180708180708,-1.1794871794871795,0.5625,0.9926739926739928,-0.6752136752136753,0.0,0.6007326007326007,0.0,0.0,0.0,0.0,0.0,0.0,0.0,0.0,0.0,0.0,0.0,0.0,-0.6752136752136753,0.0,1.2222222222222223,-0.7728937728937729,0.0,0.7155067155067155,0.0,0.59375,0.0,0.0,0.78125,0.8705738705738706,-0.6056166056166056,1.03125,1.3601953601953602,-1.0915750915750917,1.0625,2.445665445665446,-1.7191697191697193,1.03125,2.2673992673992682,-1.0586080586080586,0.875,1.376068376068376,0.0,0.90625,1.8742368742368745,-0.7094017094017094,0.8125,1.8131868131868127,0.0,0.75,2.1965811965811968,-0.6898656898656899,0.71875,2.5164835164835164,-0.6837606837606838,0.5625,1.7191697191697193,0.0,0.0,1.343101343101343,0.0,0.0,1.4017094017094016,0.0,0.0,1.2539682539682542,0.0,0.0,1.5189255189255189,-0.6459096459096461,0.0,1.6593406593406594,-0.5067155067155067,0.0,0.0,0.0,0.0,0.0,0.0,0.0,0.0,0.0,0.0,0.0,0.0,0.0,0.0,0.0,0.0,0.0,0.0,0.0,0.0,0.0,0.0,0.0,0.0,0.0,0.0,0.0,0.0,0.0,0.0,0.0,movePosX2D
14,0.0,0.0,0.0,0.0,0.0,0.0,0.0,0.0,0.0,0.0,0.0,0.0,0.0,0.0,0.0,0.0,0.0,0.0,0.0,0.0,0.0,-0.5592185592185592,0.0,0.0,0.0,0.0,0.0,0.0,0.0,0.0,0.0,-0.5482295482295483,0.0,0.0,0.0,0.59375,-0.5982905982905983,0.0,0.6875,0.0,0.0,0.6875,0.0,0.0,0.6875,0.0,0.0,0.84375,0.0,0.0,0.90625,0.0,0.0,0.875,0.0,0.0,0.84375,0.0,0.0,0.84375,0.0,0.0,0.84375,0.0,0.0,0.9375,0.0,0.0,0.875,0.5604395604395604,-0.6251526251526252,0.84375,0.7716727716727717,0.0,0.96875,0.7765567765567766,0.0,1.03125,0.5347985347985348,0.0,1.0,0.7106227106227107,0.0,0.84375,0.0,0.0,0.71875,0.0,0.0,0.6875,0.0,0.0,0.71875,0.0,0.0,0.75,0.0,0.0,0.90625,0.0,-0.7594627594627594,1.0625,1.2515262515262515,-1.0647130647130647,1.09375,1.5164835164835164,-0.8009768009768009,1.0625,1.927960927960928,-0.7448107448107448,1.125,2.2649572649572653,-1.3931623931623929,1.09375,1.8095238095238089,-0.894993894993895,0.96875,1.8595848595848603,-0.912087912087912,0.9375,2.029304029304029,-0.8192918192918193,0.84375,2.0793650793650795,-0.7423687423687424,0.84375,2.0061050061050056,0.0,0.78125,2.0671550671550682,-0.5128205128205128,0.84375,1.8681318681318682,-0.6263736263736264,0.6875,1.5384615384615383,0.0,0.5625,1.2527472527472527,0.0,0.53125,1.31990231990232,0.0,0.53125,1.5042735042735045,0.0,0.53125,1.42002442002442,0.0,0.0,1.2197802197802199,0.0,0.0,1.73992673992674,-0.6532356532356532,0.0,1.9181929181929185,-0.6312576312576312,0.0,0.0,0.0,0.0,0.0,0.0,0.0,0.0,0.0,0.0,0.0,0.0,0.0,0.0,0.0,0.0,0.0,0.0,0.0,0.0,0.0,0.0,0.0,0.0,0.0,0.0,0.0,0.0,0.0,0.0,0.0,0.0,0.0,0.0,0.0,0.0,0.0,0.0,0.0,0.0,movePosX2D
15,0.0,0.0,0.0,-0.6080586080586079,0.0,0.0,0.0,0.0,0.0,0.0,0.0,0.0,0.0,0.0,0.0,0.0,0.0,0.0,0.0,0.0,0.0,0.0,0.0,0.0,0.0,0.0,0.0,0.0,0.0,0.0,-0.6471306471306472,0.0,0.0,-0.5347985347985348,0.0,0.0,0.0,0.0,0.0,0.0,0.0,0.0,0.0,0.0,0.5625,0.0,0.0,0.65625,0.0,0.0,0.53125,0.0,0.0,0.0,0.0,-0.5201465201465202,0.6875,0.0,-0.7643467643467643,0.875,0.0,-0.5067155067155067,0.84375,0.0,0.0,0.71875,0.0,0.0,0.71875,0.0,-0.8534798534798534,1.21875,0.8424908424908425,-1.0415140415140416,1.28125,0.5592185592185592,-0.6898656898656899,1.1875,0.0,-0.5811965811965812,1.125,0.5628815628815629,0.0,1.03125,0.5311355311355311,-0.5702075702075702,0.875,0.0,0.0,0.75,0.0,0.0,1.21875,0.0,0.0,1.375,0.5982905982905983,-0.6752136752136753,1.375,0.9499389499389499,-1.0573870573870574,1.0625,0.9133089133089132,-0.8192918192918193,0.78125,1.0769230769230769,-0.7936507936507936,0.90625,1.8424908424908424,-1.3846153846153846,1.0,1.7875457875457876,-1.1746031746031746,0.90625,1.9352869352869355,-1.1074481074481075,0.78125,2.3553113553113554,-1.0231990231990231,0.59375,2.411477411477412,-0.9877899877899878,0.0,2.435897435897436,-1.0256410256410255,0.0,1.9511599511599511,-0.8717948717948718,0.0,1.2258852258852255,0.0,0.0,1.1721611721611722,0.0,0.0,1.5323565323565325,0.0,0.0,1.9145299145299144,-0.5665445665445665,0.0,1.656898656898657,0.0,0.0,1.6031746031746033,0.0,0.0,1.5946275946275947,0.0,0.0,1.5164835164835164,0.0,0.0,1.5726495726495726,0.0,0.0,1.5811965811965811,-0.5604395604395604,0.0,0.0,0.0,0.0,0.0,0.0,0.0,0.0,0.0,0.0,0.0,0.0,0.0,0.0,0.0,0.0,0.0,0.0,0.0,0.0,0.0,0.0,0.0,0.0,0.0,0.0,0.0,0.0,0.0,0.0,0.0,0.0,0.0,0.0,0.0,0.0,0.0,0.0,0.0,0.0,movePosX2D
16,0.0,-0.7264957264957265,0.0,0.0,0.0,0.0,0.0,0.0,0.0,0.0,0.0,0.0,0.0,0.0,0.0,0.0,-0.5531135531135531,0.0,-0.6788766788766789,-0.6349206349206349,0.0,-0.6251526251526252,0.0,0.0,-0.6849816849816851,0.0,0.0,-0.9072039072039072,0.0,0.0,0.0,0.0,0.0,0.0,0.0,0.0,0.0,0.0,0.0,0.0,-0.5457875457875457,0.53125,0.0,-0.5763125763125763,0.0,0.0,0.0,0.0,0.0,0.0,0.53125,0.0,0.0,0.65625,0.0,0.0,0.875,0.0,-0.5201465201465202,0.96875,0.5763125763125763,-0.7643467643467643,0.9375,0.6214896214896215,-0.5726495726495726,0.84375,0.0,0.0,0.71875,0.0,0.0,0.84375,0.0,-0.5604395604395604,0.8125,0.0,0.0,0.65625,0.0,0.0,0.0,0.6080586080586079,0.0,0.0,0.7557997557997558,-0.6617826617826618,0.0,0.6178266178266179,-0.7814407814407814,0.53125,0.0,-0.5909645909645911,0.53125,0.6581196581196581,-0.5372405372405372,0.5625,1.1123321123321124,0.0,0.625,1.3577533577533578,-0.7203907203907204,0.625,0.8693528693528694,0.0,0.6875,1.0024420024420024,-0.5213675213675214,0.875,1.3443223443223444,-0.6910866910866911,0.90625,1.3663003663003663,-0.6764346764346765,0.875,1.78998778998779,-0.6398046398046398,0.71875,1.2588522588522588,0.0,0.71875,0.0,0.5091575091575091,0.90625,0.9438339438339438,0.0,1.03125,1.7155067155067154,-0.8876678876678876,0.71875,0.7448107448107448,0.0,0.6875,0.9597069597069596,0.0,0.875,1.9743589743589745,0.0,0.875,2.2026862026862037,-0.9047619047619048,0.59375,1.5555555555555556,0.0,0.0,1.2857142857142858,0.0,0.0,1.3357753357753357,0.0,0.0,1.2319902319902318,0.0,0.0,1.2087912087912087,0.0,0.0,1.3601953601953602,-0.5616605616605617,0.0,0.0,0.0,0.0,0.0,0.0,0.0,0.0,0.0,0.0,0.0,0.0,0.0,0.0,0.0,0.0,0.0,0.0,0.0,0.0,0.0,0.0,0.0,0.0,0.0,0.0,0.0,0.0,0.0,0.0,0.0,0.0,0.0,0.0,0.0,0.0,0.0,0.0,0.0,0.0,movePosX2D
17,0.0,0.0,0.0,0.0,0.0,0.0,0.0,0.0,0.0,0.0,0.0,0.0,0.0,0.0,0.0,-0.5921855921855922,0.0,0.0,-1.0683760683760684,0.0,0.0,-1.2332112332112333,0.0,0.0,-0.8473748473748474,0.0,0.0,-0.7032967032967034,0.0,0.0,0.0,0.0,0.0,0.0,0.0,0.0,0.0,-0.5238095238095238,0.0,0.0,-0.894993894993895,0.0,0.0,-0.6593406593406593,0.53125,0.0,0.0,0.65625,0.0,0.0,0.6875,0.0,0.0,0.65625,0.0,0.0,0.71875,0.0,0.0,0.90625,0.0,0.0,0.90625,0.0,0.0,0.875,0.0,0.0,0.78125,0.0,0.0,0.75,0.5531135531135531,-0.663003663003663,1.125,0.0,0.0,1.03125,0.0,0.0,0.9375,1.7496947496947497,-0.7655677655677655,0.71875,1.746031746031746,-0.9194139194139194,0.0,1.1257631257631258,-0.757020757020757,0.0,1.2893772893772897,0.0,0.0,0.0,0.0,0.0,0.0,0.0,0.0,0.0,0.0,0.0,0.7643467643467643,-0.8559218559218559,0.6875,0.9255189255189256,-1.0244200244200243,0.625,0.0,0.0,0.65625,0.0,0.0,0.78125,1.0012210012210012,0.0,0.84375,1.2551892551892552,-0.6544566544566545,0.90625,1.2002442002442002,-0.7960927960927959,0.96875,1.5421245421245422,-0.7142857142857143,0.875,1.1709401709401708,-0.5873015873015873,0.71875,0.7032967032967034,0.0,0.65625,1.7179487179487178,0.0,0.78125,2.6105006105006106,0.0,0.84375,2.087912087912088,-0.6178266178266179,0.75,1.199023199023199,-0.6251526251526252,0.59375,1.592185592185592,0.0,0.0,1.8180708180708185,0.0,0.0,1.0940170940170941,0.0,0.0,1.468864468864469,-0.8351648351648352,0.0,1.7765567765567765,-0.5811965811965812,0.0,1.164835164835165,0.0,0.0,0.8400488400488401,0.0,0.0,0.0,0.0,0.0,0.0,0.0,0.0,0.0,0.0,0.0,0.0,0.0,0.0,0.0,0.0,0.0,0.0,0.0,0.0,0.0,0.0,0.0,0.0,0.0,0.0,0.0,0.0,0.0,0.0,0.0,0.0,0.0,0.0,0.0,movePosX2D
18,0.0,0.0,0.0,0.0,0.0,0.0,0.0,0.0,0.0,0.0,0.0,0.0,-0.6654456654456654,0.0,0.0,-0.8339438339438342,0.0,0.0,-1.0231990231990231,0.0,0.0,-1.120879120879121,0.0,0.0,-1.028083028083028,0.0,0.0,-0.7521367521367521,0.0,0.0,-0.7521367521367521,0.0,0.0,0.0,0.0,0.0,-0.5592185592185592,0.0,0.0,0.0,-0.7557997557997558,0.0,0.0,-0.7838827838827839,0.0,0.0,0.0,0.0,0.0,0.0,0.0,0.0,0.0,0.625,0.0,0.0,0.59375,0.0,0.0,0.59375,0.0,0.0,0.53125,0.0,0.0,0.9375,0.0,0.0,0.9375,0.0,0.0,0.875,0.0,0.0,0.65625,0.0,0.0,0.0,0.0,0.0,0.0,0.0,0.0,0.0,0.0,-0.5873015873015873,0.0,1.0427350427350428,-1.1318681318681318,0.65625,1.26007326007326,-0.8998778998778999,0.5625,0.8681318681318682,0.0,0.59375,0.8131868131868132,0.0,0.625,0.6043956043956044,0.0,0.71875,0.6910866910866911,0.0,0.90625,0.0,0.0,0.96875,0.0,0.0,1.0,0.0,0.0,1.21875,0.8437118437118437,-0.5396825396825397,1.25,0.9487179487179488,0.0,1.375,1.3101343101343101,-0.9084249084249084,1.34375,3.3650793650793656,-1.5164835164835164,1.21875,3.2991452991452985,-0.818070818070818,1.0,2.6544566544566544,0.0,0.90625,2.993894993894993,-0.7448107448107448,0.84375,3.1062271062271063,-0.9621489621489622,0.6875,2.175824175824176,0.0,0.0,1.7362637362637363,0.0,0.0,2.1294261294261294,0.0,0.0,1.6617826617826619,0.0,0.0,1.3504273504273503,0.0,0.0,1.072039072039072,0.0,0.0,1.264957264957265,0.0,0.0,1.3772893772893773,-0.5653235653235653,0.0,0.0,0.0,0.0,0.0,0.0,0.0,0.0,0.0,0.0,0.0,0.0,0.0,0.0,0.0,0.0,0.0,0.0,0.0,0.0,0.0,0.0,0.0,0.0,0.0,0.0,0.0,0.0,0.0,0.0,0.0,0.0,0.0,0.0,0.0,0.0,0.0,movePosX2D
19,0.0,0.0,0.0,-0.5409035409035409,0.0,0.0,0.0,0.0,0.0,0.0,0.0,0.0,0.0,0.0,0.0,0.0,0.0,0.0,0.0,0.0,0.0,0.0,0.0,0.0,0.0,0.0,0.0,0.0,0.0,0.0,0.0,0.0,0.0,0.0,0.0,0.0,0.0,0.0,0.0,0.0,0.0,0.0,0.0,0.0,0.0,0.0,0.0,0.625,0.0,0.0,0.65625,0.0,0.0,0.75,0.7008547008547008,-0.5909645909645911,0.6875,0.8717948717948718,-0.6874236874236874,0.59375,0.6190476190476191,-0.5506715506715507,0.65625,0.6752136752136753,-0.6324786324786325,0.65625,0.7997557997557998,-0.5677655677655677,0.5625,0.5750915750915749,0.0,0.0,0.6019536019536019,0.0,0.0,0.0,0.0,0.0,0.0,0.0,0.0,0.5433455433455433,0.0,0.0,0.0,0.0,0.0,0.0,0.0,0.0,0.0,0.0,0.65625,0.0,0.0,0.5625,0.0,0.0,0.5625,0.0,-0.5262515262515263,0.5625,0.0,0.0,0.0,1.1135531135531136,-0.8192918192918193,0.0,0.0,0.0,0.0,0.0,0.0,0.65625,0.8034188034188035,-0.7387057387057387,0.71875,0.7851037851037851,-1.1282051282051282,0.78125,0.0,0.0,0.75,0.0,0.0,1.0,1.9755799755799759,-0.9731379731379732,1.03125,2.3369963369963367,-0.8583638583638583,0.90625,1.4297924297924298,0.0,0.84375,1.4395604395604396,0.0,0.9375,2.5824175824175826,-0.6275946275946276,0.96875,2.3492063492063493,-0.5323565323565324,0.78125,1.4285714285714286,0.0,0.6875,1.8144078144078144,0.0,0.71875,2.3724053724053724,-0.6434676434676435,0.71875,2.175824175824176,-0.8485958485958486,0.0,2.148962148962149,0.0,0.0,1.5018315018315018,0.0,0.0,1.2026862026862026,0.0,0.0,1.1489621489621489,0.0,0.0,0.0,0.0,0.0,0.0,0.0,0.0,0.0,0.0,0.0,0.0,0.0,0.0,0.0,0.0,0.0,0.0,0.0,0.0,0.0,0.0,0.0,0.0,0.0,0.0,0.0,0.0,0.0,0.0,0.0,0.0,movePosX2D
20,0.0,0.0,0.0,0.0,0.0,0.0,0.0,0.0,0.0,0.0,0.0,0.0,0.0,0.0,0.0,0.0,0.0,0.0,0.0,0.0,0.0,0.0,0.0,0.0,0.0,0.0,0.0,0.0,0.0,0.0,0.0,0.0,0.0,0.0,0.0,0.0,0.0,0.0,0.0,0.0,0.0,0.0,0.0,-0.5225885225885226,0.0,0.0,0.0,0.0,0.0,0.0,0.0,0.0,0.0,0.0,0.0,0.0,0.6875,0.0,0.0,0.8125,0.0,0.0,0.84375,0.0,0.0,0.71875,0.0,0.0,0.5625,0.0,0.0,0.0,0.0,-0.5433455433455433,0.625,0.6056166056166056,-0.6910866910866911,0.65625,0.5494505494505495,-0.778998778998779,0.0,0.0,0.0,0.0,0.0,0.0,0.6875,0.8998778998778999,0.0,0.71875,0.8815628815628815,0.0,0.75,0.5091575091575091,0.0,0.6875,0.0,0.0,0.0,0.0,0.0,0.0,0.6971916971916972,0.0,0.0,1.485958485958486,-0.9658119658119658,0.6875,1.1367521367521367,-0.7704517704517705,0.6875,0.0,0.0,0.65625,0.0,0.0,0.75,0.5543345543345544,0.0,0.8125,0.8632478632478633,0.0,0.875,1.1575091575091576,-0.5018315018315018,0.9375,1.2905982905982911,-0.7277167277167277,0.875,0.9523809523809524,0.0,0.8125,0.8461538461538461,0.0,0.84375,0.8742368742368742,0.0,0.84375,0.7533577533577533,-0.5274725274725275,0.84375,1.0964590964590966,-0.9768009768009768,0.78125,1.5189255189255189,0.0,0.71875,1.8351648351648349,0.0,0.65625,1.2893772893772897,0.0,0.0,0.8021978021978022,0.0,0.0,0.5470085470085471,0.0,0.0,0.0,0.0,0.0,0.0,0.0,0.0,0.0,0.0,0.0,0.0,0.0,0.0,0.0,0.0,0.0,0.0,0.0,0.0,0.0,0.0,0.0,0.0,0.0,0.0,0.0,0.0,0.0,0.0,0.0,0.0,0.0,0.0,0.0,0.0,0.0,0.0,0.0,0.0,0.0,movePosX2D
21,-1.1697191697191698,0.0,0.0,-0.6996336996336996,-0.5873015873015873,0.0,-0.7692307692307693,0.0,0.0,-0.9304029304029304,-0.5531135531135531,0.0,-0.7045177045177046,-0.7460317460317459,0.0,0.0,0.0,0.0,0.0,0.0,0.0,0.0,0.0,0.0,0.0,0.0,0.0,-0.7350427350427351,0.0,0.0,-0.7387057387057387,0.0,0.0,-0.6202686202686203,0.0,0.0,-0.9658119658119658,0.0,0.0,-0.9951159951159952,0.0,0.0,-0.8962148962148963,0.0,0.0,0.0,0.0,0.0,0.0,0.0,0.0,0.0,0.0,0.65625,0.0,0.0,0.78125,0.0,0.0,0.84375,0.0,0.0,0.875,0.6923076923076923,-0.8840048840048841,0.75,0.0,0.0,0.78125,0.0,0.0,1.0625,0.0,0.0,1.0625,0.525030525030525,0.0,0.90625,0.0,0.0,0.65625,0.0,0.0,0.71875,0.0,0.6312576312576312,0.625,0.6019536019536019,0.0,1.3125,1.2185592185592184,-1.1404151404151404,1.15625,0.6715506715506715,-0.7912087912087912,0.84375,0.7973137973137974,0.0,0.65625,1.0024420024420024,-0.6092796092796092,0.0,0.7448107448107448,-0.8937728937728938,0.0,0.7545787545787546,0.0,0.0,1.061050061050061,0.0,0.0,0.8693528693528694,0.0,0.5625,1.1587301587301588,-1.363858363858364,0.65625,1.8363858363858363,-1.4029304029304028,0.5625,2.1709401709401708,-0.8351648351648352,0.0,1.9694749694749696,0.0,0.5625,2.103785103785104,0.0,0.875,2.3882783882783882,-0.7435897435897436,0.75,1.6483516483516485,-0.7484737484737485,0.59375,1.1746031746031746,0.0,0.59375,1.7533577533577531,0.0,0.65625,2.242979242979243,0.0,0.53125,1.4627594627594631,-0.5335775335775336,0.0,0.7008547008547008,0.0,0.0,1.1391941391941391,0.0,0.0,1.3748473748473748,0.0,0.0,1.3101343101343101,0.0,0.0,1.2210012210012209,0.0,0.0,0.0,0.0,0.0,0.0,0.0,0.0,0.0,0.0,0.0,0.0,0.0,0.0,0.0,0.0,0.0,0.0,0.0,0.0,0.0,0.0,0.0,0.0,0.0,0.0,0.0,0.0,0.0,0.0,0.0,0.0,0.0,0.0,0.0,0.0,0.0,0.0,movePosX2D
22,-0.7313797313797313,0.0,0.0,-0.5421245421245421,0.0,0.0,0.0,0.0,0.0,0.0,-0.7753357753357754,0.0,0.0,-0.7081807081807082,0.0,0.0,0.0,0.0,-0.7533577533577533,0.0,0.0,-0.6129426129426129,0.0,0.0,-0.5763125763125763,-0.518925518925519,0.0,-0.6117216117216118,0.0,0.0,0.0,0.0,0.0,0.0,0.0,0.0,0.0,0.0,0.0,0.0,0.0,0.0,0.0,0.0,0.5625,0.0,0.0,0.625,0.0,0.0,0.6875,0.0,-0.5482295482295483,0.65625,0.0,-0.5811965811965812,0.5625,0.0,0.0,0.75,0.0,0.0,0.84375,0.0,0.0,0.875,0.0,0.0,0.875,0.0,0.0,0.78125,0.0,0.0,0.71875,0.0,0.0,0.75,0.0,0.0,0.9375,0.0,-0.5152625152625152,1.09375,0.5311355311355311,-0.7008547008547008,1.03125,1.10989010989011,-0.7081807081807082,0.8125,0.8742368742368742,0.0,0.5625,0.0,0.0,0.71875,0.5543345543345544,0.0,0.84375,0.757020757020757,0.0,0.84375,1.1001221001221002,-0.5091575091575091,0.78125,1.2466422466422469,-0.9108669108669109,0.71875,0.8595848595848596,-0.5897435897435898,0.65625,0.6214896214896215,0.0,0.5625,0.0,0.0,0.65625,0.0,0.0,0.78125,0.8998778998778999,-1.2393162393162394,0.59375,1.3797313797313795,-1.0329670329670328,0.0,1.3284493284493284,0.0,0.0,1.0622710622710625,0.0,0.65625,1.4676434676434675,0.0,0.6875,1.2808302808302807,-0.57997557997558,0.625,0.9768009768009768,0.0,0.625,1.1868131868131868,0.0,0.6875,1.293040293040293,0.0,0.75,1.078144078144078,-0.6984126984126984,0.71875,1.4664224664224663,-0.5225885225885226,0.625,1.8424908424908424,0.0,0.53125,1.3858363858363858,0.0,0.0,1.4236874236874235,0.0,0.0,1.8205128205128205,0.0,0.0,1.794871794871795,0.0,0.0,1.6312576312576312,0.0,0.0,0.0,0.0,0.0,0.0,0.0,0.0,0.0,0.0,0.0,0.0,0.0,0.0,0.0,0.0,0.0,0.0,0.0,0.0,0.0,0.0,0.0,0.0,0.0,0.0,0.0,0.0,0.0,movePosX2D
23,0.0,0.0,0.0,0.0,0.0,0.0,0.0,0.0,0.0,0.0,-0.5335775335775336,0.0,0.0,0.0,0.0,0.0,0.0,0.0,0.0,0.0,0.0,-0.6178266178266179,0.0,0.0,-0.7350427350427351,0.0,0.0,-0.6336996336996337,0.0,0.0,0.0,0.0,0.0,0.0,0.0,0.0,0.0,0.0,0.0,0.0,0.0,0.0,0.0,-0.5921855921855922,0.6875,0.0,0.0,0.6875,0.0,0.0,0.59375,0.0,0.0,0.0,0.0,0.0,0.625,0.0,0.0,0.6875,0.0,0.0,0.65625,0.0,0.0,0.59375,0.0,0.0,0.5625,0.7216117216117216,-0.7167277167277167,0.8125,0.6715506715506715,-0.6898656898656899,0.71875,0.6776556776556777,-0.7582417582417582,0.71875,0.7008547008547008,-0.5115995115995116,0.65625,0.0,0.0,0.875,0.0,0.0,0.8125,0.0,0.0,0.6875,0.0,0.0,0.5625,0.0,0.0,0.71875,0.0,0.0,1.0,0.514041514041514,0.0,1.0625,0.0,0.0,0.90625,0.5372405372405372,0.0,0.78125,1.0976800976800978,0.0,0.6875,1.2967032967032968,-0.7203907203907204,0.0,1.2112332112332111,0.0,0.0,1.1782661782661783,0.0,0.0,1.1367521367521367,0.0,0.0,0.7863247863247863,0.0,0.0,0.7948717948717948,0.0,0.0,0.8583638583638583,-0.5518925518925519,0.53125,0.5982905982905983,0.0,0.5625,0.0,0.0,0.5625,0.6275946275946276,0.0,0.65625,1.5067155067155067,0.0,0.78125,1.912087912087912,-0.7350427350427351,0.59375,1.5323565323565325,-0.7619047619047619,0.0,1.468864468864469,0.0,0.0,1.6984126984126984,0.0,0.0,1.586080586080586,0.0,0.0,0.0,0.0,0.0,0.0,0.0,0.0,0.0,0.0,0.0,0.0,0.0,0.0,0.0,0.0,0.0,0.0,0.0,0.0,0.0,0.0,0.0,0.0,0.0,0.0,0.0,0.0,0.0,0.0,0.0,0.0,0.0,0.0,0.0,0.0,0.0,0.0,0.0,0.0,0.0,movePosX2D
24,0.0,0.0,0.0,0.0,0.0,0.0,0.0,0.0,0.0,0.0,0.0,0.0,0.0,0.0,0.0,0.0,0.0,0.0,0.0,0.0,0.0,0.0,0.0,0.0,-0.5372405372405372,0.0,0.0,-0.7509157509157509,0.0,0.0,-0.5860805860805861,0.0,0.0,0.0,0.0,0.0,0.0,0.0,0.0,0.0,0.0,0.0,0.0,0.0,0.0,0.0,0.0,0.0,0.0,0.0,0.0,0.0,0.0,0.0,0.0,0.0,0.0,0.0,0.0,0.0,0.0,0.0,0.6875,0.0,0.0,0.78125,0.0,0.0,0.78125,0.0,0.0,0.65625,0.0,0.0,0.8125,0.0,0.0,0.90625,0.0,0.0,0.875,0.5006105006105006,0.0,0.71875,0.0,0.0,0.5625,0.0,-0.5115995115995116,0.625,0.8681318681318682,0.0,0.84375,1.1172161172161172,-0.8009768009768009,0.8125,0.7643467643467643,0.0,0.71875,0.0,0.0,0.71875,0.0,0.0,0.90625,0.6092796092796092,0.0,1.03125,0.9804639804639804,-1.0146520146520146,1.0,0.9316239316239316,-0.6263736263736264,0.875,0.9645909645909646,0.0,0.75,1.0866910866910866,0.0,0.59375,0.6410256410256411,0.0,0.53125,0.8339438339438342,-0.6227106227106227,0.625,1.5616605616605617,-0.7667887667887668,0.65625,1.6581196581196582,-0.6105006105006106,0.625,1.0512820512820509,-0.5763125763125763,0.53125,1.0793650793650793,0.0,0.59375,1.68009768009768,0.0,0.65625,1.6971916971916972,-0.6446886446886447,0.65625,0.9328449328449328,-0.5433455433455433,0.0,0.9047619047619048,0.0,0.0,1.0268620268620268,0.0,0.0,0.5311355311355311,0.0,0.0,0.8656898656898657,0.0,0.0,1.155067155067155,-0.6398046398046398,0.0,1.2722832722832722,-0.7008547008547008,0.0,1.338217338217338,-0.5897435897435898,0.0,1.1611721611721613,-0.5836385836385837,0.0,1.0451770451770452,0.0,0.0,0.0,0.0,0.0,0.0,0.0,0.0,0.0,0.0,0.0,0.0,0.0,0.0,0.0,0.0,0.0,0.0,0.0,0.0,0.0,0.0,0.0,0.0,0.0,0.0,movePosX2D
