,00_accX,00_accY,00_accZ,00_gyroX,00_gyroY,00_gyroZ,01_accX,01_accY,01_accZ,01_gyroX,01_gyroY,01_gyroZ,02_accX,02_accY,02_accZ,02_gyroX,02_gyroY,02_gyroZ,03_accX,03_accY,03_accZ,03_gyroX,03_gyroY,03_gyroZ,04_accX,04_accY,04_accZ,04_gyroX,04_gyroY,04_gyroZ,05_accX,05_accY,05_accZ,05_gyroX,05_gyroY,05_gyroZ,06_accX,06_accY,06_accZ,06_gyroX,06_gyroY,06_gyroZ,07_accX,07_accY,07_accZ,07_gyroX,07_gyroY,07_gyroZ,08_accX,08_accY,08_accZ,08_gyroX,08_gyroY,08_gyroZ,09_accX,09_accY,09_accZ,09_gyroX,09_gyroY,09_gyroZ,10_accX,10_accY,10_accZ,10_gyroX,10_gyroY,10_gyroZ,11_accX,11_accY,11_accZ,11_gyroX,11_gyroY,11_gyroZ,12_accX,12_accY,12_accZ,12_gyroX,12_gyroY,12_gyroZ,13_accX,13_accY,13_accZ,13_gyroX,13_gyroY,13_gyroZ,14_accX,14_accY,14_accZ,14_gyroX,14_gyroY,14_gyroZ,15_accX,15_accY,15_accZ,15_gyroX,15_gyroY,15_gyroZ,16_accX,16_accY,16_accZ,16_gyroX,16_gyroY,16_gyroZ,17_accX,17_accY,17_accZ,17_gyroX,17_gyroY,17_gyroZ,18_accX,18_accY,18_accZ,18_gyroX,18_gyroY,18_gyroZ,19_accX,19_accY,19_accZ,19_gyroX,19_gyroY,19_gyroZ,20_accX,20_accY,20_accZ,20_gyroX,20_gyroY,20_gyroZ,21_accX,21_accY,21_accZ,21_gyroX,21_gyroY,21_gyroZ,22_accX,22_accY,22_accZ,22_gyroX,22_gyroY,22_gyroZ,23_accX,23_accY,23_accZ,23_gyroX,23_gyroY,23_gyroZ,24_accX,24_accY,24_accZ,24_gyroX,24_gyroY,24_gyroZ,25_accX,25_accY,25_accZ,25_gyroX,25_gyroY,25_gyroZ,26_accX,26_accY,26_accZ,26_gyroX,26_gyroY,26_gyroZ,27_accX,27_accY,27_accZ,27_gyroX,27_gyroY,27_gyroZ,28_accX,28_accY,28_accZ,28_gyroX,28_gyroY,28_gyroZ,29_accX,29_accY,29_accZ,29_gyroX,29_gyroY,29_gyroZ,30_accX,30_accY,30_accZ,30_gyroX,30_gyroY,30_gyroZ,31_accX,31_accY,31_accZ,31_gyroX,31_gyroY,31_gyroZ,32_accX,32_accY,32_accZ,32_gyroX,32_gyroY,32_gyroZ,33_accX,33_accY,33_accZ,33_gyroX,33_gyroY,33_gyroZ,34_accX,34_accY,34_accZ,34_gyroX,34_gyroY,34_gyroZ,35_accX,35_accY,35_accZ,35_gyroX,35_gyroY,35_gyroZ,36_accX,36_accY,36_accZ,36_gyroX,36_gyroY,36_gyroZ,37_accX,37_accY,37_accZ,37_gyroX,37_gyroY,37_gyroZ,38_accX,38_accY,38_accZ,38_gyroX,38_gyroY,38_gyroZ,39_accX,39_accY,39_accZ,39_gyroX,39_gyroY,39_gyroZ,40_accX,40_accY,40_accZ,40_gyroX,40_gyroY,40_gyroZ,41_accX,41_accY,41_accZ,41_gyroX,41_gyroY,41_gyroZ,42_accX,42_accY,42_accZ,42_gyroX,42_gyroY,42_gyroZ,43_accX,43_accY,43_accZ,43_gyroX,43_gyroY,43_gyroZ,44_accX,44_accY,44_accZ,44_gyroX,44_gyroY,44_gyroZ,45_accX,45_accY,45_accZ,45_gyroX,45_gyroY,45_gyroZ,46_accX,46_accY,46_accZ,46_gyroX,46_gyroY,46_gyroZ,47_accX,47_accY,47_accZ,47_gyroX,47_gyroY,47_gyroZ,48_accX,48_accY,48_accZ,48_gyroX,48_gyroY,48_gyroZ,49_accX,49_accY,49_accZ,49_gyroX,49_gyroY,49_gyroZ,50_accX,50_accY,50_accZ,50_gyroX,50_gyroY,50_gyroZ,51_accX,51_accY,51_accZ,51_gyroX,51_gyroY,51_gyroZ,52_accX,52_accY,52_accZ,52_gyroX,52_gyroY,52_gyroZ,53_accX,53_accY,53_accZ,53_gyroX,53_gyroY,53_gyroZ,54_accX,54_accY,54_accZ,54_gyroX,54_gyroY,54_gyroZ,55_accX,55_accY,55_accZ,55_gyroX,55_gyroY,55_gyroZ,56_accX,56_accY,56_accZ,56_gyroX,56_gyroY,56_gyroZ,57_accX,57_accY,57_accZ,57_gyroX,57_gyroY,57_gyroZ,58_accX,58_accY,58_accZ,58_gyroX,58_gyroY,58_gyroZ,59_accX,59_accY,59_accZ,59_gyroX,59_gyroY,59_gyroZ,60_accX,60_accY,60_accZ,60_gyroX,60_gyroY,60_gyroZ,61_accX,61_accY,61_accZ,61_gyroX,61_gyroY,61_gyroZ,62_accX,62_accY,62_accZ,62_gyroX,62_gyroY,62_gyroZ,63_accX,63_accY,63_accZ,63_gyroX,63_gyroY,63_gyroZ,64_accX,64_accY,64_accZ,64_gyroX,64_gyroY,64_gyroZ,65_accX,65_accY,65_accZ,65_gyroX,65_gyroY,65_gyroZ,66_accX,66_accY,66_accZ,66_gyroX,66_gyroY,66_gyroZ,67_accX,67_accY,67_accZ,67_gyroX,67_gyroY,67_gyroZ,68_accX,68_accY,68_accZ,68_gyroX,68_gyroY,68_gyroZ,69_accX,69_accY,69_accZ,69_gyroX,69_gyroY,69_gyroZ,70_accX,70_accY,70_accZ,70_gyroX,70_gyroY,70_gyroZ,71_accX,71_accY,71_accZ,71_gyroX,71_gyroY,71_gyroZ,72_accX,72_accY,72_accZ,72_gyroX,72_gyroY,72_gyroZ,73_accX,73_accY,73_accZ,73_gyroX,73_gyroY,73_gyroZ,74_accX,74_accY,74_accZ,74_gyroX,74_gyroY,74_gyroZ,75_accX,75_accY,75_accZ,75_gyroX,75_gyroY,75_gyroZ,76_accX,76_accY,76_accZ,76_gyroX,76_gyroY,76_gyroZ,77_accX,77_accY,77_accZ,77_gyroX,77_gyroY,77_gyroZ,78_accX,78_accY,78_accZ,78_gyroX,78_gyroY,78_gyroZ,79_accX,79_accY,79_accZ,79_gyroX,79_gyroY,79_gyroZ,category
0,-3.111111111111111,0.0,-2.7411477411477403,-0.625,0.0,1.0625,-3.6703296703296697,0.0,-3.2991452991452985,-0.59375,-0.5625,1.3125,-2.6227106227106227,-0.8253968253968254,-3.4346764346764345,-0.90625,0.0,1.53125,-2.3724053724053724,-0.7509157509157509,-2.6166056166056166,-1.03125,-0.78125,1.6875,-2.1721611721611715,-0.873015873015873,-2.1770451770451764,-0.96875,-0.71875,1.78125,-2.5384615384615383,-0.6935286935286935,-1.982905982905983,-1.0625,-0.625,1.875,-2.9401709401709404,-0.5347985347985348,-1.3308913308913308,-1.21875,-0.625,2.03125,-2.242979242979243,-0.5787545787545788,0.0,-1.1875,-0.65625,2.1875,-0.5067155067155067,-2.075702075702076,0.0,-1.0625,-1.09375,2.34375,-1.4896214896214897,-1.7594627594627594,0.0,-1.09375,-1.4375,2.34375,-2.0183150183150182,-1.6312576312576312,-0.557997557997558,-0.9375,-0.9375,2.46875,0.0,-2.537240537240537,0.0,-0.875,-0.71875,2.59375,-0.5213675213675214,-3.175824175824176,0.0,-0.71875,-1.1875,2.6875,-2.4017094017094016,-2.769230769230769,-1.8388278388278387,-0.625,-0.84375,2.6875,-3.4725274725274726,-2.3064713064713063,-2.6446886446886446,-0.53125,0.0,2.8125,-1.57997557997558,-3.7875457875457874,-1.7142857142857142,-0.5625,0.0,3.34375,0.6825396825396826,-5.802197802197803,0.0,-0.78125,-1.34375,3.4375,1.4383394383394383,-5.429792429792429,0.0,-0.53125,-1.03125,3.28125,1.7789987789987791,-5.479853479853481,0.0,0.0,0.0,2.6875,2.9743589743589745,-5.6300366300366305,-0.9914529914529916,-0.65625,0.0,2.25,2.927960927960928,-4.705738705738706,-0.8058608058608059,-0.96875,-0.9375,2.125,1.5897435897435896,-3.6166056166056166,0.0,-0.84375,-1.03125,2.0625,0.9365079365079364,-3.68009768009768,-1.2857142857142858,-0.71875,-0.65625,2.03125,1.7142857142857142,-3.42002442002442,-1.2527472527472527,-0.59375,-0.5625,2.0,1.8864468864468864,-3.1648351648351647,-0.9633699633699634,-0.59375,0.0,1.75,2.086691086691087,-2.623931623931624,0.0,-0.625,0.0,1.59375,1.0940170940170941,-2.36019536019536,0.0,0.0,0.0,1.5,0.0,-2.1465201465201464,0.0,0.0,0.0,1.78125,1.9694749694749696,-2.7399267399267404,0.5946275946275946,0.0,0.0,1.75,1.21001221001221,-2.2698412698412698,1.2234432234432235,0.0,0.0,1.59375,0.0,-1.242979242979243,1.9413919413919407,0.0,0.0,1.625,0.7594627594627594,-1.5848595848595848,2.6324786324786325,0.0,0.0,1.78125,4.962148962148962,-3.484737484737485,1.5409035409035412,0.0,-0.8125,1.59375,3.123321123321124,-3.0268620268620268,0.0,0.0,-1.1875,1.125,0.0,-1.7167277167277166,-0.6776556776556777,0.0,0.0,1.09375,2.9206349206349205,-1.971916971916972,0.0,0.0,0.0,1.1875,6.1330891330891335,-2.2844932844932844,0.5958485958485958,0.0,0.0,0.84375,2.627594627594628,-1.875457875457876,-1.0976800976800978,0.0,0.0,0.0,1.6923076923076923,-0.873015873015873,0.0,0.0,0.6875,0.53125,4.291819291819292,-0.6678876678876678,1.247863247863248,0.0,0.0,0.0,1.811965811965812,0.0,0.0,0.0,0.0,0.0,0.6520146520146519,0.0,-0.8192918192918193,0.0,0.65625,0.0,1.5775335775335777,-0.5323565323565324,0.0,0.0,0.0,0.0,0.0,0.0,0.0,0.0,0.0,0.0,-0.757020757020757,0.0,0.0,0.0,0.0,0.0,0.0,0.0,0.0,0.0,0.0,0.0,0.0,0.0,0.6190476190476191,0.0,0.0,0.0,-1.691086691086691,0.0,0.0,0.0,0.0,0.0,-1.2356532356532357,0.0,0.0,0.0,0.0,0.0,0.0,-0.9181929181929182,0.0,0.0,0.0,0.0,1.3052503052503053,-1.9316239316239319,0.0,0.0,0.0,0.0,0.0,0.0,0.0,0.0,0.0,0.0,0.0,0.0,0.0,0.0,0.0,0.0,0.0,0.0,0.0,0.0,0.0,0.0,0.0,0.0,0.0,0.0,0.0,0.0,0.0,0.0,0.0,0.0,0.0,0.0,0.0,0.0,0.0,0.0,0.0,0.0,0.0,0.0,0.0,0.0,0.0,0.0,0.0,0.0,0.0,0.0,0.0,0.0,0.0,0.0,0.0,0.0,0.0,0.0,0.0,0.0,0.0,0.0,0.0,0.0,0.0,0.0,0.0,0.0,0.0,0.0,0.0,0.0,0.0,0.0,0.0,0.0,0.0,0.0,0.0,0.0,0.0,0.0,0.0,0.0,0.0,0.0,0.0,0.0,0.0,0.0,0.0,0.0,0.0,0.0,0.0,0.0,0.0,0.0,0.0,0.0,0.0,0.0,0.0,0.0,0.0,0.0,0.0,0.0,0.0,0.0,0.0,0.0,0.0,0.0,0.0,0.0,0.0,0.0,0.0,0.0,0.0,0.0,0.0,0.0,0.0,0.0,0.0,0.0,0.0,0.0,0.0,0.0,0.0,0.0,0.0,0.0,0.0,0.0,0.0,0.0,0.0,0.0,0.0,0.0,0.0,0.0,0.0,0.0,0.0,0.0,0.0,0.0,0.0,0.0,0.0,0.0,0.0,0.0,0.0,0.0,0.0,0.0,0.0,0.0,0.0,0.0,0.0,0.0,0.0,0.0,0.0,0.0,0.0,0.0,0.0,0.0,0.0,0.0,swingAndPointForward
1,-0.9804639804639804,0.0,-1.2783882783882785,0.0,0.0,0.0,0.0,0.0,0.0,0.0,0.0,0.0,0.0,0.5531135531135531,0.0,0.0,0.0,0.0,-0.8192918192918193,-0.7240537240537241,-0.9768009768009768,0.0,0.0,0.0,0.0,-0.5311355311355311,-0.8290598290598291,0.0,0.0,0.0,-0.6544566544566545,0.0,-1.028083028083028,0.0,0.0,0.0,-1.6007326007326008,0.0,-1.5054945054945057,-0.53125,0.0,0.625,-1.9926739926739927,0.9145299145299144,-1.2283272283272284,0.0,0.0,0.78125,-2.9536019536019538,0.0,-2.0525030525030523,0.0,0.0,0.9375,-3.0305250305250304,0.0,-3.295482295482296,-0.65625,0.0,1.125,-2.374847374847375,0.0,-2.879120879120879,-0.78125,-0.625,1.375,-3.604395604395605,0.0,-2.89010989010989,-0.71875,0.0,1.53125,-4.857142857142857,0.0,-3.1074481074481075,-0.59375,0.0,1.75,-3.888888888888889,-0.6923076923076923,-2.8693528693528694,-0.75,0.0,2.0625,-1.6007326007326008,-2.299145299145299,-2.5763125763125765,-1.4375,-1.03125,2.3125,-1.947496947496948,-2.4822954822954824,-2.649572649572649,-1.65625,-1.125,2.4375,-1.938949938949939,-1.7484737484737485,-2.0366300366300365,-1.1875,0.0,2.28125,-1.6398046398046398,-1.6837606837606838,-1.7973137973137974,-0.8125,0.0,2.15625,0.0,-3.0537240537240535,-1.915750915750916,-1.1875,0.0,2.28125,1.4334554334554337,-3.1978021978021984,-0.9133089133089132,-1.84375,-1.5625,2.28125,-0.8229548229548229,-1.4529914529914532,0.0,-1.5,-1.40625,2.25,-1.9426129426129424,-0.9877899877899878,0.0,-0.65625,-0.53125,2.34375,-1.0463980463980465,-1.5054945054945057,1.0573870573870574,0.0,0.0,2.3125,0.0,-2.772893772893773,0.6422466422466423,0.0,0.0,2.375,0.0,-3.295482295482296,0.0,-0.71875,-0.875,2.34375,0.0,-3.7142857142857135,0.0,-0.90625,-1.21875,2.3125,0.0,-3.3992673992673987,0.6410256410256411,-0.59375,-1.03125,2.1875,0.0,-2.971916971916972,0.5067155067155067,0.0,0.0,2.15625,0.0,-3.7020757020757022,-0.6080586080586079,0.0,0.0,2.09375,0.6910866910866911,-3.245421245421245,0.0,-0.71875,-0.75,2.03125,-0.8144078144078144,-2.358974358974359,0.0,-0.59375,-0.59375,2.09375,0.0,-2.8815628815628815,1.177045177045177,0.0,0.0,2.25,1.2820512820512822,-3.796092796092797,1.435897435897436,0.0,0.0,2.21875,0.0,-3.4481074481074483,0.9755799755799756,0.0,-0.5625,1.96875,0.0,-3.457875457875458,0.0,0.0,0.0,2.125,2.831501831501832,-4.046398046398046,0.0,0.0,0.0,2.1875,3.2551892551892547,-4.615384615384615,-0.8742368742368742,0.0,0.0,1.875,1.42002442002442,-3.5128205128205128,-2.1025641025641018,0.0,0.0,1.5625,2.7216117216117217,-2.9536019536019538,-1.1404151404151404,0.0,0.0,1.75,4.3699633699633695,-2.5946275946275947,1.0012210012210012,0.0,0.0,1.71875,3.1135531135531136,-2.5042735042735043,1.0683760683760684,0.0,0.0,1.5,1.9975579975579976,-1.47985347985348,0.7142857142857143,0.0,0.0,1.28125,4.245421245421245,-1.6459096459096458,0.6715506715506715,0.0,0.0,1.21875,4.568986568986569,-1.568986568986569,0.8363858363858364,0.0,0.0,0.90625,1.9804639804639803,-1.0671550671550671,0.0,0.0,-0.6875,0.625,1.271062271062271,-0.9230769230769232,0.0,0.0,0.0,0.625,1.8669108669108667,0.0,0.5103785103785103,0.0,0.0,0.6875,1.8583638583638584,0.0,0.0,0.0,0.0,0.5625,1.0012210012210012,0.0,-0.6825396825396826,0.0,0.0,0.53125,1.9181929181929185,-0.6068376068376068,0.0,0.0,0.0,0.0,2.2466422466422467,-0.5714285714285714,0.0,0.0,0.0,0.0,0.8705738705738706,0.0,-1.0622710622710625,0.0,0.0,0.0,1.0329670329670328,0.0,-0.7350427350427351,0.0,0.0,0.0,1.8510378510378511,-0.5677655677655677,0.0,0.0,0.0,0.0,2.0671550671550682,-1.2368742368742371,0.0,0.0,0.0,0.0,0.0,0.0,0.0,0.0,0.0,0.0,0.0,0.0,0.0,0.0,0.0,0.0,0.0,0.0,0.0,0.0,0.0,0.0,0.0,0.0,0.0,0.0,0.0,0.0,0.0,0.0,0.0,0.0,0.0,0.0,0.0,0.0,0.0,0.0,0.0,0.0,0.0,0.0,0.0,0.0,0.0,0.0,0.0,0.0,0.0,0.0,0.0,0.0,0.0,0.0,0.0,0.0,0.0,0.0,0.0,0.0,0.0,0.0,0.0,0.0,0.0,0.0,0.0,0.0,0.0,0.0,0.0,0.0,0.0,0.0,0.0,0.0,0.0,0.0,0.0,0.0,0.0,0.0,0.0,0.0,0.0,0.0,0.0,0.0,0.0,0.0,0.0,0.0,0.0,0.0,0.0,0.0,0.0,0.0,0.0,0.0,0.0,0.0,0.0,0.0,0.0,0.0,0.0,0.0,0.0,0.0,0.0,0.0,0.0,0.0,0.0,0.0,0.0,0.0,0.0,0.0,0.0,0.0,0.0,0.0,0.0,0.0,0.0,0.0,0.0,0.0,0.0,0.0,0.0,0.0,0.0,0.0,0.0,0.0,0.0,0.0,0.0,0.0,0.0,0.0,0.0,0.0,0.0,0.0,0.0,0.0,0.0,0.0,0.0,0.0,swingAndPointForward
2,0.0,0.0,0.0,0.0,0.0,0.0,0.0,0.0,0.0,1.0625,0.5625,0.0,0.0,-0.7020757020757019,0.0,0.84375,0.0,0.0,0.0,-0.8034188034188035,-0.5567765567765568,0.0,0.0,0.0,-1.0268620268620268,0.0,0.0,0.0,0.0,0.0,-1.6727716727716728,0.0,-0.78998778998779,0.0,0.0,0.0,-1.2417582417582418,-1.017094017094017,-1.565323565323565,0.0,0.0,0.53125,-1.3418803418803418,0.0,-1.247863247863248,0.0,0.0,0.625,-1.4041514041514038,0.0,-1.4542124542124542,0.0,0.0,0.90625,-1.0512820512820509,-0.5714285714285714,-1.824175824175824,0.0,0.0,1.0,-2.326007326007326,0.0,-1.6483516483516485,-0.53125,0.0,1.0625,-3.664224664224663,0.0,-1.3003663003663004,0.0,0.0,1.1875,-3.351648351648352,0.0,-1.0329670329670328,0.0,0.0,1.5,-3.120879120879121,-0.6715506715506715,-1.3333333333333333,0.0,0.0,1.78125,-2.768009768009768,-1.8717948717948716,-2.4053724053724053,0.0,0.0,1.96875,-0.9474969474969476,-2.5677655677655684,-2.2612942612942613,-0.84375,0.0,2.0625,-0.5628815628815629,-2.1611721611721606,-1.2466422466422469,-1.0,0.0,2.09375,-1.7435897435897436,-1.656898656898657,-0.8009768009768009,-0.84375,0.0,2.125,-1.843711843711844,-1.6336996336996337,0.0,-0.59375,0.0,2.25,-1.3125763125763126,-1.8998778998778998,0.0,-0.65625,0.0,2.40625,-1.4383394383394383,-1.73992673992674,0.0,-0.65625,0.0,2.4375,-1.7851037851037852,-1.8363858363858363,-0.5115995115995116,-0.625,0.0,2.5625,-1.507936507936508,-2.2649572649572653,0.0,-0.625,0.0,2.6875,0.0,-2.4420024420024418,0.0,0.0,0.0,2.625,0.0,-3.4505494505494507,0.0,-0.53125,0.0,2.53125,0.0,-3.84981684981685,-1.592185592185592,-0.84375,0.0,2.34375,1.1294261294261294,-3.3162393162393164,-0.9926739926739928,-0.8125,-0.59375,2.46875,-0.6568986568986569,-3.0293040293040288,-1.175824175824176,0.0,-1.03125,2.6875,-0.9536019536019535,-3.763125763125763,-1.3931623931623929,0.0,0.0,2.78125,0.0,-4.070818070818072,-0.905982905982906,0.0,0.0,2.6875,0.0,-3.4493284493284486,0.0,-0.59375,0.0,2.625,0.0,-3.5274725274725283,1.2576312576312576,0.0,0.0,2.6875,0.0,-4.05982905982906,1.021978021978022,0.0,0.0,2.625,0.7081807081807082,-4.457875457875458,0.7094017094017094,0.0,0.0,2.53125,1.4151404151404152,-4.3418803418803416,1.1086691086691087,0.0,0.0,2.46875,0.8131868131868132,-3.871794871794872,0.9401709401709402,0.0,0.0,2.375,0.7606837606837606,-4.21001221001221,0.0,0.0,0.0,2.46875,2.133089133089133,-4.608058608058609,0.0,0.0,0.0,2.375,1.7936507936507935,-3.4053724053724053,0.8229548229548229,0.0,0.0,2.09375,1.0903540903540905,-3.1404151404151404,0.0,0.0,0.0,2.125,2.9804639804639805,-3.844932844932845,0.0,0.0,0.0,2.125,5.566544566544566,-3.2063492063492065,0.6019536019536019,0.0,0.0,1.75,4.807081807081807,-2.103785103785104,0.63003663003663,0.0,0.0,1.1875,1.8852258852258847,-1.557997557997558,-1.078144078144078,0.0,-0.53125,1.0625,2.807081807081807,-1.2893772893772897,0.0,0.0,0.0,1.28125,5.735042735042735,-1.6251526251526252,0.0,0.0,0.0,1.0,4.122100122100122,-0.5628815628815629,0.0,0.0,-0.53125,0.53125,2.245421245421245,-0.5201465201465202,0.0,0.0,-0.71875,0.0,1.962148962148962,-1.2539682539682542,-0.5726495726495726,0.0,0.0,0.0,2.192918192918193,-0.5054945054945055,0.0,0.0,0.0,0.0,1.8461538461538465,0.0,0.0,0.0,0.0,0.0,0.0,0.0,0.0,0.0,0.0,0.0,0.7228327228327228,0.0,0.7777777777777778,0.0,0.0,0.0,0.7838827838827839,-0.5262515262515263,0.0,0.0,0.0,0.0,0.0,0.0,-0.5787545787545788,0.0,0.0,0.0,0.8547008547008547,0.0,0.0,0.0,0.0,0.0,0.0,0.0,0.0,0.0,0.0,0.0,0.0,0.0,0.0,0.0,0.0,0.0,0.0,0.0,0.0,0.0,0.0,0.0,0.0,0.0,0.0,0.0,0.0,0.0,0.0,0.0,0.0,0.0,0.0,0.0,0.0,0.0,0.0,0.0,0.0,0.0,0.0,0.0,0.0,0.0,0.0,0.0,0.0,0.0,0.0,0.0,0.0,0.0,0.0,0.0,0.0,0.0,0.0,0.0,0.0,0.0,0.0,0.0,0.0,0.0,0.0,0.0,0.0,0.0,0.0,0.0,0.0,0.0,0.0,0.0,0.0,0.0,0.0,0.0,0.0,0.0,0.0,0.0,0.0,0.0,0.0,0.0,0.0,0.0,0.0,0.0,0.0,0.0,0.0,0.0,0.0,0.0,0.0,0.0,0.0,0.0,0.0,0.0,0.0,0.0,0.0,0.0,0.0,0.0,0.0,0.0,0.0,0.0,0.0,0.0,0.0,0.0,0.0,0.0,0.0,0.0,0.0,0.0,0.0,0.0,0.0,0.0,0.0,0.0,0.0,0.0,0.0,0.0,0.0,0.0,0.0,0.0,0.0,0.0,0.0,0.0,0.0,0.0,0.0,0.0,0.0,0.0,0.0,0.0,swingAndPointForward
3,-1.7094017094017089,0.0,0.0,0.0,0.0,0.0,-2.131868131868132,0.0,-0.6678876678876678,0.0,0.0,0.625,-1.010989010989011,0.0,0.0,0.0,0.0,0.84375,-0.7423687423687424,0.0,0.0,0.0,0.0,1.0,-1.3186813186813189,0.0,0.0,0.0,0.0,1.15625,-1.1477411477411477,-1.0708180708180708,-1.0671550671550671,0.0,0.0,1.28125,-1.876678876678877,-1.5763125763125765,-2.385836385836386,0.0,0.0,1.21875,-1.8742368742368745,-1.7851037851037852,-3.0256410256410247,-0.78125,0.0,1.3125,-2.155067155067155,-1.0525030525030523,-2.241758241758242,-1.03125,0.0,1.4375,-3.2026862026862037,-0.6532356532356532,-1.536019536019536,-0.90625,0.0,1.75,-2.7240537240537246,-1.3174603174603174,-1.3125763125763126,-0.78125,0.0,1.96875,-1.9413919413919407,-2.1721611721611715,-1.5848595848595848,-0.8125,0.0,2.03125,-1.0463980463980465,-2.47008547008547,-1.5262515262515262,-0.96875,0.0,2.09375,0.0,-2.010989010989011,0.0,-0.875,-0.59375,2.25,-1.0451770451770452,-2.4310134310134317,-0.757020757020757,-0.5625,0.0,2.375,0.0,-2.7606837606837606,-1.463980463980464,0.0,0.0,2.40625,0.0,-2.8021978021978016,-1.3443223443223444,0.0,0.0,2.34375,0.7887667887667887,-2.374847374847375,-0.6398046398046398,-0.75,0.0,2.28125,0.0,-1.7448107448107448,-0.5848595848595849,-0.71875,0.0,2.21875,-0.7484737484737485,-2.2002442002442004,-1.0476190476190477,0.0,0.0,2.28125,0.0,-2.7814407814407813,-0.7863247863247863,-0.625,0.0,2.25,0.0,-2.3492063492063493,0.0,-1.0,0.0,2.0625,-0.9267399267399268,-1.7142857142857142,0.5897435897435898,-1.0,-0.59375,1.96875,0.0,-2.562881562881563,0.0,-0.6875,0.0,2.1875,0.8095238095238095,-3.0525030525030523,0.0,-0.53125,0.0,2.3125,1.8205128205128205,-3.3882783882783882,0.525030525030525,-0.5625,0.0,2.28125,0.7728937728937729,-2.7362637362637363,0.0,-0.5625,-0.53125,2.15625,0.0,-2.2014652014652016,0.57997557997558,0.0,0.0,2.125,0.0,-2.175824175824176,0.8864468864468864,0.0,0.0,2.1875,0.0,-2.8693528693528694,0.8021978021978022,0.0,0.0,2.34375,0.0,-3.0390720390720385,0.5787545787545788,0.0,0.0,2.3125,0.0,-2.771672771672772,0.8840048840048841,0.0,0.0,2.15625,0.7460317460317459,-2.7106227106227108,0.9401709401709402,0.0,0.0,2.15625,0.0,-2.960927960927961,0.0,0.0,0.0,2.28125,1.1733821733821734,-3.505494505494505,0.0,0.0,0.0,2.21875,2.9023199023199022,-2.8925518925518925,0.8522588522588522,0.0,0.0,2.0,3.7533577533577533,-2.603174603174604,1.4603174603174602,0.0,0.0,1.75,1.5506715506715507,-2.358974358974359,0.0,0.0,-0.875,1.71875,1.2539682539682542,-2.32967032967033,-1.5409035409035412,0.0,0.0,1.75,3.9365079365079363,-2.3956043956043955,-0.9951159951159952,0.0,0.0,1.46875,4.750915750915751,-1.7228327228327232,0.0,0.0,0.0,1.0625,2.855921855921856,-1.0573870573870574,-0.6263736263736264,0.0,0.0,0.90625,3.2234432234432235,-1.164835164835165,-0.5543345543345544,0.0,0.0,0.78125,3.0305250305250304,-1.3345543345543345,-0.6471306471306472,0.0,0.0,0.0,2.5042735042735043,0.0,0.0,0.0,0.0,0.0,2.3565323565323566,0.0,1.1465201465201464,0.0,0.0,0.0,1.2564102564102564,0.0,0.0,0.0,0.0,0.0,0.0,0.0,0.0,0.0,0.0,0.0,0.0,0.0,0.0,0.0,0.0,0.0,1.0146520146520146,0.0,0.0,0.0,0.53125,0.0,1.9047619047619049,0.0,0.0,0.0,0.0,0.0,1.3650793650793651,0.0,0.0,0.0,0.0,0.0,0.0,0.0,0.0,0.0,0.0,0.0,0.0,0.0,0.0,0.0,0.0,0.0,0.0,0.0,0.0,0.0,0.0,0.0,0.0,0.0,0.0,0.0,0.0,0.0,0.0,0.0,0.0,0.0,0.0,0.0,0.0,0.0,0.0,0.0,0.0,0.0,0.0,0.0,0.0,0.0,0.0,0.0,0.0,0.0,0.0,0.0,0.0,0.0,0.0,0.0,0.0,0.0,0.0,0.0,0.0,0.0,0.0,0.0,0.0,0.0,0.0,0.0,0.0,0.0,0.0,0.0,0.0,0.0,0.0,0.0,0.0,0.0,0.0,0.0,0.0,0.0,0.0,0.0,0.0,0.0,0.0,0.0,0.0,0.0,0.0,0.0,0.0,0.0,0.0,0.0,0.0,0.0,0.0,0.0,0.0,0.0,0.0,0.0,0.0,0.0,0.0,0.0,0.0,0.0,0.0,0.0,0.0,0.0,0.0,0.0,0.0,0.0,0.0,0.0,0.0,0.0,0.0,0.0,0.0,0.0,0.0,0.0,0.0,0.0,0.0,0.0,0.0,0.0,0.0,0.0,0.0,0.0,0.0,0.0,0.0,0.0,0.0,0.0,0.0,0.0,0.0,0.0,0.0,0.0,0.0,0.0,0.0,0.0,0.0,0.0,0.0,0.0,0.0,0.0,0.0,0.0,0.0,0.0,0.0,0.0,0.0,0.0,0.0,0.0,0.0,0.0,0.0,0.0,swingAndPointForward
4,0.0,-0.7521367521367521,-0.6239316239316239,0.0,0.0,0.0,-0.7997557997557998,0.0,-0.6544566544566545,0.0,0.0,0.0,-0.7423687423687424,0.0,-0.5177045177045178,0.0,0.0,0.0,-1.0244200244200243,0.0,-0.9597069597069596,0.0,0.0,0.0,-0.9706959706959708,0.0,-1.2991452991452992,0.0,0.0,0.0,-1.843711843711844,0.0,-0.8217338217338217,-0.6875,0.0,0.0,-2.3015873015873014,0.0,-1.1684981684981686,-0.625,0.0,0.0,-2.8046398046398044,0.0,-1.4090354090354091,-0.8125,0.0,0.65625,-2.71916971916972,0.0,-0.8913308913308914,-0.96875,0.0,0.90625,-2.9401709401709404,0.0,0.0,-0.75,0.0,1.1875,-3.4346764346764345,0.0,0.0,0.0,0.0,1.53125,-3.061050061050061,0.0,0.8559218559218559,0.0,0.0,1.75,-1.9902319902319905,-1.2673992673992671,0.956043956043956,0.0,0.0,1.90625,-1.3125763125763126,-1.3101343101343101,1.0634920634920637,0.0,0.0,2.03125,-2.3455433455433456,-1.3785103785103785,0.0,0.0,0.0,2.125,-2.2551892551892547,-2.086691086691087,-1.2222222222222223,0.0,0.0,2.25,-0.8815628815628815,-2.457875457875458,-1.2393162393162394,0.0,0.0,2.15625,0.0,-2.4334554334554332,-1.133089133089133,0.0,0.0,2.1875,-1.0024420024420024,-1.7985347985347986,-1.4822954822954824,0.0,0.0,2.03125,-1.061050061050061,-1.465201465201465,-1.4786324786324787,0.0,0.0,2.0625,-1.1611721611721613,-1.2857142857142858,-0.8278388278388278,0.0,0.0,2.15625,-1.6971916971916972,-1.7252747252747254,-0.7460317460317459,0.0,0.0,2.1875,-1.3675213675213675,-2.012210012210012,-0.7252747252747253,-0.71875,0.0,2.25,-0.514041514041514,-1.927960927960928,0.0,-0.71875,0.0,2.21875,0.0,-2.311355311355311,0.0,0.0,-0.53125,2.34375,0.0,-3.2185592185592187,-0.9706959706959708,0.0,-0.59375,2.46875,-0.525030525030525,-3.2063492063492065,-1.6263736263736264,0.0,0.0,2.40625,0.0,-2.938949938949939,-1.020757020757021,0.0,0.0,2.34375,0.0,-3.245421245421245,-0.5738705738705738,0.0,0.0,2.3125,0.7765567765567766,-4.122100122100122,0.0,0.0,0.0,2.40625,1.800976800976801,-4.496947496947497,0.0,-0.5625,0.0,2.25,1.91941391941392,-3.971916971916972,0.0,-0.625,0.0,2.0625,1.7191697191697193,-3.5592185592185586,0.0,0.0,0.0,2.09375,1.5274725274725274,-3.240537240537241,0.7118437118437119,0.0,0.0,2.0625,0.8461538461538461,-3.474969474969475,0.0,0.0,0.0,1.96875,1.247863247863248,-3.608058608058608,0.0,0.0,0.0,1.90625,2.6300366300366296,-3.0842490842490844,0.9035409035409036,0.0,0.0,1.9375,3.0964590964590966,-2.8376068376068377,1.5506715506715507,0.0,0.0,1.8125,2.1770451770451764,-2.78998778998779,0.0,0.0,0.0,1.625,1.6678876678876684,-2.5360195360195363,-0.7484737484737485,0.0,0.0,1.53125,3.1587301587301586,-2.4346764346764345,0.0,0.0,0.0,1.40625,3.65079365079365,-1.5848595848595848,0.9755799755799756,0.0,0.0,1.21875,2.688644688644689,-1.1245421245421243,1.387057387057387,0.0,0.0,1.09375,2.0915750915750917,-1.242979242979243,0.8815628815628815,0.0,0.0,0.90625,2.034188034188034,-0.9572649572649572,0.7838827838827839,0.0,0.0,0.8125,2.123321123321124,-0.6214896214896215,0.6520146520146519,0.0,0.0,0.75,1.3943833943833943,0.0,0.0,0.0,0.0,0.6875,1.825396825396825,-0.5054945054945055,0.0,0.0,0.0,0.59375,1.804639804639805,-0.6483516483516484,0.0,0.0,0.0,0.0,0.9389499389499392,0.0,0.0,0.0,0.0,0.0,0.912087912087912,0.0,0.0,0.0,0.0,0.0,0.0,0.0,-0.7838827838827839,0.0,0.0,0.0,0.5445665445665445,0.0,-0.6459096459096461,0.0,0.0,0.0,1.7228327228327232,0.0,0.0,0.0,0.0,0.0,0.0,0.0,0.0,0.0,0.0,0.0,0.0,0.0,0.0,0.0,0.0,0.0,0.0,0.0,0.0,0.0,0.0,0.0,0.0,0.0,0.0,0.0,0.0,0.0,0.0,0.0,0.0,0.0,0.0,0.0,0.0,0.0,0.0,0.0,0.0,0.0,0.0,0.0,0.0,0.0,0.0,0.0,0.0,0.0,0.0,0.0,0.0,0.0,0.0,0.0,0.0,0.0,0.0,0.0,0.0,0.0,0.0,0.0,0.0,0.0,0.0,0.0,0.0,0.0,0.0,0.0,0.0,0.0,0.0,0.0,0.0,0.0,0.0,0.0,0.0,0.0,0.0,0.0,0.0,0.0,0.0,0.0,0.0,0.0,0.0,0.0,0.0,0.0,0.0,0.0,0.0,0.0,0.0,0.0,0.0,0.0,0.0,0.0,0.0,0.0,0.0,0.0,0.0,0.0,0.0,0.0,0.0,0.0,0.0,0.0,0.0,0.0,0.0,0.0,0.0,0.0,0.0,0.0,0.0,0.0,0.0,0.0,0.0,0.0,0.0,0.0,0.0,0.0,0.0,0.0,0.0,0.0,0.0,0.0,0.0,0.0,0.0,0.0,0.0,0.0,0.0,0.0,0.0,0.0,0.0,0.0,0.0,0.0,0.0,0.0,0.0,0.0,0.0,0.0,0.0,0.0,swingAndPointForward
5,-1.6251526251526252,-0.6031746031746031,-1.3296703296703296,0.0,0.0,0.0,-1.7448107448107448,-0.7936507936507936,-1.8058608058608057,0.0,0.0,0.0,-1.2234432234432235,-0.9010989010989012,-2.380952380952381,0.0,0.0,0.53125,-1.8852258852258847,-0.7851037851037851,-2.4053724053724053,-0.65625,0.0,0.8125,-3.0891330891330893,0.0,-1.877899877899878,-0.8125,0.0,1.0,-2.1941391941391943,-0.7252747252747253,-2.1172161172161172,-0.625,0.0,1.28125,-1.4932844932844933,-1.1611721611721613,-2.455433455433456,-1.0625,0.0,1.46875,-2.2246642246642248,-0.6520146520146519,-1.9169719169719168,-1.46875,0.0,1.5,-2.6446886446886446,0.0,0.0,-1.28125,0.0,1.53125,-1.7155067155067154,-0.8449328449328449,0.0,-0.65625,0.0,1.6875,-1.4993894993894994,-1.3846153846153846,-0.978021978021978,-0.59375,0.0,1.8125,-1.525030525030525,-1.3040293040293038,-0.7960927960927959,-0.71875,0.0,1.90625,-1.6385836385836383,-1.4053724053724053,0.0,-0.6875,0.0,2.03125,-1.8192918192918195,-1.4297924297924298,0.0,-0.65625,0.0,2.09375,0.0,-1.8229548229548236,0.0,-0.65625,0.0,2.25,0.0,-1.94993894993895,0.0,-0.90625,-0.84375,2.34375,-1.0256410256410255,-1.3516483516483515,0.9853479853479854,-0.8125,-1.125,2.28125,-1.4029304029304028,-1.7789987789987791,0.7167277167277167,0.0,0.0,2.3125,0.0,-3.311355311355311,0.0,0.0,0.0,2.4375,2.483516483516484,-4.284493284493284,0.0,0.0,0.0,2.53125,1.0293040293040292,-3.647130647130647,0.0,-0.71875,-0.90625,2.25,0.0,-2.8021978021978016,0.0,0.0,0.0,2.09375,0.6263736263736264,-2.9816849816849818,0.0,0.0,0.0,2.15625,1.1367521367521367,-3.326007326007326,0.0,0.0,0.0,2.21875,0.0,-3.1477411477411477,0.0,0.0,0.0,2.25,0.0,-3.0805860805860807,0.0,0.0,0.0,2.15625,0.0,-2.9316239316239314,0.8449328449328449,0.0,0.0,2.09375,0.0,-2.7753357753357752,1.1562881562881564,0.0,0.0,2.15625,-0.5921855921855922,-3.47985347985348,0.6776556776556777,0.0,0.0,2.375,1.3308913308913308,-4.311355311355311,0.0,0.0,0.0,2.1875,2.072039072039072,-3.8742368742368734,0.6129426129426129,0.0,0.0,2.03125,1.4212454212454213,-3.0207570207570207,0.0,0.0,0.0,2.0,1.8376068376068373,-3.227106227106227,0.0,0.0,0.0,2.0,2.5006105006105006,-3.4273504273504267,0.0,0.0,0.0,1.84375,2.347985347985348,-3.0476190476190474,-0.8669108669108669,0.0,0.0,1.65625,2.385836385836386,-2.583638583638584,-0.6666666666666666,0.0,0.0,1.625,3.4810744810744816,-2.3150183150183152,0.0,0.0,0.0,1.5,3.2759462759462763,-2.2124542124542126,0.0,0.0,0.0,1.1875,3.2197802197802203,-1.7264957264957266,0.0,0.0,0.0,1.09375,4.451770451770452,-1.3553113553113554,0.0,0.0,0.0,0.96875,3.0366300366300365,-0.8278388278388278,0.0,0.0,-0.53125,0.78125,1.8180708180708185,-0.6874236874236874,-0.568986568986569,0.0,0.0,0.71875,2.2051282051282053,-0.6495726495726496,0.0,0.0,0.0,0.625,2.6617826617826617,0.0,0.0,0.0,0.0,0.0,1.8962148962148961,-0.5372405372405372,0.0,0.0,0.0,0.0,0.9572649572649572,0.0,-0.5628815628815629,0.0,0.0,0.0,1.2686202686202686,0.0,0.0,0.0,0.0,0.0,1.4212454212454213,0.0,0.0,0.0,0.0,0.0,1.297924297924298,-0.8107448107448108,0.0,0.0,0.0,0.0,0.0,-1.0903540903540905,-0.7912087912087912,-0.625,0.0,0.0,0.0,0.0,0.0,0.0,0.0,0.0,0.0,0.0,0.0,0.0,0.0,0.0,0.0,0.0,0.0,0.0,0.0,0.0,0.0,0.0,0.0,0.0,0.0,0.0,0.0,0.0,0.0,0.0,0.0,0.0,0.0,0.0,0.0,0.0,0.0,0.0,0.0,0.0,0.0,0.0,0.0,0.0,0.0,0.0,0.0,0.0,0.0,0.0,0.0,0.0,0.0,0.0,0.0,0.0,0.0,0.0,0.0,0.0,0.0,0.0,0.0,0.0,0.0,0.0,0.0,0.0,0.0,0.0,0.0,0.0,0.0,0.0,0.0,0.0,0.0,0.0,0.0,0.0,0.0,0.0,0.0,0.0,0.0,0.0,0.0,0.0,0.0,0.0,0.0,0.0,0.0,0.0,0.0,0.0,0.0,0.0,0.0,0.0,0.0,0.0,0.0,0.0,0.0,0.0,0.0,0.0,0.0,0.0,0.0,0.0,0.0,0.0,0.0,0.0,0.0,0.0,0.0,0.0,0.0,0.0,0.0,0.0,0.0,0.0,0.0,0.0,0.0,0.0,0.0,0.0,0.0,0.0,0.0,0.0,0.0,0.0,0.0,0.0,0.0,0.0,0.0,0.0,0.0,0.0,0.0,0.0,0.0,0.0,0.0,0.0,0.0,0.0,0.0,0.0,0.0,0.0,0.0,0.0,0.0,0.0,0.0,0.0,0.0,0.0,0.0,0.0,0.0,0.0,0.0,0.0,0.0,0.0,0.0,0.0,0.0,0.0,0.0,0.0,0.0,0.0,swingAndPointForward
6,0.0,0.5555555555555556,0.0,0.0,0.0,0.0,0.6043956043956044,0.0,0.0,0.59375,0.0,0.0,0.0,0.0,-1.332112332112332,0.0,0.0,0.0,-0.57997557997558,0.0,-1.5189255189255189,0.0,0.0,0.0,-0.7545787545787546,0.0,-0.9902319902319904,-0.65625,0.0,0.0,-1.1306471306471306,0.0,-0.6007326007326007,0.0,0.0,0.0,-1.1001221001221002,0.0,-1.612942612942613,0.0,0.0,0.0,-0.5763125763125763,-0.5738705738705738,-1.95970695970696,-0.5625,0.0,0.65625,-1.4493284493284493,0.0,-1.5323565323565325,-1.0625,0.0,0.6875,-1.91941391941392,0.6495726495726496,-0.5213675213675214,-0.9375,0.0,0.84375,-2.6227106227106227,0.0,-1.0952380952380951,0.0,0.0,1.03125,-3.2185592185592187,0.0,-1.7094017094017089,0.0,0.0,1.1875,-3.0989010989010985,-0.5506715506715507,-1.6324786324786325,-0.71875,0.0,1.3125,-3.1990231990231983,-0.5934065934065934,-1.291819291819292,-0.9375,0.0,1.5,-3.0781440781440783,0.0,-0.7704517704517705,-0.84375,0.0,1.90625,-2.9755799755799757,-0.8461538461538461,-0.7936507936507936,0.0,0.0,2.125,-2.0463980463980462,-1.8632478632478635,-1.1086691086691087,-0.5625,0.0,2.1875,-1.297924297924298,-2.1868131868131866,-0.9291819291819292,-0.875,0.0,2.1875,0.0,-2.184371184371184,0.0,-0.96875,0.0,2.3125,0.0,-2.13064713064713,0.0,-0.9375,-0.84375,2.46875,0.0,-2.3846153846153846,0.0,-0.6875,-1.0625,2.59375,0.0,-3.2124542124542126,-0.5860805860805861,0.0,-0.78125,2.5,1.0158730158730158,-4.15995115995116,-1.5506715506715507,-0.6875,0.0,2.28125,1.5970695970695972,-3.7313797313797314,-1.1575091575091576,-0.78125,0.0,2.1875,1.7741147741147745,-3.3748473748473757,-0.536019536019536,-0.8125,-0.625,2.0625,0.7326007326007326,-2.625152625152625,0.0,-0.75,-0.78125,2.0625,0.0,-2.311355311355311,0.0,-0.5625,-0.5625,2.125,0.0,-2.675213675213675,0.0,0.0,0.0,2.15625,0.5482295482295483,-3.1819291819291817,0.0,-0.53125,0.0,2.1875,0.0,-2.8852258852258847,0.0,-0.65625,0.0,2.03125,0.6068376068376068,-2.0989010989010994,0.7887667887667887,0.0,0.0,2.125,0.9169719169719168,-2.8034188034188032,0.778998778998779,0.0,0.0,2.125,1.363858363858364,-3.340659340659341,0.0,0.0,0.0,2.0625,1.684981684981685,-3.2026862026862037,0.5518925518925519,0.0,0.0,2.0,1.4481074481074483,-2.8974358974358974,0.0,0.0,0.0,1.90625,2.17948717948718,-3.1807081807081805,0.0,0.0,0.0,1.84375,2.5946275946275947,-3.3992673992673987,-0.8168498168498168,0.0,0.0,1.78125,2.2612942612942613,-2.675213675213675,-0.78998778998779,0.0,0.0,1.59375,1.7753357753357752,-1.962148962148962,-0.6642246642246642,0.0,0.0,1.53125,1.5567765567765568,-1.434676434676435,0.0,0.0,0.0,1.59375,1.6056166056166057,-1.5445665445665446,0.0,0.0,0.0,1.53125,2.6092796092796093,-1.3504273504273503,0.0,0.0,0.0,1.375,3.26007326007326,-1.531135531135531,0.0,0.0,0.0,1.125,2.821733821733821,-1.4407814407814408,0.0,0.0,0.0,0.96875,2.0378510378510377,-1.0586080586080586,0.0,0.0,0.0,0.8125,2.1098901098901104,-0.7582417582417582,0.0,0.0,0.0,0.71875,2.1880341880341883,-0.5946275946275946,0.0,0.0,0.0,0.65625,1.5531135531135531,0.0,0.0,0.0,0.0,0.53125,1.2307692307692308,-0.5079365079365079,0.0,0.0,0.0,0.0,1.0146520146520146,0.0,0.0,0.0,0.0,0.0,1.1514041514041513,0.0,0.5225885225885226,0.0,0.0,0.0,1.2442002442002442,-0.5555555555555556,0.0,0.0,0.0,0.0,0.818070818070818,0.0,-0.5201465201465202,0.0,0.0,0.0,0.5702075702075702,-0.6984126984126984,-0.9487179487179488,0.0,0.0,0.0,0.0,0.0,0.0,0.0,0.0,0.0,0.0,0.0,0.0,0.0,0.0,0.0,0.0,0.0,0.0,0.0,0.0,0.0,0.0,0.0,0.0,0.0,0.0,0.0,0.0,0.0,0.0,0.0,0.0,0.0,0.0,0.0,0.0,0.0,0.0,0.0,0.0,0.0,0.0,0.0,0.0,0.0,0.0,0.0,0.0,0.0,0.0,0.0,0.0,0.0,0.0,0.0,0.0,0.0,0.0,0.0,0.0,0.0,0.0,0.0,0.0,0.0,0.0,0.0,0.0,0.0,0.0,0.0,0.0,0.0,0.0,0.0,0.0,0.0,0.0,0.0,0.0,0.0,0.0,0.0,0.0,0.0,0.0,0.0,0.0,0.0,0.0,0.0,0.0,0.0,0.0,0.0,0.0,0.0,0.0,0.0,0.0,0.0,0.0,0.0,0.0,0.0,0.0,0.0,0.0,0.0,0.0,0.0,0.0,0.0,0.0,0.0,0.0,0.0,0.0,0.0,0.0,0.0,0.0,0.0,0.0,0.0,0.0,0.0,0.0,0.0,0.0,0.0,0.0,0.0,0.0,0.0,0.0,0.0,0.0,0.0,0.0,0.0,0.0,0.0,0.0,0.0,0.0,0.0,0.0,0.0,0.0,0.0,0.0,0.0,0.0,0.0,0.0,0.0,0.0,0.0,swingAndPointForward
7,0.0,0.0,0.0,0.0,0.0,0.0,0.0,0.0,0.6910866910866911,0.0,0.0,0.0,0.0,0.0,0.0,0.0,0.0,0.0,-0.6178266178266179,0.0,-0.9108669108669109,0.59375,0.0,0.0,0.0,-0.8009768009768009,-1.343101343101343,0.0,0.0,0.0,0.0,0.0,-0.8253968253968254,-0.53125,0.0,0.0,-1.0805860805860803,0.0,0.0,-0.6875,0.0,0.0,-1.9206349206349207,0.8791208791208791,0.0,0.0,0.0,0.0,-2.2515262515262515,0.0,-0.8559218559218559,0.0,0.0,0.0,-2.8705738705738706,0.0,-1.7203907203907205,0.0,0.0,0.0,-2.606837606837607,0.0,-1.9304029304029304,0.0,0.0,0.59375,-2.5409035409035408,0.0,-1.8205128205128205,-0.65625,0.0,0.84375,-3.6166056166056166,0.0,-2.52014652014652,-0.65625,0.0,1.09375,-3.648351648351648,0.0,-3.0134310134310134,-0.59375,0.0,1.3125,-3.117216117216117,-0.7326007326007326,-3.1965811965811968,-0.8125,0.0,1.53125,-3.3382173382173383,-0.8058608058608059,-3.0390720390720385,-1.15625,0.0,1.71875,-2.8925518925518925,-0.5115995115995116,-1.7997557997557998,-1.3125,0.0,1.84375,-2.5347985347985347,-0.5103785103785103,-0.6886446886446886,-1.09375,0.0,1.96875,-1.94017094017094,-0.8498168498168498,0.0,-1.0,0.0,2.0625,-1.4285714285714286,-1.0598290598290598,0.0,-1.125,0.0,2.25,-1.3418803418803418,-0.9108669108669109,0.6776556776556777,-1.03125,-0.9375,2.3125,-1.656898656898657,-0.7838827838827839,0.8156288156288156,-0.625,-0.96875,2.40625,-0.6202686202686203,-1.7387057387057387,0.0,0.0,-1.125,2.65625,0.5616605616605617,-3.3296703296703303,-0.8840048840048841,0.0,-1.25,2.46875,0.0,-2.9413919413919416,-1.166056166056166,-0.6875,-1.0,2.25,0.0,-2.1147741147741157,-0.6825396825396826,-0.625,-0.90625,2.1875,0.0,-1.811965811965812,0.0,0.0,-1.0,2.25,0.0,-2.380952380952381,-0.7533577533577533,0.0,-1.25,2.46875,0.0,-3.0329670329670333,-1.1965811965811963,-0.59375,-1.3125,2.28125,-0.8266178266178266,-2.532356532356532,-0.8461538461538461,-0.65625,-0.9375,2.1875,-0.912087912087912,-1.9523809523809523,0.0,0.0,-0.75,2.28125,-0.5079365079365079,-2.9572649572649574,0.0,0.0,-0.71875,2.5625,0.6068376068376068,-4.427350427350428,-1.5323565323565325,0.0,-0.625,2.65625,2.0183150183150182,-5.202686202686203,-2.145299145299145,-0.5625,0.0,2.28125,2.335775335775336,-3.761904761904762,-1.1868131868131868,-0.71875,0.0,2.09375,1.5543345543345544,-2.687423687423687,0.0,0.0,0.0,2.0,1.2442002442002442,-2.7045177045177047,0.0,0.0,0.0,2.03125,1.2637362637362637,-2.5213675213675213,0.0,-0.53125,0.0,1.9375,1.321123321123321,-2.203907203907204,0.8241758241758241,0.0,0.0,2.03125,1.4871794871794872,-1.9365079365079363,1.5531135531135531,0.0,0.0,2.0625,1.1904761904761905,-1.757020757020757,1.3687423687423688,0.0,0.0,2.0,0.8632478632478633,-2.2210012210012207,0.8791208791208791,0.0,0.0,1.875,0.7326007326007326,-2.1526251526251525,0.5616605616605617,0.0,0.0,1.71875,1.9755799755799759,-2.452991452991453,0.5372405372405372,0.0,0.0,1.71875,2.242979242979243,-1.7851037851037852,0.7948717948717948,0.0,0.0,1.5625,2.354090354090354,-1.3076923076923077,0.0,0.0,0.0,1.28125,4.6923076923076925,-1.8376068376068373,0.0,0.0,0.0,1.28125,3.9255189255189245,-1.6227106227106227,0.0,0.0,-0.59375,1.03125,2.509157509157509,-1.1489621489621489,-1.0537240537240538,0.0,0.0,0.96875,1.9010989010989008,-0.6190476190476191,-1.0036630036630036,0.0,0.0,0.84375,2.247863247863248,0.0,0.0,0.0,0.0,0.78125,1.9902319902319905,0.0,0.9804639804639804,0.0,0.0,0.75,2.399267399267399,0.0,0.8852258852258852,0.0,0.0,0.71875,2.166056166056166,-0.7228327228327228,0.0,0.0,0.0,0.5625,1.7496947496947497,-0.525030525030525,0.0,0.0,0.0,0.0,0.9621489621489622,0.0,0.0,0.0,0.0,0.0,0.9938949938949939,0.0,0.0,0.0,0.0,0.0,1.2454212454212454,0.0,0.0,0.0,0.0,0.0,0.0,0.0,0.0,0.0,0.0,0.0,0.0,0.0,0.0,0.0,0.0,0.0,0.0,0.0,0.0,0.0,0.0,0.0,0.0,0.0,0.0,0.0,0.0,0.0,0.0,0.0,0.0,0.0,0.0,0.0,0.0,0.0,0.0,0.0,0.0,0.0,0.0,0.0,0.0,0.0,0.0,0.0,0.0,0.0,0.0,0.0,0.0,0.0,0.0,0.0,0.0,0.0,0.0,0.0,0.0,0.0,0.0,0.0,0.0,0.0,0.0,0.0,0.0,0.0,0.0,0.0,0.0,0.0,0.0,0.0,0.0,0.0,0.0,0.0,0.0,0.0,0.0,0.0,0.0,0.0,0.0,0.0,0.0,0.0,0.0,0.0,0.0,0.0,0.0,0.0,0.0,0.0,0.0,0.0,0.0,0.0,0.0,0.0,0.0,0.0,0.0,0.0,0.0,0.0,0.0,0.0,0.0,0.0,0.0,0.0,0.0,0.0,0.0,0.0,0.0,0.0,0.0,0.0,0.0,0.0,0.0,0.0,0.0,0.0,0.0,0.0,0.0,0.0,0.0,0.0,0.0,0.0,swingAndPointForward
8,0.0,0.0,0.0,0.0,0.0,0.0,0.0,0.0,0.0,0.0,0.0,0.0,0.0,0.0,0.0,0.0,0.0,0.0,0.0,-0.8046398046398047,-1.0964590964590966,0.0,0.0,0.0,-0.7020757020757019,0.0,-1.293040293040293,0.0,0.0,0.0,-0.9401709401709402,0.0,-0.5787545787545788,-0.5625,0.0,0.0,-1.249084249084249,0.0,-0.9682539682539684,-0.6875,0.0,0.0,-2.0781440781440783,0.0,-2.068376068376069,-0.84375,0.0,0.0,-2.9987789987789983,0.0,-2.4065934065934065,-0.75,0.0,0.75,-3.5494505494505493,0.0,-2.4004884004884004,-0.65625,0.0,1.0,-3.5726495726495733,0.0,-2.435897435897436,-0.6875,0.0,1.25,-3.4590964590964592,0.0,-1.612942612942613,-0.65625,0.0,1.4375,-3.706959706959707,0.0,-0.7826617826617827,-0.625,0.0,1.5625,-4.0415140415140405,0.0,-0.57997557997558,-0.625,0.0,1.84375,-3.351648351648352,-0.5628815628815629,0.0,-0.65625,0.0,2.09375,-2.2844932844932844,-1.2063492063492065,0.0,-0.6875,0.0,2.3125,-1.4737484737484738,-1.9010989010989008,0.0,-0.6875,-0.78125,2.46875,-0.5897435897435898,-2.8131868131868134,-0.7203907203907204,-0.59375,-1.0,2.5,0.0,-2.868131868131868,-1.5457875457875458,-0.5625,-0.8125,2.4375,-0.6043956043956044,-2.4664224664224665,-1.5811965811965811,-0.53125,-0.59375,2.46875,-0.525030525030525,-2.3003663003663,-1.1452991452991452,-0.53125,-0.59375,2.53125,0.0,-2.463980463980464,-0.7448107448107448,-0.53125,-0.8125,2.59375,0.0,-2.669108669108669,-0.6239316239316239,-0.59375,-0.75,2.375,0.0,-2.547008547008547,0.0,-0.59375,-0.53125,2.46875,0.0,-2.4786324786324787,0.0,0.0,-0.8125,2.5,0.0,-2.827838827838828,0.0,0.0,-0.90625,2.40625,-0.8485958485958486,-3.075702075702076,0.0,0.0,-0.71875,2.3125,-0.8925518925518926,-2.8376068376068377,0.0,-0.53125,-0.53125,2.34375,-0.7338217338217338,-2.9096459096459086,0.7057387057387058,0.0,0.0,2.4375,0.0,-4.206349206349207,0.0,0.0,0.0,2.5625,1.7032967032967032,-4.271062271062272,-0.5665445665445665,0.0,0.0,2.5,2.081807081807081,-2.7924297924297923,1.387057387057387,-0.875,-0.59375,2.375,1.2234432234432235,-2.1672771672771667,2.288156288156288,-0.625,-0.625,2.125,0.0,-2.907203907203906,0.0,0.0,0.0,2.21875,0.9072039072039072,-4.495726495726496,-1.2857142857142858,0.0,0.0,2.46875,1.6300366300366298,-4.686202686202686,-1.7008547008547008,0.0,0.0,2.375,2.1294261294261294,-3.346764346764347,0.0,0.0,0.0,2.125,3.017094017094017,-3.0964590964590966,0.536019536019536,0.0,0.0,2.03125,3.507936507936508,-3.1257631257631258,0.0,0.0,0.0,1.9375,3.3296703296703303,-2.7142857142857144,-0.7838827838827839,0.0,0.0,1.78125,2.7411477411477403,-1.8302808302808304,0.0,0.0,0.0,1.625,2.8046398046398044,-1.7814407814407816,0.0,0.0,0.0,1.40625,1.978021978021978,-1.6019536019536018,-0.663003663003663,0.0,0.0,1.28125,2.8766788766788767,-1.4114774114774116,0.0,0.0,0.0,1.3125,3.8144078144078146,-0.7594627594627594,1.398046398046398,0.0,0.0,1.125,3.4554334554334565,-1.1123321123321124,0.7228327228327228,0.0,0.0,0.875,2.004884004884005,-0.8449328449328449,-0.9438339438339438,0.0,0.0,0.71875,2.0525030525030523,0.0,-0.7057387057387058,0.0,0.0,0.59375,2.8192918192918195,0.0,0.0,0.0,0.0,0.0,2.3614163614163606,0.0,0.0,0.0,0.0,0.0,1.2551892551892552,0.0,0.0,0.0,0.0,0.0,1.6398046398046398,0.0,0.0,0.0,0.0,0.0,1.7179487179487178,0.0,0.0,0.0,0.0,0.0,1.7362637362637363,-0.8437118437118437,0.0,0.0,0.0,0.0,0.0,0.0,0.0,0.0,0.0,0.0,0.0,0.0,0.0,0.0,0.0,0.0,0.0,0.0,0.0,0.0,0.0,0.0,0.0,0.0,0.0,0.0,0.0,0.0,0.0,0.0,0.0,0.0,0.0,0.0,0.0,0.0,0.0,0.0,0.0,0.0,0.0,0.0,0.0,0.0,0.0,0.0,0.0,0.0,0.0,0.0,0.0,0.0,0.0,0.0,0.0,0.0,0.0,0.0,0.0,0.0,0.0,0.0,0.0,0.0,0.0,0.0,0.0,0.0,0.0,0.0,0.0,0.0,0.0,0.0,0.0,0.0,0.0,0.0,0.0,0.0,0.0,0.0,0.0,0.0,0.0,0.0,0.0,0.0,0.0,0.0,0.0,0.0,0.0,0.0,0.0,0.0,0.0,0.0,0.0,0.0,0.0,0.0,0.0,0.0,0.0,0.0,0.0,0.0,0.0,0.0,0.0,0.0,0.0,0.0,0.0,0.0,0.0,0.0,0.0,0.0,0.0,0.0,0.0,0.0,0.0,0.0,0.0,0.0,0.0,0.0,0.0,0.0,0.0,0.0,0.0,0.0,0.0,0.0,0.0,0.0,0.0,0.0,0.0,0.0,0.0,0.0,0.0,0.0,0.0,0.0,0.0,0.0,0.0,0.0,0.0,0.0,0.0,0.0,0.0,0.0,swingAndPointForward
9,0.0,0.0,0.0,0.65625,0.0,0.0,0.0,-0.5152625152625152,-0.5335775335775336,0.0,0.0,0.0,0.5885225885225885,0.0,-0.7692307692307693,0.0,0.0,0.0,0.0,0.0,-0.6483516483516484,0.0,0.0,0.0,-0.7142857142857143,0.0,-1.0341880341880345,0.0,0.0,0.0,-1.2344322344322345,0.0,-1.3687423687423688,0.0,0.0,0.0,-0.8327228327228328,-0.6764346764346765,-2.0671550671550682,0.0,0.0,0.0,-0.9316239316239316,-0.927960927960928,-2.758241758241758,-0.625,0.0,0.0,-1.5811965811965811,-0.5897435897435898,-2.995115995115996,-0.84375,0.0,0.53125,-2.7924297924297923,0.0,-2.9096459096459086,-0.75,0.0,0.6875,-3.1648351648351647,0.0,-2.768009768009768,-0.75,0.0,0.875,-2.8241758241758244,0.0,-2.21001221001221,-0.84375,0.0,1.15625,-3.1416361416361416,0.0,-1.7167277167277166,-0.9375,0.0,1.3125,-3.617826617826618,0.0,-0.5506715506715507,-0.9375,0.0,1.6875,-4.1159951159951165,0.0,0.0,-0.78125,0.0,1.875,-2.877899877899878,-1.507936507936508,-0.6178266178266179,-0.71875,0.0,2.0625,-1.358974358974359,-2.4566544566544573,-0.5164835164835165,-1.0,0.0,2.28125,-1.5836385836385836,-2.131868131868132,0.0,-1.1875,-0.6875,2.34375,-1.3943833943833943,-1.8192918192918195,0.0,-1.0625,-0.625,2.4375,-0.9023199023199024,-1.7533577533577531,0.6202686202686203,-0.78125,0.0,2.4375,0.0,-2.05006105006105,0.7460317460317459,-0.75,-0.625,2.4375,-1.2612942612942613,-1.9413919413919407,0.0,-0.75,-0.875,2.5,-1.1721611721611722,-2.4786324786324787,0.0,-0.65625,-0.875,2.65625,0.7362637362637363,-3.1465201465201464,0.0,-0.59375,-0.875,2.78125,1.6019536019536018,-2.907203907203906,0.6715506715506715,0.0,-1.125,2.6875,0.8266178266178266,-3.1904761904761907,0.0,0.0,-1.21875,2.53125,0.0,-3.4285714285714284,-0.7216117216117216,0.0,-0.875,2.375,0.0,-3.208791208791209,-0.5628815628815629,0.0,-0.5625,2.375,0.0,-3.3028083028083026,0.0,0.0,-0.625,2.53125,0.0,-3.8009768009768017,0.0,0.0,-0.71875,2.59375,0.7264957264957265,-3.943833943833944,0.0,0.0,-0.5625,2.46875,1.0769230769230769,-3.9108669108669116,0.0,0.0,0.0,2.34375,1.2197802197802199,-3.417582417582417,0.0,0.0,0.0,2.34375,1.6007326007326008,-3.648351648351648,0.0,0.0,0.0,2.5,1.750915750915751,-4.006105006105006,0.0,0.0,0.0,2.5,2.282051282051281,-4.2686202686202686,-0.5347985347985348,0.0,0.0,2.28125,2.7826617826617825,-4.079365079365079,0.0,0.0,0.0,2.09375,3.2710622710622714,-3.4188034188034178,-0.6898656898656899,0.0,0.0,1.90625,2.2747252747252737,-2.4395604395604398,-0.5726495726495726,0.0,0.0,1.8125,2.191697191697192,-1.8156288156288158,0.0,0.0,0.0,1.6875,2.5873015873015874,-1.2967032967032968,0.5921855921855922,0.0,0.0,1.59375,2.1587301587301586,-1.1428571428571428,0.0,0.0,0.0,1.46875,2.4761904761904763,-1.5555555555555556,-0.7167277167277167,0.0,0.0,1.375,2.547008547008547,-1.4444444444444444,-1.1526251526251523,0.0,0.0,1.1875,3.5946275946275947,-1.7228327228327232,-0.5311355311355311,0.0,0.0,0.90625,4.072039072039072,-0.894993894993895,0.0,0.0,0.0,0.65625,3.4053724053724053,-0.9072039072039072,0.0,0.0,0.0,0.5625,2.554334554334554,-0.9181929181929182,0.0,0.0,0.0,0.0,2.8656898656898657,0.0,0.5531135531135531,0.0,0.0,0.0,2.5982905982905984,0.0,0.5177045177045178,0.0,0.0,0.0,0.9194139194139194,0.0,0.0,0.0,0.0,0.0,0.7802197802197802,-0.6007326007326007,0.0,0.0,0.0,0.0,1.706959706959707,-0.6459096459096461,1.0012210012210012,0.0,0.0,0.0,1.7252747252747254,-1.0134310134310134,1.0256410256410255,0.0,0.0,0.0,0.0,0.0,0.0,0.0,0.0,0.0,0.0,0.0,0.0,0.0,0.0,0.0,0.0,0.0,0.0,0.0,0.0,0.0,0.0,0.0,0.0,0.0,0.0,0.0,0.0,0.0,0.0,0.0,0.0,0.0,0.0,0.0,0.0,0.0,0.0,0.0,0.0,0.0,0.0,0.0,0.0,0.0,0.0,0.0,0.0,0.0,0.0,0.0,0.0,0.0,0.0,0.0,0.0,0.0,0.0,0.0,0.0,0.0,0.0,0.0,0.0,0.0,0.0,0.0,0.0,0.0,0.0,0.0,0.0,0.0,0.0,0.0,0.0,0.0,0.0,0.0,0.0,0.0,0.0,0.0,0.0,0.0,0.0,0.0,0.0,0.0,0.0,0.0,0.0,0.0,0.0,0.0,0.0,0.0,0.0,0.0,0.0,0.0,0.0,0.0,0.0,0.0,0.0,0.0,0.0,0.0,0.0,0.0,0.0,0.0,0.0,0.0,0.0,0.0,0.0,0.0,0.0,0.0,0.0,0.0,0.0,0.0,0.0,0.0,0.0,0.0,0.0,0.0,0.0,0.0,0.0,0.0,0.0,0.0,0.0,0.0,0.0,0.0,0.0,0.0,0.0,0.0,0.0,0.0,0.0,0.0,0.0,0.0,0.0,0.0,0.0,0.0,0.0,0.0,0.0,0.0,swingAndPointForward
10,1.2417582417582418,-0.9829059829059827,0.0,0.0,0.0,0.0,0.6862026862026862,0.0,0.0,0.0,0.0,0.0,0.6520146520146519,0.0,1.0964590964590966,0.75,0.0,0.0,0.7142857142857143,0.0,0.6459096459096461,0.6875,0.0,0.0,0.0,-0.8876678876678876,-1.3150183150183148,0.0,0.0,0.0,0.0,0.0,-0.5909645909645911,-0.8125,0.0,0.0,-1.7606837606837606,0.6288156288156288,0.0,-0.6875,0.0,0.0,-2.793650793650793,0.0,-1.8803418803418803,0.0,0.0,0.0,-2.483516483516484,0.0,-2.5079365079365084,0.0,0.0,0.59375,-2.028083028083028,-0.7252747252747253,-2.912087912087912,0.0,0.0,0.8125,-1.956043956043956,0.0,-2.91941391941392,-0.625,0.0,0.9375,-2.0268620268620268,0.0,-2.5128205128205128,-0.875,0.0,1.1875,-2.511599511599512,0.0,-1.7472527472527473,-0.78125,0.0,1.34375,-2.91941391941392,0.0,-1.4114774114774116,-0.59375,0.0,1.46875,-2.183150183150183,-1.017094017094017,-1.9438339438339443,-0.625,0.0,1.59375,-1.9694749694749696,-1.249084249084249,-1.953601953601953,-1.0,0.0,1.84375,-3.294261294261294,-0.5128205128205128,-1.6752136752136753,-1.09375,-0.65625,2.0625,-3.1538461538461537,-0.6336996336996337,-1.465201465201465,-0.78125,0.0,2.25,-3.4297924297924296,-0.9743589743589745,-1.1636141636141637,-0.59375,0.0,2.21875,-1.5970695970695972,-2.5579975579975582,-0.9108669108669109,-0.75,0.0,2.3125,0.0,-2.91941391941392,0.0,-1.15625,0.0,2.46875,0.0,-3.021978021978022,0.0,-1.3125,-1.0625,2.625,0.0,-2.78021978021978,0.7692307692307693,-1.0,-0.8125,2.5625,-0.63003663003663,-3.072039072039072,0.0,-0.6875,0.0,2.25,0.0,-3.404151404151404,0.0,-0.6875,0.0,2.1875,0.0,-3.3443223443223444,0.6422466422466423,-0.875,-0.78125,2.375,-0.6471306471306472,-3.463980463980464,1.195360195360195,-0.6875,-1.0625,2.5625,0.0,-3.7313797313797314,1.3345543345543345,0.0,-0.53125,2.5625,0.9914529914529916,-4.1843711843711855,0.6349206349206349,0.0,0.0,2.3125,0.0,-3.870573870573871,0.0,0.0,0.0,2.03125,0.0,-3.84004884004884,-0.6105006105006106,0.0,0.0,2.25,1.3821733821733821,-4.543345543345543,0.0,0.0,-0.625,2.40625,2.8522588522588523,-4.880341880341881,0.0,0.0,-0.5625,2.25,2.901098901098901,-4.829059829059829,-0.6654456654456654,0.0,0.0,1.9375,2.5604395604395602,-4.094017094017094,-0.9719169719169721,0.0,0.0,1.71875,1.291819291819292,-2.7643467643467643,-0.6092796092796092,0.0,0.0,1.75,0.6556776556776557,-2.3894993894993894,0.0,0.0,0.0,1.78125,0.0,-2.271062271062271,0.0,0.0,0.0,1.71875,1.1428571428571428,-2.1746031746031744,0.0,0.0,0.0,1.6875,0.7851037851037851,-2.061050061050061,0.7106227106227107,0.0,0.0,1.71875,0.7179487179487181,-2.214896214896215,0.0,0.0,0.0,1.78125,1.326007326007326,-2.3846153846153846,0.0,0.0,0.0,1.6875,2.0195360195360195,-2.3968253968253967,0.0,0.0,0.0,1.53125,2.4297924297924296,-1.761904761904762,0.0,0.0,0.0,1.375,1.1196581196581197,-1.2625152625152625,0.0,0.0,0.0,1.375,1.6349206349206349,-1.4615384615384617,-0.6788766788766789,0.0,0.0,1.40625,3.05006105006105,-1.8327228327228329,-0.5592185592185592,0.0,0.0,1.09375,3.0989010989010985,-1.2967032967032968,0.0,0.0,0.0,0.84375,2.010989010989011,-0.706959706959707,0.0,0.0,0.0,0.78125,2.9804639804639805,-1.065934065934066,0.0,0.0,0.0,0.65625,3.1355311355311355,-0.8632478632478633,0.0,0.0,0.0,0.0,2.583638583638584,0.0,0.0,0.0,0.0,0.0,0.8791208791208791,0.0,-0.5335775335775336,0.0,0.0,0.0,0.9914529914529916,0.0,0.0,0.0,0.0,0.0,0.0,0.0,0.0,0.0,0.0,0.0,0.0,0.0,0.0,0.0,0.0,0.0,0.5018315018315018,0.0,0.6886446886446886,0.0,0.0,0.0,0.6495726495726496,-0.5396825396825397,0.7435897435897436,0.0,0.0,0.0,0.0,0.0,0.0,0.0,0.0,0.0,0.0,0.0,0.0,0.0,0.0,0.0,0.0,0.0,0.0,0.0,0.0,0.0,0.0,0.0,0.0,0.0,0.0,0.0,0.0,0.0,0.0,0.0,0.0,0.0,0.0,0.0,0.0,0.0,0.0,0.0,0.0,0.0,0.0,0.0,0.0,0.0,0.0,0.0,0.0,0.0,0.0,0.0,0.0,0.0,0.0,0.0,0.0,0.0,0.0,0.0,0.0,0.0,0.0,0.0,0.0,0.0,0.0,0.0,0.0,0.0,0.0,0.0,0.0,0.0,0.0,0.0,0.0,0.0,0.0,0.0,0.0,0.0,0.0,0.0,0.0,0.0,0.0,0.0,0.0,0.0,0.0,0.0,0.0,0.0,0.0,0.0,0.0,0.0,0.0,0.0,0.0,0.0,0.0,0.0,0.0,0.0,0.0,0.0,0.0,0.0,0.0,0.0,0.0,0.0,0.0,0.0,0.0,0.0,0.0,0.0,0.0,0.0,0.0,0.0,0.0,0.0,0.0,0.0,0.0,0.0,0.0,0.0,0.0,0.0,0.0,0.0,swingAndPointForward
11,0.0,0.0,0.5653235653235653,0.0,0.0,0.0,0.0,0.0,0.0,0.0,0.0,0.0,0.0,-1.0012210012210012,-0.5836385836385837,0.53125,0.0,0.0,-0.5347985347985348,-0.7008547008547008,-0.9804639804639804,0.0,0.0,0.0,-0.6849816849816851,0.0,-1.3125763125763126,0.0,0.0,0.0,-0.663003663003663,0.0,-0.63003663003663,-0.78125,0.0,0.0,-1.8424908424908424,0.0,0.0,-0.59375,0.0,0.0,-2.128205128205128,0.0,-0.6654456654456654,0.0,0.0,0.0,-1.5067155067155067,0.0,-1.078144078144078,0.0,0.0,0.71875,-1.3614163614163617,-0.8168498168498168,-1.8058608058608057,0.0,0.0,0.84375,-1.623931623931624,-0.8021978021978022,-2.133089133089133,0.0,0.0,0.84375,-1.413919413919414,0.0,-2.04029304029304,0.0,0.0,0.90625,-1.7851037851037852,0.0,-2.5604395604395602,0.0,0.0,1.03125,-2.3650793650793656,0.0,-2.8107448107448105,0.0,0.0,1.28125,-2.590964590964591,0.0,-2.938949938949939,-0.625,0.0,1.4375,-3.145299145299145,0.0,-2.6971916971916974,-0.84375,0.0,1.53125,-3.9413919413919416,0.0,-1.8632478632478635,-0.78125,0.0,1.65625,-2.7448107448107453,0.0,-0.9499389499389499,-0.65625,0.0,1.9375,-1.7313797313797314,-1.3772893772893773,-0.6910866910866911,-0.90625,0.0,2.125,0.0,-2.374847374847375,0.0,-1.1875,-0.65625,2.3125,0.0,-2.7252747252747254,0.0,-1.0625,-0.71875,2.25,0.0,-2.492063492063492,0.0,-0.8125,0.0,2.09375,0.0,-2.681318681318681,0.0,-0.75,0.0,2.09375,0.9706959706959708,-3.161172161172161,0.0,-1.0,-0.5625,2.21875,1.4774114774114775,-3.122100122100122,0.6581196581196581,-1.03125,-1.15625,2.21875,0.0,-2.768009768009768,0.5152625152625152,-0.6875,-0.9375,2.1875,0.0,-2.2564102564102564,0.0,0.0,-0.53125,2.09375,0.0,-2.144078144078144,0.0,0.0,0.0,2.21875,1.1575091575091576,-2.664224664224664,0.0,-0.53125,-0.9375,2.1875,0.0,-1.9658119658119653,0.5665445665445665,0.0,-0.59375,2.09375,0.0,-2.017094017094017,0.6105006105006106,0.0,0.0,2.03125,0.6678876678876678,-2.115995115995116,1.0818070818070815,0.0,0.0,2.125,0.0,-2.3943833943833943,0.514041514041514,0.0,-0.53125,2.25,0.0,-2.5445665445665444,0.0,0.0,-0.84375,2.34375,0.0,-2.398046398046398,-0.6312576312576312,0.0,-0.5625,2.09375,0.0,-1.95970695970696,-0.7435897435897436,0.0,0.0,2.0,0.6849816849816851,-1.8571428571428568,0.0,0.0,0.0,2.0625,0.0,-1.6666666666666667,0.7264957264957265,0.0,0.0,2.09375,0.5958485958485958,-1.8070818070818069,0.7472527472527473,0.0,0.0,2.15625,0.5738705738705738,-1.7252747252747254,0.557997557997558,0.0,0.0,1.9375,0.0,-1.6605616605616609,0.568986568986569,0.0,0.0,1.78125,1.338217338217338,-1.9438339438339443,0.9389499389499392,0.0,0.0,1.875,1.0354090354090355,-2.505494505494505,0.0,0.0,0.0,2.125,0.7924297924297924,-2.757020757020757,0.0,0.0,0.0,2.1875,1.4822954822954824,-2.8461538461538463,-0.8656898656898657,0.0,0.0,2.125,2.9401709401709404,-2.927960927960928,-0.8705738705738706,0.0,0.59375,1.84375,4.7484737484737485,-2.3223443223443225,0.0,0.0,0.0,1.75,5.816849816849817,-2.1575091575091574,0.0,0.0,0.0,1.46875,5.118437118437118,-1.9316239316239319,-0.6043956043956044,0.0,-0.59375,1.09375,3.869352869352869,-1.4102564102564104,-1.6727716727716728,0.0,0.0,0.75,3.3736263736263736,0.0,-1.10989010989011,0.0,0.0,0.53125,2.84981684981685,0.0,0.0,0.0,0.0,0.0,2.195360195360196,0.0,0.0,0.0,0.0,0.0,1.3724053724053724,0.0,0.0,0.0,0.0,0.0,0.706959706959707,0.0,-0.7936507936507936,0.0,0.0,0.0,0.0,0.0,-0.7985347985347986,0.0,0.0,0.0,0.0,0.0,0.0,0.0,0.0,0.0,0.7985347985347986,0.0,0.5921855921855922,0.0,0.0,0.0,1.164835164835165,0.0,1.1562881562881564,0.0,0.0,0.0,0.6971916971916972,0.0,0.5567765567765568,0.0,0.0,0.0,0.5115995115995116,-0.6483516483516484,0.0,0.0,0.0,0.0,0.0,0.0,0.0,0.0,0.0,0.0,0.0,0.0,0.0,0.0,0.0,0.0,0.0,0.0,0.0,0.0,0.0,0.0,0.0,0.0,0.0,0.0,0.0,0.0,0.0,0.0,0.0,0.0,0.0,0.0,0.0,0.0,0.0,0.0,0.0,0.0,0.0,0.0,0.0,0.0,0.0,0.0,0.0,0.0,0.0,0.0,0.0,0.0,0.0,0.0,0.0,0.0,0.0,0.0,0.0,0.0,0.0,0.0,0.0,0.0,0.0,0.0,0.0,0.0,0.0,0.0,0.0,0.0,0.0,0.0,0.0,0.0,0.0,0.0,0.0,0.0,0.0,0.0,0.0,0.0,0.0,0.0,0.0,0.0,0.0,0.0,0.0,0.0,0.0,0.0,0.0,0.0,0.0,0.0,0.0,0.0,0.0,0.0,0.0,0.0,0.0,0.0,0.0,0.0,0.0,0.0,0.0,0.0,0.0,0.0,0.0,0.0,0.0,0.0,swingAndPointForward
12,0.0,0.0,0.0,0.0,0.0,0.0,0.0,0.0,0.0,0.0,0.0,0.0,-0.9206349206349206,0.0,0.0,0.0,0.0,0.0,-0.7533577533577533,0.0,-0.557997557997558,0.0,0.0,0.0,0.0,0.0,0.0,0.0,0.0,0.0,-0.8363858363858364,0.0,-0.7851037851037851,0.0,0.0,0.0,-1.9145299145299144,0.0,-1.3235653235653235,0.0,0.0,0.53125,-2.554334554334554,1.4993894993894994,-0.9328449328449328,0.0,0.0,0.75,-2.6556776556776556,0.7460317460317459,-1.465201465201465,0.0,0.0,0.9375,-2.915750915750916,0.0,-1.8925518925518925,0.0,0.0,1.0625,-3.9096459096459095,0.0,-2.1135531135531136,-0.5625,0.0,1.1875,-3.7313797313797314,-0.6190476190476191,-2.21001221001221,-0.6875,0.0,1.40625,-3.584859584859585,-0.9597069597069596,-1.8827838827838828,-0.90625,0.0,1.6875,-2.7533577533577533,-1.7631257631257633,-1.6678876678876684,-0.90625,0.0,1.9375,-1.7155067155067154,-2.0793650793650795,-1.2637362637362637,-0.78125,0.0,2.0625,-2.147741147741148,-1.6166056166056166,-0.9645909645909646,-0.53125,0.0,2.0,-2.7545787545787546,-1.9951159951159951,-2.0842490842490844,0.0,0.0,1.9375,-0.9438339438339438,-2.407814407814408,-2.3174603174603177,-0.75,0.0,2.09375,-1.3894993894993894,-1.175824175824176,-0.8131868131868132,-1.34375,-0.59375,2.25,-2.225885225885226,-0.8815628815628815,0.0,-1.09375,-0.71875,2.4375,-1.3650793650793651,-1.4273504273504274,0.7680097680097681,-0.5625,0.0,2.46875,0.0,-2.5274725274725283,0.5836385836385837,0.0,0.0,2.375,1.3089133089133091,-3.293040293040293,0.0,-0.78125,-0.625,2.28125,0.0,-2.3394383394383396,0.0,-1.125,-1.09375,2.09375,-0.9694749694749696,-1.6349206349206349,0.0,-0.75,-0.9375,2.15625,-0.8192918192918193,-1.9023199023199024,0.0,0.0,-0.53125,2.34375,0.9645909645909646,-3.5995115995116,-0.6764346764346765,0.0,0.0,2.4375,2.6605616605616604,-4.750915750915751,-1.2136752136752136,-0.625,-0.75,2.40625,2.1623931623931623,-3.6654456654456653,0.0,-0.8125,-0.84375,2.125,1.702075702075702,-2.621489621489621,0.0,0.0,0.0,1.90625,1.4175824175824177,-2.2576312576312576,0.5885225885225885,0.0,0.0,2.03125,1.010989010989011,-2.131868131868132,0.6923076923076923,0.0,-0.625,2.0625,0.0,-1.938949938949939,1.0561660561660562,0.0,-0.59375,2.125,0.0,-2.1062271062271063,1.0390720390720392,0.0,0.0,2.3125,0.6764346764346765,-2.1623931623931623,0.9743589743589745,0.0,0.0,2.125,0.0,-1.9755799755799759,0.8962148962148963,0.0,0.0,1.96875,1.105006105006105,-2.785103785103785,0.6971916971916972,0.0,0.0,1.9375,2.496947496947497,-2.94993894993895,0.0,0.0,-0.59375,1.84375,2.115995115995116,-2.821733821733821,0.0,0.0,0.0,1.59375,1.5323565323565325,-2.183150183150183,-0.9914529914529916,0.0,0.0,1.40625,2.017094017094017,-1.6007326007326008,-0.5982905982905983,0.0,0.0,1.28125,1.3455433455433456,-0.9304029304029304,0.0,0.0,0.0,1.34375,0.0,0.0,0.0,0.0,0.0,1.4375,0.7289377289377289,-1.0195360195360197,0.0,0.0,0.0,1.4375,2.142857142857143,-1.7704517704517704,-0.927960927960928,0.0,0.0,1.25,1.9963369963369964,-1.133089133089133,0.0,0.0,0.0,1.09375,2.7020757020757022,0.0,0.9267399267399268,0.0,0.0,1.03125,2.547008547008547,-0.7313797313797313,1.565323565323565,0.0,0.0,0.90625,1.8925518925518925,-0.6703296703296703,0.8742368742368742,0.0,0.0,0.71875,1.4590964590964588,-0.6800976800976801,0.0,0.0,0.0,0.625,1.155067155067155,0.0,0.0,0.0,0.0,0.53125,0.7020757020757019,0.0,0.0,0.0,0.0,0.59375,0.0,0.0,0.0,0.0,0.0,0.6875,1.0757020757020757,0.0,0.0,0.0,0.0,0.625,1.6422466422466422,0.0,0.0,0.0,0.0,0.0,0.6947496947496947,0.0,0.0,0.0,0.0,0.0,-0.514041514041514,0.5470085470085471,0.0,0.0,0.0,0.0,0.0,0.0,0.0,0.0,0.0,0.0,0.0,0.0,0.0,0.0,0.0,0.0,0.0,0.0,0.0,0.0,0.0,0.0,0.0,0.0,0.0,0.0,0.0,0.0,0.0,0.0,0.0,0.0,0.0,0.0,0.0,0.0,0.0,0.0,0.0,0.0,0.0,0.0,0.0,0.0,0.0,0.0,0.0,0.0,0.0,0.0,0.0,0.0,0.0,0.0,0.0,0.0,0.0,0.0,0.0,0.0,0.0,0.0,0.0,0.0,0.0,0.0,0.0,0.0,0.0,0.0,0.0,0.0,0.0,0.0,0.0,0.0,0.0,0.0,0.0,0.0,0.0,0.0,0.0,0.0,0.0,0.0,0.0,0.0,0.0,0.0,0.0,0.0,0.0,0.0,0.0,0.0,0.0,0.0,0.0,0.0,0.0,0.0,0.0,0.0,0.0,0.0,0.0,0.0,0.0,0.0,0.0,0.0,0.0,0.0,0.0,0.0,0.0,0.0,0.0,0.0,0.0,0.0,0.0,0.0,0.0,0.0,0.0,0.0,0.0,0.0,0.0,0.0,0.0,0.0,0.0,0.0,0.0,0.0,0.0,0.0,0.0,0.0,swingAndPointForward
13,0.0,0.0,0.0,0.0,0.0,0.0,0.0,0.0,0.0,0.0,0.0,0.0,0.0,-0.8424908424908425,-0.6459096459096461,0.0,0.0,0.0,0.0,-0.5848595848595849,-0.7594627594627594,0.0,0.0,0.0,0.0,-0.7191697191697192,-1.4261294261294262,0.0,0.0,0.0,0.0,0.0,-0.7240537240537241,0.0,0.0,0.0,-0.6849816849816851,0.0,0.0,0.0,0.0,0.0,-1.0073260073260073,0.0,-1.1391941391941391,0.0,0.0,0.0,-0.8473748473748474,-0.536019536019536,-1.647130647130647,0.0,0.0,0.0,-1.6251526251526252,0.0,-2.029304029304029,0.0,0.0,0.0,-1.8376068376068373,0.0,-1.9902319902319905,0.0,0.0,0.625,-1.8888888888888888,0.0,-1.9523809523809523,0.0,0.0,0.84375,-2.122100122100122,-0.5409035409035409,-2.241758241758242,-0.6875,0.0,1.03125,-2.645909645909646,0.0,-1.9865689865689864,-0.90625,0.0,1.15625,-3.04029304029304,0.0,-1.2942612942612943,-1.0,0.0,1.28125,-2.8595848595848596,0.0,-0.6666666666666666,-0.9375,0.0,1.59375,-2.0415140415140414,-0.9975579975579976,-0.9194139194139194,-0.9375,-0.5625,1.875,-1.6068376068376071,-1.5274725274725274,-1.2136752136752136,-0.9375,-0.6875,1.96875,-1.8693528693528687,-1.4786324786324787,-1.249084249084249,-1.03125,0.0,2.0,-1.380952380952381,-1.1526251526251523,0.0,-0.96875,0.0,2.0625,-0.8339438339438342,-1.2039072039072038,0.0,-0.84375,-0.5625,2.125,0.0,-2.1636141636141635,0.0,-0.78125,-0.90625,2.28125,0.0,-2.7887667887667886,-1.2551892551892552,-0.875,-0.8125,2.25,0.0,-2.351648351648352,-1.1452991452991452,-0.90625,-0.5625,2.25,0.0,-1.4517704517704515,0.0,-0.71875,-0.625,2.3125,0.0,-1.5421245421245422,0.0,-0.5625,-0.75,2.375,-0.6166056166056166,-1.7435897435897436,0.0,-0.5625,-0.625,2.34375,0.0,-1.6178266178266183,0.851037851037851,-0.65625,-0.6875,2.28125,-0.7130647130647131,-1.3296703296703296,1.0891330891330893,0.0,-0.8125,2.28125,-1.1391941391941391,-1.8290598290598288,0.8034188034188035,0.0,-0.71875,2.3125,0.0,-2.9865689865689866,0.5018315018315018,0.0,0.0,2.34375,0.663003663003663,-3.6849816849816848,0.0,0.0,0.0,2.46875,1.4493284493284493,-3.404151404151404,0.9010989010989012,0.0,-0.53125,2.53125,1.0866910866910866,-4.048840048840049,0.0,0.0,0.0,2.34375,4.0537240537240535,-5.306471306471306,-0.7582417582417582,0.0,0.0,2.03125,4.537240537240537,-4.131868131868131,0.0,-1.21875,-1.84375,1.75,-0.5213675213675214,-1.8644688644688645,0.8888888888888888,-0.9375,-2.34375,1.59375,0.0,-2.3821733821733817,0.0,0.0,0.0,1.84375,4.063492063492063,-3.733821733821733,-1.4029304029304028,0.0,0.0,1.90625,2.411477411477412,-3.2515262515262515,-2.0634920634920637,0.0,-0.6875,1.625,0.0,-2.0427350427350426,-1.9316239316239319,0.0,0.0,1.625,0.9499389499389499,-2.191697191697192,-0.7081807081807082,0.0,0.59375,1.90625,2.9145299145299144,-2.934065934065934,0.0,0.0,0.8125,1.96875,2.956043956043956,-2.485958485958486,0.0,0.0,0.0,1.75,2.352869352869353,-1.6886446886446886,0.0,0.0,0.0,1.59375,3.2490842490842486,-1.7118437118437118,0.9084249084249084,0.0,0.0,1.5,3.41025641025641,-1.8412698412698407,0.0,0.0,0.0,1.40625,2.4884004884004884,-1.5494505494505495,-0.5433455433455433,0.0,0.0,1.1875,1.884004884004884,-1.2002442002442002,-1.1233211233211229,0.0,0.0,0.9375,2.1623931623931623,-0.8547008547008547,-0.6471306471306472,0.0,0.0,0.875,2.8376068376068377,-0.9523809523809524,0.0,0.0,0.0,0.8125,2.614163614163614,-0.6214896214896215,0.0,0.0,0.0,0.625,2.9865689865689866,0.0,0.0,0.0,0.0,0.0,2.851037851037851,-0.5909645909645911,0.0,0.0,0.0,0.0,1.205128205128205,0.0,0.0,0.0,0.0,0.0,0.0,0.0,0.0,0.0,0.0,0.0,0.0,0.0,-0.9804639804639804,0.0,0.0,0.0,0.8522588522588522,0.0,-0.5824175824175825,0.0,0.0,0.0,0.873015873015873,0.0,0.0,0.0,0.0,0.0,0.8363858363858364,0.0,0.0,0.0,0.0,0.0,0.0,0.0,0.0,0.0,0.0,0.0,0.0,0.0,0.0,0.0,0.0,0.0,0.0,0.0,0.0,0.0,0.0,0.0,0.0,0.0,0.0,0.0,0.0,0.0,0.0,0.0,0.0,0.0,0.0,0.0,0.0,0.0,0.0,0.0,0.0,0.0,0.0,0.0,0.0,0.0,0.0,0.0,0.0,0.0,0.0,0.0,0.0,0.0,0.0,0.0,0.0,0.0,0.0,0.0,0.0,0.0,0.0,0.0,0.0,0.0,0.0,0.0,0.0,0.0,0.0,0.0,0.0,0.0,0.0,0.0,0.0,0.0,0.0,0.0,0.0,0.0,0.0,0.0,0.0,0.0,0.0,0.0,0.0,0.0,0.0,0.0,0.0,0.0,0.0,0.0,0.0,0.0,0.0,0.0,0.0,0.0,0.0,0.0,0.0,0.0,0.0,0.0,0.0,0.0,0.0,0.0,0.0,0.0,0.0,0.0,0.0,0.0,0.0,0.0,0.0,0.0,0.0,0.0,0.0,0.0,swingAndPointForward
14,0.0,0.0,0.6996336996336996,0.0,0.0,0.0,0.5433455433455433,0.0,0.6141636141636142,0.625,0.0,0.0,0.0,-1.2210012210012209,0.0,0.0,0.0,0.0,0.0,0.0,0.0,0.0,0.0,0.0,0.0,0.0,0.0,0.0,0.0,0.0,0.0,0.0,0.0,0.0,0.0,0.0,-1.122100122100122,0.0,0.0,0.0,0.0,0.0,-1.7557997557997558,0.5543345543345544,0.0,0.0,0.0,0.0,-1.7643467643467643,0.0,-1.1978021978021978,0.0,0.0,0.0,-2.8046398046398044,0.0,-2.67032967032967,0.0,0.0,0.65625,-2.6336996336996337,0.0,-2.7887667887667886,0.0,0.0,0.90625,-2.4590964590964592,0.0,-2.4285714285714284,-0.59375,0.0,1.09375,-3.0708180708180715,0.0,-2.148962148962149,-0.625,0.0,1.15625,-3.343101343101344,-0.8974358974358975,-2.4761904761904763,-0.65625,0.0,1.3125,-2.7301587301587302,-1.84004884004884,-3.4285714285714284,-0.6875,0.0,1.53125,-1.3235653235653235,-2.4188034188034178,-3.8095238095238084,-0.78125,0.0,1.6875,-1.028083028083028,-2.2673992673992682,-3.2503052503052503,-0.78125,0.0,1.78125,-1.9230769230769231,-2.056166056166056,-3.1648351648351647,-0.8125,0.0,1.75,-1.5738705738705738,-1.855921855921856,-2.63980463980464,-1.0,0.6875,1.75,0.0,-1.326007326007326,-1.1001221001221002,-1.53125,0.0,2.03125,-1.1465201465201464,0.0,1.1526251526251523,-1.71875,-0.75,2.3125,-1.7680097680097682,0.0,2.2796092796092795,-1.34375,-0.90625,2.46875,-1.2673992673992671,-0.6275946275946276,1.887667887667888,-0.9375,-0.65625,2.4375,-0.8864468864468864,-1.115995115995116,1.7094017094017089,-0.875,0.0,2.3125,0.0,-1.6984126984126984,2.05982905982906,-1.0,-0.84375,2.46875,0.0,-1.6544566544566544,2.4188034188034178,-1.0625,-1.8125,2.6875,-1.647130647130647,-2.347985347985348,1.4505494505494505,0.0,-1.65625,2.84375,0.0,-3.9023199023199022,0.6178266178266179,0.0,0.0,2.75,2.043956043956044,-4.605616605616605,0.0,0.0,0.0,2.53125,1.5738705738705738,-3.778998778998779,0.5970695970695971,0.0,-0.5625,2.3125,0.0,-2.9059829059829063,0.7289377289377289,0.0,-0.84375,2.25,0.0,-3.416361416361416,0.0,0.0,0.0,2.40625,1.5030525030525033,-3.948717948717949,0.0,0.0,0.0,2.4375,1.6642246642246643,-3.553113553113553,0.0,-0.75,-0.9375,2.25,0.0,-1.877899877899878,0.0,0.0,-0.84375,2.09375,-1.3540903540903542,-1.9963369963369964,0.0,0.0,0.0,2.15625,0.6666666666666666,-3.7753357753357752,0.0,0.0,0.0,2.375,1.831501831501832,-3.695970695970696,0.0,0.0,-0.65625,2.40625,0.6532356532356532,-3.258852258852259,0.0,0.0,0.0,2.34375,0.5641025641025641,-3.2466422466422467,0.0,0.0,0.0,2.25,2.357753357753358,-3.870573870573871,0.0,0.0,0.0,2.15625,2.242979242979243,-3.5763125763125765,-0.894993894993895,0.0,0.0,2.09375,0.9682539682539684,-2.778998778998779,-1.2942612942612943,0.0,0.0,2.09375,2.2735042735042734,-2.6984126984126986,-0.5335775335775336,0.0,0.65625,2.03125,3.6166056166056166,-3.240537240537241,-0.9352869352869352,0.0,0.0,1.8125,3.3760683760683765,-2.673992673992674,-1.6642246642246643,0.0,0.0,1.5625,4.208791208791209,-2.3015873015873014,-0.6141636141636142,0.0,0.0,1.3125,4.62026862026862,-1.568986568986569,1.249084249084249,0.0,0.0,1.0625,4.015873015873016,-1.336996336996337,1.6275946275946276,0.0,-0.625,0.84375,2.415140415140415,-1.0476190476190477,0.0,0.0,0.0,0.625,1.9816849816849813,-1.286935286935287,0.0,0.0,0.0,0.53125,2.449328449328449,-0.8559218559218559,0.0,0.0,0.0,0.0,1.0805860805860803,0.0,0.5323565323565324,0.0,0.0,0.0,0.0,0.0,0.0,0.0,0.0,0.0,1.3540903540903542,0.0,0.0,0.0,0.0,0.0,2.1770451770451764,-0.9914529914529916,0.0,0.0,0.0,0.0,0.7936507936507936,0.0,0.0,0.0,0.0,0.0,0.5824175824175825,0.0,0.0,0.0,0.0,0.0,0.0,-0.7509157509157509,0.0,0.0,0.0,0.0,0.0,0.0,0.0,0.0,0.0,0.0,0.0,0.0,0.0,0.0,0.0,0.0,0.0,0.0,0.0,0.0,0.0,0.0,0.0,0.0,0.0,0.0,0.0,0.0,0.0,0.0,0.0,0.0,0.0,0.0,0.0,0.0,0.0,0.0,0.0,0.0,0.0,0.0,0.0,0.0,0.0,0.0,0.0,0.0,0.0,0.0,0.0,0.0,0.0,0.0,0.0,0.0,0.0,0.0,0.0,0.0,0.0,0.0,0.0,0.0,0.0,0.0,0.0,0.0,0.0,0.0,0.0,0.0,0.0,0.0,0.0,0.0,0.0,0.0,0.0,0.0,0.0,0.0,0.0,0.0,0.0,0.0,0.0,0.0,0.0,0.0,0.0,0.0,0.0,0.0,0.0,0.0,0.0,0.0,0.0,0.0,0.0,0.0,0.0,0.0,0.0,0.0,0.0,0.0,0.0,0.0,0.0,0.0,0.0,0.0,0.0,0.0,0.0,0.0,0.0,0.0,0.0,0.0,0.0,0.0,0.0,0.0,0.0,0.0,0.0,0.0,swingAndPointForward
15,0.0,0.0,0.0,0.0,0.0,0.0,0.0,0.0,0.0,0.0,0.0,0.0,0.0,0.0,-0.6532356532356532,0.0,0.0,0.0,0.0,0.0,-0.7631257631257631,0.0,0.0,0.0,-0.536019536019536,0.0,-1.1257631257631258,0.0,0.0,0.0,0.0,0.0,-1.2087912087912087,0.0,0.0,0.0,-1.4285714285714286,0.0,-1.1721611721611722,0.0,0.0,0.5625,-2.8461538461538463,0.7924297924297924,-1.4224664224664223,0.0,0.0,0.65625,-3.1477411477411477,0.0,-2.294261294261294,0.0,0.0,0.9375,-3.2332112332112333,-0.6959706959706959,-2.93040293040293,0.0,0.0,1.25,-2.958485958485958,-0.8437118437118437,-2.5347985347985347,-0.78125,0.0,1.53125,-2.0415140415140414,-0.8034188034188035,-1.4053724053724053,-1.09375,0.0,1.59375,-2.0769230769230766,-0.568986568986569,-1.0158730158730158,-1.03125,0.0,1.6875,-2.11965811965812,-0.7814407814407814,-0.9157509157509156,-0.9375,0.0,1.875,-2.1172161172161172,-1.0866910866910866,-0.811965811965812,-0.9375,0.0,2.0,-1.691086691086691,-1.5152625152625152,-0.7411477411477412,-0.875,0.0,2.1875,-2.2014652014652016,-1.4126984126984128,-0.5787545787545788,-0.65625,0.0,2.21875,-0.818070818070818,-1.9242979242979243,0.0,-0.625,0.0,2.34375,0.0,-1.8913308913308915,0.0,-0.65625,-0.75,2.34375,-1.7680097680097682,-2.2295482295482296,-1.166056166056166,-0.5625,0.0,2.34375,0.0,-3.347985347985348,-1.5421245421245422,-0.6875,0.0,2.40625,0.7582417582417582,-3.151404151404152,-0.9609279609279608,-0.75,0.0,2.40625,0.6703296703296703,-3.0476190476190474,-0.6996336996336996,-0.65625,0.0,2.4375,1.42002442002442,-3.247863247863248,0.0,-0.71875,-0.5625,2.4375,1.2405372405372406,-2.8119658119658117,0.0,-0.75,-0.75,2.375,0.0,-2.3284493284493286,0.0,0.0,0.0,2.25,0.0,-2.636141636141636,0.0,0.0,0.0,2.28125,0.9328449328449328,-3.244200244200244,0.5079365079365079,-0.625,0.0,2.3125,1.7094017094017089,-2.761904761904762,1.0573870573870574,-0.71875,-0.96875,2.25,-0.7948717948717948,-1.7692307692307692,0.7228327228327228,0.0,-0.65625,2.34375,-0.7509157509157509,-2.498168498168498,0.0,0.0,0.0,2.40625,1.2246642246642248,-3.553113553113553,0.0,0.0,0.0,2.25,0.7765567765567766,-3.2283272283272284,0.0,0.0,0.0,2.125,0.0,-2.6556776556776556,0.0,0.0,0.0,2.1875,0.0,-2.686202686202686,0.5946275946275946,0.0,0.0,2.28125,0.8644688644688645,-3.391941391941392,0.0,-0.53125,0.0,2.1875,0.0,-2.562881562881563,0.5677655677655677,-0.65625,0.0,2.09375,1.0488400488400489,-2.973137973137973,0.9658119658119658,0.0,0.0,2.28125,2.083028083028083,-3.3321123321123323,0.8498168498168498,0.0,0.0,2.34375,2.4652014652014653,-3.2698412698412698,0.0,0.0,0.0,2.28125,1.9462759462759465,-2.6715506715506714,0.0,0.0,0.0,2.03125,2.8119658119658117,-2.844932844932845,0.0,0.0,0.0,1.9375,2.7130647130647128,-2.561660561660561,0.0,0.0,0.0,1.8125,2.485958485958486,-1.887667887667888,0.0,0.0,0.0,1.6875,2.6666666666666665,-1.6178266178266183,0.0,0.0,0.0,1.59375,3.2991452991452985,-1.7912087912087913,0.0,0.0,0.0,1.4375,2.9829059829059825,-1.4102564102564104,0.0,0.0,0.0,1.25,2.8656898656898657,-0.9157509157509156,0.0,0.0,0.0,1.125,3.383394383394384,-0.6361416361416361,0.7631257631257631,0.0,0.0,0.9375,3.10989010989011,-1.0488400488400489,0.0,0.0,0.0,0.6875,2.075702075702076,-0.7521367521367521,-1.4163614163614164,0.0,0.0,0.5625,2.5555555555555562,0.0,-0.9255189255189256,0.0,0.0,0.0,2.7887667887667886,-0.6373626373626373,0.0,0.0,0.0,0.0,2.1343101343101343,0.0,0.0,0.0,0.0,0.0,2.21001221001221,0.0,0.7326007326007326,0.0,0.0,0.0,2.664224664224664,-0.894993894993895,0.5982905982905983,0.0,0.0,0.0,0.0,0.0,0.0,0.0,0.0,0.0,0.0,0.0,0.0,0.0,0.0,0.0,0.0,0.0,0.0,0.0,0.0,0.0,0.0,0.0,0.0,0.0,0.0,0.0,0.0,0.0,0.0,0.0,0.0,0.0,0.0,0.0,0.0,0.0,0.0,0.0,0.0,0.0,0.0,0.0,0.0,0.0,0.0,0.0,0.0,0.0,0.0,0.0,0.0,0.0,0.0,0.0,0.0,0.0,0.0,0.0,0.0,0.0,0.0,0.0,0.0,0.0,0.0,0.0,0.0,0.0,0.0,0.0,0.0,0.0,0.0,0.0,0.0,0.0,0.0,0.0,0.0,0.0,0.0,0.0,0.0,0.0,0.0,0.0,0.0,0.0,0.0,0.0,0.0,0.0,0.0,0.0,0.0,0.0,0.0,0.0,0.0,0.0,0.0,0.0,0.0,0.0,0.0,0.0,0.0,0.0,0.0,0.0,0.0,0.0,0.0,0.0,0.0,0.0,0.0,0.0,0.0,0.0,0.0,0.0,0.0,0.0,0.0,0.0,0.0,0.0,0.0,0.0,0.0,0.0,0.0,0.0,0.0,0.0,0.0,0.0,0.0,0.0,0.0,0.0,0.0,0.0,0.0,0.0,swingAndPointForward
16,0.0,0.0,0.0,0.0,0.0,0.0,0.0,-0.7167277167277167,0.0,0.0,0.0,0.0,0.0,-0.8156288156288156,-0.5848595848595849,0.0,0.0,0.0,0.0,0.0,0.0,0.0,0.0,0.0,0.0,0.0,0.5225885225885226,0.0,0.0,0.0,0.0,0.0,0.0,0.0,0.0,0.0,-1.0048840048840049,0.0,0.0,0.0,0.0,0.0,-1.126984126984127,0.0,-0.8571428571428571,0.0,0.0,0.0,-1.6703296703296704,0.0,-0.5482295482295483,0.0,0.0,0.0,-2.3650793650793656,0.0,-1.1526251526251523,0.0,0.0,0.0,-2.5262515262515257,0.0,-1.7777777777777777,0.0,0.0,0.5625,-2.3064713064713063,-0.7203907203907204,-2.217338217338217,0.0,0.0,0.75,-2.573870573870574,-0.7814407814407814,-2.225885225885226,-0.75,0.0,0.90625,-2.352869352869353,0.0,-1.592185592185592,-0.75,0.0,1.0625,-3.175824175824176,0.0,-1.9096459096459093,0.0,0.0,1.3125,-3.4810744810744816,-0.9829059829059827,-2.4224664224664223,0.0,0.0,1.46875,-3.2197802197802203,-1.2759462759462759,-2.554334554334554,-0.53125,0.0,1.5625,-4.124542124542124,-0.9829059829059827,-2.7606837606837606,-0.90625,0.0,1.625,-4.305250305250305,0.0,-1.8168498168498168,-1.09375,0.0,1.90625,-3.253968253968253,-1.0940170940170941,-0.8168498168498168,-1.03125,0.0,2.28125,-1.8595848595848603,-2.5396825396825395,-0.9365079365079364,-1.09375,-0.5625,2.6875,0.0,-3.739926739926741,-1.3675213675213675,-1.21875,-0.90625,2.8125,0.0,-2.9743589743589745,-0.6617826617826618,-1.1875,-0.65625,2.625,0.0,-2.15018315018315,0.0,-0.9375,0.0,2.5625,0.0,-1.8852258852258847,0.0,-0.75,-0.78125,2.65625,-1.0476190476190477,-1.887667887667888,0.0,-0.75,-1.25,2.8125,-1.0940170940170941,-1.962148962148962,0.7997557997557998,-0.6875,-1.3125,2.8125,-1.4444444444444444,-1.9926739926739927,0.9401709401709402,0.0,-1.09375,2.71875,-1.1807081807081807,-2.324786324786325,1.0769230769230769,0.0,-0.6875,2.71875,0.0,-2.8412698412698414,1.4383394383394383,0.0,-0.53125,2.75,0.5775335775335775,-4.3479853479853485,1.1111111111111112,0.0,-0.78125,2.9375,0.0,-4.125763125763126,0.9340659340659341,0.0,-0.875,2.84375,0.0,-3.4432234432234434,0.6996336996336996,0.0,0.0,2.71875,0.0,-3.7655677655677655,0.0,0.0,0.0,2.46875,1.277167277167277,-4.322344322344321,0.0,0.0,0.0,2.5625,1.05006105006105,-4.224664224664225,0.7374847374847375,0.0,-0.9375,2.84375,0.0,-4.212454212454213,0.0,0.0,0.0,2.84375,2.0793650793650795,-5.283272283272283,-0.7997557997557998,0.0,0.5625,2.59375,4.733821733821734,-5.7997557997558,-1.15018315018315,0.0,0.0,2.28125,4.125763125763126,-4.156288156288157,-0.5604395604395604,0.0,0.0,2.03125,1.855921855921856,-2.5396825396825395,0.0,0.0,0.0,2.0,1.6532356532356531,-2.2905982905982905,0.0,0.0,0.0,2.03125,2.0097680097680097,-2.9462759462759465,0.0,0.0,0.0,1.90625,1.6166056166056166,-2.619047619047619,0.0,0.0,0.0,1.8125,2.15018315018315,-1.3931623931623929,1.2319902319902318,0.0,0.0,1.71875,2.5042735042735043,-1.5421245421245422,1.656898656898657,0.0,0.0,1.53125,2.625152625152625,-1.879120879120879,0.8681318681318682,0.0,0.0,1.40625,2.21978021978022,-1.4505494505494505,0.0,0.0,0.0,1.21875,1.7826617826617828,-0.8876678876678876,0.0,0.0,0.0,1.09375,2.094017094017094,-0.5677655677655677,0.0,0.0,0.0,1.0625,2.145299145299145,-0.8351648351648352,0.0,0.0,0.0,0.96875,2.41025641025641,-0.7509157509157509,0.0,0.0,0.0,0.75,3.0390720390720385,-0.5201465201465202,0.0,0.0,0.0,0.0,2.765567765567765,-0.5873015873015873,0.0,0.0,0.0,0.0,2.32967032967033,0.0,0.0,0.0,0.0,0.0,1.6178266178266183,0.0,0.0,0.0,0.0,0.0,0.7130647130647131,0.0,-0.8827838827838828,0.0,0.0,0.0,0.6068376068376068,0.0,-0.7338217338217338,0.0,0.0,0.0,1.3614163614163617,0.0,0.0,0.0,0.0,0.0,0.0,0.0,0.0,0.0,0.0,0.0,0.0,0.0,0.0,0.0,0.0,0.0,0.0,0.0,0.0,0.0,0.0,0.0,0.0,0.0,0.0,0.0,0.0,0.0,0.0,0.0,0.0,0.0,0.0,0.0,0.0,0.0,0.0,0.0,0.0,0.0,0.0,0.0,0.0,0.0,0.0,0.0,0.0,0.0,0.0,0.0,0.0,0.0,0.0,0.0,0.0,0.0,0.0,0.0,0.0,0.0,0.0,0.0,0.0,0.0,0.0,0.0,0.0,0.0,0.0,0.0,0.0,0.0,0.0,0.0,0.0,0.0,0.0,0.0,0.0,0.0,0.0,0.0,0.0,0.0,0.0,0.0,0.0,0.0,0.0,0.0,0.0,0.0,0.0,0.0,0.0,0.0,0.0,0.0,0.0,0.0,0.0,0.0,0.0,0.0,0.0,0.0,0.0,0.0,0.0,0.0,0.0,0.0,0.0,0.0,0.0,0.0,0.0,0.0,0.0,0.0,0.0,0.0,0.0,0.0,0.0,0.0,0.0,0.0,0.0,0.0,swingAndPointForward
17,-0.7716727716727717,0.0,0.0,0.0,0.0,0.0,0.0,0.0,0.0,0.0,0.0,0.0,0.0,-0.5201465201465202,-0.7582417582417582,0.0,0.0,0.0,0.0,-0.8058608058608059,-1.4383394383394383,-0.8125,0.0,0.0,-1.0341880341880345,0.0,-0.873015873015873,-0.90625,0.0,0.0,-1.9230769230769231,0.0,-0.8156288156288156,-0.6875,0.0,0.0,-1.021978021978022,0.0,-0.7509157509157509,-0.53125,0.0,0.5625,-0.8424908424908425,0.0,-1.175824175824176,-0.5625,0.0,0.65625,-3.2673992673992682,0.0,-2.2796092796092795,0.0,0.0,0.78125,-3.477411477411477,0.0,-2.681318681318681,0.0,0.0,1.0,-2.380952380952381,0.9694749694749696,-2.6056166056166057,-0.625,0.0,1.1875,-2.0805860805860807,1.0793650793650793,-3.0927960927960934,-0.6875,0.0,1.4375,-3.0097680097680097,0.0,-4.1330891330891335,-0.78125,0.0,1.53125,-3.8583638583638575,-1.205128205128205,-4.9230769230769225,-1.09375,0.0,1.75,-2.687423687423687,-2.6666666666666665,-3.929181929181929,-1.5625,0.0,2.0625,-2.0842490842490844,-2.9536019536019538,-1.877899877899878,-1.8125,0.0,2.28125,-2.6434676434676434,-2.145299145299145,0.0,-1.5,0.0,2.4375,-1.8742368742368745,-2.1941391941391943,1.4993894993894994,-0.96875,0.0,2.46875,0.0,-3.0989010989010985,1.824175824175824,-0.84375,0.0,2.34375,0.5897435897435898,-2.8742368742368742,2.0695970695970702,-0.875,-0.96875,2.28125,-0.894993894993895,-2.0,1.492063492063492,-0.6875,-1.0,2.15625,-0.9816849816849816,-2.199023199023199,0.851037851037851,0.0,-0.65625,2.09375,0.0,-2.7130647130647128,0.6568986568986569,0.0,-0.59375,2.09375,1.3418803418803418,-2.642246642246642,0.8778998778998779,0.0,-1.03125,1.96875,-0.7094017094017094,-2.0183150183150182,0.0,0.0,-0.5625,1.9375,0.0,-3.3455433455433456,0.0,0.0,-0.5625,2.09375,0.0,-2.8131868131868134,0.5262515262515263,0.0,-1.09375,2.28125,-1.3394383394383391,-2.935286935286935,-0.5421245421245421,0.0,-0.65625,2.3125,-0.5445665445665445,-2.978021978021978,-0.7472527472527473,0.0,0.0,2.21875,1.0354090354090355,-3.2429792429792434,0.0,-0.59375,0.0,2.0625,1.332112332112332,-2.691086691086692,1.1001221001221002,-0.90625,-0.71875,2.125,-1.3894993894993894,-2.313797313797314,0.8461538461538461,-0.625,-1.25,2.25,-1.2551892551892552,-2.4517704517704515,0.5286935286935287,0.0,0.0,2.4375,0.5433455433455433,-3.2857142857142856,0.0,0.0,0.0,2.40625,0.0,-2.7032967032967035,0.0,0.0,0.0,2.1875,0.0,-2.5347985347985347,0.0,0.0,0.0,2.21875,0.0,-2.8241758241758244,0.7692307692307693,0.0,0.0,2.375,0.0,-3.05982905982906,0.5909645909645911,0.0,0.0,2.5,0.9731379731379732,-3.5067155067155067,0.0,0.0,0.625,2.53125,1.636141636141636,-3.351648351648352,0.0,0.0,0.0,2.40625,1.4041514041514038,-3.0463980463980462,0.0,0.0,0.0,2.25,3.0366300366300365,-3.0415140415140414,0.9499389499389499,0.0,0.0,2.21875,2.763125763125763,-2.3797313797313797,1.0341880341880345,0.0,0.0,2.03125,1.468864468864469,-2.413919413919414,0.0,0.0,0.0,1.90625,2.7643467643467643,-2.6605616605616604,-1.0732600732600732,0.0,0.0,1.84375,4.091575091575091,-2.142857142857143,0.0,0.0,0.0,1.625,3.2197802197802203,-1.3406593406593406,0.0,0.0,0.0,1.375,3.117216117216117,-0.818070818070818,0.5225885225885226,0.0,0.0,1.21875,3.1868131868131866,-1.3540903540903542,0.0,0.0,0.0,1.0,2.191697191697192,-0.8412698412698413,0.0,0.0,0.0,0.875,3.0573870573870563,-0.5482295482295483,0.0,0.0,0.0,0.78125,3.2197802197802203,0.0,0.8620268620268621,0.0,0.0,0.59375,2.8339438339438336,-0.9426129426129426,0.6410256410256411,0.0,0.0,0.0,1.8669108669108667,-0.6336996336996337,0.0,0.0,0.0,0.0,0.0,0.0,-1.0573870573870574,0.0,0.0,0.0,0.7960927960927959,0.0,-0.6043956043956044,0.0,0.0,0.0,1.492063492063492,0.0,0.0,0.0,0.0,0.0,1.2344322344322345,0.0,0.0,0.0,0.0,0.0,1.103785103785104,-0.5213675213675214,0.0,0.0,0.0,0.0,0.9340659340659341,-0.8840048840048841,0.0,0.0,0.0,0.0,0.0,0.0,0.0,0.0,0.0,0.0,0.0,0.0,0.0,0.0,0.0,0.0,0.0,0.0,0.0,0.0,0.0,0.0,0.0,0.0,0.0,0.0,0.0,0.0,0.0,0.0,0.0,0.0,0.0,0.0,0.0,0.0,0.0,0.0,0.0,0.0,0.0,0.0,0.0,0.0,0.0,0.0,0.0,0.0,0.0,0.0,0.0,0.0,0.0,0.0,0.0,0.0,0.0,0.0,0.0,0.0,0.0,0.0,0.0,0.0,0.0,0.0,0.0,0.0,0.0,0.0,0.0,0.0,0.0,0.0,0.0,0.0,0.0,0.0,0.0,0.0,0.0,0.0,0.0,0.0,0.0,0.0,0.0,0.0,0.0,0.0,0.0,0.0,0.0,0.0,0.0,0.0,0.0,0.0,0.0,0.0,0.0,0.0,0.0,0.0,0.0,0.0,0.0,0.0,0.0,0.0,0.0,0.0,0.0,0.0,0.0,0.0,0.0,0.0,0.0,0.0,0.0,0.0,0.0,0.0,swingAndPointForward
18,0.5457875457875457,-0.6959706959706959,-0.6263736263736264,0.0,0.0,0.0,1.0195360195360197,-0.5567765567765568,0.0,0.0,0.0,0.0,0.0,0.0,0.0,0.0,0.0,0.0,-0.6898656898656899,0.5787545787545788,0.0,0.0,0.0,0.0,0.0,0.0,0.0,0.0,0.0,0.0,0.0,-1.010989010989011,-1.3186813186813189,0.0,0.0,0.59375,-1.1489621489621489,0.0,-1.536019536019536,-0.6875,0.0,0.5625,-1.9133089133089127,0.0,-1.5995115995115996,-0.625,0.0,0.53125,-2.1623931623931623,0.0,-1.804639804639805,0.0,0.0,0.75,-2.6483516483516483,-0.6031746031746031,-2.501831501831502,0.0,0.0,0.96875,-2.7545787545787546,-0.8095238095238095,-2.6117216117216118,-0.625,0.0,1.1875,-2.8925518925518925,-0.8424908424908425,-2.253968253968254,-0.875,0.0,1.375,-2.6483516483516483,-1.3699633699633702,-2.2063492063492065,-1.0,0.0,1.65625,-2.9890109890109886,-1.4676434676434675,-2.485958485958486,-0.96875,0.0,1.84375,-2.793650793650793,-1.1538461538461535,-1.9804639804639803,-0.875,0.0,2.0,-1.6715506715506716,-1.391941391941392,-1.3137973137973138,-0.8125,0.0,2.09375,-1.2844932844932846,-1.4493284493284493,-0.8412698412698413,-1.0,0.0,2.125,-2.595848595848596,-1.1514041514041513,-0.8217338217338217,-1.28125,0.0,2.21875,-2.954822954822955,-1.2722832722832722,0.0,-1.0625,0.0,2.4375,-1.6862026862026862,-2.3089133089133087,0.0,-0.84375,0.0,2.625,-0.6800976800976801,-2.816849816849817,0.0,-0.9375,-0.59375,2.71875,0.0,-3.743589743589743,-0.5567765567765568,-1.0625,-0.84375,2.78125,0.0,-3.5970695970695967,-0.78998778998779,-0.6875,-0.65625,2.8125,0.5311355311355311,-4.108669108669108,-0.7032967032967034,-0.6875,0.0,2.84375,0.0,-3.948717948717949,-0.6971916971916972,-0.90625,0.0,2.75,-1.4407814407814408,-3.8742368742368734,-1.1489621489621489,-1.125,0.0,2.6875,0.9206349206349206,-5.551892551892551,-0.6752136752136753,-1.65625,0.0,2.78125,1.5384615384615383,-4.5335775335775335,1.376068376068376,-1.65625,-1.25,2.71875,-1.3040293040293038,-3.4285714285714284,1.15018315018315,-0.9375,-0.5625,2.8125,-0.6056166056166056,-4.1611721611721615,0.5299145299145299,0.0,0.0,3.03125,2.2344322344322345,-5.6642246642246645,0.0,0.0,0.0,2.90625,3.247863247863248,-5.725274725274725,-0.7838827838827839,-0.5625,-0.71875,2.71875,1.1172161172161172,-4.3699633699633695,0.0,0.0,-0.59375,2.59375,0.8473748473748474,-3.913308913308913,0.5909645909645911,0.0,0.0,2.65625,2.023199023199023,-4.0366300366300365,0.6263736263736264,0.0,0.0,2.625,2.509157509157509,-3.752136752136752,0.5274725274725275,0.0,0.0,2.34375,1.831501831501832,-2.958485958485958,0.6336996336996337,0.0,0.0,2.15625,0.8876678876678876,-2.5457875457875456,0.0,0.0,0.0,2.125,0.9951159951159952,-2.912087912087912,0.0,0.0,0.0,2.125,2.012210012210012,-2.9987789987789983,0.0,0.0,0.0,2.03125,2.039072039072039,-2.891330891330892,0.0,0.0,0.0,1.8125,1.0769230769230769,-1.8278388278388282,0.5641025641025641,0.0,0.0,1.8125,0.6825396825396826,-1.9084249084249083,0.5164835164835165,0.0,0.0,1.84375,2.070818070818071,-2.490842490842491,0.0,0.0,0.0,1.6875,1.9023199023199024,-1.9706959706959708,0.0,0.0,0.0,1.5,1.0525030525030523,-1.2222222222222223,0.0,0.0,0.0,1.5,1.1343101343101345,-1.5543345543345544,0.0,0.0,0.0,1.625,3.117216117216117,-2.4737484737484743,0.0,0.0,0.0,1.125,3.4236874236874235,0.0,0.5311355311355311,0.0,0.0,0.78125,2.208791208791209,-0.5946275946275946,0.0,0.0,0.0,0.71875,2.492063492063492,-1.6495726495726497,-0.7289377289377289,0.53125,0.0,0.65625,2.103785103785104,-1.1697191697191698,-1.3223443223443223,0.0,0.0,0.0,1.387057387057387,0.0,-0.8046398046398047,0.0,0.0,0.0,1.7594627594627594,0.0,0.0,0.0,0.0,0.0,1.5274725274725274,-0.6239316239316239,0.0,0.0,0.0,0.0,0.0,0.0,0.0,0.0,0.0,0.0,0.0,-0.5115995115995116,-0.8278388278388278,0.0,0.0,0.0,0.0,0.0,0.0,0.0,0.0,0.0,0.0,0.0,0.0,0.0,0.0,0.0,0.0,0.0,0.0,0.0,0.0,0.0,0.0,0.0,0.0,0.0,0.0,0.0,0.0,0.0,0.0,0.0,0.0,0.0,0.0,0.0,0.0,0.0,0.0,0.0,0.0,0.0,0.0,0.0,0.0,0.0,0.0,0.0,0.0,0.0,0.0,0.0,0.0,0.0,0.0,0.0,0.0,0.0,0.0,0.0,0.0,0.0,0.0,0.0,0.0,0.0,0.0,0.0,0.0,0.0,0.0,0.0,0.0,0.0,0.0,0.0,0.0,0.0,0.0,0.0,0.0,0.0,0.0,0.0,0.0,0.0,0.0,0.0,0.0,0.0,0.0,0.0,0.0,0.0,0.0,0.0,0.0,0.0,0.0,0.0,0.0,0.0,0.0,0.0,0.0,0.0,0.0,0.0,0.0,0.0,0.0,0.0,0.0,0.0,0.0,0.0,0.0,0.0,0.0,0.0,0.0,0.0,0.0,0.0,0.0,0.0,0.0,0.0,0.0,0.0,0.0,0.0,0.0,0.0,0.0,0.0,0.0,0.0,0.0,0.0,0.0,0.0,swingAndPointForward
19,0.0,0.0,0.0,0.0,0.0,0.0,0.0,0.0,0.0,0.0,0.0,0.0,0.0,-0.7802197802197802,0.0,0.0,0.0,0.0,0.0,-1.1623931623931625,-1.26007326007326,0.0,0.0,0.0,0.0,0.0,-1.3418803418803418,0.0,0.0,0.0,-0.9218559218559218,0.518925518925519,0.0,0.0,0.0,0.0,-1.4334554334554337,0.0,-0.6336996336996337,0.0,0.0,0.5625,-1.1428571428571428,-0.5714285714285714,-1.1978021978021978,-0.625,0.0,0.625,-0.6227106227106227,0.0,-0.6324786324786325,-0.65625,0.0,0.6875,-1.0573870573870574,0.0,0.0,0.0,0.0,0.78125,-1.5616605616605617,0.0,-0.6556776556776557,0.0,0.0,0.84375,-2.415140415140415,-0.5372405372405372,-1.0573870573870574,0.0,0.0,0.90625,-2.240537240537241,-0.6923076923076923,-1.431013431013431,-0.625,0.0,1.125,-1.915750915750916,-0.5042735042735043,-1.4468864468864469,-0.71875,0.0,1.28125,-2.0195360195360195,0.0,-1.3357753357753357,0.0,0.0,1.46875,-2.3272283272283274,0.0,-2.126984126984127,0.0,0.0,1.59375,-1.8925518925518925,-0.9804639804639804,-2.515262515262515,-0.6875,0.0,1.65625,0.0,-1.4261294261294262,-1.84981684981685,-1.28125,-0.78125,1.875,-2.5042735042735043,-0.6361416361416361,-1.0134310134310134,-0.875,-0.5625,2.03125,-2.84981684981685,-1.612942612942613,-1.9804639804639803,-0.59375,0.0,2.15625,-1.8669108669108667,-2.2612942612942613,-1.945054945054945,-0.84375,0.0,2.21875,0.0,-2.7533577533577533,-0.7985347985347986,-1.375,0.0,2.375,0.0,-2.7924297924297923,-0.6068376068376068,-1.4375,-1.125,2.53125,-1.0561660561660562,-2.8864468864468864,-0.8559218559218559,-1.0625,-0.71875,2.65625,0.0,-3.0244200244200243,0.0,-0.78125,0.0,2.59375,0.6666666666666666,-2.5921855921855923,0.6825396825396826,-0.84375,0.0,2.40625,0.7350427350427351,-2.247863247863248,1.0183150183150182,-1.125,0.0,2.375,-0.8302808302808303,-1.6214896214896215,1.3040293040293038,-1.0625,-0.90625,2.5,-1.3785103785103785,-2.299145299145299,1.68009768009768,0.0,-0.75,2.8125,1.800976800976801,-4.216117216117216,1.0586080586080586,0.0,0.0,3.03125,3.483516483516484,-5.107448107448106,0.0,0.0,-0.65625,2.78125,1.5103785103785103,-3.808302808302808,0.0,0.0,-0.78125,2.3125,1.0512820512820509,-2.68986568986569,0.6190476190476191,0.0,0.0,2.34375,1.4017094017094016,-2.9023199023199022,0.7985347985347986,0.0,0.0,2.34375,1.3565323565323566,-3.7374847374847375,0.0,0.0,0.0,2.375,1.6141636141636142,-4.5054945054945055,-1.10989010989011,0.0,0.0,2.3125,1.3748473748473748,-3.7606837606837606,-1.020757020757021,0.0,0.0,1.96875,1.286935286935287,-2.4664224664224665,0.0,-0.59375,0.0,1.90625,1.2173382173382172,-2.253968253968254,1.1611721611721613,0.0,0.0,1.96875,2.7313797313797314,-3.1355311355311355,1.1941391941391941,0.0,0.0,1.9375,2.3382173382173383,-2.791208791208791,0.5335775335775336,0.0,0.0,1.75,1.083028083028083,-1.9755799755799759,0.0,0.0,0.0,1.5625,1.612942612942613,-1.8461538461538465,0.0,0.0,0.0,1.59375,1.695970695970696,-1.7326007326007329,0.0,0.0,0.0,1.5,0.7985347985347986,-1.442002442002442,0.0,0.0,0.0,1.5,2.1746031746031744,-1.9523809523809523,-0.5848595848595849,0.0,0.0,1.4375,2.1904761904761907,-1.2466422466422469,0.0,0.0,0.0,1.25,1.6776556776556777,-0.9096459096459096,0.0,0.0,0.0,1.1875,2.11965811965812,-0.9743589743589745,0.0,0.0,0.0,1.0625,2.9047619047619047,-0.8021978021978022,0.7606837606837606,0.0,0.0,0.875,3.192918192918193,-0.78998778998779,0.0,0.0,0.0,0.6875,1.8620268620268616,-0.7460317460317459,-0.7777777777777778,0.0,0.0,0.5625,1.4224664224664223,-0.7362637362637363,-0.8021978021978022,0.0,0.0,0.53125,1.927960927960928,0.0,0.0,0.0,0.0,0.0,1.5421245421245422,0.0,0.0,0.0,0.0,0.0,0.9462759462759462,0.0,0.5299145299145299,0.0,0.0,0.0,0.5079365079365079,0.0,0.0,0.0,0.0,0.0,0.0,0.0,-0.503052503052503,0.0,0.0,0.0,0.0,0.0,0.0,0.0,0.0,0.0,0.0,0.0,0.0,0.0,0.0,0.0,0.0,0.0,0.0,0.0,0.0,0.0,0.0,0.0,0.0,0.0,0.0,0.0,0.0,0.0,0.0,0.0,0.0,0.0,0.0,0.0,0.0,0.0,0.0,0.0,0.0,0.0,0.0,0.0,0.0,0.0,0.0,0.0,0.0,0.0,0.0,0.0,0.0,0.0,0.0,0.0,0.0,0.0,0.0,0.0,0.0,0.0,0.0,0.0,0.0,0.0,0.0,0.0,0.0,0.0,0.0,0.0,0.0,0.0,0.0,0.0,0.0,0.0,0.0,0.0,0.0,0.0,0.0,0.0,0.0,0.0,0.0,0.0,0.0,0.0,0.0,0.0,0.0,0.0,0.0,0.0,0.0,0.0,0.0,0.0,0.0,0.0,0.0,0.0,0.0,0.0,0.0,0.0,0.0,0.0,0.0,0.0,0.0,0.0,0.0,0.0,0.0,0.0,0.0,0.0,0.0,0.0,0.0,0.0,0.0,0.0,0.0,0.0,0.0,0.0,0.0,0.0,0.0,0.0,0.0,0.0,swingAndPointForward
20,0.0,0.0,0.7045177045177046,0.0,0.0,0.0,0.0,0.0,0.6019536019536019,0.0,0.0,0.0,0.5848595848595849,0.0,0.0,0.0,0.0,0.0,0.0,0.0,0.0,0.0,0.0,0.0,-1.2527472527472527,0.0,-0.7802197802197802,0.0,0.0,0.0,0.0,-1.0305250305250304,-1.7435897435897436,0.0,0.5625,0.0,-0.6043956043956044,0.0,-1.2210012210012209,-0.78125,0.0,0.0,-2.0329670329670333,0.5897435897435898,-0.8778998778998779,-0.65625,0.0,0.0,-1.967032967032967,0.0,-1.1611721611721613,0.0,0.0,0.65625,-1.3565323565323566,-1.1391941391941391,-2.3015873015873014,0.0,0.0,0.84375,-2.2112332112332123,-0.7521367521367521,-2.5665445665445668,-0.625,0.0,1.03125,-2.1880341880341883,0.0,-1.6825396825396826,-0.6875,0.0,1.25,-1.5274725274725274,0.0,-1.2808302808302807,-0.59375,0.0,1.3125,-1.485958485958486,0.0,-2.0634920634920637,-0.71875,0.0,1.5,-1.831501831501832,0.0,-2.5042735042735043,-1.0,0.0,1.6875,-2.1636141636141635,-1.1282051282051282,-2.3382173382173383,-1.125,0.0,1.75,-2.214896214896215,-1.4004884004884004,-1.78998778998779,-0.90625,0.0,1.90625,-2.0854700854700856,-1.1831501831501832,-0.706959706959707,-0.5625,0.78125,1.9375,1.5824175824175823,-3.2649572649572653,0.0,-1.03125,0.0,2.0625,0.8608058608058609,-3.117216117216117,0.0,-1.5,-0.96875,2.0,-1.7704517704517704,-2.2735042735042734,0.0,-1.125,0.0,1.96875,-1.3858363858363858,-1.8595848595848603,0.0,-0.625,0.0,1.875,-1.05006105006105,-1.6422466422466422,0.0,-0.5625,0.0,1.96875,0.0,-2.3638583638583643,0.0,-1.0,-0.5625,2.09375,-0.6862026862026862,-2.600732600732601,-0.5592185592185592,-1.15625,-0.8125,2.21875,-1.0415140415140416,-2.2698412698412698,0.0,-0.8125,0.0,2.21875,-1.0708180708180708,-1.8547008547008548,0.0,0.0,0.0,2.28125,0.0,-2.9401709401709404,0.0,-0.53125,0.0,2.34375,1.5018315018315018,-3.5494505494505493,0.0,-1.0,-1.15625,2.34375,-0.6703296703296703,-2.8180708180708183,0.0,-0.9375,-0.8125,2.28125,-0.6984126984126984,-2.101343101343101,0.0,0.0,0.0,2.28125,0.0,-2.8376068376068377,0.0,0.0,0.0,2.34375,2.7496947496947497,-4.126984126984127,0.0,-0.625,-0.84375,2.3125,1.2417582417582418,-2.9755799755799757,0.0,-0.6875,-0.90625,2.15625,0.0,-2.05982905982906,0.0,0.0,0.0,2.09375,0.0,-2.3675213675213675,0.0,0.0,0.0,2.15625,0.8913308913308914,-2.716727716727717,0.6202686202686203,0.0,-0.59375,2.15625,0.0,-1.7313797313797314,1.6862026862026862,0.0,0.0,2.25,1.7472527472527473,-3.133089133089133,1.3821733821733821,0.0,0.0,2.34375,2.335775335775336,-3.68986568986569,0.0,0.0,0.0,2.125,1.9084249084249083,-2.995115995115996,0.0,0.0,0.0,1.9375,1.947496947496948,-2.5604395604395602,0.0,0.0,0.0,1.9375,2.326007326007326,-2.691086691086692,0.0,0.0,0.0,1.96875,2.6117216117216118,-3.0256410256410247,0.0,0.0,0.0,1.9375,2.3772893772893773,-2.7350427350427347,-0.6153846153846154,0.0,0.0,1.71875,2.305250305250305,-1.9255189255189256,0.0,0.0,0.0,1.5,2.288156288156288,-1.4029304029304028,0.6996336996336996,0.0,0.0,1.40625,1.9426129426129424,-1.376068376068376,0.9242979242979243,0.0,0.0,1.3125,2.351648351648352,-1.3907203907203909,0.7362637362637363,0.0,0.0,1.1875,2.068376068376069,-1.5299145299145298,0.0,0.0,0.0,1.0625,2.1025641025641018,-1.072039072039072,-0.5946275946275946,0.0,0.0,0.9375,2.8119658119658117,-0.5238095238095238,0.0,0.0,0.0,0.75,3.087912087912088,-0.5006105006105006,0.0,0.0,0.0,0.53125,1.5177045177045176,0.0,-0.7912087912087912,0.0,-0.53125,0.0,0.0,0.0,-1.4017094017094016,0.0,0.0,0.0,0.7851037851037851,-0.5396825396825397,-0.9523809523809524,0.0,0.5625,0.0,1.6007326007326008,0.0,0.0,0.0,0.65625,0.0,1.1587301587301588,0.0,0.8852258852258852,0.0,0.0,0.0,0.6275946275946276,0.0,0.8656898656898657,0.0,0.0,0.0,0.0,0.0,0.0,0.0,0.0,0.0,-1.0598290598290598,0.0,-0.6837606837606838,0.0,0.0,0.0,-0.6446886446886447,0.0,-0.8742368742368742,0.0,0.0,0.0,0.0,0.0,0.0,0.0,0.0,0.0,0.0,0.0,0.0,0.0,0.0,0.0,0.0,0.0,0.0,0.0,0.0,0.0,0.0,0.0,0.0,0.0,0.0,0.0,0.0,0.0,0.0,0.0,0.0,0.0,0.0,0.0,0.0,0.0,0.0,0.0,0.0,0.0,0.0,0.0,0.0,0.0,0.0,0.0,0.0,0.0,0.0,0.0,0.0,0.0,0.0,0.0,0.0,0.0,0.0,0.0,0.0,0.0,0.0,0.0,0.0,0.0,0.0,0.0,0.0,0.0,0.0,0.0,0.0,0.0,0.0,0.0,0.0,0.0,0.0,0.0,0.0,0.0,0.0,0.0,0.0,0.0,0.0,0.0,0.0,0.0,0.0,0.0,0.0,0.0,0.0,0.0,0.0,0.0,0.0,0.0,0.0,0.0,0.0,0.0,0.0,0.0,0.0,0.0,0.0,0.0,0.0,0.0,swingAndPointForward
21,-0.503052503052503,0.0,-1.3101343101343101,0.0,0.0,0.0,-0.6581196581196581,0.0,-0.9694749694749696,0.0,0.0,0.0,0.0,0.0,0.0,0.0,0.0,0.0,0.0,0.0,-0.5995115995115995,0.0,0.0,0.0,0.0,-0.9047619047619048,-1.072039072039072,0.0,0.0,0.0,-0.7142857142857143,-0.6190476190476191,-1.242979242979243,-0.65625,0.0,0.0,-1.424908424908425,0.0,-0.5995115995115995,-0.5625,0.0,0.0,-1.4664224664224663,0.0,-0.7155067155067155,0.0,0.0,0.59375,-2.295482295482296,-0.5848595848595849,-1.8656898656898653,0.0,0.0,0.84375,-2.976800976800977,-0.6776556776556777,-2.700854700854701,-0.53125,0.0,0.9375,-2.7484737484737485,0.0,-2.3076923076923075,-0.78125,0.0,1.09375,-1.9267399267399268,-0.5811965811965812,-1.5567765567765568,-0.8125,0.0,1.34375,-2.793650793650793,0.0,-1.0769230769230769,-0.6875,0.0,1.53125,-3.3687423687423688,0.0,-0.8327228327228328,-0.625,0.0,1.71875,-3.0940170940170937,-0.5042735042735043,0.0,-0.625,0.0,1.84375,-2.1111111111111107,-1.380952380952381,-0.7802197802197802,-0.625,0.0,2.03125,-1.4664224664224663,-2.2796092796092795,-1.876678876678877,-0.78125,0.0,2.3125,-1.7838827838827842,-2.4432234432234434,-2.0744810744810747,-0.96875,-0.71875,2.5625,-0.9023199023199024,-2.2503052503052503,-1.2112332112332111,-0.875,0.0,2.625,-0.5836385836385837,-2.166056166056166,-1.2039072039072038,-0.75,0.0,2.53125,0.0,-2.2515262515262515,-0.5323565323565324,-0.84375,0.0,2.59375,0.0,-2.5396825396825395,0.0,-0.96875,-0.5625,2.65625,0.5641025641025641,-3.330891330891331,0.6788766788766789,-0.875,-0.75,2.75,0.851037851037851,-3.498168498168498,0.0,-0.6875,-0.625,2.75,1.2844932844932846,-3.2735042735042734,0.6935286935286935,0.0,0.0,2.71875,1.3724053724053724,-3.456654456654457,0.5335775335775336,0.0,0.0,2.5,1.8131868131868127,-3.5262515262515266,0.0,-0.71875,0.0,2.34375,0.0,-2.7460317460317465,0.0,-0.8125,-0.84375,2.375,-0.7557997557997558,-2.3956043956043955,0.8693528693528694,0.0,0.0,2.53125,0.0,-3.4273504273504267,0.0,0.0,0.0,2.53125,2.1184371184371185,-3.9413919413919416,0.0,0.0,0.0,2.40625,0.8437118437118437,-3.2014652014652016,0.0,-0.6875,-0.53125,2.21875,0.0,-2.4053724053724053,0.5982905982905983,0.0,0.0,2.125,0.6068376068376068,-2.855921855921856,0.0,0.0,0.0,2.28125,2.053724053724053,-3.776556776556777,0.0,0.0,0.0,2.3125,2.034188034188034,-3.4542124542124544,0.0,0.0,0.0,2.15625,1.1282051282051282,-2.449328449328449,0.503052503052503,0.0,0.0,2.03125,2.1135531135531136,-2.241758241758242,1.2466422466422469,0.0,0.0,2.0,2.4566544566544573,-2.4334554334554332,1.103785103785104,0.0,0.0,1.90625,1.525030525030525,-2.031746031746032,0.7912087912087912,0.0,-0.625,1.84375,0.7533577533577533,-1.7374847374847375,0.0,0.0,0.0,1.8125,1.4554334554334554,-2.039072039072039,0.0,0.0,0.0,1.78125,2.5579975579975582,-2.2332112332112333,0.0,0.0,0.0,1.59375,2.053724053724053,-1.5775335775335777,0.0,0.0,0.0,1.375,2.148962148962149,-1.4603174603174602,0.0,0.0,0.0,1.25,2.7032967032967035,-1.2185592185592184,0.0,0.0,0.0,1.09375,2.4249084249084247,-1.028083028083028,0.0,0.0,0.0,0.875,0.5873015873015873,-0.6935286935286935,-1.0549450549450552,0.0,0.0,0.78125,2.0195360195360195,-0.6642246642246642,-0.6398046398046398,0.0,0.0,0.8125,3.9792429792429793,0.0,0.9096459096459096,0.0,0.0,0.6875,1.6043956043956045,0.0,0.0,0.0,-0.59375,0.59375,0.0,0.0,-1.4175824175824177,0.0,0.0,0.625,1.0561660561660562,-0.5787545787545788,-1.78021978021978,0.0,0.0,0.53125,1.5286935286935286,0.0,-0.6336996336996337,0.0,0.0,0.0,1.592185592185592,0.0,1.0573870573870574,0.0,0.0,0.0,0.5482295482295483,0.0,0.6581196581196581,0.0,0.0,0.0,0.0,0.0,0.0,0.0,0.0,0.0,0.0,0.0,0.0,0.0,0.0,0.0,0.8559218559218559,0.0,0.0,0.0,0.0,0.0,0.0,0.0,0.0,0.0,0.0,0.0,0.0,0.0,0.0,0.0,0.0,0.0,0.0,0.0,0.0,0.0,0.0,0.0,0.0,0.0,0.0,0.0,0.0,0.0,0.0,0.0,0.0,0.0,0.0,0.0,0.0,0.0,0.0,0.0,0.0,0.0,0.0,0.0,0.0,0.0,0.0,0.0,0.0,0.0,0.0,0.0,0.0,0.0,0.0,0.0,0.0,0.0,0.0,0.0,0.0,0.0,0.0,0.0,0.0,0.0,0.0,0.0,0.0,0.0,0.0,0.0,0.0,0.0,0.0,0.0,0.0,0.0,0.0,0.0,0.0,0.0,0.0,0.0,0.0,0.0,0.0,0.0,0.0,0.0,0.0,0.0,0.0,0.0,0.0,0.0,0.0,0.0,0.0,0.0,0.0,0.0,0.0,0.0,0.0,0.0,0.0,0.0,0.0,0.0,0.0,0.0,0.0,0.0,0.0,0.0,0.0,0.0,0.0,0.0,0.0,0.0,0.0,0.0,0.0,0.0,0.0,0.0,0.0,0.0,0.0,0.0,swingAndPointForward
22,0.851037851037851,0.0,0.0,0.0,0.0,0.0,0.0,0.0,0.0,0.0,0.0,0.0,-0.5445665445665445,0.0,0.0,0.0,0.0,0.0,0.0,-1.2417582417582418,-1.1416361416361416,0.0,0.0,0.0,-0.6568986568986569,-0.7313797313797313,-1.1172161172161172,-0.6875,0.0,0.0,-1.641025641025641,0.0,-1.2222222222222223,-0.875,0.0,0.0,-1.4407814407814408,0.5824175824175825,0.0,-0.5625,0.0,0.0,-1.592185592185592,0.0,-0.8913308913308914,0.0,0.0,0.0,-1.8681318681318682,0.0,-1.8730158730158728,0.0,0.0,0.65625,-1.8962148962148961,0.0,-2.0195360195360195,0.0,0.0,0.75,-2.483516483516484,0.0,-2.2771672771672766,-0.59375,0.0,0.90625,-2.7545787545787546,-0.5982905982905983,-2.358974358974359,-0.84375,0.0,1.125,-2.5775335775335777,-0.514041514041514,-1.5628815628815629,-0.9375,0.0,1.3125,-2.835164835164836,0.0,-0.7094017094017094,-0.78125,0.0,1.375,-3.0476190476190474,0.0,-0.5470085470085471,-0.59375,0.0,1.5625,-2.148962148962149,-1.1282051282051282,-0.6886446886446886,-0.8125,0.0,1.78125,-2.173382173382173,-0.9169719169719168,0.0,-1.03125,0.0,1.90625,-3.7081807081807083,0.0,0.0,-0.875,0.0,1.9375,-4.31013431013431,0.0,0.0,0.0,0.65625,2.0625,-0.5067155067155067,-2.774114774114774,0.0,-0.75,0.0,2.40625,2.145299145299145,-3.686202686202686,0.0,-1.46875,-1.53125,2.5,-0.8974358974358975,-2.15018315018315,0.0,-1.375,-1.1875,2.375,-2.1257631257631258,-1.1733821733821734,0.5042735042735043,-0.59375,0.0,2.28125,0.6043956043956044,-2.862026862026862,0.0,0.0,0.0,2.34375,2.2869352869352872,-3.7423687423687424,0.0,-0.96875,-1.375,2.46875,0.0,-2.800976800976801,0.8363858363858364,-0.875,-0.65625,2.3125,-0.9242979242979243,-1.3235653235653235,1.7631257631257633,0.0,0.0,2.34375,1.463980463980464,-3.568986568986569,0.8144078144078144,0.0,0.0,2.53125,2.6056166056166057,-5.039072039072039,-0.6275946275946276,0.0,-1.375,2.40625,0.0,-4.251526251526252,-1.7704517704517704,0.0,-1.28125,2.1875,1.6288156288156288,-3.943833943833944,-1.6422466422466422,0.0,0.0,1.84375,3.95970695970696,-3.7777777777777777,-0.9987789987789988,0.0,0.625,1.8125,3.43956043956044,-2.9316239316239314,-0.6068376068376068,0.0,0.0,1.75,1.5091575091575091,-2.0488400488400487,0.0,0.0,-0.65625,1.71875,1.205128205128205,-2.0146520146520146,0.0,0.0,0.0,1.65625,0.7765567765567766,-1.7387057387057387,0.0,0.0,0.0,1.59375,1.0952380952380951,-1.7142857142857142,0.0,0.0,0.0,1.59375,0.0,-1.6654456654456655,0.0,0.0,0.0,1.5,0.0,-1.3015873015873016,0.0,0.0,0.0,1.5625,0.7619047619047619,-1.0793650793650793,1.0024420024420024,0.0,0.0,1.59375,0.7814407814407814,-1.5164835164835164,0.0,0.0,0.0,1.59375,0.9255189255189256,-1.5787545787545787,0.0,0.0,0.0,1.5625,0.7496947496947497,-1.2686202686202686,0.5421245421245421,0.0,0.0,1.5,0.0,-0.8620268620268621,0.0,0.0,0.0,1.46875,0.6568986568986569,-1.1062271062271063,0.0,0.0,0.0,1.5,1.953601953601953,-1.3821733821733821,0.5763125763125763,0.0,0.0,1.46875,2.1025641025641018,-1.4053724053724053,0.0,0.0,0.0,1.25,1.9951159951159951,-0.7875457875457875,0.5347985347985348,0.0,0.0,1.15625,1.663003663003663,-0.503052503052503,0.6349206349206349,0.0,0.0,1.09375,1.1514041514041513,0.0,0.0,0.0,0.0,0.96875,1.4847374847374848,0.0,0.0,0.0,0.0,0.875,1.4554334554334554,0.0,0.0,0.0,0.0,0.71875,1.5909645909645909,0.0,0.0,0.0,0.0,0.5625,1.68009768009768,0.0,0.0,0.0,0.0,0.0,0.0,0.0,0.0,0.0,0.0,0.0,0.0,0.0,-0.811965811965812,0.0,0.0,0.0,0.0,0.0,-0.7716727716727717,0.0,0.625,0.0,0.8156288156288156,0.0,0.0,0.0,0.0,0.0,1.1257631257631258,0.0,0.0,0.0,0.0,0.0,0.0,0.0,0.0,0.0,0.0,0.0,-0.6105006105006106,0.0,-1.0012210012210012,0.0,0.0,0.0,-0.6935286935286935,0.0,-0.8205128205128205,0.0,0.0,0.0,0.0,0.0,0.0,0.0,0.0,0.0,0.0,0.0,0.0,0.0,0.0,0.0,0.0,0.0,0.0,0.0,0.0,0.0,0.0,0.0,0.0,0.0,0.0,0.0,0.0,0.0,0.0,0.0,0.0,0.0,0.0,0.0,0.0,0.0,0.0,0.0,0.0,0.0,0.0,0.0,0.0,0.0,0.0,0.0,0.0,0.0,0.0,0.0,0.0,0.0,0.0,0.0,0.0,0.0,0.0,0.0,0.0,0.0,0.0,0.0,0.0,0.0,0.0,0.0,0.0,0.0,0.0,0.0,0.0,0.0,0.0,0.0,0.0,0.0,0.0,0.0,0.0,0.0,0.0,0.0,0.0,0.0,0.0,0.0,0.0,0.0,0.0,0.0,0.0,0.0,0.0,0.0,0.0,0.0,0.0,0.0,0.0,0.0,0.0,0.0,0.0,0.0,0.0,0.0,0.0,0.0,0.0,0.0,swingAndPointForward
23,0.0,0.0,0.0,0.0,0.0,0.0,0.0,0.0,0.0,0.0,0.0,0.0,0.0,0.0,0.0,0.0,0.0,0.0,0.0,0.0,0.0,0.0,0.0,0.0,0.0,0.0,0.0,0.0,0.0,0.0,-1.0989010989010992,0.0,0.0,0.0,0.0,0.0,-1.2759462759462759,0.0,-0.8290598290598291,0.0,0.0,0.0,-1.6105006105006106,0.0,-1.6507936507936507,0.0,0.0,0.0,-2.1172161172161172,0.0,-1.844932844932845,0.0,0.0,0.5625,-1.8388278388278387,0.0,-1.824175824175824,0.0,0.0,0.71875,-1.5030525030525033,-0.7460317460317459,-1.884004884004884,-0.5625,0.0,0.84375,-1.8388278388278387,-0.7838827838827839,-2.151404151404152,0.0,0.0,1.0,-2.1648351648351647,-0.7960927960927959,-2.2808302808302807,0.0,0.0,1.125,-1.8583638583638584,-1.2466422466422469,-2.7326007326007327,-0.53125,0.0,1.15625,-2.5885225885225887,-1.3394383394383391,-2.9633699633699635,-0.9375,0.0,1.375,-3.6971916971916974,-1.0671550671550671,-2.467643467643468,-1.1875,0.0,1.6875,-3.2710622710622714,-0.9511599511599512,-1.3345543345543345,-1.1875,0.0,1.90625,-1.2234432234432235,-1.7875457875457876,-0.5885225885225885,-1.0,0.0,2.09375,0.0,-2.0061050061050056,0.0,-1.3125,0.0,2.28125,-0.7106227106227107,-1.6617826617826619,0.0,-1.46875,-0.78125,2.25,-0.5873015873015873,-1.4725274725274726,0.0,-0.90625,0.0,2.25,0.0,-1.3052503052503053,0.0,-0.625,0.0,2.3125,0.0,-1.4786324786324787,0.0,-0.71875,0.0,2.3125,0.9719169719169721,-1.3711843711843712,0.9597069597069596,-0.90625,-0.90625,2.3125,0.0,-1.115995115995116,1.3565323565323566,-0.90625,-1.03125,2.34375,0.5042735042735043,-1.5738705738705738,1.3821733821733821,0.0,-0.9375,2.40625,0.5641025641025641,-1.9706959706959708,0.7582417582417582,0.0,-0.8125,2.46875,0.6776556776556777,-2.5079365079365084,0.0,0.0,-0.59375,2.21875,0.0,-2.156288156288156,0.0,0.0,0.0,2.0625,0.0,-1.8620268620268616,0.5091575091575091,0.0,0.0,2.125,1.7533577533577531,-2.8192918192918195,0.6727716727716728,0.0,-1.15625,2.25,0.8803418803418803,-2.691086691086692,0.5494505494505495,0.0,-1.1875,2.28125,0.0,-2.495726495726496,0.0,0.0,0.0,2.09375,0.8681318681318682,-2.407814407814408,0.0,0.0,0.0,1.9375,1.3553113553113554,-2.4481074481074483,0.0,0.0,0.0,1.9375,1.7765567765567765,-2.0061050061050056,0.0,0.0,-0.75,2.0,0.0,-1.9743589743589745,0.0,0.0,-0.59375,1.96875,0.0,-1.8925518925518925,0.0,0.0,0.0,1.90625,0.8388278388278388,-1.6813186813186811,0.0,0.0,0.0,1.84375,1.5030525030525033,-1.7643467643467643,0.0,0.0,0.0,1.71875,0.7875457875457875,-1.2368742368742371,0.0,0.0,0.0,1.6875,0.0,-1.3699633699633702,0.0,0.0,0.0,1.71875,1.120879120879121,-1.492063492063492,0.5555555555555556,0.0,0.0,1.8125,0.0,-1.3724053724053724,0.0,0.0,0.5625,1.71875,0.6886446886446886,-1.343101343101343,0.0,0.0,0.78125,1.59375,3.137973137973138,-1.0354090354090355,0.8534798534798534,0.0,0.0,1.46875,1.3186813186813189,0.0,0.7326007326007326,0.0,0.0,1.40625,2.4053724053724053,-1.1746031746031746,0.0,0.0,0.0,1.34375,2.6849816849816848,-1.2283272283272284,0.0,0.0,0.0,1.21875,2.326007326007326,-0.9084249084249084,0.0,0.0,0.0,1.125,2.283272283272283,-0.8901098901098901,0.0,0.0,0.0,0.9375,2.2625152625152625,0.0,0.0,0.0,0.0,0.71875,2.0329670329670333,-0.5738705738705738,0.0,0.0,0.0,0.625,2.3614163614163606,-0.6520146520146519,0.0,0.0,0.0,0.53125,1.8693528693528687,0.0,0.0,0.0,0.0,0.0,0.956043956043956,0.0,0.0,0.0,0.0,0.0,1.2942612942612943,0.0,0.0,0.0,0.0,0.0,0.8962148962148963,0.0,0.0,0.0,0.0,0.0,0.0,0.0,0.0,0.0,0.0,0.0,0.0,0.0,0.0,0.0,0.0,0.0,0.0,0.0,0.0,0.0,0.0,0.0,0.0,0.0,0.0,0.0,0.0,0.0,0.0,0.0,0.0,0.0,0.0,0.0,0.0,0.0,0.0,0.0,0.0,0.0,0.0,0.0,0.0,0.0,0.0,0.0,0.0,0.0,0.0,0.0,0.0,0.0,0.0,0.0,0.0,0.0,0.0,0.0,0.0,0.0,0.0,0.0,0.0,0.0,0.0,0.0,0.0,0.0,0.0,0.0,0.0,0.0,0.0,0.0,0.0,0.0,0.0,0.0,0.0,0.0,0.0,0.0,0.0,0.0,0.0,0.0,0.0,0.0,0.0,0.0,0.0,0.0,0.0,0.0,0.0,0.0,0.0,0.0,0.0,0.0,0.0,0.0,0.0,0.0,0.0,0.0,0.0,0.0,0.0,0.0,0.0,0.0,0.0,0.0,0.0,0.0,0.0,0.0,0.0,0.0,0.0,0.0,0.0,0.0,0.0,0.0,0.0,0.0,0.0,0.0,0.0,0.0,0.0,0.0,0.0,0.0,swingAndPointForward
24,0.7326007326007326,0.0,0.0,0.0,0.0,0.0,0.0,0.0,0.0,0.0,0.0,0.0,0.0,0.0,0.0,0.0,0.0,0.0,0.0,-0.6923076923076923,-0.8595848595848596,0.0,0.0,0.0,0.0,0.0,-1.565323565323565,-0.5625,0.0,0.0,-0.9694749694749696,0.0,-1.4603174603174602,-0.71875,0.0,0.0,-1.391941391941392,0.0,-1.2991452991452992,-0.78125,0.0,0.0,-1.4884004884004884,0.0,-0.9658119658119658,-0.71875,0.0,0.0,-1.7362637362637363,0.0,-0.9084249084249084,-0.5625,0.0,0.0,-2.3797313797313797,0.0,-1.824175824175824,-0.59375,0.0,0.65625,-2.868131868131868,0.0,-2.094017094017094,-0.65625,0.0,0.90625,-3.0048840048840044,0.0,-1.7301587301587302,0.0,0.0,1.125,-2.3003663003663,-0.6336996336996337,-2.0268620268620268,-0.625,0.0,1.28125,-2.0549450549450547,-0.5421245421245421,-1.6605616605616609,-0.90625,0.0,1.40625,-2.6556776556776556,0.0,-1.1746031746031746,-0.9375,0.0,1.5625,-2.8852258852258847,-0.5482295482295483,-1.5970695970695972,-0.5625,0.0,1.96875,-2.1648351648351647,-2.1538461538461537,-3.2527472527472527,-0.65625,0.0,2.03125,-1.3418803418803418,-1.8192918192918195,-2.2588522588522597,-1.09375,0.0,2.125,-1.9255189255189256,-1.1123321123321124,-0.6691086691086691,-1.25,0.0,2.25,-2.0915750915750917,-1.1025641025641026,0.0,-1.125,0.0,2.375,-1.1196581196581197,-1.4224664224664223,1.0647130647130647,-1.03125,0.0,2.5625,0.0,-2.086691086691087,1.115995115995116,-0.96875,-0.78125,2.78125,0.0,-2.2698412698412698,0.9291819291819292,-0.875,-1.0,2.6875,0.0,-1.9987789987789988,0.9633699633699634,-0.75,-0.8125,2.5625,0.0,-2.515262515262515,0.6434676434676435,-0.5625,-0.65625,2.5625,1.4908424908424909,-3.5665445665445668,0.0,0.0,-0.75,2.625,1.5628815628815629,-3.043956043956044,0.0,0.0,-1.03125,2.59375,0.0,-2.891330891330892,0.0,0.0,-1.03125,2.46875,0.536019536019536,-3.3321123321123323,0.0,0.0,-0.53125,2.375,1.8681318681318682,-3.4053724053724053,0.0,0.0,0.0,2.375,1.7667887667887667,-2.5274725274725283,1.0586080586080586,0.0,-0.59375,2.375,1.3040293040293038,-2.9206349206349205,0.0,0.0,-0.84375,2.40625,1.1391941391941391,-3.645909645909647,-1.0463980463980465,0.0,-0.5625,2.21875,1.407814407814408,-2.855921855921856,0.0,0.0,0.0,2.0,1.7924297924297925,-2.435897435897436,0.5347985347985348,0.0,0.0,1.96875,1.7216117216117215,-2.1184371184371185,0.568986568986569,0.0,0.0,1.9375,1.0317460317460319,-1.746031746031746,0.0,0.0,-0.65625,1.96875,1.2527472527472527,-2.8021978021978016,-0.5225885225885226,0.0,0.0,1.96875,1.6581196581196582,-2.652014652014652,-0.7716727716727717,0.0,0.0,1.75,1.249084249084249,-1.915750915750916,0.0,0.0,0.0,1.5625,0.6105006105006106,-1.3296703296703296,0.0,0.0,0.0,1.46875,0.0,-0.8437118437118437,0.0,0.0,0.0,1.5,0.0,-0.9316239316239316,0.8449328449328449,0.0,0.0,1.53125,1.1282051282051282,-1.4285714285714286,1.2832722832722834,0.0,0.0,1.5625,2.7118437118437115,-1.844932844932845,1.3308913308913308,0.0,0.0,1.5,2.6227106227106227,-1.5286935286935286,0.5873015873015873,0.0,0.0,1.28125,1.947496947496948,-1.2796092796092795,-0.518925518925519,0.0,0.0,1.125,1.691086691086691,-1.2551892551892552,-1.0573870573870574,0.0,0.0,1.0,1.0561660561660562,-0.5372405372405372,-0.5604395604395604,0.0,0.0,0.9375,1.3565323565323566,0.0,0.0,0.0,0.0,1.03125,2.483516483516484,-0.8046398046398047,0.8376068376068376,0.0,0.0,0.90625,2.5360195360195363,-0.5909645909645911,0.7338217338217338,0.0,0.0,0.6875,1.9096459096459093,0.0,0.5506715506715507,0.0,0.0,0.5625,1.844932844932845,0.0,0.0,0.0,0.0,0.53125,1.192918192918193,0.0,0.0,0.0,0.0,0.0,0.6434676434676435,0.0,0.0,0.0,0.0,0.0,0.7924297924297924,0.0,-0.5091575091575091,0.0,0.0,0.0,0.6043956043956044,0.0,0.0,0.0,0.0,0.0,0.6080586080586079,0.0,0.0,0.0,0.0,0.0,0.0,0.0,0.0,0.0,0.0,0.0,0.0,0.0,-0.7753357753357754,0.0,0.0,0.0,0.0,0.0,0.0,0.0,0.0,0.0,0.0,0.0,0.0,0.0,0.0,0.0,0.0,0.0,0.0,0.0,0.0,0.0,0.0,0.0,0.0,0.0,0.0,0.0,0.0,0.0,0.0,0.0,0.0,0.0,0.0,0.0,0.0,0.0,0.0,0.0,0.0,0.0,0.0,0.0,0.0,0.0,0.0,0.0,0.0,0.0,0.0,0.0,0.0,0.0,0.0,0.0,0.0,0.0,0.0,0.0,0.0,0.0,0.0,0.0,0.0,0.0,0.0,0.0,0.0,0.0,0.0,0.0,0.0,0.0,0.0,0.0,0.0,0.0,0.0,0.0,0.0,0.0,0.0,0.0,0.0,0.0,0.0,0.0,0.0,0.0,0.0,0.0,0.0,0.0,0.0,0.0,0.0,0.0,0.0,0.0,0.0,0.0,0.0,0.0,0.0,0.0,0.0,0.0,0.0,0.0,0.0,0.0,0.0,0.0,0.0,0.0,0.0,0.0,swingAndPointForward
25,0.0,0.0,-0.5433455433455433,0.0,0.0,0.0,0.0,-0.6434676434676435,-0.5091575091575091,0.0,0.0,0.0,0.0,0.0,0.0,0.0,0.0,0.0,-0.5750915750915749,0.0,0.0,0.0,0.0,0.0,-1.0769230769230769,0.0,-0.6263736263736264,0.0,0.0,0.0,-1.57997557997558,-0.5103785103785103,-1.5396825396825398,0.0,0.0,0.0,-2.619047619047619,-0.5494505494505495,-2.4871794871794872,0.0,0.0,0.0,-3.1025641025641018,0.0,-2.4615384615384617,-0.78125,0.0,0.65625,-3.3968253968253967,0.0,-2.034188034188034,-0.9375,0.0,0.84375,-2.8986568986568986,0.0,-1.6813186813186811,-0.8125,0.0,1.15625,-1.9438339438339443,-0.9975579975579976,-1.684981684981685,-0.875,0.0,1.375,-1.5982905982905984,-0.9987789987789988,-1.3296703296703296,-1.0,0.0,1.4375,-1.855921855921856,-0.525030525030525,-0.8290598290598291,-0.90625,0.0,1.46875,-1.9768009768009769,0.0,0.0,-0.6875,0.0,1.5,-1.0073260073260073,-0.7240537240537241,0.0,-0.65625,0.0,1.59375,-0.9218559218559218,-0.5775335775335775,0.8986568986568987,-0.71875,0.0,1.6875,-1.6105006105006106,-0.7924297924297924,0.7387057387057387,-0.5625,-0.53125,1.875,-1.164835164835165,-1.8461538461538465,0.0,-0.53125,0.0,2.0625,0.0,-2.4395604395604398,0.0,-0.65625,-0.625,2.03125,0.0,-2.0989010989010994,0.0,-0.65625,-0.53125,1.84375,0.0,-1.4700854700854702,0.0,-0.5625,0.0,1.8125,0.0,-1.3675213675213675,0.0,0.0,0.0,1.96875,0.0,-1.8901098901098896,0.0,0.0,-0.71875,2.1875,1.2344322344322345,-2.8107448107448105,-0.7496947496947497,0.0,-1.125,2.3125,0.6605616605616605,-2.7460317460317465,-1.8327228327228329,0.0,-0.875,2.125,0.0,-1.9377289377289373,-1.7484737484737485,-0.53125,0.0,2.03125,0.0,-1.531135531135531,-0.7533577533577533,0.0,0.0,2.0625,0.0,-1.3992673992673992,0.0,0.0,0.0,2.21875,0.0,-1.5946275946275947,0.0,0.0,-0.90625,2.40625,-0.9035409035409036,-1.938949938949939,-0.6105006105006106,0.0,-0.5625,2.3125,0.0,-2.1111111111111107,0.0,0.0,0.0,2.34375,0.0,-1.9768009768009769,1.177045177045177,0.0,0.0,2.3125,0.0,-2.148962148962149,0.9462759462759462,0.0,0.0,2.3125,1.8156288156288158,-3.0891330891330893,1.020757020757021,0.0,0.0,2.3125,2.68986568986569,-2.9059829059829063,1.5067155067155067,0.0,0.0,2.0625,1.3748473748473748,-1.592185592185592,1.8302808302808304,0.0,0.0,1.96875,0.8034188034188035,-1.4774114774114775,1.343101343101343,0.0,0.0,1.90625,0.6056166056166056,-1.945054945054945,0.0,0.0,0.0,1.84375,1.4761904761904765,-2.737484737484737,-0.8864468864468864,-0.59375,0.0,1.84375,0.0,-2.1086691086691087,0.0,0.0,-0.71875,1.78125,0.8449328449328449,-2.0976800976800978,-0.7057387057387058,0.0,0.0,1.9375,2.601953601953602,-2.399267399267399,0.0,0.0,0.0,1.90625,2.5995115995116,-2.1623931623931623,0.0,0.0,0.0,1.625,1.9438339438339443,-1.6813186813186811,0.0,0.0,0.0,1.5,2.2356532356532357,-1.4297924297924298,0.0,0.0,0.0,1.40625,2.641025641025641,-1.3296703296703296,0.0,0.0,0.0,1.21875,2.144078144078144,-1.1172161172161172,0.0,0.0,0.0,1.0625,1.8021978021978025,0.0,0.0,0.0,0.0,1.0,1.9865689865689864,0.0,0.5824175824175825,0.0,0.0,1.03125,1.9877899877899878,-0.5665445665445665,0.5079365079365079,0.0,0.0,0.9375,1.91941391941392,-0.6324786324786325,0.0,0.0,0.0,0.78125,1.0952380952380951,0.0,0.0,0.0,0.0,0.625,0.9719169719169721,0.0,0.0,0.0,0.0,0.59375,0.6190476190476191,0.0,0.6715506715506715,0.0,0.0,0.0,1.061050061050061,0.0,0.9731379731379732,0.0,0.0,0.0,1.3492063492063493,0.0,0.0,0.0,0.0,0.0,0.0,0.0,-1.0329670329670328,0.0,0.0,0.0,0.0,0.0,-1.1184371184371185,0.0,0.0,0.0,0.0,0.0,-0.6568986568986569,0.0,0.0,0.0,0.0,0.0,0.0,0.0,0.0,0.0,0.0,0.0,0.0,0.0,0.0,0.0,0.0,0.0,0.0,0.0,0.0,0.0,0.0,0.0,0.0,0.0,0.0,0.0,0.0,0.0,0.0,0.0,0.0,0.0,0.0,0.0,0.0,0.0,0.0,0.0,0.0,0.0,0.0,0.0,0.0,0.0,0.0,0.0,0.0,0.0,0.0,0.0,0.0,0.0,0.0,0.0,0.0,0.0,0.0,0.0,0.0,0.0,0.0,0.0,0.0,0.0,0.0,0.0,0.0,0.0,0.0,0.0,0.0,0.0,0.0,0.0,0.0,0.0,0.0,0.0,0.0,0.0,0.0,0.0,0.0,0.0,0.0,0.0,0.0,0.0,0.0,0.0,0.0,0.0,0.0,0.0,0.0,0.0,0.0,0.0,0.0,0.0,0.0,0.0,0.0,0.0,0.0,0.0,0.0,0.0,0.0,0.0,0.0,0.0,0.0,0.0,0.0,0.0,0.0,0.0,0.0,0.0,0.0,0.0,0.0,0.0,0.0,0.0,0.0,0.0,swingAndPointForward
26,0.0,0.0,0.0,0.0,0.0,0.0,0.0,0.0,0.0,0.0,0.0,0.0,0.0,0.0,0.0,0.0,0.0,0.0,-0.5482295482295483,0.0,-0.6935286935286935,0.0,0.0,0.0,-1.1684981684981686,0.0,-0.5885225885225885,0.0,0.0,0.0,-1.6043956043956045,0.5323565323565324,0.0,0.0,0.0,0.0,-1.0183150183150182,0.0,0.0,0.0,0.0,0.0,-1.15995115995116,0.0,-1.0573870573870574,0.0,0.0,0.5625,-2.017094017094017,0.0,-1.5152625152625152,-0.53125,0.0,0.59375,-2.752136752136752,0.0,-1.761904761904762,0.0,0.0,0.71875,-3.346764346764347,-0.6532356532356532,-3.123321123321124,0.0,0.0,0.96875,-2.960927960927961,-1.05006105006105,-3.431013431013431,0.0,0.0,1.21875,-2.025641025641025,-1.2271062271062272,-2.8034188034188032,-0.71875,0.0,1.4375,-1.6007326007326008,-0.8962148962148963,-1.6691086691086692,-1.03125,0.0,1.59375,-2.3284493284493286,0.0,-0.8559218559218559,-1.03125,0.0,1.65625,-2.0427350427350426,-0.9474969474969476,-0.7997557997557998,-0.75,0.0,1.84375,-0.8620268620268621,-2.3797313797313797,-1.5616605616605617,-0.625,0.0,2.0,0.0,-2.5164835164835164,-1.3284493284493284,-1.09375,-0.53125,2.125,0.0,-1.8510378510378511,0.0,-1.375,-0.625,2.09375,0.0,-1.1526251526251523,0.0,-1.1875,0.0,2.0,0.0,-1.8156288156288158,0.0,-0.6875,0.0,2.0625,0.0,-2.590964590964591,-1.144078144078144,-0.59375,0.0,2.1875,0.0,-2.26007326007326,-1.0366300366300367,-0.84375,-0.53125,2.1875,0.0,-1.8510378510378511,0.0,-0.9375,0.0,2.1875,0.0,-1.656898656898657,0.0,-0.78125,0.0,2.21875,0.0,-1.8388278388278387,0.0,0.0,0.0,2.28125,0.0,-2.449328449328449,0.0,0.0,0.0,2.34375,0.6056166056166056,-2.52014652014652,0.0,-0.625,0.0,2.21875,1.3418803418803418,-2.462759462759463,0.9633699633699634,-0.59375,0.0,2.21875,0.0,-2.148962148962149,0.6874236874236874,0.0,-0.71875,2.375,-0.5201465201465202,-2.015873015873016,0.9157509157509156,0.0,0.0,2.53125,0.0,-2.8058608058608057,0.9328449328449328,0.0,0.0,2.34375,0.0,-2.9865689865689866,0.5323565323565324,0.0,0.0,2.1875,1.3577533577533578,-3.245421245421245,0.0,0.0,0.0,2.21875,1.6056166056166057,-2.659340659340659,1.0805860805860803,0.0,-0.65625,2.28125,0.0,-2.1086691086691087,0.9438339438339438,0.0,0.0,2.375,0.0,-2.7863247863247858,0.0,0.0,0.0,2.21875,1.0158730158730158,-3.3223443223443225,0.0,0.0,0.0,2.0625,2.3015873015873014,-2.595848595848596,1.1794871794871795,0.0,0.0,1.96875,0.6959706959706959,-1.6666666666666667,1.9133089133089127,0.0,0.0,2.03125,0.0,-1.7130647130647132,1.1807081807081807,0.0,0.0,2.0625,0.0,-2.578754578754579,0.0,0.0,0.0,1.9375,1.4822954822954824,-2.542124542124542,0.7582417582417582,0.0,0.0,1.90625,2.083028083028083,-1.752136752136752,1.4407814407814408,0.0,0.0,1.875,1.3724053724053724,-1.5067155067155067,0.9816849816849816,0.0,0.0,1.9375,1.6935286935286935,-1.825396825396825,0.0,0.59375,0.0,1.90625,3.3650793650793656,-2.4395604395604398,0.0,0.0,0.0,1.6875,3.4444444444444446,-1.8485958485958487,0.0,0.0,0.0,1.4375,2.765567765567765,0.0,0.0,0.0,0.0,1.4375,3.8522588522588523,-0.9865689865689866,0.0,0.53125,0.0,1.28125,3.641025641025641,-1.1489621489621489,0.0,0.0,-0.65625,0.90625,1.9255189255189256,-0.5897435897435898,-0.8620268620268621,0.0,0.0,0.71875,2.6312576312576312,0.0,0.0,0.0,0.0,0.625,2.9536019536019538,-0.5555555555555556,0.0,0.0,0.0,0.0,1.3540903540903542,0.0,-1.2368742368742371,0.0,0.0,0.0,0.0,0.0,-1.336996336996337,0.0,0.0,0.0,0.9108669108669109,0.0,-0.6422466422466423,0.0,0.0,0.0,1.5873015873015872,0.0,0.0,0.0,0.0,0.0,1.0415140415140416,0.0,0.0,0.0,0.0,0.0,0.6263736263736264,0.0,0.0,0.0,0.0,0.0,0.0,0.0,0.0,0.0,0.0,0.0,0.0,0.0,0.0,0.0,0.0,0.0,0.0,0.0,0.0,0.0,0.0,0.0,0.0,0.0,0.0,0.0,0.0,0.0,0.0,0.0,0.0,0.0,0.0,0.0,0.0,0.0,0.0,0.0,0.0,0.0,0.0,0.0,0.0,0.0,0.0,0.0,0.0,0.0,0.0,0.0,0.0,0.0,0.0,0.0,0.0,0.0,0.0,0.0,0.0,0.0,0.0,0.0,0.0,0.0,0.0,0.0,0.0,0.0,0.0,0.0,0.0,0.0,0.0,0.0,0.0,0.0,0.0,0.0,0.0,0.0,0.0,0.0,0.0,0.0,0.0,0.0,0.0,0.0,0.0,0.0,0.0,0.0,0.0,0.0,0.0,0.0,0.0,0.0,0.0,0.0,0.0,0.0,0.0,0.0,0.0,0.0,0.0,0.0,0.0,0.0,0.0,0.0,0.0,0.0,0.0,0.0,0.0,0.0,0.0,0.0,0.0,0.0,0.0,0.0,swingAndPointForward
27,0.0,0.0,0.0,0.0,0.0,0.0,0.0,0.0,0.0,0.0,0.0,0.0,0.0,-0.6385836385836385,0.0,0.0,0.0,0.0,0.0,0.0,0.0,0.0,0.0,0.0,0.0,0.0,0.0,0.0,0.0,0.0,-1.4810744810744811,0.0,0.0,0.0,0.0,0.0,-2.2588522588522597,0.0,-0.851037851037851,0.0,0.0,0.0,-2.3907203907203907,0.0,-0.9804639804639804,0.0,0.0,0.5625,-2.8046398046398044,0.0,-1.6495726495726497,0.0,0.0,0.78125,-3.0390720390720385,0.0,-2.3223443223443225,-0.53125,0.0,1.125,-2.884004884004884,-0.663003663003663,-2.9401709401709404,0.0,0.0,1.375,-2.4566544566544573,-0.9572649572649572,-3.391941391941392,-0.5625,0.0,1.5,-2.645909645909646,-0.9218559218559218,-3.3907203907203907,-0.75,0.0,1.5625,-2.5482295482295485,-0.9865689865689866,-3.0561660561660564,-1.0,0.0,1.6875,-1.9059829059829057,-0.6239316239316239,-2.144078144078144,-1.125,0.0,1.90625,-0.7338217338217338,-1.0512820512820509,-1.8693528693528687,-1.1875,-1.0,2.125,-1.691086691086691,-1.166056166056166,-1.9877899877899878,-1.0625,-0.96875,2.21875,-2.0146520146520146,-1.3772893772893773,-2.017094017094017,-0.96875,0.0,2.25,-1.5006105006105006,-1.5213675213675213,-1.4163614163614164,-0.90625,0.0,2.28125,0.0,-1.8913308913308915,-0.6849816849816851,-1.0625,0.0,2.375,0.9304029304029304,-2.1636141636141635,0.0,-1.125,-1.1875,2.59375,0.0,-1.8803418803418803,-0.6422466422466423,-0.84375,-0.75,2.5625,0.0,-2.4603174603174605,-1.2783882783882785,-0.78125,0.0,2.34375,0.0,-2.706959706959707,-1.336996336996337,-0.90625,0.0,2.34375,0.0,-2.6043956043956045,-0.8437118437118437,-1.125,0.0,2.46875,-0.7142857142857143,-2.0366300366300365,0.0,-0.9375,-0.875,2.75,-0.6984126984126984,-2.6117216117216118,0.0,0.0,-0.65625,2.9375,0.0,-3.3846153846153846,0.0,0.0,0.0,2.875,0.0,-3.4236874236874235,0.6605616605616605,-0.8125,0.0,2.75,0.0,-2.6666666666666665,2.062271062271062,-1.0625,0.0,2.78125,0.0,-2.578754578754579,2.8925518925518925,-0.5625,-0.53125,2.9375,0.0,-3.7142857142857135,1.6605616605616609,0.0,0.0,3.0625,0.0,-5.095238095238095,0.0,0.0,0.0,2.875,2.3638583638583643,-5.199023199023199,0.0,0.0,0.0,2.625,2.822954822954824,-3.868131868131868,0.7948717948717948,-0.75,0.0,2.34375,1.5213675213675213,-2.915750915750916,1.391941391941392,0.0,0.0,2.25,1.028083028083028,-2.8046398046398044,0.7912087912087912,0.0,0.0,2.125,1.0402930402930404,-2.791208791208791,0.0,0.0,0.0,2.0625,1.4981684981684982,-2.1343101343101343,1.3272283272283272,0.0,0.0,2.0,0.6984126984126984,-1.0329670329670328,2.0378510378510377,0.0,-0.59375,1.84375,0.0,-0.5299145299145299,1.9853479853479847,0.0,-0.53125,1.71875,0.0,-1.1538461538461535,1.6178266178266183,0.0,0.0,1.75,0.0,-1.7655677655677655,0.7094017094017094,0.0,-0.71875,2.0,-0.5677655677655677,-2.203907203907204,0.0,0.53125,-0.78125,2.125,0.0,-2.6166056166056166,-0.7118437118437119,0.625,0.0,2.09375,3.543345543345543,-3.609279609279609,0.0,0.0,0.0,2.09375,5.6752136752136755,-3.0415140415140414,0.6556776556776557,0.0,-0.78125,1.78125,4.678876678876679,-2.593406593406593,0.0,0.0,-0.90625,1.46875,3.8864468864468864,-2.1086691086691087,-1.0891330891330893,0.0,0.0,1.21875,5.188034188034189,-2.3382173382173383,-0.8632478632478633,0.0,0.0,0.875,5.621489621489621,-1.7851037851037852,-0.5091575091575091,0.0,0.0,0.0,3.3540903540903533,-0.7802197802197802,-0.8620268620268621,0.0,0.0,0.0,2.351648351648352,0.0,-0.6398046398046398,0.0,0.0,0.0,2.3211233211233213,0.0,0.0,0.0,0.0,0.0,1.728937728937729,0.0,0.0,0.0,0.0,0.0,1.4383394383394383,0.0,0.0,0.0,0.0,0.0,0.7606837606837606,0.0,-0.7057387057387058,0.0,0.0,0.0,0.8791208791208791,0.0,-0.8156288156288156,0.0,0.0,0.0,1.5616605616605617,-0.7521367521367521,0.0,0.0,0.0,0.0,0.0,0.0,0.0,0.0,0.0,0.0,0.0,0.0,0.0,0.0,0.0,0.0,0.0,0.0,0.0,0.0,0.0,0.0,0.0,0.0,0.0,0.0,0.0,0.0,0.0,0.0,0.0,0.0,0.0,0.0,0.0,0.0,0.0,0.0,0.0,0.0,0.0,0.0,0.0,0.0,0.0,0.0,0.0,0.0,0.0,0.0,0.0,0.0,0.0,0.0,0.0,0.0,0.0,0.0,0.0,0.0,0.0,0.0,0.0,0.0,0.0,0.0,0.0,0.0,0.0,0.0,0.0,0.0,0.0,0.0,0.0,0.0,0.0,0.0,0.0,0.0,0.0,0.0,0.0,0.0,0.0,0.0,0.0,0.0,0.0,0.0,0.0,0.0,0.0,0.0,0.0,0.0,0.0,0.0,0.0,0.0,0.0,0.0,0.0,0.0,0.0,0.0,0.0,0.0,0.0,0.0,0.0,0.0,0.0,0.0,0.0,0.0,0.0,0.0,0.0,0.0,0.0,0.0,0.0,0.0,0.0,0.0,0.0,0.0,0.0,0.0,swingAndPointForward
