,00_accX,00_accY,00_accZ,00_gyroX,00_gyroY,00_gyroZ,01_accX,01_accY,01_accZ,01_gyroX,01_gyroY,01_gyroZ,02_accX,02_accY,02_accZ,02_gyroX,02_gyroY,02_gyroZ,03_accX,03_accY,03_accZ,03_gyroX,03_gyroY,03_gyroZ,04_accX,04_accY,04_accZ,04_gyroX,04_gyroY,04_gyroZ,05_accX,05_accY,05_accZ,05_gyroX,05_gyroY,05_gyroZ,06_accX,06_accY,06_accZ,06_gyroX,06_gyroY,06_gyroZ,07_accX,07_accY,07_accZ,07_gyroX,07_gyroY,07_gyroZ,08_accX,08_accY,08_accZ,08_gyroX,08_gyroY,08_gyroZ,09_accX,09_accY,09_accZ,09_gyroX,09_gyroY,09_gyroZ,10_accX,10_accY,10_accZ,10_gyroX,10_gyroY,10_gyroZ,11_accX,11_accY,11_accZ,11_gyroX,11_gyroY,11_gyroZ,12_accX,12_accY,12_accZ,12_gyroX,12_gyroY,12_gyroZ,13_accX,13_accY,13_accZ,13_gyroX,13_gyroY,13_gyroZ,14_accX,14_accY,14_accZ,14_gyroX,14_gyroY,14_gyroZ,15_accX,15_accY,15_accZ,15_gyroX,15_gyroY,15_gyroZ,16_accX,16_accY,16_accZ,16_gyroX,16_gyroY,16_gyroZ,17_accX,17_accY,17_accZ,17_gyroX,17_gyroY,17_gyroZ,18_accX,18_accY,18_accZ,18_gyroX,18_gyroY,18_gyroZ,19_accX,19_accY,19_accZ,19_gyroX,19_gyroY,19_gyroZ,20_accX,20_accY,20_accZ,20_gyroX,20_gyroY,20_gyroZ,21_accX,21_accY,21_accZ,21_gyroX,21_gyroY,21_gyroZ,22_accX,22_accY,22_accZ,22_gyroX,22_gyroY,22_gyroZ,23_accX,23_accY,23_accZ,23_gyroX,23_gyroY,23_gyroZ,24_accX,24_accY,24_accZ,24_gyroX,24_gyroY,24_gyroZ,25_accX,25_accY,25_accZ,25_gyroX,25_gyroY,25_gyroZ,26_accX,26_accY,26_accZ,26_gyroX,26_gyroY,26_gyroZ,27_accX,27_accY,27_accZ,27_gyroX,27_gyroY,27_gyroZ,28_accX,28_accY,28_accZ,28_gyroX,28_gyroY,28_gyroZ,29_accX,29_accY,29_accZ,29_gyroX,29_gyroY,29_gyroZ,30_accX,30_accY,30_accZ,30_gyroX,30_gyroY,30_gyroZ,31_accX,31_accY,31_accZ,31_gyroX,31_gyroY,31_gyroZ,32_accX,32_accY,32_accZ,32_gyroX,32_gyroY,32_gyroZ,33_accX,33_accY,33_accZ,33_gyroX,33_gyroY,33_gyroZ,34_accX,34_accY,34_accZ,34_gyroX,34_gyroY,34_gyroZ,35_accX,35_accY,35_accZ,35_gyroX,35_gyroY,35_gyroZ,36_accX,36_accY,36_accZ,36_gyroX,36_gyroY,36_gyroZ,37_accX,37_accY,37_accZ,37_gyroX,37_gyroY,37_gyroZ,38_accX,38_accY,38_accZ,38_gyroX,38_gyroY,38_gyroZ,39_accX,39_accY,39_accZ,39_gyroX,39_gyroY,39_gyroZ,40_accX,40_accY,40_accZ,40_gyroX,40_gyroY,40_gyroZ,41_accX,41_accY,41_accZ,41_gyroX,41_gyroY,41_gyroZ,42_accX,42_accY,42_accZ,42_gyroX,42_gyroY,42_gyroZ,43_accX,43_accY,43_accZ,43_gyroX,43_gyroY,43_gyroZ,44_accX,44_accY,44_accZ,44_gyroX,44_gyroY,44_gyroZ,45_accX,45_accY,45_accZ,45_gyroX,45_gyroY,45_gyroZ,46_accX,46_accY,46_accZ,46_gyroX,46_gyroY,46_gyroZ,47_accX,47_accY,47_accZ,47_gyroX,47_gyroY,47_gyroZ,48_accX,48_accY,48_accZ,48_gyroX,48_gyroY,48_gyroZ,49_accX,49_accY,49_accZ,49_gyroX,49_gyroY,49_gyroZ,50_accX,50_accY,50_accZ,50_gyroX,50_gyroY,50_gyroZ,51_accX,51_accY,51_accZ,51_gyroX,51_gyroY,51_gyroZ,52_accX,52_accY,52_accZ,52_gyroX,52_gyroY,52_gyroZ,53_accX,53_accY,53_accZ,53_gyroX,53_gyroY,53_gyroZ,54_accX,54_accY,54_accZ,54_gyroX,54_gyroY,54_gyroZ,55_accX,55_accY,55_accZ,55_gyroX,55_gyroY,55_gyroZ,56_accX,56_accY,56_accZ,56_gyroX,56_gyroY,56_gyroZ,57_accX,57_accY,57_accZ,57_gyroX,57_gyroY,57_gyroZ,58_accX,58_accY,58_accZ,58_gyroX,58_gyroY,58_gyroZ,59_accX,59_accY,59_accZ,59_gyroX,59_gyroY,59_gyroZ,60_accX,60_accY,60_accZ,60_gyroX,60_gyroY,60_gyroZ,61_accX,61_accY,61_accZ,61_gyroX,61_gyroY,61_gyroZ,62_accX,62_accY,62_accZ,62_gyroX,62_gyroY,62_gyroZ,63_accX,63_accY,63_accZ,63_gyroX,63_gyroY,63_gyroZ,64_accX,64_accY,64_accZ,64_gyroX,64_gyroY,64_gyroZ,65_accX,65_accY,65_accZ,65_gyroX,65_gyroY,65_gyroZ,66_accX,66_accY,66_accZ,66_gyroX,66_gyroY,66_gyroZ,67_accX,67_accY,67_accZ,67_gyroX,67_gyroY,67_gyroZ,68_accX,68_accY,68_accZ,68_gyroX,68_gyroY,68_gyroZ,69_accX,69_accY,69_accZ,69_gyroX,69_gyroY,69_gyroZ,70_accX,70_accY,70_accZ,70_gyroX,70_gyroY,70_gyroZ,71_accX,71_accY,71_accZ,71_gyroX,71_gyroY,71_gyroZ,72_accX,72_accY,72_accZ,72_gyroX,72_gyroY,72_gyroZ,73_accX,73_accY,73_accZ,73_gyroX,73_gyroY,73_gyroZ,74_accX,74_accY,74_accZ,74_gyroX,74_gyroY,74_gyroZ,75_accX,75_accY,75_accZ,75_gyroX,75_gyroY,75_gyroZ,76_accX,76_accY,76_accZ,76_gyroX,76_gyroY,76_gyroZ,77_accX,77_accY,77_accZ,77_gyroX,77_gyroY,77_gyroZ,78_accX,78_accY,78_accZ,78_gyroX,78_gyroY,78_gyroZ,79_accX,79_accY,79_accZ,79_gyroX,79_gyroY,79_gyroZ,category
0,0.0,0.0,0.6288156288156288,0.0,0.0,0.0,0.0,0.0,1.05006105006105,0.0,0.0,0.0,0.0,0.0,1.3894993894993894,0.0,0.0,0.0,0.0,0.0,1.7423687423687424,0.0,0.0,0.0,-1.2002442002442002,0.0,2.8192918192918195,0.0,0.0,0.0,-1.1978021978021978,0.0,4.280830280830282,0.0,0.0,0.0,-0.9731379731379732,0.0,5.567765567765568,0.0,0.0,0.0,-1.2210012210012209,0.0,6.106227106227106,0.0,-0.53125,0.0,-1.4822954822954824,0.0,6.083028083028082,0.0,-0.65625,0.0,-1.078144078144078,0.0,5.422466422466423,0.875,-0.59375,0.0,-0.8986568986568987,0.0,4.180708180708181,1.15625,0.0,0.0,0.5714285714285714,0.0,3.33943833943834,1.34375,-0.625,0.0,0.0,-1.3772893772893773,2.253968253968254,1.0,-1.28125,0.0,-0.5567765567765568,-0.6971916971916972,2.440781440781441,0.875,-1.3125,0.0,0.0,-0.7057387057387058,1.5677655677655675,1.1875,-1.3125,0.0,-0.5702075702075702,-1.2405372405372406,0.0,1.6875,-1.28125,0.0,1.3137973137973138,-2.7496947496947497,-1.656898656898657,1.65625,-1.28125,0.0,0.5079365079365079,-2.3211233211233213,-1.5885225885225884,1.15625,-1.78125,-0.6875,-0.9023199023199024,-1.5616605616605617,-1.5091575091575091,0.96875,-2.0625,-1.03125,-1.2503052503052503,-0.894993894993895,-1.9658119658119653,1.3125,-2.125,-1.0625,-0.9352869352869352,-2.5396825396825395,-3.6825396825396814,1.46875,-2.1875,-0.96875,-0.5372405372405372,-3.2686202686202686,-5.476190476190476,1.125,-2.3125,-1.125,-1.5018315018315018,-2.1098901098901104,-6.571428571428571,0.625,-2.3125,-1.25,-1.7728937728937728,-0.6434676434676435,-6.700854700854701,0.625,-1.5625,-0.96875,-2.2893772893772892,0.0,-6.532356532356533,0.6875,-0.65625,0.0,-1.4822954822954824,-0.7606837606837606,-5.2686202686202686,0.75,0.0,0.0,1.2905982905982911,-2.47008547008547,-4.111111111111111,0.0,0.0,0.0,1.5714285714285714,-1.9230769230769231,-1.9682539682539681,0.0,0.0,0.0,0.0,0.0,-0.7655677655677655,0.0,0.0,-0.5625,-0.894993894993895,0.0,-0.6691086691086691,0.0,0.0,0.0,-0.956043956043956,0.757020757020757,-0.7643467643467643,0.0,0.0,0.0,-1.1672771672771671,0.6678876678876678,-1.020757020757021,0.0,0.0,0.0,-0.7094017094017094,0.568986568986569,-1.0647130647130647,0.0,0.0,0.0,0.0,0.0,-0.8400488400488401,0.0,0.0,0.0,1.0305250305250304,0.0,-0.6251526251526252,0.0,0.0,0.0,0.0,0.0,0.0,0.0,0.0,0.0,0.0,0.0,0.0,0.0,0.0,0.0,0.7606837606837606,0.0,0.0,0.0,0.0,0.0,1.0329670329670328,-0.73992673992674,0.0,0.0,0.0,0.0,0.0,0.0,0.0,0.0,0.0,0.0,0.0,0.0,0.0,0.0,0.0,0.0,0.0,0.0,0.0,0.0,0.0,0.0,0.0,0.0,0.0,0.0,0.0,0.0,0.0,0.0,0.0,0.0,0.0,0.0,0.0,0.0,0.0,0.0,0.0,0.0,0.0,0.0,0.0,0.0,0.0,0.0,0.0,0.0,0.0,0.0,0.0,0.0,0.0,0.0,0.0,0.0,0.0,0.0,0.0,0.0,0.0,0.0,0.0,0.0,0.0,0.0,0.0,0.0,0.0,0.0,0.0,0.0,0.0,0.0,0.0,0.0,0.0,0.0,0.0,0.0,0.0,0.0,0.0,0.0,0.0,0.0,0.0,0.0,0.0,0.0,0.0,0.0,0.0,0.0,0.0,0.0,0.0,0.0,0.0,0.0,0.0,0.0,0.0,0.0,0.0,0.0,0.0,0.0,0.0,0.0,0.0,0.0,0.0,0.0,0.0,0.0,0.0,0.0,0.0,0.0,0.0,0.0,0.0,0.0,0.0,0.0,0.0,0.0,0.0,0.0,0.0,0.0,0.0,0.0,0.0,0.0,0.0,0.0,0.0,0.0,0.0,0.0,0.0,0.0,0.0,0.0,0.0,0.0,0.0,0.0,0.0,0.0,0.0,0.0,0.0,0.0,0.0,0.0,0.0,0.0,0.0,0.0,0.0,0.0,0.0,0.0,0.0,0.0,0.0,0.0,0.0,0.0,0.0,0.0,0.0,0.0,0.0,0.0,0.0,0.0,0.0,0.0,0.0,0.0,0.0,0.0,0.0,0.0,0.0,0.0,0.0,0.0,0.0,0.0,0.0,0.0,0.0,0.0,0.0,0.0,0.0,0.0,0.0,0.0,0.0,0.0,0.0,0.0,0.0,0.0,0.0,0.0,0.0,0.0,0.0,0.0,0.0,0.0,0.0,0.0,0.0,0.0,0.0,0.0,0.0,0.0,0.0,0.0,0.0,0.0,0.0,0.0,0.0,0.0,0.0,0.0,0.0,0.0,0.0,0.0,0.0,0.0,0.0,0.0,0.0,0.0,0.0,0.0,0.0,0.0,land
1,0.0,0.0,0.0,0.0,0.0,0.0,0.0,0.8095238095238095,0.0,0.0,0.0,0.0,0.0,0.0,0.0,0.0,0.0,0.0,0.0,0.0,0.0,0.0,0.0,0.0,0.0,0.0,0.0,0.0,0.0,0.0,0.0,0.0,0.0,0.0,0.0,0.0,0.0,0.0,1.010989010989011,0.0,0.0,0.0,0.0,0.0,1.9304029304029304,0.0,0.0,0.0,0.0,0.0,2.5518925518925517,0.0,0.0,0.0,-0.8669108669108669,0.0,3.2197802197802203,0.0,0.0,0.0,-0.7863247863247863,0.0,4.4212454212454215,0.0,0.0,0.0,-0.5482295482295483,0.0,6.140415140415143,0.0,0.0,0.0,-1.2063492063492065,0.5628815628815629,7.15995115995116,0.0,-0.71875,0.0,-1.9169719169719168,0.0,6.6654456654456675,0.8125,-0.71875,0.0,-1.4908424908424909,-0.525030525030525,5.452991452991453,1.0,-0.5625,0.0,-0.7264957264957265,0.0,4.581196581196581,1.125,-0.59375,0.0,0.0,0.0,3.826617826617827,1.40625,0.0,0.0,1.242979242979243,-1.7045177045177045,3.2344322344322345,1.34375,-0.6875,0.0,1.0573870573870574,-1.7167277167277166,2.244200244200244,0.96875,-1.375,0.0,-1.2014652014652014,-0.7094017094017094,0.0,1.125,-1.53125,-0.53125,-1.4981684981684982,-0.5494505494505495,-1.1514041514041513,1.75,-0.90625,0.0,1.8339438339438336,-3.653235653235653,-2.683760683760684,1.90625,-0.8125,0.0,1.3125763125763126,-3.727716727716728,-2.8363858363858365,1.1875,-1.59375,-0.59375,0.0,-3.272283272283272,-2.4725274725274726,0.65625,-1.78125,-1.15625,-1.1282051282051282,-1.7179487179487178,-1.7631257631257633,0.78125,-1.46875,-1.3125,0.0,-2.409035409035409,-2.0634920634920637,1.375,-1.625,-1.25,-0.8205128205128205,-3.5262515262515266,-4.012210012210011,1.21875,-2.1875,-1.53125,0.0,-3.253968253968253,-6.492063492063493,0.84375,-2.1875,-1.8125,-2.9621489621489623,0.0,-6.244200244200244,1.125,-1.8125,-1.375,-2.4542124542124544,-0.7362637362637363,-7.755799755799756,1.0,-1.3125,0.0,-1.5128205128205128,-1.3577533577533578,-7.935286935286935,0.53125,-0.75,0.0,-1.5897435897435896,-1.3015873015873016,-6.429792429792429,0.0,0.0,0.0,0.0,-1.3821733821733821,-3.907203907203906,0.0,0.59375,0.0,1.5189255189255189,-1.0244200244200243,-1.175824175824176,0.0,0.0,0.0,0.0,0.0,0.0,0.0,0.0,0.0,-1.1355311355311355,0.7240537240537241,-0.5299145299145299,0.0,0.0,0.0,-1.1941391941391941,0.7533577533577533,-0.8351648351648352,0.0,0.0,0.0,0.0,0.0,-0.5494505494505495,0.0,0.0,0.0,0.0,0.0,0.0,0.0,0.0,0.0,0.6019536019536019,0.0,0.0,0.0,0.0,0.0,0.0,0.0,0.0,0.0,0.0,0.0,0.0,0.0,0.0,0.0,0.0,0.0,0.0,0.0,0.0,0.0,0.0,0.0,0.0,0.0,0.0,0.0,0.0,0.0,0.0,0.0,-0.6459096459096461,0.0,0.0,0.0,0.0,0.0,0.0,0.0,0.0,0.0,0.0,0.0,0.0,0.0,0.0,0.0,0.0,0.0,0.0,0.0,0.0,0.0,0.0,0.0,0.0,0.0,0.0,0.0,0.0,0.0,-0.5848595848595849,0.0,0.0,0.0,0.0,0.0,0.0,0.0,0.0,0.0,0.0,0.0,0.0,0.0,0.0,0.0,0.0,0.0,0.0,0.0,0.0,0.0,0.0,0.0,0.0,0.0,0.0,0.0,0.0,0.0,0.0,0.0,0.0,0.0,0.0,0.0,0.0,0.0,0.0,0.0,0.0,0.0,0.0,0.0,0.0,0.0,0.0,0.0,0.0,0.0,0.0,0.0,0.0,0.0,0.0,0.0,0.0,0.0,0.0,0.0,0.0,0.0,0.0,0.0,0.0,0.0,0.0,0.0,0.0,0.0,0.0,0.0,0.0,0.0,0.0,0.0,0.0,0.0,0.0,0.0,0.0,0.0,0.0,0.0,0.0,0.0,0.0,0.0,0.0,0.0,0.0,0.0,0.0,0.0,0.0,0.0,0.0,0.0,0.0,0.0,0.0,0.0,0.0,0.0,0.0,0.0,0.0,0.0,0.0,0.0,0.0,0.0,0.0,0.0,0.0,0.0,0.0,0.0,0.0,0.0,0.0,0.0,0.0,0.0,0.0,0.0,0.0,0.0,0.0,0.0,0.0,0.0,0.0,0.0,0.0,0.0,0.0,0.0,0.0,0.0,0.0,0.0,0.0,0.0,0.0,0.0,0.0,0.0,0.0,0.0,0.0,0.0,0.0,0.0,0.0,0.0,0.0,0.0,0.0,0.0,0.0,0.0,0.0,0.0,0.0,0.0,0.0,0.0,0.0,0.0,0.0,0.0,0.0,0.0,0.0,0.0,0.0,0.0,0.0,0.0,0.0,0.0,0.0,0.0,land
2,0.0,0.0,0.0,0.0,0.0,0.0,-0.7435897435897436,0.0,0.0,0.0,0.0,0.0,0.0,0.0,0.5787545787545788,0.0,0.0,0.0,0.0,0.0,1.5335775335775337,0.0,0.0,0.0,0.0,0.6092796092796092,1.9230769230769231,0.0,0.0,0.0,-0.7387057387057387,0.0,1.8669108669108667,0.0,0.0,0.0,-0.6825396825396826,0.0,2.0329670329670333,0.0,0.0,0.0,0.0,0.0,3.4810744810744816,0.0,0.0,0.0,-0.7814407814407814,1.0818070818070815,5.13919413919414,0.0,0.0,0.0,-1.3406593406593406,1.2735042735042734,5.711843711843712,0.0,0.0,0.0,-1.3626373626373631,0.8095238095238095,5.482295482295481,0.75,0.0,0.0,-0.6214896214896215,0.0,5.012210012210011,0.75,0.0,0.0,0.0,0.0,4.588522588522588,0.78125,0.0,0.0,0.0,0.0,4.229548229548231,1.0625,0.0,0.0,0.6007326007326007,-0.978021978021978,3.3626373626373627,1.125,0.0,0.0,0.0,-1.3345543345543345,3.484737484737485,0.6875,-0.6875,0.0,0.0,0.0,3.766788766788767,0.53125,-1.15625,0.0,-1.5995115995115996,0.0,0.8485958485958486,1.0625,-1.46875,0.0,-2.0793650793650795,-1.684981684981685,-1.9010989010989008,1.46875,-1.0625,0.0,0.0,-2.7985347985347984,-2.934065934065934,1.3125,0.0,0.0,1.4969474969474967,-3.0012210012210017,-1.8278388278388282,0.0,-0.875,0.0,-2.807081807081807,0.0,0.0,0.0,-1.375,0.0,-1.912087912087912,-1.8095238095238089,-1.1965811965811963,1.03125,-0.9375,0.0,-0.7924297924297924,-3.7460317460317465,-3.1294261294261294,1.0,-1.09375,0.0,-1.4456654456654456,-1.7728937728937728,-3.9413919413919416,0.625,-1.59375,0.0,-0.5897435897435898,-1.4713064713064714,-5.733821733821733,0.78125,-2.09375,-0.53125,-2.1538461538461537,-1.4004884004884004,-8.233211233211232,0.71875,-1.71875,0.0,-3.1343101343101343,-0.7582417582417582,-9.466422466422467,0.65625,0.0,0.0,-1.3406593406593406,-0.8827838827838828,-8.396825396825397,0.8125,1.125,1.21875,2.2014652014652016,-3.6654456654456653,-6.987789987789987,0.0,1.375,1.0625,3.531135531135531,-4.135531135531137,-3.995115995115996,0.0,0.65625,0.0,1.133089133089133,-1.1721611721611722,0.0,-0.875,0.0,-1.0625,-0.8253968253968254,1.3614163614163617,1.8583638583638584,-0.5625,0.0,-1.0,-1.84981684981685,2.3553113553113554,0.8986568986568987,0.0,0.0,0.0,-1.3406593406593406,1.52014652014652,-0.8107448107448108,0.0,0.0,0.0,-0.6984126984126984,0.0,-1.3553113553113554,0.0,0.0,0.0,1.0,0.0,-0.7118437118437119,0.0,0.0,0.0,0.0,0.0,0.0,0.0,0.0,0.0,0.0,0.0,0.0,0.0,0.0,0.0,0.0,0.0,0.0,0.0,0.0,0.0,0.0,0.0,0.0,0.0,0.0,0.0,0.0,-0.5262515262515263,0.0,0.0,0.0,0.0,0.0,0.0,0.0,0.0,0.0,0.0,0.0,0.0,0.0,0.0,0.0,0.0,0.0,0.0,0.0,0.0,0.0,0.0,0.0,0.0,0.0,0.0,0.0,0.0,0.0,0.0,0.0,0.0,0.0,0.0,0.0,0.0,0.0,0.0,0.0,0.0,0.0,0.0,0.0,0.0,0.0,0.0,0.0,0.0,0.0,0.0,0.0,0.0,0.0,0.0,0.0,0.0,0.0,0.0,0.0,0.0,0.0,0.0,0.0,0.0,0.0,0.0,0.0,0.0,0.0,0.0,0.0,0.0,0.0,0.0,0.0,0.0,0.0,0.0,0.0,0.0,0.0,0.0,0.0,0.0,0.0,0.0,0.0,0.0,0.0,0.0,0.0,0.0,0.0,0.0,0.0,0.0,0.0,0.0,0.0,0.0,0.0,0.0,0.0,0.0,0.0,0.0,0.0,0.0,0.0,0.0,0.0,0.0,0.0,0.0,0.0,0.0,0.0,0.0,0.0,0.0,0.0,0.0,0.0,0.0,0.0,0.0,0.0,0.0,0.0,0.0,0.0,0.0,0.0,0.0,0.0,0.0,0.0,0.0,0.0,0.0,0.0,0.0,0.0,0.0,0.0,0.0,0.0,0.0,0.0,0.0,0.0,0.0,0.0,0.0,0.0,0.0,0.0,0.0,0.0,0.0,0.0,0.0,0.0,0.0,0.0,0.0,0.0,0.0,0.0,0.0,0.0,0.0,0.0,0.0,0.0,0.0,0.0,0.0,0.0,0.0,0.0,0.0,0.0,0.0,0.0,0.0,0.0,0.0,0.0,0.0,0.0,0.0,0.0,0.0,0.0,0.0,0.0,0.0,0.0,0.0,0.0,0.0,0.0,0.0,0.0,0.0,0.0,0.0,0.0,0.0,0.0,0.0,0.0,0.0,0.0,0.0,0.0,0.0,0.0,0.0,0.0,0.0,0.0,0.0,0.0,0.0,0.0,0.0,0.0,0.0,0.0,0.0,land
3,0.0,0.0,1.2796092796092795,0.0,0.0,0.0,0.0,0.0,1.2967032967032968,0.0,0.0,0.0,0.0,0.0,2.195360195360196,0.0,0.0,0.0,-1.144078144078144,0.5628815628815629,4.069597069597069,0.0,0.0,0.0,-1.7606837606837606,1.2014652014652014,5.934065934065932,0.0,0.0,0.0,-2.217338217338217,0.57997557997558,6.451770451770452,0.0,0.0,0.0,-2.087912087912088,0.0,6.347985347985348,0.0,0.0,0.0,-2.3064713064713063,0.0,6.284493284493284,0.0,0.0,0.0,-2.1880341880341883,0.0,6.1159951159951165,0.0,-0.625,0.0,-2.249084249084249,0.0,4.991452991452992,0.90625,-0.53125,0.0,-0.8840048840048841,0.0,3.2527472527472527,1.46875,0.0,0.53125,0.0,-1.6654456654456655,1.7643467643467643,1.59375,0.0,0.625,1.8180708180708185,-3.411477411477412,0.0,0.6875,-0.78125,0.0,0.0,-1.1355311355311355,1.0158730158730158,0.0,-0.9375,0.0,0.0,0.0,1.6019536019536018,0.625,-0.9375,0.0,0.0,-0.6214896214896215,1.5763125763125765,0.875,-1.34375,0.0,0.0,-1.2173382173382172,-0.7521367521367521,1.09375,-1.65625,0.0,-1.9731379731379728,-1.3406593406593406,-3.8424908424908426,1.375,-0.9375,0.0,0.0,-1.8180708180708185,-4.227106227106227,1.21875,-0.625,0.0,0.6507936507936508,-1.2625152625152625,-3.208791208791209,1.375,-0.75,0.0,0.0,-1.4737484737484738,-2.768009768009768,1.5,-1.1875,0.0,-1.028083028083028,-1.6398046398046398,-3.2637362637362637,1.6875,-1.03125,0.0,0.8449328449328449,-3.144078144078144,-4.847374847374847,1.1875,-1.65625,0.0,-0.514041514041514,-1.6263736263736264,-6.468864468864468,0.71875,-2.0,0.0,-1.673992673992674,0.0,-6.087912087912088,0.8125,-1.0625,0.0,-1.277167277167277,0.0,-5.836385836385835,1.125,0.0,0.6875,0.9755799755799756,-1.4969474969474967,-5.042735042735044,1.03125,0.53125,1.15625,1.9084249084249083,-2.3675213675213675,-3.774114774114774,0.0,0.0,0.53125,0.8522588522588522,0.0,-1.6080586080586081,0.0,0.0,0.0,0.0,1.2368742368742371,0.0,0.0,0.0,-0.65625,-0.9377289377289376,1.4322344322344325,-0.6446886446886447,0.0,0.0,-0.5625,-1.2844932844932846,0.7802197802197802,-1.6324786324786325,0.0,0.0,0.0,0.0,0.0,-1.6666666666666667,0.0,0.0,0.0,1.4993894993894994,-0.5738705738705738,0.0,0.0,0.0,0.0,1.4432234432234432,0.0,0.9816849816849816,0.0,0.0,0.0,0.7374847374847375,0.0,0.7851037851037851,0.0,0.0,0.0,0.0,0.0,0.0,0.0,0.0,0.0,-0.9291819291819292,0.0,-0.8083028083028083,0.0,0.0,0.0,-0.7973137973137974,0.0,0.0,0.0,0.0,0.0,0.0,0.0,0.0,0.0,0.0,0.0,0.0,0.0,0.503052503052503,0.0,0.0,0.0,0.0,0.0,0.0,0.0,0.0,0.0,0.0,0.0,-0.7704517704517705,0.0,0.0,0.0,0.0,0.0,0.0,0.0,0.0,0.0,0.0,0.0,0.0,0.0,0.0,0.0,0.0,0.0,0.0,0.0,0.0,0.0,0.0,-0.6202686202686203,-0.6178266178266179,0.0,0.0,0.0,0.6263736263736264,0.0,0.0,0.0,0.0,0.0,0.5482295482295483,0.0,0.0,0.0,0.0,0.0,0.0,0.0,0.57997557997558,0.0,0.0,0.0,0.0,0.0,0.0,0.0,0.0,0.0,0.0,0.0,0.0,0.0,0.0,0.0,0.0,0.0,0.0,0.0,0.0,0.0,-0.6239316239316239,0.0,-0.7435897435897436,0.0,0.0,0.0,0.0,0.0,0.0,0.0,0.0,0.0,0.0,0.0,0.0,0.0,0.0,0.0,0.0,0.0,0.0,0.0,0.0,0.0,0.0,0.0,0.0,0.0,0.0,0.0,0.0,0.0,0.0,0.0,0.0,0.0,0.0,0.0,0.0,0.0,0.0,0.0,0.0,0.0,0.0,0.0,0.0,0.0,0.0,0.0,0.0,0.0,0.0,0.0,0.0,0.0,0.0,0.0,0.0,0.0,0.0,0.0,0.0,0.0,0.0,0.0,0.0,0.0,0.0,0.0,0.0,0.0,0.0,0.0,0.0,0.0,0.0,0.0,0.0,0.0,0.0,0.0,0.0,0.0,0.0,0.0,0.0,0.0,0.0,0.0,0.0,0.0,0.0,0.0,0.0,0.0,0.0,0.0,0.0,0.0,0.0,0.0,0.0,0.0,0.0,0.0,0.0,0.0,0.0,0.0,0.0,0.0,0.0,0.0,0.0,0.0,0.0,0.0,0.0,0.0,0.0,0.0,0.0,0.0,0.0,0.0,0.0,0.0,0.0,0.0,0.0,0.0,0.0,0.0,0.0,0.0,0.0,0.0,0.0,0.0,0.0,0.0,0.0,0.0,0.0,0.0,0.0,0.0,0.0,0.0,0.0,0.0,0.0,0.0,0.0,0.0,0.0,0.0,0.0,0.0,0.0,0.0,land
4,0.0,0.0,0.0,0.0,0.0,0.0,0.0,-0.7326007326007326,-0.9719169719169721,0.0,0.0,0.0,0.8107448107448108,0.0,-0.5885225885225885,0.0,0.0,0.0,0.0,0.0,0.0,0.0,0.0,0.0,0.0,0.0,0.0,0.0,0.0,0.0,0.0,0.0,0.0,0.0,0.0,0.0,0.0,0.0,0.0,0.0,0.0,0.0,0.0,0.0,0.6800976800976801,0.0,0.0,0.0,0.0,0.5787545787545788,2.083028083028083,0.0,0.0,0.0,-0.8241758241758241,0.9658119658119658,3.061050061050061,0.0,0.0,0.0,-0.8070818070818071,0.7216117216117216,3.776556776556777,0.0,0.0,0.0,-1.0073260073260073,0.0,4.2222222222222205,0.0,0.0,0.0,-1.336996336996337,0.0,5.424908424908423,0.0,0.0,0.0,-1.413919413919414,0.7203907203907204,7.091575091575091,0.0,0.0,0.0,-2.241758241758242,0.8852258852258852,7.6471306471306475,0.6875,-0.6875,0.0,-2.17948717948718,0.0,7.445665445665448,0.9375,-0.8125,0.0,-2.831501831501832,0.0,5.516483516483516,1.09375,-0.78125,0.0,-1.7106227106227103,0.0,3.9536019536019538,1.5625,0.0,0.0,0.5726495726495726,-1.7606837606837606,0.8669108669108669,2.0,-0.78125,0.75,0.8168498168498168,-2.750915750915751,-1.1465201465201464,1.4375,-1.28125,0.59375,0.7130647130647131,-2.086691086691087,-1.5824175824175823,0.6875,-1.28125,0.0,1.8888888888888888,-2.0842490842490844,-0.8351648351648352,0.0,-1.21875,0.0,0.9230769230769232,-0.706959706959707,0.9548229548229548,0.0,-1.8125,0.0,-2.0085470085470085,0.0,1.336996336996337,0.0,-1.90625,-0.71875,-2.8608058608058613,0.8681318681318682,-0.8522588522588522,1.125,-1.1875,0.0,-1.006105006105006,-2.42002442002442,-3.8253968253968256,2.15625,0.0,0.0,0.0,-3.1391941391941387,-3.755799755799756,1.65625,-0.84375,0.0,-3.1587301587301586,-0.8876678876678876,-2.47985347985348,1.65625,-0.875,0.0,-4.451770451770452,0.6361416361416361,-2.1062271062271063,2.8125,0.0,0.90625,-2.0744810744810747,-2.1526251526251525,-4.467643467643468,3.0625,0.0,1.625,-0.9719169719169721,-4.351648351648351,-7.484737484737487,2.28125,0.0,1.75,0.0,-4.476190476190476,-8.538461538461537,1.125,-0.625,1.375,2.075702075702076,-4.400488400488403,-7.858363858363857,0.0,-0.6875,0.75,2.266178266178266,-3.0463980463980462,-5.79120879120879,0.0,-0.65625,0.0,0.8351648351648352,-1.6153846153846154,-4.3418803418803416,0.0,0.0,0.0,-0.6776556776556777,0.0,-2.236874236874237,0.0,0.0,0.0,-1.5787545787545787,1.3516483516483515,0.0,0.0,0.0,0.0,-1.0525030525030523,1.7667887667887667,0.5311355311355311,0.0,0.0,0.0,0.6324786324786325,1.0525030525030523,0.0,0.0,0.0,0.625,1.0744810744810744,0.0,-0.8864468864468864,0.0,0.0,0.0,0.0,0.0,-1.0818070818070815,0.0,0.0,0.0,0.0,0.0,-0.63003663003663,0.0,0.0,0.0,0.0,0.0,0.0,0.0,0.0,0.0,0.0,0.0,0.0,0.0,0.0,0.0,0.0,-0.6654456654456654,-0.6910866910866911,0.0,0.0,0.0,0.0,-0.6056166056166056,-0.5592185592185592,0.0,0.0,0.0,0.0,0.0,0.0,0.0,0.0,0.0,0.0,0.0,0.0,0.0,0.0,0.0,0.0,0.0,0.0,0.0,0.0,0.0,-0.5152625152625152,0.0,0.0,0.0,0.0,0.0,0.0,0.0,0.0,0.0,0.0,0.0,0.0,0.0,0.0,0.0,0.0,0.0,0.0,0.0,0.0,0.0,0.0,0.0,0.0,0.0,0.0,0.0,0.0,0.0,0.0,0.0,0.0,0.0,0.0,0.0,0.0,0.0,0.0,0.0,0.0,0.0,0.0,0.0,0.0,0.0,0.0,0.0,0.0,0.0,0.0,0.0,0.0,0.0,0.0,0.0,0.0,0.0,0.0,0.0,0.0,0.0,0.0,0.0,0.0,0.0,0.0,0.0,0.0,0.0,0.0,0.0,0.0,0.0,0.0,0.0,0.0,0.0,0.0,0.0,0.0,0.0,0.0,0.0,0.0,0.0,0.0,0.0,0.0,0.0,0.0,0.0,0.0,0.0,0.0,0.0,0.0,0.0,0.0,0.0,0.0,0.0,0.0,0.0,0.0,0.0,0.0,0.0,0.0,0.0,0.0,0.0,0.0,0.0,0.0,0.0,0.0,0.0,0.0,0.0,0.0,0.0,0.0,0.0,0.0,0.0,0.0,0.0,0.0,0.0,0.0,0.0,0.0,0.0,0.0,0.0,0.0,0.0,0.0,0.0,0.0,0.0,0.0,0.0,0.0,0.0,0.0,0.0,0.0,0.0,0.0,0.0,0.0,0.0,0.0,0.0,0.0,0.0,0.0,0.0,0.0,0.0,0.0,0.0,0.0,0.0,0.0,0.0,0.0,0.0,0.0,0.0,0.0,0.0,0.0,0.0,0.0,0.0,0.0,0.0,0.0,0.0,0.0,0.0,0.0,0.0,land
5,0.0,0.0,0.0,0.0,0.0,0.0,0.0,0.0,0.0,0.0,0.0,0.0,0.6862026862026862,0.0,0.0,0.0,0.0,0.0,0.0,0.0,0.0,0.0,0.0,0.0,0.0,0.0,0.0,0.0,0.0,0.0,0.0,0.0,0.0,0.0,0.0,0.0,0.0,0.0,0.0,0.0,0.0,0.0,0.0,0.0,0.7326007326007326,0.0,0.0,0.0,0.0,0.6019536019536019,1.1001221001221002,0.0,0.0,0.0,0.0,0.0,1.2271062271062272,0.0,0.0,0.0,0.0,0.0,1.1416361416361416,0.0,0.0,0.0,0.0,0.0,1.3101343101343101,0.0,0.0,0.0,0.0,0.0,1.8302808302808304,0.0,0.0,0.0,-0.6361416361416361,0.0,2.8986568986568986,0.0,0.0,0.0,-1.120879120879121,0.5531135531135531,4.608058608058609,0.0,0.0,0.0,-1.2747252747252746,0.7240537240537241,6.277167277167277,0.0,0.0,0.0,-1.435897435897436,0.6227106227106227,7.195360195360196,0.0,0.0,0.0,-1.6862026862026862,0.0,7.362637362637362,0.53125,-0.6875,0.0,-2.3943833943833943,0.0,6.819291819291817,0.65625,-0.84375,0.0,-2.8339438339438336,0.5213675213675214,6.106227106227106,1.125,-0.625,0.0,-2.371184371184371,0.6288156288156288,4.6874236874236885,1.78125,0.0,0.0,0.0,-0.7948717948717948,2.758241758241758,1.9375,0.0,0.0,1.5970695970695972,-3.240537240537241,1.3858363858363858,1.125,-1.21875,0.0,0.518925518925519,-2.7875457875457874,2.84981684981685,0.0,-1.78125,-0.625,0.0,-1.536019536019536,1.4151404151404152,0.71875,-1.9375,-0.84375,0.0,-3.4481074481074483,-2.5665445665445668,1.09375,-2.09375,-1.0,0.0,-3.8205128205128207,-4.981684981684982,0.8125,-2.21875,-1.40625,-0.9609279609279608,-1.68009768009768,-3.7863247863247858,0.0,-2.09375,-1.71875,-2.938949938949939,0.0,-1.989010989010989,0.6875,-1.875,-1.65625,-1.5213675213675213,-0.9682539682539684,-2.52014652014652,1.53125,-1.5625,-1.09375,-1.7179487179487178,-2.207570207570208,-3.686202686202686,1.71875,-2.03125,-0.90625,-3.926739926739927,-0.5982905982905983,-4.514041514041514,1.75,-1.9375,-0.71875,-4.979242979242978,0.0,-5.344322344322343,2.25,-1.28125,0.0,-2.1294261294261294,-1.5177045177045176,-7.0134310134310125,2.6875,0.0,1.25,1.4725274725274726,-4.015873015873016,-8.131868131868131,2.21875,0.0,1.40625,0.5531135531135531,-2.800976800976801,-6.831501831501831,0.9375,0.0,1.0625,0.5885225885225885,-1.336996336996337,-4.744810744810745,0.90625,1.0,0.9375,1.803418803418804,-1.133089133089133,-3.3443223443223444,0.84375,0.96875,0.5625,1.6031746031746033,-1.0683760683760684,-2.586080586080586,0.0,0.0,0.0,0.0,0.0,-1.9133089133089127,0.0,0.0,0.0,-0.7240537240537241,0.9010989010989012,-0.8742368742368742,0.0,0.0,0.0,-1.0415140415140416,1.3052503052503053,0.0,0.0,0.0,0.0,0.0,0.5079365079365079,0.0,0.0,0.0,0.0,1.3015873015873016,0.0,0.0,0.0,0.0,0.0,0.0,0.0,0.0,0.0,0.0,0.0,-0.5738705738705738,0.6166056166056166,0.0,0.0,0.0,0.0,-1.0488400488400489,0.73992673992674,0.0,0.0,0.0,0.0,-0.5970695970695971,-0.8608058608058609,0.0,0.0,0.0,0.53125,1.3443223443223444,-1.2332112332112333,0.0,0.0,0.0,0.0,0.568986568986569,-0.5604395604395604,0.0,0.0,0.0,0.0,0.0,0.0,0.0,0.0,0.0,0.0,-0.6227106227106227,0.0,0.0,0.0,0.0,0.0,-0.5262515262515263,0.0,0.0,0.0,0.0,0.0,0.0,0.0,-0.5079365079365079,0.0,0.0,0.0,1.0744810744810744,-0.5921855921855922,0.0,0.0,0.0,0.0,1.3565323565323566,-0.514041514041514,0.0,0.0,0.0,0.0,0.0,0.0,0.0,0.0,0.0,0.0,-0.5067155067155067,0.0,0.0,0.0,0.0,0.0,-0.518925518925519,0.0,0.0,0.0,0.0,0.0,0.0,0.0,0.0,0.0,0.0,0.0,0.0,0.0,0.0,0.0,0.0,0.0,0.5921855921855922,0.0,0.0,0.0,0.0,0.0,0.0,0.0,0.0,0.0,0.0,0.0,0.0,0.0,0.0,0.0,0.0,0.0,0.0,0.0,0.0,0.0,0.0,0.0,0.0,0.0,0.0,0.0,0.0,0.0,0.0,0.0,0.0,0.0,0.0,0.0,0.0,0.0,0.0,0.0,0.0,0.0,0.0,0.0,0.0,0.0,0.0,0.0,0.0,0.0,0.0,0.0,0.0,0.0,0.0,0.0,0.0,0.0,0.0,0.0,0.0,0.0,0.0,0.0,0.0,0.0,0.0,0.0,0.0,0.0,0.0,0.0,0.0,0.0,0.0,0.0,0.0,0.0,0.0,0.0,0.0,0.0,0.0,0.0,0.0,0.0,0.0,0.0,0.0,0.0,0.0,0.0,0.0,0.0,0.0,0.0,0.0,0.0,0.0,0.0,0.0,0.0,0.0,0.0,0.0,0.0,0.0,0.0,0.0,0.0,0.0,0.0,0.0,0.0,land
6,0.0,0.0,0.0,0.0,0.0,0.0,0.0,-0.7936507936507936,0.0,0.0,0.0,0.0,0.0,0.0,0.0,0.0,0.0,0.0,0.0,0.0,0.0,0.0,0.0,0.0,0.0,0.0,0.0,0.0,0.0,0.0,0.0,0.0,0.0,0.0,0.0,0.0,0.0,-0.63003663003663,-0.8376068376068376,0.0,0.0,0.0,0.0,0.0,0.0,0.0,0.0,0.0,0.0,0.0,0.0,0.0,0.0,0.0,0.0,0.0,0.0,0.0,0.0,0.0,0.0,0.0,0.8144078144078144,0.0,0.0,0.0,0.0,0.0,1.2539682539682542,0.0,0.0,0.0,0.0,0.0,2.4053724053724053,0.0,0.0,0.0,-0.967032967032967,0.0,3.253968253968253,0.0,0.0,0.0,-1.2832722832722834,0.0,4.7655677655677655,0.0,0.0,0.0,-1.6813186813186811,0.7460317460317459,6.118437118437117,0.0,0.0,0.0,-1.9047619047619049,0.7032967032967034,6.985347985347985,0.0,0.0,0.0,-2.455433455433456,0.5995115995115995,7.252747252747253,0.53125,-0.59375,0.0,-2.8974358974358974,0.0,7.024420024420023,0.65625,-0.71875,0.0,-2.722832722832724,0.0,6.5396825396825395,0.6875,-0.6875,0.0,-2.1257631257631258,0.0,5.493284493284493,1.0625,-0.75,0.0,-1.0183150183150182,0.0,2.295482295482296,1.71875,-0.84375,0.0,0.7191697191697192,-2.8717948717948723,-2.241758241758242,2.21875,-0.71875,0.59375,3.4603174603174605,-4.921855921855922,-4.0415140415140405,0.8125,-1.0625,0.0,2.7106227106227108,-3.5409035409035408,-2.5714285714285716,0.0,-1.4375,-0.59375,0.0,0.0,0.0,0.0,-1.4375,-0.75,-1.5665445665445663,0.6227106227106227,1.6178266178266183,0.78125,-1.0,-0.53125,-0.6483516483516484,-1.166056166056166,1.4517704517704515,1.125,-1.03125,0.0,0.0,-2.031746031746032,0.5909645909645911,1.21875,-1.375,-0.6875,-1.7594627594627594,-1.5995115995115996,0.0,1.46875,-1.46875,-0.8125,-1.8693528693528687,-1.84004884004884,-0.7130647130647131,1.71875,-1.59375,-0.625,-0.8473748473748474,-2.208791208791209,-1.4102564102564104,2.0,-2.1875,-0.59375,-1.9743589743589745,-2.1709401709401708,-3.4664224664224665,2.15625,-2.34375,0.0,-1.7264957264957266,-2.376068376068376,-6.1611721611721615,2.09375,-2.21875,0.0,0.514041514041514,-3.333333333333333,-8.744810744810744,1.46875,-2.28125,0.0,1.5714285714285714,-2.593406593406593,-8.698412698412698,0.0,-2.0625,0.0,1.126984126984127,-2.0586080586080584,-7.783882783882784,0.0,-1.0,-0.8125,-1.1562881562881564,-0.7826617826617827,-5.570207570207571,0.0,0.0,-0.8125,-1.991452991452992,0.6495726495726496,-1.6434676434676434,0.0,0.5625,0.0,0.0,0.0,1.5177045177045176,0.0,0.0,0.0,0.0,1.663003663003663,3.0244200244200243,0.0,0.0,0.0,-0.9133089133089132,2.1343101343101343,1.843711843711844,0.0,-0.6875,0.0,-1.1733821733821734,1.15018315018315,-0.7460317460317459,0.59375,0.0,0.0,-0.73992673992674,0.0,-2.9206349206349205,0.0,0.0,0.0,1.0927960927960931,-0.6410256410256411,-2.101343101343101,0.0,0.0,0.0,0.6117216117216118,0.0,-0.6361416361416361,0.0,0.0,0.0,0.0,0.0,0.0,0.0,0.0,0.0,0.0,0.0,0.0,0.0,0.0,0.0,0.0,0.0,0.0,0.0,0.0,0.0,0.0,0.0,0.0,0.0,0.0,0.0,0.0,0.0,0.0,0.0,0.0,0.0,0.0,0.0,0.0,0.0,0.0,0.0,0.0,0.0,0.0,0.0,0.0,0.0,0.0,0.0,0.0,0.0,0.0,0.0,0.0,0.0,0.0,0.0,0.0,0.0,0.0,0.0,0.0,0.0,0.0,0.0,0.0,0.0,0.0,0.0,0.0,0.0,0.0,0.0,0.0,0.0,0.0,0.0,0.0,0.0,0.0,0.0,0.0,0.0,0.0,0.0,0.0,0.0,0.0,0.0,0.0,0.0,0.0,0.0,0.0,0.0,0.0,0.0,0.0,0.0,0.0,0.0,-0.5262515262515263,0.0,-0.7374847374847375,0.0,0.0,0.0,0.0,0.0,0.0,0.0,0.0,0.0,0.0,0.0,0.0,0.0,0.0,0.0,0.0,0.0,0.0,0.0,0.0,0.0,0.0,0.0,0.0,0.0,0.0,0.0,0.0,0.0,0.0,0.0,0.0,0.0,0.0,0.0,0.0,0.0,0.0,0.0,0.0,0.0,0.0,0.0,0.0,0.0,0.0,0.0,0.0,0.0,0.0,0.0,0.0,0.0,0.0,0.0,0.0,0.0,0.0,0.0,0.0,0.0,0.0,0.0,0.0,0.0,0.0,0.0,0.0,0.0,0.0,0.0,0.0,0.0,0.0,0.0,0.0,0.0,0.0,0.0,0.0,0.0,0.0,0.0,0.0,0.0,0.0,0.0,0.0,0.0,0.0,0.0,0.0,0.0,0.0,0.0,0.0,0.0,0.0,0.0,0.0,0.0,0.0,0.0,0.0,0.0,land
7,0.0,0.0,0.0,0.0,0.0,0.0,0.0,0.0,0.0,0.0,0.0,0.0,0.0,0.0,0.0,0.0,0.0,0.0,0.0,0.0,0.0,0.0,0.0,0.0,0.0,0.0,0.0,0.0,0.0,0.0,0.0,0.0,-0.8083028083028083,0.0,0.0,0.0,0.0,0.0,-0.9499389499389499,0.0,0.0,0.0,0.0,0.0,-0.8608058608058609,0.0,0.0,0.0,0.0,0.0,0.0,0.0,0.0,0.0,0.0,0.0,0.0,0.0,0.0,0.0,0.0,0.0,0.9865689865689866,0.0,0.0,0.0,0.0,0.0,1.4981684981684982,0.0,0.0,0.0,-0.514041514041514,0.0,2.0305250305250304,0.0,0.0,0.0,-0.7728937728937729,0.0,2.750915750915751,0.0,0.0,0.0,-1.5091575091575091,0.0,3.8351648351648353,0.0,0.0,0.0,-1.2893772893772897,0.0,5.3528693528693525,0.0,0.0,0.0,-1.586080586080586,0.7203907203907204,6.5677655677655675,0.0,0.0,0.0,-1.94993894993895,0.0,6.842490842490842,0.0,0.0,0.0,-2.139194139194139,0.0,6.625152625152626,0.5625,-0.59375,0.0,-2.5726495726495733,0.0,5.947496947496947,0.8125,0.0,0.0,-2.683760683760684,0.9242979242979243,5.34065934065934,1.40625,0.0,0.0,-2.3394383394383396,0.0,3.752136752136752,1.84375,0.0,0.8125,-2.0488400488400487,-1.5262515262515262,1.8815628815628809,1.59375,0.875,1.125,-1.5848595848595848,-1.7252747252747254,1.4493284493284493,1.1875,1.15625,1.125,0.6752136752136753,-1.4871794871794872,1.912087912087912,1.03125,0.0,0.96875,0.8205128205128205,-1.5103785103785103,1.5164835164835164,1.0625,-0.59375,0.625,-0.9450549450549448,-1.2686202686202686,0.0,1.25,-0.90625,0.0,0.0,-2.035409035409036,-3.0708180708180715,1.15625,-1.65625,0.0,-1.5848595848595848,-1.4957264957264955,-3.1257631257631258,1.0625,-2.125,0.0,-2.0586080586080584,-2.1575091575091574,-4.216117216117216,1.375,-2.09375,0.0,-0.5934065934065934,-3.1123321123321124,-5.462759462759463,1.375,-2.15625,0.0,0.6385836385836385,-3.3028083028083026,-6.6813186813186825,1.09375,-2.25,0.0,0.0,-1.8290598290598288,-7.3931623931623935,0.875,-2.21875,0.0,-0.7020757020757019,-1.1257631257631258,-7.785103785103785,1.03125,-1.21875,0.8125,0.0,-0.7802197802197802,-6.183150183150183,1.46875,0.0,1.5625,1.903540903540904,-2.84004884004884,-4.995115995115995,1.90625,1.34375,1.9375,1.8998778998778998,-3.88034188034188,-3.761904761904762,1.34375,1.4375,1.65625,1.8571428571428568,-1.0891330891330893,-0.9072039072039072,0.5625,1.03125,0.90625,1.7484737484737485,-0.8253968253968254,0.6361416361416361,0.0,0.0,0.0,0.5970695970695971,0.0,1.47985347985348,0.0,-1.1875,-0.53125,0.0,0.9206349206349206,0.7387057387057387,0.0,-1.21875,0.0,-0.8083028083028083,0.0,-1.2686202686202686,0.0,-0.5625,0.0,0.0,0.0,-1.536019536019536,0.0,0.0,0.0,0.7057387057387058,0.5103785103785103,-0.6739926739926739,0.0,0.0,0.0,1.2258852258852255,0.0,0.0,0.0,0.0,0.0,1.3296703296703296,0.0,-0.6593406593406593,0.0,0.0,0.0,0.8595848595848596,-0.5897435897435898,-1.1452991452991452,0.0,0.0,0.0,0.0,-0.5824175824175825,-1.0891330891330893,0.0,0.0,0.0,0.0,0.0,0.0,0.0,0.0,0.0,-0.7851037851037851,0.5103785103785103,0.0,0.0,0.0,0.0,-1.078144078144078,0.7472527472527473,0.0,0.0,0.0,0.0,0.0,0.0,0.0,0.0,0.0,0.0,0.0,0.0,0.0,0.0,0.0,0.0,0.0,0.0,0.0,0.0,0.0,0.0,0.0,0.0,0.0,0.0,0.0,0.0,-0.5409035409035409,0.0,0.0,0.0,0.0,0.0,0.0,0.0,0.0,0.0,0.0,0.0,0.0,0.0,0.0,0.0,0.0,0.0,0.0,0.0,0.0,0.0,0.0,0.0,0.0,0.0,0.0,0.0,0.0,0.0,0.0,0.0,0.0,0.0,0.0,0.0,0.0,0.0,0.0,0.0,0.0,0.0,0.0,0.0,0.0,0.0,0.0,0.0,0.0,0.0,0.0,0.0,0.0,0.0,0.0,0.0,0.0,0.0,0.0,0.0,0.0,0.0,0.0,0.0,0.0,0.0,0.0,0.0,0.0,0.0,0.0,0.0,0.0,0.0,0.0,0.0,0.0,0.0,0.0,0.0,0.0,0.0,0.0,0.0,0.0,0.0,0.0,0.0,0.0,0.0,0.0,0.0,0.0,0.0,0.0,0.0,0.0,0.0,0.0,0.0,0.0,0.0,0.0,0.0,0.0,0.0,0.0,0.0,0.0,0.0,0.0,0.0,0.0,0.0,0.0,0.0,0.0,0.0,0.0,0.0,0.0,0.0,0.0,0.0,0.0,0.0,0.0,0.0,0.0,0.0,0.0,0.0,0.0,0.0,0.0,0.0,0.0,0.0,0.0,0.0,0.0,0.0,0.0,0.0,0.0,0.0,0.0,0.0,0.0,0.0,land
8,0.57997557997558,0.0,0.0,0.0,0.0,0.0,0.0,0.0,0.0,0.0,0.0,0.0,0.0,0.0,0.0,0.0,0.0,0.0,0.0,0.0,0.0,0.0,0.0,0.0,0.0,0.0,0.0,0.0,0.0,0.0,0.0,0.0,-0.5653235653235653,0.0,0.0,0.0,0.0,-0.5677655677655677,-0.5982905982905983,0.0,0.0,0.0,0.0,0.0,0.0,0.0,0.0,0.0,0.0,0.5128205128205128,0.9108669108669109,0.0,0.0,0.0,-0.7289377289377289,1.0268620268620268,1.6703296703296704,0.0,0.0,0.0,-0.8302808302808303,0.9462759462759462,2.413919413919414,0.0,0.0,0.0,-0.8522588522588522,0.0,3.1746031746031744,0.0,0.0,0.0,-1.2967032967032968,0.0,4.409035409035409,0.0,0.0,0.0,-1.4908424908424909,0.8021978021978022,6.112332112332113,0.0,0.0,0.0,-1.84004884004884,0.6898656898656899,6.842490842490842,0.0,-0.53125,0.0,-2.3504273504273505,0.0,6.747252747252747,0.0,-0.6875,0.0,-2.4249084249084247,0.0,6.63980463980464,0.59375,-0.75,0.0,-2.706959706959707,0.0,5.88034188034188,1.03125,-0.53125,0.0,-2.47008547008547,1.072039072039072,4.643467643467643,1.6875,0.0,0.625,-0.5555555555555556,0.0,2.0366300366300365,2.03125,0.0,0.8125,2.6446886446886446,-3.175824175824176,0.0,0.78125,-0.9375,0.0,-2.122100122100122,0.7606837606837606,1.6153846153846154,0.65625,-1.0,0.0,-3.6593406593406583,1.982905982905983,0.5848595848595849,2.0625,0.0,0.59375,1.5677655677655675,-3.357753357753358,-2.514041514041514,3.25,1.0625,1.5625,7.014652014652015,-7.412698412698412,-4.4896214896214905,2.15625,0.0,0.96875,2.1172161172161172,-3.678876678876679,-2.868131868131868,0.0,-2.125,-0.5625,-1.9853479853479847,0.0,-0.7326007326007326,0.0,-2.1875,-1.0625,-3.148962148962149,0.0,0.0,1.1875,-1.75,-0.53125,0.0,-2.9255189255189253,-0.7973137973137974,1.9375,-1.5625,0.0,0.0,-3.8437118437118434,-2.778998778998779,1.5625,-2.46875,-0.59375,-0.6874236874236874,-2.9145299145299144,-4.107448107448107,0.9375,-3.125,-0.96875,-2.1575091575091574,-1.380952380952381,-4.311355311355311,0.78125,-3.25,-0.8125,-1.4505494505494505,-1.8742368742368745,-5.4041514041514045,1.03125,-2.125,0.0,-1.9328449328449329,-0.9328449328449328,-5.897435897435898,1.125,-1.0625,0.0,-0.5604395604395604,-1.4175824175824177,-5.907203907203907,1.03125,0.0,0.0,0.6984126984126984,-1.927960927960928,-5.054945054945055,0.71875,0.0,0.0,1.0036630036630036,-1.0647130647130647,-3.1416361416361416,0.0,0.0,0.0,0.0,0.0,-1.2380952380952381,0.0,0.0,0.0,-0.8205128205128205,0.7924297924297924,0.0,0.5625,0.0,0.0,0.0,0.0,0.0,0.53125,0.0,0.0,0.0,0.0,0.0,0.0,0.0,0.0,0.7313797313797313,0.0,0.0,0.0,0.0,0.0,0.8986568986568987,0.0,0.0,0.0,0.0,0.0,0.0,0.0,0.0,0.0,0.0,0.0,-0.503052503052503,0.0,-0.8376068376068376,0.0,0.0,0.0,0.0,-0.6898656898656899,-1.0305250305250304,0.0,0.0,0.0,0.0,-0.6422466422466423,-0.5091575091575091,0.0,0.625,0.0,0.0,-0.5164835164835165,0.0,0.0,0.53125,0.0,0.0,0.0,0.0,0.0,0.0,0.0,0.0,0.0,0.0,0.0,0.0,0.0,0.0,0.0,0.0,0.0,0.0,0.0,0.0,0.0,0.0,0.0,0.0,0.0,0.0,0.0,0.0,0.0,0.0,0.0,0.0,0.0,0.0,0.0,0.0,0.0,0.0,0.0,0.0,0.0,0.0,0.0,0.0,0.0,0.0,0.0,0.0,0.0,0.0,0.0,0.0,0.0,0.0,0.0,0.0,0.0,0.0,0.0,0.0,0.0,0.0,0.0,0.0,0.0,0.0,0.0,0.0,0.0,0.0,0.0,0.0,0.0,0.0,0.0,0.0,0.0,0.0,0.0,0.0,0.0,0.0,0.0,0.0,0.0,0.0,0.0,0.0,0.0,0.0,0.0,0.0,0.0,0.0,0.0,0.0,0.0,0.0,0.0,0.0,0.0,0.0,0.0,0.0,0.0,0.0,0.0,0.0,0.0,0.0,0.0,0.0,0.0,0.0,0.0,0.0,0.0,0.0,0.0,0.0,0.0,0.0,0.0,0.0,0.0,0.0,0.0,0.0,0.0,0.0,0.0,0.0,0.0,0.0,0.0,0.0,0.0,0.0,0.0,0.0,0.0,0.0,0.0,0.0,0.0,0.0,0.0,0.0,0.0,0.0,0.0,0.0,0.0,0.0,0.0,0.0,0.0,0.0,0.0,0.0,0.0,0.0,0.0,0.0,0.0,0.0,0.0,0.0,0.0,0.0,0.0,0.0,0.0,0.0,0.0,0.0,0.0,0.0,0.0,0.0,0.0,0.0,0.0,0.0,0.0,0.0,0.0,0.0,0.0,0.0,0.0,0.0,0.0,land
9,-0.6385836385836385,0.0,0.6544566544566545,0.0,0.0,0.0,0.0,0.0,0.8498168498168498,0.0,0.0,0.0,0.0,0.0,1.247863247863248,0.0,0.0,0.0,-0.6080586080586079,0.0,2.05006105006105,0.0,0.0,0.0,-1.343101343101343,0.8327228327228328,3.31013431013431,0.0,0.0,0.0,-1.811965811965812,1.1343101343101345,4.476190476190476,0.0,0.0,0.0,-2.3064713064713063,0.5641025641025641,4.603174603174604,0.0,0.0,0.0,-2.275946275946276,0.0,4.925518925518926,0.0,0.0,0.0,-1.5470085470085468,0.8559218559218559,5.8437118437118425,0.0,0.0,0.0,-1.9816849816849813,1.3943833943833943,6.046398046398046,0.0,-0.53125,0.0,-1.971916971916972,1.1697191697191698,5.500610500610501,0.75,0.0,0.5625,-0.5811965811965812,0.0,4.553113553113553,0.96875,0.0,0.59375,0.5164835164835165,-0.757020757020757,2.771672771672772,1.0625,-0.90625,0.0,-0.912087912087912,0.0,0.0,1.65625,-0.84375,0.0,1.242979242979243,-2.78998778998779,-2.9206349206349205,2.28125,0.0,0.96875,4.95970695970696,-4.8388278388278385,-3.1391941391941387,1.53125,0.0,0.6875,2.1672771672771667,-2.498168498168498,-1.3882783882783882,0.0,-1.28125,0.0,-1.2442002442002442,0.0,0.0,0.5625,-1.28125,0.0,-2.894993894993896,0.0,1.2234432234432235,1.4375,-0.875,0.0,-3.1648351648351647,-1.0488400488400489,0.0,2.28125,0.0,0.8125,1.7594627594627594,-4.229548229548231,-2.2893772893772892,2.375,0.0,1.15625,2.9328449328449326,-4.617826617826617,-3.236874236874237,1.3125,-2.21875,0.0,-1.1916971916971917,-2.2588522588522597,-3.495726495726496,0.59375,-3.28125,-0.78125,-3.1404151404151404,-0.9645909645909646,-3.7973137973137967,1.28125,-2.15625,0.0,-2.376068376068376,-1.1391941391941391,-4.6068376068376065,1.875,-0.96875,0.5625,0.0,-2.583638583638584,-6.4603174603174605,1.75,0.0,0.96875,1.794871794871795,-3.6996336996337,-6.9743589743589745,0.90625,0.0,0.6875,-0.7203907203907204,-2.7362637362637363,-4.755799755799756,0.0,0.0,0.0,-2.4383394383394386,0.8498168498168498,-0.5641025641025641,0.0,0.65625,0.0,-1.8351648351648349,1.9694749694749696,0.0,1.03125,0.0,0.625,0.0,0.6410256410256411,-1.105006105006105,0.9375,0.0,0.625,0.9291819291819292,-1.2344322344322345,-2.590964590964591,0.0,-0.53125,0.0,1.1245421245421243,0.0,-2.0134310134310134,0.0,-0.6875,0.0,0.0,0.0,-0.9951159951159952,0.0,0.0,0.0,0.0,0.0,0.0,0.0,0.0,0.0,0.5970695970695971,-0.7142857142857143,0.0,0.0,0.0,0.0,1.321123321123321,-1.1697191697191698,0.0,0.0,0.0,0.0,1.8608058608058609,-1.2735042735042734,0.0,0.0,0.0,0.0,1.5189255189255189,-0.6800976800976801,0.7326007326007326,0.0,0.0,0.0,0.7826617826617827,0.0,0.5115995115995116,0.0,0.0,0.0,0.0,0.0,0.0,0.0,0.0,0.0,-0.5054945054945055,0.0,0.0,0.0,0.0,0.0,0.0,0.0,0.0,0.0,0.0,0.0,0.0,0.0,0.0,0.0,0.0,0.0,0.0,0.0,0.0,0.0,0.0,0.0,0.0,0.0,0.0,0.0,0.0,0.0,0.0,0.0,-0.6153846153846154,0.0,0.0,0.0,-0.5726495726495726,0.0,0.0,0.0,0.0,0.0,-0.5531135531135531,0.0,0.0,0.0,0.0,0.0,0.0,0.0,0.0,0.0,0.0,0.0,0.0,0.0,0.0,0.0,0.0,0.0,0.0,0.0,0.0,0.0,0.0,0.0,0.0,0.0,0.0,0.0,0.0,0.0,0.0,0.0,0.0,0.0,0.0,0.0,0.0,0.0,0.0,0.0,0.0,0.0,0.0,0.0,0.0,0.0,0.0,0.0,0.0,0.0,0.0,0.0,0.0,0.0,0.0,0.0,0.0,0.0,0.0,0.0,0.0,0.0,0.0,0.0,0.0,0.0,0.0,0.0,0.0,0.0,0.0,0.0,0.0,0.0,0.0,0.0,0.0,0.0,0.0,0.0,0.0,0.0,0.0,0.0,0.0,0.0,0.0,0.0,0.0,0.0,0.0,0.0,0.0,0.0,0.0,0.0,0.0,0.0,0.0,0.0,0.0,0.0,0.0,0.0,0.0,0.0,0.0,0.0,0.0,0.0,0.0,0.0,0.0,0.0,0.0,0.0,0.0,0.0,0.0,0.0,0.0,0.0,0.0,0.0,0.0,0.0,0.0,0.0,0.0,0.0,0.0,0.0,0.0,0.0,0.0,0.0,0.0,0.0,0.0,0.0,0.0,0.0,0.0,0.0,0.0,0.0,0.0,0.0,0.0,0.0,0.0,0.0,0.0,0.0,0.0,0.0,0.0,0.0,0.0,0.0,0.0,0.0,0.0,0.0,0.0,0.0,0.0,0.0,0.0,0.0,0.0,0.0,0.0,0.0,0.0,0.0,0.0,0.0,0.0,0.0,0.0,0.0,0.0,0.0,0.0,0.0,0.0,0.0,0.0,0.0,0.0,0.0,land
10,0.0,0.0,0.6593406593406593,0.0,0.0,0.0,0.0,0.0,0.5006105006105006,0.0,0.0,0.0,-0.9841269841269841,0.0,0.0,0.0,0.0,0.0,0.0,0.0,0.0,0.0,0.0,0.0,0.0,0.0,1.3125763125763126,0.0,0.0,0.0,0.0,0.0,1.0818070818070815,0.0,0.0,0.0,0.0,0.0,1.1514041514041513,0.0,0.0,0.0,0.0,0.0,1.9694749694749696,0.0,0.0,0.0,-0.905982905982906,0.9255189255189256,3.217338217338217,0.0,0.0,0.0,-1.0989010989010992,1.0231990231990231,4.2234432234432235,0.0,0.0,0.0,-1.4908424908424909,0.9047619047619048,4.9633699633699635,0.0,0.0,0.0,-1.6727716727716728,0.8913308913308914,5.3870573870573875,0.0,0.0,0.0,-1.5433455433455434,0.8791208791208791,5.203907203907204,0.0,0.0,0.0,-1.0708180708180708,1.2393162393162394,4.862026862026863,0.875,0.0,0.0,0.0,0.0,3.3650793650793656,1.3125,0.0,0.0,0.0,-0.6007326007326007,1.7667887667887667,1.46875,0.0,0.0,0.912087912087912,-1.5115995115995116,0.0,1.4375,0.0,0.0,1.565323565323565,-1.575091575091575,0.0,0.8125,-1.03125,0.0,0.7277167277167277,-0.8327228327228328,1.2075702075702075,0.65625,-1.4375,0.0,-0.8083028083028083,0.0,1.8266178266178263,0.90625,-1.1875,0.0,0.0,0.0,1.6056166056166057,1.34375,-1.21875,0.0,0.0,-0.8571428571428571,0.0,1.625,-1.4375,0.0,-1.332112332112332,-1.4761904761904765,-2.0097680097680097,1.53125,-1.1875,0.0,-0.9108669108669109,-1.7252747252747254,-2.1941391941391943,1.1875,-0.96875,0.0,-0.927960927960928,-0.5775335775335775,-0.7106227106227107,1.21875,-1.1875,0.0,-2.2698412698412698,0.0,0.0,1.59375,-1.25,0.0,-2.3418803418803416,-0.8693528693528694,-1.006105006105006,1.875,-1.125,0.59375,0.0,-2.976800976800977,-2.1526251526251525,1.5,-1.75,0.0,0.0,-2.3455433455433456,-3.5665445665445668,1.28125,-1.84375,0.0,-1.4884004884004884,-2.0329670329670333,-5.2686202686202686,1.5,-1.4375,0.0,0.0,-2.947496947496948,-6.785103785103785,1.34375,-1.0,0.84375,3.5567765567765566,-4.3577533577533565,-6.373626373626371,0.6875,-0.9375,0.625,1.6153846153846154,-3.5042735042735043,-5.065934065934067,0.0,-0.90625,0.0,0.0,-1.0915750915750917,-3.456654456654457,0.0,0.0,-0.59375,-1.8461538461538465,0.5628815628815629,-1.9181929181929185,0.0,0.0,-0.625,-2.8424908424908426,2.4249084249084247,0.0,0.0,0.0,0.0,-2.5555555555555562,2.8241758241758244,0.0,0.0,0.0,0.0,-1.1672771672771671,1.8424908424908424,0.0,0.65625,0.0,0.59375,0.0,0.7924297924297924,-0.8901098901098901,0.59375,0.0,0.59375,0.0,0.0,-1.338217338217338,0.0,0.0,0.0,0.0,0.0,-1.0048840048840049,0.0,0.0,0.0,0.0,0.0,0.0,0.0,0.0,0.0,0.0,0.0,0.0,0.0,0.0,0.0,-0.6666666666666666,0.0,0.63003663003663,0.0,0.0,0.0,0.0,0.0,0.0,0.0,0.0,0.0,0.0,-0.5970695970695971,0.0,0.0,0.0,0.0,1.1074481074481075,-0.7045177045177046,0.0,0.0,0.0,0.0,0.9108669108669109,-0.6178266178266179,0.0,0.0,0.0,0.0,0.0,0.0,0.0,0.0,0.0,0.0,0.0,0.0,0.0,0.0,0.0,0.0,0.0,0.0,0.0,0.0,0.0,0.0,0.0,0.0,0.0,0.0,0.0,0.0,0.0,0.0,0.0,0.0,0.0,0.0,0.0,0.0,0.0,0.0,0.0,0.0,0.0,0.0,0.0,0.0,0.0,0.0,0.0,0.0,0.0,0.0,0.0,0.0,0.0,0.0,0.0,0.0,0.0,0.0,0.0,0.0,0.0,0.0,0.0,0.0,0.0,0.0,0.0,0.0,0.0,0.0,0.0,0.0,0.0,0.0,0.0,0.0,0.0,0.0,0.0,0.0,0.0,0.0,0.0,0.0,0.0,0.0,0.0,0.0,0.0,0.0,0.0,0.0,0.0,0.0,0.0,0.0,0.0,0.0,0.0,0.0,0.0,0.0,0.0,0.0,0.0,0.0,0.0,0.0,0.0,0.0,0.0,0.0,0.0,0.0,0.0,0.0,0.0,0.0,0.0,0.0,0.0,0.0,0.0,0.0,0.0,0.0,0.0,0.0,0.0,0.0,0.0,0.0,0.0,0.0,0.0,0.0,0.0,0.0,0.0,0.0,0.0,0.0,0.0,0.0,0.0,0.0,0.0,0.0,0.0,0.0,0.0,0.0,0.0,0.0,0.0,0.0,0.0,0.0,0.0,0.0,0.0,0.0,0.0,0.0,0.0,0.0,0.0,0.0,0.0,0.0,0.0,0.0,0.0,0.0,0.0,0.0,0.0,0.0,0.0,0.0,0.0,0.0,0.0,0.0,0.0,0.0,0.0,0.0,0.0,0.0,0.0,0.0,0.0,0.0,0.0,0.0,land
11,0.0,0.0,0.0,0.0,0.0,0.0,0.5543345543345544,-0.5299145299145299,0.0,0.0,0.0,0.0,0.0,0.0,0.0,0.0,0.0,0.0,0.0,0.0,0.8717948717948718,0.0,0.0,0.0,-0.6141636141636142,0.0,1.376068376068376,0.0,0.0,0.0,-0.5457875457875457,0.0,2.101343101343101,0.0,0.0,0.0,-1.0354090354090355,0.0,2.9365079365079363,0.0,0.0,0.0,-1.4713064713064714,0.9010989010989012,4.203907203907204,0.0,0.0,0.0,-2.0061050061050056,1.0964590964590966,5.075702075702075,0.0,0.0,0.0,-2.147741147741148,0.8009768009768009,5.297924297924298,0.0,0.0,0.0,-2.1465201465201464,0.0,5.0195360195360195,0.53125,0.0,0.0,-1.5323565323565325,0.7545787545787546,4.6007326007326,0.71875,0.0,0.0,-1.242979242979243,0.0,3.871794871794872,1.03125,0.0,0.5625,-0.7582417582417582,0.0,3.0024420024420024,1.25,0.0,0.65625,0.0,-0.5787545787545788,2.6507936507936507,1.15625,0.0,0.6875,0.9194139194139194,-0.6019536019536019,2.4004884004884004,1.03125,-0.71875,0.5625,-1.1013431013431014,0.0,1.485958485958486,1.15625,-0.96875,0.0,-2.0305250305250304,0.0,0.8754578754578755,1.75,0.0,0.90625,-1.3943833943833943,-0.7118437118437119,-0.9731379731379732,2.25,0.0,1.40625,3.151404151404152,-3.6825396825396814,-2.2185592185592187,1.71875,0.0,1.125,3.404151404151404,-3.8595848595848596,-1.7252747252747254,0.84375,-1.3125,0.0,-0.8559218559218559,-1.4615384615384617,-0.7643467643467643,0.75,-1.0625,0.0,-2.0805860805860807,0.0,0.0,1.4375,0.0,0.53125,-2.6825396825396823,0.0,0.0,2.125,0.0,1.03125,-1.663003663003663,-1.326007326007326,0.0,2.25,0.0,1.21875,0.0,-1.9987789987789988,-1.3894993894993894,1.9375,0.0,0.90625,0.0,-2.561660561660561,-3.0842490842490844,1.5,-0.71875,0.0,0.0,-2.173382173382173,-4.1330891330891335,1.0625,-1.15625,0.0,0.0,-2.4932844932844933,-5.807081807081808,0.6875,-1.625,0.0,0.0,-2.2051282051282053,-5.378510378510379,0.0,-1.1875,0.0,0.0,-1.4713064713064714,-3.868131868131868,0.0,0.0,0.5625,1.4981684981684982,-1.3601953601953602,-2.716727716727717,0.0,0.0,0.9375,2.3785103785103785,-1.4493284493284493,-1.7814407814407816,0.75,0.6875,0.875,2.3687423687423688,-1.398046398046398,-1.3296703296703296,0.78125,0.0,0.53125,1.6507936507936507,-1.2857142857142858,-1.4114774114774116,0.53125,0.0,0.0,0.8278388278388278,0.0,-0.8229548229548229,0.0,0.0,0.0,0.0,0.5750915750915749,0.0,0.0,-0.6875,0.0,0.0,0.9096459096459096,0.5934065934065934,0.0,-0.65625,0.0,0.0,0.0,0.0,0.0,0.0,0.0,0.0,0.0,-0.7704517704517705,0.0,0.0,0.0,0.0,0.0,-1.3394383394383391,0.0,0.0,0.0,-0.5543345543345544,0.0,-0.6605616605616605,0.0,0.0,0.0,-0.568986568986569,0.0,0.0,0.0,0.0,0.0,0.0,0.0,0.0,0.0,0.0,0.0,0.0,0.0,0.0,0.0,0.0,0.0,0.0,0.0,-0.5115995115995116,0.0,0.0,0.0,0.0,0.0,-0.557997557997558,0.0,0.0,0.0,0.0,0.0,0.0,0.0,0.0,0.0,0.0,0.0,0.0,0.0,0.0,0.0,0.0,0.0,0.0,0.0,0.0,0.0,0.5091575091575091,0.0,0.5787545787545788,0.0,0.0,0.0,0.0,0.0,0.0,0.0,0.0,0.0,0.0,0.0,0.0,0.0,0.0,0.0,0.0,0.0,0.0,0.0,0.0,0.0,0.0,0.0,0.0,0.0,0.0,0.0,0.0,0.0,0.0,0.0,0.0,0.0,0.0,0.0,0.0,0.0,0.0,0.0,0.0,0.0,0.0,0.0,0.0,0.0,0.0,0.0,0.0,0.0,0.0,0.0,0.0,0.0,0.0,0.0,0.0,0.0,0.0,0.0,0.0,0.0,0.0,0.0,0.0,0.0,0.0,0.0,0.0,0.0,0.0,0.0,0.0,0.0,0.0,0.0,0.0,0.0,0.0,0.0,0.0,0.0,0.0,0.0,0.0,0.0,0.0,0.0,0.0,0.0,0.0,0.0,0.0,0.0,0.0,0.0,0.0,0.0,0.0,0.0,0.0,0.0,0.0,0.0,0.0,0.0,0.0,0.0,0.0,0.0,0.0,0.0,0.0,0.0,0.0,0.0,0.0,0.0,0.0,0.0,0.0,0.0,0.0,0.0,0.0,0.0,0.0,0.0,0.0,0.0,0.0,0.0,0.0,0.0,0.0,0.0,0.0,0.0,0.0,0.0,0.0,0.0,0.0,0.0,0.0,0.0,0.0,0.0,0.0,0.0,0.0,0.0,0.0,0.0,0.0,0.0,0.0,0.0,0.0,0.0,0.0,0.0,0.0,0.0,0.0,0.0,0.0,0.0,0.0,0.0,0.0,0.0,0.0,0.0,0.0,0.0,0.0,0.0,land
12,0.0,0.0,0.8021978021978022,0.0,0.0,0.0,-1.3577533577533578,0.0,0.0,0.0,0.0,0.0,-1.3772893772893773,0.0,0.0,0.0,0.0,0.0,0.0,0.0,0.8388278388278388,0.0,0.0,0.0,-0.7045177045177046,0.0,1.1367521367521367,0.0,0.0,0.0,-0.9621489621489622,0.0,1.3235653235653235,0.0,0.0,0.0,-0.8974358974358975,0.0,1.7594627594627594,0.0,0.0,0.0,-1.0744810744810744,0.0,2.6617826617826617,0.0,0.0,0.0,-1.5421245421245422,0.0,3.0488400488400487,0.0,0.0,0.0,-1.247863247863248,0.0,2.965811965811966,0.0,0.0,0.0,-0.5103785103785103,0.0,3.305250305250305,0.0,0.0,0.0,0.0,0.6483516483516484,3.9609279609279615,0.0,0.0,0.0,-0.7985347985347986,0.0,3.664224664224663,0.0,0.0,0.0,0.0,0.0,3.407814407814408,0.0,0.0,0.0,0.8644688644688645,-0.6666666666666666,3.318681318681319,0.0,0.0,0.0,0.8376068376068376,-0.9365079365079364,3.086691086691087,0.0,-0.84375,0.0,-0.8376068376068376,0.0,2.9963369963369964,0.0,-0.9375,-0.53125,-0.8315018315018315,0.0,2.4542124542124544,0.75,-0.96875,0.0,-0.6739926739926739,-0.5616605616605617,1.7985347985347986,1.09375,-1.03125,0.0,0.5738705738705738,-1.4493284493284493,0.0,1.25,-1.21875,0.0,0.0,-1.1978021978021978,-0.9768009768009768,1.34375,-1.34375,-0.59375,-1.0085470085470083,0.0,-1.4908424908424909,1.59375,-1.21875,0.0,-1.0476190476190477,0.0,-1.4945054945054943,1.96875,-1.34375,0.0,0.0,-1.4786324786324787,-1.8412698412698407,2.09375,-2.0,0.0,0.0,-2.669108669108669,-3.3418803418803416,1.84375,-2.5,0.0,0.0,-1.9487179487179491,-4.191697191697192,1.59375,-2.5625,0.0,-2.716727716727717,-0.7496947496947497,-6.207570207570207,1.59375,-1.84375,0.0,0.0,-1.4151404151404152,-6.997557997557997,1.5625,-0.90625,0.875,0.8815628815628815,-2.291819291819292,-6.231990231990232,1.125,0.0,0.96875,1.6532356532356531,-2.2564102564102564,-4.507936507936508,0.75,0.0,0.71875,0.8595848595848596,-1.083028083028083,-3.0488400488400487,0.625,0.0,0.0,0.0,0.0,-2.05982905982906,0.5625,0.0,0.0,-1.343101343101343,0.6056166056166056,-0.9572649572649572,0.53125,0.0,0.0,-1.3724053724053724,0.8864468864468864,0.0,0.5625,0.59375,0.0,0.0,0.0,0.0,0.0,0.5625,0.0,1.1318681318681318,0.0,0.0,0.0,0.0,0.0,0.0,0.0,0.0,0.0,0.0,0.0,0.0,0.5543345543345544,0.0,0.0,0.0,0.0,-0.5897435897435898,0.8571428571428571,-0.5421245421245421,0.0,0.0,0.0,-0.9523809523809524,0.9255189255189256,0.0,0.0,0.0,0.0,-0.8351648351648352,0.0,-0.5421245421245421,0.0,0.0,0.0,0.0,0.0,0.0,0.0,0.0,0.0,0.0,0.0,0.0,0.0,0.0,0.0,0.0,0.0,0.0,0.0,0.0,0.0,0.0,0.0,0.0,0.0,0.0,0.0,0.0,0.0,0.0,0.0,0.0,0.0,0.0,0.0,0.0,0.0,0.0,0.0,0.0,0.0,0.0,0.0,0.0,0.0,0.8339438339438342,0.0,0.0,0.0,0.0,0.0,0.0,-0.5677655677655677,0.0,0.0,0.0,0.0,0.0,0.0,0.0,0.0,0.0,0.0,0.0,0.0,0.0,0.0,0.0,0.0,0.0,0.0,0.0,0.0,0.0,0.0,0.0,0.0,0.0,0.0,0.0,0.0,0.0,0.0,0.0,0.0,0.0,0.0,0.0,0.0,0.0,0.0,0.0,0.0,0.0,0.0,0.0,0.0,0.0,0.0,0.0,0.0,0.0,0.0,0.0,0.0,0.0,0.0,0.0,0.0,0.0,0.0,0.0,0.0,0.0,0.0,0.0,0.0,0.0,0.0,0.0,0.0,0.0,0.0,0.0,0.0,0.0,0.0,0.0,0.0,0.0,0.0,0.0,0.0,0.0,0.0,0.0,0.0,0.0,0.0,0.0,0.0,0.0,0.0,0.0,0.0,0.0,0.0,0.0,0.0,0.0,0.0,0.0,0.0,0.0,0.0,0.0,0.0,0.0,0.0,0.0,0.0,0.0,0.0,0.0,0.0,0.0,0.0,0.0,0.0,0.0,0.0,0.0,0.0,0.0,0.0,0.0,0.0,0.0,0.0,0.0,0.0,0.0,0.0,0.0,0.0,0.0,0.0,0.0,0.0,0.0,0.0,0.0,0.0,0.0,0.0,0.0,0.0,0.0,0.0,0.0,0.0,0.0,0.0,0.0,0.0,0.0,0.0,0.0,0.0,0.0,0.0,0.0,0.0,0.0,0.0,0.0,0.0,0.0,0.0,0.0,0.0,0.0,0.0,0.0,0.0,0.0,0.0,0.0,0.0,0.0,0.0,0.0,0.0,0.0,0.0,0.0,0.0,land
13,0.0,0.0,0.0,0.0,0.0,0.0,-0.5384615384615384,0.0,0.0,0.0,0.0,0.0,0.0,0.0,0.0,0.0,0.0,0.0,0.5323565323565324,-0.5103785103785103,0.0,0.0,0.0,0.0,0.0,0.0,0.0,0.0,0.0,0.0,0.0,0.0,0.0,0.0,0.0,0.0,0.0,0.0,0.0,0.0,0.0,0.0,0.0,0.0,0.7020757020757019,0.0,0.0,0.0,0.0,0.0,1.1892551892551892,0.0,0.0,0.0,-0.7973137973137974,0.0,1.843711843711844,0.0,0.0,0.0,-1.1282051282051282,0.0,3.0805860805860807,0.0,0.0,0.0,-0.9963369963369964,0.0,4.409035409035409,0.0,0.0,0.0,-0.9804639804639804,0.5164835164835165,5.683760683760682,0.0,0.0,0.0,-1.407814407814408,0.0,6.089133089133089,0.0,0.0,0.0,-1.7106227106227103,0.0,5.902319902319902,0.0,0.0,0.0,-1.7716727716727716,0.0,5.410256410256411,0.59375,0.0,0.0,-1.5738705738705738,0.0,4.722832722832723,0.9375,0.0,0.0,-1.2466422466422469,0.0,3.498168498168498,1.34375,0.0,0.0,0.0,-1.120879120879121,1.5030525030525033,1.53125,0.0,0.0,0.0,-2.562881562881563,-1.020757020757021,1.09375,-0.625,0.0,0.0,-1.9902319902319905,-1.1306471306471306,0.65625,-0.65625,0.0,0.0,-0.6984126984126984,0.0,0.625,-0.875,0.0,-0.9401709401709402,0.0,0.9401709401709402,0.78125,-1.1875,0.0,-0.6666666666666666,-1.1245421245421243,0.0,0.875,-1.40625,0.0,-0.9792429792429792,0.0,-1.9731379731379728,1.28125,-1.375,0.0,-1.177045177045177,-1.557997557997558,-4.299145299145299,1.3125,-0.84375,0.5625,-1.175824175824176,0.0,-3.145299145299145,1.375,0.0,0.875,-0.9291819291819292,-0.6105006105006106,-2.758241758241758,1.59375,0.0,1.21875,3.282051282051282,-3.336996336996337,-3.553113553113553,0.96875,-1.3125,0.0,0.0,-2.2625152625152625,-3.804639804639805,0.0,-1.625,0.0,-1.6886446886446886,0.0,-2.578754578754579,0.90625,-0.875,0.0,-0.7338217338217338,0.0,-3.294261294261294,1.40625,0.0,0.71875,0.0,-1.4383394383394383,-4.548229548229548,1.375,0.0,0.9375,2.2698412698412698,-1.8388278388278387,-4.819291819291818,0.90625,0.0,0.625,2.421245421245421,-1.4835164835164836,-3.604395604395605,0.0,0.0,0.0,0.0,-0.5103785103785103,-1.4835164835164836,0.0,0.0,0.0,0.0,0.0,0.0,0.0,0.0,0.0,0.0,0.0,0.0,0.0,0.0,0.0,0.0,0.0,-0.9658119658119658,0.0,0.0,0.0,0.0,0.0,-1.137973137973138,0.0,0.0,0.0,0.0,0.0,0.0,0.0,0.0,0.0,0.6043956043956044,0.0,0.0,0.0,0.0,0.0,0.9487179487179488,0.0,0.0,0.0,0.0,0.0,0.0,0.0,-0.9609279609279608,0.0,0.0,0.0,0.0,0.0,-0.9291819291819292,0.0,0.0,0.0,0.0,0.0,0.0,0.0,0.0,0.0,0.0,0.0,0.0,0.0,0.0,0.0,0.0,0.0,0.0,0.0,0.0,0.0,0.0,0.0,-0.5225885225885226,0.0,0.0,0.0,0.0,0.0,-0.6105006105006106,0.0,0.0,0.0,0.0,0.0,0.0,0.0,0.0,0.0,0.0,0.0,0.0,0.0,0.0,0.0,0.0,0.0,0.0,0.0,0.0,0.0,0.0,0.0,0.0,0.0,0.0,0.0,0.0,0.0,0.0,0.0,0.0,0.0,0.0,0.0,0.0,0.0,0.0,0.0,0.0,0.0,0.0,0.0,0.0,0.0,0.0,0.0,0.0,0.0,0.0,0.0,0.0,0.0,0.0,0.0,0.0,0.0,0.0,0.0,0.0,0.0,0.0,0.0,0.0,0.0,0.0,0.0,0.0,0.0,0.0,0.0,0.0,0.0,0.0,0.0,0.0,0.0,0.0,0.0,0.0,0.0,0.0,0.0,0.0,0.0,0.0,0.0,0.0,0.0,0.0,0.0,0.0,0.0,0.0,0.0,0.0,0.0,0.0,0.0,0.0,0.0,0.0,0.0,0.0,0.0,0.0,0.0,0.0,0.0,0.0,0.0,0.0,0.0,0.0,0.0,0.0,0.0,0.0,0.0,0.0,0.0,0.0,0.0,0.0,0.0,0.0,0.0,0.0,0.0,0.0,0.0,0.0,0.0,0.0,0.0,0.0,0.0,0.0,0.0,0.0,0.0,0.0,0.0,0.0,0.0,0.0,0.0,0.0,0.0,0.0,0.0,0.0,0.0,0.0,0.0,0.0,0.0,0.0,0.0,0.0,0.0,0.0,0.0,0.0,0.0,0.0,0.0,0.0,0.0,0.0,0.0,0.0,0.0,0.0,0.0,0.0,0.0,0.0,0.0,0.0,0.0,0.0,0.0,land
14,0.0,0.5274725274725275,3.0268620268620268,0.90625,0.0,0.0,-0.7643467643467643,0.0,2.514041514041514,1.0,0.0,0.0,-0.9902319902319904,0.0,3.11965811965812,0.6875,0.0,0.0,-0.9645909645909646,0.0,4.677655677655678,0.0,0.0,0.0,-1.6434676434676434,1.072039072039072,5.702075702075702,0.0,0.0,0.0,-2.2026862026862037,1.0097680097680095,6.246642246642248,0.0,0.0,0.0,-2.8363858363858365,1.708180708180708,6.1611721611721615,0.0,0.0,0.0,-3.13064713064713,2.1172161172161172,5.3199023199023205,0.84375,0.0,0.0,-2.5604395604395602,1.2759462759462759,3.2246642246642248,1.375,0.0,0.0,-0.7728937728937729,0.0,1.5372405372405369,1.53125,0.0,0.6875,0.0,-0.8070818070818071,0.6556776556776557,1.0625,0.0,0.0,0.0,-0.78998778998779,0.0,0.8125,-0.75,0.0,0.0,-0.6202686202686203,0.0,0.875,-1.125,0.0,-0.5665445665445665,-1.0586080586080586,-0.9804639804639804,0.8125,-1.15625,0.0,0.0,-1.3724053724053724,-1.6214896214896215,0.6875,-1.46875,0.0,0.0,-2.13064713064713,-2.733821733821733,0.0,-1.78125,-0.75,-1.0695970695970696,-0.7826617826617827,-2.1648351648351647,0.0,-1.84375,-0.8125,-2.385836385836386,0.0,-1.9096459096459093,0.96875,-1.53125,0.0,-2.4188034188034178,-0.7142857142857143,-2.483516483516484,1.28125,-1.09375,0.0,0.0,-1.9291819291819288,-3.7155067155067165,1.21875,-1.0625,0.5625,3.0109890109890114,-2.6666666666666665,-4.079365079365079,0.84375,-1.84375,0.0,1.1074481074481075,-1.623931623931624,-4.43956043956044,0.75,-1.6875,0.0,0.0,0.0,-4.549450549450549,1.0,-0.84375,0.0,1.0842490842490842,-0.7020757020757019,-4.4322344322344325,1.25,0.0,0.65625,2.242979242979243,-1.2857142857142858,-4.106227106227107,1.09375,0.0,0.78125,1.0293040293040292,-1.1916971916971917,-3.463980463980464,0.75,0.0,0.6875,0.7057387057387058,0.0,-1.8021978021978025,0.0,0.0,0.0,0.0,0.6275946275946276,-0.5653235653235653,0.0,0.0,0.0,0.0,0.8693528693528694,0.0,0.625,0.0,0.0,-0.6166056166056166,0.0,0.0,0.6875,0.0,0.0,0.0,0.0,-1.1184371184371185,0.0,0.0,0.0,0.0,0.0,-1.2356532356532357,0.0,0.0,0.0,-0.9194139194139194,0.6959706959706959,-0.8266178266178266,0.0,0.0,0.0,-1.0195360195360197,0.6190476190476191,-0.5543345543345544,0.0,0.0,0.0,-0.9072039072039072,0.0,0.0,0.0,0.0,0.0,-0.6129426129426129,0.0,0.0,0.0,0.0,0.0,0.0,0.0,0.0,0.0,0.0,0.0,0.0,0.0,0.0,0.0,0.0,0.0,0.0,0.0,0.0,0.0,0.0,0.0,0.0,0.0,0.0,0.0,0.0,0.0,0.0,0.0,0.0,0.0,0.0,0.0,0.0,0.0,0.0,0.0,0.0,0.0,0.0,0.0,0.0,0.0,0.0,0.0,0.0,0.0,0.0,0.0,0.0,0.0,0.0,0.0,0.0,0.0,0.0,0.0,0.0,0.0,0.0,0.0,0.0,0.0,0.0,0.0,0.0,0.0,0.0,0.0,0.0,0.0,0.0,0.0,0.0,0.0,0.0,0.0,0.0,0.0,0.0,0.0,0.0,0.0,0.0,0.0,0.0,0.0,0.0,0.0,0.0,0.0,0.0,0.0,0.0,0.0,0.0,0.0,0.0,0.0,0.0,0.0,0.0,0.0,0.0,0.0,0.0,0.0,0.0,0.0,0.0,0.0,0.0,0.0,0.0,0.0,0.0,0.0,0.0,0.0,0.0,0.0,0.0,0.0,0.0,0.0,0.0,0.0,0.0,0.0,0.0,0.0,0.0,0.0,0.0,0.0,0.0,0.0,0.0,0.0,0.0,0.0,0.0,0.0,0.0,0.0,0.0,0.0,0.0,0.0,0.0,0.0,0.0,0.0,0.0,0.0,0.0,0.0,0.0,0.0,0.0,0.0,0.0,0.0,0.0,0.0,0.0,0.0,0.0,0.0,0.0,0.0,0.0,0.0,0.0,0.0,0.0,0.0,0.0,0.0,0.0,0.0,0.0,0.0,0.0,0.0,0.0,0.0,0.0,0.0,0.0,0.0,0.0,0.0,0.0,0.0,0.0,0.0,0.0,0.0,0.0,0.0,0.0,0.0,0.0,0.0,0.0,0.0,0.0,0.0,0.0,0.0,0.0,0.0,0.0,0.0,0.0,0.0,0.0,0.0,0.0,0.0,0.0,0.0,0.0,0.0,0.0,0.0,0.0,0.0,0.0,0.0,0.0,0.0,0.0,0.0,0.0,0.0,0.0,0.0,0.0,0.0,0.0,0.0,0.0,0.0,0.0,0.0,0.0,0.0,0.0,0.0,0.0,0.0,0.0,0.0,0.0,0.0,0.0,0.0,0.0,0.0,0.0,0.0,0.0,0.0,0.0,0.0,land
15,-0.663003663003663,0.0,1.2722832722832722,0.0,0.0,0.0,-0.5409035409035409,0.5482295482295483,1.3492063492063493,0.0,0.0,0.0,0.0,0.0,1.9242979242979243,0.0,0.0,0.0,-0.5885225885225885,0.0,2.6849816849816848,0.0,0.0,0.0,-0.9951159951159952,0.5323565323565324,4.134310134310135,0.0,0.0,0.0,-1.3797313797313795,1.5018315018315018,5.583638583638583,0.0,0.0,0.0,-1.7326007326007329,1.4090354090354091,6.227106227106228,0.5625,0.0,0.0,-1.3797313797313795,1.0134310134310134,6.102564102564102,0.75,0.0,0.0,-1.4700854700854702,0.0,5.241758241758244,0.875,-0.53125,0.0,-1.7008547008547008,0.0,4.2173382173382175,1.15625,0.0,0.0,-1.95970695970696,0.8241758241758241,2.6153846153846154,1.78125,0.0,0.5625,-0.9035409035409036,0.0,0.9877899877899878,2.4375,0.0,0.9375,1.8168498168498168,-2.4334554334554332,-0.8901098901098901,2.125,0.0,0.8125,-1.5482295482295485,-1.407814407814408,0.0,1.5,0.0,0.6875,0.5567765567765568,-1.8632478632478635,0.9316239316239316,1.375,0.0,0.71875,0.0,-2.0244200244200243,0.57997557997558,1.1875,-1.5,0.0,-2.6849816849816848,-1.5177045177045176,-0.9108669108669109,1.28125,-2.09375,0.0,-4.15995115995116,-1.6483516483516485,-3.1672771672771667,1.875,-1.125,0.59375,0.0,-3.6312576312576312,-4.557997557997559,2.15625,0.0,1.15625,6.7533577533577525,-6.001221001221001,-5.315018315018317,1.3125,-0.875,0.625,2.295482295482296,-3.8852258852258847,-4.702075702075702,0.0,-2.9375,-0.78125,-2.023199023199023,-1.343101343101343,-4.333333333333333,0.0,-2.6875,-1.28125,-1.4004884004884004,0.0,-3.5189255189255184,0.0,-1.40625,-0.75,-0.6190476190476191,0.0,-3.137973137973138,0.53125,-0.59375,0.0,0.0,-0.8473748473748474,-3.227106227106227,0.8125,0.0,0.53125,1.9206349206349207,-1.6654456654456655,-2.8107448107448105,0.0,0.0,0.0,1.192918192918193,-1.4017094017094016,-2.2051282051282053,0.0,0.0,0.0,0.0,0.0,-1.2844932844932846,0.0,0.0,0.0,0.0,0.8717948717948718,0.0,0.0,0.0,0.0,0.0,0.8021978021978022,0.0,0.0,0.0,0.0,0.0,0.0,0.0,0.0,0.0,0.0,0.0,0.0,-1.0317460317460319,0.0,0.0,0.0,0.7435897435897436,0.0,-0.8070818070818071,0.0,0.0,0.0,0.0,0.0,-0.5970695970695971,0.0,0.0,0.0,0.0,0.0,0.0,0.0,0.0,0.0,0.0,0.0,0.0,0.0,0.0,0.0,0.0,0.0,0.0,0.0,0.0,0.0,0.0,-0.6678876678876678,0.0,0.0,0.0,0.0,0.6239316239316239,-0.5567765567765568,0.0,0.0,0.0,0.0,0.6910866910866911,0.0,0.0,0.0,0.0,0.0,0.0,0.0,0.0,0.0,0.0,0.0,0.0,0.0,0.0,0.0,0.0,0.0,0.0,0.0,0.0,0.0,0.0,0.0,0.0,0.0,0.0,0.0,0.0,0.0,0.0,0.0,0.0,0.0,0.0,0.0,0.0,0.0,0.0,0.0,0.0,0.0,0.0,0.0,0.0,0.0,0.0,0.0,0.0,0.0,0.0,0.0,0.0,0.0,0.0,0.0,0.0,0.0,0.0,0.0,0.0,0.0,0.0,0.0,0.0,0.0,0.0,0.0,0.0,0.0,0.0,0.0,0.0,0.0,0.0,0.0,0.0,0.0,0.0,0.0,0.0,0.0,0.0,0.0,0.0,0.0,0.0,0.0,0.0,0.0,0.0,0.0,0.0,0.0,0.0,0.0,0.0,0.0,0.0,0.0,0.0,0.0,0.0,0.0,0.0,0.0,0.0,0.0,0.0,0.0,0.0,0.0,0.0,0.0,0.0,0.0,0.0,0.0,0.0,0.0,0.0,0.0,-0.6605616605616605,0.0,0.0,0.0,0.0,0.0,0.0,0.0,0.0,0.0,0.0,0.0,0.0,0.0,0.0,0.0,0.0,0.0,0.0,0.0,0.0,0.0,0.0,0.0,0.0,0.0,0.0,0.0,0.0,0.0,0.0,0.0,0.0,0.0,0.0,0.0,0.0,0.0,0.0,0.0,0.0,0.0,0.0,0.0,0.0,0.0,0.0,0.0,0.0,0.0,0.0,0.0,0.0,0.0,0.0,0.0,0.0,0.0,0.0,0.0,0.0,0.0,0.0,0.0,0.0,0.0,0.0,0.0,0.0,0.0,0.0,0.0,0.0,0.0,0.0,0.0,0.0,0.0,0.0,0.0,0.0,0.0,0.0,0.0,0.0,0.0,0.0,0.0,0.0,0.0,0.0,0.0,0.0,0.0,0.0,0.0,0.0,0.0,0.0,0.0,0.0,0.0,0.0,0.0,0.0,0.0,0.0,0.0,0.0,0.0,0.0,0.0,0.0,0.0,0.0,0.0,0.0,0.0,0.0,0.0,0.0,0.0,0.0,0.0,land
16,0.0,0.6984126984126984,2.0305250305250304,0.65625,0.0,0.0,-0.9523809523809524,0.0,2.1257631257631258,0.0,0.0,0.0,-1.6398046398046398,0.8205128205128205,2.474969474969475,0.625,0.65625,0.0,-0.778998778998779,0.5323565323565324,3.0122100122100117,0.65625,0.875,0.0,1.2673992673992671,0.0,3.9059829059829054,0.53125,0.0,0.0,0.7167277167277167,0.7142857142857143,4.562881562881564,0.0,0.0,0.0,-1.4737484737484738,0.0,4.334554334554333,0.0,0.0,0.0,-1.7387057387057387,0.0,4.31013431013431,0.0,0.0,0.0,-0.8693528693528694,0.0,4.953601953601954,0.0,0.0,0.0,-1.2417582417582418,0.0,5.768009768009768,0.0,-0.875,0.0,-4.252747252747253,0.8986568986568987,5.135531135531137,0.59375,-1.1875,0.0,-3.664224664224663,0.6971916971916972,2.4688644688644694,1.375,-1.0,0.0,-2.05982905982906,-0.7106227106227107,-1.6483516483516485,2.1875,-0.53125,1.0625,0.0,-3.57997557997558,-3.9963369963369972,2.46875,0.0,1.46875,0.0,-2.7704517704517704,-2.9816849816849818,1.84375,0.0,1.25,-0.6166056166056166,-1.2551892551892552,-1.1831501831501832,1.53125,0.0,1.0625,-1.2161172161172158,-0.9719169719169721,-0.5225885225885226,1.625,0.0,1.15625,-2.6153846153846154,-1.1843711843711844,-0.9499389499389499,1.75,-0.71875,1.40625,-0.9072039072039072,-2.9633699633699635,-2.0378510378510377,1.71875,-0.65625,1.65625,1.4737484737484738,-3.3760683760683765,-2.675213675213675,1.125,-1.4375,1.34375,0.8083028083028083,-2.7533577533577533,-3.4481074481074483,0.84375,-2.03125,0.84375,0.0,-2.335775335775336,-4.073260073260073,1.0,-1.78125,0.75,0.0,-1.7680097680097682,-4.278388278388278,1.375,-0.625,1.09375,0.0,-2.1098901098901104,-4.755799755799756,1.46875,0.0,1.5625,1.0732600732600732,-2.183150183150183,-4.627594627594628,1.28125,0.65625,1.75,2.1868131868131866,-2.41025641025641,-3.673992673992674,1.03125,0.875,1.59375,3.1184371184371185,-2.1684981684981683,-2.263736263736264,0.8125,0.59375,1.15625,3.0708180708180715,-1.7130647130647132,-1.0402930402930404,0.59375,0.0,0.5625,2.2735042735042734,-1.0879120879120878,-0.6239316239316239,0.0,-0.625,0.0,1.343101343101343,0.0,-0.9169719169719168,0.0,-1.25,-0.5625,0.0,0.0,-0.9926739926739928,0.0,-1.625,-0.78125,-0.8644688644688645,1.020757020757021,-0.9951159951159952,0.0,-1.4375,-0.6875,-1.4884004884004884,1.1892551892551892,-1.115995115995116,0.0,-0.8125,0.0,-0.7313797313797313,0.7326007326007326,-1.0549450549450552,0.0,0.0,0.0,0.0,-0.5506715506715507,-1.0537240537240538,0.0,0.0,0.0,0.0,0.0,0.0,0.0,0.0,0.0,-0.5628815628815629,0.0,0.0,0.0,0.0,0.0,-0.5091575091575091,0.0,0.0,0.0,0.0,0.0,0.0,0.0,0.0,0.0,0.0,0.0,0.0,0.0,0.0,0.0,0.0,0.0,0.0,0.0,0.0,0.0,0.0,0.0,0.0,0.0,0.0,0.0,0.0,0.0,0.0,0.0,0.0,0.0,0.0,0.0,0.0,0.0,0.0,0.0,0.0,0.0,0.0,0.0,0.0,0.0,0.0,0.0,0.0,0.0,0.0,0.0,0.0,0.0,0.0,0.0,0.0,0.0,0.0,0.0,0.0,0.0,0.0,0.0,0.0,0.0,0.0,0.0,0.0,0.0,0.0,0.0,0.0,0.0,0.0,0.0,0.0,0.0,0.0,0.0,0.0,0.0,0.0,0.0,0.0,0.0,0.0,0.0,0.0,0.0,0.0,0.0,0.0,0.0,0.0,0.0,0.0,0.0,0.0,0.0,0.0,0.0,0.0,0.0,0.0,0.0,0.0,0.0,0.0,0.0,0.0,0.0,0.0,0.0,0.0,0.0,0.0,0.0,0.0,0.0,0.0,0.0,0.0,0.0,0.0,0.0,0.0,0.0,0.0,0.0,0.0,0.0,0.0,0.0,0.0,0.0,0.0,0.0,0.0,0.0,-0.6996336996336996,0.0,0.0,0.0,0.0,0.0,-0.6642246642246642,0.0,0.0,0.0,0.0,0.0,-0.6923076923076923,0.0,0.0,0.0,0.0,0.0,0.0,0.0,0.0,0.0,0.0,0.0,0.0,0.0,0.0,0.0,0.0,0.0,0.0,0.0,0.0,0.0,0.0,0.0,0.0,0.0,0.0,0.0,0.0,0.0,0.0,0.0,0.0,0.0,0.0,0.0,0.0,0.0,0.0,0.0,0.0,0.0,0.0,0.0,0.0,0.0,0.0,0.0,0.0,0.0,0.0,0.0,0.0,0.0,0.0,0.0,0.0,0.0,0.0,0.0,0.0,0.0,0.0,0.0,0.0,0.0,0.0,0.0,0.0,0.0,0.0,0.0,0.0,0.0,0.0,0.0,0.0,0.0,0.0,0.0,0.0,0.0,0.0,0.0,0.0,0.0,0.0,0.0,0.0,0.0,0.0,0.0,0.0,0.0,0.0,0.0,0.0,0.0,0.0,0.0,0.0,0.0,0.0,0.0,0.0,0.0,land
17,-0.7875457875457875,0.5128205128205128,1.7765567765567765,0.0,0.0,0.0,-2.7533577533577533,0.0,1.7362637362637363,0.0,0.0,0.0,-2.293040293040293,0.0,2.664224664224664,0.0,0.5625,0.0,-1.1575091575091576,0.0,4.140415140415141,0.0,0.0,0.0,-1.5103785103785103,0.0,4.721611721611722,0.0,0.0,0.0,-2.8156288156288163,0.0,4.496947496947497,0.0,0.0,0.0,-3.4334554334554332,-0.6837606837606838,3.542124542124542,-0.65625,0.9375,0.0,0.9499389499389499,0.0,3.8766788766788767,-0.9375,0.59375,0.0,0.7167277167277167,0.956043956043956,4.842490842490842,-0.53125,0.0,0.0,-0.6776556776556777,0.7985347985347986,3.2136752136752142,0.0,-0.71875,0.0,0.6800976800976801,-1.1465201465201464,1.2112332112332111,0.6875,-0.625,0.0,2.743589743589744,-0.9658119658119658,0.6019536019536019,0.6875,-0.96875,0.0,1.1636141636141637,-0.5238095238095238,0.0,0.71875,-1.625,-0.9375,-1.8083028083028083,0.0,-0.956043956043956,0.75,-1.84375,-1.0625,-2.15018315018315,0.0,-1.120879120879121,0.90625,-1.625,-0.75,-1.9059829059829057,0.0,-0.9682539682539684,1.03125,-1.625,0.0,-1.2808302808302807,0.0,-1.1623931623931625,1.125,-1.71875,0.0,0.0,-1.017094017094017,-1.9377289377289373,1.4375,-1.59375,0.0,1.565323565323565,-2.554334554334554,-2.7020757020757022,1.59375,-1.625,0.0,1.9316239316239319,-2.035409035409036,-2.91941391941392,1.71875,-1.84375,0.0,0.9133089133089132,-1.7216117216117215,-3.873015873015873,1.84375,-1.78125,0.0,0.6019536019536019,-1.3699633699633702,-5.0134310134310125,1.9375,-1.34375,0.0,2.051282051282051,-1.0537240537240538,-5.976800976800977,1.71875,-1.25,-0.6875,0.5128205128205128,0.0,-6.028083028083028,1.4375,-0.71875,-0.59375,0.0,-0.8693528693528694,-5.8901098901098905,1.0625,0.0,0.0,0.0,-1.0341880341880345,-4.346764346764346,0.0,0.0,0.5625,0.0,0.0,-1.9645909645909645,0.0,0.59375,0.75,1.1245421245421243,-0.5299145299145299,0.0,0.0,0.0,0.0,0.0,0.0,0.5543345543345544,0.0,0.0,0.0,0.0,0.0,0.0,0.0,0.0,0.0,-1.05006105006105,0.8083028083028083,0.0,0.0,0.0,0.0,-0.514041514041514,0.0,-0.8021978021978022,0.0,0.0,0.0,0.0,0.0,-1.5189255189255189,0.0,0.0,0.0,0.9255189255189256,-0.6080586080586079,-1.3748473748473748,0.0,0.0,0.0,0.0,0.0,-0.5873015873015873,0.0,0.0,0.0,-0.5042735042735043,0.0,0.0,0.0,0.0,0.0,-0.5384615384615384,0.525030525030525,0.0,0.0,0.0,0.0,-0.8400488400488401,0.5921855921855922,0.0,0.0,0.0,0.0,0.0,0.0,-0.6190476190476191,0.0,0.0,0.0,0.0,0.0,0.0,0.0,0.0,0.0,0.0,0.0,0.0,0.0,0.0,0.0,0.0,0.0,0.0,0.0,0.0,0.0,0.0,0.0,0.0,0.0,0.0,0.0,0.0,0.0,0.0,0.0,0.0,0.0,0.0,0.0,0.0,0.0,0.0,0.0,0.0,0.0,0.0,0.0,0.0,0.0,0.0,0.0,0.0,0.0,0.0,0.0,0.0,0.0,0.0,0.0,0.0,0.0,0.0,0.0,0.0,0.0,0.0,0.0,0.0,0.0,0.0,0.0,0.0,0.0,0.0,0.0,0.0,0.0,0.0,0.0,0.0,0.0,0.0,0.0,0.0,0.0,0.0,0.0,0.0,0.0,0.0,0.0,0.0,0.0,0.0,0.0,0.0,0.0,0.0,0.0,0.0,0.0,0.0,0.0,0.0,0.0,0.0,0.0,0.0,0.0,0.0,0.0,0.0,0.0,0.0,0.0,0.0,0.0,0.0,0.0,0.0,0.0,0.0,0.0,0.0,0.0,0.0,0.0,0.0,0.0,0.0,0.0,0.0,0.0,0.0,0.0,0.0,0.0,0.0,0.0,0.0,0.0,0.0,0.0,0.0,0.0,0.0,0.0,0.0,0.0,0.0,0.0,0.0,0.0,0.0,0.0,0.0,0.0,0.0,0.0,0.0,0.0,0.0,0.0,0.0,0.0,0.0,0.0,0.0,0.0,0.0,0.0,0.0,0.0,0.0,0.0,0.0,0.0,0.0,0.0,0.0,0.0,0.0,0.0,0.0,0.0,0.0,0.0,0.0,0.0,0.0,0.0,0.0,0.0,0.0,0.0,0.0,0.0,0.0,0.0,0.0,0.0,0.0,0.0,0.0,0.0,0.0,0.0,0.0,0.0,0.0,0.0,0.0,0.0,0.0,0.0,0.0,0.0,0.0,0.0,0.0,0.0,0.0,0.0,0.0,0.0,0.0,0.0,0.0,0.0,0.0,0.0,0.0,0.0,0.0,0.0,0.0,0.0,0.0,0.0,0.0,0.0,0.0,0.0,0.0,0.0,0.0,0.0,0.0,0.0,0.0,0.0,0.0,0.0,land
18,0.0,0.0,1.3150183150183148,0.0,0.0,0.0,-0.8083028083028083,0.0,1.4481074481074483,0.0,0.0,0.0,-1.4126984126984128,0.0,2.5824175824175826,0.0,0.0,0.0,-1.7277167277167278,0.0,4.452991452991453,0.0,0.0,0.0,-1.387057387057387,0.8632478632478633,5.898656898656899,0.0,0.0,0.0,-1.1965811965811963,0.9853479853479854,6.37973137973138,0.0,0.0,0.0,-1.2893772893772897,0.5763125763125763,5.968253968253968,0.53125,0.0,0.0,-1.6813186813186811,0.6202686202686203,5.231990231990231,0.84375,0.0,0.0,-0.6336996336996337,0.0,4.294261294261294,1.25,0.0,0.0,0.6153846153846154,-0.6153846153846154,2.9536019536019538,1.59375,0.0,0.0,0.6776556776556777,-0.8315018315018315,1.3418803418803418,1.6875,-0.625,0.0,1.1623931623931625,-1.6153846153846154,0.0,1.46875,-1.15625,0.0,0.5006105006105006,-1.7155067155067154,0.0,1.21875,-1.65625,-0.78125,0.0,-1.956043956043956,0.0,0.96875,-2.3125,-1.25,-1.4542124542124542,-1.1367521367521367,-1.1086691086691087,1.15625,-2.34375,-1.375,-2.5360195360195363,-1.0097680097680095,-2.7997557997557996,1.4375,-1.78125,-0.96875,-2.092796092796093,-1.2735042735042734,-3.824175824175824,1.53125,-1.28125,-0.53125,-0.9755799755799756,-1.7155067155067154,-4.087912087912088,1.46875,-1.21875,0.0,0.0,-1.8424908424908424,-4.095238095238095,1.34375,-1.34375,0.0,0.0,-1.8510378510378511,-4.2002442002442,1.28125,-1.1875,0.0,0.0,-1.794871794871795,-3.778998778998779,1.25,-0.75,0.0,0.0,-0.9377289377289376,-3.4249084249084247,1.40625,0.0,0.0,0.0,-1.6678876678876684,-4.0085470085470085,1.21875,0.0,0.0,0.6862026862026862,-1.2735042735042734,-2.3455433455433456,0.625,0.0,0.0,0.0,0.0,-1.083028083028083,0.5625,0.0,0.0,-0.7704517704517705,0.0,-0.8754578754578755,0.71875,0.0,0.0,0.0,0.0,-1.3504273504273503,0.78125,0.0,0.0,0.0,0.0,-1.5885225885225884,0.5625,0.0,0.0,0.0,0.0,-1.0927960927960931,0.0,0.0,0.0,0.0,0.9987789987789988,0.0,0.0,0.0,0.0,0.0,0.9743589743589745,0.0,0.0,0.0,0.0,-0.5311355311355311,0.6617826617826618,-0.5311355311355311,0.0,0.0,0.0,0.0,0.0,-0.8461538461538461,0.0,0.0,0.0,0.6813186813186813,0.0,-0.7008547008547008,0.0,0.0,0.0,0.706959706959707,0.0,0.0,0.0,0.0,0.0,0.0,0.0,0.0,0.0,0.0,0.0,0.0,0.0,0.0,0.0,0.0,0.0,0.0,0.0,0.0,0.0,0.0,0.0,0.0,0.0,0.0,0.0,0.0,0.0,0.5384615384615384,0.0,0.0,0.0,0.0,0.0,0.0,0.0,0.0,0.0,0.0,0.0,0.0,0.0,0.0,0.0,0.0,0.0,0.0,0.0,0.0,0.0,0.0,0.0,0.0,0.0,0.0,0.0,0.0,0.0,0.0,0.0,0.0,0.0,0.0,0.0,0.0,0.0,0.0,0.0,0.0,0.0,0.0,0.0,0.0,0.0,0.0,0.0,0.0,0.0,0.0,0.0,0.0,0.0,0.0,0.0,0.0,0.0,0.0,0.0,0.0,0.0,0.0,0.0,0.0,0.0,0.0,0.0,0.0,0.0,0.0,0.0,0.0,0.0,0.0,0.0,0.0,0.0,0.0,0.0,0.0,0.0,0.0,0.0,0.0,0.0,0.0,0.0,0.0,0.0,0.0,0.0,0.0,0.0,0.0,0.0,0.0,0.0,0.0,0.0,0.0,0.0,0.0,0.0,0.0,0.0,0.0,0.0,0.0,0.0,0.0,0.0,0.0,0.0,0.0,0.0,0.0,0.0,0.0,0.0,0.0,0.0,0.0,0.0,0.0,0.0,0.0,0.0,0.0,0.0,0.0,0.0,0.0,0.0,0.0,0.0,0.0,0.0,0.0,0.0,0.0,0.0,0.0,0.0,0.0,0.0,0.0,0.0,0.0,0.0,0.0,0.0,0.0,0.0,0.0,0.0,0.0,0.0,-0.8595848595848596,0.0,0.0,0.0,-0.5665445665445665,0.0,-1.4432234432234432,0.0,0.0,0.0,0.0,0.0,0.0,0.0,0.0,0.0,0.0,0.0,0.0,0.0,0.0,0.0,0.0,0.0,0.0,0.0,0.0,0.0,0.0,0.0,0.0,0.0,0.0,0.0,0.0,0.0,0.0,0.0,0.0,0.0,0.0,0.0,0.0,0.0,0.0,0.0,0.0,0.0,0.0,0.0,0.0,0.0,0.0,0.0,0.0,0.0,0.0,0.0,0.0,0.0,0.0,0.0,0.0,0.0,0.0,0.0,0.0,0.0,0.0,0.0,0.0,0.0,0.0,0.0,0.0,0.0,0.0,0.0,0.0,0.0,0.0,0.0,0.0,0.0,0.0,0.0,0.0,0.0,land
19,-0.8717948717948718,-0.5604395604395604,1.7313797313797314,0.0,0.0,0.0,-1.0231990231990231,0.0,2.8766788766788767,0.0,0.0,0.0,-1.2380952380952381,-0.5103785103785103,4.4664224664224665,0.0,0.0,0.0,-1.6398046398046398,0.0,5.63980463980464,0.0,0.0,0.0,-1.8815628815628809,0.0,6.678876678876679,0.0,0.0,0.0,-1.2747252747252746,0.0,6.697191697191697,0.0,-0.625,0.0,-0.7680097680097681,0.0,5.763125763125763,0.0,-0.78125,0.0,0.0,0.0,4.218559218559219,0.8125,-0.84375,0.0,0.0,0.0,2.669108669108669,1.25,-0.78125,0.0,0.0,-1.0854700854700854,0.8620268620268621,1.34375,-0.6875,0.0,0.8290598290598291,-1.3565323565323566,0.0,1.28125,-0.75,-0.5625,1.2234432234432235,-1.6300366300366298,0.0,1.15625,-1.15625,-0.84375,-0.9340659340659341,-1.0561660561660562,0.0,1.25,-1.28125,-0.90625,-2.483516483516484,-0.5958485958485958,0.0,1.65625,-1.0,-0.59375,-1.4761904761904765,-2.0476190476190474,-3.126984126984127,1.5,-1.0625,0.0,-1.0818070818070815,-2.446886446886446,-3.8986568986568986,1.25,-0.96875,0.0,1.2210012210012209,-2.7533577533577533,-4.409035409035409,1.125,-1.5625,0.0,-1.137973137973138,-2.636141636141636,-5.503052503052503,1.0625,-2.0,-0.5625,-2.147741147741148,-1.398046398046398,-5.7655677655677655,1.1875,-1.15625,0.0,-1.0390720390720392,-0.5824175824175825,-5.882783882783882,1.34375,0.0,0.75,0.5445665445665445,-0.9157509157509156,-5.6129426129426125,1.40625,0.0,1.53125,2.2576312576312576,-1.9963369963369964,-4.648351648351649,1.09375,0.6875,1.59375,1.6703296703296704,-1.0695970695970696,-2.11965811965812,0.6875,0.59375,1.21875,1.0402930402930404,0.0,-0.7106227106227107,0.6875,0.0,0.9375,0.6251526251526252,0.0,0.0,0.8125,0.0,0.71875,0.0,0.0,-0.9304029304029304,0.78125,0.0,0.53125,0.0,0.0,-1.7594627594627594,0.0,0.0,0.0,0.0,0.7423687423687424,-1.4371184371184371,0.0,0.0,0.0,-0.5763125763125763,1.0012210012210012,-0.8534798534798534,0.0,0.0,0.0,-0.7106227106227107,1.0293040293040292,0.0,0.0,0.0,0.0,0.0,0.6862026862026862,-0.6043956043956044,0.0,0.0,0.0,0.0,0.0,-0.9218559218559218,0.0,0.0,0.0,0.0,0.0,-0.6202686202686203,0.0,0.0,0.0,0.0,0.0,0.0,0.0,0.0,0.0,0.0,0.0,0.0,0.0,0.0,0.0,0.0,0.0,0.0,0.0,0.0,0.0,0.0,0.0,0.0,0.0,0.0,0.0,0.0,0.0,0.0,0.0,0.0,0.0,0.0,0.0,0.0,0.0,0.0,0.0,0.0,0.0,0.0,0.0,0.0,0.0,0.0,0.0,0.0,0.0,0.0,0.0,0.0,0.0,0.0,0.0,0.0,0.0,0.0,0.0,0.0,0.0,0.0,0.0,0.0,0.0,0.0,0.0,0.0,0.0,0.0,0.0,0.0,0.0,0.0,0.0,0.0,0.0,-0.5982905982905983,0.0,0.0,0.0,0.0,0.0,-0.9352869352869352,0.0,0.0,0.0,0.0,0.0,-0.5225885225885226,0.0,0.0,0.0,0.0,0.5128205128205128,0.0,0.0,0.0,0.0,0.0,0.0,0.0,0.0,0.0,0.0,0.0,0.0,0.6483516483516484,0.0,0.0,0.0,0.0,0.0,0.0,0.0,0.0,0.0,0.0,0.0,0.0,0.0,0.0,0.0,0.0,0.0,0.0,0.0,0.0,0.0,0.0,0.0,0.0,0.0,0.0,0.0,0.0,0.0,0.0,0.0,0.0,0.0,0.0,0.0,0.0,0.0,0.0,0.0,0.0,0.0,0.0,0.0,0.0,0.0,0.5909645909645911,0.0,0.0,0.0,0.0,0.0,0.0,0.0,0.0,0.0,0.0,0.0,0.0,0.0,-0.6422466422466423,0.0,0.0,0.0,0.0,0.0,-1.7936507936507935,0.0,0.0,0.0,-0.7460317460317459,0.0,-2.1526251526251525,0.0,0.0,0.0,-0.8021978021978022,0.0,-2.092796092796093,0.0,0.625,0.0,0.0,0.0,0.0,0.0,0.0,0.0,0.0,0.0,0.0,0.0,0.0,0.0,0.0,0.0,0.0,0.0,0.0,0.0,0.0,0.0,0.0,0.0,0.0,0.0,0.0,0.0,0.0,0.0,0.0,0.0,0.0,0.0,0.0,0.0,0.0,0.0,0.0,0.0,0.0,0.0,0.0,0.0,0.0,0.0,0.0,0.0,0.0,0.0,0.0,0.0,0.0,0.0,0.0,0.0,0.0,0.0,0.0,0.0,0.0,0.0,0.0,0.0,0.0,0.0,0.0,0.0,0.0,0.0,0.0,0.0,0.0,0.0,0.0,0.0,0.0,0.0,0.0,0.0,0.0,0.0,0.0,0.0,0.0,0.0,0.0,0.0,0.0,0.0,0.0,0.0,0.0,0.0,0.0,0.0,0.0,0.0,land
20,-0.5628815628815629,0.0,0.956043956043956,0.0,0.0,0.0,-0.5164835164835165,0.0,0.8522588522588522,0.0,0.0,0.0,0.0,0.0,1.3956043956043955,0.0,0.0,0.0,-0.9291819291819292,0.0,2.407814407814408,0.0,0.0,0.0,-1.4786324786324787,0.0,3.7655677655677655,0.0,0.0,0.0,-1.5665445665445663,0.0,4.704517704517705,0.0,0.0,0.0,-1.52014652014652,0.0,5.308913308913309,0.0,0.0,0.0,-1.4896214896214897,0.0,5.410256410256411,0.0,0.0,0.0,-1.0964590964590966,0.0,5.231990231990231,0.0,0.0,0.0,-0.6349206349206349,0.0,5.0134310134310125,0.0,0.0,0.0,0.0,0.0,4.35042735042735,0.625,0.0,0.0,0.0,0.0,3.628815628815629,0.875,-0.84375,0.0,0.0,0.0,2.0891330891330893,1.3125,-1.09375,0.0,0.0,-1.733821733821734,-1.166056166056166,1.3125,-0.875,0.0,-1.4236874236874235,-1.0451770451770452,-0.7460317460317459,1.21875,-0.8125,0.0,-1.326007326007326,-0.9853479853479854,-0.6105006105006106,1.40625,0.0,0.0,0.0,-2.2112332112332123,-1.1684981684981686,1.625,0.0,0.625,1.1587301587301588,-3.5738705738705736,-2.3797313797313797,1.375,-1.15625,0.0,-0.9047619047619048,-2.4603174603174605,-2.752136752136752,1.0,-1.6875,0.0,-1.8583638583638584,-1.2991452991452992,-3.061050061050061,1.125,-1.46875,0.0,0.0,-2.244200244200244,-4.682539682539684,1.34375,-1.1875,0.0,0.5555555555555556,-2.7081807081807083,-6.540903540903541,0.96875,-1.75,0.0,-2.9059829059829063,-1.4908424908424909,-7.296703296703296,0.0,-1.6875,0.0,-1.413919413919414,-0.7216117216117216,-5.831501831501831,0.0,0.0,0.65625,1.6813186813186811,-2.217338217338217,-4.474969474969475,0.65625,0.0,0.9375,2.3382173382173383,-2.7606837606837606,-3.8009768009768017,0.0,0.0,0.0,1.2796092796092795,-1.8827838827838828,-2.8876678876678885,0.0,0.0,0.0,0.0,-0.6129426129426129,-1.3626373626373631,0.0,0.0,0.0,-0.7374847374847375,0.5885225885225885,0.0,0.0,0.0,0.0,0.0,0.0,0.5665445665445665,0.0,0.0,0.0,0.0,0.0,0.0,0.0,0.0,0.0,0.0,0.0,0.0,0.0,0.0,0.0,0.0,0.0,0.5775335775335775,0.0,0.0,0.0,0.0,0.0,0.0,0.0,0.0,0.0,0.0,0.0,0.0,0.0,0.0,0.0,-0.7350427350427351,0.0,0.0,0.0,0.0,0.0,0.0,0.0,0.0,0.0,0.0,0.0,0.0,0.0,0.0,0.0,0.0,0.0,0.0,0.0,-1.1697191697191698,0.0,0.0,0.0,0.0,0.0,-0.9108669108669109,0.0,0.0,0.0,0.0,0.6031746031746031,-0.7264957264957265,0.0,0.0,0.0,0.0,0.0,0.0,0.0,0.0,0.0,0.0,0.0,0.0,0.0,0.0,0.0,0.0,0.0,0.0,0.0,0.0,0.0,0.0,0.0,0.0,0.0,0.0,0.0,0.0,0.0,0.0,0.0,0.0,0.0,0.0,0.0,0.0,0.0,0.0,0.0,0.0,0.0,0.0,0.0,0.0,0.0,0.0,0.0,0.0,0.0,0.0,0.0,0.0,0.0,0.0,0.0,0.0,0.0,0.0,0.0,0.0,0.0,0.0,0.0,0.0,0.0,0.0,0.0,0.0,0.0,0.0,0.0,0.0,0.0,0.0,0.0,0.0,0.0,0.5616605616605617,0.0,0.0,0.0,0.0,0.0,0.0,0.0,0.0,0.0,0.0,0.0,-0.5506715506715507,0.0,0.0,0.0,0.0,0.0,0.0,0.0,0.0,0.0,0.0,0.0,0.0,0.0,0.0,0.0,0.0,0.0,0.0,0.0,0.0,0.0,0.0,0.0,-1.061050061050061,0.0,0.0,0.0,0.0,0.0,-0.8095238095238095,0.0,0.0,0.0,0.0,0.0,-0.8315018315018315,0.0,0.0,0.0,0.0,-0.5128205128205128,-0.9658119658119658,0.0,0.0,0.0,0.0,0.0,0.0,0.0,0.0,0.0,0.0,0.0,0.0,0.0,0.0,0.0,0.0,0.0,0.0,0.0,0.0,0.0,0.0,0.0,0.0,0.0,0.0,0.0,0.0,0.0,0.0,0.0,0.0,0.0,0.0,0.0,0.0,0.0,0.0,0.0,0.0,0.0,0.0,0.0,0.0,0.0,0.0,0.0,0.0,0.0,0.0,0.0,0.0,0.0,0.0,0.0,0.0,0.0,0.0,0.0,0.0,0.0,0.0,0.0,0.0,0.0,0.0,0.0,0.0,0.0,0.0,0.0,0.0,0.0,0.0,0.0,0.0,0.0,0.0,0.0,0.0,0.0,0.0,0.0,0.0,0.0,0.0,0.0,0.0,0.0,0.0,0.0,0.0,0.0,0.0,0.0,0.0,0.0,0.0,0.0,0.0,0.0,0.0,0.0,0.0,0.0,land
21,-0.6239316239316239,0.0,1.7912087912087913,0.0,0.0,0.0,-0.8656898656898657,0.0,3.43956043956044,0.0,0.0,0.0,-1.5934065934065933,0.8070818070818071,4.377289377289378,0.0,0.0,0.0,-1.8937728937728937,0.0,4.880341880341881,0.0,0.0,0.0,-1.6837606837606838,0.0,4.615384615384615,0.0,0.0,0.0,-1.877899877899878,0.0,4.048840048840049,0.0,0.0,0.0,-1.5262515262515262,0.0,3.929181929181929,0.75,0.0,0.5625,-0.8363858363858364,0.0,3.227106227106227,1.03125,0.0,0.6875,0.0,-1.1391941391941391,1.6715506715506716,1.0,0.0,0.71875,0.0,-1.4908424908424909,0.0,0.875,0.0,0.59375,0.5934065934065934,-1.3223443223443223,0.0,0.75,0.0,0.0,0.0,0.0,0.0,0.96875,-0.53125,0.0,0.0,-1.0354090354090355,-1.1831501831501832,1.28125,0.0,0.59375,2.131868131868132,-2.2649572649572653,-1.431013431013431,1.03125,0.0,0.53125,0.6153846153846154,-1.3089133089133091,0.0,0.59375,-1.09375,0.0,-1.728937728937729,0.0,0.6703296703296703,0.59375,-1.1875,0.0,-2.413919413919414,0.0,0.7960927960927959,0.84375,-0.9375,0.0,0.0,-0.7130647130647131,0.0,1.15625,-0.78125,0.0,0.6275946275946276,-1.3724053724053724,-1.9316239316239319,1.1875,-1.3125,0.0,-0.7252747252747253,-1.155067155067155,-2.606837606837607,0.96875,-1.5,0.0,-1.3174603174603174,0.0,-2.26007326007326,1.0,-1.09375,0.0,0.0,0.0,-2.351648351648352,1.3125,-0.5625,0.53125,2.2783882783882783,-1.5103785103785103,-3.1245421245421245,1.15625,-1.0625,0.0,1.750915750915751,-1.5152625152625152,-3.705738705738706,0.75,-1.53125,0.0,0.0,-0.7484737484737485,-3.9536019536019538,0.6875,-1.0625,0.0,0.0,0.0,-3.6556776556776565,0.8125,0.0,0.0,0.0,0.0,-3.5470085470085464,0.8125,0.0,0.6875,0.0,-0.6923076923076923,-2.9975579975579976,0.6875,0.0,0.90625,0.5787545787545788,-0.8253968253968254,-1.9206349206349207,0.0,0.0,0.78125,0.0,0.0,-0.8205128205128205,0.0,0.0,0.0,0.0,0.0,0.0,0.0,0.0,0.0,0.0,0.0,0.0,0.0,0.0,0.0,0.0,0.0,0.0,0.0,-0.59375,0.0,0.0,0.0,-0.9267399267399268,0.0,0.0,0.0,0.0,0.0,-0.5433455433455433,0.0,0.0,0.0,0.0,0.0,0.0,0.0,0.0,0.0,0.0,0.0,0.0,0.0,0.0,0.0,0.6166056166056166,0.0,0.0,0.0,0.0,0.0,0.0,0.0,0.0,0.0,0.0,0.0,0.0,0.0,0.0,0.0,0.0,0.0,0.0,0.0,0.0,0.0,0.0,0.0,0.0,0.0,0.0,0.0,0.0,0.0,0.0,0.0,0.0,0.0,0.0,0.0,0.0,0.0,0.0,0.0,0.0,0.0,0.0,0.0,0.0,0.0,0.0,0.0,0.0,0.0,0.0,0.0,0.0,0.0,0.0,0.0,0.0,0.0,0.0,0.0,0.0,0.0,0.0,0.0,0.0,0.0,0.0,0.0,0.0,0.0,0.0,0.0,0.0,0.0,0.0,0.0,0.0,0.0,0.0,0.0,0.0,0.0,0.0,0.0,0.0,0.0,0.0,0.0,0.0,0.0,0.0,0.0,0.0,0.0,0.0,0.0,0.0,0.0,0.0,0.0,0.0,0.0,0.0,0.0,0.0,0.0,0.0,0.0,0.0,0.0,0.0,0.0,0.0,0.0,0.0,0.0,0.0,0.0,0.0,0.0,0.0,0.0,0.0,0.0,0.0,0.0,0.0,0.0,-0.6434676434676435,0.0,0.0,0.0,0.0,0.0,-0.6459096459096461,0.0,0.0,0.0,0.0,0.0,-0.568986568986569,0.0,0.0,0.0,0.0,0.0,-0.568986568986569,0.0,0.0,0.0,0.0,0.0,-0.6227106227106227,0.0,0.0,0.0,0.0,0.0,-1.0305250305250304,0.0,0.5625,0.0,0.0,0.0,0.0,0.0,0.0,0.0,0.0,0.0,0.0,0.0,0.0,0.0,0.0,0.0,0.0,0.0,0.0,0.0,0.0,0.0,0.0,0.0,0.0,0.0,0.0,0.0,0.0,0.0,0.0,0.0,0.0,0.0,0.0,0.0,0.0,0.0,0.0,0.0,0.0,0.0,0.0,0.0,0.0,0.0,0.0,0.0,0.0,0.0,0.0,0.0,0.0,0.0,0.0,0.0,0.0,0.0,0.0,0.0,0.0,0.0,0.0,0.0,0.0,0.0,0.0,0.0,0.0,0.0,0.0,0.0,0.0,0.0,0.0,0.0,0.0,0.0,0.0,0.0,0.0,0.0,0.0,0.0,0.0,0.0,0.0,0.0,0.0,0.0,0.0,0.0,0.0,0.0,0.0,0.0,0.0,0.0,land
22,0.0,0.0,1.0854700854700854,0.0,0.0,0.0,0.0,-1.1782661782661783,1.1807081807081807,0.0,0.0,0.0,-0.6593406593406593,-0.8034188034188035,1.9841269841269842,-0.59375,0.0,0.0,-1.5067155067155067,0.0,3.126984126984127,-0.625,0.0,0.0,-1.343101343101343,0.0,4.7936507936507935,0.0,0.0,0.0,-1.5042735042735045,0.0,5.2356532356532375,0.0,0.0,0.0,-1.875457875457876,-0.7228327228327228,4.528693528693529,0.0,0.0,0.0,-1.352869352869353,-0.5433455433455433,3.7594627594627594,0.0,0.0,0.0,-0.6898656898656899,0.0,3.3321123321123323,0.5625,0.0,0.0,0.0,0.0,2.505494505494505,0.78125,0.0,0.0,0.0,-1.5054945054945057,1.9218559218559217,0.59375,0.0,0.0,0.0,-0.6849816849816851,2.083028083028083,0.65625,-0.6875,0.0,-1.2332112332112333,0.0,1.8852258852258847,0.90625,-0.84375,0.0,0.0,0.0,0.8754578754578755,1.1875,-1.0,0.0,-1.5372405372405369,0.0,-0.9267399267399268,1.5625,-1.0625,0.0,-1.3882783882783882,0.0,-2.311355311355311,1.875,0.0,0.0,2.32967032967033,-1.8095238095238089,-2.4224664224664223,1.875,0.0,0.6875,2.68986568986569,-2.0915750915750917,-1.9938949938949944,1.40625,-1.125,0.0,0.0,-0.9401709401709402,-1.352869352869353,1.0,-1.78125,-0.6875,-1.0818070818070815,0.0,-1.1404151404151404,1.1875,-1.78125,-0.6875,-0.9633699633699634,0.0,-2.1465201465201464,1.71875,-1.5,0.0,1.3968253968253967,-1.3247863247863247,-4.061050061050061,1.875,-1.5625,0.0,1.122100122100122,-1.8608058608058609,-5.582417582417582,1.3125,-2.15625,0.0,-1.0940170940170941,-0.5653235653235653,-5.479853479853481,0.75,-1.625,0.0,-0.5738705738705738,0.0,-4.6923076923076925,0.78125,-0.84375,0.0,0.0,0.0,-3.6593406593406583,0.8125,0.0,0.0,-0.6166056166056166,-0.7203907203907204,-2.4481074481074483,0.6875,0.0,0.0,0.0,-1.0695970695970696,-0.9450549450549448,0.0,0.0,0.0,0.0,0.0,0.0,0.53125,0.0,0.0,-0.6654456654456654,0.0,0.0,0.59375,0.0,0.0,0.0,0.0,-1.2857142857142858,0.0,0.0,0.0,0.0,-0.7777777777777778,-1.623931623931624,0.0,0.0,0.0,0.7472527472527473,0.0,-1.21001221001221,0.0,0.0,0.0,0.0,0.0,-0.6568986568986569,0.0,0.0,0.0,0.0,0.0,0.0,0.0,0.0,0.0,-0.6007326007326007,0.6227106227106227,0.0,0.0,0.0,0.0,0.0,0.0,0.0,0.0,0.0,0.0,0.9218559218559218,0.0,0.0,0.0,0.0,0.0,0.0,0.0,0.0,0.0,0.0,0.0,0.0,0.0,0.0,0.0,0.0,0.0,0.0,0.0,0.0,0.0,0.0,0.0,0.0,0.0,0.0,0.0,0.0,0.0,0.0,0.0,0.0,0.0,0.0,0.0,0.5054945054945055,0.0,0.0,0.0,0.0,0.0,0.0,0.0,0.0,0.0,0.0,0.0,0.0,0.0,0.0,0.0,0.0,0.0,0.0,0.0,0.0,0.0,0.0,0.0,0.0,0.0,0.0,0.0,0.0,0.0,0.0,0.0,0.0,0.0,0.0,0.0,0.0,0.0,0.0,0.0,0.0,0.0,0.0,0.0,0.0,0.0,0.0,0.0,0.0,0.0,0.0,0.0,0.0,0.0,0.0,0.0,0.0,0.0,0.0,0.0,0.0,0.0,0.0,0.0,0.0,0.0,0.0,0.0,0.0,0.0,0.0,0.0,0.0,0.0,0.0,0.0,0.0,0.0,0.0,0.0,0.0,0.0,0.0,0.0,0.0,0.0,0.0,0.0,0.0,0.0,0.0,0.0,-0.518925518925519,0.0,0.0,0.0,0.0,0.0,-0.7142857142857143,0.0,0.0,0.0,0.0,0.0,-0.7155067155067155,0.0,0.0,0.0,0.0,0.0,-1.1733821733821734,0.0,0.0,0.0,0.0,0.0,0.0,0.0,0.0,0.0,0.0,0.0,0.0,0.0,0.0,0.0,0.0,0.0,0.0,0.0,0.0,0.0,0.0,0.0,0.0,0.0,0.0,0.0,0.0,0.0,0.0,0.0,0.0,0.0,0.0,0.0,0.0,0.0,0.0,0.0,0.0,0.0,0.0,0.0,0.0,0.0,0.0,0.0,0.0,0.0,0.0,0.0,0.0,0.0,0.0,0.0,0.0,0.0,0.0,0.0,0.0,0.0,0.0,0.0,0.0,0.0,0.0,0.0,0.0,0.0,0.0,0.0,0.0,0.0,0.0,0.0,0.0,0.0,0.0,0.0,0.0,0.0,0.0,0.0,0.0,0.0,0.0,0.0,0.0,0.0,0.0,0.0,0.0,0.0,0.0,0.0,0.0,0.0,0.0,0.0,0.0,0.0,0.0,0.0,0.0,0.0,0.0,0.0,0.0,0.0,0.0,0.0,land
23,-0.663003663003663,0.0,1.413919413919414,0.0,0.0,0.0,-0.9719169719169721,-0.9401709401709402,0.9108669108669109,0.0,0.0,0.0,-0.9035409035409036,-1.3357753357753357,1.3687423687423688,0.0,0.6875,0.0,-0.5006105006105006,-1.586080586080586,2.578754578754579,-1.0,0.65625,0.0,-1.6031746031746033,0.0,4.472527472527473,-1.15625,0.0,0.0,-2.2026862026862037,0.8547008547008547,6.206349206349207,-0.625,0.0,0.0,-2.131868131868132,0.0,6.222222222222222,0.0,0.0,0.0,-1.166056166056166,-1.3247863247863247,4.86080586080586,0.0,0.0,0.0,-0.7411477411477412,-1.037851037851038,4.35042735042735,0.0,0.0,0.0,-1.0085470085470083,-0.9072039072039072,2.6117216117216118,0.90625,-0.59375,0.0,0.0,-1.424908424908425,1.2258852258852255,1.28125,-0.6875,0.0,0.0,-1.4334554334554337,0.0,1.4375,-0.84375,0.0,0.0,-1.15995115995116,-1.5555555555555556,1.4375,-1.03125,0.0,-1.0793650793650793,0.0,-1.8412698412698407,1.5,-0.9375,0.0,-0.518925518925519,-0.8034188034188035,-1.586080586080586,1.625,-0.78125,0.0,0.0,-0.9474969474969476,-1.4236874236874235,1.59375,-1.03125,0.0,-1.0525030525030523,-0.6288156288156288,-1.6202686202686205,1.5625,-1.28125,0.0,-0.9181929181929182,-0.9352869352869352,-2.2979242979242978,1.71875,-1.0625,0.0,1.912087912087912,-1.746031746031746,-2.7448107448107453,1.625,-1.125,0.0,1.3833943833943834,-1.4835164835164836,-3.236874236874237,1.375,-1.8125,0.0,0.0,-0.7081807081807082,-3.9328449328449326,1.15625,-1.78125,0.0,-1.1465201465201464,0.0,-4.056166056166056,1.21875,-1.21875,0.0,-1.4505494505494505,0.0,-4.180708180708181,1.34375,0.0,0.6875,1.3516483516483515,-0.7350427350427351,-4.835164835164835,1.0625,0.0,1.0,3.4236874236874235,-1.5091575091575091,-4.833943833943834,0.0,-0.78125,0.0,1.4774114774114775,-0.9951159951159952,-4.136752136752137,0.0,-0.625,0.0,0.0,0.0,-2.4615384615384617,0.0,0.0,0.0,0.0,0.0,-1.5091575091575091,0.0,0.0,0.0,-0.8424908424908425,0.6031746031746031,-1.2954822954822955,0.0,0.0,0.0,-1.5531135531135531,0.9572649572649572,-1.1477411477411477,0.0,0.0,0.0,-0.6019536019536019,0.8669108669108669,0.0,0.0,0.0,0.0,0.0,0.6398046398046398,0.5897435897435898,0.0,0.0,0.0,0.0,0.0,0.0,0.0,0.0,0.0,0.0,0.0,-0.5372405372405372,0.0,0.0,0.0,0.0,0.0,0.0,0.0,0.0,0.0,0.0,0.0,0.0,0.0,0.0,0.0,0.0,0.0,0.0,0.0,0.0,0.0,0.0,0.0,0.0,0.0,0.0,0.0,0.0,0.0,0.0,0.0,0.0,0.0,0.0,0.0,-0.7045177045177046,0.0,0.0,0.0,0.0,0.0,0.0,0.0,0.0,0.0,0.0,0.0,0.0,0.0,0.0,0.0,0.0,0.0,0.0,0.0,0.0,0.0,0.0,0.0,0.0,0.0,0.0,0.0,0.0,0.0,0.0,0.0,0.0,0.0,0.0,0.0,0.0,0.0,0.0,0.0,0.0,0.0,0.0,0.0,0.0,0.0,0.0,0.0,0.0,0.0,0.0,0.0,0.0,0.0,0.0,0.0,0.0,0.0,0.0,0.0,0.0,0.0,0.0,0.0,0.0,0.0,0.0,0.0,0.0,0.0,0.0,0.0,0.0,0.0,0.0,0.0,0.0,0.0,0.0,0.0,0.0,0.0,0.0,0.0,0.0,0.0,0.0,0.0,0.0,0.0,0.5555555555555556,0.0,0.0,0.0,0.0,0.0,0.0,0.0,0.0,0.0,0.0,0.0,-0.6410256410256411,0.0,0.0,0.0,0.0,0.0,-0.7289377289377289,0.0,0.0,0.0,0.0,0.0,-0.5726495726495726,0.0,0.0,0.0,0.0,0.0,0.0,0.0,0.0,0.0,0.57997557997558,0.0,-0.5555555555555556,0.0,0.0,0.0,0.0,0.0,-0.989010989010989,0.0,0.0,0.0,0.0,0.0,0.0,0.0,0.0,0.0,0.0,0.0,0.0,0.0,0.0,0.0,0.0,0.0,0.0,0.0,0.0,0.0,0.0,0.0,0.0,0.0,0.0,0.0,0.0,0.0,0.0,0.0,0.0,0.0,0.0,0.0,0.0,0.0,0.0,0.0,0.0,0.0,0.0,0.0,0.0,0.0,0.0,0.0,0.0,0.0,0.0,0.0,0.0,0.0,0.0,0.0,0.0,0.0,0.0,0.0,0.0,0.0,0.0,0.0,0.0,0.0,0.0,0.0,0.0,0.0,0.0,0.0,0.0,0.0,0.0,0.0,0.0,0.0,0.0,0.0,0.0,0.0,0.0,0.0,0.0,0.0,0.0,0.0,0.0,0.0,0.0,0.0,0.0,0.0,0.0,0.0,0.0,0.0,0.0,0.0,0.0,0.0,0.0,0.0,0.0,0.0,0.0,0.0,0.0,0.0,0.0,0.0,land
24,0.0,0.0,1.6764346764346765,0.0,0.0,0.0,-0.6336996336996337,-0.5445665445665445,1.4810744810744811,0.0,0.0,0.0,-1.4188034188034189,-0.7960927960927959,2.043956043956044,0.0,0.0,0.0,0.0,0.0,4.087912087912088,0.0,0.0,0.0,-0.5470085470085471,0.6312576312576312,5.544566544566544,0.0,0.0,0.0,-1.7252747252747254,0.0,5.514041514041513,0.0,0.0,0.0,-1.9926739926739927,0.0,4.542124542124542,0.0,0.0,0.0,-1.0146520146520146,0.0,3.525030525030525,0.0,0.0,0.0,0.0,0.0,2.5445665445665444,0.0,0.0,0.0,0.0,0.0,2.003663003663004,0.65625,0.0,0.0,0.0,-0.5970695970695971,1.5445665445665446,0.78125,0.0,0.0,0.0,-0.7423687423687424,1.0256410256410255,0.625,-0.6875,0.0,-1.4676434676434675,-0.6166056166056166,0.0,0.0,-1.03125,0.0,-1.7704517704517704,0.0,0.0,0.6875,-1.09375,0.0,-0.6459096459096461,0.7448107448107448,-1.6642246642246643,1.1875,-1.1875,0.0,0.0,-0.6251526251526252,-3.184371184371184,1.3125,-1.0625,0.0,0.0,-0.8437118437118437,-3.3736263736263736,1.1875,-0.875,0.0,0.7509157509157509,-0.811965811965812,-2.573870573870574,1.09375,-0.875,0.0,0.0,-0.5274725274725275,-1.8021978021978025,1.21875,-0.875,0.0,0.0,-0.7032967032967034,-1.0976800976800978,1.375,-0.8125,0.0,0.0,-1.2759462759462759,-0.9755799755799756,1.40625,-0.875,0.0,0.0,-1.3162393162393162,-1.2246642246642248,1.4375,-1.0625,0.0,0.0,-1.2576312576312576,-1.7997557997557998,1.4375,-1.21875,0.0,0.0,-0.9938949938949939,-2.675213675213675,1.34375,-1.125,0.0,-0.7582417582417582,-0.5555555555555556,-3.0964590964590966,1.1875,-0.78125,0.0,0.6898656898656899,-0.7838827838827839,-3.467643467643468,0.8125,0.0,0.0,0.8840048840048841,-0.7130647130647131,-3.4615384615384617,0.625,0.0,0.0,0.5152625152625152,0.0,-3.0244200244200243,0.0,0.0,0.0,0.0,-0.5665445665445665,-2.6153846153846154,0.0,0.0,0.0,0.0,0.0,-2.0463980463980462,0.0,0.71875,0.0,0.0,0.0,-1.2503052503052503,0.0,0.8125,0.0,0.0,0.0,0.0,0.0,0.53125,0.0,0.0,0.0,0.0,0.0,0.0,0.0,-0.6617826617826618,0.5482295482295483,0.0,0.0,0.0,0.0,-0.851037851037851,0.6532356532356532,0.0,0.0,0.0,0.0,-0.5702075702075702,0.6227106227106227,0.0,0.0,0.0,0.0,-0.6642246642246642,0.0,0.0,0.0,0.0,0.0,0.0,0.0,0.0,0.0,0.0,0.0,0.0,0.0,0.0,0.0,0.0,0.0,0.0,0.0,0.0,0.0,0.0,0.0,0.0,0.0,0.0,0.0,0.0,0.0,0.0,0.0,0.0,0.0,0.0,0.0,0.0,0.0,0.0,0.0,0.0,0.0,0.0,0.0,0.0,0.0,0.0,0.0,0.0,0.0,0.0,0.0,0.0,0.0,0.0,0.0,0.0,0.0,0.0,0.0,0.0,0.0,0.0,0.0,0.0,0.0,0.0,0.0,0.0,0.0,0.0,0.0,0.0,0.0,0.0,0.0,0.0,0.0,0.0,0.0,0.0,0.0,0.0,0.0,0.0,0.0,0.0,0.0,0.0,0.0,0.0,0.0,0.0,0.0,0.0,0.0,0.0,0.0,0.0,0.0,0.0,0.0,0.0,0.0,0.0,0.0,0.0,0.0,0.0,0.0,0.0,0.0,0.0,0.0,0.0,0.0,0.0,0.0,0.0,0.0,0.0,0.0,0.0,0.0,0.0,0.0,0.0,0.0,0.0,0.0,0.0,0.0,0.0,0.0,0.0,0.0,0.0,0.0,0.0,0.0,0.0,0.0,0.0,0.0,0.0,0.0,0.0,0.0,0.0,0.0,0.0,0.0,0.0,0.0,0.0,0.0,0.0,0.0,0.0,0.0,0.0,0.0,0.0,0.0,0.0,0.0,0.0,0.0,0.0,0.0,0.0,0.0,0.0,0.0,0.0,0.0,0.0,0.0,0.0,0.0,0.0,0.0,0.0,0.0,0.0,0.0,0.0,0.0,0.0,0.0,0.0,0.0,0.0,0.0,0.0,0.0,0.0,0.0,0.0,0.0,0.0,0.0,0.0,0.0,0.0,0.0,0.0,0.0,0.0,0.0,0.0,0.0,0.0,0.0,0.0,0.0,0.0,0.0,0.0,0.0,0.0,0.0,0.0,0.0,0.0,0.0,0.0,0.0,0.0,0.0,0.0,0.0,0.0,0.0,0.0,0.0,0.0,0.0,0.0,0.0,0.0,0.0,0.0,0.0,0.0,0.0,0.0,0.0,0.0,0.0,0.0,0.0,0.0,0.0,0.0,0.0,0.0,0.0,0.0,0.0,0.0,0.0,0.0,0.0,land
25,-1.3614163614163617,0.0,2.029304029304029,0.0,0.0,0.0,-2.758241758241758,-1.2344322344322345,2.1404151404151404,0.0,0.0,0.0,-1.52014652014652,-1.2075702075702075,3.847374847374848,0.0,0.0,0.0,-1.3089133089133091,0.0,5.431013431013431,0.0,0.0,0.0,-2.326007326007326,0.0,5.625152625152626,0.0,0.0,0.0,-2.9401709401709404,0.0,5.072039072039073,0.0,0.0,0.0,-2.051282051282051,-0.5714285714285714,4.065934065934067,0.53125,0.0,0.0,0.0,0.0,3.2185592185592187,0.8125,0.0,0.0,0.6190476190476191,-0.9621489621489622,2.122100122100122,0.96875,0.0,0.0,0.9902319902319904,-1.5177045177045176,1.3418803418803418,0.75,0.0,0.0,0.7887667887667887,-1.155067155067155,1.5445665445665446,0.625,-0.59375,0.0,0.0,0.0,1.3797313797313795,0.875,-0.8125,0.0,0.0,0.0,0.0,1.28125,-0.75,0.0,0.63003663003663,-0.7289377289377289,-1.794871794871795,1.28125,-0.84375,0.0,0.0,-0.7777777777777778,-2.0903540903540905,1.09375,-0.96875,0.0,0.0,0.0,-2.1904761904761907,1.125,-1.0625,0.0,-1.3663003663003663,0.0,-1.8522588522588523,1.40625,-1.1875,0.0,-2.772893772893773,0.0,-2.081807081807081,1.78125,-0.9375,0.0,-1.4566544566544566,-1.2612942612942613,-3.0012210012210017,1.9375,0.0,0.0,1.6434676434676434,-1.5262515262515262,-3.675213675213675,1.71875,0.0,0.0,1.175824175824176,-0.7435897435897436,-3.2283272283272284,1.5625,-0.96875,0.0,1.9438339438339443,-2.242979242979243,-5.091575091575091,1.46875,-1.0,0.0,0.0,0.0,-4.163614163614163,1.125,-0.90625,0.0,1.195360195360195,-0.7533577533577533,-4.2002442002442,1.0625,0.0,0.0,0.0,0.0,-3.6202686202686203,0.84375,0.0,0.0,0.0,-0.6007326007326007,-3.1123321123321124,0.65625,0.0,0.0,0.0,0.0,-1.6752136752136753,0.0,0.0,0.0,0.0,0.0,-0.7619047619047619,0.0,0.0,0.0,0.0,0.0,0.0,0.0,0.0,0.0,0.0,0.0,0.0,0.0,-0.625,0.0,0.0,0.0,0.0,0.0,-0.53125,0.0,0.0,0.0,-0.9072039072039072,0.0,0.0,0.0,0.0,0.0,-1.1343101343101345,0.0,0.0,0.0,0.0,0.0,-0.8058608058608059,0.0,0.0,0.0,0.0,0.0,0.0,0.0,0.0,0.0,0.0,0.0,0.0,0.0,0.0,0.0,0.0,0.0,0.0,0.0,0.0,0.0,0.0,0.0,-0.5409035409035409,0.0,0.0,0.0,0.0,0.0,-0.7045177045177046,0.0,0.0,0.0,0.0,0.0,0.0,0.0,0.0,0.0,0.0,0.0,0.0,0.0,0.0,0.0,0.0,0.0,0.0,0.0,0.0,0.0,0.0,0.0,0.0,0.0,0.0,0.0,0.0,0.0,0.0,0.0,0.0,0.0,0.0,0.0,0.0,0.0,0.0,0.0,0.0,0.0,0.0,0.0,0.0,0.0,0.0,0.0,0.0,0.0,0.0,0.0,0.0,0.0,0.0,0.0,0.0,0.0,0.0,0.0,0.0,0.0,0.0,0.0,0.0,0.0,0.0,0.0,0.0,0.0,0.0,0.0,0.0,0.0,0.0,0.0,0.0,0.0,0.0,0.0,0.0,0.0,0.0,0.0,0.0,0.0,0.0,0.0,0.0,0.0,0.0,0.0,0.0,0.0,0.0,0.0,0.0,0.0,0.0,0.0,0.0,0.0,0.0,0.0,0.0,0.0,0.0,0.0,0.0,0.0,0.0,0.0,0.0,0.0,0.0,0.0,0.0,0.0,0.0,0.0,0.0,0.0,0.0,0.0,0.0,0.0,0.0,0.0,0.0,0.0,0.0,0.0,-0.5982905982905983,0.0,0.0,0.0,0.0,0.0,0.0,0.0,0.0,0.0,0.0,0.0,0.0,0.0,0.0,0.0,0.0,0.0,0.0,0.0,0.0,0.0,0.0,0.0,0.0,0.0,0.0,0.0,0.0,0.0,0.0,0.0,0.0,0.0,0.0,0.0,0.0,0.0,0.0,0.0,0.0,0.0,0.0,0.0,0.0,0.0,0.0,0.0,0.0,0.0,0.0,0.0,0.0,0.0,0.0,0.0,0.0,0.0,0.0,0.0,0.0,0.0,0.0,0.0,0.0,0.0,0.0,0.0,0.0,0.0,0.0,0.0,0.0,0.0,0.0,0.0,0.0,0.0,0.0,0.0,0.0,0.0,0.0,0.0,0.0,0.0,0.0,0.0,0.0,0.0,0.0,0.0,0.0,0.0,0.0,0.0,0.0,0.0,0.0,0.0,0.0,0.0,0.0,0.0,0.0,0.0,0.0,0.0,0.0,0.0,0.0,0.0,0.0,0.0,0.0,0.0,0.0,0.0,land
26,-1.1062271062271063,-0.7423687423687424,1.641025641025641,0.0,0.0,0.0,-1.7130647130647132,-1.3650793650793651,2.031746031746032,0.0,0.0,0.0,-1.6117216117216118,-1.2905982905982911,3.225885225885226,0.0,0.0,0.0,-1.1355311355311355,-0.8363858363858364,4.893772893772893,0.0,0.0,0.0,-1.68009768009768,0.0,5.686202686202687,0.0,0.0,0.0,-2.1147741147741157,0.0,5.990231990231991,0.0,0.0,0.0,-1.938949938949939,0.0,5.2161172161172145,0.6875,0.0,0.0,-0.9926739926739928,0.0,3.942612942612944,0.96875,0.0,0.0,0.0,0.0,2.8339438339438336,1.125,0.0,0.0,0.7411477411477412,0.0,1.8156288156288158,1.1875,-0.59375,0.0,0.0,-0.6739926739926739,0.6752136752136753,1.03125,-0.9375,0.0,0.0,-0.9816849816849816,-1.297924297924298,1.28125,-0.8125,0.0,0.9743589743589745,-1.8083028083028083,-1.4273504273504274,1.28125,-0.71875,0.0,2.868131868131868,-2.9169719169719173,-1.291819291819292,1.125,-1.125,0.0,2.641025641025641,-3.061050061050061,-1.1709401709401708,0.84375,-1.875,-1.15625,0.0,-1.4041514041514038,-1.3052503052503053,0.875,-2.34375,-1.90625,-1.6935286935286935,-1.3565323565323566,-1.9792429792429795,1.28125,-2.0625,-1.875,-1.7484737484737485,-1.1318681318681318,-2.52991452991453,1.59375,-1.5625,-1.3125,0.0,-1.4627594627594631,-3.122100122100122,1.8125,-1.25,-0.875,0.0,-1.4114774114774116,-3.593406593406593,1.8125,-1.3125,-0.90625,0.0,-0.9304029304029304,-3.915750915750916,1.71875,-1.3125,-0.96875,0.0,-0.7533577533577533,-4.42979242979243,1.59375,-1.0,-0.78125,0.8803418803418803,-0.8595848595848596,-4.4371184371184365,1.0625,-0.9375,0.0,0.0,0.0,-4.35042735042735,0.84375,-0.65625,0.0,-0.7179487179487181,0.0,-3.4517704517704515,0.71875,0.0,0.0,-1.2686202686202686,0.0,-1.8339438339438336,0.75,0.0,0.0,-0.9304029304029304,0.0,-1.0622710622710625,0.78125,0.0,0.78125,0.0,0.0,-0.9755799755799756,0.59375,0.0,0.8125,0.0,0.0,-0.5702075702075702,0.0,0.0,0.625,0.0,0.0,0.0,0.0,0.0,0.0,-0.525030525030525,0.5934065934065934,0.0,0.59375,0.0,0.0,-0.5494505494505495,0.0,-1.15995115995116,0.59375,0.0,0.0,0.0,0.0,-1.5531135531135531,0.0,0.0,0.0,0.0,0.0,-1.0305250305250304,0.0,0.0,0.0,0.0,0.5201465201465202,0.0,0.0,0.0,0.0,0.0,0.0,0.0,0.0,0.0,0.0,0.5128205128205128,0.0,-1.0805860805860803,0.0,0.0,0.0,1.1843711843711844,0.0,-0.8498168498168498,0.0,0.0,0.0,0.9938949938949939,0.0,0.0,0.0,0.0,0.0,0.8058608058608059,0.0,0.0,0.0,0.0,0.0,0.0,0.0,0.0,0.0,0.0,0.0,0.0,0.0,0.0,0.0,0.0,0.0,0.0,0.0,0.0,0.0,0.0,0.0,0.5641025641025641,0.0,0.0,0.0,0.0,0.0,0.0,0.0,0.0,0.0,0.0,0.0,0.0,0.0,0.0,0.0,0.0,0.0,0.0,0.0,0.0,0.0,0.0,0.0,0.0,0.0,0.0,0.0,0.0,0.0,-0.5738705738705738,0.0,0.0,0.0,0.0,0.0,0.0,0.0,0.0,0.0,0.0,0.0,0.0,0.0,0.0,0.0,0.0,0.0,0.0,0.0,0.0,0.0,0.0,0.0,0.0,0.0,0.0,0.0,0.0,0.0,0.0,0.0,0.0,0.0,0.0,0.0,0.0,0.0,0.0,0.0,0.0,0.0,0.0,0.0,0.0,0.0,0.0,0.0,0.0,0.0,0.0,0.0,0.0,0.0,0.0,0.0,0.0,0.0,0.0,0.0,0.0,0.0,-0.63003663003663,0.0,0.65625,0.0,0.0,-0.5750915750915749,-1.1892551892551892,0.0,0.78125,0.0,0.0,0.0,-1.4114774114774116,0.0,0.90625,0.0,0.0,0.0,0.0,0.0,0.0,0.0,0.0,0.0,0.0,0.0,0.0,0.0,0.0,0.0,0.0,0.0,0.0,0.0,0.0,0.0,0.0,0.0,0.0,0.0,0.0,0.0,0.0,0.0,0.0,0.0,0.0,0.0,0.0,0.0,0.0,0.0,0.0,0.0,0.0,0.0,0.0,0.0,0.0,0.0,0.0,0.0,0.0,0.0,0.0,0.0,0.0,0.0,0.0,0.0,0.0,0.0,0.0,0.0,0.0,0.0,0.0,0.0,0.0,0.0,0.0,0.0,0.0,0.0,0.0,0.0,0.0,0.0,0.0,0.0,0.0,0.0,0.0,0.0,0.0,0.0,0.0,0.0,0.0,0.0,0.0,0.0,0.0,0.0,0.0,0.0,0.0,0.0,0.0,0.0,0.0,0.0,0.0,0.0,0.0,0.0,0.0,0.0,0.0,0.0,0.0,0.0,0.0,0.0,0.0,0.0,0.0,0.0,0.0,0.0,land
27,-1.0525030525030523,0.0,1.7032967032967032,0.0,0.0,0.0,-1.26007326007326,-0.5518925518925519,1.9987789987789988,0.0,0.0,0.0,-0.9523809523809524,-0.967032967032967,2.9890109890109886,0.0,0.0,0.0,0.0,0.0,4.623931623931624,0.0,0.0,0.0,-0.7826617826617827,0.7032967032967034,5.34065934065934,0.0,0.0,0.0,-1.424908424908425,0.63003663003663,5.107448107448106,0.5625,0.0,0.0,-1.266178266178266,0.0,4.083028083028083,0.8125,0.0,0.0,-0.912087912087912,-0.5555555555555556,2.937728937728938,0.90625,0.0,0.0,0.0,-1.0598290598290598,1.9792429792429795,0.78125,0.0,0.0,-1.2527472527472527,-0.7557997557997558,1.4700854700854702,0.75,0.0,0.0,0.0,-0.6959706959706959,0.8925518925518926,0.8125,0.0,0.0,0.7716727716727717,-1.1587301587301588,0.0,1.0625,-0.59375,0.0,0.7167277167277167,-1.3150183150183148,0.0,1.0625,-0.90625,0.0,0.6178266178266179,-1.1733821733821734,-1.2356532356532357,1.09375,-1.09375,0.0,0.0,-0.9902319902319904,-1.4029304029304028,1.0625,-1.34375,-0.53125,-0.6141636141636142,0.0,-0.9926739926739928,1.0625,-1.40625,-0.625,-0.6727716727716728,0.0,-0.9804639804639804,1.3125,-1.3125,0.0,0.0,-0.5726495726495726,-1.363858363858364,1.46875,-1.1875,0.0,1.0573870573870574,-1.2942612942612943,-2.0732600732600734,1.5625,-1.5,0.0,0.0,-0.9474969474969476,-2.761904761904762,1.375,-1.9375,-0.6875,-1.0317460317460319,-0.525030525030525,-3.3455433455433456,1.34375,-1.75,-0.59375,-1.2380952380952381,0.0,-3.7887667887667886,1.4375,-1.46875,0.0,0.0,-0.5873015873015873,-4.503052503052503,1.25,-1.40625,0.0,1.1135531135531136,-1.2271062271062272,-5.015873015873017,0.75,-1.5,0.0,0.0,0.0,-4.567765567765568,0.0,-1.15625,0.0,0.0,0.0,-4.17948717948718,0.0,0.0,0.0,0.0,0.0,-3.1941391941391943,0.0,0.0,0.0,0.0,-0.6031746031746031,-2.103785103785104,0.0,0.0,0.0,-0.5457875457875457,0.0,-0.8815628815628815,0.0,0.53125,0.0,0.0,0.0,0.0,0.0,0.0,0.0,0.0,0.5653235653235653,0.9267399267399268,0.0,0.0,0.0,0.0,0.0,0.73992673992674,0.0,0.0,0.0,0.0,0.0,0.0,0.0,0.0,0.0,0.0,0.0,0.0,0.0,0.0,0.0,0.0,0.0,-0.5860805860805861,0.0,0.0,0.0,0.0,0.0,-0.8522588522588522,0.0,0.0,0.0,0.0,0.0,0.0,0.0,0.0,0.0,0.0,0.0,0.0,0.0,0.0,0.0,0.0,0.0,0.0,0.0,0.0,0.0,0.0,0.0,0.0,0.0,0.0,0.0,0.0,0.0,0.0,0.0,0.0,0.0,0.0,0.0,-0.5238095238095238,0.0,0.0,0.0,0.0,0.0,0.0,0.0,0.0,0.0,0.0,0.0,0.0,0.0,0.0,0.0,0.0,0.0,0.0,0.0,0.0,0.0,0.0,0.0,0.0,0.0,0.0,0.0,0.0,0.0,0.0,0.0,0.0,0.0,0.0,0.0,0.0,0.0,0.0,0.0,0.0,0.0,0.0,0.0,0.0,0.0,0.0,0.0,0.0,0.0,0.0,0.0,0.0,0.0,0.0,0.0,0.0,0.0,0.0,0.0,0.0,0.0,0.0,0.0,0.0,0.0,0.0,0.0,0.0,0.0,0.0,0.0,0.0,0.0,0.0,0.0,0.0,0.0,0.0,0.0,0.0,0.0,0.0,0.0,0.0,0.0,0.0,0.0,0.0,0.0,0.0,0.0,0.0,0.0,0.0,0.0,0.0,0.0,0.0,0.0,0.0,0.0,0.0,0.0,0.0,0.0,0.0,0.0,-0.6617826617826618,0.0,0.0,0.0,0.0,0.0,-0.6996336996336996,0.0,0.0,0.0,0.0,0.0,-0.9328449328449328,0.0,0.0,0.0,0.0,0.0,0.0,0.0,0.0,0.0,0.0,0.0,0.0,0.0,0.0,0.0,0.0,0.0,0.0,0.0,0.0,0.0,0.0,0.0,0.0,0.0,0.0,0.0,0.0,0.0,0.0,0.0,0.0,0.0,0.0,0.0,0.0,0.0,0.0,0.0,0.0,0.0,0.0,0.0,0.0,0.0,0.0,0.0,0.0,0.0,0.0,0.0,0.0,0.0,0.0,0.0,0.0,0.0,0.0,0.0,0.0,0.0,0.0,0.0,0.0,0.0,0.0,0.0,0.0,0.0,0.0,0.0,0.0,0.0,0.0,0.0,0.0,0.0,0.0,0.0,0.0,0.0,0.0,0.0,0.0,0.0,0.0,0.0,0.0,0.0,0.0,0.0,0.0,0.0,0.0,0.0,0.0,0.0,0.0,0.0,0.0,0.0,0.0,0.0,0.0,0.0,0.0,0.0,0.0,0.0,0.0,0.0,land
28,-1.2722832722832722,0.0,4.1330891330891335,0.5625,0.0,0.0,-2.5262515262515257,0.0,4.230769230769232,0.5625,0.0,0.0,-1.3650793650793651,0.0,4.910866910866911,0.5625,0.0,0.0,0.0,0.0,4.704517704517705,0.5625,0.0,0.0,-0.536019536019536,0.0,4.383394383394384,0.625,0.0,0.0,-0.978021978021978,0.0,3.3003663003663,0.84375,0.0,0.0,0.0,0.0,2.4505494505494507,0.90625,0.0,0.0,0.0,0.0,1.3015873015873016,1.03125,-0.5625,0.0,0.0,0.0,0.0,1.34375,-0.59375,0.0,0.5531135531135531,-1.4175824175824177,-1.6398046398046398,1.5,-0.625,0.0,0.8339438339438342,-1.8925518925518925,-2.21001221001221,1.15625,-0.78125,0.0,0.0,-1.0805860805860803,-2.1880341880341883,0.96875,-0.8125,0.0,-0.63003663003663,-0.6849816849816851,-1.4713064713064714,1.15625,-0.875,0.0,0.0,-1.4835164835164836,-1.5775335775335777,1.40625,-1.03125,0.0,-0.8376068376068376,-1.4981684981684982,-1.5958485958485962,1.34375,-1.25,0.0,-1.15018315018315,-1.166056166056166,-2.3089133089133087,1.53125,-1.09375,0.0,-1.2014652014652014,-0.9877899877899878,-2.9536019536019538,1.8125,-0.84375,0.78125,-1.4383394383394383,-1.1831501831501832,-3.888888888888889,1.875,-0.5625,1.1875,-0.7875457875457875,-1.5115995115995116,-4.721611721611722,1.71875,0.0,1.46875,0.0,-2.0671550671550682,-5.074481074481074,1.46875,0.0,1.46875,1.5164835164835164,-2.007326007326008,-4.3943833943833965,1.15625,0.0,1.125,1.9511599511599511,-1.956043956043956,-3.5763125763125765,0.875,0.0,0.59375,1.684981684981685,-1.9267399267399268,-2.7606837606837606,0.5625,0.0,0.0,1.072039072039072,-1.5811965811965811,-2.0976800976800978,0.0,-0.6875,0.0,0.0,0.0,-1.0793650793650793,0.0,-0.78125,-0.65625,-0.5311355311355311,0.6214896214896215,0.0,0.0,-0.8125,-0.6875,-0.7264957264957265,0.6520146520146519,0.0,0.0,-0.78125,-0.5625,-0.7509157509157509,0.6532356532356532,0.0,0.0,-0.65625,0.0,0.0,0.6105006105006106,0.0,0.0,0.0,0.0,0.0,0.0,0.0,0.0,0.0,0.0,0.0,0.0,0.0,0.0,0.0,0.0,0.0,0.0,0.0,0.0,0.0,0.0,0.0,0.0,0.0,0.0,0.0,0.0,0.0,0.0,-0.7997557997557998,0.0,0.0,0.0,0.0,0.0,-0.8840048840048841,0.0,0.0,0.0,0.0,0.0,-0.6312576312576312,0.0,0.0,0.0,0.0,0.0,0.0,0.0,0.0,0.0,0.0,0.0,0.0,0.0,0.0,0.0,0.0,0.0,0.0,0.0,0.0,0.0,0.0,0.0,0.0,0.0,0.0,0.0,0.0,0.0,0.0,0.0,0.0,0.0,0.0,0.0,0.0,0.0,0.0,0.0,0.0,0.0,0.0,0.0,0.0,0.0,0.0,0.0,0.0,0.0,0.0,0.0,0.0,0.0,0.0,0.0,0.0,0.0,0.0,0.0,0.0,0.0,0.0,0.0,0.0,0.0,0.0,0.0,0.0,0.0,0.0,0.0,0.0,0.0,0.0,0.0,0.0,0.0,0.0,0.0,0.0,0.0,0.0,0.0,0.0,0.0,0.0,0.0,0.0,0.0,0.0,0.0,0.0,0.0,0.0,0.0,0.0,0.0,0.0,0.0,0.0,0.0,0.0,0.0,0.0,0.0,0.0,0.0,0.0,0.0,0.0,0.0,0.0,0.0,0.0,0.0,0.0,0.0,0.0,0.0,0.0,0.0,0.0,0.0,0.0,0.0,0.0,0.0,0.0,0.0,0.0,0.0,0.0,0.0,0.0,0.0,0.0,0.0,0.0,0.0,0.0,0.0,0.0,0.0,0.0,0.0,0.0,0.0,0.0,0.0,0.0,0.0,0.0,0.0,0.0,0.0,0.0,0.0,0.0,0.0,0.0,0.0,-0.6520146520146519,0.0,0.0,0.0,0.0,0.0,-0.8266178266178266,0.0,0.6875,0.0,0.0,-0.5409035409035409,-1.205128205128205,0.0,0.84375,0.0,0.0,0.0,0.0,0.0,0.0,0.0,0.0,0.0,0.0,0.0,0.0,0.0,0.0,0.0,0.0,0.0,0.0,0.0,0.0,0.0,0.0,0.0,0.0,0.0,0.0,0.0,0.0,0.0,0.0,0.0,0.0,0.0,0.0,0.0,0.0,0.0,0.0,0.0,0.0,0.0,0.0,0.0,0.0,0.0,0.0,0.0,0.0,0.0,0.0,0.0,0.0,0.0,0.0,0.0,0.0,0.0,0.0,0.0,0.0,0.0,0.0,0.0,0.0,0.0,0.0,0.0,0.0,0.0,0.0,0.0,0.0,0.0,0.0,0.0,0.0,0.0,0.0,0.0,0.0,0.0,0.0,0.0,0.0,0.0,0.0,0.0,0.0,0.0,0.0,0.0,land
29,-1.4908424908424909,-1.363858363858364,3.860805860805861,0.0,0.0,0.0,-1.4737484737484738,-1.6507936507936507,3.2197802197802203,0.0,0.0,0.0,0.0,-1.0634920634920637,3.507936507936508,0.5625,0.0,0.0,0.0,0.0,3.5482295482295485,1.09375,0.0,0.0,0.0,0.0,3.10989010989011,1.46875,0.0,0.0,0.5384615384615384,-1.1245421245421243,2.393162393162393,1.34375,0.0,0.0,0.0,-0.5824175824175825,1.6385836385836383,1.125,-0.53125,-0.65625,0.0,0.0,0.5274725274725275,1.0,0.0,-0.5625,0.0,0.0,0.6520146520146519,0.96875,0.0,-0.5625,0.7435897435897436,0.0,0.7472527472527473,0.78125,-0.75,-0.875,0.0,0.0,1.277167277167277,0.75,-1.09375,-1.03125,-1.072039072039072,0.0,0.8315018315018315,1.0,-1.125,-0.96875,-1.3663003663003663,0.0,0.0,1.21875,-0.84375,-0.59375,0.5323565323565324,-1.0866910866910866,-2.318681318681319,1.21875,-0.90625,-0.65625,-0.6947496947496947,-0.7728937728937729,-1.855921855921856,0.96875,-1.125,-0.9375,-2.2783882783882783,0.0,-0.8571428571428571,0.9375,-1.09375,-0.96875,-1.247863247863248,0.0,0.0,1.1875,-0.90625,-0.71875,0.0,-0.9108669108669109,-1.2442002442002442,1.5625,-1.15625,0.0,0.0,-2.1672771672771667,-3.4297924297924296,1.6875,-1.25,-0.59375,0.7008547008547008,-1.68009768009768,-4.3992673992674005,1.375,-1.15625,-0.84375,0.0,0.0,-4.36019536019536,1.28125,-1.15625,-1.09375,0.0,-1.332112332112332,-5.658119658119657,0.96875,-1.1875,-1.09375,-1.2832722832722834,0.0,-4.507936507936508,0.5625,-1.125,0.0,-0.6520146520146519,0.0,-3.65079365079365,0.625,-0.71875,0.0,0.0,0.0,-3.0854700854700856,0.53125,0.0,0.0,0.6764346764346765,-0.9597069597069596,-3.065934065934066,0.0,0.0,0.0,0.568986568986569,-1.2039072039072038,-2.4505494505494507,0.0,0.0,0.0,0.0,0.0,-1.126984126984127,0.0,0.0,0.0,0.0,0.0,0.0,0.0,0.0,0.0,-0.7863247863247863,0.5848595848595849,0.0,0.0,0.0,0.0,0.0,0.0,0.0,0.0,0.0,0.0,0.0,0.0,0.0,0.0,0.0,0.0,0.6434676434676435,0.0,0.0,0.0,0.0,0.0,0.5091575091575091,0.0,0.0,0.0,0.0,0.0,0.6788766788766789,0.0,0.0,0.0,0.0,0.0,0.0,0.0,0.0,0.0,0.0,0.0,-0.5042735042735043,0.0,0.0,0.0,0.0,0.0,0.0,0.0,0.0,0.0,0.0,0.0,0.0,0.0,0.0,0.0,0.0,0.0,0.0,0.0,0.0,0.0,0.0,0.0,-0.6886446886446886,0.0,0.0,0.0,0.0,0.0,-0.7582417582417582,0.0,0.0,0.0,0.0,0.0,-0.568986568986569,0.0,0.0,0.0,0.0,0.0,0.0,0.0,0.0,0.0,0.0,0.0,0.0,0.0,0.0,0.0,0.0,0.0,0.0,0.0,0.0,0.0,0.0,0.0,0.0,0.0,0.0,0.0,0.0,0.0,0.0,0.0,0.0,0.0,0.0,0.0,0.0,0.0,0.0,0.0,0.0,0.0,0.0,0.0,0.0,0.0,0.0,0.0,0.0,0.0,0.0,0.0,0.0,0.0,0.0,0.0,0.0,0.0,0.0,0.0,0.0,0.0,0.0,0.0,0.0,0.0,0.0,0.0,0.0,0.0,0.0,0.0,0.0,0.0,0.0,0.0,0.0,0.0,0.0,0.0,0.0,0.0,0.0,0.0,0.0,0.0,0.0,0.0,0.0,0.0,0.0,0.0,-0.5103785103785103,0.0,0.0,0.0,-0.8644688644688645,0.0,-0.7875457875457875,0.0,0.0,0.0,0.0,0.0,0.0,0.0,0.0,0.0,0.0,0.0,0.0,0.0,0.0,0.0,0.0,0.0,-1.1587301587301588,0.0,0.0,0.0,0.0,0.0,-1.7997557997557998,0.0,0.0,0.0,0.0,0.0,0.0,0.0,0.0,0.0,0.0,0.0,0.0,0.0,0.0,0.0,0.0,0.0,0.0,0.0,0.0,0.0,0.0,0.0,0.0,0.0,0.0,0.0,0.0,0.0,0.0,0.0,0.0,0.0,0.0,0.0,0.0,0.0,0.0,0.0,0.0,0.0,0.0,0.0,0.0,0.0,0.0,0.0,0.0,0.0,0.0,0.0,0.0,0.0,0.0,0.0,0.0,0.0,0.0,0.0,0.0,0.0,0.0,0.0,0.0,0.0,0.0,0.0,0.0,0.0,0.0,0.0,0.0,0.0,0.0,0.0,0.0,0.0,0.0,0.0,0.0,0.0,0.0,0.0,0.0,0.0,0.0,0.0,0.0,0.0,0.0,0.0,0.0,0.0,0.0,0.0,0.0,0.0,0.0,0.0,0.0,0.0,0.0,0.0,0.0,0.0,land
30,-0.7960927960927959,0.0,2.89010989010989,0.5625,-0.53125,0.0,-1.8485958485958487,-0.6935286935286935,3.52014652014652,0.0,0.0,0.0,-2.045177045177045,-0.8669108669108669,4.412698412698413,0.0,0.0,0.0,-1.3040293040293038,0.0,5.543345543345543,0.0,0.0,0.0,-1.4896214896214897,0.0,6.069597069597068,0.625,-0.59375,0.0,-2.417582417582417,0.0,5.588522588522588,1.0,0.0,0.5625,-1.3028083028083028,0.0,4.417582417582418,1.21875,0.0,0.6875,-1.1391941391941391,0.0,3.0561660561660564,1.46875,0.0,0.78125,-0.6923076923076923,0.0,1.2698412698412698,1.75,0.0,1.0625,2.495726495726496,-2.445665445665446,0.0,0.84375,-0.8125,0.0,0.0,0.0,0.0,0.53125,-1.0625,0.0,-1.0268620268620268,0.0,0.0,0.9375,-0.53125,0.0,0.0,-1.164835164835165,0.0,1.375,0.0,0.78125,1.4163614163614164,-2.05982905982906,-0.8107448107448108,1.5625,0.0,0.96875,1.5665445665445663,-2.590964590964591,-1.5299145299145298,1.4375,-0.53125,0.6875,0.9010989010989012,-2.416361416361416,-1.8901098901098896,1.375,-0.65625,0.0,1.6166056166056166,-2.8852258852258847,-1.9328449328449329,1.15625,-1.0625,0.0,-1.5457875457875458,-1.5787545787545787,-2.0207570207570207,1.0625,-1.21875,0.0,-2.4004884004884004,-0.8009768009768009,-1.7692307692307692,1.3125,-0.6875,0.0,0.0,-1.6385836385836383,-2.3284493284493286,1.6875,0.0,0.875,2.0586080586080584,-3.2185592185592187,-3.7191697191697193,1.21875,-0.8125,0.0,1.934065934065934,-2.7106227106227108,-3.984126984126984,0.59375,-1.65625,0.0,0.7521367521367521,-1.3821733821733821,-3.913308913308913,0.0,-1.4375,-0.59375,0.0,0.0,-3.88034188034188,0.59375,-1.0,0.0,-0.5018315018315018,0.0,-4.084249084249084,0.65625,0.0,0.0,0.0,0.0,-3.831501831501832,0.65625,0.0,0.0,0.0,0.0,-3.2503052503052503,0.0,0.0,0.0,0.0,0.0,-1.7875457875457876,0.0,0.0,0.0,0.0,0.0,-0.9169719169719168,0.0,0.0,0.0,0.0,0.0,0.0,0.0,0.0,0.0,0.0,0.0,-0.6544566544566545,0.0,0.0,0.0,0.0,0.0,-1.037851037851038,0.0,0.0,0.0,0.0,0.0,-0.6239316239316239,0.0,0.0,0.0,0.0,0.0,0.0,0.0,0.0,0.0,0.0,0.0,0.6593406593406593,0.0,0.0,0.0,0.0,-0.7423687423687424,0.5506715506715507,0.0,0.0,0.0,0.0,-0.7179487179487181,0.0,0.0,0.0,0.0,0.0,-0.5604395604395604,0.0,0.0,0.0,0.0,0.0,0.0,0.0,0.0,0.0,0.0,0.0,0.0,0.0,0.0,0.0,0.0,0.0,0.0,0.0,0.0,0.0,0.0,0.0,0.0,0.0,0.0,0.0,0.0,0.0,0.0,0.0,0.0,0.0,0.0,0.0,0.0,0.0,0.0,0.0,0.0,0.0,0.0,0.0,0.0,0.0,0.0,0.0,0.0,0.0,0.0,0.0,0.0,0.0,0.0,0.0,0.0,0.0,0.0,0.0,0.0,0.0,0.0,0.0,0.0,0.0,0.0,0.0,0.0,0.0,0.0,0.0,0.0,0.0,0.0,0.0,0.0,0.0,0.0,0.0,0.0,0.0,0.0,0.0,0.0,0.0,0.0,0.0,0.0,0.0,0.0,0.0,0.0,0.0,0.0,0.0,0.0,0.0,0.0,0.0,0.0,0.0,0.0,0.0,0.0,0.0,0.0,0.0,0.0,0.0,0.0,0.0,0.0,0.0,0.0,0.0,0.0,0.0,0.0,0.0,0.0,0.0,0.0,0.0,0.0,0.0,0.0,0.0,0.0,0.0,0.0,0.0,0.0,0.0,0.0,0.0,0.0,0.0,0.0,-0.5238095238095238,0.0,0.0,0.0,0.0,0.0,0.0,0.0,0.0,0.0,0.0,0.0,-0.5750915750915749,0.0,0.0,0.0,0.0,0.0,-0.7667887667887668,0.0,0.0,0.0,0.0,0.0,-0.8302808302808303,0.0,0.0,0.0,0.0,-0.5433455433455433,-0.8754578754578755,0.0,0.65625,0.0,0.0,0.0,0.0,0.0,0.0,0.0,0.0,0.0,0.0,0.0,0.0,0.0,0.0,0.0,0.0,0.0,0.0,0.0,0.0,0.0,0.0,0.0,0.0,0.0,0.0,0.0,0.0,0.0,0.0,0.0,0.0,0.0,0.0,0.0,0.0,0.0,0.0,0.0,0.0,0.0,0.0,0.0,0.0,0.0,0.0,0.0,0.0,0.0,0.0,0.0,0.0,0.0,0.0,0.0,0.0,0.0,0.0,0.0,0.0,0.0,0.0,0.0,0.0,0.0,0.0,0.0,0.0,0.0,0.0,0.0,0.0,0.0,0.0,0.0,0.0,0.0,0.0,0.0,0.0,0.0,0.0,0.0,0.0,0.0,land
31,0.0,0.0,0.8376068376068376,0.0,0.0,0.0,0.0,0.0,2.5384615384615383,0.0,0.0,0.0,0.0,0.0,3.2148962148962146,0.0,0.0,0.0,-0.7765567765567766,0.0,3.641025641025641,0.0,0.0,0.0,-1.0879120879120878,0.5543345543345544,3.688644688644689,0.0,0.0,0.0,0.0,0.0,3.2612942612942613,0.65625,0.0,0.65625,0.6788766788766789,-0.9694749694749696,2.716727716727717,0.78125,0.0,0.59375,0.0,-0.8205128205128205,2.385836385836386,0.59375,0.0,0.0,-1.266178266178266,0.0,2.642246642246642,0.59375,0.0,0.0,-1.0634920634920637,0.0,3.203907203907204,0.71875,0.0,0.0,-1.8205128205128205,0.0,3.4481074481074483,0.75,0.0,0.0,-1.3772893772893773,0.0,2.0695970695970702,1.1875,0.0,0.78125,2.2002442002442004,-2.070818070818071,0.0,1.28125,0.0,0.84375,2.0695970695970702,-2.148962148962149,-0.6288156288156288,0.0,-0.84375,0.0,0.0,-0.7032967032967034,0.0,0.0,-0.59375,0.0,0.0,0.0,0.518925518925519,0.53125,0.0,0.0,0.0,0.0,0.9194139194139194,0.84375,-0.84375,0.0,-0.5848595848595849,-0.5347985347985348,0.0,0.90625,-1.09375,0.0,-1.4041514041514038,-0.8461538461538461,-1.120879120879121,0.875,-0.9375,0.0,-0.7912087912087912,-0.7252747252747253,-2.6581196581196584,0.9375,-0.8125,0.0,2.47008547008547,-1.8547008547008548,-3.641025641025641,0.625,-1.75,0.0,1.4334554334554337,-1.1916971916971917,-3.9706959706959712,0.0,-2.4375,-0.8125,-0.8717948717948718,0.0,-4.78021978021978,0.0,-1.875,-0.59375,-0.5775335775335775,0.6654456654456654,-4.846153846153847,0.6875,-1.21875,0.0,-0.6043956043956044,0.0,-4.443223443223443,0.90625,0.0,0.0,1.26007326007326,-0.6410256410256411,-3.9536019536019538,0.59375,0.0,0.5625,0.5152625152625152,0.0,-2.8363858363858365,0.0,0.0,0.0,0.536019536019536,0.0,-1.8107448107448108,0.0,0.0,0.0,0.0,0.5262515262515263,-1.4993894993894994,0.0,0.0,0.0,0.0,0.0,-1.4407814407814408,0.0,0.0,0.0,0.0,0.0,-1.0976800976800978,0.0,0.0,0.0,0.0,0.0,-0.73992673992674,0.0,0.0,0.0,0.0,0.0,-0.6666666666666666,0.0,0.0,0.0,0.0,0.0,0.0,0.0,0.0,0.0,0.0,0.0,0.0,0.0,0.0,0.0,0.0,-0.7240537240537241,0.0,0.0,0.0,0.0,1.2234432234432235,-0.8742368742368742,0.0,0.0,0.0,0.0,0.8400488400488401,-0.63003663003663,0.0,0.0,0.0,0.0,0.0,0.0,0.0,0.0,0.0,0.0,-0.6166056166056166,0.0,0.0,0.0,0.0,0.0,0.0,0.0,0.706959706959707,0.0,0.0,0.0,0.0,0.0,0.0,0.0,0.0,0.0,0.0,0.0,0.0,0.0,0.0,0.0,0.0,0.0,0.0,0.0,0.0,0.0,0.0,0.0,0.0,0.0,0.0,0.0,0.0,0.0,0.0,0.0,0.0,0.0,0.0,0.0,0.0,0.0,0.0,0.0,0.0,0.0,0.0,0.0,0.0,0.0,0.0,0.0,0.0,0.0,0.0,0.0,0.0,0.0,0.0,0.0,0.0,0.0,0.0,0.0,0.0,0.0,0.0,0.0,0.0,0.0,0.0,0.0,0.0,0.0,0.0,0.0,0.0,0.0,0.0,0.0,0.0,0.0,0.0,0.0,0.0,0.0,0.0,0.0,0.0,0.0,0.0,0.0,0.0,0.0,0.0,0.0,0.0,0.0,0.0,0.0,0.0,0.0,0.0,0.0,0.0,0.0,0.0,0.0,0.0,0.0,0.0,0.0,0.0,0.0,0.0,0.0,0.0,0.0,0.0,0.0,0.0,0.0,0.0,0.0,0.0,0.0,0.0,0.0,0.0,0.0,0.0,0.0,0.0,0.0,0.0,0.0,0.0,0.0,0.0,0.0,0.0,0.0,-0.7704517704517705,0.0,0.0,0.0,0.0,0.0,0.0,0.0,0.0,0.0,0.0,0.0,0.0,0.0,0.0,0.0,0.0,0.0,0.0,0.0,0.0,0.0,0.0,0.0,0.0,0.0,0.0,0.0,0.0,0.0,0.0,0.0,0.0,0.0,0.0,0.0,0.0,0.0,0.0,0.0,0.0,0.0,0.0,0.0,0.0,0.0,0.0,0.0,0.0,0.0,0.0,0.0,0.0,0.0,0.0,0.0,0.0,0.0,0.0,0.0,0.0,0.0,0.0,0.0,0.0,0.0,0.0,0.0,0.0,0.0,0.0,0.0,0.0,0.0,0.0,0.0,0.0,0.0,0.0,0.0,0.0,0.0,0.0,0.0,0.0,0.0,0.0,0.0,0.0,0.0,0.0,0.0,0.0,0.0,0.0,0.0,0.0,0.0,0.0,0.0,land
32,0.5982905982905983,0.0,1.7838827838827842,0.0,0.0,0.0,-2.039072039072039,-0.6837606837606838,1.95970695970696,0.0,0.0,0.0,-1.413919413919414,0.0,3.2881562881562885,-0.65625,0.0,0.0,-0.9450549450549448,0.0,4.719169719169718,-0.65625,0.0,0.0,-1.647130647130647,0.0,5.029304029304028,0.0,0.0,0.0,-2.017094017094017,-0.7252747252747253,4.34065934065934,0.0,0.0,0.0,-0.6532356532356532,-0.9523809523809524,4.306471306471306,0.0,0.0,0.0,-0.6617826617826618,-0.8107448107448108,3.5665445665445668,0.0,0.0,0.0,-0.9157509157509156,-0.9145299145299144,2.532356532356532,0.0,0.0,0.0,0.0,-0.8656898656898657,2.2026862026862037,0.0,0.0,0.0,0.6141636141636142,0.0,1.6984126984126984,0.0,0.0,0.0,0.0,0.0,1.2136752136752136,0.625,-0.59375,0.0,0.0,0.0,0.0,0.90625,0.0,0.0,0.7692307692307693,-0.536019536019536,0.0,0.96875,-0.65625,0.0,0.0,-0.5811965811965812,-1.4395604395604396,0.90625,-0.78125,0.0,0.0,0.0,-1.9059829059829057,0.75,-0.6875,0.0,0.0,0.0,-1.1819291819291822,0.75,-0.96875,0.0,0.0,0.0,-1.2808302808302807,0.75,-1.21875,-0.65625,-1.4932844932844933,0.0,-1.811965811965812,0.875,-0.96875,-0.53125,-0.8644688644688645,0.8534798534798534,-2.4444444444444446,1.21875,-0.53125,0.0,0.9401709401709402,-0.5128205128205128,-3.4554334554334565,1.03125,-0.5625,0.0,1.7203907203907205,-0.8998778998778999,-3.52991452991453,0.59375,-0.84375,0.0,1.0549450549450552,0.0,-2.8852258852258847,0.0,-0.84375,0.0,0.0,0.0,-2.0695970695970702,0.75,-0.71875,0.0,0.0,-0.905982905982906,-1.971916971916972,0.8125,0.0,0.0,0.0,0.0,-1.9755799755799759,0.8125,0.0,0.0,0.5311355311355311,0.0,-2.4688644688644694,0.84375,0.0,0.0,0.0,0.0,-2.656898656898657,0.71875,0.0,0.0,0.0,0.0,-2.244200244200244,0.59375,0.0,0.0,0.0,0.0,-2.0915750915750917,0.0,0.0,0.0,0.0,0.0,-2.1611721611721606,0.0,0.0,0.0,0.0,0.0,-2.1001221001221,0.0,0.0,0.0,0.0,0.0,-2.294261294261294,0.0,0.0,0.0,0.0,0.0,-2.213675213675214,0.0,0.0,0.0,0.0,0.0,-1.8608058608058609,0.0,0.0,0.0,0.0,0.0,-1.1794871794871795,0.0,0.0,0.0,0.0,0.0,0.0,0.0,0.0,0.0,-0.8913308913308914,0.0,0.0,0.0,0.0,0.0,-1.021978021978022,0.0,0.0,0.0,0.0,0.0,-0.7338217338217338,0.0,0.0,0.0,0.0,0.0,-0.6361416361416361,0.0,0.0,0.0,0.0,0.0,0.0,0.0,0.0,0.0,0.0,0.0,0.0,0.0,0.7350427350427351,0.0,0.0,0.0,0.0,0.0,0.0,0.0,0.0,0.0,0.0,0.0,0.0,0.0,0.0,0.0,0.0,0.0,0.0,0.0,0.0,0.0,0.0,0.0,0.0,0.0,0.0,0.0,0.7081807081807082,0.0,0.0,0.0,0.0,0.0,0.5006105006105006,0.0,0.0,0.0,0.0,0.0,0.0,0.0,0.0,0.0,0.0,0.0,0.0,0.0,0.0,0.0,0.0,0.0,0.0,0.0,0.0,0.0,0.0,0.0,0.0,0.0,-0.5372405372405372,0.0,0.0,0.0,0.0,0.0,0.0,0.0,0.0,0.0,0.0,0.0,0.0,0.0,0.0,0.0,0.0,0.0,0.0,0.0,0.0,0.0,0.0,0.0,0.0,0.0,0.0,0.0,0.0,0.0,0.0,0.0,0.0,0.0,0.0,0.0,0.0,0.0,0.0,0.0,0.0,0.0,0.0,0.0,0.0,0.0,0.0,0.0,0.0,0.0,0.0,0.0,0.0,0.0,0.0,0.0,0.0,0.0,0.0,0.0,0.0,0.0,0.0,0.0,0.0,0.0,0.0,0.0,0.0,0.0,0.0,0.0,-0.5067155067155067,0.0,0.0,0.0,0.0,0.0,-0.8168498168498168,0.0,0.0,0.0,0.0,0.0,-0.8351648351648352,0.0,0.0,0.0,0.0,0.0,-0.7753357753357754,0.0,0.0,0.0,0.0,0.0,0.0,0.0,0.0,0.0,0.0,0.0,0.0,0.0,0.0,0.0,0.0,0.0,0.0,0.0,0.0,0.0,0.0,0.0,0.0,0.0,0.0,0.0,0.0,0.0,0.0,0.0,0.0,0.0,0.0,0.0,0.0,0.0,0.0,0.0,0.0,0.0,0.0,0.0,0.0,0.0,0.0,0.0,0.0,0.0,0.0,0.0,0.0,0.0,0.0,0.0,0.0,0.0,0.0,0.0,0.0,0.0,0.0,0.0,0.0,0.0,0.0,0.0,0.0,0.0,0.0,0.0,0.0,0.0,0.0,0.0,land
33,0.0,0.0,0.7851037851037851,0.0,0.0,0.0,-0.5750915750915749,-1.0903540903540905,0.0,0.0,0.0,0.0,0.0,-0.5909645909645911,0.0,0.0,0.0,0.0,0.0,0.0,0.9804639804639804,0.0,0.0,0.0,0.0,0.0,1.6532356532356531,0.0,0.0,0.0,-0.7216117216117216,0.0,1.5738705738705738,0.0,0.0,0.0,-1.0964590964590966,-0.7594627594627594,1.8608058608058609,0.0,0.0,0.0,-1.1526251526251523,-0.6910866910866911,3.172161172161172,0.0,0.0,0.0,-1.3821733821733821,0.0,4.888888888888889,0.0,0.0,0.0,-1.5433455433455434,0.0,5.758241758241758,0.0,0.0,0.0,-1.8376068376068373,-0.8070818070818071,5.661782661782662,0.0,0.0,0.0,-1.7789987789987791,-1.4896214896214897,4.798534798534798,0.59375,0.0,0.0,-1.465201465201465,-1.4004884004884004,3.9401709401709413,0.75,0.0,0.0,0.0,-1.249084249084249,3.0256410256410247,1.09375,0.0,0.0,0.0,-1.2967032967032968,2.137973137973138,1.34375,0.0,0.0,0.0,-1.636141636141636,0.8669108669108669,1.34375,-0.65625,0.0,0.0,-1.413919413919414,0.0,1.21875,-0.625,0.0,0.5970695970695971,-1.0512820512820509,-0.9719169719169721,1.09375,0.0,0.0,0.7875457875457875,-0.927960927960928,0.0,1.0625,0.0,0.0,0.0,-0.5067155067155067,0.0,0.84375,0.0,0.0,0.7680097680097681,0.0,0.0,0.96875,0.0,0.0,0.0,0.0,0.0,1.0,-0.59375,0.0,0.0,0.0,-0.6117216117216118,1.0625,-0.53125,0.0,0.0,0.0,-1.4969474969474967,1.03125,-0.59375,0.0,0.0,0.0,-1.68009768009768,1.09375,-0.65625,0.0,-1.1172161172161172,0.0,-1.7545787545787546,1.125,-0.59375,0.0,-1.525030525030525,0.8021978021978022,-1.1733821733821734,1.25,0.0,0.0,-0.8998778998778999,0.7313797313797313,-1.3492063492063493,1.53125,0.0,0.65625,0.0,0.0,-2.2527472527472527,1.65625,0.0,0.75,0.0,-1.006105006105006,-3.0378510378510377,1.3125,-1.0,0.0,0.7252747252747253,-0.6361416361416361,-3.4542124542124544,1.1875,-1.15625,0.0,1.037851037851038,-0.8534798534798534,-4.255189255189255,1.03125,-1.5625,0.0,0.8461538461538461,-0.8339438339438342,-5.05128205128205,0.78125,-1.53125,0.0,0.5238095238095238,-1.065934065934066,-5.36019536019536,0.0,-1.28125,0.0,0.0,-0.8412698412698413,-4.832722832722832,0.0,-0.625,0.0,0.7448107448107448,0.0,-3.4664224664224665,0.0,0.0,0.0,0.0,-0.5714285714285714,-2.636141636141636,0.0,0.0,0.0,0.6288156288156288,0.0,-1.5030525030525033,0.0,0.0,0.0,1.0036630036630036,0.0,0.0,0.0,0.0,0.0,0.0,0.0,0.0,0.0,0.0,0.0,0.0,0.0,0.0,0.0,0.0,0.0,0.0,0.0,0.0,0.0,0.0,0.0,0.0,0.0,0.0,0.0,0.0,0.0,0.6092796092796092,-0.5677655677655677,0.0,0.0,0.0,0.0,0.0,0.0,0.0,0.0,0.0,0.0,0.0,0.0,0.0,0.0,0.0,0.0,-0.6752136752136753,0.0,0.0,0.0,0.0,0.0,-0.8608058608058609,0.0,0.0,0.0,0.0,0.0,0.0,0.0,-0.6959706959706959,0.0,0.0,0.0,0.0,0.0,-0.5714285714285714,0.0,0.0,0.0,0.0,0.0,0.0,0.0,0.0,0.0,0.0,0.0,0.0,0.0,0.0,0.0,0.0,0.0,0.0,0.0,0.0,0.0,0.0,0.0,0.0,0.0,0.0,0.0,0.0,0.0,0.0,0.0,0.0,0.0,0.0,0.0,0.0,0.0,0.0,0.0,0.0,0.0,0.0,0.0,0.0,0.0,0.0,0.0,0.0,0.0,0.0,0.0,0.0,0.0,0.0,0.0,0.0,0.0,0.0,0.0,0.0,0.0,0.0,0.0,0.0,0.0,-0.6593406593406593,0.0,0.0,0.0,0.0,0.0,-0.5592185592185592,0.0,0.0,0.0,0.0,-0.6117216117216118,-0.6715506715506715,0.0,0.0,0.0,0.0,0.0,0.0,0.0,0.0,0.0,0.0,0.0,0.0,0.0,0.0,0.0,0.0,0.0,0.0,0.0,0.0,0.0,0.0,0.0,0.0,0.0,0.0,0.0,0.0,0.0,0.0,0.0,0.0,0.0,0.0,0.0,0.0,0.0,0.0,0.0,0.0,0.0,0.0,0.0,0.0,0.0,0.0,0.0,0.0,0.0,0.0,0.0,0.0,0.0,0.0,0.0,0.0,0.0,0.0,0.0,0.0,0.0,0.0,0.0,0.0,0.0,0.0,0.0,0.0,0.0,0.0,0.0,0.0,0.0,0.0,0.0,0.0,0.0,0.0,0.0,0.0,0.0,0.0,0.0,0.0,0.0,0.0,0.0,0.0,0.0,0.0,0.0,0.0,0.0,0.0,0.0,0.0,0.0,0.0,0.0,0.0,0.0,0.0,0.0,0.0,0.0,land
