timestamp, accX, accY, accZ, gyroX, gyroY, gyroZ, button
8794, -3.888888888888889, 3.993894993894994, 4.257631257631258, -2.03125, -7.0625, -1.25, 0.0
8795, -3.7667887667887667, 3.15995115995116, 3.3736263736263736, -1.25, -5.6875, -1.40625, 0.0
8796, -3.2612942612942613, 2.288156288156288, 2.7826617826617825, -0.65625, -4.65625, -1.28125, 0.0
1, -1.9853479853479854, 1.6312576312576312, 2.1965811965811968, -0.3125, -4.3125, -1.03125, 0.0
2, -0.2771672771672772, 0.7741147741147741, 1.7533577533577533, -0.34375, -4.90625, -0.625, 0.0
3, 0.2503052503052503, 0.0463980463980464, 1.3467643467643469, -0.625, -5.4375, -0.75, 0.0
4, 0.25518925518925517, -0.7252747252747253, 1.0525030525030525, -1.15625, -5.90625, -1.125, 0.0
5, -1.4542124542124542, 0.2564102564102564, 1.1086691086691087, -1.28125, -5.75, -1.34375, 0.0
6, -3.0097680097680097, 1.971916971916972, 0.6214896214896215, -0.75, -4.65625, -1.21875, 0.0
7, -3.960927960927961, 3.266178266178266, -0.8595848595848596, 0.03125, -3.3125, -0.5625, 0.0
8, -5.135531135531136, 3.2515262515262515, -1.9975579975579976, 0.75, -1.53125, 0.25, 0.0
9, -3.664224664224664, 2.0720390720390722, -2.7252747252747254, 1.0625, -0.21875, 0.875, 0.0
10, 0.9181929181929182, 0.20757020757020758, -1.547008547008547, 0.625, 0.0625, 1.0625, 0.0
11, 1.4554334554334554, 0.34676434676434675, -1.037851037851038, 0.3125, -0.71875, 0.84375, 0.0
12, 0.9816849816849816, 0.8473748473748474, -1.0512820512820513, 0.21875, -1.59375, 0.625, 0.0
13, -0.78998778998779, 0.36752136752136755, -1.901098901098901, 0.25, -1.90625, 0.40625, 0.0
14, -1.3956043956043955, 0.5115995115995116, -2.3174603174603177, 0.1875, -1.40625, 0.3125, 0.0
15, -1.4114774114774116, 0.8974358974358975, -2.1465201465201464, 0.21875, -0.65625, 0.5, 0.0
16, -0.5482295482295483, 1.2185592185592184, -1.735042735042735, 0.5, -0.0625, 0.6875, 0.0
17, -0.0757020757020757, 1.1575091575091576, -1.10989010989011, 0.78125, 0.125, 0.8125, 0.0
18, 0.3614163614163614, 0.5115995115995116, -1.10989010989011, 0.875, 0.125, 0.84375, 0.0
19, 0.3601953601953602, 0.05372405372405373, -1.6996336996336996, 0.6875, 0.09375, 0.65625, 0.0
20, 0.5714285714285714, -0.05128205128205128, -1.9609279609279608, 0.40625, 0.0625, 0.5, 0.0
21, 0.4346764346764347, 0.26373626373626374, -1.6984126984126984, 0.0625, -0.03125, 0.3125, 0.0
22, 0.2039072039072039, 0.5616605616605617, -1.4615384615384615, 0.03125, -0.0625, 0.25, 0.0
23, -0.15506715506715507, 0.4700854700854701, -1.4017094017094016, 0.0625, 0.0, 0.1875, 0.0
24, -0.24175824175824176, 0.24053724053724054, -1.4371184371184371, 0.1875, 0.0625, 0.21875, 0.0
25, -0.6324786324786325, -1.26007326007326, -1.8278388278388278, 0.0, 0.15625, 0.0, 0.0
26, -1.9914529914529915, -0.4481074481074481, -2.462759462759463, -0.375, 0.3125, 0.3125, 0.0
27, -1.5335775335775337, 0.8742368742368742, -0.47619047619047616, -0.25, 0.28125, 0.25, 0.0
28, -2.6092796092796093, 0.9108669108669109, -1.2564102564102564, -0.1875, 0.6875, 0.0625, 0.0
29, 1.4700854700854702, -2.266178266178266, 0.0695970695970696, -0.5625, 0.125, -0.34375, 0.0
30, 3.518925518925519, -1.6642246642246643, 0.28815628815628813, -1.3125, -0.75, -0.25, 0.0
31, 1.8156288156288156, -1.6800976800976801, 0.6141636141636142, -1.53125, -0.96875, -0.09375, 0.0
32, -0.3028083028083028, -1.1196581196581197, 0.6495726495726496, -1.28125, -0.21875, -0.28125, 0.0
33, -0.3064713064713065, -0.9426129426129426, 0.5457875457875457, -0.90625, 1.0, -0.5625, 0.0
34, 1.5152625152625152, 0.08180708180708181, 1.768009768009768, -0.625, 1.21875, -0.59375, 0.0
35, 1.5616605616605617, 0.22954822954822954, 1.8998778998778998, -0.34375, 0.8125, -0.375, 0.0
36, 0.6568986568986569, 0.5299145299145299, 1.4151404151404152, -0.0625, 0.5625, -0.34375, 0.0
37, 0.5006105006105006, 0.0927960927960928, 0.26495726495726496, 0.15625, 0.3125, -0.59375, 0.0
38, 1.1611721611721613, -0.7057387057387058, -0.1746031746031746, 0.15625, 0.46875, -0.84375, 0.0
39, 0.047619047619047616, -0.3137973137973138, -0.06227106227106227, -0.1875, 0.46875, -0.78125, 0.0
40, -0.5323565323565324, -0.38095238095238093, 0.4835164835164835, -0.34375, 0.625, -0.6875, 0.0
41, -0.7057387057387058, -0.06105006105006105, 0.8192918192918193, -0.3125, 0.78125, -0.53125, 0.0
42, -0.29304029304029305, 0.06227106227106227, 0.6434676434676435, 0.0625, 0.875, -0.34375, 0.0
43, -0.23931623931623933, 0.10378510378510379, 0.2490842490842491, 0.53125, 0.84375, -0.3125, 0.0
44, -0.15995115995115994, 0.3711843711843712, -0.6923076923076923, 0.875, 0.84375, -0.125, 0.0
45, 0.28815628815628813, 0.5262515262515263, -2.0732600732600734, 1.09375, 0.59375, 0.0625, 0.0
46, 0.2771672771672772, -0.17216117216117216, -2.9267399267399266, 0.5625, 0.5625, 0.5625, 0.0
47, 5.684981684981685, -2.0427350427350426, -1.3614163614163615, -0.1875, -0.1875, 1.25, 0.0
48, -0.5225885225885226, 3.7716727716727716, -2.5384615384615383, 0.4375, 0.25, 0.96875, 0.0
49, -5.846153846153846, -3.5567765567765566, -3.1404151404151404, 0.03125, 1.75, 0.0, 0.0
50, -2.5873015873015874, 2.3956043956043955, -2.4175824175824174, 0.5625, 3.375, 0.5, 0.0
51, -3.3076923076923075, 1.3785103785103785, -1.170940170940171, 0.96875, 4.40625, 1.3125, 0.0
52, -2.645909645909646, 1.192918192918193, -0.3064713064713065, 1.5625, 5.625, 1.96875, 0.0
53, -2.752136752136752, 0.938949938949939, 0.6678876678876678, 2.15625, 6.84375, 2.375, 0.0
54, -4.166056166056166, 2.04029304029304, 2.0915750915750917, 3.0, 8.59375, 2.5625, 0.0
55, -2.9804639804639805, 2.6617826617826617, 3.507936507936508, 3.75, 9.96875, 2.6875, 0.0
56, -1.4908424908424909, 3.8656898656898657, 4.677655677655678, 4.28125, 9.96875, 2.25, 0.0
57, 3.382173382173382, 4.203907203907204, 5.957264957264957, 4.40625, 8.3125, 1.53125, 0.0
58, 2.286935286935287, 3.456654456654457, 3.821733821733822, 4.21875, 6.375, 0.9375, 0.0
59, 1.877899877899878, 2.347985347985348, 2.065934065934066, 3.78125, 4.6875, 0.375, 0.0
60, 1.663003663003663, 2.128205128205128, 0.9145299145299145, 2.78125, 2.9375, 0.03125, 0.0
61, 0.6544566544566545, 2.2014652014652016, 0.36996336996337, 1.6875, 1.15625, -0.21875, 0.0
62, -0.7362637362637363, 2.9108669108669107, 0.5042735042735043, 0.78125, 0.03125, -0.46875, 0.0
63, 0.24175824175824176, -0.06593406593406594, -0.31868131868131866, -0.03125, 0.0, 0.0, 0.0
64, 0.07203907203907203, -0.019536019536019536, -0.2222222222222222, -0.0625, 0.0, -0.03125, 0.0
65, -0.05128205128205128, 0.10622710622710622, -0.10622710622710622, -0.0625, 0.0, -0.03125, 0.0
66, 0.013431013431013432, 0.12332112332112333, -0.06227106227106227, 0.0, 0.0, -0.03125, 0.0
67, 0.07692307692307693, -0.08058608058608059, -0.1391941391941392, 0.03125, 0.0, -0.03125, 0.0
68, 0.042735042735042736, -0.12698412698412698, -0.12087912087912088, 0.0, 0.0, -0.03125, 0.0
69, -0.02197802197802198, 0.019536019536019536, 0.07448107448107448, -0.0625, 0.0, -0.03125, 0.0
70, 0.003663003663003663, 0.03785103785103785, 0.11477411477411477, -0.03125, 0.0, -0.03125, 0.0
71, -0.09645909645909646, 0.013431013431013432, 0.10866910866910867, 0.0, -0.03125, 0.0, 0.0
72, -0.1452991452991453, 0.08180708180708181, 0.29304029304029305, 0.0625, 0.0, 0.0, 0.0
73, 0.1330891330891331, -0.11355311355311355, 0.5616605616605617, 0.125, -0.03125, 0.0, 0.0
74, -0.398046398046398, -0.12087912087912088, 0.6288156288156288, 0.0, -0.125, 0.15625, 1.0
75, -0.2222222222222222, 0.1575091575091575, 1.05006105006105, 0.09375, -0.125, 0.09375, 1.0
76, -0.15384615384615385, 0.057387057387057384, 1.3894993894993894, 0.1875, -0.21875, 0.125, 1.0
77, -0.4126984126984127, -0.19536019536019536, 1.7423687423687424, 0.15625, -0.28125, 0.09375, 1.0
78, -1.2002442002442002, -0.4554334554334554, 2.8192918192918195, 0.0, -0.09375, 0.03125, 1.0
79, -1.1978021978021978, 0.02564102564102564, 4.280830280830281, -0.125, 0.0, 0.03125, 1.0
80, -0.9731379731379731, 0.04884004884004884, 5.5677655677655675, -0.15625, -0.25, 0.0, 1.0
81, -1.221001221001221, 0.4725274725274725, 6.106227106227106, 0.09375, -0.53125, 0.0, 1.0
82, -1.4822954822954824, 0.47374847374847373, 6.083028083028083, 0.46875, -0.65625, 0.125, 1.0
83, -1.078144078144078, 0.3308913308913309, 5.422466422466423, 0.875, -0.59375, 0.1875, 1.0
84, -0.8986568986568987, 0.15506715506715507, 4.180708180708181, 1.15625, -0.40625, 0.28125, 1.0
85, 0.5714285714285714, -0.21978021978021978, 3.3394383394383396, 1.34375, -0.625, 0.125, 1.0
86, 0.12576312576312576, -1.3772893772893773, 2.253968253968254, 1.0, -1.28125, -0.0625, 1.0
87, -0.5567765567765568, -0.6971916971916972, 2.440781440781441, 0.875, -1.3125, -0.25, 1.0
88, -0.05616605616605617, -0.7057387057387058, 1.5677655677655677, 1.1875, -1.3125, -0.3125, 1.0
89, -0.5702075702075702, -1.2405372405372406, -0.3431013431013431, 1.6875, -1.28125, -0.25, 1.0
90, 1.3137973137973138, -2.7496947496947497, -1.656898656898657, 1.65625, -1.28125, -0.28125, 1.0
91, 0.5079365079365079, -2.3211233211233213, -1.5885225885225884, 1.15625, -1.78125, -0.6875, 1.0
92, -0.9023199023199023, -1.5616605616605617, -1.5091575091575091, 0.96875, -2.0625, -1.03125, 1.0
93, -1.2503052503052503, -0.894993894993895, -1.9658119658119657, 1.3125, -2.125, -1.0625, 1.0
94, -0.9352869352869353, -2.5396825396825395, -3.6825396825396823, 1.46875, -2.1875, -0.96875, 1.0
95, -0.5372405372405372, -3.2686202686202686, -5.476190476190476, 1.125, -2.3125, -1.125, 1.0
96, -1.5018315018315018, -2.10989010989011, -6.571428571428571, 0.625, -2.3125, -1.25, 1.0
97, -1.7728937728937728, -0.6434676434676435, -6.700854700854701, 0.625, -1.5625, -0.96875, 1.0
98, -2.2893772893772892, -0.31868131868131866, -6.532356532356532, 0.6875, -0.65625, -0.15625, 1.0
99, -1.4822954822954824, -0.7606837606837606, -5.2686202686202686, 0.75, 0.25, 0.4375, 1.0
100, 1.2905982905982907, -2.47008547008547, -4.111111111111111, 0.40625, 0.34375, 0.375, 1.0
101, 1.5714285714285714, -1.9230769230769231, -1.9682539682539681, 0.0, -0.125, -0.1875, 1.0
102, -0.3785103785103785, -0.1807081807081807, -0.7655677655677655, 0.0, -0.1875, -0.5625, 1.0
103, -0.894993894993895, 0.18437118437118438, -0.6691086691086691, 0.09375, -0.25, -0.46875, 1.0
104, -0.9560439560439561, 0.757020757020757, -0.7643467643467643, 0.15625, -0.3125, -0.3125, 1.0
105, -1.1672771672771673, 0.6678876678876678, -1.0207570207570207, 0.125, -0.15625, -0.09375, 1.0
106, -0.7094017094017094, 0.568986568986569, -1.0647130647130647, 0.125, 0.03125, 0.0625, 1.0
107, 0.2026862026862027, 0.2503052503052503, -0.8400488400488401, 0.125, 0.1875, 0.15625, 1.0
108, 1.0305250305250304, -0.13797313797313798, -0.6251526251526252, 0.03125, 0.125, 0.0625, 1.0
109, -0.18315018315018314, 0.36507936507936506, -0.28205128205128205, 0.0, 0.03125, 0.0625, 1.0
110, 0.009768009768009768, 0.2087912087912088, -0.03663003663003663, 0.0, 0.21875, 0.25, 1.0
111, 0.7606837606837606, -0.2442002442002442, 0.15995115995115994, 0.0625, 0.28125, 0.375, 1.0
112, 1.032967032967033, -0.73992673992674, -0.2698412698412698, 0.0625, 0.125, 0.21875, 1.0
113, 0.22954822954822954, -0.41147741147741146, -0.47374847374847373, -0.0625, 0.03125, 0.0, 1.0
114, -0.2515262515262515, 0.10378510378510379, -0.40415140415140416, -0.09375, 0.09375, 0.0, 1.0
115, -0.16971916971916973, 0.11965811965811966, -0.21245421245421245, -0.0625, 0.21875, 0.15625, 1.0
116, 0.2771672771672772, -0.304029304029304, 0.0, 0.0, 0.28125, 0.21875, 1.0
117, 0.48595848595848595, -0.4590964590964591, 0.09157509157509157, -0.0625, 0.1875, 0.125, 1.0
118, 0.03907203907203907, -0.15262515262515264, 0.04395604395604396, -0.125, 0.03125, 0.03125, 1.0
119, -0.1855921855921856, 0.02197802197802198, -0.11355311355311355, -0.125, 0.09375, 0.03125, 1.0
120, -0.27106227106227104, 0.07203907203907203, -0.1623931623931624, -0.03125, 0.21875, 0.1875, 1.0
121, 0.08302808302808302, -0.15506715506715507, 0.05860805860805861, 0.0, 0.28125, 0.1875, 1.0
122, 0.16727716727716727, -0.19536019536019536, 0.3492063492063492, 0.0, 0.125, 0.125, 1.0
123, 0.2625152625152625, -0.09768009768009768, 0.18681318681318682, 0.03125, 0.0625, 0.03125, 1.0
124, 0.004884004884004884, -0.008547008547008548, -0.10500610500610501, 0.03125, 0.0625, 0.03125, 1.0
125, -0.21245421245421245, -0.04395604395604396, -0.4713064713064713, -0.03125, 0.21875, 0.09375, 1.0
126, -0.5018315018315018, -0.39438339438339437, -0.9181929181929182, -0.25, 0.46875, 0.28125, 0.0
127, -0.18437118437118438, 0.11233211233211234, -0.6214896214896215, -0.1875, 0.65625, 0.34375, 0.0
128, 0.3418803418803419, -0.4236874236874237, -0.06715506715506715, -0.09375, 0.59375, 0.28125, 0.0
129, -0.3504273504273504, -0.017094017094017096, -0.08058608058608059, 0.0, 0.5625, 0.21875, 0.0
130, -0.05128205128205128, 0.05616605616605617, -0.1807081807081807, 0.0, 0.4375, 0.1875, 0.0
131, -0.040293040293040296, -0.009768009768009768, -0.8327228327228328, 0.0, 0.3125, 0.1875, 0.0
132, 0.1623931623931624, -0.21733821733821734, -3.004884004884005, -0.03125, 0.15625, 0.25, 0.0
133, -0.9633699633699634, -1.2820512820512822, -3.2673992673992673, -0.125, 0.71875, 0.375, 0.0
134, 1.2136752136752136, -1.3797313797313797, -3.0195360195360195, -0.25, 1.25, 0.25, 0.0
135, 1.2197802197802199, -1.0683760683760684, -3.155067155067155, -0.375, 1.03125, 0.0, 0.0
136, -0.06227106227106227, -0.442002442002442, -3.299145299145299, -0.40625, 0.78125, -0.1875, 0.0
137, -0.7264957264957265, -0.5335775335775336, -3.8107448107448105, -0.3125, 0.65625, 0.0, 0.0
138, -1.8144078144078144, -1.9926739926739927, -4.249084249084249, -0.46875, 0.78125, 0.15625, 0.0
139, -0.5592185592185592, -1.8144078144078144, -3.600732600732601, -0.84375, 1.125, 0.125, 0.0
140, 0.45665445665445664, -0.8302808302808303, -2.8192918192918195, -1.0625, 0.90625, 0.09375, 0.0
141, 0.15506715506715507, -0.4175824175824176, -2.3894993894993894, -0.84375, 0.4375, 0.15625, 0.0
142, -0.41025641025641024, -1.061050061050061, -2.1233211233211233, -0.34375, 0.28125, 0.28125, 0.0
143, -1.15018315018315, -2.6764346764346763, -2.202686202686203, -0.1875, 0.5625, 0.28125, 0.0
144, -0.6153846153846154, -3.1343101343101343, -1.927960927960928, -0.84375, 1.1875, 0.0, 0.0
145, -0.18315018315018314, -2.525030525030525, -1.0708180708180708, -1.3125, 1.28125, -0.1875, 0.0
146, 0.05128205128205128, -1.7448107448107448, 0.07692307692307693, -1.46875, 1.09375, -0.25, 0.0
147, -0.10622710622710622, -1.0744810744810744, 1.120879120879121, -1.4375, 0.9375, -0.28125, 0.0
148, -0.28083028083028083, -0.63003663003663, 1.8547008547008548, -1.3125, 0.75, -0.21875, 0.0
149, -0.3308913308913309, -0.11233211233211234, 2.2063492063492065, -1.0625, 0.59375, -0.125, 0.0
150, -0.463980463980464, -0.07081807081807082, 2.0366300366300365, -0.78125, 0.5, -0.09375, 0.0
151, -1.2124542124542124, -0.5641025641025641, 1.9511599511599511, -0.84375, 0.625, -0.09375, 0.0
152, -1.2942612942612943, -0.29181929181929184, 2.5042735042735043, -0.96875, 0.875, -0.09375, 0.0
153, -0.4432234432234432, 0.13064713064713065, 2.755799755799756, -0.875, 0.84375, -0.0625, 0.0
154, -0.18925518925518925, 0.09523809523809523, 2.8351648351648353, -0.71875, 0.5625, -0.09375, 0.0
155, 0.14652014652014653, 0.35653235653235654, 2.1355311355311355, -0.28125, 0.0625, -0.03125, 0.0
156, -1.459096459096459, -0.015873015873015872, 1.2991452991452992, -0.375, 0.21875, -0.09375, 0.0
157, -1.4004884004884004, 0.03540903540903541, 1.8754578754578755, -0.5625, 0.65625, -0.09375, 0.0
158, -0.47619047619047616, 0.41025641025641024, 2.1758241758241756, -0.625, 0.90625, -0.09375, 0.0
159, -0.7851037851037851, 0.6227106227106227, 2.7875457875457874, -0.625, 0.71875, -0.09375, 0.0
160, -0.9194139194139194, 0.5677655677655677, 3.1062271062271063, -0.53125, 0.5, -0.09375, 0.0
161, -0.9877899877899878, 0.8034188034188035, 2.967032967032967, -0.46875, 0.3125, -0.09375, 0.0
162, -0.8620268620268621, 0.5225885225885226, 2.562881562881563, -0.25, 0.0625, 0.0, 0.0
163, -0.5445665445665445, 0.4542124542124542, 1.6373626373626373, 0.0, -0.09375, 0.0, 0.0
164, -0.7826617826617827, -0.05128205128205128, 0.8717948717948718, 0.15625, -0.21875, 0.09375, 0.0
165, -0.8705738705738706, -0.20146520146520147, 0.6373626373626373, 0.09375, -0.0625, 0.09375, 0.0
166, -0.4945054945054945, -0.20512820512820512, 0.6507936507936508, 0.0, 0.125, 0.03125, 0.0
167, -0.16971916971916973, -0.1343101343101343, 0.6947496947496947, -0.0625, 0.125, 0.0, 0.0
168, -0.013431013431013432, -0.336996336996337, 0.47985347985347987, -0.09375, -0.09375, 0.03125, 0.0
169, -0.0231990231990232, -0.23321123321123322, 0.23809523809523808, -0.0625, -0.21875, 0.0, 0.0
170, -0.36874236874236876, -0.10744810744810745, 0.0757020757020757, -0.03125, -0.1875, 0.03125, 0.0
171, -0.32844932844932845, -0.15262515262515264, -0.2087912087912088, 0.0, -0.0625, 0.0625, 0.0
172, 0.1221001221001221, -0.3626373626373626, -0.5164835164835165, 0.0, -0.0625, 0.09375, 0.0
173, -0.03663003663003663, -0.22832722832722832, -0.43956043956043955, -0.03125, 0.0, 0.0625, 0.0
174, -0.0231990231990232, -0.3028083028083028, -0.22344322344322345, -0.09375, 0.03125, 0.0625, 0.0
175, 0.06837606837606838, -0.08547008547008547, 0.047619047619047616, -0.0625, 0.0, 0.03125, 0.0
176, 0.2148962148962149, -0.11843711843711843, -0.09035409035409035, -0.03125, -0.09375, 0.0625, 0.0
177, 0.1221001221001221, -0.06593406593406594, -0.2893772893772894, 0.0, -0.125, 0.0625, 0.0
178, -0.10378510378510379, -0.16971916971916973, -0.37606837606837606, -0.03125, 0.0, 0.0, 0.0
179, -0.08547008547008547, -0.057387057387057384, 0.518925518925519, -0.125, 0.15625, 0.0, 0.0
180, 0.17582417582417584, 0.09035409035409035, 0.8266178266178266, -0.1875, 0.09375, 0.0, 0.0
181, 0.2673992673992674, 0.20024420024420025, 0.6691086691086691, -0.09375, -0.09375, -0.03125, 0.0
182, 0.08913308913308914, -0.018315018315018316, -0.042735042735042736, 0.0625, -0.28125, 0.0, 0.0
183, -0.06227106227106227, -0.27350427350427353, -0.7057387057387058, 0.15625, -0.28125, 0.0625, 0.0
184, 0.004884004884004884, -0.326007326007326, -0.9230769230769231, 0.125, -0.09375, 0.03125, 0.0
185, 0.34065934065934067, -0.25518925518925517, -0.7496947496947497, 0.0, 0.03125, 0.0, 0.0
186, 0.4065934065934066, -0.07936507936507936, -0.5677655677655677, -0.0625, 0.03125, -0.03125, 0.0
187, 0.17826617826617827, 0.13186813186813187, -0.41147741147741146, -0.0625, 0.0, -0.0625, 0.0
188, 0.008547008547008548, 0.1978021978021978, -0.3992673992673993, -0.03125, 0.0, -0.0625, 0.0
189, 0.07814407814407814, -0.09645909645909646, -0.503052503052503, 0.0, 0.03125, -0.03125, 0.0
190, 0.06593406593406594, -0.05982905982905983, -0.23931623931623933, -0.15625, 0.0625, -0.0625, 0.0
191, -0.15873015873015872, 0.0231990231990232, 0.3137973137973138, -0.1875, 0.125, -0.0625, 0.0
192, -0.1221001221001221, 0.15995115995115994, 0.6678876678876678, -0.15625, 0.125, -0.0625, 0.0
193, -0.013431013431013432, 0.0757020757020757, 0.7496947496947497, -0.0625, 0.03125, -0.03125, 0.0
194, 0.09768009768009768, -0.057387057387057384, 0.3882783882783883, 0.0, -0.125, 0.0, 0.0
195, -0.10744810744810745, -0.2564102564102564, -0.15506715506715507, 0.03125, -0.15625, 0.0, 0.0
196, -0.0695970695970696, -0.4017094017094017, -0.43223443223443225, 0.0, -0.125, 0.0, 0.0
197, -0.09157509157509157, -0.34065934065934067, -0.4542124542124542, -0.03125, 0.0, 0.0, 0.0
198, 0.21367521367521367, -0.1794871794871795, -0.304029304029304, -0.03125, 0.03125, -0.03125, 0.0
199, 0.20634920634920634, -0.12087912087912088, -0.37362637362637363, 0.0, -0.03125, -0.03125, 0.0
200, 0.14285714285714285, -0.08669108669108669, -0.32844932844932845, -0.0625, -0.03125, -0.03125, 0.0
201, 0.06837606837606838, -0.03907203907203907, -0.231990231990232, -0.09375, 0.0, -0.03125, 0.0
202, 0.10744810744810745, 0.10989010989010989, -0.07203907203907203, -0.0625, 0.0, -0.03125, 0.0
203, 0.050061050061050064, -0.03785103785103785, -0.14163614163614163, 0.0, 0.0, 0.0, 0.0
204, 0.03296703296703297, -0.08424908424908426, -0.07326007326007326, 0.0, 0.0, 0.0, 0.0
205, 0.19291819291819293, -0.020757020757020756, 0.12698412698412698, 0.0, 0.0, -0.0625, 0.0
206, -0.16971916971916973, 0.03540903540903541, 0.13186813186813187, -0.03125, -0.0625, 0.0, 0.0
207, -0.10378510378510379, 0.10500610500610501, 0.27106227106227104, 0.03125, -0.0625, -0.03125, 0.0
208, 0.1391941391941392, -0.07326007326007326, -0.015873015873015872, 0.125, -0.09375, 0.0, 0.0
209, -0.05860805860805861, -0.13186813186813187, -0.29181929181929184, 0.15625, -0.21875, 0.0, 0.0
210, -0.304029304029304, -0.5592185592185592, -0.44932844932844934, -0.03125, -0.15625, 0.0, 0.0
211, -0.06837606837606838, -0.11355311355311355, -0.17826617826617827, -0.40625, 0.03125, 0.09375, 1.0
212, 0.20757020757020758, 0.8095238095238095, 0.13553113553113552, -0.40625, 0.03125, 0.0625, 1.0
213, 0.336996336996337, 0.2490842490842491, 0.2148962148962149, -0.09375, -0.125, 0.0, 1.0
214, -0.2600732600732601, 0.08913308913308914, 0.10989010989010989, 0.0625, -0.125, 0.0625, 1.0
215, -0.05982905982905983, -0.08913308913308914, 0.2039072039072039, 0.03125, -0.03125, 0.125, 1.0
216, 0.21733821733821734, -0.2600732600732601, 0.358974358974359, -0.0625, -0.0625, 0.0625, 1.0
217, -0.18437118437118438, 0.10866910866910867, 1.010989010989011, -0.09375, -0.03125, 0.03125, 1.0
218, -0.2698412698412698, 0.34554334554334554, 1.9304029304029304, 0.03125, -0.0625, 0.03125, 1.0
219, -0.43223443223443225, 0.231990231990232, 2.5518925518925517, 0.1875, -0.09375, 0.03125, 1.0
220, -0.8669108669108669, -0.14652014652014653, 3.21978021978022, 0.125, 0.0, 0.0625, 1.0
221, -0.7863247863247863, -0.30158730158730157, 4.4212454212454215, -0.03125, 0.0, 0.09375, 1.0
222, -0.5482295482295483, 0.11965811965811966, 6.140415140415141, 0.03125, -0.375, 0.0, 1.0
223, -1.2063492063492063, 0.5628815628815629, 7.15995115995116, 0.4375, -0.71875, 0.03125, 1.0
224, -1.916971916971917, -0.07326007326007326, 6.665445665445666, 0.8125, -0.71875, 0.0625, 1.0
225, -1.4908424908424909, -0.525030525030525, 5.452991452991453, 1.0, -0.5625, 0.125, 1.0
226, -0.7264957264957265, -0.13675213675213677, 4.581196581196581, 1.125, -0.59375, 0.125, 1.0
227, -0.05372405372405373, -0.3431013431013431, 3.826617826617827, 1.40625, -0.46875, 0.1875, 1.0
228, 1.242979242979243, -1.7045177045177045, 3.2344322344322345, 1.34375, -0.6875, 0.09375, 1.0
229, 1.0573870573870574, -1.7167277167277166, 2.244200244200244, 0.96875, -1.375, -0.28125, 1.0
230, -1.2014652014652014, -0.7094017094017094, 0.41147741147741146, 1.125, -1.53125, -0.53125, 1.0
231, -1.4981684981684982, -0.5494505494505495, -1.1514041514041513, 1.75, -0.90625, -0.34375, 1.0
232, 1.8339438339438339, -3.653235653235653, -2.6837606837606836, 1.90625, -0.8125, -0.15625, 1.0
233, 1.3125763125763126, -3.727716727716728, -2.8363858363858365, 1.1875, -1.59375, -0.59375, 1.0
234, -0.4554334554334554, -3.272283272283272, -2.4725274725274726, 0.65625, -1.78125, -1.15625, 1.0
235, -1.1282051282051282, -1.7179487179487178, -1.763125763125763, 0.78125, -1.46875, -1.3125, 1.0
236, 0.22344322344322345, -2.409035409035409, -2.0634920634920637, 1.375, -1.625, -1.25, 1.0
237, -0.8205128205128205, -3.526251526251526, -4.012210012210012, 1.21875, -2.1875, -1.53125, 1.0
238, -0.336996336996337, -3.253968253968254, -6.492063492063492, 0.84375, -2.1875, -1.8125, 1.0
239, -2.9621489621489623, -0.15995115995115994, -6.244200244200244, 1.125, -1.8125, -1.375, 1.0
240, -2.4542124542124544, -0.7362637362637363, -7.755799755799756, 1.0, -1.3125, -0.4375, 1.0
241, -1.5128205128205128, -1.3577533577533578, -7.9352869352869355, 0.53125, -0.75, 0.0, 1.0
242, -1.5897435897435896, -1.3015873015873016, -6.42979242979243, 0.125, 0.09375, 0.3125, 1.0
243, -0.38461538461538464, -1.3821733821733821, -3.907203907203907, -0.15625, 0.59375, 0.375, 1.0
244, 1.5189255189255189, -1.0244200244200243, -1.1758241758241759, -0.25, 0.15625, -0.15625, 1.0
245, 0.04884004884004884, 0.10500610500610501, -0.03418803418803419, -0.1875, -0.1875, -0.5, 1.0
246, -1.1355311355311355, 0.724053724053724, -0.5299145299145299, -0.125, -0.15625, -0.46875, 1.0
247, -1.1941391941391941, 0.7533577533577533, -0.8351648351648352, -0.125, -0.03125, -0.21875, 1.0
248, -0.16361416361416362, 0.4249084249084249, -0.5494505494505495, -0.09375, 0.0, -0.0625, 1.0
249, 0.2905982905982906, -0.1330891330891331, -0.25518925518925517, -0.03125, 0.0, 0.0, 1.0
250, 0.6019536019536019, -0.36507936507936506, -0.018315018315018316, -0.03125, -0.03125, -0.03125, 1.0
251, 0.2857142857142857, -0.2271062271062271, 0.09523809523809523, -0.125, -0.15625, -0.09375, 1.0
252, -0.11721611721611722, 0.03785103785103785, 0.11477411477411477, -0.09375, -0.125, -0.0625, 1.0
253, 0.042735042735042736, 0.0695970695970696, 0.1807081807081807, 0.03125, -0.03125, 0.0625, 1.0
254, 0.08180708180708181, -0.3137973137973138, -0.4603174603174603, 0.125, 0.03125, 0.125, 1.0
255, 0.11721611721611722, -0.30158730158730157, -0.645909645909646, 0.03125, 0.125, 0.09375, 1.0
256, 0.03785103785103785, 0.10989010989010989, -0.3833943833943834, -0.09375, 0.09375, 0.0, 1.0
257, -0.20757020757020758, 0.29914529914529914, -0.25518925518925517, -0.0625, 0.125, 0.09375, 1.0
258, -0.14774114774114774, 0.13553113553113552, -0.1623931623931624, 0.0, 0.15625, 0.1875, 1.0
259, 0.03907203907203907, -0.24297924297924298, -0.46886446886446886, 0.0, 0.15625, 0.1875, 1.0
260, 0.16727716727716727, -0.49572649572649574, -0.5848595848595849, -0.125, 0.125, 0.0, 1.0
261, -0.37484737484737485, -0.006105006105006105, -0.32112332112332115, -0.1875, 0.125, 0.0, 1.0
262, -0.35775335775335776, 0.33455433455433453, 0.15262515262515264, -0.0625, 0.1875, 0.125, 1.0
263, -0.2844932844932845, 0.1746031746031746, 0.08669108669108669, 0.03125, 0.21875, 0.21875, 1.0
264, -0.10622710622710622, -0.18681318681318682, 0.020757020757020756, 0.03125, 0.1875, 0.21875, 1.0
265, 0.1562881562881563, -0.19658119658119658, 0.1794871794871795, 0.0, 0.09375, 0.21875, 1.0
266, 0.07936507936507936, -0.11721611721611722, 0.13186813186813187, 0.0, 0.09375, 0.21875, 1.0
267, -0.054945054945054944, -0.326007326007326, -0.2673992673992674, -0.09375, 0.21875, 0.28125, 0.0
268, -0.2258852258852259, -0.045177045177045176, -0.442002442002442, -0.125, 0.375, 0.34375, 0.0
269, -0.26373626373626374, 0.5995115995115995, -0.231990231990232, 0.0625, 0.5, 0.4375, 0.0
270, -0.045177045177045176, -0.09645909645909646, -0.5421245421245421, 0.125, 0.5625, 0.4375, 0.0
271, -0.10989010989010989, -0.04884004884004884, -0.652014652014652, 0.15625, 0.625, 0.46875, 0.0
272, 0.003663003663003663, -0.8534798534798534, -0.7496947496947497, 0.0625, 0.59375, 0.375, 0.0
273, -0.24175824175824176, -0.5103785103785103, 0.21733821733821734, -0.1875, 0.5625, 0.21875, 0.0
274, -0.2222222222222222, 0.32234432234432236, 0.9426129426129426, -0.1875, 0.3125, 0.1875, 0.0
275, -0.43956043956043955, 0.514041514041514, 0.4432234432234432, 0.0, 0.09375, 0.25, 0.0
276, -0.7472527472527473, 0.199023199023199, -0.9352869352869353, 0.1875, 0.0625, 0.4375, 0.0
277, -0.4627594627594628, -0.2893772893772894, -2.3675213675213675, 0.25, 0.25, 0.5625, 0.0
278, -0.28327228327228327, -0.5225885225885226, -2.993894993894994, 0.0625, 0.5625, 0.65625, 0.0
279, -0.14896214896214896, -0.7155067155067155, -2.5335775335775335, -0.0625, 0.84375, 0.6875, 0.0
280, 0.7655677655677655, -0.34065934065934067, -2.4554334554334556, -0.09375, 0.9375, 0.65625, 0.0
281, 1.2673992673992673, 0.6398046398046398, -2.924297924297924, 0.0625, 0.6875, 0.625, 0.0
282, 0.31746031746031744, -0.24297924297924298, -4.722832722832723, 0.40625, 0.28125, 0.6875, 0.0
283, -1.6153846153846154, -2.208791208791209, -6.0989010989010985, 0.0625, 0.78125, 0.71875, 0.0
284, -1.2759462759462759, -3.3736263736263736, -6.046398046398046, -0.6875, 1.3125, 0.625, 0.0
285, -0.3553113553113553, -2.971916971916972, -4.931623931623932, -1.21875, 1.46875, 0.4375, 0.0
286, 0.5201465201465202, -2.485958485958486, -3.5934065934065935, -1.375, 1.15625, 0.25, 0.0
287, 0.6202686202686203, -1.7240537240537241, -2.5384615384615383, -1.125, 0.65625, 0.15625, 0.0
288, 0.12576312576312576, -1.9035409035409034, -2.070818070818071, -0.8125, 0.375, 0.09375, 0.0
289, -0.47985347985347987, -2.1514041514041513, -2.32967032967033, -0.78125, 0.46875, -0.03125, 0.0
290, -0.463980463980464, -2.5225885225885225, -2.253968253968254, -0.9375, 0.59375, -0.15625, 0.0
291, -1.3076923076923077, -1.7667887667887667, -1.3186813186813187, -1.125, 1.0625, -0.15625, 0.0
292, -0.8595848595848596, -1.2759462759462759, -0.1514041514041514, -1.1875, 1.25, -0.125, 0.0
293, -0.3235653235653236, -0.4053724053724054, 1.017094017094017, -1.03125, 1.1875, -0.15625, 0.0
294, 0.28083028083028083, -0.2661782661782662, 1.3785103785103785, -0.84375, 0.78125, -0.1875, 0.0
295, -0.6166056166056166, -0.05616605616605617, 2.354090354090354, -0.90625, 0.53125, -0.34375, 0.0
296, -0.7741147741147741, 0.17582417582417584, 2.8192918192918195, -0.96875, 0.75, -0.40625, 0.0
297, -0.5995115995115995, 0.4456654456654457, 3.1245421245421245, -0.9375, 0.96875, -0.375, 0.0
298, -0.6703296703296703, 0.34065934065934067, 3.583638583638584, -0.875, 0.9375, -0.25, 0.0
299, -0.9792429792429792, 0.4554334554334554, 4.224664224664225, -0.875, 0.90625, -0.28125, 0.0
300, -0.06837606837606838, 0.1794871794871795, 3.8107448107448105, -0.65625, 0.71875, -0.28125, 0.0
301, -1.017094017094017, 0.463980463980464, 3.8205128205128207, -0.65625, 0.40625, -0.28125, 0.0
302, -1.2417582417582418, 0.4517704517704518, 3.8034188034188032, -0.59375, 0.40625, -0.3125, 0.0
303, -1.5164835164835164, 0.5604395604395604, 3.978021978021978, -0.59375, 0.4375, -0.3125, 0.0
304, -0.3711843711843712, 0.4188034188034188, 3.039072039072039, -0.3125, 0.25, -0.15625, 0.0
305, -1.1636141636141637, 0.21245421245421245, 2.5934065934065935, -0.09375, -0.15625, -0.0625, 0.0
306, -1.3907203907203907, -0.02442002442002442, 2.1184371184371185, -0.03125, -0.15625, 0.0, 0.0
307, -1.1172161172161172, -0.15995115995115994, 1.8021978021978022, 0.0, 0.0, 0.0625, 0.0
308, -0.9401709401709402, -0.27106227106227104, 1.6336996336996337, 0.0, 0.03125, 0.0625, 0.0
309, -0.57997557997558, -0.31013431013431014, 1.5042735042735043, 0.0, 0.0, 0.125, 0.0
310, -0.22344322344322345, -0.37484737484737485, 1.0048840048840049, 0.0625, -0.1875, 0.21875, 0.0
311, -0.2905982905982906, -0.36507936507936506, 0.5641025641025641, 0.15625, -0.25, 0.1875, 0.0
312, -0.6434676434676435, -0.5128205128205128, 0.1452991452991453, 0.125, -0.09375, 0.1875, 0.0
313, -0.18192918192918192, -0.5213675213675214, -0.16971916971916973, 0.09375, 0.03125, 0.1875, 0.0
314, 0.12698412698412698, -0.575091575091575, -0.15018315018315018, 0.0, 0.0625, 0.125, 0.0
315, 0.20634920634920634, -0.38217338217338215, 0.11477411477411477, -0.09375, 0.0, 0.0625, 0.0
316, 0.24297924297924298, -0.002442002442002442, 0.3894993894993895, -0.03125, -0.09375, 0.03125, 0.0
317, 0.22954822954822954, 0.02197802197802198, 0.16483516483516483, 0.09375, -0.25, 0.0, 0.0
318, -0.10256410256410256, -0.13064713064713065, -0.21855921855921856, 0.0625, -0.0625, 0.0, 0.0
319, 0.3711843711843712, -0.25274725274725274, -0.03907203907203907, 0.0, 0.0, 0.0, 0.0
320, 0.22954822954822954, -0.12576312576312576, -0.1343101343101343, -0.03125, -0.125, -0.03125, 0.0
321, -0.10866910866910867, 0.0695970695970696, -0.13553113553113552, 0.0, -0.21875, -0.03125, 0.0
322, -0.0927960927960928, 0.03418803418803419, -0.014652014652014652, 0.03125, -0.125, 0.0, 0.0
323, 0.08547008547008547, -0.04151404151404151, 0.001221001221001221, 0.03125, -0.09375, -0.03125, 0.0
324, 0.1514041514041514, -0.2026862026862027, -0.336996336996337, 0.09375, -0.21875, -0.03125, 0.0
325, -0.3052503052503053, -0.22466422466422467, -0.5555555555555556, 0.0625, -0.25, -0.03125, 0.0
326, -0.39438339438339437, -0.08302808302808302, -0.2564102564102564, -0.03125, -0.09375, 0.0, 0.0
327, 0.042735042735042736, -0.019536019536019536, 0.11477411477411477, -0.0625, 0.0, 0.03125, 0.0
328, 0.33577533577533575, 0.11965811965811966, 0.13797313797313798, -0.03125, -0.125, 0.03125, 0.0
329, 0.047619047619047616, -0.040293040293040296, -0.26495726495726496, 0.09375, -0.3125, 0.03125, 0.0
330, -0.4517704517704518, -0.2564102564102564, -0.5018315018315018, 0.03125, -0.125, 0.0625, 0.0
331, -0.3247863247863248, -0.07814407814407814, -0.18437118437118438, -0.03125, 0.09375, 0.09375, 0.0
332, 0.1855921855921856, -0.008547008547008548, -0.029304029304029304, 0.03125, 0.03125, 0.125, 0.0
333, 0.10012210012210013, 0.042735042735042736, 0.10012210012210013, 0.0625, -0.03125, 0.125, 0.0
334, 0.02197802197802198, -0.045177045177045176, 0.04395604395604396, 0.0625, -0.03125, 0.0625, 0.0
335, -0.03296703296703297, 0.009768009768009768, 0.2271062271062271, 0.03125, -0.03125, 0.03125, 0.0
336, 0.05372405372405373, -0.10744810744810745, -0.1855921855921856, 0.0625, -0.09375, 0.0625, 0.0
337, -0.19413919413919414, -0.020757020757020756, -0.2698412698412698, 0.03125, -0.09375, 0.0625, 0.0
338, -0.23076923076923078, -0.02197802197802198, -0.36874236874236876, 0.0, 0.0, 0.0625, 0.0
339, 0.0927960927960928, -0.001221001221001221, -0.2600732600732601, -0.03125, 0.0, 0.0625, 0.0
340, 0.09645909645909646, 0.0231990231990232, -0.398046398046398, 0.0, -0.03125, 0.0625, 0.0
341, 0.031746031746031744, -0.07814407814407814, -0.5665445665445665, 0.0, 0.0, 0.0625, 0.0
342, 0.1111111111111111, -0.09523809523809523, -0.4456654456654457, -0.03125, 0.03125, 0.0625, 0.0
343, 0.13186813186813187, -0.05128205128205128, -0.3199023199023199, -0.09375, 0.125, 0.03125, 0.0
344, 0.2686202686202686, 0.0695970695970696, -0.0463980463980464, -0.125, 0.15625, 0.03125, 0.0
345, 0.28083028083028083, 0.08180708180708181, -0.020757020757020756, -0.0625, 0.03125, 0.0, 0.0
346, 0.0231990231990232, -0.052503052503052504, -0.18192918192918192, 0.0, -0.03125, 0.03125, 0.0
347, 0.04151404151404151, -0.05372405372405373, -0.09401709401709402, 0.0, -0.03125, 0.0, 0.0
348, 0.050061050061050064, -0.006105006105006105, 0.07448107448107448, 0.0, -0.03125, 0.0, 0.0
349, 0.05860805860805861, 0.026862026862026864, 0.001221001221001221, 0.0, -0.09375, 0.0625, 0.0
350, 0.020757020757020756, 0.020757020757020756, 0.1855921855921856, 0.125, -0.15625, 0.0625, 0.0
351, -0.33577533577533575, 0.0463980463980464, 0.3247863247863248, 0.25, -0.1875, 0.03125, 1.0
352, -0.7435897435897436, -0.019536019536019536, 0.10256410256410256, 0.1875, 0.0, 0.09375, 1.0
353, -0.05128205128205128, -0.07814407814407814, 0.5787545787545788, 0.0625, 0.15625, 0.0625, 1.0
354, 0.326007326007326, 0.3833943833943834, 1.5335775335775337, 0.15625, -0.1875, 0.03125, 1.0
355, -0.41514041514041516, 0.6092796092796092, 1.9230769230769231, 0.34375, -0.3125, 0.125, 1.0
356, -0.7387057387057387, 0.2771672771672772, 1.866910866910867, 0.4375, -0.15625, 0.1875, 1.0
357, -0.6825396825396826, -0.15384615384615385, 2.032967032967033, 0.1875, 0.03125, 0.15625, 1.0
358, -0.29304029304029305, 0.1221001221001221, 3.481074481074481, -0.03125, -0.09375, 0.15625, 1.0
359, -0.7814407814407814, 1.0818070818070817, 5.13919413919414, 0.09375, -0.375, 0.1875, 1.0
360, -1.3406593406593406, 1.2735042735042734, 5.711843711843712, 0.5, -0.4375, 0.375, 1.0
361, -1.3626373626373627, 0.8095238095238095, 5.482295482295482, 0.75, -0.40625, 0.5, 1.0
362, -0.6214896214896215, 0.13064713064713065, 5.012210012210012, 0.75, -0.40625, 0.5, 1.0
363, -0.21611721611721613, 0.08791208791208792, 4.588522588522588, 0.78125, -0.4375, 0.34375, 1.0
364, -0.28327228327228327, 0.42246642246642246, 4.22954822954823, 1.0625, -0.34375, 0.28125, 1.0
365, 0.6007326007326007, -0.978021978021978, 3.3626373626373627, 1.125, -0.40625, 0.09375, 1.0
366, 0.336996336996337, -1.3345543345543345, 3.484737484737485, 0.6875, -0.6875, -0.0625, 1.0
367, 0.028083028083028084, -0.3956043956043956, 3.7667887667887667, 0.53125, -1.15625, -0.28125, 1.0
368, -1.5995115995115996, -0.4725274725274725, 0.8485958485958486, 1.0625, -1.46875, -0.375, 1.0
369, -2.0793650793650795, -1.684981684981685, -1.901098901098901, 1.46875, -1.0625, 0.0, 1.0
370, -0.009768009768009768, -2.7985347985347984, -2.934065934065934, 1.3125, -0.375, 0.25, 1.0
371, 1.496947496947497, -3.001221001221001, -1.8278388278388278, 0.5, -0.875, 0.0, 1.0
372, -2.807081807081807, 0.001221001221001221, -0.36752136752136755, 0.3125, -1.375, -0.40625, 1.0
373, -1.9120879120879122, -1.8095238095238095, -1.1965811965811965, 1.03125, -0.9375, -0.125, 1.0
374, -0.7924297924297924, -3.746031746031746, -3.1294261294261294, 1.0, -1.09375, -0.1875, 1.0
375, -1.4456654456654456, -1.7728937728937728, -3.9413919413919416, 0.625, -1.59375, -0.5, 1.0
376, -0.5897435897435898, -1.4713064713064714, -5.733821733821734, 0.78125, -2.09375, -0.53125, 1.0
377, -2.1538461538461537, -1.4004884004884004, -8.233211233211232, 0.71875, -1.71875, -0.34375, 1.0
378, -3.1343101343101343, -0.7582417582417582, -9.466422466422467, 0.65625, -0.25, 0.46875, 1.0
379, -1.3406593406593406, -0.8827838827838828, -8.396825396825397, 0.8125, 1.125, 1.21875, 1.0
380, 2.2014652014652016, -3.6654456654456653, -6.987789987789988, 0.40625, 1.375, 1.0625, 1.0
381, 3.531135531135531, -4.135531135531136, -3.995115995115995, -0.5, 0.65625, -0.1875, 1.0
382, 1.133089133089133, -1.1721611721611722, -0.10012210012210013, -0.875, -0.03125, -1.0625, 1.0
383, -0.8253968253968254, 1.3614163614163615, 1.8583638583638584, -0.5625, -0.5, -1.0, 1.0
384, -1.84981684981685, 2.3553113553113554, 0.8986568986568987, -0.0625, -0.4375, -0.46875, 1.0
385, -1.3406593406593406, 1.52014652014652, -0.8107448107448108, 0.03125, -0.15625, 0.03125, 1.0
386, -0.6984126984126984, 0.2490842490842491, -1.3553113553113554, 0.0, 0.21875, 0.28125, 1.0
387, 1.0, -0.42857142857142855, -0.7118437118437119, -0.21875, 0.21875, 0.09375, 1.0
388, 0.2442002442002442, 0.16361416361416362, 0.2039072039072039, -0.03125, 0.0, 0.0, 1.0
389, -0.43833943833943834, -0.3663003663003663, -0.3235653235653236, 0.0625, 0.0, 0.09375, 1.0
390, -0.13797313797313798, -0.25396825396825395, -0.39194139194139194, 0.03125, 0.09375, 0.1875, 1.0
391, 0.1746031746031746, -0.31013431013431014, -0.10989010989010989, 0.0, 0.125, 0.25, 1.0
392, 0.4700854700854701, -0.5262515262515263, 0.13186813186813187, 0.0, 0.125, 0.21875, 1.0
393, 0.1562881562881563, -0.2698412698412698, 0.25274725274725274, 0.0, 0.0, 0.09375, 1.0
394, -0.25518925518925517, -0.013431013431013432, 0.06837606837606838, 0.0, -0.03125, 0.03125, 1.0
395, -0.16971916971916973, -0.19658119658119658, -0.30158730158730157, 0.0, 0.0625, 0.0625, 1.0
396, 0.0757020757020757, 0.05372405372405373, -0.10866910866910867, 0.0, 0.09375, 0.09375, 1.0
397, 0.026862026862026864, 0.10866910866910867, 0.01221001221001221, 0.03125, 0.09375, 0.125, 1.0
398, 0.06715506715506715, -0.18192918192918192, -0.2026862026862027, 0.09375, 0.125, 0.1875, 1.0
399, 0.29304029304029305, -0.30158730158730157, -0.31868131868131866, 0.03125, 0.1875, 0.0625, 1.0
400, 0.03418803418803419, -0.01098901098901099, 0.014652014652014652, 0.0, 0.0625, 0.0, 1.0
401, -0.29304029304029305, 0.2490842490842491, 0.05372405372405373, 0.0, 0.0625, 0.0, 1.0
402, -0.4053724053724054, 0.2844932844932845, -0.02564102564102564, 0.03125, 0.125, 0.09375, 1.0
403, -0.4261294261294261, 0.26373626373626374, 0.007326007326007326, 0.09375, 0.1875, 0.21875, 1.0
404, -0.020757020757020756, 0.07448107448107448, 0.12576312576312576, 0.125, 0.15625, 0.25, 1.0
405, 0.12942612942612944, -0.27472527472527475, -0.057387057387057384, 0.03125, 0.0625, 0.1875, 1.0
406, 0.13553113553113552, -0.14407814407814407, -0.02564102564102564, -0.0625, 0.03125, 0.15625, 0.0
407, 0.06105006105006105, 0.045177045177045176, -0.32967032967032966, -0.03125, 0.03125, 0.125, 0.0
408, -0.5653235653235653, 0.5982905982905983, -0.10744810744810745, 0.15625, 0.1875, 0.125, 0.0
409, -0.4078144078144078, 0.2454212454212454, -0.23809523809523808, 0.28125, 0.3125, 0.1875, 0.0
410, 0.042735042735042736, 0.13797313797313798, -0.20024420024420025, 0.46875, 0.34375, 0.1875, 0.0
411, -0.10500610500610501, -0.14285714285714285, -0.5006105006105006, 0.46875, 0.375, 0.09375, 0.0
412, 1.3736263736263736, -0.4456654456654457, -2.6764346764346763, 0.21875, 0.21875, -0.125, 0.0
413, 0.19291819291819293, -0.2258852258852259, -3.6764346764346763, 0.0, 0.03125, -0.28125, 0.0
414, -0.24297924297924298, -0.003663003663003663, -3.675213675213675, 0.0, 0.25, -0.125, 0.0
415, 0.018315018315018316, -1.3333333333333333, -4.267399267399267, 0.09375, 0.53125, 0.0, 0.0
416, 0.3772893772893773, -1.9304029304029304, -4.808302808302808, -0.03125, 0.8125, -0.03125, 0.0
417, 0.9047619047619048, -1.778998778998779, -5.156288156288157, -0.34375, 0.625, -0.3125, 0.0
418, -0.21978021978021978, -1.0915750915750915, -4.908424908424909, -0.53125, 0.375, -0.40625, 0.0
419, -0.7643467643467643, -1.5653235653235653, -5.202686202686203, -0.5, 0.1875, -0.25, 0.0
420, -2.3516483516483517, -2.67032967032967, -5.929181929181929, -0.75, 0.5625, -0.1875, 0.0
421, -0.6495726495726496, -2.8864468864468864, -5.034188034188034, -1.15625, 1.3125, -0.125, 0.0
422, 0.6410256410256411, -2.5409035409035408, -3.415140415140415, -1.5625, 1.40625, -0.1875, 0.0
423, 1.032967032967033, -2.0598290598290596, -1.8547008547008548, -1.5625, 0.84375, -0.46875, 0.0
424, -0.07448107448107448, -1.595848595848596, -0.5067155067155067, -1.3125, 0.59375, -0.4375, 0.0
425, -0.48717948717948717, -0.5482295482295483, 0.6923076923076923, -0.875, 0.5625, -0.25, 0.0
426, -0.7692307692307693, -1.2222222222222223, 0.7716727716727717, -0.59375, 0.65625, -0.3125, 0.0
427, -0.5775335775335775, -1.4224664224664225, 0.8913308913308914, -0.65625, 0.75, -0.34375, 0.0
428, -0.12942612942612944, -0.7448107448107448, 1.1135531135531136, -0.6875, 0.6875, -0.3125, 0.0
429, -0.4810744810744811, -0.5604395604395604, 1.9804639804639805, -0.78125, 0.59375, -0.3125, 0.0
430, -0.5763125763125763, -0.43345543345543347, 2.866910866910867, -0.90625, 0.5, -0.34375, 0.0
431, -0.9267399267399268, 0.2222222222222222, 3.3907203907203907, -0.875, 0.5625, -0.375, 0.0
432, -0.9804639804639804, 0.9682539682539683, 3.7045177045177047, -0.65625, 0.65625, -0.3125, 0.0
433, -1.0073260073260073, 0.7973137973137974, 3.5054945054945055, -0.4375, 0.53125, -0.21875, 0.0
434, -0.8864468864468864, 0.326007326007326, 3.2515262515262515, -0.53125, 0.4375, -0.21875, 0.0
435, -1.4163614163614164, 0.7374847374847375, 4.155067155067155, -0.90625, 0.5625, -0.3125, 0.0
436, -0.8717948717948718, 0.9304029304029304, 4.492063492063492, -0.9375, 0.65625, -0.28125, 0.0
437, -1.0976800976800978, 1.4029304029304028, 4.68009768009768, -0.75, 0.53125, -0.28125, 0.0
438, -0.8241758241758241, 1.474969474969475, 4.136752136752137, -0.34375, 0.25, -0.1875, 0.0
439, -1.1294261294261294, 1.164835164835165, 3.4078144078144077, -0.09375, 0.03125, -0.125, 0.0
440, -1.0354090354090355, 0.796092796092796, 2.3675213675213675, 0.0, 0.0, -0.0625, 0.0
441, -0.8937728937728938, 0.5177045177045178, 1.3467643467643469, 0.03125, 0.0, -0.0625, 0.0
442, -0.6275946275946276, 0.27228327228327226, 0.6214896214896215, 0.03125, -0.0625, 0.0, 0.0
443, -0.8241758241758241, 0.08424908424908426, 0.21733821733821734, -0.03125, -0.09375, 0.0, 0.0
444, -0.7362637362637363, 0.16483516483516483, -0.06837606837606838, -0.15625, 0.0, 0.0, 0.0
445, -0.5958485958485958, 0.18681318681318682, -0.12087912087912088, -0.1875, 0.09375, 0.03125, 0.0
446, -0.29304029304029305, 0.1978021978021978, 0.019536019536019536, -0.09375, 0.1875, 0.0625, 0.0
447, -0.2564102564102564, -0.008547008547008548, 0.27228327228327226, -0.125, 0.15625, 0.09375, 0.0
448, -0.10866910866910867, -0.1514041514041514, 0.36385836385836384, -0.15625, 0.125, 0.125, 0.0
449, 0.4126984126984127, -0.1855921855921856, 0.19536019536019536, -0.09375, -0.03125, 0.15625, 0.0
450, -0.018315018315018316, -0.34554334554334554, -0.19413919413919414, -0.0625, -0.09375, 0.125, 0.0
451, 0.07326007326007326, -0.315018315018315, -0.28083028083028083, -0.0625, -0.03125, 0.125, 0.0
452, 0.13553113553113552, -0.326007326007326, -0.29914529914529914, -0.0625, 0.03125, 0.09375, 0.0
453, 0.32844932844932845, -0.2844932844932845, -0.1746031746031746, -0.09375, 0.0, 0.0625, 0.0
454, 0.21855921855921856, -0.15995115995115994, -0.23321123321123322, -0.09375, -0.03125, 0.0625, 0.0
455, 0.22954822954822954, -0.20024420024420025, -0.11477411477411477, -0.09375, -0.0625, 0.03125, 0.0
456, 0.09768009768009768, -0.002442002442002442, -0.20634920634920634, 0.0, 0.0, 0.03125, 0.0
457, 0.4188034188034188, -0.3956043956043956, -0.4993894993894994, -0.03125, -0.09375, 0.0625, 0.0
458, 0.3528693528693529, -0.08669108669108669, -0.14896214896214896, -0.03125, 0.09375, 0.03125, 0.0
459, 0.18437118437118438, -0.004884004884004884, 0.047619047619047616, -0.03125, 0.0, 0.03125, 0.0
460, -0.358974358974359, 0.2771672771672772, 0.2783882783882784, -0.03125, 0.03125, 0.0, 0.0
461, -0.12087912087912088, 0.0757020757020757, 0.27106227106227104, 0.09375, 0.09375, 0.03125, 0.0
462, 0.231990231990232, -0.32967032967032966, -0.10744810744810745, 0.1875, 0.0625, 0.03125, 0.0
463, 0.06349206349206349, -0.3162393162393162, -0.37484737484737485, 0.03125, -0.03125, 0.0, 0.0
464, -0.020757020757020756, -0.2515262515262515, -0.46764346764346765, -0.0625, -0.0625, -0.03125, 0.0
465, -0.08547008547008547, 0.02442002442002442, -0.3528693528693529, -0.125, 0.0, -0.0625, 0.0
466, -0.12698412698412698, 0.14285714285714285, -0.22832722832722832, -0.09375, 0.0625, -0.03125, 0.0
467, 0.07692307692307693, 0.02442002442002442, -0.09645909645909646, -0.03125, 0.09375, 0.0, 0.0
468, 0.015873015873015872, -0.06715506715506715, -0.03663003663003663, -0.03125, 0.0625, 0.0, 0.0
469, 0.02564102564102564, -0.052503052503052504, -0.018315018315018316, -0.0625, 0.03125, -0.03125, 0.0
470, 0.019536019536019536, -0.028083028083028084, 0.007326007326007326, -0.03125, 0.0, 0.0, 0.0
471, 0.07448107448107448, -0.1575091575091575, -0.19291819291819293, -0.03125, -0.0625, 0.0, 0.0
472, 0.008547008547008548, -0.09157509157509157, -0.231990231990232, -0.03125, 0.0, 0.0, 0.0
473, 0.12087912087912088, -0.05128205128205128, -0.23076923076923078, 0.0, 0.0, 0.0, 0.0
474, 0.2222222222222222, -0.12942612942612944, -0.3492063492063492, -0.03125, -0.0625, 0.0, 0.0
475, 0.06227106227106227, -0.09157509157509157, -0.452991452991453, -0.09375, -0.0625, -0.03125, 0.0
476, 0.04884004884004884, -0.004884004884004884, -0.1746031746031746, -0.09375, 0.0, -0.0625, 0.0
477, 0.10378510378510379, -0.03907203907203907, -0.12698412698412698, -0.0625, 0.0, -0.0625, 0.0
478, -0.018315018315018316, -0.05860805860805861, 0.03785103785103785, -0.0625, 0.0, -0.0625, 0.0
479, -0.015873015873015872, -0.03296703296703297, 0.3626373626373626, -0.0625, -0.0625, -0.03125, 0.0
480, -0.12576312576312576, 0.050061050061050064, 0.8229548229548229, -0.03125, -0.125, 0.0, 0.0
481, -0.5396825396825397, 0.2503052503052503, 1.177045177045177, 0.15625, -0.09375, 0.09375, 0.0
482, -0.4297924297924298, -0.2576312576312576, 1.2796092796092795, 0.21875, 0.0, 0.125, 1.0
483, -0.23076923076923078, -0.3199023199023199, 1.2967032967032968, 0.0, 0.0625, 0.1875, 1.0
484, -0.3089133089133089, -0.33821733821733824, 2.1953601953601956, -0.125, 0.0625, 0.0625, 1.0
485, -1.144078144078144, 0.5628815628815629, 4.069597069597069, -0.25, 0.0, 0.0, 1.0
486, -1.7606837606837606, 1.2014652014652014, 5.934065934065934, 0.0, -0.03125, 0.03125, 1.0
487, -2.2173382173382175, 0.57997557997558, 6.451770451770452, 0.28125, -0.125, 0.125, 1.0
488, -2.087912087912088, -0.37606837606837606, 6.347985347985348, 0.28125, -0.28125, 0.125, 1.0
489, -2.3064713064713063, -0.3528693528693529, 6.284493284493284, 0.1875, -0.46875, 0.09375, 1.0
490, -2.1880341880341883, 0.001221001221001221, 6.115995115995116, 0.40625, -0.625, 0.0625, 1.0
491, -2.249084249084249, 0.31013431013431014, 4.9914529914529915, 0.90625, -0.53125, 0.28125, 1.0
492, -0.884004884004884, -0.2796092796092796, 3.2527472527472527, 1.46875, -0.21875, 0.53125, 1.0
493, 0.4139194139194139, -1.6654456654456655, 1.7643467643467643, 1.59375, -0.28125, 0.625, 1.0
494, 1.818070818070818, -3.4114774114774113, 0.4236874236874237, 0.6875, -0.78125, 0.28125, 1.0
495, 0.47741147741147744, -1.1355311355311355, 1.0158730158730158, 0.3125, -0.9375, -0.03125, 1.0
496, -0.2222222222222222, -0.23931623931623933, 1.601953601953602, 0.625, -0.9375, -0.09375, 1.0
497, -0.007326007326007326, -0.6214896214896215, 1.5763125763125763, 0.875, -1.34375, -0.1875, 1.0
498, 0.08547008547008547, -1.2173382173382172, -0.7521367521367521, 1.09375, -1.65625, -0.375, 1.0
499, -1.9731379731379732, -1.3406593406593406, -3.8424908424908426, 1.375, -0.9375, -0.03125, 1.0
500, -0.08424908424908426, -1.818070818070818, -4.227106227106227, 1.21875, -0.625, 0.125, 1.0
501, 0.6507936507936508, -1.2625152625152625, -3.208791208791209, 1.375, -0.75, 0.125, 1.0
502, 0.3614163614163614, -1.4737484737484738, -2.768009768009768, 1.5, -1.1875, 0.125, 1.0
503, -1.028083028083028, -1.6398046398046398, -3.2637362637362637, 1.6875, -1.03125, 0.34375, 1.0
504, 0.8449328449328449, -3.144078144078144, -4.847374847374847, 1.1875, -1.65625, 0.03125, 1.0
505, -0.514041514041514, -1.6263736263736264, -6.468864468864469, 0.71875, -2.0, -0.375, 1.0
506, -1.673992673992674, -0.2258852258852259, -6.087912087912088, 0.8125, -1.0625, -0.03125, 1.0
507, -1.277167277167277, -0.3235653235653236, -5.836385836385836, 1.125, 0.03125, 0.6875, 1.0
508, 0.9755799755799756, -1.496947496947497, -5.042735042735043, 1.03125, 0.53125, 1.15625, 1.0
509, 1.9084249084249085, -2.3675213675213675, -3.774114774114774, 0.40625, 0.34375, 0.53125, 1.0
510, 0.8522588522588522, -0.43101343101343104, -1.6080586080586081, -0.15625, 0.0, -0.25, 1.0
511, -0.1452991452991453, 1.236874236874237, -0.15873015873015872, -0.1875, -0.28125, -0.65625, 1.0
512, -0.9377289377289377, 1.4322344322344323, -0.6446886446886447, 0.03125, -0.4375, -0.5625, 1.0
513, -1.2844932844932846, 0.7802197802197802, -1.6324786324786325, 0.1875, -0.21875, -0.125, 1.0
514, -0.1514041514041514, -0.231990231990232, -1.6666666666666667, 0.09375, 0.3125, 0.21875, 1.0
515, 1.4993894993894994, -0.5738705738705738, -0.09157509157509157, -0.15625, 0.375, 0.1875, 1.0
516, 1.4432234432234432, -0.17338217338217338, 0.9816849816849816, -0.15625, -0.125, -0.28125, 1.0
517, 0.7374847374847375, 0.22832722832722832, 0.7851037851037851, 0.0, -0.3125, -0.34375, 1.0
518, -0.15384615384615385, 0.09768009768009768, -0.23076923076923078, 0.0, -0.21875, -0.25, 1.0
519, -0.9291819291819292, -0.05616605616605617, -0.8083028083028083, -0.09375, 0.0625, -0.03125, 1.0
520, -0.7973137973137974, 0.3199023199023199, -0.14407814407814407, -0.09375, 0.21875, 0.15625, 1.0
521, -0.315018315018315, 0.3614163614163614, 0.47985347985347987, 0.0625, 0.25, 0.28125, 1.0
522, 0.017094017094017096, 0.16361416361416362, 0.503052503052503, 0.1875, 0.125, 0.3125, 1.0
523, -0.2026862026862027, -0.32112332112332115, -0.398046398046398, 0.125, 0.0625, 0.21875, 1.0
524, -0.27472527472527475, -0.4249084249084249, -0.7704517704517705, -0.0625, 0.09375, 0.125, 1.0
525, -0.42124542124542125, 0.06227106227106227, -0.25274725274725274, -0.15625, 0.03125, 0.125, 1.0
526, -0.13553113553113552, 0.2515262515262515, 0.4542124542124542, -0.03125, 0.0, 0.1875, 1.0
527, 0.26495726495726496, -0.02442002442002442, 0.15018315018315018, 0.0625, -0.03125, 0.25, 1.0
528, 0.3968253968253968, -0.6202686202686203, -0.6178266178266179, 0.0, 0.09375, 0.21875, 1.0
529, 0.6263736263736264, -0.3601953601953602, -0.18437118437118438, -0.09375, 0.15625, 0.15625, 1.0
530, 0.5482295482295483, -0.27106227106227104, 0.1855921855921856, -0.09375, 0.125, 0.125, 1.0
531, 0.32844932844932845, -0.007326007326007326, 0.57997557997558, -0.03125, 0.09375, 0.125, 1.0
532, 0.03907203907203907, 0.08913308913308914, 0.4554334554334554, 0.0625, 0.0625, 0.15625, 1.0
533, -0.358974358974359, -0.09157509157509157, -0.0989010989010989, 0.125, 0.09375, 0.21875, 1.0
534, -0.3968253968253968, 0.17826617826617827, -0.4896214896214896, 0.0625, 0.21875, 0.28125, 1.0
535, -0.6239316239316239, 0.08547008547008547, -0.7435897435897436, 0.0, 0.46875, 0.4375, 1.0
536, -0.7863247863247863, 0.06715506715506715, -0.7753357753357754, -0.0625, 0.875, 0.625, 0.0
537, -0.04884004884004884, 0.1575091575091575, -0.34065934065934067, 0.09375, 1.28125, 0.71875, 0.0
538, 1.155067155067155, -0.6275946275946276, -0.3162393162393162, 0.28125, 1.15625, 0.6875, 0.0
539, 1.8327228327228327, -0.5103785103785103, -0.221001221001221, 0.28125, 0.40625, 0.21875, 0.0
540, 1.3821733821733821, -0.5152625152625152, -1.0854700854700854, 0.3125, 0.0, -0.0625, 0.0
541, 0.18681318681318682, -1.1025641025641026, -2.9096459096459095, 0.0625, 0.0625, -0.28125, 0.0
542, -0.31868131868131866, -1.1062271062271063, -3.9255189255189253, -0.3125, 0.4375, -0.28125, 0.0
543, 0.15506715506715507, -0.8168498168498168, -4.155067155067155, -0.5, 0.75, -0.21875, 0.0
544, 1.8192918192918193, -1.363858363858364, -4.427350427350428, -0.625, 0.65625, -0.40625, 0.0
545, 1.750915750915751, -1.0488400488400489, -4.2002442002442, -0.625, 0.21875, -0.65625, 0.0
546, 0.8693528693528694, -0.3797313797313797, -4.09035409035409, -0.125, 0.09375, -0.46875, 0.0
547, -0.905982905982906, -2.21001221001221, -5.180708180708181, 0.0, 0.40625, -0.375, 0.0
548, -1.2405372405372406, -3.3846153846153846, -5.4493284493284495, -0.65625, 0.90625, -0.40625, 0.0
549, 0.5604395604395604, -3.5946275946275947, -4.637362637362638, -1.40625, 0.84375, -0.5625, 0.0
550, 0.6324786324786325, -2.142857142857143, -3.2002442002442004, -1.65625, 0.625, -0.71875, 0.0
551, -0.8388278388278388, -0.9914529914529915, -1.4346764346764347, -1.09375, 0.875, -0.46875, 0.0
552, -0.07081807081807082, -1.5103785103785103, -1.1355311355311355, -0.90625, 0.90625, -0.34375, 0.0
553, 0.06227106227106227, -1.6495726495726495, -0.48717948717948717, -0.9375, 0.65625, -0.375, 0.0
554, -0.6910866910866911, -1.2442002442002442, 0.442002442002442, -1.0625, 0.46875, -0.46875, 0.0
555, -0.15018315018315018, -0.9963369963369964, 1.078144078144078, -1.15625, 0.4375, -0.53125, 0.0
556, -0.5897435897435898, -0.37362637362637363, 1.7057387057387057, -1.21875, 0.34375, -0.59375, 0.0
557, -0.6495726495726496, 0.09157509157509157, 2.0744810744810747, -1.125, 0.28125, -0.4375, 0.0
558, -1.1514041514041513, -0.2576312576312576, 2.4590964590964592, -0.96875, 0.3125, -0.34375, 0.0
559, -0.894993894993895, -0.008547008547008548, 2.938949938949939, -1.09375, 0.5625, -0.375, 0.0
560, -0.3956043956043956, 0.19536019536019536, 3.197802197802198, -1.15625, 0.6875, -0.4375, 0.0
561, -0.851037851037851, 0.38461538461538464, 3.4786324786324787, -1.21875, 0.625, -0.4375, 0.0
562, -0.6935286935286935, 0.2893772893772894, 3.5445665445665444, -1.0625, 0.5, -0.3125, 0.0
563, -0.967032967032967, 0.6862026862026862, 3.8205128205128207, -0.90625, 0.4375, -0.25, 0.0
564, -0.5421245421245421, 0.5299145299145299, 3.5653235653235655, -0.625, 0.1875, -0.21875, 0.0
565, -1.36996336996337, 0.5311355311355311, 3.6031746031746033, -0.5, 0.25, -0.1875, 0.0
566, -1.0146520146520146, 0.3907203907203907, 3.1794871794871793, -0.375, 0.28125, -0.15625, 0.0
567, -1.636141636141636, 0.38705738705738707, 3.514041514041514, -0.4375, 0.5, -0.09375, 0.0
568, -1.2136752136752136, 0.5079365079365079, 3.694749694749695, -0.40625, 0.5, -0.0625, 0.0
569, -0.6422466422466423, 0.6935286935286935, 3.6910866910866913, -0.25, 0.1875, 0.0, 0.0
570, -0.5518925518925519, 0.5213675213675214, 3.0476190476190474, 0.0, -0.21875, 0.0625, 0.0
571, -1.0903540903540903, 0.23321123321123322, 2.1794871794871793, 0.09375, -0.28125, 0.09375, 0.0
572, -1.3907203907203907, 0.0231990231990232, 1.387057387057387, 0.125, 0.03125, 0.125, 0.0
573, -0.3882783882783883, -0.28815628815628813, 0.873015873015873, 0.125, 0.15625, 0.15625, 0.0
574, 0.28327228327228327, -0.5873015873015873, -0.29914529914529914, 0.0625, -0.1875, 0.15625, 0.0
575, -0.054945054945054944, -0.4713064713064713, -0.568986568986569, 0.0625, -0.25, 0.15625, 0.0
576, -0.3064713064713065, -0.36752136752136755, -0.673992673992674, 0.09375, -0.03125, 0.09375, 0.0
577, 0.10866910866910867, -0.2600732600732601, -0.6312576312576312, 0.09375, 0.21875, 0.09375, 0.0
578, 0.42124542124542125, -0.4017094017094017, -0.5567765567765568, 0.0625, 0.25, 0.0625, 0.0
579, 0.3614163614163614, -0.2661782661782662, -0.4249084249084249, -0.03125, 0.15625, 0.0, 0.0
580, 0.09523809523809523, -0.03785103785103785, -0.13675213675213677, -0.09375, 0.0625, 0.0, 0.0
581, -0.03540903540903541, 0.15262515262515264, 0.03296703296703297, -0.09375, 0.0, 0.0, 0.0
582, -0.4053724053724054, 0.1623931623931624, 0.06837606837606838, 0.0, 0.0, 0.0, 0.0
583, 0.1562881562881563, -0.1330891330891331, -0.3724053724053724, 0.15625, 0.03125, 0.0, 0.0
584, 0.15873015873015872, -0.2954822954822955, -0.7057387057387058, 0.125, 0.0, 0.0, 0.0
585, 0.14163614163614163, -0.3064713064713065, -0.7448107448107448, 0.0, 0.0, 0.0, 0.0
586, -0.02442002442002442, 0.12576312576312576, -0.3064713064713065, -0.125, 0.09375, -0.0625, 0.0
587, 0.07692307692307693, 0.0695970695970696, -0.007326007326007326, -0.09375, 0.0625, -0.03125, 0.0
588, -0.3418803418803419, 0.36507936507936506, 0.442002442002442, 0.0, 0.125, -0.03125, 0.0
589, 0.2026862026862027, -0.017094017094017096, 0.336996336996337, 0.03125, 0.0, 0.03125, 0.0
590, -0.1794871794871795, -0.06227106227106227, 0.40293040293040294, 0.0, -0.09375, 0.0, 0.0
591, 0.05982905982905983, -0.14652014652014653, 0.17582417582417584, 0.03125, -0.15625, 0.03125, 0.0
592, 0.09645909645909646, -0.15262515262515264, -0.07936507936507936, 0.03125, -0.21875, 0.03125, 0.0
593, 0.01098901098901099, -0.20757020757020758, -0.33821733821733824, 0.0625, -0.15625, 0.0, 0.0
594, 0.07814407814407814, -0.050061050061050064, -0.4126984126984127, 0.125, 0.0, 0.0, 0.0
595, 0.5384615384615384, -0.33943833943833945, -0.5958485958485958, 0.0625, -0.03125, 0.0, 0.0
596, 0.38705738705738707, -0.28083028083028083, -0.5982905982905983, -0.03125, -0.03125, 0.0, 0.0
597, 0.18681318681318682, -0.1343101343101343, -0.3882783882783883, -0.125, 0.03125, -0.03125, 0.0
598, 0.12698412698412698, 0.15262515262515264, 0.1111111111111111, -0.0625, 0.0, -0.03125, 0.0
599, -0.015873015873015872, 0.040293040293040296, 0.10744810744810745, 0.0, 0.0, -0.03125, 0.0
600, -0.004884004884004884, -0.05860805860805861, 0.0927960927960928, 0.0, 0.0, 0.0, 0.0
601, -0.031746031746031744, -0.08791208791208792, 0.12942612942612944, 0.0, 0.0, 0.0, 0.0
602, 0.1575091575091575, 0.054945054945054944, 0.18437118437118438, 0.0, -0.03125, 0.0, 0.0
603, 0.008547008547008548, 0.02564102564102564, 0.007326007326007326, 0.125, -0.125, 0.03125, 0.0
604, -0.020757020757020756, -0.36996336996337, -0.1978021978021978, 0.09375, -0.125, 0.0625, 0.0
605, -0.32234432234432236, -0.27228327228327226, -0.45665445665445664, 0.0, 0.0, 0.0, 1.0
606, 0.14041514041514042, -0.7326007326007326, -0.9719169719169719, -0.125, 0.21875, 0.0, 1.0
607, 0.8107448107448108, -0.4053724053724054, -0.5885225885225885, -0.1875, 0.21875, 0.0, 1.0
608, 0.4481074481074481, -0.03540903540903541, -0.35653235653235654, -0.25, 0.0, -0.0625, 1.0
609, -0.09523809523809523, 0.3968253968253968, -0.1916971916971917, 0.0, -0.0625, 0.0, 1.0
610, -0.07203907203907203, 0.12332112332112333, -0.08913308913308914, 0.09375, 0.0625, 0.0625, 1.0
611, 0.07203907203907203, -0.4004884004884005, 0.009768009768009768, -0.0625, 0.09375, 0.03125, 1.0
612, 0.08180708180708181, -0.2954822954822955, 0.6800976800976801, -0.28125, 0.03125, 0.0, 1.0
613, -0.21978021978021978, 0.5787545787545788, 2.083028083028083, -0.15625, -0.0625, 0.0, 1.0
614, -0.8241758241758241, 0.9658119658119658, 3.061050061050061, 0.15625, -0.09375, 0.09375, 1.0
615, -0.8070818070818071, 0.7216117216117216, 3.7765567765567765, 0.4375, -0.09375, 0.15625, 1.0
616, -1.0073260073260073, 0.06593406593406594, 4.222222222222222, 0.375, -0.125, 0.125, 1.0
617, -1.336996336996337, 0.0989010989010989, 5.424908424908425, 0.1875, -0.1875, 0.0625, 1.0
618, -1.413919413919414, 0.7203907203907204, 7.091575091575091, 0.34375, -0.5, 0.0625, 1.0
619, -2.241758241758242, 0.8852258852258852, 7.6471306471306475, 0.6875, -0.6875, 0.09375, 1.0
620, -2.1794871794871793, 0.36507936507936506, 7.445665445665446, 0.9375, -0.8125, 0.15625, 1.0
621, -2.8315018315018317, 0.11477411477411477, 5.516483516483516, 1.09375, -0.78125, 0.1875, 1.0
622, -1.7106227106227105, 0.43956043956043955, 3.9536019536019538, 1.5625, -0.5, 0.4375, 1.0
623, 0.5726495726495726, -1.7606837606837606, 0.8669108669108669, 2.0, -0.78125, 0.75, 1.0
624, 0.8168498168498168, -2.750915750915751, -1.1465201465201464, 1.4375, -1.28125, 0.59375, 1.0
625, 0.7130647130647131, -2.086691086691087, -1.5824175824175823, 0.6875, -1.28125, 0.25, 1.0
626, 1.8888888888888888, -2.0842490842490844, -0.8351648351648352, 0.15625, -1.21875, -0.03125, 1.0
627, 0.9230769230769231, -0.706959706959707, 0.9548229548229549, -0.3125, -1.8125, -0.5, 1.0
628, -2.0085470085470085, 0.4065934065934066, 1.336996336996337, 0.125, -1.90625, -0.71875, 1.0
629, -2.860805860805861, 0.8681318681318682, -0.8522588522588522, 1.125, -1.1875, -0.4375, 1.0
630, -1.006105006105006, -2.42002442002442, -3.8253968253968256, 2.15625, -0.5, 0.125, 1.0
631, 0.3125763125763126, -3.139194139194139, -3.755799755799756, 1.65625, -0.84375, 0.0, 1.0
632, -3.1587301587301586, -0.8876678876678876, -2.47985347985348, 1.65625, -0.875, 0.0, 1.0
633, -4.451770451770452, 0.6361416361416361, -2.1062271062271063, 2.8125, -0.15625, 0.90625, 1.0
634, -2.0744810744810747, -2.1526251526251525, -4.467643467643468, 3.0625, -0.09375, 1.625, 1.0
635, -0.9719169719169719, -4.351648351648351, -7.484737484737485, 2.28125, -0.375, 1.75, 1.0
636, 0.4993894993894994, -4.476190476190476, -8.538461538461538, 1.125, -0.625, 1.375, 1.0
637, 2.075702075702076, -4.400488400488401, -7.858363858363858, 0.25, -0.6875, 0.75, 1.0
638, 2.266178266178266, -3.0463980463980462, -5.791208791208791, -0.15625, -0.65625, 0.09375, 1.0
639, 0.8351648351648352, -1.6153846153846154, -4.3418803418803416, -0.28125, -0.34375, -0.3125, 1.0
640, -0.6776556776556777, -0.11477411477411477, -2.236874236874237, -0.375, -0.03125, -0.25, 1.0
641, -1.5787545787545787, 1.3516483516483517, -0.24053724053724054, -0.1875, 0.0, 0.03125, 1.0
642, -1.0525030525030525, 1.7667887667887667, 0.5311355311355311, 0.15625, 0.03125, 0.46875, 1.0
643, 0.6324786324786325, 1.0525030525030525, 0.46764346764346765, 0.375, 0.0, 0.625, 1.0
644, 1.0744810744810744, -0.17216117216117216, -0.8864468864468864, 0.21875, 0.03125, 0.34375, 1.0
645, 0.3907203907203907, -0.21978021978021978, -1.0818070818070817, 0.03125, 0.125, 0.1875, 1.0
646, 0.25518925518925517, 0.2222222222222222, -0.63003663003663, -0.03125, 0.15625, 0.125, 1.0
647, -0.04884004884004884, 0.13553113553113552, -0.3418803418803419, 0.0, 0.15625, 0.15625, 1.0
648, 0.1807081807081807, -0.2515262515262515, -0.31746031746031744, 0.125, 0.21875, 0.21875, 1.0
649, 0.27106227106227104, -0.6654456654456654, -0.6910866910866911, 0.09375, 0.25, 0.15625, 1.0
650, 0.0927960927960928, -0.6056166056166056, -0.5592185592185592, 0.0, 0.28125, 0.03125, 1.0
651, -0.10866910866910867, -0.03785103785103785, -0.09645909645909646, -0.125, 0.1875, -0.03125, 1.0
652, -0.2039072039072039, 0.2673992673992674, 0.27350427350427353, -0.125, 0.125, -0.03125, 1.0
653, -0.30036630036630035, 0.22954822954822954, 0.3724053724053724, -0.03125, 0.03125, 0.0, 1.0
654, -0.5152625152625152, -0.11843711843711843, -0.08424908424908426, 0.0, 0.03125, 0.0, 1.0
655, -0.14285714285714285, -0.14041514041514042, -0.31013431013431014, -0.09375, 0.15625, 0.0, 1.0
656, -0.13186813186813187, 0.12942612942612944, -0.0463980463980464, -0.09375, 0.09375, 0.0, 1.0
657, 0.02442002442002442, 0.199023199023199, 0.3052503052503053, 0.0, 0.0625, 0.03125, 1.0
658, 0.029304029304029304, -0.10134310134310134, 0.08669108669108669, 0.03125, 0.03125, 0.03125, 1.0
659, -0.008547008547008548, -0.2869352869352869, -0.25396825396825395, 0.0, 0.0625, 0.0, 1.0
660, 0.115995115995116, -0.05128205128205128, -0.17582417582417584, -0.03125, 0.0625, 0.0, 1.0
661, 0.01221001221001221, -0.07448107448107448, -0.20146520146520147, -0.03125, 0.0625, 0.0, 1.0
662, -0.0757020757020757, 0.07448107448107448, 0.1978021978021978, 0.0, 0.03125, 0.0, 1.0
663, -0.03907203907203907, -0.0463980463980464, 0.25518925518925517, 0.0, 0.0, 0.0, 1.0
664, -0.03418803418803419, -0.004884004884004884, 0.07081807081807082, 0.0, -0.03125, 0.0, 1.0
665, -0.10622710622710622, -0.11233211233211234, -0.2087912087912088, 0.0, 0.0, 0.0, 1.0
666, -0.0927960927960928, -0.28815628815628813, -0.23443223443223443, -0.125, 0.1875, 0.0, 1.0
667, -0.08058608058608059, -0.3601953601953602, -0.44932844932844934, -0.375, 0.28125, 0.09375, 0.0
668, -0.0989010989010989, 0.2442002442002442, 0.06349206349206349, -0.21875, 0.28125, 0.15625, 0.0
669, -0.6324786324786325, 0.6495726495726496, 0.463980463980464, 0.0, 0.34375, 0.15625, 0.0
670, -0.5518925518925519, 0.7032967032967034, 0.49206349206349204, 0.25, 0.375, 0.15625, 0.0
671, -1.037851037851038, 0.25396825396825395, -0.27594627594627597, 0.53125, 0.5, 0.15625, 0.0
672, -0.8083028083028083, 0.009768009768009768, -1.10989010989011, 0.8125, 1.09375, 0.0625, 0.0
673, 1.6532356532356531, -0.9365079365079365, -3.083028083028083, 0.96875, 1.53125, 0.0, 0.0
674, 2.3663003663003663, -2.4725274725274726, -5.096459096459096, 0.4375, 0.90625, 0.28125, 0.0
675, 3.688644688644689, -3.183150183150183, -4.993894993894994, -0.34375, 0.46875, -0.3125, 0.0
676, 2.7387057387057387, -2.3663003663003663, -5.042735042735043, -0.78125, 0.0625, -1.125, 0.0
677, 0.41147741147741146, -1.568986568986569, -6.354090354090354, -0.75, 0.28125, -1.28125, 0.0
678, 0.4542124542124542, -2.3235653235653237, -6.875457875457876, -0.65625, 0.6875, -0.9375, 0.0
679, 0.9084249084249084, -2.31990231990232, -5.898656898656899, -0.96875, 0.3125, -0.71875, 0.0
680, 0.1794871794871795, -2.0671550671550674, -4.553113553113553, -0.96875, 0.0625, -0.59375, 0.0
681, -0.3772893772893773, -1.855921855921856, -3.8473748473748475, -0.6875, 0.15625, -0.40625, 0.0
682, -0.14407814407814407, -1.8253968253968254, -3.133089133089133, -0.40625, 0.21875, -0.28125, 0.0
683, 0.2869352869352869, -2.6031746031746033, -2.9975579975579976, -0.40625, 0.125, -0.3125, 0.0
684, -1.0146520146520146, -4.22954822954823, -3.6776556776556775, -1.09375, 0.8125, -0.78125, 0.0
685, -1.7753357753357752, -3.761904761904762, -2.2222222222222223, -2.03125, 1.59375, -0.9375, 0.0
686, -0.8571428571428571, -2.796092796092796, 0.019536019536019536, -2.625, 1.6875, -0.84375, 0.0
687, 0.14896214896214896, -1.021978021978022, 2.634920634920635, -2.6875, 1.1875, -0.96875, 0.0
688, -1.2405372405372406, 0.07814407814407814, 4.13919413919414, -2.40625, 0.78125, -0.9375, 0.0
689, -1.9157509157509158, 0.7191697191697192, 4.956043956043956, -1.875, 0.78125, -0.65625, 0.0
690, -1.0488400488400489, 0.7777777777777778, 5.023199023199023, -1.1875, 0.65625, -0.34375, 0.0
691, -0.46153846153846156, 0.326007326007326, 5.351648351648351, -0.96875, 0.4375, -0.3125, 0.0
692, -0.5860805860805861, 0.16605616605616605, 4.934065934065934, -0.8125, 0.15625, -0.34375, 0.0
693, -0.608058608058608, 0.06837606837606838, 4.391941391941392, -0.71875, -0.03125, -0.3125, 0.0
694, -1.7765567765567765, 0.28083028083028083, 4.185592185592186, -0.6875, 0.0, -0.3125, 0.0
695, -1.3125763125763126, 0.24664224664224665, 3.877899877899878, -0.5625, 0.34375, -0.25, 0.0
696, -0.7887667887667887, -0.017094017094017096, 3.857142857142857, -0.4375, 0.53125, -0.21875, 0.0
697, -0.5860805860805861, 0.231990231990232, 4.123321123321123, -0.5, 0.46875, -0.21875, 0.0
698, -0.9035409035409036, 0.6764346764346765, 4.146520146520147, -0.4375, 0.1875, -0.15625, 0.0
699, -0.873015873015873, 0.7252747252747253, 3.5396825396825395, -0.15625, -0.03125, -0.03125, 0.0
700, -1.2173382173382172, 0.28083028083028083, 2.7814407814407813, 0.09375, -0.21875, 0.0625, 0.0
701, -1.1013431013431014, 0.13553113553113552, 2.0793650793650795, 0.1875, -0.15625, 0.125, 0.0
702, -0.5592185592185592, -0.11965811965811966, 1.2905982905982907, 0.34375, -0.0625, 0.15625, 0.0
703, -0.07448107448107448, -0.5531135531135531, 0.30036630036630035, 0.34375, -0.15625, 0.1875, 0.0
704, -0.20024420024420025, -0.5726495726495726, -0.2771672771672772, 0.15625, -0.0625, 0.15625, 0.0
705, -0.2612942612942613, -0.3125763125763126, -0.3089133089133089, 0.0625, 0.09375, 0.125, 0.0
706, 0.4932844932844933, -0.30036630036630035, -0.536019536019536, 0.09375, 0.03125, 0.15625, 0.0
707, 0.2661782661782662, -0.17826617826617827, -0.6544566544566545, 0.09375, 0.0, 0.125, 0.0
708, 0.2979242979242979, -0.1282051282051282, -0.7863247863247863, 0.125, 0.03125, 0.125, 0.0
709, -0.019536019536019536, -0.08302808302808302, -0.6398046398046398, 0.0625, 0.1875, 0.0625, 0.0
710, 0.8290598290598291, -0.463980463980464, -0.673992673992674, -0.0625, 0.09375, 0.0, 0.0
711, 0.12332112332112333, -0.03418803418803419, -0.2869352869352869, -0.125, 0.03125, -0.03125, 0.0
712, 0.22954822954822954, 0.06593406593406594, -0.05128205128205128, -0.0625, 0.0, -0.03125, 0.0
713, -0.08180708180708181, 0.16483516483516483, 0.028083028083028084, 0.03125, 0.03125, -0.03125, 0.0
714, -0.018315018315018316, -0.10500610500610501, -0.02442002442002442, 0.125, 0.125, 0.0, 0.0
715, 0.2222222222222222, -0.2442002442002442, -0.2454212454212454, 0.0625, 0.09375, 0.0, 0.0
716, 0.21855921855921856, -0.18681318681318682, -0.32112332112332115, -0.03125, -0.0625, 0.0, 0.0
717, -0.1282051282051282, 0.031746031746031744, -0.33577533577533575, -0.0625, -0.15625, -0.0625, 0.0
718, -0.2698412698412698, 0.15018315018315018, -0.2893772893772894, 0.0, -0.0625, -0.0625, 0.0
719, -0.12332112332112333, 0.047619047619047616, -0.1978021978021978, 0.0, 0.09375, 0.0, 0.0
720, 0.24053724053724054, -0.047619047619047616, -0.10622710622710622, 0.0, 0.125, 0.0, 0.0
721, 0.17582417582417584, -0.06471306471306472, -0.11843711843711843, 0.0, 0.0625, 0.0, 0.0
722, 0.10256410256410256, -0.0463980463980464, -0.15995115995115994, 0.0, 0.0, 0.0, 0.0
723, 0.10134310134310134, -0.0757020757020757, -0.18315018315018314, -0.0625, 0.0, 0.0, 0.0
724, 0.06471306471306472, -0.006105006105006105, -0.09035409035409035, -0.0625, 0.0, 0.0, 0.0
725, 0.11233211233211234, 0.002442002442002442, -0.001221001221001221, -0.03125, 0.0, 0.03125, 0.0
726, 0.10134310134310134, -0.13064713064713065, -0.06227106227106227, 0.0, 0.0, 0.0, 0.0
727, 0.013431013431013432, -0.0695970695970696, -0.026862026862026864, 0.0, 0.03125, 0.0, 0.0
728, 0.07448107448107448, -0.05860805860805861, -0.10256410256410256, 0.0, 0.03125, 0.0, 0.0
729, 0.0757020757020757, -0.06349206349206349, -0.15873015873015872, 0.0, 0.03125, 0.0, 0.0
730, 0.18437118437118438, -0.11965811965811966, -0.24053724053724054, -0.09375, 0.0, 0.0, 0.0
731, 0.10866910866910867, -0.0231990231990232, -0.04151404151404151, -0.09375, -0.0625, -0.03125, 0.0
732, -0.14896214896214896, 0.10012210012210013, -0.002442002442002442, -0.03125, -0.03125, -0.03125, 0.0
733, 0.0, -0.007326007326007326, -0.1221001221001221, 0.0, 0.0, -0.03125, 0.0
734, 0.006105006105006105, -0.10622710622710622, -0.17826617826617827, 0.0, 0.0, 0.0, 0.0
735, 0.19291819291819293, -0.27228327228327226, -0.2625152625152625, -0.09375, -0.0625, 0.0, 0.0
736, 0.05616605616605617, -0.09157509157509157, -0.21611721611721613, -0.1875, -0.09375, 0.0, 0.0
737, -0.11233211233211234, 0.20146520146520147, -0.3052503052503053, 0.03125, 0.0, 0.0625, 1.0
738, 0.06593406593406594, 0.030525030525030524, -0.43345543345543347, 0.09375, 0.125, 0.03125, 1.0
739, 0.6862026862026862, -0.09645909645909646, -0.052503052503052504, 0.0625, 0.0625, 0.03125, 1.0
740, 0.057387057387057384, -0.06593406593406594, -0.18315018315018314, 0.0, -0.1875, 0.0, 1.0
741, -0.05372405372405373, 0.11355311355311355, -0.028083028083028084, 0.0, -0.21875, 0.0, 1.0
742, -0.3663003663003663, 0.03663003663003663, -0.031746031746031744, 0.0, 0.0, 0.0, 1.0
743, 0.040293040293040296, -0.15506715506715507, 0.13797313797313798, -0.15625, 0.15625, 0.0, 1.0
744, 0.17338217338217338, 0.2661782661782662, 0.7326007326007326, -0.25, 0.0625, 0.0, 1.0
745, -0.10256410256410256, 0.6019536019536019, 1.1001221001221002, -0.15625, -0.03125, 0.0, 1.0
746, -0.28327228327228327, 0.4249084249084249, 1.2271062271062272, 0.03125, -0.15625, 0.0625, 1.0
747, -0.45665445665445664, -0.017094017094017096, 1.1416361416361416, 0.125, -0.09375, 0.09375, 1.0
748, -0.047619047619047616, -0.1794871794871795, 1.3101343101343101, 0.125, 0.03125, 0.125, 1.0
749, 0.23443223443223443, -0.24175824175824176, 1.8302808302808302, 0.0625, -0.21875, 0.09375, 1.0
750, -0.6361416361416361, 0.07203907203907203, 2.8986568986568986, 0.03125, -0.15625, 0.0625, 1.0
751, -1.120879120879121, 0.5531135531135531, 4.608058608058608, 0.15625, 0.0, 0.0625, 1.0
752, -1.2747252747252746, 0.724053724053724, 6.277167277167277, 0.3125, -0.03125, 0.0625, 1.0
753, -1.435897435897436, 0.6227106227106227, 7.1953601953601956, 0.4375, -0.34375, 0.0625, 1.0
754, -1.6862026862026862, 0.12942612942612944, 7.362637362637362, 0.53125, -0.6875, 0.03125, 1.0
755, -2.3943833943833943, -0.3968253968253968, 6.819291819291819, 0.65625, -0.84375, 0.03125, 1.0
756, -2.833943833943834, 0.5213675213675214, 6.106227106227106, 1.125, -0.625, 0.15625, 1.0
757, -2.371184371184371, 0.6288156288156288, 4.687423687423688, 1.78125, -0.25, 0.40625, 1.0
758, -0.26495726495726496, -0.7948717948717948, 2.758241758241758, 1.9375, -0.40625, 0.5, 1.0
759, 1.5970695970695972, -3.2405372405372406, 1.3858363858363858, 1.125, -1.21875, 0.1875, 1.0
760, 0.518925518925519, -2.7875457875457874, 2.84981684981685, 0.15625, -1.78125, -0.625, 1.0
761, -0.14285714285714285, -1.5360195360195361, 1.4151404151404152, 0.71875, -1.9375, -0.84375, 1.0
762, 0.4346764346764347, -3.4481074481074483, -2.5665445665445668, 1.09375, -2.09375, -1.0, 1.0
763, 0.050061050061050064, -3.8205128205128207, -4.981684981684982, 0.8125, -2.21875, -1.40625, 1.0
764, -0.960927960927961, -1.6800976800976801, -3.786324786324786, 0.375, -2.09375, -1.71875, 1.0
765, -2.938949938949939, 0.1391941391941392, -1.989010989010989, 0.6875, -1.875, -1.65625, 1.0
766, -1.5213675213675213, -0.9682539682539683, -2.52014652014652, 1.53125, -1.5625, -1.09375, 1.0
767, -1.7179487179487178, -2.2075702075702077, -3.686202686202686, 1.71875, -2.03125, -0.90625, 1.0
768, -3.9267399267399266, -0.5982905982905983, -4.514041514041514, 1.75, -1.9375, -0.71875, 1.0
769, -4.979242979242979, 0.398046398046398, -5.344322344322344, 2.25, -1.28125, 0.1875, 1.0
770, -2.1294261294261294, -1.5177045177045176, -7.013431013431013, 2.6875, -0.40625, 1.25, 1.0
771, 1.4725274725274726, -4.015873015873016, -8.131868131868131, 2.21875, -0.25, 1.40625, 1.0
772, 0.5531135531135531, -2.800976800976801, -6.831501831501831, 0.9375, 0.15625, 1.0625, 1.0
773, 0.5885225885225885, -1.336996336996337, -4.744810744810745, 0.90625, 1.0, 0.9375, 1.0
774, 1.8034188034188035, -1.133089133089133, -3.3443223443223444, 0.84375, 0.96875, 0.5625, 1.0
775, 1.6031746031746033, -1.0683760683760684, -2.586080586080586, 0.3125, 0.3125, 0.03125, 1.0
776, -0.2783882783882784, 0.03418803418803419, -1.9133089133089134, -0.03125, 0.125, -0.15625, 1.0
777, -0.724053724053724, 0.9010989010989011, -0.8742368742368742, -0.125, 0.21875, -0.0625, 1.0
778, -1.0415140415140416, 1.3052503052503053, 0.018315018315018316, 0.0625, 0.40625, 0.15625, 1.0
779, -0.08058608058608059, 0.5079365079365079, 0.22466422466422467, 0.125, 0.34375, 0.3125, 1.0
780, 1.3015873015873016, -0.34065934065934067, 0.42735042735042733, -0.0625, -0.1875, 0.0, 1.0
781, 0.12087912087912088, -0.18803418803418803, -0.13797313797313798, -0.25, -0.3125, -0.3125, 1.0
782, -0.5738705738705738, 0.6166056166056166, -0.3162393162393162, -0.21875, -0.15625, -0.21875, 1.0
783, -1.0488400488400489, 0.73992673992674, -0.1684981684981685, 0.0625, 0.09375, 0.25, 1.0
784, -0.5970695970695971, -0.8608058608058609, -0.09035409035409035, 0.21875, 0.5, 0.53125, 1.0
785, 1.3443223443223444, -1.2332112332112333, -0.013431013431013432, 0.0, 0.3125, 0.375, 1.0
786, 0.568986568986569, -0.5604395604395604, 0.013431013431013432, -0.21875, -0.1875, -0.0625, 1.0
787, -0.4065934065934066, 0.20634920634920634, 0.23687423687423687, -0.1875, -0.28125, -0.15625, 1.0
788, -0.6227106227106227, 0.2783882783882784, 0.018315018315018316, 0.0, -0.03125, 0.0, 1.0
789, -0.5262515262515263, 0.11721611721611722, -0.2087912087912088, 0.09375, 0.15625, 0.15625, 1.0
790, -0.2905982905982906, -0.14285714285714285, -0.5079365079365079, 0.09375, 0.34375, 0.375, 1.0
791, 1.0744810744810744, -0.5921855921855922, -0.12576312576312576, 0.0, 0.375, 0.34375, 1.0
792, 1.3565323565323566, -0.514041514041514, 0.36752136752136755, -0.125, 0.03125, 0.0625, 1.0
793, 0.25396825396825395, -0.09645909645909646, 0.2258852258852259, -0.125, -0.15625, -0.125, 1.0
794, -0.5067155067155067, 0.13186813186813187, -0.12576312576312576, -0.0625, -0.0625, -0.09375, 1.0
795, -0.518925518925519, 0.2258852258852259, -0.21733821733821734, 0.0, 0.1875, 0.125, 1.0
796, -0.16971916971916973, 0.13064713064713065, 0.15873015873015872, 0.03125, 0.28125, 0.25, 1.0
797, 0.08547008547008547, -0.24175824175824176, 0.23809523809523808, 0.0625, 0.28125, 0.25, 1.0
798, 0.5921855921855922, -0.3907203907203907, 0.33943833943833945, 0.0, 0.0625, 0.125, 1.0
799, 0.3443223443223443, -0.2515262515262515, 0.231990231990232, 0.0, -0.03125, -0.03125, 1.0
800, -0.19413919413919414, -0.054945054945054944, -0.14285714285714285, 0.0, 0.0, 0.0, 1.0
801, -0.33821733821733824, 0.1623931623931624, -0.042735042735042736, 0.0, 0.09375, 0.0625, 1.0
802, -0.23321123321123322, -0.029304029304029304, -0.17216117216117216, -0.03125, 0.21875, 0.1875, 1.0
803, -0.08913308913308914, -0.1282051282051282, -0.28205128205128205, -0.09375, 0.34375, 0.3125, 0.0
804, 0.42002442002442003, -0.1330891330891331, -0.4554334554334554, 0.0, 0.34375, 0.28125, 0.0
805, 0.8583638583638583, -0.30036630036630035, -0.1916971916971917, 0.09375, 0.15625, 0.1875, 0.0
806, 0.17704517704517705, 0.2026862026862027, -0.7997557997557998, 0.34375, 0.0625, 0.125, 0.0
807, -0.20024420024420025, -1.1037851037851039, -4.3528693528693525, 0.375, 0.15625, 0.09375, 0.0
808, 0.5616605616605617, -2.4884004884004884, -5.841269841269841, -0.1875, 0.53125, -0.125, 0.0
809, 0.6947496947496947, -2.600732600732601, -5.832722832722832, -0.96875, 0.625, -0.4375, 0.0
810, -0.24175824175824176, -1.5225885225885225, -5.632478632478633, -1.375, 0.65625, -0.65625, 0.0
811, -0.9682539682539683, -0.8315018315018315, -5.605616605616605, -1.21875, 0.75, -0.3125, 0.0
812, -1.7619047619047619, -0.7277167277167277, -5.199023199023199, -0.75, 0.8125, 0.1875, 0.0
813, -1.9096459096459097, -2.4236874236874235, -5.305250305250305, -0.25, 1.15625, 0.65625, 0.0
814, -1.0866910866910866, -4.3638583638583635, -5.566544566544566, -0.5, 1.53125, 0.625, 0.0
815, -0.21855921855921856, -4.313797313797314, -4.498168498168498, -1.28125, 1.90625, 0.3125, 0.0
816, 0.4017094017094017, -3.808302808302808, -2.6092796092796093, -1.8125, 1.96875, -0.03125, 0.0
817, 0.6312576312576312, -2.808302808302808, -0.6910866910866911, -2.03125, 1.71875, -0.34375, 0.0
818, 0.12698412698412698, -1.8974358974358974, 0.5934065934065934, -1.96875, 1.1875, -0.53125, 0.0
819, -0.7851037851037851, -1.336996336996337, 1.6605616605616607, -1.6875, 1.0625, -0.5, 0.0
820, -0.5054945054945055, -1.1965811965811965, 2.305250305250305, -1.375, 0.96875, -0.46875, 0.0
821, -0.8717948717948718, -1.078144078144078, 2.94993894993895, -1.3125, 1.0, -0.5625, 0.0
822, -0.4371184371184371, -0.3614163614163614, 3.617826617826618, -1.21875, 0.84375, -0.5625, 0.0
823, -0.652014652014652, -0.31013431013431014, 3.681318681318681, -1.0625, 0.625, -0.59375, 0.0
824, 0.014652014652014652, -0.029304029304029304, 3.2857142857142856, -0.8125, 0.25, -0.5625, 0.0
825, -0.73992673992674, -0.20634920634920634, 2.768009768009768, -0.71875, 0.125, -0.5625, 0.0
826, -1.3565323565323566, -0.2600732600732601, 2.68009768009768, -0.875, 0.375, -0.59375, 0.0
827, -1.0012210012210012, -0.18437118437118438, 2.750915750915751, -0.90625, 0.46875, -0.5625, 0.0
828, -0.5384615384615384, 0.04395604395604396, 2.7838827838827838, -0.78125, 0.34375, -0.5, 0.0
829, -1.1514041514041513, 0.11233211233211234, 2.9401709401709404, -0.71875, 0.34375, -0.4375, 0.0
830, -1.6092796092796093, 0.8888888888888888, 3.6092796092796093, -0.5, 0.59375, -0.3125, 0.0
831, -1.4383394383394383, 0.833943833943834, 3.595848595848596, -0.28125, 0.625, -0.21875, 0.0
832, -1.496947496947497, 0.5738705738705738, 3.42002442002442, -0.125, 0.4375, -0.15625, 0.0
833, -1.6166056166056166, 0.4896214896214896, 3.1965811965811968, -0.125, 0.25, -0.09375, 0.0
834, -1.7032967032967032, 0.6715506715506715, 3.015873015873016, -0.125, 0.09375, 0.0, 0.0
835, -1.6532356532356531, 0.6166056166056166, 2.47008547008547, 0.0, 0.0, 0.0625, 0.0
836, -1.1697191697191698, 0.21001221001221002, 1.7301587301587302, 0.15625, -0.09375, 0.1875, 0.0
837, -0.6825396825396826, -0.19536019536019536, 0.8901098901098901, 0.21875, -0.25, 0.21875, 0.0
838, -0.9304029304029304, -0.3772893772893773, 0.2967032967032967, 0.15625, -0.25, 0.21875, 0.0
839, -0.6691086691086691, -0.525030525030525, -0.15506715506715507, 0.0625, 0.0, 0.1875, 0.0
840, 0.18192918192918192, -0.2967032967032967, -0.3137973137973138, 0.0, 0.1875, 0.21875, 0.0
841, 0.9951159951159951, -0.5811965811965812, -0.717948717948718, 0.0625, 0.0, 0.1875, 0.0
842, 0.13797313797313798, -0.3992673992673993, -0.9291819291819292, 0.0, -0.15625, 0.09375, 0.0
843, 0.221001221001221, -0.5616605616605617, -1.0818070818070817, -0.125, 0.0, 0.0625, 0.0
844, 0.13186813186813187, -0.12576312576312576, -0.684981684981685, -0.125, 0.15625, 0.0, 0.0
845, 0.4017094017094017, -0.16117216117216118, -0.33943833943833945, -0.125, 0.125, 0.0, 0.0
846, 0.002442002442002442, 0.20146520146520147, 0.2087912087912088, -0.09375, 0.0625, -0.03125, 0.0
847, 0.08791208791208792, 0.015873015873015872, 0.22466422466422467, 0.0, -0.03125, 0.0, 0.0
848, -0.4371184371184371, 0.15995115995115994, 0.48595848595848595, 0.03125, -0.03125, 0.0, 0.0
849, 0.013431013431013432, 0.017094017094017096, 0.09401709401709402, 0.21875, -0.0625, 0.03125, 0.0
850, 0.231990231990232, -0.5934065934065934, -0.5860805860805861, 0.1875, -0.25, 0.0, 0.0
851, -0.16117216117216118, -0.5665445665445665, -0.8473748473748474, 0.03125, -0.09375, -0.03125, 0.0
852, -0.3162393162393162, -0.2039072039072039, -0.6532356532356532, 0.0, 0.09375, -0.03125, 0.0
853, 0.20634920634920634, -0.1575091575091575, -0.42124542124542125, -0.03125, 0.125, -0.03125, 0.0
854, 0.0463980463980464, -0.007326007326007326, 0.07326007326007326, -0.0625, 0.03125, -0.03125, 0.0
855, -0.2271062271062271, 0.06715506715506715, 0.2771672771672772, -0.03125, 0.0, -0.03125, 0.0
856, 0.07814407814407814, -0.14652014652014653, 0.1855921855921856, 0.0, 0.0, 0.0, 0.0
857, -0.06715506715506715, -0.08424908424908426, 0.08058608058608059, 0.0, -0.03125, 0.0, 0.0
858, -0.03540903540903541, -0.13064713064713065, -0.22344322344322345, 0.0, -0.03125, 0.0, 0.0
859, -0.0463980463980464, -0.13675213675213677, -0.32234432234432236, 0.03125, 0.03125, 0.03125, 0.0
860, 0.5433455433455433, -0.3333333333333333, -0.28327228327228327, 0.0, 0.03125, 0.03125, 0.0
861, 0.16971916971916973, -0.07692307692307693, -0.24297924297924298, -0.03125, -0.0625, 0.0, 0.0
862, 0.019536019536019536, -0.02442002442002442, -0.16483516483516483, -0.03125, -0.03125, 0.0, 0.0
863, 0.01098901098901099, -0.007326007326007326, 0.05372405372405373, -0.0625, 0.03125, 0.0, 0.0
864, 0.06593406593406594, 0.07936507936507936, 0.16727716727716727, 0.0, 0.0, 0.0625, 0.0
865, -0.1221001221001221, 0.03785103785103785, -0.07081807081807082, 0.15625, 0.09375, 0.03125, 1.0
866, 0.23443223443223443, -0.7936507936507936, -0.23565323565323565, 0.09375, 0.15625, 0.03125, 1.0
867, 0.35653235653235654, -0.47741147741147744, -0.19536019536019536, 0.09375, 0.03125, 0.03125, 1.0
868, 0.33455433455433453, -0.14041514041514042, -0.02197802197802198, 0.03125, -0.125, 0.0, 1.0
869, -0.15506715506715507, 0.07448107448107448, -0.031746031746031744, 0.0625, -0.09375, 0.0, 1.0
870, -0.0463980463980464, -0.13553113553113552, -0.44078144078144077, 0.03125, 0.0, 0.0, 1.0
871, 0.18315018315018314, -0.63003663003663, -0.8376068376068376, -0.15625, 0.03125, -0.03125, 1.0
872, 0.36385836385836384, -0.08302808302808302, -0.42857142857142855, -0.21875, 0.0, -0.0625, 1.0
873, -0.05616605616605617, 0.17704517704517705, -0.09157509157509157, -0.125, 0.0, 0.0, 1.0
874, -0.18681318681318682, 0.2600732600732601, 0.3601953601953602, 0.0, 0.0625, 0.0, 1.0
875, -0.15384615384615385, 0.16483516483516483, 0.8144078144078144, 0.0625, 0.09375, 0.03125, 1.0
876, -0.01098901098901099, -0.04884004884004884, 1.253968253968254, 0.03125, 0.0, 0.0625, 1.0
877, -0.4652014652014652, 0.13797313797313798, 2.4053724053724053, 0.125, -0.09375, 0.03125, 1.0
878, -0.967032967032967, 0.12087912087912088, 3.253968253968254, 0.21875, -0.03125, 0.03125, 1.0
879, -1.2832722832722834, 0.31868131868131866, 4.7655677655677655, 0.25, 0.0, 0.03125, 1.0
880, -1.6813186813186813, 0.746031746031746, 6.118437118437118, 0.25, 0.0, 0.0625, 1.0
881, -1.9047619047619047, 0.7032967032967034, 6.985347985347985, 0.40625, -0.28125, 0.09375, 1.0
882, -2.4554334554334556, 0.5995115995115995, 7.252747252747253, 0.53125, -0.59375, 0.125, 1.0
883, -2.8974358974358974, 0.05982905982905983, 7.024420024420024, 0.65625, -0.71875, 0.125, 1.0
884, -2.722832722832723, -0.2258852258852259, 6.5396825396825395, 0.6875, -0.6875, 0.15625, 1.0
885, -2.1257631257631258, 0.3516483516483517, 5.493284493284493, 1.0625, -0.75, 0.21875, 1.0
886, -1.0183150183150182, -0.17704517704517705, 2.2954822954822953, 1.71875, -0.84375, 0.4375, 1.0
887, 0.7191697191697192, -2.871794871794872, -2.241758241758242, 2.21875, -0.71875, 0.59375, 1.0
888, 3.4603174603174605, -4.921855921855922, -4.041514041514041, 0.8125, -1.0625, 0.0, 1.0
889, 2.7106227106227108, -3.5409035409035408, -2.5714285714285716, -0.15625, -1.4375, -0.59375, 1.0
890, 0.42735042735042733, -0.31746031746031744, 0.06471306471306472, 0.0, -1.4375, -0.75, 1.0
891, -1.5665445665445665, 0.6227106227106227, 1.6178266178266179, 0.78125, -1.0, -0.53125, 1.0
892, -0.6483516483516484, -1.1660561660561661, 1.4517704517704517, 1.125, -1.03125, -0.4375, 1.0
893, -0.24664224664224665, -2.0317460317460316, 0.590964590964591, 1.21875, -1.375, -0.6875, 1.0
894, -1.7594627594627594, -1.5995115995115996, -0.10378510378510379, 1.46875, -1.46875, -0.8125, 1.0
895, -1.8693528693528694, -1.84004884004884, -0.7130647130647131, 1.71875, -1.59375, -0.625, 1.0
896, -0.8473748473748474, -2.208791208791209, -1.4102564102564104, 2.0, -2.1875, -0.59375, 1.0
897, -1.9743589743589745, -2.1709401709401708, -3.4664224664224665, 2.15625, -2.34375, -0.40625, 1.0
898, -1.7264957264957266, -2.376068376068376, -6.1611721611721615, 2.09375, -2.21875, 0.0625, 1.0
899, 0.514041514041514, -3.3333333333333335, -8.744810744810744, 1.46875, -2.28125, 0.125, 1.0
900, 1.5714285714285714, -2.5934065934065935, -8.698412698412698, 0.3125, -2.0625, -0.46875, 1.0
901, 1.126984126984127, -2.0586080586080584, -7.783882783882784, 0.15625, -1.0, -0.8125, 1.0
902, -1.1562881562881564, -0.7826617826617827, -5.57020757020757, -0.03125, -0.09375, -0.8125, 1.0
903, -1.9914529914529915, 0.6495726495726496, -1.6434676434676434, -0.21875, 0.5625, -0.34375, 1.0
904, -0.03907203907203907, 0.39194139194139194, 1.5177045177045176, -0.25, 0.5, -0.09375, 1.0
905, -0.13675213675213677, 1.663003663003663, 3.0244200244200243, -0.34375, -0.4375, -0.3125, 1.0
906, -0.9133089133089133, 2.1343101343101343, 1.8437118437118436, 0.09375, -0.6875, -0.28125, 1.0
907, -1.1733821733821734, 1.15018315018315, -0.746031746031746, 0.59375, -0.28125, 0.0, 1.0
908, -0.73992673992674, -0.08547008547008547, -2.9206349206349205, 0.5, 0.25, 0.34375, 1.0
909, 1.0927960927960927, -0.6410256410256411, -2.1013431013431014, 0.0, 0.4375, 0.3125, 1.0
910, 0.6117216117216118, -0.38705738705738707, -0.6361416361416361, -0.28125, 0.21875, 0.03125, 1.0
911, 0.14407814407814407, 0.10256410256410256, 0.45665445665445664, -0.03125, 0.25, 0.0, 1.0
912, -0.38217338217338215, -0.057387057387057384, 0.43345543345543347, 0.09375, 0.21875, 0.125, 1.0
913, -0.2588522588522589, -0.24786324786324787, -0.07203907203907203, 0.03125, 0.09375, 0.1875, 1.0
914, 0.13553113553113552, -0.12698412698412698, -0.08058608058608059, -0.03125, -0.03125, 0.125, 1.0
915, -0.050061050061050064, -0.07448107448107448, -0.18681318681318682, 0.0, 0.03125, 0.15625, 1.0
916, -0.01221001221001221, 0.0231990231990232, -0.14774114774114774, 0.03125, 0.125, 0.125, 1.0
917, -0.08791208791208792, 0.026862026862026864, -0.2442002442002442, 0.0, 0.15625, 0.15625, 1.0
918, 0.13186813186813187, -0.11233211233211234, -0.21123321123321123, -0.09375, 0.09375, 0.125, 1.0
919, 0.09645909645909646, -0.04884004884004884, -0.02197802197802198, -0.125, 0.03125, 0.09375, 1.0
920, -0.10012210012210013, 0.2576312576312576, 0.3076923076923077, -0.03125, 0.09375, 0.15625, 1.0
921, 0.057387057387057384, -0.009768009768009768, 0.10866910866910867, 0.0625, 0.1875, 0.21875, 1.0
922, 0.2673992673992674, -0.16605616605616605, -0.20757020757020758, 0.0625, 0.21875, 0.1875, 1.0
923, 0.03540903540903541, -0.06593406593406594, 0.028083028083028084, -0.15625, 0.125, 0.09375, 1.0
924, 0.015873015873015872, 0.17704517704517705, 0.4835164835164835, -0.09375, 0.15625, 0.09375, 1.0
925, 0.21367521367521367, 0.09035409035409035, 0.315018315018315, 0.03125, 0.0625, 0.03125, 1.0
926, -0.15018315018315018, -0.14896214896214896, -0.43101343101343104, 0.03125, 0.0, 0.0, 1.0
927, -0.5262515262515263, -0.054945054945054944, -0.7374847374847375, -0.09375, 0.0625, 0.0, 1.0
928, -0.36996336996337, 0.14652014652014653, -0.199023199023199, -0.1875, 0.1875, 0.09375, 1.0
929, -0.0695970695970696, -0.12332112332112333, -0.21733821733821734, -0.1875, 0.25, 0.15625, 1.0
930, -0.18925518925518925, -0.32844932844932845, -0.8351648351648352, -0.34375, 0.34375, 0.15625, 0.0
931, -0.2844932844932845, 0.19047619047619047, -0.5811965811965812, -0.4375, 0.4375, 0.1875, 0.0
932, -0.115995115995116, -0.2148962148962149, -0.757020757020757, -0.25, 0.46875, 0.21875, 0.0
933, -0.4175824175824176, -0.15506715506715507, -1.2698412698412698, -0.09375, 0.5, 0.15625, 0.0
934, -1.054945054945055, -0.026862026862026864, -1.967032967032967, -0.03125, 0.5625, 0.21875, 0.0
935, -0.9902319902319903, 0.19536019536019536, -2.282051282051282, -0.09375, 0.65625, 0.40625, 0.0
936, -0.7777777777777778, -0.1452991452991453, -3.2527472527472527, -0.0625, 0.90625, 0.65625, 0.0
937, -0.43833943833943834, -1.0305250305250304, -4.788766788766789, -0.09375, 1.40625, 0.875, 0.0
938, 0.4822954822954823, -1.9865689865689866, -5.516483516483516, -0.25, 1.625, 0.875, 0.0
939, 1.8144078144078144, -2.2515262515262515, -5.394383394383395, -0.34375, 1.25, 0.71875, 0.0
940, 0.8583638583638583, -2.2295482295482296, -5.122100122100122, -0.25, 0.9375, 0.65625, 0.0
941, -0.21245421245421245, -3.2173382173382175, -4.973137973137973, -0.25, 0.96875, 0.59375, 0.0
942, -0.5873015873015873, -4.564102564102564, -5.001221001221001, -0.78125, 1.28125, 0.1875, 0.0
943, 0.07448107448107448, -4.3992673992674, -4.38949938949939, -1.5, 1.5, -0.21875, 0.0
944, 0.2967032967032967, -3.231990231990232, -2.7203907203907205, -1.8125, 1.53125, -0.375, 0.0
945, -0.5238095238095238, -2.553113553113553, -1.4615384615384615, -1.78125, 1.59375, -0.4375, 0.0
946, -0.13064713064713065, -2.0903540903540905, -0.08669108669108669, -1.75, 1.09375, -0.5, 0.0
947, 0.03540903540903541, -1.0915750915750915, 1.7802197802197801, -1.5625, 0.5, -0.625, 0.0
948, -1.0317460317460319, -0.4945054945054945, 2.183150183150183, -1.375, 0.34375, -0.65625, 0.0
949, -0.3797313797313797, -0.27106227106227104, 2.103785103785104, -1.1875, 0.46875, -0.5625, 0.0
950, -1.2246642246642248, -0.6678876678876678, 2.21978021978022, -1.125, 0.53125, -0.46875, 0.0
951, -0.4261294261294261, -0.47863247863247865, 2.305250305250305, -1.09375, 0.5625, -0.375, 0.0
952, -0.5152625152625152, -0.1746031746031746, 2.7032967032967035, -1.09375, 0.53125, -0.375, 0.0
953, -0.938949938949939, 0.057387057387057384, 3.057387057387057, -1.15625, 0.5625, -0.40625, 0.0
954, -1.0231990231990231, 0.11965811965811966, 3.431013431013431, -1.09375, 0.65625, -0.34375, 0.0
955, -1.205128205128205, -0.07814407814407814, 3.797313797313797, -0.96875, 0.625, -0.34375, 0.0
956, -1.363858363858364, 0.6446886446886447, 4.291819291819292, -0.9375, 0.6875, -0.28125, 0.0
957, -1.0293040293040292, 0.5628815628815629, 4.224664224664225, -0.6875, 0.625, -0.21875, 0.0
958, -1.5775335775335775, 0.17582417582417584, 4.1953601953601956, -0.4375, 0.34375, -0.09375, 0.0
959, -1.4932844932844933, 0.24664224664224665, 4.078144078144078, -0.375, 0.3125, -0.0625, 0.0
960, -1.7924297924297925, 0.3064713064713065, 4.1440781440781445, -0.34375, 0.28125, 0.0, 0.0
961, -1.7167277167277166, 0.5115995115995116, 3.913308913308913, -0.21875, 0.1875, 0.09375, 0.0
962, -1.205128205128205, 0.48473748473748474, 3.4175824175824174, -0.03125, 0.0, 0.21875, 0.0
963, -0.7142857142857143, 0.22832722832722832, 2.636141636141636, 0.1875, -0.375, 0.28125, 0.0
964, -1.0244200244200243, -0.2454212454212454, 1.4053724053724053, 0.28125, -0.40625, 0.25, 0.0
965, -0.8498168498168498, -0.6727716727716728, 0.040293040293040296, 0.25, -0.09375, 0.25, 0.0
966, -0.1978021978021978, -0.873015873015873, -0.702075702075702, 0.125, 0.0625, 0.25, 0.0
967, 0.7374847374847375, -1.037851037851038, -1.2002442002442002, 0.03125, -0.03125, 0.21875, 0.0
968, 0.7472527472527473, -0.7484737484737485, -1.2820512820512822, 0.0, -0.15625, 0.15625, 0.0
969, 0.06837606837606838, -0.43223443223443225, -1.098901098901099, -0.03125, -0.0625, 0.09375, 0.0
970, 0.1575091575091575, -0.20757020757020758, -0.24664224664224665, -0.0625, 0.1875, 0.09375, 0.0
971, 0.6019536019536019, -0.22466422466422467, -0.15873015873015872, -0.0625, 0.15625, 0.0625, 0.0
972, 0.1343101343101343, -0.1330891330891331, -0.05982905982905983, -0.03125, -0.09375, 0.0, 0.0
973, -0.2625152625152625, 0.018315018315018316, -0.19536019536019536, 0.0, -0.09375, 0.0, 0.0
974, -0.2783882783882784, -0.13675213675213677, -0.4297924297924298, 0.09375, 0.0, 0.03125, 0.0
975, 0.08791208791208792, -0.3064713064713065, -0.3785103785103785, 0.09375, 0.15625, 0.03125, 0.0
976, 0.10134310134310134, -0.16971916971916973, -0.07326007326007326, 0.0, 0.125, 0.0, 0.0
977, 0.007326007326007326, -0.0927960927960928, 0.09401709401709402, -0.0625, 0.09375, 0.0, 0.0
978, 0.07326007326007326, -0.030525030525030524, 0.14652014652014653, -0.0625, -0.03125, -0.03125, 0.0
979, -0.4652014652014652, 0.1746031746031746, -0.01221001221001221, -0.03125, -0.0625, -0.03125, 0.0
980, -0.4713064713064713, 0.08913308913308914, 0.019536019536019536, 0.0625, 0.0, 0.0, 0.0
981, 0.10989010989010989, -0.1330891330891331, -0.1343101343101343, 0.09375, 0.0625, 0.03125, 0.0
982, 0.1684981684981685, -0.3235653235653236, -0.28205128205128205, 0.0, -0.03125, 0.0, 0.0
983, 0.015873015873015872, -0.12087912087912088, -0.31746031746031744, -0.03125, 0.0, 0.0, 0.0
984, 0.05128205128205128, 0.003663003663003663, -0.25518925518925517, 0.0, 0.0, 0.0, 0.0
985, 0.13797313797313798, -0.029304029304029304, -0.27350427350427353, 0.0, 0.0, 0.0, 0.0
986, 0.07326007326007326, -0.04884004884004884, -0.31013431013431014, 0.0, 0.0, 0.0, 0.0
987, 0.08791208791208792, -0.007326007326007326, -0.23565323565323565, 0.03125, 0.0, 0.0625, 0.0
988, 0.03296703296703297, -0.0695970695970696, -0.07814407814407814, 0.0, 0.0, 0.09375, 0.0
989, -0.002442002442002442, 0.08180708180708181, 0.1794871794871795, 0.09375, 0.03125, 0.0625, 1.0
990, -0.3626373626373626, 0.32234432234432236, 0.3882783882783883, 0.25, 0.09375, 0.0625, 1.0
991, -0.054945054945054944, 0.42002442002442003, 0.41025641025641024, 0.34375, 0.15625, 0.15625, 1.0
992, 0.2967032967032967, -0.4542124542124542, 0.25274725274725274, 0.21875, 0.03125, 0.09375, 1.0
993, 0.0989010989010989, -0.34676434676434675, -0.3052503052503053, 0.0, -0.21875, 0.0, 1.0
994, -0.018315018315018316, -0.35775335775335776, -0.8083028083028083, -0.03125, -0.0625, 0.0, 1.0
995, 0.4542124542124542, -0.41514041514041516, -0.9499389499389499, -0.03125, 0.03125, 0.0, 1.0
996, 0.3601953601953602, -0.27228327228327226, -0.8608058608058609, -0.09375, 0.125, 0.0, 1.0
997, 0.2893772893772894, 0.01221001221001221, -0.32722832722832723, -0.15625, 0.1875, -0.03125, 1.0
998, 0.030525030525030524, 0.26495726495726496, 0.42246642246642246, -0.125, 0.15625, 0.0, 1.0
999, -0.10866910866910867, 0.2625152625152625, 0.9865689865689866, -0.0625, 0.125, 0.0, 1.0
1000, -0.1807081807081807, 0.23931623931623933, 1.4981684981684982, 0.0, 0.03125, 0.03125, 1.0
1001, -0.514041514041514, 0.1562881562881563, 2.0305250305250304, 0.09375, -0.03125, 0.0625, 1.0
1002, -0.7728937728937729, 0.01098901098901099, 2.750915750915751, 0.1875, -0.0625, 0.0625, 1.0
1003, -1.5091575091575091, -0.014652014652014652, 3.8351648351648353, 0.15625, 0.03125, 0.0, 1.0
1004, -1.2893772893772895, 0.31746031746031744, 5.3528693528693525, 0.125, 0.03125, 0.0, 1.0
1005, -1.586080586080586, 0.7203907203907204, 6.5677655677655675, 0.28125, -0.25, 0.03125, 1.0
1006, -1.94993894993895, 0.4188034188034188, 6.842490842490842, 0.4375, -0.46875, 0.0625, 1.0
1007, -2.139194139194139, 0.026862026862026864, 6.625152625152626, 0.5625, -0.59375, 0.0625, 1.0
1008, -2.572649572649573, -0.06593406593406594, 5.947496947496948, 0.8125, -0.5, 0.15625, 1.0
1009, -2.6837606837606836, 0.9242979242979243, 5.34065934065934, 1.40625, -0.125, 0.46875, 1.0
1010, -2.3394383394383396, 0.2026862026862027, 3.752136752136752, 1.84375, 0.375, 0.8125, 1.0
1011, -2.0488400488400487, -1.5262515262515262, 1.8815628815628815, 1.59375, 0.875, 1.125, 1.0
1012, -1.5848595848595848, -1.7252747252747254, 1.4493284493284493, 1.1875, 1.15625, 1.125, 1.0
1013, 0.6752136752136753, -1.4871794871794872, 1.9120879120879122, 1.03125, 0.40625, 0.96875, 1.0
1014, 0.8205128205128205, -1.5103785103785103, 1.5164835164835164, 1.0625, -0.59375, 0.625, 1.0
1015, -0.945054945054945, -1.2686202686202686, -0.14041514041514042, 1.25, -0.90625, 0.5, 1.0
1016, -0.24053724053724054, -2.0354090354090353, -3.070818070818071, 1.15625, -1.65625, 0.15625, 1.0
1017, -1.5848595848595848, -1.4957264957264957, -3.1257631257631258, 1.0625, -2.125, 0.0, 1.0
1018, -2.0586080586080584, -2.1575091575091574, -4.216117216117216, 1.375, -2.09375, 0.125, 1.0
1019, -0.5934065934065934, -3.1123321123321124, -5.462759462759463, 1.375, -2.15625, 0.46875, 1.0
1020, 0.6385836385836385, -3.3028083028083026, -6.681318681318682, 1.09375, -2.25, 0.34375, 1.0
1021, -0.09523809523809523, -1.829059829059829, -7.3931623931623935, 0.875, -2.21875, 0.34375, 1.0
1022, -0.702075702075702, -1.1257631257631258, -7.785103785103785, 1.03125, -1.21875, 0.8125, 1.0
1023, 0.0989010989010989, -0.7802197802197802, -6.183150183150183, 1.46875, 0.21875, 1.5625, 1.0
1024, 1.9035409035409034, -2.84004884004884, -4.995115995115995, 1.90625, 1.34375, 1.9375, 1.0
1025, 1.8998778998778998, -3.8803418803418803, -3.761904761904762, 1.34375, 1.4375, 1.65625, 1.0
1026, 1.8571428571428572, -1.089133089133089, -0.9072039072039072, 0.5625, 1.03125, 0.90625, 1.0
1027, 1.7484737484737485, -0.8253968253968254, 0.6361416361416361, 0.1875, 0.15625, 0.21875, 1.0
1028, 0.5970695970695971, 0.26495726495726496, 1.47985347985348, -0.09375, -1.1875, -0.53125, 1.0
1029, -0.40415140415140416, 0.9206349206349206, 0.7387057387057387, 0.15625, -1.21875, -0.375, 1.0
1030, -0.8083028083028083, -0.13186813186813187, -1.2686202686202686, 0.21875, -0.5625, 0.0, 1.0
1031, -0.07692307692307693, -0.02442002442002442, -1.5360195360195361, 0.125, 0.0, 0.3125, 1.0
1032, 0.7057387057387058, 0.5103785103785103, -0.673992673992674, 0.21875, 0.25, 0.4375, 1.0
1033, 1.225885225885226, 0.2515262515262515, -0.2844932844932845, 0.25, 0.15625, 0.3125, 1.0
1034, 1.3296703296703296, -0.1330891330891331, -0.6593406593406593, 0.21875, 0.03125, 0.09375, 1.0
1035, 0.8595848595848596, -0.5897435897435898, -1.1452991452991452, 0.0625, 0.03125, -0.09375, 1.0
1036, 0.40415140415140416, -0.5824175824175825, -1.089133089133089, -0.0625, 0.03125, -0.28125, 1.0
1037, -0.14896214896214896, 0.026862026862026864, -0.409035409035409, -0.0625, 0.0, -0.3125, 1.0
1038, -0.7851037851037851, 0.5103785103785103, -0.029304029304029304, -0.03125, 0.0, -0.1875, 1.0
1039, -1.078144078144078, 0.7472527472527473, 0.1221001221001221, 0.0625, 0.0, 0.125, 1.0
1040, 0.052503052503052504, -0.23565323565323565, -0.43833943833943834, 0.0, 0.0625, 0.125, 1.0
1041, 0.09768009768009768, -0.31868131868131866, -0.41025641025641024, -0.03125, 0.0625, 0.03125, 1.0
1042, -0.12576312576312576, -0.23321123321123322, -0.17094017094017094, -0.0625, 0.09375, -0.0625, 1.0
1043, -0.43345543345543347, 0.05860805860805861, 0.018315018315018316, -0.0625, 0.125, -0.0625, 1.0
1044, -0.5409035409035409, 0.19658119658119658, 0.2576312576312576, -0.0625, 0.09375, 0.0, 1.0
1045, -0.25396825396825395, 0.08669108669108669, 0.2576312576312576, -0.03125, 0.09375, 0.0625, 1.0
1046, -0.14285714285714285, -0.231990231990232, 0.002442002442002442, 0.0, 0.09375, 0.09375, 1.0
1047, -0.10500610500610501, -0.4481074481074481, -0.10500610500610501, -0.03125, 0.1875, 0.0625, 1.0
1048, 0.06715506715506715, -0.15018315018315018, -0.009768009768009768, -0.125, 0.15625, 0.03125, 1.0
1049, -0.006105006105006105, -0.05128205128205128, -0.006105006105006105, -0.15625, 0.0625, 0.0, 1.0
1050, -0.029304029304029304, -0.10256410256410256, -0.12942612942612944, -0.21875, 0.0625, 0.0, 1.0
1051, -0.05372405372405373, -0.23443223443223443, -0.36996336996337, -0.28125, 0.21875, 0.0625, 0.0
1052, -0.001221001221001221, 0.17704517704517705, -0.42124542124542125, -0.125, 0.28125, 0.1875, 0.0
1053, 0.1111111111111111, 0.4945054945054945, -0.0695970695970696, 0.15625, 0.3125, 0.21875, 0.0
1054, 0.6178266178266179, 0.38217338217338215, -0.12332112332112333, 0.53125, 0.21875, 0.21875, 0.0
1055, 0.5592185592185592, -0.15506715506715507, -1.3382173382173381, 0.75, 0.15625, 0.125, 0.0
1056, -0.2026862026862027, -1.6227106227106227, -3.2808302808302807, 0.28125, 0.46875, -0.09375, 0.0
1057, -0.442002442002442, -1.601953601953602, -3.8241758241758244, -0.40625, 0.875, -0.3125, 0.0
1058, 0.9401709401709402, -0.5824175824175825, -2.8632478632478633, -0.71875, 0.71875, -0.46875, 0.0
1059, 1.4884004884004884, -1.656898656898657, -2.857142857142857, -1.0, 0.3125, -0.75, 0.0
1060, 1.9731379731379732, -1.6336996336996337, -3.178266178266178, -1.09375, -0.09375, -1.03125, 0.0
1061, 1.0598290598290598, -0.44078144078144077, -3.7142857142857144, -0.71875, -0.125, -0.90625, 0.0
1062, 0.2026862026862027, -1.3382173382173381, -4.437118437118437, -0.40625, 0.0625, -0.46875, 0.0
1063, -0.03785103785103785, -3.0488400488400487, -4.155067155067155, -1.09375, 0.65625, -0.46875, 0.0
1064, 0.14285714285714285, -1.6727716727716728, -2.7094017094017095, -1.46875, 0.75, -0.53125, 0.0
1065, 0.2686202686202686, -0.663003663003663, -1.8962148962148961, -1.125, 0.8125, -0.40625, 0.0
1066, 1.2063492063492063, -1.6556776556776556, -1.7619047619047619, -0.4375, 0.71875, -0.21875, 0.0
1067, 0.3894993894993895, -3.057387057387057, -1.7313797313797314, -0.375, 0.4375, -0.4375, 0.0
1068, -0.21123321123321123, -3.0854700854700856, -1.277167277167277, -0.90625, 0.40625, -0.78125, 0.0
1069, -0.4700854700854701, -2.120879120879121, -0.1330891330891331, -1.5, 0.65625, -0.90625, 0.0
1070, -0.28205128205128205, -1.0317460317460319, 1.1062271062271063, -1.75, 0.78125, -0.875, 0.0
1071, -0.3797313797313797, -0.020757020757020756, 2.227106227106227, -1.71875, 0.75, -0.84375, 0.0
1072, -0.6324786324786325, 0.26495726495726496, 2.7643467643467643, -1.4375, 0.5, -0.78125, 0.0
1073, -1.0744810744810744, 0.5323565323565324, 3.0915750915750917, -1.09375, 0.3125, -0.65625, 0.0
1074, -1.1904761904761905, 0.21855921855921856, 3.0854700854700856, -0.875, 0.25, -0.53125, 0.0
1075, -0.873015873015873, 0.030525030525030524, 2.9035409035409034, -0.9375, 0.15625, -0.5, 0.0
1076, -1.7545787545787546, 0.10989010989010989, 3.111111111111111, -1.09375, 0.25, -0.5, 0.0
1077, -1.1611721611721613, 0.38583638583638585, 3.253968253968254, -1.03125, 0.28125, -0.4375, 0.0
1078, -1.4236874236874237, 0.21978021978021978, 3.247863247863248, -0.875, 0.15625, -0.375, 0.0
1079, -0.663003663003663, 0.47863247863247865, 2.6214896214896215, -0.625, 0.0, -0.25, 0.0
1080, -2.0415140415140414, 0.31868131868131866, 2.354090354090354, -0.5, 0.15625, -0.1875, 0.0
1081, -1.547008547008547, 0.15995115995115994, 2.0024420024420024, -0.46875, 0.4375, -0.09375, 0.0
1082, -1.181929181929182, -0.026862026862026864, 2.064713064713065, -0.46875, 0.5625, -0.03125, 0.0
1083, -0.8620268620268621, -0.07692307692307693, 2.1587301587301586, -0.46875, 0.46875, -0.03125, 0.0
1084, -0.778998778998779, -0.1343101343101343, 2.4236874236874235, -0.53125, 0.25, 0.0, 0.0
1085, -1.0085470085470085, 0.21245421245421245, 2.7142857142857144, -0.46875, 0.03125, 0.0, 0.0
1086, -1.5006105006105006, 0.3431013431013431, 2.249084249084249, -0.28125, 0.03125, 0.0625, 0.0
1087, -0.2979242979242979, -0.2612942612942613, 1.1575091575091576, 0.0, 0.09375, 0.15625, 0.0
1088, -0.5628815628815629, -0.43101343101343104, 0.7167277167277167, 0.09375, -0.09375, 0.21875, 0.0
1089, -0.07448107448107448, -0.6556776556776557, 0.06837606837606838, 0.125, -0.03125, 0.1875, 0.0
1090, -0.10866910866910867, -0.8962148962148963, -0.14407814407814407, -0.03125, -0.0625, 0.1875, 0.0
1091, -0.5238095238095238, -0.27594627594627597, 0.45787545787545786, -0.21875, 0.09375, 0.09375, 0.0
1092, 0.9511599511599511, -0.17094017094017094, 0.336996336996337, -0.03125, 0.125, 0.0625, 0.0
1093, 0.6727716727716728, -0.5958485958485958, -0.4236874236874237, 0.125, -0.34375, 0.09375, 0.0
1094, -0.14041514041514042, -0.6727716727716728, -0.9548229548229549, 0.1875, -0.46875, 0.03125, 0.0
1095, -0.4627594627594628, -0.5311355311355311, -0.9377289377289377, 0.09375, -0.0625, 0.03125, 0.0
1096, 0.35653235653235654, -0.4822954822954823, -0.5103785103785103, 0.03125, 0.25, 0.0, 0.0
1097, 0.3528693528693529, -0.2148962148962149, -0.14163614163614163, -0.03125, 0.1875, -0.0625, 0.0
1098, 0.231990231990232, -0.13064713064713065, 0.10256410256410256, -0.03125, -0.125, -0.09375, 0.0
1099, -0.10378510378510379, -0.02197802197802198, -0.0231990231990232, 0.0, -0.1875, -0.09375, 0.0
1100, -0.45054945054945056, 0.030525030525030524, -0.13553113553113552, 0.0, -0.09375, -0.0625, 0.0
1101, -0.3626373626373626, 0.1282051282051282, -0.22344322344322345, 0.0625, 0.0625, -0.03125, 0.0
1102, 0.19291819291819293, -0.22344322344322345, -0.5152625152625152, 0.0, 0.0, 0.0, 0.0
1103, -0.3235653235653236, 0.018315018315018316, -0.36752136752136755, 0.0, 0.0625, 0.0, 0.0
1104, 0.1746031746031746, -0.08058608058608059, -0.24175824175824176, -0.03125, 0.0, 0.0, 0.0
1105, -0.19413919413919414, 0.05372405372405373, -0.01221001221001221, -0.03125, 0.0625, 0.0, 0.0
1106, 0.12576312576312576, -0.15506715506715507, -0.015873015873015872, -0.09375, 0.0, 0.0, 0.0
1107, -0.03785103785103785, 0.029304029304029304, 0.23565323565323565, -0.09375, 0.0, -0.03125, 0.0
1108, -0.020757020757020756, 0.01098901098901099, 0.14774114774114774, 0.0, -0.0625, 0.0, 0.0
1109, 0.029304029304029304, -0.0989010989010989, -0.24053724053724054, 0.0625, 0.0, 0.03125, 0.0
1110, -0.20146520146520147, -0.3431013431013431, -0.23687423687423687, 0.0, 0.09375, 0.0, 0.0
1111, 0.07814407814407814, -0.10012210012210013, 0.06227106227106227, -0.0625, 0.25, 0.0, 0.0
1112, 0.57997557997558, 0.02197802197802198, 0.4456654456654457, 0.0, 0.09375, 0.0, 1.0
1113, 0.06715506715506715, 0.31746031746031744, 0.17704517704517705, 0.0, -0.09375, 0.03125, 1.0
1114, -0.17582417582417584, -0.28327228327228327, -0.12698412698412698, 0.125, -0.125, 0.03125, 1.0
1115, 0.057387057387057384, -0.12087912087912088, -0.221001221001221, 0.15625, -0.03125, 0.0, 1.0
1116, 0.12698412698412698, -0.1111111111111111, -0.4468864468864469, 0.1875, 0.0, 0.0, 1.0
1117, 0.09523809523809523, -0.29914529914529914, -0.5653235653235653, 0.15625, 0.09375, 0.0, 1.0
1118, 0.20024420024420025, -0.5677655677655677, -0.5982905982905983, -0.0625, 0.21875, -0.03125, 1.0
1119, 0.3516483516483517, 0.009768009768009768, 0.16361416361416362, -0.3125, 0.1875, -0.125, 1.0
1120, -0.221001221001221, 0.5128205128205128, 0.9108669108669109, -0.34375, 0.0, -0.15625, 1.0
1121, -0.7289377289377289, 1.0268620268620268, 1.6703296703296704, 0.0, 0.0, 0.0, 1.0
1122, -0.8302808302808303, 0.9462759462759462, 2.413919413919414, 0.25, 0.0625, 0.09375, 1.0
1123, -0.8522588522588522, 0.35653235653235654, 3.1746031746031744, 0.25, 0.03125, 0.125, 1.0
1124, -1.2967032967032968, 0.27350427350427353, 4.409035409035409, 0.125, 0.0, 0.09375, 1.0
1125, -1.4908424908424909, 0.8021978021978022, 6.112332112332112, 0.25, -0.25, 0.125, 1.0
1126, -1.84004884004884, 0.6898656898656899, 6.842490842490842, 0.4375, -0.53125, 0.15625, 1.0
1127, -2.3504273504273505, 0.12698412698412698, 6.747252747252747, 0.46875, -0.6875, 0.15625, 1.0
1128, -2.4249084249084247, 0.015873015873015872, 6.63980463980464, 0.59375, -0.75, 0.1875, 1.0
1129, -2.706959706959707, 0.3528693528693529, 5.880341880341881, 1.03125, -0.53125, 0.3125, 1.0
1130, -2.47008547008547, 1.072039072039072, 4.643467643467644, 1.6875, -0.03125, 0.625, 1.0
1131, -0.5555555555555556, -0.2503052503052503, 2.0366300366300365, 2.03125, 0.1875, 0.8125, 1.0
1132, 2.6446886446886446, -3.1758241758241756, 0.32844932844932845, 0.78125, -0.9375, 0.15625, 1.0
1133, -2.122100122100122, 0.7606837606837606, 1.6153846153846154, 0.65625, -1.0, -0.09375, 1.0
1134, -3.659340659340659, 1.982905982905983, 0.5848595848595849, 2.0625, 0.0625, 0.59375, 1.0
1135, 1.5677655677655677, -3.357753357753358, -2.514041514041514, 3.25, 1.0625, 1.5625, 1.0
1136, 7.014652014652015, -7.412698412698413, -4.48962148962149, 2.15625, -0.125, 0.96875, 1.0
1137, 2.1172161172161172, -3.6788766788766787, -2.868131868131868, 0.15625, -2.125, -0.5625, 1.0
1138, -1.9853479853479854, 0.1343101343101343, -0.7326007326007326, 0.09375, -2.1875, -1.0625, 1.0
1139, -3.148962148962149, 0.19291819291819293, 0.315018315018315, 1.1875, -1.75, -0.53125, 1.0
1140, -0.23931623931623933, -2.9255189255189253, -0.7973137973137974, 1.9375, -1.5625, -0.21875, 1.0
1141, 0.21123321123321123, -3.843711843711844, -2.778998778998779, 1.5625, -2.46875, -0.59375, 1.0
1142, -0.6874236874236874, -2.9145299145299144, -4.107448107448107, 0.9375, -3.125, -0.96875, 1.0
1143, -2.1575091575091574, -1.380952380952381, -4.311355311355311, 0.78125, -3.25, -0.8125, 1.0
1144, -1.4505494505494505, -1.8742368742368742, -5.4041514041514045, 1.03125, -2.125, -0.375, 1.0
1145, -1.9328449328449329, -0.9328449328449329, -5.897435897435898, 1.125, -1.0625, 0.09375, 1.0
1146, -0.5604395604395604, -1.4175824175824177, -5.9072039072039075, 1.03125, -0.15625, 0.40625, 1.0
1147, 0.6984126984126984, -1.927960927960928, -5.054945054945055, 0.71875, 0.28125, 0.4375, 1.0
1148, 1.0036630036630036, -1.0647130647130647, -3.1416361416361416, 0.46875, 0.1875, 0.15625, 1.0
1149, -0.08424908424908426, 0.06349206349206349, -1.2380952380952381, 0.4375, 0.15625, 0.09375, 1.0
1150, -0.8205128205128205, 0.7924297924297924, -0.4297924297924298, 0.5625, 0.25, 0.25, 1.0
1151, -0.49572649572649574, 0.40415140415140416, -0.2026862026862027, 0.53125, 0.28125, 0.4375, 1.0
1152, 0.07203907203907203, 0.08058608058608059, -0.29426129426129427, 0.34375, 0.28125, 0.5, 1.0
1153, 0.7313797313797313, -0.38583638583638585, -0.2796092796092796, 0.0625, 0.1875, 0.34375, 1.0
1154, 0.8986568986568987, -0.2026862026862027, 0.28083028083028083, -0.03125, 0.0, 0.125, 1.0
1155, 0.29181929181929184, 0.07203907203907203, 0.30036630036630035, 0.0, -0.125, 0.03125, 1.0
1156, -0.503052503052503, -0.12087912087912088, -0.8376068376068376, 0.15625, 0.0625, 0.15625, 1.0
1157, -0.4456654456654457, -0.6898656898656899, -1.0305250305250304, 0.21875, 0.40625, 0.3125, 1.0
1158, 0.20024420024420025, -0.6422466422466423, -0.5091575091575091, 0.125, 0.625, 0.375, 1.0
1159, 0.4993894993894994, -0.5164835164835165, 0.008547008547008548, 0.0625, 0.53125, 0.3125, 1.0
1160, 0.40293040293040294, -0.10500610500610501, 0.40293040293040294, 0.03125, 0.28125, 0.15625, 1.0
1161, 0.045177045177045176, -0.10866910866910867, 0.1855921855921856, 0.03125, 0.0625, 0.09375, 1.0
1162, -0.2796092796092796, -0.11355311355311355, 0.01098901098901099, -0.03125, -0.03125, 0.03125, 1.0
1163, -0.1514041514041514, 0.06105006105006105, -0.09645909645909646, -0.0625, 0.03125, 0.03125, 1.0
1164, -0.013431013431013432, 0.07448107448107448, 0.07814407814407814, 0.0, 0.09375, 0.09375, 1.0
1165, 0.045177045177045176, -0.08302808302808302, 0.1343101343101343, 0.0625, 0.15625, 0.125, 1.0
1166, 0.1452991452991453, -0.315018315018315, -0.10622710622710622, 0.03125, 0.1875, 0.09375, 1.0
1167, 0.03540903540903541, -0.12942612942612944, -0.16117216117216118, -0.0625, 0.09375, 0.0, 1.0
1168, -0.06837606837606838, 0.006105006105006105, -0.040293040293040296, -0.0625, 0.09375, 0.03125, 1.0
1169, -0.12087912087912088, 0.002442002442002442, 0.009768009768009768, 0.0, 0.125, 0.09375, 1.0
1170, -0.02197802197802198, 0.02564102564102564, 0.0927960927960928, 0.0, 0.125, 0.0625, 1.0
1171, 0.08791208791208792, -0.045177045177045176, -0.06837606837606838, 0.0, 0.09375, 0.03125, 1.0
1172, -0.10989010989010989, -0.12942612942612944, -0.31135531135531136, -0.03125, 0.125, 0.0, 1.0
1173, -0.34065934065934067, -0.3028083028083028, -0.8046398046398047, -0.1875, 0.3125, 0.0625, 0.0
1174, -0.49206349206349204, -0.028083028083028084, -1.1733821733821734, -0.25, 0.5, 0.15625, 0.0
1175, -0.3418803418803419, 0.34554334554334554, -1.065934065934066, -0.09375, 0.71875, 0.28125, 0.0
1176, -0.9499389499389499, 0.6227106227106227, -0.6703296703296703, 0.0625, 0.90625, 0.53125, 0.0
1177, -0.23565323565323565, -0.30036630036630035, -0.6043956043956044, 0.25, 1.0625, 0.65625, 0.0
1178, 0.9694749694749695, -1.5567765567765568, -1.547008547008547, 0.1875, 0.9375, 0.40625, 0.0
1179, 1.0964590964590966, -2.103785103785104, -4.211233211233211, -0.375, 0.625, -0.1875, 0.0
1180, 0.11355311355311355, -2.0915750915750917, -4.641025641025641, -0.875, 0.65625, -0.4375, 0.0
1181, 0.32234432234432236, -2.442002442002442, -4.4664224664224665, -1.21875, 0.9375, -0.40625, 0.0
1182, 0.35653235653235654, -1.916971916971917, -3.772893772893773, -1.40625, 1.0, -0.40625, 0.0
1183, 0.10012210012210013, -1.6532356532356531, -3.3882783882783882, -1.34375, 1.09375, -0.40625, 0.0
1184, 0.9401709401709402, -1.8388278388278387, -2.8644688644688645, -1.28125, 0.9375, -0.375, 0.0
1185, 0.5042735042735043, -1.6666666666666667, -2.7387057387057387, -1.15625, 0.5625, -0.4375, 0.0
1186, 0.08547008547008547, -1.8253968253968254, -2.9108669108669107, -0.96875, 0.6875, -0.34375, 0.0
1187, 1.2112332112332111, -2.47985347985348, -2.6446886446886446, -0.875, 0.8125, -0.28125, 0.0
1188, 0.7753357753357754, -2.6483516483516483, -1.879120879120879, -1.03125, 0.53125, -0.46875, 0.0
1189, -0.1855921855921856, -2.4652014652014653, -1.1489621489621489, -1.3125, 0.46875, -0.71875, 0.0
1190, -0.8424908424908425, -1.4456654456654456, 0.08058608058608059, -1.6875, 0.65625, -0.875, 0.0
1191, -0.5946275946275946, -0.315018315018315, 1.297924297924298, -1.46875, 0.78125, -0.8125, 0.0
1192, -0.8693528693528694, -0.10622710622710622, 1.7912087912087913, -1.125, 0.6875, -0.6875, 0.0
1193, -0.938949938949939, -0.1514041514041514, 2.0256410256410255, -0.90625, 0.65625, -0.59375, 0.0
1194, -1.15018315018315, -0.10256410256410256, 2.2796092796092795, -0.84375, 0.8125, -0.59375, 0.0
1195, -0.3199023199023199, -0.16361416361416362, 2.1807081807081805, -0.875, 0.625, -0.59375, 0.0
1196, -0.23687423687423687, -0.5067155067155067, 2.363858363858364, -1.0625, 0.25, -0.65625, 0.0
1197, -0.9572649572649573, -0.006105006105006105, 2.786324786324786, -1.28125, 0.09375, -0.75, 0.0
1198, -1.3125763125763126, 0.4236874236874237, 3.238095238095238, -1.25, 0.03125, -0.6875, 0.0
1199, -1.5189255189255189, 0.9426129426129426, 3.326007326007326, -0.96875, 0.15625, -0.5, 0.0
1200, -0.9181929181929182, 1.2478632478632479, 3.0598290598290596, -0.46875, 0.15625, -0.3125, 0.0
1201, -0.48717948717948717, 0.5225885225885226, 2.255189255189255, -0.1875, -0.03125, -0.15625, 0.0
1202, -0.43223443223443225, -0.04151404151404151, 1.435897435897436, -0.375, -0.03125, -0.1875, 0.0
1203, -1.7435897435897436, 0.4700854700854701, 2.2808302808302807, -0.65625, 0.375, -0.15625, 0.0
1204, -1.4639804639804639, 1.1831501831501832, 3.5811965811965814, -0.78125, 0.6875, -0.1875, 0.0
1205, -1.4713064713064714, 1.5787545787545787, 4.334554334554334, -0.59375, 0.5625, -0.09375, 0.0
1206, -1.835164835164835, 1.6703296703296704, 4.4945054945054945, -0.3125, 0.28125, 0.0, 0.0
1207, -1.9682539682539681, 1.205128205128205, 4.0195360195360195, -0.09375, 0.09375, 0.15625, 0.0
1208, -1.7448107448107448, 0.7716727716727717, 3.183150183150183, 0.0, 0.03125, 0.21875, 0.0
1209, -0.757020757020757, 0.38095238095238093, 2.075702075702076, 0.09375, 0.0, 0.3125, 0.0
1210, 0.7997557997557998, -0.1514041514041514, 0.27472527472527475, 0.3125, -0.4375, 0.40625, 0.0
1211, 0.4261294261294261, -0.6703296703296703, -1.3833943833943834, 0.46875, -0.90625, 0.4375, 0.0
1212, -0.34676434676434675, -0.905982905982906, -2.3553113553113554, 0.34375, -0.625, 0.375, 0.0
1213, 0.4017094017094017, -0.8290598290598291, -2.452991452991453, 0.0625, 0.09375, 0.3125, 0.0
1214, 1.3540903540903542, -0.6312576312576312, -1.7973137973137974, -0.15625, 0.28125, 0.1875, 0.0
1215, 1.137973137973138, -0.4188034188034188, -1.144078144078144, -0.28125, 0.09375, 0.09375, 0.0
1216, 0.1807081807081807, 0.09157509157509157, -0.4945054945054945, -0.21875, 0.09375, 0.0625, 0.0
1217, 0.047619047619047616, 0.0757020757020757, -0.25518925518925517, -0.09375, 0.15625, 0.09375, 0.0
1218, -0.10012210012210013, 0.020757020757020756, 0.014652014652014652, -0.03125, 0.1875, 0.0625, 0.0
1219, 0.231990231990232, -0.4371184371184371, -0.10012210012210013, -0.09375, 0.09375, 0.0625, 0.0
1220, -0.2771672771672772, -0.20146520146520147, 0.20512820512820512, -0.1875, 0.09375, 0.0, 0.0
1221, 0.3504273504273504, -0.1452991452991453, 0.22466422466422467, -0.125, 0.0, 0.0, 0.0
1222, -0.09401709401709402, -0.07326007326007326, 0.1684981684981685, -0.09375, -0.03125, 0.0, 0.0
1223, -0.42002442002442003, 0.12454212454212454, 0.14285714285714285, 0.0, 0.09375, 0.0, 0.0
1224, -0.3956043956043956, -0.007326007326007326, 0.13553113553113552, 0.0625, 0.28125, 0.0, 0.0
1225, -0.03785103785103785, -0.10500610500610501, 0.36752136752136755, 0.03125, 0.1875, 0.0, 0.0
1226, 0.10012210012210013, 0.05982905982905983, 0.796092796092796, 0.03125, -0.0625, -0.03125, 0.0
1227, -0.23931623931623933, 0.03785103785103785, 0.5152625152625152, 0.125, -0.21875, -0.03125, 0.0
1228, -0.18803418803418803, -0.15262515262515264, 0.028083028083028084, 0.15625, -0.1875, 0.0, 0.0
1229, 0.19047619047619047, -0.24175824175824176, -0.42002442002442003, 0.15625, -0.125, 0.0, 0.0
1230, 0.36385836385836384, -0.30036630036630035, -0.7680097680097681, 0.15625, -0.125, 0.0, 0.0
1231, 0.47741147741147744, -0.336996336996337, -0.905982905982906, 0.0625, -0.125, 0.0, 0.0
1232, 0.33943833943833945, -0.06471306471306472, -0.6703296703296703, 0.0, -0.125, 0.0, 0.0
1233, 0.24786324786324787, 0.008547008547008548, -0.46153846153846156, 0.0, -0.0625, -0.03125, 0.0
1234, 0.1221001221001221, 0.18803418803418803, -0.07448107448107448, 0.0, -0.03125, 0.0, 0.0
1235, -0.32722832722832723, 0.5714285714285714, 0.48473748473748474, 0.125, -0.03125, 0.0625, 0.0
1236, -0.40293040293040294, 0.17826617826617827, 0.5616605616605617, 0.25, 0.0, 0.1875, 0.0
1237, -0.6385836385836385, 0.31013431013431014, 0.6544566544566545, 0.3125, 0.21875, 0.21875, 1.0
1238, -0.2625152625152625, -0.10866910866910867, 0.8498168498168498, 0.21875, 0.28125, 0.21875, 1.0
1239, -0.10256410256410256, -0.03418803418803419, 1.2478632478632479, 0.1875, 0.15625, 0.21875, 1.0
1240, -0.608058608058608, 0.04884004884004884, 2.05006105006105, 0.0625, 0.0, 0.125, 1.0
1241, -1.343101343101343, 0.8327228327228328, 3.31013431013431, 0.09375, -0.0625, 0.15625, 1.0
1242, -1.811965811965812, 1.1343101343101343, 4.476190476190476, 0.1875, -0.125, 0.21875, 1.0
1243, -2.3064713064713063, 0.5641025641025641, 4.603174603174603, 0.0625, -0.0625, 0.21875, 1.0
1244, -2.275946275946276, 0.20024420024420025, 4.925518925518926, -0.15625, -0.09375, 0.21875, 1.0
