timestamp, accX, accY, accZ, gyroX, gyroY, gyroZ, button
9995, 0.264, -1.177, -0.314, -0.152, 0.106, 0.164, 1
10015, 0.377, -1.237, -0.113, -0.148, 0.058, 0.162, 1
10035, 0.177, -1.164, 0.046, -0.233, 0.072, 0.164, 1
10055, 0.4, -1.178, -0.001, -0.312, 0.088, 0.141, 1
10075, 0.345, -0.934, -0.016, -0.332, 0.149, 0.175, 1
10095, 0.184, -0.887, -0.018, -0.387, 0.24, 0.222, 1
10115, -0.188, -0.323, -0.21, -0.493, 0.328, 0.283, 1
10135, -0.428, -0.098, -0.206, -0.556, 0.406, 0.261, 1
10155, -0.208, -0.157, -0.089, -0.589, 0.343, 0.194, 1
10175, -0.062, -0.105, 0.007, -0.587, 0.244, 0.195, 1
10195, -0.085, -0.123, 0.014, -0.562, 0.238, 0.205, 1
10215, -0.089, -0.068, 0.012, -0.515, 0.304, 0.211, 1
10235, -0.059, -0.033, -0.075, -0.544, 0.296, 0.174, 1
10255, 0.251, 0.336, -0.419, -0.53, 0.234, 0.12, 1
10275, -0.014, 0.354, -0.36, -0.436, 0.038, 0.127, 1
10295, -0.306, 0.174, -0.35, -0.319, -0.006, 0.153, 1
10315, -0.019, -0.045, 0.073, -0.204, 0.039, 0.163, 1
10335, 0.144, -0.021, 0.665, -0.268, 0.015, 0.244, 1
10355, -0.712, 0.382, -0.281, -0.378, 0.014, 0.268, 1
10375, -0.536, 0.231, -0.455, -0.219, 0.209, 0.192, 1
10395, -0.134, -0.03, -0.295, -0.116, 0.258, 0.172, 1
10415, -0.075, -0.049, -0.328, -0.106, 0.13, 0.172, 1
10435, -0.634, 0.438, -0.165, -0.067, 0.039, 0.155, 1
10455, -0.125, 0.073, 0.195, 0.011, 0.103, 0.119, 1
10475, -0.27, -0.042, 0.193, -0.076, -0.08, 0.081, 1
10495, -0.497, -0.173, 0.055, -0.183, -0.226, 0.059, 1
10515, -0.431, -0.18, -0.045, -0.262, -0.224, 0.093, 1
10535, -0.271, -0.214, -0.123, -0.292, -0.194, 0.095, 1
10555, 0.01, -0.231, -0.24, -0.313, -0.123, 0.037, 1
10575, 0.135, -0.252, -0.278, -0.346, -0.051, 0.008, 1
10595, -0.041, -0.425, -0.464, -0.387, 0.093, 0.075, 1
10615, 0.326, -0.22, -0.584, -0.461, 0.272, 0.173, 1
10635, 0.481, -0.015, -0.331, -0.419, 0.343, 0.208, 1
10655, 0.183, 0.016, -0.338, -0.368, 0.309, 0.294, 1
10675, 0.147, -0.074, -0.322, -0.276, 0.365, 0.328, 1
10695, 0.249, -0.151, -0.319, -0.197, 0.262, 0.293, 1
10715, -0.027, -0.008, -0.415, -0.169, 0.13, 0.346, 1
10735, -0.111, -0.05, -0.304, -0.117, 0.123, 0.415, 1
10755, -0.192, -0.092, -0.141, -0.054, 0.144, 0.488, 1
10775, -0.228, -0.146, -0.016, -0.037, 0.161, 0.522, 1
10795, -0.462, -0.199, -0.019, 0.021, 0.201, 0.555, 1
10815, -0.219, -0.427, 0.142, -0.006, 0.146, 0.577, 1
10835, -0.231, -0.618, 0.342, -0.077, 0.126, 0.594, 1
10855, -0.349, -0.253, -0.06, -0.08, 0.216, 0.57, 1
10875, -0.469, 0.051, -0.325, 0.029, 0.409, 0.576, 1
10895, 0.0, -0.05, -0.288, 0.029, 0.398, 0.598, 1
10915, 0.218, -0.217, -0.274, -0.042, 0.321, 0.619, 1
10935, 0.394, -0.167, -0.441, -0.103, 0.282, 0.68, 1
10955, 0.426, 0.057, -0.719, -0.071, 0.286, 0.803, 1
10975, -0.088, 0.405, -0.821, 0.001, 0.406, 0.905, 1
10995, -0.565, 0.675, -0.977, 0.027, 0.527, 0.896, 1
11015, -0.206, 0.15, -0.637, -0.003, 0.355, 0.813, 1
11035, -0.137, 0.028, -0.577, -0.02, 0.117, 0.772, 1
11055, -0.755, 0.156, -0.484, 0.05, 0.194, 0.79, 1
11075, -0.891, 0.03, -0.383, 0.168, 0.306, 0.726, 1
11095, -0.615, -0.438, 0.058, 0.218, 0.28, 0.615, 1
11115, -0.523, -0.55, 0.154, 0.087, 0.235, 0.579, 1
11135, -0.862, 0.05, -0.172, -0.037, 0.307, 0.673, 1
11155, -1.337, 0.05, -0.231, -0.028, 0.447, 0.621, 1
11175, -1.25, -0.036, -0.102, -0.009, 0.455, 0.492, 1
11195, -0.935, -0.127, 0.053, -0.028, 0.302, 0.35, 1
11215, -0.872, -0.372, 0.118, -0.122, 0.172, 0.222, 1
11235, -0.165, -0.292, -0.027, -0.154, 0.062, 0.202, 1
11255, 0.031, -0.368, -0.032, -0.145, -0.06, 0.191, 1
11275, -0.537, 0.16, -0.233, -0.061, -0.1, 0.244, 1
11295, -0.202, -0.249, 0.075, 0.135, 0.048, 0.273, 1
11315, 0.09, -0.482, 0.291, 0.145, -0.054, 0.181, 1
11335, 0.428, -0.796, 0.431, 0.053, -0.335, 0.143, 1
11355, 0.664, -1.035, 0.315, -0.061, -0.693, 0.069, 1
11375, 0.643, -1.005, 0.122, -0.122, -1.205, -0.089, 1
11395, 0.313, -1.099, 0.003, -0.097, -1.636, -0.187, 1
11415, -0.124, -0.904, -0.092, -0.043, -1.821, -0.232, 1
11435, 0.39, -1.064, -0.202, -0.065, -1.805, -0.264, 1
11455, 1.129, -1.247, 0.142, -0.238, -1.984, -0.243, 1
11475, 0.593, -0.758, -0.191, -0.644, -2.582, -0.227, 1
11495, -0.841, -0.348, -0.758, -0.836, -2.739, -0.186, 1
11515, -1.426, -0.003, -1.126, -0.692, -2.291, -0.351, 1
11535, -1.419, 0.258, -1.251, -0.383, -1.591, -0.408, 1
11555, -0.579, -0.199, -0.782, -0.147, -0.824, -0.37, 1
11575, 0.151, -0.309, -0.518, -0.144, -0.395, -0.366, 1
11595, 0.406, -0.26, -0.422, -0.143, -0.241, -0.282, 1
11615, -0.092, -0.148, -0.257, 0.029, 0.129, -0.15, 1
11635, -0.172, 0.101, -0.242, 0.255, 0.525, -0.103, 1
11655, -0.104, -0.225, 0.314, 0.554, 1.055, -0.021, 1
11675, 0.027, -0.147, 0.851, 0.626, 1.362, 0.025, 1
11695, -1.267, 0.146, 1.096, 0.706, 2.078, 0.219, 1
11715, -0.788, -0.747, 1.942, 0.518, 2.48, 0.085, 1
11735, -0.05, -0.894, 2.191, 0.147, 2.341, 0.078, 1
11755, 0.325, -1.327, 2.089, -0.343, 1.987, 0.056, 1
11775, -0.158, -1.113, 1.524, -0.739, 1.587, -0.12, 1
11795, 0.308, -0.902, 0.761, -0.963, 1.062, -0.413, 1
11815, 0.91, -0.742, 0.199, -1.053, 0.473, -0.458, 1
11835, 0.732, -0.65, -0.387, -0.976, 0.239, -0.43, 1
11855, 0.507, -0.081, -1.005, -0.721, 0.194, -0.369, 1
11875, 0.41, -0.282, -1.049, -0.527, 0.361, -0.37, 1
11895, 1.155, -0.467, -0.898, -0.485, 0.359, -0.376, 1
11915, 1.438, -0.517, -0.7, -0.424, 0.054, -0.279, 1
11935, 0.813, -0.235, -0.723, -0.199, -0.13, -0.207, 1
11955, -0.029, 0.125, -0.852, 0.103, -0.031, -0.178, 1
11975, -0.21, 0.254, -0.995, 0.241, 0.185, -0.211, 1
11995, -0.125, 0.165, -0.711, 0.236, 0.405, -0.219, 1
12015, 0.838, -0.637, -0.251, 0.044, 0.233, -0.189, 1
12035, 0.472, -0.315, -0.379, -0.179, 0.043, -0.174, 1
12055, 0.13, -0.08, -0.486, -0.185, 0.11, -0.18, 1
12075, -0.045, 0.236, -0.457, -0.128, 0.178, -0.157, 1
12095, -0.298, 0.42, -0.635, -0.144, 0.378, -0.111, 1
12115, -0.845, 0.947, -1.056, -0.185, 0.709, 0.003, 1
12135, -0.582, 0.755, -0.752, -0.27, 0.782, 0.0, 1
12155, -0.281, 0.763, -0.624, -0.371, 0.442, -0.02, 1
12175, -0.88, 0.967, -0.857, -0.058, 0.31, -0.007, 1
12195, -0.832, 0.867, -0.473, 0.229, 0.525, -0.012, 1
12215, -0.191, 0.544, 0.218, 0.296, 0.594, 0.039, 1
12235, 0.079, -0.041, 0.553, 0.133, 0.417, 0.158, 1
12255, -0.265, -0.024, 0.468, -0.109, 0.254, 0.27, 1
12275, -0.261, 0.331, -0.16, -0.114, 0.313, 0.414, 1
12295, -0.302, -0.173, -0.046, 0.014, 0.259, 0.459, 1
12315, -0.796, -0.179, -0.064, 0.038, 0.202, 0.404, 1
12335, -0.31, -0.656, 0.249, -0.021, 0.317, 0.485, 1
12355, -0.046, -0.542, 0.442, -0.185, 0.253, 0.5, 1
12375, -1.91, -1.736, -0.103, -0.08, 0.178, 0.54, 1
12395, -0.787, -0.768, 0.097, -0.136, 0.441, 0.543, 1
12415, -0.015, -1.282, 0.603, -0.255, 0.306, 0.497, 1
12435, -0.222, -1.161, 0.227, -0.466, -0.051, 0.388, 1
12455, -0.18, -0.557, -0.209, -0.467, -0.287, 0.292, 1
12475, -1.28, 0.401, -0.654, -0.237, -0.306, 0.347, 1
12495, -0.953, -0.52, -0.142, 0.02, 0.036, 0.357, 1
12515, -0.208, -0.981, -0.115, -0.075, 0.048, 0.264, 1
12535, -0.263, -0.851, -0.342, -0.307, -0.07, 0.173, 1
12555, -0.128, -0.428, -0.709, -0.459, -0.153, 0.103, 1
12575, -0.262, 0.013, -1.346, -0.323, -0.003, 0.15, 1
12595, -0.01, -0.359, -1.237, -0.11, 0.292, 0.164, 1
12615, 0.177, -0.564, -1.041, -0.193, 0.359, 0.136, 1
12635, 0.157, -0.456, -1.164, -0.333, 0.364, 0.053, 1
12655, 0.544, -0.083, -1.538, -0.393, 0.436, 0.11, 1
12675, 0.387, 0.312, -1.777, -0.134, 0.409, 0.142, 1
12695, 0.283, 0.304, -1.658, 0.139, 0.347, 0.086, 1
12715, 0.378, 0.104, -1.083, 0.262, 0.178, 0.081, 1
12735, 0.489, -0.162, -0.595, 0.191, -0.019, 0.095, 1
12755, 0.214, -0.257, -0.176, 0.04, -0.162, 0.097, 1
12775, 0.09, 0.023, -0.149, -0.02, -0.365, -0.044, 1
12795, -0.759, 1.289, -0.959, 0.468, -0.182, 0.0, 1
12815, -0.247, 0.771, -0.451, 0.779, 0.0, 0.067, 1
12835, 0.019, 0.026, 0.446, 0.67, -0.07, 0.093, 1
12855, 0.2, -0.267, 0.857, 0.372, -0.224, 0.128, 1
12875, 0.283, -0.524, 1.068, 0.13, -0.391, 0.114, 1
12895, 0.426, -0.455, 1.462, -0.105, -0.686, 0.1, 1
12915, -0.482, -0.003, 1.41, -0.136, -0.436, 0.197, 1
12935, -0.419, 0.011, 1.798, -0.161, -0.102, 0.248, 1
12955, -0.334, 0.006, 2.262, -0.218, -0.024, 0.205, 1
12975, -0.5, 0.392, 2.606, -0.202, -0.078, 0.105, 1
12995, -0.329, 0.12, 2.546, -0.283, -0.06, 0.016, 1
13015, -0.108, 0.445, 2.039, -0.463, -0.062, 0.067, 1
13035, 0.104, 0.114, 1.517, -0.635, -0.1, 0.051, 1
13055, 0.561, -0.174, 0.905, -0.837, -0.367, 0.029, 1
13075, 0.553, -0.383, -0.125, -0.846, -0.555, -0.073, 1
13095, 0.876, -0.405, -1.077, -0.656, -0.8, -0.053, 1
13115, 1.445, -1.058, -1.339, -0.634, -1.263, -0.051, 1
13135, 1.811, -1.351, -1.475, -1.051, -2.285, -0.18, 1
13155, -1.478, -0.832, -2.088, -1.075, -3.116, -0.141, 1
13175, -0.6, -1.064, -0.832, -0.974, -3.053, -0.215, 1
13195, -0.833, -1.464, 0.53, -1.317, -3.875, -0.472, 1
13215, -0.48, -1.501, 1.571, -2.047, -5.332, -0.895, 1
13235, -2.875, -1.192, 0.776, -2.546, -6.314, -0.994, 1
13255, -3.457, -1.089, -0.005, -2.399, -5.69, -1.095, 1
13275, -2.615, -1.671, -0.158, -1.924, -4.62, -1.007, 1
13295, 0.139, -3.901, 1.195, -1.675, -3.837, -1.072, 1
13315, 0.475, -3.636, 1.11, -2.11, -4.47, -1.203, 1
13335, -2.664, -3.051, -1.051, -2.031, -4.252, -0.87, 1
13355, -2.964, -2.541, -2.066, -1.048, -2.089, -0.59, 1
13375, -0.567, -3.468, -0.752, 0.215, -0.054, -0.279, 1
13395, 1.711, -5.396, 1.194, 0.649, 0.43, -0.083, 1
13415, 1.461, -4.991, 1.304, 0.194, -0.456, -0.092, 1
13435, -0.373, -4.621, 0.273, -0.106, -0.803, -0.004, 1
13455, -0.532, -3.737, -0.255, -0.069, -0.183, 0.01, 1
13475, -0.413, -3.622, -0.024, 0.246, 0.373, 0.144, 1
13495, 1.433, -5.179, 1.335, 0.349, 0.509, 0.025, 1
13515, 2.362, -4.71, 1.251, -0.294, -1.079, -0.312, 1
13535, -0.408, -4.717, -0.34, -0.64, -2.274, -0.242, 1
13555, -2.064, -4.08, -1.413, -0.426, -1.671, -0.186, 1
13575, -1.559, -4.193, -1.041, 0.219, -0.243, -0.012, 1
13595, -0.856, -4.6, 0.004, 0.729, 0.813, 0.148, 1
13615, -0.373, -4.772, 0.64, 0.733, 1.487, 0.313, 1
13635, -0.383, -4.038, 0.58, 0.43, 2.079, 0.472, 1
13655, -1.005, -2.993, 0.327, 0.35, 2.802, 0.717, 1
13675, -1.377, -2.311, 0.045, 0.515, 3.632, 0.819, 1
13695, -3.021, -0.931, -0.622, 1.272, 4.979, 1.034, 1
13715, -2.543, -0.811, 0.371, 1.886, 6.561, 1.348, 1
13735, -1.588, -0.849, 1.364, 2.32, 7.571, 1.786, 1
13755, -0.518, -0.688, 1.974, 2.668, 7.596, 2.111, 1
13775, 0.281, -1.014, 1.651, 2.854, 7.0, 2.061, 1
13795, 0.155, -1.6, 2.065, 2.435, 5.911, 1.453, 1
13815, 2.287, -1.856, 2.387, 1.47, 4.112, 1.05, 1
13835, 1.617, -1.101, 1.135, 0.667, 2.524, 0.831, 1
13855, -0.303, 0.005, 0.147, 0.229, 1.89, 0.55, 1
13875, -0.532, 0.784, -0.391, 0.015, 1.588, 0.436, 1
13895, -1.861, 1.782, -1.433, 0.218, 1.709, 0.487, 1
13915, -1.519, 0.992, -0.649, 0.107, 1.565, 0.257, 1
13935, -0.363, 0.243, 0.167, -0.241, 0.772, 0.118, 1
13955, -0.609, 0.135, -0.458, -0.307, 0.186, 0.029, 1
13975, -1.437, 0.69, -1.138, 0.017, 0.384, 0.118, 1
13995, -1.062, -0.212, -0.644, 0.128, 0.621, 0.014, 1
14015, 1.026, -0.541, 0.411, -0.086, 0.093, -0.036, 1
14035, -0.601, 0.044, -0.28, -0.043, -0.052, -0.068, 1
14055, -0.985, 0.124, -0.342, 0.322, 0.37, -0.064, 1
14075, -0.31, -2.444, 0.19, 0.367, 0.256, -0.07, 1
14095, 0.584, -1.044, 0.455, 0.299, 0.004, -0.169, 1
14115, 0.879, -1.35, 0.738, -0.128, 0.057, 0.02, 1
14135, -0.318, 0.211, -0.371, 0.061, 0.833, 0.181, 1
14155, 1.422, -0.673, 0.288, 0.034, 0.761, 0.138, 1
14175, 0.309, -2.204, 0.831, -0.293, -0.149, -0.045, 1
14195, -0.615, -0.185, 0.42, -1.001, -0.111, 0.174, 1
14215, 0.91, 5.243, -0.4, -1.029, 0.76, 0.536, 1
14235, -0.298, 1.639, -0.966, -0.474, 1.022, 0.486, 1
14255, -0.401, -0.074, -0.303, 0.125, 0.418, 0.125, 1
14275, 0.075, -1.058, 1.178, -0.334, 0.563, 0.077, 1
14295, -1.888, -3.496, -0.922, -0.929, 0.7, 0.084, 1
14315, -0.397, 0.754, -1.099, -0.83, 0.902, 0.399, 1
14335, 0.688, -0.259, -1.013, -0.301, 0.486, -0.007, 1
14355, -0.296, 0.227, -0.376, 0.068, -0.287, -0.287, 1
14375, -0.155, -0.593, -0.026, 0.045, 0.027, 0.007, 1
14395, 0.688, -1.09, 0.758, -0.389, 0.199, 0.141, 1
14415, 0.294, -0.415, 0.119, -0.882, -0.106, 0.205, 1
14435, -0.691, 0.299, -0.768, -0.734, -0.111, 0.274, 1
14455, -0.283, -0.151, -0.267, -0.374, 0.051, 0.293, 1
14475, -0.19, -0.481, 0.095, -0.303, -0.106, 0.191, 1
14495, -0.421, 0.138, -0.469, -0.336, -0.283, 0.102, 1
14515, 0.224, 0.224, -1.1, -0.113, -0.394, -0.058, 1
14535, 0.198, 0.038, -1.061, 0.078, -0.731, -0.183, 1
14555, 0.225, -0.31, -0.536, 0.012, -0.803, -0.26, 1
14575, 1.301, -0.838, -0.469, -0.178, -1.042, -0.402, 1
14595, 1.642, -0.621, -0.803, -0.345, -2.021, -0.571, 1
14615, 0.821, -0.299, -1.191, -0.062, -1.922, -0.579, 1
14635, 1.933, -0.635, -0.654, 0.208, -2.103, -0.607, 1
14655, 1.965, -0.442, -0.336, 0.346, -2.499, -0.474, 1
14675, 0.642, -0.412, 0.021, 0.166, -2.265, -0.313, 1
14695, -0.273, 0.294, -0.002, -0.071, -1.623, -0.025, 1
14715, -0.927, 0.886, -0.647, 0.0, -1.013, 0.078, 1
14735, -1.115, 0.813, -0.615, 0.124, -0.665, 0.111, 1
14755, -1.417, 0.656, -0.468, 0.196, -0.255, 0.175, 1
14775, -2.109, 0.808, -0.56, 0.465, 0.474, 0.381, 1
14795, -2.755, 0.587, -0.488, 0.803, 1.456, 0.602, 1
14815, -1.777, 0.066, 0.172, 0.938, 1.899, 0.656, 1
14835, -0.507, -0.731, 1.175, 0.759, 1.531, 0.443, 1
14855, 0.469, -1.172, 1.461, 0.302, 0.7, 0.222, 1
14875, 0.987, -1.37, 1.145, -0.267, 0.155, 0.13, 1
14895, 0.75, -0.774, 0.301, -0.509, -0.006, 0.195, 1
14915, -1.661, 0.894, -1.05, -0.073, 0.935, 0.48, 1
14935, -0.856, 0.209, -0.297, 0.313, 1.698, 0.5, 1
14955, 0.92, -0.715, 0.805, 0.185, 0.985, 0.244, 1
14975, 1.288, -0.922, 0.835, -0.169, -0.173, 0.094, 1
14995, 0.079, -0.148, 0.411, -0.271, -0.621, 0.076, 1
15015, -1.567, 1.009, -0.613, 0.106, -0.145, 0.249, 1
15035, -1.481, 0.406, -0.497, 0.409, 0.524, 0.269, 1
15055, 0.032, -0.341, 0.281, 0.272, 0.28, 0.195, 1
15075, 0.13, -0.477, 0.48, -0.166, -0.237, 0.149, 1
15095, -0.567, -0.179, -0.125, -0.358, -0.215, 0.144, 1
15115, -0.492, 0.149, -0.624, -0.166, -0.058, 0.086, 1
15135, -0.215, -0.002, -0.456, 0.141, -0.017, 0.049, 1
15155, 0.075, -0.403, -0.161, 0.226, -0.046, 0.025, 1
15175, 0.286, -0.592, 0.101, 0.123, -0.129, 0.012, 1
15195, 0.293, -0.587, 0.085, -0.036, -0.243, 0.008, 1
15215, 0.058, -0.233, -0.238, -0.159, -0.248, 0.07, 1
15235, -0.143, -0.243, -0.206, -0.088, 0.076, 0.217, 1
15255, 0.349, -0.434, 0.133, -0.136, 0.252, 0.255, 1
15275, 0.234, -0.074, -0.129, -0.253, 0.095, 0.202, 1
15295, -0.088, 0.426, -0.667, -0.149, -0.13, 0.139, 1
15315, -0.424, 0.334, -0.673, 0.019, -0.079, 0.207, 1
15335, -0.19, -0.022, -0.391, -0.011, 0.043, 0.245, 1
15355, -0.078, 0.019, -0.571, -0.061, -0.008, 0.197, 1
15375, -0.11, 0.088, -0.421, -0.023, -0.056, 0.102, 1
15395, -0.032, -0.047, -0.128, -0.064, -0.075, 0.12, 1
15415, -0.08, 0.033, -0.099, -0.072, -0.136, 0.059, 1
15435, -0.09, -0.123, 0.269, -0.057, -0.106, 0.051, 1
15455, 0.017, -0.066, 0.266, -0.144, -0.053, 0.051, 1
15475, 0.025, -0.027, 0.132, -0.111, -0.111, 0.018, 1
15495, -0.009, -0.254, 0.271, -0.065, -0.062, 0.125, 1
15515, -0.321, -0.177, 0.034, -0.078, 0.172, 0.179, 1
15535, 0.365, -0.268, 0.263, -0.14, 0.357, 0.056, 1
15555, 0.297, -0.258, 0.17, -0.378, 0.158, 0.069, 1
15575, 0.033, 0.096, -0.354, -0.276, 0.091, 0.059, 1
15595, -0.022, -0.004, -0.393, -0.196, 0.103, 0.102, 1
15615, -0.12, 0.005, -0.494, -0.183, 0.284, 0.187, 1
15635, -0.076, 0.004, -0.568, -0.161, 0.35, 0.125, 1
15655, 0.547, -0.05, -0.496, -0.083, 0.027, 0.049, 1
15675, 0.083, -0.173, -0.355, -0.153, -0.133, 0.064, 1
15695, -0.041, 0.11, -0.523, -0.122, -0.095, 0.107, 1
15715, -0.299, 0.304, -0.968, 0.171, 0.015, 0.141, 1
15735, -0.021, -0.299, -0.26, 0.15, 0.061, 0.158, 1
15755, 0.062, -0.364, -0.087, -0.007, -0.049, 0.084, 1
15775, 0.026, -0.008, -0.368, -0.003, -0.146, 0.126, 1
15795, -0.046, -0.073, -0.163, -0.075, -0.133, 0.222, 1
15815, -0.211, -0.072, -0.343, -0.077, -0.07, 0.144, 1
15835, 0.054, -0.032, -0.25, 0.008, -0.091, 0.122, 1
15855, -0.339, -0.36, -0.015, -0.049, -0.022, 0.069, 1
15875, 0.002, 0.03, -0.185, 0.0, -0.085, 0.054, 1
15895, 0.218, -0.349, -0.023, 0.034, -0.149, 0.138, 1
15915, -0.317, -0.292, 0.131, -0.098, -0.021, 0.166, 1
15935, 0.075, -0.443, 0.202, -0.237, 0.018, 0.162, 1
15955, -0.09, 0.091, -0.12, -0.259, 0.075, 0.212, 1
15975, -0.06, -0.004, -0.236, -0.189, 0.025, 0.125, 0
15995, -0.004, -0.021, -0.141, -0.227, 0.027, 0.151, 0
16016, -0.381, -0.06, 0.014, -0.365, 0.102, 0.174, 0
16036, -0.293, -0.21, -0.052, -0.429, 0.141, 0.125, 0
16056, -0.127, 0.034, -0.617, -0.05, -0.036, 0.089, 0
16076, -0.14, -0.612, 0.071, 0.219, 0.13, 0.092, 0
16096, 0.006, -0.361, 0.335, -0.052, 0.184, -0.021, 0
16116, -0.084, -0.102, 0.215, -0.244, 0.189, -0.022, 0
16136, -0.387, 0.203, -0.121, -0.341, 0.158, 0.029, 0
16156, -0.573, 0.199, -0.376, -0.171, 0.164, 0.028, 0
16176, -0.386, -0.165, 0.084, -0.106, 0.311, 0.033, 0
16196, -0.094, -0.269, 0.082, -0.194, 0.319, 0.063, 0
16216, -0.371, -0.134, -0.1, -0.266, 0.19, 0.008, 0
16236, -0.179, 0.025, -0.34, -0.327, 0.115, -0.059, 0
16256, -0.325, 0.056, -0.665, -0.242, 0.133, -0.054, 0
16276, -0.458, 0.034, -0.593, -0.08, 0.18, -0.024, 0
16296, -0.577, -0.428, 0.213, -0.097, 0.291, -0.042, 0
16316, -0.7, 0.184, -0.015, -0.307, 0.219, -0.167, 0
16336, -0.804, 0.731, -0.572, -0.257, 0.131, -0.232, 0
16356, -1.409, 0.577, -0.569, -0.01, 0.219, -0.152, 0
16376, -1.063, 0.0, -0.127, 0.196, 0.624, -0.23, 0
16396, 0.102, -0.671, 0.35, 0.01, 0.696, -0.315, 0
16416, -0.002, -0.282, -0.161, -0.364, 0.339, -0.458, 0
16436, -0.214, 0.583, -0.896, -0.345, 0.083, -0.517, 0
16456, -0.207, -0.223, -0.35, -0.089, 0.177, -0.502, 0
16476, 0.309, -0.474, -0.431, -0.246, 0.109, -0.582, 0
16496, 0.711, 0.071, -1.038, -0.278, 0.085, -0.58, 0
16516, 0.962, 0.064, -0.66, -0.076, 0.087, -0.477, 0
16536, -0.014, -0.014, -0.161, 0.132, -0.037, -0.434, 0
16556, 0.044, -0.073, 0.228, 0.004, -0.01, -0.579, 0
16576, 0.554, 0.277, -0.075, -0.028, 0.004, -0.54, 0
16596, 0.459, 0.002, -0.059, -0.032, 0.156, -0.485, 0
16616, 0.519, -0.129, 0.201, -0.072, 0.177, -0.543, 0
16636, 0.771, -0.108, 0.093, -0.201, 0.034, -0.56, 0
16656, 0.617, 0.021, -0.29, -0.195, 0.153, -0.491, 0
16676, 1.124, 0.038, -0.429, -0.173, 0.13, -0.478, 0
16696, 0.634, 0.624, -0.648, 0.075, 0.145, -0.468, 0
16716, 0.094, 0.08, -0.133, 0.185, 0.307, -0.429, 0
16736, 0.669, -0.617, 0.372, -0.008, 0.167, -0.444, 0
16756, 0.313, -0.16, 0.076, -0.145, 0.162, -0.466, 0
16776, 0.341, 0.055, -0.046, -0.073, 0.229, -0.45, 0
16796, 0.539, -0.421, -0.065, -0.097, 0.128, -0.433, 0
16816, 0.455, -0.144, -0.654, 0.003, 0.26, -0.287, 0
16836, 0.62, -0.525, -0.448, 0.009, 0.286, -0.195, 0
16856, 0.595, -0.334, -0.244, -0.114, 0.056, -0.169, 0
16876, 0.074, 0.128, -0.489, 0.01, 0.025, -0.01, 0
16896, 0.066, -0.662, -0.147, 0.027, 0.049, 0.033, 0
16916, 0.192, -0.757, 0.121, -0.167, -0.088, -0.009, 0
16936, -0.059, -0.102, 0.067, -0.243, -0.216, -0.044, 0
16956, -0.585, 0.503, -0.035, -0.159, -0.17, 0.017, 0
16976, -1.293, 0.596, -0.036, -0.004, 0.028, -0.075, 0
16996, -0.901, 0.276, 0.102, 0.095, 0.163, -0.212, 0
17016, -0.173, -0.263, 0.33, -0.214, 0.122, -0.381, 0
17036, 0.111, 0.214, -0.932, -0.243, 0.171, -0.296, 0
17056, 0.649, 0.069, -1.015, -0.01, 0.109, -0.319, 0
17076, 0.413, -0.016, -0.905, 0.028, -0.073, -0.251, 0
17096, -0.076, -0.006, -0.699, 0.052, -0.097, -0.209, 0
17116, -0.002, -0.356, -0.277, 0.05, 0.061, -0.21, 0
17136, 0.464, -0.293, -0.394, -0.051, 0.032, -0.268, 0
17156, 0.635, -0.291, -0.327, -0.049, 0.053, -0.27, 0
17176, 0.915, -0.481, -0.047, -0.131, 0.093, -0.233, 0
17196, 0.578, -0.152, -0.289, -0.163, -0.048, -0.166, 0
17216, 0.15, -0.037, -0.302, -0.015, 0.065, -0.082, 0
17236, 0.219, -0.42, 0.118, 0.024, 0.237, -0.047, 0
17256, 0.164, -0.456, 0.107, -0.126, 0.126, -0.079, 0
17276, -0.078, -0.137, -0.173, -0.227, 0.063, -0.062, 0
17296, -0.188, 0.017, -0.417, -0.18, 0.124, -0.01, 0
17316, -0.149, 0.011, -0.406, -0.098, 0.155, 0.029, 0
17336, -0.218, -0.005, -0.206, -0.055, 0.114, 0.011, 0
17356, -0.227, 0.233, -0.259, -0.067, 0.084, -0.017, 0
17376, -0.346, 0.297, -0.486, 0.244, -0.091, 0.02, 1
17396, 0.006, -0.445, 0.071, 0.421, -0.146, 0.047, 1
17416, -0.278, -0.366, 0.163, 0.193, -0.168, 0.061, 1
17436, -0.722, -0.149, 0.072, 0.069, -0.003, 0.076, 1
17456, -0.268, -0.085, 0.183, -0.02, 0.092, 0.007, 1
17476, -0.163, -0.065, 0.138, -0.045, 0.01, -0.029, 1
17496, -0.371, -0.235, 0.101, -0.117, 0.135, 0.099, 1
17516, 0.025, -0.291, 0.122, -0.209, 0.095, 0.096, 1
17536, -0.13, 0.213, -0.49, -0.073, 0.021, 0.107, 1
17556, -0.047, 0.407, -0.709, 0.124, 0.043, 0.137, 1
17576, 0.151, 0.085, -0.476, 0.114, -0.027, 0.08, 1
17596, 0.327, -0.237, -0.287, -0.058, -0.142, 0.036, 1
17616, 0.237, 0.092, -0.626, -0.065, -0.117, 0.097, 1
17636, 0.243, 0.11, -0.727, 0.057, -0.062, 0.119, 1
17656, 0.259, -0.127, -0.4, 0.084, -0.133, 0.111, 1
17676, 0.13, -0.245, -0.118, 0.074, -0.208, 0.092, 1
17696, -0.037, 0.161, -0.089, 0.108, -0.062, 0.128, 1
17716, 0.208, 0.114, 0.265, 0.003, 0.056, 0.106, 1
17736, 0.565, -0.061, 0.356, -0.153, -0.022, 0.058, 1
17756, 0.509, -0.226, 0.213, -0.263, -0.141, -0.022, 1
17776, 0.821, -0.147, 0.0, -0.261, -0.156, 0.199, 1
17796, 0.316, -0.235, -0.14, -0.156, -0.021, 0.339, 1
17816, 0.058, -0.081, -0.268, -0.097, 0.068, 0.397, 1
17836, -0.276, -0.182, -0.251, -0.053, 0.049, 0.311, 1
17856, -0.88, -0.117, 0.027, -0.072, 0.064, 0.06, 1
17876, -0.005, 0.169, 0.067, -0.128, 0.044, 0.392, 1
17896, -0.256, -0.54, -0.397, -0.07, 0.105, 0.494, 1
17916, 0.146, -0.12, -0.435, 0.045, 0.043, 0.466, 1
17936, 0.009, -0.209, -0.467, 0.078, -0.036, 0.518, 1
17956, -0.123, -0.518, -0.274, -0.001, -0.05, 0.543, 1
17976, -0.277, -0.252, -0.344, -0.003, -0.056, 0.589, 1
17996, -0.458, -0.415, -0.189, 0.059, -0.066, 0.595, 1
18016, -0.431, -0.552, -0.036, -0.049, -0.06, 0.571, 1
18036, -0.368, 0.044, -0.004, -0.165, -0.011, 0.547, 1
18056, -0.304, 0.006, -0.011, -0.135, -0.017, 0.478, 1
18076, -0.451, -0.221, 0.013, -0.094, -0.113, 0.495, 1
18096, -0.722, -0.26, 0.065, -0.05, -0.012, 0.58, 1
18116, -0.678, -0.424, 0.312, -0.107, 0.148, 0.386, 1
18136, 0.003, -0.436, 0.222, -0.398, 0.218, 0.004, 1
18156, 0.504, -0.218, -0.354, -0.678, -0.002, 0.229, 1
18176, -0.007, 0.072, -0.911, -0.613, -0.155, 0.583, 1
18196, -0.993, 0.227, -0.677, -0.296, -0.086, 0.666, 1
18216, -1.124, 0.241, -0.031, -0.096, 0.08, 0.373, 1
18236, -0.464, 0.455, 0.151, -0.031, -0.015, 0.382, 1
18256, -0.753, 0.012, -0.053, 0.033, -0.089, 0.718, 1
18276, -0.59, -0.025, -0.197, 0.107, 0.004, 0.731, 1
18296, -0.681, 0.139, -0.284, 0.141, 0.003, 0.738, 1
18316, -1.267, -0.228, -0.086, 0.05, 0.08, 0.623, 1
18336, -0.592, 0.06, -0.07, -0.158, 0.117, 0.445, 1
18356, -0.397, 0.164, -0.313, -0.197, -0.129, 0.567, 1
18376, -1.015, -0.077, -0.426, -0.098, -0.256, 0.621, 1
18396, -1.019, -0.153, -0.517, 0.012, -0.148, 0.652, 1
18416, -1.137, -0.385, -0.232, 0.059, 0.017, 0.686, 1
18436, -1.05, -0.248, 0.009, -0.055, 0.094, 0.599, 1
18456, -1.028, 0.113, -0.177, -0.243, -0.044, 0.863, 1
18476, -1.663, -0.008, -0.333, -0.168, -0.092, 0.78, 1
18496, -1.813, 0.018, -0.322, -0.062, -0.103, 0.608, 1
18516, -1.859, -0.106, -0.543, 0.061, -0.061, 0.369, 1
18536, -1.142, -0.397, -0.177, 0.05, -0.158, 0.229, 1
18556, -0.573, -0.64, 0.09, -0.088, -0.24, 0.249, 1
18576, -0.805, -0.218, -0.223, -0.116, -0.058, 0.287, 1
18596, -0.58, -0.001, -0.3, -0.029, 0.077, 0.222, 1
18616, -0.09, -0.178, -0.23, -0.039, -0.042, 0.107, 1
18636, 0.075, -0.259, -0.196, -0.102, -0.122, 0.115, 1
18656, -0.122, -0.171, -0.332, -0.084, 0.029, 0.144, 1
18676, 0.051, -0.254, -0.147, -0.112, 0.075, 0.061, 1
18696, 0.425, -0.218, -0.014, -0.096, -0.144, -0.06, 1
18716, 0.26, -0.125, -0.215, -0.087, -0.189, -0.052, 1
18736, 0.201, -0.253, -0.239, -0.127, -0.062, 0.054, 1
18756, 0.033, -0.176, -0.32, -0.161, 0.076, 0.097, 1
18776, 0.241, -0.081, -0.352, -0.153, 0.029, 0.006, 1
18796, 0.302, 0.008, -0.426, -0.131, -0.038, -0.021, 1
18816, 0.198, 0.043, -0.341, -0.111, 0.112, -0.015, 1
18836, 0.815, -0.028, -0.355, -0.13, 0.061, -0.004, 1
18856, 0.674, -0.024, -0.431, -0.141, -0.024, 0.01, 1
18876, 0.265, 0.007, -0.378, -0.09, 0.004, -0.004, 1
18896, 0.089, 0.089, -0.231, -0.026, 0.05, 0.036, 1
18916, 0.003, -0.075, -0.04, -0.067, 0.075, 0.062, 1
18936, 0.034, -0.171, 0.061, -0.127, 0.004, 0.044, 1
18956, -0.143, -0.025, 0.096, -0.132, 0.065, 0.029, 1
18976, 0.136, -0.049, -0.067, -0.132, 0.122, -0.004, 1
18996, 0.174, -0.038, -0.261, -0.109, 0.045, -0.005, 1
19016, 0.066, -0.145, -0.158, -0.103, 0.023, 0.039, 1
19036, -0.027, -0.026, -0.121, -0.15, 0.031, 0.065, 1
19056, -0.205, 0.007, -0.166, -0.134, -0.014, 0.026, 1
19076, -0.084, -0.106, -0.077, -0.142, 0.047, 0.032, 1
19096, -0.027, -0.012, -0.215, -0.137, 0.085, 0.045, 1
19116, 0.08, -0.012, -0.105, -0.039, 0.061, 0.001, 1
19136, -0.116, -0.055, -0.037, -0.096, 0.07, 0.07, 1
19156, -0.1, 0.155, -0.496, -0.116, 0.133, 0.127, 1
19176, 0.019, -0.108, -0.097, -0.008, 0.069, 0.128, 1
19196, -0.241, -0.302, 0.108, -0.171, 0.024, 0.182, 1
19216, -0.321, 0.15, -0.069, -0.309, 0.022, 0.184, 0
19236, -0.268, -0.078, -0.388, -0.219, 0.034, 0.144, 0
19256, 0.066, -0.104, -0.324, -0.092, 0.059, 0.061, 0
19276, -0.158, 0.008, -0.435, -0.026, -0.047, 0.102, 0
19296, -0.196, 0.176, -0.782, 0.175, -0.034, 0.136, 0
19316, -0.329, -0.275, -0.264, 0.352, 0.015, 0.153, 0
19336, -0.163, -0.521, 0.223, 0.179, 0.102, 0.167, 0
19356, -0.297, -0.608, 0.382, -0.085, 0.06, 0.181, 0
19376, -0.426, -0.179, 0.149, -0.299, 0.08, 0.208, 0
19396, -1.006, 0.203, -0.103, -0.225, 0.12, 0.263, 0
19416, -0.871, -0.042, 0.187, -0.142, 0.301, 0.175, 0
19436, -0.494, -0.112, 0.034, -0.248, 0.212, 0.142, 0
19456, -0.496, 0.058, -0.238, -0.225, 0.228, 0.246, 0
19476, -0.734, -0.138, -0.065, -0.238, 0.338, 0.279, 0
19496, -0.54, -0.156, -0.189, -0.188, 0.141, 0.058, 0
19516, -0.717, 0.192, -0.552, -0.001, -0.05, -0.154, 0
19536, -0.567, 0.103, -0.149, 0.006, -0.017, -0.072, 0
19556, -0.403, -0.313, 0.186, -0.195, 0.014, -0.08, 0
19576, 0.016, -0.49, -0.098, -0.348, -0.094, -0.094, 0
19596, -0.235, -0.294, -0.468, -0.304, -0.074, -0.269, 0
19616, -0.271, -0.037, -0.12, -0.196, -0.097, -0.298, 0
19636, -0.895, -0.4, 0.525, -0.281, 0.097, -0.442, 0
19656, -0.034, -0.381, 0.745, -0.505, 0.095, -0.491, 0
19676, 0.272, -0.101, 0.086, -0.534, -0.021, -0.504, 0
19696, -0.056, 0.276, -0.651, -0.298, 0.053, -0.426, 0
19716, -0.216, 0.358, -0.616, -0.004, 0.274, -0.423, 0
19736, 0.124, 0.075, -0.32, -0.004, 0.175, -0.528, 0
19756, 0.185, 0.211, -0.332, -0.141, 0.029, -0.646, 0
19776, 0.014, 0.606, -0.549, -0.167, 0.089, -0.623, 0
19796, 0.174, 0.282, -0.346, -0.141, 0.153, -0.609, 0
19816, 0.472, -0.072, -0.38, -0.24, 0.149, -0.612, 0
19836, 0.772, -0.077, -0.484, -0.28, 0.171, -0.57, 0
19856, 1.147, -0.168, -0.687, -0.241, 0.087, -0.56, 0
19876, 0.875, -0.128, -0.916, -0.135, 0.082, -0.472, 0
19896, 0.887, -0.095, -0.507, -0.08, 0.062, -0.406, 0
19916, 0.339, -0.386, -0.128, -0.158, -0.022, -0.566, 0
19936, 0.792, 0.069, -0.896, 0.001, 0.033, -0.544, 0
19956, 1.042, -0.366, -0.471, 0.095, 0.145, -0.555, 0
19976, 1.179, -0.565, -0.383, 0.026, 0.02, -0.518, 0
19996, 0.763, -0.205, -0.566, -0.113, 0.015, -0.484, 0
20016, 0.893, -0.178, -0.406, -0.117, 0.172, -0.495, 0
20036, 0.682, -0.128, -0.131, -0.128, 0.15, -0.447, 0
20056, 0.662, -0.037, 0.22, -0.086, 0.023, -0.462, 0
20076, -0.116, -0.076, 0.361, -0.144, -0.059, -0.427, 0
20096, -0.186, -0.078, 0.105, -0.117, 0.262, -0.379, 0
20116, 0.697, -0.394, 0.07, -0.131, 0.555, -0.436, 0
20136, 1.17, -0.489, -0.203, -0.136, 0.295, -0.507, 0
20156, 0.589, -0.238, -0.468, -0.133, 0.161, -0.365, 0
20176, 0.489, -0.256, -0.172, -0.065, 0.203, -0.293, 0
20196, 0.321, -0.221, -0.036, -0.155, 0.11, -0.277, 0
20216, 0.014, -0.139, -0.191, -0.202, 0.126, -0.19, 0
20236, -0.012, -0.209, -0.176, -0.109, 0.188, -0.144, 0
20256, 0.365, -0.346, -0.086, -0.099, 0.109, -0.227, 0
20276, 0.138, -0.307, -0.269, -0.142, 0.048, -0.249, 0
20296, 0.46, -0.506, 0.127, -0.257, 0.196, -0.285, 0
20316, 0.469, -0.22, 0.12, -0.454, 0.208, -0.295, 0
20336, 0.362, 0.301, -0.356, -0.398, 0.152, -0.27, 0
20356, 0.13, 0.081, -0.365, -0.171, 0.179, -0.183, 0
20376, 0.386, 0.052, -0.23, -0.045, 0.135, -0.169, 0
20396, 0.074, -0.062, -0.207, 0.007, 0.075, -0.139, 0
20416, -0.141, -0.615, 0.069, -0.226, 0.202, -0.2, 0
20436, -0.003, -0.182, 0.038, -0.422, 0.23, -0.078, 0
20456, -0.395, 0.233, -0.633, -0.13, 0.174, -0.056, 0
20476, -0.344, -0.233, -0.456, -0.017, 0.141, -0.014, 0
20496, -0.292, -0.401, -0.574, -0.061, 0.111, -0.025, 0
20516, -0.563, -0.068, -0.718, -0.146, 0.154, 0.056, 0
20536, -0.565, 0.279, -1.02, -0.003, 0.136, 0.054, 0
20556, -0.466, 0.127, -0.716, 0.119, 0.026, 0.04, 0
20576, -0.26, -0.321, -0.309, 0.025, -0.098, -0.032, 0
20596, -0.309, -0.176, -0.16, 0.0, -0.122, -0.014, 0
20616, -0.519, -0.2, -0.265, 0.115, -0.08, 0.023, 0
20636, -0.389, -0.386, -0.025, 0.121, -0.043, -0.004, 0
20656, -0.048, -0.233, 0.076, 0.126, -0.097, 0.047, 1
20676, -0.36, -0.009, -0.158, 0.213, -0.048, 0.136, 1
20696, -0.316, 0.121, -0.246, 0.386, -0.006, 0.135, 1
20716, -0.304, -0.272, 0.137, 0.214, 0.05, 0.065, 1
20736, -0.036, -0.443, 0.416, -0.16, 0.045, 0.075, 1
20756, -0.172, -0.023, -0.097, -0.232, 0.049, 0.075, 1
20776, -0.277, 0.185, -0.415, -0.084, 0.11, 0.086, 1
20796, -0.034, 0.097, -0.45, 0.025, 0.12, 0.128, 1
20816, 0.133, -0.059, -0.408, -0.017, 0.036, 0.137, 1
20836, -0.081, 0.125, -0.489, 0.001, -0.027, 0.095, 1
20856, -0.115, 0.034, -0.411, -0.058, 0.061, 0.081, 1
20876, 0.051, 0.004, -0.352, -0.064, 0.029, 0.021, 1
20896, 0.032, 0.044, -0.45, -0.014, -0.073, 0.047, 1
20916, 0.244, -0.04, -0.173, 0.102, 0.041, 0.084, 1
20936, 0.509, -0.261, 0.063, 0.04, -0.007, 0.069, 1
20956, 0.28, -0.237, -0.003, -0.083, -0.084, 0.053, 1
20976, 0.263, -0.083, -0.133, -0.126, -0.091, 0.074, 1
20996, 0.054, 0.015, -0.228, -0.114, -0.067, 0.056, 1
21016, 0.011, -0.086, -0.165, -0.131, -0.016, 0.013, 1
21036, 0.29, -0.208, -0.295, -0.201, -0.041, 0.028, 1
21056, 0.14, -0.199, -0.656, -0.217, -0.125, 0.191, 1
21076, 0.035, 0.116, -0.798, -0.17, -0.174, 0.202, 1
21096, 0.095, 0.198, -0.837, -0.169, -0.235, 0.145, 1
21116, -0.005, 0.247, -0.881, -0.036, -0.219, 0.167, 1
21136, 0.301, 0.144, -0.361, 0.166, -0.12, 0.194, 1
21156, 0.002, -0.057, 0.169, 0.169, -0.112, 0.238, 1
21176, -0.227, 0.013, 0.349, 0.066, -0.078, 0.163, 1
21196, -0.039, -0.072, 0.247, 0.0, -0.041, 0.121, 1
21216, 0.67, -0.297, 0.196, -0.094, -0.001, 0.089, 1
21236, 0.589, -0.011, -0.151, -0.106, -0.059, 0.237, 1
21256, 0.542, 0.269, -0.107, 0.041, -0.039, 0.213, 1
21276, 0.344, -0.503, 0.369, 0.083, -0.049, 0.207, 1
21296, 0.343, -0.445, 0.566, -0.099, -0.087, 0.201, 1
21316, 0.225, 0.216, 0.36, -0.102, -0.097, 0.395, 1
21336, -0.212, -0.538, 0.352, 0.1, -0.043, 0.559, 1
21356, -0.089, -0.442, 0.215, 0.122, -0.058, 0.572, 1
21376, 0.031, -0.067, -0.054, 0.021, -0.075, 0.51, 1
21396, 0.034, -0.077, 0.047, -0.041, -0.105, 0.68, 1
21416, -0.503, -0.377, -0.062, -0.061, -0.145, 0.86, 1
21436, -1.271, -0.138, -0.058, 0.028, 0.007, 0.827, 1
21456, -1.103, -0.33, 0.445, -0.064, 0.091, 0.66, 1
21476, -0.712, -1.059, 0.494, -0.369, 0.094, 0.635, 1
21496, 0.06, -0.289, -0.467, -0.433, -0.019, 0.907, 1
21516, -0.105, 0.265, -1.363, -0.121, -0.076, 1.007, 1
21536, -0.485, -0.108, -1.269, 0.065, -0.064, 0.987, 1
21556, -0.933, -0.195, -0.862, 0.084, -0.129, 0.712, 1
21576, -1.032, -0.055, -0.301, -0.018, -0.173, 0.422, 1
21596, -0.685, 0.262, 0.027, -0.22, -0.088, 0.534, 1
21616, -0.755, 0.366, -0.28, -0.091, -0.032, 0.681, 1
21636, -0.361, -0.081, -0.12, 0.194, -0.089, 0.796, 1
21656, -0.561, -0.776, 0.238, 0.244, -0.048, 0.799, 1
21676, -0.831, -0.294, 0.2, 0.087, 0.056, 0.773, 1
21696, -1.599, 0.342, 0.138, -0.142, 0.27, 0.585, 1
21716, -0.892, 1.018, -0.073, -0.177, 0.206, 0.593, 1
21736, -0.56, 0.561, -0.119, -0.064, 0.025, 0.847, 1
21756, -1.028, -0.239, -0.04, 0.05, 0.069, 0.747, 1
21776, -0.51, -0.191, 0.223, -0.006, 0.036, 0.698, 1
21796, -1.253, 0.265, 0.175, -0.284, 0.07, 0.656, 1
21816, -1.696, 0.645, -0.129, -0.384, 0.176, 0.518, 1
21836, -1.314, 0.462, -0.404, -0.21, 0.02, 0.583, 1
21856, -1.302, -0.216, -0.379, -0.01, -0.111, 0.406, 1
21876, -1.464, -0.076, -0.17, -0.074, -0.026, 0.46, 1
21896, -1.459, -0.283, -0.119, -0.19, 0.023, 0.43, 1
21916, -1.039, 0.102, -0.367, -0.209, -0.085, 0.338, 1
21936, -1.53, 0.249, -0.447, -0.097, -0.055, 0.423, 1
21956, -1.183, -0.194, 0.095, -0.08, 0.126, 0.409, 1
21976, -0.864, -0.381, 0.264, -0.203, 0.067, 0.289, 1
21996, -0.706, -0.271, 0.054, -0.277, -0.093, 0.178, 1
22016, -0.408, -0.25, -0.102, -0.167, -0.087, 0.097, 1
22036, -0.257, -0.24, -0.358, -0.042, -0.038, 0.095, 1
22056, 0.074, -0.261, -0.179, -0.032, 0.097, 0.073, 1
22076, 0.298, -0.371, -0.021, -0.103, 0.01, 0.006, 1
22096, 0.19, -0.274, -0.183, -0.193, -0.086, 0.017, 1
22116, 0.571, -0.268, -0.499, -0.135, -0.042, 0.003, 1
22136, 0.675, -0.364, -0.344, -0.076, -0.074, -0.027, 1
22156, 0.474, -0.301, -0.112, -0.17, -0.015, 0.032, 1
22176, 0.523, -0.305, -0.126, -0.279, 0.043, 0.056, 1
22196, 0.459, -0.09, -0.635, -0.316, 0.037, 0.064, 1
22216, 0.313, 0.037, -0.702, -0.229, 0.01, 0.031, 1
22236, 0.198, -0.106, -0.463, -0.194, -0.001, 0.052, 1
22256, 0.047, -0.012, -0.442, -0.167, -0.029, 0.056, 1
22276, -0.07, -0.073, -0.39, -0.108, -0.01, 0.056, 1
22296, -0.051, -0.051, -0.26, -0.062, -0.013, 0.02, 1
22316, -0.056, -0.092, -0.024, -0.122, 0.009, 0.026, 1
22336, 0.201, -0.061, -0.267, -0.208, 0.061, 0.079, 1
22356, 0.415, -0.19, -0.206, -0.236, -0.016, 0.119, 1
22376, 0.029, -0.004, -0.373, -0.155, -0.05, 0.135, 0
22396, -0.318, 0.295, -0.517, 0.08, 0.02, 0.087, 0
22416, -0.151, 0.166, -0.072, 0.101, 0.075, 0.254, 0
22436, -0.336, -0.119, -0.222, 0.248, 0.096, 0.21, 0
22456, -0.276, -0.985, 0.434, -0.043, 0.28, 0.178, 0
22476, 0.164, -0.37, 0.382, -0.177, 0.141, 0.221, 0
22496, -0.441, -0.196, -0.07, -0.11, 0.175, 0.238, 0
22516, -0.272, -0.403, 0.254, -0.265, 0.252, 0.187, 0
22536, -0.252, 0.064, -0.169, -0.313, 0.165, 0.231, 0
22556, -0.739, -0.004, -0.43, -0.235, 0.255, 0.257, 0
22576, -0.568, -0.106, -0.104, -0.302, 0.247, 0.262, 0
22596, -0.894, 0.442, -0.535, -0.073, 0.102, 0.133, 0
22616, -0.878, 0.177, -0.633, 0.184, 0.112, 0.027, 0
22636, -0.702, -0.403, 0.066, -0.014, 0.289, 0.069, 0
22656, -0.25, -0.133, 0.006, -0.177, 0.273, 0.141, 0
22676, -0.406, -0.157, -0.039, -0.234, 0.163, 0.117, 0
22696, -0.743, -0.012, -0.233, -0.165, 0.119, -0.045, 0
22716, -0.538, 0.379, -0.564, 0.057, 0.153, -0.098, 0
22736, -0.093, 0.023, -0.384, 0.045, 0.104, -0.108, 0
22756, -0.128, -0.099, -0.045, -0.136, 0.006, -0.164, 0
22776, -0.223, -0.065, -0.166, -0.211, -0.119, -0.174, 0
22796, -0.109, -0.143, -0.055, -0.215, -0.08, -0.21, 0
22816, -0.104, -0.294, -0.124, -0.203, -0.022, -0.226, 0
22836, -0.227, -0.018, -0.019, -0.233, 0.092, -0.293, 0
22856, -0.2, 0.344, -0.244, -0.227, 0.014, -0.334, 0
22876, -0.222, 0.204, -0.621, -0.066, 0.066, -0.335, 0
22896, 0.423, -0.07, -0.37, 0.036, 0.106, -0.464, 0
22916, 0.489, -0.117, -0.086, -0.122, 0.051, -0.445, 0
22936, -0.013, 0.004, -0.079, -0.196, 0.021, -0.353, 0
22956, 0.319, -0.147, -0.358, -0.252, 0.047, -0.31, 0
22976, 0.493, 0.22, -0.82, -0.235, 0.011, -0.516, 0
22996, 0.598, -0.011, -0.471, -0.087, -0.034, -0.623, 0
23016, 0.219, 0.16, 0.024, -0.026, -0.114, -0.615, 0
23036, -0.019, -0.083, 0.296, -0.01, -0.06, -0.591, 0
23056, 0.283, -0.484, 0.383, -0.224, 0.086, -0.557, 0
23076, 0.597, -0.256, 0.071, -0.407, 0.167, -0.608, 0
23096, 0.183, 0.165, -0.075, -0.293, 0.152, -0.727, 0
23116, 0.83, -0.29, -0.193, -0.122, 0.254, -0.775, 0
23136, 1.229, -0.285, -0.53, -0.182, 0.205, -0.742, 0
23156, 1.077, 0.039, -0.577, -0.197, 0.238, -0.673, 0
23176, 1.319, 0.376, -0.313, -0.122, 0.189, -0.648, 0
23196, 0.586, 0.073, -0.007, 0.023, -0.107, -0.605, 0
23216, 0.025, -0.14, 0.128, -0.038, -0.037, -0.588, 0
23236, 0.717, -0.094, -0.222, -0.144, 0.224, -0.555, 0
23256, 0.995, 0.06, -0.878, -0.099, 0.276, -0.536, 0
23276, 1.434, -0.078, -0.814, 0.02, 0.206, -0.539, 0
23296, 1.314, -0.308, -0.556, -0.038, 0.096, -0.422, 0
23316, 1.389, -0.288, -0.372, -0.188, -0.015, -0.346, 0
23336, 1.072, 0.072, -0.551, -0.058, -0.029, -0.324, 0
23356, 0.8, -0.06, -0.159, -0.017, 0.093, -0.313, 0
23376, 1.21, -0.514, 0.26, -0.141, 0.085, -0.315, 0
23396, 1.074, -0.573, -0.027, -0.223, 0.067, -0.195, 0
23416, 0.597, -0.204, -0.443, -0.15, 0.25, -0.206, 0
23436, 0.933, -0.352, -0.592, -0.064, 0.154, -0.169, 0
23456, 0.668, -0.38, -0.622, -0.109, 0.058, -0.189, 0
23476, 0.433, -0.034, -0.839, -0.029, 0.046, -0.076, 0
23496, 0.107, 0.13, -0.735, 0.067, 0.059, -0.017, 0
23516, -0.054, -0.036, -0.496, 0.111, 0.094, 0.01, 0
23536, -0.063, -0.401, -0.072, 0.011, 0.007, 0.003, 0
23556, -0.163, -0.103, -0.063, -0.045, -0.119, -0.028, 0
23576, -0.917, 0.151, -0.178, 0.004, 0.045, -0.037, 0
23596, -0.433, -0.038, 0.07, 0.009, 0.122, -0.028, 0
23616, -0.228, -0.397, 0.03, -0.053, 0.007, -0.041, 0
23636, -0.234, -0.129, -0.14, -0.066, 0.012, -0.04, 0
23656, -0.21, -0.422, 0.013, -0.084, 0.056, -0.042, 0
23676, -0.097, -0.488, 0.038, -0.163, 0.092, -0.017, 0
23696, -0.03, -0.107, -0.173, -0.128, 0.139, 0.042, 0
23716, -0.075, 0.0, -0.064, -0.021, 0.083, 0.017, 0
23736, -0.267, -0.163, 0.206, -0.002, 0.015, -0.02, 0
23756, -0.064, 0.11, -0.22, 0.224, -0.126, 0.046, 1
23776, -0.12, 0.061, -0.462, 0.398, -0.102, 0.115, 1
23796, -0.243, -0.271, 0.304, 0.302, 0.002, 0.13, 1
23816, -0.6, -0.489, 0.414, -0.103, 0.175, 0.089, 1
23836, -0.266, 0.034, -0.154, -0.411, 0.291, 0.037, 1
23856, -0.211, 0.362, -0.736, -0.281, 0.116, -0.023, 1
23876, -0.234, 0.108, -0.6, 0.018, 0.045, 0.007, 1
23896, -0.111, -0.375, -0.1, 0.061, 0.059, 0.04, 1
23916, -0.292, -0.418, -0.155, -0.091, 0.038, 0.069, 1
23936, -0.173, -0.12, -0.488, -0.164, 0.018, 0.07, 1
23956, -0.065, 0.013, -0.624, -0.063, -0.039, 0.051, 1
23976, -0.009, 0.014, -0.481, 0.092, -0.054, 0.081, 1
23996, -0.123, -0.294, -0.062, 0.117, -0.032, 0.092, 1
24016, 0.019, -0.337, 0.099, -0.052, -0.004, 0.05, 1
24036, 0.0, -0.018, -0.253, -0.116, -0.031, 0.053, 1
24056, 0.086, 0.036, -0.4, -0.025, 0.017, 0.034, 1
24076, 0.128, -0.067, -0.228, 0.054, -0.051, 0.033, 1
24096, -0.2, -0.089, -0.012, -0.009, -0.03, 0.076, 1
24116, -0.069, -0.065, 0.134, -0.125, 0.084, 0.076, 1
24136, 0.095, 0.004, 0.023, -0.204, 0.08, 0.05, 1
24156, 0.037, 0.326, -0.239, -0.165, -0.003, 0.021, 1
24176, 0.065, 0.06, -0.156, -0.083, 0.037, 0.052, 1
24196, 0.053, -0.158, 0.013, -0.129, 0.048, 0.08, 1
24216, 0.013, -0.042, -0.067, -0.219, -0.001, 0.064, 1
24236, 0.034, 0.101, -0.351, -0.164, -0.014, 0.0, 1
24256, 0.17, 0.028, -0.392, -0.069, -0.011, -0.003, 1
24276, 0.383, -0.064, -0.324, -0.099, -0.03, 0.086, 1
24296, 0.114, -0.012, -0.444, -0.126, 0.073, 0.116, 1
24316, 0.324, -0.083, -0.37, -0.167, 0.086, 0.138, 1
24336, 0.551, -0.179, -0.394, -0.22, 0.0, 0.163, 1
24356, 0.502, -0.104, -0.516, -0.177, -0.055, 0.23, 1
24376, 0.319, -0.07, -0.529, -0.076, -0.005, 0.262, 1
24396, 0.341, -0.199, -0.207, -0.127, -0.025, 0.255, 1
24416, 0.49, 0.059, -0.194, -0.141, -0.182, 0.27, 1
24436, 0.078, 0.117, -0.097, -0.122, -0.118, 0.309, 1
24456, -0.249, -0.047, 0.051, -0.105, 0.096, 0.362, 1
24476, 0.008, -0.16, 0.015, -0.133, 0.081, 0.317, 1
24496, -0.113, 0.102, -0.049, -0.101, 0.042, 0.268, 1
24516, -0.891, 0.039, 0.157, -0.017, 0.217, 0.417, 1
24536, 0.309, -0.435, -0.216, -0.109, 0.233, 0.448, 1
24556, 0.965, -0.32, -0.976, -0.116, 0.038, 0.505, 1
24576, 0.449, -0.338, -1.001, -0.046, -0.199, 0.412, 1
24596, 0.087, -0.253, -0.342, -0.07, -0.304, 0.368, 1
24616, -0.692, -0.001, -0.06, -0.023, -0.145, 0.658, 1
24636, -1.192, 0.12, 0.119, 0.075, 0.138, 0.574, 1
24656, -0.724, 0.334, 0.15, 0.131, 0.185, 0.444, 1
24676, -0.643, -0.158, 0.449, 0.005, 0.16, 0.143, 1
24696, 0.568, -0.992, 0.604, -0.237, 0.08, 0.123, 1
24716, 0.616, -0.565, -0.193, -0.237, -0.007, 0.709, 1
24736, 0.078, 0.075, -0.755, 0.02, 0.032, 0.726, 1
24756, -0.322, -0.084, -0.392, 0.099, -0.051, 0.532, 1
24776, 0.324, -0.081, 0.174, -0.029, -0.197, 0.227, 1
24796, -0.406, -0.364, -0.247, -0.145, -0.289, 0.862, 1
24816, -1.28, 0.088, -0.614, -0.04, -0.123, 0.985, 1
24836, -1.645, 0.548, -0.648, 0.252, 0.028, 0.847, 1
24856, -2.2, 0.411, -0.336, 0.343, 0.046, 0.278, 1
24876, -0.708, 1.33, -0.21, 0.075, -0.114, 0.087, 1
24896, -1.867, 0.472, -0.945, -0.07, -0.07, 0.872, 1
24916, -0.858, 0.12, -0.473, 0.067, 0.197, 0.773, 1
24936, -0.781, -0.807, -0.026, 0.055, 0.119, 0.799, 1
24956, -0.862, -0.973, 0.301, -0.061, 0.092, 0.546, 1
24976, -0.927, -0.382, 0.214, -0.14, 0.166, 0.555, 1
24996, -1.284, 0.555, -0.152, -0.16, 0.298, 0.536, 1
25016, -1.329, 0.345, -0.125, -0.075, 0.313, 0.687, 1
25036, -1.104, 0.125, 0.098, -0.077, 0.257, 0.626, 1
25056, -1.501, -0.061, 0.167, -0.021, 0.124, 0.565, 1
25076, -1.53, -0.47, 0.454, 0.0, 0.197, 0.45, 1
25096, -1.115, -0.332, 0.543, -0.052, 0.2, 0.346, 1
25116, -1.413, -0.113, 0.267, -0.107, 0.186, 0.424, 1
25136, -1.414, 0.373, -0.01, -0.103, 0.245, 0.566, 1
25156, -1.558, -0.102, -0.13, -0.147, 0.227, 0.656, 1
25176, -1.527, 0.131, -0.301, -0.216, 0.19, 0.55, 1
25196, -1.407, -0.14, -0.127, -0.164, 0.095, 0.463, 1
25216, -0.978, -0.158, 0.123, -0.183, -0.123, 0.374, 1
25236, -1.25, -0.393, 0.118, -0.237, -0.166, 0.384, 1
25256, -1.322, -0.221, -0.085, -0.265, -0.065, 0.303, 1
25276, -1.381, 0.005, -0.221, -0.269, 0.02, 0.229, 1
25296, -1.009, -0.085, -0.279, -0.238, -0.048, 0.023, 1
25316, -0.189, -0.041, -0.735, -0.149, -0.117, 0.083, 1
25336, 0.081, -0.372, -0.68, -0.1, -0.046, 0.103, 1
25356, 0.278, -0.441, -0.262, -0.164, -0.032, 0.11, 1
25376, 0.236, -0.223, -0.288, -0.183, -0.076, 0.067, 1
25396, 0.074, 0.034, -0.464, -0.067, -0.105, 0.103, 1
25416, -0.238, 0.113, -0.566, 0.085, -0.036, 0.111, 1
25436, -0.029, -0.031, -0.529, 0.131, -0.053, -0.017, 1
25456, 0.119, -0.223, -0.365, 0.034, -0.072, -0.025, 1
25476, 0.136, -0.382, -0.31, -0.119, 0.018, 0.0, 1
25496, 0.352, -0.164, -0.571, -0.148, 0.04, 0.034, 1
25516, 0.299, 0.105, -0.696, -0.008, -0.009, 0.043, 1
25536, 0.053, -0.082, -0.375, 0.05, 0.053, 0.038, 1
25556, 0.33, -0.349, -0.047, -0.084, 0.012, 0.019, 1
25576, 0.373, -0.213, -0.115, -0.221, -0.028, 0.086, 1
25596, 0.048, -0.074, -0.271, -0.192, 0.051, 0.149, 1
25616, -0.097, -0.065, -0.269, -0.091, 0.124, 0.073, 1
25636, 0.076, -0.032, 0.006, -0.056, 0.046, 0.03, 1
25656, -0.023, 0.008, -0.065, -0.066, 0.039, 0.051, 1
25676, -0.018, -0.184, 0.161, -0.229, 0.142, 0.1, 1
25696, 0.097, -0.052, -0.115, -0.256, 0.102, 0.138, 1
25716, -0.045, -0.012, -0.168, -0.174, 0.097, 0.059, 1
25736, 0.022, -0.012, -0.171, -0.16, 0.042, 0.075, 1
25756, -0.003, -0.011, -0.115, -0.115, 0.025, 0.133, 1
25776, -0.09, -0.185, 0.111, -0.242, 0.058, 0.185, 1
25796, -0.475, 0.203, -0.173, -0.373, 0.095, 0.15, 0
25816, -0.314, 0.297, -0.468, -0.243, 0.007, 0.064, 0
25836, -0.14, 0.084, -0.532, -0.081, -0.092, 0.06, 0
25856, -0.161, 0.058, -0.557, 0.181, -0.045, 0.071, 0
25876, 0.02, -0.453, 0.044, 0.304, 0.083, 0.109, 0
25896, 0.055, -0.628, 0.356, 0.023, 0.111, 0.157, 0
25916, -0.211, -0.201, -0.223, -0.273, 0.078, 0.181, 0
25936, -0.544, 0.245, -0.769, -0.162, 0.11, 0.077, 0
25956, -0.13, -0.008, -0.416, -0.061, 0.147, 0.064, 0
25976, -0.522, 0.173, -0.616, -0.021, 0.07, 0.117, 0
25996, -0.322, -0.105, -0.407, 0.096, 0.062, 0.085, 0
26016, -0.42, -0.173, -0.259, 0.029, 0.045, 0.074, 0
26036, -0.499, -0.081, -0.124, -0.004, 0.044, 0.032, 0
26056, -0.781, 0.171, 0.036, 0.025, 0.023, 0.033, 0
26076, -0.736, 0.183, 0.023, 0.15, 0.003, 0.03, 0
26096, -0.532, -0.212, 0.179, 0.13, 0.031, -0.001, 0
26116, -0.511, -0.426, 0.188, -0.081, 0.094, 0.12, 0
26136, -0.557, -0.315, 0.018, -0.248, 0.176, 0.179, 0
26156, -0.564, -0.013, -0.775, -0.304, 0.121, 0.174, 0
26176, -0.271, 0.118, -0.775, -0.124, 0.06, -0.063, 0
26196, -0.183, 0.052, -0.286, -0.058, -0.065, -0.158, 0
26216, 0.116, 0.017, 0.068, -0.105, -0.025, -0.147, 0
26236, 0.076, -0.138, 0.054, -0.102, -0.006, -0.181, 0
26256, 0.024, -0.212, 0.021, -0.111, 0.032, -0.287, 0
26276, 0.37, -0.253, 0.117, -0.141, 0.037, -0.342, 0
26296, 0.251, -0.114, -0.101, -0.108, 0.038, -0.34, 0
26316, 0.099, 0.026, 0.097, -0.038, 0.042, -0.364, 0
26336, -0.341, 0.01, 0.599, -0.086, 0.07, -0.415, 0
26356, -0.086, -0.06, 0.55, -0.229, 0.047, -0.501, 0
26376, 0.128, 0.059, -0.147, -0.204, 0.039, -0.523, 0
26396, 0.368, 0.148, -0.352, -0.154, 0.051, -0.436, 0
26416, 0.0, 0.084, -0.172, -0.133, 0.118, -0.547, 0
26436, 0.618, -0.1, -0.21, -0.238, -0.02, -0.599, 0
26456, 0.847, 0.07, -0.85, -0.251, -0.104, -0.552, 0
26476, 0.802, 0.005, -0.801, -0.192, -0.05, -0.562, 0
26496, 1.218, -0.013, -0.499, -0.097, -0.34, -0.637, 0
26516, 0.55, -0.121, -0.537, -0.067, -0.446, -0.601, 0
26536, 0.174, -0.188, -0.354, -0.031, -0.174, -0.551, 0
26556, 0.668, -0.562, -0.104, -0.142, -0.114, -0.519, 0
26576, 1.096, -0.565, -0.498, -0.322, -0.231, -0.463, 0
26596, 0.255, 0.138, -1.04, -0.136, -0.167, -0.594, 0
26616, 0.657, 0.071, -0.617, -0.017, -0.23, -0.616, 0
26636, 0.395, -0.477, -0.015, -0.184, -0.139, -0.585, 0
26656, 0.477, -0.252, -0.17, -0.203, -0.059, -0.506, 0
26676, 0.302, -0.042, -0.365, -0.161, 0.069, -0.505, 0
26696, 0.589, 0.02, -0.318, -0.186, -0.056, -0.442, 0
26716, 0.039, -0.016, 0.001, -0.129, -0.072, -0.401, 0
26736, 0.308, 0.064, 0.409, -0.094, 0.113, -0.384, 0
26756, 0.316, -0.223, 0.452, -0.083, 0.148, -0.303, 0
26776, 0.554, -0.081, 0.32, -0.18, 0.139, -0.363, 0
26796, 0.092, -0.074, 0.218, -0.191, 0.109, -0.309, 0
26816, 0.434, -0.455, -0.005, -0.159, 0.114, -0.335, 0
26836, 0.147, -0.375, -0.722, -0.009, -0.048, -0.283, 0
26856, 0.065, -0.802, -0.634, 0.036, 0.166, -0.274, 0
26876, 0.692, -0.542, -0.663, -0.122, 0.268, -0.214, 0
26896, 0.036, -0.47, -1.012, -0.164, 0.135, -0.092, 0
26916, 0.108, -0.134, -1.08, -0.161, 0.15, -0.155, 0
26936, 0.057, 0.011, -0.872, -0.089, 0.089, -0.22, 0
26956, 0.203, 0.197, -0.686, -0.064, 0.108, -0.117, 0
26976, -0.092, 0.082, -0.536, 0.06, 0.086, 0.012, 0
26996, -0.118, -0.36, -0.142, 0.132, -0.032, -0.087, 0
27016, -0.179, -0.034, -0.098, 0.03, -0.114, -0.172, 0
27036, -0.354, 0.052, -0.027, 0.044, -0.006, -0.15, 0
27056, 0.061, -0.272, 0.124, -0.009, 0.162, -0.113, 0
27076, 0.058, -0.269, -0.038, -0.092, 0.037, -0.103, 0
27096, -0.023, -0.272, 0.015, -0.087, 0.045, -0.051, 0
27116, -0.108, -0.25, 0.196, -0.039, 0.11, -0.001, 0
27136, -0.093, -0.285, 0.405, -0.09, 0.155, -0.014, 0
27156, -0.268, -0.098, 0.19, -0.1, 0.154, -0.009, 0
27176, -0.382, -0.056, 0.016, 0.043, 0.213, 0.011, 0
27196, -0.364, -0.046, 0.038, 0.08, 0.236, 0.04, 1
27216, -0.261, -0.485, 0.041, -0.051, 0.277, 0.056, 1
27236, -0.219, -0.061, -0.075, -0.089, 0.24, 0.053, 1
27256, -0.198, 0.044, -0.273, -0.141, 0.19, 0.086, 1
27276, -0.147, 0.101, -0.346, -0.128, 0.08, 0.092, 1
27296, -0.421, 0.025, -0.258, -0.109, 0.031, 0.059, 1
27316, -0.404, 0.094, -0.26, -0.063, 0.044, 0.058, 1
27336, -0.238, -0.076, -0.23, -0.05, 0.007, 0.083, 1
27356, -0.418, -0.222, -0.316, -0.042, 0.05, 0.095, 1
27376, -0.258, -0.224, -0.275, -0.076, 0.105, 0.073, 1
27396, 0.043, -0.065, -0.341, -0.093, 0.012, 0.064, 1
27416, 0.102, 0.019, -0.439, -0.022, -0.084, 0.055, 1
27436, 0.005, 0.104, -0.423, 0.058, -0.053, 0.075, 1
27456, -0.12, -0.073, -0.136, 0.02, 0.061, 0.067, 1
27476, -0.031, -0.206, -0.006, -0.141, 0.075, 0.049, 1
27496, -0.027, -0.021, -0.234, -0.188, 0.047, 0.029, 1
27516, 0.034, 0.342, -0.515, -0.103, 0.028, -0.014, 1
27536, 0.011, 0.673, -0.609, -0.01, 0.05, -0.016, 1
27556, 0.14, 0.322, -0.408, 0.01, 0.014, -0.002, 1
27576, 0.243, 0.25, -0.394, -0.048, -0.012, -0.018, 1
27596, 0.3, 0.429, -0.55, -0.111, -0.109, -0.095, 1
27616, 0.231, 0.318, -0.715, -0.091, -0.216, -0.106, 1
27636, 0.149, 0.001, -0.711, -0.009, -0.204, -0.084, 1
27656, 0.241, -0.365, -0.528, -0.018, -0.136, -0.09, 1
27676, 0.653, -0.786, -0.192, -0.156, -0.186, -0.14, 1
27696, 0.749, -0.403, -0.134, -0.235, -0.23, -0.14, 1
27716, 0.596, -0.387, -0.075, -0.177, -0.149, -0.047, 1
27736, 0.444, -0.508, 0.096, -0.017, -0.047, 0.072, 1
27756, 0.325, -0.778, 0.327, 0.01, 0.035, 0.119, 1
27776, 0.195, -0.402, 0.31, -0.065, 0.103, 0.08, 1
27796, 0.303, -0.017, 0.197, -0.12, 0.145, 0.172, 1
27816, 0.197, -0.26, 0.089, -0.032, 0.158, 0.281, 1
27836, 0.179, -0.803, 0.21, 0.032, 0.164, 0.311, 1
27856, 0.24, -0.767, 0.055, -0.007, 0.092, 0.293, 1
27876, 0.368, -0.494, 0.084, -0.087, 0.034, 0.252, 1
27896, 0.038, -0.147, 0.005, -0.142, 0.034, 0.486, 1
27916, -0.524, -0.353, -0.205, -0.017, 0.113, 0.602, 1
27936, -0.267, -0.347, -0.218, 0.175, -0.003, 0.483, 1
27956, -0.582, -0.534, 0.103, 0.209, -0.265, 0.372, 1
27976, -0.367, 0.195, 0.361, -0.058, -0.165, 0.434, 1
27996, -0.36, 0.136, 0.223, -0.191, 0.083, 0.722, 1
28016, -0.08, 0.008, 0.311, -0.1, 0.091, 0.647, 1
28036, -0.317, -0.72, 0.324, -0.092, -0.097, 0.538, 1
28056, -0.114, -0.396, 0.307, -0.172, -0.157, 0.455, 1
28076, -0.819, 0.299, -0.096, -0.259, -0.016, 0.764, 1
28096, -1.092, 0.573, -0.355, -0.262, 0.205, 0.668, 1
28116, -0.915, 0.306, -0.23, -0.171, 0.062, 0.205, 1
28136, -0.023, 0.654, -0.276, -0.18, -0.144, 0.467, 1
28156, -0.777, 0.304, -0.581, 0.044, 0.069, 0.741, 1
28176, -0.417, 0.25, -0.394, 0.24, 0.043, 0.536, 1
28196, -0.424, -0.015, -0.04, 0.153, -0.091, 0.298, 1
28216, -0.617, -0.401, 0.037, -0.167, 0.064, 0.116, 1
28236, -0.424, 0.805, -0.762, -0.067, 0.18, 0.885, 1
28256, -0.437, 0.105, -1.007, 0.114, 0.107, 0.659, 1
28276, -0.393, 0.012, -0.735, 0.013, -0.128, 0.682, 1
28296, -1.035, -0.251, -0.808, -0.036, -0.176, 0.469, 1
28316, -0.309, -0.047, -0.704, -0.032, -0.123, 0.633, 1
28336, -0.001, -0.301, -0.69, 0.018, -0.101, 0.786, 1
28356, -0.026, -0.693, -0.197, 0.051, -0.19, 0.777, 1
28376, -0.596, -0.974, 0.33, 0.022, -0.201, 0.543, 1
28396, -0.54, -0.603, 0.502, -0.009, -0.164, 0.403, 1
28416, -0.482, 0.031, 0.192, -0.011, 0.023, 0.694, 1
28436, -0.514, -0.17, -0.045, 0.075, 0.113, 0.52, 1
28456, -0.435, -0.372, 0.076, 0.128, -0.108, 0.197, 1
28476, -0.441, -0.416, 0.204, -0.029, -0.213, -0.015, 1
28496, -0.813, 1.067, -0.478, 0.016, -0.002, 0.664, 1
28516, -1.921, 0.168, -0.038, 0.128, 0.313, 0.731, 1
28536, -1.911, -0.463, 0.762, -0.08, 0.205, 0.588, 1
28556, -1.843, -0.115, 0.496, -0.199, -0.026, 0.294, 1
28576, -1.982, -0.077, 0.28, -0.291, 0.084, 0.139, 1
28596, -1.326, 0.124, 0.243, -0.323, 0.231, 0.24, 1
28616, -0.615, -0.262, 0.204, -0.352, 0.145, 0.22, 1
28636, -0.491, -0.301, 0.039, -0.474, 0.215, 0.299, 1
28656, 0.207, 0.114, -0.729, -0.397, 0.173, 0.23, 1
28676, -0.129, -0.005, -0.805, -0.284, 0.135, 0.263, 1
28696, 0.134, -0.039, -0.591, -0.247, 0.123, 0.205, 1
28716, 0.445, -0.198, -0.723, -0.15, -0.098, 0.145, 1
28736, -0.006, -0.102, -0.868, -0.111, -0.191, 0.168, 1
28756, -0.098, -0.2, -0.534, -0.046, -0.107, 0.145, 1
28776, -0.134, -0.174, -0.164, -0.106, -0.055, 0.142, 1
28796, -0.038, -0.219, -0.26, -0.185, 0.001, 0.101, 1
28816, 0.011, 0.045, -0.708, -0.191, 0.034, 0.019, 1
28836, 0.076, -0.143, -0.746, 0.042, 0.038, -0.031, 1
28856, 0.6, -0.355, -0.587, 0.065, 0.097, -0.033, 1
28876, 0.571, -0.483, -0.313, -0.051, 0.045, -0.001, 1
28896, 0.343, -0.066, -0.239, -0.253, 0.078, 0.051, 1
28916, 0.306, 0.012, -0.353, -0.162, 0.051, 0.084, 1
28936, 0.29, -0.235, 0.054, -0.09, -0.029, 0.071, 1
28956, 0.007, -0.122, 0.279, -0.161, -0.05, 0.08, 1
28976, -0.087, -0.081, 0.323, -0.131, -0.026, 0.053, 1
28996, -0.041, -0.067, 0.319, -0.155, 0.079, 0.089, 1
29016, 0.247, 0.032, 0.136, -0.138, 0.061, -0.005, 1
29036, 0.246, -0.136, 0.16, -0.067, -0.03, -0.004, 1
29056, 0.008, -0.255, 0.125, -0.124, 0.035, 0.097, 1
29076, -0.028, -0.058, -0.059, -0.213, 0.111, 0.15, 1
29096, -0.191, 0.106, -0.215, -0.191, 0.113, 0.127, 1
29116, -0.109, -0.013, -0.112, -0.103, 0.062, 0.091, 1
29136, 0.116, -0.052, -0.199, -0.205, -0.047, 0.107, 0
29156, -0.063, 0.059, -0.66, -0.191, -0.029, 0.18, 0
29176, -0.07, -0.118, -0.676, -0.191, 0.046, 0.15, 0
29196, -0.095, 0.091, -0.684, -0.042, -0.013, 0.221, 0
29216, -0.346, 0.182, -0.718, 0.192, -0.02, 0.237, 0
29236, -0.798, -0.151, -0.568, 0.232, 0.166, 0.218, 0
29256, -1.092, 0.0, -0.542, 0.246, 0.478, 0.19, 0
29276, -0.301, -0.669, 0.202, -0.023, 0.4, 0.144, 0
29296, -0.336, -0.537, 0.279, -0.296, 0.146, 0.141, 0
29316, -0.839, 0.002, -0.197, -0.167, 0.147, 0.186, 0
29336, -1.235, -0.025, -0.208, 0.004, 0.305, 0.167, 0
29356, -0.904, -0.258, -0.013, -0.099, 0.295, 0.012, 0
29376, -0.716, -0.072, -0.291, -0.097, 0.241, -0.021, 0
29396, -0.355, -0.157, -0.447, -0.059, 0.235, -0.015, 0
29416, -0.141, -0.064, -0.495, -0.05, 0.12, 0.0, 0
29436, -0.221, 0.206, -0.659, 0.142, -0.055, 0.091, 0
29456, -0.917, -0.054, -0.349, 0.215, 0.038, 0.019, 0
29476, -0.381, -0.419, 0.11, -0.001, 0.041, -0.003, 0
29496, -0.082, -0.207, 0.01, -0.201, -0.016, 0.053, 0
29516, -0.408, -0.06, -0.196, -0.195, 0.008, -0.071, 0
29536, -0.32, 0.086, -0.003, -0.09, -0.063, -0.141, 0
29556, -0.158, -0.274, 0.241, -0.098, -0.205, -0.162, 0
29576, -0.487, 0.089, 0.116, -0.16, -0.081, -0.13, 0
29596, -0.568, 0.109, -0.205, -0.065, 0.171, -0.321, 0
29616, 1.016, -0.195, -0.683, -0.185, -0.241, -0.367, 0
29636, 0.609, 0.144, -0.536, -0.178, -0.283, -0.339, 0
29656, 0.085, 0.001, -0.105, -0.146, -0.16, -0.153, 0
29676, 0.225, -0.196, 0.001, -0.128, -0.031, -0.271, 0
29696, 0.603, -0.203, -0.001, -0.201, -0.065, -0.409, 0
29716, 0.498, 0.04, -0.086, -0.287, -0.064, -0.367, 0
29736, 0.021, 0.128, -0.076, -0.267, -0.012, -0.321, 0
29756, 0.02, 0.474, -0.096, -0.149, -0.026, -0.478, 0
29776, -0.465, 0.386, 0.075, -0.012, -0.014, -0.533, 0
29796, 0.856, -0.18, 0.176, -0.135, 0.144, -0.587, 0
29816, 1.293, -0.22, -0.352, -0.381, -0.055, -0.554, 0
29836, 0.798, -0.367, -0.497, -0.364, -0.086, -0.476, 0
29856, 0.626, -0.227, -0.434, -0.221, -0.084, -0.456, 0
29876, 0.133, 0.191, -0.358, -0.058, -0.051, -0.507, 0
29896, 0.14, 0.045, -0.016, 0.023, 0.132, -0.528, 0
29916, 1.098, -0.613, 0.24, -0.105, 0.146, -0.626, 0
29936, 1.579, -0.832, -0.176, -0.291, 0.053, -0.487, 0
29956, 1.21, -0.424, -0.848, -0.288, 0.145, -0.321, 0
29976, 1.17, 0.123, -1.204, 0.002, 0.116, -0.467, 0
29996, 0.998, -0.127, -0.567, 0.144, -0.149, -0.547, 0
30016, 0.282, -0.08, -0.052, 0.023, -0.188, -0.512, 0
30036, 0.186, -0.071, -0.104, 0.004, -0.086, -0.436, 0
30056, 0.084, 0.129, -0.482, 0.089, 0.215, -0.297, 0
30076, 1.335, -0.353, -0.226, 0.058, 0.445, -0.478, 0
30096, 1.508, -0.523, -0.177, -0.208, -0.168, -0.389, 0
30116, 0.604, -0.007, -0.572, -0.194, -0.108, -0.287, 0
30136, 0.539, -0.223, -0.382, -0.073, 0.054, -0.295, 0
30156, 0.823, -0.532, 0.012, -0.133, 0.036, -0.219, 0
30176, 0.379, -0.829, 0.3, -0.213, 0.2, -0.227, 0
30196, 0.413, -1.047, 0.271, -0.323, 0.233, -0.271, 0
30216, 0.441, -0.122, -0.572, -0.106, 0.171, -0.34, 0
30236, 0.622, -0.383, -0.532, -0.043, 0.229, -0.273, 0
30256, 0.621, -0.613, -0.316, -0.144, 0.131, -0.158, 0
30276, 0.199, -0.305, -0.549, -0.113, 0.027, -0.091, 0
30296, 0.002, -0.353, -0.348, -0.122, -0.017, -0.14, 0
30316, -0.177, -0.145, -0.285, -0.108, -0.061, -0.185, 0
30336, -0.353, 0.037, -0.363, -0.045, 0.092, -0.112, 0
30356, -0.036, -0.162, -0.132, -0.066, 0.097, -0.099, 0
30376, -0.175, -0.232, -0.002, -0.148, 0.096, -0.098, 0
30396, 0.017, -0.03, -0.092, -0.117, 0.093, -0.046, 0
30416, -0.028, -0.063, -0.216, -0.065, 0.075, -0.011, 0
30436, -0.153, -0.203, -0.173, -0.068, 0.064, -0.02, 0
30456, -0.398, -0.186, -0.083, -0.121, 0.155, -0.072, 0
30476, -0.088, -0.051, -0.104, -0.21, 0.233, -0.042, 0
30496, -0.093, -0.172, -0.28, -0.207, 0.244, 0.019, 0
30516, -0.102, -0.097, -0.297, -0.134, 0.195, 0.086, 0
30536, -0.322, 0.241, -0.494, 0.127, 0.111, 0.047, 1
30556, -0.411, -0.039, -0.157, 0.141, 0.131, 0.031, 1
30576, -0.284, -0.258, 0.013, 0.001, 0.168, 0.059, 1
30596, -0.243, -0.312, 0.035, -0.039, 0.116, 0.073, 1
30616, -0.311, -0.049, -0.014, -0.137, 0.076, 0.076, 1
30636, -0.532, 0.191, -0.193, -0.084, -0.001, 0.059, 1
30656, -0.566, 0.071, -0.115, 0.031, 0.064, 0.05, 1
30676, -0.135, -0.344, 0.025, -0.039, 0.121, 0.05, 1
30696, -0.042, 0.02, -0.41, -0.151, 0.025, 0.058, 1
30716, -0.15, 0.041, -0.501, -0.067, 0.05, 0.065, 1
30736, 0.04, -0.21, -0.173, -0.042, 0.071, 0.072, 1
30756, -0.001, -0.094, -0.2, -0.081, -0.029, 0.047, 1
30776, -0.093, -0.068, -0.308, -0.087, 0.029, 0.033, 1
30796, 0.209, -0.063, -0.297, -0.149, 0.083, 0.039, 1
30816, 0.033, 0.072, -0.497, -0.162, 0.023, 0.089, 1
30836, -0.134, 0.239, -0.552, -0.061, -0.001, 0.059, 1
30856, 0.017, -0.038, -0.342, 0.001, -0.046, -0.003, 1
30876, 0.018, 0.113, -0.543, -0.036, -0.091, 0.034, 1
30896, -0.013, 0.054, -0.418, 0.02, 0.04, 0.034, 1
30916, 0.144, -0.085, -0.151, -0.04, 0.068, 0.023, 1
30936, 0.206, 0.091, -0.193, -0.086, -0.011, -0.034, 1
30956, 0.243, 0.218, -0.267, -0.083, -0.07, -0.041, 1
30976, 0.391, 0.158, -0.165, -0.138, -0.104, -0.084, 1
30996, 0.327, -0.035, -0.084, -0.35, -0.292, -0.193, 1
31016, 0.488, -0.043, -0.437, -0.52, -0.492, -0.257, 1
31036, 0.175, -0.157, -0.873, -0.499, -0.493, -0.095, 1
31056, 0.086, -0.1, -0.939, -0.244, -0.273, 0.013, 1
31076, -0.056, -0.017, -0.721, -0.098, -0.135, 0.021, 1
31096, -0.27, -0.225, -0.121, -0.1, -0.039, -0.13, 1
31116, 0.085, -0.003, 0.206, -0.142, -0.051, -0.364, 1
31136, 0.749, 0.327, 0.357, -0.078, -0.051, 0.142, 1
31156, 0.098, -0.437, 0.288, 0.032, 0.089, 0.173, 1
31176, 0.327, -0.226, 0.529, 0.089, 0.079, 0.183, 1
31196, 0.095, -0.336, 0.446, -0.009, 0.078, 0.103, 1
31216, 0.569, -0.449, 0.34, -0.103, 0.007, 0.029, 1
31236, 0.873, -0.618, 0.155, -0.094, -0.156, 0.295, 1
31256, 0.538, -0.542, -0.066, -0.004, -0.05, 0.359, 1
31276, 0.731, -0.561, 0.043, 0.045, 0.016, 0.456, 1
31296, 0.552, -0.817, 0.213, -0.05, -0.006, 0.478, 1
31316, 1.415, -0.857, -0.261, -0.287, -0.042, 0.747, 1
31336, 1.7, -0.662, -1.353, -0.268, -0.237, 1.01, 1
31356, 0.996, 0.201, -1.499, 0.074, -0.441, 1.13, 1
31376, 0.26, 0.065, -0.561, 0.221, -0.535, 1.164, 1
31396, -1.046, -0.411, 0.546, 0.127, -0.389, 1.182, 1
31416, -1.584, -0.616, 1.247, -0.014, -0.045, 1.109, 1
31436, -1.24, -0.089, 0.904, -0.106, 0.136, 1.123, 1
31456, -0.531, 0.177, 0.137, -0.069, 0.045, 1.024, 1
31476, -0.305, 0.266, -0.118, -0.014, -0.149, 0.892, 1
31496, -0.548, 0.227, -0.022, -0.05, -0.141, 0.773, 1
31516, -0.923, 0.057, 0.112, -0.079, 0.059, 0.673, 1
31536, -0.564, 0.51, 0.0, -0.001, 0.263, 1.231, 1
31556, -1.265, 0.488, -0.704, 0.218, 0.29, 0.811, 1
31576, -1.704, -0.08, -0.023, 0.266, 0.054, 0.407, 1
31596, -0.946, -0.027, 0.535, 0.024, 0.034, 0.036, 1
31616, -1.698, 0.608, -0.118, -0.198, 0.077, 0.975, 1
31636, -2.066, 0.66, -0.817, -0.043, 0.369, 1.125, 1
31656, -1.824, 0.462, -0.816, 0.092, 0.432, 0.926, 1
31676, -1.911, -0.074, -0.543, -0.045, 0.279, 0.745, 1
31696, -2.287, -0.225, 0.012, -0.196, 0.073, 0.435, 1
31716, -2.21, 0.195, 0.31, -0.198, 0.02, 0.251, 1
31736, -2.568, 0.64, 0.02, -0.125, 0.166, 0.344, 1
31756, -2.14, 0.823, -0.023, -0.102, 0.384, 0.474, 1
31776, -1.998, -0.019, 0.17, -0.12, 0.357, 0.638, 1
31796, -2.185, -0.129, -0.138, -0.167, 0.155, 0.386, 1
31816, -1.607, 0.257, -0.485, 0.02, -0.051, -0.046, 1
31836, -1.2, 0.053, -0.243, 0.156, -0.22, -0.051, 1
31856, -1.594, -0.04, 0.135, 0.131, -0.139, 0.348, 1
31876, -1.194, -0.644, 0.576, 0.037, 0.068, 0.547, 1
31896, -0.988, -0.565, 0.209, -0.093, -0.044, 0.466, 1
31916, -0.625, -0.164, -0.329, -0.087, -0.192, 0.288, 1
31936, -0.922, -0.241, -0.152, 0.002, -0.198, 0.432, 1
31956, -1.045, -0.401, 0.231, -0.13, -0.048, 0.543, 1
31976, -1.1, -0.163, -0.057, -0.301, -0.032, 0.586, 1
31996, -1.673, -0.007, -0.111, -0.285, 0.054, 0.5, 1
32016, -1.183, -0.192, 0.137, -0.122, 0.175, 0.149, 1
32036, 0.035, -0.473, -0.183, -0.254, -0.025, 0.114, 1
32056, 0.079, -0.713, -0.366, -0.436, 0.073, 0.18, 1
32076, 0.041, -0.585, -0.117, -0.557, 0.237, 0.235, 1
32096, 0.214, -0.224, -0.349, -0.474, 0.175, 0.167, 1
32116, 0.053, 0.281, -0.751, -0.23, 0.014, 0.069, 1
32136, -0.368, 0.051, -0.505, -0.099, 0.084, 0.062, 1
32156, 0.061, -0.361, -0.143, -0.213, 0.144, 0.026, 1
32176, 0.405, -0.452, -0.274, -0.286, 0.07, 0.001, 1
32196, 0.54, -0.405, -0.534, -0.282, 0.037, 0.041, 1
32216, 0.381, 0.0, -0.638, -0.12, 0.015, 0.092, 1
32236, 0.173, -0.056, -0.619, 0.014, -0.051, 0.011, 1
32256, -0.231, -0.024, -0.368, -0.039, -0.026, 0.035, 1
32276, -0.113, -0.066, -0.164, -0.112, 0.036, -0.001, 1
32296, 0.125, -0.056, -0.294, -0.095, 0.012, -0.002, 1
32316, 0.241, -0.059, -0.492, -0.007, 0.012, 0.014, 1
32336, 0.175, -0.142, -0.316, -0.044, 0.088, 0.039, 1
32356, 0.118, -0.121, -0.133, -0.139, 0.134, 0.083, 1
32376, 0.084, -0.062, -0.226, -0.116, 0.072, 0.062, 1
32396, -0.08, 0.046, -0.396, -0.015, 0.038, 0.029, 1
32416, -0.032, -0.029, -0.096, 0.014, 0.066, 0.032, 1
32436, 0.009, -0.102, -0.009, -0.033, 0.086, 0.02, 1
32456, 0.125, -0.158, -0.17, -0.101, 0.061, 0.0, 1
32476, 0.19, -0.134, -0.206, -0.167, -0.004, 0.055, 1
32496, -0.073, 0.066, -0.243, -0.046, -0.005, 0.079, 1
32516, -0.004, -0.012, 0.145, -0.023, 0.025, 0.031, 1
32536, -0.125, -0.302, 0.285, -0.109, -0.004, 0.037, 1
32556, -0.304, -0.077, 0.073, -0.189, 0.039, 0.087, 1
32576, -0.2, -0.017, -0.304, -0.139, 0.082, 0.082, 1
32596, -0.068, 0.262, -0.598, -0.034, 0.088, 0.061, 1
32616, -0.087, -0.08, -0.448, 0.264, 0.005, 0.012, 1
32636, 0.107, -0.728, 0.094, 0.207, 0.0, 0.02, 1
32656, 0.262, -0.299, 0.02, -0.174, 0.023, 0.114, 1
32676, 0.004, -0.049, 0.004, -0.327, 0.079, 0.273, 0
32696, -0.252, -0.095, -0.197, -0.276, 0.142, 0.342, 0
32716, -0.483, 0.433, -0.54, -0.075, 0.051, 0.218, 0
32736, -0.435, 0.05, -0.285, 0.191, 0.029, 0.174, 0
32756, -0.322, -0.12, -0.19, 0.233, 0.084, 0.174, 0
32776, -0.205, -0.326, 0.062, 0.112, 0.125, 0.133, 0
32796, -0.225, -0.128, -0.29, -0.104, 0.095, 0.157, 0
32816, -0.258, 0.086, -0.485, -0.113, 0.118, 0.149, 0
32836, -0.261, 0.023, -0.39, 0.017, 0.083, 0.167, 0
32856, -0.368, -0.088, -0.137, 0.07, 0.054, 0.156, 0
32876, -0.472, -0.218, -0.139, 0.02, 0.018, 0.149, 0
32896, -0.387, 0.022, -0.314, -0.09, 0.051, 0.111, 0
32916, -0.522, 0.22, -0.412, 0.012, -0.003, 0.08, 0
32936, -0.77, -0.148, 0.063, 0.105, 0.04, 0.142, 0
32956, -0.906, -0.269, 0.372, 0.09, 0.016, 0.08, 0
32976, -0.844, -0.173, 0.275, -0.102, 0.068, 0.12, 0
32996, -0.669, 0.0, 0.087, -0.183, 0.102, -0.025, 0
33016, 0.022, 0.238, 0.133, -0.135, -0.12, 0.012, 0
33036, -0.314, -0.022, 0.096, -0.103, -0.145, 0.043, 0
33056, -0.285, 0.011, 0.033, -0.1, 0.032, 0.031, 0
33076, -0.101, -0.31, 0.159, -0.207, 0.04, -0.114, 0
33096, 0.136, 0.007, 0.193, -0.197, -0.139, -0.259, 0
33116, 0.296, -0.28, 0.157, -0.208, -0.207, -0.262, 0
33136, 0.436, -0.43, -0.07, -0.209, -0.071, -0.215, 0
33156, 0.684, -0.752, -0.248, -0.287, 0.021, -0.112, 0
33176, 0.443, -0.616, -0.555, -0.315, 0.034, -0.063, 0
33196, 0.215, 0.043, -1.155, -0.043, -0.075, -0.227, 0
33216, 0.228, -0.052, -1.175, 0.023, -0.124, -0.189, 0
33236, -0.214, 0.086, -0.999, -0.047, -0.04, -0.242, 0
33256, -0.158, 0.418, -0.687, -0.148, 0.037, -0.248, 0
33276, 0.026, 0.309, -0.742, -0.208, 0.062, -0.321, 0
33296, 0.39, 0.149, -0.838, -0.193, -0.04, -0.344, 0
33316, 0.198, 0.099, -0.63, -0.104, -0.131, -0.418, 0
33336, -0.082, 0.065, -0.226, -0.126, -0.049, -0.45, 0
33356, 0.231, -0.151, -0.269, -0.21, -0.04, -0.515, 0
33376, 0.629, -0.25, -0.618, -0.221, -0.119, -0.474, 0
33396, 0.357, -0.061, -0.73, -0.069, -0.153, -0.477, 0
33416, 0.322, 0.316, -0.285, 0.072, -0.34, -0.604, 0
33436, 0.211, -0.088, -0.106, -0.044, -0.376, -0.678, 0
33456, 0.246, -0.009, -0.193, -0.105, -0.21, -0.638, 0
33476, 0.198, -0.107, -0.035, -0.084, 0.057, -0.595, 0
33496, -0.173, -0.267, 0.718, -0.113, 0.155, -0.666, 0
33516, 0.08, -0.254, 0.444, -0.252, 0.243, -0.791, 0
33536, 0.497, -0.161, 0.278, -0.331, 0.398, -0.817, 0
33556, 1.43, -0.037, 0.032, -0.293, 0.499, -0.731, 0
33576, 1.306, -0.156, -0.604, -0.122, 0.279, -0.635, 0
33596, 1.458, -0.759, -0.639, 0.084, 0.155, -0.609, 0
33616, 1.343, -1.184, -0.008, 0.031, 0.16, -0.57, 0
33636, 1.363, -1.133, 0.398, -0.263, 0.186, -0.48, 0
33656, 1.196, -0.496, -0.132, -0.363, -0.02, -0.425, 0
33676, 0.791, -0.169, -0.573, -0.197, 0.025, -0.372, 0
33696, 1.074, -0.078, -0.55, -0.092, 0.252, -0.319, 0
33716, 1.084, -0.366, -0.32, -0.049, 0.354, -0.204, 0
33736, 0.8, -0.617, -0.256, -0.069, 0.249, -0.173, 0
33756, 0.285, -0.192, -0.751, -0.041, 0.107, -0.164, 0
33776, 0.53, -0.621, -0.431, 0.069, 0.36, -0.139, 0
33796, 0.749, -0.712, -0.027, -0.074, 0.341, -0.057, 0
33816, 0.117, -0.064, -0.385, -0.242, 0.1, -0.023, 0
33836, -0.247, 0.15, -0.653, -0.07, 0.074, -0.042, 0
33856, 0.093, -0.244, -0.351, 0.08, 0.142, -0.069, 0
33876, 0.019, -0.382, -0.081, -0.028, 0.184, -0.028, 0
33896, -0.005, -0.059, -0.229, -0.165, 0.158, -0.028, 0
33916, -0.312, 0.095, -0.503, -0.081, 0.048, -0.028, 0
33936, -0.223, -0.315, -0.212, 0.033, 0.106, -0.043, 0
33956, -0.198, -0.288, -0.217, -0.086, 0.082, 0.048, 0
33976, -0.368, -0.318, -0.096, -0.161, 0.152, 0.097, 0
33996, -0.483, -0.058, -0.115, -0.069, 0.075, 0.029, 0
34016, -0.536, -0.063, -0.045, -0.067, 0.058, -0.005, 0
34036, -0.308, -0.047, 0.072, -0.098, 0.123, 0.019, 0
34056, -0.07, -0.209, -0.002, -0.124, 0.08, 0.073, 0
34076, -0.154, -0.088, -0.225, -0.071, 0.035, 0.07, 0
34096, -0.262, -0.309, -0.114, -0.078, 0.04, 0.08, 0
34116, -0.394, -0.165, -0.182, -0.116, 0.076, 0.11, 0
34136, -0.609, -0.058, -0.252, -0.137, 0.135, 0.083, 0
34156, -0.488, -0.12, -0.166, -0.194, 0.168, 0.047, 0
34176, -0.397, 0.24, -0.269, -0.091, 0.161, 0.08, 0
34196, -0.419, 0.327, -0.457, 0.208, 0.145, 0.031, 1
34216, -0.014, -0.114, -0.397, 0.331, 0.033, 0.0, 1
34236, 0.002, -0.5, -0.036, 0.192, 0.093, 0.045, 1
34256, -0.123, -0.466, 0.201, -0.109, 0.171, 0.086, 1
34276, -0.258, 0.036, -0.047, -0.18, 0.106, 0.053, 1
34296, -0.304, 0.264, -0.296, -0.025, 0.034, -0.014, 1
34316, -0.034, 0.022, -0.247, 0.047, 0.091, 0.046, 1
34336, 0.146, -0.3, -0.046, -0.032, 0.084, 0.062, 1
34356, -0.014, -0.346, 0.053, -0.219, 0.067, 0.051, 1
34376, -0.088, 0.158, -0.393, -0.122, 0.066, 0.054, 1
34396, 0.0, 0.034, -0.355, -0.01, 0.069, 0.039, 1
34416, 0.085, -0.157, -0.057, -0.083, 0.013, 0.047, 1
34436, -0.017, -0.029, -0.204, -0.144, 0.043, 0.041, 1
34456, 0.445, 0.179, -0.384, -0.134, 0.067, 0.022, 1
34476, 0.323, 0.091, -0.338, -0.098, -0.003, 0.026, 1
34496, 0.393, 0.154, -0.322, -0.085, -0.028, 0.047, 1
34516, 0.077, 0.129, -0.143, -0.094, -0.014, 0.029, 1
34536, -0.173, 0.0, 0.001, -0.111, 0.14, -0.035, 1
34556, 0.458, -0.266, -0.078, -0.127, 0.28, -0.094, 1
34576, 1.208, -0.573, -0.416, -0.227, 0.223, -0.073, 1
34596, 0.997, -0.097, -1.021, -0.231, 0.034, -0.009, 1
34616, 0.492, 0.047, -0.743, -0.064, 0.128, 0.023, 1
34636, 1.031, 0.039, 0.152, -0.014, 0.161, -0.082, 1
34656, 0.802, -0.693, 0.58, -0.118, 0.046, 0.02, 1
34676, 0.325, -0.896, 0.365, -0.218, 0.0, 0.226, 1
34696, 0.025, -0.622, 0.081, -0.222, 0.114, 0.313, 1
34716, -0.081, -0.119, -0.084, -0.22, 0.16, 0.228, 1
34736, 0.111, 0.231, -0.177, -0.248, 0.113, 0.051, 1
34756, 0.666, 0.276, -0.083, -0.217, -0.006, 0.202, 1
34776, 0.029, -0.356, 0.008, -0.206, -0.075, 0.495, 1
34796, -0.433, 0.122, -0.116, -0.186, -0.07, 0.513, 1
34816, -0.627, -0.124, -0.128, -0.024, -0.018, 0.394, 1
34836, 0.589, 0.097, 0.02, -0.015, -0.015, 0.199, 1
34856, 0.252, -0.33, -0.141, -0.012, -0.138, 0.524, 1
34876, -0.254, -0.432, -0.111, -0.002, -0.074, 0.605, 1
34896, -0.368, -0.284, 0.221, 0.023, -0.006, 0.436, 1
34916, -0.861, -0.941, 0.374, -0.143, 0.033, 0.054, 1
34936, 0.371, 0.339, -0.42, -0.295, -0.177, 0.407, 1
34956, 0.158, 0.61, -1.41, 0.151, -0.369, 0.298, 1
34976, -0.777, 0.247, -0.84, 0.324, -0.067, 0.331, 1
34996, -1.032, -1.197, 0.399, -0.162, 0.114, -0.058, 1
35016, -0.013, -0.734, 0.388, -0.529, -0.081, -0.067, 1
35036, 0.069, 0.259, -0.711, -0.274, -0.094, 0.492, 1
35056, -0.491, 0.041, -1.057, 0.135, 0.085, 0.597, 1
35076, -0.276, -0.419, -0.428, 0.195, 0.014, 0.407, 1
35096, -0.582, -0.755, 0.147, -0.031, -0.054, 0.131, 1
35116, -0.246, 0.239, -0.005, -0.158, 0.084, 0.685, 1
35136, -1.089, -0.053, -0.407, -0.012, 0.373, 0.859, 1
35156, -0.722, -0.11, -0.306, 0.041, 0.306, 0.773, 1
35176, -0.724, -0.587, -0.048, -0.156, 0.107, 0.711, 1
35196, -1.753, -0.493, -0.08, -0.291, 0.295, 0.439, 1
35216, -0.843, 0.651, -0.374, -0.224, 0.453, 0.711, 1
35236, -0.938, -0.065, -0.405, -0.142, 0.331, 1.145, 1
35256, -1.383, -0.177, -0.001, -0.107, 0.12, 1.005, 1
35276, -1.515, -0.544, 0.027, -0.231, 0.16, 0.94, 1
35296, -1.396, -0.237, -0.271, -0.325, 0.258, 0.814, 1
35316, -1.931, 0.127, -0.455, -0.376, 0.313, 0.605, 1
35336, -1.421, 1.125, -0.747, -0.155, 0.125, 0.821, 1
35356, -1.821, 0.319, -0.783, 0.071, -0.092, 0.674, 1
35376, -1.999, 0.119, -0.503, 0.173, -0.155, 0.503, 1
35396, -1.874, -0.266, 0.0, 0.022, -0.099, 0.448, 1
35416, -1.95, -0.301, -0.483, -0.188, -0.051, 0.273, 1
35436, -1.928, 0.323, -0.926, -0.017, 0.029, 0.463, 1
35456, -1.474, 0.24, -0.294, 0.27, 0.064, 0.16, 1
35476, -0.915, -0.37, 0.358, 0.24, -0.096, 0.133, 1
35496, -1.057, -0.442, 0.19, -0.053, -0.215, 0.118, 1
35516, -0.882, -0.13, -0.049, -0.105, -0.058, 0.086, 1
35536, -0.105, -0.26, 0.063, -0.01, 0.058, 0.129, 1
35556, 0.13, -0.459, 0.06, -0.032, -0.017, 0.133, 1
35576, 0.133, -0.48, 0.105, -0.121, 0.009, 0.15, 1
35596, -0.22, -0.191, 0.113, -0.194, 0.104, 0.129, 1
35616, 0.15, -0.119, 0.077, -0.177, 0.127, 0.017, 1
35636, 0.36, -0.177, -0.293, -0.199, 0.072, 0.003, 1
35656, 0.253, -0.121, -0.37, -0.205, 0.089, 0.026, 1
35676, 0.289, -0.094, -0.273, -0.204, 0.042, 0.003, 1
35696, 0.101, -0.023, -0.4, -0.144, -0.054, -0.053, 1
35716, 0.051, -0.088, -0.415, -0.048, -0.053, -0.072, 1
35736, 0.123, -0.265, -0.234, -0.042, 0.065, -0.018, 1
35756, 0.224, -0.268, -0.144, -0.141, 0.113, 0.004, 1
35776, 0.134, -0.098, -0.291, -0.142, 0.015, -0.07, 1
35796, 0.036, -0.031, -0.32, -0.11, -0.012, -0.084, 1
35816, 0.058, -0.013, -0.302, -0.092, 0.039, 0.017, 1
35836, 0.016, -0.054, -0.038, -0.138, 0.105, 0.02, 1
35856, 0.065, -0.066, -0.17, -0.237, 0.087, 0.036, 1
35876, 0.022, 0.015, -0.393, -0.196, 0.027, 0.001, 1
35896, 0.038, 0.021, -0.341, -0.138, 0.012, 0.041, 1
35916, -0.057, 0.127, -0.385, -0.065, 0.002, 0.021, 1
35936, -0.017, -0.099, -0.134, -0.064, -0.052, 0.026, 1
35956, -0.054, -0.186, -0.119, -0.13, -0.068, 0.026, 1
35976, -0.067, 0.049, -0.345, -0.042, -0.026, 0.065, 1
35996, -0.054, -0.061, -0.271, 0.041, 0.04, 0.07, 1
36016, 0.002, -0.167, -0.021, -0.045, 0.037, 0.073, 1
36036, 0.093, -0.181, -0.127, -0.151, -0.036, 0.04, 1
36056, 0.042, -0.055, -0.081, -0.257, -0.086, 0.063, 1
36076, -0.289, 0.273, -0.215, -0.246, -0.086, 0.129, 1
36096, -0.508, 0.273, -0.316, -0.121, -0.078, 0.032, 1
36116, -0.29, 0.088, -0.309, -0.098, -0.038, -0.006, 1
36136, -0.197, -0.117, -0.288, -0.109, 0.077, 0.096, 1
36156, -0.002, -0.148, -0.156, -0.102, 0.094, 0.197, 1
36176, 0.027, -0.187, -0.083, -0.102, -0.02, 0.153, 1
36196, -0.051, 0.076, -0.197, -0.089, -0.076, 0.117, 0
36216, -0.097, -0.05, -0.137, -0.089, -0.021, 0.164, 0
36236, -0.318, -0.374, 0.204, -0.32, 0.084, 0.238, 0
36256, -0.362, -0.276, 0.442, -0.541, 0.153, 0.304, 0
36276, -0.571, 0.448, -0.488, -0.114, -0.022, 0.07, 0
36296, -0.382, 0.775, -1.181, 0.59, -0.177, -0.001, 0
36316, -0.594, -0.171, -0.403, 0.577, 0.075, 0.006, 0
36336, -0.201, -0.678, 0.368, 0.037, 0.147, 0.075, 0
36356, -0.386, -0.186, -0.163, -0.156, 0.092, 0.144, 0
36376, -0.52, 0.044, -0.498, 0.037, 0.064, 0.138, 0
36396, -0.619, -0.266, -0.233, 0.047, 0.004, 0.119, 0
36416, -0.551, -0.102, -0.442, -0.057, 0.138, 0.072, 0
36436, -0.184, -0.211, -0.351, -0.126, 0.174, 0.059, 0
36456, -0.13, 0.001, -0.494, -0.208, 0.135, 0.1, 0
36476, -0.247, -0.136, -0.464, -0.134, 0.184, 0.152, 0
36496, -0.034, -0.262, -0.223, -0.069, 0.109, 0.03, 0
36516, -0.187, 0.064, -0.3, -0.195, 0.059, 0.044, 0
36536, -0.185, 0.146, -0.34, -0.086, -0.111, 0.019, 0
36556, -0.792, 0.431, -0.46, 0.027, -0.248, -0.042, 0
36576, -0.574, 0.098, -0.063, 0.262, -0.097, -0.205, 0
36596, 0.246, -0.314, 0.452, 0.087, -0.2, -0.279, 0
36616, -0.039, 0.086, 0.02, -0.189, -0.374, -0.254, 0
36636, -0.369, 0.27, -0.213, -0.151, -0.233, -0.266, 0
36656, -0.061, 0.056, 0.185, 0.022, -0.085, -0.363, 0
36676, -0.018, -0.203, 0.614, -0.026, -0.068, -0.395, 0
36696, 0.245, -0.142, 0.532, -0.216, -0.032, -0.423, 0
36716, 0.489, -0.081, 0.037, -0.384, 0.105, -0.326, 0
36736, 0.978, 0.258, -0.623, -0.278, 0.161, -0.447, 0
36756, 0.768, 0.124, -0.568, 0.038, -0.124, -0.516, 0
36776, 0.212, -0.171, -0.135, 0.091, 0.0, -0.426, 0
36796, 0.062, 0.211, -0.398, -0.083, 0.178, -0.439, 0
36816, 0.458, 0.146, -0.519, -0.145, 0.252, -0.524, 0
36836, 0.926, 0.084, -0.486, -0.143, 0.032, -0.643, 0
36856, 0.439, 0.085, -0.583, -0.051, -0.204, -0.54, 0
36876, -0.26, 0.443, -0.744, 0.102, 0.277, -0.473, 0
36896, 0.935, -0.135, -0.464, 0.094, 0.51, -0.375, 0
36916, 1.87, -1.055, -0.037, -0.108, 0.031, -0.486, 0
36936, 1.477, -0.934, -0.157, -0.268, -0.441, -0.42, 0
36956, 0.403, -0.039, -0.529, -0.159, -0.131, -0.293, 0
36976, 1.402, -0.413, -0.421, -0.224, -0.059, -0.174, 0
36996, 1.268, -0.34, -0.677, -0.248, -0.232, -0.194, 0
37016, 0.749, 0.057, -0.471, -0.026, -0.262, -0.38, 0
37036, 0.879, -0.059, 0.02, 0.019, -0.24, -0.217, 0
37056, 0.42, -0.333, -0.205, 0.128, -0.03, -0.222, 0
37076, 1.072, -0.911, 0.113, -0.095, 0.133, -0.164, 0
37096, 0.863, -0.294, -0.268, -0.135, 0.058, -0.191, 0
37116, -0.154, 0.259, -0.39, 0.107, 0.206, -0.272, 0
37136, 0.307, -0.292, 0.146, 0.078, 0.181, -0.314, 0
37156, 0.666, -0.794, 0.363, -0.199, 0.029, -0.317, 0
37176, 0.411, -0.363, -0.07, -0.329, 0.15, -0.268, 0
37196, 0.385, -0.035, -0.486, -0.166, 0.218, -0.268, 0
37216, 0.658, -0.316, -0.525, -0.016, 0.084, -0.256, 0
37236, 0.438, -0.315, -0.386, -0.03, 0.081, -0.192, 0
37256, 0.589, -0.354, 0.022, -0.135, 0.085, -0.1, 0
37276, -0.038, -0.027, -0.025, -0.098, 0.067, 0.006, 0
37296, -0.275, -0.126, -0.167, 0.053, 0.197, -0.135, 0
37316, 0.643, -0.753, 0.0, -0.04, 0.01, -0.104, 0
37336, -0.249, -0.29, -0.377, -0.083, 0.109, -0.142, 0
37356, 0.368, -0.112, -0.031, -0.205, 0.126, -0.137, 0
37376, -0.156, 0.284, -0.537, -0.196, -0.001, -0.08, 0
37396, 0.015, -0.138, -0.297, 0.04, 0.13, -0.015, 0
37416, 0.316, -0.756, 0.273, -0.01, 0.094, -0.028, 0
37436, -0.08, -0.528, 0.118, -0.223, 0.034, -0.048, 0
37456, 0.013, -0.063, -0.264, -0.221, 0.073, -0.052, 0
37476, -0.049, -0.029, -0.477, -0.115, 0.009, -0.01, 0
37496, -0.264, -0.071, -0.375, -0.066, 0.013, 0.007, 0
37516, -0.098, -0.224, -0.116, -0.119, 0.057, 0.033, 0
37536, -0.231, -0.2, -0.172, -0.161, 0.025, 0.04, 0
37556, -0.26, -0.033, -0.268, -0.135, 0.02, 0.072, 0
37576, -0.276, -0.083, -0.04, -0.059, 0.045, 0.074, 0
37596, -0.318, -0.341, 0.363, -0.185, 0.09, 0.056, 0
37616, -0.187, -0.03, -0.022, -0.302, 0.139, 0.039, 0
37636, -0.041, 0.194, -0.423, -0.177, 0.111, 0.026, 0
37656, -0.12, -0.224, -0.29, -0.027, 0.098, 0.089, 0
37676, -0.302, -0.252, -0.189, -0.097, 0.065, 0.101, 0
37696, -0.624, 0.09, -0.349, -0.186, 0.125, 0.091, 0
37716, -0.426, 0.167, -0.374, -0.193, 0.199, 0.067, 0
37736, -0.155, 0.034, -0.484, -0.092, 0.125, -0.015, 1
37756, -0.198, -0.119, -0.352, 0.036, -0.026, -0.058, 1
37776, -0.067, -0.022, -0.367, 0.104, 0.006, 0.002, 1
37796, 0.275, -0.16, -0.176, 0.087, 0.119, 0.015, 1
37816, 0.286, -0.385, 0.012, -0.007, 0.053, 0.018, 1
37836, 0.04, 0.002, -0.155, -0.051, -0.006, 0.037, 1
37856, 0.062, -0.012, -0.124, 0.043, -0.003, 0.068, 1
37876, 0.074, -0.273, 0.182, -0.047, -0.021, 0.07, 1
37896, 0.081, -0.1, 0.094, -0.108, -0.031, 0.079, 1
37916, -0.071, 0.098, -0.172, -0.045, 0.032, 0.103, 1
37936, 0.018, 0.096, -0.246, -0.028, 0.047, 0.089, 1
37956, 0.135, -0.02, -0.208, -0.094, -0.051, 0.068, 1
37976, -0.085, 0.213, -0.428, -0.067, -0.046, 0.064, 1
37996, -0.148, 0.114, -0.469, -0.021, 0.042, 0.025, 1
38016, 0.222, -0.084, -0.411, -0.075, 0.015, 0.009, 1
38036, 0.566, 0.221, -0.807, -0.062, -0.083, 0.037, 1
38056, 0.747, 0.832, -1.03, -0.087, -0.188, 0.037, 1
38076, 0.405, 0.759, -0.94, -0.154, -0.362, -0.062, 1
38096, -0.361, 0.244, -0.481, -0.101, -0.383, 0.004, 1
38116, -0.614, -0.362, 0.404, -0.063, -0.204, -0.04, 1
38136, -0.136, -0.706, 0.684, -0.138, -0.087, -0.047, 1
38156, 0.078, -0.448, 0.235, -0.209, -0.004, -0.151, 1
38176, 0.133, -0.257, -0.194, -0.251, 0.047, -0.292, 1
38196, 0.724, -0.209, -0.168, -0.243, 0.025, -0.275, 1
38216, 1.218, -0.502, 0.006, -0.188, -0.036, -0.025, 1
38236, 0.483, -1.166, 0.196, -0.101, 0.024, 0.117, 1
38256, 0.376, -0.979, 0.366, -0.064, 0.175, 0.094, 1
38276, 0.727, -1.027, 0.541, -0.202, 0.156, 0.025, 1
38296, 1.378, -0.648, 0.359, -0.322, -0.042, 0.109, 1
38316, 0.747, -0.576, -0.141, -0.143, -0.033, 0.377, 1
38336, -0.076, -0.165, -0.135, -0.007, 0.018, 0.347, 1
38356, -0.73, -0.619, 0.124, -0.123, 0.029, 0.163, 1
38376, 0.586, 0.254, 0.072, -0.349, 0.092, -0.037, 1
38396, 0.007, 0.282, -0.555, -0.243, -0.015, 0.527, 1
38416, -0.177, 0.262, -0.441, 0.012, 0.044, 0.554, 1
38436, 0.023, -0.031, -0.16, 0.088, 0.019, 0.532, 1
38456, -0.204, -0.594, -0.024, 0.033, -0.05, 0.474, 1
38476, 0.204, -0.488, 0.008, -0.043, -0.065, 0.401, 1
38496, -0.253, -0.494, 0.055, -0.054, -0.119, 0.613, 1
38516, -0.828, -0.401, 0.149, -0.015, -0.092, 0.451, 1
38536, -0.693, -0.517, 0.214, 0.065, -0.126, 0.172, 1
38556, -0.066, 0.055, -0.03, -0.06, -0.245, 0.158, 1
38576, -1.056, 0.164, -0.454, -0.191, -0.059, 0.741, 1
38596, -1.316, 0.163, -0.477, -0.207, 0.213, 0.88, 1
38616, -0.926, 0.101, -0.783, -0.139, 0.148, 0.835, 1
38636, -1.22, 0.284, -0.873, -0.045, -0.115, 0.705, 1
38656, -1.538, 0.298, -0.62, -0.011, -0.135, 0.585, 1
38676, -1.02, 0.05, -0.289, 0.004, -0.028, 0.442, 1
38696, -0.541, -0.353, -0.091, 0.034, -0.098, 0.481, 1
38716, -0.952, -0.268, -0.278, 0.037, -0.159, 0.487, 1
38736, -1.045, 0.273, -0.517, 0.108, -0.061, 0.343, 1
38756, -1.213, 0.05, -0.46, 0.169, -0.01, 0.204, 1
38776, -0.456, -0.318, -0.128, -0.014, 0.004, 0.056, 1
38796, -0.456, -0.008, -0.078, -0.092, -0.221, 0.234, 1
38816, -0.59, 0.089, 0.003, 0.102, -0.009, 0.601, 1
38836, -1.051, -0.351, 0.396, 0.032, 0.287, 0.624, 1
38856, -0.648, -0.273, 0.199, -0.102, 0.286, 0.519, 1
38876, -0.127, -0.187, -0.113, -0.144, 0.097, 0.502, 1
38896, -0.327, -0.274, -0.177, -0.157, -0.048, 0.362, 1
38916, -0.542, 0.057, -0.383, 0.029, -0.119, 0.146, 1
38936, -0.255, 0.115, -0.541, 0.101, -0.16, 0.254, 1
38956, -0.683, -0.049, -0.51, -0.024, 0.042, 0.524, 1
38976, -0.602, -0.24, -0.144, -0.193, 0.127, 0.538, 1
38996, -0.497, -0.18, -0.096, -0.197, -0.032, 0.424, 1
39016, -0.58, -0.048, -0.336, -0.065, -0.101, 0.294, 1
39036, -0.057, -0.054, -0.375, -0.019, -0.098, 0.389, 1
39056, -0.186, -0.165, 0.0, -0.083, -0.015, 0.451, 1
39076, -0.513, -0.228, 0.496, -0.247, 0.021, 0.422, 1
39096, -0.418, -0.048, -0.02, -0.261, -0.009, 0.309, 1
39116, -0.331, -0.062, -0.25, -0.105, -0.021, 0.179, 1
39136, -0.311, -0.061, -0.057, -0.074, 0.025, 0.128, 1
39156, -0.003, -0.128, 0.02, -0.126, 0.094, 0.139, 1
39176, 0.153, -0.124, -0.286, -0.115, 0.167, 0.097, 1
39196, 0.544, -0.159, -0.248, -0.102, 0.236, 0.089, 1
39216, 0.808, -0.277, -0.026, -0.147, 0.175, 0.102, 1
39236, 0.66, -0.351, -0.084, -0.222, 0.094, 0.11, 1
39256, 0.413, -0.2, -0.456, -0.215, 0.098, 0.047, 1
39276, 0.555, -0.112, -0.448, -0.208, 0.092, 0.039, 1
39296, 0.422, -0.014, -0.619, -0.206, -0.009, 0.077, 1
39316, 0.511, -0.184, -0.561, -0.095, 0.073, 0.053, 1
39336, 0.428, -0.194, -0.356, -0.093, 0.064, 0.086, 1
39356, 0.116, 0.004, -0.282, -0.081, 0.08, 0.059, 1
39376, 0.159, -0.176, -0.137, -0.106, 0.098, 0.063, 1
39396, 0.052, -0.058, -0.407, -0.167, 0.054, 0.062, 1
39416, 0.205, -0.022, -0.569, -0.054, 0.008, -0.026, 1
39436, 0.308, -0.159, -0.278, -0.025, 0.033, 0.064, 1
39456, 0.181, -0.222, -0.046, -0.043, 0.034, 0.103, 1
39476, -0.162, -0.17, 0.168, -0.116, -0.009, 0.094, 1
39496, -0.088, -0.049, 0.034, -0.2, 0.003, 0.095, 1
39516, -0.161, 0.182, -0.279, -0.149, -0.001, 0.025, 1
39536, 0.016, -0.199, 0.02, -0.094, 0.108, 0.068, 1
39556, 0.177, -0.365, 0.075, -0.216, 0.119, 0.12, 1
39576, 0.185, -0.169, -0.109, -0.29, 0.032, 0.075, 1
39596, -0.195, 0.096, -0.374, -0.229, 0.007, 0.084, 1
39616, -0.106, -0.011, -0.104, -0.092, 0.073, 0.105, 1
39636, -0.083, -0.077, -0.103, -0.078, 0.048, 0.089, 1
39656, -0.098, -0.076, -0.239, -0.056, 0.042, 0.053, 1
39676, 0.099, -0.135, -0.192, -0.056, 0.089, 0.054, 1
39696, 0.247, -0.061, -0.208, -0.098, 0.066, 0.103, 1
39716, 0.039, -0.026, -0.208, -0.185, 0.05, 0.189, 1
39736, -0.174, 0.063, -0.442, -0.175, 0.058, 0.27, 1
39756, -0.055, -0.02, -0.469, -0.061, -0.012, 0.156, 1
39776, -0.051, 0.073, -0.376, 0.074, -0.048, 0.181, 0
39796, -0.178, -0.227, 0.067, -0.075, 0.107, 0.226, 0
39816, -0.122, -0.418, 0.538, -0.368, 0.178, 0.255, 0
39836, -0.308, 0.158, -0.051, -0.266, 0.053, 0.186, 0
39856, -0.497, 0.401, -0.636, 0.122, -0.016, 0.032, 0
39876, -0.455, 0.063, -0.42, 0.206, 0.08, -0.005, 0
39896, -0.408, -0.339, 0.149, -0.098, 0.215, 0.044, 0
39916, -0.378, -0.083, -0.141, -0.204, 0.135, 0.058, 0
39936, -0.586, -0.051, -0.382, -0.134, 0.108, -0.013, 0
39956, -0.196, 0.051, -0.419, -0.02, 0.026, 0.027, 0
39976, -0.563, -0.336, -0.36, -0.008, 0.089, 0.059, 0
39996, -0.607, -0.516, -0.313, -0.078, 0.009, 0.098, 0
40016, -1.232, 0.079, -0.745, -0.082, -0.033, 0.151, 0
40036, -1.092, 0.186, -0.806, 0.036, -0.122, -0.043, 0
40056, -1.021, 0.349, -0.564, 0.094, -0.136, 0.006, 0
40076, -0.984, 0.007, 0.036, 0.07, 0.046, 0.074, 0
40096, -0.475, -0.432, 0.589, -0.149, 0.082, 0.098, 0
40116, -0.314, -0.797, 0.271, -0.417, 0.052, 0.034, 0
40136, -0.262, -0.055, -0.487, -0.254, 0.023, -0.249, 0
40156, -0.059, 0.063, -0.363, -0.06, 0.04, -0.328, 0
40176, 0.044, 0.017, 0.206, -0.026, 0.054, -0.324, 0
40196, 0.056, -0.419, 0.342, -0.12, 0.104, -0.386, 0
40216, 0.159, -0.354, 0.364, -0.257, 0.196, -0.383, 0
40236, 0.271, -0.161, 0.276, -0.329, 0.226, -0.459, 0
40256, 0.583, 0.112, -0.382, -0.119, 0.082, -0.561, 0
40276, 0.289, 0.128, -0.421, -0.005, 0.136, -0.605, 0
40296, 0.266, 0.059, 0.156, -0.053, 0.255, -0.474, 0
40316, 0.799, -0.277, 0.106, -0.226, 0.257, -0.516, 0
40336, 1.015, -0.611, -0.312, -0.393, 0.065, -0.555, 0
40356, 0.267, 0.406, -1.209, -0.419, -0.139, -0.626, 0
40376, 0.411, 0.882, -0.794, -0.129, 0.083, -0.591, 0
40396, 0.21, 0.06, -0.005, -0.03, 0.171, -0.477, 0
40416, 0.301, -0.546, 0.541, -0.163, 0.066, -0.574, 0
40436, 0.315, -0.693, 0.356, -0.382, 0.029, -0.589, 0
40456, 0.393, -0.156, -0.468, -0.41, 0.199, -0.491, 0
40476, 0.826, 0.327, -1.089, -0.211, 0.274, -0.489, 0
40496, 0.727, 0.28, -0.99, -0.032, 0.131, -0.484, 0
40516, 0.982, -0.318, -0.13, 0.051, 0.051, -0.548, 0
40536, 0.219, -0.395, 0.102, -0.086, -0.045, -0.384, 0
40556, -0.168, 0.141, -0.15, -0.015, 0.166, -0.362, 0
40576, 0.954, -0.267, 0.13, 0.059, 0.349, -0.405, 0
40596, 1.132, -0.042, -0.028, -0.113, 0.002, -0.447, 0
40616, 0.395, -0.034, -0.357, -0.207, -0.092, -0.305, 0
40636, 0.261, -0.116, -0.268, -0.133, -0.019, -0.283, 0
40656, 0.3, -0.378, -0.094, -0.041, -0.042, -0.27, 0
40676, 0.522, -0.566, 0.185, -0.047, -0.128, -0.208, 0
40696, 0.071, -0.529, 0.248, -0.241, -0.131, -0.116, 0
40716, -0.075, 0.117, -0.025, -0.402, -0.062, -0.15, 0
40736, -0.084, 0.079, -0.272, -0.135, 0.16, -0.197, 0
40756, 0.586, -0.031, -0.216, -0.089, 0.255, -0.12, 0
40776, 0.719, -0.364, -0.306, -0.129, 0.219, -0.002, 0
40796, 0.043, -0.064, -0.207, -0.091, 0.249, 0.026, 0
40816, -0.247, -0.087, -0.143, -0.02, 0.182, -0.079, 0
40836, 0.609, -0.411, -0.356, -0.036, -0.026, -0.05, 0
40856, 0.34, -0.301, -0.998, -0.054, 0.008, -0.045, 0
40876, 0.506, -0.224, -0.677, -0.106, 0.108, 0.02, 0
40896, 0.253, -0.316, -0.38, -0.144, -0.032, 0.034, 0
40916, -0.453, -0.19, -0.326, -0.114, 0.062, -0.029, 0
40936, -0.612, 0.104, -0.336, -0.036, 0.183, -0.224, 0
40956, 0.103, 0.356, -0.162, 0.012, 0.184, -0.103, 0
40976, 0.219, -0.293, -0.081, -0.005, 0.166, -0.034, 0
40996, 0.063, -0.281, -0.3, -0.005, 0.123, -0.013, 0
41016, -0.053, -0.186, -0.421, -0.019, 0.139, -0.03, 0
41036, -0.031, -0.168, -0.199, -0.052, 0.1, -0.042, 0
41056, -0.015, 0.003, -0.072, -0.032, 0.062, -0.009, 0
41076, -0.103, -0.236, 0.081, -0.018, 0.12, 0.005, 0
41096, 0.108, -0.377, 0.328, -0.119, 0.065, 0.006, 0
41116, -0.152, -0.17, 0.079, -0.104, 0.028, 0.073, 0
41136, -0.403, -0.092, -0.005, -0.075, 0.105, 0.033, 0
41156, 0.162, -0.124, -0.066, -0.125, -0.001, 0.07, 0
41176, -0.166, -0.066, -0.18, -0.129, 0.004, 0.139, 0
41196, -0.775, 0.079, -0.111, -0.111, 0.139, 0.106, 0
41216, -0.835, -0.161, 0.121, -0.28, 0.196, 0.042, 0
41236, -0.737, 0.664, -0.66, -0.135, 0.148, 0.072, 1
41256, -0.634, 0.768, -0.681, 0.16, 0.102, 0.07, 1
41276, -0.349, -0.006, -0.421, 0.414, -0.001, 0.064, 1
41296, 0.006, -0.803, 0.217, 0.24, 0.064, 0.108, 1
41316, -0.059, -0.221, -0.15, -0.098, 0.061, 0.145, 1
41336, -0.38, 0.376, -0.585, -0.1, -0.065, 0.077, 1
41356, -0.107, 0.324, -0.509, 0.124, -0.06, 0.047, 1
41376, 0.032, 0.002, -0.256, 0.183, -0.019, 0.072, 1
41396, 0.174, -0.185, -0.055, 0.044, -0.064, 0.058, 1
41416, 0.201, 0.064, -0.179, -0.124, -0.092, 0.056, 1
41436, 0.148, 0.187, -0.433, -0.111, -0.056, 0.094, 1
41456, 0.146, 0.171, -0.451, -0.006, -0.015, 0.115, 1
41476, 0.233, 0.12, -0.29, 0.023, 0.035, 0.089, 1
41496, 0.467, -0.263, -0.115, -0.052, 0.01, 0.061, 1
41516, 0.617, -0.345, -0.119, -0.208, -0.074, 0.058, 1
41536, 0.242, -0.282, -0.363, -0.211, -0.131, 0.194, 1
41556, 0.096, -0.052, -0.323, -0.136, -0.128, 0.205, 1
41576, -0.121, -0.25, -0.254, -0.042, -0.158, 0.208, 1
41596, -0.236, -0.32, -0.078, -0.02, -0.136, 0.188, 1
41616, 0.051, 0.014, -0.105, -0.136, -0.075, 0.164, 1
41636, -0.089, 0.053, -0.353, -0.206, -0.082, 0.24, 1
41656, -0.145, -0.214, -0.337, -0.166, -0.098, 0.221, 1
41676, -0.304, -0.195, -0.41, -0.069, -0.134, 0.211, 1
41696, -0.182, -0.249, -0.217, -0.063, -0.123, -0.004, 1
41716, 0.285, -0.035, 0.004, -0.174, -0.199, 0.289, 1
41736, -0.284, 0.169, -0.447, -0.02, -0.125, 0.426, 1
41756, -0.061, 0.138, -0.349, 0.137, -0.036, 0.427, 1
41776, -0.049, -0.284, 0.08, 0.069, -0.073, 0.378, 1
41796, -0.267, -0.429, 0.389, -0.056, -0.124, 0.208, 1
41816, 0.01, 0.067, 0.235, -0.073, -0.119, 0.274, 1
41836, 0.149, -0.101, -0.055, -0.028, -0.089, 0.399, 1
41856, -0.027, -0.579, 0.077, -0.035, -0.06, 0.448, 1
41876, -0.127, -0.462, 0.179, -0.137, 0.03, 0.427, 1
41896, -0.475, 0.048, 0.186, -0.122, 0.092, 0.259, 1
41916, -0.447, 0.411, 0.359, -0.019, 0.054, 0.378, 1
41936, -0.713, -0.152, 0.545, -0.032, 0.123, 0.309, 1
41956, -0.61, -0.547, 0.704, -0.165, 0.266, 0.208, 1
41976, -0.267, -0.576, 0.519, -0.257, 0.263, 0.035, 1
41996, -0.163, -0.131, 0.047, -0.265, 0.193, -0.232, 1
42016, 0.373, 0.275, -0.176, -0.223, 0.038, 0.163, 1
42036, -0.266, -0.261, -0.369, -0.122, 0.045, 0.398, 1
42056, -0.429, -0.423, -0.14, -0.055, 0.021, 0.387, 1
42076, -0.616, -0.215, -0.09, -0.019, -0.088, 0.211, 1
42096, -0.643, -0.188, -0.002, 0.026, -0.174, -0.047, 1
42116, 0.266, 0.422, -0.339, 0.062, -0.189, 0.436, 1
42136, -0.263, -0.072, -0.463, 0.143, 0.082, 0.602, 1
42156, -0.632, -0.511, 0.04, -0.037, 0.289, 0.555, 1
42176, -0.386, -0.327, 0.069, -0.202, 0.142, 0.211, 1
42196, -0.312, 0.0, -0.454, -0.119, -0.018, 0.393, 1
42216, -0.245, -0.378, -0.333, -0.06, 0.137, 0.678, 1
42236, -0.446, -0.057, -0.462, -0.102, 0.224, 0.656, 1
42256, -0.22, 0.159, -0.545, 0.001, 0.127, 0.387, 1
42276, -0.172, -0.174, -0.583, 0.055, -0.18, 0.248, 1
42296, -0.434, -0.144, -0.627, -0.021, -0.222, 0.365, 1
42316, -0.24, -0.188, -0.413, -0.099, -0.034, 0.519, 1
42336, -0.271, -0.143, -0.408, -0.127, -0.034, 0.504, 1
42356, -0.31, -0.053, -0.388, -0.114, -0.191, 0.414, 1
42376, -0.015, 0.042, -0.399, -0.086, -0.236, 0.456, 1
42396, -0.154, 0.357, -0.41, -0.061, -0.155, 0.599, 1
42416, -0.141, -0.014, -0.155, -0.086, -0.019, 0.792, 1
42436, -0.243, -0.18, -0.005, -0.197, -0.009, 0.779, 1
42456, -0.674, 0.02, -0.105, -0.089, -0.052, 0.535, 1
42476, -0.06, -0.083, 0.11, 0.09, -0.032, 0.265, 1
42496, 0.024, -0.114, 0.18, 0.055, -0.125, 0.31, 1
42516, -0.214, -0.23, 0.261, -0.108, -0.053, 0.483, 1
42536, -0.295, -0.087, 0.033, -0.197, 0.017, 0.451, 1
42556, -0.077, -0.097, -0.111, -0.146, -0.088, 0.299, 1
42576, -0.173, 0.089, -0.583, -0.067, -0.255, 0.198, 1
42596, -0.097, 0.058, -0.728, -0.023, -0.144, 0.29, 1
42616, 0.004, -0.071, -0.471, -0.045, 0.031, 0.489, 1
42636, -0.147, -0.21, -0.1, -0.194, 0.075, 0.571, 1
42656, -0.315, -0.195, -0.306, -0.254, 0.04, 0.521, 1
42676, -0.176, -0.14, -0.392, -0.277, 0.011, 0.375, 1
42696, -0.12, -0.046, -0.3, -0.276, 0.0, 0.379, 1
42716, -0.16, -0.062, -0.168, -0.248, 0.039, 0.323, 1
42736, -0.06, -0.176, -0.175, -0.29, 0.077, 0.194, 1
42756, 0.297, -0.041, -0.39, -0.181, 0.051, 0.074, 1
42776, 0.579, -0.05, -0.379, -0.077, -0.026, 0.059, 1
42796, 0.427, -0.092, -0.192, -0.066, -0.005, 0.098, 1
42816, 0.255, -0.189, 0.024, -0.155, 0.045, 0.098, 1
42836, 0.4, -0.219, -0.163, -0.203, 0.01, 0.036, 1
42856, 0.372, -0.004, -0.431, -0.159, 0.007, 0.045, 1
42876, 0.302, -0.004, -0.402, -0.032, 0.032, 0.029, 1
42896, 0.376, -0.21, -0.166, -0.033, -0.014, 0.018, 1
42916, 0.208, -0.323, -0.129, -0.17, 0.021, 0.045, 1
42936, 0.274, -0.103, -0.271, -0.22, 0.046, 0.053, 1
42956, 0.064, 0.049, -0.455, -0.134, 0.075, 0.082, 1
42976, 0.151, -0.103, -0.259, -0.06, 0.089, 0.095, 1
42996, 0.469, -0.393, -0.222, -0.113, 0.014, 0.07, 1
43016, 0.398, -0.15, -0.346, -0.146, -0.056, 0.054, 1
43036, 0.097, 0.022, -0.442, -0.079, -0.063, 0.11, 1
43056, -0.158, -0.126, -0.196, -0.097, 0.006, 0.193, 1
43076, -0.149, -0.13, -0.092, -0.183, -0.001, 0.044, 1
43096, -0.104, -0.064, -0.15, -0.253, -0.047, 0.024, 1
43116, -0.258, -0.003, -0.23, -0.243, 0.059, 0.101, 0
43136, -0.138, -0.008, -0.084, -0.209, 0.117, 0.129, 0
43156, -0.115, 0.014, -0.303, -0.083, 0.241, 0.095, 0
43176, -0.113, -0.22, -0.047, 0.083, 0.538, 0.071, 0
43196, 0.453, -0.224, -0.024, -0.009, 0.436, 0.149, 0
43216, -0.037, 0.052, -0.49, 0.022, 0.08, 0.155, 0
43236, -0.555, 0.06, -0.658, 0.125, 0.022, 0.136, 0
43256, -0.411, -0.036, -0.362, 0.15, 0.133, 0.099, 0
43276, -0.372, -0.136, -0.096, 0.034, 0.107, 0.069, 0
43296, -0.457, -0.067, -0.16, -0.057, 0.065, 0.082, 0
43316, -0.664, 0.017, -0.263, -0.05, 0.136, 0.158, 0
43336, -0.517, -0.058, -0.001, 0.022, 0.188, 0.065, 0
43356, -0.994, 0.05, -0.005, -0.016, 0.169, 0.101, 0
43376, -0.762, -0.119, 0.15, 0.029, 0.261, 0.029, 0
43396, -0.545, -0.059, 0.196, -0.013, 0.234, 0.082, 0
43416, -0.433, -0.202, 0.109, 0.004, 0.229, 0.057, 0
43436, -0.551, 0.049, 0.112, 0.022, 0.105, -0.052, 0
43456, -0.414, -0.148, 0.031, 0.003, 0.121, 0.017, 0
43476, -0.079, -0.367, 0.291, -0.097, 0.101, -0.062, 0
43496, -0.353, -0.171, 0.182, -0.298, 0.081, -0.004, 0
43516, -0.148, 0.022, -0.052, -0.227, 0.241, 0.028, 0
43536, 0.418, -0.441, -0.021, -0.139, 0.136, -0.086, 0
43556, 0.054, -0.037, -0.381, -0.171, -0.133, -0.255, 0
43576, -0.078, -0.052, -0.349, -0.171, -0.109, -0.219, 0
43596, 0.044, -0.065, -0.452, -0.201, -0.053, -0.288, 0
43616, -0.003, 0.182, -0.844, -0.153, -0.142, -0.335, 0
43636, -0.256, 0.511, -0.787, 0.098, -0.108, -0.394, 0
43656, 0.117, 0.179, -0.05, 0.054, 0.048, -0.384, 0
43676, 0.561, -0.51, 0.277, -0.221, -0.159, -0.395, 0
43696, 0.543, -0.255, -0.321, -0.34, -0.175, -0.378, 0
43716, 0.61, 0.039, -0.847, -0.16, -0.08, -0.451, 0
43736, 0.614, 0.586, -0.884, 0.127, -0.114, -0.309, 0
43756, -0.061, 0.084, -0.285, 0.263, -0.007, -0.267, 0
43776, 0.211, -0.701, 0.488, -0.073, 0.05, -0.343, 0
43796, 1.056, -0.323, 0.044, -0.398, -0.215, -0.295, 0
43816, 0.855, 0.246, -0.586, -0.253, -0.146, -0.105, 0
43836, -0.083, 0.149, -0.447, 0.036, 0.051, -0.189, 0
43856, 0.03, -0.062, -0.042, 0.028, 0.139, -0.408, 0
43876, 0.914, -0.103, -0.009, -0.132, -0.05, -0.452, 0
43896, 0.397, 0.095, -0.019, -0.163, 0.017, -0.438, 0
43916, 0.732, 0.361, -0.126, -0.054, 0.038, -0.42, 0
43936, 0.929, 0.203, -0.553, 0.115, -0.206, -0.355, 0
43956, -0.15, 0.07, -0.663, 0.238, 0.118, -0.415, 0
43976, 0.904, -0.822, 0.017, 0.05, 0.182, -0.448, 0
43996, 1.491, -0.662, 0.145, -0.259, -0.124, -0.335, 0
44016, 0.596, -0.65, -0.273, -0.383, 0.119, -0.352, 0
44036, 1.238, -0.326, -0.596, -0.276, 0.135, -0.394, 0
44056, 0.987, -0.299, -0.848, -0.161, 0.05, -0.354, 0
44076, 0.378, 0.141, -0.861, 0.099, 0.355, -0.351, 0
44096, 1.022, -0.626, -0.02, -0.018, 0.417, -0.372, 0
44116, 1.937, -0.616, 0.005, -0.259, 0.031, -0.211, 0
44136, 0.696, -0.101, -0.555, -0.145, 0.198, -0.133, 0
44156, 0.968, -0.215, -0.084, -0.017, 0.05, -0.224, 0
44176, 0.161, -0.111, -0.101, -0.084, -0.095, -0.218, 0
44196, 0.107, -0.58, 0.188, -0.067, 0.102, -0.182, 0
44216, 0.266, -0.465, 0.364, -0.216, 0.175, -0.224, 0
44236, 0.249, 0.292, -0.464, -0.272, 0.111, -0.254, 0
44256, 0.172, -0.18, -0.666, -0.015, 0.149, -0.168, 0
44276, 0.516, -0.193, -0.324, -0.013, 0.101, -0.135, 0
44296, 0.01, -0.001, -0.291, -0.08, -0.076, -0.067, 0
44316, -0.481, -0.046, -0.083, -0.062, 0.0, -0.029, 0
44336, -0.471, -0.11, -0.166, 0.02, 0.079, -0.05, 0
44356, -0.241, -0.574, 0.057, 0.07, 0.127, -0.091, 0
44376, 0.235, -0.694, 0.266, -0.069, 0.173, -0.079, 0
44396, -0.224, -0.21, -0.142, -0.18, 0.079, 0.012, 0
44416, -0.409, -0.053, -0.288, -0.106, 0.127, 0.011, 0
44436, -0.044, -0.107, -0.078, -0.083, 0.092, -0.014, 0
44456, -0.348, -0.143, -0.105, -0.076, 0.011, -0.01, 0
44476, -0.031, -0.256, 0.317, -0.185, 0.205, -0.004, 0
44496, 0.062, -0.268, 0.218, -0.243, 0.195, 0.074, 0
44516, -0.095, -0.156, -0.074, -0.228, 0.13, 0.099, 0
44536, -0.223, 0.079, -0.32, -0.083, 0.011, 0.043, 0
44556, -0.333, 0.006, -0.19, 0.011, 0.049, 0.021, 0
44576, -0.151, -0.066, -0.108, 0.008, 0.037, 0.043, 0
44596, -0.42, 0.076, -0.352, 0.02, 0.0, 0.103, 1
44616, -0.61, 0.278, -0.556, 0.249, 0.041, 0.091, 1
44636, -0.481, 0.121, -0.268, 0.285, 0.083, 0.043, 1
44656, -0.45, -0.553, 0.138, 0.044, 0.13, 0.092, 1
44676, -0.517, -0.67, -0.115, -0.167, 0.221, 0.109, 1
44696, -0.313, 0.089, -0.785, -0.122, 0.277, 0.096, 1
44716, 0.072, 0.1, -0.796, 0.003, 0.119, 0.084, 1
44736, -0.02, -0.087, -0.272, -0.031, -0.039, 0.078, 1
44756, -0.41, -0.07, 0.03, -0.107, 0.021, 0.049, 1
44776, -0.187, -0.09, 0.292, -0.18, 0.072, 0.045, 1
44796, -0.097, -0.096, 0.33, -0.2, 0.052, -0.008, 1
44816, 0.0, -0.073, 0.222, -0.178, 0.013, 0.02, 1
44836, -0.105, -0.006, -0.065, -0.11, 0.071, 0.03, 1
44856, 0.002, -0.053, -0.062, -0.119, 0.047, 0.014, 1
44876, 0.012, 0.022, -0.205, -0.157, 0.038, 0.014, 1
44896, -0.026, -0.04, -0.34, -0.13, 0.118, 0.016, 1
44916, 0.112, -0.069, -0.436, -0.124, 0.08, 0.02, 1
44936, 0.116, 0.068, -0.605, -0.047, 0.034, 0.017, 1
44956, 0.17, -0.004, -0.594, -0.014, 0.017, 0.021, 1
44976, 0.161, -0.086, -0.514, -0.034, 0.039, 0.045, 1
44996, 0.145, -0.153, -0.404, -0.075, 0.031, 0.065, 1
45016, 0.167, 0.061, -0.399, -0.084, -0.014, 0.044, 1
45036, 0.072, 0.044, -0.384, -0.071, -0.035, 0.006, 1
45056, 0.26, 0.143, -0.37, -0.099, -0.051, 0.045, 1
45076, 0.12, 0.217, -0.564, -0.076, -0.05, 0.029, 1
45096, 0.015, 0.409, -0.689, -0.02, -0.025, -0.11, 1
45116, 0.951, 1.052, -1.236, -0.066, -0.255, -0.342, 1
45136, -0.096, 0.528, -1.742, -0.139, -0.469, -0.182, 1
45156, -0.236, 0.259, -1.506, 0.019, -0.306, -0.137, 1
45176, 0.011, -0.332, -0.464, 0.152, -0.217, -0.123, 1
45196, 0.102, -0.873, 0.397, 0.048, -0.265, -0.255, 1
45216, 0.831, -0.745, 0.586, -0.152, -0.235, -0.357, 1
45236, 0.656, -0.786, 0.635, -0.25, -0.065, -0.205, 1
45256, 0.672, -0.444, 0.664, -0.183, 0.12, -0.08, 1
45276, 0.51, -0.559, 0.823, 0.01, 0.234, -0.087, 1
45296, 1.388, -0.978, 1.177, 0.015, 0.257, -0.221, 1
45316, 1.381, -0.674, 0.949, -0.1, 0.015, 0.015, 1
45336, 0.573, -0.932, 0.538, -0.054, 0.113, 0.318, 1
45356, 0.695, -1.147, 0.645, 0.0, 0.265, 0.521, 1
45376, 0.541, -0.846, 0.446, -0.073, 0.204, 0.605, 1
45396, 0.568, -0.427, 0.384, -0.075, 0.003, 0.491, 1
45416, -0.251, -0.808, 0.567, -0.105, -0.135, 0.439, 1
45436, 0.048, -0.67, 0.36, -0.286, 0.081, 0.626, 1
45456, -0.235, -0.721, -0.357, -0.37, 0.263, 0.971, 1
45476, -0.256, -0.05, -0.67, -0.302, 0.182, 0.903, 1
45496, -1.126, 0.829, -0.952, -0.146, -0.121, 0.698, 1
45516, -1.11, 0.908, -0.673, 0.072, -0.169, 0.235, 1
45536, -0.447, 0.668, -0.338, 0.064, -0.166, 0.486, 1
45556, -0.493, -0.283, -0.313, -0.091, -0.028, 0.848, 1
45576, -0.422, -0.206, -0.631, -0.023, -0.16, 0.744, 1
45596, -0.949, 0.019, -0.665, 0.117, -0.246, 0.49, 1
45616, -1.109, -0.297, -0.23, 0.022, -0.115, 0.279, 1
45636, -0.365, -0.031, -0.093, -0.161, -0.043, 0.82, 1
45656, -0.926, -0.051, -0.281, -0.124, 0.067, 0.668, 1
45676, -1.201, 0.583, -0.389, 0.148, 0.0, 0.282, 1
45696, -0.389, 0.826, -0.428, 0.439, -0.251, 0.328, 1
45716, -1.182, -0.48, -0.082, 0.184, 0.07, 0.7, 1
45736, -0.359, -0.455, -0.176, 0.105, 0.193, 0.575, 1
45756, -0.136, 0.152, -0.502, 0.144, -0.069, 0.602, 1
45776, -2.059, 0.434, -0.601, 0.167, 0.069, 0.349, 1
45796, -1.803, 0.435, -0.151, 0.057, 0.322, 0.213, 1
45816, -1.046, 0.002, 0.179, -0.126, 0.222, 0.451, 1
45836, -0.951, 0.128, 0.087, -0.158, 0.177, 0.628, 1
45856, -0.929, -0.527, 0.253, -0.202, 0.204, 0.697, 1
45876, -0.671, -0.561, 0.476, -0.237, 0.079, 0.514, 1
45896, -1.083, -0.86, 0.727, -0.383, 0.114, 0.345, 1
45916, -0.917, 0.024, 0.386, -0.452, 0.169, 0.436, 1
45936, -1.296, 0.275, -0.318, -0.328, 0.211, 0.78, 1
45956, -1.472, -0.151, -0.216, -0.271, 0.145, 0.59, 1
45976, -1.224, -0.368, -0.057, -0.183, -0.112, 0.386, 1
45996, -1.419, -0.381, -0.234, -0.234, -0.15, 0.327, 1
46016, -1.25, 0.165, -0.658, -0.21, -0.022, 0.573, 1
46036, -1.277, 0.079, -0.529, -0.069, -0.015, 0.5, 1
46056, -0.927, -0.038, -0.297, 0.005, -0.272, 0.299, 1
46076, -0.859, -0.375, -0.053, -0.178, -0.106, 0.271, 1
46096, -0.67, -0.227, -0.233, -0.27, -0.059, 0.302, 1
46116, -0.583, -0.099, -0.374, -0.147, -0.071, 0.145, 1
46136, 0.036, 0.009, -0.378, 0.079, -0.188, -0.106, 1
46156, -0.076, -0.296, -0.06, 0.065, -0.079, -0.001, 1
46176, 0.17, -0.44, 0.145, -0.135, 0.091, 0.025, 1
46196, 0.325, -0.338, -0.227, -0.266, 0.104, 0.043, 1
46216, 0.595, -0.195, -0.434, -0.181, 0.055, -0.008, 1
46236, 0.592, -0.441, -0.12, -0.122, 0.04, 0.043, 1
46256, 0.64, -0.412, -0.161, -0.229, 0.104, 0.119, 1
46276, 0.545, -0.162, -0.499, -0.3, 0.094, 0.166, 1
46296, -0.297, 0.276, -0.894, -0.198, 0.087, 0.058, 1
46316, 0.571, 0.029, -0.483, 0.014, 0.092, -0.141, 1
46336, 0.688, -0.337, -0.33, -0.054, -0.095, -0.034, 1
46356, 0.281, -0.401, -0.256, -0.138, -0.104, 0.05, 1
46376, 0.223, -0.416, -0.015, -0.197, -0.013, 0.09, 1
46396, 0.222, -0.263, -0.257, -0.195, -0.061, 0.069, 1
46416, 0.122, -0.104, -0.321, -0.146, -0.077, 0.059, 1
46436, 0.011, -0.101, 0.1, -0.199, -0.048, 0.1, 1
46456, -0.147, -0.085, 0.14, -0.289, 0.015, 0.157, 1
46476, -0.247, 0.088, -0.353, -0.268, 0.043, 0.113, 1
46496, 0.099, -0.05, -0.474, -0.08, 0.026, 0.007, 1
46516, 0.105, -0.112, -0.484, 0.02, 0.018, 0.062, 1
46536, -0.073, -0.268, -0.144, -0.007, 0.062, 0.163, 1
46556, -0.084, -0.245, -0.112, -0.188, 0.088, 0.126, 1
46576, -0.076, -0.023, -0.402, -0.176, -0.017, 0.016, 0
46596, -0.066, 0.143, -0.472, -0.097, -0.114, 0.002, 0
46616, -0.256, -0.043, -0.087, -0.13, -0.007, 0.12, 0
46636, -0.666, 0.342, -0.425, 0.145, 0.139, 0.111, 0
46656, -0.934, 0.034, -0.282, 0.309, 0.362, 0.07, 0
46676, -0.152, -0.547, 0.336, 0.006, 0.342, 0.1, 0
46696, -0.378, -0.159, -0.027, -0.157, 0.3, 0.205, 0
46716, -0.753, -0.332, -0.055, -0.192, 0.469, 0.108, 0
46736, -0.187, 0.004, -0.128, -0.095, 0.238, -0.069, 0
46756, -0.238, 0.14, -0.421, -0.007, 0.045, 0.01, 0
46776, -1.221, 0.22, -0.665, 0.106, 0.406, -0.002, 0
46796, -0.458, -0.065, -0.18, 0.001, 0.542, 0.058, 0
46816, 0.038, -0.213, -0.074, -0.138, 0.175, -0.002, 0
46836, -0.284, 0.042, -0.561, -0.003, -0.015, -0.045, 0
46856, -0.492, -0.118, -0.249, 0.054, 0.086, -0.001, 0
46876, -0.047, -0.193, -0.117, -0.043, 0.027, 0.029, 0
46896, -0.083, 0.035, -0.722, 0.02, 0.056, 0.062, 0
46916, 0.32, -0.335, -0.469, 0.069, -0.12, -0.021, 0
46936, 0.145, 0.076, -0.118, 0.043, -0.307, 0.075, 0
46956, -0.49, -0.002, -0.049, 0.139, -0.224, 0.158, 0
46976, -1.145, -0.269, 0.305, 0.006, -0.025, -0.008, 0
46996, -0.062, -0.283, 0.106, -0.195, -0.083, -0.148, 0
47016, 0.058, -0.049, -0.587, -0.147, -0.18, -0.223, 0
47036, -0.019, 0.015, -0.62, 0.016, -0.025, -0.314, 0
47056, -0.132, 0.086, 0.146, 0.062, 0.028, -0.343, 0
47076, 0.141, 0.273, -0.046, 0.055, 0.058, -0.249, 0
47096, 0.31, -0.471, 0.121, -0.016, 0.166, -0.011, 0
47116, 0.166, -0.355, 0.197, -0.162, 0.111, -0.117, 0
47136, -0.237, -0.032, 0.171, -0.229, 0.202, -0.162, 0
47156, 0.218, 0.226, -0.192, -0.167, 0.389, -0.273, 0
47176, 0.824, -0.002, -0.536, -0.06, 0.239, -0.327, 0
47196, 0.659, -0.236, -0.265, -0.012, 0.0, -0.457, 0
47216, 0.38, -0.034, -0.006, -0.077, -0.083, -0.513, 0
47236, 0.532, -0.1, 0.085, -0.122, 0.019, -0.488, 0
47256, 0.565, -0.475, -0.017, -0.208, 0.229, -0.315, 0
47276, 1.226, -0.545, -0.033, -0.268, 0.235, -0.389, 0
47296, 1.095, 0.167, -0.409, -0.26, -0.145, -0.474, 0
47316, -0.467, 0.586, -0.974, -0.023, -0.047, -0.362, 0
47336, 1.028, -0.17, -0.113, 0.156, 0.466, -0.417, 0
47356, 1.633, -0.988, 0.026, -0.122, 0.241, -0.238, 0
47376, 1.043, -0.224, -0.262, -0.371, -0.166, -0.312, 0
47396, 0.05, 0.314, -0.567, -0.26, -0.22, -0.345, 0
47416, 0.287, 0.484, -0.593, -0.047, -0.078, -0.402, 0
47436, -0.072, 0.164, -0.441, 0.086, 0.094, -0.317, 0
47456, 0.717, -0.354, 0.179, -0.005, 0.246, -0.368, 0
47476, 0.769, -0.448, 0.04, -0.263, -0.034, -0.392, 0
47496, 0.057, 0.04, -0.743, -0.27, -0.141, -0.428, 0
47516, 0.534, -0.074, -0.614, 0.017, 0.124, -0.337, 0
47536, 0.823, -0.686, -0.132, -0.114, 0.052, -0.361, 0
47556, 1.264, -0.827, -0.163, -0.28, -0.254, -0.271, 0
47576, 0.285, -0.239, -0.494, -0.139, -0.198, -0.191, 0
47596, 0.036, 0.005, -0.206, 0.039, -0.028, -0.126, 0
47616, -0.081, -0.127, 0.056, 0.107, 0.067, -0.113, 0
47636, -0.279, -0.294, 0.131, 0.058, 0.182, -0.255, 0
47656, 0.069, -0.528, 0.29, -0.114, 0.209, -0.314, 0
47676, 0.468, -0.406, -0.054, -0.263, 0.013, -0.196, 0
47696, -0.376, -0.06, -0.603, -0.113, 0.15, -0.161, 0
47716, 0.226, -0.516, -0.248, -0.128, 0.122, -0.183, 0
47736, 0.1, -0.304, -0.57, -0.181, 0.015, -0.198, 0
47756, 0.018, 0.06, -0.674, -0.087, 0.091, -0.127, 0
47776, 0.014, -0.335, -0.15, -0.102, 0.052, -0.054, 0
47796, -0.264, -0.057, -0.285, -0.062, -0.001, -0.091, 0
47816, -0.268, -0.237, -0.163, -0.07, 0.071, -0.175, 0
47836, 0.071, 0.011, -0.099, -0.074, 0.015, -0.145, 0
47856, -0.24, 0.153, -0.159, 0.028, 0.127, -0.097, 0
47876, 0.039, -0.459, 0.382, -0.105, 0.114, -0.109, 0
47896, 0.139, -0.183, 0.235, -0.191, -0.064, -0.143, 0
47916, -0.453, 0.017, -0.146, -0.098, 0.07, -0.083, 0
47936, -0.24, -0.115, 0.003, -0.004, 0.148, -0.042, 0
47956, -0.005, -0.456, 0.154, -0.077, 0.006, -0.061, 0
47976, -0.116, -0.341, -0.038, -0.172, 0.01, -0.068, 0
47996, -0.114, -0.001, -0.226, -0.158, 0.078, -0.064, 0
48016, 0.245, -0.184, -0.344, -0.117, 0.011, -0.055, 0
48036, 0.0, -0.254, -0.252, -0.084, 0.015, -0.025, 0
48056, -0.125, -0.177, -0.092, -0.097, 0.017, -0.02, 0
48076, -0.169, 0.103, -0.271, -0.113, 0.034, 0.024, 0
48096, -0.091, 0.148, -0.44, 0.074, 0.113, 0.047, 0
48116, -0.036, -0.092, -0.111, 0.179, 0.079, 0.02, 1
48136, -0.223, -0.338, 0.265, 0.062, 0.102, -0.012, 1
48156, -0.209, -0.25, 0.227, -0.153, 0.211, 0.006, 1
48176, -0.162, -0.086, 0.03, -0.231, 0.238, 0.01, 1
48196, 0.0, 0.058, -0.121, -0.176, 0.135, -0.034, 1
48216, 0.003, -0.031, -0.395, -0.094, 0.003, 0.021, 1
48236, -0.099, 0.02, -0.59, -0.003, -0.031, 0.07, 1
48256, -0.12, -0.149, -0.224, -0.052, -0.01, 0.081, 1
48276, -0.262, 0.018, -0.177, -0.101, -0.045, 0.084, 1
48296, -0.219, -0.028, -0.177, -0.035, -0.046, 0.061, 1
48316, 0.09, -0.137, -0.086, -0.057, -0.027, 0.031, 1
48336, 0.039, -0.113, -0.241, -0.055, -0.044, 0.058, 1
48356, 0.007, -0.13, -0.21, -0.086, 0.018, 0.093, 1
48376, -0.118, 0.216, -0.498, -0.083, 0.012, 0.088, 1
48396, -0.12, 0.015, -0.303, -0.004, 0.006, 0.078, 1
48416, -0.144, 0.015, -0.304, -0.023, 0.032, 0.064, 1
48436, 0.082, -0.24, -0.036, -0.095, 0.123, 0.052, 1
48456, 0.135, -0.07, -0.115, -0.207, 0.075, 0.079, 1
48476, -0.116, 0.107, -0.383, -0.077, 0.037, 0.084, 1
48496, -0.019, 0.02, -0.14, -0.022, 0.0, 0.036, 1
48516, 0.121, -0.247, 0.087, -0.105, -0.043, 0.036, 1
48536, 0.015, -0.063, -0.087, -0.112, 0.02, 0.092, 1
48556, -0.036, -0.012, -0.166, -0.092, 0.069, 0.078, 1
48576, 0.069, 0.035, -0.119, -0.072, -0.022, 0.047, 1
48596, 0.005, -0.099, -0.087, -0.064, -0.06, 0.045, 1
48616, -0.083, -0.036, -0.128, -0.109, -0.021, 0.037, 1
48636, -0.073, 0.111, -0.377, -0.107, 0.084, 0.065, 1
48656, 0.128, 0.038, -0.447, -0.094, 0.062, 0.047, 1
48676, 0.024, 0.001, -0.437, -0.07, -0.046, 0.015, 1
48696, 0.009, -0.102, -0.355, -0.072, -0.07, 0.002, 1
48716, 0.043, -0.149, -0.334, -0.13, -0.059, 0.034, 1
48736, 0.01, 0.019, -0.504, -0.161, -0.061, 0.029, 1
48756, -0.106, 0.19, -0.774, -0.064, -0.084, 0.0, 1
48776, 0.051, 0.19, -0.798, -0.001, -0.106, -0.01, 1
48796, 0.218, 0.038, -0.63, 0.048, -0.172, -0.02, 1
48816, 0.124, -0.099, -0.41, 0.008, -0.182, -0.013, 1
48836, 0.041, -0.113, -0.142, -0.048, -0.061, -0.023, 1
48856, 0.191, -0.145, -0.023, -0.125, -0.025, -0.072, 1
48876, 0.329, -0.15, -0.004, -0.203, -0.064, -0.093, 1
48896, 0.528, 0.054, -0.203, -0.149, -0.053, -0.047, 1
48916, 0.584, 0.011, -0.273, -0.018, -0.033, 0.015, 1
48936, 0.415, -0.339, -0.086, -0.082, 0.044, 0.04, 1
48956, 0.48, -0.601, 0.089, -0.235, 0.004, 0.023, 1
48976, 0.093, -0.26, -0.175, -0.212, 0.069, 0.024, 1
48996, -0.146, -0.038, -0.065, 0.003, 0.194, 0.07, 1
49016, 1.258, -0.82, -0.215, -0.098, 0.147, 0.095, 1
49036, 1.18, -0.53, -0.591, -0.295, -0.125, 0.227, 1
49056, 0.526, 0.319, -0.704, -0.239, -0.251, 0.235, 1
49076, -0.002, 0.63, -0.274, 0.02, -0.318, 0.266, 1
49096, -0.865, 0.168, 0.34, 0.335, -0.132, 0.336, 1
49116, -0.361, -0.468, 1.014, 0.355, 0.216, 0.357, 1
49136, 0.077, -0.612, 0.681, 0.025, 0.346, 0.309, 1
49156, 0.519, -0.148, 0.047, -0.173, 0.2, 0.166, 1
49176, 0.026, 0.167, -0.358, -0.125, -0.01, 0.266, 1
49196, -0.067, 0.139, -0.283, -0.037, 0.075, 0.401, 1
49216, 0.025, -0.408, 0.101, -0.054, 0.101, 0.472, 1
49236, 0.054, -0.714, 0.103, -0.184, -0.091, 0.447, 1
49256, -0.431, -0.286, 0.079, -0.26, -0.242, 0.406, 1
49276, -0.284, 0.074, 0.146, -0.272, -0.073, 0.546, 1
49296, -0.343, -0.091, 0.059, -0.186, 0.087, 0.7, 1
49316, -0.059, -0.527, 0.199, -0.083, 0.05, 0.639, 1
49336, -0.182, -0.61, 0.232, -0.12, -0.082, 0.654, 1
49356, -0.345, -0.325, 0.087, -0.208, -0.045, 0.695, 1
49376, -0.664, 0.298, -0.375, -0.162, 0.053, 0.756, 1
49396, -0.601, 0.349, -0.239, -0.001, 0.042, 0.625, 1
49416, -0.525, -0.071, 0.202, -0.036, -0.069, 0.445, 1
49436, -0.456, -0.033, 0.346, -0.228, -0.081, 0.398, 1
49456, -0.595, 0.381, -0.217, -0.104, -0.004, 0.772, 1
49476, -0.578, 0.215, -0.444, 0.128, 0.055, 0.582, 1
49496, -0.221, -0.154, 0.076, -0.031, -0.028, 0.53, 1
49516, -0.728, -0.118, 0.061, -0.242, -0.042, 0.346, 1
49536, -0.53, 0.095, -0.289, -0.209, -0.04, 0.241, 1
49556, -0.314, 0.445, -0.6, -0.014, -0.056, 0.481, 1
49576, -0.275, 0.0, -0.397, 0.095, -0.065, 0.62, 1
49596, -0.395, -0.358, -0.17, 0.081, -0.048, 0.596, 1
49616, -0.57, -0.635, 0.105, 0.021, 0.023, 0.489, 1
49636, -0.739, -0.781, 0.536, -0.097, 0.08, 0.352, 1
49656, -0.616, -0.497, 0.408, -0.152, 0.164, 0.481, 1
49676, -0.647, -0.567, 0.046, -0.131, 0.27, 0.634, 1
49696, -0.346, -0.594, -0.127, -0.156, 0.218, 0.532, 1
49716, -0.184, -0.376, -0.087, -0.162, 0.058, 0.5, 1
49736, -0.349, -0.391, -0.042, -0.229, -0.001, 0.426, 1
49756, -0.899, 0.007, -0.099, -0.307, 0.084, 0.317, 1
49776, -1.187, 0.425, -0.274, -0.24, 0.208, 0.318, 1
49796, -0.972, 0.653, -0.329, -0.131, 0.27, 0.717, 1
49816, -1.09, 0.002, -0.117, -0.226, 0.381, 0.85, 1
49836, -0.977, -0.198, -0.271, -0.334, 0.266, 0.63, 1
49856, -0.428, 0.097, -0.872, -0.215, -0.006, 0.466, 1
49876, -0.967, 0.265, -1.075, -0.015, 0.093, 0.425, 1
49896, -1.018, 0.308, -0.473, -0.058, 0.235, 0.566, 1
49916, -0.856, -0.028, -0.386, -0.18, 0.023, 0.433, 1
49936, -0.716, -0.008, -0.864, -0.153, -0.249, 0.26, 1
49956, -0.52, -0.01, -0.51, 0.056, -0.072, 0.141, 1
49976, -0.134, -0.614, -0.074, 0.047, -0.095, 0.13, 1
49996, 0.176, -0.613, -0.216, -0.145, -0.069, 0.139, 1
50016, 0.448, -0.26, -0.267, -0.202, 0.005, 0.142, 1
50036, 0.267, 0.1, -0.235, -0.12, -0.043, 0.069, 1
50056, 0.086, -0.045, -0.363, -0.004, -0.029, 0.074, 1
50076, 0.212, -0.258, -0.135, 0.036, 0.056, 0.046, 1
50096, 0.38, -0.304, 0.238, -0.102, 0.127, 0.009, 1
50116, 0.77, -0.185, 0.067, -0.165, 0.033, -0.033, 1
50136, 0.611, -0.285, -0.269, -0.125, -0.046, -0.003, 1
50156, 0.683, -0.313, -0.243, -0.101, 0.019, 0.02, 1
50176, 0.649, -0.136, -0.305, -0.077, 0.04, 0.018, 1
50196, 0.398, -0.103, -0.183, -0.075, -0.001, 0.048, 1
50216, 0.048, -0.058, -0.228, -0.107, 0.02, 0.145, 1
50236, 0.231, -0.24, -0.046, -0.158, 0.113, 0.147, 1
50256, -0.02, -0.081, -0.191, -0.175, 0.006, 0.113, 1
50276, -0.002, -0.027, -0.132, -0.078, -0.071, 0.007, 1
50296, 0.041, -0.327, 0.175, -0.154, -0.058, -0.004, 1
50316, -0.182, -0.014, -0.244, -0.255, 0.056, 0.092, 1
50336, -0.071, -0.126, 0.021, -0.34, 0.281, 0.185, 0
50356, -0.122, -0.009, -0.428, -0.356, 0.32, 0.2, 0
50376, 0.067, 0.119, -0.57, -0.112, 0.052, -0.006, 0
50396, -0.246, -0.003, -0.447, -0.117, 0.021, 0.091, 0
50416, -0.076, 0.147, -0.637, 0.058, 0.197, 0.286, 0
50436, -0.085, -0.074, -0.673, 0.274, 0.083, 0.21, 0
50456, -0.359, -0.464, -0.136, 0.091, 0.1, 0.199, 0
50476, -0.635, -0.18, -0.226, -0.015, 0.069, 0.17, 0
50496, -0.998, 0.139, -0.289, -0.013, 0.087, 0.117, 0
50516, -0.755, -0.024, -0.048, -0.04, 0.048, 0.083, 0
50536, -0.75, 0.268, -0.366, 0.117, 0.092, 0.123, 0
50556, -0.644, -0.139, -0.048, 0.16, 0.289, 0.084, 0
50576, -0.315, -0.224, 0.191, 0.113, 0.224, 0.001, 0
50596, -0.167, -0.207, 0.134, 0.034, 0.042, -0.077, 0
50616, -0.162, -0.082, 0.005, 0.01, 0.049, 0.038, 0
50636, -0.219, -0.226, -0.129, 0.006, 0.163, 0.067, 0
50656, 0.122, -0.357, 0.083, -0.119, 0.107, 0.067, 0
50676, -0.294, 0.095, -0.169, -0.056, -0.007, -0.028, 0
50696, -0.633, -0.067, -0.106, -0.028, 0.078, -0.047, 0
50716, -0.246, -0.403, 0.118, -0.25, 0.105, -0.105, 0
50736, 0.073, 0.108, -0.512, -0.266, -0.032, 0.009, 0
50756, -0.177, 0.035, -0.795, -0.057, -0.056, -0.159, 0
50776, -0.278, -0.082, -0.274, -0.02, -0.15, -0.312, 0
50796, -0.216, 0.01, -0.023, -0.147, -0.112, -0.324, 0
50816, -0.004, -0.005, -0.276, -0.215, 0.049, -0.254, 0
50836, 0.074, -0.059, -0.471, -0.142, 0.188, -0.238, 0
50856, 0.367, 0.016, -0.391, -0.008, 0.204, -0.367, 0
50876, 0.499, 0.129, -0.161, -0.021, -0.024, -0.382, 0
50896, 0.224, 0.307, -0.32, -0.028, -0.067, -0.437, 0
50916, 0.666, 0.281, 0.0, -0.017, 0.258, -0.365, 0
50936, 0.553, 0.068, -0.23, -0.071, 0.069, -0.409, 0
50956, -0.024, -0.19, -0.088, -0.061, 0.015, -0.422, 0
50976, 0.698, -0.292, 0.053, -0.134, 0.082, -0.431, 0
50996, 0.586, -0.292, -0.16, -0.276, -0.007, -0.391, 0
51016, 0.468, -0.089, -0.093, -0.317, -0.053, -0.487, 0
51036, 0.036, 0.496, -0.33, -0.189, -0.117, -0.516, 0
51056, 0.356, 0.031, -0.208, 0.014, 0.081, -0.517, 0
51076, 1.348, -0.443, -0.205, -0.11, 0.11, -0.463, 0
51096, 0.661, -0.447, -0.341, -0.246, 0.003, -0.399, 0
51116, 0.873, -0.267, -0.127, -0.243, -0.018, -0.466, 0
51136, 0.165, 0.184, -0.402, -0.183, -0.21, -0.466, 0
51156, -0.11, -0.051, -0.262, -0.01, -0.003, -0.492, 0
51176, 0.308, -0.286, 0.232, -0.094, 0.169, -0.583, 0
51196, 0.635, -0.197, 0.012, -0.331, 0.102, -0.53, 0
51216, 0.343, 0.007, -0.728, -0.276, -0.003, -0.431, 0
51236, 0.477, -0.308, -0.41, -0.037, 0.049, -0.456, 0
51256, 0.269, -0.362, -0.072, -0.08, 0.021, -0.45, 0
51276, 0.466, -0.128, -0.174, -0.188, 0.107, -0.437, 0
51296, 1.078, -0.347, -0.384, -0.227, 0.045, -0.418, 0
51316, 0.654, -0.187, -0.641, -0.162, -0.174, -0.373, 0
51336, 0.26, -0.376, -0.155, -0.039, -0.107, -0.329, 0
51356, 0.24, -0.462, 0.435, -0.159, -0.031, -0.249, 0
51376, -0.324, 0.082, -0.168, -0.286, -0.083, -0.158, 0
51396, -0.088, 0.162, -0.593, 0.069, 0.16, -0.171, 0
51416, 0.373, -0.48, -0.06, -0.023, 0.167, -0.22, 0
51436, 0.614, -0.284, -0.043, -0.194, -0.078, -0.169, 0
51456, -0.186, -0.198, -0.207, -0.208, 0.029, -0.183, 0
51476, 0.153, -0.096, -0.288, -0.16, 0.117, -0.194, 0
51496, 0.172, 0.115, -0.492, -0.016, 0.117, -0.145, 0
51516, -0.003, -0.122, -0.114, 0.002, 0.165, -0.091, 0
51536, 0.078, -0.521, 0.132, -0.163, 0.105, -0.048, 0
51556, 0.006, -0.239, -0.159, -0.224, 0.026, -0.064, 0
51576, -0.195, 0.01, -0.538, -0.06, 0.006, -0.12, 0
51596, -0.205, -0.121, -0.239, -0.063, 0.084, -0.163, 0
51616, 0.194, -0.146, -0.153, -0.138, 0.056, -0.096, 0
51636, 0.111, -0.02, -0.489, -0.109, 0.017, 0.014, 0
51656, -0.218, -0.057, -0.444, -0.021, 0.033, -0.013, 0
51676, -0.156, -0.155, -0.174, -0.092, 0.008, -0.023, 0
51696, -0.342, -0.084, -0.104, -0.152, 0.038, -0.103, 0
51716, -0.006, -0.015, -0.068, -0.127, 0.05, -0.076, 0
51736, 0.026, -0.055, -0.124, -0.032, 0.047, -0.001, 0
51756, -0.177, -0.155, -0.029, 0.03, 0.051, 0.067, 0
51776, -0.234, -0.192, -0.064, -0.031, 0.031, 0.033, 0
51796, -0.092, -0.107, -0.072, -0.196, 0.072, 0.035, 0
51816, -0.106, 0.18, -0.167, -0.138, 0.048, 0.036, 0
51836, -0.183, 0.074, -0.061, -0.044, 0.033, 0.039, 0
51856, -0.028, -0.45, 0.12, -0.109, -0.018, 0.056, 0
51876, -0.172, -0.283, -0.091, -0.12, -0.011, 0.099, 0
51896, -0.433, 0.111, -0.143, -0.127, 0.044, 0.124, 0
51916, -0.523, -0.054, 0.002, -0.122, -0.003, 0.098, 0
51936, -0.612, -0.175, 0.117, -0.194, 0.032, 0.078, 0
51956, -0.313, -0.075, -0.141, -0.244, 0.104, 0.056, 0
51976, -0.243, 0.213, -0.639, -0.125, 0.091, 0.065, 0
51996, -0.269, 0.229, -0.581, 0.164, -0.02, -0.01, 1
52016, -0.372, -0.113, -0.212, 0.271, -0.023, -0.006, 1
52036, -0.017, -0.693, 0.109, 0.047, 0.094, -0.018, 1
52056, 0.073, -0.077, -0.35, -0.233, 0.089, 0.018, 1
52076, -0.123, 0.18, -0.662, -0.115, 0.06, 0.059, 1
52096, 0.004, -0.063, -0.106, 0.051, 0.034, 0.035, 1
52116, -0.128, -0.158, 0.024, 0.03, -0.034, 0.027, 1
52136, 0.095, -0.289, -0.008, -0.026, 0.028, 0.023, 1
52156, 0.213, -0.386, -0.034, -0.124, 0.039, 0.061, 1
52176, 0.021, -0.095, -0.198, -0.117, 0.015, 0.079, 1
52196, -0.075, -0.064, -0.128, -0.073, 0.068, 0.082, 1
52216, 0.0, 0.016, -0.21, -0.083, 0.017, 0.058, 1
52236, 0.002, -0.023, -0.101, -0.098, -0.025, 0.066, 1
52256, -0.197, -0.047, -0.035, -0.119, 0.036, 0.102, 1
52276, -0.091, -0.05, -0.025, -0.1, 0.09, 0.106, 1
52296, -0.073, 0.024, -0.178, -0.1, 0.037, 0.077, 1
52316, 0.013, -0.027, -0.254, -0.113, 0.043, 0.063, 1
52336, -0.09, 0.009, -0.346, -0.094, 0.006, 0.065, 1
52356, 0.018, -0.01, -0.257, -0.125, 0.037, 0.081, 1
52376, 0.051, -0.058, -0.127, -0.106, -0.043, 0.072, 1
52396, -0.057, -0.044, -0.107, -0.062, -0.001, 0.057, 1
52416, 0.148, -0.059, -0.193, -0.054, 0.006, 0.069, 1
52436, 0.034, -0.097, -0.16, -0.126, 0.055, 0.107, 1
52456, -0.015, -0.033, -0.141, -0.158, 0.067, 0.114, 1
52476, -0.169, 0.088, -0.274, -0.125, 0.051, 0.092, 1
52496, -0.037, 0.091, -0.407, -0.058, 0.047, 0.069, 1
52516, 0.045, -0.042, -0.208, -0.067, 0.068, 0.076, 1
52536, -0.002, -0.036, -0.1, -0.149, 0.087, 0.063, 1
52556, 0.007, 0.042, -0.186, -0.184, 0.074, 0.047, 1
52576, 0.125, -0.009, -0.452, -0.132, -0.004, 0.054, 1
52596, 0.01, 0.093, -0.683, -0.021, -0.015, 0.068, 1
52616, 0.152, 0.016, -0.564, 0.01, -0.028, 0.053, 1
52636, 0.158, 0.012, -0.555, -0.08, -0.04, 0.053, 1
52656, 0.251, 0.041, -0.687, -0.143, -0.061, 0.048, 1
52676, 0.205, 0.202, -0.841, -0.088, -0.116, 0.075, 1
52696, 0.064, 0.09, -0.763, 0.044, -0.088, 0.055, 1
52716, 0.201, -0.267, -0.363, 0.078, -0.134, 0.045, 1
52736, 0.06, -0.168, -0.277, -0.007, -0.136, 0.051, 1
52756, 0.064, 0.098, -0.41, -0.004, -0.092, 0.091, 1
52776, -0.104, 0.074, -0.467, 0.071, 0.001, 0.075, 1
52796, 0.172, -0.19, -0.206, 0.093, 0.008, 0.047, 1
52816, 0.271, -0.509, -0.005, -0.027, -0.041, 0.047, 1
52836, 0.117, -0.281, 0.066, -0.089, -0.056, -0.047, 1
52856, 0.12, 0.107, 0.166, -0.087, 0.072, -0.04, 1
52876, 0.36, -0.641, 0.128, -0.117, 0.004, 0.186, 1
52896, 0.264, -0.291, -0.008, -0.16, -0.092, 0.222, 1
52916, -0.239, -0.032, -0.083, -0.116, -0.172, 0.211, 1
52936, -0.291, -0.302, 0.225, -0.055, 0.021, 0.213, 1
52956, 0.112, -0.035, 0.376, -0.115, 0.109, 0.312, 1
52976, -0.391, -0.07, 0.23, -0.166, 0.026, 0.403, 1
52996, -0.507, -0.234, 0.437, -0.176, -0.015, 0.357, 1
53016, 0.086, -0.266, 0.574, -0.233, 0.043, 0.359, 1
53036, 0.0, -0.351, 0.35, -0.274, 0.061, 0.534, 1
53056, 0.051, -0.375, 0.007, -0.225, 0.103, 0.648, 1
53076, 0.005, -0.231, -0.059, -0.163, 0.091, 0.692, 1
53096, -0.16, -0.011, 0.047, -0.157, 0.1, 0.653, 1
53116, -0.324, 0.054, 0.094, -0.176, 0.062, 0.615, 1
53136, -0.259, 0.31, 0.069, -0.195, -0.083, 0.524, 1
53156, -0.507, 0.337, -0.053, -0.199, -0.108, 0.54, 1
53176, -0.575, 0.087, 0.02, -0.194, 0.039, 0.488, 1
53196, -0.601, 0.074, -0.079, -0.109, 0.054, 0.224, 1
53216, 0.347, 0.417, -0.273, -0.051, -0.062, 0.179, 1
53236, -0.176, -0.136, -0.525, -0.127, -0.065, 0.552, 1
53256, -0.466, 0.416, -0.739, -0.137, 0.033, 0.541, 1
53276, -0.488, 0.062, -0.642, -0.056, 0.148, 0.492, 1
53296, -0.046, -0.217, -0.361, -0.091, 0.036, 0.149, 1
53316, -0.099, 0.083, -0.271, -0.133, -0.264, 0.115, 1
53336, -0.434, -0.057, -0.156, -0.111, -0.035, 0.265, 1
53356, 0.488, -0.408, -0.349, -0.137, -0.042, 0.358, 1
53376, 0.326, -0.413, -0.696, -0.048, -0.24, 0.516, 1
53396, -0.738, -0.073, -0.555, 0.156, -0.147, 0.595, 1
53416, -1.326, -0.217, 0.026, 0.204, 0.036, 0.479, 1
53436, -1.047, -0.257, 0.372, 0.164, -0.006, 0.254, 1
53456, -0.347, -0.257, 0.442, 0.065, -0.115, 0.387, 1
53476, -0.199, -0.594, 0.385, -0.107, -0.102, 0.557, 1
53496, -0.921, -0.281, -0.03, -0.14, 0.028, 0.444, 1
53516, -1.131, 0.204, -0.406, 0.051, 0.098, 0.187, 1
53536, -1.138, 0.638, -0.43, 0.163, 0.061, 0.265, 1
53556, -1.042, 0.446, -0.305, 0.206, 0.127, 0.585, 1
53576, -0.913, -0.517, 0.225, -0.05, 0.229, 0.799, 1
53596, -1.3, -0.563, 0.085, -0.271, 0.318, 0.905, 1
53616, -1.506, -0.305, -0.134, -0.208, 0.28, 0.676, 1
53636, -1.504, -0.044, -0.053, -0.137, 0.083, 0.52, 1
53656, -1.28, -0.185, -0.111, -0.129, -0.088, 0.42, 1
53676, -0.912, -0.456, 0.055, -0.298, -0.006, 0.445, 1
53696, -0.896, -0.111, -0.073, -0.306, 0.102, 0.594, 1
53716, -1.349, 0.201, -0.288, -0.139, 0.141, 0.541, 1
53736, -1.347, 0.02, -0.413, -0.078, 0.139, 0.409, 1
53756, -0.786, 0.103, -0.638, -0.023, -0.001, 0.285, 1
53776, -0.733, -0.135, -0.315, -0.072, -0.102, 0.184, 1
