timestamp, accX, accY, accZ, gyroX, gyroY, gyroZ, button
3232519, 0.448, 0.503, -0.444, -0.15, -0.075, 0.015, 1
3232539, 0.454, 0.179, -0.743, -0.607, -0.35, 0.12, 1
3232559, 0.554, 0.074, -0.514, -1.152, -0.522, 0.132, 1
3232579, 0.979, 0.065, 0.095, -1.695, -0.835, 0.214, 1
3232599, 0.84, 0.224, 0.485, -2.056, -1.293, 0.242, 1
3232619, 0.769, 0.508, 0.642, -2.345, -1.85, 0.284, 1
3232639, 0.683, 0.207, 0.436, -2.447, -2.114, 0.223, 1
3232659, 0.142, -0.207, 0.041, -2.546, -2.051, 0.216, 1
3232679, 0.431, -0.239, 0.213, -2.637, -2.012, 0.2, 1
3232699, 0.227, -0.21, 0.285, -2.618, -1.969, 0.247, 1
3232719, 0.061, -0.011, 0.412, -2.332, -1.837, 0.242, 1
3232739, -0.244, 0.24, 0.407, -1.942, -1.453, 0.206, 1
3232759, -0.36, 0.205, 0.39, -1.585, -0.992, 0.178, 1
3232779, -0.469, -0.002, -0.071, -1.368, -0.583, 0.205, 1
3232799, -0.08, -0.434, -0.447, -1.509, -0.351, 0.24, 1
3232819, 0.21, -0.709, -0.52, -1.797, -0.375, 0.194, 1
3232839, 0.276, -0.49, -0.117, -1.987, -0.546, 0.065, 1
3232859, 0.2, -0.173, 0.258, -1.852, -0.711, -0.021, 1
3232879, -0.026, -0.077, 0.415, -1.591, -0.642, 0.075, 1
3232899, -0.16, -0.186, 0.458, -1.25, -0.434, 0.149, 1
3232919, -0.149, -0.239, 0.254, -0.837, -0.237, 0.159, 1
3232939, 0.221, -0.453, 0.166, -0.505, -0.229, 0.125, 1
3232959, 0.0, -0.6, -0.253, -0.358, -0.04, 0.1, 1
3232979, 0.14, -0.788, -0.424, -0.363, 0.12, 0.066, 1
3232999, 0.411, -0.74, -0.347, -0.315, -0.109, 0.003, 1
3233019, 0.338, -0.44, -0.362, -0.268, -0.371, -0.053, 1
3233039, 0.334, -0.355, -0.083, -0.271, -0.466, -0.13, 1
3233059, 0.367, -0.57, -0.165, -0.342, -0.493, -0.148, 1
3233079, 0.022, -0.39, -0.548, -0.489, -0.408, -0.034, 1
3233099, -0.179, -0.122, -0.639, -0.615, -0.204, 0.18, 1
3233119, 0.061, -0.103, -0.471, -0.626, 0.028, 0.214, 1
3233139, 0.387, 0.102, -0.464, -0.485, 0.081, 0.14, 1
3233159, -0.111, -0.013, -0.338, -0.392, 0.064, 0.161, 1
3233179, -0.176, 0.36, 0.036, -0.181, 0.158, 0.153, 1
3233199, -0.17, 0.057, 0.113, 0.047, 0.303, 0.248, 1
3233219, 0.249, -0.335, -0.272, 0.11, 0.308, 0.257, 1
3233239, 0.235, -0.222, -0.325, 0.014, 0.107, 0.152, 1
3233259, 0.05, -0.059, -0.205, -0.102, -0.064, 0.042, 1
3233279, -0.149, -0.056, -0.286, -0.237, -0.128, 0.066, 1
3233299, -0.11, 0.028, -0.196, -0.319, -0.134, 0.155, 1
3233319, -0.17, 0.16, -0.03, -0.264, -0.142, 0.185, 1
3233339, -0.151, 0.0, 0.078, -0.153, -0.02, 0.241, 1
3233359, -0.02, -0.293, 0.002, -0.098, 0.146, 0.305, 1
3233379, 0.264, -0.392, 0.057, -0.078, 0.227, 0.291, 1
3233399, 0.359, -0.408, 0.014, -0.04, 0.127, 0.201, 1
3233419, 0.228, -0.44, -0.042, -0.036, -0.064, 0.155, 1
3233439, 0.058, -0.532, -0.056, -0.123, -0.155, 0.122, 1
3233459, 0.092, -0.355, 0.015, -0.188, -0.153, 0.091, 1
3233479, 0.116, -0.156, 0.073, -0.182, -0.105, 0.086, 1
3233499, 0.004, -0.013, -0.139, -0.13, -0.045, 0.077, 1
3233519, 0.004, -0.041, -0.301, -0.04, -0.036, 0.066, 1
3233539, 0.022, -0.027, -0.325, -0.018, -0.064, 0.075, 1
3233559, 0.008, -0.007, -0.127, -0.076, -0.029, 0.089, 1
3233579, 0.071, -0.013, -0.094, -0.114, -0.001, 0.092, 1
3233599, 0.068, -0.032, -0.127, -0.086, -0.053, 0.085, 1
3233619, -0.076, -0.062, -0.219, -0.111, -0.015, 0.087, 1
3233639, -0.064, 0.023, -0.112, -0.13, 0.088, 0.1, 1
3233659, 0.007, 0.015, -0.109, -0.1, 0.087, 0.104, 1
3233679, 0.194, -0.103, -0.132, -0.096, -0.045, 0.09, 1
3233699, -0.056, -0.045, -0.183, -0.081, -0.123, 0.076, 1
3233719, -0.174, 0.067, -0.111, -0.057, -0.059, 0.136, 1
3233739, -0.05, 0.004, -0.148, -0.032, 0.076, 0.204, 1
3233759, 0.099, -0.101, -0.316, -0.034, 0.097, 0.181, 1
3233779, 0.212, -0.193, -0.339, -0.105, 0.044, 0.144, 1
3233799, 0.012, -0.035, -0.26, -0.144, 0.046, 0.116, 1
3233819, 0.02, -0.029, -0.1, -0.177, 0.067, 0.135, 1
3233839, 0.047, -0.012, -0.019, -0.089, 0.009, 0.088, 1
3233859, -0.045, -0.171, -0.063, -0.101, -0.002, 0.061, 1
3233879, -0.184, -0.103, -0.049, -0.155, 0.085, 0.074, 1
3233899, -0.124, -0.034, -0.047, -0.164, 0.119, 0.075, 1
3233919, 0.049, -0.072, -0.051, -0.164, 0.026, 0.087, 1
3233939, 0.018, -0.036, -0.059, -0.129, -0.059, 0.047, 1
3233959, -0.164, 0.014, 0.042, -0.11, -0.015, 0.057, 1
3233979, -0.202, 0.085, 0.025, -0.031, 0.025, 0.072, 1
3233999, 0.025, -0.059, -0.071, -0.031, 0.001, 0.081, 1
3234019, -0.021, -0.144, -0.195, -0.084, 0.023, 0.089, 1
3234039, -0.028, -0.107, -0.153, -0.127, 0.079, 0.093, 1
3234059, -0.01, -0.036, -0.135, -0.128, 0.114, 0.105, 1
3234079, 0.079, -0.041, -0.102, -0.092, 0.065, 0.064, 1
3234099, -0.068, 0.016, -0.086, -0.043, -0.124, 0.048, 1
3234119, -0.12, 0.037, -0.17, -0.049, -0.045, 0.05, 1
3234139, 0.014, -0.017, -0.259, -0.062, 0.056, 0.063, 1
3234159, 0.047, -0.04, -0.33, -0.093, 0.076, 0.084, 1
3234179, 0.022, -0.048, -0.3, -0.11, 0.022, 0.055, 1
3234199, -0.026, 0.04, -0.212, -0.142, 0.0, 0.049, 1
3234219, -0.037, 0.064, -0.156, -0.131, 0.02, 0.053, 1
3234239, -0.022, -0.027, -0.231, -0.105, 0.035, 0.067, 1
3234259, 0.027, -0.058, -0.163, -0.086, 0.031, 0.069, 1
3234279, -0.02, -0.012, -0.063, -0.077, 0.037, 0.059, 1
3234299, 0.001, -0.005, -0.017, -0.049, 0.042, 0.054, 1
3234319, -0.013, -0.067, -0.161, -0.064, 0.025, 0.09, 1
3234339, 0.08, -0.122, -0.298, -0.109, 0.008, 0.097, 1
3234359, -0.004, 0.036, -0.223, -0.159, 0.0, 0.073, 1
3234379, -0.035, -0.006, -0.056, -0.124, 0.037, 0.073, 1
3234399, 0.05, -0.074, 0.018, -0.105, 0.093, 0.092, 1
3234419, 0.147, -0.162, -0.032, -0.075, 0.035, 0.077, 1
3234439, -0.019, -0.025, -0.136, -0.073, -0.026, 0.075, 1
3234459, -0.052, 0.016, -0.183, -0.086, 0.012, 0.097, 1
3234479, 0.024, -0.026, -0.253, -0.081, 0.063, 0.107, 1
3234499, -0.006, -0.049, -0.25, -0.045, 0.018, 0.107, 1
3234519, 0.015, 0.001, -0.141, -0.013, -0.026, 0.136, 1
3234539, -0.435, -0.203, -0.273, -0.116, -0.007, 0.313, 1
3234559, -0.091, -0.141, -0.202, -0.191, 0.043, 0.496, 0
3234579, 0.267, -0.358, 0.241, 0.039, -0.175, 0.48, 0
3234599, 0.499, -1.23, 0.088, 0.098, -0.232, 0.461, 0
3234619, 1.149, -2.65, -0.946, 0.133, -0.408, 0.254, 0
3234639, 1.105, -5.085, -1.97, -0.178, -0.64, -0.043, 0
3234659, -0.261, -6.164, -1.752, -0.355, -0.356, -0.221, 0
3234679, -0.353, -6.885, -1.045, -0.264, 0.04, -0.313, 0
3234699, 0.55, -7.777, 0.445, -0.062, 0.02, -0.35, 0
3234719, 0.584, -7.802, 1.455, 0.168, 0.003, -0.446, 0
3234739, 0.137, -7.166, 1.757, 0.248, 0.258, -0.756, 0
3234759, -0.092, -6.168, 2.095, 0.1, 0.405, -1.002, 0
3234779, -0.565, -3.307, 2.68, 0.069, 0.176, -1.046, 0
3234799, -1.142, -0.4, 2.522, 0.326, 0.106, -1.011, 0
3234819, -1.737, 0.961, 1.9, 0.476, 0.542, -1.049, 0
3234839, -1.945, 1.864, 1.829, 0.692, 0.94, -1.116, 0
3234859, -1.933, 2.397, 1.218, 0.787, 0.783, -0.899, 0
3234879, -2.064, 4.577, 1.703, 1.0, 0.57, -0.668, 0
3234899, -1.133, 6.0, 2.132, 1.283, 0.466, -0.48, 0
3234919, -0.499, 5.069, 1.03, 1.359, 0.216, -0.328, 0
3234939, -0.684, 4.348, -0.549, 1.334, -0.019, -0.201, 0
3234959, -1.625, 5.223, -2.186, 1.436, 0.063, -0.052, 0
3234979, -1.204, 4.603, -3.667, 1.26, 0.24, 0.125, 0
3234999, -0.515, 3.589, -4.236, 0.948, 0.125, 0.293, 0
3235019, -0.07, 2.382, -4.963, 0.709, 0.018, 0.392, 0
3235039, 0.575, 1.359, -5.141, 0.346, 0.16, 0.375, 0
3235059, 1.733, 0.733, -4.068, -0.069, 0.211, 0.155, 0
3235079, 0.51, 1.856, -2.155, 0.114, 0.368, -0.042, 0
3235099, 0.524, 1.116, -2.112, 0.113, 0.516, -0.124, 0
3235119, 0.319, 1.046, -1.708, -0.262, 0.296, -0.056, 0
3235139, -0.241, 1.612, -0.637, -0.479, 0.172, 0.004, 0
3235159, -0.354, 1.201, -0.335, -0.32, 0.141, 0.051, 0
3235179, -0.244, 0.648, -0.255, -0.255, 0.225, 0.06, 0
3235199, -0.297, 0.36, -0.059, -0.296, 0.322, 0.028, 0
3235219, 0.035, -0.071, -0.336, -0.387, 0.42, 0.034, 0
3235239, 0.196, -0.339, -0.975, -0.622, 0.309, 0.094, 0
3235259, -0.226, 0.026, -1.47, -0.889, 0.318, 0.132, 1
3235279, -0.095, 0.429, -1.139, -0.934, 0.552, 0.097, 1
3235299, -0.328, 1.347, -0.798, -0.986, 0.588, 0.073, 1
3235319, -0.343, 1.694, 0.054, -0.993, 0.537, 0.081, 1
3235339, -0.161, 1.71, 0.87, -1.038, 0.218, 0.128, 1
3235359, -0.333, 1.419, 0.853, -0.916, -0.186, 0.178, 1
3235379, -0.304, 0.609, -0.325, -0.538, -0.361, 0.221, 1
3235399, 0.301, -0.289, -1.452, -0.414, -0.291, 0.293, 1
3235419, 0.797, -1.224, -1.961, -0.613, -0.279, 0.294, 1
3235439, 0.747, -1.014, -1.833, -0.875, -0.409, 0.316, 1
3235459, 0.181, -0.293, -1.21, -0.86, -0.371, 0.261, 1
3235479, 0.336, -0.806, -1.159, -0.518, -0.18, 0.315, 1
3235499, 1.585, -1.845, -1.248, -0.601, -0.398, 0.426, 1
3235519, 0.532, -1.68, -1.065, -1.043, -0.811, 0.433, 1
3235539, -0.48, -0.912, -0.485, -1.143, -0.64, 0.328, 1
3235559, -1.717, -0.047, 0.291, -0.7, 0.254, 0.321, 1
3235579, -1.548, 0.123, 1.316, -0.166, 0.609, 0.48, 1
3235599, 0.03, -1.473, 0.928, 0.089, 0.334, 0.64, 1
3235619, 0.699, -2.879, 0.19, -0.304, -0.318, 0.692, 1
3235639, -0.824, -2.621, 0.098, -0.654, -0.395, 0.559, 1
3235659, -1.404, -2.141, 0.707, -0.507, -0.004, 0.505, 1
3235679, -2.006, -1.961, 0.844, 0.063, 0.313, 0.59, 1
3235699, -0.797, -3.737, 0.174, 0.15, -0.013, 0.877, 1
3235719, 0.01, -5.046, 0.037, -0.17, -0.59, 0.886, 1
3235739, -0.381, -5.246, -0.026, -0.381, -0.612, 0.636, 1
3235759, -0.778, -4.192, -0.144, -0.157, -0.162, 0.449, 1
3235779, -1.689, -2.842, -0.008, 0.377, 0.529, 0.532, 1
3235799, -1.335, -3.1, -0.315, 0.59, 0.976, 0.674, 1
3235819, 1.678, -3.973, -0.091, -0.12, 0.05, 0.557, 1
3235839, 0.915, -3.166, 0.565, -0.802, -0.749, 0.218, 1
3235859, -0.502, -1.624, 0.901, -0.784, -0.703, 0.098, 1
3235879, -1.212, -1.4, 0.574, -0.475, -0.183, 0.205, 1
3235899, -0.027, -1.877, 0.371, -0.256, -0.061, 0.222, 1
3235919, 0.486, -1.851, 0.202, -0.171, -0.284, 0.148, 1
3235939, 0.203, -1.841, -0.347, -0.21, -0.342, 0.081, 1
3235959, -0.282, -1.471, -0.655, -0.263, -0.138, 0.06, 1
3235979, 0.221, -1.279, -0.41, -0.314, 0.023, 0.002, 1
3235999, 0.495, -0.837, 0.039, -0.284, -0.056, -0.058, 1
3236019, 0.097, -0.349, 0.12, -0.133, -0.073, -0.043, 1
3236039, -0.242, -0.434, 0.028, -0.023, 0.068, 0.004, 1
3236059, 0.519, -0.491, -0.022, -0.062, -0.021, -0.046, 1
3236079, -0.13, -0.422, -0.329, -0.096, -0.078, -0.113, 1
3236099, -0.172, -0.326, -0.519, -0.12, -0.012, -0.117, 1
3236119, -0.224, -0.285, -0.395, -0.156, -0.06, -0.103, 1
3236139, -0.229, -0.141, -0.086, -0.126, 0.014, -0.115, 1
3236159, -0.358, -0.223, -0.033, -0.065, 0.189, -0.103, 1
3236179, -0.066, -0.321, 0.045, 0.018, 0.196, -0.025, 1
3236199, 0.452, -0.877, 0.076, 0.153, -0.023, 0.008, 1
3236219, -0.221, -1.402, -0.083, 0.078, -0.24, -0.034, 0
3236239, -0.902, -1.093, -0.225, -0.131, -0.069, 0.043, 0
3236259, -0.553, -2.458, -0.245, 0.099, 0.156, 0.169, 0
3236279, 0.565, -3.829, -0.336, 0.165, 0.189, 0.243, 0
3236299, 0.81, -6.14, -0.709, 0.02, -0.089, 0.016, 0
3236319, -0.678, -6.354, -0.769, -0.175, 0.077, -0.244, 0
3236339, -1.228, -5.811, -0.632, -0.103, 0.718, -0.458, 0
3236359, -1.505, -5.601, -0.215, -0.031, 0.887, -0.538, 0
3236379, -0.355, -4.917, 1.057, -0.117, 0.541, -0.516, 0
3236399, -0.809, -3.562, 1.807, -0.233, 0.255, -0.712, 0
3236419, -1.264, -2.453, 1.926, -0.106, 0.479, -0.894, 0
3236439, -1.264, -0.758, 2.092, 0.032, 0.618, -0.958, 0
3236459, -0.786, 1.492, 2.683, 0.13, 0.486, -0.888, 0
3236479, 0.284, 3.589, 2.47, 0.291, 0.208, -0.685, 0
3236499, 0.272, 3.489, 0.672, 0.651, 0.004, -0.556, 0
3236519, -0.912, 2.911, -1.297, 0.818, 0.308, -0.621, 0
3236539, -0.621, 2.587, -1.912, 0.613, 0.618, -0.525, 0
3236559, -0.642, 0.701, -0.662, 0.278, 0.467, -0.339, 0
3236579, 0.117, 3.794, 0.172, 0.549, 0.2, -0.316, 0
3236599, 0.317, 4.002, 0.016, 0.844, 0.131, -0.309, 0
3236619, -0.102, 3.096, -0.962, 0.974, 0.06, -0.27, 0
3236639, -0.461, 3.188, -1.873, 0.91, 0.151, -0.29, 0
3236659, -0.128, 3.076, -1.856, 0.715, 0.288, -0.249, 0
3236679, 0.239, 2.462, -1.718, 0.656, 0.162, -0.172, 0
3236699, -0.414, 2.103, -2.194, 0.625, 0.158, -0.139, 0
3236719, -0.435, 1.8, -2.256, 0.505, 0.2, -0.129, 0
3236739, -0.175, 1.561, -1.946, 0.346, 0.224, -0.144, 0
3236759, -0.22, 1.857, -1.781, 0.225, 0.219, -0.132, 0
3236779, -0.27, 1.815, -1.66, 0.037, 0.155, -0.072, 0
3236799, -0.409, 1.783, -1.181, -0.077, 0.083, 0.0, 0
3236819, -0.524, 1.416, -0.758, -0.11, -0.002, 0.073, 0
3236839, -0.342, 0.481, -0.898, -0.246, -0.062, 0.137, 0
3236859, -0.087, -0.222, -0.96, -0.448, -0.058, 0.16, 0
3236879, -0.001, -0.527, -0.936, -0.594, 0.067, 0.148, 1
3236899, 0.097, -0.918, -1.294, -0.768, 0.249, 0.144, 1
3236919, 0.427, -1.107, -1.279, -0.884, 0.373, 0.153, 1
3236939, 0.152, -0.075, -1.129, -0.872, 0.448, 0.086, 1
3236959, 0.42, 0.678, -0.541, -0.738, 0.289, 0.042, 1
3236979, 0.221, 0.969, -0.365, -0.622, 0.015, 0.072, 1
3236999, 0.185, 1.147, -0.293, -0.617, -0.145, 0.136, 1
3237019, 0.799, 0.808, -0.644, -0.58, -0.365, 0.196, 1
3237039, 0.068, 1.59, -0.146, -0.55, -0.131, 0.154, 1
3237059, 0.013, 1.307, 0.49, -0.557, 0.197, 0.089, 1
3237079, 1.339, -0.655, -0.543, -0.62, -0.032, 0.188, 1
3237099, 1.001, -0.879, -1.685, -0.945, -0.977, 0.313, 1
3237119, 0.257, -0.356, -1.127, -1.312, -0.897, 0.145, 1
3237139, -0.555, 0.563, 0.021, -1.324, -0.334, 0.018, 1
3237159, -0.309, 0.858, 1.206, -1.081, 0.087, 0.017, 1
3237179, -0.159, 0.584, 1.892, -0.849, 0.082, 0.081, 1
3237199, -0.241, -0.516, 1.283, -0.505, -0.24, 0.298, 1
3237219, -0.224, -1.632, 0.019, -0.1, -0.499, 0.411, 1
3237239, -0.412, -2.988, -1.252, 0.043, -0.371, 0.354, 1
3237259, -0.527, -3.697, -1.256, -0.399, -0.165, 0.238, 1
3237279, -0.735, -3.048, -0.158, -1.052, -0.287, 0.354, 1
3237299, -1.417, -2.155, 1.231, -1.154, -0.554, 0.423, 1
3237319, -1.247, -2.049, 1.266, -0.514, -0.455, 0.575, 1
3237339, 0.119, -4.279, -0.294, 0.284, -0.213, 0.675, 1
3237359, 0.778, -5.745, -2.001, 0.153, -0.217, 0.455, 1
3237379, 0.269, -4.607, -2.148, -0.635, -0.583, 0.224, 1
3237399, -1.544, -2.451, -1.349, -0.984, -0.731, 0.119, 1
3237419, -2.244, -1.47, -0.401, -0.646, -0.28, 0.301, 1
3237439, -1.574, -1.855, -0.019, -0.098, 0.304, 0.576, 1
3237459, -0.18, -2.79, -0.389, 0.149, 0.334, 0.744, 1
3237479, -0.529, -2.845, -0.587, -0.016, 0.025, 0.709, 1
3237499, -0.307, -2.714, -0.681, -0.079, 0.113, 0.65, 1
3237519, 0.071, -2.601, -0.676, 0.095, 0.335, 0.558, 1
3237539, 0.596, -3.054, -1.091, 0.121, 0.172, 0.421, 1
3237559, 0.55, -3.367, -1.259, -0.227, -0.15, 0.373, 1
3237579, 0.346, -2.704, -0.738, -0.453, -0.203, 0.238, 1
3237599, 0.045, -1.952, -0.173, -0.285, -0.064, 0.185, 1
3237619, 0.07, -1.774, 0.005, 0.003, 0.119, 0.123, 1
3237639, 0.57, -2.274, 0.016, -0.034, -0.015, 0.07, 1
3237659, 0.5, -1.934, 0.074, -0.212, -0.253, 0.017, 1
3237679, 0.114, -1.247, 0.233, -0.198, -0.273, -0.012, 1
3237699, -0.036, -0.958, 0.1, -0.064, -0.112, -0.011, 1
3237719, -0.097, -0.864, 0.015, -0.007, 0.007, -0.047, 1
3237739, -0.201, -0.648, 0.097, 0.034, 0.039, -0.005, 1
3237759, -0.092, -0.788, -0.039, -0.056, 0.031, 0.028, 1
3237779, 0.182, -0.792, 0.083, -0.152, -0.04, -0.026, 1
3237799, 0.24, -0.656, 0.177, -0.112, -0.082, -0.095, 1
3237819, -0.443, -0.396, 0.178, -0.031, 0.025, 0.04, 1
3237839, -0.112, -0.421, 0.19, 0.096, 0.078, 0.054, 1
3237859, 0.399, -0.65, 0.052, 0.136, -0.114, 0.042, 1
3237879, -0.129, -0.956, -0.369, 0.242, -0.28, 0.04, 0
3237899, 0.704, -1.703, -0.408, 0.407, -0.43, 0.028, 0
3237919, 0.412, -3.314, -1.381, 0.291, -0.545, 0.052, 0
3237939, -0.862, -4.664, -2.187, -0.056, -0.272, -0.001, 0
3237959, -1.123, -5.541, -1.679, -0.24, 0.351, 0.047, 0
3237979, -0.628, -4.818, 0.069, 0.073, 0.872, -0.069, 0
3237999, 0.257, -4.7, 0.477, 0.402, 0.615, -0.175, 0
3238019, -1.627, -3.566, -0.697, 0.051, 0.177, -0.29, 0
3238039, -3.077, -2.609, -0.298, 0.004, 0.54, -0.31, 0
3238059, 0.309, -2.455, 1.334, 0.051, 1.107, -0.353, 0
3238079, 1.65, -1.62, 2.627, -0.136, 0.535, -0.571, 0
3238099, -0.044, 0.263, 2.748, -0.002, -0.068, -0.697, 0
3238119, -1.293, 0.466, 1.953, 0.412, 0.045, -0.778, 0
3238139, -0.201, -0.074, 1.388, 0.522, 0.226, -0.872, 0
3238159, -0.834, 1.208, 1.205, 0.285, 0.077, -0.984, 0
3238179, -1.417, 2.682, 0.631, 0.438, 0.007, -0.885, 0
3238199, -2.031, 3.234, -0.395, 0.88, 0.147, -0.684, 0
3238219, -1.672, 2.895, -0.997, 1.174, 0.331, -0.516, 0
3238239, -0.542, 2.883, -1.05, 1.138, 0.472, -0.436, 0
3238259, 0.222, 3.025, -0.749, 0.887, 0.617, -0.458, 0
3238279, 0.222, 3.106, -0.394, 0.687, 0.458, -0.494, 0
3238299, -1.432, 4.197, -0.637, 0.8, 0.248, -0.442, 0
3238319, -1.554, 3.779, -1.962, 1.123, 0.28, -0.273, 0
3238339, -0.736, 2.765, -2.828, 0.969, 0.284, -0.095, 0
3238359, -0.222, 2.512, -2.668, 0.549, 0.229, -0.008, 0
3238379, -0.525, 2.428, -2.623, 0.396, 0.237, 0.043, 0
3238399, -0.207, 1.529, -2.528, 0.288, 0.271, 0.021, 0
3238419, 0.173, 1.22, -1.913, 0.031, 0.247, -0.023, 0
3238439, 0.031, 1.226, -1.517, -0.118, 0.143, -0.02, 0
3238459, -0.208, 1.192, -1.028, -0.182, 0.042, 0.012, 0
3238479, -0.133, 0.838, -0.552, -0.169, 0.066, 0.022, 0
3238499, -0.185, 0.337, -0.358, -0.224, 0.071, 0.03, 0
3238519, -0.081, 0.073, -0.122, -0.245, 0.006, 0.042, 0
3238539, -0.04, -0.078, -0.075, -0.317, 0.046, 0.03, 0
3238559, 0.076, -0.169, -0.153, -0.477, 0.066, 0.02, 0
3238579, -0.172, -0.195, -0.491, -0.649, 0.211, 0.063, 1
3238599, 0.046, -0.32, -0.679, -0.816, 0.337, 0.074, 1
3238619, 0.089, 0.528, -0.814, -0.874, 0.297, 0.056, 1
3238639, 0.387, 1.014, -0.541, -0.828, 0.141, 0.015, 1
3238659, -0.069, 1.778, -0.235, -0.706, 0.058, -0.004, 1
3238679, -0.485, 2.303, -0.139, -0.423, -0.006, 0.189, 1
3238699, 0.607, 1.013, -0.667, -0.325, -0.3, 0.334, 1
3238719, 0.803, -0.073, -0.936, -0.601, -0.387, 0.292, 1
3238739, -0.034, 0.15, -0.489, -0.725, -0.144, 0.188, 1
3238759, -0.82, 1.101, 0.203, -0.35, 0.291, 0.214, 1
3238779, 0.512, 0.09, 0.211, -0.145, 0.239, 0.339, 1
3238799, 1.575, -1.869, -0.357, -0.654, -0.543, 0.381, 1
3238819, 0.927, -1.633, -0.074, -1.158, -1.12, 0.283, 1
3238839, -0.48, -0.156, 0.115, -1.059, -1.02, 0.216, 1
3238859, -0.883, 0.613, -0.134, -0.523, -0.552, 0.319, 1
3238879, -0.863, -0.905, -0.838, -0.338, -0.301, 0.758, 1
3238899, 0.058, -2.936, -1.263, -0.873, -0.679, 0.785, 1
3238919, -0.801, -2.409, -0.964, -0.943, -0.748, 0.681, 1
3238939, -1.154, -2.444, -1.017, -0.397, -0.202, 0.524, 1
3238959, -0.479, -3.368, -1.3, -0.018, 0.318, 0.236, 1
3238979, -0.251, -4.98, -2.287, -0.816, -0.141, 0.467, 1
3238999, -1.245, -2.238, -0.382, -1.078, -0.623, 0.336, 1
3239019, -2.408, -1.522, 0.436, -0.44, -0.092, 0.472, 1
3239039, -0.004, -3.71, 0.486, 0.281, 0.656, 0.563, 1
3239059, 1.972, -5.328, -0.046, -0.015, 0.256, 0.37, 1
3239079, 0.941, -4.031, -0.345, -0.572, -0.76, 0.25, 1
3239099, -1.597, -2.277, -0.44, -0.461, -0.872, 0.136, 1
3239119, -1.539, -2.312, -0.451, 0.226, -0.057, 0.33, 1
3239139, 1.168, -3.815, -0.524, 0.404, 0.356, 0.392, 1
3239159, 1.017, -3.608, -0.522, -0.133, -0.215, 0.119, 1
3239179, -0.993, -1.803, 0.002, -0.554, -0.712, 0.065, 1
3239199, -1.655, -1.256, 0.463, -0.392, -0.334, 0.171, 1
3239219, -0.445, -1.831, 0.781, 0.02, 0.301, 0.317, 1
3239239, 0.985, -2.603, 0.359, 0.296, 0.303, 0.285, 1
3239259, 0.074, -2.61, -0.138, 0.158, -0.2, 0.172, 1
3239279, -0.544, -1.604, 0.013, -0.112, -0.35, 0.226, 1
3239299, -0.199, -1.083, 0.19, -0.139, -0.174, 0.244, 1
3239319, -0.173, -1.073, -0.099, 0.002, -0.097, 0.193, 1
3239339, -0.692, -1.54, -0.515, 0.101, -0.072, 0.178, 1
3239359, -0.347, -1.867, -0.574, -0.072, 0.032, 0.237, 1
3239379, 0.47, -1.631, -0.18, -0.287, -0.014, 0.227, 1
3239399, 0.38, -1.301, -0.166, -0.21, -0.069, 0.109, 1
3239419, -0.251, -1.185, -0.313, -0.044, 0.001, 0.04, 1
3239439, -0.064, -1.064, -0.297, -0.031, 0.204, 0.045, 1
3239459, 0.532, -0.961, -0.316, -0.177, 0.147, 0.127, 1
3239479, 0.553, -0.838, -0.263, -0.17, -0.219, 0.05, 1
3239499, -0.168, -0.985, -0.365, -0.139, 0.005, 0.004, 1
3239519, -0.16, -0.74, -0.166, -0.092, 0.362, 0.015, 1
3239539, 0.244, -0.739, -0.018, -0.013, 0.334, 0.007, 1
3239559, 0.808, -0.708, 0.151, 0.091, -0.122, 0.003, 1
3239579, 0.44, -1.156, 0.262, 0.189, -0.354, -0.034, 0
3239599, -0.236, -1.568, -0.204, 0.401, -0.231, -0.02, 0
3239619, -0.773, -2.102, -0.574, 0.489, -0.185, 0.273, 0
3239639, -0.51, -3.592, -0.912, 0.147, -0.045, 0.404, 0
3239659, -0.381, -3.614, -0.453, 0.083, 0.42, 0.34, 0
3239679, 0.867, -4.11, 0.07, 0.293, 0.448, 0.151, 0
3239699, -0.275, -4.164, -0.364, 0.381, 0.199, 0.182, 0
3239719, -1.21, -3.844, -1.064, 0.265, 0.235, 0.023, 0
3239739, -1.567, -3.49, -1.064, -0.269, 0.72, -0.373, 0
3239759, -0.818, -2.402, 0.285, -0.486, 0.834, -0.508, 0
3239779, -0.718, -1.454, 1.296, -0.335, 0.558, -0.58, 0
3239799, -1.047, -1.265, 1.418, -0.005, 0.38, -0.59, 0
3239819, -1.49, -0.497, 0.819, -0.012, 0.369, -0.587, 0
3239839, -1.117, 0.156, 0.596, -0.221, 0.327, -0.552, 0
3239859, -0.646, 0.684, 0.44, -0.175, 0.28, -0.491, 0
3239879, -0.254, 0.378, 0.282, 0.1, 0.222, -0.464, 0
3239899, -0.447, 0.289, -0.306, 0.299, 0.321, -0.508, 0
3239919, -0.344, 0.73, -0.509, 0.231, 0.447, -0.546, 0
3239939, 0.533, 1.124, -0.189, 0.139, 0.355, -0.567, 0
3239959, 0.705, 1.513, 0.008, 0.472, 0.45, -0.623, 0
3239979, -0.318, 1.792, -0.264, 0.819, 0.687, -0.613, 0
3239999, 0.048, 2.712, 0.35, 0.626, 0.66, -0.552, 0
3240019, 0.162, 3.808, 0.739, 0.548, 0.59, -0.481, 0
3240039, -0.066, 3.452, -0.474, 0.651, 0.481, -0.384, 0
3240059, -0.842, 3.444, -1.476, 0.654, 0.375, -0.318, 0
3240079, -1.18, 2.851, -2.052, 0.581, 0.362, -0.225, 0
3240099, -1.127, 2.177, -1.946, 0.42, 0.259, -0.104, 0
3240119, -0.96, 1.997, -1.516, 0.243, 0.255, -0.052, 0
3240139, -0.357, 1.807, -0.985, 0.232, 0.339, -0.042, 0
3240159, -0.038, 1.158, -0.983, 0.252, 0.254, -0.037, 0
3240179, 0.166, 0.721, -1.007, 0.14, 0.133, -0.036, 0
3240199, 0.019, 0.871, -0.774, -0.015, 0.112, -0.062, 0
3240219, 0.096, 0.606, -0.65, -0.081, 0.091, -0.04, 0
3240239, -0.145, 0.524, -0.647, -0.208, 0.058, -0.006, 0
3240259, -0.062, 0.414, -0.345, -0.323, 0.041, 0.027, 0
3240279, -0.486, 0.464, -0.402, -0.387, 0.089, 0.085, 0
3240299, -0.429, 0.102, -0.837, -0.567, 0.263, 0.197, 1
3240319, -0.392, 0.117, -1.217, -0.898, 0.396, 0.316, 1
3240339, -0.071, 0.478, -0.856, -1.089, 0.407, 0.335, 1
3240359, -0.142, 1.348, -0.161, -0.924, 0.229, 0.273, 1
3240379, -0.063, 1.581, 0.214, -0.58, 0.175, 0.263, 1
3240399, 0.034, 1.275, 0.254, -0.442, 0.033, 0.339, 1
3240419, 0.53, 0.641, -0.018, -0.47, -0.213, 0.483, 1
3240439, 0.51, 0.382, -0.18, -0.621, -0.471, 0.426, 1
3240459, -0.327, 0.572, -0.095, -0.689, -0.264, 0.342, 1
3240479, -0.706, 0.584, 0.182, -0.522, 0.019, 0.317, 1
3240499, -0.992, 0.93, 0.271, 0.02, 0.171, 0.464, 1
3240519, -0.093, -0.18, -0.348, 0.415, 0.047, 0.514, 1
3240539, -0.54, -1.188, -1.625, 0.611, 0.237, 0.565, 1
3240559, 1.665, -3.933, -2.748, -0.21, -0.07, 0.618, 1
3240579, 2.087, -4.112, -2.053, -1.182, -0.616, 0.486, 1
3240599, -0.094, -1.738, -0.589, -1.01, -0.374, 0.382, 1
3240619, -1.147, -0.452, 0.407, 0.001, 0.347, 0.446, 1
3240639, 0.723, -2.723, -0.239, 0.254, 0.257, 0.518, 1
3240659, 2.49, -4.934, -1.068, -0.553, -0.686, 0.478, 1
3240679, 0.76, -4.489, -1.207, -1.191, -1.075, 0.249, 1
3240699, -1.201, -2.542, -0.394, -0.955, -0.482, 0.2, 1
3240719, -1.775, -1.542, 0.504, -0.263, 0.109, 0.302, 1
3240739, -2.095, -1.395, 0.985, 0.348, 0.44, 0.613, 1
3240759, 0.51, -3.931, 0.538, -0.106, -0.415, 0.725, 1
3240779, 0.323, -3.967, 0.461, -0.701, -1.021, 0.48, 1
3240799, -1.119, -3.209, 0.419, -0.612, -0.416, 0.166, 1
3240819, -1.047, -2.418, 1.102, 0.115, 0.271, 0.002, 1
3240839, -2.498, -0.601, 0.878, 1.35, 1.102, 0.324, 1
3240859, 2.03, -4.55, -1.014, 0.967, 0.176, 0.664, 1
3240879, 3.249, -6.073, -1.566, -0.702, -1.62, 0.101, 1
3240899, -0.723, -3.045, -0.889, -1.162, -1.577, -0.161, 1
3240919, -2.44, -1.638, -0.542, -0.564, -0.389, 0.098, 1
3240939, -1.61, -1.804, 0.006, 0.372, 0.423, 0.339, 1
3240959, 0.636, -3.485, -0.516, 0.55, 0.403, 0.513, 1
3240979, 1.682, -3.566, -0.205, -0.153, -0.241, 0.339, 1
3240999, 0.346, -2.256, 0.048, -0.594, -0.66, 0.062, 1
3241019, -1.002, -1.519, -0.281, -0.376, -0.554, 0.078, 1
3241039, -1.075, -1.348, -0.268, -0.054, -0.109, 0.201, 1
3241059, -0.367, -1.703, -0.17, 0.124, 0.227, 0.299, 1
3241079, 0.567, -2.342, -0.143, 0.132, 0.2, 0.311, 1
3241099, 0.792, -2.421, -0.049, -0.05, -0.041, 0.204, 1
3241119, -0.125, -1.822, 0.076, -0.157, -0.153, 0.105, 1
3241139, -0.177, -1.611, 0.171, -0.081, -0.006, 0.106, 1
3241159, 0.366, -1.972, 0.075, -0.037, 0.139, 0.046, 1
3241179, 0.528, -2.012, -0.15, -0.126, 0.128, -0.078, 1
3241199, 0.315, -1.564, -0.305, -0.149, 0.023, -0.122, 1
3241219, -0.18, -1.28, -0.379, -0.182, 0.007, -0.161, 1
3241239, 0.006, -1.134, -0.171, -0.147, 0.103, -0.131, 1
3241259, 0.145, -1.255, -0.15, -0.001, 0.102, -0.129, 1
3241279, 0.075, -1.702, -0.323, 0.132, 0.104, -0.109, 1
3241299, -0.373, -1.703, -0.39, 0.057, 0.222, -0.07, 1
3241319, 0.163, -1.62, -0.1, 0.08, 0.27, -0.029, 1
3241339, 0.478, -1.931, 0.025, 0.23, 0.099, -0.024, 0
3241359, 0.36, -2.979, -0.513, 0.183, 0.018, -0.117, 0
3241379, -0.067, -3.341, -0.765, -0.061, -0.096, -0.196, 0
3241399, -1.026, -3.034, -0.456, -0.034, -0.083, -0.207, 0
3241419, -1.864, -2.522, 0.337, 0.298, 0.637, -0.126, 0
3241439, -0.232, -3.599, -0.16, 0.235, 0.602, -0.104, 0
3241459, 1.251, -4.517, -0.963, -0.403, -0.156, -0.252, 0
3241479, -0.662, -3.019, -0.756, -0.638, -0.251, -0.412, 0
3241499, -2.815, -1.242, -0.2, -0.149, 0.479, -0.434, 0
3241519, -1.763, -1.228, 0.068, 0.069, 0.851, -0.34, 0
3241539, 0.795, -2.041, 0.629, -0.511, 0.144, -0.267, 0
3241559, 0.6, -0.756, 1.542, -0.795, -0.265, -0.374, 0
3241579, -0.695, 0.752, 1.715, -0.233, -0.003, -0.496, 0
3241599, -1.559, 1.086, 0.78, 0.177, 0.421, -0.533, 0
3241619, -0.558, 0.982, 0.461, 0.111, 0.318, -0.469, 0
3241639, -1.1, 1.515, 0.557, 0.062, 0.233, -0.384, 0
3241659, -0.641, 1.771, 0.493, 0.288, 0.284, -0.3, 0
3241679, 0.354, 0.747, -0.175, 0.387, 0.203, -0.293, 0
3241699, 0.545, 0.291, -0.716, 0.336, 0.038, -0.408, 0
3241719, -0.66, 1.468, -0.495, 0.454, 0.34, -0.538, 0
3241739, -0.384, 1.884, -0.507, 0.607, 0.45, -0.52, 0
3241759, -0.41, 2.134, -0.729, 0.535, 0.286, -0.389, 0
3241779, -0.792, 2.84, -0.449, 0.62, 0.268, -0.207, 0
3241799, -0.281, 2.046, -0.558, 0.659, 0.119, -0.065, 0
3241819, -0.008, 1.138, -1.184, 0.613, 0.05, 0.007, 0
3241839, -0.283, 1.288, -1.213, 0.46, 0.394, -0.051, 0
3241859, 0.716, 1.605, -0.567, 0.443, 0.407, -0.05, 0
3241879, 0.522, 1.878, -0.306, 0.479, 0.241, -0.017, 0
3241899, 0.072, 2.151, -0.304, 0.543, 0.193, 0.005, 0
3241919, -0.067, 2.025, -1.494, 0.348, 0.142, 0.061, 0
3241939, -0.029, 1.14, -1.514, 0.059, 0.118, 0.089, 0
3241959, 0.03, 1.122, -0.932, -0.091, 0.197, 0.054, 0
3241979, 0.023, 0.56, -0.847, -0.136, 0.138, 0.073, 0
3241999, -0.106, 0.336, -0.674, -0.291, -0.025, 0.108, 0
3242019, -0.363, 0.485, -0.718, -0.328, 0.027, 0.119, 0
3242039, -0.436, 0.081, -1.46, -0.386, 0.188, 0.128, 1
3242059, 0.201, -0.31, -1.441, -0.692, 0.43, 0.15, 1
3242079, 0.008, 0.396, -1.045, -1.183, 0.38, 0.158, 1
3242099, 0.153, 1.168, -0.184, -1.296, 0.126, 0.143, 1
3242119, -0.182, 1.45, 0.019, -0.999, -0.102, 0.106, 1
3242139, -0.088, 0.863, -0.346, -0.588, -0.115, 0.128, 1
3242159, 0.511, 0.433, -0.438, -0.572, -0.168, 0.185, 1
3242179, 0.205, 0.241, -0.218, -0.767, -0.329, 0.26, 1
3242199, -0.418, 0.432, 0.081, -0.695, -0.26, 0.301, 1
3242219, -0.053, -0.274, 0.071, -0.439, -0.054, 0.324, 1
3242239, 0.689, -1.234, -0.255, -0.323, -0.067, 0.372, 1
3242259, 1.205, -2.503, -0.855, -0.495, -0.493, 0.404, 1
3242279, 0.296, -2.636, -1.549, -0.709, -0.944, 0.391, 1
3242299, -0.368, -2.16, -1.719, -0.583, -0.892, 0.474, 1
3242319, 0.231, -3.188, -2.042, -0.394, -0.643, 0.514, 1
3242339, 0.168, -3.182, -1.808, -0.718, -0.746, 0.43, 1
3242359, -0.53, -2.323, -1.358, -0.839, -0.636, 0.377, 1
3242379, -1.366, -1.71, -0.736, -0.443, -0.188, 0.371, 1
3242399, -0.378, -2.075, -0.189, 0.218, 0.518, 0.461, 1
3242419, 1.213, -3.575, -0.243, -0.272, -0.143, 0.393, 1
3242439, -0.052, -2.673, 0.092, -0.844, -0.85, 0.395, 1
3242459, -1.783, -1.016, 0.745, -0.679, -0.593, 0.459, 1
3242479, -2.419, -0.248, 1.418, 0.081, 0.258, 0.566, 1
3242499, -0.496, -2.263, 0.901, 0.445, 0.309, 0.658, 1
3242519, 0.721, -3.546, 0.118, 0.103, -0.536, 0.585, 1
3242539, -0.126, -3.676, -0.654, -0.262, -0.761, 0.414, 1
3242559, -1.969, -2.652, -0.7, -0.084, 0.045, 0.372, 1
3242579, -2.586, -1.799, -0.151, 0.73, 1.238, 0.511, 1
3242599, 0.083, -4.145, -0.913, 0.855, 1.172, 0.722, 1
3242619, 2.37, -5.784, -1.057, -0.175, -0.43, 0.511, 1
3242639, 0.611, -3.997, -0.397, -0.623, -0.825, 0.17, 1
3242659, -1.33, -2.569, -0.489, -0.19, 0.111, 0.114, 1
3242679, -0.73, -2.607, -0.946, 0.31, 0.773, 0.195, 1
3242699, 0.858, -3.829, -1.459, 0.081, 0.514, 0.133, 1
3242719, 1.439, -4.034, -0.863, -0.613, -0.276, -0.059, 1
3242739, 0.464, -2.366, 0.101, -0.737, -0.547, -0.157, 1
3242759, -0.66, -1.296, 0.395, -0.385, -0.258, -0.128, 1
3242779, -0.903, -1.303, 0.287, -0.111, 0.058, 0.009, 1
3242799, -0.455, -1.157, 0.543, 0.005, 0.13, 0.094, 1
3242819, 0.96, -2.038, 0.205, -0.201, -0.245, 0.004, 1
3242839, 0.096, -2.024, 0.001, -0.433, -0.598, -0.054, 1
3242859, -1.063, -1.571, 0.111, -0.268, -0.309, -0.016, 1
3242879, -0.969, -1.303, 0.519, 0.23, 0.141, 0.086, 1
3242899, -0.11, -2.142, 0.157, 0.219, 0.122, 0.093, 1
3242919, -0.208, -2.0, 0.352, -0.025, -0.015, 0.006, 1
3242939, -0.287, -1.538, 0.662, -0.138, 0.017, -0.066, 1
3242959, -0.381, -1.46, 0.569, -0.038, 0.117, -0.037, 1
3242979, -0.417, -1.346, 0.507, 0.097, 0.135, -0.038, 1
3242999, -0.012, -1.809, 0.22, 0.2, 0.041, -0.108, 1
3243019, -0.54, -1.453, 0.055, 0.098, -0.162, -0.126, 1
3243039, -1.2, -1.028, -0.062, 0.148, -0.038, -0.003, 1
3243059, -0.432, -1.305, 0.117, 0.389, 0.238, 0.155, 0
3243079, 1.202, -2.9, -0.314, 0.393, 0.069, 0.19, 0
3243099, -0.133, -3.774, -1.054, 0.058, -0.262, -0.013, 0
3243119, -1.292, -2.906, -0.738, -0.166, 0.07, -0.147, 0
3243139, -0.49, -3.509, -0.632, -0.094, 0.714, -0.148, 0
3243159, 0.78, -5.597, -1.772, -0.288, 0.576, -0.2, 0
3243179, -0.152, -4.106, -0.582, -0.85, -0.122, -0.251, 0
3243199, -1.256, -2.336, 0.583, -0.453, 0.213, -0.277, 0
3243219, -0.048, -2.318, 0.544, 0.244, 0.87, -0.401, 0
3243239, 1.151, -2.895, 0.063, 0.222, 0.592, -0.52, 0
3243259, 0.451, -1.668, -0.283, -0.091, 0.351, -0.645, 0
3243279, -1.025, 0.383, -0.067, -0.075, 0.386, -0.685, 0
3243299, -0.874, 0.487, -0.101, 0.076, 0.511, -0.563, 0
3243319, -0.056, 0.29, 0.279, 0.059, 0.332, -0.469, 0
3243339, 0.069, 1.181, 0.881, -0.017, 0.383, -0.596, 0
3243359, -0.364, 2.536, 0.773, 0.183, 0.602, -0.718, 0
3243379, -0.46, 2.272, 0.048, 0.555, 0.328, -0.58, 0
3243399, -1.251, 2.025, -0.756, 0.565, 0.265, -0.486, 0
3243419, -0.89, 1.736, -1.017, 0.463, 0.381, -0.459, 0
3243439, -0.555, 2.028, -0.611, 0.368, 0.517, -0.472, 0
3243459, -0.241, 2.795, -0.023, 0.45, 0.544, -0.436, 0
3243479, 0.203, 2.813, 0.162, 0.604, 0.254, -0.332, 0
3243499, -0.557, 2.788, 0.152, 0.772, 0.309, -0.257, 0
3243519, -0.275, 2.143, -0.378, 0.7, 0.326, -0.173, 0
3243539, 0.302, 1.413, -0.828, 0.566, 0.175, -0.114, 0
3243559, 0.364, 1.262, -0.857, 0.609, 0.13, -0.112, 0
3243579, 0.143, 0.92, -1.098, 0.596, 0.17, -0.127, 0
3243599, -0.1, 1.213, -0.962, 0.531, 0.345, -0.177, 0
3243619, 0.133, 1.363, -0.617, 0.421, 0.354, -0.18, 0
3243639, -0.304, 1.566, -0.721, 0.254, 0.245, -0.09, 0
3243659, -0.601, 1.557, -0.847, 0.067, 0.145, 0.019, 0
3243679, -0.593, 1.407, -0.543, -0.079, -0.015, 0.131, 0
3243699, -0.825, 1.143, -0.453, -0.122, -0.029, 0.199, 0
3243719, -0.644, 0.409, -0.744, -0.213, 0.009, 0.262, 0
3243739, -0.28, -0.413, -1.307, -0.433, -0.053, 0.343, 0
3243759, -0.062, -0.946, -1.839, -0.707, -0.036, 0.37, 1
3243779, 0.256, -1.025, -2.231, -1.015, 0.205, 0.31, 1
3243799, 0.034, -0.656, -2.085, -1.178, 0.489, 0.163, 1
3243819, 0.538, -0.044, -0.949, -1.106, 0.377, 0.091, 1
3243839, 0.433, 0.853, 0.041, -0.961, 0.144, 0.062, 1
3243859, 0.135, 1.946, 0.756, -0.643, -0.093, 0.183, 1
3243879, 0.419, 0.908, 0.129, -0.591, -0.458, 0.268, 1
3243899, 0.158, 0.315, -0.221, -0.73, -0.574, 0.35, 1
3243919, 0.085, 0.445, -0.226, -0.803, -0.554, 0.369, 1
3243939, 0.145, 0.809, 0.11, -0.652, -0.363, 0.347, 1
3243959, 1.082, -0.478, -0.096, -0.432, -0.16, 0.312, 1
3243979, 1.743, -2.178, -0.516, -0.729, -0.444, 0.319, 1
3243999, 0.381, -1.114, -0.396, -1.253, -1.028, 0.274, 1
3244019, -1.563, 0.088, -0.747, -1.171, -0.973, 0.312, 1
3244039, -1.567, -0.764, -1.216, -0.726, -0.257, 0.425, 1
3244059, 0.522, -2.605, -0.968, -0.618, 0.094, 0.527, 1
3244079, 0.392, -2.251, -0.101, -0.86, -0.334, 0.533, 1
3244099, -0.612, -1.859, -0.222, -0.645, -0.524, 0.564, 1
3244119, -0.296, -2.949, -0.538, -0.256, -0.246, 0.598, 1
3244139, 0.528, -4.26, -1.231, -0.088, 0.025, 0.471, 1
3244159, 1.121, -4.415, -1.465, -0.188, -0.117, 0.39, 1
3244179, 0.383, -3.65, -1.27, -0.368, -0.562, 0.292, 1
3244199, -0.828, -2.466, -0.425, -0.353, -0.531, 0.256, 1
3244219, -1.565, -1.758, -0.074, 0.083, -0.051, 0.257, 1
3244239, -0.529, -3.67, -1.14, 0.544, 0.452, 0.358, 1
3244259, 2.217, -4.963, -1.178, -0.099, -0.139, 0.394, 1
3244279, 0.194, -2.652, -0.144, -0.792, -1.133, 0.184, 1
3244299, -2.087, -1.327, 0.053, -0.523, -0.858, 0.029, 1
3244319, -3.099, -0.237, 0.624, 0.196, 0.29, 0.069, 1
3244339, 1.543, -4.061, -0.246, 0.616, 0.806, 0.266, 1
3244359, 2.48, -4.295, -0.251, -0.777, -1.272, 0.085, 1
3244379, -1.109, -1.852, -0.075, -0.699, -1.244, -0.021, 1
3244399, -3.946, -0.652, -0.271, 0.091, 0.15, 0.185, 1
3244419, -2.289, -1.189, 0.311, 0.661, 1.142, 0.407, 1
3244439, 3.183, -4.498, -0.086, -0.131, -0.062, 0.235, 1
3244459, 1.46, -3.189, 0.161, -0.724, -1.275, 0.061, 1
3244479, -1.858, -1.665, 0.028, -0.444, -0.698, 0.054, 1
3244499, -2.24, -1.041, 0.316, 0.163, 0.379, 0.191, 1
3244519, -0.045, -2.089, 0.26, 0.314, 0.469, 0.201, 1
3244539, 1.028, -2.873, -0.384, -0.081, -0.244, 0.179, 1
3244559, 0.429, -2.523, -0.427, -0.369, -0.522, 0.059, 1
3244579, -0.659, -1.647, -0.273, -0.252, -0.147, -0.007, 1
3244599, -0.879, -1.247, -0.263, -0.038, 0.234, 0.056, 1
3244619, -0.07, -1.522, -0.211, 0.0, 0.172, 0.097, 1
3244639, 0.6, -1.897, -0.174, -0.147, -0.095, 0.052, 1
3244659, 0.219, -1.686, -0.119, -0.27, -0.253, -0.018, 1
3244679, -0.909, -1.051, -0.113, -0.162, 0.023, -0.029, 1
3244699, -0.499, -1.04, 0.035, 0.047, 0.217, 0.025, 1
3244719, 0.34, -1.566, 0.03, 0.135, 0.025, 0.041, 1
3244739, 0.595, -1.735, -0.091, 0.156, -0.224, 0.015, 1
3244759, -0.308, -2.036, -0.764, 0.123, -0.081, 0.021, 0
3244779, 0.083, -2.332, -0.939, 0.141, 0.139, 0.003, 0
3244799, 0.058, -2.708, -1.026, 0.24, 0.127, -0.023, 0
3244819, -0.504, -3.384, -0.762, 0.218, 0.224, -0.032, 0
3244839, -0.267, -3.369, -0.535, -0.057, 0.478, -0.109, 0
3244859, 0.122, -3.26, -0.476, -0.171, 0.261, -0.212, 0
3244879, -0.389, -3.301, -0.582, -0.131, 0.172, -0.27, 0
3244899, -0.611, -2.381, -0.012, -0.221, 0.205, -0.375, 0
3244919, -1.186, -1.392, 0.163, -0.235, 0.315, -0.413, 0
3244939, -0.532, -1.269, 0.428, -0.129, 0.376, -0.333, 0
3244959, -0.539, -1.286, 0.801, 0.009, 0.379, -0.313, 0
3244979, 0.877, -1.479, 1.179, 0.168, 0.369, -0.343, 0
3244999, 0.319, -0.589, 0.441, 0.293, 0.204, -0.485, 0
3245019, -0.098, 0.409, -0.396, 0.33, 0.298, -0.571, 0
3245039, -0.546, 0.763, -0.977, 0.413, 0.415, -0.555, 0
3245059, -0.591, 0.152, -1.431, 0.463, 0.635, -0.528, 0
3245079, -0.45, -0.262, -1.132, 0.166, 0.666, -0.53, 0
3245099, -0.102, 0.64, 0.097, -0.025, 0.587, -0.568, 0
3245119, -0.443, 1.799, 0.77, 0.238, 0.566, -0.621, 0
3245139, -0.45, 2.235, 0.938, 0.604, 0.751, -0.634, 0
3245159, -0.107, 2.095, 0.988, 0.679, 0.652, -0.586, 0
3245179, -1.047, 2.155, 0.286, 0.657, 0.372, -0.546, 0
3245199, -1.019, 1.87, -0.314, 0.681, 0.318, -0.479, 0
3245219, -0.989, 2.354, -0.271, 0.651, 0.362, -0.395, 0
3245239, -0.107, 2.227, -0.214, 0.596, 0.38, -0.253, 0
3245259, -0.302, 1.825, -1.031, 0.66, 0.205, -0.095, 0
3245279, 0.141, 0.971, -1.579, 0.654, 0.287, -0.022, 0
3245299, -0.115, 1.217, -1.361, 0.507, 0.326, -0.063, 0
3245319, 0.068, 1.496, -1.144, 0.585, 0.488, -0.031, 0
3245339, 0.807, 0.814, -1.17, 0.434, 0.392, -0.006, 0
3245359, 0.632, 0.674, -0.936, 0.227, 0.271, -0.032, 0
3245379, 0.053, 1.114, -0.616, 0.208, 0.326, -0.04, 0
3245399, -0.064, 1.211, -0.409, 0.158, 0.248, -0.017, 0
3245419, 0.088, 1.062, -0.455, 0.05, 0.124, 0.018, 0
3245439, -0.094, 1.01, -0.668, -0.026, 0.029, 0.036, 0
3245459, -0.352, 0.668, -1.187, -0.069, -0.017, 0.073, 0
3245479, -0.185, 0.135, -1.72, -0.295, -0.053, 0.104, 0
3245499, -0.081, 0.204, -1.202, -0.541, -0.04, 0.111, 0
3245519, -0.449, 0.619, -0.479, -0.59, 0.056, 0.128, 0
3245539, -0.149, 0.438, -0.286, -0.554, -0.09, 0.241, 0
3245559, 0.314, -0.235, -0.834, -0.655, -0.299, 0.337, 0
3245579, 0.408, -0.362, -1.279, -0.786, -0.222, 0.304, 1
3245599, 0.285, -0.353, -1.332, -0.881, 0.073, 0.237, 1
3245619, -0.727, 0.43, -1.288, -1.028, 0.498, 0.147, 1
3245639, -0.092, 1.077, 0.227, -1.117, 0.513, 0.103, 1
3245659, 1.169, 0.914, 1.355, -1.037, -0.334, 0.237, 1
3245679, 0.528, 0.499, 0.752, -0.577, -1.158, 0.466, 1
3245699, -1.077, 0.566, -0.297, -0.064, -0.665, 0.441, 1
3245719, -0.895, 0.322, -0.338, 0.356, 0.45, 0.341, 1
3245739, 0.993, -1.102, -0.193, 0.024, 0.615, 0.29, 1
3245759, 0.967, -1.294, 0.435, -0.425, 0.053, 0.307, 1
3245779, 0.173, -0.548, 1.173, -0.35, -0.267, 0.387, 1
3245799, -0.141, -0.434, 0.984, -0.054, -0.233, 0.361, 1
3245819, -0.321, -1.503, -0.067, -0.411, -0.111, 0.312, 1
3245839, -0.615, -1.69, -0.364, -0.946, -0.302, 0.249, 1
3245859, -0.904, -1.651, -1.028, -0.81, -0.329, 0.27, 1
3245879, -0.433, -2.201, -1.256, -0.591, -0.05, 0.465, 1
3245899, 0.378, -3.301, -0.977, -0.595, 0.182, 0.493, 1
3245919, 0.6, -3.507, -0.826, -0.941, -0.225, 0.369, 1
3245939, -0.29, -2.796, -0.843, -1.075, -0.791, 0.287, 1
3245959, -1.228, -2.531, -1.17, -0.816, -0.642, 0.178, 1
3245979, -1.09, -2.894, -1.386, -0.533, -0.085, 0.308, 1
3245999, -0.439, -2.866, -1.014, -0.448, 0.008, 0.596, 1
3246019, -0.124, -3.144, -0.748, -0.39, -0.31, 0.7, 1
3246039, -0.338, -3.326, -0.812, -0.187, -0.432, 0.678, 1
3246059, -0.371, -4.046, -1.105, 0.004, -0.07, 0.574, 1
3246079, 0.609, -4.493, -1.007, -0.206, 0.189, 0.302, 1
3246099, 0.442, -3.481, -0.41, -0.488, -0.114, 0.288, 1
3246119, -0.56, -2.63, -0.061, -0.372, -0.389, 0.322, 1
3246139, -1.586, -2.493, 0.017, -0.047, -0.091, 0.39, 1
3246159, -0.154, -3.41, -0.124, 0.138, 0.529, 0.424, 1
3246179, 1.757, -3.823, 0.112, -0.127, 0.345, 0.252, 1
3246199, 1.232, -2.94, 0.244, -0.426, -0.401, 0.014, 1
3246219, -0.892, -1.71, -0.01, -0.257, -0.651, 0.065, 1
3246239, -1.294, -1.495, -0.17, 0.109, -0.141, 0.23, 1
3246259, 0.543, -2.67, -0.3, 0.197, 0.313, 0.243, 1
3246279, 1.853, -2.53, -0.026, -0.146, -0.011, 0.018, 1
3246299, 0.151, -1.983, -0.115, -0.259, -0.532, -0.141, 1
3246319, -1.068, -1.498, -0.145, -0.096, -0.198, -0.027, 1
3246339, -0.696, -1.264, 0.193, 0.089, 0.083, -0.004, 1
3246359, 0.379, -1.728, 0.117, 0.058, -0.059, -0.1, 1
3246379, 0.036, -1.708, -0.22, -0.078, -0.279, -0.177, 1
3246399, -0.771, -1.013, -0.151, -0.008, -0.274, -0.11, 1
3246419, -0.794, -0.854, -0.004, 0.167, -0.114, -0.01, 1
3246439, -0.233, -1.396, -0.281, 0.293, -0.092, 0.027, 1
3246459, 0.826, -2.574, -0.473, 0.109, -0.31, -0.01, 0
3246479, -0.401, -2.361, -0.843, -0.05, -0.255, -0.091, 0
3246499, -1.106, -2.207, -0.542, 0.025, 0.121, 0.031, 0
3246519, -0.597, -2.763, -0.372, 0.059, 0.267, 0.204, 0
3246539, 0.766, -3.626, -0.096, -0.034, 0.062, 0.094, 0
3246559, 0.255, -3.902, -0.339, -0.182, -0.009, -0.095, 0
3246579, -1.054, -3.556, -0.636, -0.233, 0.301, -0.229, 0
3246599, -0.794, -2.798, -0.072, -0.045, 0.483, -0.224, 0
3246619, -0.233, -2.867, 0.483, 0.034, 0.321, -0.27, 0
3246639, -0.919, -1.826, 0.259, 0.173, 0.27, -0.266, 0
3246659, -0.687, -1.209, -0.286, 0.127, 0.174, -0.29, 0
3246679, -0.886, -1.589, -1.01, -0.179, 0.129, -0.389, 0
3246699, -0.655, -1.489, -0.714, -0.346, 0.115, -0.463, 0
3246719, -1.123, -0.452, -0.273, -0.24, 0.368, -0.537, 0
3246739, -0.154, -0.067, 0.056, -0.176, 0.419, -0.617, 0
3246759, -0.345, 1.171, -0.066, -0.028, 0.248, -0.543, 0
3246779, -0.634, 1.122, -0.728, 0.108, 0.306, -0.53, 0
3246799, -0.579, 0.907, -0.931, 0.259, 0.488, -0.619, 0
3246819, -0.743, 1.704, -0.646, 0.311, 0.533, -0.628, 0
3246839, -0.835, 3.067, 0.305, 0.268, 0.738, -0.612, 0
3246859, -0.489, 3.328, 0.57, 0.337, 0.707, -0.465, 0
3246879, -0.202, 2.868, 0.606, 0.548, 0.469, -0.332, 0
3246899, -0.088, 2.243, 0.258, 0.673, 0.493, -0.35, 0
3246919, -0.082, 2.137, 0.103, 0.538, 0.55, -0.414, 0
3246939, -0.474, 2.828, 0.116, 0.498, 0.525, -0.413, 0
3246959, -0.01, 2.077, -0.545, 0.631, 0.423, -0.257, 0
3246979, 0.326, 1.392, -0.95, 0.496, 0.299, -0.167, 0
3246999, -0.114, 1.596, -0.851, 0.375, 0.279, -0.146, 0
3247019, -0.349, 1.51, -0.855, 0.386, 0.434, -0.139, 0
3247039, -0.027, 0.606, -0.955, 0.348, 0.405, -0.078, 0
3247059, -0.146, 0.939, -0.307, 0.158, 0.244, -0.034, 0
3247079, -0.313, 1.624, 0.286, 0.211, 0.311, -0.031, 0
3247099, -0.078, 1.403, 0.116, 0.278, 0.273, 0.015, 0
3247119, -0.124, 1.327, -0.017, 0.163, 0.121, 0.038, 0
3247139, -0.219, 1.138, -0.239, 0.068, -0.067, 0.073, 0
3247159, -0.39, 1.032, -0.67, -0.017, -0.141, 0.118, 0
3247179, -0.314, 0.772, -0.864, -0.093, -0.171, 0.151, 0
3247199, -0.133, 0.406, -1.088, -0.244, -0.161, 0.182, 0
3247219, -0.045, 0.077, -1.516, -0.409, -0.168, 0.234, 0
3247239, 0.094, -0.117, -1.654, -0.583, -0.153, 0.276, 0
3247259, 0.234, -0.074, -1.339, -0.786, 0.02, 0.282, 1
3247279, 0.294, 0.02, -0.887, -0.955, 0.177, 0.234, 1
3247299, 0.343, 0.04, -0.593, -1.088, 0.176, 0.199, 1
3247319, 0.53, 0.11, -0.377, -1.075, -0.001, 0.197, 1
3247339, 0.26, 0.271, -0.14, -0.887, -0.174, 0.264, 1
3247359, 0.164, 0.682, -0.06, -0.661, -0.226, 0.334, 1
3247379, -0.543, 0.854, 0.329, -0.453, 0.04, 0.376, 1
3247399, 0.179, 0.581, 0.797, -0.379, -0.011, 0.398, 1
3247419, 0.134, 0.191, 0.78, -0.32, -0.328, 0.488, 1
3247439, -0.155, -0.13, 0.541, -0.354, -0.485, 0.47, 1
3247459, -0.463, -0.174, 0.299, -0.285, -0.356, 0.437, 1
3247479, 0.095, -0.858, -0.035, -0.205, -0.262, 0.368, 1
3247499, 0.714, -1.904, -0.59, -0.266, -0.56, 0.394, 1
3247519, 0.816, -2.449, -1.44, -0.511, -1.166, 0.42, 1
3247539, 0.575, -2.832, -2.375, -0.689, -1.32, 0.42, 1
3247559, 0.264, -2.977, -2.743, -0.758, -0.879, 0.147, 1
3247579, -0.735, -2.385, -2.401, -0.546, -0.181, 0.165, 1
3247599, 0.216, -2.689, -1.547, -0.432, -0.09, 0.233, 1
3247619, 0.703, -3.235, -1.107, -0.641, -0.555, 0.266, 1
3247639, 0.194, -2.846, -0.737, -0.784, -0.872, 0.212, 1
3247659, -1.614, -1.775, -0.337, -0.576, -0.55, 0.249, 1
3247679, -2.352, -0.888, 0.409, 0.171, 0.197, 0.494, 1
3247699, -1.101, -3.031, -0.14, 0.367, 0.312, 0.687, 1
3247719, 2.093, -5.207, -0.741, -0.478, -0.892, 0.648, 1
3247739, 0.595, -3.859, -0.364, -1.058, -1.586, 0.36, 1
3247759, -2.256, -2.187, -0.124, -0.678, -0.648, 0.197, 1
3247779, -2.458, -1.873, 0.292, 0.423, 0.792, 0.471, 1
3247799, 1.987, -5.078, -0.768, 0.145, -0.13, 0.437, 1
3247819, -0.456, -3.467, -0.615, -0.461, -0.959, 0.337, 1
3247839, -1.327, -2.356, 0.2, -0.386, -0.445, 0.282, 1
3247859, -0.834, -2.117, 0.311, 0.105, 0.553, 0.162, 1
3247879, -0.342, -2.415, 0.03, 0.615, 1.024, 0.287, 1
3247899, 1.566, -4.243, -0.703, 0.526, 0.655, 0.414, 1
3247919, 1.862, -3.622, -0.244, -0.257, -0.412, 0.266, 1
3247939, -0.4, -2.123, -0.052, -0.514, -0.85, 0.029, 1
3247959, -1.949, -1.541, -0.358, -0.178, -0.2, 0.014, 1
3247979, -0.895, -2.048, -0.218, 0.248, 0.69, 0.211, 1
3247999, 1.474, -2.677, 0.03, 0.268, 0.737, 0.213, 1
3248019, 1.012, -2.392, -0.318, 0.031, -0.015, 0.067, 1
3248039, -0.505, -1.718, -0.421, -0.141, -0.341, -0.001, 1
3248059, -1.213, -0.989, -0.147, -0.086, 0.119, -0.021, 1
3248079, -0.972, -0.551, 0.018, 0.169, 0.696, 0.081, 1
3248099, 0.399, -1.599, -0.215, 0.328, 0.715, 0.208, 1
3248119, 1.041, -2.188, -0.238, 0.037, 0.185, 0.139, 1
3248139, 0.389, -1.772, 0.16, -0.281, -0.274, 0.023, 1
3248159, -0.657, -1.18, 0.328, -0.213, -0.194, -0.087, 1
3248179, -0.804, -1.002, 0.253, 0.104, 0.155, -0.085, 1
3248199, -0.14, -2.002, -0.338, 0.312, 0.246, -0.063, 1
3248219, 0.763, -2.601, -0.396, 0.017, -0.157, -0.036, 1
3248239, -0.243, -1.679, 0.049, -0.19, -0.53, -0.109, 1
3248259, -1.135, -1.306, -0.129, 0.251, -0.039, -0.07, 0
3248279, -0.829, -2.235, -0.745, 0.299, 0.276, -0.053, 0
3248299, 0.169, -3.118, -0.737, 0.104, 0.041, -0.019, 0
3248319, -0.42, -3.313, -0.437, -0.081, -0.035, -0.041, 0
3248339, -0.813, -2.723, 0.427, -0.016, 0.357, -0.062, 0
3248359, 0.0, -3.262, 0.289, 0.076, 0.456, -0.171, 0
3248379, -0.242, -4.077, -0.969, -0.22, 0.327, -0.219, 0
3248399, -0.063, -3.911, -0.846, -0.561, 0.164, -0.286, 0
3248419, 0.221, -2.52, 0.402, -0.571, 0.176, -0.388, 0
3248439, -0.742, -1.213, 0.547, -0.239, 0.392, -0.453, 0
3248459, -1.407, -1.306, -0.237, 0.029, 0.496, -0.334, 0
3248479, -0.103, -2.39, -0.584, -0.18, 0.299, -0.411, 0
3248499, -0.248, -1.52, -0.187, -0.404, 0.326, -0.513, 0
3248519, -0.147, 0.117, 0.359, -0.079, 0.37, -0.487, 0
3248539, -0.264, 0.509, -0.131, 0.284, 0.54, -0.489, 0
3248559, -0.255, -0.097, -0.965, 0.221, 0.554, -0.549, 0
3248579, -0.411, 0.063, -0.638, 0.04, 0.622, -0.628, 0
3248599, -0.065, 0.771, 0.205, 0.009, 0.52, -0.635, 0
3248619, -0.631, 2.582, 0.858, 0.295, 0.503, -0.547, 0
3248639, -1.176, 2.94, 0.416, 0.723, 0.651, -0.469, 0
3248659, -0.682, 1.805, -1.124, 0.709, 0.644, -0.455, 0
3248679, -0.318, 2.163, -1.304, 0.456, 0.529, -0.48, 0
3248699, -0.918, 3.161, -1.266, 0.491, 0.479, -0.417, 0
3248719, -1.353, 3.156, -1.444, 0.533, 0.572, -0.274, 0
3248739, -0.822, 2.768, -0.916, 0.507, 0.483, -0.017, 0
3248759, -0.406, 2.384, -0.161, 0.524, 0.35, 0.073, 0
3248779, 0.684, 1.091, -0.785, 0.511, 0.258, 0.027, 0
3248799, 0.809, 0.508, -0.904, 0.365, 0.196, -0.049, 0
3248819, -0.035, 0.931, -0.501, 0.248, 0.23, -0.154, 0
3248839, -0.187, 1.605, 0.157, 0.243, 0.376, -0.207, 0
3248859, -0.05, 1.724, 0.283, 0.233, 0.21, -0.075, 0
3248879, -0.077, 1.758, 0.513, 0.169, 0.036, 0.037, 0
3248899, -0.626, 1.685, 0.301, 0.241, 0.014, 0.078, 0
3248919, -0.555, 1.325, -0.07, 0.215, 0.091, 0.12, 0
3248939, -0.285, 1.123, -0.036, -0.018, 0.064, 0.156, 0
3248959, -0.032, 0.921, -0.114, -0.263, -0.015, 0.18, 0
3248979, -0.252, 0.377, -1.011, -0.449, -0.1, 0.234, 1
3248999, -0.364, 0.001, -1.741, -0.562, -0.047, 0.271, 1
3249019, 0.264, -0.235, -1.719, -0.709, 0.082, 0.253, 1
3249039, 0.162, 0.318, -1.11, -0.806, 0.221, 0.122, 1
3249059, 0.127, 0.693, -0.246, -0.828, 0.401, -0.018, 1
3249079, 0.075, 1.463, 0.579, -0.791, 0.293, -0.006, 1
3249099, -0.178, 1.432, 0.514, -0.577, -0.017, 0.207, 1
3249119, -0.093, 0.753, 0.074, -0.357, -0.054, 0.327, 1
3249139, 0.205, -0.135, -0.434, -0.356, -0.069, 0.344, 1
3249159, 0.357, -0.43, -0.398, -0.574, -0.163, 0.302, 1
3249179, -0.356, 0.089, -0.143, -0.57, -0.197, 0.282, 1
3249199, -0.261, 0.037, -0.182, -0.193, 0.038, 0.322, 1
3249219, 0.573, -1.255, -0.577, 0.066, 0.168, 0.387, 1
3249239, 1.673, -2.971, -1.066, -0.671, -0.524, 0.31, 1
3249259, 0.662, -1.97, -0.853, -1.133, -1.048, 0.256, 1
3249279, -1.243, -0.539, -0.675, -0.784, -0.729, 0.439, 1
3249299, -0.88, -1.484, -1.163, -0.149, -0.128, 0.485, 1
3249319, 0.507, -3.274, -2.149, -0.059, 0.021, 0.503, 1
3249339, 1.507, -4.31, -2.707, -0.628, -0.419, 0.441, 1
3249359, -0.073, -3.217, -2.103, -0.995, -0.375, 0.415, 1
3249379, -1.137, -2.018, -0.826, -0.67, 0.208, 0.458, 1
3249399, -0.288, -2.554, -0.194, -0.304, 0.333, 0.48, 1
3249419, 1.664, -4.441, -0.756, -0.59, -0.359, 0.398, 1
3249439, 0.57, -3.543, -0.545, -0.83, -0.803, 0.289, 1
3249459, -1.524, -1.961, -0.121, -0.423, -0.282, 0.335, 1
3249479, -1.918, -1.721, -0.131, 0.2, 0.434, 0.487, 1
3249499, 2.193, -4.655, -0.78, -0.271, -0.268, 0.313, 1
3249519, 1.32, -3.756, -0.552, -0.766, -1.091, 0.065, 1
3249539, -1.361, -1.737, -0.138, -0.415, -0.696, 0.15, 1
3249559, -2.606, -0.978, -0.008, 0.314, 0.41, 0.27, 1
3249579, -0.193, -2.957, -0.434, 0.365, 0.766, 0.291, 1
3249599, 2.333, -4.066, -0.273, -0.357, -0.351, 0.053, 1
3249619, 0.119, -2.526, 0.109, -0.55, -0.98, 0.063, 1
3249639, -1.364, -1.583, 0.29, -0.156, -0.409, 0.098, 1
3249659, -1.238, -1.646, 0.086, 0.156, 0.26, 0.137, 1
3249679, 0.397, -2.429, -0.486, -0.006, 0.006, 0.194, 1
3249699, 1.384, -2.878, -0.502, -0.332, -0.641, 0.12, 1
3249719, 0.67, -2.465, -0.133, -0.348, -0.711, -0.074, 1
3249739, -1.795, -1.722, -0.25, 0.069, 0.014, -0.045, 1
3249759, 0.151, -2.004, -0.136, 0.167, 0.307, 0.151, 1
3249779, 1.151, -2.265, 0.098, -0.086, -0.152, 0.05, 1
3249799, -0.433, -1.579, 0.097, -0.234, -0.502, -0.049, 1
3249819, -1.387, -1.018, 0.228, -0.114, -0.205, -0.025, 1
3249839, -0.537, -1.155, 0.421, 0.04, 0.116, 0.066, 1
3249859, 0.008, -1.574, 0.357, 0.069, 0.084, 0.071, 1
3249879, 0.108, -1.635, 0.184, -0.007, -0.045, 0.016, 1
3249899, -0.364, -1.447, 0.093, -0.031, -0.197, 0.014, 1
3249919, -0.749, -1.192, 0.09, 0.061, -0.081, 0.053, 1
3249939, -0.122, -1.668, 0.106, 0.226, 0.157, 0.075, 1
3249959, 1.06, -2.556, 0.0, 0.26, 0.117, 0.021, 1
3249979, 0.624, -2.934, -0.268, 0.141, -0.246, -0.1, 1
3249999, -0.524, -2.731, -0.517, 0.054, -0.251, -0.088, 0
3250019, -0.637, -2.657, -0.289, 0.239, 0.113, -0.012, 0
3250039, 0.396, -3.513, -0.33, 0.458, 0.387, -0.018, 0
3250059, 0.537, -4.153, -0.877, 0.319, 0.4, -0.161, 0
3250079, -0.018, -3.504, -0.704, -0.003, 0.403, -0.289, 0
3250099, -0.637, -2.571, -0.413, -0.199, 0.365, -0.282, 0
3250119, -1.195, -1.711, 0.113, -0.174, 0.429, -0.241, 0
3250139, -0.584, -1.549, 0.207, 0.016, 0.516, -0.213, 0
3250159, -0.053, -1.583, -0.327, -0.005, 0.359, -0.153, 0
3250179, -0.448, -1.209, -0.368, -0.141, 0.262, -0.246, 0
3250199, 0.141, -0.502, -0.296, -0.237, 0.197, -0.323, 0
3250219, -0.09, 0.004, -0.529, -0.176, 0.174, -0.392, 0
3250239, -0.338, 0.481, -0.25, -0.029, 0.302, -0.384, 0
3250259, 0.482, -0.482, -0.172, 0.02, 0.206, -0.487, 0
3250279, -0.065, 0.5, 0.15, 0.057, 0.284, -0.642, 0
3250299, -0.468, 1.706, 0.033, 0.375, 0.382, -0.598, 0
3250319, 0.161, 1.027, -0.7, 0.39, 0.246, -0.612, 0
3250339, -0.695, 1.088, -1.396, 0.306, 0.265, -0.602, 0
3250359, -1.467, 1.852, -0.884, 0.39, 0.531, -0.558, 0
3250379, -0.726, 1.825, -0.266, 0.519, 0.504, -0.489, 0
3250399, -0.641, 1.874, -0.206, 0.613, 0.475, -0.464, 0
3250419, -0.507, 1.914, -0.569, 0.619, 0.465, -0.433, 0
3250439, -0.498, 1.787, -0.626, 0.507, 0.403, -0.367, 0
3250459, -1.178, 2.252, -0.321, 0.538, 0.472, -0.306, 0
3250479, -0.952, 1.883, 0.041, 0.578, 0.485, -0.226, 0
3250499, -0.336, 1.631, 0.142, 0.549, 0.291, -0.164, 0
3250519, -0.015, 1.666, -0.077, 0.559, 0.131, -0.114, 0
3250539, -0.316, 1.594, -0.613, 0.492, 0.048, -0.108, 0
3250559, -0.77, 1.543, -1.325, 0.397, 0.148, -0.108, 0
3250579, -0.28, 1.377, -1.413, 0.241, 0.112, -0.05, 0
3250599, -0.026, 1.087, -1.125, 0.152, -0.041, 0.042, 0
3250619, -0.089, 0.682, -1.01, 0.081, -0.061, 0.092, 0
3250639, -0.273, 0.539, -0.74, 0.01, 0.028, 0.116, 0
3250659, 0.007, 0.478, -0.238, -0.073, 0.092, 0.098, 0
3250679, 0.119, 0.753, 0.124, -0.126, 0.011, 0.149, 0
3250699, -0.014, 0.647, 0.066, -0.276, -0.026, 0.238, 0
3250719, -0.181, 0.533, -0.04, -0.35, 0.001, 0.27, 0
3250739, -0.168, 0.089, -0.984, -0.474, 0.109, 0.313, 1
3250759, 0.219, -0.304, -1.579, -0.791, 0.213, 0.36, 1
3250779, 0.087, 0.343, -0.916, -1.056, 0.233, 0.321, 1
3250799, -0.192, 1.068, -0.045, -0.911, 0.35, 0.265, 1
3250819, -0.069, 0.998, 0.21, -0.593, 0.352, 0.188, 1
3250839, 0.446, 0.08, -0.571, -0.43, 0.262, 0.25, 1
3250859, 0.159, -0.027, -0.962, -0.653, -0.047, 0.394, 1
3250879, -0.489, 0.616, -0.319, -0.836, 0.118, 0.39, 1
3250899, -0.089, 0.442, 0.527, -0.675, 0.356, 0.381, 1
3250919, 1.051, -0.333, 0.245, -0.483, 0.178, 0.378, 1
3250939, 0.098, -0.305, -0.38, -0.517, -0.182, 0.359, 1
3250959, -0.745, -0.139, -0.336, -0.495, -0.026, 0.399, 1
3250979, -0.191, -0.859, -0.258, -0.372, 0.317, 0.371, 1
3250999, 0.991, -1.806, -0.301, -0.447, 0.19, 0.349, 1
3251019, 0.728, -1.757, -0.44, -0.589, -0.31, 0.34, 1
3251039, -0.273, -1.71, -0.769, -0.611, -0.462, 0.319, 1
3251059, -0.976, -1.854, -0.707, -0.533, -0.085, 0.378, 1
3251079, -0.396, -2.492, -0.73, -0.431, 0.316, 0.398, 1
3251099, 1.588, -3.561, -0.654, -0.449, 0.222, 0.427, 1
3251119, 0.841, -3.157, -0.725, -0.716, -0.607, 0.316, 1
3251139, -0.896, -2.666, -1.107, -0.647, -0.821, 0.282, 1
3251159, -1.728, -2.52, -1.323, -0.378, -0.296, 0.337, 1
3251179, -0.507, -3.015, -1.091, -0.17, 0.211, 0.538, 1
3251199, 1.656, -4.179, -0.63, -0.613, -0.898, 0.486, 1
3251219, -0.27, -3.24, -0.539, -0.555, -1.243, 0.365, 1
3251239, -2.194, -2.516, -0.869, -0.151, -0.463, 0.392, 1
3251259, -2.127, -2.439, -0.774, 0.132, 0.407, 0.462, 1
3251279, 0.17, -3.266, -0.63, 0.02, 0.351, 0.498, 1
3251299, 2.01, -3.957, -0.495, -0.519, -0.857, 0.283, 1
3251319, -0.088, -2.751, -0.141, -0.59, -1.174, 0.204, 1
3251339, -1.835, -1.984, -0.424, -0.167, -0.276, 0.163, 1
3251359, -2.089, -1.653, -0.674, 0.252, 0.638, 0.332, 1
3251379, -0.196, -2.942, -1.081, 0.198, 0.692, 0.452, 1
3251399, 2.892, -4.39, -0.798, -0.547, -0.442, 0.131, 1
3251419, 0.917, -2.649, 0.242, -0.679, -0.926, -0.11, 1
3251439, -1.395, -1.718, 0.082, -0.301, -0.342, -0.1, 1
3251459, -1.33, -1.312, -0.149, -0.013, 0.23, 0.077, 1
3251479, -0.561, -1.583, -0.244, 0.073, 0.361, 0.208, 1
3251499, 1.128, -2.712, -0.576, -0.284, -0.074, 0.053, 1
3251519, 0.304, -1.968, -0.089, -0.461, -0.411, -0.052, 1
3251539, -1.097, -1.0, 0.199, -0.187, -0.128, 0.091, 1
3251559, -0.819, -1.204, 0.215, 0.112, 0.304, 0.206, 1
3251579, 0.392, -2.095, -0.129, 0.117, 0.316, 0.139, 1
3251599, 1.078, -2.833, -0.362, -0.215, -0.01, -0.127, 1
3251619, 0.214, -1.989, 0.035, -0.378, -0.207, -0.216, 1
3251639, -0.512, -0.999, 0.443, -0.13, -0.095, -0.132, 1
3251659, -0.561, -0.994, 0.335, 0.191, 0.142, -0.068, 1
3251679, 0.318, -1.991, -0.123, 0.112, 0.137, -0.234, 1
3251699, -0.271, -1.619, -0.215, 0.03, -0.04, -0.227, 1
3251719, -0.259, -1.736, -0.148, 0.129, -0.027, -0.152, 1
3251739, 0.54, -2.514, 0.274, 0.351, -0.114, -0.049, 0
3251759, -0.232, -2.575, 0.131, 0.511, -0.015, -0.124, 0
3251779, 0.086, -2.827, -0.169, 0.488, 0.219, -0.113, 0
3251799, 0.487, -2.698, -0.013, 0.281, 0.049, -0.136, 0
3251819, 0.174, -2.671, 0.098, 0.116, -0.266, -0.207, 0
3251839, -0.807, -2.556, -0.705, 0.006, -0.085, -0.393, 0
3251859, -0.81, -2.555, -1.059, -0.171, 0.274, -0.424, 0
3251879, -0.198, -1.693, -0.275, -0.255, 0.152, -0.404, 0
3251899, -0.604, -0.975, 0.176, -0.139, -0.097, -0.313, 0
3251919, -0.774, -0.783, 0.184, 0.178, 0.15, -0.346, 0
3251939, -0.355, -1.026, -0.486, 0.271, 0.5, -0.39, 0
3251959, 0.567, -1.059, -0.992, 0.054, 0.205, -0.317, 0
3251979, -0.372, -0.322, -1.144, -0.193, -0.266, -0.309, 0
3251999, -1.206, 0.607, -0.922, -0.095, 0.025, -0.398, 0
3252019, -0.525, 0.342, -0.985, 0.234, 0.553, -0.45, 0
3252039, -0.039, -0.175, -1.334, 0.177, 0.527, -0.463, 0
3252059, -0.616, 0.589, -1.19, 0.053, 0.37, -0.444, 0
3252079, -1.223, 1.672, -0.725, 0.195, 0.453, -0.412, 0
3252099, -0.714, 2.371, 0.088, 0.506, 0.869, -0.401, 0
3252119, 0.461, 2.49, 0.415, 0.649, 0.833, -0.406, 0
3252139, -0.038, 2.998, 0.184, 0.546, 0.511, -0.404, 0
3252159, -0.556, 3.348, -0.26, 0.542, 0.474, -0.411, 0
3252179, -0.815, 3.332, -0.384, 0.669, 0.58, -0.334, 0
3252199, -0.185, 2.383, -0.63, 0.502, 0.344, -0.216, 0
3252219, -0.074, 2.512, -0.277, 0.398, 0.262, -0.192, 0
3252239, -0.699, 2.871, -0.141, 0.555, 0.388, -0.18, 0
3252259, -0.061, 1.921, -0.719, 0.587, 0.296, -0.125, 0
3252279, -0.34, 1.496, -1.186, 0.33, 0.27, -0.065, 0
3252299, -0.023, 1.572, -0.611, 0.061, 0.323, -0.059, 0
3252319, 0.052, 2.198, 0.071, 0.096, 0.254, 0.0, 0
3252339, 0.008, 1.976, 0.064, 0.16, 0.122, 0.052, 0
3252359, 0.078, 1.362, -0.195, 0.012, 0.036, 0.08, 0
3252379, -0.416, 1.471, -0.236, -0.13, 0.042, 0.098, 0
3252399, -0.394, 1.379, -0.203, -0.174, -0.099, 0.186, 0
3252419, -0.529, 0.965, -0.325, -0.321, -0.129, 0.254, 0
3252439, -0.319, 0.54, -0.188, -0.439, -0.09, 0.291, 0
3252459, -0.152, 0.03, -0.372, -0.52, -0.049, 0.323, 1
3252479, -0.009, -0.669, -1.289, -0.804, 0.025, 0.33, 1
3252499, 0.337, -0.803, -1.302, -1.029, 0.152, 0.23, 1
3252519, 0.687, -0.076, -0.484, -0.921, 0.121, 0.114, 1
3252539, 0.182, 0.776, 0.291, -0.578, 0.132, 0.075, 1
3252559, 0.274, 1.065, 0.813, -0.328, 0.004, 0.089, 1
3252579, 0.486, 0.557, 0.408, -0.225, -0.387, 0.193, 1
3252599, -0.037, 0.685, -0.063, -0.293, -0.466, 0.298, 1
3252619, -0.445, 0.43, -0.263, -0.375, -0.247, 0.323, 1
3252639, -0.262, 0.383, -0.02, -0.456, -0.087, 0.244, 1
3252659, -0.38, 0.672, 0.429, -0.361, 0.083, 0.25, 1
3252679, -0.455, -0.045, 0.241, -0.131, -0.094, 0.383, 1
3252699, -0.027, -0.615, 0.17, -0.109, -0.138, 0.412, 1
3252719, 0.782, -0.952, -0.456, -0.149, -0.025, 0.284, 1
3252739, 0.261, -0.676, -0.834, -0.28, -0.061, 0.258, 1
3252759, 0.04, -0.75, -0.628, -0.12, 0.084, 0.298, 1
3252779, 0.903, -1.857, -0.957, -0.028, 0.085, 0.354, 1
3252799, 0.588, -2.011, -1.185, -0.287, -0.365, 0.436, 1
3252819, 0.025, -2.686, -1.425, -0.568, -0.811, 0.45, 1
3252839, -1.363, -1.806, -1.029, -0.624, -0.785, 0.422, 1
3252859, -1.902, -1.243, -0.6, -0.097, -0.037, 0.535, 1
3252879, -0.909, -2.319, -0.611, 0.59, 0.679, 0.779, 1
3252899, 2.126, -5.248, -1.431, 0.446, 0.525, 0.814, 1
3252919, 1.994, -5.0, -1.019, -0.812, -0.806, 0.447, 1
3252939, -0.553, -2.915, -0.416, -1.374, -1.411, 0.067, 1
3252959, -2.514, -1.69, -0.082, -0.85, -0.604, 0.095, 1
3252979, -1.495, -1.735, 0.704, 0.211, 0.578, 0.455, 1
3252999, 1.962, -4.866, -0.974, 0.839, 0.955, 0.624, 1
3253019, 3.025, -5.576, -1.397, -0.286, -0.671, 0.441, 1
3253039, -0.71, -2.874, -0.634, -1.262, -1.616, 0.029, 1
3253059, -2.236, -1.821, -0.111, -0.989, -0.67, 0.02, 1
3253079, -1.004, -1.543, 0.644, -0.193, 0.428, 0.326, 1
3253099, 0.06, -2.073, 0.511, 0.467, 0.69, 0.509, 1
3253119, 1.16, -3.167, -0.367, 0.453, 0.373, 0.551, 1
3253139, 1.435, -3.288, -0.513, -0.215, -0.387, 0.197, 1
3253159, -0.462, -1.957, -0.013, -0.583, -0.497, 0.127, 1
3253179, -0.951, -1.103, 0.585, -0.116, 0.017, 0.209, 1
3253199, -0.505, -1.188, 0.397, 0.312, 0.216, 0.287, 1
3253219, -0.151, -1.538, -0.069, 0.332, 0.233, 0.324, 1
3253239, 1.395, -3.028, -0.741, -0.223, -0.204, 0.1, 1
3253259, 0.659, -2.224, -0.353, -0.636, -0.588, -0.099, 1
3253279, -1.021, -0.745, 0.272, -0.373, -0.25, -0.009, 1
3253299, -0.812, -0.407, 0.665, 0.142, 0.225, 0.101, 1
3253319, -0.072, -0.895, 0.382, 0.406, 0.305, 0.131, 1
3253339, 0.396, -1.695, -0.326, 0.224, 0.117, 0.082, 1
3253359, 0.655, -2.005, -0.577, -0.257, -0.177, -0.064, 1
3253379, -0.131, -0.713, 0.137, -0.244, -0.189, -0.084, 1
3253399, -0.494, -0.289, 0.453, 0.159, 0.027, -0.003, 1
3253419, -0.002, -0.925, 0.079, 0.402, 0.125, 0.064, 1
3253439, 0.349, -1.753, -0.583, 0.231, 0.091, 0.003, 1
3253459, 0.604, -2.155, -0.756, -0.073, -0.133, -0.133, 1
3253479, 0.267, -1.389, -0.316, -0.086, -0.329, -0.125, 0
3253499, -0.776, -1.37, -0.2, 0.195, -0.08, 0.002, 0
3253519, -0.667, -1.954, -0.2, 0.286, 0.31, 0.038, 0
3253539, 0.702, -2.303, -0.041, 0.11, 0.304, -0.102, 0
3253559, 0.332, -2.501, -0.681, -0.135, 0.091, -0.186, 0
3253579, -0.303, -2.673, -1.239, -0.3, 0.007, -0.164, 0
3253599, -1.227, -2.548, -1.056, -0.302, 0.343, -0.116, 0
3253619, -0.903, -2.274, -0.395, -0.208, 0.832, -0.199, 0
3253639, 0.681, -2.133, 0.442, -0.253, 0.486, -0.336, 0
3253659, 0.067, -0.789, 0.743, -0.288, 0.039, -0.418, 0
3253679, -1.037, -0.568, 0.21, -0.056, 0.075, -0.463, 0
3253699, -0.661, -0.915, 0.077, 0.1, 0.394, -0.444, 0
3253719, 0.587, -0.798, 0.5, 0.016, 0.367, -0.525, 0
3253739, 0.475, -0.189, 0.652, -0.156, 0.134, -0.615, 0
3253759, -0.027, 0.274, 0.409, -0.087, -0.065, -0.66, 0
3253779, -1.772, 0.827, -0.403, 0.287, 0.0, -0.67, 0
3253799, -1.169, 0.867, -0.409, 0.533, 0.499, -0.65, 0
3253819, 0.683, 0.421, 0.04, 0.451, 0.603, -0.679, 0
3253839, -0.11, 1.383, 0.418, 0.237, 0.143, -0.728, 0
3253859, -1.245, 2.15, 0.1, 0.529, 0.027, -0.692, 0
3253879, -0.88, 1.593, -0.4, 0.806, 0.195, -0.604, 0
3253899, -0.481, 1.622, -0.725, 0.638, 0.144, -0.623, 0
3253919, -1.087, 2.528, -1.077, 0.582, 0.104, -0.6, 0
3253939, -1.681, 3.024, -1.471, 0.704, 0.226, -0.54, 0
3253959, -1.428, 2.545, -1.669, 0.61, 0.219, -0.365, 0
3253979, -1.219, 2.317, -1.616, 0.313, 0.09, -0.189, 0
3253999, -0.588, 2.468, -1.063, 0.163, 0.045, -0.054, 0
3254019, 0.036, 1.898, -0.829, 0.248, 0.086, -0.009, 0
3254039, 0.259, 1.121, -1.052, 0.354, 0.175, -0.065, 0
3254059, 0.49, 0.233, -1.304, 0.24, 0.167, -0.093, 0
3254079, 0.094, 0.478, -0.963, 0.017, 0.169, -0.133, 0
3254099, -0.237, 1.038, -0.458, -0.029, 0.245, -0.119, 0
3254119, -0.177, 1.485, 0.122, 0.039, 0.234, -0.031, 0
3254139, -0.481, 1.458, -0.04, 0.152, 0.266, 0.005, 0
3254159, -0.48, 0.999, -0.454, -0.038, 0.233, 0.063, 0
3254179, -0.309, 0.925, -0.199, -0.172, 0.058, 0.146, 0
3254199, -0.412, 0.846, 0.144, -0.163, 0.074, 0.194, 0
3254219, -0.304, 0.755, 0.393, -0.159, 0.144, 0.209, 0
3254239, -0.185, 0.49, 0.179, -0.207, 0.128, 0.254, 1
3254259, -0.187, -0.031, -0.475, -0.44, 0.147, 0.337, 1
3254279, -0.043, -0.621, -1.178, -0.78, 0.194, 0.334, 1
3254299, -0.083, 0.077, -1.064, -0.788, 0.244, 0.268, 1
3254319, 0.189, 0.579, -0.602, -0.576, 0.193, 0.198, 1
3254339, 0.297, 1.052, -0.094, -0.332, 0.046, 0.171, 1
3254359, 0.31, 0.76, -0.229, -0.197, -0.05, 0.231, 1
3254379, 0.202, -0.061, -0.93, -0.402, -0.139, 0.297, 1
3254399, 0.192, -0.166, -0.99, -0.769, -0.199, 0.304, 1
3254419, -0.196, 0.483, -0.627, -0.722, -0.105, 0.323, 1
3254439, -0.349, 0.558, -0.152, -0.428, 0.177, 0.323, 1
3254459, 0.222, -0.259, 0.078, -0.319, 0.198, 0.301, 1
3254479, 0.644, -1.114, -0.019, -0.634, -0.236, 0.36, 1
3254499, 0.005, -0.593, -0.099, -0.68, -0.429, 0.431, 1
3254519, -0.784, -0.228, -0.401, -0.244, -0.102, 0.508, 1
3254539, 0.245, -1.871, -0.968, -0.031, 0.017, 0.588, 1
3254559, 1.17, -3.317, -1.42, -0.422, -0.369, 0.526, 1
3254579, 0.347, -2.785, -1.321, -0.74, -0.365, 0.447, 1
3254599, -0.307, -1.384, -0.631, -0.427, -0.041, 0.447, 1
3254619, -0.473, -1.313, -0.369, 0.164, 0.445, 0.455, 1
3254639, 2.023, -4.09, -1.26, -0.598, -0.406, 0.363, 1
3254659, -0.393, -1.818, -0.49, -1.071, -0.716, 0.203, 1
3254679, -1.075, -0.67, 0.434, -0.684, -0.042, 0.114, 1
3254699, -1.134, -0.511, 1.064, 0.166, 0.646, 0.188, 1
3254719, 3.014, -4.342, -0.156, 0.355, 0.615, 0.26, 1
3254739, 1.173, -2.718, 0.021, -0.855, -0.979, 0.164, 1
3254759, -2.37, -0.318, 0.468, -1.05, -1.115, 0.177, 1
3254779, -2.016, -0.487, 0.969, -0.289, -0.007, 0.232, 1
3254799, 0.561, -2.448, 0.87, 0.469, 0.732, 0.299, 1
3254819, 2.697, -4.147, 0.057, 0.038, -0.147, 0.279, 1
3254839, -0.449, -2.114, -0.159, -0.679, -1.305, 0.163, 1
3254859, -2.528, -1.023, -0.304, -0.514, -0.833, 0.165, 1
3254879, -1.258, -1.106, 0.228, 0.039, 0.229, 0.249, 1
3254899, 0.564, -2.764, -0.168, 0.503, 0.667, 0.34, 1
3254919, 2.46, -4.336, -0.882, 0.113, -0.099, 0.35, 1
3254939, 0.384, -2.794, -0.668, -0.58, -1.086, 0.133, 1
3254959, -1.549, -1.379, -0.609, -0.502, -0.752, 0.042, 1
3254979, -1.234, -1.39, -0.452, -0.065, 0.131, 0.125, 1
3254999, 0.206, -2.135, -0.238, 0.147, 0.474, 0.238, 1
3255019, 1.456, -2.745, -0.204, -0.074, 0.007, 0.227, 1
3255039, -0.223, -1.699, -0.299, -0.381, -0.635, 0.133, 1
3255059, -1.558, -0.985, -0.174, -0.28, -0.337, 0.2, 1
3255079, -0.416, -1.376, 0.314, 0.007, 0.29, 0.288, 1
3255099, 0.687, -2.079, 0.336, 0.035, 0.404, 0.199, 1
3255119, 1.044, -2.278, 0.065, -0.182, -0.15, 0.1, 1
3255139, 0.052, -1.63, 0.162, -0.21, -0.264, 0.081, 1
3255159, -0.444, -1.256, 0.251, -0.026, 0.0, 0.095, 1
3255179, -0.18, -1.348, 0.171, 0.081, 0.188, 0.072, 1
3255199, 0.172, -1.455, 0.019, 0.004, 0.136, 0.052, 1
3255219, 0.457, -1.592, -0.035, -0.185, -0.157, 0.016, 1
3255239, 0.112, -1.313, 0.238, -0.082, -0.226, -0.001, 1
3255259, -0.465, -0.967, 0.201, 0.249, -0.037, -0.009, 1
3255279, -0.388, -1.542, -0.405, 0.426, 0.048, 0.083, 1
3255299, 0.134, -2.346, -0.702, 0.291, -0.035, 0.131, 0
3255319, 0.579, -3.579, -0.865, -0.026, -0.125, 0.128, 0
3255339, 0.735, -3.475, -0.263, -0.054, -0.122, 0.022, 0
3255359, -0.736, -3.065, 0.175, 0.205, 0.382, 0.043, 0
3255379, -0.22, -3.283, 0.146, 0.248, 0.682, 0.042, 0
3255399, 0.908, -3.809, -0.039, 0.01, 0.407, -0.05, 0
3255419, 0.601, -3.586, -0.516, -0.274, 0.254, -0.158, 0
3255439, 0.015, -2.444, -0.418, -0.185, 0.427, -0.337, 0
3255459, -0.207, -2.32, -0.411, -0.062, 0.568, -0.446, 0
3255479, -0.489, -1.683, -0.111, -0.072, 0.573, -0.548, 0
3255499, -0.056, -1.569, 0.437, -0.093, 0.323, -0.555, 0
3255519, 0.255, -0.471, 0.493, -0.044, 0.16, -0.583, 0
3255539, -0.404, 0.569, 0.254, 0.196, 0.345, -0.606, 0
3255559, -0.078, 0.57, -0.313, 0.302, 0.328, -0.621, 0
3255579, -0.304, 0.194, -1.096, 0.237, 0.287, -0.64, 0
3255599, -0.491, 0.808, -1.052, 0.122, 0.423, -0.683, 0
3255619, -0.707, 2.506, -0.583, 0.23, 0.464, -0.549, 0
3255639, -0.549, 2.099, -0.619, 0.343, 0.305, -0.439, 0
3255659, -0.287, 1.525, -0.821, 0.34, 0.268, -0.4, 0
3255679, -0.885, 2.014, -0.712, 0.29, 0.421, -0.459, 0
3255699, -0.751, 2.425, -0.239, 0.317, 0.585, -0.433, 0
3255719, -0.332, 2.24, -0.184, 0.42, 0.429, -0.334, 0
3255739, -0.764, 2.646, -0.018, 0.509, 0.361, -0.241, 0
3255759, -0.422, 2.611, 0.016, 0.565, 0.423, -0.229, 0
3255779, -0.363, 2.072, -0.61, 0.534, 0.291, -0.161, 0
3255799, -0.339, 1.687, -0.915, 0.396, 0.147, -0.069, 0
3255819, -0.083, 1.649, -0.36, 0.272, 0.136, -0.044, 0
3255839, -0.292, 1.645, -0.091, 0.339, 0.188, -0.026, 0
3255859, 0.09, 1.092, -0.202, 0.39, 0.276, 0.006, 0
3255879, 0.076, 0.96, -0.024, 0.219, 0.139, 0.065, 0
3255899, -0.315, 1.093, -0.09, 0.249, 0.07, 0.075, 0
3255919, -0.181, 0.586, -0.511, 0.298, 0.148, 0.105, 0
3255939, -0.029, 0.732, -0.184, 0.031, 0.161, 0.113, 0
3255959, -0.152, 1.068, 0.091, -0.158, 0.167, 0.131, 0
3255979, -0.248, 0.937, -0.127, -0.268, 0.089, 0.204, 1
3255999, -0.334, 0.456, -0.879, -0.447, 0.055, 0.3, 1
3256019, -0.315, 0.213, -1.605, -0.672, 0.133, 0.337, 1
3256039, 0.079, 0.542, -1.415, -0.839, 0.294, 0.257, 1
3256059, 0.334, 1.195, -0.867, -0.91, 0.254, 0.18, 1
3256079, 0.267, 1.466, -0.496, -0.674, 0.085, 0.238, 1
3256099, -0.135, 1.262, -0.559, -0.508, -0.351, 0.382, 1
3256119, -0.117, 0.717, -0.383, -0.556, -0.287, 0.416, 1
3256139, -0.082, 0.383, 0.153, -0.69, -0.084, 0.339, 1
3256159, -0.3, 0.321, 0.447, -0.528, 0.028, 0.379, 1
3256179, -0.264, -0.14, 0.303, -0.298, -0.047, 0.472, 1
3256199, 0.775, -1.653, -0.316, -0.475, -0.442, 0.555, 1
3256219, 0.874, -1.641, -0.541, -0.781, -0.823, 0.607, 1
3256239, -0.406, -0.676, -0.082, -0.621, -0.582, 0.617, 1
3256259, -0.533, -0.957, 0.139, -0.231, -0.145, 0.582, 1
3256279, 0.865, -2.591, -0.379, -0.329, -0.337, 0.579, 1
3256299, 1.452, -3.203, -0.767, -0.681, -0.949, 0.594, 1
3256319, 0.006, -2.405, -0.696, -0.623, -0.968, 0.615, 1
3256339, -1.08, -2.195, -0.949, -0.225, -0.354, 0.549, 1
3256359, -1.332, -2.418, -1.118, 0.136, 0.252, 0.59, 1
3256379, 1.422, -4.626, -1.627, -0.122, -0.115, 0.62, 1
3256399, 1.801, -4.964, -1.657, -0.847, -1.116, 0.472, 1
3256419, -1.136, -2.668, -1.125, -0.641, -0.767, 0.464, 1
3256439, -2.171, -1.697, -0.67, 0.044, 0.232, 0.513, 1
3256459, -1.58, -1.626, -0.152, 0.6, 0.888, 0.648, 1
3256479, 2.164, -4.96, -0.963, -0.009, 0.163, 0.598, 1
3256499, 2.174, -4.872, -0.539, -1.084, -1.239, 0.351, 1
3256519, -1.354, -1.885, 0.193, -0.788, -0.932, 0.306, 1
3256539, -2.232, -1.419, 0.194, -0.013, 0.199, 0.353, 1
3256559, -1.396, -1.399, 0.565, 0.568, 0.87, 0.501, 1
3256579, 2.037, -4.376, -0.221, -0.361, -0.518, 0.29, 1
3256599, -0.867, -2.328, 0.237, -0.75, -1.062, 0.091, 1
3256619, -1.783, -2.038, 0.135, -0.379, -0.339, 0.108, 1
3256639, -0.614, -1.878, 0.793, 0.02, 0.359, 0.273, 1
3256659, 1.036, -3.285, 0.297, 0.295, 0.354, 0.331, 1
3256679, 1.219, -3.594, -0.249, -0.117, -0.44, 0.208, 1
3256699, -1.094, -2.33, -0.207, -0.376, -0.744, 0.109, 1
3256719, -0.899, -2.242, 0.038, -0.129, -0.167, 0.149, 1
3256739, 0.106, -2.516, 0.108, 0.106, 0.227, 0.132, 1
3256759, 0.966, -3.048, -0.244, 0.111, 0.093, 0.065, 1
3256779, 0.17, -2.414, -0.236, -0.167, -0.264, -0.035, 1
3256799, -0.544, -1.611, 0.066, -0.18, -0.212, -0.071, 1
3256819, -0.391, -1.635, 0.125, 0.043, 0.068, -0.059, 1
3256839, 0.21, -2.1, -0.13, 0.136, 0.144, -0.032, 1
3256859, 0.458, -2.14, -0.162, 0.056, -0.05, 0.017, 1
3256879, 0.025, -1.991, -0.397, 0.06, -0.235, -0.021, 1
3256899, -0.52, -2.248, -0.946, 0.153, -0.066, -0.043, 0
3256919, -0.15, -3.092, -1.139, 0.156, 0.334, -0.046, 0
3256939, 0.618, -3.888, -0.923, 0.062, 0.372, -0.025, 0
3256959, 0.33, -4.063, -1.011, -0.166, 0.091, -0.091, 0
3256979, -0.68, -4.061, -1.601, -0.258, 0.23, -0.178, 0
3256999, -0.811, -4.494, -2.176, -0.266, 0.605, -0.26, 0
3257019, -0.422, -4.404, -1.973, -0.394, 0.77, -0.316, 0
3257039, 0.302, -3.726, -0.86, -0.689, 0.64, -0.396, 0
3257059, 0.477, -2.34, 0.575, -0.497, 0.533, -0.549, 0
3257079, 0.133, -1.853, 0.613, -0.13, 0.523, -0.646, 0
3257099, -0.193, -1.942, -0.063, -0.153, 0.484, -0.721, 0
3257119, -0.622, -1.691, 0.388, -0.391, 0.441, -0.784, 0
3257139, -0.45, -0.454, 1.515, -0.398, 0.235, -0.786, 0
3257159, -0.238, 0.523, 1.925, -0.091, 0.19, -0.815, 0
3257179, -0.14, 1.218, 1.286, 0.328, 0.339, -0.868, 0
3257199, -0.924, 1.751, 0.239, 0.507, 0.476, -0.814, 0
3257219, -1.727, 1.852, -0.572, 0.415, 0.573, -0.681, 0
3257239, -1.412, 2.098, -0.295, 0.372, 0.456, -0.481, 0
3257259, -1.305, 2.593, 0.083, 0.477, 0.349, -0.294, 0
3257279, -0.758, 2.383, 0.362, 0.554, 0.339, -0.21, 0
3257299, -0.899, 2.449, 0.462, 0.703, 0.456, -0.209, 0
3257319, -1.523, 2.826, 0.436, 0.875, 0.775, -0.215, 0
3257339, -0.1, 2.214, 0.302, 0.751, 0.505, -0.091, 0
3257359, -0.188, 1.883, -0.183, 0.605, 0.2, 0.036, 0
3257379, -0.185, 1.584, -0.561, 0.616, 0.261, 0.055, 0
3257399, 0.068, 0.903, -1.02, 0.521, 0.267, 0.08, 0
3257419, 0.633, -0.148, -1.728, 0.27, 0.05, 0.116, 0
3257439, 0.106, 0.42, -1.381, 0.153, 0.29, 0.022, 0
3257459, 0.345, 1.043, -0.27, 0.323, 0.468, -0.031, 0
3257479, 0.388, 0.691, -0.126, 0.45, 0.284, 0.009, 0
3257499, 0.055, 0.286, -0.558, 0.318, 0.28, 0.006, 0
3257519, 0.143, 0.064, -0.601, 0.091, 0.188, 0.042, 0
3257539, -0.11, 0.467, -0.33, 0.02, 0.182, 0.057, 0
3257559, 0.007, 0.687, 0.127, 0.116, 0.177, 0.073, 0
3257579, -0.205, 0.336, -0.091, 0.011, 0.042, 0.12, 0
3257599, -0.337, 0.32, -0.202, -0.202, 0.041, 0.156, 0
3257619, -0.447, 0.385, -0.47, -0.427, -0.006, 0.236, 0
3257639, -0.776, -0.181, -1.741, -0.637, 0.124, 0.359, 1
3257659, 0.166, -0.549, -1.263, -0.844, 0.202, 0.352, 1
3257679, 0.255, 0.054, -0.596, -0.799, -0.012, 0.329, 1
3257699, -0.141, 0.441, -0.477, -0.527, -0.221, 0.359, 1
3257719, -0.113, 0.268, -0.499, -0.372, -0.238, 0.456, 1
3257739, 0.349, -0.12, -0.403, -0.426, -0.251, 0.559, 1
3257759, 0.256, -0.08, -0.188, -0.57, -0.499, 0.618, 1
3257779, -0.052, 0.113, -0.217, -0.491, -0.651, 0.627, 1
3257799, -0.161, -0.061, -0.263, -0.329, -0.404, 0.59, 1
3257819, 0.559, -1.002, -0.236, -0.307, -0.089, 0.502, 1
3257839, 0.444, -1.294, -0.56, -0.462, -0.393, 0.539, 1
3257859, -0.056, -0.569, -0.47, -0.492, -0.508, 0.575, 1
3257879, 0.213, -0.3, 0.097, -0.285, -0.215, 0.533, 1
3257899, 0.183, -0.898, 0.139, -0.012, 0.087, 0.422, 1
3257919, 0.331, -1.745, -0.209, -0.048, 0.064, 0.414, 1
3257939, 0.474, -1.815, -0.239, -0.409, -0.337, 0.48, 1
3257959, -0.138, -1.406, -0.009, -0.54, -0.65, 0.56, 1
3257979, -1.167, -0.904, 0.083, -0.226, -0.369, 0.517, 1
3257999, -1.023, -1.213, 0.089, 0.219, 0.145, 0.513, 1
3258019, 0.921, -3.081, -0.446, 0.153, 0.12, 0.558, 1
3258039, 0.4, -2.817, -0.498, -0.714, -0.694, 0.521, 1
3258059, -1.003, -1.534, -0.082, -0.411, -0.268, 0.396, 1
3258079, -1.872, -0.915, 0.108, 0.266, 0.496, 0.361, 1
3258099, -0.171, -2.078, -0.188, 0.455, 0.566, 0.42, 1
3258119, 1.989, -4.493, -1.189, -0.398, -0.437, 0.434, 1
3258139, 0.294, -3.097, -0.73, -0.852, -0.81, 0.357, 1
3258159, -1.769, -0.956, -0.03, -0.265, -0.158, 0.296, 1
3258179, -1.664, -0.679, 0.081, 0.34, 0.498, 0.337, 1
3258199, 0.698, -2.484, -0.301, 0.018, 0.136, 0.329, 1
3258219, 0.943, -2.852, -0.388, -0.652, -0.635, 0.299, 1
3258239, -0.732, -1.866, -0.313, -0.674, -0.61, 0.232, 1
3258259, -1.693, -1.256, -0.395, -0.253, 0.051, 0.217, 1
3258279, -0.791, -1.084, 0.213, 0.16, 0.45, 0.199, 1
3258299, 1.694, -3.109, -0.031, -0.116, -0.054, 0.075, 1
3258319, 0.819, -2.776, -0.304, -0.532, -0.685, -0.098, 1
3258339, -1.395, -1.404, -0.859, -0.514, -0.511, -0.045, 1
3258359, -1.776, -0.63, -0.549, -0.24, 0.013, 0.059, 1
3258379, -0.789, -1.256, -0.133, 0.004, 0.218, 0.1, 1
3258399, 0.927, -2.582, -0.374, -0.231, -0.229, -0.012, 1
3258419, 0.282, -2.658, -0.761, -0.631, -0.53, -0.069, 1
3258439, -0.644, -1.457, -0.384, -0.63, -0.381, -0.056, 1
3258459, -0.696, -0.925, 0.061, -0.298, -0.084, 0.02, 1
3258479, -0.227, -1.195, 0.066, -0.069, 0.028, 0.014, 1
3258499, -0.021, -1.801, -0.559, -0.234, 0.018, -0.062, 1
3258519, -0.298, -1.535, -0.567, -0.439, -0.054, 0.021, 1
3258539, -0.15, -1.209, 0.62, -0.188, 0.127, 0.018, 1
3258559, 0.095, -1.559, 0.592, 0.019, 0.253, -0.01, 1
3258579, -0.041, -1.737, 0.298, 0.0, 0.195, -0.081, 1
3258599, -0.205, -1.634, 0.321, -0.167, -0.014, -0.058, 1
3258619, 0.311, -1.692, 0.843, -0.191, -0.117, 0.003, 1
3258639, -0.435, -1.56, 0.879, 0.135, -0.19, -0.023, 1
3258659, -1.206, -2.466, -0.147, 0.429, 0.142, -0.039, 1
3258679, -0.037, -3.606, -0.997, 0.251, 0.497, -0.041, 0
3258699, 0.855, -4.288, -0.784, -0.136, 0.081, -0.084, 0
3258719, -0.631, -3.335, -0.447, -0.208, -0.144, -0.164, 0
3258739, -1.826, -2.4, -0.177, 0.167, 0.415, -0.28, 0
3258759, 0.134, -3.771, -0.282, 0.258, 0.825, -0.301, 0
3258779, 0.154, -3.634, -0.469, -0.295, 0.468, -0.381, 0
3258799, -0.114, -2.236, 0.276, -0.722, 0.125, -0.459, 0
3258819, -0.827, -0.921, 0.8, -0.499, 0.084, -0.505, 0
3258839, -1.094, -0.458, 0.378, -0.09, 0.359, -0.609, 0
3258859, 0.224, 0.05, 0.242, -0.058, 0.486, -0.601, 0
3258879, 0.032, 1.07, 0.396, -0.182, 0.138, -0.557, 0
3258899, -0.532, 1.617, 0.315, -0.055, 0.191, -0.547, 0
3258919, -0.285, 1.617, 0.572, 0.368, 0.385, -0.524, 0
3258939, 0.017, 0.526, -0.328, 0.516, 0.295, -0.557, 0
3258959, 0.459, 0.588, -0.696, 0.277, 0.274, -0.588, 0
3258979, -0.183, 1.62, -0.73, 0.106, 0.199, -0.643, 0
3258999, -0.793, 2.613, -0.587, 0.28, 0.245, -0.601, 0
3259019, -1.013, 2.547, -0.359, 0.665, 0.433, -0.502, 0
3259039, -0.218, 1.835, -0.491, 0.537, 0.219, -0.418, 0
3259059, -0.435, 1.936, -0.999, 0.502, 0.085, -0.342, 0
3259079, -0.279, 1.637, -1.279, 0.47, 0.273, -0.321, 0
3259099, 0.233, 0.953, -0.955, 0.426, 0.246, -0.355, 0
3259119, -0.436, 1.422, -0.291, 0.536, 0.248, -0.345, 0
3259139, 0.033, 0.879, -0.57, 0.491, 0.133, -0.307, 0
3259159, -0.012, 1.11, -0.524, 0.289, 0.128, -0.33, 0
3259179, -0.348, 1.719, -0.283, 0.354, 0.207, -0.309, 0
3259199, 0.018, 1.141, -0.598, 0.351, 0.069, -0.222, 0
3259219, -0.263, 0.674, -0.803, 0.198, 0.146, -0.183, 0
3259239, -0.084, 0.482, -0.437, 0.04, 0.245, -0.175, 0
3259259, -0.261, 0.988, -0.068, 0.043, 0.16, -0.089, 0
3259279, -0.195, 1.052, 0.02, 0.12, -0.01, 0.028, 0
3259299, -0.177, 0.325, -0.344, 0.078, -0.05, 0.083, 0
3259319, -0.405, -0.015, -0.587, -0.033, 0.035, 0.102, 0
3259339, -0.299, -0.222, -0.658, -0.21, 0.084, 0.153, 0
3259359, -0.559, 0.254, -0.304, -0.273, 0.161, 0.212, 0
3259379, -0.074, 0.185, -0.147, -0.319, 0.173, 0.29, 1
3259399, -0.119, -0.35, -0.798, -0.56, 0.215, 0.388, 1
3259419, -0.061, -0.634, -1.193, -0.834, 0.301, 0.414, 1
3259439, 0.094, -0.018, -0.747, -0.828, 0.322, 0.349, 1
3259459, 0.324, 0.65, -0.045, -0.619, 0.196, 0.282, 1
3259479, 0.557, 0.745, 0.178, -0.387, -0.127, 0.27, 1
3259499, 0.373, 0.217, -0.397, -0.485, -0.403, 0.283, 1
3259519, -0.43, 0.57, -0.811, -0.581, -0.107, 0.268, 1
3259539, 0.197, 0.942, 0.129, -0.572, 0.127, 0.29, 1
3259559, 0.397, 0.37, 0.248, -0.482, 0.021, 0.358, 1
3259579, -0.232, -0.014, -0.124, -0.578, -0.165, 0.374, 1
3259599, -0.125, -0.803, -0.615, -0.636, -0.188, 0.43, 1
3259619, 0.247, -1.404, -0.564, -0.755, -0.254, 0.463, 1
3259639, 0.336, -1.677, -0.053, -0.728, -0.251, 0.454, 1
3259659, 0.528, -2.438, -0.127, -0.649, -0.261, 0.361, 1
3259679, -0.006, -1.563, 0.006, -0.813, -0.455, 0.301, 1
3259699, -0.208, -0.922, 0.152, -0.736, -0.414, 0.385, 1
3259719, 0.261, -1.965, -0.285, -0.347, -0.423, 0.485, 1
3259739, 0.57, -3.4, -1.284, -0.183, -0.436, 0.421, 1
3259759, 0.517, -3.378, -1.818, -0.286, -0.399, 0.301, 1
3259779, -0.263, -2.703, -1.838, -0.396, -0.315, 0.221, 1
3259799, -0.674, -2.282, -1.368, -0.272, -0.053, 0.286, 1
3259819, 0.352, -3.319, -1.164, -0.122, 0.153, 0.363, 1
3259839, 1.241, -3.926, -0.957, -0.476, -0.321, 0.32, 1
3259859, -0.787, -2.38, -0.581, -0.797, -0.781, 0.199, 1
3259879, -1.93, -1.463, -0.41, -0.394, -0.213, 0.232, 1
3259899, -0.91, -2.288, -0.422, 0.252, 0.613, 0.354, 1
3259919, 2.214, -4.681, -0.946, 0.085, 0.352, 0.35, 1
3259939, -0.065, -3.025, -0.684, -0.707, -0.81, 0.164, 1
3259959, -2.622, -1.042, -0.284, -0.669, -0.714, 0.199, 1
3259979, -2.016, -0.951, 0.223, -0.024, 0.304, 0.363, 1
3259999, 0.766, -2.985, -0.244, 0.237, 0.587, 0.396, 1
3260019, 2.414, -4.117, -0.784, -0.543, -0.602, 0.216, 1
3260039, 0.133, -2.571, -0.315, -0.857, -1.017, 0.087, 1
3260059, -1.604, -1.324, 0.119, -0.394, -0.352, 0.109, 1
3260079, -1.47, -1.096, 0.107, 0.159, 0.283, 0.252, 1
3260099, -0.134, -2.268, -0.42, 0.276, 0.401, 0.284, 1
3260119, 1.69, -3.552, -0.762, -0.361, -0.235, 0.095, 1
3260139, 0.425, -2.507, -0.381, -0.631, -0.62, -0.01, 1
3260159, -1.299, -1.202, 0.075, -0.265, -0.227, 0.094, 1
3260179, -1.28, -1.239, 0.201, 0.173, 0.235, 0.257, 1
3260199, 0.352, -2.443, 0.04, 0.12, 0.274, 0.207, 1
3260219, 1.007, -2.927, -0.124, -0.291, -0.077, 0.04, 1
3260239, -0.2, -1.881, 0.106, -0.318, -0.156, 0.01, 1
3260259, -0.774, -1.448, 0.434, 0.004, 0.053, 0.094, 1
3260279, -0.349, -1.824, 0.553, 0.288, 0.171, 0.13, 1
3260299, 0.085, -2.761, 0.323, 0.184, 0.208, 0.043, 1
3260319, 0.836, -3.234, 0.114, -0.09, -0.027, -0.033, 0
3260339, 0.849, -2.953, 0.357, -0.241, -0.415, -0.098, 0
3260359, -0.313, -2.198, 0.563, 0.158, -0.359, -0.049, 0
3260379, -1.232, -2.519, -0.083, 0.555, 0.299, 0.011, 0
3260399, 0.183, -4.42, -0.997, 0.285, 0.524, -0.078, 0
3260419, 0.904, -4.948, -1.341, -0.207, 0.175, -0.167, 0
3260439, -0.189, -4.281, -1.293, -0.368, 0.118, -0.202, 0
3260459, -0.604, -3.304, -0.468, -0.191, 0.253, -0.207, 0
3260479, -0.597, -2.898, -0.308, -0.051, 0.31, -0.218, 0
3260499, -0.711, -1.88, 0.163, -0.165, 0.291, -0.344, 0
3260519, -0.794, -0.941, 0.511, -0.146, 0.698, -0.437, 0
3260539, -0.564, -0.49, 0.619, 0.05, 0.569, -0.35, 0
3260559, -0.179, -0.275, 0.73, 0.253, 0.334, -0.259, 0
3260579, -0.032, 0.377, 0.786, 0.308, 0.461, -0.458, 0
3260599, -0.381, 1.051, -0.155, 0.541, 0.642, -0.565, 0
3260619, -0.434, 0.494, -1.48, 0.671, 0.59, -0.51, 0
3260639, -0.405, 0.528, -1.59, 0.419, 0.492, -0.492, 0
3260659, -0.766, 1.531, -0.831, 0.331, 0.416, -0.5, 0
3260679, -0.57, 1.995, -0.448, 0.565, 0.538, -0.481, 0
3260699, -0.063, 1.44, -0.737, 0.599, 0.62, -0.478, 0
3260719, 0.733, 0.992, -0.71, 0.36, 0.48, -0.47, 0
3260739, -0.255, 1.693, -0.825, 0.352, 0.306, -0.488, 0
3260759, -0.499, 1.977, -0.723, 0.477, 0.584, -0.504, 0
3260779, 0.06, 1.891, -0.403, 0.448, 0.664, -0.422, 0
3260799, -0.078, 2.294, 0.145, 0.417, 0.533, -0.317, 0
3260819, 0.09, 1.407, -0.037, 0.572, 0.42, -0.18, 0
3260839, 0.278, 0.785, 0.331, 0.572, 0.418, -0.159, 0
3260859, 0.28, 0.402, 0.497, 0.543, 0.405, -0.172, 0
3260879, 0.076, 0.113, 0.074, 0.489, 0.345, -0.179, 0
3260899, -0.195, 1.114, 0.491, 0.475, 0.316, -0.211, 0
3260919, -0.137, 1.448, 0.604, 0.618, 0.31, -0.204, 0
3260939, -0.449, 1.691, 0.331, 0.574, 0.078, -0.121, 0
3260959, -1.012, 1.88, 0.098, 0.48, -0.042, -0.023, 0
3260979, -0.57, 1.206, -0.219, 0.343, -0.118, 0.099, 0
3260999, -0.692, 0.744, -0.743, 0.187, -0.236, 0.207, 0
3261019, -0.548, 0.236, -1.344, -0.02, -0.233, 0.258, 0
3261039, -0.158, -0.364, -1.695, -0.24, -0.188, 0.291, 0
3261059, -0.2, -1.038, -2.333, -0.577, -0.02, 0.291, 1
3261079, 0.114, -1.44, -2.311, -0.94, 0.188, 0.235, 1
3261099, 0.698, -0.912, -1.301, -1.043, 0.133, 0.122, 1
3261119, 0.274, -0.028, -0.315, -0.734, -0.021, 0.043, 1
3261139, 0.082, 0.422, -0.375, -0.314, -0.179, 0.067, 1
3261159, 0.022, 0.061, -1.104, -0.287, -0.174, 0.163, 1
3261179, 0.343, -0.176, -1.434, -0.601, -0.19, 0.194, 1
3261199, 0.26, 0.346, -0.876, -0.868, -0.169, 0.165, 1
3261219, -0.248, 1.249, 0.179, -0.803, -0.11, 0.186, 1
3261239, -0.369, 0.94, 0.514, -0.607, -0.177, 0.303, 1
3261259, 0.166, 0.256, 0.689, -0.558, -0.408, 0.364, 1
3261279, 0.347, -0.333, 0.422, -0.634, -0.529, 0.359, 1
3261299, -0.513, 0.003, 0.436, -0.604, -0.287, 0.339, 1
3261319, -1.129, 0.779, 1.221, -0.253, 0.165, 0.379, 1
3261339, -0.57, 0.357, 1.813, 0.207, 0.354, 0.507, 1
3261359, 0.614, -1.215, 1.328, 0.155, -0.208, 0.71, 1
3261379, 0.792, -2.577, -0.132, 0.174, -0.867, 0.927, 1
3261399, -0.355, -3.06, -1.422, 0.291, -0.538, 0.788, 1
3261419, -0.589, -3.262, -1.73, 0.447, 0.392, 0.562, 1
3261439, 2.186, -5.521, -2.107, -0.237, 0.087, 0.36, 1
3261459, 1.637, -4.547, -1.64, -0.985, -0.77, 0.286, 1
3261479, -1.492, -0.936, -0.227, -0.412, -0.171, 0.345, 1
3261499, -1.411, -1.218, 0.056, 0.237, 0.475, 0.371, 1
3261519, 1.432, -4.548, -1.215, 0.357, 0.66, 0.403, 1
3261539, 1.131, -4.508, -1.455, -0.753, -0.491, 0.301, 1
3261559, -1.587, -1.533, -0.498, -1.159, -0.997, 0.279, 1
3261579, -2.056, -1.074, -0.117, -0.389, -0.162, 0.346, 1
3261599, -1.786, -1.443, -0.005, 0.318, 0.781, 0.33, 1
3261619, 1.777, -4.413, -0.881, 0.369, 0.868, 0.378, 1
3261639, 1.389, -4.203, -0.766, -0.758, -0.627, 0.232, 1
3261659, -1.202, -2.13, -0.209, -1.208, -1.201, 0.086, 1
3261679, -2.233, -1.377, -0.071, -0.767, -0.408, 0.018, 1
3261699, -1.735, -1.233, 0.371, -0.114, 0.415, 0.167, 1
3261719, 0.379, -3.289, -0.164, 0.308, 0.623, 0.335, 1
3261739, 1.908, -4.177, -0.239, -0.255, -0.185, 0.216, 1
3261759, 0.002, -2.792, 0.106, -0.75, -0.874, -0.106, 1
3261779, -1.723, -2.339, -0.285, -0.585, -0.577, -0.246, 1
3261799, -1.323, -1.686, -0.045, -0.331, -0.029, -0.053, 1
3261819, -0.806, -1.571, 0.281, 0.16, 0.303, 0.194, 1
3261839, 0.582, -2.734, -0.206, 0.311, 0.243, 0.294, 1
3261859, 0.489, -2.79, -0.31, 0.051, -0.164, 0.205, 1
3261879, 0.006, -2.603, -0.327, -0.163, -0.301, 0.105, 1
3261899, -0.783, -2.118, -0.27, -0.206, -0.083, 0.037, 1
3261919, -0.382, -1.794, -0.001, -0.105, 0.213, 0.125, 1
3261939, 0.603, -2.599, -0.125, -0.05, 0.067, 0.159, 1
3261959, 0.75, -2.932, 0.075, -0.285, -0.249, 0.025, 1
3261979, 0.184, -2.369, 0.198, -0.168, -0.045, -0.089, 1
3261999, -0.203, -2.12, 0.172, -0.021, 0.166, -0.09, 1
3262019, -0.035, -2.085, 0.209, 0.079, 0.042, 0.0, 1
3262039, 0.543, -2.789, -0.042, 0.105, -0.33, 0.145, 1
3262059, 0.111, -3.385, -0.719, -0.049, -0.312, 0.134, 0
3262079, -0.395, -3.163, -0.706, -0.059, 0.133, 0.03, 0
3262099, 0.142, -2.973, 0.027, 0.129, 0.288, -0.021, 0
3262119, 0.793, -4.128, -0.5, -0.002, 0.015, -0.076, 0
3262139, -0.576, -4.258, -1.256, -0.376, 0.101, -0.174, 0
3262159, -1.103, -3.606, -0.589, -0.519, 0.508, -0.258, 0
3262179, -0.391, -3.043, 0.215, -0.38, 0.478, -0.314, 0
3262199, -0.427, -2.619, 0.269, -0.295, 0.298, -0.306, 0
3262219, -1.042, -1.533, 0.543, -0.119, 0.307, -0.288, 0
3262239, -1.269, -0.985, 0.371, 0.069, 0.572, -0.331, 0
3262259, -0.418, -0.739, 0.066, 0.076, 0.672, -0.337, 0
3262279, -0.009, -0.309, -0.192, 0.004, 0.473, -0.353, 0
3262299, -0.112, 0.041, -0.215, -0.016, 0.357, -0.403, 0
3262319, -0.326, 0.484, 0.096, 0.009, 0.474, -0.525, 0
3262339, -0.527, 0.948, 0.242, 0.082, 0.454, -0.565, 0
3262359, -0.033, 1.966, 0.154, 0.224, 0.257, -0.492, 0
3262379, -0.459, 2.607, -0.254, 0.429, 0.266, -0.43, 0
3262399, -0.71, 2.583, -0.725, 0.585, 0.468, -0.39, 0
3262419, -0.585, 2.016, -1.289, 0.532, 0.332, -0.254, 0
3262439, -0.596, 1.682, -1.546, 0.38, 0.249, -0.123, 0
3262459, -0.36, 1.32, -1.319, 0.305, 0.375, -0.129, 0
3262479, -0.331, 1.141, -0.82, 0.238, 0.407, -0.106, 0
3262499, -0.733, 1.313, -0.299, 0.301, 0.411, -0.092, 0
3262519, -0.405, 0.916, -0.074, 0.376, 0.441, -0.087, 0
3262539, -0.161, 1.144, 0.399, 0.298, 0.378, -0.098, 0
3262559, -0.431, 1.499, 0.451, 0.266, 0.217, -0.047, 0
3262579, -0.339, 1.257, 0.218, 0.252, 0.02, 0.064, 0
3262599, -0.449, 1.153, 0.214, 0.222, -0.056, 0.122, 0
3262619, -0.179, 0.803, 0.272, 0.233, 0.029, 0.175, 0
3262639, 0.392, 0.195, 0.269, 0.166, -0.034, 0.23, 0
3262659, 0.142, 0.452, 0.332, 0.136, -0.087, 0.241, 0
3262679, 0.327, 0.131, 0.346, 0.226, 0.02, 0.243, 0
3262699, 0.632, -0.435, 0.104, 0.158, -0.08, 0.24, 0
3262719, 0.099, -0.284, 0.149, 0.034, -0.158, 0.23, 0
3262739, 0.114, -0.255, 0.098, 0.039, -0.042, 0.164, 0
3262759, -0.145, -0.136, -0.613, 0.08, 0.029, 0.138, 0
3262779, 0.025, -0.394, -1.511, 0.03, 0.136, 0.141, 1
3262799, 0.568, -1.009, -1.734, -0.307, 0.306, 0.105, 1
3262819, 0.001, -0.098, -1.019, -0.802, 0.458, -0.021, 1
3262839, -0.241, 0.946, 0.055, -0.934, 0.51, -0.109, 1
3262859, -0.249, 1.581, 0.815, -0.675, 0.216, -0.102, 1
3262879, -0.204, 1.301, 0.63, -0.291, -0.062, 0.075, 1
3262899, -0.072, 0.257, -0.065, -0.115, -0.227, 0.18, 1
3262919, -0.423, 0.012, -0.458, -0.229, -0.164, 0.171, 1
3262939, -0.122, 0.059, -0.355, -0.352, -0.04, 0.224, 1
3262959, 0.359, -0.196, -0.31, -0.298, -0.261, 0.249, 1
3262979, 0.026, -0.357, -0.485, -0.347, -0.356, 0.309, 1
3262999, 0.055, -0.938, -0.736, -0.501, -0.583, 0.389, 1
3263019, -0.299, -0.731, -0.684, -0.502, -0.472, 0.381, 1
3263039, 0.081, -0.892, -0.999, -0.391, -0.19, 0.356, 1
3263059, 0.067, -0.492, -0.868, -0.205, 0.089, 0.296, 1
3263079, -0.023, -0.538, -0.672, -0.169, 0.203, 0.291, 1
3263099, 1.358, -1.682, -0.799, -0.671, -0.451, 0.259, 1
3263119, 0.136, -0.788, -0.42, -0.847, -0.725, 0.218, 1
3263139, -0.908, 0.317, -0.287, -0.361, -0.182, 0.182, 1
3263159, -1.702, 0.711, -0.184, 0.422, 0.747, 0.288, 1
3263179, 0.893, -2.05, -0.873, 0.359, 0.701, 0.326, 1
3263199, 2.955, -3.858, -1.493, -0.887, -0.809, 0.202, 1
3263219, 0.063, -1.392, -0.601, -1.276, -1.226, 0.119, 1
3263239, -1.993, 0.087, -0.03, -0.55, -0.25, 0.163, 1
3263259, -2.241, 0.202, 0.526, 0.406, 0.827, 0.329, 1
3263279, 1.216, -3.331, -0.515, 0.305, 0.538, 0.51, 1
3263299, 3.323, -5.062, -1.109, -1.012, -1.295, 0.305, 1
3263319, -0.111, -2.41, -0.3, -1.289, -1.58, 0.188, 1
3263339, -2.827, -1.024, -0.191, -0.495, -0.281, 0.258, 1
3263359, -2.282, -1.477, 0.067, 0.236, 0.853, 0.389, 1
3263379, 0.525, -3.516, -0.264, 0.179, 0.605, 0.503, 1
3263399, 2.78, -4.717, -0.404, -0.552, -0.789, 0.356, 1
3263419, 0.814, -3.527, -0.236, -0.654, -1.042, 0.148, 1
3263439, -1.176, -2.095, -0.234, -0.114, -0.081, 0.159, 1
3263459, -0.508, -2.197, -0.069, 0.185, 0.5, 0.155, 1
3263479, 0.905, -2.615, -0.166, 0.128, 0.431, 0.249, 1
3263499, 0.739, -2.598, -0.189, -0.266, -0.279, 0.163, 1
3263519, -0.73, -1.704, 0.017, -0.464, -0.542, 0.064, 1
3263539, -0.887, -1.322, 0.298, -0.287, -0.081, 0.058, 1
3263559, -0.447, -1.208, 0.321, -0.048, 0.372, 0.04, 1
3263579, 0.083, -1.575, 0.057, 0.07, 0.435, 0.165, 1
3263599, 0.802, -1.999, -0.017, -0.096, -0.077, 0.127, 1
3263619, -0.443, -1.278, 0.093, -0.302, -0.456, 0.065, 1
3263639, -0.843, -0.937, 0.376, -0.16, -0.097, 0.084, 1
3263659, -0.364, -0.994, 0.37, 0.064, 0.356, 0.111, 1
3263679, 0.103, -1.051, 0.233, 0.109, 0.342, 0.092, 1
3263699, 0.232, -1.313, 0.069, -0.037, 0.06, 0.096, 1
3263719, -0.245, -0.814, 0.292, -0.1, -0.108, 0.081, 1
3263739, -0.558, -1.0, 0.123, 0.089, 0.028, 0.109, 1
3263759, -0.346, -1.365, -0.05, 0.282, 0.292, 0.13, 1
3263779, 0.543, -1.678, -0.082, 0.361, 0.24, 0.148, 1
3263799, 0.527, -2.195, -0.404, 0.296, -0.1, 0.258, 0
3263819, -0.32, -1.894, -1.016, 0.222, -0.189, 0.25, 0
3263839, -0.535, -2.736, -1.557, 0.238, 0.091, 0.333, 0
3263859, 0.603, -4.244, -1.694, 0.145, 0.316, 0.398, 0
3263879, 0.517, -4.259, -1.474, -0.281, 0.211, 0.258, 0
3263899, -0.044, -2.699, -0.614, -0.263, 0.139, 0.196, 0
3263919, -0.052, -2.435, -0.755, 0.027, 0.022, 0.218, 0
3263939, -0.731, -2.267, -1.02, -0.018, 0.005, 0.007, 0
3263959, -0.221, -2.796, -1.183, -0.31, 0.283, -0.224, 0
3263979, 0.641, -2.209, -0.099, -0.624, 0.215, -0.503, 0
3263999, 0.1, -1.058, 0.848, -0.547, 0.145, -0.624, 0
3264019, -0.573, 0.2, 1.527, -0.192, 0.334, -0.747, 0
3264039, -0.373, 0.754, 1.431, 0.124, 0.429, -0.784, 0
3264059, -0.323, 0.654, 0.413, -0.009, 0.437, -0.814, 0
3264079, -0.933, 1.41, -0.022, -0.047, 0.412, -0.72, 0
3264099, -1.085, 1.705, 0.163, 0.2, 0.524, -0.628, 0
3264119, -0.247, 0.984, 0.639, 0.335, 0.511, -0.68, 0
3264139, -0.438, 1.22, 0.836, 0.434, 0.652, -0.768, 0
3264159, 0.301, 1.574, 1.139, 0.521, 0.453, -0.792, 0
3264179, -0.625, 2.234, 0.982, 0.701, 0.354, -0.753, 0
3264199, -1.335, 2.948, 0.666, 0.938, 0.47, -0.685, 0
3264219, -0.946, 2.699, -0.253, 0.871, 0.299, -0.554, 0
3264239, -0.839, 2.932, -0.822, 0.655, 0.124, -0.442, 0
3264259, -1.143, 3.407, -1.112, 0.662, 0.241, -0.339, 0
3264279, -0.878, 3.229, -1.298, 0.769, 0.324, -0.225, 0
3264299, -0.464, 2.309, -1.778, 0.663, 0.317, -0.094, 0
3264319, 0.243, 1.547, -1.498, 0.431, 0.109, -0.032, 0
3264339, 0.163, 1.348, -1.121, 0.301, 0.173, -0.037, 0
3264359, -0.046, 1.611, -0.711, 0.354, 0.317, -0.037, 0
3264379, -0.065, 1.139, -0.699, 0.343, 0.265, 0.018, 0
3264399, -0.082, 0.658, -0.781, 0.117, 0.22, 0.051, 0
3264419, -0.372, 1.355, -0.196, -0.023, 0.237, 0.098, 0
3264439, -0.222, 1.577, 0.033, -0.144, 0.185, 0.158, 0
3264459, -0.35, 1.444, -0.319, -0.235, 0.109, 0.219, 1
3264479, 0.148, 0.699, -0.613, -0.397, 0.152, 0.273, 1
3264499, -0.112, 0.208, -1.271, -0.6, 0.019, 0.29, 1
3264519, -0.021, 0.376, -0.976, -0.701, -0.038, 0.251, 1
3264539, 0.049, 0.361, -0.835, -0.538, 0.005, 0.179, 1
3264559, -0.478, 0.569, -0.476, -0.419, 0.098, 0.136, 1
3264579, -0.099, 0.651, 0.196, -0.409, 0.223, 0.181, 1
3264599, 0.524, 0.251, 0.533, -0.522, -0.075, 0.279, 1
3264619, -0.051, 0.368, 0.471, -0.643, -0.485, 0.345, 1
3264639, -0.914, 0.356, 0.082, -0.58, -0.475, 0.396, 1
3264659, -0.398, -0.382, -0.078, -0.436, -0.249, 0.459, 1
3264679, 1.185, -1.719, -0.251, -0.644, -0.321, 0.459, 1
3264699, 0.612, -0.996, 0.165, -1.108, -0.745, 0.402, 1
3264719, -0.699, 0.12, 0.567, -0.871, -0.715, 0.406, 1
3264739, -0.145, -1.253, -0.412, -0.227, -0.398, 0.455, 1
3264759, 0.865, -2.594, -1.515, -0.308, -0.48, 0.454, 1
3264779, 0.803, -2.325, -1.391, -0.767, -0.771, 0.438, 1
3264799, -0.17, -1.671, -1.1, -0.725, -0.634, 0.373, 1
3264819, -0.259, -1.746, -1.072, -0.271, -0.091, 0.353, 1
3264839, 1.462, -4.047, -1.849, -0.04, 0.046, 0.352, 1
3264859, 1.123, -4.09, -2.276, -0.496, -0.391, 0.206, 1
3264879, -0.471, -2.626, -1.908, -0.864, -0.464, 0.169, 1
3264899, -1.558, -1.207, -0.849, -0.595, 0.207, 0.282, 1
3264919, -0.658, -1.057, 0.136, -0.07, 0.424, 0.422, 1
3264939, 0.667, -2.701, -0.242, -0.155, 0.119, 0.395, 1
3264959, 0.671, -3.007, -0.564, -0.504, -0.321, 0.346, 1
3264979, -0.716, -2.048, -0.109, -0.527, -0.295, 0.283, 1
3264999, -1.624, -1.003, 0.581, -0.2, 0.173, 0.313, 1
3265019, -1.144, -1.115, 0.874, 0.114, 0.516, 0.379, 1
3265039, 0.794, -2.666, 0.351, -0.126, -0.027, 0.389, 1
3265059, 0.739, -2.743, 0.22, -0.629, -0.787, 0.275, 1
3265079, -1.227, -1.84, 0.592, -0.551, -0.639, 0.23, 1
3265099, -1.43, -1.565, 0.898, -0.152, -0.131, 0.257, 1
3265119, -0.344, -1.991, 0.905, 0.007, -0.132, 0.293, 1
3265139, 0.907, -2.975, 0.214, -0.222, -0.804, 0.286, 1
3265159, -0.016, -2.66, -0.183, -0.374, -1.128, 0.292, 1
3265179, -0.87, -2.359, -0.504, -0.147, -0.55, 0.296, 1
3265199, -0.378, -2.82, -0.766, 0.001, 0.055, 0.23, 1
3265219, 0.416, -2.808, -0.913, -0.04, 0.003, 0.263, 1
3265239, 0.269, -2.91, -0.738, -0.125, -0.167, 0.252, 1
3265259, 0.287, -2.514, -0.14, -0.029, -0.053, 0.138, 1
3265279, -0.078, -2.38, -0.022, 0.036, 0.167, 0.032, 1
3265299, -0.318, -1.987, 0.054, 0.058, 0.272, 0.037, 1
3265319, 0.155, -2.151, 0.002, -0.035, 0.142, 0.067, 1
3265339, 0.587, -1.837, 0.538, -0.024, -0.07, -0.069, 1
3265359, -0.147, -1.519, 0.498, 0.029, -0.01, -0.122, 1
3265379, -0.792, -0.975, -0.325, 0.251, 0.172, 0.013, 1
3265399, -0.344, -1.892, -0.688, 0.327, 0.079, 0.139, 1
3265419, -0.749, -2.45, -1.003, 0.364, 0.065, 0.175, 0
3265439, -0.846, -3.125, -1.331, 0.475, 0.336, 0.124, 0
3265459, 0.424, -4.126, -1.707, 0.406, 0.535, 0.151, 0
3265479, 0.154, -4.61, -2.004, 0.098, 0.368, 0.039, 0
3265499, 0.011, -4.561, -1.823, -0.277, 0.384, -0.047, 0
3265519, -0.891, -3.151, -0.763, -0.375, 0.656, -0.156, 0
3265539, -0.075, -2.258, -0.071, -0.123, 0.786, -0.215, 0
3265559, 0.735, -3.298, -0.697, -0.155, 0.289, -0.239, 0
3265579, -0.617, -2.096, -0.475, -0.74, -0.169, -0.488, 0
3265599, -0.806, 0.075, 1.049, -0.835, -0.013, -0.583, 0
3265619, -1.029, 1.245, 1.516, -0.339, 0.216, -0.581, 0
3265639, -0.166, 0.355, 0.227, 0.086, 0.193, -0.443, 0
3265659, 0.13, 0.369, -0.603, 0.039, 0.072, -0.328, 0
3265679, 0.342, 0.62, -0.529, -0.117, 0.266, -0.392, 0
3265699, 0.349, 0.812, -0.521, -0.053, 0.532, -0.461, 0
3265719, 0.318, 0.61, -0.437, 0.18, 0.643, -0.496, 0
3265739, -0.04, 0.449, -0.174, 0.257, 0.637, -0.453, 0
3265759, 0.267, 0.299, 0.171, 0.27, 0.571, -0.508, 0
3265779, -0.197, 0.579, 0.317, 0.252, 0.577, -0.652, 0
3265799, -0.444, 1.167, 0.364, 0.342, 0.684, -0.754, 0
3265819, -1.066, 2.039, 0.463, 0.493, 0.457, -0.688, 0
3265839, -1.314, 2.036, 0.192, 0.684, 0.277, -0.54, 0
3265859, -0.821, 1.449, -0.604, 0.69, 0.196, -0.25, 0
3265879, -1.161, 1.389, -1.149, 0.642, 0.342, -0.121, 0
3265899, -0.79, 1.321, -0.961, 0.596, 0.56, -0.039, 0
3265919, -0.119, 0.947, -0.534, 0.496, 0.469, 0.021, 0
3265939, -0.072, 0.778, -0.246, 0.452, 0.45, 0.009, 0
3265959, 0.066, 0.675, -0.239, 0.348, 0.462, -0.053, 0
3265979, 0.025, 0.842, -0.113, 0.288, 0.407, -0.091, 0
3265999, -0.077, 0.795, -0.105, 0.198, 0.23, -0.1, 0
3266019, -0.511, 1.102, -0.108, 0.211, 0.195, -0.095, 0
3266039, -0.457, 1.134, -0.089, 0.152, 0.087, -0.036, 0
3266059, -0.295, 0.762, -0.158, -0.099, -0.216, 0.062, 0
3266079, -0.843, 1.006, 0.032, -0.135, -0.272, 0.142, 0
3266099, -0.73, 0.544, -0.169, -0.124, -0.187, 0.21, 0
3266119, -0.198, -0.194, -0.745, -0.26, -0.283, 0.297, 1
3266139, -0.113, -0.76, -1.84, -0.451, -0.235, 0.351, 1
3266159, -0.225, -1.069, -2.079, -0.78, 0.025, 0.238, 1
3266179, 0.489, -0.355, -1.014, -0.819, 0.017, 0.112, 1
3266199, 0.425, 0.374, -0.151, -0.616, -0.108, 0.065, 1
3266219, 0.257, 0.55, -0.002, -0.533, -0.109, 0.023, 1
3266239, -0.157, 0.726, 0.136, -0.527, -0.019, 0.046, 1
3266259, -0.034, 0.64, 0.202, -0.593, -0.098, 0.187, 1
3266279, -0.187, 0.884, 0.514, -0.538, -0.135, 0.315, 1
3266299, -0.633, 0.79, 0.454, -0.332, -0.028, 0.455, 1
3266319, -0.219, -0.213, -0.161, -0.29, -0.167, 0.604, 1
3266339, 0.352, -1.163, -0.745, -0.255, -0.283, 0.623, 1
3266359, 0.341, -1.857, -1.692, -0.219, 0.073, 0.496, 1
3266379, 0.669, -2.846, -1.472, -0.405, 0.084, 0.383, 1
3266399, 0.437, -1.999, -0.938, -0.561, -0.114, 0.376, 1
3266419, -0.287, -1.25, -0.452, -0.671, -0.362, 0.494, 1
3266439, -0.554, -2.381, -0.936, -0.571, -0.323, 0.568, 1
3266459, -0.147, -2.477, -0.454, -0.905, -0.375, 0.52, 1
3266479, -0.576, -1.978, 0.123, -0.988, -0.412, 0.408, 1
3266499, -0.832, -1.547, 0.423, -0.676, -0.205, 0.405, 1
3266519, -0.343, -2.365, 0.046, -0.142, -0.034, 0.537, 1
3266539, 0.468, -3.93, -0.731, -0.212, -0.32, 0.525, 1
3266559, -0.881, -3.243, -0.867, -0.572, -0.587, 0.459, 1
3266579, -1.047, -2.739, -0.623, -0.43, -0.232, 0.475, 1
3266599, -0.647, -2.831, -0.425, -0.116, 0.087, 0.474, 1
3266619, -0.105, -3.398, -0.522, 0.093, 0.074, 0.557, 1
3266639, 1.034, -4.427, -0.975, -0.159, -0.379, 0.564, 1
3266659, -0.28, -3.509, -0.775, -0.547, -0.753, 0.381, 1
3266679, -1.106, -2.695, -0.667, -0.419, -0.323, 0.356, 1
3266699, -0.708, -2.655, -0.531, -0.121, 0.192, 0.384, 1
3266719, -0.057, -3.003, -0.816, -0.017, 0.26, 0.423, 1
3266739, 0.117, -2.566, -0.455, -0.337, -0.208, 0.483, 1
3266759, -0.835, -1.844, -0.052, -0.389, -0.315, 0.436, 1
3266779, -0.656, -1.861, 0.18, -0.161, 0.127, 0.423, 1
3266799, -0.292, -2.26, 0.21, 0.076, 0.356, 0.414, 1
3266819, 0.535, -2.742, 0.001, 0.015, 0.177, 0.369, 1
3266839, 0.184, -2.391, 0.016, -0.2, -0.34, 0.239, 1
3266859, -0.562, -2.13, -0.272, -0.124, -0.16, 0.135, 1
3266879, -1.038, -1.844, -0.192, -0.012, 0.14, 0.152, 1
3266899, -0.727, -1.831, 0.016, 0.119, 0.219, 0.219, 1
3266919, 0.304, -2.533, -0.061, 0.006, -0.032, 0.161, 1
3266939, 0.397, -2.671, -0.06, -0.105, -0.189, 0.039, 1
3266959, 0.051, -2.709, 0.086, -0.07, -0.078, -0.182, 1
3266979, -0.645, -2.183, 0.107, 0.028, 0.044, -0.295, 1
3266999, -0.488, -2.16, -0.034, 0.105, -0.083, -0.237, 1
3267019, -0.363, -1.754, 0.102, 0.243, -0.193, -0.188, 0
3267039, -0.823, -2.328, -0.587, 0.369, -0.053, -0.185, 0
3267059, -0.474, -2.75, -1.007, 0.478, 0.109, -0.19, 0
3267079, -0.349, -3.57, -1.187, 0.438, 0.162, -0.075, 0
3267099, -0.271, -4.274, -1.14, 0.176, 0.33, 0.004, 0
3267119, 0.21, -4.989, -1.272, -0.106, 0.244, -0.1, 0
3267139, -0.38, -4.349, -0.747, -0.144, 0.304, -0.208, 0
3267159, -0.993, -3.356, -0.374, 0.116, 0.584, -0.223, 0
3267179, 0.171, -3.431, -0.024, 0.183, 0.494, -0.386, 0
3267199, 0.673, -3.653, -0.001, -0.108, 0.131, -0.645, 0
3267219, -1.008, -1.484, 0.746, -0.233, 0.128, -0.698, 0
3267239, -0.392, -0.275, 1.713, 0.07, -0.003, -0.693, 0
3267259, -0.352, -0.166, 1.166, 0.167, -0.177, -0.713, 0
3267279, -0.627, 0.825, 0.53, 0.263, -0.218, -0.681, 0
3267299, -0.816, 1.383, 0.114, 0.372, -0.033, -0.658, 0
3267319, -0.931, 1.868, -0.161, 0.4, 0.261, -0.576, 0
3267339, -0.766, 1.411, -1.208, 0.211, 0.073, -0.423, 0
3267359, -0.303, 2.552, -0.456, 0.343, 0.192, -0.308, 0
3267379, -0.055, 2.229, -0.642, 0.648, 0.403, -0.355, 0
3267399, -0.054, 2.289, -1.631, 0.752, 0.335, -0.362, 0
3267419, -0.367, 2.319, -2.362, 0.729, 0.255, -0.304, 0
3267439, 0.128, 1.416, -2.575, 0.535, 0.318, -0.263, 0
3267459, -0.417, 1.409, -2.069, 0.317, 0.305, -0.248, 0
3267479, -0.607, 1.789, -1.166, 0.296, 0.466, -0.219, 0
3267499, -0.031, 1.244, -0.359, 0.254, 0.564, -0.178, 0
3267519, 0.402, 0.508, -0.076, 0.118, 0.378, -0.128, 0
3267539, -0.258, 0.694, -0.015, 0.113, 0.341, -0.15, 0
3267559, 0.193, 0.793, 0.02, 0.125, 0.472, -0.189, 0
3267579, 0.3, 1.426, 0.517, 0.051, 0.447, -0.196, 0
3267599, 0.258, 1.106, 0.404, 0.14, 0.445, -0.158, 0
3267619, -0.289, 1.201, 0.341, 0.116, 0.36, -0.12, 0
3267639, -0.447, 1.375, 0.59, 0.114, 0.387, -0.074, 0
3267659, -0.503, 1.24, 0.461, 0.008, 0.295, -0.002, 0
3267679, -0.815, 1.524, 0.426, -0.138, 0.198, 0.069, 0
3267699, -1.179, 1.422, -0.035, -0.18, 0.144, 0.146, 0
3267719, -0.977, 0.549, -1.089, -0.29, 0.108, 0.257, 1
3267739, -0.755, 0.192, -2.152, -0.644, 0.02, 0.357, 1
3267759, -0.36, 0.284, -2.051, -1.011, 0.057, 0.341, 1
3267779, 0.302, 0.4, -1.368, -1.051, 0.232, 0.218, 1
3267799, 0.442, 0.523, -0.543, -1.037, 0.262, 0.118, 1
3267819, 0.469, 0.447, -0.469, -0.881, -0.093, 0.147, 1
3267839, 0.104, 0.415, -0.46, -0.789, -0.24, 0.247, 1
3267859, 0.065, 0.0, -0.15, -0.802, -0.152, 0.259, 1
3267879, -0.064, -0.32, 0.358, -0.78, -0.001, 0.271, 1
3267899, 0.779, -1.043, 0.446, -0.827, -0.219, 0.254, 1
3267919, -0.076, -0.691, 0.422, -0.717, -0.275, 0.274, 1
3267939, -0.016, -0.944, 0.329, -0.452, -0.212, 0.249, 1
3267959, 0.195, -1.947, -0.305, -0.397, -0.304, 0.287, 1
3267979, 1.109, -3.055, -0.936, -0.799, -0.733, 0.285, 1
3267999, -0.143, -1.899, -0.807, -0.756, -0.653, 0.279, 1
3268019, -0.986, -1.979, -1.128, -0.585, -0.202, 0.283, 1
3268039, -0.511, -2.388, -0.913, -0.488, -0.01, 0.3, 1
3268059, 1.109, -3.427, -0.974, -0.66, -0.408, 0.248, 1
3268079, 0.018, -2.85, -1.137, -0.682, -0.504, 0.213, 1
3268099, -1.27, -2.11, -1.296, -0.378, -0.056, 0.276, 1
3268119, -1.225, -1.586, -0.593, -0.092, 0.374, 0.361, 1
3268139, 0.874, -3.002, -0.31, -0.312, 0.028, 0.36, 1
3268159, 1.273, -3.255, -0.065, -0.738, -0.671, 0.196, 1
3268179, -0.944, -2.071, 0.068, -0.671, -0.522, 0.102, 1
3268199, -2.229, -1.071, 0.309, -0.191, 0.109, 0.199, 1
3268219, -1.976, -0.801, 0.743, 0.362, 0.489, 0.445, 1
3268239, 0.645, -3.041, 0.234, 0.17, -0.16, 0.536, 1
3268259, 0.847, -3.392, 0.074, -0.388, -1.269, 0.378, 1
3268279, -1.612, -2.406, -0.053, -0.354, -0.966, 0.204, 1
3268299, -3.132, -1.532, -0.305, 0.451, 0.273, 0.334, 1
3268319, 0.72, -4.038, -0.892, 0.604, 0.773, 0.62, 1
3268339, 2.079, -4.787, -0.543, -0.252, -0.546, 0.508, 1
3268359, -0.359, -3.079, -0.044, -0.701, -1.227, 0.163, 1
3268379, -2.089, -2.399, -0.508, -0.248, -0.447, 0.059, 1
3268399, -0.798, -2.774, -0.669, 0.207, 0.55, 0.15, 1
3268419, 1.783, -3.545, -0.785, 0.069, 0.448, 0.162, 1
3268439, 0.829, -2.83, -0.756, -0.354, -0.449, 0.012, 1
3268459, -1.318, -1.495, -0.527, -0.391, -0.535, -0.04, 1
3268479, -0.967, -1.745, -0.346, 0.017, 0.133, 0.103, 1
3268499, 1.192, -2.871, -0.092, 0.197, 0.407, 0.152, 1
3268519, 1.414, -2.925, -0.073, 0.036, 0.008, -0.073, 1
3268539, -0.119, -2.146, -0.322, -0.058, -0.171, -0.214, 1
3268559, -0.439, -1.879, -0.497, -0.001, 0.104, -0.192, 1
3268579, 0.341, -1.901, -0.145, 0.115, 0.219, -0.164, 1
3268599, 0.436, -2.53, -0.245, 0.317, 0.019, -0.12, 1
3268619, 0.154, -3.178, -0.914, 0.32, -0.057, -0.127, 1
3268639, -0.429, -3.584, -1.187, 0.171, 0.113, -0.296, 0
3268659, -0.133, -3.39, -0.818, 0.07, 0.185, -0.205, 0
3268679, -0.424, -4.061, -0.393, 0.153, -0.118, -0.097, 0
3268699, -0.737, -4.751, -0.507, 0.149, -0.201, 0.051, 0
3268719, -0.786, -4.019, -0.416, -0.031, 0.184, -0.152, 0
3268739, -0.341, -3.556, -0.375, -0.246, 0.486, -0.271, 0
3268759, -0.819, -2.433, -0.046, -0.42, 0.279, -0.277, 0
3268779, -1.11, -1.906, 0.097, -0.248, -0.011, -0.083, 0
3268799, -0.246, -2.252, 0.34, 0.008, -0.056, -0.182, 0
3268819, -0.26, -1.403, 0.192, 0.028, 0.301, -0.412, 0
3268839, -0.61, -0.1, 0.093, 0.206, 0.535, -0.452, 0
3268859, -0.925, 0.281, -0.123, 0.437, 0.558, -0.348, 0
3268879, -0.469, 0.104, 0.121, 0.503, 0.521, -0.276, 0
3268899, 0.734, 0.247, 0.742, 0.568, 0.343, -0.417, 0
3268919, -0.279, 1.538, 0.414, 0.858, 0.569, -0.535, 0
3268939, -0.578, 2.184, 0.061, 0.927, 0.775, -0.557, 0
3268959, -0.834, 2.735, -0.07, 1.007, 0.523, -0.387, 0
3268979, -1.073, 2.83, -0.642, 1.039, 0.222, -0.235, 0
3268999, -0.821, 2.901, -1.214, 0.912, 0.146, -0.137, 0
3269019, -0.797, 2.976, -1.588, 0.82, 0.111, -0.043, 0
3269039, -0.663, 2.795, -1.528, 0.752, 0.292, 0.013, 0
3269059, 0.109, 2.662, -0.885, 0.716, 0.312, 0.032, 0
3269079, 0.662, 2.245, -0.643, 0.649, 0.19, 0.06, 0
3269099, 0.177, 2.156, -1.152, 0.58, 0.177, 0.092, 0
3269119, 0.296, 1.942, -1.327, 0.448, 0.188, 0.078, 0
3269139, 0.164, 2.039, -0.958, 0.442, 0.328, 0.044, 0
3269159, 0.678, 1.513, -0.865, 0.239, 0.257, 0.025, 0
3269179, 0.133, 1.736, -0.728, -0.017, 0.128, 0.064, 0
3269199, -0.408, 1.668, -0.677, -0.178, 0.183, 0.106, 0
3269219, -0.088, 0.86, -0.528, -0.442, 0.151, 0.13, 0
3269239, -0.245, 0.48, -0.281, -0.601, 0.168, 0.127, 1
3269259, 0.13, -0.166, -0.484, -0.684, 0.159, 0.052, 1
3269279, 0.209, -0.532, -0.675, -0.65, 0.051, -0.077, 1
3269299, 0.207, -0.292, -1.189, -0.675, 0.167, -0.16, 1
3269319, 0.212, 0.34, -0.855, -0.665, 0.255, -0.203, 1
3269339, 0.354, 0.933, -0.324, -0.589, 0.289, -0.161, 1
3269359, 0.464, 0.996, 0.066, -0.547, 0.051, -0.009, 1
3269379, 0.137, 0.847, 0.15, -0.616, -0.132, 0.038, 1
3269399, -0.296, 0.842, -0.224, -0.675, -0.248, 0.07, 1
3269419, -0.319, 0.66, -0.505, -0.572, -0.138, 0.119, 1
3269439, 0.495, -0.044, -0.383, -0.565, 0.0, 0.094, 1
3269459, 0.027, -0.103, -0.016, -0.682, -0.095, 0.047, 1
3269479, -0.732, 0.433, 0.233, -0.675, -0.108, 0.091, 1
3269499, -0.313, 0.127, 0.132, -0.4, 0.005, 0.224, 1
3269519, 0.84, -1.35, -0.792, -0.203, 0.043, 0.261, 1
3269539, 1.192, -2.417, -1.574, -0.605, -0.381, 0.263, 1
3269559, -0.894, -0.969, -1.221, -0.954, -0.586, 0.194, 1
3269579, -1.403, -0.091, -0.509, -0.561, -0.085, 0.29, 1
3269599, 0.259, -2.301, -0.894, 0.028, 0.47, 0.401, 1
3269619, 2.172, -4.758, -1.59, -0.342, 0.1, 0.308, 1
3269639, 0.665, -3.8, -1.279, -1.201, -0.777, 0.135, 1
3269659, -1.418, -1.915, -0.579, -1.255, -0.711, 0.03, 1
3269679, -2.151, -1.2, -0.004, -0.659, 0.07, 0.091, 1
3269699, -1.097, -2.391, -0.127, 0.073, 0.613, 0.353, 1
3269719, 1.635, -5.023, -0.907, -0.072, 0.128, 0.555, 1
3269739, 0.355, -3.8, -0.194, -0.871, -1.078, 0.506, 1
3269759, -1.828, -2.547, -0.164, -0.739, -0.954, 0.355, 1
3269779, -1.787, -2.121, 0.041, 0.072, 0.511, 0.4, 1
3269799, -0.206, -2.887, 0.085, 0.28, 0.481, 0.558, 1
3269819, 2.069, -4.563, -0.219, -0.28, -0.618, 0.405, 1
3269839, 0.562, -3.449, 0.037, -0.581, -1.002, 0.144, 1
3269859, -1.456, -2.176, -0.027, -0.357, -0.296, 0.018, 1
3269879, -1.921, -1.619, 0.109, -0.079, 0.246, 0.145, 1
3269899, -2.104, -0.652, 0.94, 0.389, 0.499, 0.414, 1
3269919, 0.889, -3.01, 0.332, 0.205, -0.025, 0.426, 1
3269939, 1.311, -3.502, 0.109, -0.328, -0.847, 0.184, 1
3269959, -0.776, -2.371, -0.035, -0.285, -0.603, 0.065, 1
3269979, -1.873, -1.944, -0.413, 0.018, 0.137, 0.153, 1
3269999, -0.549, -2.222, -0.289, 0.222, 0.29, 0.28, 1
3270019, 1.709, -3.496, -0.605, -0.13, -0.56, 0.157, 1
3270039, -0.309, -2.563, -0.836, -0.212, -0.773, 0.122, 1
3270059, -1.672, -2.148, -1.007, 0.031, 0.009, 0.173, 1
3270079, -0.562, -2.496, -0.56, 0.132, 0.563, 0.092, 1
3270099, 0.73, -2.586, -0.055, 0.113, 0.291, 0.047, 1
3270119, 1.179, -2.858, -0.082, -0.052, -0.334, -0.036, 1
3270139, -0.051, -2.087, -0.003, 0.079, -0.41, -0.02, 0
3270159, -0.643, -2.041, -0.167, 0.447, -0.072, 0.053, 0
3270179, -0.549, -2.663, -0.934, 0.63, 0.094, 0.08, 0
3270199, 0.193, -4.171, -1.393, 0.321, -0.095, 0.036, 0
3270219, -0.303, -4.616, -1.311, -0.046, 0.069, -0.046, 0
3270239, -0.49, -3.699, -0.773, 0.105, 0.412, -0.141, 0
3270259, -0.27, -4.146, -1.228, 0.041, 0.365, -0.064, 0
3270279, -0.846, -3.992, -1.112, -0.428, 0.174, -0.107, 0
3270299, -1.925, -2.683, 0.577, -0.525, 0.436, -0.204, 0
3270319, -0.288, -2.56, 2.031, -0.132, 0.805, -0.212, 0
3270339, 1.373, -3.138, 2.279, -0.03, 0.512, -0.241, 0
3270359, 0.156, -2.031, 2.061, -0.189, 0.025, -0.337, 0
3270379, -1.129, -0.744, 2.081, -0.116, 0.329, -0.54, 0
3270399, 0.113, -0.235, 2.312, 0.073, 0.722, -0.731, 0
3270419, 0.534, 1.297, 1.658, 0.12, 0.235, -0.685, 0
3270439, 0.499, 2.387, 1.008, 0.291, -0.042, -0.601, 0
3270459, 0.327, 2.212, -0.618, 0.565, -0.029, -0.599, 0
3270479, -0.501, 1.907, -2.316, 0.679, 0.288, -0.666, 0
3270499, -0.411, 1.82, -2.713, 0.501, 0.604, -0.663, 0
3270519, -0.755, 2.287, -1.979, 0.299, 0.458, -0.53, 0
3270539, -1.375, 2.546, -1.198, 0.386, 0.341, -0.363, 0
3270559, -0.577, 1.447, -1.002, 0.618, 0.488, -0.278, 0
3270579, -0.359, 0.518, -1.32, 0.557, 0.472, -0.291, 0
3270599, -0.307, 0.715, -0.959, 0.317, 0.521, -0.336, 0
3270619, -0.064, 1.023, -0.292, 0.256, 0.458, -0.343, 0
3270639, -0.151, 1.169, -0.368, 0.323, 0.235, -0.307, 0
3270659, -0.716, 1.345, -0.739, 0.494, 0.217, -0.257, 0
3270679, -0.13, 0.429, -1.288, 0.485, 0.317, -0.252, 0
3270699, -0.187, 0.451, -1.215, 0.172, 0.183, -0.196, 0
3270719, -0.087, 1.109, -0.242, 0.054, 0.152, -0.183, 0
3270739, -0.302, 1.177, -0.005, 0.281, 0.25, -0.156, 0
3270759, 0.001, 0.586, -0.239, 0.218, 0.189, -0.083, 0
3270779, 0.021, 0.443, -0.282, -0.116, 0.001, -0.021, 0
3270799, -0.476, 1.037, -0.027, -0.159, 0.0, 0.043, 0
3270819, -0.452, 1.204, 0.108, -0.095, -0.003, 0.135, 0
3270839, -0.315, 0.694, -0.234, -0.141, -0.032, 0.213, 0
3270859, -0.302, 0.039, -1.087, -0.343, -0.025, 0.282, 1
3270879, 0.021, -0.73, -2.249, -0.737, 0.097, 0.288, 1
3270899, -0.083, -0.386, -2.183, -1.161, 0.317, 0.153, 1
3270919, -0.085, 0.524, -0.926, -1.173, 0.486, 0.042, 1
3270939, -0.013, 1.082, 0.387, -0.971, 0.318, 0.037, 1
3270959, 0.239, 1.173, 0.858, -0.714, -0.109, 0.188, 1
3270979, 0.154, 0.706, 0.261, -0.585, -0.339, 0.302, 1
3270999, -0.394, -0.046, -0.542, -0.642, -0.067, 0.372, 1
3271019, 0.208, -0.206, -0.432, -0.709, 0.109, 0.4, 1
3271039, 0.363, 0.022, 0.258, -0.498, 0.178, 0.417, 1
3271059, 0.379, -0.099, 0.255, -0.175, 0.087, 0.445, 1
3271079, -0.124, -0.282, -0.289, 0.182, 0.14, 0.506, 1
3271099, 1.322, -2.822, -1.513, 0.061, 0.035, 0.502, 1
3271119, 2.049, -4.156, -2.128, -0.537, -0.337, 0.35, 1
3271139, 0.546, -2.597, -1.552, -0.526, -0.081, 0.212, 1
3271159, -0.412, -1.611, -0.932, 0.026, 0.624, 0.205, 1
3271179, 1.526, -3.764, -1.351, -0.039, 0.465, 0.26, 1
3271199, 2.214, -4.985, -1.596, -0.829, -0.507, 0.174, 1
3271219, 0.37, -3.79, -0.844, -1.224, -0.851, 0.124, 1
3271239, -1.625, -1.954, 0.242, -0.606, 0.025, 0.186, 1
3271259, -0.979, -1.847, 1.387, 0.091, 0.403, 0.406, 1
3271279, 1.004, -3.745, 0.819, 0.098, -0.143, 0.615, 1
3271299, -0.034, -3.114, 0.674, -0.427, -1.083, 0.489, 1
3271319, -1.764, -1.746, 0.332, -0.467, -1.015, 0.312, 1
3271339, -1.98, -1.607, -0.048, -0.026, -0.224, 0.331, 1
3271359, -0.41, -2.797, -0.029, 0.362, 0.302, 0.448, 1
3271379, 1.983, -4.646, -0.451, 0.123, -0.189, 0.463, 1
3271399, 0.17, -3.589, -0.516, -0.552, -1.189, 0.192, 1
3271419, -2.286, -2.257, -0.798, -0.588, -0.931, 0.083, 1
3271439, -1.721, -2.207, -0.512, -0.189, 0.025, 0.178, 1
3271459, 0.49, -3.431, -0.394, 0.139, 0.478, 0.28, 1
3271479, 1.537, -3.847, -0.699, -0.071, -0.111, 0.205, 1
3271499, -0.724, -2.788, -0.741, -0.367, -0.637, 0.069, 1
3271519, -1.71, -1.915, -0.604, -0.231, -0.284, 0.142, 1
3271539, -0.731, -2.216, -0.251, 0.043, 0.227, 0.296, 1
3271559, 0.896, -3.44, -0.443, 0.144, 0.266, 0.294, 1
3271579, 0.785, -3.198, -0.579, -0.182, -0.24, 0.122, 1
3271599, -1.044, -2.089, -0.572, -0.309, -0.34, -0.003, 1
3271619, -0.967, -2.098, -0.446, -0.118, 0.114, 0.078, 1
3271639, 0.149, -2.541, -0.084, -0.013, 0.317, 0.077, 1
3271659, 0.556, -2.833, -0.064, -0.075, 0.146, -0.004, 1
3271679, -0.316, -2.032, 0.082, -0.192, -0.078, -0.143, 1
3271699, -1.101, -1.542, -0.226, -0.062, -0.054, -0.124, 1
3271719, -0.708, -1.989, -0.632, 0.21, 0.01, 0.215, 1
3271739, -0.254, -3.303, -1.049, 0.117, -0.144, 0.237, 1
3271759, -0.714, -3.678, -1.02, 0.017, 0.005, 0.244, 0
3271779, -0.692, -4.42, -1.358, -0.111, 0.034, 0.314, 0
3271799, 0.227, -5.019, -1.141, -0.385, -0.418, 0.327, 0
3271819, -0.311, -3.962, -0.453, -0.492, -0.441, 0.263, 0
3271839, -0.802, -2.998, 0.125, -0.183, 0.193, 0.096, 0
3271859, -0.276, -2.838, 0.143, 0.039, 0.648, -0.091, 0
3271879, 0.547, -3.357, -0.062, -0.317, 0.61, -0.379, 0
3271899, 0.077, -1.783, 1.286, -0.384, 0.394, -0.477, 0
3271919, -0.398, -0.142, 1.903, -0.005, 0.475, -0.511, 0
3271939, -0.635, 0.214, 1.364, 0.384, 0.588, -0.5, 0
3271959, 0.322, -0.444, 0.755, 0.373, 0.217, -0.548, 0
3271979, -0.532, -0.283, 0.045, 0.237, 0.017, -0.573, 0
3271999, -1.157, 0.686, -0.206, 0.3, 0.309, -0.544, 0
3272019, -0.251, 1.013, -0.247, 0.406, 0.411, -0.492, 0
3272039, 0.138, 1.61, -0.356, 0.534, 0.317, -0.434, 0
3272059, 0.014, 1.679, -0.774, 0.639, 0.24, -0.394, 0
3272079, -0.234, 1.191, -1.344, 0.605, 0.256, -0.353, 0
3272099, -0.145, 1.039, -1.087, 0.492, 0.35, -0.374, 0
3272119, 0.149, 0.726, -0.916, 0.398, 0.367, -0.39, 0
3272139, 0.342, 0.828, -0.528, 0.306, 0.418, -0.441, 0
3272159, 0.153, 1.432, 0.094, 0.431, 0.295, -0.43, 0
3272179, -0.121, 1.505, 0.201, 0.614, 0.096, -0.368, 0
3272199, -0.37, 0.81, -0.826, 0.596, 0.032, -0.317, 0
3272219, -0.169, 0.178, -1.45, 0.216, 0.092, -0.305, 0
3272239, 0.01, 1.06, -0.095, 0.225, 0.158, -0.285, 0
3272259, -0.119, 0.806, -0.331, 0.45, 0.122, -0.219, 0
3272279, 0.006, 0.086, -0.816, 0.505, 0.087, -0.169, 0
3272299, 0.145, 0.071, -0.671, 0.359, 0.177, -0.177, 0
3272319, 0.054, 0.402, -0.247, 0.189, 0.12, -0.175, 0
3272339, -0.24, 0.771, 0.078, 0.15, 0.024, -0.13, 0
3272359, -0.36, 1.154, 0.282, 0.176, 0.114, -0.111, 0
3272379, -0.453, 1.126, -0.023, 0.102, 0.125, -0.048, 0
3272399, -0.677, 1.175, -0.463, -0.166, 0.054, 0.059, 1
3272419, -0.675, 0.58, -0.943, -0.483, 0.092, 0.171, 1
3272439, -0.363, 0.72, -1.339, -0.766, 0.146, 0.194, 1
3272459, 0.018, 0.531, -1.353, -0.66, 0.014, 0.225, 1
3272479, 0.256, 0.713, -1.014, -0.51, -0.179, 0.178, 1
3272499, 0.025, 1.0, -0.843, -0.379, -0.07, 0.169, 1
3272519, -0.281, 0.959, -0.68, -0.38, 0.199, 0.214, 1
3272539, -0.051, 0.92, -0.093, -0.714, 0.112, 0.291, 1
3272559, -0.328, 1.908, 0.722, -0.893, -0.221, 0.39, 1
3272579, -0.382, 1.593, 0.478, -0.453, -0.315, 0.523, 1
3272599, 0.051, 0.04, -0.382, -0.05, -0.067, 0.593, 1
3272619, 0.494, -1.773, -1.281, -0.026, 0.23, 0.5, 1
3272639, 2.554, -3.466, -1.889, -0.651, -0.036, 0.4, 1
3272659, 0.86, -1.799, -1.506, -1.221, -0.717, 0.339, 1
3272679, -0.673, -1.028, -1.119, -0.679, -0.301, 0.411, 1
3272699, 0.493, -3.091, -1.625, 0.042, 0.591, 0.401, 1
3272719, 3.574, -5.622, -2.091, -0.894, -0.192, 0.235, 1
3272739, 2.247, -4.552, -1.337, -1.657, -0.915, 0.095, 1
3272759, -0.594, -2.329, -0.165, -1.269, -0.444, 0.059, 1
3272779, -1.482, -1.739, 0.405, -0.302, 0.457, 0.155, 1
3272799, -0.726, -2.781, 0.251, 0.296, 0.924, 0.313, 1
3272819, 2.512, -5.419, -0.726, -0.353, 0.0, 0.321, 1
3272839, 2.027, -4.773, -0.493, -1.295, -1.339, 0.139, 1
3272859, -1.516, -2.193, 0.233, -1.11, -1.03, 0.119, 1
3272879, -2.721, -1.53, 0.487, -0.28, 0.187, 0.245, 1
3272899, -1.185, -2.592, 0.639, 0.292, 0.815, 0.466, 1
3272919, 2.398, -4.9, 0.032, -0.177, -0.27, 0.42, 1
3272939, 1.282, -4.29, -0.054, -0.666, -1.194, 0.19, 1
3272959, -1.292, -2.85, 0.094, -0.475, -0.77, 0.114, 1
3272979, -1.399, -2.62, 0.192, -0.087, 0.004, 0.084, 1
3272999, -1.215, -2.215, 0.671, 0.364, 0.491, 0.23, 1
3273019, -1.432, -1.857, 0.561, 0.959, 0.706, 0.572, 1
3273039, 0.999, -3.811, -0.503, 0.745, 0.036, 0.571, 1
3273059, 1.874, -4.434, -0.993, 0.042, -0.928, 0.291, 1
3273079, 0.519, -3.606, -1.029, -0.362, -1.163, 0.011, 1
3273099, -1.254, -2.559, -1.106, -0.284, -0.64, 0.036, 1
3273119, -1.424, -1.912, -1.017, 0.052, -0.048, 0.215, 1
3273139, -0.686, -2.357, -0.889, 0.219, 0.147, 0.314, 1
3273159, 0.393, -3.273, -1.092, -0.038, -0.087, 0.249, 1
3273179, 0.254, -3.353, -1.154, -0.485, -0.491, 0.176, 1
3273199, -0.911, -2.532, -0.575, -0.409, 0.098, 0.177, 1
3273219, 0.225, -2.552, 0.767, 0.0, 0.566, 0.181, 1
3273239, 1.151, -3.598, 0.142, 0.147, 0.44, 0.137, 1
3273259, 1.259, -3.901, -0.028, -0.162, -0.126, 0.014, 1
3273279, 0.234, -3.07, 0.089, -0.404, -0.448, -0.111, 1
3273299, -0.651, -2.204, 0.242, -0.11, -0.255, -0.131, 1
3273319, -0.479, -3.381, -0.149, 0.459, 0.121, 0.034, 0
3273339, 0.892, -4.625, -0.928, 0.605, 0.208, 0.286, 0
3273359, -0.041, -5.261, -1.476, 0.176, -0.031, 0.049, 0
3273379, -1.164, -4.599, -1.273, -0.171, 0.392, -0.22, 0
3273399, -0.037, -4.816, -0.692, -0.282, 0.743, -0.372, 0
3273419, 0.121, -5.33, -0.522, -0.561, 0.485, -0.577, 0
3273439, -1.174, -2.951, 0.38, -0.842, 0.169, -0.716, 0
3273459, -1.688, -1.369, 1.25, -0.557, 0.192, -0.502, 0
3273479, -0.955, -1.753, 1.392, 0.009, 0.255, -0.251, 0
3273499, -0.005, -1.7, 1.492, 0.21, 0.31, -0.201, 0
3273519, 0.382, -1.072, 1.404, 0.2, 0.092, -0.289, 0
3273539, -0.221, 0.423, 1.142, 0.227, -0.122, -0.381, 0
3273559, -0.367, 1.06, 1.232, 0.502, 0.053, -0.382, 0
3273579, 0.326, 0.339, 0.441, 0.714, 0.169, -0.456, 0
3273599, 0.081, 0.081, -0.425, 0.643, -0.053, -0.496, 0
3273619, -0.289, 0.612, -0.476, 0.463, 0.007, -0.561, 0
3273639, 0.15, 1.401, -0.192, 0.447, 0.01, -0.475, 0
3273659, -0.543, 1.443, -0.529, 0.58, 0.03, -0.379, 0
3273679, -0.345, 1.318, -0.656, 0.745, 0.246, -0.34, 0
3273699, -0.504, 0.984, -1.371, 0.704, 0.331, -0.316, 0
3273719, -0.621, 1.026, -1.579, 0.558, 0.427, -0.273, 0
3273739, -0.159, 1.487, -1.063, 0.522, 0.236, -0.182, 0
3273759, -0.348, 1.231, -1.091, 0.58, 0.185, -0.097, 0
3273779, -0.094, 0.71, -1.242, 0.585, 0.317, -0.12, 0
3273799, 0.075, 0.428, -1.368, 0.456, 0.385, -0.141, 0
3273819, 0.335, 0.306, -1.337, 0.313, 0.307, -0.103, 0
3273839, 0.396, 0.32, -1.138, 0.29, 0.232, -0.107, 0
3273859, -0.482, 1.07, -0.99, 0.402, 0.444, -0.161, 0
3273879, -0.313, 0.799, -1.166, 0.286, 0.461, -0.127, 0
3273899, -0.459, 1.17, -0.938, 0.016, 0.33, -0.032, 0
3273919, -0.586, 1.785, -0.381, -0.039, 0.331, 0.04, 0
3273939, -0.238, 1.684, 0.04, 0.017, 0.22, 0.118, 0
3273959, -0.441, 1.307, -0.197, -0.082, 0.06, 0.203, 0
3273979, -0.554, 0.965, -0.447, -0.291, 0.124, 0.232, 0
3273999, -0.031, 0.264, -0.556, -0.559, 0.063, 0.266, 1
3274019, 0.086, -0.431, -1.256, -0.8, 0.016, 0.249, 1
3274039, 0.153, 0.009, -0.982, -0.757, -0.059, 0.182, 1
3274059, 0.078, 0.191, -0.91, -0.659, -0.058, 0.139, 1
3274079, 0.07, 0.474, -1.053, -0.654, -0.01, 0.125, 1
3274099, 0.329, -0.097, -0.784, -0.836, -0.065, 0.149, 1
3274119, 0.06, -0.027, -0.444, -0.995, -0.047, 0.184, 1
3274139, -0.025, 0.046, -0.343, -0.834, -0.081, 0.357, 1
3274159, 0.211, 0.114, -0.241, -0.422, -0.145, 0.555, 1
3274179, 0.648, -0.753, -1.239, -0.143, -0.202, 0.509, 1
3274199, 0.416, -2.428, -1.116, -0.4, 0.064, 0.344, 1
3274219, 1.576, -3.277, -1.436, -0.51, 0.116, 0.328, 1
3274239, 1.833, -4.256, -2.351, -0.343, -0.254, 0.322, 1
3274259, 1.192, -4.933, -3.134, -0.253, -0.445, 0.2, 1
3274279, 0.673, -4.565, -2.626, -0.626, -0.224, -0.067, 1
3274299, -0.123, -2.755, -1.027, -1.048, 0.047, -0.238, 1
3274319, -0.823, -1.076, 0.682, -1.099, 0.188, -0.206, 1
3274339, -1.343, -0.188, 1.941, -0.74, 0.27, -0.04, 1
3274359, -1.435, -0.513, 2.257, 0.078, 0.357, 0.252, 1
3274379, -1.285, -1.366, 1.718, 0.784, 0.655, 0.419, 1
3274399, 0.052, -3.416, 0.327, 0.927, 0.913, 0.496, 1
3274419, 1.521, -4.867, -0.453, 0.0, 0.147, 0.482, 1
3274439, 0.264, -3.342, 0.274, -1.167, -1.098, 0.312, 1
3274459, -1.732, -2.178, 0.479, -1.198, -1.341, 0.329, 1
3274479, -1.491, -2.736, -0.077, -0.453, -0.63, 0.503, 1
3274499, -1.005, -3.749, -0.793, 0.083, 0.152, 0.529, 1
3274519, 0.897, -5.266, -1.332, -0.1, 0.31, 0.61, 1
3274539, 0.776, -4.265, -0.694, -0.839, -0.364, 0.45, 1
3274559, -0.857, -2.994, 0.281, -1.01, -0.632, 0.401, 1
3274579, -0.932, -2.845, 0.884, -0.519, -0.24, 0.514, 1
3274599, 0.061, -3.337, 0.778, 0.025, 0.218, 0.56, 1
3274619, 0.686, -4.114, -0.155, 0.245, 0.237, 0.491, 1
3274639, 0.349, -4.163, -0.861, -0.059, -0.196, 0.389, 1
3274659, -0.226, -3.33, -0.617, -0.316, -0.461, 0.304, 1
3274679, -0.358, -2.739, -0.359, -0.036, -0.189, 0.29, 1
3274699, -0.338, -3.002, -0.599, 0.091, 0.154, 0.2, 1
3274719, -0.314, -3.256, -0.939, -0.058, 0.297, 0.155, 1
3274739, 0.047, -3.444, -0.646, -0.268, 0.188, 0.084, 1
3274759, 0.222, -2.998, -0.084, -0.274, 0.015, 0.017, 1
3274779, 0.093, -2.536, 0.495, 0.007, 0.021, -0.015, 1
3274799, 0.099, -2.939, 0.404, 0.217, 0.049, -0.08, 1
3274819, 0.462, -3.268, 0.158, 0.153, -0.138, -0.161, 1
3274839, -0.036, -3.35, -0.42, -0.041, -0.279, -0.182, 1
3274859, -0.07, -2.928, -0.367, 0.073, -0.342, -0.185, 0
3274879, -0.861, -2.707, -0.476, 0.309, -0.289, -0.084, 0
