timestamp, accX, accY, accZ, gyroX, gyroY, gyroZ, button
3111699, -0.008, -0.035, -0.008, -0.135, 0.034, 0.03, 1
3111719, -0.089, -0.003, -0.07, -0.147, 0.038, 0.04, 1
3111739, -0.128, 0.014, -0.026, -0.171, 0.078, 0.048, 1
3111759, -0.028, -0.019, -0.07, -0.185, 0.068, 0.065, 1
3111779, -0.004, -0.085, -0.018, -0.131, 0.014, 0.064, 1
3111799, 0.02, -0.037, -0.095, -0.094, -0.023, 0.052, 1
3111819, -0.024, -0.057, -0.162, -0.078, -0.014, 0.058, 1
3111839, -0.063, -0.044, -0.22, -0.084, 0.032, 0.053, 1
3111859, -0.004, -0.045, -0.178, -0.099, 0.058, 0.058, 1
3111879, 0.025, -0.019, -0.09, -0.12, 0.034, 0.053, 1
3111899, 0.01, -0.002, -0.065, -0.126, -0.003, 0.056, 1
3111919, -0.009, 0.001, -0.029, -0.07, -0.017, 0.04, 1
3111939, 0.016, -0.054, -0.134, -0.065, -0.043, 0.027, 1
3111959, -0.024, -0.054, -0.23, -0.068, -0.051, 0.023, 1
3111979, -0.027, -0.028, -0.268, -0.076, -0.025, 0.029, 1
3111999, 0.0, -0.024, -0.266, -0.086, -0.004, 0.032, 1
3112019, -0.032, -0.021, -0.247, -0.092, 0.01, 0.029, 1
3112039, -0.009, -0.001, -0.16, -0.091, 0.048, 0.033, 1
3112059, -0.003, -0.029, -0.119, -0.081, 0.058, 0.027, 1
3112079, -0.035, -0.018, -0.14, -0.103, 0.036, 0.029, 1
3112099, -0.054, -0.039, -0.18, -0.122, 0.037, 0.04, 1
3112119, -0.037, -0.006, -0.114, -0.105, 0.064, 0.038, 1
3112139, 0.004, -0.043, -0.062, -0.067, 0.054, 0.032, 1
3112159, -0.015, -0.024, -0.071, -0.069, 0.024, 0.037, 1
3112179, 0.006, -0.019, -0.07, -0.075, 0.003, 0.042, 1
3112199, 0.008, -0.05, -0.087, -0.072, 0.006, 0.034, 1
3112219, -0.032, -0.035, -0.184, -0.078, 0.019, 0.023, 1
3112239, -0.059, -0.001, -0.197, -0.111, 0.025, 0.032, 1
3112259, -0.039, 0.005, -0.153, -0.111, 0.021, 0.041, 1
3112279, -0.016, -0.014, -0.104, -0.081, 0.034, 0.036, 1
3112299, -0.001, -0.035, -0.081, -0.067, 0.057, 0.035, 1
3112319, 0.017, -0.047, -0.068, -0.071, 0.062, 0.037, 1
3112339, 0.007, -0.052, -0.057, -0.107, 0.031, 0.044, 1
3112359, -0.042, -0.006, -0.05, -0.113, 0.013, 0.046, 1
3112379, -0.024, -0.011, -0.023, -0.082, 0.037, 0.041, 1
3112399, -0.004, -0.018, 0.006, -0.073, 0.045, 0.042, 1
3112419, 0.004, -0.019, 0.026, -0.054, 0.006, 0.036, 1
3112439, -0.022, -0.023, -0.09, -0.045, 0.0, 0.028, 1
3112459, -0.037, -0.039, -0.177, -0.06, 0.003, 0.026, 1
3112479, -0.106, -0.042, -0.287, -0.098, 0.014, 0.05, 1
3112499, -0.066, 0.019, -0.213, -0.085, 0.019, 0.066, 1
3112519, 0.023, -0.092, -0.199, -0.076, 0.007, 0.072, 1
3112539, 0.051, -0.094, -0.206, -0.078, 0.01, 0.066, 1
3112559, 0.024, -0.047, -0.154, -0.067, 0.033, 0.054, 1
3112579, -0.002, -0.033, -0.122, -0.081, 0.038, 0.057, 1
3112599, -0.001, -0.005, -0.065, -0.081, 0.015, 0.059, 1
3112619, -0.008, -0.027, -0.132, -0.072, 0.003, 0.053, 1
3112639, -0.012, -0.011, -0.133, -0.074, 0.005, 0.05, 1
3112659, -0.033, -0.016, -0.154, -0.084, 0.026, 0.057, 1
3112679, -0.025, 0.01, -0.118, -0.084, 0.049, 0.056, 1
3112699, -0.013, 0.0, -0.081, -0.062, 0.053, 0.054, 1
3112719, 0.063, -0.123, -0.087, -0.079, 0.013, 0.063, 1
3112739, -0.005, -0.116, -0.173, -0.097, -0.001, 0.058, 1
3112759, -0.018, -0.035, -0.24, -0.078, 0.036, 0.048, 1
3112779, 0.0, -0.02, -0.209, -0.093, 0.045, 0.041, 1
3112799, -0.044, 0.015, -0.164, -0.11, 0.033, 0.053, 1
3112819, -0.072, 0.004, -0.128, -0.104, 0.043, 0.059, 1
3112839, -0.033, -0.057, -0.068, -0.111, 0.054, 0.064, 1
3112859, 0.024, -0.126, -0.065, -0.124, 0.039, 0.064, 1
3112879, 0.049, -0.145, -0.072, -0.116, -0.009, 0.05, 1
3112899, -0.047, -0.035, -0.132, -0.088, 0.024, 0.04, 1
3112919, -0.179, 0.022, -0.234, -0.087, 0.039, 0.041, 1
3112939, -0.092, 0.029, -0.15, -0.092, 0.048, 0.065, 1
3112959, -0.005, -0.018, -0.169, -0.138, 0.066, 0.09, 1
3112979, 0.024, -0.02, -0.199, -0.178, 0.021, 0.079, 1
3112999, -0.069, -0.018, -0.35, -0.164, -0.055, 0.072, 1
3113019, -0.159, -0.011, -0.405, -0.133, -0.077, 0.053, 1
3113039, -0.095, 0.008, -0.293, -0.13, -0.043, 0.055, 1
3113059, -0.092, -0.024, -0.19, -0.117, 0.004, 0.055, 1
3113079, -0.014, -0.014, -0.111, -0.087, 0.036, 0.065, 1
3113099, 0.053, -0.081, -0.105, -0.074, 0.058, 0.081, 1
3113119, 0.051, -0.064, -0.051, -0.053, 0.094, 0.075, 1
3113139, 0.102, -0.306, -0.123, -0.031, 0.129, 0.078, 1
3113159, 0.139, -0.322, -0.109, -0.121, 0.036, 0.103, 1
3113179, -0.04, -0.096, -0.051, -0.164, -0.027, 0.113, 1
3113199, 0.007, -0.058, 0.0, -0.125, 0.035, 0.107, 1
3113219, 0.092, -0.02, 0.119, -0.088, 0.074, 0.092, 1
3113239, 0.059, -0.06, 0.053, -0.072, 0.044, 0.078, 1
3113259, -0.049, -0.081, -0.142, -0.126, 0.02, 0.073, 1
3113279, -0.073, -0.046, -0.251, -0.16, 0.081, 0.065, 1
3113299, -0.068, -0.095, -0.377, -0.204, 0.171, 0.028, 1
3113319, -0.209, 0.193, -0.137, -0.204, 0.238, 0.044, 1
3113339, -0.088, 0.077, -0.171, -0.108, 0.248, 0.07, 1
3113359, -0.193, -0.126, -0.308, -0.171, 0.215, 0.184, 1
3113379, -0.105, -0.155, -0.348, -0.392, 0.222, 0.355, 1
3113399, -0.2, 0.022, -0.331, -0.581, 0.29, 0.342, 1
3113419, -0.157, 0.05, -0.149, -0.488, 0.311, 0.323, 1
3113439, 0.092, 0.069, 0.144, -0.278, 0.229, 0.228, 1
3113459, 0.105, -0.062, 0.251, -0.105, 0.166, 0.172, 1
3113479, 0.238, -0.21, 0.166, -0.075, 0.042, 0.165, 1
3113499, -0.086, -0.392, -0.193, -0.205, 0.065, 0.158, 1
3113519, -0.126, -0.303, -0.358, -0.305, 0.162, 0.148, 0
3113539, 0.0, -0.029, -0.274, -0.211, 0.202, 0.125, 0
3113559, 0.181, 0.106, 0.171, 0.034, 0.128, 0.062, 0
3113579, 0.352, -0.273, 0.097, 0.066, -0.029, 0.012, 0
3113599, 0.089, -0.222, 0.024, -0.087, -0.127, 0.047, 0
3113619, -0.004, 0.057, 0.028, -0.12, -0.209, 0.015, 0
3113639, -0.318, 0.164, -0.22, -0.095, -0.138, -0.029, 0
3113659, -0.245, 0.14, -0.36, -0.027, -0.054, -0.064, 0
3113679, -0.161, 0.128, -0.461, 0.033, 0.026, -0.063, 0
3113699, 0.052, 0.038, -0.605, -0.004, 0.018, -0.048, 0
3113719, 0.588, 0.209, -0.562, -0.156, -0.153, -0.057, 0
3113739, 0.37, 0.937, -0.694, -0.168, -0.214, -0.105, 0
3113759, 0.167, 1.45, -1.03, -0.092, -0.18, -0.183, 0
3113779, 0.302, 1.992, -1.237, -0.003, -0.153, -0.254, 0
3113799, 0.025, 2.923, -1.531, 0.073, -0.051, -0.246, 0
3113819, 0.715, 2.873, -1.657, -0.195, -0.239, -0.15, 0
3113839, 0.366, 3.083, -1.698, -0.516, -0.404, -0.067, 0
3113859, 0.134, 4.129, -1.192, -0.52, -0.28, -0.032, 0
3113879, 0.495, 4.53, -0.441, -0.216, -0.163, -0.075, 0
3113899, -0.681, 4.165, 1.423, -0.088, -0.092, -0.041, 0
3113919, -0.486, 2.112, 1.782, -0.159, -0.253, 0.353, 0
3113939, -0.457, -0.076, 1.518, -0.446, -0.748, 0.486, 0
3113959, -1.41, -0.7, 1.639, -0.502, -0.878, 0.394, 0
3113979, -2.221, -2.104, 1.265, -0.211, -0.496, 0.109, 0
3113999, -3.793, -2.366, 0.837, -0.032, 0.109, 0.324, 0
3114019, -2.717, -4.845, 0.405, 0.105, 0.104, 1.265, 0
3114039, -2.365, -5.604, 0.059, -0.015, -0.34, 1.604, 0
3114059, -1.921, -6.673, 0.043, 0.095, -0.326, 1.523, 0
3114079, -1.688, -7.677, -0.294, 0.394, 0.169, 1.195, 0
3114099, 0.901, -7.648, -0.83, 0.74, 0.453, 1.251, 0
3114119, 2.314, -7.644, -1.944, 0.486, 0.066, 0.934, 0
3114139, 0.674, -5.288, -2.079, 0.005, -0.221, 0.415, 0
3114159, -1.656, -3.18, -0.845, -0.097, 0.081, 0.142, 0
3114179, -1.834, -2.09, 1.096, 0.175, 0.616, 0.142, 0
3114199, -0.265, -2.746, 1.351, 0.374, 0.613, 0.223, 0
3114219, 0.565, -2.918, 0.499, -0.014, -0.077, 0.117, 0
3114239, -0.091, -2.428, -0.83, -0.396, -0.574, -0.053, 0
3114259, -0.7, -1.938, -1.526, -0.49, -0.39, -0.189, 0
3114279, -1.004, -1.126, -1.194, -0.343, 0.118, -0.202, 0
3114299, -0.856, -0.581, -0.521, -0.091, 0.416, -0.087, 0
3114319, -0.145, -1.113, -0.457, -0.008, 0.397, 0.017, 0
3114339, 0.626, -1.778, -0.566, -0.109, 0.069, 0.089, 1
3114359, 0.732, -2.615, -1.29, -0.302, -0.146, -0.052, 1
3114379, 0.064, -2.476, -1.318, -0.353, 0.01, -0.194, 1
3114399, 0.115, -3.304, -1.208, -0.338, -0.018, -0.431, 1
3114419, -0.629, -3.626, -0.751, -0.448, -0.088, -0.406, 1
3114439, -0.905, -3.003, 0.139, -0.415, 0.059, -0.271, 1
3114459, 0.191, -2.641, 0.696, -0.162, 0.062, -0.181, 1
3114479, 0.198, -3.629, 0.543, -0.085, -0.229, -0.188, 1
3114499, -0.396, -3.103, 0.515, -0.064, -0.378, -0.214, 1
3114519, -0.732, -3.238, 0.319, -0.122, -0.233, -0.085, 1
3114539, 0.258, -2.356, 0.73, -0.313, -0.211, -0.17, 1
3114559, 0.442, -1.937, 0.546, -0.496, -0.365, -0.457, 1
3114579, -0.845, -2.369, 0.088, -0.709, -0.381, -0.493, 1
3114599, -2.199, -0.165, 0.572, -0.628, 0.298, -0.552, 1
3114619, -0.204, 1.608, 1.484, -0.297, 0.912, -0.67, 1
3114639, 1.507, 0.966, 1.787, -0.33, 0.63, -0.656, 1
3114659, -0.548, 1.854, 1.061, -0.318, 0.133, -0.678, 1
3114679, -1.768, 4.022, 0.832, -0.168, 0.279, -0.443, 1
3114699, -1.181, 4.395, 0.647, -0.144, 0.593, -0.294, 1
3114719, -0.481, 3.695, 0.448, -0.183, 0.647, -0.104, 1
3114739, -0.819, 3.448, -0.204, -0.157, 0.443, 0.052, 1
3114759, -1.163, 3.643, -0.355, -0.069, 0.437, 0.133, 1
3114779, -0.701, 2.821, -0.564, -0.031, 0.596, 0.172, 1
3114799, -0.003, 1.633, -0.785, -0.023, 0.631, 0.164, 1
3114819, 0.05, 1.179, -0.92, -0.036, 0.5, 0.114, 1
3114839, -0.377, 0.723, -1.075, -0.043, 0.384, 0.092, 1
3114859, -0.436, 0.357, -0.958, -0.084, 0.358, 0.092, 1
3114879, 0.383, -0.476, -0.404, -0.191, 0.268, 0.064, 1
3114899, 0.166, -0.514, -0.192, -0.196, 0.18, -0.023, 1
3114919, -0.243, -0.39, -0.151, -0.084, 0.109, -0.12, 1
3114939, -0.246, -0.483, -0.283, -0.01, 0.008, -0.12, 1
3114959, -0.712, -0.234, -0.409, -0.125, -0.143, -0.094, 1
3114979, -0.922, -0.117, -0.402, -0.132, -0.034, -0.023, 1
3114999, -0.592, -0.286, -0.233, -0.145, 0.157, 0.037, 1
3115019, 0.0, -0.353, 0.06, -0.144, 0.262, 0.061, 1
3115039, 0.37, -0.648, 0.117, -0.122, 0.138, 0.04, 1
3115059, -0.122, -0.511, -0.046, -0.064, -0.036, -0.023, 1
3115079, -0.214, -0.429, -0.247, 0.025, 0.028, -0.012, 1
3115099, -0.261, -0.285, -0.361, 0.015, 0.241, -0.015, 1
3115119, -0.105, -0.32, -0.412, -0.144, 0.38, 0.071, 1
3115139, -0.141, 0.009, -0.234, -0.348, 0.282, 0.169, 1
3115159, 0.02, -0.058, -0.08, -0.34, 0.135, 0.233, 1
3115179, -0.034, -0.063, -0.098, -0.341, -0.036, 0.24, 1
3115199, -0.322, -0.197, -0.366, -0.302, 0.028, 0.246, 1
3115219, -0.357, -0.257, -0.644, -0.334, 0.197, 0.246, 1
3115239, -0.011, -0.06, -0.364, -0.353, 0.23, 0.296, 0
3115259, -0.006, -0.09, -0.351, -0.222, 0.132, 0.204, 0
3115279, 0.048, -0.053, -0.148, -0.049, 0.078, 0.139, 0
3115299, 0.026, -0.107, -0.068, 0.018, 0.125, 0.091, 0
3115319, 0.178, -0.169, 0.035, 0.011, 0.164, 0.061, 0
3115339, 0.164, -0.138, -0.149, -0.125, 0.041, 0.014, 0
3115359, -0.018, 0.284, -0.209, -0.155, -0.015, 0.003, 0
3115379, -0.239, 0.614, -0.451, -0.072, 0.006, 0.004, 0
3115399, -0.071, 0.576, -0.675, -0.066, -0.012, 0.007, 0
3115419, 0.027, 0.732, -0.892, -0.065, -0.029, -0.029, 0
3115439, 0.441, 0.962, -1.208, -0.089, 0.01, -0.064, 0
3115459, 1.108, 1.654, -1.682, -0.179, -0.257, -0.141, 0
3115479, 0.311, 2.628, -2.432, -0.328, -0.342, -0.115, 0
3115499, -0.17, 3.85, -2.325, -0.438, -0.265, 0.001, 0
3115519, -0.301, 5.313, -1.335, -0.384, -0.087, 0.111, 0
3115539, -0.102, 5.879, -0.203, -0.271, -0.042, 0.286, 0
3115559, -0.618, 5.788, 0.401, -0.237, -0.105, 0.55, 0
3115579, -0.498, 5.052, 1.038, -0.178, -0.137, 0.778, 0
3115599, -0.275, 3.971, 1.506, -0.031, -0.087, 0.963, 0
3115619, -0.13, 1.997, 1.971, -0.082, -0.285, 1.168, 0
3115639, -1.404, 0.366, 2.043, 0.062, -0.436, 1.365, 0
3115659, -2.475, -1.749, 1.612, 0.216, -0.448, 1.452, 0
3115679, -2.852, -3.766, 1.217, 0.223, -0.508, 1.268, 0
3115699, -3.597, -5.786, 0.6, 0.15, -0.273, 0.968, 0
3115719, -3.747, -6.893, -0.152, 0.195, -0.011, 1.313, 0
3115739, -2.121, -9.279, -1.264, -0.061, -0.031, 1.065, 0
3115759, -1.797, -8.183, -1.444, 0.07, -0.143, 1.07, 0
3115779, -0.297, -8.157, -1.091, 0.177, -0.035, 0.533, 0
3115799, 0.042, -6.989, -0.798, 0.145, -0.008, 0.254, 0
3115819, -0.315, -5.519, -1.086, -0.091, -0.084, 0.109, 0
3115839, -0.925, -4.117, 0.124, -0.287, 0.095, 0.028, 0
3115859, -0.323, -2.008, 0.789, -0.028, 0.16, -0.065, 0
3115879, -0.672, -2.037, -0.179, 0.038, -0.07, -0.108, 0
3115899, -1.368, -1.763, -0.867, -0.172, -0.203, -0.069, 0
3115919, -0.828, -1.099, -0.489, -0.23, -0.023, 0.024, 0
3115939, -0.219, -0.453, 0.005, -0.047, 0.142, 0.036, 0
3115959, -0.027, -0.668, -0.035, 0.032, 0.026, 0.032, 0
3115979, -0.108, -0.855, -0.387, 0.069, -0.122, -0.043, 0
3115999, -0.076, -1.063, -0.734, 0.007, -0.035, -0.015, 0
3116019, 0.439, -1.399, -0.655, -0.141, 0.016, -0.034, 0
3116039, 0.657, -1.613, -0.5, -0.16, -0.122, -0.147, 0
3116059, 0.061, -1.895, -1.154, -0.075, -0.218, -0.265, 0
3116079, -0.599, -1.826, -1.568, -0.178, -0.061, -0.284, 1
3116099, -0.6, -1.914, -1.455, -0.231, 0.21, -0.246, 1
3116119, -1.072, -2.647, -0.603, -0.152, 0.395, -0.241, 1
3116139, -0.879, -3.467, 0.432, 0.097, 0.462, -0.275, 1
3116159, 0.229, -3.874, 0.863, 0.194, 0.087, -0.397, 1
3116179, 0.544, -3.059, 0.875, 0.327, -0.349, -0.499, 1
3116199, -0.574, -3.137, 0.209, 0.368, -0.696, -0.504, 1
3116219, -1.818, -3.384, -0.499, 0.101, -0.631, -0.347, 1
3116239, -1.442, -2.816, -0.186, -0.251, -0.312, -0.199, 1
3116259, -1.083, -2.833, 0.398, -0.462, -0.046, -0.246, 1
3116279, -0.034, -2.156, 1.308, -0.518, 0.118, -0.398, 1
3116299, 1.174, -1.828, 1.551, -0.478, -0.058, -0.653, 1
3116319, -0.592, -1.038, 1.009, -0.615, -0.214, -0.935, 1
3116339, -2.685, 0.883, 0.65, -0.421, 0.293, -0.872, 1
3116359, -0.874, 0.575, 0.551, -0.257, 0.635, -0.777, 1
3116379, 1.236, 0.833, 1.104, -0.477, 0.489, -0.855, 1
3116399, 0.947, 1.376, 1.284, -0.483, 0.181, -0.83, 1
3116419, -0.609, 2.196, 0.69, -0.3, 0.022, -0.739, 1
3116439, -1.077, 3.282, 0.419, -0.103, 0.274, -0.65, 1
3116459, -0.288, 3.081, 0.268, -0.04, 0.423, -0.533, 1
3116479, -0.537, 3.474, 0.059, -0.011, 0.362, -0.424, 1
3116499, -1.384, 3.96, -0.18, -0.006, 0.182, -0.197, 1
3116519, -1.736, 3.563, -0.477, -0.161, 0.091, 0.062, 1
3116539, -1.833, 2.729, -0.66, -0.256, 0.24, 0.282, 1
3116559, -0.662, 1.417, -0.71, -0.291, 0.297, 0.396, 1
3116579, 0.415, 0.776, -0.641, -0.262, 0.043, 0.315, 1
3116599, -0.585, 1.667, -0.754, 0.09, -0.008, 0.205, 1
3116619, -1.35, 1.374, -1.3, 0.292, 0.272, 0.189, 1
3116639, -0.854, 0.875, -1.165, 0.174, 0.456, 0.238, 1
3116659, -0.083, 0.124, -0.799, -0.042, 0.274, 0.284, 1
3116679, -0.264, -0.169, -0.771, -0.147, 0.061, 0.276, 1
3116699, -0.494, -0.392, -0.844, -0.179, -0.039, 0.241, 1
3116719, -0.651, -0.48, -0.937, -0.178, 0.01, 0.2, 1
3116739, -0.634, -0.65, -0.879, -0.13, 0.155, 0.158, 1
3116759, -0.445, -0.818, -0.816, -0.109, 0.249, 0.151, 1
3116779, -0.098, -0.832, -0.488, -0.098, 0.123, 0.149, 1
3116799, -0.088, -0.595, -0.208, -0.055, -0.017, 0.085, 1
3116819, -0.189, -0.645, -0.201, -0.023, 0.188, 0.057, 1
3116839, 0.265, -0.767, 0.135, -0.067, 0.213, 0.094, 1
3116859, 0.395, -0.423, 0.591, -0.106, -0.055, 0.103, 1
3116879, 0.057, -0.165, 0.608, -0.001, -0.335, 0.061, 1
3116899, -0.323, -0.399, 0.015, 0.084, -0.211, 0.026, 1
3116919, -0.242, -0.607, -0.35, 0.029, 0.097, 0.047, 1
3116939, 0.149, -0.903, -0.421, -0.192, 0.096, 0.155, 1
3116959, -0.151, -0.027, -0.171, -0.331, -0.086, 0.19, 0
3116979, -0.064, 0.049, -0.124, -0.075, -0.028, 0.11, 0
3116999, -0.045, -0.148, -0.123, 0.154, 0.095, 0.001, 0
3117019, 0.241, -0.65, -0.302, 0.285, 0.266, -0.056, 0
3117039, 0.307, -0.655, -0.481, 0.076, 0.204, -0.006, 0
3117059, -0.292, -0.114, -0.774, -0.185, 0.134, 0.067, 0
3117079, -0.226, 0.382, -0.571, -0.274, 0.228, 0.12, 0
3117099, -0.297, 0.754, -0.569, -0.084, 0.244, 0.065, 0
3117119, 0.152, 0.566, -0.647, 0.129, 0.368, -0.013, 0
3117139, 0.669, 0.677, -0.771, 0.092, 0.256, -0.052, 0
3117159, 0.032, 1.897, -1.231, -0.056, -0.045, -0.054, 0
3117179, -0.49, 3.151, -1.458, -0.104, -0.059, -0.025, 0
3117199, -0.186, 4.27, -1.023, -0.001, 0.171, 0.0, 0
3117219, 0.351, 5.159, -0.741, 0.329, 0.367, -0.101, 0
3117239, 1.26, 4.428, -0.95, 0.518, 0.238, -0.086, 0
3117259, -0.117, 4.602, -1.284, 0.075, -0.401, 0.144, 0
3117279, -1.235, 5.301, -1.228, -0.177, -0.424, 0.426, 0
3117299, -0.748, 5.532, -0.57, 0.151, 0.134, 0.33, 0
3117319, -0.014, 4.567, 0.131, 0.469, 0.068, 0.38, 0
3117339, -0.454, 1.312, 0.365, 0.296, -0.399, 1.045, 0
3117359, -1.577, -1.463, 0.619, -0.29, -1.052, 1.657, 0
3117379, -4.04, -2.078, 1.157, -0.304, -0.918, 1.748, 0
3117399, -3.958, -4.055, 2.014, 0.279, -0.222, 1.273, 0
3117419, -2.274, -7.492, 2.379, 0.553, 0.406, 0.537, 0
3117439, -2.137, -8.807, 1.687, 0.72, 0.072, 0.959, 0
3117459, -1.322, -10.379, -0.543, 0.099, -0.623, 1.229, 0
3117479, -1.803, -8.771, -1.667, -0.417, -0.433, 1.222, 0
3117499, -0.69, -7.114, -1.075, -0.302, 0.262, 0.757, 0
3117519, 1.061, -5.629, -0.371, 0.056, 0.469, 0.185, 0
3117539, 0.708, -4.681, -1.068, 0.106, 0.091, 0.267, 0
3117559, -0.548, -3.618, -0.929, -0.326, 0.084, 0.155, 0
3117579, -1.223, -2.54, 0.287, -0.361, 0.238, 0.2, 0
3117599, -0.804, -1.931, 1.534, -0.305, 0.282, 0.047, 0
3117619, 0.102, -1.422, 1.957, -0.097, 0.044, -0.062, 0
3117639, -0.105, -1.149, 0.783, 0.004, -0.285, -0.009, 0
3117659, -0.612, -1.31, -0.849, -0.176, -0.301, 0.003, 0
3117679, -0.84, -1.157, -1.211, -0.307, 0.071, 0.05, 0
3117699, 0.233, -0.847, -0.281, -0.142, 0.265, -0.056, 0
3117719, 0.247, -0.844, 0.143, 0.047, 0.219, -0.114, 0
3117739, 0.088, -1.071, 0.264, 0.049, 0.084, -0.082, 0
3117759, 0.545, -1.324, 0.23, -0.156, -0.222, -0.056, 0
3117779, -0.128, -0.971, -0.153, -0.09, -0.326, -0.122, 0
3117799, 0.162, -1.548, -0.482, 0.213, 0.005, -0.195, 0
3117819, 0.435, -1.918, -0.62, 0.476, -0.042, -0.299, 0
3117839, 0.419, -2.272, -0.837, 0.65, -0.287, -0.413, 1
3117859, -0.662, -2.955, -1.472, 0.621, -0.466, -0.492, 1
3117879, -2.091, -3.145, -1.116, 0.197, -0.333, -0.394, 1
3117899, -1.661, -3.472, 0.329, 0.131, 0.182, -0.311, 1
3117919, 0.941, -2.528, 1.836, 0.237, 0.158, -0.243, 1
3117939, 0.531, -3.762, 1.02, 0.176, -0.593, -0.242, 1
3117959, -1.469, -4.605, -0.079, -0.197, -1.03, -0.124, 1
3117979, -2.317, -3.237, 0.123, -0.625, -0.602, -0.048, 1
3117999, -0.937, -2.232, 1.082, -0.689, 0.141, -0.144, 1
3118019, -0.058, -2.278, 1.743, -0.615, 0.356, -0.495, 1
3118039, -0.551, -3.08, 1.437, -0.675, 0.076, -0.795, 1
3118059, -0.8, -0.989, 1.081, -0.876, -0.195, -0.929, 1
3118079, -0.692, 0.224, 1.044, -0.855, -0.004, -0.946, 1
3118099, 0.026, 1.255, 1.492, -0.787, 0.277, -0.96, 1
3118119, -0.538, 1.349, 1.603, -0.696, 0.313, -0.96, 1
3118139, -0.7, 2.586, 1.482, -0.422, 0.377, -0.896, 1
3118159, 0.58, 3.164, 1.005, -0.161, 0.356, -0.786, 1
3118179, -0.194, 3.07, 0.246, -0.215, 0.169, -0.705, 1
3118199, -1.329, 3.897, 0.045, -0.241, 0.221, -0.536, 1
3118219, -1.074, 3.624, -0.41, 0.023, 0.417, -0.431, 1
3118239, -0.945, 2.285, -1.123, 0.053, 0.376, -0.297, 1
3118259, -1.115, 2.122, -1.115, -0.098, 0.356, -0.1, 1
3118279, -1.185, 2.403, -0.95, -0.127, 0.552, 0.096, 1
3118299, -0.672, 2.6, -0.703, 0.02, 0.548, 0.124, 1
3118319, -0.556, 1.902, -0.778, 0.11, 0.536, 0.114, 1
3118339, -0.127, 0.838, -1.015, 0.025, 0.394, 0.16, 1
3118359, -0.197, 0.237, -1.299, -0.181, 0.189, 0.232, 1
3118379, -0.575, 0.18, -1.395, -0.193, 0.166, 0.231, 1
3118399, -0.533, 0.209, -1.201, -0.07, 0.298, 0.172, 1
3118419, -0.427, -0.008, -1.063, 0.012, 0.407, 0.094, 1
3118439, -0.181, -0.271, -0.838, 0.042, 0.444, 0.069, 1
3118459, 0.107, -0.787, -0.61, -0.105, 0.278, 0.139, 1
3118479, -0.022, -1.014, -0.469, -0.298, 0.075, 0.207, 1
3118499, -0.583, -0.401, -0.382, -0.261, 0.169, 0.277, 1
3118519, -0.272, -0.598, -0.286, -0.167, 0.346, 0.251, 1
3118539, -0.001, -0.918, -0.326, -0.17, 0.397, 0.243, 1
3118559, 0.204, -1.163, -0.411, -0.28, 0.371, 0.245, 1
3118579, 0.523, -1.226, -0.405, -0.434, 0.217, 0.207, 1
3118599, -0.028, -0.722, -0.35, -0.474, 0.235, 0.143, 1
3118619, -0.169, -0.508, -0.273, -0.383, 0.395, 0.053, 1
3118639, -0.112, -0.076, -0.01, -0.202, 0.456, 0.029, 1
3118659, 0.569, -0.684, -0.064, -0.329, 0.189, 0.054, 1
3118679, 0.221, -0.647, -0.214, -0.687, -0.041, 0.131, 1
3118699, -0.406, -0.061, -0.146, -0.767, 0.073, 0.076, 0
3118719, -0.531, 0.601, 0.158, -0.35, 0.291, -0.106, 0
3118739, -0.031, 0.144, 0.137, -0.029, 0.291, -0.278, 0
3118759, 0.399, -0.952, -0.182, -0.504, -0.138, -0.065, 0
3118779, -0.846, 0.446, -0.775, -0.835, -0.159, 0.065, 0
3118799, -0.637, 1.088, -0.655, -0.631, 0.021, 0.096, 0
3118819, -0.115, 0.693, -1.013, -0.26, 0.006, 0.039, 0
3118839, 0.838, 0.333, -1.222, -0.182, 0.042, 0.003, 0
3118859, 1.134, 0.744, -1.042, -0.258, -0.164, -0.048, 0
3118879, 0.659, 1.617, -1.236, -0.326, -0.47, -0.069, 0
3118899, 0.145, 2.942, -1.232, -0.267, -0.533, -0.064, 0
3118919, -0.027, 3.941, -0.94, -0.028, -0.4, -0.075, 0
3118939, -0.812, 4.862, -0.754, 0.324, -0.154, -0.102, 0
3118959, -0.232, 4.378, -0.663, 0.535, 0.147, 0.076, 0
3118979, -0.124, 4.9, -0.352, 0.125, -0.233, 0.417, 0
3118999, -0.697, 5.549, 0.39, -0.048, -0.383, 0.682, 0
3119019, -0.636, 4.87, 1.271, 0.139, -0.147, 0.81, 0
3119039, -0.608, 3.814, 2.404, 0.536, 0.06, 0.739, 0
3119059, -1.072, 1.02, 2.846, 0.938, 0.064, 0.554, 0
3119079, -2.976, -2.147, 1.534, 0.948, -0.059, 0.485, 0
3119099, -3.82, -4.828, 0.224, 0.67, 0.16, 0.807, 0
3119119, -2.84, -6.287, 0.377, 0.34, 0.24, 1.024, 0
3119139, -2.57, -8.342, -0.085, 0.391, -0.053, 1.064, 0
3119159, -2.476, -8.071, -0.746, 0.379, -0.122, 1.42, 0
3119179, -1.213, -10.042, -1.915, 0.015, -0.335, 2.076, 0
3119199, -0.282, -8.977, -1.335, -0.58, -0.392, 1.973, 0
3119219, 1.497, -7.661, 0.175, -0.544, -0.026, 1.654, 0
3119239, 2.47, -6.996, -0.008, -0.009, 0.189, 0.57, 0
3119259, 1.067, -5.58, -0.745, 0.099, 0.106, 0.119, 0
3119279, -1.132, -3.624, -0.435, -0.21, 0.311, 0.087, 0
3119299, -1.382, -2.064, 0.91, -0.227, 0.394, 0.096, 0
3119319, -0.669, -1.364, 1.542, -0.021, 0.1, 0.029, 0
3119339, -0.393, -1.582, 0.922, -0.043, -0.251, -0.032, 0
3119359, -0.576, -1.402, 0.074, -0.087, -0.403, -0.032, 0
3119379, -0.91, -0.839, -0.91, -0.211, -0.222, 0.032, 0
3119399, -1.048, -0.192, -1.262, -0.142, 0.103, 0.119, 0
3119419, -0.886, -0.041, -0.548, 0.135, 0.437, 0.173, 0
3119439, 0.332, -0.459, 0.297, 0.43, 0.321, 0.119, 0
3119459, 1.127, -1.559, 0.082, 0.322, -0.087, 0.024, 0
3119479, 0.872, -1.667, -0.597, 0.086, -0.459, -0.025, 0
3119499, -0.06, -1.039, -1.111, 0.061, -0.392, -0.014, 0
3119519, 0.016, -0.832, -1.071, 0.364, -0.219, -0.048, 0
3119539, -0.06, -1.692, -1.268, 0.374, -0.075, -0.128, 1
3119559, -0.708, -1.772, -1.025, 0.021, 0.161, -0.147, 1
3119579, -1.159, -1.446, -1.114, -0.355, 0.355, -0.143, 1
3119599, -0.994, -1.054, -0.294, -0.444, 0.457, -0.215, 1
3119619, -0.287, -2.067, -0.305, -0.398, 0.324, -0.288, 1
3119639, -0.299, -2.653, -0.188, -0.323, 0.292, -0.357, 1
3119659, -0.328, -3.083, 0.098, -0.217, 0.276, -0.431, 1
3119679, -0.239, -3.677, -0.045, -0.195, 0.111, -0.416, 1
3119699, -0.282, -4.064, -0.239, -0.291, -0.109, -0.422, 1
3119719, -0.241, -4.754, -0.326, -0.433, -0.287, -0.483, 1
3119739, -1.135, -5.284, -0.176, -0.748, -0.2, -0.61, 1
3119759, -0.584, -2.645, 1.083, -0.724, -0.288, -0.643, 1
3119779, -0.773, -2.256, 1.342, -0.629, -0.447, -0.771, 1
3119799, -2.099, -1.57, 0.89, -0.569, -0.486, -0.996, 1
3119819, -1.694, -0.431, 1.052, -0.523, -0.091, -1.032, 1
3119839, 0.19, 0.24, 1.305, -0.483, 0.314, -1.078, 1
3119859, 0.427, 0.907, 1.331, -0.417, 0.248, -1.153, 1
3119879, -0.969, 2.007, 1.339, -0.29, 0.218, -1.117, 1
3119899, -0.301, 1.903, 1.099, -0.084, 0.367, -0.91, 1
3119919, 0.876, 1.571, 0.865, -0.177, 0.27, -0.75, 1
3119939, 0.946, 1.187, 0.334, -0.461, -0.103, -0.61, 1
3119959, -0.74, 1.992, 0.073, -0.629, -0.359, -0.511, 1
3119979, -2.501, 3.871, 0.206, -0.412, 0.002, -0.398, 1
3119999, -1.124, 3.717, 0.381, 0.031, 0.599, -0.229, 1
3120019, 0.104, 2.926, 0.067, 0.115, 0.558, -0.125, 1
3120039, -0.339, 2.5, -0.72, -0.066, 0.117, -0.01, 1
3120059, -1.722, 2.966, -1.226, -0.18, 0.033, 0.068, 1
3120079, -1.348, 1.545, -1.795, -0.109, 0.347, 0.22, 1
3120099, -0.427, 0.325, -1.749, -0.219, 0.507, 0.373, 1
3120119, 0.026, 0.183, -1.036, -0.335, 0.561, 0.423, 1
3120139, 0.361, 0.091, -0.451, -0.318, 0.569, 0.362, 1
3120159, 0.25, -0.02, -0.045, -0.175, 0.377, 0.224, 1
3120179, -0.038, -0.487, -0.301, -0.04, 0.106, 0.108, 1
3120199, -0.42, -0.82, -0.817, -0.145, -0.167, 0.09, 1
3120219, -0.875, -0.858, -1.108, -0.301, -0.118, 0.131, 1
3120239, -0.573, -1.049, -1.016, -0.274, 0.262, 0.06, 1
3120259, 0.143, -1.25, -0.633, -0.152, 0.226, -0.064, 1
3120279, 0.229, -0.901, -0.216, -0.073, 0.112, -0.158, 1
3120299, -0.066, -0.638, -0.113, -0.117, -0.006, -0.159, 1
3120319, -0.907, -0.436, -0.481, -0.309, 0.128, -0.139, 1
3120339, -1.511, -0.202, -0.701, -0.492, 0.588, 0.012, 1
3120359, -0.498, -0.079, -0.179, -0.47, 0.672, 0.122, 0
3120379, 0.935, -0.428, 0.229, -0.394, 0.144, 0.071, 0
3120399, 0.552, -0.029, 0.273, -0.306, -0.221, 0.067, 0
3120419, -0.795, 0.458, -0.2, -0.248, 0.048, 0.094, 0
3120439, -1.039, 1.22, -0.268, 0.011, 0.495, 0.105, 0
3120459, -0.114, 1.674, -0.431, 0.236, 0.498, 0.112, 0
3120479, 0.762, 1.946, -0.922, -0.102, -0.013, 0.161, 0
3120499, -0.316, 4.183, -1.426, -0.249, -0.278, 0.2, 0
3120519, -0.934, 5.509, -2.057, -0.213, -0.213, 0.255, 0
3120539, -0.716, 6.859, -2.196, 0.128, -0.097, 0.268, 0
3120559, -0.58, 7.101, -2.404, 0.616, 0.18, 0.243, 0
3120579, 0.094, 5.815, -2.269, 0.629, 0.182, 0.442, 0
3120599, 1.152, 4.087, -1.218, -0.006, -0.415, 0.77, 0
3120619, 1.927, 3.139, 0.592, -0.755, -1.712, 1.276, 0
3120639, -0.276, 2.9, 1.954, -0.629, -2.358, 1.291, 0
3120659, -2.612, 0.026, 1.925, -0.177, -1.77, 1.047, 0
3120679, -2.884, -2.907, 2.508, 0.197, -0.892, 0.383, 0
3120699, -4.889, -5.696, 1.895, 0.409, -0.099, 0.43, 0
3120719, -4.905, -8.6, 0.001, -0.049, -0.819, 1.589, 0
3120739, -2.966, -10.63, -1.55, -0.593, -1.123, 1.686, 0
3120759, -1.638, -9.285, -1.601, -0.318, -0.362, 1.453, 0
3120779, 1.059, -8.282, -1.613, 0.373, 0.566, 1.037, 0
3120799, 3.851, -9.084, -2.928, 0.344, 0.258, 0.996, 0
3120819, 1.149, -6.794, -1.951, -0.817, -0.754, 0.494, 0
3120839, -1.743, -2.564, 1.095, -1.111, -0.404, 0.287, 0
3120859, -0.495, -2.389, 2.085, -0.265, 0.306, 0.259, 0
3120879, -0.11, -2.233, 1.234, 0.196, 0.095, 0.101, 0
3120899, -0.605, -2.29, 0.163, 0.07, -0.345, 0.198, 0
3120919, -0.751, -2.045, -0.451, -0.252, -0.377, 0.124, 0
3120939, -0.853, -1.154, -0.749, -0.335, -0.075, 0.028, 0
3120959, -1.303, -0.229, 0.095, -0.045, 0.404, 0.02, 0
3120979, -0.325, -0.641, 0.589, 0.245, 0.679, 0.151, 0
3120999, 0.666, -1.296, 0.308, 0.107, 0.309, 0.151, 0
3121019, 0.045, -1.008, -0.38, -0.096, -0.128, 0.076, 0
3121039, -0.159, -0.833, -0.715, -0.071, -0.027, 0.069, 0
3121059, 0.181, -1.313, -0.989, 0.088, 0.12, -0.025, 0
3121079, -0.527, -0.972, -1.129, 0.087, 0.174, -0.058, 0
3121099, -0.683, -0.742, -0.733, 0.056, 0.305, 0.056, 0
3121119, 0.2, -1.097, -0.522, 0.025, 0.248, 0.103, 0
3121139, 0.035, -1.562, -0.844, 0.002, 0.007, 0.062, 0
3121159, -0.586, -1.364, -0.978, -0.098, -0.054, 0.038, 1
3121179, 0.043, -1.99, -1.425, -0.129, 0.022, 0.018, 1
3121199, -0.442, -2.52, -1.543, -0.196, -0.071, -0.155, 1
3121219, -0.732, -2.903, -1.018, -0.094, 0.02, -0.381, 1
3121239, -0.29, -2.568, -0.211, 0.06, 0.119, -0.505, 1
3121259, -0.494, -3.293, -0.214, 0.153, 0.092, -0.568, 1
3121279, -0.466, -4.285, -0.364, -0.003, 0.0, -0.44, 1
3121299, -0.056, -4.457, -0.395, -0.175, -0.097, -0.38, 1
3121319, 0.695, -4.737, -0.465, -0.389, -0.266, -0.578, 1
3121339, -0.095, -4.671, -0.833, -0.644, -0.355, -0.704, 1
3121359, -1.567, -4.28, -0.652, -1.012, -0.288, -0.533, 1
3121379, -2.596, -2.638, 0.152, -1.039, 0.226, -0.346, 1
3121399, -1.18, -0.406, 1.417, -0.656, 0.662, -0.445, 1
3121419, -0.445, 0.145, 1.905, -0.243, 0.787, -0.701, 1
3121439, -1.149, -0.378, 1.651, -0.054, 0.854, -0.885, 1
3121459, -1.81, 0.351, 1.545, -0.093, 0.83, -0.847, 1
3121479, -0.587, 1.083, 1.455, -0.136, 0.641, -0.752, 1
3121499, -0.091, 1.494, 1.446, -0.2, 0.371, -0.741, 1
3121519, -0.775, 2.214, 1.354, -0.096, 0.352, -0.654, 1
3121539, -0.958, 2.036, 1.136, 0.081, 0.422, -0.608, 1
3121559, -0.626, 1.276, 0.402, 0.185, 0.345, -0.541, 1
3121579, -0.439, 0.955, 0.093, 0.075, 0.306, -0.457, 1
3121599, -0.134, 1.354, 0.421, -0.083, 0.4, -0.359, 1
3121619, 0.136, 2.232, 0.538, -0.003, 0.325, -0.357, 1
3121639, -0.422, 2.203, 0.099, 0.237, 0.199, -0.372, 1
3121659, -0.666, 1.713, -0.616, 0.331, 0.159, -0.321, 1
3121679, -0.456, 1.182, -1.082, 0.272, 0.145, -0.215, 1
3121699, -0.288, 0.819, -1.978, 0.152, 0.033, -0.104, 1
3121719, -1.241, 1.007, -1.816, 0.069, 0.203, -0.012, 1
3121739, -0.532, 0.717, -1.281, -0.01, 0.45, 0.122, 1
3121759, 0.505, -0.015, -0.758, -0.172, 0.389, 0.237, 1
3121779, 0.553, -0.395, -0.641, -0.291, -0.067, 0.256, 1
3121799, 0.036, -0.626, -1.109, -0.288, -0.511, 0.212, 1
3121819, -0.819, -0.548, -1.467, -0.13, -0.435, 0.082, 1
3121839, -0.699, -0.896, -1.441, 0.043, 0.098, 0.038, 1
3121859, 0.354, -1.68, -1.335, -0.006, 0.379, 0.089, 1
3121879, 0.349, -1.468, -1.034, -0.296, 0.15, 0.136, 1
3121899, -0.358, -0.592, -0.57, -0.419, -0.072, 0.161, 1
3121919, -0.72, -0.334, -0.289, -0.219, 0.059, 0.125, 1
3121939, -0.409, -0.887, -0.26, -0.065, 0.332, 0.117, 1
3121959, -0.095, -1.424, -0.383, -0.213, 0.417, 0.185, 1
3121979, 0.177, -1.217, -0.211, -0.472, 0.243, 0.314, 0
3121999, -0.449, -0.376, 0.358, -0.412, 0.031, 0.26, 0
3122019, 0.284, -0.114, 0.875, 0.122, 0.019, 0.131, 0
3122039, 0.456, -0.601, 0.791, 0.587, -0.144, -0.01, 0
3122059, 0.16, -1.101, 0.076, 0.508, -0.401, 0.039, 0
3122079, -0.098, -0.671, -0.208, 0.198, -0.409, 0.164, 0
3122099, 0.045, -0.438, -0.374, 0.191, -0.106, 0.152, 0
3122119, 0.304, -0.376, -0.622, 0.158, 0.156, 0.097, 0
3122139, 0.151, 0.386, -0.536, 0.032, 0.147, 0.098, 0
3122159, 0.184, 0.97, -0.495, 0.045, 0.006, 0.111, 0
3122179, -0.67, 2.276, -0.675, 0.103, -0.067, 0.142, 0
3122199, -1.041, 3.533, -0.713, 0.197, -0.001, 0.185, 0
3122219, -1.178, 4.317, -0.871, 0.128, -0.003, 0.352, 0
3122239, -0.268, 4.41, -0.844, -0.192, -0.291, 0.577, 0
3122259, -0.841, 5.11, -1.092, -0.358, -0.384, 0.67, 0
3122279, -1.707, 5.842, -1.233, -0.21, -0.126, 0.751, 0
3122299, -0.834, 5.558, -0.749, -0.069, -0.158, 0.79, 0
3122319, 0.099, 4.116, -0.703, -0.575, -0.567, 1.097, 0
3122339, -1.095, 2.973, -0.824, -1.2, -0.636, 1.449, 0
3122359, -2.79, 1.379, -0.14, -1.364, -0.271, 1.593, 0
3122379, -1.871, -1.19, 0.599, -1.025, -0.167, 1.224, 0
3122399, -1.748, -4.277, 0.45, -0.599, -0.116, 0.489, 0
3122419, -3.819, -6.702, -0.47, -0.32, 0.446, 0.346, 0
3122439, -3.855, -8.89, -1.728, -0.489, 0.775, 0.876, 0
3122459, -1.845, -9.627, -1.938, -0.521, 0.172, 1.331, 0
3122479, 0.086, -8.386, -1.581, 0.139, -0.566, 1.218, 0
3122499, 0.304, -8.77, -2.653, 0.433, -0.45, 0.825, 0
3122519, 0.982, -7.791, -3.3, 0.257, -0.221, 0.524, 0
3122539, 1.401, -7.19, -3.224, -0.42, -0.452, 0.168, 0
3122559, -0.177, -4.233, -1.389, -0.645, -0.386, 0.058, 0
3122579, -1.696, -2.162, 0.802, -0.221, 0.151, 0.095, 0
3122599, -1.417, -2.022, 1.901, 0.139, 0.328, 0.208, 0
3122619, 0.296, -2.965, 1.635, -0.019, -0.207, 0.16, 0
3122639, 0.076, -2.274, 0.582, -0.149, -0.579, 0.025, 0
3122659, -1.229, -1.666, -0.167, -0.091, -0.133, 0.07, 0
3122679, -0.895, -0.788, 0.901, 0.215, 0.387, 0.111, 0
3122699, -0.041, -0.808, 0.638, 0.229, 0.051, 0.084, 0
3122719, -0.03, -0.638, 0.201, 0.143, -0.222, 0.139, 0
3122739, 0.091, -0.869, -0.524, 0.229, -0.244, 0.094, 0
3122759, -0.127, -1.238, -1.125, 0.215, -0.168, 0.023, 0
3122779, -0.239, -1.063, -1.191, 0.136, -0.016, -0.009, 0
3122799, 0.124, -0.847, -1.041, 0.143, 0.042, 0.0, 0
3122819, 0.014, -1.095, -1.244, 0.169, -0.08, -0.063, 0
3122839, 0.112, -1.058, -1.106, 0.171, -0.169, -0.081, 0
3122859, 0.114, -1.486, -1.338, 0.241, -0.194, -0.155, 0
3122879, -0.641, -1.653, -1.81, 0.028, -0.188, -0.21, 1
3122899, -1.523, -1.261, -1.143, -0.241, 0.063, -0.12, 1
3122919, -0.61, -1.056, -0.417, -0.216, 0.412, -0.11, 1
3122939, -0.002, -1.816, -0.048, -0.125, 0.24, -0.15, 1
3122959, -0.685, -2.693, -0.084, -0.05, -0.17, -0.18, 1
3122979, -0.303, -2.883, 0.168, 0.034, -0.193, -0.229, 1
3122999, 0.56, -2.798, 0.057, 0.188, -0.102, -0.321, 1
3123019, 0.577, -3.976, -0.506, 0.291, -0.35, -0.42, 1
3123039, -0.408, -3.977, -0.614, 0.142, -0.745, -0.463, 1
3123059, -0.776, -3.372, -0.731, 0.093, -0.784, -0.32, 1
3123079, -1.161, -4.572, -1.248, 0.071, -0.522, -0.448, 1
3123099, -2.466, -4.436, -0.906, -0.03, 0.109, -0.745, 1
3123119, -1.894, -3.912, 0.173, -0.041, 1.014, -0.881, 1
3123139, 0.153, -2.811, 1.315, -0.158, 1.329, -1.053, 1
3123159, -0.47, -1.265, 1.892, -0.532, 0.483, -1.426, 1
3123179, -2.108, 1.504, 2.249, -0.37, 0.483, -1.265, 1
3123199, -1.838, 2.075, 2.101, -0.062, 0.852, -1.173, 1
3123219, -0.24, 1.536, 1.793, -0.072, 0.878, -1.191, 1
3123239, -0.145, 2.311, 1.554, -0.213, 0.692, -1.084, 1
3123259, -0.778, 3.879, 1.51, -0.177, 0.513, -0.854, 1
3123279, -0.281, 4.821, 1.181, -0.105, 0.275, -0.67, 1
3123299, -1.328, 4.969, 0.611, -0.004, 0.288, -0.536, 1
3123319, -1.798, 3.673, -0.033, 0.091, 0.427, -0.332, 1
3123339, -1.445, 1.872, -0.734, -0.048, 0.358, -0.076, 1
3123359, -0.826, 1.712, -0.597, -0.128, 0.294, 0.083, 1
3123379, 0.131, 1.397, -0.332, -0.079, 0.241, 0.097, 1
3123399, -0.02, 1.287, -0.218, 0.062, 0.259, 0.047, 1
3123419, -0.048, 0.409, -0.535, 0.117, 0.226, 0.007, 1
3123439, -0.264, -0.331, -1.026, 0.027, 0.127, 0.043, 1
3123459, -0.861, -0.388, -1.414, 0.046, 0.277, 0.037, 1
3123479, -0.197, -0.304, -1.292, 0.313, 0.553, -0.127, 1
3123499, 0.226, 0.176, -0.967, 0.568, 0.737, -0.339, 1
3123519, 0.207, 0.164, -0.743, 0.41, 0.558, -0.34, 1
3123539, -0.507, 0.434, -0.624, -0.015, 0.163, -0.115, 1
3123559, -1.397, 0.563, -0.706, -0.229, -0.014, 0.125, 1
3123579, -1.498, 0.357, -0.655, -0.146, 0.12, 0.191, 1
3123599, -0.787, -0.011, -0.367, 0.023, 0.298, 0.15, 1
3123619, -0.118, -0.244, -0.115, 0.061, 0.291, 0.132, 1
3123639, 0.009, -0.336, -0.018, -0.126, 0.158, 0.203, 1
3123659, -0.266, -0.316, -0.248, -0.194, -0.045, 0.225, 1
3123679, -0.114, -0.587, -0.52, -0.058, 0.012, 0.125, 1
3123699, -0.011, -0.63, -0.581, 0.101, 0.125, -0.008, 1
3123719, -0.015, -0.202, -0.392, 0.277, 0.233, -0.141, 1
3123739, 0.379, -0.547, -0.451, 0.312, 0.202, -0.094, 1
3123759, -0.19, -0.08, -0.632, -0.095, -0.064, 0.088, 1
3123779, -0.859, 0.442, -0.581, -0.418, -0.07, 0.235, 1
3123799, -0.569, 0.452, -0.331, -0.441, 0.179, 0.252, 1
3123819, -0.301, 0.162, -0.537, -0.35, 0.351, 0.166, 1
3123839, 0.389, -0.405, -0.602, -0.364, 0.417, 0.193, 1
3123859, 0.385, -0.056, -0.356, -0.641, 0.125, 0.265, 1
3123879, -0.501, 0.554, -0.419, -0.764, -0.028, 0.263, 1
3123899, -0.482, 1.265, -0.112, -0.585, 0.406, 0.306, 0
3123919, 0.94, 0.993, 0.561, -0.229, 0.423, 0.324, 0
3123939, 0.183, 0.578, -0.104, -0.01, -0.156, 0.209, 0
3123959, 0.402, -0.652, -1.214, -0.048, -0.31, 0.254, 0
3123979, -0.469, 0.582, -1.648, -0.405, -0.321, 0.304, 0
3123999, -0.982, 2.013, -1.874, -0.274, 0.058, 0.293, 0
3124019, -0.178, 1.895, -1.944, 0.057, 0.334, 0.316, 0
3124039, 0.649, 1.497, -1.988, -0.08, 0.006, 0.403, 0
3124059, 0.431, 2.58, -1.672, -0.638, -0.37, 0.568, 0
3124079, -0.297, 3.685, -0.865, -0.759, -0.362, 0.627, 0
3124099, -0.959, 4.48, -0.09, -0.602, -0.207, 0.728, 0
3124119, -0.111, 4.456, 1.042, -0.323, -0.111, 0.826, 0
3124139, 1.523, 2.838, 1.475, -0.164, -0.683, 0.726, 0
3124159, 0.091, 2.095, 1.18, -0.433, -1.029, 0.827, 0
3124179, -2.152, 1.753, 1.072, -0.214, -0.89, 1.087, 0
3124199, -2.913, -0.217, 0.968, 0.164, -0.49, 1.207, 0
3124219, -3.725, -3.087, 0.688, 0.48, 0.048, 1.207, 0
3124239, -4.008, -6.081, 0.211, 0.306, 0.43, 1.356, 0
3124259, -3.616, -8.596, -0.346, -0.282, 0.315, 1.52, 0
3124279, -3.335, -8.47, -0.466, -0.248, -0.027, 1.751, 0
3124299, -1.783, -9.005, -0.681, 0.217, -0.086, 1.809, 0
3124319, 0.65, -9.619, -1.359, 0.375, -0.04, 1.503, 0
3124339, 3.402, -9.579, -2.727, 0.124, -0.551, 0.885, 0
3124359, 3.018, -8.22, -3.396, -0.397, -0.994, 0.108, 0
3124379, -0.309, -4.466, -2.059, -0.571, -0.399, -0.233, 0
3124399, -2.354, -1.774, -0.131, -0.153, 0.292, -0.103, 0
3124419, -1.644, -2.09, 0.724, 0.051, 0.21, 0.149, 0
3124439, -0.559, -2.809, 1.273, -0.099, -0.158, 0.172, 0
3124459, -0.531, -1.922, 1.264, -0.092, -0.337, 0.042, 0
3124479, -0.993, -1.293, 0.304, 0.027, -0.209, -0.114, 0
3124499, -1.216, -0.79, -0.637, 0.082, 0.069, -0.058, 0
3124519, -1.546, -0.558, -0.44, 0.02, 0.304, 0.189, 0
3124539, -0.471, -0.641, 0.47, 0.042, 0.345, 0.284, 0
3124559, 1.265, -1.561, 0.487, 0.022, -0.075, 0.164, 0
3124579, 1.025, -1.572, -0.221, -0.036, -0.474, -0.098, 0
3124599, -0.519, -1.102, -1.031, -0.103, -0.351, -0.092, 0
3124619, -1.088, -0.944, -1.152, -0.183, -0.009, 0.107, 0
3124639, -0.185, -1.653, -0.696, -0.097, 0.216, 0.082, 0
3124659, 0.114, -2.352, -0.912, -0.003, 0.194, 0.025, 0
3124679, 0.295, -2.696, -1.457, -0.091, 0.16, -0.08, 1
3124699, -0.471, -2.788, -1.755, -0.256, 0.133, -0.24, 1
3124719, -0.987, -3.517, -1.491, -0.396, 0.235, -0.417, 1
3124739, -0.903, -3.939, -0.164, -0.329, 0.408, -0.566, 1
3124759, 0.654, -2.811, 0.809, -0.059, 0.434, -0.741, 1
3124779, 0.637, -3.246, 0.375, 0.224, -0.107, -0.83, 1
3124799, -1.048, -3.962, -0.485, 0.09, -0.731, -0.838, 1
3124819, -2.464, -5.01, -0.666, -0.129, -0.927, -0.489, 1
3124839, -0.676, -4.096, 0.17, -0.419, -0.731, -0.083, 1
3124859, 0.034, -3.683, 0.561, -0.552, -0.519, -0.265, 1
3124879, -1.696, -2.302, 0.675, -0.437, -0.341, -0.61, 1
3124899, -2.543, -0.955, 0.893, 0.018, 0.106, -0.58, 1
3124919, -0.173, -0.788, 0.881, 0.388, 0.591, -0.579, 1
3124939, 1.034, -0.893, 0.614, 0.185, 0.69, -0.785, 1
3124959, -0.465, 0.149, 0.637, -0.255, 0.483, -0.826, 1
3124979, -0.574, 2.195, 1.231, -0.307, 0.32, -0.628, 1
3124999, 0.543, 2.147, 0.942, -0.016, 0.048, -0.607, 1
3125019, -0.007, 1.448, -0.236, -0.066, -0.155, -0.626, 1
3125039, -2.106, 2.164, -0.669, -0.378, 0.061, -0.44, 1
3125059, -1.421, 2.383, -0.346, -0.243, 0.667, -0.249, 1
3125079, 0.727, 2.508, 0.144, 0.004, 0.817, -0.29, 1
3125099, 0.537, 2.604, -0.198, 0.072, 0.536, -0.359, 1
3125119, -0.778, 2.595, -0.782, 0.042, 0.369, -0.188, 1
3125139, -1.027, 2.193, -0.876, 0.028, 0.452, -0.004, 1
3125159, -0.393, 1.048, -0.935, -0.031, 0.502, 0.069, 1
3125179, 0.586, 0.447, -0.698, -0.172, 0.389, 0.045, 1
3125199, 0.493, 0.223, -0.605, -0.188, 0.204, -0.037, 1
3125219, 0.071, 0.142, -0.781, -0.155, 0.061, -0.092, 1
3125239, -0.29, 0.179, -0.947, -0.098, -0.003, -0.119, 1
3125259, -0.793, 0.392, -0.842, 0.003, 0.146, -0.117, 1
3125279, -0.68, 0.096, -0.51, 0.105, 0.306, -0.097, 1
3125299, 0.141, -0.659, -0.252, 0.04, 0.205, -0.083, 1
3125319, 0.354, -1.098, -0.395, -0.1, -0.026, -0.076, 1
3125339, -0.366, -0.734, -0.599, -0.141, -0.051, -0.069, 1
3125359, -0.895, -0.249, -0.457, -0.07, 0.081, -0.042, 1
3125379, -0.82, -0.164, -0.293, 0.02, 0.311, -0.013, 1
3125399, -0.287, -0.509, -0.096, 0.051, 0.428, 0.036, 1
3125419, 0.38, -1.153, -0.086, -0.141, 0.226, 0.136, 1
3125439, -0.113, -1.081, -0.419, -0.377, 0.147, 0.226, 1
3125459, -0.561, -0.86, -0.524, -0.472, 0.359, 0.303, 1
3125479, -0.21, -0.731, -0.188, -0.48, 0.455, 0.334, 1
3125499, 0.41, -0.71, 0.074, -0.456, 0.215, 0.321, 1
3125519, -0.255, -0.596, -0.202, -0.593, 0.199, 0.364, 1
3125539, -0.656, -0.305, -0.425, -0.667, 0.407, 0.401, 0
3125559, 0.138, -0.207, -0.037, -0.497, 0.295, 0.308, 0
3125579, 0.204, -0.069, 0.123, -0.157, 0.081, 0.183, 0
3125599, 0.252, -0.225, -0.013, -0.053, -0.196, 0.082, 0
3125619, -0.35, 0.169, -0.445, -0.092, -0.174, 0.097, 0
3125639, -0.099, -0.169, -0.886, -0.009, -0.02, 0.067, 0
3125659, 0.117, -0.223, -1.283, -0.087, -0.037, 0.029, 0
3125679, 0.29, 0.354, -1.144, -0.132, -0.088, -0.026, 0
3125699, 0.14, 0.813, -1.342, -0.024, -0.123, -0.086, 0
3125719, -0.084, 1.567, -1.777, -0.092, -0.144, -0.066, 0
3125739, -0.281, 2.927, -1.639, -0.178, -0.18, -0.017, 0
3125759, -0.115, 4.026, -0.868, -0.072, -0.074, -0.001, 0
3125779, 0.197, 5.106, 0.229, 0.177, 0.106, -0.012, 0
3125799, 1.551, 5.052, 0.816, 0.496, 0.163, -0.014, 0
3125819, 1.263, 5.79, 0.938, 0.144, -0.415, 0.178, 0
3125839, -0.171, 6.755, 1.269, -0.186, -0.831, 0.525, 0
3125859, -1.179, 6.371, 1.718, -0.17, -1.106, 0.924, 0
3125879, -1.778, 4.47, 1.865, 0.068, -1.292, 1.19, 0
3125899, -2.378, 2.026, 1.637, 0.08, -1.22, 1.391, 0
3125919, -3.224, -0.715, 1.456, -0.007, -0.996, 1.587, 0
3125939, -4.744, -3.226, 0.669, 0.032, -0.756, 1.736, 0
3125959, -5.128, -6.121, -0.37, 0.126, -0.57, 1.92, 0
3125979, -5.019, -6.697, -0.794, 0.224, -0.354, 1.707, 0
3125999, -4.504, -8.777, -1.676, 0.369, -0.034, 1.338, 0
3126019, -2.626, -10.094, -2.11, 0.104, 0.321, 1.18, 0
3126039, -0.756, -9.659, -2.268, -0.212, 0.323, 1.145, 0
3126059, 2.047, -9.871, -2.702, -0.206, -0.131, 0.893, 0
3126079, 2.467, -7.634, -3.536, -0.356, -0.291, -0.053, 0
3126099, -0.183, -5.558, -2.715, -0.468, 0.372, -0.29, 0
3126119, -1.608, -2.661, 0.363, -0.527, 0.709, -0.004, 0
3126139, -0.045, -2.481, 2.388, -0.483, 0.051, -0.028, 0
3126159, -0.365, -2.229, 2.171, -0.397, -0.437, -0.106, 0
3126179, -0.097, -2.158, 1.072, -0.221, -0.437, -0.184, 0
3126199, -0.299, -1.757, -0.19, -0.134, -0.257, -0.152, 0
3126219, -1.172, -1.038, -0.721, -0.116, 0.042, -0.043, 0
3126239, -1.486, -0.487, -0.351, -0.037, 0.465, 0.09, 0
3126259, -0.153, -0.595, 0.163, 0.04, 0.499, 0.085, 0
3126279, 0.765, -1.27, 0.358, -0.001, 0.156, -0.031, 0
3126299, 0.672, -1.24, 0.248, -0.031, -0.072, -0.194, 0
3126319, -0.139, -1.025, -0.403, -0.083, -0.003, -0.217, 0
3126339, -0.563, -0.994, -0.922, -0.144, 0.081, -0.197, 0
3126359, -0.645, -0.711, -0.768, 0.028, 0.144, -0.185, 0
3126379, -0.844, -0.809, -0.498, 0.206, 0.274, -0.19, 1
3126399, -1.348, -1.157, -0.226, 0.307, 0.401, -0.151, 1
3126419, -0.844, -1.897, -0.455, 0.212, 0.372, -0.166, 1
3126439, -0.247, -1.994, -0.376, 0.063, 0.299, -0.232, 1
3126459, -0.642, -1.895, 0.289, 0.081, 0.167, -0.341, 1
3126479, -0.951, -1.927, 0.565, 0.235, 0.08, -0.361, 1
3126499, -1.42, -2.775, 0.275, 0.331, 0.12, -0.246, 1
3126519, -0.093, -3.263, 0.121, 0.273, 0.075, -0.161, 1
3126539, 0.513, -3.664, -0.083, 0.011, -0.237, -0.384, 1
3126559, -0.881, -3.808, -0.483, -0.219, -0.378, -0.5, 1
3126579, -1.595, -3.889, -0.858, -0.393, -0.024, -0.615, 1
3126599, -0.714, -3.962, -0.503, -0.695, 0.165, -0.902, 1
3126619, -1.406, -3.109, 0.156, -0.948, 0.322, -1.065, 1
3126639, -0.643, -1.388, 0.619, -0.928, 0.494, -1.081, 1
3126659, -0.051, 1.537, 1.132, -0.712, 0.527, -1.242, 1
3126679, -1.589, 3.387, 1.103, -0.244, 0.696, -1.3, 1
3126699, -1.561, 3.969, 0.78, 0.266, 1.113, -1.05, 1
3126719, 0.235, 2.652, 0.289, 0.353, 1.08, -0.838, 1
3126739, 0.405, 2.39, 0.248, -0.116, 0.61, -0.651, 1
3126759, -0.181, 2.925, 0.452, -0.524, 0.354, -0.4, 1
3126779, -0.981, 4.352, 0.573, -0.398, 0.381, -0.291, 1
3126799, -0.866, 4.395, 0.431, 0.11, 0.609, -0.257, 1
3126819, -0.363, 3.491, 0.163, 0.415, 0.709, -0.278, 1
3126839, -0.129, 2.22, -0.44, 0.362, 0.477, -0.133, 1
3126859, -0.881, 1.412, -1.364, 0.004, 0.032, 0.082, 1
3126879, -1.441, 1.366, -1.678, -0.259, -0.085, 0.277, 1
3126899, -1.479, 1.104, -1.415, -0.235, 0.31, 0.372, 1
3126919, -0.289, 0.458, -0.728, -0.076, 0.778, 0.377, 1
3126939, 0.319, 0.186, -0.2, 0.012, 0.77, 0.296, 1
3126959, -0.121, 0.089, -0.111, 0.031, 0.457, 0.22, 1
3126979, -0.312, -0.097, -0.041, 0.052, 0.263, 0.205, 1
3126999, -0.199, -0.491, -0.166, 0.041, 0.097, 0.196, 1
3127019, -0.182, -0.705, -0.419, -0.015, -0.042, 0.183, 1
3127039, -0.33, -1.036, -0.743, -0.062, -0.069, 0.144, 1
3127059, -0.565, -0.959, -0.904, -0.101, 0.01, 0.095, 1
3127079, -0.499, -0.761, -0.705, -0.077, 0.177, 0.124, 1
3127099, -0.053, -0.904, -0.535, -0.115, 0.075, 0.114, 1
3127119, -0.089, -0.716, -0.455, -0.127, 0.062, 0.095, 1
3127139, -0.121, -0.841, -0.477, -0.224, 0.086, 0.14, 1
3127159, -0.016, -0.865, -0.388, -0.377, -0.015, 0.182, 1
3127179, -0.424, -0.526, -0.302, -0.384, 0.125, 0.208, 1
3127199, -0.359, 0.019, 0.106, -0.172, 0.356, 0.18, 1
3127219, 0.207, -0.265, 0.355, -0.023, 0.349, 0.118, 0
3127239, 0.72, -0.87, 0.082, -0.133, 0.034, 0.12, 0
3127259, 0.352, -0.541, 0.12, -0.208, -0.372, 0.087, 0
3127279, -0.629, -0.162, -0.203, -0.129, -0.191, 0.071, 0
3127299, -0.458, -0.048, -0.217, -0.04, 0.138, 0.075, 0
3127319, -0.241, -0.462, -0.472, -0.058, 0.322, 0.106, 0
3127339, 0.41, -0.609, -0.503, -0.188, 0.196, 0.141, 0
3127359, 0.116, -0.074, -0.471, -0.317, 0.061, 0.157, 0
3127379, -0.097, 0.576, -0.262, -0.162, 0.149, 0.109, 0
3127399, 0.112, 0.712, -0.238, -0.025, 0.172, 0.041, 0
3127419, 0.287, 1.036, -0.365, 0.076, 0.124, -0.007, 0
3127439, 0.615, 1.215, -0.845, 0.008, -0.076, -0.04, 0
3127459, 0.32, 2.056, -1.067, -0.21, -0.228, 0.022, 0
3127479, -0.029, 3.722, -0.658, -0.187, -0.27, 0.068, 0
3127499, 0.235, 4.791, -0.293, -0.095, -0.339, 0.089, 0
3127519, -0.212, 5.726, -0.251, 0.055, -0.406, 0.17, 0
3127539, -0.999, 6.207, -0.485, 0.173, -0.447, 0.354, 0
3127559, -1.295, 5.749, -0.66, 0.169, -0.546, 0.594, 0
3127579, 0.751, 3.848, 1.119, 0.219, -0.732, 0.714, 0
3127599, -0.36, 2.338, 1.361, 0.391, -1.042, 0.756, 0
3127619, -2.457, 0.648, 0.99, 0.618, -1.002, 0.894, 0
3127639, -3.188, -0.568, 1.144, 0.895, -0.532, 1.149, 0
3127659, -2.329, -3.496, 1.097, 0.863, -0.261, 1.374, 0
3127679, -2.313, -6.153, 0.671, 0.359, -0.429, 1.352, 0
3127699, -3.131, -7.731, 0.031, 0.035, -0.566, 1.138, 0
3127719, -3.51, -8.744, -0.663, 0.183, -0.274, 1.032, 0
3127739, -2.144, -9.684, -1.245, 0.334, 0.407, 1.014, 0
3127759, 1.043, -9.873, -1.724, 0.087, 0.796, 0.948, 0
3127779, 3.07, -8.508, -2.464, -0.139, 0.088, 0.63, 0
3127799, 1.305, -6.536, -2.561, -0.43, -0.511, 0.185, 0
3127819, -1.051, -3.981, -0.714, -0.612, -0.033, -0.026, 0
3127839, -1.431, -2.21, 1.239, -0.452, 0.74, -0.076, 0
3127859, -0.385, -2.425, 2.061, -0.284, 0.715, 0.008, 0
3127879, -0.217, -2.155, 1.996, -0.275, 0.052, 0.067, 0
3127899, -0.64, -1.925, 1.38, -0.159, -0.273, 0.081, 0
3127919, -0.432, -1.049, 0.932, -0.086, -0.199, 0.039, 0
3127939, -0.722, -0.759, 0.051, -0.043, -0.232, -0.05, 0
3127959, -1.229, -0.285, -0.288, -0.08, -0.24, 0.04, 0
3127979, -0.741, -0.014, 0.007, 0.018, -0.017, 0.18, 0
3127999, 0.092, -0.71, -0.121, 0.169, 0.06, 0.198, 0
3128019, 0.087, -1.066, -0.635, 0.095, -0.069, 0.127, 0
3128039, -0.052, -1.255, -0.911, -0.109, -0.034, 0.089, 0
3128059, 0.466, -1.653, -0.897, -0.216, 0.0, 0.022, 0
3128079, 0.588, -2.17, -1.245, -0.222, -0.109, -0.032, 0
3128099, 0.407, -1.868, -1.149, -0.1, -0.132, -0.153, 1
3128119, 0.312, -1.889, -1.201, -0.147, -0.196, -0.183, 1
3128139, -0.541, -1.528, -1.168, -0.236, -0.186, -0.205, 1
3128159, -1.369, -2.51, -0.893, -0.356, -0.014, -0.194, 1
3128179, -1.228, -2.158, -0.136, -0.249, 0.24, -0.106, 1
3128199, -0.172, -2.737, 0.082, -0.301, 0.102, -0.06, 1
3128219, -0.037, -3.704, -0.154, -0.418, -0.211, -0.178, 1
3128239, -0.929, -3.37, -0.184, -0.376, -0.171, -0.205, 1
3128259, -0.258, -2.007, 0.299, -0.25, 0.009, -0.196, 1
3128279, -0.099, -2.517, 0.215, -0.204, -0.05, -0.353, 1
3128299, -1.269, -2.69, -0.037, -0.24, -0.058, -0.45, 1
3128319, -1.727, -2.215, 0.108, -0.345, 0.108, -0.267, 1
3128339, 0.108, -1.763, 0.605, -0.554, 0.155, -0.325, 1
3128359, 0.497, -1.307, 0.835, -0.657, 0.1, -0.789, 1
3128379, -1.285, 0.082, 0.468, -0.471, 0.361, -1.007, 1
3128399, -1.898, 1.431, 0.55, -0.047, 0.846, -0.901, 1
3128419, 0.358, 1.005, 0.815, -0.017, 0.877, -0.906, 1
3128439, 0.939, 1.358, 0.873, -0.324, 0.573, -0.885, 1
3128459, -0.139, 1.926, 0.208, -0.422, 0.25, -0.761, 1
3128479, -0.559, 2.334, -0.227, -0.297, 0.193, -0.62, 1
3128499, -0.295, 2.792, 0.099, -0.246, 0.469, -0.633, 1
3128519, -0.09, 2.495, 0.377, -0.18, 0.693, -0.596, 1
3128539, 0.077, 2.582, 0.19, -0.025, 0.49, -0.46, 1
3128559, -0.352, 1.042, -0.702, -0.085, 0.12, -0.302, 1
3128579, -0.725, 0.838, -0.982, -0.348, -0.164, -0.149, 1
3128599, -0.521, 0.293, -1.131, -0.423, -0.031, -0.073, 1
3128619, -0.657, 0.381, -0.801, -0.326, 0.261, -0.135, 1
3128639, -0.375, 1.119, -0.169, -0.068, 0.596, -0.227, 1
3128659, 0.042, 1.141, 0.088, 0.145, 0.664, -0.254, 1
3128679, 0.141, 0.78, 0.056, 0.036, 0.324, -0.193, 1
3128699, -0.669, 0.995, -0.284, -0.211, -0.07, -0.057, 1
3128719, -1.074, 0.905, -0.554, -0.26, -0.067, 0.026, 1
3128739, -0.46, 0.395, -0.565, -0.177, 0.106, 0.065, 1
3128759, -0.25, 0.08, -0.584, -0.121, 0.171, 0.054, 1
3128779, -0.257, 0.011, -0.417, -0.136, 0.109, 0.089, 1
3128799, -0.322, -0.177, -0.342, -0.142, 0.026, 0.159, 1
3128819, 0.008, -0.697, -0.535, -0.172, -0.058, 0.222, 1
3128839, -0.088, -0.959, -0.702, -0.218, -0.041, 0.227, 1
3128859, 0.133, -0.957, -0.474, -0.164, 0.11, 0.185, 1
3128879, 0.338, -0.931, -0.233, -0.065, 0.184, 0.118, 1
3128899, 0.395, -0.989, -0.181, -0.092, 0.188, 0.076, 1
3128919, 0.139, -0.85, -0.216, -0.266, 0.158, 0.093, 1
3128939, -0.38, -0.363, -0.173, -0.381, 0.201, 0.119, 1
3128959, -0.16, -0.266, -0.008, -0.32, 0.295, 0.16, 1
3128979, -0.025, -0.397, -0.013, -0.221, 0.286, 0.175, 1
3128999, 0.087, -0.335, 0.124, -0.196, 0.281, 0.21, 1
3129019, 0.108, -0.379, 0.171, -0.296, 0.092, 0.252, 1
3129039, -0.154, -0.078, 0.102, -0.34, 0.099, 0.324, 0
3129059, 0.202, -0.042, 0.12, -0.227, 0.005, 0.321, 0
3129079, 0.147, -0.411, -0.116, -0.036, -0.105, 0.235, 0
3129099, 0.176, -0.678, -0.561, 0.117, -0.011, 0.168, 0
3129119, 0.446, -0.884, -0.849, -0.018, 0.04, 0.165, 0
3129139, 0.228, -0.376, -0.904, -0.233, 0.043, 0.207, 0
3129159, 0.231, 0.191, -0.685, -0.254, 0.018, 0.187, 0
3129179, 0.034, 0.7, -0.555, -0.085, 0.043, 0.12, 0
3129199, 0.077, 0.831, -0.629, 0.153, 0.07, 0.035, 0
3129219, 0.431, 1.103, -0.595, 0.295, -0.036, -0.027, 0
3129239, 0.762, 1.462, -0.699, 0.213, -0.207, -0.04, 0
3129259, 0.563, 2.287, -1.129, -0.051, -0.411, -0.014, 0
3129279, -0.35, 3.863, -1.031, -0.107, -0.379, 0.105, 0
3129299, -0.228, 4.355, -0.791, -0.144, -0.267, 0.226, 0
3129319, 0.269, 4.71, -0.486, -0.211, -0.365, 0.329, 0
3129339, -0.162, 5.026, -0.6, -0.333, -0.555, 0.458, 0
3129359, -0.264, 4.979, -0.379, -0.441, -0.646, 0.477, 0
3129379, -0.103, 4.613, -0.085, -0.462, -0.593, 0.42, 0
3129399, -1.456, 3.923, -0.019, -0.434, -0.132, 0.678, 0
3129419, -1.182, 2.032, 0.434, -0.572, 0.016, 0.791, 0
3129439, -0.424, 0.273, 1.098, -0.643, -0.488, 0.759, 0
3129459, -3.222, -2.491, 0.415, -0.725, -0.58, 0.67, 0
3129479, -6.379, -4.848, -0.98, -0.855, 0.173, 0.639, 0
3129499, -7.263, -6.515, -1.515, -0.664, 1.003, 1.422, 0
3129519, -3.511, -8.315, -1.588, 0.284, 0.044, 1.913, 0
3129539, 1.228, -11.367, -2.547, 0.431, -0.573, 1.867, 0
3129559, 3.092, -9.891, -3.719, 0.375, -0.52, 1.318, 0
3129579, 3.269, -8.462, -4.535, 0.166, -0.608, 0.504, 0
3129599, -0.25, -5.199, -3.006, -0.474, -0.25, -0.147, 0
3129619, -1.696, -2.173, 0.127, -0.576, 0.568, -0.125, 0
3129639, -0.847, -2.46, 1.845, -0.378, 0.554, 0.134, 0
3129659, -0.222, -2.769, 2.283, -0.323, -0.051, 0.121, 0
3129679, -0.226, -2.384, 1.908, -0.117, -0.391, -0.003, 0
3129699, 0.222, -2.272, 0.703, 0.114, -0.329, -0.116, 0
3129719, -0.328, -1.493, -1.048, 0.139, -0.306, -0.313, 0
3129739, -1.744, -0.563, -1.37, 0.023, -0.218, -0.238, 0
3129759, -1.443, -0.017, -0.263, 0.054, 0.116, 0.01, 0
3129779, -0.28, -1.064, 0.427, 0.285, 0.208, 0.179, 0
3129799, 0.338, -1.556, 0.539, 0.301, 0.033, 0.153, 0
3129819, 0.594, -1.802, 0.221, 0.303, -0.249, -0.003, 0
3129839, 0.092, -2.261, -0.695, 0.243, -0.62, -0.162, 0
3129859, -1.102, -2.16, -1.511, 0.023, -0.707, -0.187, 0
3129879, -1.197, -1.861, -1.503, -0.059, -0.306, -0.087, 1
3129899, -0.51, -2.513, -1.441, 0.001, 0.084, -0.055, 1
3129919, -0.913, -3.002, -1.041, -0.067, 0.257, -0.122, 1
3129939, -0.549, -3.075, -0.29, -0.103, 0.362, -0.147, 1
3129959, -0.706, -3.049, 0.254, -0.091, 0.323, -0.254, 1
3129979, -1.108, -3.659, 0.169, -0.121, 0.225, -0.382, 1
3129999, -0.822, -2.915, 0.497, -0.28, 0.271, -0.222, 1
3130019, 0.369, -2.8, 0.685, -0.354, 0.13, -0.259, 1
3130039, 0.014, -3.066, 0.362, -0.397, -0.147, -0.384, 1
3130059, -1.773, -1.698, -0.218, -0.139, -0.165, -0.315, 1
3130079, -1.488, -1.199, -0.2, 0.098, 0.12, -0.055, 1
3130099, 0.061, -2.589, -0.208, 0.029, 0.169, -0.304, 1
3130119, -0.218, -2.652, 0.045, -0.211, 0.18, -0.675, 1
3130139, -1.101, -0.369, 0.505, -0.095, 0.465, -0.675, 1
3130159, -0.007, 1.261, 1.123, 0.194, 0.678, -0.646, 1
3130179, 0.712, 0.802, 0.872, 0.226, 0.341, -0.777, 1
3130199, -0.668, 1.219, 0.244, 0.119, 0.026, -0.788, 1
3130219, -1.876, 2.945, -0.022, 0.251, 0.208, -0.572, 1
3130239, -1.067, 3.254, 0.029, 0.426, 0.561, -0.425, 1
3130259, 0.617, 2.702, -0.209, 0.352, 0.519, -0.354, 1
3130279, 0.615, 2.323, -0.597, 0.078, 0.19, -0.297, 1
3130299, -0.743, 2.302, -0.792, -0.01, 0.146, -0.13, 1
3130319, -0.791, 0.852, -1.278, -0.089, 0.178, 0.04, 1
3130339, 0.342, 0.185, -1.143, -0.241, 0.144, 0.035, 1
3130359, 0.948, 0.538, -0.797, -0.267, 0.176, -0.098, 1
3130379, 0.209, 1.441, -0.636, -0.02, 0.284, -0.224, 1
3130399, -0.553, 1.509, -0.806, 0.157, 0.341, -0.25, 1
3130419, -0.985, 0.896, -1.13, 0.016, 0.354, -0.114, 1
3130439, -0.382, -0.383, -1.533, -0.357, 0.161, 0.047, 1
3130459, -0.438, -0.662, -1.547, -0.579, 0.113, 0.151, 1
3130479, -0.469, -0.59, -1.177, -0.53, 0.322, 0.137, 1
3130499, 0.074, -0.173, 0.224, -0.317, 0.671, 0.037, 1
3130519, 0.118, -0.403, 0.171, -0.139, 0.53, -0.015, 1
3130539, -0.002, -0.617, -0.02, -0.255, 0.149, 0.011, 1
3130559, -0.776, -0.104, -0.171, -0.389, -0.083, 0.05, 1
3130579, -0.779, 0.235, 0.024, -0.247, 0.07, 0.067, 1
3130599, -0.033, -0.238, 0.127, -0.025, 0.206, 0.049, 1
3130619, 0.009, -0.529, 0.067, 0.128, 0.066, -0.024, 1
3130639, -0.273, -0.66, -0.166, 0.099, -0.113, -0.009, 1
3130659, -0.737, -0.486, -0.319, -0.088, -0.089, 0.062, 1
3130679, -0.521, -0.163, -0.084, -0.166, 0.135, 0.138, 1
3130699, 0.135, -0.421, 0.075, -0.046, 0.109, 0.13, 1
3130719, 0.112, -0.273, 0.133, 0.125, -0.256, 0.026, 0
3130739, -0.482, -0.274, -0.033, 0.359, -0.393, -0.054, 0
3130759, 0.26, -0.919, -0.511, 0.405, -0.204, -0.04, 0
3130779, 0.456, -0.787, -0.508, 0.069, -0.279, 0.063, 0
3130799, -0.163, -0.113, -0.562, -0.252, -0.346, 0.144, 0
3130819, -0.037, 0.294, -0.347, -0.267, -0.135, 0.201, 0
3130839, 0.043, 0.243, -0.49, -0.098, 0.016, 0.125, 0
3130859, 0.366, -0.179, -0.784, -0.028, 0.087, 0.048, 0
3130879, 0.189, -0.104, -1.009, -0.099, 0.008, 0.012, 0
3130899, -0.003, 0.249, -1.059, -0.207, -0.002, 0.039, 0
3130919, 0.091, 0.74, -0.954, -0.221, 0.018, 0.051, 0
3130939, 0.067, 1.117, -1.278, -0.154, -0.075, 0.029, 0
3130959, 0.007, 1.174, -1.624, -0.196, -0.143, 0.021, 0
3130979, 0.204, 1.516, -1.656, -0.357, -0.216, 0.072, 0
3130999, 0.371, 2.56, -1.331, -0.407, -0.183, 0.079, 0
3131019, 0.086, 4.249, -0.636, -0.287, -0.036, 0.12, 0
3131039, -0.377, 4.959, 0.085, -0.193, -0.054, 0.283, 0
3131059, -0.431, 4.995, 0.871, -0.257, -0.309, 0.556, 0
3131079, -0.07, 4.951, 1.486, -0.329, -0.543, 0.763, 0
3131099, 0.18, 4.353, 1.601, -0.302, -0.564, 0.756, 0
3131119, -1.175, 2.574, 1.275, -0.268, -0.309, 0.975, 0
3131139, -2.261, 1.272, 0.95, -0.083, -0.147, 1.464, 0
3131159, -2.021, -0.205, 0.807, 0.156, -0.219, 1.599, 0
3131179, -1.178, -1.331, 1.26, 0.383, -0.376, 1.479, 0
3131199, -1.431, -3.141, 1.033, 0.4, -0.348, 0.8, 0
3131219, -2.703, -4.777, -0.126, 0.047, 0.197, 0.13, 0
3131239, -3.774, -5.539, -1.462, -0.302, 0.804, 0.188, 0
3131259, -3.478, -6.092, -2.006, -0.327, 0.815, 0.856, 0
3131279, -1.765, -6.767, -1.83, -0.027, 0.5, 0.822, 0
3131299, -0.558, -7.851, -2.121, 0.414, 0.682, 0.67, 0
3131319, 1.87, -8.182, -3.026, 0.603, 0.728, 0.793, 0
3131339, 5.187, -9.012, -4.055, -0.094, -0.54, 0.486, 0
3131359, 1.984, -6.849, -2.213, -0.997, -0.997, -0.098, 0
3131379, -2.795, -2.319, 0.684, -0.707, -0.058, -0.01, 0
3131399, -2.793, -1.293, 1.99, -0.056, 0.429, 0.216, 0
3131419, -0.609, -2.353, 1.967, 0.167, 0.022, 0.278, 0
3131439, 0.515, -3.174, 0.82, 0.018, -0.457, 0.214, 0
3131459, 0.266, -2.836, -0.152, -0.225, -0.536, -0.025, 0
3131479, -2.243, 0.476, 0.834, 0.049, 0.291, 0.124, 0
3131499, -0.349, -0.593, 0.828, 0.296, 0.436, 0.328, 0
3131519, 1.055, -1.55, 0.104, 0.101, -0.055, 0.193, 0
3131539, 0.649, -1.502, -0.85, -0.189, -0.582, 0.043, 0
3131559, -0.182, -0.987, -1.485, -0.299, -0.613, -0.073, 0
3131579, -0.671, -0.534, -1.386, -0.177, -0.34, -0.062, 0
3131599, -0.738, -0.833, -1.147, 0.067, -0.05, 0.032, 0
3131619, -0.65, -1.453, -1.158, 0.181, 0.208, 0.145, 1
3131639, -0.046, -2.014, -0.744, 0.053, 0.241, 0.161, 1
3131659, 0.122, -1.732, -0.447, -0.102, 0.153, 0.012, 1
3131679, -0.548, -2.027, -0.373, -0.069, 0.083, -0.225, 1
3131699, -0.95, -2.085, -0.229, -0.039, 0.039, -0.316, 1
3131719, -0.817, -2.084, 0.148, -0.047, 0.079, -0.255, 1
3131739, -0.167, -1.884, 0.545, -0.064, 0.1, -0.13, 1
3131759, 0.067, -1.94, 0.502, -0.019, 0.015, -0.157, 1
3131779, -0.225, -2.761, -0.165, 0.032, -0.205, -0.333, 1
3131799, -1.233, -3.577, -0.666, 0.029, -0.429, -0.288, 1
3131819, -0.71, -2.722, -0.123, -0.067, -0.331, -0.162, 1
3131839, -0.08, -2.718, 0.328, -0.124, -0.108, -0.219, 1
3131859, 0.161, -3.088, 0.375, -0.178, -0.134, -0.361, 1
3131879, -1.001, -3.113, 0.302, -0.202, -0.295, -0.549, 1
3131899, -0.673, -1.384, 0.64, -0.182, -0.255, -0.658, 1
3131919, 0.081, -1.307, 0.435, -0.067, -0.073, -0.777, 1
3131939, 0.206, -1.697, 0.247, -0.156, 0.025, -0.953, 1
3131959, -0.936, -0.42, 0.258, -0.395, 0.321, -0.99, 1
3131979, 0.013, 1.531, 0.737, -0.304, 0.555, -0.882, 1
3131999, 0.938, 1.377, 0.725, -0.335, 0.364, -0.945, 1
3132019, -0.317, 1.936, 0.412, -0.354, 0.181, -0.842, 1
3132039, -1.55, 4.098, 0.382, -0.174, 0.346, -0.623, 1
3132059, -1.228, 4.914, 0.264, 0.075, 0.51, -0.513, 1
3132079, -0.604, 4.211, -0.089, 0.11, 0.56, -0.374, 1
3132099, -0.294, 1.94, -1.08, -0.055, 0.425, -0.177, 1
3132119, -0.863, 1.642, -1.459, -0.203, 0.375, -0.023, 1
3132139, -1.784, 2.646, -1.322, -0.087, 0.717, 0.077, 1
3132159, -1.628, 3.046, -0.914, 0.158, 1.13, 0.154, 1
3132179, -0.449, 2.2, -0.484, 0.16, 1.135, 0.19, 1
3132199, 0.551, 1.156, -0.35, -0.059, 0.723, 0.197, 1
3132219, 0.023, 1.25, -0.232, -0.271, 0.227, 0.236, 1
3132239, -0.686, 1.041, -0.171, -0.241, -0.038, 0.287, 1
3132259, -0.855, 0.38, -0.249, -0.117, -0.009, 0.326, 1
3132279, -0.47, -0.49, -0.439, -0.049, 0.137, 0.306, 1
3132299, 0.525, -1.113, -0.464, -0.034, 0.108, 0.204, 1
3132319, 0.695, -1.054, -0.32, 0.018, -0.048, 0.071, 1
3132339, 0.227, -1.034, -0.515, -0.025, -0.126, -0.003, 1
3132359, -0.284, -0.517, -0.475, -0.039, -0.109, -0.011, 1
3132379, -0.321, -0.331, -0.46, -0.084, -0.078, 0.04, 1
3132399, -0.109, -0.235, -0.33, -0.133, -0.092, 0.082, 1
3132419, -0.01, -0.416, -0.407, -0.193, -0.096, 0.109, 1
3132439, 0.018, -0.279, -0.337, -0.166, -0.144, 0.082, 1
3132459, -0.012, -0.639, -0.383, -0.162, -0.133, 0.054, 1
3132479, -0.029, -0.37, -0.119, -0.189, -0.036, 0.043, 1
3132499, 0.168, -0.475, 0.006, -0.132, 0.043, 0.015, 1
3132519, 0.153, -0.522, 0.007, -0.09, 0.018, -0.036, 1
3132539, -0.266, -0.453, 0.096, -0.149, -0.083, -0.061, 0
3132559, -0.102, 0.044, 0.191, -0.097, -0.048, -0.094, 0
3132579, -0.225, 0.487, 0.284, 0.232, 0.043, -0.226, 0
3132599, -0.107, 0.248, 0.011, 0.583, 0.205, -0.372, 0
3132619, 0.509, -0.244, -0.464, 0.558, 0.056, -0.376, 0
3132639, -1.056, 0.848, -1.492, 0.071, -0.364, -0.197, 0
3132659, -1.758, 2.057, -1.913, -0.25, -0.155, 0.069, 0
3132679, -0.833, 1.999, -2.049, -0.282, 0.033, 0.215, 0
3132699, 0.291, 1.942, -1.894, -0.44, 0.069, 0.337, 0
3132719, 0.602, 1.996, -1.694, -0.506, 0.004, 0.324, 0
3132739, 1.086, 2.526, -1.215, -0.555, -0.059, 0.311, 0
3132759, 0.305, 3.863, -0.769, -0.588, -0.192, 0.304, 0
3132779, -0.618, 4.895, -0.3, -0.511, -0.067, 0.387, 0
3132799, -0.44, 4.816, 0.198, -0.437, 0.076, 0.615, 0
3132819, 0.822, 4.176, 0.694, -0.468, -0.126, 0.787, 0
3132839, 0.892, 3.837, 0.848, -0.599, -0.432, 0.777, 0
3132859, -0.001, 3.468, 1.152, -0.378, -0.35, 0.615, 0
3132879, -1.715, 2.841, 1.161, 0.007, -0.08, 0.593, 0
3132899, -2.364, 0.598, 1.04, 0.329, 0.149, 1.109, 0
3132919, -2.297, -1.386, 0.737, 0.442, -0.12, 1.273, 0
3132939, -2.941, -3.205, -0.081, 0.394, -0.304, 0.921, 0
3132959, -4.711, -4.856, -0.922, 0.737, -0.074, 0.709, 0
3132979, -5.755, -7.01, -1.534, 1.223, 0.292, 1.131, 0
3132999, -4.21, -8.56, -1.935, 0.946, 0.43, 1.74, 0
3133019, -0.793, -10.372, -1.38, 0.248, 0.428, 1.623, 0
3133039, 1.025, -9.733, 0.213, -0.107, 0.37, 1.231, 0
3133059, 2.712, -8.002, 1.204, -0.04, 0.053, 0.699, 0
3133079, 2.779, -6.422, 0.509, -0.05, -0.531, 0.266, 0
3133099, 0.499, -5.197, -0.718, -0.418, -0.557, 0.095, 0
3133119, -1.231, -3.203, 0.125, -0.431, -0.048, 0.254, 0
3133139, -0.583, -1.73, 1.497, -0.139, 0.289, 0.295, 0
3133159, 0.161, -1.917, 1.423, 0.01, 0.134, 0.134, 0
3133179, 0.087, -1.542, 0.952, 0.028, -0.033, 0.0, 0
3133199, -0.15, -1.264, -0.08, -0.065, -0.078, -0.053, 0
3133219, -0.735, -0.901, -0.639, -0.153, 0.023, 0.004, 0
3133239, -0.732, -0.175, -0.064, 0.001, 0.306, 0.075, 0
3133259, -0.32, -0.33, 0.069, 0.161, 0.353, 0.116, 0
3133279, -0.132, -0.595, 0.067, 0.125, 0.222, 0.107, 0
3133299, -0.04, -0.731, -0.23, 0.061, 0.078, 0.125, 0
3133319, 0.036, -1.079, -0.611, -0.073, -0.01, 0.107, 0
3133339, 0.098, -1.187, -0.898, -0.204, -0.039, 0.076, 1
3133359, 0.34, -1.232, -0.909, -0.165, -0.095, -0.057, 1
3133379, -0.283, -0.95, -1.111, -0.069, -0.062, -0.163, 1
3133399, -1.141, -1.806, -1.431, -0.036, 0.017, -0.201, 1
3133419, -0.579, -0.882, -0.66, 0.106, 0.096, -0.318, 1
3133439, -0.519, -1.731, -0.813, 0.075, 0.073, -0.403, 1
3133459, -0.778, -2.098, -0.8, 0.042, 0.02, -0.431, 1
3133479, -0.447, -2.272, -0.269, 0.001, 0.04, -0.379, 1
3133499, -0.202, -2.235, 0.004, -0.027, 0.078, -0.361, 1
3133519, -0.639, -2.639, -0.221, -0.031, -0.004, -0.198, 1
3133539, -1.327, -3.74, -0.604, -0.124, -0.15, -0.097, 1
3133559, -1.57, -4.395, -0.658, -0.29, -0.12, -0.114, 1
3133579, -0.638, -3.099, 0.145, -0.425, 0.044, -0.13, 1
3133599, -0.493, -3.039, 0.262, -0.41, 0.113, -0.354, 1
3133619, -1.299, -3.522, -0.062, -0.492, -0.034, -0.607, 1
3133639, -1.606, -3.338, -0.186, -0.729, -0.086, -0.638, 1
3133659, -0.699, -1.922, 0.611, -1.076, -0.031, -0.641, 1
3133679, -0.397, -0.119, 1.335, -1.124, 0.177, -0.805, 1
3133699, -0.638, 0.692, 1.29, -0.839, 0.51, -0.844, 1
3133719, 0.402, 0.227, 0.835, -0.606, 0.543, -0.799, 1
3133739, 0.671, -0.003, 0.54, -0.66, 0.125, -0.765, 1
3133759, -0.141, 1.387, 0.853, -0.93, -0.103, -0.713, 1
3133779, -0.246, 3.152, 1.275, -0.915, 0.213, -0.574, 1
3133799, 0.833, 3.345, 1.105, -0.478, 0.494, -0.549, 1
3133819, 0.671, 2.552, 0.582, -0.12, 0.343, -0.632, 1
3133839, -0.577, 2.363, 0.289, -0.093, 0.131, -0.55, 1
3133859, -0.897, 2.583, 0.374, -0.2, 0.053, -0.304, 1
3133879, 0.154, 2.373, 0.567, -0.288, 0.063, -0.123, 1
3133899, -0.162, 2.654, 0.358, -0.135, 0.008, -0.191, 1
3133919, -1.409, 3.054, -0.379, 0.259, 0.045, -0.189, 1
3133939, -1.79, 2.503, -1.166, 0.367, 0.136, -0.063, 1
3133959, -1.332, 1.627, -1.461, 0.209, 0.268, 0.097, 1
3133979, -0.542, 0.677, -1.334, -0.025, 0.34, 0.238, 1
3133999, 0.065, 0.257, -0.808, -0.142, 0.251, 0.273, 1
3134019, 0.26, -0.148, -0.686, -0.171, 0.081, 0.191, 1
3134039, -0.211, -0.273, -0.761, -0.163, 0.023, 0.148, 1
3134059, -0.536, -0.319, -0.796, -0.095, 0.04, 0.124, 1
3134079, -0.5, -0.638, -0.818, -0.092, 0.07, 0.131, 1
3134099, -0.094, -0.996, -0.82, -0.254, 0.08, 0.122, 1
3134119, -0.159, -0.744, -0.619, -0.292, 0.063, 0.135, 1
3134139, -0.196, -0.461, -0.441, -0.197, 0.042, 0.094, 1
3134159, -0.308, -0.505, -0.418, -0.144, 0.085, 0.047, 1
3134179, -0.218, -0.746, -0.539, -0.236, 0.186, 0.014, 1
3134199, -0.443, -0.974, -0.893, -0.477, 0.376, 0.079, 1
3134219, -0.395, -0.514, -0.539, -0.536, 0.479, 0.149, 1
3134239, 0.098, -0.236, 0.02, -0.365, 0.33, 0.122, 1
3134259, 0.565, -0.401, 0.313, -0.188, 0.029, 0.064, 1
3134279, 0.283, -0.337, 0.332, -0.166, -0.2, -0.007, 1
3134299, -0.349, -0.052, 0.155, -0.118, -0.145, -0.023, 0
3134319, -0.614, 0.014, -0.098, -0.059, 0.095, 0.007, 0
3134339, 0.016, -0.107, -0.024, 0.017, 0.158, 0.043, 0
3134359, 0.492, -0.014, 0.191, 0.11, -0.172, -0.032, 0
3134379, -0.106, 0.206, -0.03, 0.196, -0.212, -0.048, 0
3134399, -0.514, 0.318, -0.248, 0.224, 0.263, 0.015, 0
3134419, 0.044, 0.913, -0.628, 0.382, 0.359, -0.005, 0
3134439, 0.005, 1.03, -1.183, 0.17, 0.108, 0.069, 0
3134459, -0.42, 2.19, -1.064, -0.128, -0.081, 0.2, 0
3134479, -0.653, 3.243, -0.972, -0.086, -0.096, 0.241, 0
3134499, -0.807, 3.833, -0.761, 0.114, 0.045, 0.257, 0
3134519, -0.308, 4.072, -0.172, 0.394, 0.223, 0.241, 0
3134539, 0.687, 3.559, 0.0, 0.795, 0.263, 0.185, 0
3134559, 1.328, 2.457, -0.545, 0.687, -0.139, 0.232, 0
3134579, -0.104, 2.824, -0.97, 0.216, -0.741, 0.347, 0
3134599, -0.93, 3.226, -0.978, 0.108, -0.846, 0.454, 0
3134619, -0.922, 3.167, -0.451, 0.291, -0.588, 0.42, 0
3134639, -1.062, 2.665, -0.123, 0.607, -0.26, 0.342, 0
3134659, -0.925, 1.159, -0.241, 0.853, 0.149, 0.439, 0
3134679, -0.814, -0.741, -0.394, 0.713, 0.274, 0.679, 0
3134699, -1.915, -2.636, -0.416, 0.274, 0.125, 1.065, 0
3134719, -1.927, -3.762, 0.59, -0.277, 0.001, 1.352, 0
3134739, -1.64, -5.497, 1.4, -0.516, -0.21, 1.374, 0
3134759, -2.131, -7.347, 0.546, -0.665, -0.425, 1.064, 0
3134779, -2.583, -7.636, -0.004, -0.632, -0.356, 0.871, 0
3134799, -1.205, -7.505, 0.372, -0.317, -0.075, 1.185, 0
3134819, 1.739, -8.209, -0.291, -0.174, -0.313, 1.415, 0
3134839, 2.135, -7.453, -1.42, -0.277, -1.183, 0.923, 0
3134859, 0.527, -5.809, -2.05, -0.505, -1.532, 0.48, 0
3134879, -1.118, -4.435, -1.783, -0.595, -0.865, 0.25, 0
3134899, -1.906, -2.724, 0.088, -0.156, 0.758, 0.23, 0
3134919, -0.899, -2.092, 1.364, 0.28, 0.96, 0.166, 0
3134939, 0.33, -3.031, 1.167, 0.04, 0.36, 0.052, 0
3134959, 0.669, -2.462, 0.537, -0.281, -0.343, -0.062, 0
3134979, -0.357, -1.454, -0.051, -0.284, -0.426, -0.137, 0
3134999, -1.674, -0.508, -0.274, -0.098, 0.161, -0.059, 0
3135019, -1.42, -0.19, -0.173, 0.202, 0.699, 0.099, 0
3135039, -0.103, -0.712, 0.038, 0.274, 0.7, 0.158, 0
3135059, 0.855, -1.106, -0.13, 0.143, 0.207, 0.069, 0
3135079, 0.449, -1.231, -0.497, -0.059, -0.194, -0.031, 0
3135099, -0.394, -0.865, -0.785, -0.081, -0.172, -0.072, 0
3135119, -0.64, -0.42, -0.958, 0.207, -0.012, -0.022, 0
3135139, -0.168, -0.944, -0.922, 0.512, 0.08, -0.116, 1
3135159, -0.58, -1.63, -1.357, 0.542, 0.028, -0.025, 1
3135179, -0.094, -1.393, -1.177, 0.272, 0.015, -0.058, 1
3135199, -0.804, -1.669, -0.917, 0.032, -0.108, -0.02, 1
3135219, -0.582, -2.061, -0.577, 0.076, -0.207, -0.092, 1
3135239, -1.127, -2.387, -0.393, 0.185, -0.135, -0.123, 1
3135259, -1.18, -2.432, -0.11, 0.319, 0.111, -0.174, 1
3135279, -1.03, -2.441, 0.092, 0.394, 0.313, -0.277, 1
3135299, -1.089, -3.013, -0.031, 0.322, 0.313, -0.306, 1
3135319, -1.049, -2.976, 0.016, 0.175, 0.251, -0.329, 1
3135339, -0.838, -3.194, -0.135, -0.074, 0.15, -0.376, 1
3135359, -0.541, -3.491, -0.136, -0.488, 0.03, -0.374, 1
3135379, -0.584, -3.172, 0.212, -1.141, 0.042, -0.556, 1
3135399, -0.175, -0.433, 0.449, -1.121, 0.338, -0.632, 1
3135419, -0.003, -1.287, 0.207, -0.974, 0.403, -0.817, 1
3135439, -0.359, -1.036, 0.393, -1.11, 0.227, -0.809, 1
3135459, -0.391, -0.154, 0.646, -1.16, 0.288, -0.77, 1
3135479, 0.849, 1.108, 1.328, -1.025, 0.472, -0.769, 1
3135499, 1.59, 0.832, 1.073, -0.805, 0.408, -0.885, 1
3135519, 0.37, 1.266, 0.436, -0.695, 0.006, -0.957, 1
3135539, -1.386, 2.689, 0.383, -0.616, -0.19, -0.799, 1
3135559, -0.57, 3.386, 0.923, -0.56, 0.173, -0.64, 1
3135579, 0.52, 2.109, 0.726, -0.459, 0.393, -0.605, 1
3135599, 0.012, 2.459, 0.715, -0.471, 0.233, -0.607, 1
3135619, -1.731, 4.07, 0.756, -0.278, 0.21, -0.58, 1
3135639, -1.871, 4.645, 0.731, 0.098, 0.351, -0.448, 1
3135659, -0.869, 3.296, 0.205, 0.271, 0.291, -0.274, 1
3135679, -0.733, 2.229, -0.604, 0.095, 0.039, -0.117, 1
3135699, -1.195, 1.821, -1.011, -0.121, -0.052, 0.036, 1
3135719, -0.852, 1.33, -1.029, -0.143, 0.136, 0.116, 1
3135739, -0.533, 1.101, -0.782, -0.067, 0.268, 0.107, 1
3135759, -0.213, 0.582, -0.466, -0.007, 0.359, 0.124, 1
3135779, -0.074, 0.257, -0.205, -0.042, 0.277, 0.135, 1
3135799, -0.092, 0.101, -0.056, -0.048, 0.161, 0.16, 1
3135819, -0.079, -0.189, -0.064, -0.032, 0.067, 0.167, 1
3135839, 0.108, -1.007, -0.389, 0.026, -0.001, 0.151, 1
3135859, -0.074, -1.427, -0.954, -0.065, -0.078, 0.083, 1
3135879, -0.224, -1.379, -1.251, -0.285, 0.038, 0.095, 1
3135899, -0.651, -0.859, -1.17, -0.442, 0.228, 0.156, 1
3135919, -0.455, -0.364, -0.592, -0.416, 0.318, 0.14, 1
3135939, -0.096, -0.076, -0.082, -0.199, 0.273, 0.092, 1
3135959, 0.242, -0.397, 0.087, -0.053, 0.089, 0.013, 1
3135979, -0.037, -0.874, -0.136, -0.191, 0.094, -0.014, 1
3135999, -0.639, -0.809, -0.441, -0.439, 0.375, 0.114, 1
3136019, -0.084, -0.136, 0.11, -0.372, 0.414, 0.149, 1
3136039, 0.444, 0.189, 0.707, -0.096, -0.006, 0.087, 1
3136059, 0.19, 0.06, 0.637, 0.149, -0.303, 0.011, 1
3136079, -0.572, -0.437, -0.094, 0.144, -0.103, 0.086, 0
3136099, -0.717, -0.598, -0.469, -0.045, 0.174, 0.259, 0
3136119, 0.224, -0.181, -0.204, -0.036, 0.072, 0.325, 0
3136139, 0.287, 0.627, 0.339, 0.244, -0.246, 0.324, 0
3136159, 0.154, 1.056, 0.313, 0.48, -0.39, 0.307, 0
3136179, -0.336, 1.087, -0.711, 0.406, -0.452, 0.28, 0
3136199, -1.95, 1.39, -2.154, 0.164, 0.035, 0.517, 0
3136219, -1.007, 1.342, -2.049, -0.103, 0.513, 0.747, 0
3136239, 1.016, 1.253, -0.82, -0.267, 0.326, 0.702, 0
3136259, 2.045, 1.839, 0.293, -0.086, -0.232, 0.456, 0
3136279, 0.934, 2.493, 0.302, 0.22, -0.496, 0.306, 0
3136299, -0.142, 2.668, -0.286, 0.354, -0.536, 0.365, 0
3136319, -0.932, 2.384, -0.96, 0.111, -0.367, 0.555, 0
3136339, -0.71, 2.616, -0.992, -0.175, -0.304, 0.766, 0
3136359, 0.434, 2.995, 0.214, -0.266, -0.547, 0.609, 0
3136379, -1.087, 2.135, 0.117, -0.146, -0.45, 0.514, 0
3136399, -2.125, 0.03, -0.136, -0.068, -0.119, 0.614, 0
3136419, -1.685, -1.59, -0.146, -0.059, -0.021, 0.93, 0
3136439, -1.923, -3.595, -0.641, -0.32, -0.143, 0.968, 0
3136459, -2.705, -4.448, -0.539, -0.596, -0.193, 0.822, 0
3136479, -4.108, -5.738, -0.668, -0.465, 0.161, 0.567, 0
3136499, -3.262, -6.427, -0.451, -0.098, 0.74, 0.586, 0
3136519, -1.177, -7.701, -1.026, 0.231, 0.858, 0.976, 0
3136539, 0.757, -7.968, -1.461, 0.154, 0.099, 1.204, 0
3136559, 1.042, -6.722, -1.423, -0.03, -0.705, 1.086, 0
3136579, 0.821, -5.642, -1.704, 0.001, -0.838, 0.712, 0
3136599, 0.671, -4.946, -1.993, 0.138, -0.528, 0.339, 0
3136619, -0.029, -3.562, -1.782, 0.067, -0.207, 0.084, 0
3136639, -0.791, -3.231, -0.851, -0.145, -0.102, 0.062, 0
3136659, -0.82, -2.29, 0.718, -0.39, 0.018, 0.214, 0
3136679, -0.109, -1.612, 1.159, -0.234, 0.012, 0.164, 0
3136699, -0.213, -1.511, 0.578, -0.001, -0.119, -0.025, 0
3136719, -0.534, -0.991, -0.08, 0.026, -0.235, 0.013, 0
3136739, -0.865, -0.746, -0.156, -0.017, -0.323, 0.29, 0
3136759, -0.721, -0.706, 0.307, -0.106, -0.228, 0.455, 0
3136779, -0.055, -0.939, 0.358, -0.012, -0.032, 0.331, 0
3136799, 0.386, -1.083, 0.005, 0.16, -0.037, 0.149, 0
3136819, 0.368, -0.979, -0.488, 0.274, -0.175, 0.021, 0
3136839, -0.127, -0.623, -0.839, 0.364, -0.244, -0.006, 1
3136859, -0.651, -0.417, -1.018, 0.386, -0.138, 0.094, 1
3136879, -0.983, -0.389, -1.141, 0.468, 0.086, 0.106, 1
3136899, -1.109, -1.26, -1.101, 0.603, 0.224, 0.007, 1
3136919, -0.58, -1.362, -0.855, 0.629, 0.158, -0.108, 1
3136939, 0.031, -1.667, -0.636, 0.465, -0.136, -0.18, 1
3136959, 0.07, -1.969, -0.808, 0.268, -0.415, -0.211, 1
3136979, -0.479, -1.827, -0.986, 0.149, -0.513, -0.184, 1
3136999, -1.17, -2.167, -1.267, 0.116, -0.367, -0.178, 1
3137019, -1.497, -2.845, -1.088, 0.093, -0.029, -0.19, 1
3137039, -0.982, -2.623, -0.537, 0.059, 0.23, -0.196, 1
3137059, -0.845, -2.631, -0.339, 0.128, 0.353, -0.307, 1
3137079, -0.598, -3.555, -0.576, -0.044, 0.153, -0.439, 1
3137099, -0.9, -4.322, -0.637, -0.437, -0.126, -0.514, 1
3137119, -0.542, -3.311, -0.324, -0.841, -0.139, -0.574, 1
3137139, -1.134, -2.795, -0.133, -0.991, 0.113, -0.707, 1
3137159, -2.241, -2.175, 0.104, -0.918, 0.587, -0.729, 1
3137179, -1.262, -1.632, 0.62, -0.803, 1.036, -0.767, 1
3137199, 1.36, -1.679, 1.203, -0.999, 0.735, -0.9, 1
3137219, 1.386, -1.642, 1.341, -1.308, -0.007, -1.039, 1
3137239, -0.954, -0.025, 1.427, -1.387, -0.179, -0.928, 1
3137259, -2.058, 2.667, 1.87, -0.952, 0.395, -0.752, 1
3137279, -0.9, 2.927, 2.064, -0.448, 0.885, -0.733, 1
3137299, 0.442, 1.745, 1.873, -0.221, 0.772, -0.685, 1
3137319, 0.37, 1.801, 1.742, -0.366, 0.304, -0.504, 1
3137339, 0.052, 2.445, 1.433, -0.223, 0.171, -0.355, 1
3137359, 0.608, 3.055, 1.074, -0.052, 0.235, -0.42, 1
3137379, -0.607, 3.508, 0.33, 0.212, 0.171, -0.495, 1
3137399, -2.22, 3.651, -0.281, 0.393, 0.208, -0.419, 1
3137419, -1.975, 2.619, -0.705, 0.432, 0.412, -0.141, 1
3137439, -0.304, 1.494, -0.788, 0.182, 0.4, 0.142, 1
3137459, -0.172, 1.767, -0.908, -0.117, 0.204, 0.26, 1
3137479, -1.098, 2.222, -1.06, -0.089, 0.152, 0.239, 1
3137499, -1.366, 2.22, -0.848, 0.125, 0.386, 0.249, 1
3137519, -0.586, 1.286, -0.596, 0.218, 0.582, 0.326, 1
3137539, 0.171, 0.058, -0.668, 0.075, 0.524, 0.43, 1
3137559, 0.518, -0.993, -1.01, -0.255, 0.177, 0.513, 1
3137579, -0.076, -1.055, -1.412, -0.447, -0.177, 0.463, 1
3137599, -0.641, -0.667, -1.392, -0.369, -0.055, 0.342, 1
3137619, -0.266, -0.763, -0.974, -0.211, 0.32, 0.26, 1
3137639, 0.097, -0.8, -0.49, -0.158, 0.448, 0.183, 1
3137659, 0.265, -0.812, -0.197, -0.214, 0.315, 0.154, 1
3137679, -0.004, -0.425, 0.104, -0.343, 0.087, 0.149, 1
3137699, -0.216, -0.182, 0.262, -0.317, -0.06, 0.119, 1
3137719, -0.436, -0.29, 0.121, -0.163, -0.01, 0.061, 1
3137739, -0.646, -0.697, -0.398, -0.164, 0.154, 0.066, 1
3137759, -0.225, -0.576, -0.353, -0.342, 0.333, 0.17, 0
3137779, 0.576, -0.117, 0.046, -0.301, 0.215, 0.202, 0
3137799, 0.097, 0.359, 0.502, -0.026, -0.097, 0.145, 0
3137819, -0.131, 0.042, 0.282, 0.364, -0.009, 0.064, 0
3137839, 0.064, -0.447, -0.227, 0.312, 0.08, 0.087, 0
3137859, 0.397, -0.85, -0.88, -0.089, -0.014, 0.182, 0
3137879, -0.129, 0.0, -1.026, -0.339, -0.023, 0.214, 0
3137899, -0.573, 0.733, -0.847, -0.246, 0.182, 0.18, 0
3137919, 0.05, 1.459, -0.346, 0.116, 0.126, 0.031, 0
3137939, -0.346, 1.866, -0.439, 0.351, 0.246, -0.035, 0
3137959, 0.293, 1.567, -0.371, 0.141, 0.175, 0.05, 0
3137979, 0.661, 2.306, 0.267, -0.144, -0.232, 0.181, 0
3137999, 0.144, 3.382, 0.291, -0.182, -0.401, 0.189, 0
3138019, -0.456, 4.292, 0.106, -0.031, -0.223, 0.225, 0
3138039, -0.537, 4.471, 0.25, 0.198, -0.197, 0.287, 0
3138059, -0.771, 4.459, 0.199, 0.386, -0.1, 0.313, 0
3138079, 1.218, 3.402, 0.19, 0.235, -0.429, 0.31, 0
3138099, 0.332, 3.095, -0.446, -0.001, -0.766, 0.483, 0
3138119, -1.41, 2.027, -1.203, -0.24, -0.529, 0.718, 0
3138139, -2.222, 1.252, -1.137, -0.324, -0.238, 0.902, 0
3138159, -1.784, 0.28, -0.776, -0.392, -0.127, 0.891, 0
3138179, -2.788, -1.35, -0.839, -0.53, 0.264, 0.871, 0
3138199, -2.713, -3.449, -0.242, -0.329, 0.227, 0.927, 0
3138219, -2.476, -5.41, -0.381, -0.175, -0.105, 1.064, 0
3138239, -2.946, -6.236, -0.742, 0.009, -0.103, 1.224, 0
3138259, -3.058, -7.347, -1.117, 0.319, 0.147, 1.303, 0
3138279, -0.884, -8.891, -1.4, 0.378, -0.019, 1.365, 0
3138299, 1.66, -8.879, -1.729, 0.116, -0.679, 0.911, 0
3138319, 1.163, -5.777, -2.246, -0.107, -0.796, 0.22, 0
3138339, -0.885, -4.055, -1.381, -0.158, -0.321, -0.039, 0
3138359, -1.395, -2.626, 0.482, -0.163, 0.267, 0.097, 0
3138379, -0.179, -2.819, 1.725, -0.034, 0.267, 0.265, 0
3138399, 0.649, -3.136, 1.429, -0.096, -0.186, 0.105, 0
3138419, 0.273, -2.638, 0.161, -0.26, -0.564, -0.133, 0
3138439, -0.392, -1.727, -0.72, -0.379, -0.554, -0.235, 0
3138459, -1.387, -0.508, -0.713, -0.339, -0.254, -0.259, 0
3138479, -1.392, 0.064, -0.251, -0.166, 0.227, -0.139, 0
3138499, -0.72, 0.004, 0.05, 0.014, 0.542, 0.026, 0
3138519, 0.195, -0.527, 0.226, 0.137, 0.402, 0.152, 0
3138539, 0.406, -0.992, -0.071, 0.138, 0.051, 0.065, 1
3138559, -0.428, -1.051, -0.24, 0.043, -0.229, 0.098, 1
3138579, -0.481, -0.998, -0.769, -0.078, -0.285, 0.06, 1
3138599, -0.842, -0.716, -0.614, -0.027, -0.181, 0.0, 1
3138619, -0.608, -0.664, -0.398, 0.23, -0.089, -0.051, 1
3138639, -0.341, -0.79, -0.189, 0.472, -0.098, -0.091, 1
3138659, -0.053, -1.26, -0.36, 0.586, -0.154, -0.186, 1
3138679, -0.299, -1.604, -0.671, 0.584, -0.269, -0.244, 1
3138699, -0.411, -1.991, -0.893, 0.451, -0.359, -0.224, 1
3138719, -0.657, -2.73, -1.038, 0.205, -0.372, -0.181, 1
3138739, -0.502, -2.936, -0.848, 0.014, -0.309, -0.075, 1
3138759, -0.126, -3.092, -0.58, 0.01, -0.198, 0.005, 1
3138779, 0.02, -3.451, -0.341, 0.082, -0.192, -0.075, 1
3138799, -0.532, -4.135, -0.234, -0.028, -0.305, -0.511, 1
3138819, -1.263, -3.855, -0.064, -0.199, -0.117, -0.613, 1
3138839, -1.598, -3.176, 0.272, -0.249, 0.302, -0.472, 1
3138859, -0.54, -2.807, 0.56, -0.323, 0.507, -0.549, 1
3138879, 0.644, -2.606, 0.821, -0.569, 0.301, -0.712, 1
3138899, 0.69, -2.159, 1.101, -0.911, 0.0, -0.852, 1
3138919, -0.468, -1.114, 0.888, -0.88, 0.001, -0.918, 1
3138939, -0.275, 0.429, 1.075, -0.544, 0.133, -0.962, 1
3138959, 0.575, 1.252, 1.554, -0.27, 0.269, -1.013, 1
3138979, 0.128, 1.545, 1.665, -0.103, 0.439, -0.977, 1
3138999, 0.072, 1.248, 1.108, -0.094, 0.426, -0.813, 1
3139019, 0.966, 1.767, 0.788, -0.282, 0.039, -0.762, 1
3139039, -0.141, 1.473, -0.295, -0.392, -0.301, -0.689, 1
3139059, -2.597, 3.716, -0.537, -0.257, 0.009, -0.575, 1
3139079, -2.52, 5.109, -0.21, 0.134, 0.69, -0.47, 1
3139099, -1.518, 3.385, -0.515, 0.287, 0.802, -0.36, 1
3139119, -0.556, 1.114, -1.39, -0.109, 0.298, -0.108, 1
3139139, -0.903, 0.366, -1.933, -0.637, -0.072, 0.138, 1
3139159, -1.54, 1.098, -1.579, -0.712, 0.181, 0.26, 1
3139179, -0.905, 1.563, -0.994, -0.434, 0.539, 0.146, 1
3139199, -0.6, 1.495, -0.482, -0.106, 0.7, 0.023, 1
3139219, -0.038, 0.287, -0.366, -0.096, 0.499, 0.015, 1
3139239, -0.161, -0.647, -0.678, -0.338, 0.204, 0.141, 1
3139259, -0.119, -0.875, -0.693, -0.606, 0.099, 0.245, 1
3139279, -0.211, -0.405, -0.462, -0.562, 0.348, 0.18, 1
3139299, -0.199, -0.002, 0.014, -0.373, 0.559, 0.15, 1
3139319, 0.376, -0.17, 0.307, -0.224, 0.458, 0.124, 1
3139339, 0.694, -0.775, 0.179, -0.189, 0.1, 0.106, 1
3139359, -0.163, -0.546, -0.126, -0.279, -0.186, 0.08, 1
3139379, -0.679, -0.673, -0.487, -0.285, 0.014, 0.087, 1
3139399, -0.474, -0.667, -0.435, -0.401, 0.416, 0.151, 1
3139419, 0.437, -0.824, 0.024, -0.462, 0.519, 0.215, 1
3139439, 0.608, -0.717, 0.196, -0.518, 0.101, 0.2, 1
3139459, -0.568, -0.251, -0.164, -0.48, -0.156, 0.185, 1
3139479, -0.484, -0.217, -0.261, -0.459, 0.145, 0.231, 1
3139499, 0.162, -0.436, -0.016, -0.332, 0.322, 0.249, 0
3139519, 0.471, -0.821, -0.252, -0.243, 0.174, 0.163, 0
3139539, 0.432, -0.528, -0.155, -0.16, -0.139, 0.1, 0
3139559, -0.134, -0.151, -0.278, -0.031, -0.247, 0.01, 0
3139579, -0.267, 0.021, -0.4, 0.012, -0.075, -0.006, 0
3139599, -0.158, 0.104, -0.455, 0.033, 0.047, -0.025, 0
3139619, -0.066, 0.172, -0.66, 0.092, -0.031, -0.044, 0
3139639, -0.22, 0.432, -0.905, 0.036, -0.09, -0.027, 0
3139659, -0.498, 1.143, -1.147, 0.001, -0.127, -0.007, 0
3139679, -0.748, 1.729, -1.4, 0.025, -0.064, 0.036, 0
3139699, -0.052, 1.837, -1.245, 0.053, -0.038, 0.082, 0
3139719, 0.47, 2.204, -1.103, 0.0, -0.248, 0.099, 0
3139739, 0.65, 2.949, -0.962, -0.04, -0.406, 0.1, 0
3139759, -0.103, 3.941, -0.819, -0.144, -0.343, 0.223, 0
3139779, -0.285, 4.867, -0.038, 0.015, 0.023, 0.338, 0
3139799, 0.488, 4.81, 0.688, 0.203, -0.053, 0.445, 0
3139819, 1.373, 3.765, 0.841, 0.102, -0.485, 0.469, 0
3139839, 1.026, 3.995, 0.798, 0.216, -0.747, 0.465, 0
3139859, -0.438, 3.957, 0.439, 0.483, -0.521, 0.623, 0
3139879, -1.167, 2.357, -0.1, 0.29, -0.225, 0.893, 0
3139899, -1.455, 0.467, -0.423, -0.282, 0.073, 1.108, 0
3139919, -1.064, -0.558, 0.159, -0.359, 0.012, 1.17, 0
3139939, -0.803, -2.087, 0.345, -0.262, -0.49, 1.087, 0
3139959, -3.315, -4.197, -0.497, -0.322, -0.497, 1.145, 0
3139979, -4.942, -6.022, -1.081, -0.36, -0.003, 1.459, 0
3139999, -4.524, -7.9, -1.295, -0.156, 0.236, 1.725, 0
3140019, -2.229, -9.342, -1.116, 0.192, -0.035, 1.83, 0
3140039, 0.219, -9.823, -1.002, 0.212, -0.318, 1.715, 0
3140059, 2.318, -9.232, -1.466, 0.092, -0.599, 1.149, 0
3140079, 2.57, -7.872, -2.374, -0.083, -0.689, 0.415, 0
3140099, 0.962, -5.855, -2.336, -0.304, -0.332, -0.009, 0
3140119, -1.177, -3.439, -0.786, -0.361, 0.29, -0.099, 0
3140139, -1.522, -2.061, 0.655, -0.271, 0.556, -0.011, 0
3140159, -0.75, -1.472, 1.509, -0.152, 0.323, 0.116, 0
3140179, 0.241, -2.22, 0.974, -0.186, -0.123, -0.015, 0
3140199, -0.5, -1.758, 0.415, -0.253, -0.136, -0.188, 0
3140219, -1.521, -0.468, 0.058, -0.173, 0.202, -0.15, 0
3140239, -1.528, 0.221, 0.165, -0.059, 0.469, 0.102, 0
3140259, -0.249, -0.188, 0.208, 0.006, 0.087, 0.208, 0
3140279, 0.688, -1.275, -0.214, 0.078, -0.21, 0.105, 0
3140299, 0.382, -1.334, -0.707, 0.147, -0.372, -0.047, 0
3140319, -0.484, -1.31, -1.298, 0.02, -0.406, -0.059, 1
3140339, -0.731, -1.145, -1.307, -0.199, -0.237, 0.048, 1
3140359, -0.531, -1.081, -0.867, -0.224, -0.009, 0.133, 1
3140379, 0.054, -0.987, -0.411, 0.01, 0.177, 0.045, 1
3140399, 0.273, -1.543, -0.314, 0.263, 0.16, -0.139, 1
3140419, -0.015, -1.622, -0.427, 0.39, 0.029, -0.333, 1
3140439, -0.467, -1.79, -0.647, 0.438, -0.135, -0.433, 1
3140459, -0.999, -2.092, -0.616, 0.426, -0.182, -0.384, 1
3140479, -0.858, -2.277, -0.297, 0.351, 0.034, -0.247, 1
3140499, -0.538, -2.515, -0.204, 0.36, 0.333, -0.15, 1
3140519, -0.274, -3.176, -0.408, 0.348, 0.433, -0.202, 1
3140539, -0.232, -4.114, -0.729, 0.187, 0.227, -0.327, 1
3140559, -0.102, -4.783, -0.808, -0.144, -0.076, -0.406, 1
3140579, -0.331, -3.81, -0.434, -0.632, -0.356, -0.459, 1
3140599, -1.463, -3.245, -0.464, -0.838, -0.353, -0.557, 1
3140619, -1.533, -1.985, 0.107, -0.899, -0.004, -0.582, 1
3140639, -0.427, -1.079, 0.875, -0.754, 0.5, -0.649, 1
3140659, 0.038, -0.487, 1.11, -0.552, 0.698, -0.773, 1
3140679, -0.121, -0.08, 1.002, -0.459, 0.591, -0.736, 1
3140699, -0.088, 1.194, 1.053, -0.552, 0.418, -0.647, 1
3140719, 0.548, 1.419, 1.186, -0.632, 0.441, -0.505, 1
3140739, 0.19, 1.803, 1.327, -0.564, 0.58, -0.423, 1
3140759, 0.077, 1.809, 1.409, -0.328, 0.683, -0.332, 1
3140779, 0.903, 2.093, 1.434, -0.136, 0.474, -0.293, 1
3140799, 1.458, 2.075, 1.393, -0.15, 0.153, -0.317, 1
3140819, 0.936, 1.258, 0.69, -0.221, -0.138, -0.294, 1
3140839, -0.313, 0.921, -0.347, -0.09, -0.177, -0.254, 1
3140859, -0.644, 1.287, -0.804, 0.063, 0.006, -0.243, 1
3140879, -0.103, 1.249, -0.905, -0.09, 0.001, -0.113, 1
3140899, -0.201, 1.759, -0.916, -0.332, -0.163, 0.061, 1
3140919, -1.177, 2.395, -1.157, -0.301, 0.01, 0.173, 1
3140939, -1.023, 2.205, -0.993, -0.086, 0.334, 0.248, 1
3140959, -0.222, 1.115, -0.867, -0.125, 0.371, 0.295, 1
3140979, 0.073, 0.342, -0.768, -0.326, 0.147, 0.348, 1
3140999, -0.248, 0.365, -0.726, -0.428, 0.048, 0.368, 1
3141019, -0.577, 0.305, -0.622, -0.347, 0.193, 0.338, 1
3141039, -0.274, 0.111, -0.346, -0.05, 0.349, 0.247, 1
3141059, 0.673, -0.573, -0.302, 0.174, 0.103, 0.114, 1
3141079, 0.459, -1.084, -0.766, 0.177, -0.226, -0.033, 1
3141099, -0.362, -1.237, -1.501, -0.02, -0.158, -0.051, 1
3141119, -0.743, -1.01, -1.561, -0.116, 0.174, 0.002, 1
3141139, -0.261, -0.402, -0.973, 0.037, 0.282, -0.001, 1
3141159, 0.287, -0.382, -0.565, 0.16, 0.125, -0.059, 1
3141179, 0.249, -0.521, -0.284, 0.136, -0.012, -0.069, 1
3141199, 0.342, -0.59, -0.111, 0.145, -0.22, -0.091, 1
3141219, 0.067, -0.491, -0.125, 0.231, -0.271, -0.144, 1
3141239, -0.263, -1.013, -0.555, 0.046, -0.097, -0.08, 1
3141259, -0.145, -1.034, -0.315, -0.062, -0.273, -0.073, 0
3141279, 0.241, -0.63, -0.154, -0.036, -0.414, -0.073, 0
3141299, -0.572, -0.285, -0.296, 0.128, -0.354, -0.124, 0
3141319, -0.778, -0.298, -0.649, 0.233, 0.065, -0.121, 0
3141339, 0.048, -0.859, -1.026, 0.032, 0.266, 0.006, 0
3141359, 0.042, -0.324, -1.002, -0.444, 0.107, 0.134, 0
3141379, -0.335, 0.369, -0.761, -0.492, 0.029, 0.119, 0
3141399, -0.168, 0.689, -0.637, -0.119, 0.167, 0.023, 0
3141419, 0.183, 0.327, -0.814, 0.164, 0.225, -0.077, 0
3141439, 0.315, 0.342, -0.819, 0.16, 0.273, -0.062, 0
3141459, 0.848, 0.783, -0.512, 0.006, 0.08, -0.037, 0
3141479, 0.216, 1.487, -0.845, -0.059, -0.173, -0.025, 0
3141499, 0.035, 1.859, -1.289, -0.108, -0.123, 0.014, 0
3141519, 0.323, 1.443, -1.6, -0.133, -0.096, 0.043, 0
3141539, 0.325, 1.865, -1.256, -0.284, 0.051, 0.056, 0
3141559, 0.993, 2.79, -0.019, -0.409, 0.215, 0.075, 0
3141579, 0.294, 3.957, 0.851, -0.444, -0.009, 0.131, 0
3141599, 0.001, 5.377, 1.277, -0.273, -0.19, 0.286, 0
3141619, 0.67, 6.602, 1.479, -0.011, -0.216, 0.39, 0
3141639, -0.858, 6.467, 1.656, 0.285, -0.009, 0.452, 0
3141659, -1.267, 4.26, 1.963, 0.319, -0.037, 0.706, 0
3141679, -1.56, 2.112, 2.477, 0.027, -0.45, 0.834, 0
3141699, -3.302, -0.983, 2.788, -0.093, -0.642, 0.776, 0
3141719, -5.885, -4.766, 1.343, 0.414, -0.527, 0.318, 0
3141739, -6.905, -7.699, -0.335, 0.624, 0.515, 0.367, 0
3141759, -5.433, -9.797, -1.395, 0.81, 0.828, 1.28, 0
3141779, -1.242, -11.284, -1.878, 0.861, 0.019, 1.931, 0
3141799, 1.794, -11.378, -2.734, 0.627, -0.905, 1.519, 0
3141819, 2.233, -9.052, -3.722, 0.429, -1.026, 0.799, 0
3141839, 1.634, -7.234, -4.397, 0.037, -0.717, 0.212, 0
3141859, -0.136, -5.157, -3.173, -0.464, -0.229, 0.031, 0
3141879, -1.247, -3.131, -0.49, -0.612, 0.105, 0.196, 0
3141899, -0.729, -2.466, 1.219, -0.504, -0.04, 0.253, 0
3141919, -0.257, -2.717, 1.523, -0.432, -0.335, 0.178, 0
3141939, -0.458, -2.451, 0.763, -0.335, -0.277, 0.088, 0
3141959, -1.017, -1.22, 0.242, -0.157, 0.067, 0.004, 0
3141979, -1.223, -1.042, -0.178, -0.094, 0.271, 0.128, 0
3141999, -0.737, -0.873, 0.206, -0.079, 0.323, 0.235, 0
3142019, 0.216, -1.099, 0.221, -0.114, 0.081, 0.219, 0
3142039, 0.196, -1.222, 0.029, -0.155, -0.219, 0.162, 0
3142059, -0.288, -0.974, -0.085, 0.012, -0.186, 0.078, 0
3142079, -0.523, -0.874, -0.464, 0.235, -0.021, -0.009, 1
3142099, -0.595, -1.317, -1.078, 0.242, 0.043, 0.033, 1
3142119, 0.361, -2.008, -1.446, -0.109, -0.244, 0.027, 1
3142139, -0.447, -2.3, -2.024, -0.381, -0.271, 0.039, 1
3142159, -1.071, -1.975, -1.792, -0.254, 0.023, -0.105, 1
3142179, -0.401, -2.292, -1.535, -0.149, 0.039, -0.165, 1
3142199, -0.78, -2.864, -1.352, -0.249, -0.246, -0.102, 1
3142219, -1.318, -3.565, -0.435, -0.443, -0.317, -0.02, 1
3142239, -0.695, -3.306, -0.413, -0.317, -0.157, -0.139, 1
3142259, -0.393, -3.515, -0.721, -0.063, -0.039, -0.426, 1
3142279, -0.815, -3.666, -1.012, -0.067, -0.202, -0.687, 1
3142299, -1.374, -3.532, -0.971, -0.406, -0.566, -0.648, 1
3142319, -2.537, -2.7, -0.466, -0.772, -0.569, -0.588, 1
3142339, -2.19, -2.134, 0.018, -0.867, -0.017, -0.423, 1
3142359, -1.612, -1.3, 1.08, -0.795, 0.634, -0.387, 1
3142379, -0.161, -0.74, 2.118, -0.62, 0.943, -0.425, 1
3142399, 0.195, -0.242, 2.5, -0.511, 0.786, -0.574, 1
3142419, -0.068, 1.081, 2.637, -0.415, 0.577, -0.601, 1
3142439, -0.246, 1.878, 2.255, -0.201, 0.542, -0.549, 1
3142459, -0.007, 1.533, 1.694, -0.042, 0.517, -0.488, 1
3142479, 0.051, 0.795, 1.19, -0.025, 0.445, -0.447, 1
3142499, -0.127, 1.874, 0.948, -0.081, 0.423, -0.354, 1
3142519, 0.922, 3.008, 0.806, 0.079, 0.486, -0.342, 1
3142539, 0.766, 3.109, 0.634, 0.236, 0.48, -0.408, 1
3142559, -0.125, 2.665, 0.106, 0.226, 0.413, -0.39, 1
3142579, -1.288, 1.999, -0.651, 0.248, 0.388, -0.308, 1
3142599, -0.912, 0.688, -1.416, 0.323, 0.345, -0.119, 1
3142619, -0.24, -0.167, -1.731, 0.209, 0.34, -0.047, 1
3142639, 0.815, -0.69, -1.422, -0.058, 0.488, 0.037, 1
3142659, 0.898, -0.465, -0.821, -0.423, 0.559, 0.047, 1
3142679, -0.341, 0.71, -0.33, -0.486, 0.465, -0.042, 1
3142699, -1.006, 1.196, -0.099, -0.056, 0.283, -0.059, 1
3142719, -0.981, 0.595, -0.199, 0.012, 0.276, 0.04, 1
3142739, -0.267, -0.446, -0.229, -0.185, 0.224, 0.159, 1
3142759, -0.056, -0.867, -0.392, -0.321, 0.075, 0.194, 1
3142779, -0.43, -0.711, -0.643, -0.292, -0.015, 0.14, 1
3142799, -0.411, -0.509, -0.57, -0.131, 0.025, 0.08, 1
3142819, -0.174, -0.589, -0.418, 0.004, 0.072, 0.025, 1
3142839, 0.286, -0.885, -0.341, 0.049, -0.072, -0.091, 1
3142859, -0.278, -0.828, -0.849, -0.059, -0.061, -0.156, 1
3142879, -0.592, -0.576, -0.931, -0.217, 0.094, -0.029, 1
3142899, -0.227, -0.317, -0.524, -0.252, 0.095, 0.048, 1
3142919, 0.121, -0.221, -0.139, -0.116, -0.046, 0.033, 1
3142939, -0.077, -0.188, -0.185, 0.014, -0.111, 0.02, 1
3142959, -0.475, -0.329, -0.424, -0.02, 0.079, 0.089, 1
3142979, 0.17, -0.736, -0.394, -0.188, 0.073, 0.149, 1
3142999, 0.117, -0.52, -0.29, -0.262, -0.104, 0.158, 0
3143019, 0.045, -0.075, -0.108, -0.197, -0.307, 0.118, 0
3143039, -0.109, 0.325, 0.15, 0.086, -0.318, 0.058, 0
3143059, 0.235, 0.003, 0.419, 0.361, -0.42, -0.05, 0
3143079, 0.28, -1.015, -0.251, 0.047, -0.423, -0.008, 0
3143099, 0.042, -0.589, -0.597, -0.403, -0.445, 0.182, 0
3143119, -0.582, 0.145, -0.977, -0.599, -0.305, 0.237, 0
3143139, -0.789, 0.743, -0.981, -0.459, 0.052, 0.263, 0
3143159, -0.16, 0.901, -0.727, -0.239, 0.134, 0.213, 0
3143179, -0.038, 0.987, -0.84, -0.15, 0.24, 0.229, 0
3143199, 0.587, 1.161, -0.736, -0.175, 0.019, 0.196, 0
3143219, 0.447, 2.351, -0.626, -0.164, 0.013, 0.18, 0
3143239, 0.52, 2.777, -0.61, -0.108, -0.007, 0.162, 0
3143259, 0.307, 3.252, -0.527, -0.118, 0.045, 0.141, 0
3143279, 0.001, 3.418, -0.24, -0.145, 0.02, 0.224, 0
3143299, -0.491, 3.955, 0.274, -0.119, -0.15, 0.365, 0
3143319, -0.183, 4.782, 0.832, 0.055, -0.317, 0.461, 0
3143339, 0.601, 4.798, 0.987, 0.294, -0.293, 0.447, 0
3143359, 1.164, 3.604, 0.757, 0.497, -0.203, 0.411, 0
3143379, -0.263, 1.727, 0.41, 0.441, -0.196, 0.172, 0
3143399, -2.137, -0.181, 0.708, 0.197, -0.251, 0.177, 0
3143419, -2.011, -1.711, 1.336, 0.003, -0.522, 0.36, 0
3143439, -2.591, -4.511, 0.661, 0.072, -0.935, 0.5, 0
3143459, -4.194, -6.144, 0.383, 0.319, -0.642, 0.477, 0
3143479, -3.171, -9.466, -0.264, 0.759, 0.095, 0.724, 0
3143499, 1.495, -10.435, -1.229, 0.696, -0.514, 1.019, 0
3143519, 0.601, -8.475, -3.121, 0.169, -2.329, 0.981, 0
3143539, -2.327, -6.523, -4.179, -0.294, -2.245, 0.916, 0
3143559, -1.354, -5.142, -2.785, -0.15, -0.461, 0.935, 0
3143579, 0.505, -4.328, -0.95, 0.312, 0.941, 0.561, 0
3143599, 1.021, -4.385, -0.127, 0.506, 1.101, 0.284, 0
3143619, -0.006, -3.685, 0.125, 0.097, 0.497, 0.23, 0
3143639, -0.47, -2.621, 0.824, -0.348, 0.086, 0.272, 0
3143659, -0.13, -1.704, 0.951, -0.245, 0.168, 0.233, 0
3143679, -0.254, -1.278, 0.629, 0.101, 0.334, 0.021, 0
3143699, -0.805, -0.433, 0.445, 0.121, 0.229, 0.03, 0
3143719, -0.958, -0.833, -0.101, -0.128, -0.018, 0.19, 0
3143739, -1.074, -0.88, -0.08, -0.306, 0.019, 0.327, 0
3143759, -0.024, -0.913, 0.023, -0.134, 0.149, 0.21, 0
3143779, -0.118, -0.927, -0.169, 0.006, 0.197, 0.083, 1
3143799, -1.265, -0.203, -0.318, 0.063, 0.332, 0.243, 1
3143819, -1.066, -0.726, -0.419, 0.053, 0.4, 0.414, 1
3143839, -0.707, -1.33, -0.544, -0.013, 0.51, 0.502, 1
3143859, 0.009, -1.882, -0.58, -0.042, 0.504, 0.35, 1
3143879, 0.978, -2.284, -0.763, -0.161, 0.206, 0.015, 1
3143899, 0.717, -2.243, -1.291, -0.331, -0.145, -0.191, 1
3143919, -0.337, -2.442, -1.969, -0.565, -0.255, -0.113, 1
3143939, -1.007, -2.643, -1.803, -0.761, -0.127, 0.064, 1
3143959, -1.095, -2.741, -1.185, -0.792, 0.22, -0.102, 1
3143979, -0.921, -2.94, -0.894, -0.523, 0.45, -0.241, 1
3143999, -0.896, -3.687, -0.7, -0.31, 0.489, -0.265, 1
3144019, -1.442, -4.245, -0.465, -0.228, 0.397, -0.3, 1
3144039, -1.701, -5.177, -0.384, -0.326, 0.257, -0.42, 1
3144059, -1.678, -4.306, 0.228, -0.497, 0.34, -0.579, 1
3144079, -1.065, -2.769, 1.04, -0.463, 0.493, -0.735, 1
3144099, -0.862, -1.384, 1.538, -0.154, 0.494, -0.772, 1
3144119, -0.324, -0.761, 1.418, 0.065, 0.242, -0.88, 1
3144139, -0.4, -0.914, 0.629, 0.008, 0.102, -0.872, 1
3144159, 0.26, -0.266, 0.493, -0.392, 0.286, -0.861, 1
3144179, 0.611, 0.841, 0.982, -0.423, 0.733, -0.805, 1
3144199, 0.613, 2.583, 0.943, -0.256, 0.51, -0.726, 1
3144219, 0.944, 2.27, 0.649, -0.233, 0.264, -0.643, 1
3144239, 0.337, 2.507, 0.315, -0.365, 0.216, -0.577, 1
3144259, -0.853, 3.686, 0.351, -0.388, 0.455, -0.481, 1
3144279, -0.739, 3.928, 0.629, -0.102, 0.764, -0.338, 1
3144299, 0.263, 2.474, 0.502, 0.083, 0.709, -0.285, 1
3144319, 0.749, 1.419, 0.393, -0.116, 0.33, -0.193, 1
3144339, -0.235, 1.519, 0.115, -0.305, -0.069, -0.152, 1
3144359, -1.408, 1.711, -0.296, -0.172, -0.026, -0.125, 1
3144379, -1.514, 1.265, -0.579, 0.083, 0.304, -0.055, 1
3144399, -0.652, 0.588, -0.374, 0.227, 0.622, -0.006, 1
3144419, 0.508, -0.39, -0.069, 0.175, 0.647, 0.024, 1
3144439, 0.496, -0.687, -0.227, -0.108, 0.275, 0.041, 1
3144459, -0.843, -0.393, -0.943, -0.386, 0.133, 0.065, 1
3144479, -1.227, -0.609, -1.198, -0.501, 0.545, 0.18, 1
3144499, -0.134, -0.719, -0.648, -0.492, 0.845, 0.241, 1
3144519, 0.611, -0.88, -0.268, -0.415, 0.673, 0.174, 1
3144539, 0.407, -0.533, -0.158, -0.352, 0.365, 0.073, 1
3144559, -0.545, -0.1, -0.381, -0.252, 0.194, -0.017, 1
3144579, -1.037, 0.144, -0.608, -0.22, 0.208, 0.034, 1
3144599, -0.646, 0.354, -0.386, -0.213, 0.202, 0.111, 1
3144619, -0.242, 0.182, -0.286, -0.152, 0.108, 0.139, 1
3144639, -0.048, 0.092, -0.231, -0.042, -0.005, 0.095, 1
3144659, -0.338, 0.193, -0.378, 0.094, -0.012, 0.076, 1
3144679, -0.132, -0.148, -0.588, 0.001, -0.009, 0.15, 0
3144699, -0.125, -0.174, -0.569, -0.102, -0.105, 0.184, 0
3144719, 0.511, -0.135, -0.34, 0.009, -0.254, 0.133, 0
3144739, 0.159, -0.32, -0.599, 0.119, -0.202, 0.072, 0
3144759, 0.026, -0.367, -0.733, 0.116, 0.013, 0.063, 0
3144779, 0.264, -0.488, -0.687, -0.061, 0.073, 0.11, 0
3144799, 0.211, -0.055, -0.537, -0.161, -0.004, 0.113, 0
3144819, -0.14, 0.337, -0.479, -0.086, 0.038, 0.087, 0
3144839, -0.077, 0.375, -0.422, 0.04, 0.126, 0.069, 0
3144859, 0.052, 0.178, -0.444, 0.096, 0.097, 0.051, 0
3144879, 0.131, 0.001, -0.66, -0.014, -0.032, 0.067, 0
3144899, 0.044, 0.313, -0.733, -0.125, -0.15, 0.096, 0
3144919, -0.019, 0.723, -1.01, -0.128, -0.122, 0.095, 0
3144939, 0.14, 1.373, -1.214, -0.032, -0.089, 0.047, 0
3144959, 0.079, 1.874, -1.218, 0.049, 0.006, 0.057, 0
3144979, 0.62, 1.957, -0.858, -0.063, 0.03, 0.124, 0
3144999, 0.678, 3.087, -0.122, -0.205, -0.149, 0.208, 0
3145019, 0.414, 4.568, 0.475, -0.253, -0.375, 0.307, 0
3145039, -0.719, 5.356, 0.711, -0.153, -0.453, 0.494, 0
3145059, -0.922, 5.86, 0.926, 0.102, -0.342, 0.75, 0
3145079, -0.019, 5.466, 1.049, 0.347, -0.166, 0.87, 0
3145099, 0.805, 2.883, 0.749, 0.069, -0.413, 0.957, 0
3145119, -1.392, 1.442, 0.635, -0.32, -0.707, 1.425, 0
3145139, -2.838, 0.205, 0.814, -0.287, -0.711, 2.012, 0
3145159, -3.749, -3.862, 0.013, -0.009, 0.259, 2.126, 0
3145179, -4.673, -5.945, -1.141, 0.717, 0.762, 2.089, 0
3145199, -2.79, -8.408, -1.754, 1.042, 0.098, 2.042, 0
3145219, -1.944, -9.443, -2.281, 0.231, -0.857, 1.839, 0
3145239, -1.296, -9.174, -2.835, -0.441, -1.361, 1.511, 0
3145259, -0.576, -8.508, -3.604, -0.522, -1.401, 1.083, 0
3145279, 0.446, -7.273, -3.226, -0.41, -1.122, 0.659, 0
3145299, 0.072, -5.511, -1.688, -0.39, -0.625, 0.268, 0
3145319, -1.379, -3.253, 0.011, -0.345, -0.026, -0.181, 0
3145339, -1.96, -2.08, 0.963, -0.273, 0.133, -0.175, 0
3145359, -1.245, -2.343, 1.251, -0.321, -0.109, 0.091, 0
3145379, -0.441, -2.647, 0.668, -0.35, -0.339, 0.133, 0
3145399, -0.389, -2.276, 0.244, -0.294, -0.215, 0.039, 0
3145419, -0.52, -1.069, 0.332, -0.059, 0.097, -0.106, 0
3145439, -0.993, -0.619, 0.097, 0.108, 0.246, -0.098, 0
3145459, -0.954, -0.254, 0.331, 0.054, 0.331, 0.087, 0
3145479, -0.087, -0.643, 0.593, 0.076, 0.222, 0.27, 0
3145499, 0.317, -1.415, 0.167, 0.055, 0.014, 0.23, 0
3145519, 0.357, -1.527, -0.377, 0.009, -0.109, 0.056, 0
3145539, 0.241, -1.285, -1.003, 0.124, -0.171, -0.315, 0
3145559, -0.57, -1.081, -1.725, 0.207, -0.108, -0.383, 0
3145579, -0.979, -1.054, -1.739, 0.126, 0.053, -0.179, 1
3145599, -0.977, -0.903, -1.515, 0.014, 0.295, -0.034, 1
3145619, -1.295, -0.729, -0.954, 0.0, 0.474, 0.097, 1
3145639, -0.663, -0.705, -0.408, 0.216, 0.641, 0.098, 1
3145659, -0.249, -1.437, -0.464, 0.349, 0.483, 0.046, 1
3145679, -0.52, -1.905, -0.557, 0.395, 0.293, -0.062, 1
3145699, -0.682, -2.317, -0.508, 0.339, 0.216, -0.132, 1
3145719, -0.304, -2.179, -0.423, 0.278, 0.133, -0.301, 1
3145739, -0.562, -2.622, -0.773, 0.176, -0.075, -0.399, 1
3145759, -1.451, -3.492, -0.996, -0.079, -0.128, -0.485, 1
3145779, -1.626, -4.278, -0.97, -0.455, 0.09, -0.604, 1
3145799, -1.339, -3.897, -0.415, -0.714, 0.356, -0.735, 1
3145819, -0.877, -3.109, 0.239, -0.64, 0.478, -0.896, 1
3145839, -0.68, -2.537, 0.704, -0.488, 0.406, -1.007, 1
3145859, -0.59, -2.886, 0.843, -0.586, 0.2, -1.133, 1
3145879, -1.575, -2.009, 0.809, -0.643, 0.328, -1.121, 1
3145899, -1.825, -0.761, 0.73, -0.525, 0.776, -0.943, 1
3145919, -0.467, 0.511, 1.242, -0.513, 1.07, -0.86, 1
3145939, 0.396, 1.169, 1.891, -0.62, 0.895, -0.775, 1
3145959, 0.719, 2.052, 1.965, -0.544, 0.438, -0.665, 1
3145979, 0.741, 2.541, 1.811, -0.469, 0.047, -0.521, 1
3145999, 0.845, 3.378, 1.731, -0.357, 0.025, -0.431, 1
3146019, 0.68, 3.757, 1.575, -0.086, 0.208, -0.366, 1
3146039, 0.57, 3.549, 0.987, 0.246, 0.185, -0.361, 1
3146059, 0.608, 2.261, -0.006, 0.307, -0.036, -0.309, 1
3146079, 0.413, 1.205, -0.612, 0.081, -0.103, -0.241, 1
3146099, 0.678, 1.098, -0.528, -0.141, 0.097, -0.169, 1
3146119, 0.873, 1.335, -0.306, 0.026, 0.1, -0.31, 1
3146139, -0.863, 1.604, -0.873, 0.297, 0.069, -0.338, 1
3146159, -0.935, 1.159, -0.884, 0.338, 0.184, -0.265, 1
3146179, -0.573, 0.914, -0.622, 0.093, 0.23, -0.122, 1
3146199, -0.448, 0.315, -0.839, -0.171, 0.166, -0.009, 1
3146219, -0.667, 0.221, -1.007, -0.383, 0.076, 0.094, 1
3146239, -0.152, -0.037, -0.72, -0.398, -0.003, 0.167, 1
3146259, 0.144, -0.29, -0.548, -0.301, -0.241, 0.127, 1
3146279, -0.139, -0.732, -1.081, -0.215, -0.459, 0.056, 1
3146299, -0.655, -0.729, -1.731, -0.268, -0.362, 0.062, 1
3146319, -0.92, -0.58, -1.824, -0.39, -0.042, 0.134, 1
3146339, -0.429, -0.169, -1.145, -0.4, 0.186, 0.19, 1
3146359, 0.146, -0.257, -0.604, -0.28, 0.218, 0.17, 1
3146379, 0.269, -0.432, -0.334, -0.209, 0.103, 0.103, 1
3146399, 0.146, -0.519, -0.063, -0.234, 0.028, 0.078, 1
3146419, 0.219, -0.267, 0.197, -0.207, -0.011, 0.07, 1
3146439, 0.046, -0.112, 0.282, -0.015, -0.021, -0.008, 0
3146459, -0.069, 0.168, 0.486, 0.221, 0.032, -0.069, 0
3146479, -0.014, -0.046, 0.418, 0.53, 0.011, -0.142, 0
3146499, 0.071, -0.582, 0.002, 0.608, -0.079, -0.131, 0
3146519, 0.76, -0.784, -1.014, 0.365, -0.158, -0.039, 0
3146539, -0.153, -0.006, -1.223, 0.072, -0.113, -0.001, 0
3146559, -0.827, 0.611, -1.622, -0.103, 0.069, 0.046, 0
3146579, -0.294, 0.986, -1.253, -0.153, 0.385, 0.121, 0
3146599, 0.12, 1.095, -1.048, -0.028, 0.381, 0.017, 0
3146619, 0.288, 1.534, -0.769, 0.205, 0.339, -0.032, 0
3146639, 0.445, 2.003, -0.405, 0.304, 0.338, -0.029, 0
3146659, 0.618, 2.584, -0.059, 0.315, 0.288, 0.03, 0
3146679, 0.799, 3.024, 0.126, 0.219, 0.062, 0.095, 0
3146699, 0.562, 3.471, 0.068, 0.136, -0.313, 0.181, 0
3146719, 0.199, 4.002, -0.184, 0.1, -0.552, 0.357, 0
3146739, 0.532, 4.77, -0.369, 0.086, -0.652, 0.572, 0
3146759, 0.776, 5.152, -0.561, -0.005, -0.716, 0.834, 0
3146779, 0.935, 4.921, -0.375, -0.087, -0.842, 1.076, 0
3146799, 0.354, 3.525, 0.066, -0.051, -1.021, 1.111, 0
3146819, -2.998, 0.758, 0.258, 0.204, -0.971, 1.166, 0
3146839, -5.43, -1.826, 0.416, 0.585, -0.488, 1.436, 0
3146859, -5.487, -4.82, 0.745, 0.736, 0.141, 1.754, 0
3146879, -4.59, -7.862, 0.766, 0.553, 0.466, 1.77, 0
3146899, -3.208, -9.563, 0.258, 0.39, 0.003, 1.52, 0
3146919, -2.012, -10.279, -0.501, 0.186, -0.543, 1.346, 0
3146939, -1.017, -9.419, -0.829, 0.052, -0.519, 1.313, 0
3146959, 0.968, -7.309, -0.979, -0.084, -0.298, 0.8, 0
3146979, 0.853, -6.463, -2.367, -0.328, -0.337, 0.267, 0
3146999, -1.547, -4.124, -1.758, -0.56, -0.067, 0.13, 0
3147019, -2.449, -1.804, 0.264, -0.361, 0.45, 0.34, 0
3147039, -1.861, -1.606, 1.766, -0.166, 0.526, 0.514, 0
3147059, 0.034, -2.3, 1.964, -0.194, -0.156, 0.401, 0
3147079, 0.649, -2.988, 0.943, -0.51, -0.892, 0.131, 0
3147099, -0.466, -2.171, -0.055, -0.58, -0.587, 0.038, 0
3147119, -1.848, -0.06, 0.513, -0.172, 0.103, 0.147, 0
3147139, -0.953, -0.51, 0.944, 0.24, 0.496, 0.314, 0
3147159, 0.226, -1.451, 0.813, 0.345, 0.451, 0.381, 0
3147179, 0.807, -2.108, 0.258, 0.141, 0.074, 0.255, 0
3147199, 0.385, -1.959, -0.581, -0.128, -0.28, 0.036, 0
3147219, -0.644, -1.432, -1.323, -0.323, -0.382, -0.084, 0
3147239, -1.124, -0.838, -1.227, -0.34, -0.195, -0.068, 0
3147259, -1.05, -0.906, -1.038, -0.229, 0.089, 0.048, 0
3147279, -0.825, -1.451, -1.069, -0.184, 0.34, 0.162, 1
3147299, -0.098, -1.932, -1.171, -0.249, 0.525, 0.166, 1
3147319, 0.017, -2.422, -1.406, -0.342, 0.478, -0.078, 1
3147339, -0.117, -2.308, -1.631, -0.353, 0.247, -0.384, 1
3147359, -0.502, -2.322, -1.614, -0.451, 0.072, -0.536, 1
3147379, -0.903, -2.505, -1.384, -0.5, 0.002, -0.542, 1
3147399, -0.828, -3.061, -1.042, -0.413, 0.086, -0.474, 1
3147419, -0.854, -2.615, -0.513, -0.395, 0.307, -0.607, 1
3147439, -1.044, -2.391, -0.237, -0.312, 0.408, -0.728, 1
3147459, -1.451, -2.917, -0.223, -0.27, 0.276, -0.723, 1
3147479, -2.109, -3.63, -0.124, -0.307, 0.175, -0.704, 1
3147499, -1.422, -3.253, 0.519, -0.433, 0.284, -0.678, 1
3147519, -0.332, -2.401, 0.992, -0.544, 0.358, -0.835, 1
3147539, -0.452, -1.847, 0.854, -0.394, 0.222, -1.031, 1
3147559, -1.845, -1.435, 0.688, -0.204, 0.153, -1.112, 1
3147579, -1.656, -0.943, 1.009, -0.189, 0.445, -0.957, 1
3147599, 0.2, -1.267, 1.467, -0.415, 0.767, -1.017, 1
3147619, 1.072, -0.274, 2.112, -0.466, 0.585, -1.174, 1
3147639, 0.03, 0.721, 1.849, -0.131, 0.32, -1.235, 1
3147659, -1.505, 1.765, 1.251, 0.293, 0.249, -1.114, 1
3147679, -0.981, 2.777, 1.349, 0.363, 0.442, -0.924, 1
3147699, -0.331, 3.241, 1.495, 0.385, 0.633, -0.758, 1
3147719, 0.312, 2.378, 0.603, 0.432, 0.357, -0.681, 1
3147739, -0.906, 2.952, -0.41, 0.439, 0.034, -0.563, 1
3147759, -1.468, 3.28, -0.749, 0.411, 0.179, -0.348, 1
3147779, -0.667, 2.405, -0.822, 0.301, 0.383, -0.168, 1
3147799, 0.231, 0.431, -1.562, 0.013, 0.174, -0.034, 1
3147819, -0.11, 0.445, -2.221, -0.229, -0.141, -0.001, 1
3147839, -1.29, 1.318, -2.476, -0.238, 0.011, 0.034, 1
3147859, -1.84, 1.564, -2.258, -0.125, 0.594, 0.116, 1
3147879, -1.282, 1.098, -1.563, -0.083, 1.09, 0.202, 1
3147899, -0.089, 0.215, -0.795, -0.216, 1.04, 0.232, 1
3147919, 0.417, -0.089, -0.101, -0.296, 0.645, 0.193, 1
3147939, 0.163, -0.082, 0.2, -0.256, 0.233, 0.135, 1
3147959, -0.369, 0.0, 0.335, -0.145, 0.048, 0.09, 1
3147979, -0.758, -0.235, 0.142, -0.133, 0.042, 0.094, 1
3147999, -0.882, -0.251, -0.006, -0.178, 0.188, 0.112, 1
3148019, -1.002, -0.082, -0.142, -0.187, 0.317, 0.178, 1
3148039, -0.499, -0.234, -0.058, -0.094, 0.224, 0.213, 1
3148059, -0.016, -0.584, -0.077, -0.062, -0.081, 0.236, 1
3148079, -0.057, -1.014, -0.305, -0.3, -0.106, 0.289, 1
3148099, 0.056, -0.817, -0.224, -0.291, 0.096, 0.284, 1
3148119, 0.091, -0.527, -0.208, -0.1, -0.036, 0.172, 0
3148139, 0.121, -0.71, -0.371, -0.008, -0.17, 0.077, 0
3148159, 0.545, -0.745, -0.445, -0.133, -0.31, 0.159, 0
3148179, -0.368, -0.161, -0.485, -0.369, -0.326, 0.21, 0
3148199, -0.221, 0.049, -0.289, -0.397, -0.104, 0.255, 0
3148219, -0.064, -0.246, -0.356, -0.204, -0.107, 0.209, 0
3148239, -0.13, -0.378, -0.673, -0.079, -0.032, 0.122, 0
3148259, 0.048, -0.348, -0.715, -0.057, 0.085, 0.117, 0
3148279, -0.029, -0.116, -0.71, -0.059, 0.095, 0.1, 0
3148299, -0.115, 0.255, -0.788, -0.089, 0.158, 0.103, 0
3148319, 0.147, 0.559, -0.651, -0.091, 0.161, 0.116, 0
3148339, 0.06, 1.088, -0.699, -0.091, 0.016, 0.103, 0
3148359, 0.042, 1.711, -0.924, -0.127, -0.03, 0.13, 0
3148379, 0.159, 2.458, -0.848, -0.158, -0.008, 0.169, 0
3148399, 0.258, 2.979, -0.584, -0.122, 0.011, 0.207, 0
3148419, 0.286, 3.407, -0.505, -0.112, -0.098, 0.253, 0
3148439, -0.16, 3.872, -0.722, -0.196, -0.325, 0.357, 0
3148459, -1.007, 4.152, -0.744, -0.272, -0.538, 0.511, 0
3148479, -1.331, 3.8, -0.528, -0.206, -0.497, 0.714, 0
3148499, -0.68, 3.536, -0.093, -0.09, -0.337, 0.904, 0
3148519, -0.755, 3.057, 0.499, 0.07, -0.299, 0.937, 0
3148539, -0.419, 1.537, 1.015, 0.244, -0.274, 0.997, 0
3148559, -0.745, 0.369, 0.957, 0.203, -0.318, 1.171, 0
3148579, -2.127, -1.011, 0.378, 0.153, -0.243, 1.467, 0
3148599, -1.825, -1.869, 0.561, 0.272, -0.533, 1.403, 0
3148619, -2.611, -3.349, 0.263, 0.227, -0.802, 1.324, 0
3148639, -3.708, -5.015, -0.081, 0.036, -0.607, 1.178, 0
3148659, -4.49, -5.908, -0.358, 0.098, -0.209, 1.218, 0
3148679, -3.545, -7.049, -0.731, 0.553, -0.383, 1.756, 0
3148699, -1.152, -8.839, -1.413, 0.663, -0.788, 2.012, 0
3148719, 1.599, -9.773, -2.516, 0.388, -0.992, 1.498, 0
3148739, 4.086, -9.68, -4.266, -0.051, -1.299, 0.743, 0
3148759, 2.042, -7.471, -4.417, -0.612, -0.799, 0.011, 0
3148779, -2.036, -3.202, -1.569, -0.653, 0.495, 0.035, 0
3148799, -2.018, -1.452, 1.922, -0.191, 0.998, 0.237, 0
3148819, -0.155, -2.32, 2.859, -0.113, 0.375, 0.229, 0
3148839, 0.586, -2.927, 2.045, -0.383, -0.355, 0.047, 0
3148859, -0.292, -2.052, 1.017, -0.529, -0.379, -0.073, 0
3148879, -1.078, -0.957, 0.556, -0.389, -0.042, -0.06, 0
3148899, -1.248, -0.304, 0.473, -0.12, 0.21, 0.043, 0
3148919, -0.957, -0.435, 0.477, -0.028, 0.315, 0.164, 0
3148939, -0.032, -0.755, 0.427, -0.041, 0.198, 0.154, 0
3148959, 0.172, -1.027, 0.236, -0.107, -0.023, 0.021, 0
3148979, -0.023, -0.728, -0.337, -0.1, -0.117, -0.057, 0
3148999, -0.344, -0.779, -0.992, -0.114, -0.125, -0.04, 0
3149019, -0.678, -0.706, -1.033, -0.146, 0.026, 0.022, 0
3149039, -0.533, -0.582, -0.766, -0.086, 0.167, 0.05, 1
3149059, -0.577, -0.86, -0.673, -0.059, 0.344, 0.07, 1
3149079, -0.122, -1.298, -0.737, -0.119, 0.436, 0.062, 1
3149099, 0.263, -1.466, -0.676, -0.141, 0.425, -0.053, 1
3149119, 0.255, -1.445, -0.693, -0.12, 0.284, -0.249, 1
3149139, -0.146, -1.775, -0.973, -0.07, 0.167, -0.395, 1
3149159, -0.581, -1.763, -1.077, -0.064, 0.232, -0.445, 1
3149179, -0.525, -1.937, -0.762, -0.114, 0.455, -0.44, 1
3149199, -0.344, -2.283, -0.584, -0.095, 0.554, -0.546, 1
3149219, -0.446, -2.187, -0.366, -0.037, 0.518, -0.609, 1
3149239, -0.127, -2.282, -0.255, -0.008, 0.418, -0.631, 1
3149259, -0.32, -2.982, -0.468, -0.039, 0.147, -0.628, 1
3149279, -0.981, -3.336, -0.477, -0.113, -0.047, -0.656, 1
3149299, -0.635, -3.735, -0.256, -0.257, 0.006, -0.583, 1
3149319, -0.289, -3.553, -0.061, -0.404, 0.128, -0.594, 1
3149339, -0.426, -3.265, -0.026, -0.515, 0.146, -0.547, 1
3149359, -1.196, -2.503, 0.224, -0.716, 0.226, -0.634, 1
3149379, -1.503, -1.342, 0.855, -0.905, 0.436, -0.681, 1
3149399, -0.447, -0.267, 1.783, -0.967, 0.58, -0.681, 1
3149419, -0.334, 0.263, 2.186, -0.831, 0.519, -0.796, 1
3149439, -0.882, 0.973, 2.293, -0.596, 0.581, -0.813, 1
3149459, 0.389, 1.692, 2.715, -0.443, 0.724, -0.742, 1
3149479, 1.176, 1.981, 2.683, -0.305, 0.58, -0.736, 1
3149499, 0.545, 3.133, 2.147, -0.079, 0.204, -0.763, 1
3149519, -0.162, 3.33, 1.345, 0.213, -0.024, -0.657, 1
3149539, -0.067, 2.292, 0.397, 0.231, -0.169, -0.491, 1
3149559, -0.398, 1.42, -0.436, 0.005, -0.128, -0.32, 1
3149579, -0.979, 2.386, -0.536, -0.007, 0.15, -0.22, 1
3149599, -0.503, 3.005, -0.36, 0.21, 0.302, -0.147, 1
3149619, -0.161, 2.383, -0.468, 0.401, 0.288, -0.111, 1
3149639, -0.063, 1.389, -0.951, 0.37, 0.224, -0.078, 1
3149659, -0.089, 0.411, -1.429, 0.135, 0.164, 0.019, 1
3149679, -0.166, 0.142, -1.457, -0.106, 0.149, 0.103, 1
3149699, -0.371, 0.444, -1.296, -0.219, 0.246, 0.141, 1
3149719, -0.31, 0.537, -1.124, -0.273, 0.369, 0.196, 1
3149739, 0.166, 0.523, -0.567, -0.214, 0.37, 0.196, 1
3149759, 0.176, 0.195, -0.57, -0.182, 0.236, 0.127, 1
3149779, -0.197, 0.092, -0.692, -0.233, 0.16, 0.081, 1
3149799, -0.45, -0.381, -1.049, -0.378, 0.177, 0.119, 1
3149819, -0.164, -0.835, -1.203, -0.45, 0.118, 0.133, 1
3149839, 0.318, -1.022, -1.144, -0.379, -0.032, -0.029, 1
3149859, -0.161, -0.568, -1.142, -0.183, 0.117, -0.081, 1
3149879, -0.404, -0.423, -1.049, -0.067, 0.451, -0.035, 1
3149899, 0.309, -0.783, -0.733, -0.074, 0.394, 0.045, 1
3149919, 1.049, -0.94, -0.445, -0.17, -0.057, -0.002, 1
3149939, 0.335, -0.789, -0.303, -0.191, -0.298, -0.012, 0
3149959, -0.232, -0.249, -0.149, -0.095, -0.207, 0.009, 0
3149979, -0.124, -0.135, 0.029, 0.065, -0.058, -0.008, 0
3149999, -0.343, -0.187, -0.136, 0.227, 0.209, 0.001, 0
3150019, 0.192, -0.465, -0.254, 0.216, 0.241, -0.002, 0
3150039, 0.378, -0.766, -0.448, -0.137, -0.062, 0.044, 0
3150059, 0.036, -0.033, -0.208, -0.21, -0.149, 0.052, 0
3150079, -0.443, 0.119, -0.511, -0.088, -0.021, 0.027, 0
3150099, 0.011, 0.257, -0.294, -0.017, 0.181, 0.04, 0
3150119, 0.306, 0.4, -0.206, 0.055, 0.176, 0.007, 0
3150139, 0.298, 0.574, -0.391, 0.117, 0.102, -0.062, 0
3150159, 0.19, 0.825, -0.871, 0.11, 0.053, -0.08, 0
3150179, 0.101, 1.138, -1.463, 0.021, -0.037, -0.07, 0
3150199, 0.178, 1.411, -1.865, -0.097, -0.122, -0.031, 0
3150219, 0.15, 2.121, -1.657, -0.189, -0.058, 0.024, 0
3150239, 0.072, 2.997, -1.096, -0.163, 0.047, 0.037, 0
3150259, -0.322, 3.946, -0.727, -0.1, 0.147, 0.071, 0
3150279, -0.623, 4.368, -0.311, -0.006, 0.109, 0.251, 0
3150299, -0.142, 4.336, 0.257, -0.105, -0.139, 0.525, 0
3150319, 0.694, 4.098, 0.915, -0.414, -0.496, 0.77, 0
3150339, 1.245, 3.843, 1.131, -0.703, -0.846, 0.831, 0
3150359, -0.916, 2.83, 0.808, -0.795, -0.96, 0.587, 0
3150379, -3.013, 2.056, 0.821, -0.538, -0.593, 0.342, 0
3150399, -3.636, -0.032, 0.691, -0.048, -0.196, 0.525, 0
3150419, -3.249, -3.312, -0.071, -0.048, -0.029, 0.882, 0
3150439, -3.383, -4.97, -0.415, -0.58, -0.088, 1.004, 0
3150459, -4.503, -5.738, 0.014, -0.671, -0.07, 0.935, 0
3150479, -3.711, -7.008, 0.064, 0.11, -0.036, 0.96, 0
3150499, -1.573, -8.794, -0.793, 1.014, 0.183, 1.152, 0
3150519, 1.577, -10.039, -2.931, 0.827, -0.454, 1.995, 0
3150539, 4.569, -10.246, -4.254, -0.295, -1.517, 1.456, 0
3150559, 4.126, -6.958, -4.086, -0.755, -1.691, 0.246, 0
3150579, -0.94, -3.979, -2.619, -0.353, -0.349, -0.293, 0
3150599, -3.221, -2.299, 0.018, 0.339, 1.13, -0.113, 0
3150619, -0.616, -2.926, 1.15, 0.425, 0.948, 0.298, 0
3150639, 0.787, -4.2, 1.231, -0.236, -0.175, 0.284, 0
3150659, 0.039, -3.05, 1.321, -0.456, -0.62, 0.071, 0
3150679, -0.505, -1.696, 0.631, -0.037, -0.415, -0.12, 0
3150699, -0.933, -1.754, -0.437, 0.192, 0.034, -0.209, 0
3150719, -1.3, -1.065, -0.218, 0.229, 0.452, -0.028, 0
3150739, -1.01, -0.852, 0.012, 0.136, 0.552, 0.263, 0
3150759, 0.319, -1.578, -0.267, -0.119, 0.208, 0.259, 0
3150779, 0.853, -1.745, -0.398, -0.26, -0.178, 0.073, 0
3150799, 0.512, -1.573, -0.766, -0.194, -0.326, -0.156, 0
3150819, -0.659, -1.125, -1.062, -0.091, -0.173, -0.258, 1
3150839, -1.32, -0.35, -1.067, 0.029, 0.103, -0.072, 1
3150859, -1.185, -0.639, -0.84, 0.099, 0.296, 0.133, 1
3150879, -0.738, -0.929, -0.492, 0.105, 0.437, 0.204, 1
3150899, 0.275, -1.441, -0.472, 0.187, 0.368, -0.01, 1
3150919, 0.694, -2.19, -0.834, 0.179, 0.048, -0.325, 1
3150939, 0.035, -1.988, -0.81, 0.222, -0.13, -0.596, 1
3150959, -0.758, -1.794, -0.752, 0.365, -0.03, -0.682, 1
3150979, -0.993, -2.0, -0.67, 0.525, 0.166, -0.618, 1
3150999, -0.896, -1.535, -0.363, 0.601, 0.267, -0.537, 1
3151019, 0.372, -2.158, -0.567, 0.353, -0.167, -0.527, 1
3151039, -0.02, -4.237, -0.708, -0.026, -0.758, -0.459, 1
3151059, -0.392, -3.878, -0.666, -0.264, -0.97, -0.492, 1
3151079, -0.966, -3.101, -0.599, -0.27, -0.822, -0.449, 1
3151099, -1.239, -3.45, -0.742, -0.101, -0.472, -0.316, 1
3151119, -1.861, -3.681, -0.539, -0.084, -0.05, -0.284, 1
3151139, -1.136, -3.586, -0.198, -0.265, 0.437, -0.348, 1
3151159, 0.342, -3.225, 0.306, -0.479, 0.689, -0.383, 1
3151179, 0.453, -1.917, 0.926, -0.743, 0.684, -0.613, 1
3151199, -0.658, -0.213, 1.249, -0.74, 0.722, -0.784, 1
3151219, -0.146, 0.18, 1.407, -0.579, 0.766, -0.57, 1
3151239, 0.718, 1.043, 1.646, -0.695, 0.65, -0.513, 1
3151259, -0.041, 2.632, 1.727, -0.775, 0.48, -0.58, 1
3151279, -1.39, 3.665, 1.294, -0.438, 0.409, -0.597, 1
3151299, -0.509, 3.78, 1.083, -0.084, 0.469, -0.359, 1
3151319, 0.468, 3.066, 0.957, -0.108, 0.441, -0.232, 1
3151339, 0.149, 3.18, 0.728, -0.188, 0.328, -0.18, 1
3151359, -0.729, 2.861, 0.105, -0.042, 0.263, -0.114, 1
3151379, -0.781, 2.011, -0.175, 0.102, 0.32, 0.0, 1
3151399, 0.685, 0.932, -0.174, 0.076, 0.351, 0.112, 1
3151419, 0.997, 0.231, -0.364, -0.08, 0.146, 0.081, 1
3151439, 0.097, 0.239, -0.854, -0.144, -0.166, -0.026, 1
3151459, -1.215, 0.784, -1.222, -0.079, -0.363, -0.095, 1
3151479, -2.054, 1.097, -1.463, 0.091, -0.23, -0.086, 1
3151499, -1.614, 0.845, -1.226, 0.109, 0.278, 0.091, 1
3151519, -0.942, 0.261, -0.948, -0.098, 0.529, 0.236, 1
3151539, -0.405, 0.061, -0.588, -0.283, 0.472, 0.413, 1
3151559, -0.027, -0.271, -0.469, -0.468, 0.088, 0.424, 1
3151579, -0.208, -0.727, -0.781, -0.513, -0.118, 0.39, 1
3151599, -0.301, -1.195, -1.05, -0.588, 0.042, 0.355, 1
3151619, -0.116, -1.225, -1.012, -0.664, 0.28, 0.328, 1
3151639, 0.21, -0.955, -0.686, -0.56, 0.351, 0.309, 1
3151659, 0.745, -0.846, -0.354, -0.4, 0.093, 0.204, 1
3151679, 0.293, -0.625, -0.298, -0.224, -0.057, 0.158, 1
3151699, -0.079, -0.809, -0.473, -0.21, 0.003, 0.112, 1
3151719, -0.168, -0.824, -0.496, -0.246, 0.178, 0.133, 1
3151739, -0.001, -0.703, -0.435, -0.308, 0.199, 0.155, 0
3151759, 0.17, -0.49, -0.413, -0.271, 0.081, 0.1, 0
3151779, 0.298, -0.127, -0.23, -0.06, -0.083, 0.032, 0
3151799, 0.05, -0.07, -0.043, 0.12, -0.205, -0.012, 0
3151819, -0.312, -0.169, -0.289, 0.133, -0.078, 0.04, 0
3151839, -0.044, 0.081, -0.116, 0.211, -0.022, 0.032, 0
3151859, 0.273, 0.121, 0.031, 0.326, -0.198, -0.033, 0
3151879, -0.039, 0.176, -0.276, 0.25, -0.224, -0.017, 0
3151899, -0.114, 0.552, -0.364, 0.167, -0.114, 0.009, 0
3151919, -0.27, 0.789, -0.473, 0.145, 0.07, 0.031, 0
3151939, 0.188, 1.209, -0.217, 0.264, 0.106, -0.01, 0
3151959, 0.469, 1.33, -0.234, 0.265, -0.007, -0.017, 0
3151979, 0.305, 1.619, -0.351, 0.07, -0.107, 0.084, 0
3151999, 0.613, 2.443, -0.334, -0.029, -0.216, 0.154, 0
3152019, 0.417, 2.952, -0.324, 0.015, -0.304, 0.145, 0
3152039, -0.735, 3.529, -0.777, 0.098, -0.357, 0.187, 0
3152059, -1.711, 3.745, -1.462, 0.123, -0.342, 0.389, 0
3152079, -1.285, 3.376, -1.038, -0.115, -0.185, 0.731, 0
3152099, 0.834, 2.817, 0.773, -0.406, -0.116, 0.994, 0
3152119, 1.341, 1.872, 1.944, -0.357, -0.459, 0.885, 0
3152139, -0.335, 0.828, 1.894, -0.136, -0.732, 0.66, 0
3152159, -1.467, -0.019, 1.537, 0.138, -0.655, 0.618, 0
3152179, -3.702, -1.568, 0.367, 0.444, -0.423, 0.78, 0
3152199, -3.993, -3.049, -0.365, 0.45, -0.151, 1.021, 0
3152219, -4.279, -5.055, -1.139, 0.414, -0.285, 0.883, 0
3152239, -4.863, -7.29, -1.913, 0.129, -0.293, 0.859, 0
3152259, -3.485, -8.157, -1.936, 0.063, -0.217, 1.255, 0
3152279, -0.894, -8.574, -2.181, 0.229, -0.362, 1.745, 0
3152299, 2.136, -9.341, -2.855, 0.146, -0.777, 1.785, 0
3152319, 2.923, -8.329, -2.923, -0.182, -1.208, 1.046, 0
3152339, -0.13, -5.125, -1.567, -0.301, -0.886, 0.092, 0
3152359, -2.297, -2.759, 0.0, 0.019, 0.058, -0.163, 0
3152379, -1.225, -2.819, 0.666, 0.255, 0.437, 0.131, 0
3152399, 0.568, -4.031, 0.822, -0.051, -0.084, 0.279, 0
3152419, 0.575, -3.4, 0.487, -0.524, -0.741, 0.053, 0
3152439, -1.101, -1.737, 0.309, -0.681, -0.857, -0.068, 0
3152459, -1.852, -0.325, 0.311, -0.48, -0.447, 0.138, 0
3152479, -1.727, -0.214, 0.198, -0.179, 0.016, 0.469, 0
3152499, -0.885, -0.639, -0.195, -0.217, 0.108, 0.562, 0
3152519, -0.292, -1.388, -0.426, -0.315, 0.093, 0.514, 0
3152539, 0.582, -1.8, -0.342, -0.3, -0.073, 0.299, 0
3152559, 0.36, -1.823, -0.415, -0.245, -0.251, 0.003, 0
3152579, -0.09, -1.204, -0.779, -0.185, -0.228, -0.172, 0
3152599, -0.973, -1.253, -1.461, -0.194, -0.034, -0.087, 1
3152619, -1.333, -0.847, -1.452, -0.165, 0.35, 0.103, 1
3152639, -0.798, -0.883, -1.409, -0.084, 0.668, 0.164, 1
3152659, -0.752, -1.556, -1.19, 0.044, 0.812, 0.02, 1
3152679, -0.401, -2.085, -1.175, 0.102, 0.747, -0.228, 1
3152699, -0.786, -2.173, -1.011, 0.059, 0.619, -0.301, 1
3152719, -0.945, -2.453, -0.93, -0.007, 0.55, -0.185, 1
3152739, -0.967, -2.721, -0.806, -0.094, 0.484, -0.138, 1
3152759, -1.077, -3.223, -0.614, -0.094, 0.545, -0.415, 1
3152779, -1.126, -3.326, -0.587, -0.06, 0.62, -0.563, 1
3152799, -1.21, -3.075, -0.164, 0.06, 0.737, -0.667, 1
3152819, -0.99, -2.973, -0.026, 0.097, 0.671, -0.714, 1
3152839, -0.856, -3.217, 0.104, -0.064, 0.45, -0.811, 1
3152859, -0.809, -3.04, 0.465, -0.424, 0.315, -0.917, 1
3152879, -0.496, -2.905, 0.851, -0.758, 0.329, -0.91, 1
3152899, -0.323, -2.652, 1.404, -0.961, 0.497, -0.966, 1
3152919, 0.211, -1.879, 2.22, -0.936, 0.587, -1.061, 1
3152939, 0.595, -0.945, 2.708, -0.645, 0.419, -1.238, 1
3152959, 0.574, 0.393, 2.57, -0.068, -0.265, -1.404, 1
3152979, -1.316, 2.073, 0.922, 0.075, -0.492, -1.291, 1
3152999, -1.647, 2.711, 0.568, -0.064, -0.354, -1.042, 1
3153019, -1.244, 2.937, 0.456, -0.1, 0.004, -0.797, 1
3153039, -0.977, 3.341, 0.456, -0.036, 0.227, -0.649, 1
3153059, -1.154, 3.321, 0.326, 0.106, 0.329, -0.52, 1
3153079, -0.966, 3.146, 0.096, 0.235, 0.357, -0.333, 1
3153099, -0.588, 2.777, -0.369, 0.267, 0.295, -0.125, 1
3153119, -0.4, 1.91, -0.676, 0.135, 0.181, 0.0, 1
3153139, -0.279, 0.798, -0.993, -0.025, 0.135, 0.105, 1
3153159, -0.27, 0.302, -1.067, -0.108, 0.174, 0.181, 1
3153179, -0.314, 0.117, -1.182, -0.045, 0.275, 0.194, 1
3153199, -0.407, -0.07, -1.294, -0.062, 0.543, 0.177, 1
3153219, -0.272, 0.197, -0.864, -0.158, 0.831, 0.212, 1
3153239, -0.106, 0.274, -0.497, -0.039, 0.918, 0.245, 1
3153259, -0.144, 0.038, -0.55, 0.051, 0.81, 0.238, 1
3153279, -0.261, -0.375, -0.82, -0.008, 0.74, 0.259, 1
3153299, -0.259, -0.505, -0.719, -0.178, 0.714, 0.317, 1
3153319, -0.085, -0.007, -0.385, -0.236, 0.629, 0.328, 1
3153339, -0.024, -0.134, -0.294, -0.133, 0.415, 0.254, 1
3153359, -0.155, 0.037, -0.216, -0.045, 0.265, 0.182, 1
3153379, -0.087, -0.23, -0.153, -0.005, 0.277, 0.175, 1
3153399, -0.017, -0.214, -0.064, -0.06, 0.213, 0.167, 1
3153419, -0.179, -0.345, -0.232, -0.16, 0.134, 0.185, 1
3153439, -0.158, -0.251, -0.167, -0.228, 0.089, 0.188, 1
3153459, -0.05, -0.145, -0.009, -0.108, 0.017, 0.157, 1
3153479, 0.021, -0.3, -0.045, -0.101, -0.018, 0.107, 1
3153499, -0.032, -0.267, -0.062, -0.13, -0.005, 0.098, 0
3153519, -0.288, -0.287, -0.21, -0.17, -0.005, 0.118, 0
3153539, 0.063, -0.16, -0.315, -0.152, -0.136, 0.091, 0
3153559, -0.106, -0.127, -0.486, -0.103, -0.169, 0.05, 0
3153579, -0.112, 0.144, -0.38, -0.046, -0.084, 0.028, 0
3153599, -0.029, 0.116, -0.385, -0.046, 0.011, 0.034, 0
3153619, -0.2, 0.103, -0.602, -0.114, 0.167, 0.091, 0
3153639, 0.054, 0.137, -0.471, -0.142, 0.172, 0.116, 0
3153659, -0.003, 0.131, -0.407, -0.118, 0.128, 0.097, 0
3153679, 0.2, 0.238, -0.164, -0.021, 0.026, 0.054, 0
3153699, 0.125, 0.281, -0.093, 0.078, -0.064, 0.012, 0
3153719, -0.037, 0.367, -0.243, 0.106, -0.061, 0.018, 0
3153739, -0.178, 0.554, -0.547, 0.069, -0.072, 0.051, 0
3153759, -0.12, 0.846, -0.906, 0.033, -0.075, 0.092, 0
3153779, 0.208, 1.214, -1.214, -0.014, -0.056, 0.137, 0
3153799, 0.361, 1.917, -1.267, -0.023, -0.085, 0.154, 0
3153819, 0.039, 3.062, -1.049, 0.066, -0.054, 0.199, 0
3153839, 0.084, 3.998, -0.714, 0.188, -0.067, 0.287, 0
3153859, 0.106, 4.536, -0.476, 0.187, -0.155, 0.434, 0
3153879, 0.455, 4.875, -0.381, 0.044, -0.373, 0.621, 0
