timestamp, accX, accY, accZ, gyroX, gyroY, gyroZ, button
1970998, 0.007, -0.021, -0.114, -0.098, 0.014, 0.072, 1
1971018, 0.028, -0.058, -0.168, -0.089, 0.061, 0.068, 1
1971038, 0.065, -0.075, -0.158, -0.126, 0.108, 0.069, 1
1971058, 0.098, 0.017, -0.119, -0.133, 0.112, 0.063, 1
1971078, 0.032, -0.014, -0.153, -0.136, 0.075, 0.064, 1
1971098, 0.017, 0.013, -0.162, -0.142, 0.055, 0.072, 1
1971118, -0.011, 0.023, -0.205, -0.128, 0.042, 0.076, 1
1971138, 0.091, -0.041, -0.118, -0.042, 0.058, 0.051, 1
1971158, 0.042, -0.115, -0.232, -0.084, 0.095, 0.051, 1
1971178, 0.126, -0.07, -0.157, -0.096, 0.094, 0.045, 1
1971198, 0.041, -0.009, -0.185, -0.078, 0.081, 0.047, 1
1971218, -0.077, -0.032, -0.247, -0.047, 0.123, 0.042, 1
1971238, 0.12, -0.007, -0.193, -0.059, 0.086, 0.039, 1
1971258, 0.043, -0.05, -0.226, -0.05, 0.059, -0.002, 1
1971278, 0.026, -0.038, -0.318, -0.066, 0.007, -0.017, 1
1971298, 0.006, -0.052, -0.416, -0.076, -0.014, -0.026, 1
1971318, -0.225, -0.096, -0.504, -0.102, 0.039, -0.023, 1
1971338, -0.261, -0.046, -0.466, -0.113, 0.105, -0.003, 1
1971358, -0.152, -0.064, -0.341, -0.11, 0.09, 0.0, 1
1971378, -0.087, -0.11, -0.178, -0.139, 0.047, 0.019, 1
1971398, -0.076, -0.061, -0.092, -0.127, 0.036, 0.026, 1
1971418, -0.139, -0.168, -0.126, -0.15, 0.042, 0.046, 1
1971438, -0.046, -0.108, -0.025, -0.141, 0.044, 0.042, 1
1971458, -0.015, -0.037, 0.053, -0.095, 0.034, 0.032, 1
1971478, -0.002, -0.108, 0.119, -0.116, 0.01, 0.034, 1
1971498, 0.018, -0.05, 0.096, -0.115, -0.024, 0.03, 1
1971518, -0.083, 0.011, 0.066, -0.101, -0.028, 0.036, 1
1971538, -0.003, -0.015, 0.098, -0.062, -0.035, 0.034, 1
1971558, 0.004, 0.002, 0.033, -0.036, -0.038, 0.045, 1
1971578, 0.008, -0.031, -0.023, -0.056, -0.035, 0.075, 1
1971598, 0.049, -0.057, -0.124, -0.114, -0.041, 0.091, 1
1971618, 0.065, -0.03, -0.108, -0.187, -0.051, 0.136, 1
1971638, 0.044, -0.06, -0.111, -0.28, -0.028, 0.174, 1
1971658, 0.034, 0.005, -0.166, -0.203, -0.032, 0.18, 1
1971678, 0.189, 0.108, -0.237, -0.158, -0.097, 0.155, 1
1971698, 0.077, -0.006, -0.131, -0.056, -0.155, 0.081, 1
1971718, 0.002, -0.104, -0.328, -0.032, -0.153, 0.054, 1
1971738, -0.022, -0.112, -0.41, -0.04, -0.08, 0.016, 1
1971758, -0.18, -0.048, -0.461, -0.067, 0.018, 0.013, 1
1971778, -0.014, -0.026, -0.214, -0.073, 0.099, 0.045, 1
1971798, 0.027, -0.014, -0.152, -0.076, 0.095, 0.069, 1
1971818, 0.037, -0.021, -0.139, -0.074, 0.054, 0.084, 1
1971838, -0.048, -0.067, -0.106, -0.062, 0.028, 0.075, 1
1971858, 0.016, -0.035, -0.128, -0.095, 0.044, 0.092, 1
1971878, -0.024, 0.0, 0.08, -0.048, 0.055, 0.091, 1
1971898, -0.051, -0.119, 0.138, -0.02, 0.041, 0.15, 1
1971918, -0.339, -0.088, -0.04, -0.091, 0.045, 0.166, 1
1971938, -0.395, -0.492, -0.272, -0.18, 0.061, 0.264, 1
1971958, 0.16, 0.321, 0.039, -0.326, 0.109, 0.321, 1
1971978, 0.553, -0.065, 0.275, -0.008, 0.009, 0.273, 1
1971998, 0.69, -0.35, -0.013, 0.164, -0.232, 0.183, 1
1972018, 0.628, 0.054, 0.022, 0.159, -0.276, 0.161, 0
1972038, 0.949, -0.344, -0.345, 0.042, -0.245, 0.158, 0
1972058, 1.05, -0.105, 0.024, 0.054, -0.301, 0.127, 0
1972078, 0.917, 0.16, -0.194, 0.023, -0.26, 0.065, 0
1972098, 1.222, 0.282, -0.522, -0.024, -0.133, 0.051, 0
1972118, 2.311, 0.178, -0.109, 0.11, -0.083, -0.109, 0
1972138, 4.009, 0.295, -0.189, 0.095, -0.322, -0.135, 0
1972158, 4.78, 0.104, -0.846, 0.093, -0.389, -0.071, 0
1972178, 5.748, -1.13, -1.157, 0.058, -0.126, -0.131, 0
1972198, 6.642, -2.076, -0.74, 0.031, 0.163, -0.377, 0
1972218, 6.98, -2.396, 0.142, -0.024, 0.304, -0.699, 0
1972238, 7.113, -2.299, 0.762, 0.076, 0.188, -1.049, 0
1972258, 4.71, -1.292, -0.301, 0.134, 0.006, -1.376, 0
1972278, 1.685, -0.931, -1.346, -0.009, 0.034, -1.306, 0
1972298, -0.069, -0.281, -1.14, -0.156, 0.299, -1.038, 0
1972318, 0.317, -0.52, -0.236, -0.131, 0.652, -0.991, 0
1972338, 1.416, -1.479, 0.184, 0.034, 0.606, -1.111, 0
1972358, 1.46, -2.679, 0.117, 0.078, 0.149, -1.38, 0
1972378, -1.01, -2.568, -0.825, 0.025, -0.305, -1.536, 0
1972398, -3.613, -2.768, -2.153, -0.105, -0.286, -1.649, 0
1972418, -5.276, -2.836, -2.447, -0.174, 0.109, -1.514, 0
1972438, -4.818, -3.369, -2.022, -0.202, 0.246, -1.489, 0
1972458, -6.292, -2.67, -2.185, -0.203, 0.274, -1.46, 0
1972478, -7.864, -1.837, -2.007, -0.274, 0.555, -1.177, 0
1972498, -7.398, -1.075, -0.819, -0.288, 0.79, -0.981, 0
1972518, -5.862, -0.982, 0.269, -0.317, 0.604, -0.937, 0
1972538, -5.383, -0.735, 0.815, -0.316, 0.193, -0.938, 0
1972558, -5.774, -0.342, 1.052, -0.31, 0.075, -0.88, 0
1972578, -5.099, -0.08, 1.388, -0.298, 0.054, -0.727, 0
1972598, -3.702, 0.086, 1.401, -0.209, -0.216, -0.546, 0
1972618, -3.478, -0.262, 0.063, -0.091, -0.3, -0.326, 0
1972638, -2.649, -0.746, 0.137, -0.083, -0.036, -0.222, 0
1972658, -1.872, -0.728, 0.499, -0.118, 0.118, -0.199, 0
1972678, -1.099, -0.781, 0.665, -0.087, 0.081, -0.141, 0
1972698, -1.131, -0.744, 0.247, -0.07, -0.057, -0.053, 0
1972718, -1.22, -0.338, 0.268, -0.04, 0.028, 0.011, 0
1972738, -0.388, 0.056, 0.471, -0.002, 0.109, 0.106, 0
1972758, -0.143, -0.329, 0.124, 0.047, 0.027, 0.155, 0
1972778, -0.064, -1.046, -0.479, 0.017, -0.004, 0.17, 0
1972798, -0.767, -1.492, -0.976, -0.141, 0.133, 0.128, 1
1972818, -1.226, -1.161, -1.179, -0.543, 0.496, 0.164, 1
1972838, -0.924, -0.434, -0.366, -0.815, 0.576, 0.284, 1
1972858, -0.768, -0.314, 0.01, -0.725, 0.372, 0.297, 1
1972878, -0.854, -0.639, -0.054, -0.522, 0.1, 0.313, 1
1972898, -1.196, -0.487, -0.154, -0.395, -0.001, 0.253, 1
1972918, -1.142, -0.557, -0.079, -0.257, 0.067, 0.259, 1
1972938, -0.937, -0.418, -0.315, -0.222, 0.004, 0.241, 1
1972958, -1.635, -1.226, -0.353, -0.224, -0.131, 0.172, 1
1972978, -1.95, -1.11, -0.276, -0.317, -0.109, 0.127, 1
1972998, -2.407, -0.727, 0.061, -0.417, -0.046, 0.141, 1
1973018, -2.67, -0.699, 0.19, -0.469, 0.004, 0.25, 1
1973038, -2.551, -0.558, 0.515, -0.484, -0.051, 0.408, 1
1973058, -2.648, -0.063, 0.751, -0.455, -0.158, 0.476, 1
1973078, -2.813, 0.339, 0.791, -0.326, -0.188, 0.613, 1
1973098, -2.842, 0.817, 0.421, -0.069, -0.194, 1.084, 1
1973118, -2.461, 0.467, -0.22, 0.005, -0.255, 1.448, 1
1973138, -1.981, -0.093, -0.979, -0.015, -0.32, 1.644, 1
1973158, -1.325, -0.81, -1.218, -0.086, -0.293, 1.802, 1
1973178, -0.567, -0.567, -1.124, -0.098, -0.177, 1.862, 1
1973198, 0.179, -1.145, -0.932, -0.133, -0.077, 1.844, 1
1973218, 1.025, -1.787, -0.843, -0.269, -0.207, 1.755, 1
1973238, 1.863, -1.836, -0.549, -0.374, -0.436, 1.623, 1
1973258, 2.124, -1.981, -0.538, -0.302, -0.543, 1.538, 1
1973278, 2.39, -2.265, -0.615, -0.205, -0.5, 1.361, 1
1973298, 2.74, -2.223, -0.662, -0.214, -0.484, 1.237, 1
1973318, 2.826, -1.728, -0.907, -0.211, -0.56, 1.183, 1
1973338, 2.524, -1.236, -1.368, -0.249, -0.709, 1.171, 1
1973358, 2.175, -1.164, -1.418, -0.299, -0.673, 1.295, 1
1973378, 2.695, -1.409, -1.351, -0.301, -0.458, 1.33, 1
1973398, 3.464, -1.697, -1.265, -0.353, -0.367, 1.21, 1
1973418, 3.757, -1.564, -0.867, -0.382, -0.437, 0.997, 1
1973438, 3.135, -1.465, -0.42, -0.37, -0.463, 0.866, 1
1973458, 2.616, -1.312, -0.011, -0.347, -0.389, 0.794, 1
1973478, 2.462, -1.228, 0.584, -0.295, -0.292, 0.684, 1
1973498, 2.49, -0.924, 1.132, -0.171, -0.268, 0.536, 1
1973518, 2.127, -0.725, 1.28, -0.003, -0.224, 0.457, 1
1973538, 1.917, -0.722, 1.001, 0.175, -0.205, 0.492, 1
1973558, 1.93, -0.983, 0.487, 0.182, -0.263, 0.486, 1
1973578, 1.736, -1.184, 0.09, 0.085, -0.215, 0.368, 1
1973598, 1.676, -0.999, -0.025, 0.078, -0.001, 0.264, 1
1973618, 1.303, -0.667, -0.171, 0.093, -0.012, 0.16, 1
1973638, 0.567, -0.518, -0.481, 0.114, -0.116, 0.069, 1
1973658, -0.385, -0.277, -0.533, -0.006, -0.135, 0.099, 1
1973678, -0.646, -0.052, -0.405, -0.182, 0.067, 0.206, 1
1973698, -0.198, 0.152, -0.206, -0.219, 0.249, 0.277, 1
1973718, -0.046, -0.008, -0.169, -0.116, 0.215, 0.311, 1
1973738, -0.097, -0.247, -0.401, -0.097, 0.147, 0.342, 1
1973758, 0.045, -0.282, -0.449, -0.16, 0.167, 0.334, 1
1973778, 0.016, -0.092, -0.401, -0.197, 0.161, 0.301, 1
1973798, 0.154, -0.099, -0.171, -0.151, 0.183, 0.26, 1
1973818, 0.143, -0.134, -0.146, -0.081, 0.148, 0.246, 1
1973838, 0.129, -0.192, -0.205, 0.017, 0.11, 0.172, 1
1973858, 0.046, -0.306, -0.468, -0.025, 0.047, 0.086, 1
1973878, -0.11, -0.302, -0.464, -0.124, 0.017, -0.001, 1
1973898, -0.294, -0.056, -0.166, -0.175, 0.018, -0.04, 1
1973918, -0.422, 0.15, 0.05, -0.134, 0.063, -0.017, 1
1973938, -0.327, 0.18, 0.169, 0.003, 0.047, 0.0, 1
1973958, -0.421, -0.118, -0.08, 0.014, 0.001, 0.038, 1
1973978, -0.452, 0.017, -0.107, -0.085, -0.008, 0.076, 1
1973998, -0.414, 0.115, -0.088, -0.086, 0.029, 0.077, 1
1974018, -0.304, 0.029, -0.086, -0.007, 0.018, 0.066, 1
1974038, -0.437, -0.051, -0.065, -0.009, 0.008, 0.099, 1
1974058, -0.421, -0.136, 0.005, -0.009, 0.035, 0.12, 1
1974078, -0.151, -0.127, 0.057, 0.001, 0.042, 0.142, 1
1974098, -0.152, 0.0, 0.372, 0.064, 0.002, 0.179, 1
1974118, 0.06, 0.032, 0.706, 0.252, -0.087, 0.172, 1
1974138, 0.061, -0.607, 0.564, 0.238, -0.089, 0.202, 1
1974158, 0.529, -0.668, 0.252, 0.171, -0.032, 0.244, 0
1974178, 1.39, -0.122, 0.37, 0.182, -0.039, 0.336, 0
1974198, 2.846, -0.359, 0.419, 0.28, -0.106, 0.329, 0
1974218, 4.247, -1.191, -0.217, 0.348, -0.242, 0.237, 0
1974238, 5.614, -1.899, -1.161, 0.415, -0.104, -0.019, 0
1974258, 6.347, -2.212, -1.803, 0.299, 0.276, -0.412, 0
1974278, 6.4, -2.121, -1.911, 0.13, 0.583, -0.609, 0
1974298, 5.938, -2.364, -1.896, -0.106, 0.761, -0.867, 0
1974318, 5.293, -1.655, -1.405, -0.187, 0.78, -1.133, 0
1974338, 4.004, -1.225, -0.495, -0.067, 0.657, -1.258, 0
1974358, 3.379, -1.01, 0.531, 0.067, 0.521, -1.317, 0
1974378, 2.985, -1.038, 0.335, 0.295, 0.292, -1.433, 0
1974398, 1.66, -1.692, -0.571, 0.359, 0.113, -1.482, 0
1974418, 1.04, -2.042, -0.16, 0.417, -0.006, -1.532, 0
1974438, 0.379, -3.105, -0.304, 0.243, 0.007, -1.786, 0
1974458, -1.339, -1.834, -0.523, 0.153, 0.219, -1.743, 0
1974478, -1.647, -1.44, -0.539, 0.219, 0.345, -1.629, 0
1974498, -1.437, -1.741, -0.755, 0.291, 0.35, -1.614, 0
1974518, -1.987, -1.984, -1.417, 0.224, 0.254, -1.601, 0
1974538, -3.692, -1.946, -2.348, -0.028, 0.302, -1.606, 0
1974558, -4.54, -1.72, -2.057, -0.257, 0.51, -1.463, 0
1974578, -4.68, -1.632, -1.049, -0.226, 0.47, -1.348, 0
1974598, -5.011, -0.768, -0.502, -0.173, 0.468, -1.202, 0
1974618, -4.957, -0.276, 0.046, -0.114, 0.418, -1.05, 0
1974638, -4.25, -0.094, 0.714, -0.053, 0.357, -0.912, 0
1974658, -3.672, -0.808, 0.576, 0.032, 0.107, -0.863, 0
1974678, -3.968, -0.801, 0.086, -0.083, -0.194, -0.864, 0
1974698, -4.119, -0.143, 0.158, -0.308, -0.268, -0.846, 0
1974718, -3.655, 0.315, 0.689, -0.351, -0.297, -0.723, 0
1974738, -3.684, 0.535, 0.591, -0.233, -0.328, -0.583, 0
1974758, -3.217, 0.586, 0.272, -0.069, -0.2, -0.38, 0
1974778, -2.164, 0.319, 0.261, -0.018, -0.021, -0.242, 0
1974798, -0.802, -0.042, 0.484, -0.042, 0.048, -0.172, 0
1974818, -0.425, -0.386, 0.06, -0.042, -0.074, -0.146, 0
1974838, -0.698, -0.74, -0.411, -0.021, -0.173, -0.139, 0
1974858, -0.417, -0.295, -0.18, -0.038, -0.005, -0.094, 0
1974878, 0.157, -0.109, 0.086, -0.038, 0.138, -0.051, 0
1974898, 0.378, -0.279, -0.086, -0.053, 0.006, 0.0, 0
1974918, 0.34, -0.413, -0.237, -0.056, -0.094, -0.009, 0
1974938, 0.014, -0.53, -0.217, -0.039, -0.069, -0.06, 0
1974958, -0.36, -0.234, 0.042, -0.089, 0.04, -0.073, 0
1974978, -0.692, -0.143, -0.04, -0.11, 0.131, 0.0, 0
1974998, -0.811, -0.612, -0.079, -0.141, 0.224, 0.102, 0
1975018, -0.962, -0.951, -0.248, -0.419, 0.464, 0.166, 1
1975038, -0.902, -0.674, 0.169, -0.735, 0.675, 0.143, 1
1975058, -1.126, 0.303, 0.542, -0.622, 0.409, 0.114, 1
1975078, -1.626, -0.013, 0.006, -0.519, 0.146, 0.299, 1
1975098, -1.755, -0.494, -0.282, -0.464, 0.038, 0.23, 1
1975118, -2.285, -0.576, -0.191, -0.459, 0.138, 0.081, 1
1975138, -2.514, 0.303, 0.131, -0.3, 0.257, -0.014, 1
1975158, -3.06, 0.054, 0.033, -0.386, 0.209, 0.43, 1
1975178, -2.206, 0.139, 0.565, -0.365, -0.037, 0.624, 1
1975198, -1.886, -0.084, 0.5, -0.332, -0.172, 0.673, 1
1975218, -1.646, -0.193, 0.464, -0.219, -0.111, 0.62, 1
1975238, -1.512, -0.667, 0.114, -0.2, -0.054, 0.711, 1
1975258, -0.622, -0.339, 0.204, -0.318, -0.233, 1.031, 1
1975278, 0.116, -0.385, 0.207, -0.288, -0.436, 1.04, 1
1975298, 0.469, -0.721, -0.289, -0.189, -0.591, 1.068, 1
1975318, 0.963, -1.029, -0.581, -0.138, -0.569, 0.872, 1
1975338, 0.763, -1.393, -1.217, -0.22, -0.491, 0.781, 1
1975358, 0.611, -0.999, -1.257, -0.444, -0.46, 0.954, 1
1975378, 0.733, -0.502, -0.848, -0.486, -0.359, 1.001, 1
1975398, 1.555, -0.768, -0.693, -0.383, -0.453, 1.013, 1
1975418, 1.875, -0.964, -0.566, -0.233, -0.531, 0.808, 1
1975438, 1.728, -1.06, -0.862, -0.251, -0.633, 0.806, 1
1975458, 1.128, -0.937, -0.893, -0.376, -0.604, 0.964, 1
1975478, 1.107, -0.575, -0.915, -0.375, -0.412, 1.034, 1
1975498, 1.541, -0.806, -0.71, -0.251, -0.282, 1.033, 1
1975518, 2.102, -0.87, -0.551, -0.03, -0.178, 0.772, 1
1975538, 2.191, -1.587, -1.24, -0.43, -0.323, 0.817, 1
1975558, 0.518, 0.562, -1.175, -0.583, -0.202, 0.914, 1
1975578, 0.874, 0.167, -0.892, -0.486, -0.015, 1.174, 1
1975598, 1.925, -0.187, -0.193, -0.353, 0.064, 1.316, 1
1975618, 3.071, -0.638, 0.323, -0.101, 0.005, 1.229, 1
1975638, 3.004, -1.303, 0.098, -0.124, -0.228, 1.133, 1
1975658, 2.56, -0.86, 0.143, -0.295, -0.362, 0.96, 1
1975678, 2.0, -0.151, 0.314, -0.278, -0.375, 0.772, 1
1975698, 1.762, -0.303, 0.365, 0.036, -0.351, 0.654, 1
1975718, 1.83, -0.432, 0.486, 0.128, -0.253, 0.67, 1
1975738, 1.647, -0.517, 0.154, 0.064, -0.207, 0.602, 1
1975758, 1.347, -0.606, 0.166, 0.003, -0.238, 0.58, 1
1975778, 1.054, -0.585, 0.188, -0.016, -0.213, 0.568, 1
1975798, 1.193, -0.499, 0.337, 0.097, -0.172, 0.577, 1
1975818, 1.171, -1.046, 0.029, 0.263, -0.11, 0.415, 1
1975838, 1.178, -1.315, -0.26, 0.156, -0.061, 0.251, 1
1975858, 0.689, -0.965, -0.484, -0.067, -0.133, 0.193, 1
1975878, -0.127, -0.525, -0.469, -0.244, -0.116, 0.183, 1
1975898, -0.316, 0.061, -0.117, -0.344, 0.009, 0.312, 1
1975918, -0.319, 0.241, 0.043, -0.226, 0.12, 0.355, 1
1975938, -0.266, 0.098, 0.141, -0.034, 0.097, 0.372, 1
1975958, 0.069, -0.037, -0.149, 0.084, -0.042, 0.324, 1
1975978, -0.25, -0.221, -0.387, -0.006, -0.095, 0.239, 1
1975998, -0.201, -0.212, -0.205, -0.075, -0.033, 0.128, 1
1976018, -0.245, -0.1, -0.3, -0.114, -0.027, 0.111, 1
1976038, -0.199, -0.008, -0.328, -0.098, -0.02, 0.118, 1
1976058, -0.298, -0.021, -0.494, -0.149, 0.031, 0.117, 1
1976078, -0.256, 0.082, -0.477, -0.153, 0.091, 0.092, 1
1976098, -0.117, 0.068, -0.197, -0.111, 0.076, 0.093, 1
1976118, 0.119, -0.003, -0.062, -0.057, -0.014, 0.108, 1
1976138, 0.055, -0.055, -0.03, -0.008, -0.035, 0.099, 1
1976158, 0.111, -0.287, -0.075, -0.037, 0.02, 0.075, 1
1976178, 0.352, -0.198, 0.051, -0.075, 0.063, 0.117, 1
1976198, 0.534, -0.04, 0.294, 0.077, 0.07, 0.083, 1
1976218, 1.187, 0.07, 0.589, 0.371, -0.081, 0.068, 1
1976238, 1.257, -0.452, 0.396, 0.425, -0.128, 0.098, 1
1976258, 1.691, -1.084, -0.113, 0.255, 0.01, 0.09, 0
1976278, 2.518, -0.89, -0.119, 0.105, 0.224, 0.012, 0
1976298, 3.58, -0.54, 0.255, 0.325, 0.226, -0.014, 0
1976318, 4.602, -0.561, 0.29, 0.602, 0.041, -0.197, 0
1976338, 5.055, -1.806, -0.311, 0.431, -0.134, -0.526, 0
1976358, 4.009, -1.824, -1.359, 0.03, 0.1, -0.791, 0
1976378, 3.011, -1.646, -1.731, -0.273, 0.511, -0.884, 0
1976398, 3.287, -0.381, -0.904, -0.115, 0.635, -0.921, 0
1976418, 4.18, -0.949, -0.327, 0.169, 0.411, -0.991, 0
1976438, 3.092, -1.244, -2.075, 0.242, 0.317, -1.216, 0
1976458, 0.467, -1.481, -3.315, 0.068, 0.685, -1.31, 0
1976478, -0.343, -1.076, -2.302, 0.012, 1.136, -1.284, 0
1976498, 0.407, -0.928, -0.807, 0.242, 1.122, -1.188, 0
1976518, 1.805, -1.97, -0.149, 0.41, 0.524, -1.479, 0
1976538, 0.028, -3.397, -1.065, 0.172, 0.253, -1.748, 0
1976558, -0.345, -3.114, -0.479, 0.047, 0.07, -1.955, 0
1976578, -2.554, -2.61, -1.319, 0.018, -0.197, -2.028, 0
1976598, -4.496, -1.995, -2.48, 0.084, -0.231, -1.814, 0
1976618, -6.359, -1.663, -3.08, 0.114, 0.191, -1.538, 0
1976638, -5.609, -1.695, -1.827, 0.031, 0.85, -1.281, 0
1976658, -4.09, -2.124, -0.454, -0.02, 0.966, -1.205, 0
1976678, -3.882, -2.545, 0.374, -0.042, 0.615, -1.284, 0
1976698, -4.943, -2.079, 0.134, -0.098, 0.261, -1.434, 0
1976718, -5.978, -1.327, 0.004, -0.205, 0.203, -1.516, 0
1976738, -6.357, -0.418, 0.179, -0.296, 0.177, -1.495, 0
1976758, -6.239, 0.262, 0.555, -0.291, 0.046, -1.251, 0
1976778, -6.393, 0.211, 0.661, -0.207, -0.067, -0.966, 0
1976798, -5.497, -0.166, 0.844, -0.115, -0.013, -0.723, 0
1976818, -4.283, -0.418, 0.898, -0.092, 0.018, -0.549, 0
1976838, -4.009, -0.443, 0.612, -0.114, -0.089, -0.472, 0
1976858, -3.786, -0.401, 0.543, -0.102, -0.13, -0.354, 0
1976878, -3.506, -0.346, 0.512, -0.017, -0.082, -0.212, 0
1976898, -2.655, -0.352, 0.751, -0.01, 0.009, -0.092, 0
1976918, -2.02, -0.599, 0.648, -0.018, -0.009, -0.006, 0
1976938, -1.965, -0.774, 0.102, -0.05, -0.016, 0.062, 0
1976958, -1.98, -1.079, -0.106, -0.222, 0.112, 0.185, 1
1976978, -1.657, -0.106, -0.201, -0.543, 0.386, 0.329, 1
1976998, -1.243, -0.212, -0.315, -0.541, 0.353, 0.396, 1
1977018, -1.461, -0.686, -0.575, -0.291, 0.136, 0.42, 1
1977038, -1.767, -0.946, -0.679, -0.274, 0.182, 0.399, 1
1977058, -1.531, -1.0, -0.139, -0.394, 0.2, 0.378, 1
1977078, -1.141, -0.515, -0.02, -0.27, -0.1, 0.286, 1
1977098, -1.588, -0.493, -0.379, -0.193, -0.22, 0.291, 1
1977118, -2.252, -0.92, -1.016, -0.268, -0.129, 0.351, 1
1977138, -2.251, -0.939, -0.856, -0.441, -0.026, 0.399, 1
1977158, -1.829, 0.14, 0.042, -0.543, -0.008, 0.488, 1
1977178, -1.147, 0.129, 0.387, -0.453, -0.324, 0.771, 1
1977198, -0.707, -0.259, 0.341, -0.248, -0.618, 0.891, 1
1977218, -0.941, -0.892, -0.369, -0.101, -0.618, 0.942, 1
1977238, -1.35, -1.883, -1.146, -0.221, -0.388, 0.97, 1
1977258, -1.332, -1.108, -0.566, -0.347, -0.095, 1.006, 1
1977278, -0.698, -0.802, 0.063, -0.32, -0.13, 1.142, 1
1977298, -0.066, -1.053, 0.335, -0.212, -0.406, 1.178, 1
1977318, 0.019, -1.523, 0.068, -0.123, -0.497, 1.142, 1
1977338, -0.189, -1.876, -0.378, -0.208, -0.332, 1.036, 1
1977358, -0.319, -1.648, -0.406, -0.345, -0.161, 1.06, 1
1977378, 0.067, -1.084, -0.032, -0.385, -0.196, 1.155, 1
1977398, 0.442, -1.007, 0.244, -0.235, -0.334, 1.218, 1
1977418, 0.836, -1.577, 0.337, -0.067, -0.336, 1.107, 1
1977438, 1.127, -1.881, 0.038, -0.05, -0.313, 0.965, 1
1977458, 0.87, -1.42, -0.468, -0.151, -0.415, 1.068, 1
1977478, 0.58, -0.889, -0.485, -0.193, -0.458, 1.161, 1
1977498, 0.649, -0.815, -0.452, -0.045, -0.358, 1.114, 1
1977518, 1.066, -0.819, -0.939, 0.064, -0.347, 1.145, 1
1977538, 1.389, -1.064, -1.084, -0.103, -0.378, 1.335, 1
1977558, 1.918, -0.976, -0.83, -0.235, -0.372, 1.265, 1
1977578, 1.74, -0.883, -0.624, -0.258, -0.409, 1.145, 1
1977598, 1.588, -0.81, -0.213, -0.211, -0.4, 1.127, 1
1977618, 1.988, -1.094, -0.193, -0.142, -0.349, 1.117, 1
1977638, 2.268, -0.863, -0.486, -0.07, -0.448, 0.997, 1
1977658, 1.692, -0.804, -0.857, -0.036, -0.52, 0.912, 1
1977678, 1.497, -0.675, -0.906, -0.118, -0.361, 0.93, 1
1977698, 1.681, -0.569, -0.749, -0.189, -0.163, 0.886, 1
1977718, 1.895, -0.349, -0.496, -0.207, -0.12, 0.762, 1
1977738, 1.793, -0.149, -0.214, -0.167, -0.164, 0.663, 1
1977758, 1.573, -0.083, -0.441, -0.103, -0.159, 0.657, 1
1977778, 1.523, -0.158, -0.688, -0.048, -0.132, 0.671, 1
1977798, 1.467, -0.486, -0.877, -0.128, -0.022, 0.623, 1
1977818, 1.403, -0.263, -0.677, -0.26, 0.099, 0.576, 1
1977838, 1.222, -0.088, -0.411, -0.255, 0.146, 0.505, 1
1977858, 0.971, -0.018, 0.03, -0.21, 0.153, 0.455, 1
1977878, 0.873, -0.181, 0.159, -0.127, 0.13, 0.422, 1
1977898, 0.623, -0.378, 0.142, -0.125, 0.1, 0.376, 1
1977918, 0.462, -0.224, 0.154, -0.086, 0.084, 0.248, 1
1977938, 0.053, -0.068, 0.072, -0.041, 0.031, 0.124, 1
1977958, -0.534, -0.078, -0.026, -0.01, -0.024, 0.065, 1
1977978, -0.593, -0.012, 0.0, -0.026, 0.037, 0.098, 1
1977998, -0.499, -0.128, -0.103, -0.048, 0.089, 0.114, 1
1978018, -0.534, 0.01, -0.216, -0.045, 0.064, 0.08, 1
1978038, -0.68, -0.078, -0.113, -0.05, 0.076, 0.087, 1
1978058, -0.704, -0.055, -0.06, -0.069, 0.106, 0.127, 1
1978078, -0.545, 0.072, -0.047, -0.005, 0.073, 0.125, 1
1978098, -0.515, -0.142, -0.062, -0.007, 0.065, 0.109, 1
1978118, -0.428, -0.135, 0.049, 0.006, 0.12, 0.079, 1
1978138, -0.035, -0.29, 0.326, -0.022, 0.093, 0.105, 1
1978158, -0.046, -0.209, 0.232, -0.003, 0.015, 0.076, 1
1978178, 0.139, 0.126, 0.397, 0.229, -0.103, 0.067, 1
1978198, 0.392, -0.306, 0.193, 0.314, -0.081, 0.094, 1
1978218, 0.46, -0.722, -0.249, 0.13, 0.139, 0.119, 0
1978238, 1.632, -0.762, -0.149, 0.025, 0.219, 0.094, 0
1978258, 2.751, -0.971, 0.412, 0.106, 0.143, 0.023, 0
1978278, 4.098, -0.855, 1.17, 0.377, 0.094, -0.151, 0
1978298, 5.317, -1.886, 0.577, 0.423, -0.081, -0.502, 0
1978318, 4.354, -1.879, -0.663, 0.221, -0.128, -0.81, 0
1978338, 2.932, -0.899, -1.498, 0.078, 0.127, -0.905, 0
1978358, 2.566, -0.033, -1.252, 0.111, 0.379, -0.848, 0
1978378, 3.422, 0.009, -0.762, 0.378, 0.361, -0.822, 0
1978398, 3.692, -1.111, -1.345, 0.466, 0.364, -0.94, 0
1978418, 3.41, -2.168, -1.952, 0.246, 0.46, -1.166, 0
1978438, 2.805, -1.977, -1.962, 0.155, 0.458, -1.429, 0
1978458, 2.091, -1.925, -1.808, 0.186, 0.488, -1.506, 0
1978478, 1.58, -2.246, -2.279, 0.232, 0.426, -1.679, 0
1978498, -1.119, -2.998, -3.137, 0.048, 0.448, -1.889, 0
1978518, -3.028, -2.378, -2.911, -0.182, 0.554, -2.008, 0
1978538, -3.888, -1.298, -1.413, -0.246, 0.676, -1.893, 0
1978558, -3.959, -1.429, -0.593, -0.039, 0.667, -1.649, 0
1978578, -4.07, -1.953, -0.575, 0.177, 0.553, -1.467, 0
1978598, -4.82, -2.449, -0.659, 0.244, 0.448, -1.363, 0
1978618, -5.027, -2.285, 0.035, 0.1, 0.541, -1.462, 0
1978638, -4.794, -1.784, 0.361, 0.013, 0.508, -1.508, 0
1978658, -5.317, -1.589, 0.042, 0.021, 0.274, -1.464, 0
1978678, -5.922, -1.009, -0.194, -0.032, 0.199, -1.407, 0
1978698, -5.415, -0.656, 0.268, -0.098, 0.147, -1.305, 0
1978718, -5.163, -0.829, 0.364, -0.173, 0.002, -1.255, 0
1978738, -5.945, -0.595, -0.248, -0.252, -0.175, -1.175, 0
1978758, -6.198, -0.03, -0.238, -0.288, -0.114, -0.987, 0
1978778, -5.464, 0.09, 0.371, -0.203, 0.061, -0.732, 0
1978798, -4.177, -0.246, 0.813, -0.111, 0.098, -0.55, 0
1978818, -3.807, -0.447, 0.458, -0.131, -0.081, -0.422, 0
1978838, -3.729, -0.41, 0.222, -0.185, -0.152, -0.31, 0
1978858, -3.228, -0.328, 0.452, -0.178, -0.054, -0.199, 0
1978878, -2.686, -0.563, 0.542, -0.153, 0.03, -0.109, 0
1978898, -2.248, -0.639, 0.584, -0.097, -0.005, 0.016, 0
1978918, -2.006, -0.489, 0.44, -0.042, -0.004, 0.11, 0
1978938, -1.7, -0.562, 0.264, -0.029, 0.051, 0.186, 0
1978958, -1.718, -0.641, -0.06, -0.193, 0.042, 0.364, 0
1978978, -1.991, -0.804, -0.551, -0.392, 0.28, 0.502, 1
1978998, -1.606, -1.229, -0.614, -0.491, 0.371, 0.6, 1
1979018, -1.649, -0.849, -0.548, -0.472, 0.286, 0.602, 1
1979038, -1.442, -0.385, 0.004, -0.358, 0.136, 0.58, 1
1979058, -1.501, -0.465, 0.042, -0.199, -0.014, 0.596, 1
1979078, -1.68, -0.662, -0.514, -0.179, -0.116, 0.615, 1
1979098, -2.354, -1.373, -0.899, -0.242, -0.015, 0.552, 1
1979118, -2.164, -1.111, -0.648, -0.356, -0.007, 0.549, 1
1979138, -2.281, -0.816, -0.005, -0.396, -0.085, 0.692, 1
1979158, -2.024, -0.687, 0.403, -0.339, -0.146, 0.807, 1
1979178, -1.42, -0.921, 0.264, -0.327, -0.266, 0.9, 1
1979198, -1.081, -1.311, 0.035, -0.401, -0.287, 0.841, 1
1979218, -0.916, -1.374, -0.156, -0.498, -0.329, 0.815, 1
1979238, -0.669, -0.995, 0.003, -0.582, -0.438, 0.901, 1
1979258, -0.272, -0.413, 0.467, -0.475, -0.528, 0.958, 1
1979278, 0.117, -0.542, 0.492, -0.276, -0.569, 0.978, 1
1979298, 0.329, -0.834, -0.031, -0.142, -0.483, 0.893, 1
1979318, 0.605, -1.53, -0.547, -0.24, -0.473, 0.946, 1
1979338, 1.044, -1.224, -0.588, -0.421, -0.616, 0.92, 1
1979358, 0.693, -0.534, -0.628, -0.361, -0.739, 0.915, 1
1979378, 0.283, -0.305, -0.772, -0.174, -0.671, 0.992, 1
1979398, 0.484, -0.586, -0.904, -0.012, -0.472, 1.028, 1
1979418, 1.052, -1.379, -1.137, -0.107, -0.465, 1.203, 1
1979438, 1.571, -1.491, -1.147, -0.24, -0.458, 1.047, 1
1979458, 1.365, -1.378, -1.05, -0.351, -0.444, 0.918, 1
1979478, 0.941, -0.971, -0.353, -0.256, -0.334, 0.887, 1
1979498, 0.998, -1.177, -0.127, -0.24, -0.323, 1.045, 1
1979518, 1.504, -1.15, 0.029, -0.285, -0.326, 0.988, 1
1979538, 1.599, -1.04, -0.061, -0.34, -0.334, 0.796, 1
1979558, 1.403, -0.34, -0.27, -0.31, -0.406, 0.788, 1
1979578, 1.068, -0.324, -0.575, -0.179, -0.403, 0.937, 1
1979598, 1.346, -0.593, -0.839, -0.088, -0.263, 1.037, 1
1979618, 1.925, -0.694, -0.857, -0.108, -0.103, 0.995, 1
1979638, 2.056, -0.715, -0.622, -0.144, -0.063, 0.886, 1
1979658, 1.884, -0.226, -0.595, -0.119, -0.08, 0.827, 1
1979678, 1.59, -0.256, -0.468, -0.044, -0.119, 0.899, 1
1979698, 1.595, -0.617, -0.556, -0.016, -0.013, 0.883, 1
1979718, 1.911, -0.588, -0.627, -0.05, 0.105, 0.78, 1
1979738, 1.787, -0.558, -0.582, -0.103, 0.107, 0.651, 1
1979758, 1.372, -0.262, -0.402, -0.15, 0.084, 0.533, 1
1979778, 0.844, -0.148, -0.154, -0.111, 0.064, 0.453, 1
1979798, 0.304, -0.154, -0.1, -0.084, 0.069, 0.402, 1
1979818, 0.103, -0.178, 0.093, -0.092, 0.073, 0.324, 1
1979838, -0.121, -0.004, 0.348, -0.131, 0.058, 0.251, 1
1979858, -0.14, -0.009, 0.38, -0.052, 0.0, 0.22, 1
1979878, -0.186, -0.055, 0.113, 0.045, -0.036, 0.205, 1
1979898, -0.318, -0.164, -0.23, 0.042, -0.055, 0.187, 1
1979918, -0.215, -0.145, -0.293, -0.021, -0.025, 0.127, 1
1979938, -0.13, -0.053, -0.19, -0.059, -0.007, 0.073, 1
1979958, 0.004, -0.022, -0.098, -0.025, -0.068, 0.043, 1
1979978, -0.097, 0.059, -0.283, -0.014, -0.092, 0.028, 1
1979998, -0.239, 0.001, -0.388, -0.065, -0.047, 0.031, 1
1980018, -0.254, 0.076, -0.389, -0.076, 0.001, -0.025, 1
1980038, -0.163, 0.067, -0.116, -0.086, 0.025, -0.022, 1
1980058, -0.102, 0.116, 0.006, -0.054, 0.015, -0.01, 1
1980078, 0.009, 0.017, 0.09, -0.016, -0.058, -0.007, 1
1980098, -0.02, -0.028, 0.014, 0.0, -0.08, 0.009, 1
1980118, 0.046, 0.035, 0.033, 0.105, -0.081, 0.022, 1
1980138, 0.057, 0.081, -0.023, 0.273, -0.13, 0.017, 1
1980158, -0.015, -0.533, -0.259, 0.217, -0.061, 0.019, 1
1980178, 0.312, -0.469, -0.45, 0.087, -0.019, 0.0, 0
1980198, 0.692, -0.156, -0.213, 0.134, -0.065, -0.093, 0
1980218, 1.332, 0.127, -0.014, 0.317, -0.207, -0.046, 0
1980238, 2.203, -0.374, -0.403, 0.357, -0.27, -0.049, 0
1980258, 2.816, -0.974, -0.647, 0.256, -0.13, -0.167, 0
1980278, 3.396, -1.533, -0.53, 0.153, 0.109, -0.345, 0
1980298, 3.925, -1.478, -0.613, 0.014, 0.317, -0.439, 0
1980318, 4.148, -1.416, -0.485, -0.069, 0.431, -0.488, 0
1980338, 5.153, -1.29, -0.316, 0.149, 0.301, -0.673, 0
1980358, 4.435, -1.788, -1.354, 0.201, 0.245, -0.952, 0
1980378, 2.614, -1.8, -1.987, 0.016, 0.487, -1.077, 0
1980398, 1.885, -1.133, -1.216, -0.028, 0.751, -1.031, 0
1980418, 2.524, -1.272, -0.705, 0.109, 0.73, -1.04, 0
1980438, 2.798, -1.848, -2.019, 0.284, 0.361, -1.286, 0
1980458, -0.304, -3.231, -2.054, 0.018, 0.543, -1.555, 0
1980478, 0.472, -3.35, -0.536, -0.218, 0.844, -1.762, 0
1980498, -0.677, -3.305, -1.301, -0.156, 0.627, -2.045, 0
1980518, -3.691, -2.212, -2.226, -0.185, 0.434, -2.103, 0
1980538, -4.566, -1.468, -1.425, -0.224, 0.678, -1.921, 0
1980558, -3.914, -1.642, -0.26, -0.196, 0.904, -1.793, 0
1980578, -3.937, -1.903, -0.374, -0.047, 0.743, -1.8, 0
1980598, -4.769, -2.239, -0.542, -0.032, 0.415, -1.736, 0
1980618, -4.661, -2.112, 0.31, -0.087, 0.376, -1.663, 0
1980638, -3.746, -1.951, 1.019, -0.066, 0.307, -1.552, 0
1980658, -4.685, -1.576, -0.159, 0.012, -0.023, -1.484, 0
1980678, -5.923, -1.348, -0.928, 0.042, -0.006, -1.292, 0
1980698, -4.526, -1.064, 0.12, -0.002, 0.431, -1.134, 0
1980718, -3.398, -1.352, 0.63, -0.045, 0.389, -1.098, 0
1980738, -4.5, -0.88, 0.104, -0.101, 0.014, -1.081, 0
1980758, -5.317, -0.102, -0.177, -0.068, 0.002, -0.915, 0
1980778, -4.569, 0.323, 0.092, -0.026, 0.217, -0.647, 0
1980798, -3.619, 0.247, 0.147, -0.023, 0.185, -0.444, 0
1980818, -3.477, -0.092, -0.211, 0.007, -0.011, -0.304, 0
1980838, -3.527, -0.546, -0.583, 0.008, 0.056, -0.226, 0
1980858, -2.772, -0.651, -0.224, -0.095, 0.202, -0.164, 0
1980878, -2.113, -0.404, 0.321, -0.188, 0.09, -0.111, 0
1980898, -2.22, -0.702, 0.167, -0.128, -0.073, -0.051, 0
1980918, -2.007, -1.018, 0.059, -0.043, 0.065, 0.037, 0
1980938, -1.599, -0.936, 0.272, -0.101, 0.104, 0.117, 0
1980958, -1.401, -0.828, 0.468, -0.123, 0.015, 0.204, 0
1980978, -1.55, -0.856, 0.427, -0.124, 0.036, 0.312, 0
1980998, -1.627, -1.301, 0.114, -0.265, 0.272, 0.423, 1
1981018, -1.824, -1.377, -0.492, -0.538, 0.485, 0.549, 1
1981038, -1.628, -0.959, -0.18, -0.733, 0.448, 0.646, 1
1981058, -1.629, -0.682, 0.077, -0.648, 0.273, 0.621, 1
1981078, -1.802, -0.965, -0.023, -0.594, 0.127, 0.626, 1
1981098, -1.489, -0.894, 0.135, -0.495, -0.06, 0.585, 1
1981118, -2.668, -0.711, -0.155, -0.378, -0.08, 0.605, 1
1981138, -2.523, -0.533, -0.219, -0.245, -0.038, 0.727, 1
1981158, -2.55, -0.915, -0.457, -0.164, -0.039, 0.855, 1
1981178, -1.935, -1.4, -0.253, -0.177, -0.117, 0.889, 1
1981198, -1.539, -1.499, -0.118, -0.296, -0.219, 0.822, 1
1981218, -1.722, -1.246, -0.368, -0.394, -0.341, 0.871, 1
1981238, -1.743, -0.853, -0.346, -0.423, -0.403, 1.004, 1
1981258, -1.526, -1.001, -0.345, -0.413, -0.41, 1.166, 1
1981278, -0.752, -1.065, -0.097, -0.377, -0.393, 1.178, 1
1981298, -0.199, -0.875, -0.073, -0.286, -0.439, 1.084, 1
1981318, 0.249, -1.065, -0.481, -0.325, -0.718, 1.069, 1
1981338, 0.148, -0.973, -0.953, -0.426, -0.982, 1.212, 1
1981358, -0.098, -0.953, -0.878, -0.414, -0.823, 1.35, 1
1981378, 0.545, -1.001, -0.74, -0.262, -0.526, 1.392, 1
1981398, 1.705, -1.05, -0.601, -0.082, -0.504, 1.287, 1
1981418, 2.255, -1.713, -1.31, -0.191, -0.977, 1.401, 1
1981438, 1.531, -1.873, -1.344, -0.325, -0.802, 1.265, 1
1981458, 2.066, -1.264, -1.046, -0.403, -0.514, 1.199, 1
1981478, 2.428, -0.977, -0.865, -0.33, -0.465, 1.223, 1
1981498, 2.563, -1.27, -1.024, -0.175, -0.551, 1.205, 1
1981518, 2.59, -1.362, -0.966, -0.151, -0.596, 1.235, 1
1981538, 2.552, -1.421, -0.888, -0.191, -0.453, 1.175, 1
1981558, 2.605, -1.187, -0.596, -0.268, -0.285, 1.155, 1
1981578, 2.92, -1.043, -0.255, -0.252, -0.221, 1.089, 1
1981598, 3.11, -1.192, -0.255, -0.163, -0.274, 1.033, 1
1981618, 2.817, -1.09, -0.461, -0.141, -0.368, 1.012, 1
1981638, 2.625, -0.936, -0.686, -0.131, -0.259, 0.841, 1
1981658, 2.25, -0.879, -0.665, -0.144, -0.156, 0.722, 1
1981678, 1.97, -0.743, -0.43, -0.191, 0.018, 0.632, 1
1981698, 2.49, -0.853, -0.245, -0.185, 0.101, 0.567, 1
1981718, 2.074, -0.962, -0.265, -0.17, -0.006, 0.491, 1
1981738, 1.497, -1.004, -0.403, -0.194, 0.061, 0.347, 1
1981758, 1.088, -0.792, -0.209, -0.249, 0.121, 0.264, 1
1981778, 0.816, -0.564, 0.118, -0.246, 0.161, 0.21, 1
1981798, 0.616, -0.398, 0.428, -0.171, 0.141, 0.145, 1
1981818, 0.221, -0.27, 0.505, -0.116, 0.078, 0.122, 1
1981838, -0.198, -0.231, 0.326, -0.06, 0.032, 0.097, 1
1981858, -0.334, -0.16, 0.165, -0.034, 0.037, 0.053, 1
1981878, -0.456, -0.14, 0.178, -0.082, 0.046, 0.045, 1
1981898, -0.501, 0.175, 0.283, -0.032, 0.07, 0.13, 1
1981918, -0.342, -0.153, -0.033, 0.003, 0.008, 0.214, 1
1981938, -0.201, -0.311, -0.085, -0.075, -0.033, 0.185, 1
1981958, -0.022, -0.248, -0.117, -0.092, -0.067, 0.108, 1
1981978, -0.184, -0.177, -0.111, -0.082, -0.094, 0.042, 1
1981998, -0.268, -0.131, 0.018, -0.062, -0.079, 0.058, 1
1982018, -0.367, -0.049, -0.039, -0.028, -0.023, 0.124, 1
1982038, -0.046, 0.091, 0.015, 0.109, -0.01, 0.106, 1
1982058, 0.175, -0.06, -0.043, 0.218, -0.089, 0.032, 1
1982078, 0.208, -0.304, -0.023, 0.168, -0.149, 0.015, 1
1982098, -0.085, -0.175, -0.189, 0.163, -0.021, 0.045, 1
1982118, 0.614, -0.254, 0.023, 0.275, 0.026, -0.013, 1
1982138, 1.23, -0.296, 0.294, 0.33, 0.028, -0.001, 0
1982158, 1.864, -0.466, 0.24, 0.327, 0.035, 0.043, 0
1982178, 2.767, -0.722, 0.026, 0.192, -0.021, -0.039, 0
1982198, 3.418, -0.761, -0.423, 0.168, -0.081, -0.175, 0
1982218, 4.56, -0.465, -0.321, 0.529, -0.158, -0.539, 0
1982238, 4.096, -1.646, -0.868, 0.406, 0.003, -0.697, 0
1982258, 3.879, -1.467, -1.499, 0.21, 0.179, -0.78, 0
1982278, 2.752, -1.447, -2.166, -0.13, 0.482, -0.799, 0
1982298, 2.672, -0.71, -1.231, -0.175, 0.612, -0.828, 0
1982318, 3.262, -0.715, -0.137, 0.081, 0.459, -0.873, 0
1982338, 3.19, -0.862, -0.57, 0.307, 0.233, -0.977, 0
1982358, 1.319, -1.232, -1.964, 0.243, 0.302, -1.081, 0
1982378, 0.274, -1.326, -1.865, 0.029, 0.703, -1.169, 0
1982398, 0.342, -1.261, -1.799, 0.13, 0.706, -1.284, 0
1982418, -0.729, -0.798, -1.467, 0.148, 0.662, -1.32, 0
1982438, -0.721, -1.473, -1.366, 0.224, 0.656, -1.296, 0
1982458, -1.624, -2.043, -2.073, 0.062, 0.562, -1.463, 0
1982478, -2.332, -1.508, -1.648, -0.134, 0.549, -1.56, 0
1982498, -2.948, -1.489, -1.0, -0.085, 0.597, -1.534, 0
1982518, -2.831, -1.529, -0.529, -0.007, 0.61, -1.467, 0
1982538, -3.488, -1.559, -0.768, 0.023, 0.463, -1.417, 0
1982558, -3.964, -1.79, -0.742, -0.006, 0.443, -1.412, 0
1982578, -3.92, -1.712, -0.443, -0.108, 0.496, -1.452, 0
1982598, -4.12, -1.262, 0.106, -0.179, 0.363, -1.408, 0
1982618, -4.225, -0.962, 0.228, -0.191, 0.238, -1.303, 0
1982638, -4.101, -1.089, 0.042, -0.148, 0.12, -1.225, 0
1982658, -4.255, -0.959, -0.083, -0.193, 0.05, -1.179, 0
1982678, -4.247, -0.41, 0.503, -0.222, 0.087, -1.123, 0
1982698, -3.728, -0.612, 0.942, -0.204, 0.132, -1.006, 0
1982718, -3.591, -0.621, 0.796, -0.147, 0.036, -0.947, 0
1982738, -3.984, -0.216, 0.288, -0.067, -0.014, -0.835, 0
1982758, -3.942, 0.097, 0.237, -0.084, 0.059, -0.658, 0
1982778, -3.382, 0.376, 0.585, -0.098, 0.162, -0.485, 0
1982798, -3.041, 0.009, 0.404, -0.017, 0.177, -0.312, 0
1982818, -2.671, -0.378, 0.206, 0.002, 0.117, -0.23, 0
1982838, -2.942, -0.33, -0.002, -0.028, 0.137, -0.171, 0
1982858, -3.476, -0.252, -0.195, -0.02, 0.265, -0.043, 0
1982878, -3.472, -0.087, -0.049, 0.102, 0.507, 0.228, 0
1982898, -2.865, -0.07, 0.449, 0.184, 0.534, 0.354, 0
1982918, -2.321, -0.153, 0.825, 0.239, 0.401, 0.463, 0
1982938, -2.039, -0.326, 0.693, 0.227, 0.273, 0.533, 0
1982958, -2.015, -0.704, 0.169, 0.056, 0.224, 0.605, 1
1982978, -2.38, -0.777, -0.418, -0.235, 0.312, 0.751, 1
1982998, -2.343, -0.523, -0.342, -0.483, 0.366, 0.8, 1
1983018, -2.132, -0.136, 0.165, -0.497, 0.275, 0.897, 1
1983038, -1.533, -0.064, 0.493, -0.345, 0.036, 0.978, 1
1983058, -1.221, -0.668, 0.229, -0.223, -0.153, 0.958, 1
1983078, -0.919, -1.527, -0.163, -0.351, -0.268, 0.816, 1
1983098, -0.665, -0.92, 0.217, -0.532, -0.335, 0.745, 1
1983118, -0.334, -0.057, 0.304, -0.404, -0.472, 0.923, 1
1983138, 0.074, -0.237, -0.038, -0.244, -0.631, 0.978, 1
1983158, 0.269, -1.443, -0.647, -0.246, -0.737, 0.932, 1
1983178, -0.36, -2.362, -1.004, -0.409, -0.605, 0.788, 1
1983198, -0.919, -0.744, -0.26, -0.55, -0.218, 0.718, 1
1983218, -0.672, -0.32, -0.055, -0.389, -0.255, 1.006, 1
1983238, -0.14, -0.422, -0.2, -0.214, -0.497, 1.111, 1
1983258, -0.141, -1.272, -0.62, -0.225, -0.502, 1.08, 1
1983278, -0.083, -1.463, -0.816, -0.308, -0.326, 0.99, 1
1983298, 0.09, -0.854, -0.62, -0.373, -0.234, 0.993, 1
1983318, 0.059, -0.854, -0.503, -0.377, -0.323, 1.105, 1
1983338, 0.371, -0.954, -0.416, -0.359, -0.392, 1.047, 1
1983358, 0.31, -1.28, -0.654, -0.42, -0.39, 1.042, 1
1983378, 0.133, -0.724, -0.892, -0.465, -0.345, 1.179, 1
1983398, 0.943, -0.756, -0.963, -0.464, -0.233, 1.241, 1
1983418, 1.547, -0.913, -0.869, -0.459, -0.313, 1.199, 1
1983438, 1.784, -0.846, -0.676, -0.398, -0.359, 1.094, 1
1983458, 2.018, -0.839, -0.738, -0.334, -0.409, 1.101, 1
1983478, 1.694, -0.61, -0.928, -0.29, -0.479, 1.18, 1
1983498, 1.765, -0.696, -1.41, -0.222, -0.438, 1.178, 1
1983518, 1.895, -1.237, -1.116, -0.254, -0.351, 1.142, 1
1983538, 2.668, -1.241, -0.579, -0.312, -0.144, 0.99, 1
1983558, 3.032, -1.0, -0.464, -0.279, -0.112, 0.91, 1
1983578, 2.876, -0.779, -0.447, -0.263, -0.29, 1.006, 1
1983598, 2.912, -0.803, -0.399, -0.171, -0.358, 0.916, 1
1983618, 2.665, -1.238, -0.408, -0.135, -0.276, 0.739, 1
1983638, 2.706, -1.044, -0.017, -0.194, -0.083, 0.583, 1
1983658, 2.764, -0.785, 0.175, -0.187, -0.024, 0.502, 1
1983678, 2.566, -0.749, 0.173, -0.175, -0.172, 0.466, 1
1983698, 1.901, -0.601, 0.024, -0.171, -0.232, 0.402, 1
1983718, 1.606, -0.508, 0.081, -0.147, -0.074, 0.417, 1
1983738, 1.671, -0.354, 0.098, -0.053, 0.089, 0.37, 1
1983758, 1.491, -0.346, 0.145, -0.007, 0.053, 0.284, 1
1983778, 0.964, -0.382, 0.085, -0.035, -0.058, 0.169, 1
1983798, 0.24, 0.001, -0.048, -0.08, -0.058, 0.128, 1
1983818, -0.097, 0.011, -0.114, -0.037, 0.037, 0.135, 1
1983838, -0.056, -0.033, -0.12, -0.031, 0.12, 0.165, 1
1983858, -0.054, -0.031, -0.018, -0.022, 0.121, 0.141, 1
1983878, -0.178, 0.007, -0.103, -0.004, 0.041, 0.069, 1
1983898, -0.316, -0.089, -0.157, -0.056, 0.01, 0.077, 1
1983918, -0.405, -0.109, -0.105, -0.058, 0.072, 0.062, 1
1983938, -0.136, 0.001, -0.093, -0.002, 0.072, 0.042, 1
1983958, -0.258, -0.165, -0.274, -0.026, 0.029, 0.017, 1
1983978, -0.293, -0.094, -0.242, -0.065, -0.004, -0.008, 1
1983998, -0.291, 0.029, -0.008, -0.06, 0.018, -0.001, 1
1984018, -0.155, 0.233, 0.172, 0.064, -0.02, -0.03, 1
1984038, -0.335, -0.067, -0.009, 0.115, -0.053, -0.037, 1
1984058, -0.32, -0.438, -0.298, -0.06, 0.047, -0.023, 0
1984078, 0.05, -0.181, -0.146, -0.084, 0.086, -0.023, 0
1984098, 0.423, -0.1, -0.147, -0.112, 0.111, 0.037, 0
1984118, 1.202, 0.267, 0.488, 0.069, -0.012, 0.056, 0
1984138, 1.942, 0.141, 0.511, 0.28, -0.074, 0.113, 0
1984158, 3.29, -0.803, 0.125, 0.334, -0.151, 0.169, 0
1984178, 4.425, -1.862, -0.321, 0.252, -0.078, 0.055, 0
1984198, 5.305, -2.114, -0.634, 0.185, 0.101, -0.235, 0
1984218, 5.958, -2.101, -0.712, 0.212, 0.073, -0.492, 0
1984238, 5.834, -2.539, -0.968, 0.161, 0.051, -0.724, 0
1984258, 4.949, -2.461, -1.097, 0.135, 0.132, -0.932, 0
1984278, 4.069, -2.097, -0.906, 0.155, 0.258, -1.111, 0
1984298, 2.774, -1.65, -0.865, 0.175, 0.376, -1.25, 0
1984318, 1.722, -1.198, -1.043, 0.233, 0.44, -1.223, 0
1984338, 1.006, -1.138, -1.029, 0.282, 0.627, -1.227, 0
1984358, 0.182, -1.099, -1.048, 0.214, 0.757, -1.275, 0
1984378, -0.721, -1.035, -1.405, 0.273, 0.751, -1.243, 0
1984398, -0.826, -1.339, -1.47, 0.287, 0.759, -1.205, 0
1984418, -0.564, -1.924, -1.106, 0.204, 0.679, -1.375, 0
1984438, -1.006, -1.879, -0.814, 0.04, 0.527, -1.553, 0
1984458, -1.211, -1.623, -0.76, -0.01, 0.368, -1.698, 0
1984478, -2.816, -1.338, -1.57, 0.0, 0.218, -1.716, 0
1984498, -3.316, -0.787, -1.252, -0.039, 0.262, -1.602, 0
1984518, -3.4, -0.586, -0.752, -0.034, 0.409, -1.467, 0
1984538, -3.62, -0.818, -0.57, -0.01, 0.502, -1.443, 0
1984558, -3.81, -0.719, -0.554, -0.016, 0.508, -1.399, 0
1984578, -4.014, -0.618, -0.399, -0.091, 0.431, -1.394, 0
1984598, -3.941, -0.394, 0.035, -0.146, 0.28, -1.345, 0
1984618, -4.712, -0.648, -0.239, -0.165, 0.081, -1.315, 0
1984638, -4.671, -0.6, -0.199, -0.202, 0.043, -1.166, 0
1984658, -4.118, -0.905, 0.104, -0.167, 0.034, -1.026, 0
1984678, -3.13, -1.114, 0.4, -0.15, -0.032, -0.955, 0
1984698, -4.06, -0.654, -0.261, -0.183, -0.2, -0.915, 0
1984718, -4.323, -0.134, -0.046, -0.211, -0.048, -0.739, 0
1984738, -3.412, 0.16, 0.624, -0.156, 0.172, -0.513, 0
1984758, -2.755, -0.125, 0.795, -0.07, 0.164, -0.359, 0
1984778, -2.429, -0.385, 0.723, -0.047, 0.097, -0.296, 0
1984798, -2.695, -0.385, 0.483, -0.072, 0.11, -0.262, 0
1984818, -2.577, 0.078, 0.84, -0.105, 0.147, -0.078, 0
1984838, -2.258, 0.147, 0.962, -0.065, 0.062, 0.103, 0
1984858, -1.921, -0.283, 0.555, -0.07, 0.109, 0.254, 1
1984878, -1.859, -0.649, -0.227, -0.18, 0.235, 0.424, 1
1984898, -1.986, -0.459, -0.407, -0.399, 0.306, 0.469, 1
1984918, -1.9, -0.022, 0.071, -0.351, 0.229, 0.5, 1
1984938, -1.197, -0.014, 0.251, -0.233, -0.076, 0.537, 1
1984958, -1.805, -0.665, -0.242, -0.186, -0.221, 0.507, 1
1984978, -1.999, -1.009, -0.719, -0.299, -0.235, 0.39, 1
1984998, -2.18, -0.464, -0.21, -0.456, -0.164, 0.315, 1
1985018, -2.303, 0.401, 0.284, -0.367, -0.187, 0.506, 1
1985038, -1.619, 0.218, 0.133, -0.285, -0.427, 0.78, 1
1985058, -1.266, -0.609, -0.319, -0.282, -0.527, 0.846, 1
1985078, -1.308, -1.555, -0.704, -0.359, -0.407, 0.788, 1
1985098, -1.237, -1.367, -0.573, -0.464, -0.32, 0.724, 1
1985118, -1.37, -1.148, -0.418, -0.546, -0.363, 0.917, 1
1985138, -1.026, -1.093, 0.021, -0.49, -0.435, 1.058, 1
1985158, -0.398, -1.359, 0.24, -0.367, -0.443, 1.075, 1
1985178, 0.298, -1.577, 0.297, -0.291, -0.444, 1.017, 1
1985198, 0.665, -1.358, -0.048, -0.277, -0.555, 0.945, 1
1985218, 0.395, -1.209, -0.626, -0.345, -0.758, 1.036, 1
1985238, -0.04, -0.873, -0.863, -0.33, -0.735, 1.109, 1
1985258, 0.365, -0.886, -0.839, -0.255, -0.574, 1.25, 1
1985278, 1.363, -0.757, -0.674, -0.116, -0.544, 1.258, 1
1985298, 1.679, -0.946, -0.999, -0.027, -0.629, 1.384, 1
1985318, 1.831, -1.306, -1.286, -0.129, -0.572, 1.353, 1
1985338, 2.794, -1.799, -1.487, -0.307, -0.439, 1.177, 1
1985358, 2.961, -1.374, -1.109, -0.296, -0.443, 0.988, 1
1985378, 2.727, -1.44, -1.121, -0.178, -0.489, 0.954, 1
1985398, 2.232, -1.204, -1.154, -0.188, -0.515, 0.989, 1
1985418, 2.086, -1.226, -1.078, -0.264, -0.394, 1.034, 1
1985438, 2.624, -0.974, -0.618, -0.258, -0.256, 0.964, 1
1985458, 2.689, -1.374, -0.252, -0.136, -0.208, 0.848, 1
1985478, 2.666, -1.359, 0.164, -0.085, -0.241, 0.717, 1
1985498, 2.037, -1.355, 0.021, -0.094, -0.266, 0.608, 1
1985518, 1.175, -0.97, -0.132, -0.24, -0.158, 0.603, 1
1985538, 1.514, -0.322, 0.112, -0.207, -0.079, 0.745, 1
1985558, 1.95, -0.739, -0.145, -0.017, -0.107, 0.767, 1
1985578, 2.236, -1.028, -0.263, 0.047, -0.113, 0.637, 1
1985598, 2.062, -1.061, -0.372, 0.021, -0.084, 0.518, 1
1985618, 1.835, -0.765, -0.622, -0.077, -0.036, 0.542, 1
1985638, 1.735, -0.389, -0.522, -0.112, -0.006, 0.579, 1
1985658, 1.787, -0.572, -0.575, -0.002, 0.043, 0.483, 1
1985678, 1.548, -0.616, -0.541, -0.026, 0.046, 0.426, 1
1985698, 1.178, -0.679, -0.459, -0.07, 0.051, 0.319, 1
1985718, 0.641, -0.551, -0.211, -0.15, 0.054, 0.246, 1
1985738, 0.221, -0.449, 0.134, -0.213, 0.059, 0.212, 1
1985758, 0.155, -0.238, 0.564, -0.227, 0.107, 0.177, 1
1985778, 0.051, -0.085, 0.664, -0.133, 0.135, 0.166, 1
1985798, -0.021, -0.017, 0.352, -0.004, 0.056, 0.109, 1
1985818, -0.483, -0.247, -0.208, 0.032, -0.068, 0.08, 1
1985838, -0.72, -0.129, -0.557, -0.004, 0.033, 0.077, 1
1985858, -0.551, -0.119, -0.594, -0.076, 0.1, 0.069, 1
1985878, -0.234, 0.058, -0.321, -0.048, 0.06, 0.032, 1
1985898, -0.422, 0.039, -0.213, 0.009, 0.043, 0.039, 1
1985918, -0.432, -0.016, -0.299, 0.053, 0.032, 0.07, 1
1985938, -0.353, -0.036, -0.327, 0.01, 0.011, 0.098, 1
1985958, -0.293, 0.051, -0.2, 0.031, 0.025, 0.07, 1
1985978, -0.087, 0.184, -0.019, 0.166, 0.021, 0.04, 1
1985998, 0.343, -0.141, 0.111, 0.303, -0.031, -0.011, 1
1986018, 0.753, -0.399, 0.263, 0.387, -0.025, -0.038, 1
1986038, 1.582, -0.726, 0.148, 0.402, -0.132, -0.006, 0
1986058, 1.689, -0.375, -0.166, 0.384, -0.131, 0.014, 0
1986078, 1.986, -0.388, -0.069, 0.393, -0.057, 0.162, 0
1986098, 2.996, -0.767, -0.23, 0.361, 0.071, 0.117, 0
1986118, 4.47, -1.015, -0.617, 0.443, 0.083, -0.135, 0
1986138, 4.966, -2.015, -0.889, 0.32, 0.17, -0.514, 0
1986158, 4.884, -2.536, -1.244, 0.051, 0.235, -0.753, 0
1986178, 4.356, -2.327, -1.407, -0.117, 0.361, -0.946, 0
1986198, 4.149, -1.856, -1.493, -0.037, 0.419, -1.095, 0
1986218, 3.659, -1.883, -2.013, 0.028, 0.472, -1.309, 0
1986238, 2.454, -2.15, -2.293, -0.136, 0.626, -1.444, 0
1986258, 2.27, -1.839, -1.619, -0.202, 0.759, -1.457, 0
1986278, 2.008, -1.901, -1.015, -0.122, 0.736, -1.59, 0
1986298, 0.851, -1.891, -1.927, -0.082, 0.648, -1.612, 0
1986318, -1.337, -2.312, -2.484, -0.161, 0.811, -1.667, 0
1986338, -2.411, -1.698, -2.572, -0.329, 0.91, -1.78, 0
1986358, -3.486, -1.175, -1.958, -0.408, 0.966, -1.624, 0
1986378, -3.296, -1.654, -1.074, -0.231, 1.104, -1.435, 0
1986398, -2.479, -2.284, -0.278, -0.058, 1.089, -1.315, 0
1986418, -2.523, -2.992, -0.043, 0.031, 0.835, -1.354, 0
1986438, -3.197, -3.27, -0.146, -0.105, 0.677, -1.505, 0
1986458, -3.204, -3.333, 0.264, -0.226, 0.535, -1.641, 0
1986478, -3.67, -2.882, 0.43, -0.25, 0.329, -1.716, 0
1986498, -4.476, -2.153, 0.248, -0.202, 0.22, -1.761, 0
1986518, -5.434, -1.264, 0.0, -0.187, 0.171, -1.648, 0
1986538, -5.555, -0.877, -0.133, -0.181, 0.196, -1.429, 0
1986558, -5.161, -0.729, -0.15, -0.193, 0.217, -1.224, 0
1986578, -5.09, -0.406, 0.116, -0.257, 0.153, -1.098, 0
1986598, -5.215, -0.086, 0.424, -0.237, 0.091, -0.934, 0
1986618, -5.095, -0.041, 0.593, -0.177, 0.167, -0.738, 0
1986638, -4.261, -0.303, 0.724, -0.055, 0.218, -0.53, 0
1986658, -3.393, -0.44, 0.753, -0.01, 0.126, -0.395, 0
1986678, -2.876, -0.448, 0.818, 0.013, -0.05, -0.315, 0
1986698, -2.559, -0.718, 0.486, 0.107, -0.154, -0.235, 0
1986718, -2.573, -1.038, -0.198, 0.139, -0.091, -0.17, 0
1986738, -2.337, -0.701, -0.175, 0.062, 0.038, -0.092, 0
1986758, -2.35, -0.597, -0.096, 0.031, 0.097, 0.011, 0
1986778, -2.457, -0.549, -0.048, -0.014, 0.111, 0.174, 0
1986798, -2.751, -0.65, -0.182, -0.045, 0.287, 0.346, 0
1986818, -2.836, -0.738, -0.206, -0.206, 0.448, 0.56, 1
1986838, -2.503, -0.75, 0.126, -0.407, 0.488, 0.78, 1
1986858, -2.409, -0.542, -0.148, -0.517, 0.291, 0.853, 1
1986878, -1.976, -0.457, -0.09, -0.449, -0.044, 0.852, 1
1986898, -2.704, -1.085, -0.414, -0.441, -0.047, 0.82, 1
1986918, -2.68, -1.071, -0.553, -0.468, -0.038, 0.847, 1
1986938, -2.659, -0.894, -0.309, -0.466, -0.088, 0.941, 1
1986958, -2.348, -0.884, -0.17, -0.384, -0.18, 1.012, 1
1986978, -1.79, -1.229, -0.116, -0.37, -0.295, 1.04, 1
1986998, -1.983, -1.56, -0.218, -0.359, -0.337, 1.072, 1
1987018, -1.928, -1.259, 0.135, -0.403, -0.226, 1.072, 1
1987038, -1.38, -1.154, 0.403, -0.37, -0.326, 1.136, 1
1987058, -0.665, -1.266, 0.39, -0.367, -0.653, 1.207, 1
1987078, -0.472, -1.065, 0.3, -0.307, -0.898, 1.174, 1
1987098, -0.339, -0.946, 0.115, -0.11, -0.962, 1.198, 1
1987118, -0.401, -1.14, -0.374, -0.042, -0.828, 1.175, 1
1987138, 0.028, -1.436, -0.877, -0.084, -0.826, 1.23, 1
1987158, 0.913, -1.538, -0.926, -0.187, -1.04, 1.257, 1
1987178, 1.229, -1.601, -0.85, -0.15, -1.166, 1.156, 1
1987198, 0.884, -1.58, -0.92, -0.08, -0.991, 1.11, 1
1987218, 1.232, -1.524, -0.767, 0.079, -0.699, 0.959, 1
1987238, 1.64, -2.106, -1.383, 0.042, -0.755, 1.004, 1
1987258, 1.836, -1.799, -1.562, -0.277, -1.031, 1.071, 1
1987278, 2.032, -1.34, -1.215, -0.307, -1.048, 0.818, 1
1987298, 0.784, -0.025, -1.845, -0.136, -0.915, 0.956, 1
1987318, 1.29, -0.468, -2.023, -0.003, -0.649, 1.133, 1
1987338, 1.989, -1.075, -1.868, -0.091, -0.549, 1.315, 1
1987358, 2.454, -1.05, -1.194, -0.187, -0.473, 1.319, 1
1987378, 2.609, -1.109, -0.763, -0.166, -0.394, 1.24, 1
1987398, 2.734, -0.865, -0.752, -0.052, -0.398, 1.216, 1
1987418, 2.645, -1.439, -1.156, 0.103, -0.412, 1.175, 1
1987438, 2.466, -1.84, -1.316, 0.028, -0.312, 1.106, 1
1987458, 2.693, -1.674, -0.936, -0.124, -0.078, 0.959, 1
1987478, 2.663, -1.41, -0.379, -0.174, 0.042, 0.771, 1
1987498, 2.299, -0.946, -0.06, -0.18, 0.044, 0.661, 1
1987518, 1.499, -0.742, 0.042, -0.135, -0.016, 0.585, 1
1987538, 0.989, -0.531, -0.105, -0.028, 0.015, 0.544, 1
1987558, 0.661, -0.539, -0.094, -0.003, 0.14, 0.533, 1
1987578, 0.828, -0.352, 0.254, -0.056, 0.251, 0.552, 1
1987598, 0.934, -0.409, 0.337, -0.062, 0.218, 0.497, 1
1987618, 0.874, -0.52, 0.137, -0.001, 0.059, 0.367, 1
1987638, 0.28, -0.594, -0.265, -0.031, -0.031, 0.336, 1
1987658, 0.246, -0.496, -0.378, -0.143, 0.095, 0.355, 1
1987678, 0.496, -0.248, -0.114, -0.143, 0.231, 0.279, 1
1987698, 0.405, -0.146, 0.022, -0.049, 0.219, 0.181, 1
1987718, -0.032, -0.21, -0.136, 0.009, 0.139, 0.064, 1
1987738, -0.28, -0.071, -0.192, -0.049, 0.026, 0.017, 1
1987758, -0.643, 0.141, -0.157, -0.168, 0.034, 0.018, 1
1987778, -0.731, 0.209, -0.016, -0.131, 0.124, 0.054, 1
1987798, -0.635, 0.148, -0.029, -0.064, 0.135, 0.07, 1
1987818, -0.662, -0.095, -0.136, -0.054, 0.122, 0.085, 1
1987838, -0.441, -0.075, -0.048, -0.062, 0.053, 0.068, 1
1987858, -0.525, -0.105, -0.031, -0.115, 0.01, 0.049, 1
1987878, -0.632, -0.205, 0.044, -0.161, 0.072, 0.067, 1
1987898, -0.502, -0.244, 0.122, -0.149, 0.142, 0.082, 1
1987918, -0.186, -0.341, 0.04, -0.081, 0.103, 0.099, 1
1987938, -0.065, -0.44, 0.116, -0.084, 0.109, 0.101, 1
1987958, 0.456, -0.145, 0.366, 0.062, 0.055, 0.067, 1
1987978, 0.792, -0.398, 0.462, 0.142, -0.034, 0.103, 1
1987998, 1.375, -0.532, 0.547, 0.177, -0.117, 0.202, 1
1988018, 2.178, -0.833, 0.534, 0.227, -0.014, 0.043, 1
1988038, 3.767, -1.263, 0.352, 0.14, -0.032, -0.243, 0
1988058, 4.519, -0.859, -0.132, 0.241, -0.2, -0.539, 0
1988078, 3.687, -1.148, -0.704, 0.361, -0.115, -0.67, 0
1988098, 2.899, -1.605, -1.79, 0.237, 0.241, -0.835, 0
1988118, 2.752, -1.329, -2.325, -0.031, 0.576, -1.073, 0
1988138, 2.399, -0.814, -2.054, -0.193, 0.807, -1.091, 0
1988158, 2.287, -0.797, -1.456, -0.163, 0.929, -0.997, 0
1988178, 2.982, -0.281, -0.683, 0.152, 0.805, -1.015, 0
1988198, 2.935, -1.133, -1.161, 0.4, 0.62, -1.145, 0
1988218, 1.96, -2.07, -2.287, 0.208, 0.609, -1.353, 0
1988238, 0.578, -1.424, -2.581, 0.039, 0.701, -1.528, 0
1988258, -0.316, -1.247, -1.394, 0.167, 0.857, -1.448, 0
1988278, 0.205, -2.574, -1.868, 0.273, 0.756, -1.533, 0
1988298, -1.413, -2.373, -2.508, 0.12, 0.645, -1.647, 0
1988318, -3.107, -1.848, -2.362, -0.113, 0.646, -1.712, 0
1988338, -3.574, -1.698, -1.449, -0.181, 0.825, -1.731, 0
1988358, -3.414, -1.789, -0.597, -0.086, 0.876, -1.644, 0
1988378, -4.117, -1.888, -0.358, 0.003, 0.778, -1.609, 0
1988398, -4.355, -1.968, 0.068, -0.012, 0.71, -1.533, 0
1988418, -4.339, -2.266, 0.14, -0.098, 0.505, -1.469, 0
1988438, -4.921, -2.091, 0.531, -0.232, 0.37, -1.576, 0
1988458, -5.19, -1.27, 1.207, -0.274, 0.314, -1.587, 0
1988478, -5.283, -0.868, 1.01, -0.166, 0.117, -1.486, 0
1988498, -5.202, -0.741, 0.576, -0.111, -0.07, -1.348, 0
1988518, -5.209, -0.686, -0.023, -0.116, -0.122, -1.238, 0
1988538, -5.096, -0.543, -0.284, -0.098, -0.035, -1.103, 0
1988558, -4.781, -0.673, -0.215, -0.084, 0.076, -0.978, 0
1988578, -4.453, -0.358, 0.115, -0.12, 0.109, -0.844, 0
1988598, -4.456, -0.072, 0.211, -0.084, 0.076, -0.65, 0
1988618, -4.298, 0.001, 0.267, 0.003, 0.13, -0.431, 0
1988638, -3.717, -0.459, 0.275, 0.055, 0.213, -0.309, 0
1988658, -3.408, -0.487, 0.37, 0.001, 0.198, -0.265, 0
1988678, -3.664, -0.261, 0.251, -0.045, 0.062, -0.176, 0
1988698, -3.861, 0.016, 0.307, -0.07, 0.04, -0.029, 0
1988718, -3.453, 0.019, 0.45, -0.037, 0.093, 0.14, 0
1988738, -3.045, -0.326, 0.3, -0.05, 0.11, 0.415, 0
1988758, -2.733, -0.768, -0.171, -0.3, 0.196, 0.748, 1
1988778, -2.443, -1.054, -0.551, -0.579, 0.211, 0.996, 1
1988798, -1.974, -0.761, -0.192, -0.588, 0.013, 0.867, 1
1988818, -1.837, -0.455, 0.014, -0.464, -0.18, 0.817, 1
1988838, -2.172, -0.737, -0.312, -0.293, -0.18, 0.764, 1
1988858, -2.464, -1.117, -0.611, -0.221, -0.007, 0.696, 1
1988878, -2.39, -1.383, -0.474, -0.364, 0.067, 0.671, 1
1988898, -2.038, -0.995, 0.093, -0.397, -0.039, 0.681, 1
1988918, -1.891, -0.501, 0.498, -0.276, -0.186, 0.801, 1
1988938, -1.654, -0.595, 0.597, -0.051, -0.31, 0.824, 1
1988958, -1.798, -1.399, 0.063, 0.011, -0.4, 0.958, 1
1988978, -1.791, -1.244, -0.022, -0.032, -0.364, 1.04, 1
1988998, -1.639, -1.244, -0.043, -0.075, -0.323, 1.144, 1
1989018, -0.65, -1.392, -0.073, -0.137, -0.471, 1.16, 1
1989038, -0.087, -1.5, -0.134, -0.159, -0.614, 0.993, 1
1989058, -0.166, -1.272, -0.54, -0.181, -0.701, 1.023, 1
1989078, -0.45, -1.099, -0.821, -0.163, -0.69, 1.224, 1
1989098, -0.117, -1.228, -0.896, -0.121, -0.553, 1.281, 1
1989118, 0.711, -1.641, -0.775, -0.138, -0.52, 1.232, 1
1989138, 1.142, -1.474, -0.685, -0.138, -0.556, 1.082, 1
1989158, 1.098, -1.538, -1.009, -0.216, -0.662, 1.072, 1
1989178, 0.976, -1.151, -0.798, -0.291, -0.761, 1.186, 1
1989198, 1.127, -1.259, -0.781, -0.239, -0.659, 1.198, 1
1989218, 1.085, -1.422, -0.584, -0.192, -0.452, 1.138, 1
1989238, 1.66, -1.042, -0.867, -0.116, -0.434, 1.094, 1
1989258, 1.517, -0.515, -1.263, -0.145, -0.62, 1.123, 1
1989278, 1.347, -0.526, -1.401, -0.108, -0.577, 1.175, 1
1989298, 1.584, -0.937, -1.29, -0.089, -0.323, 1.176, 1
1989318, 2.146, -1.199, -0.964, -0.175, -0.116, 1.018, 1
1989338, 2.165, -0.762, -0.564, -0.311, -0.222, 0.85, 1
1989358, 1.326, -0.309, -0.51, -0.295, -0.405, 0.778, 1
1989378, 0.73, -0.057, -0.503, -0.167, -0.416, 0.903, 1
1989398, 0.988, -0.359, -0.616, -0.005, -0.205, 1.002, 1
1989418, 1.727, -0.896, -0.58, 0.007, -0.037, 1.044, 1
1989438, 2.23, -0.99, -0.46, -0.117, -0.035, 0.934, 1
1989458, 2.022, -0.668, -0.462, -0.224, -0.149, 0.742, 1
1989478, 1.368, -0.532, -0.483, -0.245, -0.178, 0.728, 1
1989498, 1.222, -0.553, -0.473, -0.174, -0.051, 0.718, 1
1989518, 1.227, -0.653, -0.511, -0.106, 0.043, 0.67, 1
1989538, 1.017, -0.797, -0.491, -0.186, 0.091, 0.594, 1
1989558, 0.988, -0.119, -0.096, -0.238, 0.098, 0.412, 1
1989578, 0.608, -0.298, 0.164, -0.219, -0.021, 0.339, 1
1989598, 0.1, -0.157, 0.244, -0.146, -0.152, 0.174, 1
1989618, -0.578, -0.184, 0.071, -0.096, -0.125, 0.117, 1
1989638, -0.365, -0.187, 0.084, -0.12, 0.047, 0.175, 1
1989658, 0.074, -0.199, 0.047, -0.13, 0.106, 0.174, 1
1989678, 0.021, -0.129, 0.099, -0.149, -0.019, 0.106, 1
1989698, -0.214, -0.007, 0.111, -0.017, -0.113, -0.034, 1
1989718, -0.382, -0.204, -0.009, 0.061, -0.052, 0.0, 1
1989738, -0.211, -0.126, -0.122, -0.01, 0.039, -0.006, 1
1989758, -0.059, 0.003, -0.084, -0.054, 0.021, -0.022, 1
1989778, -0.312, 0.187, -0.049, -0.013, -0.011, -0.051, 1
1989798, -0.492, 0.242, 0.094, 0.052, 0.029, -0.034, 1
1989818, -0.217, 0.074, 0.2, 0.117, 0.017, -0.062, 1
1989838, -0.045, -0.211, 0.189, 0.043, 0.011, -0.051, 1
1989858, 0.02, 0.056, 0.099, 0.172, -0.059, -0.134, 1
1989878, -0.067, -0.011, 0.05, 0.326, -0.041, -0.107, 1
1989898, 0.245, -0.436, 0.063, 0.337, 0.117, -0.007, 1
1989918, 1.227, -0.68, -0.212, 0.25, 0.109, -0.042, 0
1989938, 1.725, -0.712, -0.581, 0.074, 0.007, -0.12, 0
1989958, 2.333, -0.338, -0.089, 0.049, -0.131, -0.118, 0
1989978, 3.133, -0.306, 0.238, 0.318, -0.257, -0.049, 0
1989998, 3.884, -1.34, -0.481, 0.495, -0.018, -0.183, 0
1990018, 4.616, -1.917, -1.529, 0.311, 0.294, -0.394, 0
1990038, 4.73, -2.299, -2.19, -0.042, 0.361, -0.638, 0
1990058, 3.885, -1.675, -1.99, -0.135, 0.393, -0.811, 0
1990078, 3.143, -1.446, -1.381, 0.053, 0.613, -0.796, 0
1990098, 3.877, -1.682, -0.816, 0.268, 0.654, -0.908, 0
1990118, 3.267, -2.34, -1.22, 0.188, 0.436, -1.205, 0
1990138, 1.226, -1.731, -1.644, 0.026, 0.419, -1.441, 0
1990158, -0.327, -1.122, -1.8, 0.032, 0.582, -1.316, 0
1990178, -0.819, -0.917, -1.929, 0.124, 0.751, -1.267, 0
1990198, -1.135, -1.277, -1.818, 0.111, 0.899, -1.389, 0
1990218, -2.23, -1.499, -1.254, -0.064, 0.824, -1.55, 0
1990238, -2.403, -1.287, -0.774, -0.152, 0.701, -1.571, 0
1990258, -2.796, -1.22, -0.231, -0.065, 0.582, -1.528, 0
1990278, -3.438, -1.246, -0.598, 0.126, 0.507, -1.452, 0
1990298, -4.581, -0.995, -0.728, 0.106, 0.466, -1.22, 0
1990318, -4.063, -1.625, 0.066, 0.131, 0.635, -1.118, 0
1990338, -3.082, -1.889, 0.99, 0.109, 0.588, -1.248, 0
1990358, -3.436, -1.54, 0.974, 0.105, 0.259, -1.368, 0
1990378, -4.07, -1.267, 0.425, 0.074, 0.054, -1.407, 0
1990398, -3.841, -1.319, 0.274, 0.045, -0.1, -1.416, 0
1990418, -5.01, -0.607, -0.71, -0.077, -0.153, -1.482, 0
1990438, -5.441, 0.452, -0.388, -0.205, 0.091, -1.359, 0
1990458, -4.907, 0.398, 0.456, -0.215, 0.279, -1.168, 0
1990478, -4.408, 0.331, 0.784, -0.165, 0.165, -0.974, 0
1990498, -4.417, 0.226, 0.312, -0.105, 0.006, -0.8, 0
1990518, -4.828, 0.153, -0.14, -0.073, -0.004, -0.639, 0
1990538, -4.537, 0.129, 0.041, -0.1, 0.119, -0.472, 0
1990558, -3.967, 0.123, 0.203, -0.078, 0.091, -0.329, 0
1990578, -3.663, -0.02, -0.014, -0.064, -0.006, -0.171, 0
1990598, -3.188, -0.171, -0.095, -0.035, -0.026, -0.08, 0
1990618, -3.144, -0.012, -0.06, -0.087, 0.013, -0.009, 0
1990638, -3.116, 0.136, 0.021, -0.125, 0.093, 0.105, 0
1990658, -2.657, -0.145, 0.003, -0.131, 0.185, 0.307, 1
1990678, -1.962, -0.385, -0.065, -0.232, 0.27, 0.521, 1
1990698, -1.982, -0.432, 0.089, -0.362, 0.302, 0.651, 1
1990718, -1.777, -0.306, 0.432, -0.306, 0.201, 0.709, 1
1990738, -1.576, -0.419, 0.159, -0.175, 0.105, 0.784, 1
1990758, -1.445, -1.015, -0.424, -0.167, 0.103, 0.759, 1
1990778, -1.527, -1.556, -0.52, -0.278, 0.109, 0.596, 1
1990798, -1.478, -0.79, -0.097, -0.304, 0.02, 0.506, 1
1990818, -1.37, -0.455, -0.104, -0.238, -0.113, 0.597, 1
1990838, -1.5, -1.128, -0.444, -0.285, -0.211, 0.64, 1
1990858, -1.286, -1.515, -0.53, -0.388, -0.219, 0.58, 1
1990878, -1.428, -1.355, -0.453, -0.458, -0.17, 0.521, 1
1990898, -1.354, -1.136, -0.299, -0.532, -0.202, 0.544, 1
1990918, -0.981, -1.138, -0.099, -0.638, -0.368, 0.58, 1
1990938, -0.984, -1.072, 0.215, -0.622, -0.447, 0.619, 1
1990958, -0.713, -0.467, 0.352, -0.448, -0.491, 0.702, 1
1990978, -0.29, -0.82, 0.053, -0.322, -0.509, 0.735, 1
1990998, -0.095, -1.124, -0.481, -0.358, -0.51, 0.645, 1
1991018, 0.101, -1.074, -0.608, -0.492, -0.605, 0.808, 1
1991038, -0.014, -0.525, -0.353, -0.47, -0.546, 0.889, 1
1991058, 0.036, 0.058, -0.258, -0.274, -0.476, 1.068, 1
1991078, 0.383, -0.174, -0.317, -0.102, -0.406, 1.127, 1
1991098, 1.36, -0.744, -0.55, -0.015, -0.506, 1.035, 1
1991118, 1.534, -1.338, -1.165, -0.187, -0.797, 1.289, 1
1991138, 1.268, -1.188, -1.103, -0.292, -0.645, 1.251, 1
1991158, 1.35, -1.108, -1.134, -0.287, -0.38, 1.193, 1
1991178, 2.036, -1.114, -0.87, -0.218, -0.35, 1.15, 1
1991198, 2.556, -1.236, -0.712, -0.042, -0.465, 1.187, 1
1991218, 2.644, -1.65, -0.987, -0.061, -0.594, 1.224, 1
1991238, 2.576, -1.459, -1.228, -0.241, -0.578, 0.946, 1
1991258, 1.708, -0.685, -0.981, -0.386, -0.506, 0.762, 1
1991278, 1.481, -0.078, -0.421, -0.335, -0.37, 0.888, 1
1991298, 1.446, -0.258, -0.245, -0.147, -0.263, 0.975, 1
1991318, 1.732, -0.916, -0.308, -0.057, -0.263, 1.015, 1
1991338, 1.663, -1.183, -0.198, -0.169, -0.32, 0.937, 1
1991358, 1.565, -1.067, 0.234, -0.167, -0.296, 0.726, 1
1991378, 1.322, -0.733, 0.229, -0.082, -0.265, 0.667, 1
1991398, 1.131, -1.006, -0.398, 0.034, -0.226, 0.715, 1
1991418, 1.168, -1.284, -1.036, -0.015, -0.105, 0.747, 1
1991438, 1.439, -0.957, -1.068, -0.125, 0.042, 0.707, 1
1991458, 1.304, -0.656, -0.856, -0.125, 0.156, 0.598, 1
1991478, 1.105, -0.362, -0.411, -0.115, 0.27, 0.515, 1
1991498, 0.992, -0.5, -0.248, -0.065, 0.361, 0.455, 1
1991518, 1.166, -0.51, -0.101, -0.148, 0.269, 0.535, 1
1991538, 1.14, -0.53, 0.14, -0.205, 0.2, 0.484, 1
1991558, 1.053, -0.59, 0.128, -0.188, 0.144, 0.294, 1
1991578, 0.655, -0.563, 0.138, -0.153, 0.049, 0.115, 1
1991598, 0.085, -0.438, -0.022, -0.138, 0.018, 0.06, 1
1991618, -0.162, -0.205, -0.076, -0.149, 0.037, 0.083, 1
1991638, -0.238, -0.125, -0.094, -0.15, 0.069, 0.066, 1
1991658, -0.206, 0.007, 0.028, -0.149, 0.051, 0.01, 1
1991678, -0.329, 0.075, 0.122, -0.081, 0.005, -0.056, 1
1991698, -0.28, -0.022, 0.171, -0.036, -0.01, -0.04, 1
1991718, -0.194, -0.261, 0.069, -0.054, -0.037, -0.042, 1
1991738, -0.181, -0.225, 0.015, -0.086, -0.049, -0.09, 1
1991758, -0.131, -0.119, 0.116, -0.056, -0.039, -0.131, 1
1991778, -0.002, -0.044, 0.275, -0.004, -0.054, -0.214, 1
1991798, 0.025, -0.006, 0.419, 0.136, -0.116, -0.265, 1
1991818, 0.095, -0.136, 0.255, 0.2, -0.221, -0.299, 1
1991838, 0.043, 0.08, 0.18, 0.415, -0.232, -0.489, 1
1991858, 0.497, -0.068, 0.509, 0.609, -0.232, -0.562, 0
1991878, 0.83, -0.111, 0.219, 0.661, -0.25, -0.364, 0
1991898, 1.184, -0.526, -0.259, 0.576, -0.232, -0.23, 0
1991918, 1.786, -0.787, -0.407, 0.483, -0.108, -0.244, 0
1991938, 2.559, -0.898, -0.568, 0.336, 0.004, -0.249, 0
1991958, 3.393, -1.25, -0.84, 0.161, 0.1, -0.277, 0
1991978, 3.812, -1.11, -1.692, 0.051, 0.162, -0.466, 0
1991998, 3.02, -1.006, -2.174, -0.139, 0.339, -0.569, 0
1992018, 2.546, -0.258, -1.708, -0.065, 0.496, -0.554, 0
1992038, 2.934, -0.778, -1.431, 0.023, 0.619, -0.546, 0
1992058, 3.349, -1.373, -1.561, 0.02, 0.71, -0.766, 0
1992078, 2.895, -2.136, -1.618, -0.119, 0.796, -1.127, 0
1992098, 1.844, -1.927, -1.218, -0.217, 0.781, -1.323, 0
1992118, 1.115, -1.705, -1.289, -0.217, 0.703, -1.451, 0
1992138, -0.083, -1.296, -1.896, -0.194, 0.78, -1.51, 0
1992158, -1.673, -0.749, -2.074, -0.199, 1.081, -1.373, 0
1992178, -1.177, -0.851, -0.657, -0.128, 1.103, -1.319, 0
1992198, -2.093, -1.083, -1.33, 0.031, 0.839, -1.344, 0
1992218, -3.002, -1.06, -1.47, 0.087, 0.769, -1.294, 0
1992238, -2.993, -1.646, -1.203, 0.075, 0.864, -1.278, 0
1992258, -2.897, -1.63, -0.96, -0.019, 0.927, -1.384, 0
1992278, -3.1, -1.386, -0.663, -0.008, 0.822, -1.41, 0
1992298, -3.853, -1.398, -0.628, 0.025, 0.734, -1.4, 0
1992318, -3.674, -1.252, 0.047, -0.021, 0.637, -1.323, 0
1992338, -3.24, -1.526, 0.607, -0.026, 0.362, -1.255, 0
1992358, -3.195, -1.397, 0.591, -0.009, 0.097, -1.291, 0
1992378, -3.477, -1.597, 0.229, 0.048, -0.087, -1.317, 0
1992398, -3.953, -1.479, -0.005, -0.018, -0.089, -1.289, 0
1992418, -4.461, -1.482, -0.471, -0.083, -0.019, -1.277, 0
1992438, -4.641, -0.922, -0.238, -0.202, 0.122, -1.139, 0
1992458, -4.29, -0.391, 0.579, -0.181, 0.224, -1.025, 0
1992478, -4.233, -0.211, 0.83, -0.036, 0.21, -0.843, 0
1992498, -4.382, -0.385, 0.602, 0.102, 0.2, -0.671, 0
1992518, -4.315, -0.474, 0.547, 0.103, 0.335, -0.552, 0
1992538, -3.759, -0.386, 0.628, 0.039, 0.345, -0.442, 0
1992558, -3.547, -0.274, 0.617, 0.0, 0.132, -0.306, 0
1992578, -3.46, -0.328, 0.483, 0.073, 0.008, -0.203, 0
1992598, -3.455, -0.386, -0.014, 0.125, 0.075, -0.107, 0
1992618, -3.304, -0.189, -0.113, 0.078, 0.12, -0.006, 0
1992638, -3.161, -0.073, -0.026, 0.007, 0.097, 0.196, 0
1992658, -2.704, -0.142, 0.071, -0.064, -0.013, 0.341, 0
1992678, -2.536, -0.186, -0.018, -0.11, 0.0, 0.488, 0
1992698, -2.378, -0.26, -0.385, -0.201, 0.036, 0.666, 1
1992718, -2.365, -0.308, -0.618, -0.328, 0.061, 0.797, 1
1992738, -2.361, -1.02, -1.069, -0.518, 0.026, 0.828, 1
1992758, -2.496, -0.901, -0.58, -0.598, 0.045, 0.773, 1
1992778, -2.518, -0.263, 0.211, -0.502, 0.019, 0.826, 1
1992798, -2.482, -0.064, 0.429, -0.263, -0.035, 0.923, 1
1992818, -2.113, -0.794, -0.014, -0.136, -0.11, 0.952, 1
1992838, -1.919, -1.772, -0.546, -0.217, -0.189, 0.89, 1
1992858, -1.953, -1.955, -0.641, -0.414, -0.181, 0.815, 1
1992878, -2.135, -1.16, -0.26, -0.522, -0.152, 0.787, 1
1992898, -2.056, -0.705, 0.002, -0.443, -0.244, 1.022, 1
1992918, -1.44, -0.981, 0.133, -0.262, -0.332, 1.116, 1
1992938, -0.895, -1.503, -0.017, -0.223, -0.39, 1.1, 1
1992958, -0.425, -1.641, -0.12, -0.252, -0.501, 1.03, 1
1992978, -0.394, -1.361, -0.433, -0.355, -0.685, 1.026, 1
1992998, -0.482, -0.866, -0.517, -0.43, -0.843, 1.078, 1
1993018, -0.141, -0.669, -0.602, -0.368, -0.926, 1.221, 1
1993038, 0.202, -0.766, -0.733, -0.219, -0.866, 1.346, 1
1993058, 0.762, -1.106, -0.949, -0.088, -0.72, 1.409, 1
1993078, 1.324, -1.419, -1.311, -0.058, -0.626, 1.409, 1
1993098, 1.844, -1.816, -1.667, -0.16, -0.688, 1.456, 1
1993118, 2.227, -1.865, -1.447, -0.254, -0.703, 1.399, 1
1993138, 2.445, -1.937, -1.048, -0.218, -0.512, 1.279, 1
1993158, 3.063, -1.614, -0.881, -0.151, -0.419, 1.15, 1
1993178, 2.869, -1.835, -1.215, -0.161, -0.462, 1.042, 1
1993198, 2.631, -1.288, -0.917, -0.307, -0.561, 1.037, 1
1993218, 2.55, -1.134, -0.637, -0.296, -0.461, 0.954, 1
1993238, 2.507, -0.961, -0.658, -0.196, -0.362, 0.899, 1
1993258, 2.414, -1.107, -0.578, -0.095, -0.342, 0.866, 1
1993278, 2.379, -1.196, -0.526, -0.073, -0.329, 0.851, 1
1993298, 2.296, -1.085, -0.396, -0.102, -0.333, 0.789, 1
1993318, 1.882, -0.517, -0.464, -0.12, -0.254, 0.659, 1
1993338, 1.486, -0.222, -0.589, -0.072, -0.156, 0.696, 1
1993358, 1.512, -0.605, -0.641, -0.019, -0.036, 0.736, 1
1993378, 1.992, -1.014, -0.342, -0.134, 0.062, 0.712, 1
1993398, 2.229, -0.608, -0.087, -0.21, 0.045, 0.546, 1
1993418, 1.694, -0.487, -0.311, -0.131, -0.061, 0.442, 1
1993438, 1.205, -0.62, -0.366, -0.061, -0.053, 0.374, 1
1993458, 1.185, -0.681, -0.411, -0.061, 0.018, 0.343, 1
1993478, 1.007, -0.547, -0.262, -0.109, 0.023, 0.277, 1
1993498, 0.652, -0.291, -0.213, -0.15, 0.026, 0.188, 1
1993518, 0.31, -0.135, -0.254, -0.161, 0.017, 0.174, 1
1993538, -0.029, -0.057, -0.358, -0.137, 0.025, 0.159, 1
1993558, -0.086, -0.11, -0.207, -0.113, 0.098, 0.167, 1
1993578, 0.014, -0.207, 0.052, -0.095, 0.14, 0.138, 1
1993598, -0.011, -0.141, 0.066, -0.098, 0.101, 0.025, 1
1993618, -0.415, -0.033, 0.025, -0.149, 0.001, 0.006, 1
1993638, -0.731, 0.031, 0.052, -0.133, 0.05, 0.041, 1
1993658, -0.624, 0.117, 0.197, -0.021, 0.089, 0.063, 1
1993678, -0.462, 0.051, 0.274, 0.026, 0.054, 0.066, 1
1993698, -0.445, -0.138, 0.159, 0.026, 0.04, 0.043, 1
1993718, -0.521, -0.145, 0.004, 0.006, 0.014, 0.028, 1
1993738, -0.32, -0.061, 0.063, 0.054, -0.046, 0.0, 1
1993758, -0.142, -0.064, 0.351, 0.16, -0.056, -0.053, 1
1993778, -0.116, -0.316, 0.281, 0.153, 0.007, -0.034, 1
1993798, 0.14, -0.184, 0.368, 0.168, -0.012, -0.028, 0
1993818, 0.739, -0.327, 0.188, 0.19, -0.2, -0.065, 0
1993838, 0.926, 0.04, 0.496, 0.329, -0.303, -0.045, 0
1993858, 0.919, -0.04, 0.268, 0.485, -0.21, 0.01, 0
1993878, 1.273, -0.329, -0.303, 0.496, -0.034, 0.083, 0
1993898, 2.501, -0.718, -0.779, 0.393, 0.015, 0.144, 0
1993918, 3.021, -1.128, -1.572, 0.169, 0.087, 0.031, 0
1993938, 3.223, -0.765, -1.336, 0.054, 0.197, -0.103, 0
1993958, 3.728, -0.749, -0.818, 0.153, 0.257, -0.189, 0
1993978, 4.245, -1.296, -1.233, 0.208, 0.312, -0.337, 0
1993998, 3.912, -1.844, -1.475, 0.12, 0.465, -0.557, 0
1994018, 3.597, -2.298, -1.26, -0.055, 0.599, -0.882, 0
1994038, 3.595, -2.06, -0.781, -0.224, 0.443, -1.218, 0
1994058, 2.155, -1.349, -1.019, -0.148, 0.318, -1.391, 0
1994078, 0.331, -1.246, -1.717, -0.076, 0.526, -1.386, 0
1994098, -0.116, -1.123, -1.792, -0.045, 0.754, -1.445, 0
1994118, -0.579, -1.302, -1.355, -0.127, 0.741, -1.528, 0
1994138, -1.485, -0.825, -1.185, -0.094, 0.574, -1.478, 0
1994158, -2.275, -1.091, -1.432, -0.01, 0.443, -1.435, 0
1994178, -2.744, -1.68, -1.555, 0.0, 0.538, -1.424, 0
1994198, -3.088, -1.59, -0.947, -0.139, 0.717, -1.505, 0
1994218, -2.629, -1.194, 0.042, -0.216, 0.693, -1.464, 0
1994238, -2.698, -1.44, -0.008, -0.114, 0.419, -1.398, 0
1994258, -3.354, -1.45, -0.458, -0.085, 0.323, -1.349, 0
1994278, -3.229, -1.42, -0.008, -0.142, 0.403, -1.323, 0
1994298, -2.892, -1.453, 0.491, -0.233, 0.363, -1.3, 0
1994318, -2.827, -1.393, 0.362, -0.205, 0.061, -1.34, 0
1994338, -4.292, -1.187, -0.231, -0.155, -0.124, -1.318, 0
1994358, -4.844, -0.324, -0.331, -0.205, 0.037, -1.172, 0
1994378, -4.737, -0.064, -0.032, -0.16, 0.119, -0.894, 0
1994398, -4.02, -0.389, 0.307, -0.097, 0.114, -0.715, 0
1994418, -3.23, -0.65, 0.383, -0.072, 0.043, -0.693, 0
1994438, -3.478, -0.395, 0.078, -0.153, -0.06, -0.748, 0
1994458, -3.775, -0.156, 0.261, -0.265, -0.111, -0.759, 0
1994478, -3.303, 0.295, 0.813, -0.336, -0.125, -0.671, 0
1994498, -2.939, 0.269, 0.759, -0.246, -0.236, -0.533, 0
1994518, -3.289, 0.131, 0.343, -0.105, -0.247, -0.395, 0
1994538, -2.739, -0.214, 0.23, -0.03, -0.047, -0.21, 0
1994558, -2.043, -0.449, 0.34, -0.07, 0.105, -0.158, 0
1994578, -1.955, -0.338, 0.303, -0.088, 0.051, -0.086, 0
1994598, -1.915, -0.429, 0.364, -0.044, 0.033, 0.01, 0
1994618, -1.676, -0.415, 0.612, -0.016, 0.01, 0.067, 0
1994638, -1.905, -0.394, 0.359, -0.017, -0.005, 0.145, 0
1994658, -1.994, -0.426, 0.184, -0.042, 0.02, 0.243, 0
1994678, -1.914, -0.564, 0.361, -0.06, 0.097, 0.326, 0
1994698, -1.709, -0.674, 0.646, -0.142, 0.149, 0.417, 1
1994718, -1.723, -0.342, 0.416, -0.263, 0.167, 0.556, 1
1994738, -1.703, -0.657, -0.03, -0.424, 0.069, 0.647, 1
1994758, -1.587, -0.844, -0.291, -0.467, -0.048, 0.692, 1
1994778, -1.908, -0.667, -0.271, -0.504, 0.052, 0.632, 1
1994798, -1.704, -0.117, 0.238, -0.383, -0.013, 0.609, 1
1994818, -1.279, 0.131, 0.345, -0.188, -0.213, 0.777, 1
1994838, -1.156, -0.51, -0.05, -0.03, -0.367, 0.872, 1
1994858, -1.467, -1.665, -0.384, -0.083, -0.152, 0.874, 1
1994878, -1.157, -1.181, 0.065, -0.266, 0.163, 0.785, 1
1994898, -0.429, -0.49, 0.395, -0.281, -0.012, 0.929, 1
1994918, -0.12, -0.475, 0.449, -0.188, -0.365, 1.035, 1
1994938, -0.294, -1.201, -0.023, -0.092, -0.426, 1.13, 1
1994958, -0.382, -1.508, -0.198, -0.102, -0.177, 1.167, 1
1994978, 0.02, -1.023, -0.241, -0.12, -0.004, 1.224, 1
1994998, 0.558, -1.25, -0.404, -0.169, -0.181, 1.238, 1
1995018, 0.589, -1.471, -0.583, -0.249, -0.42, 1.142, 1
1995038, -0.075, -1.346, -0.587, -0.262, -0.353, 1.111, 1
1995058, -0.154, -1.03, -0.469, -0.236, -0.155, 1.105, 1
1995078, 0.239, -0.671, -0.457, -0.23, -0.167, 1.122, 1
1995098, 0.862, -0.509, -0.539, -0.114, -0.593, 1.307, 1
1995118, 0.903, -0.869, -1.344, -0.046, -0.56, 1.259, 1
1995138, 1.003, -0.873, -1.469, -0.069, -0.372, 1.216, 1
1995158, 1.305, -0.789, -1.436, -0.117, -0.238, 1.19, 1
1995178, 1.551, -0.92, -1.406, -0.163, -0.32, 1.279, 1
1995198, 1.652, -1.073, -1.151, -0.182, -0.375, 1.324, 1
1995218, 1.89, -1.141, -0.864, -0.193, -0.226, 1.262, 1
1995238, 2.268, -1.119, -0.812, -0.173, -0.147, 1.151, 1
1995258, 2.174, -0.99, -0.898, -0.184, -0.189, 1.065, 1
1995278, 2.238, -1.027, -0.898, -0.233, -0.25, 1.105, 1
1995298, 2.384, -0.914, -0.653, -0.25, -0.224, 1.034, 1
1995318, 2.562, -0.784, -0.565, -0.199, -0.185, 0.901, 1
1995338, 2.196, -0.694, -0.593, -0.175, -0.201, 0.789, 1
1995358, 2.232, -0.795, -0.71, -0.17, -0.189, 0.748, 1
1995378, 2.141, -0.94, -0.622, -0.221, -0.233, 0.703, 1
1995398, 1.717, -0.78, -0.583, -0.233, -0.167, 0.55, 1
1995418, 1.181, -0.456, -0.379, -0.27, -0.051, 0.507, 1
1995438, 1.068, -0.452, -0.076, -0.262, 0.043, 0.505, 1
1995458, 1.236, -0.514, 0.245, -0.242, 0.061, 0.467, 1
1995478, 1.072, -0.422, 0.235, -0.152, 0.005, 0.419, 1
1995498, 0.777, -0.51, 0.041, -0.112, 0.008, 0.413, 1
1995518, 0.916, -0.538, -0.045, -0.092, 0.05, 0.387, 1
1995538, 1.023, -0.539, -0.024, -0.045, 0.02, 0.256, 1
1995558, 0.73, -0.516, 0.034, -0.106, 0.034, 0.213, 1
1995578, 0.581, -0.285, 0.238, -0.072, 0.078, 0.125, 1
1995598, 0.521, -0.304, 0.061, -0.038, 0.047, 0.075, 1
1995618, 0.094, -0.29, -0.091, -0.091, 0.047, 0.059, 1
1995638, -0.086, -0.113, -0.008, -0.077, 0.145, 0.02, 1
1995658, -0.04, -0.041, 0.082, -0.021, 0.156, -0.072, 1
1995678, -0.247, 0.004, 0.084, -0.028, 0.09, -0.092, 1
1995698, -0.474, -0.065, 0.027, -0.091, 0.051, -0.072, 1
1995718, -0.643, 0.098, -0.002, -0.085, 0.06, -0.067, 1
1995738, -0.728, 0.143, -0.1, -0.046, 0.073, -0.03, 1
1995758, -0.856, 0.162, -0.051, 0.017, 0.095, -0.014, 1
1995778, -0.815, 0.061, 0.205, 0.07, 0.091, -0.009, 1
1995798, -0.66, -0.125, 0.239, 0.081, 0.047, 0.017, 1
1995818, -0.721, -0.205, 0.056, 0.029, 0.14, 0.043, 1
1995838, -0.273, 0.041, 0.028, 0.098, 0.246, 0.026, 1
1995858, 0.132, -0.107, 0.083, 0.184, 0.365, 0.02, 0
1995878, 1.417, -0.576, 0.124, 0.161, 0.294, -0.089, 0
1995898, 2.457, -0.757, 0.421, 0.168, -0.007, -0.144, 0
1995918, 2.895, -0.74, 0.414, 0.241, -0.149, -0.069, 0
1995938, 3.862, -0.873, -0.147, 0.489, -0.175, -0.216, 0
1995958, 4.317, -1.64, -1.172, 0.516, -0.136, -0.496, 0
1995978, 3.7, -2.188, -1.978, 0.142, 0.113, -0.733, 0
1995998, 3.044, -1.877, -1.692, -0.163, 0.361, -0.863, 0
1996018, 3.284, -1.047, -0.838, -0.013, 0.31, -0.934, 0
1996038, 3.28, -1.192, -0.393, 0.263, 0.211, -0.996, 0
1996058, 3.102, -1.856, -0.989, 0.244, 0.24, -1.342, 0
1996078, 2.375, -2.152, -2.147, -0.009, 0.282, -1.562, 0
1996098, -0.541, -1.244, -1.889, -0.048, 0.55, -1.498, 0
1996118, 0.379, -1.539, -0.989, 0.042, 0.847, -1.396, 0
1996138, 1.012, -1.988, -0.602, 0.082, 0.728, -1.477, 0
1996158, -0.483, -2.339, -1.333, 0.042, 0.313, -1.693, 0
1996178, -2.22, -2.327, -1.379, -0.081, 0.212, -1.762, 0
1996198, -2.175, -2.239, -0.479, -0.142, 0.383, -1.811, 0
1996218, -1.974, -2.446, 0.107, -0.151, 0.312, -1.94, 0
1996238, -3.828, -1.939, -0.687, -0.164, 0.048, -2.006, 0
1996258, -5.137, -1.127, -1.044, -0.168, 0.149, -1.787, 0
1996278, -4.429, -1.089, -0.565, -0.114, 0.425, -1.525, 0
1996298, -3.609, -1.25, -0.409, -0.07, 0.407, -1.488, 0
1996318, -4.061, -1.099, -0.366, -0.154, 0.246, -1.541, 0
1996338, -4.36, -0.765, -0.293, -0.235, 0.137, -1.557, 0
1996358, -4.804, -0.45, -0.258, -0.282, 0.029, -1.449, 0
1996378, -5.228, -0.199, -0.291, -0.275, -0.033, -1.267, 0
1996398, -5.623, -0.046, -0.406, -0.248, 0.065, -1.05, 0
1996418, -5.022, -0.135, 0.052, -0.259, 0.285, -0.852, 0
1996438, -4.031, -0.272, 0.637, -0.237, 0.346, -0.726, 0
1996458, -3.993, -0.355, 0.687, -0.182, 0.197, -0.609, 0
1996478, -3.916, -0.261, 0.738, -0.135, 0.141, -0.478, 0
1996498, -3.629, -0.443, 0.662, -0.086, 0.156, -0.34, 0
1996518, -3.171, -0.731, 0.725, -0.07, 0.177, -0.26, 0
1996538, -2.763, -0.523, 0.777, -0.079, 0.179, -0.226, 0
1996558, -2.661, -0.436, 0.723, -0.059, 0.028, -0.041, 0
1996578, -2.748, -0.379, 0.65, -0.009, 0.02, 0.092, 0
1996598, -2.751, -0.459, 0.4, 0.026, 0.135, 0.162, 0
1996618, -2.643, -0.409, 0.315, 0.029, 0.218, 0.25, 0
1996638, -2.494, -0.177, 0.407, 0.041, 0.194, 0.387, 0
1996658, -2.281, -0.21, 0.373, 0.07, 0.107, 0.541, 1
1996678, -2.264, -0.541, 0.093, 0.037, 0.131, 0.679, 1
1996698, -2.261, -1.392, -0.228, -0.135, 0.246, 0.832, 1
1996718, -2.447, -0.919, -0.212, -0.363, 0.339, 0.874, 1
1996738, -2.34, -0.651, -0.011, -0.42, 0.198, 0.91, 1
1996758, -2.276, -0.515, 0.006, -0.327, 0.009, 0.988, 1
1996778, -2.318, -0.884, -0.16, -0.252, 0.023, 1.038, 1
1996798, -2.189, -1.182, -0.237, -0.232, 0.0, 0.852, 1
1996818, -2.182, -1.118, -0.14, -0.32, 0.029, 0.829, 1
1996838, -1.817, -0.668, 0.09, -0.4, -0.144, 0.97, 1
1996858, -1.559, -0.48, 0.242, -0.343, -0.362, 1.119, 1
1996878, -1.385, -0.816, 0.023, -0.295, -0.431, 1.197, 1
1996898, -1.1, -0.985, -0.008, -0.291, -0.384, 1.157, 1
1996918, -0.81, -1.0, -0.336, -0.29, -0.477, 1.266, 1
1996938, -0.654, -0.875, -0.557, -0.265, -0.571, 1.421, 1
1996958, -0.436, -1.26, -0.46, -0.213, -0.459, 1.488, 1
1996978, 0.345, -1.539, -0.42, -0.182, -0.392, 1.426, 1
1996998, 1.126, -1.642, -0.488, -0.179, -0.51, 1.29, 1
1997018, 1.106, -1.769, -0.951, -0.218, -0.646, 1.18, 1
1997038, 0.967, -1.507, -1.391, -0.303, -0.822, 1.447, 1
1997058, 1.465, -1.684, -1.266, -0.302, -0.458, 1.326, 1
1997078, 1.877, -1.451, -1.046, -0.419, -0.418, 1.199, 1
1997098, 1.58, -1.074, -1.044, -0.423, -0.513, 1.131, 1
1997118, 1.503, -0.994, -0.865, -0.361, -0.569, 1.318, 1
1997138, 2.035, -1.338, -0.757, -0.174, -0.436, 1.385, 1
1997158, 2.429, -1.67, -0.869, -0.025, -0.314, 1.321, 1
1997178, 2.542, -1.733, -0.981, -0.018, -0.307, 1.176, 1
1997198, 2.204, -1.531, -1.048, -0.133, -0.394, 1.061, 1
1997218, 1.827, -1.305, -0.647, -0.26, -0.391, 1.055, 1
1997238, 1.972, -0.911, -0.334, -0.241, -0.245, 1.018, 1
1997258, 1.989, -0.994, -0.222, -0.094, -0.186, 1.035, 1
1997278, 2.017, -1.343, -0.421, -0.004, -0.147, 0.934, 1
1997298, 1.939, -1.186, -0.749, -0.082, -0.144, 0.795, 1
1997318, 1.082, -0.768, -0.737, -0.178, -0.151, 0.792, 1
1997338, 0.937, -0.443, -0.38, -0.13, 0.105, 0.928, 1
1997358, 2.025, -0.954, -0.117, 0.089, 0.337, 0.887, 1
1997378, 2.606, -1.358, -0.129, 0.113, 0.26, 0.698, 1
1997398, 2.284, -1.234, -0.351, 0.038, 0.103, 0.391, 1
1997418, 1.432, -0.967, -0.409, -0.122, 0.034, 0.281, 1
1997438, 1.095, -0.728, -0.186, -0.251, 0.101, 0.252, 1
1997458, 0.922, -0.2, 0.021, -0.229, 0.121, 0.166, 1
1997478, 0.324, -0.104, -0.041, -0.072, 0.059, 0.091, 1
1997498, 0.084, -0.254, 0.053, 0.04, 0.086, 0.008, 1
1997518, 0.077, -0.362, -0.098, -0.028, 0.091, 0.02, 1
1997538, -0.184, -0.186, -0.222, -0.194, 0.02, -0.031, 1
1997558, -0.552, 0.017, -0.231, -0.138, 0.028, -0.087, 1
1997578, -0.707, 0.063, 0.004, -0.068, 0.091, -0.051, 1
1997598, -0.412, 0.12, 0.092, 0.016, 0.076, -0.063, 1
1997618, -0.582, -0.035, -0.11, -0.025, 0.015, -0.043, 1
1997638, -0.879, -0.005, -0.277, -0.103, 0.013, -0.018, 1
1997658, -0.792, -0.078, -0.357, -0.163, 0.048, 0.004, 1
1997678, -0.7, 0.171, -0.154, -0.08, 0.029, -0.069, 1
1997698, -0.626, -0.069, -0.037, -0.067, 0.018, -0.032, 1
1997718, -0.643, -0.112, 0.011, -0.078, 0.032, -0.006, 1
1997738, -0.407, -0.13, 0.028, -0.132, -0.029, 0.029, 1
1997758, -0.253, -0.032, -0.042, -0.079, -0.098, 0.007, 1
1997778, -0.45, -0.141, -0.2, -0.08, -0.025, 0.012, 1
1997798, 0.009, -0.02, 0.134, 0.018, -0.034, -0.019, 1
1997818, 0.143, -0.148, 0.251, 0.077, -0.111, -0.063, 1
1997838, 0.183, -0.387, 0.289, 0.073, -0.138, -0.053, 1
1997858, 0.55, -0.374, 0.356, 0.139, -0.135, -0.068, 1
1997878, 1.18, -0.182, 0.648, 0.31, -0.202, -0.091, 1
1997898, 2.274, -0.635, 0.558, 0.374, -0.244, -0.12, 1
1997918, 2.989, -1.092, 0.112, 0.23, -0.247, -0.094, 0
1997938, 3.344, -1.047, -0.127, 0.161, -0.073, -0.019, 0
1997958, 4.497, -1.171, -0.357, 0.315, 0.113, -0.01, 0
1997978, 5.7, -1.505, -0.675, 0.546, 0.141, -0.299, 0
1997998, 5.943, -2.535, -1.064, 0.509, 0.064, -0.729, 0
1998018, 4.57, -2.978, -1.299, 0.007, 0.072, -1.116, 0
1998038, 2.956, -2.383, -1.871, -0.075, 0.352, -1.218, 0
1998058, 1.382, -1.072, -2.386, -0.017, 0.439, -1.277, 0
1998078, 0.908, -1.034, -1.787, 0.111, 0.726, -1.213, 0
1998098, 1.609, -1.895, -1.148, 0.202, 0.979, -1.105, 0
1998118, 1.984, -2.583, -1.221, 0.211, 0.96, -1.162, 0
1998138, 1.277, -2.958, -1.57, 0.203, 0.85, -1.389, 0
1998158, 0.599, -3.348, -1.152, 0.165, 0.725, -1.65, 0
1998178, 0.222, -3.865, -0.395, 0.03, 0.516, -1.891, 0
1998198, -0.087, -4.3, -0.314, -0.192, 0.204, -2.117, 0
1998218, -3.245, -3.134, -2.33, -0.357, -0.144, -2.419, 0
1998238, -5.538, -1.87, -2.111, -0.395, -0.06, -2.351, 0
1998258, -5.85, -1.332, -1.499, -0.255, 0.529, -2.127, 0
1998278, -5.487, -1.338, -1.033, -0.155, 0.865, -1.924, 0
1998298, -5.276, -1.08, -0.265, -0.183, 0.852, -1.877, 0
1998318, -5.312, -0.575, 0.187, -0.229, 0.58, -1.885, 0
1998338, -5.875, 0.204, 0.395, -0.285, 0.216, -1.811, 0
1998358, -6.645, 0.947, 0.166, -0.286, 0.016, -1.583, 0
1998378, -6.469, 0.726, 0.044, -0.182, 0.091, -1.244, 0
1998398, -5.351, 0.047, 0.193, -0.061, 0.248, -0.93, 0
1998418, -4.648, -0.496, 0.148, -0.086, 0.211, -0.816, 0
1998438, -4.628, -0.488, 0.507, -0.185, 0.082, -0.72, 0
1998458, -4.384, -0.324, 0.739, -0.158, 0.031, -0.558, 0
1998478, -3.823, -0.512, 0.719, -0.05, 0.01, -0.421, 0
1998498, -3.645, -0.51, 0.445, 0.0, -0.04, -0.34, 0
1998518, -3.35, -0.489, 0.406, -0.019, -0.051, -0.23, 0
1998538, -3.005, -0.443, 0.326, -0.053, -0.053, -0.161, 0
1998558, -2.934, -0.386, 0.332, -0.048, 0.033, -0.085, 0
1998578, -2.905, -0.443, 0.21, -0.05, 0.086, 0.053, 0
1998598, -2.916, -0.367, 0.204, -0.021, 0.126, 0.193, 0
1998618, -2.999, -0.282, 0.276, 0.023, 0.23, 0.346, 0
1998638, -2.737, -0.297, 0.378, 0.097, 0.266, 0.48, 1
1998658, -2.63, -0.426, 0.187, 0.087, 0.244, 0.61, 1
1998678, -2.508, -0.442, -0.151, 0.044, 0.202, 0.756, 1
1998698, -2.826, -0.785, -0.701, -0.171, 0.329, 0.908, 1
1998718, -2.651, -0.491, -0.548, -0.293, 0.468, 0.995, 1
1998738, -2.288, -0.53, -0.277, -0.305, 0.355, 1.04, 1
1998758, -2.105, -0.723, -0.326, -0.345, 0.138, 1.193, 1
1998778, -2.46, -1.172, -0.688, -0.285, 0.07, 1.106, 1
1998798, -2.69, -1.45, -0.611, -0.371, 0.227, 1.039, 1
1998818, -2.359, -1.236, -0.251, -0.449, 0.224, 0.973, 1
1998838, -1.872, -0.822, 0.166, -0.546, -0.009, 1.01, 1
1998858, -1.58, -0.613, 0.203, -0.563, -0.334, 1.142, 1
1998878, -1.741, -1.045, 0.223, -0.442, -0.368, 1.233, 1
1998898, -1.577, -1.448, 0.175, -0.353, -0.177, 1.207, 1
1998918, -1.209, -1.403, -0.028, -0.301, -0.211, 1.329, 1
1998938, -0.939, -1.528, -0.085, -0.346, -0.377, 1.482, 1
1998958, -0.307, -1.684, 0.101, -0.395, -0.554, 1.483, 1
1998978, 0.158, -1.571, 0.131, -0.372, -0.653, 1.341, 1
1998998, 0.166, -1.314, -0.269, -0.274, -0.722, 1.398, 1
1999018, 1.001, -1.444, -0.74, -0.218, -0.791, 1.531, 1
1999038, 1.772, -1.824, -0.917, -0.186, -0.822, 1.55, 1
1999058, 2.029, -1.85, -1.183, -0.158, -0.797, 1.395, 1
1999078, 1.9, -1.696, -1.37, -0.136, -0.714, 1.231, 1
1999098, 1.831, -1.933, -1.674, -0.149, -0.635, 1.167, 1
1999118, 2.134, -1.545, -1.542, -0.29, -0.71, 1.379, 1
1999138, 2.405, -1.899, -1.537, -0.331, -0.577, 1.27, 1
1999158, 2.412, -1.801, -1.317, -0.477, -0.327, 1.08, 1
1999178, 2.606, -1.142, -0.546, -0.449, -0.061, 0.907, 1
1999198, 2.756, -1.387, -0.06, -0.144, 0.205, 0.643, 1
1999218, 2.974, -2.294, -0.556, -0.137, 0.051, 0.693, 1
1999238, 2.346, -1.231, -0.404, -0.389, -0.368, 0.903, 1
1999258, 1.774, -1.119, -0.634, -0.379, -0.368, 0.778, 1
1999278, 1.501, -0.903, -0.547, -0.288, -0.154, 0.783, 1
1999298, 1.764, -0.934, -0.329, -0.133, 0.1, 0.825, 1
1999318, 2.406, -1.392, -0.236, -0.026, 0.186, 0.82, 1
1999338, 2.772, -1.457, -0.216, -0.12, -0.044, 0.64, 1
1999358, 1.765, -1.049, -0.306, -0.279, -0.301, 0.351, 1
1999378, 0.651, -0.493, -0.318, -0.317, -0.271, 0.238, 1
1999398, 0.398, -0.317, -0.141, -0.193, -0.014, 0.3, 1
1999418, 0.737, -0.626, -0.041, -0.032, 0.221, 0.34, 1
1999438, 0.98, -0.683, -0.158, -0.026, 0.199, 0.294, 1
1999458, 0.721, -0.496, -0.159, -0.13, -0.028, 0.174, 1
1999478, 0.189, -0.257, -0.138, -0.199, -0.114, 0.075, 1
1999498, -0.026, -0.118, 0.042, -0.102, 0.054, 0.02, 1
1999518, -0.02, -0.101, 0.174, -0.016, 0.128, 0.001, 1
1999538, 0.056, -0.252, 0.14, -0.022, 0.012, -0.06, 1
1999558, -0.227, 0.011, 0.193, -0.034, -0.119, -0.127, 1
1999578, -0.569, 0.099, 0.127, 0.021, -0.106, -0.117, 1
1999598, -0.642, 0.034, -0.104, 0.034, 0.022, -0.074, 1
1999618, -0.461, -0.203, -0.168, 0.014, 0.14, -0.083, 1
1999638, -0.097, -0.132, -0.015, -0.023, 0.095, -0.152, 1
1999658, -0.232, -0.059, -0.151, -0.108, -0.029, -0.131, 1
1999678, -0.508, 0.077, -0.231, -0.09, -0.087, -0.161, 1
1999698, -0.651, 0.114, -0.202, -0.003, -0.011, -0.154, 1
1999718, -0.65, 0.048, -0.28, 0.064, 0.063, -0.196, 1
1999738, -0.457, -0.19, -0.258, -0.033, 0.084, -0.13, 1
1999758, -0.384, 0.005, -0.37, -0.155, 0.027, -0.094, 1
1999778, -0.559, 0.211, -0.329, -0.161, -0.026, -0.075, 1
1999798, -0.493, 0.214, -0.002, -0.066, -0.022, -0.048, 1
1999818, -0.335, -0.045, -0.004, 0.013, 0.034, -0.006, 1
1999838, -0.235, -0.088, -0.042, 0.026, 0.041, -0.018, 1
1999858, -0.092, -0.231, -0.184, 0.014, -0.043, -0.078, 1
1999878, -0.004, 0.096, -0.025, 0.086, -0.152, -0.167, 1
1999898, 0.309, 0.207, 0.281, 0.285, -0.212, -0.08, 0
1999918, 0.634, -0.325, 0.203, 0.287, -0.15, 0.072, 0
1999938, 1.813, -0.894, -0.062, 0.221, -0.223, 0.144, 0
1999958, 2.533, -0.528, 0.151, 0.328, -0.211, 0.078, 0
1999978, 3.523, -1.28, 0.385, 0.328, 0.0, -0.055, 0
1999998, 4.712, -2.628, -1.061, 0.037, 0.03, -0.222, 0
2000018, 4.522, -1.728, -1.029, -0.159, 0.145, -0.445, 0
2000038, 4.601, -1.594, -0.682, 0.001, 0.231, -0.585, 0
2000058, 4.673, -1.694, -1.669, 0.147, 0.224, -0.74, 0
2000078, 3.119, -1.558, -2.58, 0.012, 0.272, -0.987, 0
2000098, 1.638, -1.099, -2.171, -0.162, 0.572, -1.119, 0
2000118, 1.712, -0.97, -1.316, -0.139, 0.824, -0.98, 0
2000138, 2.097, -1.505, -1.161, 0.097, 0.861, -0.885, 0
2000158, 1.83, -2.019, -1.714, 0.27, 0.841, -0.992, 0
2000178, 0.382, -2.386, -2.437, 0.113, 0.868, -1.235, 0
2000198, -0.84, -1.567, -1.854, -0.154, 0.918, -1.401, 0
2000218, -1.469, -1.317, -1.224, -0.116, 0.992, -1.321, 0
2000238, -1.201, -1.866, -1.031, 0.095, 1.075, -1.262, 0
2000258, -2.232, -1.869, -1.67, 0.196, 0.994, -1.34, 0
2000278, -3.218, -1.727, -1.603, 0.123, 1.001, -1.334, 0
2000298, -3.317, -1.483, -0.835, 0.038, 1.098, -1.346, 0
2000318, -3.08, -1.432, -0.478, 0.068, 1.028, -1.368, 0
2000338, -3.121, -1.566, -0.513, 0.11, 0.744, -1.497, 0
2000358, -3.483, -1.315, -0.212, -0.054, 0.444, -1.589, 0
2000378, -4.133, -0.664, 0.129, -0.188, 0.179, -1.607, 0
2000398, -4.554, -0.071, 0.217, -0.156, 0.122, -1.469, 0
2000418, -3.874, -0.225, 0.598, -0.032, 0.175, -1.291, 0
2000438, -2.982, -0.38, 0.932, 0.01, 0.144, -1.211, 0
2000458, -3.021, -0.393, 0.594, -0.034, -0.005, -1.151, 0
2000478, -3.233, -0.278, 0.357, -0.052, -0.128, -1.049, 0
2000498, -3.027, -0.277, 0.167, -0.056, -0.106, -0.979, 0
2000518, -2.857, -0.005, 0.162, -0.07, -0.125, -0.858, 0
2000538, -3.087, -0.03, -0.117, -0.021, -0.094, -0.726, 0
2000558, -3.23, -0.411, -0.424, -0.056, 0.106, -0.615, 0
2000578, -2.847, -0.437, -0.008, -0.062, 0.23, -0.576, 0
2000598, -3.295, -0.348, 0.094, -0.073, 0.205, -0.464, 0
2000618, -3.511, 0.132, 0.618, 0.009, 0.207, -0.275, 0
2000638, -3.28, 0.149, 0.897, 0.128, 0.274, -0.117, 0
2000658, -2.856, -0.189, 0.746, 0.153, 0.23, -0.018, 0
2000678, -2.87, -0.329, 0.369, 0.041, 0.16, 0.031, 0
2000698, -2.869, 0.038, 0.512, -0.078, 0.078, 0.147, 1
2000718, -3.04, 0.336, 0.466, -0.169, 0.081, 0.405, 1
2000738, -2.96, 0.113, -0.045, -0.329, 0.233, 0.69, 1
2000758, -2.35, -0.148, -0.126, -0.323, 0.282, 0.742, 1
2000778, -2.01, -0.693, -0.107, -0.32, 0.237, 0.692, 1
2000798, -2.014, -0.859, -0.088, -0.453, 0.135, 0.681, 1
2000818, -1.267, -0.142, 0.295, -0.473, -0.181, 0.713, 1
2000838, -1.973, -0.148, 0.21, -0.354, -0.285, 0.767, 1
2000858, -1.763, -0.811, -0.126, -0.236, -0.283, 0.772, 1
2000878, -1.876, -1.7, -0.543, -0.236, -0.107, 0.751, 1
2000898, -1.347, -1.372, -0.304, -0.295, -0.142, 0.752, 1
2000918, -1.307, -0.941, -0.214, -0.356, -0.357, 0.854, 1
2000938, -1.426, -0.781, 0.01, -0.381, -0.444, 0.995, 1
2000958, -1.053, -1.117, 0.07, -0.299, -0.318, 0.987, 1
2000978, -0.278, -1.286, -0.307, -0.203, -0.458, 1.028, 1
2000998, -0.157, -1.241, -0.57, -0.252, -0.661, 1.188, 1
2001018, 0.028, -1.426, -0.572, -0.315, -0.755, 1.259, 1
2001038, 0.623, -1.226, -0.486, -0.356, -0.671, 1.237, 1
2001058, 1.164, -1.272, -0.301, -0.238, -0.594, 1.173, 1
2001078, 1.619, -1.911, -0.75, -0.071, -0.527, 1.085, 1
2001098, 2.066, -1.876, -0.968, -0.188, -0.731, 1.227, 1
2001118, 1.982, -1.403, -1.27, -0.321, -0.85, 1.08, 1
2001138, 1.521, -1.127, -1.406, -0.377, -0.872, 1.017, 1
2001158, 1.69, -0.727, -1.238, -0.315, -0.728, 0.937, 1
2001178, 2.126, -1.081, -1.349, -0.167, -0.635, 1.024, 1
2001198, 2.331, -1.458, -1.441, -0.148, -0.654, 1.173, 1
2001218, 2.303, -1.206, -1.572, -0.216, -0.58, 1.087, 1
2001238, 1.932, -0.896, -1.567, -0.259, -0.54, 1.065, 1
2001258, 1.852, -0.901, -1.382, -0.218, -0.371, 1.101, 1
2001278, 2.211, -1.397, -0.928, -0.197, -0.156, 1.198, 1
2001298, 2.643, -1.347, -0.541, -0.194, 0.011, 1.166, 1
2001318, 2.7, -1.234, -0.489, -0.174, -0.074, 1.05, 1
2001338, 2.093, -1.181, -0.624, -0.177, -0.221, 0.967, 1
2001358, 1.762, -1.496, -0.581, -0.165, -0.137, 1.007, 1
2001378, 2.309, -1.464, -0.078, -0.202, 0.107, 0.988, 1
2001398, 2.75, -1.261, 0.052, -0.149, 0.137, 0.872, 1
2001418, 2.432, -1.234, -0.445, -0.127, -0.02, 0.748, 1
2001438, 1.681, -1.302, -0.805, -0.14, -0.053, 0.621, 1
2001458, 1.21, -1.09, -0.56, -0.28, 0.139, 0.513, 1
2001478, 1.244, -0.694, -0.102, -0.266, 0.271, 0.437, 1
2001498, 1.399, -0.566, 0.314, -0.182, 0.196, 0.309, 1
2001518, 0.93, -0.493, 0.194, -0.149, 0.053, 0.201, 1
2001538, 0.216, -0.442, -0.087, -0.196, -0.006, 0.161, 1
2001558, -0.212, -0.315, -0.015, -0.219, 0.13, 0.153, 1
2001578, 0.143, -0.065, 0.35, -0.092, 0.149, 0.107, 1
2001598, 0.105, -0.212, 0.371, -0.032, 0.091, 0.101, 1
2001618, 0.044, -0.227, 0.083, -0.037, -0.024, 0.088, 1
2001638, -0.426, -0.212, -0.234, -0.098, -0.007, 0.073, 1
2001658, -0.272, -0.003, -0.182, -0.048, 0.042, -0.001, 1
2001678, -0.225, -0.13, -0.079, -0.042, 0.08, -0.012, 1
2001698, -0.09, -0.047, 0.11, -0.031, 0.056, -0.023, 1
2001718, -0.079, -0.042, 0.142, -0.045, 0.0, -0.026, 1
2001738, -0.204, 0.026, -0.014, -0.044, -0.084, -0.032, 1
2001758, -0.221, 0.059, -0.211, -0.053, -0.083, -0.018, 1
2001778, -0.182, 0.084, -0.214, -0.005, 0.007, -0.007, 1
2001798, -0.08, -0.023, -0.19, 0.015, 0.083, 0.025, 1
2001818, 0.025, -0.012, 0.067, 0.056, 0.065, -0.011, 1
2001838, 0.052, -0.304, -0.013, -0.013, 0.001, -0.015, 1
2001858, -0.004, -0.31, -0.303, -0.109, -0.034, -0.069, 1
2001878, -0.145, -0.073, -0.38, -0.124, 0.039, -0.106, 1
2001898, 0.058, -0.182, -0.328, -0.139, 0.125, -0.116, 1
2001918, 0.518, 0.002, 0.15, -0.036, 0.121, -0.162, 0
2001938, 1.295, -0.119, 0.533, 0.097, -0.15, -0.056, 0
2001958, 2.483, -0.812, -0.375, 0.096, -0.158, -0.22, 0
2001978, 2.663, -0.77, -0.932, 0.146, -0.107, -0.401, 0
2001998, 3.049, -0.39, -1.149, 0.097, 0.091, -0.591, 0
2002018, 3.327, -0.878, -1.387, 0.032, 0.209, -0.637, 0
2002038, 2.836, -1.015, -1.484, -0.15, 0.332, -0.615, 0
2002058, 2.567, -0.589, -1.056, -0.221, 0.49, -0.611, 0
2002078, 2.744, -0.865, -0.404, -0.062, 0.535, -0.618, 0
2002098, 3.068, -1.306, -0.378, 0.126, 0.507, -0.682, 0
2002118, 2.423, -1.473, -1.233, 0.182, 0.372, -0.82, 0
2002138, 0.719, -1.34, -1.633, 0.082, 0.353, -0.982, 0
2002158, 0.186, -0.663, -0.806, 0.014, 0.667, -1.025, 0
2002178, 0.741, -0.86, -0.247, 0.174, 0.812, -0.997, 0
2002198, 0.557, -1.089, -0.8, 0.248, 0.624, -1.017, 0
2002218, -0.767, -1.02, -1.578, 0.203, 0.458, -1.052, 0
2002238, -1.963, -1.045, -1.772, 0.068, 0.591, -1.153, 0
2002258, -2.279, -1.019, -1.22, -0.026, 0.824, -1.247, 0
2002278, -1.895, -1.186, -0.59, 0.002, 0.832, -1.274, 0
2002298, -1.848, -1.547, -0.425, 0.051, 0.618, -1.384, 0
2002318, -2.525, -1.56, -0.632, -0.046, 0.398, -1.49, 0
2002338, -3.681, -1.235, -0.711, -0.176, 0.378, -1.53, 0
2002358, -3.841, -1.063, -0.178, -0.2, 0.514, -1.473, 0
2002378, -3.243, -0.884, 0.406, -0.131, 0.467, -1.37, 0
2002398, -3.116, -0.918, 0.49, -0.05, 0.259, -1.276, 0
2002418, -3.047, -1.041, 0.079, -0.002, 0.144, -1.188, 0
2002438, -3.186, -1.097, -0.306, -0.034, 0.254, -1.12, 0
2002458, -3.379, -1.029, -0.669, -0.047, 0.386, -1.064, 0
2002478, -3.204, -0.72, -0.384, -0.001, 0.419, -1.017, 0
2002498, -2.976, -0.405, -0.235, 0.0, 0.354, -0.965, 0
2002518, -2.853, -0.22, -0.278, -0.047, 0.239, -0.907, 0
2002538, -3.403, 0.076, -0.589, -0.069, 0.263, -0.806, 0
2002558, -3.4, 0.114, -0.403, -0.05, 0.393, -0.714, 0
2002578, -2.873, 0.174, -0.011, -0.04, 0.368, -0.634, 0
2002598, -2.653, 0.213, 0.012, -0.053, 0.229, -0.561, 0
2002618, -2.837, -0.12, -0.099, -0.073, 0.175, -0.476, 0
2002638, -2.83, -0.164, -0.142, -0.074, 0.202, -0.386, 0
2002658, -2.618, -0.252, 0.078, -0.077, 0.196, -0.317, 0
2002678, -2.296, -0.204, 0.322, -0.085, 0.08, -0.255, 0
2002698, -2.327, -0.078, 0.215, -0.04, 0.014, -0.157, 0
2002718, -2.389, -0.105, 0.155, -0.037, 0.067, -0.058, 0
2002738, -2.05, -0.25, 0.144, -0.084, 0.067, 0.017, 0
2002758, -1.814, -0.133, 0.183, -0.086, -0.02, 0.099, 0
2002778, -1.843, -0.253, 0.201, -0.083, 0.017, 0.186, 0
2002798, -1.466, -0.294, 0.356, -0.058, 0.042, 0.273, 0
2002818, -1.305, -0.411, 0.464, -0.044, 0.018, 0.352, 1
2002838, -1.333, -0.518, 0.276, -0.086, 0.012, 0.491, 1
2002858, -1.331, -1.019, -0.091, -0.215, 0.08, 0.72, 1
2002878, -1.483, -0.971, -0.227, -0.293, 0.187, 0.705, 1
2002898, -1.138, -0.949, 0.047, -0.349, 0.186, 0.62, 1
2002918, -0.562, -0.464, 0.527, -0.246, -0.221, 0.536, 1
2002938, -1.617, -0.462, -0.482, -0.199, -0.406, 0.601, 1
2002958, -1.562, -0.714, -0.571, -0.189, -0.335, 0.612, 1
2002978, -1.727, -0.69, -0.43, -0.208, -0.149, 0.552, 1
2002998, -1.831, -0.366, -0.124, -0.249, -0.15, 0.671, 1
2003018, -1.741, 0.144, 0.265, -0.229, -0.265, 0.85, 1
2003038, -1.342, -0.321, 0.129, -0.177, -0.36, 1.017, 1
2003058, -1.017, -0.865, 0.005, -0.18, -0.364, 1.063, 1
2003078, -0.367, -0.866, -0.353, -0.167, -0.312, 1.035, 1
2003098, -0.161, -1.141, -0.692, -0.186, -0.456, 1.169, 1
2003118, -0.098, -1.317, -0.692, -0.273, -0.601, 1.247, 1
2003138, 0.425, -1.35, -0.654, -0.326, -0.596, 1.194, 1
2003158, 0.586, -1.153, -0.714, -0.323, -0.609, 1.158, 1
2003178, 0.841, -1.162, -0.735, -0.238, -0.587, 1.157, 1
2003198, 0.861, -1.685, -0.852, -0.174, -0.547, 1.176, 1
2003218, 1.149, -1.539, -0.687, -0.271, -0.524, 1.242, 1
2003238, 1.621, -1.39, -0.749, -0.346, -0.522, 1.125, 1
2003258, 1.404, -1.008, -0.775, -0.381, -0.638, 1.131, 1
2003278, 1.163, -1.041, -0.621, -0.279, -0.587, 1.126, 1
2003298, 1.634, -1.075, -0.494, -0.175, -0.409, 1.206, 1
2003318, 2.006, -1.194, -0.424, -0.094, -0.426, 1.28, 1
2003338, 2.212, -1.277, -0.746, -0.059, -0.472, 1.182, 1
2003358, 1.926, -1.083, -0.874, -0.154, -0.549, 1.091, 1
2003378, 1.801, -0.871, -1.063, -0.188, -0.533, 1.05, 1
2003398, 1.848, -0.833, -1.112, -0.116, -0.428, 1.183, 1
2003418, 2.515, -1.052, -0.922, -0.063, -0.232, 1.131, 1
2003438, 2.95, -1.185, -0.968, -0.078, -0.24, 1.028, 1
2003458, 2.667, -1.118, -1.016, -0.176, -0.211, 0.876, 1
2003478, 2.453, -1.221, -0.802, -0.322, -0.195, 0.756, 1
2003498, 2.282, -0.96, -0.552, -0.399, -0.223, 0.668, 1
2003518, 1.992, -0.664, -0.438, -0.344, -0.221, 0.616, 1
2003538, 1.78, -0.554, -0.568, -0.243, -0.127, 0.623, 1
2003558, 1.754, -0.714, -0.372, -0.207, 0.037, 0.607, 1
2003578, 2.081, -0.42, -0.266, -0.175, 0.045, 0.432, 1
2003598, 1.884, -0.604, -0.161, -0.251, -0.064, 0.306, 1
2003618, 1.338, -0.408, -0.254, -0.267, -0.093, 0.306, 1
2003638, 0.682, -0.346, -0.237, -0.213, 0.047, 0.299, 1
2003658, 0.708, -0.31, -0.15, -0.123, 0.165, 0.259, 1
2003678, 0.594, -0.497, -0.005, -0.145, 0.224, 0.3, 1
2003698, 0.584, -0.402, 0.176, -0.163, 0.224, 0.248, 1
2003718, 0.422, -0.265, 0.142, -0.131, 0.1, 0.155, 1
2003738, -0.082, -0.177, -0.185, -0.175, 0.028, 0.128, 1
2003758, -0.556, -0.05, -0.197, -0.232, 0.087, 0.127, 1
2003778, -0.514, 0.03, 0.112, -0.177, 0.159, 0.128, 1
2003798, -0.415, -0.039, 0.249, -0.095, 0.124, 0.084, 1
2003818, -0.371, -0.075, 0.104, -0.084, 0.001, 0.061, 1
2003838, -0.618, -0.051, 0.164, -0.083, -0.002, 0.039, 1
2003858, -0.48, -0.035, 0.252, -0.064, -0.02, 0.06, 1
2003878, -0.357, -0.016, 0.282, -0.025, -0.05, 0.08, 1
2003898, -0.358, -0.19, -0.016, -0.014, -0.017, 0.108, 1
2003918, -0.009, -0.263, -0.015, 0.056, 0.017, 0.094, 1
2003938, 0.387, -0.348, 0.014, 0.152, 0.037, 0.036, 1
2003958, 0.653, -0.569, 0.091, 0.158, 0.003, -0.058, 1
2003978, 1.084, -0.502, 0.057, 0.12, -0.04, -0.13, 1
2003998, 1.01, -0.349, -0.107, 0.045, -0.136, -0.114, 0
2004018, 0.919, -0.478, -0.113, 0.051, -0.167, -0.191, 0
2004038, 1.156, 0.04, -0.075, 0.054, -0.093, -0.114, 0
2004058, 1.874, 0.535, -0.087, 0.175, 0.012, 0.017, 0
2004078, 2.542, -0.228, -0.603, 0.394, 0.053, 0.07, 0
2004098, 3.424, -1.126, -1.277, 0.384, 0.102, 0.03, 0
2004118, 3.595, -1.852, -1.75, 0.215, 0.205, -0.059, 0
2004138, 3.84, -1.935, -1.533, 0.072, 0.393, -0.288, 0
2004158, 3.597, -1.778, -0.701, 0.041, 0.447, -0.56, 0
2004178, 3.645, -1.764, -0.723, 0.139, 0.375, -0.739, 0
2004198, 2.611, -1.728, -1.588, 0.161, 0.312, -0.86, 0
2004218, 1.355, -1.898, -1.76, 0.124, 0.503, -0.931, 0
2004238, 1.173, -1.832, -0.761, 0.026, 0.919, -1.042, 0
2004258, 1.759, -1.947, -0.318, 0.106, 0.915, -1.188, 0
2004278, 0.525, -2.09, -1.195, 0.137, 0.626, -1.331, 0
2004298, -1.13, -1.9, -1.708, 0.131, 0.62, -1.387, 0
2004318, -1.526, -1.76, -1.084, 0.108, 0.891, -1.363, 0
2004338, -0.753, -2.109, -0.284, 0.216, 0.928, -1.439, 0
2004358, -1.343, -2.02, -1.132, 0.27, 0.586, -1.603, 0
2004378, -3.44, -1.543, -1.867, 0.137, 0.385, -1.649, 0
2004398, -4.316, -1.214, -1.427, 0.059, 0.638, -1.541, 0
2004418, -4.03, -1.123, -0.96, 0.048, 0.673, -1.494, 0
2004438, -3.829, -1.2, -0.729, 0.065, 0.502, -1.445, 0
2004458, -4.277, -0.997, -0.759, 0.119, 0.414, -1.42, 0
2004478, -4.491, -0.953, -0.544, 0.057, 0.43, -1.388, 0
2004498, -4.33, -0.689, -0.244, -0.067, 0.271, -1.335, 0
2004518, -4.176, -0.488, 0.086, -0.093, 0.01, -1.28, 0
2004538, -4.6, -0.2, -0.088, -0.062, -0.1, -1.168, 0
2004558, -4.43, -0.243, -0.09, -0.045, -0.022, -1.063, 0
2004578, -3.828, -0.519, -0.036, -0.086, 0.032, -0.987, 0
2004598, -3.406, -0.687, -0.001, -0.141, -0.006, -0.893, 0
2004618, -2.933, -0.587, 0.375, -0.152, -0.013, -0.79, 0
2004638, -2.131, -0.601, 0.699, -0.028, -0.153, -0.744, 0
2004658, -2.685, -1.0, -0.22, -0.004, -0.205, -0.675, 0
2004678, -3.316, -0.99, -0.76, -0.1, 0.097, -0.686, 0
2004698, -2.844, -0.466, -0.148, -0.134, 0.241, -0.622, 0
2004718, -2.365, -0.393, 0.508, -0.098, 0.048, -0.555, 0
2004738, -2.573, -0.302, 0.412, -0.051, -0.056, -0.494, 0
2004758, -2.926, -0.147, 0.0, -0.027, 0.026, -0.375, 0
2004778, -3.017, -0.143, -0.143, -0.105, 0.186, -0.279, 0
2004798, -2.571, 0.02, 0.223, -0.13, 0.137, -0.169, 0
2004818, -2.623, 0.121, 0.139, -0.104, 0.063, -0.032, 0
2004838, -2.61, -0.027, -0.031, -0.07, 0.117, 0.102, 0
2004858, -2.196, -0.028, 0.098, -0.086, 0.155, 0.298, 1
2004878, -1.86, -0.182, -0.045, -0.117, 0.19, 0.456, 1
2004898, -1.848, -0.576, -0.093, -0.181, 0.26, 0.572, 1
2004918, -1.812, -0.887, -0.063, -0.172, 0.31, 0.627, 1
2004938, -1.698, -0.789, 0.065, -0.127, 0.324, 0.578, 1
2004958, -1.553, -0.723, 0.079, -0.092, 0.261, 0.577, 1
2004978, -1.372, -0.854, -0.06, -0.09, 0.055, 0.623, 1
2004998, -1.312, -0.913, -0.364, -0.127, -0.134, 0.563, 1
2005018, -1.991, -1.188, -0.562, -0.241, -0.19, 0.475, 1
2005038, -2.051, -0.998, -0.462, -0.381, -0.07, 0.379, 1
2005058, -1.867, -0.928, -0.394, -0.491, -0.075, 0.475, 1
2005078, -1.797, -0.879, -0.042, -0.543, -0.205, 0.604, 1
2005098, -1.773, -0.842, 0.249, -0.493, -0.232, 0.638, 1
2005118, -1.499, -0.481, 0.284, -0.431, -0.24, 0.696, 1
2005138, -1.358, -0.666, 0.027, -0.368, -0.252, 0.764, 1
2005158, -1.021, -0.861, -0.034, -0.445, -0.425, 1.009, 1
2005178, -0.748, -0.991, 0.088, -0.452, -0.566, 1.089, 1
2005198, -0.281, -0.954, 0.096, -0.362, -0.626, 1.094, 1
2005218, -0.127, -1.079, -0.226, -0.246, -0.664, 1.149, 1
2005238, 0.162, -1.404, -0.609, -0.204, -0.669, 1.236, 1
2005258, 0.702, -1.509, -0.64, -0.243, -0.727, 1.34, 1
2005278, 1.142, -1.768, -0.516, -0.288, -0.676, 1.335, 1
2005298, 1.929, -1.463, -0.561, -0.317, -0.688, 1.222, 1
2005318, 1.861, -1.298, -0.855, -0.27, -0.988, 1.186, 1
2005338, 1.559, -1.394, -1.445, -0.23, -1.162, 1.163, 1
2005358, 1.318, -1.477, -1.601, -0.266, -0.842, 1.202, 1
2005378, 1.622, -1.018, -1.527, -0.216, -0.555, 1.257, 1
2005398, 2.05, -0.859, -1.509, -0.134, -0.527, 1.31, 1
2005418, 2.264, -0.94, -1.62, -0.109, -0.59, 1.282, 1
2005438, 2.197, -1.133, -1.416, -0.153, -0.544, 1.321, 1
2005458, 2.25, -1.419, -1.13, -0.163, -0.327, 1.193, 1
2005478, 2.511, -1.316, -0.894, -0.218, -0.285, 1.056, 1
2005498, 2.355, -1.177, -0.955, -0.235, -0.367, 1.061, 1
2005518, 2.116, -1.125, -0.993, -0.19, -0.291, 1.084, 1
2005538, 2.268, -1.227, -0.841, -0.136, -0.076, 1.053, 1
2005558, 2.559, -1.294, -0.529, -0.113, 0.078, 0.907, 1
2005578, 2.867, -1.269, -0.427, -0.143, 0.014, 0.723, 1
2005598, 2.599, -1.264, -0.466, -0.226, -0.127, 0.567, 1
2005618, 1.939, -1.001, -0.369, -0.267, -0.183, 0.584, 1
2005638, 1.612, -0.802, -0.201, -0.191, -0.037, 0.615, 1
2005658, 1.835, -0.969, -0.255, -0.12, 0.082, 0.541, 1
2005678, 2.154, -0.819, -0.344, -0.17, 0.039, 0.423, 1
2005698, 1.579, -0.94, -0.285, -0.218, -0.045, 0.201, 1
2005718, 0.916, -0.501, -0.199, -0.253, -0.089, 0.114, 1
2005738, 0.337, -0.104, -0.125, -0.221, -0.087, 0.067, 1
2005758, -0.251, -0.094, -0.273, -0.196, 0.089, 0.063, 1
2005778, 0.016, 0.028, -0.018, -0.081, 0.207, 0.064, 1
2005798, 0.044, -0.183, -0.108, -0.052, 0.2, 0.08, 1
2005818, -0.156, -0.159, -0.16, -0.059, 0.111, -0.015, 1
2005838, -0.483, -0.059, 0.035, -0.073, 0.106, -0.006, 1
2005858, -0.479, -0.187, 0.073, -0.166, 0.15, 0.059, 1
2005878, -0.497, -0.014, 0.214, -0.176, 0.12, 0.078, 1
2005898, -0.454, -0.102, 0.477, -0.061, 0.109, 0.096, 1
2005918, -0.154, -0.329, 0.449, 0.021, 0.081, 0.111, 1
2005938, -0.065, -0.267, 0.175, 0.017, 0.012, 0.133, 1
2005958, -0.278, -0.384, -0.139, -0.009, -0.056, 0.114, 1
2005978, -0.145, -0.293, -0.005, -0.076, 0.065, 0.12, 1
2005998, 0.285, -0.222, 0.432, 0.031, 0.16, 0.043, 1
2006018, 0.628, -0.194, 0.675, 0.209, 0.074, -0.042, 1
2006038, 1.045, -0.598, 0.305, 0.339, -0.057, -0.076, 1
2006058, 1.232, -1.168, -0.735, 0.154, -0.072, -0.083, 1
2006078, 1.791, -1.064, -0.941, -0.175, 0.04, -0.228, 0
2006098, 2.12, -0.069, -0.409, -0.231, 0.073, -0.35, 0
2006118, 1.863, 0.293, -0.149, -0.028, 0.012, -0.374, 0
2006138, 1.832, 0.135, -0.217, 0.226, 0.103, -0.307, 0
2006158, 2.285, -0.481, -0.98, 0.362, 0.246, -0.282, 0
2006178, 2.045, -1.073, -1.531, 0.15, 0.324, -0.322, 0
2006198, 1.844, -0.633, -1.22, -0.111, 0.499, -0.42, 0
2006218, 1.534, -0.307, -0.846, -0.075, 0.554, -0.497, 0
2006238, 1.276, -0.279, -0.522, 0.062, 0.588, -0.511, 0
2006258, 1.476, -0.679, -0.325, 0.217, 0.628, -0.475, 0
2006278, 1.9, -1.599, -0.577, 0.291, 0.555, -0.54, 0
2006298, 1.984, -1.847, -1.115, 0.197, 0.475, -0.814, 0
2006318, 0.666, -1.616, -1.461, -0.009, 0.395, -1.084, 0
2006338, -0.004, -0.755, -0.952, 0.01, 0.503, -1.147, 0
2006358, -0.179, -1.03, -0.859, 0.216, 0.649, -1.057, 0
2006378, 0.302, -1.627, -1.372, 0.26, 0.688, -1.199, 0
2006398, -0.569, -2.082, -1.881, 0.029, 0.673, -1.447, 0
2006418, -1.506, -1.525, -1.424, -0.128, 0.654, -1.517, 0
2006438, -1.586, -1.518, -0.702, -0.069, 0.638, -1.541, 0
2006458, -1.35, -1.946, -0.503, 0.031, 0.472, -1.623, 0
2006478, -2.283, -1.984, -1.051, -0.07, 0.31, -1.75, 0
2006498, -3.422, -1.115, -0.714, -0.185, 0.291, -1.684, 0
2006518, -3.731, -0.553, -0.346, -0.082, 0.268, -1.496, 0
2006538, -3.832, -0.753, -0.434, 0.072, 0.202, -1.38, 0
2006558, -3.861, -1.106, -0.518, 0.122, 0.121, -1.271, 0
2006578, -4.833, -1.298, -0.912, 0.028, 0.217, -1.196, 0
2006598, -4.961, -0.972, -0.432, -0.023, 0.425, -1.104, 0
2006618, -4.246, -0.812, 0.145, 0.015, 0.431, -1.0, 0
2006638, -3.609, -0.825, 0.417, 0.042, 0.265, -0.913, 1
2006658, -3.993, -0.727, 0.143, 0.043, 0.16, -0.811, 1
2006678, -3.644, -0.891, 0.35, 0.021, 0.169, -0.747, 1
2006698, -3.125, -1.05, 0.546, -0.033, 0.15, -0.77, 1
2006718, -2.8, -0.74, 0.351, -0.026, 0.094, -0.756, 1
2006738, -2.584, -0.402, 0.152, 0.039, -0.047, -0.724, 1
2006758, -2.797, -0.406, -0.156, 0.031, -0.01, -0.665, 1
2006778, -2.516, -0.312, -0.026, 0.032, 0.015, -0.637, 0
2006798, -2.52, -0.494, -0.299, -0.017, 0.017, -0.609, 0
2006818, -2.61, -0.327, -0.632, -0.081, -0.002, -0.494, 0
2006838, -2.878, -0.2, -0.401, -0.078, 0.15, -0.402, 0
2006858, -2.888, -0.348, -0.288, -0.058, 0.173, -0.309, 0
2006878, -2.803, -0.321, -0.108, -0.078, 0.182, -0.237, 0
2006898, -2.814, -0.211, 0.09, -0.137, 0.171, -0.177, 0
2006918, -2.987, -0.006, 0.122, -0.192, 0.081, -0.078, 1
2006938, -3.137, 0.292, 0.094, -0.191, 0.043, 0.064, 1
2006958, -3.061, -0.12, 0.115, -0.188, 0.119, 0.302, 1
2006978, -2.542, -0.109, 0.298, -0.243, 0.244, 0.467, 1
2006998, -2.199, -0.294, 0.306, -0.277, 0.18, 0.574, 1
2007018, -2.039, -0.589, 0.102, -0.31, -0.014, 0.646, 1
2007038, -2.172, -1.063, -0.14, -0.333, -0.092, 0.611, 1
2007058, -2.152, -0.989, -0.188, -0.323, -0.008, 0.532, 1
2007078, -2.015, -0.947, -0.011, -0.282, 0.049, 0.509, 1
2007098, -1.859, -0.884, -0.158, -0.327, -0.009, 0.543, 1
2007118, -2.033, -1.054, -0.099, -0.375, -0.139, 0.587, 1
2007138, -1.973, -1.043, -0.178, -0.357, -0.147, 0.69, 1
2007158, -1.684, -0.741, 0.095, -0.287, -0.058, 0.726, 1
2007178, -1.079, -0.675, 0.077, -0.236, -0.045, 0.727, 1
2007198, -0.744, -0.918, -0.282, -0.262, -0.271, 0.822, 1
2007218, -0.801, -1.054, -0.467, -0.364, -0.543, 0.943, 1
2007238, -0.883, -0.88, -0.441, -0.379, -0.538, 0.99, 1
2007258, -0.753, -0.857, -0.531, -0.312, -0.404, 1.037, 1
2007278, -0.393, -1.073, -0.618, -0.252, -0.301, 1.04, 1
2007298, 0.143, -0.98, -0.274, -0.288, -0.461, 1.232, 1
2007318, 0.341, -1.335, -0.126, -0.26, -0.672, 1.259, 1
2007338, 0.96, -1.321, -0.681, -0.312, -0.951, 1.197, 1
2007358, 0.419, -1.103, -1.407, -0.404, -1.03, 1.185, 1
2007378, 0.028, -1.083, -1.753, -0.455, -0.812, 1.282, 1
2007398, 0.238, -1.06, -1.474, -0.408, -0.434, 1.439, 1
2007418, 0.895, -1.228, -0.815, -0.267, -0.21, 1.445, 1
2007438, 1.449, -1.255, -0.548, -0.2, -0.292, 1.399, 1
2007458, 1.612, -1.177, -0.421, -0.194, -0.474, 1.43, 1
2007478, 1.503, -1.113, -0.452, -0.174, -0.537, 1.411, 1
2007498, 1.602, -1.211, -0.628, -0.153, -0.531, 1.35, 1
2007518, 1.937, -0.823, -0.571, -0.154, -0.474, 1.269, 1
2007538, 1.816, -1.022, -0.57, -0.138, -0.466, 1.177, 1
2007558, 1.76, -1.096, -0.678, -0.174, -0.487, 1.169, 1
2007578, 1.916, -1.023, -0.414, -0.149, -0.474, 1.094, 1
2007598, 1.843, -0.83, -0.256, -0.12, -0.448, 0.972, 1
2007618, 1.643, -0.634, -0.334, -0.091, -0.408, 0.973, 1
2007638, 1.694, -0.559, -0.448, -0.047, -0.343, 0.985, 1
2007658, 2.235, -0.907, -0.631, -0.033, -0.327, 0.962, 1
2007678, 2.493, -0.959, -0.753, -0.031, -0.26, 0.821, 1
2007698, 2.451, -0.952, -1.005, -0.089, -0.211, 0.715, 1
2007718, 2.17, -0.871, -0.944, -0.132, -0.118, 0.565, 1
2007738, 2.009, -0.781, -0.737, -0.178, -0.075, 0.515, 1
2007758, 1.77, -0.597, -0.373, -0.135, -0.017, 0.389, 1
2007778, 1.616, -0.398, -0.028, -0.075, 0.0, 0.313, 1
2007798, 1.258, -0.283, -0.157, -0.147, -0.013, 0.324, 1
2007818, 0.458, -0.038, -0.133, -0.176, 0.048, 0.213, 1
2007838, 0.109, -0.093, 0.207, -0.126, 0.062, 0.184, 1
2007858, -0.021, -0.048, 0.232, -0.08, 0.075, 0.23, 1
2007878, -0.186, -0.157, -0.162, -0.059, 0.023, 0.24, 1
2007898, -0.575, -0.136, -0.22, -0.1, -0.02, 0.238, 1
2007918, -0.481, -0.149, 0.093, -0.113, 0.112, 0.257, 1
2007938, 0.037, -0.179, 0.363, -0.069, 0.166, 0.259, 1
2007958, 0.138, -0.189, 0.33, 0.003, 0.039, 0.174, 1
2007978, -0.116, -0.225, 0.086, 0.055, -0.117, 0.044, 1
2007998, -0.499, -0.164, -0.114, -0.01, -0.178, 0.037, 1
2008018, -0.488, 0.0, -0.069, -0.109, -0.069, 0.056, 1
2008038, -0.254, 0.218, 0.174, -0.102, -0.025, 0.05, 1
2008058, -0.281, 0.047, 0.131, 0.013, -0.086, 0.033, 1
2008078, -0.085, -0.097, -0.035, 0.096, -0.083, 0.036, 1
2008098, 0.118, -0.328, -0.327, 0.064, -0.012, 0.05, 1
2008118, 0.29, -0.054, -0.176, -0.001, 0.051, -0.017, 1
2008138, 0.261, 0.131, 0.215, 0.126, 0.02, -0.121, 1
2008158, 0.51, -0.224, 0.236, 0.264, -0.057, -0.124, 1
2008178, 1.006, -0.294, -0.028, 0.261, -0.145, -0.086, 0
2008198, 1.458, -0.358, -0.629, 0.201, -0.127, -0.07, 0
2008218, 1.66, -0.038, -0.505, 0.296, -0.061, -0.1, 0
2008238, 1.881, -0.522, -0.604, 0.402, 0.107, -0.091, 0
2008258, 2.964, -0.693, -0.748, 0.326, 0.317, -0.051, 0
2008278, 3.665, -1.184, -1.239, 0.23, 0.337, -0.228, 0
2008298, 3.924, -1.32, -1.685, 0.051, 0.365, -0.445, 0
2008318, 3.54, -1.36, -1.695, 0.001, 0.461, -0.694, 0
2008338, 2.712, -1.336, -1.405, -0.029, 0.598, -0.859, 0
2008358, 2.281, -1.159, -0.932, 0.029, 0.679, -0.944, 0
2008378, 2.613, -1.487, -0.637, 0.156, 0.602, -0.976, 0
2008398, 1.938, -1.728, -1.792, 0.152, 0.542, -1.099, 0
2008418, 0.246, -1.776, -2.145, 0.04, 0.792, -1.182, 0
2008438, -0.279, -1.736, -1.144, 0.038, 1.073, -1.285, 0
2008458, 0.309, -1.983, -0.47, 0.117, 0.909, -1.367, 0
2008478, -0.479, -2.138, -0.764, 0.162, 0.683, -1.415, 0
2008498, -1.032, -2.09, -0.826, 0.253, 0.614, -1.458, 0
2008518, -1.637, -2.333, -0.855, 0.189, 0.527, -1.579, 0
2008538, -2.71, -2.122, -1.348, -0.008, 0.402, -1.756, 0
2008558, -3.853, -1.291, -1.052, -0.048, 0.359, -1.695, 0
2008578, -4.278, -1.201, -0.583, 0.093, 0.461, -1.489, 0
2008598, -3.722, -1.708, -0.233, 0.172, 0.487, -1.42, 0
2008618, -3.547, -1.668, -0.188, 0.062, 0.271, -1.447, 0
2008638, -3.749, -1.266, 0.062, -0.052, 0.017, -1.459, 0
2008658, -4.107, -1.165, 0.158, -0.035, -0.038, -1.442, 0
2008678, -4.292, -1.426, -0.121, 0.029, 0.034, -1.414, 0
2008698, -4.741, -1.425, -0.56, 0.007, 0.08, -1.36, 0
2008718, -5.189, -0.954, -0.445, -0.036, 0.179, -1.205, 0
2008738, -4.692, -0.63, 0.051, -0.004, 0.215, -1.06, 0
2008758, -4.126, -0.502, 0.091, 0.03, 0.112, -0.97, 0
2008778, -4.387, -0.6, -0.127, -0.051, 0.175, -0.888, 0
2008798, -3.732, -0.582, 0.241, -0.122, 0.157, -0.83, 0
2008818, -3.937, -0.54, 0.103, -0.117, 0.033, -0.755, 0
2008838, -3.992, -0.426, -0.23, -0.059, 0.064, -0.671, 0
2008858, -4.165, -0.513, -0.225, -0.06, 0.163, -0.553, 0
2008878, -3.949, -0.444, 0.276, -0.116, 0.275, -0.479, 0
2008898, -3.686, -0.15, 0.583, -0.152, 0.181, -0.395, 0
2008918, -3.909, 0.054, 0.5, -0.156, 0.045, -0.274, 0
2008938, -4.054, 0.164, 0.426, -0.101, 0.079, -0.118, 0
2008958, -3.851, 0.103, 0.362, -0.051, 0.141, 0.071, 0
2008978, -3.585, -0.05, 0.375, -0.058, 0.16, 0.246, 1
2008998, -3.17, -0.351, 0.32, -0.068, 0.178, 0.455, 1
2009018, -2.899, -0.845, -0.199, -0.246, 0.236, 0.667, 1
2009038, -2.623, -0.878, -0.203, -0.448, 0.254, 0.629, 1
2009058, -2.396, -0.819, -0.229, -0.623, 0.113, 0.544, 1
2009078, -2.61, -0.748, -0.422, -0.726, -0.079, 0.45, 1
2009098, -2.916, -0.579, -0.185, -0.751, -0.18, 0.552, 1
2009118, -2.858, -0.475, 0.07, -0.574, -0.056, 0.673, 1
2009138, -2.418, -0.584, 0.107, -0.342, 0.025, 0.792, 1
2009158, -2.121, -0.857, -0.093, -0.142, -0.02, 0.849, 1
2009178, -1.974, -1.267, -0.565, -0.12, -0.169, 0.981, 1
2009198, -1.975, -1.192, -0.364, -0.229, -0.323, 1.12, 1
2009218, -1.487, -1.142, -0.322, -0.325, -0.337, 1.126, 1
2009238, -1.045, -1.339, -0.525, -0.35, -0.383, 1.166, 1
2009258, -0.682, -1.664, -0.65, -0.351, -0.415, 1.171, 1
2009278, -0.605, -1.966, -0.531, -0.386, -0.443, 1.169, 1
2009298, -0.317, -1.52, -0.472, -0.421, -0.507, 1.207, 1
2009318, -0.256, -1.15, -0.522, -0.392, -0.557, 1.324, 1
2009338, 0.273, -1.272, -0.511, -0.298, -0.572, 1.365, 1
2009358, 0.643, -1.793, -0.634, -0.209, -0.527, 1.45, 1
2009378, 0.601, -2.385, -0.413, -0.177, -0.288, 1.44, 1
2009398, 1.133, -2.414, 0.061, -0.185, -0.116, 1.271, 1
2009418, 1.848, -2.077, -0.026, -0.268, -0.504, 1.026, 1
2009438, 1.463, -1.431, -0.335, -0.377, -0.993, 0.899, 1
2009458, 0.674, -0.902, -0.616, -0.362, -1.025, 0.936, 1
2009478, 0.751, -0.517, -0.776, -0.201, -0.844, 1.039, 1
2009498, 0.999, -0.426, -0.981, -0.067, -0.675, 1.132, 1
2009518, 1.267, -0.51, -1.482, -0.059, -0.733, 1.158, 1
2009538, 1.008, -0.395, -1.631, -0.091, -0.748, 1.21, 1
2009558, 0.867, -0.686, -1.512, -0.124, -0.543, 1.24, 1
2009578, 1.261, -0.971, -1.126, -0.131, -0.286, 1.236, 1
2009598, 1.985, -1.053, -0.847, -0.103, -0.189, 1.143, 1
2009618, 2.264, -0.988, -0.777, -0.131, -0.271, 0.998, 1
2009638, 1.956, -0.875, -0.866, -0.202, -0.376, 1.0, 1
2009658, 1.639, -0.804, -0.688, -0.175, -0.225, 0.986, 1
2009678, 2.081, -0.888, -0.587, -0.111, -0.037, 0.879, 1
2009698, 2.48, -1.089, -0.466, -0.116, 0.009, 0.709, 1
2009718, 2.522, -1.083, -0.406, -0.165, -0.048, 0.527, 1
2009738, 2.038, -0.773, -0.329, -0.207, -0.111, 0.401, 1
2009758, 1.433, -0.386, -0.203, -0.178, -0.054, 0.404, 1
2009778, 1.104, -0.313, 0.158, -0.075, 0.085, 0.404, 1
2009798, 1.153, -0.421, -0.034, 0.013, 0.127, 0.333, 1
2009818, 0.871, -0.428, -0.394, 0.02, 0.116, 0.196, 1
2009838, 0.289, -0.147, -0.433, -0.078, 0.12, 0.15, 1
2009858, 0.007, -0.004, -0.195, -0.119, 0.204, 0.142, 1
2009878, -0.044, -0.003, -0.021, -0.125, 0.268, 0.15, 1
2009898, -0.111, -0.018, -0.012, -0.062, 0.241, 0.086, 1
2009918, -0.309, 0.028, -0.129, -0.031, 0.186, 0.017, 1
2009938, -0.549, -0.178, -0.104, -0.028, 0.163, -0.111, 1
2009958, -0.583, -0.066, 0.15, -0.086, 0.139, -0.149, 1
2009978, -0.58, -0.037, 0.07, -0.144, 0.098, -0.153, 1
2009998, -0.824, 0.054, -0.119, -0.191, 0.007, -0.124, 1
2010018, -1.176, 0.333, -0.078, -0.216, -0.01, -0.103, 1
2010038, -1.267, 0.347, 0.101, -0.11, 0.007, -0.076, 1
2010058, -0.975, 0.314, 0.236, 0.012, 0.041, -0.039, 1
2010078, -0.958, -0.018, -0.026, 0.043, -0.036, 0.005, 1
2010098, -0.906, -0.05, -0.008, -0.031, -0.085, 0.084, 1
2010118, -0.652, -0.175, 0.071, -0.026, -0.034, 0.166, 1
2010138, -0.126, -0.421, 0.073, 0.034, 0.045, 0.172, 1
2010158, 0.19, -0.22, 0.281, 0.104, -0.021, 0.033, 1
2010178, 0.513, -0.358, 0.206, 0.255, -0.136, -0.152, 1
2010198, 0.806, -0.468, -0.056, 0.214, -0.251, -0.178, 1
2010218, 1.243, -0.423, -0.059, 0.136, -0.325, -0.212, 0
2010238, 1.326, -0.062, -0.341, 0.053, -0.273, -0.001, 0
2010258, 2.269, -0.007, -0.571, 0.213, 0.035, 0.117, 0
2010278, 3.43, -0.61, -1.072, 0.392, 0.21, 0.006, 0
2010298, 4.488, -1.445, -1.713, 0.317, 0.279, -0.253, 0
2010318, 4.156, -1.946, -2.028, -0.005, 0.357, -0.528, 0
2010338, 3.033, -1.55, -1.762, -0.235, 0.497, -0.659, 0
2010358, 2.558, -0.931, -1.117, -0.139, 0.623, -0.657, 0
2010378, 2.769, -0.938, -0.855, 0.094, 0.688, -0.712, 0
2010398, 2.499, -1.778, -1.183, 0.125, 0.745, -0.811, 0
2010418, 1.619, -2.068, -1.36, 0.023, 0.84, -0.919, 0
2010438, 1.143, -1.894, -1.112, 0.043, 0.966, -0.987, 0
2010458, 1.011, -2.201, -0.869, 0.113, 1.045, -1.04, 0
2010478, 1.281, -2.519, -0.52, 0.179, 0.948, -1.263, 0
2010498, 0.418, -2.223, -0.777, 0.127, 0.642, -1.503, 0
2010518, -1.357, -1.531, -1.292, 0.059, 0.476, -1.506, 0
2010538, -2.866, -1.479, -1.669, 0.01, 0.748, -1.477, 0
2010558, -2.458, -1.291, -1.268, 0.114, 0.929, -1.477, 0
2010578, -2.267, -1.735, -1.232, 0.081, 0.71, -1.614, 0
2010598, -2.996, -1.638, -1.047, -0.036, 0.436, -1.709, 0
2010618, -3.953, -0.989, -0.741, -0.094, 0.328, -1.636, 0
2010638, -4.411, -0.517, -0.611, -0.05, 0.336, -1.451, 0
2010658, -4.513, -0.47, -0.344, 0.07, 0.377, -1.388, 0
2010678, -4.755, -0.789, -0.316, 0.013, 0.431, -1.307, 0
2010698, -4.313, -0.493, -0.163, 0.014, 0.285, -1.081, 0
2010718, -3.99, -0.572, -0.319, 0.087, 0.176, -0.904, 0
2010738, -3.628, -0.94, -0.464, 0.139, 0.21, -0.787, 0
2010758, -3.473, -1.434, -0.013, 0.09, 0.241, -0.758, 0
2010778, -3.021, -1.505, 0.299, 0.062, 0.218, -0.773, 0
2010798, -3.194, -1.434, -0.276, 0.012, 0.116, -0.822, 0
2010818, -3.82, -1.154, -0.258, -0.12, 0.144, -0.878, 0
2010838, -3.681, -0.486, 0.634, -0.172, 0.317, -0.846, 0
2010858, -3.066, -0.521, 1.147, -0.105, 0.274, -0.671, 0
2010878, -2.744, -0.667, 0.846, 0.025, 0.051, -0.588, 0
2010898, -3.084, -0.834, 0.11, 0.086, -0.084, -0.54, 0
2010918, -3.305, -0.72, -0.239, 0.015, 0.004, -0.474, 0
2010938, -3.258, -0.447, -0.191, -0.054, 0.089, -0.375, 0
2010958, -3.165, -0.241, -0.007, -0.035, 0.093, -0.277, 0
2010978, -3.104, -0.143, 0.128, 0.01, 0.101, -0.181, 0
2010998, -3.007, 0.145, 0.203, 0.002, 0.104, -0.061, 0
2011018, -2.917, 0.121, 0.084, -0.01, 0.02, 0.089, 1
2011038, -2.796, -0.086, -0.025, -0.051, 0.001, 0.233, 1
2011058, -2.719, -0.423, -0.258, -0.221, 0.098, 0.459, 1
2011078, -2.469, -0.501, -0.319, -0.379, 0.208, 0.536, 1
2011098, -2.146, -0.578, -0.244, -0.437, 0.134, 0.509, 1
2011118, -2.088, -0.724, -0.195, -0.467, -0.08, 0.52, 1
2011138, -2.251, -1.024, -0.302, -0.478, -0.169, 0.485, 1
2011158, -2.119, -0.741, -0.175, -0.464, -0.162, 0.489, 1
2011178, -2.104, -0.672, -0.118, -0.401, -0.119, 0.53, 1
2011198, -1.839, -0.811, -0.293, -0.35, -0.235, 0.676, 1
2011218, -1.917, -1.244, -0.3, -0.307, -0.276, 0.736, 1
2011238, -1.814, -1.337, -0.132, -0.332, -0.157, 0.726, 1
2011258, -1.292, -1.078, -0.003, -0.3, -0.209, 0.778, 1
2011278, -1.057, -1.206, -0.187, -0.311, -0.407, 0.858, 1
2011298, -1.177, -1.39, -0.287, -0.392, -0.569, 1.0, 1
2011318, -1.306, -1.388, -0.212, -0.362, -0.474, 1.034, 1
2011338, -1.503, -1.836, -0.008, -0.318, -0.262, 1.156, 1
2011358, -0.902, -1.797, 0.514, -0.231, -0.153, 1.208, 1
2011378, -0.132, -1.684, 0.833, -0.138, -0.37, 1.267, 1
2011398, 0.193, -1.698, 0.364, -0.178, -0.772, 1.276, 1
2011418, -0.188, -1.426, -0.051, -0.239, -0.848, 1.261, 1
2011438, -0.048, -0.908, -0.181, -0.169, -0.742, 1.315, 1
2011458, 0.704, -0.806, -0.376, 0.001, -0.773, 1.428, 1
2011478, 1.323, -0.934, -0.944, 0.106, -0.913, 1.445, 1
2011498, 1.295, -1.243, -1.615, 0.003, -0.963, 1.433, 1
2011518, 1.41, -1.26, -2.034, -0.127, -0.856, 1.438, 1
2011538, 1.809, -1.087, -1.991, -0.196, -0.701, 1.421, 1
2011558, 2.213, -1.034, -1.673, -0.211, -0.609, 1.427, 1
2011578, 2.504, -0.979, -1.687, -0.133, -0.579, 1.367, 1
2011598, 2.468, -1.305, -1.846, -0.169, -0.502, 1.361, 1
2011618, 2.57, -1.449, -1.741, -0.297, -0.349, 1.35, 1
2011638, 3.055, -1.346, -1.233, -0.323, -0.258, 1.238, 1
2011658, 3.105, -1.173, -1.107, -0.213, -0.29, 1.122, 1
2011678, 2.835, -1.096, -0.996, -0.116, -0.25, 1.07, 1
2011698, 2.61, -1.205, -1.079, -0.102, -0.161, 1.007, 1
2011718, 2.449, -1.349, -0.614, -0.21, -0.011, 0.913, 1
2011738, 2.503, -1.059, -0.424, -0.18, 0.04, 0.786, 1
2011758, 2.121, -1.074, -0.291, -0.124, 0.0, 0.607, 1
2011778, 1.625, -0.74, -0.434, -0.098, -0.014, 0.541, 1
2011798, 0.982, -0.711, -0.448, -0.116, 0.015, 0.607, 1
2011818, 1.156, -0.53, -0.22, -0.174, 0.215, 0.557, 1
2011838, 1.212, -0.444, 0.151, -0.171, 0.26, 0.511, 1
2011858, 1.177, -0.57, 0.447, -0.086, 0.204, 0.397, 1
2011878, 1.07, -0.405, 0.418, -0.032, 0.069, 0.287, 1
2011898, 0.473, -0.5, -0.055, -0.022, -0.058, 0.215, 1
2011918, 0.053, -0.252, -0.146, -0.104, -0.007, 0.162, 1
2011938, 0.035, -0.235, 0.026, -0.068, 0.089, 0.121, 1
2011958, 0.163, -0.104, 0.142, -0.063, 0.132, 0.124, 1
2011978, 0.004, -0.163, 0.062, 0.006, 0.03, 0.043, 1
2011998, -0.288, -0.044, -0.109, -0.014, -0.04, 0.049, 1
2012018, -0.483, -0.061, -0.371, -0.063, -0.025, 0.037, 1
2012038, -0.592, 0.196, -0.377, -0.171, 0.025, 0.088, 1
2012058, -0.635, 0.209, -0.089, -0.15, 0.084, 0.095, 1
2012078, -0.296, 0.109, 0.15, -0.033, 0.111, 0.084, 1
2012098, -0.152, -0.263, 0.072, 0.024, 0.041, 0.038, 1
2012118, -0.189, -0.247, -0.146, -0.023, -0.03, -0.009, 1
2012138, -0.11, -0.084, -0.328, -0.061, -0.043, -0.02, 1
2012158, 0.175, 0.074, -0.005, 0.083, -0.047, -0.141, 1
2012178, 0.304, -0.374, 0.145, 0.293, -0.1, -0.215, 1
2012198, 1.127, -0.526, -0.033, 0.144, -0.229, -0.233, 0
2012218, 1.562, -0.352, 0.0, 0.092, -0.378, -0.262, 0
2012238, 1.741, -0.004, -0.388, 0.204, -0.395, -0.152, 0
2012258, 2.111, -0.385, -1.018, 0.36, -0.061, -0.057, 0
2012278, 3.134, -1.368, -1.455, 0.27, 0.343, -0.061, 0
2012298, 4.188, -1.949, -1.909, 0.03, 0.511, -0.207, 0
2012318, 4.524, -1.887, -1.69, -0.057, 0.532, -0.455, 0
2012338, 4.029, -1.945, -1.131, -0.014, 0.547, -0.682, 0
2012358, 4.075, -2.17, -0.78, -0.084, 0.511, -0.975, 0
2012378, 3.035, -2.16, -1.404, -0.199, 0.536, -1.229, 0
2012398, 0.747, -1.489, -2.132, -0.246, 0.862, -1.3, 0
2012418, -0.6, -0.61, -1.293, -0.064, 1.312, -1.107, 0
2012438, -0.233, -0.36, 0.301, 0.247, 1.559, -0.845, 0
2012458, 1.786, -1.137, 0.816, 0.546, 1.307, -0.899, 0
2012478, 2.107, -2.181, -0.706, 0.521, 0.69, -1.232, 0
2012498, -0.807, -2.892, -2.481, 0.066, 0.638, -1.557, 0
2012518, -2.439, -1.881, -1.617, -0.039, 0.977, -1.594, 0
2012538, -1.919, -1.57, -0.246, 0.192, 1.032, -1.43, 0
2012558, -1.367, -1.944, -0.368, 0.351, 0.784, -1.459, 0
2012578, -2.005, -2.317, -0.768, 0.315, 0.679, -1.517, 0
2012598, -2.826, -2.399, -1.422, 0.192, 0.657, -1.607, 0
2012618, -3.572, -1.984, -1.261, 0.111, 0.672, -1.649, 0
2012638, -3.865, -1.602, -0.687, 0.208, 0.676, -1.539, 0
2012658, -3.304, -1.708, -0.526, 0.32, 0.506, -1.482, 0
2012678, -3.679, -1.777, -0.808, 0.241, 0.372, -1.534, 0
2012698, -4.121, -1.331, -0.03, 0.111, 0.178, -1.529, 0
2012718, -4.884, -0.835, -0.474, 0.102, -0.081, -1.513, 0
2012738, -5.379, -0.966, -0.585, 0.067, -0.092, -1.437, 0
2012758, -4.976, -0.815, -0.331, 0.037, 0.043, -1.401, 0
2012778, -4.835, -0.522, -0.135, -0.049, -0.018, -1.319, 0
2012798, -5.146, -0.109, -0.071, -0.098, -0.164, -1.222, 0
2012818, -5.107, -0.121, 0.039, -0.066, -0.154, -1.055, 0
2012838, -4.719, -0.069, 0.129, -0.035, -0.131, -0.916, 0
2012858, -4.932, 0.006, -0.123, -0.049, -0.175, -0.788, 0
2012878, -4.955, 0.22, -0.224, -0.072, -0.108, -0.595, 0
2012898, -4.534, 0.193, -0.085, -0.04, 0.018, -0.412, 0
2012918, -4.183, 0.28, -0.095, -0.038, 0.065, -0.227, 0
2012938, -4.218, 0.155, -0.231, -0.064, 0.017, -0.048, 0
2012958, -4.085, 0.176, -0.174, -0.144, 0.039, 0.142, 1
2012978, -4.035, 0.14, -0.447, -0.284, 0.136, 0.43, 1
2012998, -3.64, 0.066, -0.58, -0.477, 0.203, 0.709, 1
2013018, -3.175, -0.238, -0.387, -0.491, 0.14, 0.734, 1
