timestamp, accX, accY, accZ, gyroX, gyroY, gyroZ, button
3354399, -0.007, -0.014, -0.11, -0.086, 0.043, 0.056, 1
3354419, -0.027, -0.017, -0.1, -0.105, 0.024, 0.059, 1
3354439, -0.009, -0.022, -0.08, -0.097, 0.028, 0.06, 1
3354459, 0.0, -0.022, -0.09, -0.091, 0.044, 0.056, 1
3354479, -0.007, -0.012, -0.159, -0.103, 0.041, 0.055, 1
3354499, -0.04, -0.012, -0.101, -0.098, 0.034, 0.062, 1
3354519, 0.01, -0.039, -0.07, -0.092, 0.043, 0.071, 1
3354539, 0.016, -0.048, -0.108, -0.084, 0.036, 0.065, 1
3354559, -0.023, -0.022, -0.136, -0.068, 0.029, 0.051, 1
3354579, -0.006, -0.004, -0.138, -0.073, 0.049, 0.054, 1
3354599, 0.003, -0.012, -0.149, -0.093, 0.032, 0.059, 1
3354619, -0.036, 0.012, -0.19, -0.095, 0.01, 0.054, 1
3354639, -0.022, -0.001, -0.21, -0.076, 0.031, 0.061, 1
3354659, 0.009, -0.048, -0.188, -0.064, 0.047, 0.059, 1
3354679, 0.002, -0.014, -0.188, -0.073, 0.042, 0.058, 1
3354699, -0.025, -0.003, -0.178, -0.081, 0.025, 0.054, 1
3354719, -0.021, -0.014, -0.138, -0.062, 0.014, 0.062, 1
3354739, 0.008, -0.01, -0.039, -0.03, -0.004, 0.048, 1
3354759, 0.016, -0.062, -0.193, -0.024, 0.0, 0.039, 1
3354779, -0.041, -0.03, -0.309, -0.071, 0.019, 0.043, 1
3354799, -0.042, 0.014, -0.233, -0.108, 0.07, 0.054, 1
3354819, 0.04, -0.02, -0.106, -0.062, 0.046, 0.046, 1
3354839, 0.044, -0.029, -0.027, -0.012, -0.005, 0.023, 1
3354859, -0.139, -0.153, -0.161, -0.056, 0.03, 0.076, 1
3354879, -0.259, -0.276, -0.563, -0.308, 0.171, 0.146, 1
3354899, -0.021, 0.059, -0.277, -0.335, 0.125, 0.208, 1
3354919, 0.087, 0.029, 0.156, -0.179, 0.006, 0.163, 0
3354939, 0.072, -0.031, 0.158, 0.016, -0.105, 0.102, 0
3354959, 0.085, -0.124, 0.273, 0.194, -0.193, 0.026, 0
3354979, -0.338, -0.45, -0.388, 0.026, -0.15, 0.044, 0
3354999, -0.283, -0.152, -0.781, -0.255, 0.007, 0.134, 0
3355019, -0.252, 0.06, -0.609, -0.322, 0.137, 0.171, 0
3355039, -0.081, 0.082, -0.136, -0.199, 0.227, 0.145, 0
3355059, 0.224, -0.159, 0.099, -0.065, 0.152, 0.091, 0
3355079, 0.247, -0.305, 0.063, 0.001, -0.018, 0.054, 0
3355099, 0.113, -0.527, -0.117, -0.023, -0.177, 0.054, 0
3355119, -0.098, -0.647, -0.299, -0.05, -0.237, 0.083, 0
3355139, -0.112, -1.126, -0.678, -0.088, -0.181, 0.088, 0
3355159, 0.247, -1.861, -1.176, -0.097, -0.131, 0.059, 0
3355179, 0.22, -2.872, -1.958, -0.143, -0.134, -0.026, 0
3355199, -0.636, -4.326, -2.615, -0.244, -0.026, 0.079, 0
3355219, -1.115, -5.632, -2.242, -0.271, 0.355, 0.156, 0
3355239, -1.573, -6.267, -1.302, -0.039, 1.01, 0.116, 0
3355259, -0.961, -7.695, -0.791, 0.38, 1.414, 0.039, 0
3355279, 1.001, -9.985, -0.398, -0.21, 0.716, -0.393, 0
3355299, 1.311, -8.879, 0.654, -1.695, -0.798, -1.153, 0
3355319, -4.281, -4.269, 2.06, -1.222, 0.01, -1.189, 0
3355339, -1.069, -0.845, 2.935, 0.153, 1.348, -1.414, 0
3355359, 1.493, -0.301, 2.904, 0.323, 1.145, -1.588, 0
3355379, 0.591, 1.807, 2.025, -0.488, 0.147, -1.492, 0
3355399, -1.555, 5.25, 1.813, -0.59, 0.177, -1.304, 0
3355419, -0.158, 6.454, 2.858, 0.235, 1.031, -1.131, 0
3355439, 0.803, 6.65, 2.28, 0.821, 1.059, -1.161, 0
3355459, -0.8, 6.654, -0.215, 0.607, 0.363, -1.025, 0
3355479, -2.552, 8.102, -1.267, 0.109, 0.054, -0.739, 0
3355499, -3.15, 8.994, -0.863, 0.06, 0.25, -0.418, 0
3355519, -2.64, 7.342, -1.391, 0.237, 0.353, -0.221, 0
3355539, -2.409, 5.229, -2.348, 0.113, 0.207, -0.038, 0
3355559, -1.809, 3.685, -2.324, -0.161, 0.031, 0.12, 0
3355579, -1.329, 2.348, -1.823, -0.432, -0.045, 0.238, 0
3355599, -0.507, 1.203, -1.183, -0.486, 0.026, 0.274, 0
3355619, -0.044, 0.133, -0.728, -0.241, 0.069, 0.175, 0
3355639, 0.521, -0.953, -0.485, -0.051, 0.228, 0.065, 0
3355659, 0.944, -1.577, -0.353, -0.166, 0.152, -0.024, 0
3355679, -0.061, -0.133, 0.093, -0.352, -0.145, -0.073, 0
3355699, -0.503, 0.402, 0.196, -0.186, -0.05, -0.076, 1
3355719, -0.61, 0.774, 0.043, -0.027, 0.051, -0.091, 1
3355739, -1.129, 0.721, -0.727, -0.026, 0.308, -0.006, 1
3355759, -0.882, 1.383, -0.657, -0.262, 0.541, 0.17, 1
3355779, 0.124, 2.891, 0.178, -0.336, 0.06, 0.269, 1
3355799, -1.163, 3.401, 0.026, -0.224, -0.535, 0.344, 1
3355819, -1.316, 4.007, 0.22, -0.042, -0.397, 0.423, 1
3355839, -1.27, 4.329, 0.155, 0.218, -0.28, 0.458, 1
3355859, -0.571, 3.324, -0.096, 0.267, -0.259, 0.573, 1
3355879, -0.39, 2.247, -0.175, -0.17, -0.521, 0.805, 1
3355899, -0.496, 1.974, -0.329, -0.602, -0.772, 0.947, 1
3355919, -0.855, 2.229, -0.342, -0.409, -0.617, 0.975, 1
3355939, -0.735, 1.307, -0.104, 0.062, -0.249, 0.754, 1
3355959, -0.305, 0.05, 0.24, 0.301, -0.358, 0.743, 1
3355979, 0.157, -1.214, 0.053, 0.001, -0.924, 1.108, 1
3355999, 0.024, -1.748, -0.246, -0.727, -1.408, 1.18, 1
3356019, -1.416, -2.19, -0.578, -0.956, -1.06, 1.062, 1
3356039, -1.368, -2.227, 0.021, -0.678, -0.507, 0.48, 1
3356059, -1.639, -2.545, 0.69, -0.083, -0.062, -0.095, 1
3356079, -1.491, -3.525, 0.539, 0.361, 0.238, -0.098, 1
3356099, -1.318, -4.104, -0.076, 0.297, 0.2, 0.799, 1
3356119, -0.228, -5.333, -0.652, -0.342, -0.034, 1.064, 1
3356139, -0.029, -5.161, -0.491, -0.711, -0.252, 0.582, 1
3356159, 0.222, -4.561, -0.229, -0.233, -0.279, -0.116, 1
3356179, -0.441, -3.117, -0.635, 0.637, -0.034, -0.113, 1
3356199, -0.498, -3.633, -1.664, 0.91, -0.015, 0.734, 1
3356219, 0.216, -4.815, -2.088, 0.103, -0.228, 0.913, 1
3356239, 0.684, -4.643, -1.531, -0.703, -0.417, 0.687, 1
3356259, 0.479, -3.106, -0.296, -0.654, -0.306, 0.453, 1
3356279, 0.436, -2.152, 0.395, 0.278, 0.088, 0.017, 1
3356299, 0.032, -1.835, -0.682, 0.524, 0.246, 0.007, 1
3356319, -0.107, -1.781, -1.02, 0.083, 0.144, 0.205, 1
3356339, -0.069, -0.846, -0.316, -0.478, 0.095, 0.252, 1
3356359, 0.158, -0.397, 0.357, -0.42, 0.054, 0.185, 1
3356379, 0.182, -0.399, 0.295, -0.087, 0.031, 0.056, 1
3356399, -0.022, -0.294, -0.22, 0.107, 0.007, 0.048, 1
3356419, -0.399, -0.111, -0.704, 0.05, 0.003, 0.088, 1
3356439, -0.642, 0.262, -0.455, -0.063, 0.033, 0.225, 1
3356459, -0.461, 0.227, 0.076, -0.076, 0.074, 0.361, 1
3356479, -0.086, -0.212, 0.164, 0.023, 0.059, 0.348, 1
3356499, -0.17, -0.292, 0.086, 0.061, 0.112, 0.284, 0
3356519, 0.025, -0.062, 0.131, 0.037, 0.215, 0.275, 0
3356539, 0.277, -0.442, -0.054, 0.088, 0.125, 0.213, 0
3356559, -0.022, -0.204, -0.114, 0.051, -0.004, 0.124, 0
3356579, -0.06, -0.039, -0.05, 0.024, 0.041, 0.145, 0
3356599, -0.058, -0.092, -0.083, 0.018, 0.095, 0.118, 0
3356619, -0.096, -0.065, -0.049, 0.008, 0.087, 0.055, 0
3356639, -0.117, 0.062, 0.024, -0.027, 0.141, -0.017, 0
3356659, -0.109, -0.022, -0.18, -0.051, 0.16, -0.023, 0
3356679, -0.161, -0.002, -0.272, -0.143, 0.126, 0.014, 0
3356699, -0.156, 0.074, 0.004, -0.131, 0.12, 0.025, 0
3356719, 0.048, -0.253, 0.09, -0.023, 0.144, 0.034, 0
3356739, 0.039, -0.613, 0.0, 0.023, 0.105, 0.012, 0
3356759, 0.269, -1.387, -0.307, 0.015, 0.0, 0.053, 0
3356779, 0.599, -2.53, -0.863, -0.212, -0.172, 0.047, 0
3356799, 0.504, -4.091, -1.775, -0.341, -0.217, 0.035, 0
3356819, 0.16, -6.635, -2.7, -0.533, -0.172, 0.256, 0
3356839, 0.171, -8.939, -2.56, -0.725, -0.212, 0.529, 0
3356859, -0.576, -10.119, -1.746, -0.831, -0.164, 0.544, 0
3356879, -1.727, -10.81, -0.944, -0.926, 0.182, 0.285, 0
3356899, -2.035, -9.502, 0.54, -0.653, 0.499, -0.516, 0
3356919, 0.313, -7.642, 1.997, -0.959, 0.408, -1.544, 0
3356939, -0.386, -2.908, 2.955, -1.23, 0.004, -1.89, 0
3356959, -3.17, 2.502, 3.064, -0.722, 0.472, -1.862, 0
3356979, -3.362, 4.73, 2.911, 0.048, 1.127, -1.623, 0
3356999, -0.224, 4.165, 2.471, 0.112, 0.977, -1.458, 0
3357019, 0.656, 5.102, 2.025, -0.036, 0.546, -1.254, 0
3357039, -0.254, 6.601, 1.982, 0.273, 0.51, -1.113, 0
3357059, -1.008, 7.903, 1.435, 0.723, 0.509, -0.984, 0
3357079, -1.442, 7.611, 0.403, 0.902, 0.395, -0.692, 0
3357099, -0.51, 5.209, -1.314, 0.679, 0.171, -0.5, 0
3357119, -0.389, 3.485, -2.464, 0.301, 0.163, -0.416, 0
3357139, -1.027, 4.089, -1.705, 0.25, 0.416, -0.387, 0
3357159, -0.273, 3.325, -0.674, 0.196, 0.397, -0.336, 0
3357179, -0.064, 2.306, -0.438, 0.152, 0.158, -0.323, 0
3357199, -0.383, 1.202, -1.437, 0.035, -0.036, -0.339, 0
3357219, -1.229, 0.975, -2.286, -0.089, -0.014, -0.322, 0
3357239, -1.399, 1.029, -1.854, -0.095, 0.271, -0.243, 0
3357259, -0.746, 0.536, -0.673, -0.196, 0.386, -0.101, 0
3357279, -0.454, 0.437, 0.94, -0.273, 0.164, 0.008, 0
3357299, -0.734, 0.488, 0.915, -0.117, 0.045, 0.078, 0
3357319, -0.32, -0.089, 0.493, -0.025, 0.088, 0.166, 0
3357339, -0.126, -0.105, 0.206, 0.004, 0.053, 0.2, 0
3357359, 0.063, -0.163, -0.277, 0.071, 0.081, 0.18, 0
3357379, -0.048, 0.269, -0.805, 0.109, 0.118, 0.129, 1
3357399, -0.536, 0.87, -1.348, 0.199, 0.298, 0.101, 1
3357419, -0.094, 0.864, -1.389, -0.044, 0.524, 0.266, 1
3357439, -0.322, 2.721, -0.574, -0.448, 0.301, 0.475, 1
3357459, -0.002, 3.605, -0.154, -0.329, -0.118, 0.575, 1
3357479, -0.801, 3.043, -0.677, -0.002, -0.466, 0.56, 1
3357499, -1.05, 2.721, -1.006, 0.167, -0.34, 0.627, 1
3357519, -0.044, 1.699, -1.002, 0.253, -0.133, 0.691, 1
3357539, 0.942, 1.094, -0.817, 0.05, -0.287, 0.803, 1
3357559, -0.081, 1.356, -0.667, -0.18, -0.55, 0.797, 1
3357579, -0.705, 1.234, -0.289, -0.182, -0.445, 0.789, 1
3357599, -0.661, 0.691, 0.601, -0.091, -0.279, 0.644, 1
3357619, -0.246, -0.428, 1.155, 0.236, -0.284, 0.833, 1
3357639, 0.855, -3.238, 0.658, 0.415, -0.528, 1.051, 1
3357659, 0.069, -3.662, -0.025, 0.063, -1.043, 1.025, 1
3357679, -1.111, -3.092, -0.348, -0.228, -1.123, 0.812, 1
3357699, -1.793, -2.584, 0.031, -0.255, -0.548, 0.389, 1
3357719, -1.571, -2.827, 0.612, 0.092, 0.323, 0.24, 1
3357739, -0.202, -4.276, 0.672, 0.352, 0.807, 0.64, 1
3357759, 0.41, -5.517, 0.1, -0.231, 0.038, 0.915, 1
3357779, 0.028, -4.524, -0.176, -0.613, -0.493, 0.774, 1
3357799, -0.874, -3.995, -0.486, -0.473, -0.255, 0.607, 1
3357819, -0.803, -3.796, -0.657, 0.151, 0.198, 0.524, 1
3357839, -0.843, -4.746, -0.849, 0.358, 0.448, 1.035, 1
3357859, 0.148, -5.229, -0.724, 0.018, 0.444, 1.152, 1
3357879, 1.025, -4.865, -0.538, -0.119, 0.202, 0.989, 1
3357899, 1.519, -4.667, -0.179, 0.044, -0.155, 0.601, 1
3357919, 0.724, -3.956, 0.02, 0.243, -0.202, 0.19, 1
3357939, -0.471, -3.13, -0.751, 0.271, -0.014, 0.384, 1
3357959, -0.635, -3.047, -1.271, -0.072, 0.208, 0.626, 1
3357979, -0.308, -2.509, -0.692, -0.365, 0.238, 0.572, 1
3357999, 0.116, -1.408, 0.145, -0.239, 0.131, 0.35, 1
3358019, 0.103, -1.112, 0.531, 0.066, 0.051, 0.127, 1
3358039, -0.292, -1.203, 0.046, 0.199, 0.145, 0.02, 1
3358059, -0.282, -0.728, -0.616, 0.194, 0.158, 0.091, 1
3358079, 0.019, -0.871, -0.843, -0.023, 0.043, 0.136, 1
3358099, 0.131, -0.641, -0.306, -0.073, -0.095, 0.103, 1
3358119, 0.272, -0.342, 0.143, 0.104, -0.191, -0.016, 1
3358139, 0.037, -0.325, -0.148, 0.255, -0.187, -0.091, 1
3358159, -0.519, -0.514, -0.678, 0.191, -0.047, 0.025, 1
3358179, -0.199, -0.699, -0.564, -0.023, 0.014, 0.103, 1
3358199, 0.257, -0.489, 0.046, -0.136, -0.158, 0.046, 1
3358219, 0.224, -0.212, 0.393, 0.032, -0.281, -0.054, 1
3358239, -0.028, -0.172, 0.195, 0.343, -0.202, -0.083, 1
3358259, -1.028, -0.351, -0.899, 0.228, 0.108, 0.137, 0
3358279, -0.505, -0.066, -0.192, 0.069, 0.463, 0.226, 0
3358299, 0.453, -0.318, 0.425, 0.198, 0.467, 0.202, 0
3358319, 0.352, -0.611, 0.14, 0.215, 0.161, 0.029, 0
3358339, -0.177, -0.498, -0.279, 0.1, -0.009, -0.003, 0
3358359, -0.694, -0.288, -0.561, -0.074, 0.001, 0.061, 0
3358379, -0.831, -0.076, -0.521, -0.238, 0.194, 0.188, 0
3358399, -0.239, -0.155, -0.09, -0.213, 0.348, 0.243, 0
3358419, 0.046, -0.639, -0.081, -0.116, 0.281, 0.163, 0
3358439, -0.045, -0.915, -0.229, -0.113, 0.177, 0.117, 0
3358459, 0.232, -1.417, -0.23, -0.107, 0.018, 0.117, 0
3358479, -0.04, -1.752, -0.485, -0.202, -0.137, 0.02, 0
3358499, -0.154, -2.713, -0.886, -0.241, -0.236, 0.015, 0
3358519, -0.565, -4.188, -1.209, -0.39, -0.199, 0.018, 0
3358539, -0.267, -5.534, -0.865, -0.619, -0.001, -0.117, 0
3358559, -0.407, -6.793, -0.806, -0.656, 0.184, -0.252, 0
3358579, -1.092, -8.579, -0.954, -0.778, 0.233, -0.125, 0
3358599, -1.311, -9.191, -0.192, -1.269, 0.115, -0.342, 0
3358619, -1.254, -8.249, 1.104, -1.544, -0.067, -0.734, 0
3358639, -1.185, -6.739, 2.23, -1.242, 0.28, -1.258, 0
3358659, -1.564, -2.89, 3.461, -0.412, 0.833, -1.8, 0
3358679, -0.503, -0.638, 3.454, 0.454, 1.081, -2.032, 0
3358699, 0.261, 0.677, 2.219, 0.367, 0.568, -2.056, 0
3358719, -0.94, 3.391, 0.976, -0.362, -0.127, -1.584, 0
3358739, -1.648, 6.06, 0.492, -0.384, 0.262, -1.396, 0
3358759, -2.103, 7.96, -0.094, 0.328, 0.714, -1.252, 0
3358779, -1.784, 7.222, -1.288, 0.709, 1.01, -1.069, 0
3358799, -1.851, 6.968, -1.49, 0.621, 1.157, -0.762, 0
3358819, -1.399, 6.533, -0.734, 0.378, 0.959, -0.404, 0
3358839, -1.049, 5.843, -0.214, 0.262, 0.751, -0.174, 0
3358859, -0.575, 5.347, 0.319, 0.351, 0.584, -0.138, 0
3358879, 0.391, 2.45, -0.864, 0.296, 0.147, -0.157, 0
3358899, 0.031, 0.983, -2.193, 0.034, 0.094, -0.194, 0
3358919, -0.336, 0.904, -2.172, 0.04, 0.368, -0.256, 0
3358939, -0.467, 0.508, -1.736, 0.117, 0.502, -0.295, 0
3358959, -0.771, 0.52, -0.809, 0.094, 0.433, -0.27, 0
3358979, -0.419, -0.098, -0.31, -0.095, 0.097, -0.205, 0
3358999, -0.827, 0.032, -0.274, -0.24, -0.068, -0.13, 0
3359019, -0.999, 0.191, -0.36, -0.254, 0.018, -0.045, 0
3359039, -0.726, 0.057, -0.347, -0.152, 0.098, -0.014, 0
3359059, -0.418, -0.44, -0.398, -0.119, 0.1, 0.008, 0
3359079, -0.471, -0.558, -0.353, -0.197, 0.119, 0.061, 0
3359099, -0.304, -0.146, 0.118, -0.223, 0.189, 0.101, 0
3359119, -0.204, 0.291, 0.592, -0.145, 0.221, 0.135, 0
3359139, 0.251, 0.036, 0.725, -0.054, -0.002, 0.144, 1
3359159, -0.33, 0.066, 0.104, -0.015, -0.036, 0.143, 1
3359179, -0.15, 0.101, -0.755, -0.026, 0.166, 0.171, 1
3359199, 0.095, 0.335, -1.168, -0.094, 0.301, 0.224, 1
3359219, 0.138, 1.174, -1.576, -0.001, 0.173, 0.21, 1
3359239, -0.797, 3.039, -0.447, 0.149, 0.2, 0.2, 1
3359259, -0.449, 3.508, 0.103, 0.164, 0.131, 0.307, 1
3359279, -0.745, 4.132, -0.199, 0.178, -0.191, 0.438, 1
3359299, -1.311, 4.014, -0.749, 0.204, -0.435, 0.62, 1
3359319, -0.827, 3.123, -0.729, 0.214, -0.53, 0.802, 1
3359339, 0.162, 2.185, -0.31, 0.201, -0.66, 0.911, 1
3359359, 0.131, 1.323, -0.142, 0.204, -0.938, 0.907, 1
3359379, -0.55, 0.667, -0.048, 0.11, -1.196, 1.226, 1
3359399, -0.607, -0.003, 0.427, -0.197, -1.293, 1.494, 1
3359419, -0.241, -1.139, 0.95, -0.139, -1.058, 1.546, 1
3359439, 0.194, -2.571, 1.143, 0.102, -0.724, 1.087, 1
3359459, -1.565, -2.564, 0.679, 0.267, -0.434, 0.74, 1
3359479, -1.907, -3.773, -0.048, 0.313, -0.107, 1.265, 1
3359499, -0.489, -5.523, -0.092, -0.172, 0.1, 1.533, 1
3359519, 0.999, -6.247, 0.479, -0.639, 0.123, 1.347, 1
3359539, 1.343, -6.391, 0.828, -0.83, -0.046, 0.475, 1
3359559, 0.122, -5.352, 1.094, -0.676, -0.038, -0.315, 1
3359579, -0.115, -5.124, 0.733, -0.311, 0.177, -0.675, 1
3359599, 0.398, -4.591, -0.555, -0.167, 0.145, -0.668, 1
3359619, 0.056, -4.513, -2.078, -0.135, -0.395, -0.108, 1
3359639, -0.442, -4.895, -2.357, -0.472, -0.789, 0.812, 1
3359659, -0.179, -4.469, -1.482, -0.596, -0.36, 0.929, 1
3359679, 0.848, -4.171, -0.714, -0.346, 0.521, 0.751, 1
3359699, 2.226, -4.003, -0.18, 0.182, 1.069, 0.16, 1
3359719, 2.128, -3.422, 0.025, 0.244, 0.703, -0.06, 1
3359739, 0.807, -2.757, 0.158, -0.028, 0.278, -0.077, 1
3359759, -0.121, -1.474, 0.672, -0.205, 0.059, -0.042, 1
3359779, -0.151, -0.82, 0.62, -0.152, -0.064, -0.069, 1
3359799, -0.241, -0.559, 0.246, -0.02, -0.114, -0.044, 1
3359819, -0.236, -0.428, -0.115, 0.127, -0.087, 0.016, 1
3359839, 0.131, -0.821, -0.597, 0.052, -0.117, -0.028, 1
3359859, 0.061, -0.737, -1.073, -0.165, -0.19, -0.027, 1
3359879, -0.584, -0.293, -0.876, -0.221, -0.059, 0.045, 1
3359899, -0.668, -0.095, -0.21, -0.102, 0.158, 0.15, 1
3359919, 0.124, -0.119, 0.108, 0.128, 0.122, 0.159, 1
3359939, 0.567, -0.523, -0.317, 0.144, -0.187, 0.133, 1
3359959, 0.094, -0.822, -0.842, -0.125, -0.356, 0.18, 1
3359979, -0.309, -0.59, -0.832, -0.352, -0.246, 0.261, 1
3359999, -0.147, -0.169, -0.43, -0.253, -0.111, 0.268, 1
3360019, -0.078, -0.216, 0.024, -0.034, -0.031, 0.253, 1
3360039, -0.047, -0.456, 0.029, 0.083, 0.063, 0.16, 1
3360059, 0.021, -0.927, -0.361, -0.145, 0.07, 0.213, 1
3360079, 0.207, -0.545, -0.459, -0.466, -0.015, 0.226, 0
3360099, -0.101, 0.151, -0.064, -0.348, -0.058, 0.215, 0
3360119, -0.019, 0.042, 0.197, 0.025, 0.017, 0.106, 0
3360139, -0.009, -0.459, 0.007, 0.149, 0.218, 0.039, 0
3360159, 0.397, -0.853, -0.578, -0.062, 0.291, 0.026, 0
3360179, 0.513, -0.785, -0.609, -0.328, 0.17, 0.089, 0
3360199, 0.418, -0.612, -0.051, -0.387, -0.01, 0.059, 0
3360219, 0.315, -0.657, 0.174, -0.234, -0.096, -0.042, 0
3360239, -0.216, -0.435, -0.353, -0.252, -0.129, -0.108, 0
3360259, -0.559, -0.408, -0.548, -0.233, -0.02, 0.008, 0
3360279, -0.167, -0.834, -0.429, -0.215, 0.073, 0.13, 0
3360299, 0.253, -1.901, -0.624, -0.183, 0.043, 0.109, 0
3360319, 0.249, -3.398, -1.025, -0.266, -0.055, 0.049, 0
3360339, 0.347, -5.124, -1.143, -0.421, -0.127, 0.041, 0
3360359, 0.019, -6.982, -1.487, -0.475, -0.077, 0.006, 0
3360379, -1.111, -9.366, -2.909, -0.288, 0.189, 0.52, 0
3360399, -1.133, -11.794, -3.42, -0.266, 0.339, 1.495, 0
3360419, 0.365, -10.273, -0.432, -0.97, -0.272, 0.651, 0
3360439, -2.187, -3.69, 1.902, -1.192, -0.587, -0.914, 0
3360459, -1.826, -0.488, 2.497, -0.351, 0.356, -1.669, 0
3360479, -1.535, 2.176, 2.524, 0.1, 0.949, -1.886, 0
3360499, -2.542, 4.766, 2.403, 0.269, 1.01, -1.758, 0
3360519, -1.183, 4.895, 2.005, 0.391, 1.246, -1.453, 0
3360539, 0.976, 4.593, 2.09, 0.26, 1.108, -1.263, 0
3360559, 0.589, 4.985, 1.586, 0.011, 0.569, -1.148, 0
3360579, -0.418, 5.468, 1.144, -0.073, 0.243, -0.959, 0
3360599, -0.53, 5.708, 1.116, 0.167, 0.373, -0.742, 0
3360619, 0.124, 3.315, 0.568, 0.428, 0.544, -0.534, 0
3360639, 0.794, 1.297, -0.064, 0.335, 0.564, -0.449, 0
3360659, 0.497, 1.847, -0.145, 0.078, 0.166, -0.455, 0
3360679, -0.167, 2.217, -0.752, 0.055, -0.31, -0.374, 0
3360699, -0.714, 2.804, -1.063, 0.295, -0.154, -0.344, 0
3360719, -0.639, 1.244, -2.349, 0.365, -0.06, -0.354, 0
3360739, -0.638, -0.44, -3.369, 0.021, 0.021, -0.285, 0
3360759, -0.416, -0.301, -2.729, -0.417, -0.051, -0.208, 0
3360779, -0.773, 0.616, -1.399, -0.499, 0.069, -0.119, 0
3360799, -0.924, 1.168, -0.308, -0.315, 0.322, -0.085, 0
3360819, -0.494, 0.934, 0.196, -0.072, 0.335, -0.091, 0
3360839, -0.189, 0.108, -0.017, -0.071, 0.213, -0.081, 0
3360859, 0.026, -0.35, -0.131, -0.203, 0.074, -0.064, 0
3360879, -0.29, -0.136, -0.082, -0.238, 0.119, 0.005, 0
3360899, -0.264, 0.302, 0.283, -0.169, 0.204, 0.053, 1
3360919, -0.184, 0.448, 0.651, -0.018, 0.164, 0.07, 1
3360939, -0.263, 0.414, 0.633, 0.139, 0.141, 0.088, 1
3360959, -0.233, 0.062, 0.107, 0.156, 0.188, 0.123, 1
3360979, -0.401, -0.167, -0.563, -0.012, 0.421, 0.28, 1
3360999, -0.399, 0.629, -0.552, -0.023, 0.588, 0.39, 1
3361019, 0.113, 1.494, 0.221, 0.268, 0.375, 0.387, 1
3361039, -0.09, 1.805, 0.282, 0.492, 0.098, 0.337, 1
3361059, -0.279, 1.769, 0.407, 0.557, -0.003, 0.415, 1
3361079, -0.01, 1.731, 0.178, 0.496, -0.153, 0.521, 1
3361099, 0.182, 1.825, -0.225, 0.411, -0.405, 0.583, 1
3361119, -0.033, 1.767, -0.521, 0.32, -0.636, 0.74, 1
3361139, 0.021, 1.204, -0.901, 0.102, -0.822, 0.884, 1
3361159, 0.148, 1.077, -1.046, -0.116, -0.952, 0.974, 1
3361179, -0.314, 0.929, -0.563, -0.005, -0.629, 1.155, 1
3361199, 0.368, -0.503, -0.216, 0.28, -0.361, 1.018, 1
3361219, 0.611, -1.224, 0.009, 0.492, -0.431, 0.755, 1
3361239, -0.243, -1.428, 0.081, 0.261, -0.766, 0.722, 1
3361259, -1.4, -1.81, -0.072, -0.255, -0.832, 1.248, 1
3361279, -1.228, -3.562, -0.198, -0.638, -0.381, 1.605, 1
3361299, -0.027, -3.927, 0.488, -0.695, -0.078, 1.377, 1
3361319, -0.07, -4.551, 0.924, -0.557, -0.293, 0.755, 1
3361339, -0.78, -4.367, 0.888, -0.535, -0.374, 0.089, 1
3361359, -1.655, -4.504, 0.082, -0.357, -0.12, -0.188, 1
3361379, -2.204, -4.86, -0.432, -0.208, 0.313, -0.062, 1
3361399, -1.588, -4.926, -0.311, 0.012, 0.638, 0.585, 1
3361419, 0.261, -5.711, -0.452, 0.18, 0.707, 0.987, 1
3361439, 1.242, -5.694, -0.922, 0.066, 0.366, 0.784, 1
3361459, 0.859, -5.523, -1.015, -0.16, 0.031, 0.466, 1
3361479, 0.605, -4.186, -0.768, -0.324, -0.053, 0.331, 1
3361499, 0.497, -3.225, -0.853, -0.248, -0.131, 0.203, 1
3361519, 0.318, -3.176, -0.993, -0.146, -0.394, 0.199, 1
3361539, -0.407, -2.909, -0.929, -0.23, -0.505, 0.158, 1
3361559, -1.048, -1.823, -0.623, -0.263, -0.14, 0.091, 1
3361579, -0.887, -1.401, -0.303, -0.091, 0.371, 0.109, 1
3361599, -0.542, -1.548, -0.177, 0.065, 0.595, 0.054, 1
3361619, -0.255, -1.189, -0.033, 0.032, 0.482, 0.093, 1
3361639, 0.043, -1.479, -0.147, -0.133, 0.238, 0.176, 1
3361659, -0.117, -1.128, -0.078, -0.361, 0.0, 0.18, 1
3361679, -0.242, -0.727, -0.017, -0.287, 0.098, 0.126, 1
3361699, -0.13, -0.48, -0.103, -0.177, 0.244, 0.091, 1
3361719, 0.171, -0.738, -0.228, -0.097, 0.2, 0.07, 1
3361739, 0.105, -0.844, -0.442, -0.192, 0.03, 0.152, 1
3361759, 0.009, -0.711, -0.322, -0.325, -0.064, 0.134, 1
3361779, -0.189, -0.459, -0.094, -0.268, -0.025, 0.095, 1
3361799, -0.09, -0.514, -0.043, -0.171, 0.064, 0.002, 1
3361819, -0.016, -0.434, 0.057, -0.081, 0.117, -0.036, 1
3361839, -0.039, -0.422, -0.243, -0.129, 0.05, 0.037, 1
3361859, -0.033, -0.308, -0.211, -0.192, -0.059, 0.067, 1
3361879, -0.103, -0.07, 0.242, -0.041, -0.04, 0.02, 1
3361899, 0.082, 0.002, 0.459, 0.277, 0.033, -0.13, 1
3361919, -0.099, -0.437, -0.037, 0.423, 0.144, -0.252, 0
3361939, -0.81, -0.713, -1.34, 0.067, 0.312, -0.047, 0
3361959, -0.593, -0.381, -1.037, -0.273, 0.382, 0.19, 0
3361979, 0.068, -0.057, -0.021, -0.208, 0.227, 0.116, 0
3361999, 0.189, -0.188, 0.387, -0.02, 0.04, 0.001, 0
3362019, -0.167, -0.181, 0.194, 0.1, -0.039, -0.042, 0
3362039, -0.495, -0.527, -0.224, -0.053, 0.047, 0.023, 0
3362059, -0.291, -0.496, -0.331, -0.273, 0.08, 0.054, 0
3362079, -0.161, -0.637, -0.115, -0.351, 0.0, 0.041, 0
3362099, -0.036, -0.858, 0.091, -0.278, -0.019, -0.039, 0
3362119, 0.142, -1.399, -0.046, -0.149, -0.051, -0.128, 0
3362139, 0.248, -2.514, -0.595, -0.174, -0.121, -0.009, 0
3362159, 0.288, -4.322, -1.603, -0.545, -0.367, 0.041, 0
3362179, -0.433, -6.899, -0.884, -0.674, -0.396, -0.042, 0
3362199, -1.757, -7.263, -0.354, -0.387, -0.117, 0.133, 0
3362219, -1.454, -8.997, 0.242, 0.0, 0.402, 0.128, 0
3362239, -0.812, -9.024, 1.286, 0.017, 0.846, -0.408, 0
3362259, 1.002, -7.437, 2.311, -0.312, 0.483, -1.224, 0
3362279, -0.26, -3.356, 2.797, -1.18, -0.444, -1.831, 0
3362299, -2.558, 1.563, 2.246, -1.388, -0.595, -1.956, 0
3362319, -3.573, 3.485, 1.462, -0.658, 0.21, -1.948, 0
3362339, -2.067, 5.024, 1.651, 0.167, 1.103, -1.827, 0
3362359, -0.417, 6.299, 1.632, 0.51, 1.252, -1.635, 0
3362379, -0.322, 6.843, 1.062, 0.189, 0.713, -1.342, 0
3362399, -1.687, 7.854, 0.682, -0.059, 0.243, -1.037, 0
3362419, -2.573, 8.226, 0.344, 0.307, 0.366, -0.759, 0
3362439, -1.793, 7.737, -0.118, 0.725, 0.542, -0.538, 0
3362459, -1.308, 5.758, -1.305, 0.743, 0.387, -0.314, 0
3362479, -0.847, 3.545, -2.258, 0.399, 0.219, -0.094, 0
3362499, -0.936, 2.804, -2.388, -0.069, 0.006, 0.05, 0
3362519, -1.315, 2.822, -1.963, -0.226, 0.062, 0.12, 0
3362539, -0.832, 1.788, -1.326, -0.082, 0.359, 0.154, 0
3362559, -0.078, 0.263, -0.837, 0.02, 0.441, 0.163, 0
3362579, 0.537, -0.861, -0.741, -0.053, 0.207, 0.158, 0
3362599, -0.142, -0.62, -0.921, -0.249, -0.1, 0.117, 0
3362619, -0.284, -0.22, -0.786, -0.222, -0.064, 0.08, 0
3362639, -0.184, -0.438, -0.919, -0.163, 0.115, 0.061, 0
3362659, -0.161, -0.452, -0.879, -0.237, 0.183, 0.073, 0
3362679, 0.022, -0.12, -0.586, -0.288, 0.141, 0.074, 0
3362699, -0.217, 0.579, -0.487, -0.223, 0.124, 0.082, 0
3362719, -0.391, 1.051, -0.556, -0.131, 0.177, 0.103, 0
3362739, -0.355, 1.412, -0.39, 0.013, 0.259, 0.122, 1
3362759, -0.595, 1.371, -0.982, -0.014, 0.434, 0.182, 1
3362779, -0.499, 1.319, -1.14, -0.277, 0.439, 0.299, 1
3362799, -0.503, 1.929, -0.715, -0.518, 0.226, 0.458, 1
3362819, -0.46, 3.346, -0.173, -0.332, -0.105, 0.6, 1
3362839, -0.911, 3.515, 0.297, 0.086, -0.306, 0.643, 1
3362859, -0.842, 2.784, 0.139, 0.461, -0.144, 0.663, 1
3362879, -0.263, 1.208, 0.067, 0.48, -0.064, 0.717, 1
3362899, 0.132, 0.226, -0.213, 0.07, -0.295, 0.831, 1
3362919, 0.17, 0.071, -0.331, -0.249, -0.51, 0.919, 1
3362939, 0.16, -0.055, -0.023, -0.18, -0.547, 0.849, 1
3362959, -0.179, -0.139, 0.044, -0.003, -0.406, 0.875, 1
3362979, -0.101, -0.322, 0.073, 0.094, -0.255, 0.839, 1
3362999, -0.168, -1.059, 0.118, -0.08, -0.331, 0.97, 1
3363019, -0.133, -1.977, 0.196, -0.354, -0.532, 0.976, 1
3363039, -0.05, -2.112, 0.531, -0.287, -0.613, 0.722, 1
3363059, -0.156, -1.976, 0.841, 0.024, -0.419, 0.335, 1
3363079, -0.436, -2.173, 0.954, 0.107, -0.245, -0.011, 1
3363099, -1.192, -1.962, 0.689, -0.004, -0.116, -0.153, 1
3363119, -1.644, -1.651, 0.508, -0.116, 0.02, 0.594, 1
3363139, -0.279, -2.487, 0.219, -0.134, 0.096, 0.838, 1
3363159, -0.109, -3.395, 0.056, -0.19, -0.063, 0.611, 1
3363179, -0.468, -3.607, -0.223, -0.28, -0.244, 0.3, 1
3363199, -1.104, -3.489, -0.712, -0.371, -0.297, 0.127, 1
3363219, -1.176, -2.875, -0.907, -0.39, -0.265, 0.367, 1
3363239, -0.942, -3.193, -0.385, -0.302, -0.208, 0.847, 1
3363259, 0.076, -3.661, -0.067, -0.188, -0.051, 1.144, 1
3363279, 1.465, -3.687, -0.141, -0.053, 0.041, 1.009, 1
3363299, 1.677, -3.889, -0.595, 0.111, -0.116, 0.499, 1
3363319, 0.506, -3.045, -0.638, 0.063, -0.237, -0.074, 1
3363339, -0.422, -1.856, -0.379, -0.078, -0.058, -0.221, 1
3363359, -0.496, -0.779, 0.024, -0.193, 0.149, -0.152, 1
3363379, -0.307, -0.31, 0.26, -0.263, 0.129, -0.018, 1
3363399, -0.298, -0.105, 0.238, -0.258, -0.015, 0.053, 1
3363419, -0.321, -0.113, 0.168, -0.175, -0.057, 0.07, 1
3363439, -0.326, -0.042, 0.156, -0.102, 0.057, 0.046, 1
3363459, -0.123, 0.274, 0.063, -0.006, 0.22, 0.07, 1
3363479, -0.034, 0.033, -0.238, 0.097, 0.205, 0.117, 1
3363499, 0.09, -0.07, -0.292, 0.069, 0.046, 0.161, 1
3363519, 0.048, -0.081, -0.416, 0.014, -0.128, 0.239, 1
3363539, -0.07, -0.223, -0.668, -0.073, -0.166, 0.251, 1
3363559, -0.134, -0.16, -0.677, -0.119, -0.049, 0.246, 1
3363579, 0.04, -0.249, -0.282, -0.018, 0.103, 0.195, 1
3363599, 0.438, -0.216, -0.171, 0.131, 0.166, 0.1, 1
3363619, 0.383, -0.521, -0.758, 0.109, -0.082, 0.071, 1
3363639, -0.178, -0.522, -1.199, -0.263, -0.186, 0.256, 1
3363659, -0.481, -0.341, -0.74, -0.552, -0.114, 0.452, 1
3363679, -0.053, -0.162, -0.094, -0.51, 0.067, 0.295, 0
3363699, 0.049, -0.011, -0.125, -0.222, 0.199, 0.182, 0
3363719, 0.251, -0.147, -0.094, 0.016, 0.126, 0.136, 0
3363739, 0.178, -0.129, -0.152, 0.039, -0.07, 0.235, 0
3363759, 0.023, -0.594, -0.425, -0.268, -0.116, 0.254, 0
3363779, -0.361, -0.386, -0.466, -0.54, 0.011, 0.214, 0
3363799, -0.292, 0.039, 0.068, -0.41, 0.148, 0.106, 0
3363819, 0.089, -0.015, 0.44, -0.078, 0.164, -0.111, 0
3363839, -0.032, -0.412, 0.07, 0.038, 0.135, -0.152, 0
3363859, -0.138, -0.764, -0.486, -0.137, 0.016, -0.041, 0
3363879, -0.08, -1.189, -0.889, -0.461, -0.108, 0.061, 0
3363899, 0.07, -1.173, -1.027, -0.619, -0.186, 0.106, 0
3363919, 0.373, -1.73, -1.137, -0.583, -0.316, -0.014, 0
3363939, -0.227, -2.442, -1.344, -0.522, -0.287, -0.125, 0
3363959, -0.634, -3.445, -1.257, -0.497, -0.099, -0.069, 0
3363979, -0.606, -4.549, -0.944, -0.448, -0.092, 0.08, 0
3363999, -0.772, -4.976, -0.71, -0.437, -0.21, 0.252, 0
3364019, -0.779, -5.585, -0.113, -0.31, -0.323, 0.254, 0
3364039, -0.739, -7.298, 0.122, -0.17, -0.111, -0.081, 0
3364059, -2.02, -8.061, 0.206, 0.032, 0.673, -0.497, 0
3364079, -0.173, -5.143, 1.772, 0.307, 1.134, -1.316, 0
3364099, 1.287, -4.114, 1.485, -0.535, 0.432, -1.805, 0
3364119, -3.08, 0.582, -0.233, -1.387, 0.006, -1.671, 0
3364139, -2.581, 2.748, 1.008, -1.209, 0.807, -1.558, 0
3364159, -0.059, 3.636, 2.155, -0.319, 1.493, -1.625, 0
3364179, 0.81, 3.485, 2.077, 0.119, 1.263, -1.741, 0
3364199, -1.012, 4.434, 1.245, -0.107, 0.652, -1.637, 0
3364219, -1.901, 5.421, 0.848, -0.459, 0.356, -1.246, 0
3364239, -2.789, 6.803, 0.992, -0.232, 0.59, -0.984, 0
3364259, -1.804, 6.589, 1.381, 0.408, 1.044, -0.833, 0
3364279, -0.433, 5.16, 1.329, 0.483, 0.838, -0.648, 0
3364299, -1.37, 5.108, 0.37, 0.175, 0.194, -0.473, 0
3364319, -2.053, 4.491, -1.009, 0.063, 0.097, -0.307, 0
3364339, -1.529, 2.877, -2.077, 0.006, 0.179, -0.179, 0
3364359, -1.115, 1.792, -2.432, -0.139, 0.136, -0.1, 0
3364379, -1.03, 1.029, -2.393, -0.201, 0.184, -0.051, 0
3364399, -0.742, 0.862, -1.372, -0.196, 0.458, -0.021, 0
3364419, -0.136, 0.239, -0.38, -0.155, 0.525, -0.004, 0
3364439, -0.087, -0.09, 0.208, -0.238, 0.293, 0.007, 0
3364459, -0.244, 0.018, 0.749, -0.235, -0.018, 0.009, 0
3364479, -0.768, 0.021, 0.748, -0.125, -0.114, 0.018, 0
3364499, -0.278, -0.182, 0.753, -0.032, 0.0, 0.062, 1
3364519, -0.191, -0.409, 0.312, 0.063, -0.004, 0.076, 1
3364539, -0.602, -0.882, -0.617, 0.106, 0.028, 0.098, 1
3364559, -0.751, -0.884, -1.2, -0.095, 0.4, 0.216, 1
3364579, 0.494, 0.61, -0.745, -0.14, 0.702, 0.332, 1
3364599, 0.661, 0.377, -0.118, 0.212, 0.156, 0.21, 1
3364619, 0.109, 0.176, -0.451, 0.18, -0.001, 0.16, 1
3364639, -0.236, 0.616, -0.76, 0.028, -0.031, 0.186, 1
3364659, -0.416, 0.928, -0.723, -0.124, -0.119, 0.265, 1
3364679, -0.546, 1.358, -0.505, -0.215, -0.188, 0.335, 1
3364699, -0.943, 2.287, -0.271, -0.081, -0.215, 0.395, 1
3364719, -1.246, 2.704, -0.076, 0.145, -0.213, 0.489, 1
3364739, -1.212, 2.667, 0.015, 0.221, -0.326, 0.644, 1
3364759, -1.07, 2.169, -0.108, 0.154, -0.511, 0.842, 1
3364779, -0.857, 1.814, -0.196, 0.076, -0.605, 0.974, 1
3364799, -0.42, 1.728, 0.045, 0.299, -0.572, 0.958, 1
3364819, -0.133, 1.63, 0.152, 0.623, -0.502, 0.899, 1
3364839, 0.026, 0.697, 0.175, 0.528, -0.577, 1.076, 1
3364859, -0.171, -0.091, 0.161, 0.028, -0.814, 1.286, 1
3364879, -0.621, -0.082, 0.097, -0.078, -0.825, 1.413, 1
3364899, -0.789, -0.133, 0.252, 0.459, -0.535, 1.373, 1
3364919, -0.659, -0.999, 0.474, 0.967, -0.282, 1.26, 1
3364939, -0.34, -3.093, -0.18, 0.696, -0.184, 1.273, 1
3364959, -0.414, -5.09, -1.116, -0.216, -0.058, 1.195, 1
3364979, -0.314, -5.039, -0.677, -0.736, -0.037, 0.85, 1
3364999, 0.156, -3.566, 0.413, -0.339, -0.288, 0.365, 1
3365019, -1.463, -3.764, 0.059, 0.183, -0.047, 0.257, 1
3365039, -1.946, -4.275, -0.8, 0.344, 0.327, 0.835, 1
3365059, -0.543, -5.522, -1.369, -0.04, 0.229, 1.01, 1
3365079, 0.419, -5.308, -0.622, -0.348, -0.128, 0.589, 1
3365099, 0.238, -5.037, 0.846, -0.096, 0.098, 0.362, 1
3365119, 0.254, -4.708, -0.251, 0.398, 0.248, 0.364, 1
3365139, 0.772, -5.37, -1.319, 0.541, 0.009, 0.436, 1
3365159, 0.209, -4.836, -1.368, 0.039, -0.263, 0.182, 1
3365179, 0.026, -3.827, -0.641, -0.397, -0.269, 0.001, 1
3365199, -0.3, -2.513, 0.024, -0.498, -0.109, -0.215, 1
3365219, -0.335, -1.788, 0.664, -0.241, 0.018, -0.139, 1
3365239, -0.035, -1.413, 0.779, -0.036, 0.04, -0.117, 1
3365259, -0.146, -1.275, 0.326, 0.004, -0.123, -0.1, 1
3365279, -0.57, -0.827, 0.045, -0.081, -0.241, -0.081, 1
3365299, -0.602, -0.576, 0.145, -0.131, -0.134, -0.013, 1
3365319, -0.186, -0.4, 0.257, -0.047, 0.004, 0.003, 1
3365339, -0.21, -0.459, 0.046, 0.043, -0.01, -0.026, 1
3365359, -0.275, -0.402, -0.176, 0.013, -0.096, 0.007, 1
3365379, -0.443, -0.379, -0.314, -0.086, -0.092, 0.091, 1
3365399, -0.423, -0.168, -0.306, -0.116, 0.053, 0.144, 1
3365419, -0.07, -0.385, -0.252, -0.042, 0.211, 0.151, 1
3365439, 0.251, -0.546, -0.226, 0.032, 0.219, 0.089, 1
3365459, 0.245, -0.836, -0.556, 0.043, 0.106, 0.045, 1
3365479, 0.079, -0.772, -0.75, -0.07, 0.041, 0.05, 1
3365499, -0.001, -0.716, -0.602, -0.213, 0.047, 0.076, 1
3365519, 0.093, -0.262, -0.032, -0.27, 0.09, 0.046, 1
3365539, 0.294, -0.126, 0.292, -0.124, 0.056, -0.005, 0
3365559, 0.104, -0.253, 0.097, -0.009, -0.103, 0.038, 0
3365579, -0.1, -0.258, -0.216, -0.064, -0.216, 0.147, 0
3365599, -0.286, -0.522, -0.423, -0.227, -0.097, 0.114, 0
3365619, -0.364, -0.515, -0.502, -0.291, 0.131, 0.083, 0
3365639, -0.157, -0.551, -0.491, -0.324, 0.312, 0.069, 0
3365659, 0.07, -0.451, -0.353, -0.307, 0.311, 0.055, 0
3365679, 0.069, -0.657, -0.392, -0.294, 0.136, 0.09, 0
3365699, 0.051, -0.755, -0.422, -0.298, -0.033, 0.096, 0
3365719, 0.292, -1.132, -0.559, -0.26, -0.125, 0.043, 0
3365739, 0.619, -1.988, -1.079, -0.341, -0.23, -0.033, 0
3365759, 0.431, -3.062, -1.707, -0.513, -0.295, -0.08, 0
3365779, -0.077, -4.399, -1.992, -0.695, -0.197, 0.034, 0
3365799, -0.799, -4.667, -1.649, -0.674, 0.038, 0.547, 0
3365819, -0.447, -3.45, -0.531, -0.267, 0.094, 1.037, 0
3365839, 0.28, -3.836, -0.719, -0.021, -0.585, 1.415, 0
3365859, 0.328, -7.45, -1.682, -0.999, -1.458, 0.439, 0
3365879, -4.065, -6.022, -1.649, -1.624, -0.494, -0.408, 0
3365899, -4.764, -2.237, 0.435, -0.848, 1.376, -0.723, 0
3365919, -0.397, -1.972, 2.633, -0.384, 1.712, -1.186, 0
3365939, 1.59, -3.283, 2.754, -1.007, 0.913, -1.326, 0
3365959, -0.609, -1.515, 2.776, -1.392, 0.678, -1.222, 0
3365979, -1.814, 0.567, 3.213, -0.899, 1.09, -1.219, 0
3365999, -0.659, 0.852, 2.784, -0.423, 1.289, -1.254, 0
3366019, 1.041, 1.438, 2.308, -0.39, 1.134, -1.196, 0
3366039, 0.868, 2.918, 1.732, -0.372, 0.9, -1.131, 0
3366059, -0.078, 4.536, 1.578, 0.042, 0.91, -1.08, 0
3366079, -1.459, 8.467, 1.621, 0.602, 0.812, -0.998, 0
3366099, -1.407, 7.466, 0.435, 0.667, 0.527, -0.767, 0
3366119, -1.364, 6.032, -0.954, 0.496, 0.161, -0.558, 0
3366139, -1.781, 4.51, -2.478, 0.318, -0.131, -0.429, 0
3366159, -1.834, 3.031, -3.4, 0.072, -0.076, -0.282, 0
3366179, -1.16, 1.789, -3.114, -0.097, 0.149, -0.187, 0
3366199, -0.473, 1.029, -2.023, -0.219, 0.24, -0.13, 0
3366219, -0.17, 0.786, -0.833, -0.307, 0.199, -0.073, 0
3366239, 0.064, 0.066, -0.475, -0.248, 0.069, -0.07, 0
3366259, -0.231, -0.074, -0.294, -0.135, 0.125, -0.122, 0
3366279, -0.221, -0.165, -0.073, -0.074, 0.304, -0.13, 0
3366299, -0.003, -0.358, 0.23, -0.176, 0.262, -0.037, 0
3366319, -0.258, -0.079, 0.643, -0.315, 0.146, 0.056, 0
3366339, -0.258, 0.161, 1.106, -0.25, 0.139, 0.1, 0
3366359, -0.267, -0.103, 1.053, -0.07, 0.128, 0.092, 0
3366379, -0.232, -0.238, 0.815, 0.007, 0.149, 0.106, 0
3366399, -0.352, -0.003, 0.588, 0.052, 0.138, 0.119, 1
3366419, 0.167, -0.056, 0.138, 0.145, 0.099, 0.152, 1
3366439, -0.505, 0.148, -0.352, 0.122, 0.084, 0.16, 1
3366459, -0.195, 0.363, -0.616, 0.119, 0.359, 0.178, 1
3366479, -0.224, 0.417, -0.376, 0.16, 0.515, 0.202, 1
3366499, 0.605, 1.554, -0.027, 0.23, 0.248, 0.172, 1
3366519, 0.141, 2.477, 0.087, 0.198, -0.233, 0.15, 1
3366539, -0.68, 3.599, 0.012, 0.18, -0.452, 0.257, 1
3366559, -1.23, 4.247, -0.382, 0.284, -0.34, 0.425, 1
3366579, -0.79, 4.147, -0.546, 0.279, -0.246, 0.569, 1
3366599, -0.605, 3.603, -0.492, 0.315, -0.269, 0.634, 1
3366619, -0.874, 3.215, -0.405, 0.407, -0.246, 0.746, 1
3366639, -0.311, 1.917, -0.408, 0.323, -0.45, 0.902, 1
3366659, -0.062, 1.019, -0.226, 0.065, -0.596, 0.994, 1
3366679, -0.143, 0.333, 0.268, -0.171, -0.616, 0.976, 1
3366699, -0.262, -0.058, 0.795, -0.075, -0.54, 0.896, 1
3366719, 0.332, -0.852, 1.306, 0.234, -0.591, 0.983, 1
3366739, 1.149, -2.205, 1.511, 0.131, -1.0, 0.864, 1
3366759, 0.226, -2.705, 0.895, -0.059, -1.436, 0.645, 1
3366779, -1.337, -3.345, -0.329, -0.064, -1.347, 0.245, 1
3366799, -2.746, -3.862, -1.032, 0.109, -0.648, -0.066, 1
3366819, -2.338, -4.01, -0.427, 0.627, 0.069, -0.053, 1
3366839, -1.721, -5.085, -0.107, 0.894, 0.409, 0.675, 1
3366859, -1.139, -7.095, -1.054, 0.737, 0.288, 1.0, 1
3366879, -0.894, -8.29, -1.957, 0.334, 0.139, 1.052, 1
3366899, 0.271, -6.91, -1.157, 0.24, 0.24, 1.261, 1
3366919, 1.385, -6.217, -0.296, 0.436, 0.425, 1.076, 1
3366939, 2.03, -5.87, -0.518, 0.425, 0.296, 0.522, 1
3366959, 1.708, -5.232, -0.834, 0.15, -0.073, 0.017, 1
3366979, 0.391, -4.136, -0.557, -0.246, -0.212, -0.119, 1
3366999, -0.665, -2.583, 0.149, -0.414, -0.012, 0.02, 1
3367019, -0.543, -1.691, 0.551, -0.335, 0.152, -0.01, 1
3367039, -0.337, -1.073, 0.585, -0.076, -0.063, -0.059, 1
3367059, -0.472, -0.911, 0.147, -0.073, -0.217, -0.003, 1
3367079, -0.392, -0.823, -0.154, -0.147, -0.223, 0.089, 1
3367099, -0.254, -0.741, -0.468, -0.254, -0.116, 0.064, 1
3367119, -0.564, -0.26, -0.647, -0.259, -0.012, 0.028, 1
3367139, -0.769, -0.163, -0.453, -0.183, 0.126, 0.161, 1
3367159, -0.111, -0.495, -0.067, -0.174, 0.315, 0.345, 1
3367179, 0.474, -0.792, 0.044, -0.185, 0.315, 0.302, 1
3367199, 0.576, -0.718, -0.011, -0.074, 0.122, 0.081, 1
3367219, 0.107, -0.65, -0.203, 0.103, -0.062, -0.045, 1
3367239, -0.317, -0.562, -0.426, 0.147, -0.139, -0.059, 1
3367259, -0.493, -0.274, -0.563, 0.153, -0.068, -0.056, 1
3367279, -0.415, -0.39, -0.563, 0.117, 0.065, 0.111, 1
3367299, -0.242, -0.509, -0.258, -0.024, 0.165, 0.228, 1
3367319, 0.469, -0.253, 0.204, -0.019, 0.114, 0.253, 1
3367339, 0.401, -0.503, 0.165, 0.054, -0.132, 0.155, 1
3367359, 0.06, -0.572, -0.11, 0.048, -0.318, 0.082, 1
3367379, -0.548, -0.594, -0.574, -0.138, -0.258, 0.01, 0
3367399, -0.598, -0.051, -0.547, -0.356, -0.045, 0.139, 0
3367419, -0.187, -0.136, 0.215, -0.353, 0.011, 0.197, 0
3367439, 0.088, -0.178, 0.451, -0.136, 0.032, 0.081, 0
3367459, 0.036, -0.603, -0.088, 0.033, 0.034, 0.007, 0
3367479, -0.214, -0.752, -0.58, -0.001, 0.066, -0.021, 0
3367499, -0.248, -0.663, -0.541, -0.175, 0.147, 0.044, 0
3367519, 0.17, -0.989, -0.373, -0.345, 0.174, 0.15, 0
3367539, 0.606, -1.436, -0.245, -0.34, -0.128, 0.056, 0
3367559, 0.17, -1.923, -0.668, -0.429, -0.214, -0.084, 0
3367579, -0.314, -2.014, -0.894, -0.508, -0.07, -0.069, 0
3367599, 0.277, -3.328, -0.894, -0.532, -0.054, -0.039, 0
3367619, 0.332, -4.998, -0.893, -0.629, -0.111, -0.043, 0
3367639, -0.042, -5.171, -0.343, -0.645, -0.034, -0.043, 0
3367659, 0.07, -5.014, -0.068, -0.569, 0.064, -0.165, 0
3367679, -0.779, -4.86, -0.568, -0.489, 0.036, -0.224, 0
3367699, -2.531, -5.384, -0.842, -0.301, 0.226, -0.148, 0
3367719, -2.298, -5.574, 0.298, -0.167, 0.638, -0.629, 0
3367739, -0.529, -4.27, 2.106, 0.066, 0.852, -1.12, 0
3367759, 2.44, -4.053, 2.783, -0.1, 0.35, -1.561, 0
3367779, 2.1, -3.638, 2.068, -0.752, -0.326, -1.685, 0
3367799, 0.033, -1.892, 1.156, -1.255, -0.271, -1.691, 0
3367819, -0.849, 1.296, 1.516, -0.963, 0.264, -1.704, 0
3367839, 0.397, 1.898, 0.94, -0.61, 0.381, -1.899, 0
3367859, -0.447, 3.179, 0.037, -0.49, 0.459, -1.874, 0
3367879, -1.544, 4.491, -0.288, -0.502, 0.527, -1.677, 0
3367899, -3.434, 6.658, 0.168, -0.342, 0.801, -1.346, 0
3367919, -3.402, 7.433, 0.852, -0.182, 0.763, -1.007, 0
3367939, -3.134, 7.397, 1.028, -0.071, 0.532, -0.712, 0
3367959, -2.96, 6.969, 0.669, 0.133, 0.442, -0.478, 0
3367979, -3.001, 5.965, -0.246, 0.25, 0.394, -0.236, 0
3367999, -2.546, 4.338, -0.928, 0.167, 0.323, -0.011, 0
3368019, -1.713, 3.065, -1.023, 0.081, 0.28, 0.171, 0
3368039, -0.387, 1.156, -0.762, -0.012, 0.447, 0.207, 0
3368059, -0.005, 0.459, 0.027, 0.133, 0.51, 0.139, 0
3368079, 0.262, -0.28, 0.294, 0.185, 0.319, 0.079, 0
3368099, 0.094, -0.684, -0.126, 0.091, -0.002, 0.078, 0
3368119, -0.369, -0.316, -0.309, 0.02, -0.149, 0.079, 0
3368139, -0.463, -0.027, -0.212, 0.065, 0.004, 0.081, 0
3368159, -0.252, 0.102, -0.024, 0.092, 0.171, 0.092, 0
3368179, -0.131, -0.006, -0.045, 0.164, 0.138, 0.083, 0
3368199, -0.129, 0.03, -0.285, 0.09, 0.071, 0.111, 0
3368219, -0.246, 0.453, -0.544, 0.023, 0.059, 0.139, 0
3368239, -0.335, 0.666, -0.815, 0.014, 0.099, 0.156, 1
3368259, -0.492, 0.953, -1.166, -0.009, 0.196, 0.201, 1
3368279, -1.134, 1.32, -1.802, -0.017, 0.331, 0.26, 1
3368299, -1.067, 2.282, -1.733, -0.17, 0.644, 0.354, 1
3368319, -1.082, 3.51, -0.721, -0.002, 0.694, 0.371, 1
3368339, -1.398, 3.82, -0.438, 0.401, 0.35, 0.327, 1
3368359, -1.27, 3.583, -0.537, 0.715, 0.188, 0.354, 1
3368379, -0.418, 3.429, -0.663, 0.802, 0.053, 0.442, 1
3368399, 0.403, 2.376, -1.115, 0.665, -0.16, 0.614, 1
3368419, 0.134, 1.602, -1.121, 0.288, -0.415, 0.781, 1
3368439, -0.226, 1.445, -0.534, -0.098, -0.637, 1.007, 1
3368459, -0.309, 1.237, 0.089, -0.22, -0.924, 1.242, 1
3368479, -0.283, 0.302, 0.398, 0.077, -0.97, 1.345, 1
3368499, -0.151, -1.211, 0.519, 0.771, -0.605, 1.129, 1
3368519, -0.045, -2.13, 0.652, 0.756, -0.345, 1.105, 1
3368539, 0.081, -3.04, 0.624, 0.214, -0.602, 1.137, 1
3368559, -0.479, -2.682, 0.842, -0.151, -0.663, 1.352, 1
3368579, -0.734, -2.536, 0.793, -0.252, -0.409, 1.728, 1
3368599, -0.005, -2.732, 0.969, -0.357, -0.324, 1.558, 1
3368619, -0.67, -2.914, 1.026, -0.42, -0.221, 1.374, 1
3368639, -1.033, -3.93, 0.951, -0.66, -0.076, 1.054, 1
3368659, -1.523, -4.306, 0.995, -0.693, 0.211, 0.748, 1
3368679, -1.496, -4.55, 0.81, -0.383, 0.513, 0.726, 1
3368699, -0.852, -5.032, 0.561, -0.059, 0.511, 0.723, 1
3368719, 0.082, -5.173, 0.588, 0.066, 0.224, 0.632, 1
3368739, 0.635, -5.226, 0.426, -0.028, -0.098, 0.491, 1
3368759, 0.474, -5.065, 0.017, -0.149, -0.291, 0.482, 1
3368779, 0.585, -4.56, -0.362, -0.096, -0.395, 0.553, 1
3368799, 0.792, -4.206, -0.782, -0.111, -0.394, 0.379, 1
3368819, 0.313, -3.484, -0.997, -0.209, -0.199, 0.098, 1
3368839, -0.237, -2.461, -0.868, -0.283, 0.097, -0.097, 1
3368859, -0.661, -1.353, -0.503, -0.221, 0.277, -0.078, 1
3368879, -0.627, -1.106, -0.079, -0.141, 0.216, 0.008, 1
3368899, -0.331, -0.989, 0.098, -0.183, 0.067, -0.003, 1
3368919, -0.193, -0.537, 0.118, -0.166, -0.003, -0.058, 1
3368939, -0.497, -0.263, -0.254, -0.091, 0.052, -0.066, 1
3368959, -0.593, -0.112, -0.54, -0.066, 0.124, 0.01, 1
3368979, -0.444, -0.122, -0.453, -0.062, 0.163, 0.133, 1
3368999, -0.122, -0.185, -0.05, -0.142, 0.175, 0.204, 1
3369019, 0.257, -0.437, 0.207, -0.148, 0.133, 0.24, 1
3369039, 0.533, -0.451, 0.288, -0.07, -0.015, 0.12, 1
3369059, 0.217, -0.628, -0.181, -0.04, -0.245, -0.007, 1
3369079, -0.581, -0.423, -0.587, -0.168, -0.295, 0.026, 1
3369099, -0.854, -0.133, -0.818, -0.259, -0.066, 0.181, 1
3369119, -0.452, -0.481, -0.673, -0.386, 0.115, 0.439, 1
3369139, 0.249, -0.332, 0.096, -0.425, 0.219, 0.395, 1
3369159, 0.649, -0.441, 0.453, -0.108, 0.119, 0.186, 1
3369179, 0.402, -1.064, -0.594, 0.053, 0.01, 0.045, 0
3369199, -0.441, -0.735, -1.124, -0.266, 0.05, 0.166, 0
3369219, -0.141, -0.537, -0.409, -0.563, 0.064, 0.303, 0
3369239, 0.131, -0.267, 0.474, -0.501, 0.07, 0.175, 0
3369259, 0.326, -0.565, 0.594, -0.205, 0.045, 0.023, 0
3369279, 0.127, -0.887, 0.242, 0.007, -0.032, -0.171, 0
3369299, -0.451, -1.354, -0.591, -0.02, 0.072, -0.247, 0
3369319, -0.567, -1.681, -0.835, -0.299, 0.302, -0.16, 0
3369339, -0.088, -2.161, -0.383, -0.491, 0.365, -0.015, 0
3369359, 0.369, -2.658, 0.372, -0.519, 0.252, -0.021, 0
3369379, 0.63, -3.087, 0.391, -0.365, -0.104, -0.186, 0
3369399, -0.438, -3.389, -0.521, -0.425, -0.443, -0.411, 0
3369419, -1.571, -3.856, -1.143, -0.632, -0.519, -0.381, 0
3369439, -2.307, -4.948, -1.529, -0.657, -0.238, -0.254, 0
3369459, -1.01, -6.761, -1.303, -0.6, 0.144, -0.322, 0
3369479, -0.962, -7.404, -0.839, -0.402, 0.62, -1.126, 0
3369499, -0.123, -6.934, 0.134, -0.323, 0.762, -1.576, 0
3369519, 0.586, -4.669, 1.428, -0.574, 0.519, -1.757, 0
3369539, 0.297, -4.2, 1.413, -1.172, 0.154, -1.768, 0
3369559, 0.303, -2.521, 1.133, -1.775, 0.012, -1.735, 0
3369579, -1.273, 1.692, 1.376, -1.483, 0.543, -1.805, 0
3369599, -2.214, 6.392, 2.505, -0.319, 1.456, -1.871, 0
3369619, -1.691, 7.146, 2.671, 0.368, 1.609, -1.717, 0
3369639, -1.644, 7.449, 1.665, 0.197, 1.056, -1.469, 0
3369659, -3.2, 8.619, 0.816, -0.017, 0.624, -1.053, 0
3369679, -4.358, 9.525, 0.691, 0.245, 0.514, -0.659, 0
3369699, -4.08, 8.242, -0.084, 0.471, 0.467, -0.276, 0
3369719, -2.666, 5.56, -1.282, 0.294, 0.203, 0.032, 0
3369739, -1.44, 2.869, -2.595, -0.167, -0.065, 0.235, 0
3369759, -1.047, 2.161, -2.7, -0.42, -0.024, 0.324, 0
3369779, -0.824, 2.082, -1.937, -0.34, 0.194, 0.326, 0
3369799, -0.412, 1.481, -1.057, -0.16, 0.386, 0.28, 0
3369819, 0.043, 0.301, -0.419, -0.2, 0.346, 0.234, 0
3369839, 0.241, -0.077, 0.019, -0.306, 0.116, 0.175, 0
3369859, -0.357, 0.183, 0.276, -0.327, 0.013, 0.161, 0
3369879, -0.616, 0.497, 0.623, -0.163, 0.092, 0.163, 0
3369899, -0.454, -0.101, 0.438, -0.056, 0.119, 0.184, 0
3369919, 0.026, -0.797, 0.094, -0.15, 0.024, 0.202, 0
3369939, -0.202, -0.709, -0.046, -0.237, 0.078, 0.199, 0
3369959, -0.259, -0.167, 0.286, -0.132, 0.326, 0.169, 0
3369979, -0.155, 0.093, 0.471, 0.112, 0.49, 0.151, 1
3369999, -0.064, -0.283, 0.293, 0.095, 0.665, 0.211, 1
3370019, -0.125, -0.1, 0.267, 0.05, 0.711, 0.223, 1
3370039, -0.095, 0.064, 0.184, 0.124, 0.654, 0.188, 1
3370059, 0.496, 0.641, 0.081, 0.282, 0.474, 0.107, 1
3370079, 0.011, 0.44, -0.143, 0.332, 0.179, 0.031, 1
3370099, 0.011, 0.182, -0.609, 0.281, 0.102, 0.021, 1
3370119, -0.217, 0.459, -0.64, 0.095, 0.094, 0.024, 1
3370139, -0.614, 1.398, -0.474, 0.023, 0.109, 0.04, 1
3370159, -0.795, 2.312, -0.461, 0.158, 0.119, 0.043, 1
3370179, -0.826, 2.973, -0.431, 0.372, 0.119, 0.063, 1
3370199, -1.13, 3.134, -0.776, 0.442, 0.025, 0.164, 1
3370219, -1.176, 2.668, -1.098, 0.28, -0.2, 0.395, 1
3370239, -1.097, 2.529, -0.959, -0.097, -0.455, 0.63, 1
3370259, -0.842, 2.547, -0.758, -0.317, -0.652, 0.847, 1
3370279, -1.037, 2.566, -0.659, -0.116, -0.607, 0.904, 1
3370299, -0.986, 1.938, -0.142, 0.208, -0.339, 0.929, 1
3370319, -0.836, 1.253, 0.26, 0.299, -0.243, 1.051, 1
3370339, -0.341, 0.376, 0.787, 0.063, -0.658, 1.193, 1
3370359, -0.572, -0.53, 1.095, -0.028, -1.111, 1.282, 1
3370379, -1.332, -1.436, 0.972, 0.222, -1.175, 1.174, 1
3370399, -1.917, -1.963, 0.85, 0.502, -1.059, 0.982, 1
3370419, -1.848, -3.283, 0.485, 0.46, -0.96, 0.986, 1
3370439, -1.974, -4.467, -0.402, 0.258, -0.618, 1.173, 1
3370459, -1.457, -4.98, -0.603, 0.1, 0.324, 1.441, 1
3370479, -0.174, -4.51, -0.402, 0.182, 0.48, 1.229, 1
3370499, 0.05, -4.496, -0.368, 0.158, 0.263, 0.932, 1
3370519, -0.285, -4.494, -0.162, -0.001, 0.038, 0.698, 1
3370539, -0.768, -4.448, -0.159, -0.277, -0.024, 0.763, 1
3370559, -1.049, -4.602, -0.317, -0.452, 0.033, 1.045, 1
3370579, -0.541, -4.734, -0.242, -0.505, 0.049, 1.151, 1
3370599, 0.099, -4.856, -0.164, -0.401, -0.054, 0.987, 1
3370619, 0.591, -4.766, 0.097, -0.147, -0.179, 0.591, 1
3370639, 0.898, -4.742, -0.047, 0.045, -0.251, 0.12, 1
3370659, 0.815, -3.974, -0.289, 0.149, -0.273, -0.27, 1
3370679, 0.483, -2.984, -0.217, 0.169, -0.317, -0.434, 1
3370699, 0.163, -2.139, -0.127, 0.119, -0.446, -0.469, 1
3370719, -0.386, -1.514, -0.364, -0.032, -0.636, -0.418, 1
3370739, -1.39, -1.009, -0.551, -0.298, -0.606, -0.014, 1
3370759, -1.543, -0.744, -0.461, -0.498, -0.326, 0.271, 1
3370779, -1.174, -0.635, -0.339, -0.418, 0.048, 0.315, 1
3370799, -0.672, -0.486, -0.211, -0.179, 0.334, 0.248, 1
3370819, 0.018, -0.506, -0.064, 0.064, 0.354, 0.098, 1
3370839, 0.042, -0.784, -0.428, 0.139, 0.186, -0.003, 1
3370859, -0.392, -0.748, -0.571, -0.028, 0.084, 0.028, 1
3370879, -0.621, -0.4, -0.364, -0.152, 0.188, 0.144, 1
3370899, -0.173, -0.183, -0.018, -0.042, 0.224, 0.165, 1
3370919, 0.11, -0.468, 0.066, 0.122, 0.186, 0.07, 1
3370939, 0.258, -0.54, 0.041, 0.173, 0.124, -0.011, 1
3370959, -0.016, -0.623, -0.544, -0.018, 0.053, 0.002, 1
3370979, -0.128, -0.426, -0.504, -0.223, 0.029, 0.01, 0
3370999, 0.041, -0.015, 0.013, -0.204, -0.005, -0.005, 0
3371019, 0.118, 0.047, 0.112, 0.112, -0.029, -0.072, 0
3371039, 0.003, -0.372, -0.149, 0.31, -0.056, -0.059, 0
3371059, -0.138, -0.413, -0.657, 0.164, -0.049, -0.023, 0
3371079, -0.31, -0.432, -0.942, -0.112, -0.037, 0.073, 0
3371099, -0.285, -0.496, -0.716, -0.36, 0.08, 0.186, 0
3371119, -0.184, -0.43, -0.412, -0.478, 0.23, 0.172, 0
3371139, 0.231, -0.571, -0.118, -0.363, 0.233, 0.106, 0
3371159, 0.346, -1.096, -0.5, -0.254, 0.083, -0.001, 0
3371179, 0.058, -1.198, -0.794, -0.324, -0.047, -0.085, 0
3371199, -0.452, -1.251, -0.902, -0.439, -0.094, -0.15, 0
3371219, -0.762, -1.64, -0.785, -0.487, -0.04, -0.05, 0
3371239, -0.677, -2.722, -0.657, -0.441, 0.062, 0.054, 0
3371259, -0.314, -3.915, -0.245, -0.362, 0.174, 0.12, 0
3371279, -0.973, -3.999, -0.029, -0.191, 0.045, 0.2, 0
3371299, -2.621, -3.465, -0.324, 0.127, -0.224, 0.523, 0
3371319, -3.042, -4.597, -0.278, 0.492, -0.246, 0.926, 0
3371339, -1.889, -6.521, 0.129, 0.43, 0.181, 0.621, 0
3371359, -0.566, -7.211, 0.913, 0.004, 0.522, -0.163, 0
3371379, -0.343, -4.995, 1.454, -0.457, 0.547, -0.844, 0
3371399, -0.166, -3.279, 1.555, -0.968, 0.125, -1.106, 0
3371419, -0.62, -2.06, 1.353, -1.305, 0.118, -1.108, 0
3371439, -0.87, -0.985, 0.948, -0.913, 1.075, -1.273, 0
3371459, 0.975, -1.107, 1.043, -0.749, 1.346, -1.475, 0
3371479, 2.445, 0.155, 1.464, -0.753, 0.877, -1.611, 0
3371499, 1.372, 3.557, 0.801, -0.729, 0.263, -1.611, 0
3371519, -0.423, 6.343, 0.124, -0.52, 0.482, -1.519, 0
3371539, -0.904, 8.138, 0.799, 0.015, 0.858, -1.488, 0
3371559, -0.907, 8.593, 1.209, 0.431, 0.666, -1.339, 0
3371579, -0.93, 7.01, 0.187, 0.124, -0.043, -1.003, 0
3371599, -1.97, 6.316, -0.834, -0.401, -0.481, -0.614, 0
3371619, -2.661, 6.422, -0.717, -0.411, -0.189, -0.425, 0
3371639, -1.394, 4.702, -0.287, -0.188, 0.0, -0.422, 0
3371659, -0.944, 3.163, -0.172, -0.105, 0.069, -0.357, 0
3371679, -0.918, 1.975, -0.284, -0.138, 0.125, -0.226, 0
3371699, -0.775, 1.28, -0.152, -0.201, 0.097, -0.111, 0
3371719, -0.745, 0.93, -0.018, -0.172, 0.051, -0.072, 0
3371739, -0.968, 0.937, 0.12, 0.02, 0.181, -0.074, 0
3371759, -0.862, 0.63, 0.156, 0.138, 0.238, -0.043, 0
3371779, -0.665, -0.067, -0.309, -0.028, 0.175, 0.065, 0
3371799, -0.611, -0.071, -0.523, -0.16, 0.031, 0.154, 0
3371819, -0.778, -0.118, -0.785, -0.114, 0.102, 0.166, 0
3371839, -0.562, -0.098, -0.632, 0.004, 0.288, 0.147, 0
3371859, -0.344, -0.153, -0.375, 0.126, 0.41, 0.127, 0
3371879, -0.144, -0.027, -0.138, 0.191, 0.455, 0.148, 1
3371899, -0.251, -0.167, -0.159, 0.088, 0.492, 0.226, 1
3371919, -0.537, 0.441, -0.142, 0.014, 0.607, 0.327, 1
3371939, 0.379, 0.634, 0.001, 0.119, 0.691, 0.288, 1
3371959, 0.462, 0.549, -0.119, 0.282, 0.367, 0.164, 1
3371979, 0.349, 0.633, -0.176, 0.31, 0.113, 0.07, 1
3371999, 0.022, 1.175, -0.103, 0.2, -0.035, 0.064, 1
3372019, -0.117, 1.412, -0.463, 0.019, -0.196, 0.164, 1
3372039, -0.505, 2.036, -0.707, -0.144, -0.299, 0.257, 1
3372059, -1.069, 2.804, -0.603, -0.131, -0.087, 0.33, 1
3372079, -1.3, 3.552, -0.339, 0.118, 0.246, 0.381, 1
3372099, -1.023, 3.634, -0.386, 0.581, 0.417, 0.442, 1
3372119, 0.351, 1.989, -0.646, 0.687, 0.223, 0.609, 1
3372139, 0.32, 1.471, -0.632, 0.086, -0.262, 0.854, 1
3372159, -0.347, 1.811, -0.578, -0.397, -0.568, 1.119, 1
3372179, -0.636, 1.939, -0.14, -0.397, -0.662, 1.248, 1
3372199, -0.222, 1.31, 0.601, -0.017, -0.621, 1.235, 1
3372219, -0.183, 0.542, 1.188, 0.521, -0.656, 1.084, 1
3372239, 0.0, -0.594, 1.292, 0.965, -0.761, 0.999, 1
3372259, -0.057, -1.707, 0.952, 1.068, -0.918, 0.991, 1
3372279, -0.032, -2.671, 0.546, 0.893, -0.912, 1.011, 1
3372299, 0.019, -3.335, 0.358, 0.594, -0.764, 0.831, 1
3372319, -0.287, -3.905, 0.56, 0.203, -0.753, 0.52, 1
3372339, -1.1, -3.702, 0.684, -0.083, -0.873, 0.367, 1
3372359, -1.798, -4.425, 0.108, -0.014, -0.801, 0.581, 1
3372379, -1.991, -5.831, -1.056, 0.06, -0.606, 0.729, 1
3372399, -1.749, -6.536, -1.652, 0.037, -0.387, 0.576, 1
3372419, -1.151, -6.429, -1.777, -0.147, 0.082, 0.411, 1
3372439, -1.303, -6.201, -1.495, -0.178, 0.806, 0.53, 1
3372459, -0.331, -5.615, -0.753, -0.219, 1.503, 0.826, 1
3372479, 1.491, -5.502, -0.384, -0.185, 1.361, 0.78, 1
3372499, 2.728, -5.415, 0.031, -0.333, 0.503, 0.45, 1
3372519, 1.586, -3.934, 0.755, -0.45, -0.026, 0.044, 1
3372539, 0.037, -2.192, 1.1, -0.257, -0.014, -0.197, 1
3372559, -0.652, -1.154, 0.948, -0.003, 0.07, -0.24, 1
3372579, -0.875, -0.819, 0.502, 0.039, -0.065, -0.075, 1
3372599, -0.943, -1.097, 0.29, -0.263, -0.185, 0.116, 1
3372619, -0.764, -0.986, 0.457, -0.534, -0.158, 0.194, 1
3372639, -0.386, -0.548, 0.358, -0.466, -0.116, 0.166, 1
3372659, -0.138, -0.472, 0.066, -0.182, -0.128, 0.006, 1
3372679, -0.435, -0.418, -0.126, -0.001, -0.003, -0.01, 1
3372699, -0.278, -0.353, -0.192, 0.056, 0.122, 0.059, 1
3372719, -0.012, -0.68, -0.347, -0.063, 0.134, 0.039, 1
3372739, -0.027, -0.403, -0.179, -0.181, 0.129, 0.072, 1
3372759, 0.153, -0.451, 0.085, -0.26, 0.075, 0.099, 1
3372779, 0.264, -0.258, 0.291, -0.171, -0.061, 0.05, 1
3372799, 0.351, -0.32, -0.041, -0.004, -0.266, -0.01, 1
3372819, -0.154, -0.269, -0.392, 0.047, -0.328, 0.055, 1
3372839, -0.62, -0.152, -0.579, -0.084, -0.24, 0.219, 1
3372859, -0.465, 0.03, -0.267, -0.205, -0.201, 0.431, 1
3372879, 0.19, -0.322, 0.173, -0.233, -0.227, 0.281, 1
3372899, 0.144, -0.103, 0.164, -0.054, -0.143, 0.114, 0
3372919, -0.605, -0.272, -0.63, -0.118, 0.134, 0.268, 0
3372939, -0.122, -0.276, -0.119, -0.285, 0.364, 0.385, 0
3372959, 0.693, -0.44, 0.401, -0.223, 0.241, 0.269, 0
3372979, 0.341, -0.511, 0.176, -0.186, 0.008, 0.083, 0
3372999, -0.177, -0.199, -0.235, -0.129, 0.015, -0.021, 0
3373019, -0.367, -0.349, -0.54, -0.045, 0.101, 0.0, 0
3373039, -0.368, -0.503, -0.599, -0.114, 0.183, 0.043, 0
3373059, -0.272, -0.455, -0.57, -0.205, 0.247, 0.159, 0
3373079, 0.256, -1.121, -0.325, -0.227, 0.108, 0.263, 0
3373099, 0.173, -1.413, -0.296, -0.237, -0.119, 0.086, 0
3373119, -0.013, -2.505, -0.464, -0.205, -0.289, 0.054, 0
3373139, -0.245, -3.719, -0.612, -0.317, -0.189, -0.117, 0
3373159, -0.002, -4.247, -0.779, -0.317, 0.105, -0.12, 0
3373179, -0.552, -5.873, -1.201, -0.194, 0.135, 0.116, 0
3373199, -0.687, -7.862, -0.436, -0.416, -0.08, 0.144, 0
3373219, -0.979, -7.902, 0.908, -0.673, -0.125, -0.366, 0
3373239, -1.36, -6.361, 1.871, -0.529, 0.143, -0.77, 0
3373259, -0.618, -4.449, 2.283, -0.266, 0.445, -1.29, 0
3373279, 0.077, -4.05, 1.723, -0.037, 0.309, -1.639, 0
3373299, -0.225, -1.953, 1.064, -0.149, 0.227, -1.929, 0
3373319, -0.279, -0.163, 0.189, 0.012, 0.528, -2.039, 0
3373339, 0.434, 0.507, -0.46, -0.01, 0.755, -2.039, 0
3373359, 0.962, 2.201, -0.581, -0.376, 0.509, -2.04, 0
3373379, -0.823, 4.143, -0.728, -0.635, 0.079, -1.896, 0
3373399, -2.285, 5.278, -1.047, -0.598, 0.277, -1.627, 0
3373419, -2.938, 6.128, -0.741, -0.273, 0.528, -1.409, 0
3373439, -3.106, 5.965, -0.739, 0.104, 0.672, -1.22, 0
3373459, -3.147, 5.759, -1.044, 0.341, 0.886, -1.046, 0
3373479, -3.483, 6.065, -0.706, 0.439, 1.129, -0.828, 0
3373499, -3.077, 4.672, -0.564, 0.313, 0.962, -0.497, 0
3373519, -2.176, 2.729, -0.831, -0.131, 0.555, -0.112, 0
3373539, -1.263, 1.798, -0.923, -0.732, 0.171, 0.128, 0
3373559, -0.907, 2.238, -0.5, -0.92, -0.037, 0.216, 0
3373579, -1.056, 2.61, 0.137, -0.624, -0.023, 0.203, 0
3373599, -1.034, 2.259, 0.487, -0.151, 0.169, 0.158, 0
3373619, -0.333, 1.156, 0.445, 0.048, 0.237, 0.158, 0
3373639, 0.543, -0.269, 0.026, -0.142, -0.056, 0.165, 0
3373659, 0.366, -0.568, -0.218, -0.398, -0.271, 0.186, 0
3373679, 0.014, -0.28, -0.251, -0.41, -0.245, 0.176, 0
3373699, -0.337, -0.071, -0.239, -0.254, -0.002, 0.146, 0
3373719, -0.041, 0.023, 0.229, 0.004, 0.119, 0.105, 0
3373739, -0.018, -0.669, -0.075, 0.021, 0.122, 0.08, 1
3373759, 0.144, -0.555, -0.04, -0.051, 0.056, 0.058, 1
3373779, -0.306, -0.198, -0.02, -0.078, 0.012, 0.073, 1
3373799, -0.594, -0.084, -0.075, -0.077, 0.138, 0.117, 1
3373819, -0.5, -0.027, 0.182, -0.021, 0.237, 0.164, 1
3373839, -0.249, -0.31, 0.022, 0.024, 0.293, 0.194, 1
3373859, -0.493, -0.397, -0.486, 0.005, 0.538, 0.231, 1
3373879, 0.112, -0.009, -0.307, -0.063, 0.383, 0.2, 1
3373899, -0.035, 0.131, 0.097, -0.067, 0.208, 0.177, 1
3373919, -0.056, 0.274, -0.014, 0.007, 0.186, 0.156, 1
3373939, -0.014, 0.261, -0.308, 0.103, 0.139, 0.137, 1
3373959, -0.192, 0.714, -0.509, 0.113, 0.051, 0.123, 1
3373979, -0.35, 0.971, -0.69, 0.095, 0.069, 0.15, 1
3373999, -0.452, 1.857, -0.747, 0.069, 0.071, 0.15, 1
3374019, -0.94, 2.608, -0.684, 0.106, 0.058, 0.201, 1
3374039, -1.221, 3.041, -0.485, 0.112, 0.136, 0.326, 1
3374059, -0.869, 3.206, -0.416, 0.084, 0.135, 0.5, 1
3374079, -0.568, 3.005, -0.532, -0.05, -0.166, 0.673, 1
3374099, -0.854, 2.807, -0.53, -0.332, -0.528, 0.882, 1
3374119, -1.045, 2.771, -0.105, -0.598, -0.716, 1.136, 1
3374139, -0.841, 2.472, 0.204, -0.588, -0.608, 1.312, 1
3374159, -0.626, 1.621, 0.613, -0.379, -0.437, 1.37, 1
3374179, -0.208, 0.792, 1.068, -0.176, -0.492, 1.31, 1
3374199, -0.197, 0.166, 1.339, -0.045, -0.832, 1.214, 1
3374219, -0.781, -0.737, 1.035, 0.251, -1.023, 1.233, 1
3374239, -0.941, -1.611, 0.579, 0.407, -0.943, 1.34, 1
3374259, -1.292, -2.561, 0.076, 0.367, -0.844, 1.419, 1
3374279, -1.952, -3.683, -0.463, 0.067, -0.808, 1.48, 1
3374299, -2.284, -4.342, -0.774, -0.308, -0.577, 1.499, 1
3374319, -2.105, -5.025, -0.456, -0.491, 0.051, 1.437, 1
3374339, -1.245, -5.614, -0.095, -0.639, 0.568, 1.191, 1
3374359, -0.41, -5.845, -0.491, -0.415, 0.441, 0.414, 1
3374379, -1.247, -4.695, -1.238, 0.288, -0.354, 0.319, 1
3374399, -2.918, -5.014, -1.637, 0.868, 0.111, 1.329, 1
3374419, -1.591, -6.952, -1.454, 0.745, 0.977, 2.268, 1
3374439, 2.409, -8.328, -0.976, 0.415, 0.886, 1.778, 1
3374459, 4.672, -7.799, -1.117, 0.07, -0.061, 0.476, 1
3374479, 2.202, -5.964, -0.804, -0.17, -0.403, -0.267, 1
3374499, -0.509, -2.907, -0.049, 0.025, -0.004, -0.498, 1
3374519, -1.365, -1.094, 0.256, 0.266, 0.213, -0.451, 1
3374539, -1.821, -1.066, 0.439, 0.053, 0.183, -0.153, 1
3374559, -1.034, -1.159, 0.737, -0.275, 0.048, 0.116, 1
3374579, -0.003, -1.496, 0.474, -0.425, -0.26, 0.081, 1
3374599, 0.016, -1.176, 0.166, -0.317, -0.381, -0.037, 1
3374619, -0.282, -0.848, -0.208, -0.09, -0.219, -0.159, 1
3374639, -0.386, -0.654, -0.663, 0.002, 0.04, -0.195, 1
3374659, 0.01, -0.945, -0.925, -0.231, 0.034, -0.03, 1
3374679, 0.24, -1.078, -0.741, -0.57, -0.101, 0.057, 1
3374699, 0.161, -0.52, -0.519, -0.637, -0.191, 0.036, 1
3374719, -0.174, -0.242, -0.295, -0.477, -0.097, -0.012, 1
3374739, -0.205, -0.192, -0.285, -0.279, 0.054, -0.048, 1
3374759, 0.145, -0.605, -0.291, -0.191, -0.06, -0.147, 1
3374779, 0.597, -0.648, -0.239, -0.12, -0.376, -0.295, 1
3374799, 0.541, -0.594, -0.096, -0.05, -0.62, -0.357, 1
3374819, -0.02, -0.459, -0.179, 0.015, -0.6, -0.381, 1
3374839, -0.522, -0.324, -0.227, 0.034, -0.429, -0.307, 0
3374859, -0.434, -0.176, -0.397, -0.12, -0.342, 0.199, 0
3374879, -0.065, -0.178, -0.109, -0.302, -0.379, 0.288, 0
3374899, -0.085, -0.198, 0.014, -0.181, -0.272, 0.188, 0
3374919, -0.179, -0.169, -0.142, 0.024, -0.017, 0.106, 0
3374939, -0.176, -0.439, -0.587, 0.093, 0.205, 0.071, 0
3374959, -0.31, -0.395, -0.887, -0.082, 0.34, 0.081, 0
3374979, -0.267, -0.116, -0.551, -0.191, 0.481, 0.127, 0
3374999, -0.042, -0.148, -0.062, -0.112, 0.569, 0.152, 0
3375019, 0.499, -0.601, 0.11, 0.006, 0.46, 0.084, 0
3375039, 0.407, -1.013, -0.19, 0.031, 0.156, 0.029, 0
3375059, 0.267, -1.228, -0.679, -0.085, -0.067, 0.046, 0
3375079, 0.395, -1.862, -0.983, -0.318, -0.188, 0.114, 0
3375099, 0.476, -2.367, -1.112, -0.513, -0.239, -0.005, 0
3375119, 0.249, -2.752, -1.162, -0.506, -0.224, -0.13, 0
3375139, 0.022, -3.086, -1.203, -0.346, -0.292, -0.059, 0
3375159, -1.017, -3.431, -1.274, -0.065, -0.391, 0.285, 0
3375179, -1.638, -3.561, -0.601, 0.371, -0.334, 0.728, 0
3375199, -0.848, -5.982, 0.001, 0.577, -0.226, 0.312, 0
3375219, -1.24, -6.861, 0.555, 0.202, -0.206, -0.712, 0
3375239, -1.385, -6.214, 0.963, -0.41, -0.276, -1.234, 0
3375259, -1.468, -3.929, 1.177, -0.897, -0.227, -1.565, 0
3375279, -1.246, -2.55, 1.168, -1.08, 0.12, -1.644, 0
3375299, -0.528, -1.525, 1.272, -1.117, 0.532, -1.727, 0
3375319, 0.156, -0.373, 1.203, -0.9, 0.709, -1.784, 0
3375339, 1.006, -0.296, 0.708, -0.869, 0.764, -1.791, 0
3375359, 1.211, 0.958, 0.485, -1.016, 0.537, -1.764, 0
3375379, 0.3, 3.309, 0.941, -0.808, 0.618, -1.706, 0
3375399, -0.573, 5.012, 0.986, -0.415, 0.734, -1.72, 0
3375419, -1.8, 6.556, 1.264, 0.058, 0.739, -1.577, 0
3375439, -2.043, 6.031, 0.847, 0.174, 0.472, -1.311, 0
3375459, -1.975, 5.271, 0.21, -0.125, 0.028, -0.97, 0
3375479, -3.645, 6.092, 0.066, -0.02, 0.109, -0.68, 0
3375499, -4.284, 5.799, 0.255, 0.485, 0.66, -0.468, 0
3375519, -2.424, 3.019, -0.368, 0.581, 0.693, -0.285, 0
3375539, -1.164, 1.559, -0.971, 0.124, 0.342, -0.108, 0
3375559, -1.357, 1.622, -0.906, -0.29, 0.18, 0.084, 0
3375579, -1.408, 1.821, -0.284, -0.334, 0.121, 0.173, 0
3375599, -1.496, 1.597, -0.151, -0.211, 0.334, 0.211, 0
3375619, -0.648, 0.97, 0.071, -0.008, 0.455, 0.162, 0
3375639, -0.302, 0.491, 0.286, 0.069, 0.332, 0.12, 0
3375659, -0.103, 0.017, 0.183, -0.035, 0.06, 0.131, 0
3375679, -0.261, 0.371, 0.18, -0.124, -0.112, 0.191, 0
3375699, -0.585, 0.503, 0.06, -0.118, 0.045, 0.285, 0
3375719, -0.05, -0.121, 0.056, -0.131, 0.09, 0.31, 0
3375739, 0.141, -0.676, -0.143, -0.163, 0.081, 0.294, 1
3375759, 0.306, -1.002, -0.375, -0.2, 0.184, 0.291, 1
3375779, 0.183, -0.89, -0.729, -0.215, 0.489, 0.271, 1
3375799, 0.067, -0.296, -0.192, -0.053, 0.675, 0.203, 1
3375819, 0.428, -0.403, 0.028, 0.061, 0.536, 0.129, 1
3375839, 0.49, -0.201, 0.223, 0.101, 0.057, 0.003, 1
3375859, -0.764, 0.707, 0.029, 0.149, 0.038, 0.025, 1
3375879, -0.792, 0.795, 0.127, 0.178, 0.114, 0.083, 1
3375899, -0.549, 0.788, 0.095, 0.23, 0.165, 0.132, 1
3375919, -0.574, 1.045, -0.081, 0.24, 0.056, 0.156, 1
3375939, -0.634, 1.316, -0.345, 0.252, -0.029, 0.199, 1
3375959, -0.855, 1.971, -0.501, 0.268, -0.039, 0.255, 1
3375979, -0.952, 2.353, -0.657, 0.316, 0.058, 0.328, 1
3375999, -0.609, 2.579, -1.147, 0.337, 0.047, 0.432, 1
3376019, -0.24, 2.669, -1.902, 0.246, -0.24, 0.518, 1
3376039, -0.295, 2.613, -2.123, -0.018, -0.443, 0.653, 1
3376059, -0.649, 2.755, -1.563, -0.384, -0.433, 0.88, 1
3376079, -0.85, 2.965, -0.7, -0.602, -0.424, 1.087, 1
3376099, -1.201, 2.94, 0.178, -0.627, -0.506, 1.343, 1
3376119, -0.77, 1.846, 0.798, -0.409, -0.465, 1.513, 1
3376139, -0.689, 0.673, 1.203, 0.079, -0.326, 1.427, 1
3376159, -0.44, -0.543, 1.57, 0.676, -0.101, 1.216, 1
3376179, -0.452, -1.422, 1.722, 0.927, -0.176, 1.021, 1
3376199, -1.024, -2.103, 1.541, 0.811, -0.49, 1.032, 1
3376219, -2.109, -3.384, 0.67, 0.63, -0.559, 1.216, 1
3376239, -2.452, -4.354, 0.21, 0.415, -0.166, 1.428, 1
3376259, -2.128, -4.875, 0.104, 0.138, 0.211, 1.488, 1
3376279, -1.554, -5.197, 0.343, -0.17, 0.263, 1.404, 1
3376299, -1.64, -5.801, 0.664, -0.456, 0.18, 1.315, 1
3376319, -1.429, -5.991, 0.897, -0.399, 0.301, 1.315, 1
3376339, -0.687, -5.86, 0.758, 0.07, 0.282, 1.09, 1
3376359, 0.255, -5.602, 0.274, 0.524, 0.009, 0.659, 1
3376379, 0.608, -5.465, -0.266, 0.67, -0.213, 0.318, 1
3376399, 0.874, -5.429, -1.109, 0.355, -0.321, 0.219, 1
3376419, 0.654, -4.783, -1.929, -0.195, -0.439, 0.367, 1
3376439, 0.477, -4.075, -1.823, -0.74, -0.461, 0.503, 1
3376459, -0.011, -3.465, -1.133, -0.985, -0.224, 0.375, 1
3376479, -0.52, -2.237, -0.128, -0.781, 0.219, 0.203, 1
3376499, -0.844, -1.115, 0.429, -0.263, 0.578, 0.116, 1
3376519, -0.306, -1.187, 0.501, -0.01, 0.561, 0.135, 1
3376539, 0.113, -1.139, -0.095, -0.111, 0.145, 0.263, 1
3376559, 0.107, -1.075, -0.474, -0.337, -0.307, 0.321, 1
3376579, -0.255, -0.649, -0.659, -0.433, -0.317, 0.173, 1
3376599, -0.358, -0.352, -0.932, -0.252, -0.09, 0.082, 1
3376619, -0.059, -0.177, -0.996, 0.035, 0.029, -0.044, 1
3376639, 0.05, -0.362, -1.04, 0.123, -0.077, -0.064, 1
3376659, -0.061, -0.583, -1.037, -0.069, -0.159, -0.083, 1
3376679, -0.223, -0.415, -1.085, -0.269, -0.16, -0.039, 1
3376699, -0.428, -0.18, -0.861, -0.28, -0.084, 0.021, 1
3376719, -0.21, -0.251, -0.243, -0.149, 0.0, -0.021, 1
3376739, 0.114, -0.124, 0.23, 0.021, -0.041, -0.029, 0
3376759, -0.157, -0.302, -0.004, 0.057, -0.162, -0.006, 0
3376779, -0.213, -0.311, -0.181, -0.094, -0.214, 0.068, 0
3376799, -0.752, -0.116, -0.224, -0.285, -0.059, 0.187, 0
3376819, -0.443, 0.104, 0.518, -0.135, 0.245, 0.163, 0
3376839, 0.098, -0.48, 0.337, 0.097, 0.366, 0.047, 0
3376859, 0.101, -0.573, -0.021, 0.136, 0.376, -0.099, 0
3376879, 0.005, -0.675, -0.491, -0.017, 0.296, -0.11, 0
3376899, -0.091, -0.608, -0.549, -0.307, 0.223, -0.051, 0
3376919, -0.074, -0.408, -0.108, -0.418, 0.164, -0.067, 0
3376939, 0.018, -0.245, 0.137, -0.284, 0.141, -0.138, 0
3376959, -0.01, -0.717, -0.147, -0.054, 0.135, -0.196, 0
3376979, -0.01, -1.787, -1.021, -0.006, 0.097, -0.092, 0
3376999, -0.013, -3.304, -1.748, -0.27, -0.073, 0.224, 0
3377019, 0.125, -4.835, -1.394, -0.623, -0.211, 0.428, 0
3377039, -0.155, -5.03, -0.5, -0.605, -0.149, 0.294, 0
3377059, -0.458, -5.771, 0.077, -0.231, 0.069, 0.118, 0
3377079, -1.354, -6.693, 0.135, 0.017, 0.181, -0.142, 0
3377099, -2.322, -7.272, 0.086, -0.266, 0.369, -0.645, 0
3377119, -1.95, -5.256, 0.656, -0.892, 0.562, -1.233, 0
3377139, -1.851, -3.107, 1.105, -1.039, 0.637, -1.676, 0
3377159, -1.237, -1.946, 1.228, -0.866, 0.804, -1.913, 0
3377179, -1.523, -1.02, 1.301, -0.667, 0.847, -2.064, 0
3377199, -1.495, -0.382, 1.234, -0.519, 0.926, -2.046, 0
3377219, -0.622, 1.761, 1.61, -0.416, 0.782, -1.978, 0
3377239, -0.35, 3.897, 1.732, -0.172, 0.657, -1.905, 0
3377259, -0.689, 4.676, 1.358, 0.163, 0.605, -1.783, 0
3377279, -1.765, 5.457, 0.391, 0.508, 0.573, -1.642, 0
3377299, -2.476, 6.041, -0.572, 0.768, 0.654, -1.233, 0
3377319, -1.764, 5.876, -1.08, 0.649, 0.698, -0.908, 0
3377339, -1.549, 6.449, -0.609, 0.589, 0.635, -0.665, 0
3377359, -1.412, 5.916, -0.381, 0.535, 0.516, -0.449, 0
3377379, -0.789, 4.948, -0.628, 0.415, 0.158, -0.302, 0
3377399, -0.974, 4.277, -1.539, 0.27, 0.009, -0.172, 0
3377419, -0.922, 3.164, -2.101, 0.046, 0.079, -0.036, 0
3377439, -0.736, 2.133, -1.783, -0.149, 0.116, 0.047, 0
3377459, -0.568, 1.571, -0.969, -0.21, 0.144, 0.097, 0
3377479, -0.198, 0.802, -0.334, -0.249, 0.11, 0.131, 0
3377499, 0.098, 0.143, -0.037, -0.262, 0.01, 0.142, 0
3377519, -0.005, -0.148, 0.11, -0.221, 0.0, 0.136, 0
3377539, 0.211, -0.521, 0.278, -0.169, -0.054, 0.121, 0
3377559, -0.016, -0.671, 0.205, -0.12, -0.005, 0.105, 0
3377579, 0.016, -0.734, 0.149, -0.081, 0.093, 0.094, 0
3377599, 0.139, -0.865, 0.081, -0.116, 0.086, 0.073, 1
3377619, -0.391, -0.643, -0.083, -0.177, 0.247, 0.121, 1
3377639, -0.306, -0.814, -0.325, -0.268, 0.433, 0.16, 1
3377659, 0.246, -0.06, -0.383, -0.189, 0.492, 0.145, 1
3377679, -0.166, -0.072, 0.085, -0.061, 0.376, 0.091, 1
3377699, -0.201, 0.013, 0.309, -0.06, 0.22, 0.083, 1
3377719, -0.126, 0.132, 0.411, -0.04, 0.067, 0.086, 1
3377739, -0.172, 0.104, 0.236, -0.036, 0.026, 0.105, 1
3377759, -0.056, -0.027, -0.06, -0.108, -0.015, 0.115, 1
3377779, -0.083, 0.174, -0.44, -0.135, -0.099, 0.121, 1
3377799, -0.037, 0.228, -1.082, -0.105, -0.135, 0.109, 1
3377819, -0.054, 0.569, -1.222, -0.077, -0.081, 0.073, 1
3377839, -0.37, 1.183, -1.266, -0.082, -0.058, 0.058, 1
3377859, -1.039, 1.902, -1.154, -0.125, -0.035, 0.124, 1
3377879, -1.143, 2.46, -0.589, -0.198, 0.07, 0.274, 1
3377899, -0.969, 2.689, 0.021, -0.175, 0.13, 0.407, 1
3377919, -0.803, 2.79, -0.145, -0.04, -0.02, 0.516, 1
3377939, -1.045, 2.433, -0.487, 0.097, -0.256, 0.619, 1
3377959, -0.529, 1.681, -0.441, -0.018, -0.283, 0.82, 1
3377979, -0.042, 1.467, -0.084, -0.272, -0.383, 0.968, 1
3377999, -0.189, 1.288, -0.069, -0.357, -0.643, 1.092, 1
3378019, -0.71, 1.079, 0.253, -0.373, -0.849, 1.226, 1
3378039, -0.94, 1.101, 0.706, -0.245, -0.844, 1.326, 1
3378059, -0.549, 0.336, 0.857, 0.117, -0.685, 1.461, 1
3378079, -0.317, -0.916, 0.922, 0.601, -0.401, 1.355, 1
3378099, -0.025, -1.676, 0.996, 0.999, -0.175, 1.176, 1
3378119, 0.383, -1.476, 0.828, 1.101, -0.298, 1.016, 1
3378139, -0.494, -1.648, 0.563, 0.953, -0.502, 1.061, 1
3378159, -1.41, -2.862, 0.274, 0.67, -0.351, 1.305, 1
3378179, -0.986, -3.983, 0.092, 0.469, 0.087, 1.535, 1
3378199, -0.147, -4.507, -0.065, 0.396, 0.326, 1.547, 1
3378219, -0.31, -4.883, -0.069, 0.349, 0.221, 1.472, 1
3378239, -0.422, -5.488, -0.28, 0.175, -0.017, 1.614, 1
3378259, -0.171, -5.79, -0.639, -0.219, -0.415, 1.662, 1
3378279, -0.825, -5.511, -0.833, -0.831, -0.851, 1.464, 1
3378299, -1.672, -4.403, -0.178, -0.819, -0.353, 1.404, 1
3378319, -1.338, -3.642, 0.154, -0.299, 0.519, 1.196, 1
3378339, -0.315, -4.251, -0.071, 0.344, 0.97, 0.796, 1
3378359, 0.644, -4.496, -0.281, 0.61, 0.791, 0.397, 1
3378379, 0.68, -4.364, -0.218, 0.343, 0.408, 0.146, 1
3378399, 0.516, -3.668, -0.081, -0.226, -0.017, -0.062, 1
3378419, -0.151, -2.069, 0.118, -0.581, -0.261, -0.182, 1
3378439, -1.068, -0.982, 0.271, -0.596, -0.26, -0.153, 1
3378459, -1.438, -0.623, 0.402, -0.357, -0.045, -0.032, 1
3378479, -0.838, -0.657, 0.521, -0.08, 0.202, 0.048, 1
3378499, 0.174, -0.908, 0.284, 0.031, 0.1, -0.072, 1
3378519, 0.188, -1.055, -0.018, -0.04, -0.178, -0.186, 1
3378539, -0.277, -0.673, -0.104, -0.149, -0.295, -0.164, 1
3378559, -0.583, -0.122, -0.355, -0.142, -0.196, -0.097, 1
3378579, -0.641, -0.154, -0.57, -0.137, 0.033, 0.012, 1
3378599, -0.386, -0.418, -0.502, -0.239, 0.273, 0.098, 1
3378619, 0.185, -0.413, -0.209, -0.26, 0.27, 0.12, 1
3378639, 0.605, -0.7, -0.289, -0.254, 0.037, -0.003, 1
3378659, 0.18, -0.575, -0.417, -0.296, -0.138, -0.073, 1
3378679, -0.412, -0.298, -0.63, -0.359, -0.075, -0.017, 1
3378699, -0.538, -0.126, -0.403, -0.359, 0.135, 0.068, 1
3378719, -0.094, -0.279, -0.011, -0.246, 0.108, 0.045, 1
3378739, 0.507, -0.074, 0.537, 0.025, -0.16, -0.031, 1
3378759, 0.311, -0.196, 0.144, 0.109, -0.385, 0.087, 1
3378779, -0.577, -0.43, -0.884, -0.247, -0.173, 0.158, 1
3378799, -0.628, -0.259, -0.461, -0.429, -0.053, 0.368, 0
3378819, 0.222, -0.151, 0.421, -0.226, -0.021, 0.293, 0
3378839, 0.197, -0.143, 0.566, 0.134, -0.007, 0.1, 0
3378859, 0.256, -0.785, -0.231, 0.347, 0.031, -0.043, 0
3378879, -0.222, -0.941, -1.314, 0.166, 0.125, -0.131, 0
3378899, -0.454, -0.633, -1.247, -0.196, 0.23, -0.04, 0
3378919, -0.186, -0.311, -0.452, -0.342, 0.286, 0.03, 0
3378939, -0.094, -0.307, -0.159, -0.313, 0.299, 0.0, 0
3378959, -0.247, -0.303, -0.19, -0.238, 0.312, -0.127, 0
3378979, -0.274, -0.485, -0.25, -0.224, 0.266, -0.195, 0
3378999, -0.279, -0.626, -0.212, -0.279, 0.135, -0.174, 0
3379019, -0.309, -0.975, -0.152, -0.351, -0.065, -0.043, 0
3379039, -0.376, -1.974, -0.416, -0.373, -0.265, 0.075, 0
3379059, -0.405, -2.756, -0.591, -0.471, -0.282, 0.023, 0
3379079, -0.25, -2.697, -0.512, -0.483, -0.202, -0.097, 0
3379099, -0.256, -3.756, -1.08, -0.425, -0.15, -0.2, 0
3379119, -0.192, -6.338, -1.865, -0.418, -0.273, -0.179, 0
3379139, -0.882, -9.457, -2.147, -0.676, -0.218, -0.362, 0
3379159, -2.6, -8.663, -1.013, -1.222, 0.266, -1.039, 0
3379179, -2.214, -6.252, 1.176, -1.732, 0.488, -1.577, 0
3379199, -2.933, -2.462, 2.908, -1.447, 0.838, -1.956, 0
3379219, -1.066, -1.624, 3.383, -0.38, 1.492, -2.254, 0
3379239, 0.269, -1.785, 2.932, 0.12, 1.339, -2.441, 0
3379259, -0.129, -0.031, 2.487, -0.426, 0.426, -2.317, 0
3379279, -0.68, 3.109, 2.34, -0.32, 0.272, -2.126, 0
3379299, -0.952, 5.198, 1.959, 0.181, 0.461, -1.93, 0
3379319, -0.95, 5.431, 1.16, 0.571, 0.5, -1.702, 0
3379339, -1.404, 5.527, 0.272, 0.611, 0.59, -1.387, 0
3379359, -1.992, 6.316, -0.044, 0.56, 0.863, -1.054, 0
3379379, -1.811, 6.374, -0.089, 0.576, 0.922, -0.805, 0
3379399, -1.502, 5.539, -0.367, 0.577, 0.709, -0.617, 0
3379419, -1.251, 3.848, -1.388, 0.411, 0.531, -0.437, 0
3379439, -0.796, 2.749, -2.113, 0.169, 0.4, -0.348, 0
3379459, -0.979, 2.155, -2.437, 0.009, 0.415, -0.274, 0
3379479, -0.967, 1.855, -1.842, 0.043, 0.532, -0.216, 0
3379499, -0.853, 1.567, -1.053, 0.114, 0.598, -0.194, 0
3379519, -0.805, 1.235, -0.628, 0.072, 0.604, -0.127, 0
3379539, -0.508, 0.65, -0.511, -0.001, 0.403, -0.09, 0
3379559, -0.649, 0.847, -0.388, -0.078, 0.179, -0.039, 0
3379579, -0.831, 0.656, -0.402, -0.18, 0.188, 0.045, 0
3379599, -0.455, 0.487, -0.19, -0.133, 0.101, 0.078, 0
3379619, -0.591, 0.189, -0.202, -0.072, 0.0, 0.098, 0
3379639, -0.355, -0.128, -0.101, -0.098, -0.067, 0.142, 0
3379659, -0.282, -0.3, 0.007, -0.163, -0.021, 0.207, 0
3379679, 0.038, -0.507, 0.088, -0.185, 0.032, 0.254, 0
3379699, 0.243, -0.635, 0.018, -0.155, 0.023, 0.26, 1
3379719, 0.133, -0.712, -0.206, -0.127, 0.116, 0.254, 1
3379739, -0.08, -0.699, -0.363, -0.118, 0.494, 0.288, 1
3379759, 0.265, -0.242, -0.389, -0.023, 0.584, 0.249, 1
3379779, 0.217, -0.089, -0.288, 0.025, 0.434, 0.218, 1
3379799, 0.238, 0.079, -0.175, -0.026, 0.17, 0.173, 1
3379819, -0.146, 0.632, -0.67, -0.058, -0.111, 0.134, 1
3379839, -0.585, 0.995, -1.061, -0.036, -0.167, 0.141, 1
3379859, -0.68, 1.219, -0.854, -0.075, 0.0, 0.214, 1
3379879, -0.551, 1.674, -0.442, -0.161, 0.1, 0.31, 1
3379899, -0.309, 2.029, -0.508, -0.124, -0.04, 0.359, 1
3379919, -0.524, 1.903, -0.95, -0.054, -0.397, 0.354, 1
3379939, -0.892, 1.702, -0.886, -0.148, -0.568, 0.448, 1
3379959, -0.385, 1.608, -0.513, -0.263, -0.441, 0.587, 1
3379979, 0.4, 1.379, -0.549, -0.236, -0.475, 0.625, 1
3379999, 0.424, 1.484, -0.971, -0.282, -0.82, 0.639, 1
3380019, -0.541, 1.54, -1.115, -0.572, -1.236, 0.803, 1
3380039, -1.142, 1.549, -0.603, -0.966, -1.334, 1.118, 1
3380059, -0.931, 1.326, -0.017, -1.066, -1.072, 1.348, 1
3380079, -0.361, 0.682, 0.266, -0.492, -0.673, 1.353, 1
3380099, 0.121, -0.523, 0.3, 0.56, -0.158, 1.017, 1
3380119, 0.094, -1.593, 0.239, 1.176, -0.01, 0.981, 1
3380139, 0.33, -2.373, 0.003, 0.878, -0.302, 1.053, 1
3380159, 0.15, -1.651, 0.161, -0.046, -0.776, 1.276, 1
3380179, 0.05, -1.245, 0.478, -0.897, -1.217, 1.48, 1
3380199, -1.396, -1.627, 0.703, -1.236, -1.403, 1.465, 1
3380219, -2.908, -1.829, 0.691, -0.945, -1.028, 1.58, 1
3380239, -3.347, -2.614, 0.6, 0.447, 0.433, 1.834, 1
3380259, -2.125, -4.869, 0.46, 0.967, 0.959, 1.759, 1
3380279, -1.263, -6.583, 0.1, 0.839, 0.886, 1.558, 1
3380299, -0.124, -6.731, 0.034, 0.284, 0.513, 1.395, 1
3380319, 0.009, -6.392, 0.113, -0.279, 0.184, 1.017, 1
3380339, -0.162, -5.678, 0.285, -0.525, 0.033, 0.784, 1
3380359, 0.244, -4.813, 0.316, -0.357, -0.085, 0.681, 1
3380379, 0.347, -3.591, 0.152, 0.113, -0.126, 0.481, 1
3380399, 0.258, -3.491, -0.172, 0.409, -0.142, 0.215, 1
3380419, 0.164, -3.357, -0.637, 0.337, -0.192, 0.045, 1
3380439, -0.181, -2.642, -0.756, 0.05, -0.15, 0.004, 1
3380459, -0.326, -1.907, -0.555, -0.196, -0.086, -0.027, 1
3380479, -0.343, -0.982, -0.197, -0.153, -0.112, -0.078, 1
3380499, -0.559, -0.806, -0.348, -0.029, -0.064, -0.061, 1
3380519, -0.568, -0.764, -0.382, 0.04, 0.071, 0.039, 1
3380539, -0.261, -0.734, -0.427, 0.019, 0.153, 0.107, 1
3380559, 0.097, -0.802, -0.504, -0.046, 0.164, 0.078, 1
3380579, 0.276, -0.883, -0.376, -0.097, 0.069, 0.015, 1
3380599, 0.126, -0.744, -0.178, -0.135, -0.045, -0.051, 1
3380619, -0.101, -0.232, -0.264, -0.113, -0.087, -0.082, 1
3380639, -0.162, -0.182, -0.555, -0.135, -0.096, -0.048, 1
3380659, -0.373, -0.3, -0.72, -0.18, -0.008, 0.018, 1
3380679, -0.16, -0.289, -0.621, -0.222, 0.069, 0.034, 1
3380699, -0.024, -0.323, -0.336, -0.256, 0.075, 0.009, 1
3380719, 0.051, -0.426, -0.386, -0.458, 0.057, -0.1, 1
3380739, -0.649, -0.475, -0.947, -0.786, 0.124, -0.093, 1
3380759, -0.52, 0.048, -0.573, -0.861, 0.406, 0.001, 1
3380779, 0.119, 0.044, 0.049, -0.627, 0.491, -0.05, 1
3380799, 0.379, 0.277, 0.489, -0.295, 0.13, -0.034, 1
3380819, 0.095, -0.075, 0.377, 0.057, -0.324, 0.252, 0
3380839, -0.035, -0.655, -0.083, 0.088, -0.437, 0.312, 0
3380859, -0.176, -0.422, -0.194, -0.01, -0.251, 0.072, 0
3380879, -0.389, -0.019, -0.241, 0.065, -0.076, -0.043, 0
3380899, -0.516, -0.093, -0.374, 0.245, 0.122, -0.036, 0
3380919, -0.158, -0.333, -0.388, 0.303, 0.233, -0.008, 0
3380939, 0.0, -0.468, -0.474, 0.162, 0.129, 0.015, 0
3380959, -0.141, -0.625, -0.482, -0.089, 0.007, 0.025, 0
3380979, -0.137, -0.687, -0.236, -0.254, -0.03, -0.036, 0
3380999, -0.066, -0.738, 0.067, -0.255, -0.018, -0.119, 0
3381019, 0.002, -0.905, 0.107, -0.1, -0.003, -0.137, 0
3381039, 0.105, -1.554, -0.314, -0.007, -0.044, -0.198, 0
3381059, -0.273, -2.349, -0.638, -0.042, -0.168, -0.224, 0
3381079, -0.236, -3.597, -0.609, -0.239, -0.163, -0.29, 0
3381099, -0.194, -4.376, -0.334, -0.393, -0.104, -0.431, 0
3381119, -0.373, -5.249, -0.334, -0.364, -0.117, -0.577, 0
3381139, -0.441, -6.058, -0.325, -0.333, -0.282, -0.787, 0
3381159, -0.489, -6.125, -0.297, -0.458, -0.386, -0.946, 0
3381179, -0.168, -5.989, -0.593, -0.644, -0.384, -1.423, 0
3381199, -0.954, -4.914, -0.526, -0.788, -0.226, -1.816, 0
3381219, -1.363, -3.608, 0.121, -0.957, 0.286, -1.879, 0
3381239, -0.979, -2.307, 0.749, -0.882, 0.579, -1.933, 0
3381259, 0.294, -1.477, 1.436, -0.841, 0.649, -2.08, 0
3381279, 0.256, -0.56, 1.422, -0.955, 0.547, -2.123, 0
3381299, -0.722, 1.784, 1.838, -0.963, 0.475, -2.054, 0
3381319, -1.778, 5.117, 2.069, -0.516, 0.542, -2.0, 0
3381339, -3.259, 6.655, 1.198, 0.062, 0.897, -1.791, 0
3381359, -3.473, 7.096, 0.456, 0.298, 1.131, -1.543, 0
3381379, -3.749, 7.202, 0.22, 0.241, 1.065, -1.166, 0
3381399, -3.787, 7.732, 0.904, 0.138, 0.901, -0.708, 0
3381419, -3.362, 6.997, 1.065, -0.027, 0.653, -0.29, 0
3381439, -2.763, 5.699, 0.715, -0.21, 0.487, 0.02, 0
3381459, -1.566, 4.628, 0.595, -0.138, 0.143, 0.14, 0
3381479, -1.188, 3.115, 0.059, -0.026, -0.063, 0.177, 0
3381499, -1.022, 1.732, -0.397, 0.009, 0.034, 0.232, 0
3381519, -0.728, 1.164, -0.474, 0.062, 0.24, 0.263, 0
3381539, 0.091, 0.356, -0.539, 0.041, 0.218, 0.251, 0
3381559, 0.093, -0.098, -0.728, -0.034, 0.047, 0.204, 0
3381579, -0.014, -0.188, -0.863, -0.023, -0.004, 0.143, 0
3381599, -0.259, -0.048, -0.728, -0.008, 0.117, 0.13, 0
3381619, -0.088, -0.1, -0.594, -0.025, 0.236, 0.129, 1
3381639, -0.21, -0.159, -0.562, -0.129, 0.313, 0.17, 1
3381659, -0.787, 0.17, -0.691, -0.218, 0.605, 0.262, 1
3381679, -0.495, 0.162, -0.695, -0.164, 0.718, 0.258, 1
3381699, 0.247, -0.045, -0.206, -0.059, 0.161, 0.161, 1
3381719, -0.127, -0.014, -0.016, -0.09, 0.028, 0.12, 1
3381739, -0.152, 0.094, -0.175, -0.072, 0.087, 0.116, 1
3381759, -0.057, 0.194, -0.157, -0.032, 0.117, 0.102, 1
3381779, 0.006, 0.125, -0.217, 0.0, 0.054, 0.108, 1
3381799, -0.106, 0.368, -0.4, -0.026, -0.058, 0.116, 1
3381819, -0.459, 0.751, -0.416, -0.048, -0.078, 0.127, 1
3381839, -0.567, 1.352, -0.172, -0.05, -0.017, 0.174, 1
3381859, -1.02, 2.297, 0.005, 0.036, 0.025, 0.232, 1
3381879, -1.061, 3.059, -0.087, 0.205, 0.079, 0.333, 1
3381899, -1.101, 3.377, -0.485, 0.378, 0.004, 0.437, 1
3381919, -1.212, 3.085, -0.911, 0.401, -0.08, 0.576, 1
3381939, -1.21, 2.783, -1.057, 0.227, -0.118, 0.749, 1
3381959, -0.708, 2.582, -0.969, -0.047, -0.169, 0.961, 1
3381979, 0.103, 2.416, -0.527, -0.321, -0.458, 1.094, 1
3381999, 0.452, 2.119, 0.031, -0.347, -0.781, 1.105, 1
3382019, -0.045, 2.023, 0.287, -0.092, -0.814, 0.977, 1
3382039, 0.454, 1.697, 0.241, 0.295, -0.775, 1.035, 1
3382059, 0.311, 1.193, 0.017, 0.47, -0.969, 0.97, 1
3382079, -0.464, -0.021, -0.339, 0.57, -1.007, 0.972, 1
3382099, -1.087, -0.694, -0.174, 0.458, -0.809, 0.976, 1
3382119, -1.748, -1.145, 0.234, 0.314, -0.519, 1.145, 1
3382139, -2.195, -1.774, 0.63, 0.191, -0.166, 1.434, 1
3382159, -2.309, -2.707, 0.908, 0.094, 0.233, 1.826, 1
3382179, -1.653, -4.873, 0.785, -0.224, 0.573, 2.169, 1
3382199, -1.57, -6.637, 0.479, -0.701, 0.469, 2.031, 1
3382219, -2.111, -6.506, 0.058, -0.563, 0.538, 1.911, 1
3382239, -1.988, -6.56, -0.375, 0.069, 0.932, 1.767, 1
3382259, -0.489, -7.184, -0.556, 0.539, 1.047, 1.536, 1
3382279, 0.799, -7.991, -0.57, 0.402, 0.825, 1.242, 1
3382299, 1.531, -7.605, -0.506, -0.102, 0.448, 0.848, 1
3382319, 1.827, -6.421, -0.46, -0.458, -0.065, 0.463, 1
3382339, 1.311, -4.49, -0.279, -0.504, -0.454, 0.182, 1
3382359, 0.209, -2.863, -0.034, -0.352, -0.456, -0.04, 1
3382379, -0.989, -2.06, -0.297, -0.161, -0.253, -0.088, 1
3382399, -1.223, -1.626, 0.007, -0.059, -0.018, 0.008, 1
3382419, -0.6, -1.091, 0.272, -0.064, -0.025, -0.07, 1
3382439, -0.495, -1.068, 0.203, -0.132, -0.151, -0.068, 1
3382459, -0.431, -0.732, 0.222, -0.119, -0.204, -0.03, 1
3382479, -0.147, -0.634, -0.021, -0.025, -0.189, -0.036, 1
3382499, -0.083, -0.553, -0.305, 0.036, -0.222, -0.096, 1
3382519, -0.401, -0.507, -0.443, 0.032, -0.176, -0.028, 1
3382539, -0.356, -0.249, -0.377, 0.026, -0.025, 0.057, 1
3382559, -0.128, -0.331, -0.283, 0.017, 0.012, 0.13, 1
3382579, 0.123, -0.488, 0.035, 0.062, -0.029, 0.111, 1
3382599, 0.425, -0.485, 0.158, 0.199, -0.136, -0.003, 1
3382619, 0.32, -0.673, -0.179, 0.218, -0.247, -0.089, 1
3382639, -0.246, -0.628, -0.821, 0.019, -0.238, 0.039, 0
3382659, -0.496, -0.228, -0.819, -0.165, -0.169, 0.251, 0
3382679, 0.018, 0.0, -0.133, -0.039, -0.102, 0.252, 0
3382699, 0.074, -0.391, -0.14, 0.114, -0.05, 0.163, 0
3382719, -0.202, -0.368, -0.609, 0.109, 0.08, 0.047, 0
3382739, -0.124, -0.398, -0.884, -0.089, 0.237, 0.114, 0
3382759, 0.123, -0.194, -0.434, -0.306, 0.249, 0.237, 0
3382779, 0.063, -0.103, 0.062, -0.295, 0.144, 0.254, 0
3382799, 0.124, -0.198, 0.217, -0.178, 0.084, 0.194, 0
3382819, -0.038, -0.374, -0.086, -0.087, 0.067, 0.046, 0
3382839, -0.157, -0.457, -0.635, -0.092, 0.097, -0.04, 0
3382859, -0.353, -0.437, -0.722, -0.189, 0.113, -0.03, 0
3382879, -0.051, -0.411, -0.332, -0.21, 0.232, -0.059, 0
3382899, 0.133, -0.838, -0.344, -0.113, 0.183, -0.088, 0
3382919, 0.237, -1.248, -0.552, -0.128, 0.0, -0.119, 0
3382939, 0.217, -2.037, -1.08, -0.216, -0.271, -0.06, 0
3382959, 0.112, -3.413, -1.332, -0.451, -0.412, -0.004, 0
3382979, -0.239, -4.374, -1.271, -0.613, -0.231, -0.211, 0
3382999, -0.549, -5.388, -0.613, -0.464, 0.062, -0.398, 0
3383019, -0.378, -5.378, 0.364, -0.142, 0.338, -0.448, 0
3383039, 0.461, -6.19, 0.31, 0.187, 0.326, -0.559, 0
3383059, -1.022, -7.364, -0.924, -0.225, -0.114, -1.053, 0
3383079, -3.246, -7.232, -0.975, -1.29, -0.492, -1.064, 0
3383099, -4.576, -4.037, 0.523, -1.695, 0.26, -1.329, 0
3383119, -2.052, -1.348, 2.922, -0.447, 1.896, -1.776, 0
3383139, 1.405, -2.063, 3.666, 0.725, 1.978, -2.281, 0
3383159, 1.332, -2.089, 2.514, -0.296, 0.816, -2.359, 0
3383179, 0.208, 0.263, 1.609, -0.893, -0.032, -2.242, 0
3383199, -0.89, 3.22, 1.331, -0.678, 0.111, -2.238, 0
3383219, -2.156, 5.542, 1.131, -0.07, 0.434, -2.137, 0
3383239, -3.008, 7.103, 0.788, 0.561, 0.684, -1.874, 0
3383259, -2.462, 6.31, -0.13, 0.696, 0.574, -1.551, 0
3383279, -2.712, 5.455, -1.224, 0.23, 0.298, -1.178, 0
3383299, -3.408, 5.829, -1.498, -0.124, 0.264, -0.801, 0
3383319, -3.709, 6.177, -1.268, 0.05, 0.527, -0.516, 0
3383339, -2.509, 4.052, -1.357, 0.398, 0.643, -0.347, 0
3383359, -1.449, 2.601, -1.592, 0.385, 0.558, -0.293, 0
3383379, -0.986, 2.375, -1.318, 0.084, 0.346, -0.183, 0
3383399, -1.017, 2.255, -1.034, -0.207, 0.102, -0.031, 0
3383419, -1.311, 2.047, -0.748, -0.303, 0.015, 0.089, 0
3383439, -1.582, 2.091, -0.022, -0.141, 0.138, 0.183, 0
3383459, -0.821, 0.939, 0.385, 0.009, 0.074, 0.258, 0
3383479, -0.634, -0.115, 0.17, -0.026, 0.031, 0.324, 1
3383499, -0.28, -0.777, -0.213, -0.097, 0.125, 0.353, 1
3383519, 0.021, -1.206, -0.578, -0.13, 0.317, 0.329, 1
3383539, 0.195, -0.741, -0.59, 0.001, 0.584, 0.284, 1
3383559, 0.344, -1.048, -0.486, 0.02, 0.546, 0.254, 1
3383579, 0.516, -0.643, 0.018, -0.01, 0.296, 0.169, 1
3383599, 0.0, -0.233, 0.221, 0.012, 0.156, 0.116, 1
3383619, -0.285, -0.098, 0.172, 0.018, 0.128, 0.106, 1
3383639, -0.331, -0.084, 0.125, -0.018, 0.078, 0.116, 1
3383659, -0.243, -0.009, -0.272, -0.015, -0.004, 0.106, 1
3383679, 0.081, 0.011, -0.543, 0.0, -0.098, 0.092, 1
3383699, 0.035, 0.104, -0.822, 0.032, -0.15, 0.05, 1
3383719, 0.094, 0.219, -1.184, 0.037, -0.131, 0.034, 1
3383739, 0.047, 0.357, -1.415, -0.026, -0.11, 0.014, 1
3383759, -0.041, 1.163, -1.674, -0.16, -0.122, -0.006, 1
3383779, -0.707, 2.399, -1.951, -0.252, -0.237, 0.001, 1
3383799, -1.583, 3.296, -1.997, -0.38, -0.255, 0.134, 1
3383819, -1.747, 3.731, -1.327, -0.562, -0.194, 0.381, 1
3383839, -1.241, 3.867, -0.568, -0.751, -0.315, 0.618, 1
3383859, -1.098, 3.767, -0.241, -0.836, -0.631, 0.838, 1
3383879, -1.064, 2.829, 0.001, -0.563, -0.643, 0.948, 1
3383899, -0.24, 2.017, 0.798, -0.167, -0.279, 0.954, 1
3383919, 0.437, 0.923, 1.194, 0.227, -0.086, 0.955, 1
3383939, 0.593, -0.13, 1.148, 0.115, -0.4, 1.131, 1
3383959, 0.302, -0.045, 1.336, -0.435, -1.004, 1.285, 1
3383979, -0.176, 0.1, 1.638, -0.653, -1.474, 1.328, 1
3383999, -0.904, -0.125, 1.74, -0.21, -1.451, 1.129, 1
3384019, -1.478, -0.813, 1.555, 0.552, -0.951, 0.904, 1
3384039, -1.624, -1.905, 1.37, 1.015, -0.529, 0.81, 1
3384059, -1.801, -3.2, 0.724, 0.927, -0.188, 0.895, 1
3384079, -1.43, -4.523, 0.057, 0.44, 0.187, 1.032, 1
3384099, -0.623, -5.16, -0.336, -0.083, 0.448, 1.065, 1
3384119, -0.13, -5.75, -0.599, -0.554, 0.348, 0.866, 1
3384139, -0.549, -6.409, -1.162, -1.35, -0.219, 0.199, 1
3384159, -1.153, -4.904, -1.408, -1.179, -0.119, 0.204, 1
3384179, -1.256, -4.331, -1.584, -0.574, 0.5, 0.664, 1
3384199, 0.261, -4.817, -1.668, -0.094, 0.855, 0.957, 1
3384219, 2.207, -4.957, -1.619, 0.105, 0.445, 0.731, 1
3384239, 2.342, -4.716, -1.887, 0.061, -0.2, 0.285, 1
3384259, 1.13, -4.077, -1.917, -0.255, -0.426, 0.328, 1
3384279, 0.301, -3.712, -1.628, -0.624, -0.304, 0.56, 1
3384299, -0.309, -2.538, -0.765, -0.698, -0.032, 0.508, 1
3384319, -0.843, -1.584, 0.154, -0.409, 0.241, 0.366, 1
3384339, -0.701, -0.506, 1.125, 0.057, 0.246, 0.193, 1
3384359, -0.268, -0.846, 1.093, 0.304, -0.158, 0.081, 1
3384379, -0.303, -0.877, 0.746, 0.228, -0.586, 0.109, 1
3384399, -0.649, -0.208, 0.133, 0.147, -0.651, 0.234, 1
3384419, -0.81, -0.356, -0.354, 0.164, -0.422, 0.25, 1
3384439, -0.573, -0.446, -0.418, 0.227, -0.105, 0.247, 1
3384459, -0.11, -0.427, -0.126, 0.27, 0.079, 0.245, 1
3384479, 0.253, -0.582, 0.014, 0.248, 0.007, 0.284, 0
3384499, 0.448, -0.497, -0.162, 0.11, -0.37, 0.415, 0
3384519, -0.105, -0.419, -0.047, -0.003, -0.505, 0.365, 0
3384539, -0.571, -0.014, 0.188, 0.106, -0.253, 0.277, 0
3384559, -0.256, -0.149, 0.135, 0.205, -0.018, 0.311, 0
3384579, -0.032, -0.538, -0.426, 0.032, 0.08, 0.342, 0
3384599, -0.078, -0.53, -0.658, -0.191, 0.133, 0.335, 0
3384619, 0.002, -0.276, -0.528, -0.266, 0.187, 0.296, 0
3384639, -0.071, -0.07, -0.181, -0.136, 0.343, 0.243, 0
3384659, 0.263, -0.284, -0.079, 0.006, 0.341, 0.178, 0
3384679, 0.532, -0.506, -0.087, 0.006, 0.315, 0.178, 0
3384699, 0.483, -0.693, -0.273, -0.13, 0.153, 0.204, 0
3384719, 0.508, -0.601, -0.303, -0.284, 0.0, 0.172, 0
3384739, 0.346, -0.83, -0.263, -0.242, -0.182, 0.205, 0
3384759, 0.368, -1.251, -0.496, -0.189, -0.167, 0.173, 0
3384779, 0.544, -1.923, -0.945, -0.163, -0.098, 0.032, 0
3384799, 0.279, -2.942, -1.326, -0.284, -0.124, -0.097, 0
3384819, -0.068, -3.877, -1.67, -0.555, -0.215, -0.019, 0
3384839, -0.747, -5.144, -1.634, -0.781, -0.239, 0.19, 0
3384859, -0.967, -6.203, -1.236, -0.752, 0.171, 0.11, 0
3384879, -1.362, -6.906, -0.7, -0.432, 0.577, 0.061, 0
3384899, -1.244, -6.537, 0.238, -0.151, 0.828, -0.296, 0
3384919, -0.553, -6.162, 1.225, -0.139, 0.599, -0.888, 0
3384939, -0.935, -5.217, 1.312, -0.508, 0.042, -1.464, 0
3384959, -1.601, -3.857, 1.17, -0.874, -0.078, -1.842, 0
3384979, -0.938, -1.191, 2.016, -0.866, 0.106, -1.966, 0
3384999, -0.04, 0.145, 2.181, -0.609, 0.189, -2.02, 0
3385019, -0.127, 0.976, 1.662, -0.344, 0.221, -2.162, 0
3385039, -0.662, 1.92, 1.157, -0.196, 0.227, -2.199, 0
3385059, -1.55, 3.743, 1.028, -0.014, 0.309, -2.13, 0
3385079, -1.837, 3.586, 0.109, 0.129, 0.322, -1.97, 0
3385099, -1.675, 3.951, -0.546, 0.093, 0.365, -1.876, 0
3385119, -2.597, 5.295, -0.421, 0.249, 0.329, -1.716, 0
3385139, -3.271, 6.168, -0.271, 0.429, 0.419, -1.435, 0
3385159, -3.7, 6.314, -0.325, 0.455, 0.38, -1.089, 0
3385179, -4.285, 5.939, -0.542, 0.274, 0.39, -0.673, 0
3385199, -3.966, 5.418, -0.52, 0.072, 0.416, -0.239, 0
3385219, -2.548, 3.856, -0.514, -0.119, 0.26, 0.089, 0
3385239, -1.438, 2.263, -0.722, -0.368, 0.006, 0.289, 0
3385259, -1.034, 1.046, -0.798, -0.507, -0.044, 0.386, 0
3385279, -0.734, 0.604, -0.569, -0.421, 0.107, 0.406, 0
3385299, -0.181, 0.008, -0.252, -0.21, 0.209, 0.397, 0
3385319, 0.316, -0.678, -0.155, -0.102, 0.112, 0.341, 0
3385339, 0.25, -1.114, -0.263, -0.109, 0.082, 0.31, 0
3385359, 0.292, -1.071, -0.264, -0.114, 0.125, 0.258, 0
3385379, 0.074, -0.733, -0.196, -0.066, 0.252, 0.252, 0
3385399, -0.157, -0.574, -0.296, -0.078, 0.396, 0.263, 1
3385419, -0.343, -0.44, -0.263, -0.115, 0.584, 0.301, 1
3385439, -0.395, -0.057, -0.227, -0.067, 0.684, 0.293, 1
3385459, -0.035, -0.266, -0.164, 0.021, 0.56, 0.212, 1
3385479, 0.088, -0.071, 0.009, 0.061, 0.274, 0.158, 1
3385499, -0.245, -0.019, 0.035, 0.068, 0.15, 0.124, 1
3385519, -0.139, -0.091, -0.001, 0.059, 0.103, 0.117, 1
3385539, -0.091, -0.109, -0.058, 0.067, 0.113, 0.103, 1
3385559, 0.026, -0.012, -0.123, 0.114, 0.15, 0.065, 1
3385579, 0.168, 0.205, -0.095, 0.139, 0.094, 0.034, 1
3385599, 0.02, 0.356, -0.072, 0.167, -0.038, -0.004, 1
3385619, -0.624, 0.564, -0.505, 0.177, -0.131, 0.0, 1
3385639, -0.894, 1.498, -0.856, 0.165, -0.141, 0.045, 1
3385659, -1.265, 2.176, -1.064, 0.113, -0.059, 0.132, 1
3385679, -1.46, 3.275, -0.963, 0.06, 0.024, 0.27, 1
3385699, -1.567, 3.797, -0.782, 0.109, 0.075, 0.449, 1
3385719, -1.37, 3.984, -0.874, 0.201, 0.073, 0.62, 1
3385739, -1.21, 3.832, -1.266, 0.259, -0.112, 0.783, 1
3385759, -0.906, 3.237, -1.346, 0.145, -0.243, 0.974, 1
3385779, -0.339, 2.82, -0.907, -0.089, -0.231, 1.164, 1
3385799, -0.304, 2.334, -0.308, -0.301, -0.364, 1.312, 1
3385819, -0.485, 1.858, 0.284, -0.524, -0.678, 1.482, 1
3385839, -0.979, 1.73, 0.679, -0.574, -0.968, 1.614, 1
3385859, -1.029, 1.31, 1.053, -0.047, -0.806, 1.605, 1
3385879, -0.627, 0.478, 1.32, 0.713, -0.42, 1.528, 1
3385899, -0.307, -0.626, 1.422, 1.183, -0.343, 1.407, 1
3385919, -0.864, -1.783, 1.231, 1.2, -0.553, 1.247, 1
3385939, -3.064, -2.812, 0.511, 0.954, -0.445, 1.285, 1
3385959, -3.68, -4.472, -0.115, 0.562, 0.061, 1.643, 1
3385979, -3.072, -5.554, -0.202, 0.217, 0.464, 1.888, 1
3385999, -1.999, -6.389, 0.315, 0.129, 0.632, 1.988, 1
3386019, -1.275, -7.493, 0.575, 0.092, 0.596, 1.842, 1
3386039, -0.835, -8.105, 0.41, -0.012, 0.514, 1.529, 1
3386059, -0.163, -7.54, 0.21, -0.267, 0.434, 1.202, 1
3386079, 0.76, -6.843, 0.175, -0.55, 0.181, 0.911, 1
3386099, 1.161, -5.672, 0.108, -0.511, -0.45, 0.416, 1
3386119, 0.596, -4.197, 0.058, -0.117, -0.524, 0.05, 1
3386139, -0.297, -2.888, -0.086, 0.237, -0.293, -0.071, 1
3386159, -0.602, -2.518, -0.333, 0.203, -0.144, -0.086, 1
3386179, -0.525, -2.083, -0.406, -0.066, -0.229, -0.144, 1
3386199, -0.639, -1.649, -0.443, -0.296, -0.353, -0.158, 1
3386219, -1.155, -1.041, -0.265, -0.308, -0.163, -0.056, 1
3386239, -0.793, -0.849, 0.019, -0.208, 0.129, 0.061, 1
3386259, 0.166, -1.217, 0.001, -0.222, 0.092, -0.006, 0
3386279, -0.154, -0.69, 0.228, -0.248, -0.059, -0.083, 0
3386299, -0.041, -0.235, 0.318, -0.091, -0.075, -0.111, 0
3386319, -0.002, -0.303, -0.11, 0.014, -0.078, -0.044, 0
3386339, 0.018, -0.563, -0.462, -0.072, -0.105, 0.08, 0
3386359, 0.013, -0.48, -0.393, -0.122, -0.032, 0.095, 0
3386379, 0.227, -0.635, -0.402, -0.162, -0.026, 0.01, 0
3386399, 0.024, -0.618, -0.559, -0.26, 0.014, -0.074, 0
3386419, -0.315, -0.228, -0.569, -0.271, 0.163, -0.061, 0
3386439, -0.408, -0.173, -0.628, -0.295, 0.296, -0.008, 0
3386459, -0.35, -0.108, -0.393, -0.295, 0.381, 0.024, 0
3386479, -0.003, -0.057, -0.011, -0.189, 0.301, 0.013, 0
3386499, 0.279, -0.368, 0.076, -0.135, 0.053, -0.044, 0
3386519, 0.075, -0.37, -0.128, -0.196, -0.073, -0.034, 0
3386539, -0.253, -0.252, -0.383, -0.243, -0.02, 0.016, 0
3386559, -0.461, -0.11, -0.471, -0.234, 0.098, 0.067, 0
3386579, -0.35, -0.237, -0.216, -0.116, 0.158, 0.108, 0
3386599, 0.103, -1.235, -0.255, -0.035, -0.047, 0.207, 0
3386619, -0.073, -1.599, -0.569, -0.152, -0.218, 0.263, 0
3386639, 0.023, -2.423, -0.727, -0.29, -0.289, 0.51, 0
3386659, -0.304, -2.348, -0.806, -0.298, -0.174, 0.649, 0
3386679, -0.916, -2.807, -0.856, -0.094, 0.045, 0.861, 0
3386699, -1.099, -3.659, -0.386, 0.108, 0.251, 0.951, 0
3386719, -0.811, -3.501, 1.052, 0.405, 0.287, 0.847, 0
3386739, -0.257, -4.9, 1.898, 0.571, 0.241, 0.022, 0
3386759, 0.11, -5.652, 2.028, 0.331, 0.266, -0.823, 0
3386779, 0.105, -5.323, 1.535, -0.166, -0.073, -1.356, 0
3386799, -0.901, -3.781, 0.932, -0.801, -0.531, -1.623, 0
3386819, -1.872, -2.634, 0.427, -1.182, -0.608, -1.753, 0
3386839, -1.6, -2.136, 0.156, -1.062, -0.157, -1.839, 0
3386859, -0.324, -1.6, 0.297, -0.718, 0.409, -1.916, 0
3386879, 0.776, -1.345, 0.242, -0.509, 0.562, -2.025, 0
3386899, 0.551, -0.675, -0.04, -0.611, 0.265, -2.084, 0
3386919, -0.452, 0.876, -0.118, -0.715, 0.066, -2.068, 0
3386939, -1.251, 3.417, 0.182, -0.634, 0.226, -1.941, 0
3386959, -1.055, 4.502, 0.325, -0.249, 0.536, -1.819, 0
3386979, -1.812, 5.886, 0.302, 0.161, 0.679, -1.748, 0
3386999, -2.957, 6.316, -0.396, 0.391, 0.692, -1.541, 0
3387019, -4.244, 7.637, -0.555, 0.36, 0.668, -1.147, 0
3387039, -3.975, 7.576, -0.218, 0.307, 0.806, -0.645, 0
3387059, -3.06, 6.255, -0.244, 0.241, 0.695, -0.254, 0
3387079, -2.197, 4.806, -0.7, -0.009, 0.247, 0.097, 0
3387099, -1.561, 3.711, -1.196, -0.145, 0.149, 0.25, 0
3387119, -1.009, 2.644, -1.242, -0.202, 0.164, 0.353, 0
3387139, -0.542, 1.652, -0.967, -0.152, 0.269, 0.391, 0
3387159, -0.019, 0.536, -0.451, -0.117, 0.301, 0.373, 0
3387179, 0.259, -0.303, -0.151, -0.138, 0.18, 0.34, 0
3387199, 0.26, -0.51, 0.072, -0.067, 0.124, 0.257, 0
3387219, 0.283, -0.712, 0.103, 0.036, 0.108, 0.16, 0
3387239, 0.0, -0.645, 0.008, 0.138, 0.172, 0.09, 1
3387259, -0.483, -0.323, -0.185, 0.127, 0.41, 0.1, 1
3387279, -0.917, 0.146, -0.222, 0.044, 0.747, 0.182, 1
3387299, -0.556, 0.133, -0.126, -0.023, 0.823, 0.244, 1
3387319, 0.164, -0.371, -0.059, 0.113, 0.422, 0.163, 1
3387339, -0.14, 0.046, -0.093, 0.122, 0.18, 0.103, 1
3387359, -0.292, 0.215, -0.161, 0.071, 0.235, 0.099, 1
3387379, -0.229, 0.454, -0.137, 0.015, 0.241, 0.135, 1
3387399, -0.267, 0.612, -0.133, -0.04, 0.189, 0.149, 1
3387419, -0.326, 1.027, -0.02, -0.02, 0.107, 0.158, 1
3387439, -0.368, 1.156, -0.004, 0.07, 0.074, 0.182, 1
3387459, -0.35, 1.095, -0.152, 0.142, 0.028, 0.196, 1
3387479, -0.484, 1.248, -0.366, 0.161, -0.021, 0.255, 1
3387499, -0.633, 1.625, -0.561, 0.141, -0.049, 0.318, 1
3387519, -0.415, 2.084, -0.893, 0.076, -0.189, 0.368, 1
3387539, -0.438, 2.377, -1.145, -0.091, -0.422, 0.469, 1
3387559, -0.686, 2.327, -1.01, -0.37, -0.529, 0.726, 1
3387579, -0.654, 2.242, -0.937, -0.356, -0.534, 0.915, 1
3387599, -0.437, 1.595, -0.835, -0.318, -0.601, 0.988, 1
3387619, 0.237, 1.099, 0.053, -0.414, -0.782, 1.001, 1
3387639, -0.259, 1.326, 0.826, -0.37, -1.109, 0.812, 1
3387659, -1.618, 0.964, 0.298, 0.302, -1.142, 1.189, 1
3387679, -1.826, -0.148, -0.283, 0.761, -0.833, 1.426, 1
3387699, -1.223, -0.974, -0.32, 0.981, -0.254, 1.574, 1
3387719, -0.571, -1.851, -0.141, 1.123, -0.042, 1.616, 1
3387739, -0.577, -3.094, -0.283, 1.249, -0.072, 1.513, 1
3387759, -0.361, -3.698, -0.113, 1.105, -0.124, 1.309, 1
3387779, -0.289, -4.298, 0.036, 0.784, -0.211, 1.16, 1
3387799, -1.069, -4.733, 0.085, 0.395, -0.145, 0.866, 1
3387819, -2.102, -5.07, -0.179, 0.061, 0.356, 0.678, 1
3387839, -1.717, -5.001, -0.001, -0.182, 1.007, 0.926, 1
3387859, -0.173, -5.199, 0.447, -0.426, 1.296, 1.021, 1
3387879, 0.386, -5.309, 0.793, -0.786, 1.117, 0.745, 1
3387899, 0.134, -4.59, 0.895, -1.027, 0.565, 0.569, 1
3387919, 0.055, -3.548, 1.178, -0.918, 0.03, 0.895, 1
3387939, 0.774, -3.835, 1.171, -0.734, -0.463, 1.074, 1
3387959, 0.666, -4.16, 0.538, -0.657, -0.767, 0.664, 1
3387979, 0.042, -3.745, -0.056, -0.624, -0.767, 0.218, 1
3387999, -0.532, -2.929, 0.2, -0.422, -0.492, 0.119, 1
3388019, 0.105, -2.21, 0.28, -0.081, -0.119, 0.104, 1
3388039, 0.184, -2.263, 0.017, -0.069, -0.132, -0.05, 1
3388059, -0.528, -1.909, 0.016, -0.67, -0.148, -0.069, 0
3388079, -1.032, -0.644, 0.346, -0.676, -0.116, -0.058, 0
3388099, -0.754, 0.033, 0.5, -0.285, -0.077, 0.055, 0
3388119, -0.713, -0.227, 0.391, -0.04, 0.17, 0.109, 0
3388139, -0.003, -0.697, -0.242, -0.043, 0.156, 0.126, 0
3388159, -0.225, -0.788, -0.918, -0.199, 0.117, 0.158, 0
3388179, -0.331, -0.64, -0.868, -0.303, 0.159, 0.089, 0
3388199, -0.224, -0.202, -0.525, -0.235, 0.182, 0.0, 0
3388219, -0.513, 0.125, -0.31, -0.023, 0.306, -0.005, 0
3388239, -0.151, -0.144, -0.416, 0.042, 0.312, 0.041, 0
3388259, 0.329, -0.621, -0.306, -0.027, 0.056, 0.081, 0
3388279, 0.328, -0.721, -0.315, -0.224, -0.112, 0.084, 0
3388299, 0.237, -0.354, -0.472, -0.293, -0.117, 0.07, 0
3388319, -0.268, -0.279, -0.404, -0.232, 0.017, 0.013, 0
3388339, -0.216, -0.178, -0.207, -0.143, 0.215, 0.011, 0
3388359, 0.164, -0.346, 0.117, -0.089, 0.204, -0.015, 0
3388379, 0.19, -0.309, 0.097, -0.125, 0.087, 0.023, 0
3388399, 0.152, -0.366, 0.0, -0.202, -0.017, 0.043, 0
3388419, -0.056, -0.387, -0.098, -0.191, -0.018, 0.003, 0
3388439, -0.279, -0.261, -0.02, -0.076, 0.072, 0.023, 0
3388459, -0.068, -0.601, -0.08, 0.018, 0.109, 0.044, 0
3388479, 0.247, -1.483, -0.591, -0.037, -0.021, 0.171, 0
3388499, 0.396, -2.773, -1.387, -0.264, -0.16, 0.161, 0
3388519, 0.029, -3.877, -1.73, -0.457, -0.081, 0.039, 0
3388539, -0.123, -4.477, -1.112, -0.23, 0.33, -0.144, 0
3388559, -0.281, -4.759, -0.036, -0.005, 0.275, 0.081, 0
3388579, -0.545, -6.302, -0.547, -0.159, -0.068, 0.087, 0
3388599, -1.515, -6.264, -0.172, -0.688, -0.202, -0.793, 0
3388619, -1.834, -3.981, 0.82, -0.695, 0.291, -1.391, 0
3388639, -1.237, -2.838, 1.241, -0.414, 0.751, -1.843, 0
3388659, -0.744, -3.284, 1.218, -0.394, 0.854, -2.075, 0
3388679, -0.165, -2.968, 1.685, -0.883, 0.714, -2.134, 0
3388699, -0.137, -1.3, 2.114, -1.236, 0.252, -2.209, 0
3388719, -0.264, 0.228, 1.206, -1.174, -0.034, -2.322, 0
3388739, -1.459, 1.622, 0.087, -0.833, 0.066, -2.393, 0
3388759, -2.522, 2.464, -0.494, -0.489, 0.462, -2.337, 0
3388779, -2.82, 2.999, -0.578, -0.351, 0.714, -2.092, 0
3388799, -2.138, 3.54, -0.315, -0.322, 0.951, -1.781, 0
3388819, -1.255, 4.014, 0.127, -0.428, 0.852, -1.627, 0
3388839, -3.107, 5.987, 0.514, -0.445, 0.502, -1.511, 0
3388859, -4.436, 7.561, 0.819, -0.222, 0.42, -1.211, 0
3388879, -4.839, 7.561, 0.722, 0.119, 0.447, -0.768, 0
3388899, -3.675, 5.28, 0.178, 0.334, 0.62, -0.304, 0
3388919, -1.858, 3.254, -0.127, 0.148, 0.52, 0.056, 0
3388939, -0.595, 2.229, -0.332, -0.131, 0.228, 0.26, 0
3388959, -0.534, 2.084, -0.23, -0.1, 0.047, 0.266, 0
3388979, -0.282, 1.425, 0.11, 0.157, 0.241, 0.241, 0
3388999, 0.051, 0.656, 0.373, 0.298, 0.334, 0.234, 0
3389019, 0.203, 0.036, 0.074, 0.207, 0.15, 0.218, 0
3389039, -0.029, 0.056, -0.327, -0.14, -0.103, 0.255, 0
3389059, -0.204, 0.075, -0.411, -0.054, 0.017, 0.226, 0
3389079, -0.247, -0.123, -0.224, 0.009, 0.181, 0.22, 0
3389099, 0.073, -0.28, 0.284, 0.061, 0.1, 0.206, 0
3389119, -0.207, -0.489, 0.151, 0.053, 0.116, 0.226, 1
3389139, -0.655, -0.589, -0.017, -0.054, 0.268, 0.29, 1
3389159, -0.115, -0.592, -0.397, -0.074, 0.361, 0.276, 1
3389179, 0.064, -0.379, -0.347, -0.009, 0.327, 0.217, 1
3389199, 0.134, -0.074, -0.193, 0.109, 0.227, 0.16, 1
3389219, -0.195, 0.004, -0.047, 0.111, 0.163, 0.131, 1
3389239, -0.372, 0.109, 0.2, 0.065, 0.137, 0.163, 1
3389259, -0.13, 0.022, 0.377, 0.065, 0.04, 0.161, 1
3389279, -0.026, 0.013, 0.374, 0.102, -0.095, 0.15, 1
3389299, -0.117, 0.064, 0.139, 0.145, -0.142, 0.143, 1
3389319, -0.097, 0.173, -0.147, 0.175, -0.136, 0.155, 1
3389339, -0.116, 0.347, -0.262, 0.2, -0.117, 0.164, 1
3389359, -0.286, 0.5, -0.415, 0.209, -0.054, 0.194, 1
3389379, -0.339, 0.844, -0.807, 0.164, -0.1, 0.234, 1
3389399, -0.821, 1.528, -1.428, 0.016, -0.154, 0.339, 1
3389419, -1.157, 2.107, -1.37, -0.177, -0.108, 0.526, 1
3389439, -1.104, 2.472, -0.985, -0.256, -0.069, 0.699, 1
3389459, -0.706, 2.595, -0.767, -0.233, -0.163, 0.803, 1
3389479, -0.147, 2.839, -0.685, -0.209, -0.433, 0.856, 1
3389499, -0.366, 2.847, -0.845, -0.164, -0.616, 0.943, 1
3389519, -0.834, 2.861, -0.803, -0.208, -0.515, 1.23, 1
3389539, 0.263, 1.921, 0.761, -0.304, -0.595, 1.311, 1
3389559, 0.376, 1.876, 1.667, -0.133, -0.94, 1.193, 1
3389579, -0.579, 1.407, 1.487, 0.578, -1.04, 1.177, 1
3389599, -1.215, -0.408, 0.658, 1.27, -0.809, 1.371, 1
3389619, -1.504, -2.192, -0.317, 1.351, -0.437, 1.616, 1
3389639, -1.429, -3.721, -0.674, 0.767, -0.354, 1.857, 1
3389659, -1.349, -5.108, -0.418, 0.048, -0.37, 2.069, 1
3389679, -1.481, -5.452, -0.205, -0.435, -0.332, 2.064, 1
3389699, -1.767, -5.615, -0.134, -0.25, -0.011, 1.926, 1
3389719, -1.587, -6.057, 0.301, 0.161, 0.291, 1.646, 1
3389739, -1.449, -6.868, 0.349, 0.379, 0.342, 1.375, 1
3389759, -1.092, -7.084, -0.064, 0.039, 0.346, 1.175, 1
3389779, -0.21, -6.451, -0.153, -0.348, 0.303, 0.996, 1
3389799, 0.201, -6.133, -0.047, -0.458, -0.053, 0.766, 1
3389819, 0.122, -5.317, -0.104, -0.375, -0.412, 0.495, 1
3389839, -0.035, -4.528, -0.459, -0.063, -0.42, 0.279, 1
3389859, 0.235, -4.498, -0.841, 0.122, -0.244, -0.007, 1
3389879, 0.117, -3.068, -0.765, -0.006, -0.128, -0.374, 1
3389899, -0.366, -2.488, -1.104, -0.135, -0.177, -0.49, 1
3389919, -0.686, -1.952, -0.831, -0.34, -0.473, -0.037, 0
3389939, -0.633, -0.888, 0.2, -0.444, -0.698, 0.624, 0
3389959, -0.451, -0.845, 0.675, -0.313, -0.447, 0.665, 0
3389979, -0.591, -0.574, 0.579, -0.015, 0.038, 0.295, 0
3389999, 0.017, -0.693, 0.359, 0.35, 0.406, 0.007, 0
3390019, -0.113, -0.946, -0.072, 0.204, 0.342, -0.04, 0
3390039, -0.007, -1.0, -0.136, -0.072, 0.147, 0.014, 0
3390059, -0.236, -0.675, 0.06, -0.218, 0.052, 0.02, 0
3390079, -0.501, -0.624, 0.071, -0.155, 0.198, -0.005, 0
3390099, -0.442, -0.547, -0.258, -0.045, 0.369, -0.073, 0
3390119, -0.473, -0.561, -0.529, -0.013, 0.427, -0.085, 0
3390139, -0.249, -0.627, -0.438, -0.072, 0.317, -0.015, 0
3390159, -0.107, -0.706, -0.309, -0.191, 0.114, 0.109, 0
3390179, 0.0, -0.531, -0.083, -0.253, -0.087, 0.157, 0
3390199, -0.358, -0.354, -0.105, -0.252, -0.024, 0.101, 0
3390219, -0.272, -0.176, -0.087, -0.1, 0.087, 0.007, 0
3390239, -0.416, -0.37, -0.292, -0.035, 0.304, -0.007, 0
3390259, -0.031, -0.506, -0.455, 0.014, 0.35, 0.055, 0
3390279, 0.373, -1.008, -0.424, -0.076, 0.131, 0.033, 0
3390299, 0.246, -1.348, -0.689, -0.27, -0.028, 0.132, 0
3390319, 0.263, -1.665, -0.719, -0.408, -0.149, 0.127, 0
3390339, 0.166, -2.097, -0.7, -0.343, -0.187, 0.097, 0
3390359, -0.142, -2.969, -0.779, -0.282, -0.006, 0.067, 0
3390379, -0.279, -3.642, -0.789, -0.258, 0.076, 0.176, 0
3390399, -0.158, -4.704, -0.867, -0.43, -0.005, 0.11, 0
3390419, -0.809, -4.778, -1.23, -0.696, 0.078, -0.125, 0
3390439, -1.668, -4.389, -1.18, -0.828, 0.357, -0.4, 0
3390459, -1.448, -5.504, -0.876, -1.045, 0.577, -0.691, 0
3390479, -1.993, -5.999, -0.065, -1.21, 0.771, -1.219, 0
3390499, -1.49, -4.492, 1.299, -1.108, 0.824, -1.684, 0
3390519, 0.355, -2.16, 2.742, -1.01, 0.555, -1.866, 0
3390539, -0.689, -2.012, 1.655, -0.924, 0.161, -1.988, 0
3390559, -1.84, -0.439, 0.937, -0.743, 0.233, -2.033, 0
3390579, -0.816, 0.614, 0.863, -0.409, 0.648, -1.93, 0
3390599, 0.67, 1.089, 0.63, -0.202, 0.825, -1.886, 0
3390619, 0.728, 1.427, 0.113, -0.106, 0.615, -1.917, 0
3390639, -0.471, 2.765, -0.253, -0.018, 0.483, -1.875, 0
3390659, -1.431, 3.556, -0.476, 0.317, 0.687, -1.752, 0
3390679, -0.999, 3.523, -0.536, 0.587, 0.823, -1.556, 0
3390699, -1.467, 3.675, -0.517, 0.566, 0.582, -1.417, 0
3390719, -2.679, 5.209, -0.089, 0.263, 0.408, -1.208, 0
3390739, -3.219, 6.673, 0.499, 0.124, 0.426, -0.934, 0
3390759, -3.653, 7.043, 0.672, 0.27, 0.407, -0.665, 0
3390779, -3.098, 5.78, 0.248, 0.335, 0.332, -0.351, 0
3390799, -1.875, 3.89, -0.374, 0.153, 0.149, -0.079, 0
3390819, -1.56, 3.227, -0.424, -0.113, -0.006, 0.133, 0
3390839, -0.994, 2.509, -0.045, -0.134, 0.008, 0.287, 0
3390859, -0.444, 1.187, 0.1, -0.047, -0.023, 0.364, 0
3390879, 0.134, -0.025, 0.345, -0.028, 0.001, 0.421, 0
3390899, 0.377, -0.802, 0.291, -0.136, -0.058, 0.441, 0
3390919, 0.363, -1.481, -0.334, -0.026, -0.026, 0.351, 0
3390939, 0.592, -1.753, -0.638, 0.117, 0.18, 0.206, 0
3390959, 0.241, -1.039, -0.442, 0.149, 0.199, 0.081, 0
3390979, -0.24, -0.353, -0.215, 0.153, 0.317, 0.06, 1
3390999, -0.571, -0.214, -0.189, 0.083, 0.329, 0.116, 1
3391019, -0.873, -0.127, -0.474, -0.002, 0.505, 0.191, 1
3391039, -0.169, 0.728, 0.008, 0.144, 0.538, 0.195, 1
3391059, 0.007, -0.08, -0.064, 0.19, 0.225, 0.162, 1
3391079, 0.353, -0.686, -0.292, 0.179, 0.019, 0.088, 1
3391099, 0.238, -0.683, -0.43, 0.023, -0.106, 0.048, 1
3391119, -0.114, -0.388, -0.557, -0.059, -0.05, 0.056, 1
3391139, -0.149, -0.351, -0.55, -0.102, 0.058, 0.059, 1
3391159, 0.069, -0.348, -0.342, -0.077, 0.089, 0.042, 1
3391179, 0.183, -0.345, -0.253, -0.043, 0.019, -0.015, 1
3391199, 0.067, -0.11, -0.384, -0.043, -0.055, -0.058, 1
3391219, -0.244, 0.172, -0.467, -0.077, -0.062, -0.056, 1
3391239, -0.431, 0.542, -0.534, -0.075, -0.023, -0.034, 1
3391259, -0.585, 0.956, -0.711, -0.064, -0.072, -0.012, 1
3391279, -0.862, 1.371, -1.036, -0.126, -0.1, 0.037, 1
3391299, -1.105, 2.206, -0.983, -0.216, -0.084, 0.13, 1
3391319, -1.181, 3.264, -0.777, -0.233, -0.102, 0.258, 1
3391339, -1.305, 3.729, -0.789, -0.375, -0.192, 0.461, 1
3391359, -1.176, 4.038, -0.555, -0.64, -0.351, 0.703, 1
3391379, -0.866, 4.213, -0.064, -0.844, -0.616, 0.942, 1
3391399, -0.65, 4.23, 0.248, -0.751, -0.855, 1.098, 1
3391419, -0.726, 3.939, 0.367, -0.306, -0.733, 1.141, 1
3391439, -0.536, 3.114, 0.503, 0.201, -0.615, 1.192, 1
3391459, -0.239, 1.871, 0.66, 0.295, -0.711, 1.411, 1
3391479, 0.385, 0.932, 1.164, -0.086, -1.314, 1.517, 1
3391499, -0.251, 0.077, 1.058, 0.117, -1.517, 1.407, 1
3391519, -1.461, -0.578, 1.05, 0.668, -1.056, 1.081, 1
3391539, -2.615, -1.78, 0.72, 1.083, -0.308, 1.04, 1
3391559, -2.621, -3.224, 0.244, 0.963, 0.321, 1.191, 1
3391579, -1.944, -4.54, -0.243, 0.547, 0.792, 1.344, 1
3391599, -1.177, -5.841, -0.534, 0.286, 1.122, 1.394, 1
3391619, -0.58, -6.52, -0.426, 0.034, 1.022, 1.345, 1
3391639, -0.622, -6.349, -0.083, -0.259, 0.604, 1.18, 1
3391659, -1.106, -5.903, 0.208, -0.373, 0.334, 1.225, 1
3391679, -0.103, -5.935, 0.432, -0.376, 0.282, 1.345, 1
3391699, 1.107, -5.873, 0.559, -0.335, 0.023, 1.131, 1
3391719, 1.459, -4.983, 0.525, -0.249, -0.528, 0.642, 1
3391739, 0.795, -4.328, -0.747, -0.106, -0.954, 0.274, 1
3391759, 0.167, -4.028, -2.054, -0.163, -1.061, 0.091, 1
3391779, -0.723, -3.145, -2.174, -0.429, -0.864, 0.0, 1
3391799, -1.219, -2.116, -1.148, -0.447, -0.29, 0.169, 1
3391819, -0.496, -1.759, 0.053, -0.209, 0.342, 0.233, 1
3391839, 0.394, -1.416, 0.474, 0.017, 0.429, 0.033, 1
3391859, -0.075, -1.152, -0.008, -0.002, -0.011, -0.167, 1
3391879, -1.027, -0.902, -0.432, -0.232, -0.285, -0.089, 1
3391899, -0.992, -0.548, -0.212, -0.37, -0.127, 0.062, 1
3391919, -0.65, -0.364, 0.11, -0.142, 0.11, 0.037, 1
3391939, -0.303, -0.329, 0.686, 0.14, 0.296, -0.014, 0
3391959, 0.398, -0.551, 0.617, 0.155, 0.185, -0.018, 0
3391979, 0.61, -0.653, -0.558, -0.211, -0.362, 0.228, 0
3391999, -0.36, -0.496, -1.167, -0.626, -0.513, 0.397, 0
3392019, -0.983, 0.176, -0.78, -0.6, 0.023, 0.442, 0
3392039, -0.515, -0.091, -0.38, -0.313, 0.616, 0.456, 0
3392059, 0.551, -0.845, -0.166, -0.193, 0.587, 0.243, 0
3392079, 0.942, -0.946, -0.015, -0.188, 0.226, -0.058, 0
3392099, 0.275, -0.67, -0.365, -0.253, 0.051, -0.136, 0
3392119, -0.421, -0.213, -0.711, -0.271, 0.147, -0.086, 0
3392139, -0.585, 0.01, -0.577, -0.167, 0.34, -0.047, 0
3392159, -0.142, -0.072, -0.101, -0.022, 0.364, -0.008, 0
3392179, 0.276, -0.417, 0.288, 0.031, 0.18, -0.025, 0
3392199, 0.219, -0.584, 0.087, -0.021, 0.006, -0.056, 0
3392219, 0.034, -0.564, -0.3, -0.139, -0.066, -0.092, 0
3392239, -0.333, -0.517, -0.701, -0.197, -0.009, -0.093, 0
3392259, -0.024, -0.69, -0.835, -0.13, 0.029, 0.023, 0
3392279, 0.152, -0.917, -0.812, -0.098, 0.023, 0.051, 0
3392299, 0.184, -1.061, -0.818, -0.129, -0.025, -0.079, 0
3392319, -0.112, -1.496, -1.1, -0.167, 0.042, -0.083, 0
3392339, 0.176, -2.524, -1.255, -0.18, 0.043, 0.156, 0
3392359, 0.317, -3.938, -0.872, -0.242, 0.039, 0.13, 0
3392379, 0.207, -5.0, -0.556, -0.185, 0.202, -0.11, 0
3392399, 0.138, -5.316, -0.495, -0.029, 0.244, -0.278, 0
3392419, -0.21, -6.152, -0.71, -0.115, 0.059, -0.591, 0
3392439, -0.734, -6.509, -0.269, -0.512, -0.108, -1.088, 0
3392459, -1.528, -5.662, 0.285, -0.921, -0.112, -1.266, 0
3392479, -0.944, -4.759, 0.956, -1.011, 0.226, -1.613, 0
3392499, 0.24, -3.119, 1.695, -0.977, 0.194, -2.007, 0
3392519, -0.194, -2.91, 1.088, -0.977, -0.038, -2.191, 0
3392539, -2.065, -0.291, 0.549, -1.08, 0.028, -2.279, 0
3392559, -2.4, 2.568, 0.906, -0.886, 0.331, -2.155, 0
3392579, -2.268, 4.684, 1.325, -0.643, 0.627, -1.981, 0
3392599, -2.565, 5.22, 1.123, -0.288, 0.974, -1.843, 0
3392619, -2.501, 5.549, 1.346, -0.061, 1.268, -1.644, 0
3392639, -3.461, 6.676, 1.797, 0.098, 1.051, -1.321, 0
3392659, -3.426, 6.754, 1.653, 0.208, 0.912, -0.899, 0
3392679, -2.663, 6.223, 1.705, 0.32, 0.927, -0.549, 0
3392699, -1.798, 5.272, 1.186, 0.353, 0.865, -0.38, 0
3392719, -1.227, 4.568, 0.277, 0.381, 0.636, -0.273, 0
3392739, -0.822, 3.451, -0.858, 0.283, 0.411, -0.144, 0
3392759, -0.483, 2.143, -1.802, 0.056, 0.21, -0.043, 0
3392779, -0.742, 1.74, -1.771, -0.17, 0.226, 0.014, 0
3392799, -0.737, 1.72, -0.793, -0.151, 0.396, 0.032, 0
3392819, -0.475, 1.211, 0.009, -0.023, 0.445, 0.042, 0
3392839, -0.492, 0.888, 0.384, 0.012, 0.336, 0.07, 0
3392859, -0.53, 0.465, 0.199, 0.021, 0.161, 0.082, 0
3392879, -0.35, 0.154, -0.068, -0.043, 0.057, 0.146, 0
3392899, -0.139, -0.269, -0.407, -0.095, -0.078, 0.149, 0
3392919, -0.078, -0.818, -0.965, -0.143, -0.037, 0.165, 0
3392939, 0.087, -0.74, -0.959, -0.196, 0.116, 0.133, 0
3392959, -0.176, -0.508, -0.807, -0.189, 0.241, 0.124, 0
3392979, -0.359, -0.54, -0.831, -0.263, 0.538, 0.172, 1
3392999, -0.054, -0.514, -0.487, -0.306, 0.568, 0.164, 1
3393019, 0.002, -0.589, -0.286, -0.274, 0.362, 0.133, 1
3393039, 0.09, -0.017, 0.298, -0.175, 0.021, 0.094, 1
3393059, -0.315, -0.008, 0.289, -0.111, -0.042, 0.103, 1
3393079, -0.194, -0.189, 0.232, -0.081, -0.007, 0.105, 1
3393099, 0.092, -0.375, 0.173, -0.058, -0.05, 0.087, 1
3393119, 0.065, -0.551, -0.176, -0.087, -0.1, 0.06, 1
3393139, -0.07, -0.378, -0.449, -0.135, -0.012, 0.053, 1
3393159, 0.075, -0.198, -0.452, -0.147, 0.012, 0.042, 1
3393179, 0.028, -0.096, -0.375, -0.104, -0.007, 0.008, 1
3393199, -0.094, 0.091, -0.337, -0.099, 0.006, -0.009, 1
3393219, -0.198, 0.475, -0.308, -0.048, -0.019, -0.013, 1
3393239, -0.493, 0.845, -0.415, -0.048, -0.014, 0.017, 1
3393259, -0.773, 1.606, -0.614, -0.097, -0.047, 0.086, 1
3393279, -1.31, 2.607, -0.373, -0.097, -0.025, 0.219, 1
3393299, -1.528, 3.294, 0.142, -0.059, 0.033, 0.375, 1
3393319, -1.415, 3.989, 0.487, 0.072, -0.118, 0.502, 1
3393339, -1.741, 4.337, 0.241, 0.13, -0.317, 0.686, 1
3393359, -1.616, 4.07, 0.088, -0.026, -0.472, 0.941, 1
3393379, -1.171, 3.669, 0.433, -0.262, -0.655, 1.176, 1
3393399, -0.77, 3.065, 0.915, -0.232, -0.74, 1.28, 1
3393419, -0.453, 2.667, 1.488, 0.467, -0.699, 1.075, 1
3393439, -0.429, 2.121, 1.476, 0.995, -0.788, 0.915, 1
3393459, -1.191, -0.066, 0.372, 1.038, -0.904, 1.153, 1
3393479, -1.369, -0.975, -0.358, 0.575, -0.709, 1.527, 1
3393499, -0.878, -1.393, -0.218, -0.006, -0.433, 1.734, 1
3393519, -0.536, -1.781, -0.189, -0.087, -0.361, 1.77, 1
3393539, -0.652, -2.578, -0.168, 0.226, -0.257, 1.626, 1
3393559, -1.136, -3.629, -0.57, 0.544, -0.12, 1.505, 1
3393579, -1.173, -4.155, -1.096, 0.465, -0.087, 1.532, 1
3393599, -1.127, -4.583, -1.244, -0.036, -0.172, 1.656, 1
3393619, -1.367, -5.339, -1.333, -0.695, -0.418, 1.72, 1
3393639, -1.886, -4.737, -1.041, -1.001, -0.566, 1.719, 1
3393659, -1.775, -4.208, -0.415, -0.66, -0.291, 1.781, 1
3393679, -0.989, -4.708, 0.323, 0.026, 0.143, 1.781, 1
3393699, 0.908, -5.445, 0.401, 0.612, 0.291, 1.577, 1
3393719, 1.541, -6.16, -0.74, 0.714, -0.095, 1.059, 1
3393739, 0.894, -5.445, -1.531, 0.281, -0.315, 0.523, 1
3393759, 0.787, -4.206, -1.213, -0.163, -0.106, 0.3, 1
3393779, 0.731, -2.896, -0.287, -0.202, 0.083, 0.062, 1
3393799, 0.417, -1.695, 0.543, 0.035, 0.116, -0.212, 1
3393819, 0.33, -1.146, 0.69, 0.206, -0.135, -0.298, 0
3393839, -0.422, -1.019, -0.13, 0.043, -0.569, -0.184, 0
3393859, -1.126, -0.755, -0.745, -0.309, -0.576, 0.026, 0
3393879, -0.761, -0.121, -0.655, -0.361, -0.129, 0.163, 0
3393899, -0.002, -0.445, -0.571, -0.224, 0.296, 0.2, 0
3393919, 0.626, -0.571, -0.586, -0.191, 0.386, -0.013, 0
3393939, 0.551, -0.558, -0.878, -0.257, 0.152, -0.164, 0
3393959, -0.41, -0.047, -0.852, -0.299, 0.196, -0.069, 0
3393979, -0.349, 0.21, -0.211, -0.179, 0.345, 0.01, 0
3393999, 0.041, -0.165, -0.078, -0.067, 0.353, -0.021, 0
3394019, 0.307, -0.606, -0.202, -0.088, 0.253, -0.145, 0
3394039, 0.177, -0.622, -0.307, -0.163, 0.064, -0.251, 0
3394059, -0.264, -0.44, -0.423, -0.253, -0.018, -0.243, 0
3394079, -0.727, -0.026, -0.29, -0.282, 0.069, -0.13, 0
3394099, -0.761, 0.173, 0.038, -0.169, 0.208, -0.017, 0
3394119, -0.241, -0.074, 0.156, -0.021, 0.258, 0.019, 0
3394139, 0.248, -0.586, 0.035, 0.029, 0.137, -0.065, 0
3394159, 0.152, -0.929, -0.411, -0.044, -0.015, -0.091, 0
3394179, -0.014, -1.264, -0.889, -0.204, -0.142, 0.037, 0
3394199, -0.141, -1.881, -1.066, -0.342, -0.183, 0.237, 0
3394219, -0.075, -2.892, -1.076, -0.394, 0.014, 0.186, 0
3394239, 0.249, -3.648, -0.799, -0.238, 0.208, 0.036, 0
3394259, 0.157, -4.301, -0.61, -0.156, 0.047, 0.141, 0
3394279, -0.532, -4.853, -0.689, -0.384, -0.249, 0.175, 0
3394299, -1.568, -5.133, -0.605, -0.675, -0.16, 0.018, 0
3394319, -1.608, -4.696, 0.549, -0.579, 0.25, -0.44, 0
3394339, -0.323, -4.288, 1.505, -0.11, 0.405, -1.384, 0
3394359, -0.402, -4.382, 1.316, 0.332, 0.572, -1.849, 0
3394379, -0.036, -4.755, 0.8, 0.231, 0.501, -2.138, 0
3394399, 0.245, -4.47, 0.592, -0.598, 0.211, -2.372, 0
3394419, -1.421, -0.627, -0.287, -0.974, -0.075, -2.356, 0
3394439, -1.665, 1.313, -0.134, -0.907, 0.175, -2.288, 0
3394459, -2.415, 2.806, 0.205, -0.567, 0.532, -2.182, 0
3394479, -2.279, 3.466, 0.282, -0.278, 0.744, -2.022, 0
3394499, -2.72, 4.818, 0.251, -0.196, 0.659, -1.825, 0
3394519, -2.693, 5.511, 0.27, -0.098, 0.686, -1.505, 0
3394539, -2.7, 6.273, 0.752, 0.009, 0.615, -1.221, 0
3394559, -3.093, 6.808, 0.865, 0.185, 0.552, -0.912, 0
3394579, -2.463, 6.187, 0.314, 0.364, 0.591, -0.577, 0
3394599, -1.989, 5.182, -0.276, 0.317, 0.403, -0.326, 0
3394619, -1.148, 3.81, -0.626, 0.116, 0.237, -0.077, 0
3394639, -0.547, 2.22, -0.806, -0.136, 0.078, 0.062, 0
3394659, -0.433, 1.522, -0.982, -0.244, 0.127, 0.113, 0
3394679, 0.17, 0.353, -1.111, -0.182, 0.434, 0.135, 0
3394699, 0.667, 0.007, -0.333, -0.121, 0.571, 0.056, 0
3394719, 0.316, -0.156, 0.23, -0.151, 0.365, -0.029, 0
3394739, -0.444, 0.457, 0.485, -0.286, 0.148, -0.023, 0
3394759, -1.142, 1.066, 0.799, -0.257, 0.159, 0.031, 0
3394779, -0.726, 0.495, 0.92, -0.119, 0.276, 0.114, 0
3394799, -0.2, -0.229, 0.758, -0.06, 0.198, 0.158, 0
3394819, -0.128, -0.682, 0.298, -0.1, 0.05, 0.178, 0
3394839, 0.073, -0.805, 0.102, -0.075, 0.039, 0.166, 0
3394859, 0.025, -0.811, -0.051, 0.023, 0.1, 0.119, 0
3394879, 0.047, -0.475, -0.022, 0.088, 0.259, 0.062, 1
3394899, -0.103, 0.036, 0.103, 0.244, 0.421, 0.075, 1
3394919, -0.582, -0.002, -0.112, 0.343, 0.511, 0.145, 1
3394939, 0.025, -0.151, 0.102, 0.312, 0.29, 0.085, 1
3394959, 0.223, -0.284, 0.094, 0.306, 0.013, 0.004, 1
3394979, -0.076, -0.064, -0.041, 0.278, -0.09, -0.029, 1
3394999, -0.429, 0.2, -0.335, 0.249, 0.075, -0.013, 1
3395019, -0.325, 0.314, -0.49, 0.192, 0.198, 0.017, 1
3395039, -0.327, 0.437, -0.541, 0.102, 0.184, 0.082, 1
3395059, -0.344, 0.786, -0.557, 0.015, 0.07, 0.11, 1
3395079, -0.69, 1.524, -0.619, 0.045, -0.022, 0.147, 1
3395099, -1.14, 2.061, -0.866, 0.092, -0.02, 0.233, 1
3395119, -1.529, 2.442, -0.801, 0.069, 0.047, 0.39, 1
3395139, -1.111, 2.664, -0.68, -0.023, -0.096, 0.53, 1
3395159, -0.607, 2.945, -0.963, -0.219, -0.476, 0.67, 1
3395179, -1.221, 2.965, -1.086, -0.49, -0.666, 0.912, 1
3395199, -1.732, 2.696, -0.484, -0.649, -0.554, 1.15, 1
3395219, -1.353, 2.336, 0.043, -0.6, -0.368, 1.322, 1
3395239, -0.587, 1.987, 0.497, -0.091, -0.095, 1.364, 1
3395259, -0.366, 1.066, 0.641, 0.563, 0.169, 1.409, 1
3395279, 0.674, -0.474, 0.381, 0.696, -0.105, 1.364, 1
3395299, 0.932, -1.129, -0.02, 0.245, -0.856, 1.346, 1
3395319, 0.65, -0.827, -0.192, -0.299, -1.373, 1.392, 1
3395339, -0.33, -0.602, -0.443, -0.152, -1.161, 1.337, 1
3395359, -1.053, -1.39, -0.821, 0.343, -0.44, 1.183, 1
3395379, -1.131, -2.064, -0.448, 0.65, 0.012, 1.088, 1
3395399, -1.008, -3.741, 0.326, 0.373, -0.165, 1.081, 1
3395419, -1.375, -4.443, 0.589, -0.042, -0.29, 1.022, 1
3395439, -1.456, -4.111, 0.905, -0.265, -0.068, 0.958, 1
3395459, -1.112, -4.168, 0.715, -0.109, 0.244, 0.899, 1
3395479, -1.192, -4.687, 0.118, 0.232, 0.24, 1.002, 1
3395499, -0.918, -5.376, -0.426, 0.407, -0.044, 1.236, 1
3395519, -0.197, -5.546, -0.594, 0.15, -0.258, 1.282, 1
3395539, 0.132, -5.388, -0.798, -0.271, -0.318, 1.111, 1
3395559, 0.379, -4.409, -0.997, -0.597, -0.305, 0.918, 1
3395579, -0.027, -3.525, -1.178, -0.632, -0.224, 0.709, 1
3395599, -0.521, -2.988, -0.984, -0.549, 0.034, 0.632, 1
3395619, -0.388, -2.308, -0.476, -0.528, 0.486, 0.504, 1
3395639, 0.003, -2.227, -0.116, -0.442, 0.703, 0.325, 1
3395659, 0.538, -1.973, -0.257, -0.379, 0.54, 0.087, 1
3395679, -0.031, -1.422, 0.507, -0.343, 0.205, -0.031, 1
3395699, -0.641, -0.887, 0.48, -0.283, -0.046, -0.014, 1
3395719, -0.568, -0.452, 0.314, -0.296, -0.087, 0.015, 1
3395739, -0.078, -0.384, 0.233, -0.02, -0.18, -0.121, 1
3395759, -0.258, -0.709, 0.028, 0.333, -0.359, -0.282, 0
3395779, -0.506, -1.006, -0.935, 0.279, -0.394, -0.098, 0
3395799, -0.458, -0.658, -0.896, -0.232, -0.365, 0.31, 0
3395819, 0.044, -0.267, -0.281, -0.519, -0.317, 0.294, 0
3395839, 0.018, -0.079, -0.081, -0.372, -0.259, 0.105, 0
3395859, -0.398, -0.184, -0.338, -0.106, -0.012, -0.043, 0
3395879, -0.136, -0.364, -0.508, -0.004, 0.359, -0.047, 0
3395899, -0.074, -0.755, -0.789, -0.29, 0.328, -0.019, 0
3395919, -0.185, -0.235, -0.446, -0.423, 0.319, -0.078, 0
3395939, -0.342, 0.137, -0.099, -0.309, 0.423, -0.08, 0
3395959, -0.122, -0.072, 0.127, -0.165, 0.474, -0.091, 0
3395979, 0.04, -0.132, 0.17, -0.018, 0.376, -0.028, 0
3395999, 0.403, -0.401, 0.114, -0.036, 0.164, -0.097, 0
3396019, 0.145, -0.338, -0.06, -0.131, 0.01, -0.136, 0
3396039, -0.147, -0.367, -0.411, -0.203, 0.003, -0.144, 0
3396059, -0.438, -0.352, -0.823, -0.178, 0.128, 0.106, 0
3396079, 0.064, -1.118, -0.87, -0.156, 0.145, 0.293, 0
3396099, 0.658, -2.018, -0.849, -0.215, -0.06, 0.194, 0
3396119, 0.719, -3.145, -1.281, -0.376, -0.192, -0.012, 0
3396139, 0.017, -4.03, -1.674, -0.497, -0.119, -0.018, 0
3396159, -0.282, -4.05, -1.36, -0.434, 0.054, 0.065, 0
3396179, 0.16, -4.502, -1.134, -0.28, 0.174, -0.043, 0
3396199, -0.195, -5.007, -0.878, -0.194, 0.092, -0.434, 0
3396219, -0.822, -6.038, -0.8, -0.404, -0.114, -1.097, 0
3396239, -2.921, -4.922, -0.398, -0.37, 0.183, -1.553, 0
3396259, -2.877, -3.802, 0.426, -0.072, 0.751, -1.849, 0
3396279, -2.381, -3.151, 1.102, -0.002, 0.897, -2.051, 0
3396299, -1.415, -1.906, 1.875, -0.167, 0.648, -2.171, 0
3396319, -1.693, -0.701, 2.03, -0.37, 0.493, -2.106, 0
3396339, -1.613, 0.666, 2.163, -0.318, 0.507, -1.932, 0
3396359, -0.793, 2.172, 2.245, 0.068, 0.599, -1.781, 0
3396379, -0.404, 3.744, 1.64, 0.099, 0.477, -1.58, 0
3396399, -0.804, 3.616, 0.809, -0.012, 0.292, -1.368, 0
3396419, -0.984, 4.814, 0.603, -0.23, 0.215, -1.146, 0
3396439, -1.356, 6.026, 0.739, -0.342, 0.141, -0.928, 0
3396459, -1.719, 5.955, 0.171, 0.008, 0.313, -0.689, 0
3396479, -1.625, 5.24, -0.546, 0.529, 0.533, -0.573, 0
3396499, -1.443, 3.507, -1.852, 0.599, 0.575, -0.418, 0
3396519, -0.168, 2.787, -1.735, 0.294, 0.615, -0.257, 0
3396539, -0.422, 2.334, -1.393, -0.006, 0.351, -0.218, 0
3396559, -0.695, 1.901, -1.192, -0.178, 0.315, -0.142, 0
3396579, -0.792, 1.723, -0.844, -0.138, 0.383, -0.078, 0
3396599, -0.456, 1.071, -0.535, 0.05, 0.502, -0.026, 0
3396619, -0.157, 0.269, -0.294, 0.023, 0.448, 0.006, 0
3396639, -0.243, -0.174, -0.341, -0.106, 0.318, 0.032, 0
