timestamp, accX, accY, accZ, gyroX, gyroY, gyroZ, button
2506158, -0.001, -0.055, -0.019, -0.103, 0.056, 0.081, 1
2506178, -0.004, -0.045, -0.025, -0.077, 0.032, 0.075, 1
2506198, 0.007, -0.019, -0.026, -0.042, 0.025, 0.078, 1
2506218, -0.005, -0.082, -0.053, -0.033, 0.021, 0.076, 1
2506238, 0.057, -0.094, -0.004, -0.051, 0.01, 0.059, 1
2506258, 0.147, -0.019, 0.176, -0.01, -0.017, 0.042, 1
2506278, 0.003, -0.102, 0.155, 0.024, -0.095, 0.05, 1
2506298, -0.126, -0.194, 0.186, -0.02, -0.116, 0.065, 1
2506318, -0.047, -0.058, -0.021, -0.144, -0.144, 0.154, 1
2506338, 0.083, -0.168, -0.327, -0.346, -0.226, 0.172, 1
2506358, -0.244, 0.218, -0.208, -0.402, -0.24, 0.123, 1
2506378, -0.494, 0.178, -0.135, -0.23, -0.04, 0.139, 1
2506398, -0.12, -0.172, -0.16, -0.094, 0.208, 0.202, 1
2506418, 0.212, -0.463, -0.386, -0.176, 0.232, 0.209, 1
2506438, -0.009, -0.188, -0.523, -0.351, 0.107, 0.147, 1
2506458, -0.193, -0.067, -0.478, -0.409, 0.14, 0.148, 1
2506478, -0.055, -0.181, -0.2, -0.403, 0.246, 0.188, 1
2506498, 0.042, -0.236, -0.065, -0.405, 0.247, 0.189, 1
2506518, 0.025, -0.177, -0.05, -0.386, 0.178, 0.145, 1
2506538, -0.044, -0.192, -0.118, -0.34, 0.136, 0.093, 1
2506558, -0.164, 0.178, 0.132, -0.256, 0.163, 0.101, 1
2506578, 0.036, 0.203, 0.264, 0.139, 0.343, 0.128, 1
2506598, 0.267, -0.105, 0.353, 0.287, 0.294, 0.115, 1
2506618, 0.503, -0.301, 0.55, 0.34, 0.101, 0.073, 1
2506638, 0.6, -0.874, 0.239, 0.14, -0.157, 0.019, 1
2506658, 0.179, -0.685, 0.363, -0.11, -0.283, 0.024, 1
2506678, 0.066, -0.415, 0.285, -0.276, -0.236, 0.136, 1
2506698, 0.066, -0.423, -0.065, -0.407, -0.144, 0.131, 1
2506718, -0.015, -0.256, -0.053, -0.463, -0.02, 0.093, 1
2506738, -0.047, -0.052, 0.073, -0.371, 0.15, 0.09, 1
2506758, 0.023, 0.103, 0.263, -0.169, 0.28, 0.113, 1
2506778, 0.283, 0.05, 0.335, 0.002, 0.243, 0.105, 1
2506798, 0.317, -0.081, 0.245, 0.08, 0.065, 0.047, 1
2506818, 0.168, 0.15, 0.299, 0.223, -0.045, 0.023, 1
2506838, 0.021, 0.297, 0.425, 0.5, -0.059, 0.02, 1
2506858, -0.053, -0.404, 0.315, 0.582, -0.095, 0.039, 1
2506878, 0.131, -0.761, -0.371, 0.116, -0.269, -0.035, 1
2506898, -0.147, -0.596, -0.269, -0.273, -0.303, 0.095, 1
2506918, -0.093, -0.22, -0.465, -0.553, -0.252, 0.178, 1
2506938, -0.36, 0.125, -0.871, -0.706, -0.108, 0.138, 1
2506958, -0.474, 0.516, -0.466, -0.445, 0.219, 0.195, 1
2506978, 0.039, 0.524, 0.05, 0.028, 0.431, 0.277, 1
2506998, 0.428, 0.267, 0.404, 0.422, 0.367, 0.241, 1
2507018, 0.515, -0.302, 0.437, 0.563, 0.126, 0.139, 1
2507038, 0.864, -0.948, -0.575, 0.154, -0.37, -0.084, 1
2507058, -0.03, -0.508, -0.32, -0.128, -0.464, -0.017, 1
2507078, -0.035, -0.108, 0.0, -0.247, -0.01, 0.175, 1
2507098, 0.024, -0.08, 0.207, -0.353, -0.014, 0.208, 1
2507118, 0.072, -0.011, 0.177, -0.317, 0.008, 0.13, 1
2507138, 0.05, -0.007, 0.079, -0.287, 0.0, 0.125, 1
2507158, 0.044, 0.008, 0.104, -0.184, 0.039, 0.129, 1
2507178, 0.105, -0.075, 0.087, -0.048, 0.085, 0.125, 1
2507198, 0.128, -0.17, 0.085, 0.032, 0.074, 0.083, 1
2507218, 0.018, -0.179, 0.109, 0.054, 0.014, 0.041, 1
2507238, -0.062, -0.118, 0.119, 0.084, -0.018, 0.021, 1
2507258, -0.016, -0.102, 0.042, 0.107, -0.026, 0.029, 1
2507278, 0.004, -0.105, -0.084, 0.097, -0.074, 0.034, 1
2507298, -0.07, -0.114, -0.467, -0.014, -0.164, 0.029, 1
2507318, -0.393, 0.074, -0.682, -0.089, -0.069, 0.06, 1
2507338, -0.07, 0.024, -0.508, -0.091, 0.084, 0.12, 1
2507358, 0.046, -0.132, -0.307, -0.103, 0.084, 0.136, 1
2507378, 0.0, -0.198, -0.14, -0.133, 0.021, 0.122, 1
2507398, -0.004, -0.17, -0.096, -0.121, -0.015, 0.109, 1
2507418, 0.001, -0.187, -0.105, -0.099, -0.009, 0.109, 1
2507438, 0.021, -0.203, -0.108, -0.098, -0.034, 0.11, 1
2507458, 0.008, -0.182, -0.105, -0.115, -0.088, 0.117, 1
2507478, 0.0, -0.184, -0.122, -0.123, -0.124, 0.139, 1
2507498, 0.013, -0.23, -0.133, -0.126, -0.148, 0.167, 1
2507518, 0.018, -0.236, -0.136, -0.136, -0.175, 0.197, 1
2507538, 0.025, -0.218, -0.128, -0.141, -0.188, 0.224, 1
2507558, 0.027, -0.229, -0.124, -0.161, -0.166, 0.26, 1
2507578, 0.033, -0.307, -0.182, -0.194, -0.156, 0.282, 1
2507598, -0.038, -0.441, -0.243, -0.238, -0.103, 0.298, 1
2507618, -0.116, -0.417, -0.221, -0.272, -0.005, 0.311, 1
2507638, -0.027, -0.316, -0.173, -0.279, 0.114, 0.321, 1
2507658, -0.023, -0.234, -0.132, -0.314, 0.218, 0.324, 1
2507678, -0.236, -0.965, -0.352, -0.653, 0.368, 0.311, 1
2507698, -0.455, -1.54, -0.653, -1.401, 0.605, 0.356, 1
2507718, -0.108, -1.578, -0.919, -2.285, 0.769, 0.653, 1
2507738, -0.371, -2.275, -1.004, -3.36, 0.915, 0.82, 1
2507758, -0.176, -1.248, -0.128, -3.886, 1.038, 0.937, 1
2507778, -0.848, -1.422, 0.356, -3.982, 1.417, 1.158, 1
2507798, -0.328, -2.948, -0.251, -4.651, 1.609, 1.386, 1
2507818, 0.045, -2.328, -0.583, -5.389, 1.489, 1.301, 1
2507838, -0.905, 0.603, 0.274, -4.809, 1.736, 0.962, 1
2507858, -1.154, 1.836, 1.205, -3.281, 2.174, 0.919, 1
2507878, -1.137, 0.866, 1.063, -2.046, 2.395, 1.21, 1
2507898, -0.858, 0.851, 0.067, -1.382, 2.442, 1.693, 1
2507918, -0.913, 1.767, -1.119, -0.679, 2.577, 2.214, 1
2507938, -1.9, 1.895, -2.092, 0.043, 3.271, 2.877, 1
2507958, -0.225, 1.136, -2.857, 0.535, 3.736, 3.323, 1
2507978, -0.499, 2.204, -3.841, 1.263, 4.235, 3.697, 1
2507998, -1.997, 2.063, -3.988, 2.62, 5.812, 4.164, 1
2508018, -0.734, 0.745, -2.97, 3.721, 6.63, 4.267, 1
2508038, 2.575, -2.041, -1.687, 3.893, 4.596, 1.466, 1
2508058, 4.566, -5.48, 0.593, 3.451, 2.637, -0.943, 1
2508078, 1.921, -2.414, 0.054, 3.777, 2.365, -2.139, 1
2508098, 1.601, -0.604, 0.4, 4.747, 2.743, -2.629, 1
2508118, -0.81, 1.321, 0.978, 5.345, 2.334, -2.904, 1
2508138, -3.814, 3.105, 1.15, 6.618, 3.152, -3.042, 1
2508158, -3.33, 3.314, 1.205, 7.601, 4.74, -2.919, 1
2508178, -2.583, 3.666, 0.959, 7.544, 5.906, -2.871, 1
2508198, -0.878, 2.366, 0.084, 6.552, 6.04, -2.855, 1
2508218, -1.105, 1.746, 0.025, 5.092, 5.314, -2.811, 1
2508238, -0.994, 1.862, -0.198, 4.061, 4.196, -2.736, 1
2508258, -2.053, 1.764, -1.596, 3.361, 3.174, -2.417, 1
2508278, -1.773, 0.537, -1.548, 2.727, 2.165, -2.024, 1
2508298, -3.141, 0.423, -2.352, 2.046, 1.105, -1.739, 1
2508318, -4.777, 0.906, -2.221, 1.528, 0.601, -1.62, 1
2508338, -5.525, 0.887, -2.771, 1.183, 1.034, -1.376, 1
2508358, -3.953, 0.376, -3.092, 0.682, 1.654, -1.059, 1
2508378, -2.591, -0.051, -3.0, -0.1, 1.688, -0.736, 1
2508398, -1.586, -0.292, -2.673, -1.133, 1.341, -0.277, 1
2508418, -0.819, -0.147, -1.897, -2.225, 0.896, 0.072, 1
2508438, -0.143, 0.754, -1.125, -2.781, 0.346, 0.192, 1
2508458, -0.126, -0.085, -0.663, -3.232, -0.047, 0.415, 1
2508478, 1.006, -0.259, 0.31, -4.367, -0.558, 0.67, 1
2508498, 1.779, 0.875, 1.853, -5.385, -1.634, 0.762, 1
2508518, 1.573, 2.151, 3.159, -5.688, -2.878, 0.423, 1
2508538, 0.996, 2.797, 3.31, -5.142, -4.021, -0.227, 1
2508558, 1.178, 2.808, 3.332, -5.006, -4.493, -1.118, 1
2508578, 1.589, 3.478, 4.351, -4.599, -5.02, -2.141, 1
2508598, 0.181, 4.927, 4.698, -3.583, -4.912, -2.399, 1
2508618, -1.204, 6.255, 3.476, -2.371, -3.926, -1.817, 1
2508638, -0.791, 6.861, 2.67, -1.256, -2.88, -1.1, 1
2508658, 2.087, 3.932, 2.394, -1.244, -3.034, -0.834, 1
2508678, 6.338, -0.781, 3.798, -2.741, -5.288, -1.607, 1
2508698, 7.258, -2.198, 6.822, -4.061, -8.582, -2.906, 1
2508718, 3.515, -1.584, 9.274, -4.083, -10.751, -3.444, 1
2508738, 1.28, -0.745, 10.762, -3.652, -11.908, -2.368, 1
2508758, -0.745, 0.932, 11.005, -3.232, -11.883, -1.299, 1
2508778, -3.087, 1.751, 7.747, -2.507, -9.86, -0.999, 1
2508798, -4.451, 1.308, 1.883, -1.734, -6.174, -0.662, 1
2508818, -3.894, 0.925, -1.659, -1.021, -2.224, -0.149, 1
2508838, 1.67, -2.024, -1.908, -1.101, -0.974, -0.317, 1
2508858, 3.985, -2.225, -0.754, -1.472, -1.991, -0.538, 1
2508878, 1.542, -0.251, -0.658, -1.286, -2.253, -0.563, 1
2508898, -0.313, 0.654, -1.289, -0.646, -1.097, -0.433, 1
2508918, 0.658, -0.431, -1.783, -0.429, -0.169, -0.482, 1
2508938, 0.651, -0.311, -1.68, -0.564, 0.141, -0.21, 1
2508958, 0.438, 0.388, -1.221, -0.62, 0.176, 0.039, 1
2508978, -0.188, 1.112, -0.923, -0.384, 0.406, 0.044, 1
2508998, -0.838, 1.406, -0.587, -0.021, 1.001, 0.007, 1
2509018, -0.499, 1.208, 0.15, 0.208, 1.433, 0.017, 1
2509038, 1.651, -0.979, 0.749, -0.208, 0.671, 0.074, 1
2509058, -0.095, 0.319, 0.734, -0.565, 0.042, -0.114, 1
2509078, -1.028, 0.872, 0.589, -0.268, 0.153, -0.105, 1
2509098, -0.98, 0.604, 0.483, 0.268, 0.558, -0.073, 1
2509118, -0.842, -0.099, 0.043, 0.715, 0.918, -0.054, 1
2509138, -0.664, -0.837, -0.285, 0.959, 1.332, -0.036, 1
2509158, -0.165, -1.484, -0.309, 0.892, 1.621, -0.028, 1
2509178, 0.117, -1.265, 0.219, 0.681, 1.624, -0.041, 1
2509198, -0.585, -0.475, 0.829, 0.717, 1.535, -0.045, 1
2509218, -0.959, -0.255, 0.802, 1.103, 1.864, -0.007, 1
2509238, -0.346, -1.002, 0.633, 1.363, 2.158, 0.146, 1
2509258, -0.734, -0.835, 0.173, 1.219, 2.182, 0.09, 1
2509278, -1.965, 0.405, -0.074, 1.282, 2.555, 0.063, 1
2509298, -1.843, 1.072, 0.168, 1.775, 3.208, 0.202, 1
2509318, -0.96, 0.494, 0.729, 2.338, 3.532, 0.227, 1
2509338, -1.534, 0.742, 0.63, 2.644, 3.567, -0.02, 1
2509358, -2.145, 0.863, 0.685, 3.317, 4.087, -0.276, 1
2509378, -1.27, 0.05, 0.545, 3.891, 4.763, -0.405, 1
2509398, -0.075, -0.309, 0.36, 3.643, 4.767, -0.459, 1
2509418, 1.019, 0.0, 0.381, 2.747, 3.849, -0.367, 1
2509438, 1.622, 0.268, -0.046, 1.766, 2.344, -0.182, 1
2509458, 1.667, 0.885, -0.6, 0.606, 0.556, 0.088, 1
2509478, 1.774, 0.147, -0.834, -0.483, -1.228, 0.62, 1
2509498, 3.114, -1.932, -0.186, -3.316, -3.048, 0.696, 1
2509518, 4.7, -4.113, 2.195, -5.873, -6.795, 0.088, 1
2509538, 3.039, -3.244, 5.17, -7.636, -8.833, -0.957, 1
2509558, -0.798, -0.185, 6.13, -7.551, -9.018, -1.65, 1
2509578, -5.222, 4.163, 3.751, -5.409, -6.914, -1.332, 1
2509598, -9.359, 8.217, -0.08, -1.59, -2.572, 0.0, 1
2509618, -6.977, 5.716, -2.334, 1.728, 1.412, 1.223, 1
2509638, 0.306, -1.491, -2.835, 1.961, 2.319, 1.256, 1
2509658, 4.785, -4.957, -2.547, -0.123, 0.7, 0.664, 1
2509678, 3.032, -1.979, -1.541, -1.465, -0.861, 0.174, 1
2509698, -1.091, 1.919, -0.825, -0.977, -0.66, 0.241, 1
2509718, -2.46, 2.796, -0.681, 0.167, 0.527, 0.516, 1
2509738, -0.386, 0.858, -0.815, 0.589, 0.985, 0.538, 1
2509758, 1.537, -0.701, -1.011, 0.164, 0.363, 0.175, 1
2509778, 1.683, -0.582, -0.88, -0.472, -0.64, -0.24, 1
2509798, -0.126, 0.83, -0.454, -0.522, -1.004, -0.503, 1
2509818, -1.524, 1.425, -0.39, -0.083, -0.649, -0.559, 1
2509838, -0.965, 1.058, -0.559, 0.364, -0.354, -0.563, 1
2509858, 0.298, 0.663, -0.579, 0.662, -0.69, -0.538, 1
2509878, 0.996, 0.438, -0.242, 0.844, -1.43, -0.508, 1
2509898, 0.601, 0.334, 0.007, 1.1, -2.108, -0.535, 1
2509918, -0.269, 0.063, -0.008, 1.437, -2.246, -0.623, 1
2509938, -0.633, -0.323, -0.221, 1.723, -1.971, -0.66, 1
2509958, -0.402, -0.806, -0.532, 1.774, -1.55, -0.693, 1
2509978, -0.096, -1.651, -0.991, 1.354, -1.055, -0.727, 1
2509998, 0.045, -2.033, -1.313, 0.274, -0.441, -0.45, 1
2510018, 0.12, -1.9, -0.923, -0.393, -0.173, -0.327, 1
2510038, -0.466, -1.228, -0.498, -0.677, 0.213, -0.323, 1
2510058, -0.499, -0.86, -0.117, -0.608, 0.736, -0.296, 1
2510078, 0.105, -0.886, 0.453, -0.563, 1.031, -0.136, 1
2510098, 0.581, -1.021, 0.96, -0.652, 0.931, -0.032, 1
2510118, 0.463, -0.829, 1.235, -0.774, 0.644, 0.039, 1
2510138, 0.081, -0.509, 1.409, -0.814, 0.511, 0.097, 1
2510158, 0.007, -0.253, 1.529, -0.766, 0.645, 0.098, 1
2510178, 0.276, -0.273, 1.573, -0.634, 0.791, 0.086, 1
2510198, 0.585, -0.243, 1.593, -0.487, 0.736, 0.073, 1
2510218, 0.591, -0.228, 1.436, -0.367, 0.475, 0.017, 1
2510238, 0.205, 0.021, 1.095, -0.269, 0.257, -0.056, 1
2510258, -0.063, 0.009, 0.629, -0.176, 0.199, -0.065, 1
2510278, -0.136, 0.119, 0.287, -0.128, 0.217, -0.071, 1
2510298, 0.016, 0.0, -0.04, -0.083, 0.144, -0.061, 1
2510318, 0.074, -0.061, -0.396, -0.062, -0.082, -0.105, 1
2510338, -0.133, -0.145, -0.743, -0.026, -0.273, -0.131, 1
2510358, -0.31, -0.171, -0.992, 0.003, -0.253, -0.143, 1
2510378, -0.355, -0.248, -1.05, 0.0, -0.093, -0.087, 1
2510398, -0.157, -0.188, -0.867, -0.06, 0.053, 0.001, 1
2510418, -0.071, -0.02, -0.471, -0.1, 0.111, 0.036, 1
2510438, -0.006, -0.001, -0.158, -0.045, 0.109, 0.063, 1
2510458, -0.019, -0.06, -0.115, -0.009, 0.086, 0.091, 1
2510478, -0.053, -0.195, -0.141, -0.056, 0.067, 0.144, 1
2510498, -0.059, -0.084, -0.07, -0.109, 0.133, 0.174, 1
2510518, -0.011, -0.05, 0.004, -0.078, 0.174, 0.167, 1
2510538, 0.025, -0.073, 0.018, -0.036, 0.179, 0.147, 1
2510558, 0.071, -0.11, -0.035, -0.032, 0.133, 0.118, 1
2510578, -0.055, -0.062, -0.111, -0.084, 0.106, 0.125, 1
2510598, -0.122, 0.001, -0.215, -0.137, 0.12, 0.16, 1
2510618, -0.105, 0.072, -0.186, -0.12, 0.128, 0.147, 1
2510638, -0.133, 0.062, -0.205, -0.058, 0.149, 0.142, 1
2510658, -0.061, -0.062, -0.28, -0.077, 0.149, 0.155, 1
2510678, 0.002, -0.089, -0.319, -0.122, 0.11, 0.158, 1
2510698, -0.115, -0.051, -0.335, -0.13, 0.119, 0.169, 1
2510718, -0.049, -0.038, -0.363, -0.133, 0.162, 0.176, 1
2510738, 0.015, -0.018, -0.338, -0.115, 0.149, 0.165, 1
2510758, 0.001, -0.009, -0.251, -0.084, 0.123, 0.141, 1
2510778, 0.025, -0.108, -0.291, -0.114, 0.089, 0.13, 1
2510798, 0.048, -0.087, -0.36, -0.164, 0.028, 0.106, 1
2510818, -0.08, 0.002, -0.297, -0.168, 0.026, 0.075, 1
2510838, -0.221, 0.042, -0.284, -0.155, 0.077, 0.061, 1
2510858, -0.223, 0.07, -0.194, -0.126, 0.105, 0.058, 1
2510878, -0.134, 0.026, -0.094, -0.117, 0.075, 0.055, 1
2510898, -0.077, -0.031, -0.032, -0.127, 0.014, 0.063, 1
2510918, -0.08, -0.012, 0.0, -0.119, -0.021, 0.073, 1
2510938, -0.053, -0.048, -0.035, -0.084, -0.025, 0.079, 1
2510958, -0.028, -0.111, -0.05, -0.085, -0.014, 0.093, 1
2510978, -0.007, -0.08, -0.067, -0.093, -0.026, 0.098, 1
2510998, 0.019, -0.022, -0.037, -0.078, -0.039, 0.102, 1
2511018, 0.015, -0.02, 0.0, -0.078, -0.032, 0.103, 1
2511038, 0.06, -0.055, -0.02, -0.057, -0.025, 0.105, 1
2511058, 0.083, -0.125, -0.137, -0.076, -0.039, 0.103, 1
2511078, 0.046, -0.049, -0.137, -0.103, -0.059, 0.095, 1
2511098, -0.001, -0.002, -0.155, -0.087, -0.049, 0.076, 1
2511118, 0.0, -0.022, -0.231, -0.07, -0.004, 0.071, 1
2511138, 0.017, -0.02, -0.191, -0.069, 0.006, 0.074, 1
2511158, 0.011, -0.031, -0.209, -0.077, -0.007, 0.065, 1
2511178, 0.007, -0.004, -0.111, -0.109, -0.029, 0.071, 1
2511198, -0.026, 0.01, -0.071, -0.109, -0.04, 0.065, 1
2511218, -0.024, 0.01, -0.042, -0.082, -0.007, 0.051, 1
2511238, 0.008, -0.025, -0.013, -0.054, 0.024, 0.045, 1
2511258, 0.025, -0.031, 0.034, -0.043, 0.01, 0.045, 1
2511278, 0.027, -0.044, 0.044, -0.053, -0.044, 0.048, 1
2511298, 0.013, -0.043, -0.021, -0.079, -0.082, 0.067, 1
2511318, -0.001, 0.0, 0.018, -0.086, -0.092, 0.065, 1
2511338, 0.023, 0.0, -0.021, -0.026, -0.07, 0.051, 1
2511358, 0.036, -0.033, -0.098, 0.017, -0.043, 0.039, 1
2511378, 0.031, 0.0, -0.148, -0.001, -0.042, 0.045, 1
2511398, 0.07, 0.12, -0.181, -0.001, -0.042, 0.053, 1
2511418, 0.347, 0.211, -0.391, 0.065, -0.054, 0.028, 1
2511438, 0.925, 0.418, -0.885, 0.207, -0.063, -0.059, 1
2511458, 1.55, 0.743, -2.229, 0.637, -0.081, -0.574, 1
2511478, 0.865, 1.849, -4.864, 1.205, -0.048, -1.236, 1
2511498, -0.641, 1.99, -8.147, 1.809, 0.147, -1.842, 1
2511518, -2.133, 0.86, -11.333, 1.87, 0.347, -2.165, 1
2511538, -2.794, -0.326, -13.678, 1.237, 0.324, -1.974, 1
2511558, -2.395, -1.881, -14.269, 0.02, 0.406, -1.525, 1
2511578, -1.124, -2.892, -12.427, -1.406, 0.518, -0.959, 1
2511598, 0.437, -3.734, -9.041, -2.643, 0.362, -0.497, 1
2511618, 1.158, -4.396, -5.449, -3.436, 0.161, -0.179, 1
2511638, 2.07, -4.808, -2.266, -3.804, -0.002, -0.027, 1
2511658, 2.308, -5.128, 0.414, -3.893, -0.078, -0.081, 1
2511678, 1.365, -4.27, 2.963, -3.513, 0.251, -0.133, 1
2511698, 1.096, -3.3, 5.518, -2.811, 0.565, -0.262, 1
2511718, 1.379, -2.74, 7.516, -2.301, 0.207, -0.299, 1
2511738, 0.843, -2.528, 8.02, -2.12, -0.548, -0.089, 1
2511758, 0.187, -2.556, 8.105, -2.175, -1.078, 0.167, 1
2511778, -0.752, -2.029, 8.157, -1.905, -1.238, 0.398, 1
2511798, -1.234, -1.733, 7.793, -1.158, -1.098, 0.439, 1
2511818, -1.618, -2.078, 7.058, -0.344, -0.665, 0.339, 1
2511838, -1.388, -2.697, 6.334, 0.197, -0.227, 0.289, 1
2511858, -0.516, -3.234, 5.543, 0.317, -0.141, 0.192, 1
2511878, -0.346, -3.641, 4.623, 0.109, -0.266, 0.22, 1
2511898, -0.277, -3.448, 3.841, -0.182, -0.352, 0.273, 1
2511918, -0.506, -3.013, 3.246, -0.342, -0.324, 0.279, 1
2511938, -0.741, -2.28, 3.001, -0.238, -0.184, 0.262, 1
2511958, 0.235, -1.668, 2.457, 0.136, -0.125, 0.155, 1
2511978, 0.194, -0.993, 1.705, 0.321, -0.274, 0.074, 1
2511998, 0.076, -0.775, 0.577, 0.35, -0.508, 0.056, 1
2512018, -0.283, -0.373, -0.588, 0.197, -0.685, 0.065, 1
2512038, -1.012, 0.208, -1.536, 0.178, -0.642, 0.059, 1
2512058, -1.534, 0.145, -2.186, 0.336, -0.378, 0.066, 1
2512078, -1.405, 0.034, -2.375, 0.512, 0.007, 0.081, 1
2512098, -0.309, -0.111, -2.284, 0.579, 0.306, 0.106, 1
2512118, 0.14, -0.35, -2.159, 0.437, 0.229, 0.093, 1
2512138, -0.146, -0.318, -2.016, 0.196, 0.0, 0.121, 1
2512158, -0.61, -0.144, -1.679, 0.009, -0.086, 0.164, 1
2512178, -0.562, -0.022, -1.068, 0.048, 0.038, 0.155, 1
2512198, -0.438, -0.438, -0.431, 0.2, 0.251, 0.089, 1
2512218, -0.475, -1.209, 0.403, 0.307, 0.496, 0.05, 1
2512238, -0.904, -2.015, 1.584, 0.392, 0.774, 0.028, 1
2512258, -0.875, -2.316, 3.005, 0.521, 1.158, 0.029, 1
2512278, 1.488, -2.034, 4.499, 0.731, 1.464, 0.017, 1
2512298, 2.264, -2.146, 5.482, 0.803, 1.281, -0.175, 1
2512318, 1.959, -2.424, 6.005, 0.835, 0.846, -0.257, 1
2512338, 0.964, -1.858, 5.897, 0.954, 0.413, -0.294, 1
2512358, 0.489, -0.941, 5.103, 1.265, 0.07, -0.233, 1
2512378, 1.003, -1.451, 3.342, 1.441, -0.32, -0.173, 1
2512398, 0.532, -1.536, 0.817, 1.056, -0.965, -0.16, 1
2512418, -1.746, -0.266, -1.497, 0.395, -1.487, -0.009, 1
2512438, -4.141, 1.497, -2.791, -0.008, -0.871, 0.478, 1
2512458, -4.268, 2.948, -3.037, 0.388, 0.158, 0.713, 1
2512478, -2.91, 2.806, -2.934, 0.88, 0.928, 0.775, 1
2512498, -1.068, 1.98, -2.881, 1.161, 1.111, 0.797, 1
2512518, 0.022, 0.778, -3.186, 0.974, 0.688, 0.81, 1
2512538, 0.068, 0.051, -3.815, 0.419, 0.07, 0.956, 1
2512558, 0.083, -0.16, -4.016, -0.063, -0.31, 1.05, 1
2512578, -0.11, -0.058, -3.81, -0.21, -0.321, 0.961, 1
2512598, -0.536, 0.375, -3.637, 0.058, -0.01, 0.757, 1
2512618, -0.588, 0.55, -3.443, 0.43, 0.36, 0.519, 1
2512638, -0.3, 0.243, -3.112, 0.538, 0.565, 0.376, 1
2512658, 0.173, -0.142, -2.6, 0.328, 0.447, 0.317, 1
2512678, 0.325, -0.043, -1.966, 0.032, 0.136, 0.274, 1
2512698, 0.019, 0.285, -1.417, -0.12, -0.117, 0.229, 1
2512718, -0.43, 0.54, -1.06, -0.056, -0.172, 0.197, 1
2512738, -0.423, 0.387, -0.948, 0.059, -0.107, 0.171, 1
2512758, -0.214, 0.202, -0.836, 0.102, -0.029, 0.182, 1
2512778, 0.064, 0.024, -0.744, 0.045, -0.045, 0.213, 1
2512798, 0.492, -0.456, -0.87, -0.128, -0.248, 0.235, 1
2512818, 0.233, -0.379, -1.13, -0.244, -0.337, 0.206, 1
2512838, 0.032, -0.228, -1.126, -0.245, -0.189, 0.19, 1
2512858, 0.318, -0.299, -0.892, -0.273, -0.12, 0.171, 1
2512878, 0.402, -0.455, -0.609, -0.414, -0.188, 0.203, 1
2512898, 0.648, -1.015, -0.278, -0.811, -0.482, 0.283, 1
2512918, 0.098, -0.336, 0.403, -1.036, -0.658, 0.322, 1
2512938, -0.398, 1.018, 2.101, -0.83, -0.396, 0.39, 1
2512958, 0.674, 0.531, 2.624, -0.875, -0.5, 0.517, 1
2512978, 0.812, 0.439, 2.584, -1.167, -1.024, 0.597, 1
2512998, -0.003, 0.591, 1.911, -1.21, -1.342, 0.613, 1
2513018, -0.003, -0.082, 1.128, -0.904, -1.217, 0.602, 1
2513038, -0.035, -0.804, 0.3, -0.612, -1.032, 0.489, 1
2513058, -0.233, -0.749, 0.061, -0.321, -0.796, 0.354, 1
2513078, -0.685, -0.491, 0.173, 0.004, -0.458, 0.217, 1
2513098, -1.14, -0.128, 0.441, 0.383, 0.138, 0.113, 1
2513118, -1.556, 0.483, 1.081, 0.716, 0.83, 0.118, 1
2513138, -1.954, 1.343, 1.967, 1.12, 1.514, 0.168, 1
2513158, -2.9, 2.779, 3.146, 1.825, 2.453, 0.167, 1
2513178, -2.204, 2.757, 4.526, 2.987, 3.677, 0.253, 1
2513198, -0.567, 1.441, 5.26, 3.985, 4.436, 0.194, 1
2513218, 0.704, 0.325, 4.969, 4.428, 4.426, -0.109, 1
2513238, 1.546, -1.417, 3.167, 4.247, 3.45, 0.163, 1
2513258, 6.792, -8.405, -0.622, 2.367, 0.611, 1.153, 1
2513278, 6.504, -8.217, -1.873, -1.371, -3.777, 0.935, 1
2513298, 0.659, -3.273, -2.238, -3.404, -6.182, 0.348, 1
2513318, -2.71, -0.415, -3.565, -3.291, -5.406, 0.002, 1
2513338, -3.843, 1.849, -4.028, -2.27, -3.268, -0.11, 1
2513358, -3.562, 2.188, -4.178, -0.852, -1.128, -0.043, 1
2513378, -2.413, 1.282, -3.933, 0.166, 0.326, 0.177, 1
2513398, -1.464, 0.038, -3.393, 0.387, 0.969, 0.462, 1
2513418, -0.553, -0.756, -2.366, -0.131, 1.131, 0.835, 1
2513438, 0.177, -1.093, -1.069, -0.58, 0.923, 0.918, 1
2513458, 0.796, -1.384, -0.122, -1.017, 0.505, 0.91, 1
2513478, 0.684, -0.935, 0.591, -1.211, 0.216, 0.868, 1
2513498, 0.717, -1.027, 0.908, -1.246, -0.023, 0.847, 1
2513518, 0.689, -0.92, 0.907, -1.229, -0.235, 0.74, 1
2513538, 0.023, -0.413, 0.477, -0.919, -0.153, 0.654, 1
2513558, -0.126, -0.189, 0.109, -0.46, 0.002, 0.612, 1
2513578, 0.384, -0.432, -0.394, 0.064, -0.045, 0.455, 1
2513598, 0.78, -1.469, -1.268, 0.255, -0.202, 0.166, 1
2513618, 0.161, -1.385, -1.546, 0.178, -0.133, 0.011, 1
2513638, -0.354, -0.737, -1.305, 0.127, 0.164, 0.01, 1
2513658, -0.317, -0.259, -0.919, 0.111, 0.43, -0.019, 1
2513678, 0.02, -0.056, -0.602, 0.091, 0.374, -0.049, 1
2513698, 0.235, -0.188, -0.474, 0.025, 0.066, -0.167, 1
2513718, -0.078, -0.104, -0.453, -0.056, -0.176, -0.26, 1
2513738, -0.498, 0.471, -0.239, -0.097, -0.207, -0.198, 1
2513758, -0.603, 0.687, -0.076, -0.149, -0.098, -0.148, 1
2513778, -0.229, 0.689, -0.023, -0.211, -0.078, -0.112, 1
2513798, 0.007, 0.498, -0.041, -0.229, -0.182, -0.108, 1
2513818, 0.094, -0.002, -0.204, -0.295, -0.268, -0.118, 1
2513838, -0.083, 0.018, -0.165, -0.279, -0.211, -0.127, 1
2513858, -0.181, 0.083, -0.136, -0.216, -0.066, -0.079, 1
2513878, -0.141, -0.017, -0.172, -0.196, 0.102, -0.014, 1
2513898, 0.289, -0.43, -0.201, -0.408, -0.04, 0.029, 1
2513918, -0.024, -0.151, -0.073, -0.514, -0.153, 0.025, 1
2513938, -0.065, -0.055, 0.001, -0.367, -0.025, 0.017, 1
2513958, -0.054, -0.16, 0.007, -0.125, 0.155, -0.015, 1
2513978, 0.02, -0.31, 0.028, 0.015, 0.287, -0.04, 1
2513998, 0.268, -0.535, 0.058, 0.009, 0.24, -0.014, 1
2514018, 0.232, -0.49, 0.093, -0.164, 0.006, -0.018, 1
2514038, -0.041, -0.112, 0.185, -0.279, -0.161, -0.02, 1
2514058, -0.208, 0.021, 0.272, -0.188, -0.133, -0.008, 1
2514078, -0.159, -0.065, 0.18, -0.032, 0.012, 0.008, 1
2514098, -0.079, -0.113, 0.081, 0.13, 0.165, 0.015, 1
2514118, 0.251, -0.558, -0.102, 0.179, 0.186, 0.033, 1
2514138, 0.282, -0.531, -0.134, -0.005, 0.047, 0.04, 1
2514158, 0.099, -0.18, 0.016, -0.117, -0.053, 0.046, 1
2514178, -0.113, -0.035, 0.11, -0.058, -0.016, 0.056, 1
2514198, 0.003, -0.114, 0.185, 0.027, 0.099, 0.11, 1
2514218, 0.389, -0.402, 0.191, 0.01, 0.049, 0.133, 1
2514238, 0.148, -0.263, 0.067, -0.075, -0.102, 0.101, 1
2514258, -0.112, -0.039, -0.064, -0.08, -0.074, 0.079, 1
2514278, -0.027, -0.023, -0.101, -0.043, 0.08, 0.053, 1
2514298, 0.042, 0.023, -0.01, -0.032, 0.142, 0.045, 1
2514318, -0.018, -0.014, -0.01, -0.064, 0.087, 0.039, 1
2514338, -0.079, -0.003, -0.064, -0.138, 0.026, 0.063, 1
2514358, -0.147, 0.035, -0.178, -0.18, 0.024, 0.109, 1
2514378, -0.098, -0.02, -0.213, -0.189, 0.098, 0.183, 1
2514398, -0.019, -0.049, -0.278, -0.24, 0.233, 0.176, 1
2514418, 0.169, 0.002, -0.052, -0.209, 0.207, 0.13, 1
2514438, 0.238, -0.141, -0.059, -0.177, 0.098, 0.077, 1
2514458, 0.102, -0.154, -0.095, -0.145, 0.006, 0.061, 1
2514478, -0.088, -0.067, -0.174, -0.099, -0.003, 0.039, 1
2514498, -0.079, -0.023, -0.204, -0.047, 0.003, 0.034, 1
2514518, -0.045, -0.015, -0.184, -0.02, 0.03, 0.021, 1
2514538, -0.022, -0.009, -0.134, -0.02, 0.031, 0.026, 1
2514558, 0.023, -0.05, -0.15, -0.062, -0.029, 0.026, 1
2514578, -0.044, -0.018, -0.124, -0.084, -0.063, 0.034, 1
2514598, -0.096, -0.009, -0.109, -0.06, -0.042, 0.062, 1
2514618, -0.001, -0.013, -0.01, -0.025, -0.006, 0.06, 1
2514638, 0.073, -0.062, 0.005, 0.033, 0.013, 0.032, 1
2514658, 0.072, -0.152, 0.0, 0.014, -0.004, 0.028, 1
2514678, -0.007, -0.082, -0.018, -0.05, -0.043, 0.044, 1
2514698, -0.062, -0.002, -0.061, -0.075, -0.015, 0.055, 1
2514718, -0.039, 0.027, 0.003, -0.048, 0.049, 0.068, 1
2514738, 0.021, 0.024, 0.062, 0.016, 0.037, 0.062, 1
2514758, 0.027, -0.031, -0.001, 0.042, -0.005, 0.065, 1
2514778, -0.019, -0.128, -0.058, 0.009, -0.02, 0.08, 1
2514798, -0.07, -0.042, -0.068, -0.002, 0.018, 0.085, 1
2514818, 0.005, 0.009, -0.027, 0.04, 0.036, 0.083, 1
2514838, -0.013, 0.022, -0.095, 0.106, 0.009, 0.06, 1
2514858, -0.003, -0.008, -0.122, 0.127, 0.005, 0.057, 1
2514878, -0.277, -0.284, -0.366, -0.153, 0.232, 0.255, 1
2514898, 0.43, 0.109, -0.079, -0.203, 0.207, 0.361, 0
2514918, 0.233, 0.302, 0.144, -0.08, -0.073, 0.275, 0
2514938, 0.128, 0.29, 0.309, 0.264, -0.234, 0.186, 0
2514958, -0.063, -0.434, -0.128, 0.42, -0.206, 0.112, 0
2514978, 0.0, -0.514, -0.352, 0.194, -0.027, 0.094, 0
2514998, 0.099, -0.43, -0.429, -0.051, -0.058, 0.078, 0
2515018, -0.079, -0.04, -0.444, -0.241, -0.155, 0.07, 0
2515038, -0.244, 0.09, -0.459, -0.155, -0.11, 0.042, 0
2515058, -0.011, -0.094, -0.536, -0.023, -0.005, 0.012, 0
2515078, 0.001, -0.486, -0.957, 0.057, -0.012, -0.046, 0
2515098, 0.332, -0.793, -1.631, 0.028, 0.073, -0.08, 0
2515118, 0.397, -0.528, -1.962, -0.04, -0.01, -0.199, 0
2515138, -0.122, 0.148, -2.514, -0.061, -0.212, -0.274, 0
2515158, -0.757, 0.814, -3.363, -0.006, -0.223, -0.301, 0
2515178, -1.206, 1.102, -4.593, 0.199, -0.043, -0.329, 0
2515198, -0.99, 0.907, -5.79, 0.307, 0.225, -0.398, 0
2515218, -1.015, 0.648, -6.852, 0.139, 0.144, -0.463, 0
2515238, -1.466, 0.326, -7.683, -0.204, -0.066, -0.473, 0
2515258, -1.851, 0.448, -7.612, -0.525, 0.044, -0.408, 0
2515278, -1.518, -0.079, -6.935, -0.415, 0.505, -0.386, 0
2515298, -0.141, -1.26, -5.692, -0.187, 1.012, -0.509, 0
2515318, 0.692, -2.166, -4.349, -0.458, 0.793, -0.594, 0
2515338, 0.472, -2.009, -3.232, -1.046, 0.262, -0.56, 0
2515358, 0.255, -1.383, -2.194, -1.509, 0.025, -0.45, 0
2515378, -0.221, -0.928, -1.288, -1.478, 0.1, -0.401, 0
2515398, 0.202, -1.201, -0.122, -1.541, 0.076, -0.272, 0
2515418, 0.266, -1.179, 0.896, -1.678, -0.075, -0.137, 0
2515438, 0.336, -1.045, 1.761, -1.631, -0.133, -0.056, 0
2515458, 0.095, -0.877, 2.365, -1.37, -0.043, -0.023, 0
2515478, -0.012, -0.945, 2.83, -1.06, 0.116, 0.022, 0
2515498, -0.022, -0.915, 3.681, -0.83, 0.196, 0.12, 0
2515518, 0.174, -0.976, 4.647, -0.721, 0.237, 0.194, 0
2515538, -0.17, -1.055, 5.637, -0.53, 0.401, 0.26, 0
2515558, 0.262, -1.118, 6.578, -0.299, 0.55, 0.241, 0
2515578, 1.081, -1.397, 6.798, -0.15, 0.364, 0.172, 0
2515598, 0.952, -1.676, 6.271, -0.25, 0.026, 0.188, 0
2515618, 0.378, -1.19, 5.731, -0.279, -0.206, 0.196, 0
2515638, -0.229, -0.891, 4.635, -0.128, -0.144, 0.15, 0
2515658, -0.349, -0.989, 3.558, -0.037, -0.133, 0.075, 0
2515678, -0.505, -0.774, 2.587, 0.014, -0.118, 0.015, 0
2515698, -0.602, -0.584, 1.695, -0.021, -0.082, 0.061, 0
2515718, -0.601, -0.493, 1.084, -0.116, -0.009, 0.125, 0
2515738, -0.395, -0.434, 0.886, -0.118, 0.028, 0.149, 0
2515758, -0.379, -0.42, 0.53, -0.073, 0.105, 0.137, 0
2515778, -0.138, -0.432, 0.315, 0.012, 0.172, 0.083, 0
2515798, 0.111, -0.521, 0.061, 0.007, 0.159, 0.065, 0
2515818, 0.143, -0.512, -0.109, -0.099, 0.105, 0.083, 0
2515838, 0.193, -0.356, -0.02, -0.109, 0.067, 0.098, 0
2515858, 0.298, -0.53, -0.173, -0.261, -0.097, 0.081, 0
2515878, -0.587, -0.354, -0.555, -0.391, 0.053, 0.114, 1
2515898, -0.361, -0.161, -0.588, -0.524, 0.571, 0.279, 1
2515918, -0.458, 0.134, 0.051, -0.564, 0.779, 0.35, 1
2515938, 0.341, 0.322, 0.99, -0.191, 0.489, 0.268, 1
2515958, 0.313, 0.083, 1.236, 0.015, 0.153, 0.152, 1
2515978, 0.112, -0.56, 1.254, 0.075, -0.012, 0.129, 1
2515998, 0.187, -0.716, 1.601, 0.018, -0.073, 0.155, 1
2516018, 0.612, -1.408, 2.104, -0.062, -0.154, 0.199, 1
2516038, 0.691, -2.354, 2.724, -0.331, -0.386, 0.236, 1
2516058, 0.665, -2.21, 3.668, -0.66, -0.529, 0.282, 1
2516078, 1.008, -1.798, 4.691, -0.853, -0.604, 0.289, 1
2516098, 0.346, -1.359, 5.25, -0.695, -0.631, 0.206, 1
2516118, -0.57, -0.879, 5.445, -0.32, -0.434, 0.078, 1
2516138, -0.479, -0.602, 5.456, 0.185, -0.022, 0.005, 1
2516158, 0.276, -0.995, 5.007, 0.527, 0.146, -0.062, 1
2516178, 0.526, -1.587, 4.216, 0.431, -0.067, -0.002, 1
2516198, -0.252, -0.92, 3.442, -0.017, -0.479, 0.179, 1
2516218, -1.364, 0.483, 2.521, -0.064, -0.704, 0.295, 1
2516238, -1.956, 1.199, 1.75, 0.438, -0.389, 0.327, 1
2516258, -1.027, 0.195, 1.045, 1.213, 0.188, 0.35, 1
2516278, 0.226, -1.808, -0.207, 1.63, 0.276, 0.321, 1
2516298, 0.4, -3.294, -2.278, 1.082, -0.382, 0.352, 1
2516318, -0.668, -1.946, -3.258, 0.111, -0.936, 0.463, 1
2516338, -1.324, -0.259, -3.667, -0.092, -0.565, 0.398, 1
2516358, -1.202, 0.544, -3.656, 0.431, -0.271, 0.257, 1
2516378, -1.372, 0.512, -3.39, 0.932, -0.151, 0.166, 1
2516398, -1.373, -0.093, -3.235, 1.093, -0.08, 0.199, 1
2516418, -0.563, -0.654, -3.539, 0.986, -0.27, 0.185, 1
2516438, -0.497, -1.026, -4.23, 0.729, -0.393, 0.078, 1
2516458, -1.03, -0.426, -4.453, 0.53, -0.328, 0.023, 1
2516478, -1.444, 0.262, -4.346, 0.459, -0.27, 0.05, 1
2516498, -1.667, 0.545, -4.184, 0.369, -0.13, 0.119, 1
2516518, -1.277, 0.273, -3.64, 0.14, -0.015, 0.215, 1
2516538, -0.752, 0.045, -3.016, -0.044, 0.08, 0.236, 1
2516558, -0.332, 0.142, -2.39, -0.027, 0.102, 0.185, 1
2516578, -0.265, 0.197, -2.019, 0.165, 0.087, 0.1, 1
2516598, -0.322, -0.068, -1.861, 0.237, 0.158, 0.072, 1
2516618, -0.14, -0.197, -1.632, 0.144, 0.173, 0.059, 1
2516638, -0.147, -0.011, -1.339, 0.029, 0.126, 0.065, 1
2516658, -0.12, 0.181, -1.077, -0.005, 0.024, 0.067, 1
2516678, -0.259, 0.3, -0.828, 0.097, 0.058, 0.082, 1
2516698, -0.176, 0.097, -0.733, 0.152, 0.16, 0.094, 1
2516718, -0.022, -0.191, -0.75, 0.089, 0.17, 0.077, 1
2516738, -0.152, -0.18, -0.705, -0.007, 0.135, 0.069, 1
2516758, -0.161, -0.042, -0.558, -0.02, 0.137, 0.094, 1
2516778, -0.091, 0.035, -0.344, 0.056, 0.157, 0.106, 0
2516798, -0.017, -0.194, -0.372, 0.081, 0.248, 0.118, 0
2516818, 0.099, -0.186, -0.056, 0.142, 0.229, 0.088, 0
2516838, 0.198, -0.378, 0.038, 0.08, 0.062, 0.056, 0
2516858, -0.091, -0.096, -0.001, 0.086, 0.069, 0.061, 0
2516878, -0.019, -0.072, 0.01, 0.095, 0.05, 0.055, 0
2516898, -0.049, -0.197, -0.107, 0.038, 0.012, 0.058, 0
2516918, -0.022, -0.136, -0.235, -0.084, 0.0, 0.077, 0
2516938, -0.105, -0.04, -0.339, -0.149, -0.002, 0.072, 0
2516958, -0.033, -0.019, -0.307, -0.132, 0.032, 0.062, 0
2516978, -0.005, -0.081, -0.499, -0.04, 0.023, 0.028, 0
2516998, -0.105, -0.061, -0.834, 0.012, 0.037, -0.002, 0
2517018, -0.056, -0.059, -1.134, 0.015, 0.04, -0.01, 0
2517038, -0.14, -0.091, -1.636, -0.025, -0.023, -0.053, 0
2517058, -0.235, 0.253, -2.253, -0.069, -0.015, -0.093, 0
2517078, -0.466, 0.721, -3.499, 0.01, 0.051, -0.192, 0
2517098, -1.087, 1.275, -5.227, 0.109, 0.133, -0.294, 0
2517118, -1.603, 1.443, -6.778, 0.014, 0.156, -0.307, 0
2517138, -1.539, 1.308, -8.007, -0.221, 0.135, -0.263, 0
2517158, -1.87, 0.945, -8.827, -0.461, 0.199, -0.242, 0
2517178, -1.895, 0.412, -8.667, -0.727, 0.421, -0.161, 0
2517198, -1.103, 0.209, -7.754, -1.055, 0.565, -0.065, 0
2517218, -0.941, -0.196, -6.894, -1.453, 0.469, -0.02, 0
2517238, -0.989, -0.205, -5.319, -1.828, 0.355, 0.083, 0
2517258, -1.097, -0.48, -3.848, -1.769, 0.434, 0.161, 0
2517278, -0.599, -1.95, -2.529, -1.441, 0.734, 0.257, 0
2517298, 0.669, -3.607, -0.887, -1.391, 0.895, 0.337, 0
2517318, 1.454, -4.462, 0.519, -1.788, 0.601, 0.332, 0
2517338, 1.415, -4.117, 2.284, -1.881, 0.376, 0.32, 0
2517438, 0.412, -1.783, 5.798, -1.216, -0.297, 0.145, 0
2517458, -0.656, -0.694, 5.744, -1.066, -0.243, 0.233, 0
2517478, -0.959, 0.265, 5.951, -0.362, 0.227, 0.203, 0
2517498, -0.355, -0.654, 5.316, 0.133, 0.394, 0.093, 0
2517518, -0.241, -1.687, 4.144, -0.002, 0.304, 0.073, 0
2517538, -0.078, -1.413, 3.52, -0.324, 0.084, 0.15, 0
2517558, -0.528, -1.004, 3.171, -0.43, 0.013, 0.209, 0
2517578, -0.641, -0.62, 2.83, -0.284, 0.177, 0.2, 0
2517598, -0.426, -0.491, 2.576, 0.034, 0.314, 0.122, 0
2517618, -0.088, -0.811, 1.929, 0.163, 0.239, 0.048, 0
2517638, 0.039, -1.069, 1.417, 0.034, 0.023, 0.069, 0
2517658, -0.411, -0.846, 0.883, -0.132, -0.064, 0.118, 0
2517678, -0.21, -0.613, 0.543, -0.167, -0.03, 0.146, 0
2517698, 0.014, -0.446, 0.491, -0.092, -0.073, 0.095, 0
2517718, -0.082, -0.408, 0.232, 0.095, -0.084, 0.016, 0
2517738, -0.019, -0.583, -0.35, 0.073, -0.153, 0.0, 0
2517758, -0.21, -0.527, -0.887, -0.098, -0.187, 0.053, 0
2517778, -0.48, -0.171, -0.956, -0.186, -0.133, 0.079, 0
2517798, -0.446, 0.024, -0.793, -0.129, -0.006, 0.042, 0
2517818, -0.531, -0.428, -0.594, -0.237, 0.32, 0.086, 1
2517838, -0.328, -0.529, -0.462, -0.357, 0.563, 0.196, 1
2517858, -0.278, -0.205, -0.129, -0.447, 0.602, 0.25, 1
2517878, 0.535, -0.12, 0.581, -0.345, 0.423, 0.211, 1
2517898, 0.002, -0.526, 0.975, -0.105, 0.05, 0.048, 1
2517918, -0.083, -0.845, 1.392, 0.018, 0.06, 0.004, 1
2517938, 0.172, -1.274, 1.886, 0.1, 0.123, -0.028, 1
2517958, 0.384, -1.28, 2.332, 0.118, 0.051, -0.086, 1
2517978, 0.281, -1.343, 2.565, 0.111, -0.081, -0.113, 1
2517998, 0.174, -1.577, 2.856, -0.042, -0.275, -0.114, 1
2518018, -0.382, -1.628, 3.151, -0.208, -0.458, -0.09, 1
2518038, -0.547, -1.165, 3.626, -0.255, -0.433, -0.07, 1
2518058, -0.129, -0.742, 3.845, -0.062, -0.367, -0.1, 1
2518078, 0.185, -0.763, 3.626, 0.102, -0.459, -0.166, 1
2518098, -0.336, -1.078, 2.93, 0.124, -0.592, -0.188, 1
2518118, -1.069, -0.91, 2.421, 0.08, -0.518, -0.111, 1
2518138, -0.181, -0.469, 2.21, 0.127, -0.364, -0.036, 1
2518158, -0.644, -0.171, 1.601, 0.173, -0.3, -0.073, 1
2518178, -0.65, 0.118, 1.258, 0.377, -0.084, 0.036, 1
2518198, -0.496, 0.32, 1.002, 0.8, 0.005, 0.073, 1
2518218, -0.535, 0.069, 0.154, 1.128, -0.053, 0.097, 1
2518238, -0.282, -0.711, -0.526, 1.083, -0.067, 0.216, 1
2518258, 0.583, -1.386, -0.899, 0.748, -0.19, 0.304, 1
2518278, 0.507, -1.404, -1.299, 0.365, -0.473, 0.32, 1
2518298, -0.482, -0.568, -1.646, 0.403, -0.725, 0.265, 1
2518318, -1.219, 0.191, -1.841, 0.779, -0.401, 0.246, 1
2518338, -0.702, 0.077, -1.792, 1.046, -0.062, 0.225, 1
2518358, -0.349, -0.277, -2.018, 1.056, 0.0, 0.211, 1
2518378, 0.044, -0.559, -2.21, 0.853, -0.287, 0.172, 1
2518398, -0.441, -0.41, -2.383, 0.626, -0.515, 0.185, 1
2518418, -0.74, -0.046, -2.557, 0.561, -0.453, 0.108, 1
2518438, -1.159, 0.249, -2.881, 0.656, -0.194, 0.073, 1
2518458, -1.254, -0.087, -3.104, 0.583, 0.059, 0.087, 1
2518478, -0.659, -0.471, -2.966, 0.285, 0.044, 0.165, 1
2518498, -0.032, -0.4, -2.607, 0.011, -0.186, 0.133, 1
2518518, -0.24, 0.167, -2.241, -0.072, -0.191, 0.064, 1
2518538, -0.386, 0.621, -1.623, 0.138, -0.055, 0.004, 1
2518558, -0.534, 0.547, -1.43, 0.362, 0.077, 0.003, 1
2518578, -0.491, 0.144, -1.673, 0.348, 0.141, 0.057, 1
2518598, -0.287, 0.056, -1.675, 0.175, 0.105, 0.131, 1
2518618, -0.113, 0.112, -1.43, 0.091, 0.083, 0.128, 1
2518638, -0.074, 0.109, -1.163, 0.181, 0.104, 0.098, 1
2518658, -0.114, -0.012, -1.092, 0.229, 0.141, 0.096, 1
2518678, -0.028, -0.008, -1.12, 0.2, 0.114, 0.07, 1
2518698, -0.117, 0.036, -1.093, 0.13, 0.103, 0.061, 1
2518718, -0.089, 0.096, -1.051, 0.069, 0.054, 0.071, 1
2518738, -0.128, 0.078, -1.027, 0.039, -0.013, 0.064, 1
2518758, -0.295, 0.034, -1.052, 0.004, 0.064, 0.083, 1
2518778, -0.189, 0.023, -0.946, -0.048, 0.175, 0.103, 1
2518798, 0.037, -0.074, -0.485, -0.108, 0.189, 0.097, 1
2518818, 0.04, -0.074, -0.183, -0.058, 0.084, 0.081, 0
2518838, 0.01, -0.019, 0.036, 0.003, 0.036, 0.07, 0
2518858, -0.187, -0.089, 0.092, 0.106, 0.037, 0.065, 0
2518878, -0.26, -0.16, 0.062, 0.106, 0.131, 0.079, 0
2518898, -0.042, -0.217, -0.039, -0.007, 0.222, 0.122, 0
2518918, 0.142, -0.056, -0.06, -0.087, 0.2, 0.13, 0
2518938, -0.004, -0.002, -0.182, 0.038, 0.081, 0.087, 0
2518958, -0.167, -0.303, -0.671, 0.094, 0.133, 0.07, 0
2518978, 0.31, -0.416, -0.792, -0.011, 0.192, 0.067, 0
2518998, 0.025, -0.065, -0.848, -0.147, 0.024, 0.014, 0
2519018, -0.261, 0.085, -1.088, -0.154, -0.054, -0.001, 0
2519038, -0.076, 0.049, -1.266, -0.059, -0.012, -0.019, 0
2519058, -0.237, -0.08, -1.7, 0.0, -0.008, -0.075, 0
2519078, -0.252, 0.116, -2.193, 0.026, 0.069, -0.104, 0
2519098, -0.308, 0.29, -2.891, 0.086, 0.111, -0.169, 0
2519118, -0.498, 0.596, -3.855, 0.058, 0.073, -0.213, 0
2519138, -1.056, 0.99, -5.225, -0.047, -0.003, -0.265, 0
2519158, -1.545, 1.195, -6.38, -0.236, 0.086, -0.218, 0
2519178, -1.372, 1.107, -6.681, -0.356, 0.236, -0.141, 0
2519198, -1.122, 0.23, -6.742, -0.4, 0.466, -0.113, 0
2519218, -0.499, -0.553, -6.088, -0.599, 0.631, -0.096, 0
2519238, -0.625, -0.699, -5.374, -0.988, 0.568, -0.081, 0
2519258, -0.523, -0.504, -4.273, -1.142, 0.635, -0.037, 0
2519278, -0.369, -0.739, -3.204, -1.095, 0.62, -0.023, 0
2519298, -0.074, -1.197, -2.248, -1.185, 0.466, 0.022, 0
2519318, 0.297, -1.738, -1.33, -1.352, 0.356, 0.072, 0
2519338, 0.582, -1.921, -0.403, -1.516, 0.293, 0.095, 0
2519358, 0.612, -1.996, 0.241, -1.569, 0.133, 0.115, 0
2519378, 0.556, -1.654, 0.638, -1.492, -0.055, 0.119, 0
2519398, -0.051, -1.438, 1.189, -1.257, -0.053, 0.12, 0
2519418, -0.458, -0.857, 2.039, -0.695, 0.247, 0.12, 0
2519438, 0.059, -1.665, 2.572, -0.512, 0.3, 0.075, 0
2519458, -0.22, -1.982, 2.637, -0.879, 0.318, 0.261, 0
2519478, 0.126, -1.458, 3.524, -1.176, 0.104, 0.411, 0
2519498, -0.053, -1.19, 4.13, -1.219, -0.063, 0.477, 0
2519518, -0.764, -0.832, 4.604, -0.786, 0.235, 0.422, 0
2519538, -0.655, -1.192, 4.84, -0.268, 0.621, 0.324, 0
2519558, 0.068, -2.089, 4.677, -0.249, 0.634, 0.259, 0
2519578, 0.735, -2.279, 4.21, -0.508, 0.197, 0.243, 0
2519598, 0.441, -1.836, 3.473, -0.806, -0.24, 0.24, 0
2519618, -0.73, -0.635, 3.108, -0.659, -0.152, 0.185, 0
2519638, -0.809, -0.211, 2.889, -0.26, 0.182, 0.114, 0
2519658, -0.432, -0.488, 2.658, -0.078, 0.301, 0.07, 0
2519678, 0.03, -0.957, 2.281, -0.156, 0.188, 0.076, 0
2519698, 0.069, -0.86, 1.868, -0.336, -0.095, 0.108, 0
2519718, -0.433, -0.255, 1.462, -0.312, -0.101, 0.127, 0
2519738, -0.589, 0.058, 1.13, -0.103, 0.018, 0.1, 0
2519758, -0.219, -0.243, 0.767, 0.064, 0.119, 0.069, 0
2519778, 0.432, -0.769, 0.229, -0.01, -0.042, 0.077, 0
2519798, 0.02, -0.595, -0.18, -0.116, -0.192, 0.079, 0
2519818, -0.086, -0.269, -0.315, -0.1, -0.173, 0.056, 0
2519838, -0.246, -0.361, -0.652, -0.025, -0.086, 0.025, 0
2519858, -0.106, -0.342, -0.572, -0.083, 0.011, 0.034, 0
2519878, -0.006, -0.37, -0.387, -0.129, -0.049, 0.022, 0
2519898, -0.124, -0.461, -0.329, -0.254, -0.114, 0.029, 0
2519918, -0.677, -0.004, -0.298, -0.326, -0.052, 0.026, 1
2519938, -0.77, -0.002, -0.417, -0.21, 0.351, 0.105, 1
2519958, -0.528, 0.026, -0.181, -0.215, 0.605, 0.143, 1
2519978, 0.0, -0.131, 0.191, -0.133, 0.585, 0.154, 1
2519998, 0.32, -0.45, 0.576, -0.1, 0.288, 0.1, 1
2520018, -0.115, -0.499, 0.863, -0.092, 0.074, 0.029, 1
2520038, -0.182, -0.712, 1.305, 0.0, 0.172, -0.001, 1
2520058, -0.332, -1.309, 1.728, 0.086, 0.263, -0.026, 1
2520078, -0.034, -1.424, 2.47, 0.047, 0.292, -0.02, 1
2520098, 0.27, -1.48, 3.17, 0.083, 0.158, -0.087, 1
2520118, 0.195, -1.655, 3.341, 0.108, -0.015, -0.155, 1
2520138, 0.044, -1.871, 3.409, -0.014, -0.247, -0.186, 1
2520158, -0.383, -1.571, 3.443, -0.151, -0.427, -0.166, 1
2520178, -0.466, -1.384, 3.326, -0.169, -0.403, -0.171, 1
2520198, 0.157, -1.003, 3.256, -0.102, -0.398, -0.215, 1
2520218, -0.385, -0.672, 2.891, 0.006, -0.571, -0.295, 1
2520238, -1.401, -0.188, 2.604, 0.16, -0.489, -0.232, 1
2520258, -0.971, 0.386, 2.21, 0.487, -0.098, -0.177, 1
2520278, -1.101, 0.106, 1.54, 0.538, 0.08, -0.045, 1
2520298, -0.655, -0.29, 1.357, 0.533, 0.229, 0.142, 1
2520318, -0.168, -0.678, 1.788, 0.709, 0.254, 0.191, 1
2520338, 0.335, -0.479, 1.619, 1.023, 0.124, 0.103, 1
2520358, 0.149, -0.425, 0.523, 1.027, -0.219, 0.134, 1
2520378, -0.327, -0.595, -0.53, 0.555, -0.488, 0.276, 1
2520398, -0.551, -0.294, -1.019, -0.125, -0.557, 0.48, 1
2520418, -0.861, 0.468, -1.344, -0.228, -0.506, 0.6, 1
2520438, -0.236, 0.491, -1.449, 0.261, -0.35, 0.491, 1
2520458, -0.035, 0.12, -1.554, 0.89, -0.174, 0.33, 1
2520478, 0.197, -0.32, -1.88, 1.115, -0.021, 0.233, 1
2520498, 0.233, -0.207, -2.545, 0.922, -0.105, 0.163, 1
2520518, -0.308, -0.098, -3.106, 0.458, -0.175, 0.213, 1
2520538, -0.452, 0.381, -2.834, 0.151, -0.284, 0.216, 1
2520558, -0.748, 1.103, -2.72, 0.227, -0.366, 0.196, 1
2520578, -1.033, 1.06, -3.173, 0.551, -0.27, 0.211, 1
2520598, -0.75, 0.528, -3.562, 0.784, -0.041, 0.139, 1
2520618, -0.627, -0.172, -3.821, 0.684, 0.04, 0.097, 1
2520638, -0.49, -0.244, -3.572, 0.325, -0.014, 0.084, 1
2520658, -0.284, 0.277, -3.037, 0.013, -0.181, 0.101, 1
2520678, -0.418, 0.746, -2.353, -0.006, -0.225, 0.091, 1
2520698, -0.346, 0.619, -1.782, 0.203, -0.081, 0.08, 1
2520718, -0.106, 0.228, -1.476, 0.343, 0.065, 0.065, 1
2520738, 0.15, -0.264, -1.556, 0.012, -0.104, 0.029, 1
2520758, -0.162, 0.405, -1.011, -0.056, -0.181, 0.064, 1
2520778, -0.045, 0.094, -0.69, 0.076, -0.109, 0.088, 1
2520798, 0.177, -0.279, -0.451, 0.219, -0.034, 0.058, 1
2520818, 0.158, -0.467, -0.487, 0.27, -0.028, 0.005, 1
2520838, 0.188, -0.685, -0.732, 0.164, -0.023, 0.014, 0
2520858, 0.004, -0.124, -0.412, -0.025, 0.031, 0.046, 0
2520878, -0.034, 0.087, -0.074, -0.023, 0.017, 0.056, 0
2520898, -0.008, -0.064, -0.048, 0.111, 0.039, 0.055, 0
2520918, -0.114, -0.245, -0.354, 0.207, 0.109, 0.07, 0
2520938, 0.11, -0.509, -0.629, 0.131, 0.175, 0.08, 0
2520958, -0.041, -0.325, -0.704, -0.092, 0.091, 0.054, 0
2520978, -0.21, 0.126, -0.632, -0.223, 0.084, 0.057, 0
2520998, -0.229, 0.188, -0.462, -0.135, 0.103, 0.062, 0
2521018, -0.054, 0.003, -0.336, -0.064, 0.083, 0.073, 0
2521038, 0.03, -0.127, -0.232, -0.076, 0.053, 0.076, 0
2521058, -0.101, -0.164, -0.31, -0.118, 0.021, 0.054, 0
2521078, -0.071, -0.022, -0.373, -0.149, 0.042, 0.053, 0
2521098, -0.064, -0.006, -0.416, -0.143, 0.035, 0.059, 0
2521118, -0.019, 0.021, -0.436, -0.132, 0.059, 0.063, 0
2521138, -0.093, 0.002, -0.662, -0.087, 0.075, 0.052, 0
2521158, -0.174, 0.082, -1.117, -0.002, 0.137, 0.054, 0
2521178, -0.134, 0.3, -1.811, 0.144, 0.231, 0.023, 0
2521198, 0.121, 0.912, -2.728, 0.268, 0.257, -0.032, 0
2521218, -0.59, 1.387, -4.554, 0.202, 0.234, -0.099, 0
2521238, -1.157, 1.474, -6.056, 0.069, 0.422, -0.006, 0
2521258, -0.805, 1.024, -6.942, -0.012, 0.519, 0.0, 0
2521278, -0.593, 0.443, -7.481, 0.012, 0.755, -0.079, 0
2521298, 0.082, -0.182, -7.465, -0.169, 0.714, -0.224, 0
2521318, -0.263, -0.508, -7.33, -0.654, 0.505, -0.26, 0
2521338, -0.629, -0.296, -6.568, -1.072, 0.379, -0.2, 0
2521358, -1.344, -0.258, -5.539, -1.176, 0.622, -0.098, 0
2521378, -1.193, -0.467, -3.887, -0.86, 1.114, -0.027, 0
2521398, 0.238, -1.952, -2.374, -0.809, 1.144, -0.062, 0
2521418, 1.182, -3.138, -1.11, -1.207, 0.613, -0.114, 0
2521438, 0.87, -2.636, 0.206, -1.417, 0.16, -0.097, 0
2521458, -0.257, -1.039, 1.324, -0.885, 0.254, -0.114, 0
2521478, -0.11, -1.232, 2.185, -0.261, 0.431, -0.147, 0
2521498, 0.652, -2.511, 2.537, -0.204, 0.336, -0.194, 0
2521518, 0.614, -2.914, 2.866, -0.618, 0.158, -0.068, 0
2521538, 0.494, -2.275, 3.645, -0.946, -0.048, 0.043, 0
2521558, -0.176, -1.243, 4.326, -1.016, -0.082, 0.184, 0
2521578, -0.92, -0.402, 5.037, -0.711, 0.111, 0.246, 0
2521598, -0.853, -0.317, 5.582, -0.291, 0.257, 0.232, 0
2521618, -0.273, -1.177, 5.648, -0.213, 0.2, 0.221, 0
2521638, 0.034, -1.652, 5.245, -0.365, -0.003, 0.23, 0
2521658, -0.17, -1.232, 4.684, -0.406, -0.149, 0.246, 0
2521678, -0.289, -0.975, 4.17, -0.34, -0.265, 0.227, 0
2521698, -0.387, -0.663, 3.41, -0.164, -0.307, 0.158, 0
2521718, -0.543, -0.768, 1.965, -0.057, -0.153, 0.1, 0
2521738, -0.376, -0.751, 1.525, -0.001, -0.009, 0.067, 0
2521758, -0.241, -0.803, 1.007, -0.124, 0.112, 0.094, 0
2521778, -0.062, -0.562, 0.943, -0.216, 0.026, 0.107, 0
2521798, -0.265, -0.276, 0.815, -0.158, -0.033, 0.057, 0
2521818, -0.107, -0.268, 0.708, -0.007, 0.083, 0.003, 0
2521838, -0.019, -0.321, 0.4, 0.008, 0.051, -0.016, 0
2521858, -0.195, -0.27, 0.024, -0.057, -0.026, 0.014, 0
2521878, -0.23, 0.002, -0.052, -0.094, -0.061, 0.029, 0
2521898, -0.395, 0.164, -0.207, 0.025, 0.023, -0.012, 0
2521918, -0.078, -0.145, -0.253, 0.114, 0.113, -0.032, 0
2521938, -0.025, -0.341, -0.203, 0.05, 0.028, -0.034, 0
2521958, -0.242, -0.517, -0.386, -0.135, -0.034, 0.014, 0
2521978, -0.726, -0.231, -0.46, -0.335, 0.063, 0.087, 1
2521998, -0.786, -0.184, -0.414, -0.376, 0.357, 0.159, 1
2522018, -0.231, 0.079, 0.177, -0.301, 0.472, 0.169, 1
2522038, 0.208, -0.175, 0.729, -0.045, 0.305, 0.08, 1
2522058, -0.09, -0.457, 1.029, 0.055, 0.113, 0.02, 1
2522078, -0.066, -0.509, 1.469, 0.043, 0.124, 0.042, 1
2522098, -0.148, -0.617, 1.777, 0.083, 0.116, 0.039, 1
2522118, 0.184, -0.556, 2.379, 0.096, 0.048, 0.037, 1
2522138, -0.234, -0.681, 2.529, 0.26, -0.1, -0.043, 1
2522158, -0.435, -0.972, 2.751, 0.328, -0.105, -0.062, 1
2522178, -0.425, -0.76, 3.164, 0.378, 0.076, -0.07, 1
2522198, -0.122, -0.718, 3.668, 0.469, 0.23, -0.064, 1
2522218, 0.175, -0.879, 3.895, 0.456, 0.012, -0.075, 1
2522238, -0.265, -0.947, 3.478, 0.368, -0.183, -0.051, 1
2522258, -0.2, -0.766, 3.039, 0.175, -0.389, 0.012, 1
2522278, -0.115, -0.661, 2.627, -0.123, -0.696, 0.081, 1
2522298, -0.797, -0.168, 2.247, -0.287, -0.801, 0.176, 1
2522318, -0.911, 0.074, 1.966, -0.252, -0.667, 0.22, 1
2522338, -0.645, 0.204, 1.575, -0.014, -0.444, 0.211, 1
2522358, -0.529, -0.164, 0.877, 0.273, -0.229, 0.108, 1
2522378, -0.76, -0.112, 0.089, 0.609, 0.095, 0.089, 1
2522398, -0.231, 0.07, -0.289, 0.912, 0.227, 0.136, 1
2522418, 0.272, -0.44, -0.927, 0.819, -0.05, 0.139, 1
2522438, -0.008, -0.631, -1.644, 0.378, -0.329, 0.248, 1
2522458, -0.27, -0.11, -1.585, 0.065, -0.294, 0.372, 1
2522478, 0.001, -0.05, -1.371, 0.067, -0.072, 0.31, 1
2522498, 0.52, 0.166, -1.732, 0.23, -0.15, 0.213, 1
2522518, 0.132, 0.185, -2.477, 0.273, -0.477, 0.138, 1
2522538, -1.08, 0.495, -2.795, 0.307, -0.394, 0.209, 1
2522558, -0.917, 0.543, -2.635, 0.412, -0.113, 0.257, 1
2522578, -0.575, 0.607, -2.533, 0.634, 0.034, 0.224, 1
2522598, -0.273, 0.376, -2.389, 0.943, 0.109, 0.18, 1
2522618, 0.037, 0.136, -2.345, 1.158, 0.015, 0.097, 1
2522638, 0.133, -0.53, -2.554, 0.955, -0.204, 0.023, 1
2522658, -0.345, -0.391, -2.953, 0.458, -0.25, 0.05, 1
2522678, -0.511, 0.302, -2.857, 0.141, -0.142, 0.124, 1
2522698, -0.528, 0.779, -2.112, 0.234, 0.03, 0.127, 1
2522718, -0.097, 0.068, -2.269, 0.318, -0.001, 0.072, 1
2522738, -0.134, -0.1, -2.371, 0.144, -0.006, 0.073, 1
2522758, -0.228, 0.062, -1.969, -0.087, -0.025, 0.102, 1
2522778, -0.242, 0.146, -1.34, -0.165, 0.009, 0.153, 1
2522798, 0.058, 0.206, -0.757, -0.093, 0.1, 0.149, 1
2522818, 0.136, -0.083, -0.47, 0.062, 0.078, 0.123, 1
2522838, 0.17, -0.279, -0.49, 0.076, 0.006, 0.103, 1
2522858, -0.036, -0.21, -0.562, -0.064, -0.076, 0.108, 1
2522878, -0.057, -0.164, -0.496, -0.224, -0.078, 0.14, 1
2522898, 0.124, 0.048, -0.197, -0.266, -0.082, 0.136, 0
2522918, 0.076, 0.081, -0.194, -0.098, -0.018, 0.133, 0
2522938, -0.028, -0.387, -0.363, 0.117, 0.0, 0.114, 0
2522958, 0.117, -0.727, -0.571, 0.029, 0.034, 0.131, 0
2522978, 0.091, -0.445, -0.571, -0.234, 0.062, 0.147, 0
2522998, -0.053, -0.109, -0.463, -0.299, 0.094, 0.137, 0
2523018, -0.004, -0.055, -0.283, -0.2, 0.184, 0.133, 0
2523038, 0.154, -0.236, -0.086, -0.108, 0.186, 0.105, 0
2523058, 0.062, -0.173, -0.039, -0.11, 0.095, 0.092, 0
2523078, -0.077, -0.02, -0.057, -0.132, 0.07, 0.071, 0
2523098, -0.054, 0.002, -0.095, -0.114, 0.065, 0.073, 0
2523118, -0.062, -0.09, -0.106, -0.097, 0.048, 0.063, 0
2523138, -0.012, -0.069, -0.108, -0.085, 0.047, 0.061, 0
2523158, -0.025, -0.071, -0.198, -0.09, 0.024, 0.058, 0
2523178, 0.017, -0.035, -0.159, -0.058, -0.003, 0.053, 0
2523198, -0.003, -0.074, -0.26, -0.056, 0.0, 0.046, 0
2523218, -0.013, -0.038, -0.408, -0.043, 0.014, 0.028, 0
2523238, 0.043, -0.056, -0.692, -0.021, -0.022, 0.004, 0
2523258, -0.045, 0.007, -1.288, -0.014, -0.063, -0.03, 0
2523278, -0.159, 0.14, -2.081, 0.048, -0.075, -0.057, 0
2523298, -0.212, -0.032, -3.25, 0.217, 0.064, -0.144, 0
2523318, -0.107, -0.052, -4.574, 0.319, 0.161, -0.272, 0
2523338, -0.347, -0.082, -5.967, 0.122, 0.086, -0.36, 0
2523358, -0.567, 0.325, -7.083, -0.047, 0.003, -0.389, 0
2523378, -0.922, 0.396, -7.818, -0.116, 0.025, -0.408, 0
2523398, -1.213, 0.07, -7.886, -0.187, 0.089, -0.409, 0
2523418, -1.299, -0.452, -7.337, -0.364, 0.219, -0.402, 0
2523438, -1.254, -0.562, -6.296, -0.422, 0.485, -0.35, 0
2523458, -0.617, -1.192, -5.281, -0.507, 0.709, -0.355, 0
2523478, 0.271, -1.741, -4.16, -0.833, 0.596, -0.352, 0
2523498, 0.622, -2.193, -3.121, -1.428, 0.227, -0.263, 0
2523518, 0.173, -1.638, -2.011, -1.762, 0.036, -0.138, 0
2523538, -0.586, -1.064, -0.817, -1.466, 0.437, -0.048, 0
2523558, -0.15, -1.148, 0.495, -1.024, 0.782, -0.043, 0
2523578, 0.721, -1.958, 1.56, -0.927, 0.673, 0.015, 0
2523598, 0.712, -2.213, 2.582, -1.059, 0.265, 0.101, 0
2523618, -0.088, -1.144, 3.784, -1.006, 0.087, 0.211, 0
2523638, -0.62, -0.547, 5.124, -0.756, 0.206, 0.32, 0
2523658, -0.597, -0.955, 5.877, -0.743, 0.469, 0.46, 0
2523678, 0.609, -1.201, 7.169, -0.767, 0.301, 0.529, 0
2523698, 0.693, -1.528, 7.217, -0.758, 0.07, 0.57, 0
2523718, 0.947, -2.202, 6.809, -0.806, -0.163, 0.574, 0
2523738, 0.716, -2.091, 5.898, -1.001, -0.516, 0.538, 0
2523758, 0.119, -1.2, 4.684, -0.984, -0.661, 0.408, 0
2523778, -0.606, -0.491, 3.341, -0.563, -0.462, 0.186, 0
2523798, -0.619, -0.302, 2.185, -0.112, -0.138, 0.015, 0
2523818, -0.39, -0.236, 1.519, -0.039, 0.042, -0.016, 0
2523838, -0.361, 0.018, 1.303, -0.094, 0.145, 0.006, 0
2523858, 0.015, 0.0, 1.063, -0.025, 0.244, 0.029, 0
2523878, 0.066, 0.06, 0.643, 0.089, 0.241, -0.012, 0
2523898, 0.067, -0.208, 0.174, 0.197, 0.185, -0.039, 0
2523918, -0.01, -0.309, -0.389, 0.135, 0.111, 0.012, 0
2523938, -0.179, -0.191, -0.88, 0.032, 0.07, 0.068, 0
2523958, -0.082, -0.202, -0.845, -0.005, 0.131, 0.091, 0
2523978, -0.054, -0.319, -0.778, 0.043, 0.156, 0.048, 0
2523998, -0.02, -0.409, -0.741, 0.071, 0.197, 0.016, 0
2524018, 0.042, -0.545, -0.649, -0.016, 0.161, 0.031, 0
2524038, -0.15, -0.427, -0.395, -0.156, 0.093, 0.059, 0
2524058, -0.13, -0.269, -0.311, -0.223, 0.095, 0.065, 0
2524078, -0.079, -0.17, -0.105, -0.298, 0.119, 0.082, 1
2524098, -0.174, -0.201, -0.086, -0.309, 0.115, 0.111, 1
2524118, -0.525, -0.124, 0.057, -0.396, 0.206, 0.142, 1
2524138, -0.326, -0.166, 0.515, -0.423, 0.412, 0.218, 1
2524158, 0.174, -0.004, 1.103, -0.215, 0.284, 0.16, 1
2524178, -0.012, -0.315, 1.43, -0.018, 0.179, 0.058, 1
2524198, -0.048, -0.514, 1.719, 0.091, 0.174, 0.0, 1
2524218, -0.045, -0.619, 2.08, 0.16, 0.136, -0.036, 1
2524238, -0.066, -0.667, 2.535, 0.175, 0.101, -0.017, 1
2524258, -0.031, -0.988, 2.946, 0.095, -0.005, -0.027, 1
2524278, 0.236, -1.085, 3.321, -0.026, -0.169, -0.018, 1
2524298, 0.538, -0.874, 3.407, -0.13, -0.429, -0.031, 1
2524318, 0.12, -0.889, 3.154, -0.223, -0.608, -0.033, 1
2524338, -0.396, -0.984, 3.026, -0.295, -0.583, -0.003, 1
2524358, -0.829, -0.816, 2.916, -0.238, -0.318, -0.014, 1
2524378, -0.925, -0.458, 2.752, 0.017, 0.088, -0.049, 1
2524398, -0.409, -0.32, 2.294, 0.154, 0.302, -0.051, 1
2524418, -0.249, -0.477, 1.963, 0.062, 0.198, 0.037, 1
2524438, -0.337, -0.585, 1.931, -0.188, -0.103, 0.197, 1
2524458, -0.292, -0.149, 1.992, -0.205, -0.221, 0.291, 1
2524478, -0.302, -0.184, 1.773, 0.158, 0.043, 0.257, 1
2524498, -0.278, -0.488, 1.199, 0.566, 0.398, 0.224, 1
2524518, 0.525, -0.875, 0.473, 0.656, 0.24, 0.202, 1
2524538, 0.777, -0.859, -0.168, 0.346, -0.314, 0.208, 1
2524558, 0.073, -0.15, -0.721, 0.05, -0.676, 0.23, 1
2524578, -0.975, 0.51, -1.244, 0.231, -0.47, 0.288, 1
2524598, -1.118, 0.264, -1.76, 0.588, 0.025, 0.318, 1
2524618, -0.099, -0.258, -2.105, 0.653, 0.072, 0.27, 1
2524638, 0.57, -0.651, -2.49, 0.109, -0.662, 0.167, 1
2524658, -1.057, 1.217, -3.085, 0.078, -0.741, 0.162, 1
2524678, -1.52, 1.531, -3.625, 0.501, -0.373, 0.161, 1
2524698, -1.254, 0.63, -3.99, 0.81, 0.018, 0.248, 1
2524718, -0.374, -0.114, -3.787, 0.664, 0.176, 0.306, 1
2524738, 0.111, -0.405, -3.463, 0.279, -0.006, 0.303, 1
2524758, 0.142, -0.104, -3.116, 0.028, -0.102, 0.235, 1
2524778, 0.001, 0.331, -2.962, 0.069, -0.145, 0.084, 1
2524798, -0.563, 0.482, -2.962, 0.18, -0.109, 0.039, 1
2524818, -0.502, 0.57, -2.6, 0.191, -0.006, 0.071, 1
2524838, -0.227, 0.335, -2.132, 0.117, 0.015, 0.122, 1
2524858, 0.076, 0.204, -1.504, 0.125, 0.023, 0.134, 1
2524878, 0.231, -0.15, -1.243, 0.211, -0.003, 0.091, 1
2524898, 0.104, -0.236, -1.188, 0.151, -0.023, 0.036, 1
2524918, 0.039, 0.026, -1.039, 0.039, -0.056, 0.04, 0
2524938, -0.289, 0.165, -1.032, -0.073, -0.025, 0.056, 0
2524958, -0.022, 0.114, -0.771, -0.074, 0.04, 0.112, 0
2524978, 0.152, -0.254, -0.699, -0.053, 0.094, 0.13, 0
2524998, 0.225, -0.585, -0.756, -0.155, 0.118, 0.131, 0
2525018, 0.011, -0.357, -0.746, -0.317, 0.139, 0.117, 0
2525038, 0.005, 0.087, -0.38, -0.329, 0.175, 0.105, 0
2525058, 0.009, -0.055, -0.126, -0.163, 0.126, 0.089, 0
2525078, 0.102, -0.166, -0.036, -0.116, 0.048, 0.082, 0
2525098, -0.022, -0.204, -0.004, -0.102, -0.051, 0.056, 0
2525118, -0.14, -0.223, -0.06, -0.105, -0.073, 0.053, 0
2525138, -0.082, -0.102, -0.127, -0.119, -0.043, 0.051, 0
2525158, -0.022, -0.005, -0.167, -0.081, -0.058, 0.054, 0
2525178, 0.072, -0.039, -0.215, -0.054, -0.09, 0.039, 0
2525198, 0.072, -0.114, -0.467, -0.016, -0.119, 0.005, 0
2525218, 0.018, -0.12, -0.916, 0.014, -0.106, -0.036, 0
2525238, 0.018, 0.062, -1.338, 0.083, -0.086, -0.064, 0
2525258, 0.249, 0.19, -1.927, 0.159, -0.113, -0.141, 0
2525278, 0.044, 0.296, -2.919, 0.153, -0.116, -0.223, 0
2525298, -0.224, 0.788, -3.989, 0.179, -0.067, -0.287, 0
2525318, -0.788, 1.196, -5.275, 0.241, 0.13, -0.29, 0
2525338, -0.802, 1.469, -6.303, 0.528, 0.442, -0.275, 0
2525358, -0.836, 0.721, -7.046, 0.9, 0.84, -0.373, 0
2525378, -0.305, 0.182, -7.34, 0.847, 0.876, -0.501, 0
2525398, -0.415, -0.272, -7.469, 0.324, 0.521, -0.549, 0
2525418, -0.746, -0.356, -6.439, -0.083, 0.309, -0.478, 0
2525438, -0.219, -0.405, -4.555, -0.12, 0.163, -0.472, 0
2525458, -0.475, -0.972, -3.33, -0.077, 0.19, -0.486, 0
2525478, -0.842, -2.114, -3.077, -0.426, 0.566, -0.466, 0
2525498, 0.051, -2.126, -2.363, -0.896, 0.571, -0.331, 0
2525518, 0.221, -2.584, -1.562, -1.414, 0.252, -0.214, 0
2525538, 0.242, -2.454, -0.177, -1.67, 0.097, -0.105, 0
2525558, 0.386, -2.141, 1.066, -1.635, -0.119, -0.078, 0
2525578, -0.353, -1.239, 2.065, -1.283, -0.011, -0.092, 0
2525598, -0.322, -0.59, 3.097, -0.751, 0.224, -0.099, 0
2525618, 0.12, -1.026, 3.651, -1.029, -0.028, 0.173, 0
2525638, 0.056, -0.721, 4.8, -1.51, -0.417, 0.465, 0
2525658, -0.646, 0.207, 5.611, -1.554, -0.396, 0.594, 0
2525678, -0.749, 0.323, 6.24, -0.707, 0.141, 0.453, 0
2525698, 0.308, -0.845, 6.207, 0.1, 0.58, 0.252, 0
2525718, 0.809, -1.944, 5.386, 0.125, 0.41, 0.183, 0
2525738, 0.639, -1.804, 4.463, -0.417, -0.042, 0.29, 0
2525758, 0.016, -0.717, 3.995, -0.744, -0.338, 0.359, 0
2525778, -0.339, 0.134, 3.753, -0.574, -0.279, 0.285, 0
2525798, -0.292, -0.225, 3.052, -0.168, -0.084, 0.143, 0
2525818, 0.049, -0.693, 2.27, -0.024, -0.059, 0.098, 0
2525838, 0.278, -0.964, 1.442, -0.224, -0.279, 0.16, 0
2525858, 0.093, -1.037, 0.931, -0.59, -0.543, 0.271, 0
2525878, -0.754, -0.397, 0.647, -0.736, -0.629, 0.285, 0
2525898, -0.984, 0.39, 0.349, -0.423, -0.281, 0.16, 0
2525918, -0.542, -0.138, -0.207, 0.073, 0.172, -0.005, 0
2525938, -0.266, -0.402, -0.43, 0.128, 0.308, -0.026, 0
2525958, 0.116, -0.355, -0.36, -0.06, 0.183, 0.031, 0
2525978, -0.057, -0.029, -0.291, -0.219, -0.033, 0.077, 0
2525998, -0.369, 0.099, -0.24, -0.18, -0.036, 0.062, 0
2526018, -0.156, -0.038, -0.138, -0.078, 0.081, 0.042, 0
2526038, -0.088, -0.316, -0.213, -0.066, 0.119, 0.045, 0
2526058, -0.202, -0.297, -0.176, -0.163, 0.155, 0.062, 0
2526078, -0.161, -0.344, -0.235, -0.335, 0.208, 0.106, 1
2526098, -0.193, -0.095, -0.304, -0.54, 0.379, 0.221, 1
2526118, -0.63, -0.062, -0.019, -0.522, 0.683, 0.255, 1
2526138, -0.254, 0.056, 0.637, -0.286, 0.632, 0.215, 1
2526158, 0.295, -0.092, 1.137, -0.028, 0.284, 0.099, 1
2526178, -0.039, -0.314, 1.161, 0.06, 0.135, 0.034, 1
2526198, -0.378, -0.421, 1.368, 0.091, 0.237, 0.036, 1
2526218, -0.16, -0.633, 1.758, 0.098, 0.266, 0.043, 1
2526238, -0.078, -0.801, 2.118, 0.0, 0.247, 0.086, 1
2526258, 0.202, -1.132, 2.676, -0.083, 0.142, 0.08, 1
2526278, 0.326, -1.725, 3.201, -0.131, -0.04, 0.028, 1
2526298, -0.048, -2.523, 3.589, -0.306, -0.137, -0.007, 1
2526318, 0.395, -2.143, 4.335, -0.466, -0.229, -0.037, 1
2526338, 1.562, -1.769, 4.806, -0.583, -0.653, -0.124, 1
2526358, 1.338, -2.213, 4.494, -0.825, -1.204, -0.177, 1
2526378, 0.247, -1.934, 3.943, -1.064, -1.45, -0.175, 1
2526398, -0.433, -1.23, 3.346, -1.08, -1.331, -0.23, 1
2526418, -0.847, -0.211, 2.64, -0.764, -0.893, -0.295, 1
2526438, -1.526, 0.98, 2.16, -0.028, -0.164, -0.258, 1
2526458, -0.57, 0.933, 2.066, 0.717, 0.276, -0.306, 1
2526478, -0.389, 0.45, 1.467, 1.113, 0.246, -0.224, 1
2526498, -0.984, 0.244, 0.896, 1.252, 0.237, -0.05, 1
2526518, -0.805, 0.496, 0.398, 1.295, 0.483, 0.123, 1
2526538, 0.111, 0.301, -0.229, 1.185, 0.467, 0.206, 1
2526558, 0.66, -0.272, -1.047, 0.968, 0.059, 0.316, 1
2526578, -0.016, -0.697, -2.043, 0.659, -0.301, 0.349, 1
2526598, -0.761, -0.016, -2.667, 0.388, -0.235, 0.501, 1
2526618, -0.231, 0.516, -3.198, 0.323, 0.044, 0.566, 1
2526638, -0.354, 0.748, -3.613, 0.262, 0.065, 0.526, 1
2526658, -1.1, 0.701, -3.735, 0.224, -0.042, 0.545, 1
2526678, -1.489, 0.339, -3.725, 0.229, 0.124, 0.633, 1
2526778, -0.549, 0.212, -3.536, 0.229, -0.106, 0.084, 1
2526798, -0.788, 0.938, -2.742, 0.205, -0.034, 0.106, 1
2526818, -0.72, 0.895, -2.063, 0.361, 0.18, 0.172, 1
2526838, 0.167, 0.152, -1.449, 0.522, 0.216, 0.172, 1
2526858, 0.501, -0.519, -1.335, 0.45, 0.019, 0.065, 1
2526878, 0.456, -0.31, -1.283, 0.182, -0.195, -0.029, 0
2526898, -0.394, 0.357, -1.066, 0.025, -0.238, -0.065, 0
2526918, -0.514, 0.601, -0.753, 0.078, -0.158, -0.025, 0
2526938, -0.221, 0.457, -0.627, 0.155, -0.133, 0.043, 0
2526958, -0.085, 0.117, -0.735, 0.173, -0.095, 0.089, 0
2526978, -0.105, -0.31, -0.761, 0.144, -0.006, 0.114, 0
2526998, 0.027, -0.505, -0.572, 0.012, 0.082, 0.135, 0
2527018, 0.158, -0.521, -0.276, -0.105, 0.094, 0.141, 0
2527038, 0.121, -0.327, -0.089, -0.117, 0.078, 0.13, 0
2527058, 0.115, -0.204, -0.059, -0.081, 0.107, 0.135, 0
2527078, 0.075, -0.252, -0.088, -0.057, 0.072, 0.106, 0
2527098, 0.093, -0.256, -0.069, -0.081, 0.015, 0.081, 0
2527118, 0.135, -0.171, 0.017, -0.064, -0.047, 0.048, 0
2527138, 0.0, -0.088, -0.119, -0.053, -0.026, 0.04, 0
2527158, -0.022, -0.023, -0.236, -0.052, -0.01, 0.026, 0
2527178, -0.025, -0.021, -0.334, -0.091, 0.006, 0.041, 0
2527198, 0.006, -0.015, -0.392, -0.116, 0.009, 0.038, 0
2527218, 0.022, 0.127, -0.432, -0.059, 0.014, 0.03, 0
2527238, -0.001, 0.027, -0.491, 0.029, 0.026, 0.021, 0
2527258, -0.006, -0.016, -0.697, 0.074, 0.032, 0.01, 0
2527278, -0.082, -0.06, -1.187, 0.061, 0.073, -0.01, 0
2527298, 0.042, -0.019, -1.551, 0.062, 0.064, -0.049, 0
2527318, 0.292, -0.116, -2.111, 0.061, -0.025, -0.145, 0
2527338, 0.191, 0.136, -3.053, 0.049, -0.141, -0.277, 0
2527358, -0.479, 0.608, -4.385, -0.043, -0.117, -0.318, 0
2527378, -0.631, 0.941, -5.376, -0.223, -0.093, -0.27, 0
2527398, -0.751, 0.895, -5.977, -0.38, -0.024, -0.204, 0
2527418, -0.62, 0.473, -6.256, -0.521, 0.061, -0.166, 0
2527438, -0.334, 0.104, -6.302, -0.689, 0.059, -0.177, 0
2527458, -0.692, -0.297, -6.262, -0.936, 0.098, -0.137, 0
2527478, -1.069, -0.429, -5.559, -1.087, 0.315, -0.083, 0
2527498, -0.559, -0.45, -4.482, -1.044, 0.515, -0.078, 0
2527518, -0.287, -1.16, -3.7, -1.07, 0.519, -0.09, 0
2527538, -0.098, -1.546, -2.845, -1.169, 0.406, -0.1, 0
2527558, -0.064, -1.386, -2.02, -1.086, 0.35, -0.109, 0
2527578, -0.154, -0.989, -0.406, -0.521, 0.477, -0.21, 0
2527598, -0.254, -1.468, -0.21, -0.277, 0.642, -0.255, 0
2527618, 0.021, -1.88, 0.452, -0.335, 0.688, -0.161, 0
2527638, -0.01, -1.638, 1.544, -0.46, 0.532, -0.096, 0
2527658, 0.237, -1.129, 2.594, -0.318, 0.53, -0.116, 0
2527678, 0.087, -0.902, 3.334, -0.107, 0.406, -0.137, 0
2527698, -0.618, -0.521, 3.96, -0.02, 0.345, -0.076, 0
2527718, -0.475, -0.22, 4.804, 0.025, 0.46, 0.072, 0
2527738, -0.69, -0.036, 5.544, 0.058, 0.376, 0.16, 0
2527758, -0.428, -0.552, 6.034, 0.032, 0.33, 0.241, 0
2527778, -0.036, -0.934, 6.241, -0.126, 0.182, 0.283, 0
2527798, -0.117, -0.755, 5.915, -0.273, -0.031, 0.316, 0
2527818, 0.033, -0.638, 5.189, -0.341, -0.228, 0.345, 0
2527838, -0.406, -0.699, 3.979, -0.396, -0.355, 0.342, 0
2527858, -0.556, -0.424, 3.012, -0.445, -0.319, 0.337, 0
2527878, -0.394, -0.583, 2.429, -0.377, -0.201, 0.29, 0
2527898, -0.174, -0.592, 2.161, -0.266, -0.15, 0.232, 0
2527918, 0.094, -0.641, 1.789, -0.102, -0.117, 0.135, 0
2527938, 0.144, -1.126, 1.156, -0.053, -0.148, 0.084, 0
2527958, 0.012, -0.77, 0.552, -0.133, -0.224, 0.061, 0
2527978, -0.075, -0.562, -0.062, -0.221, -0.238, 0.067, 0
2527998, -0.473, -0.13, -0.681, -0.238, -0.273, 0.047, 0
2528018, -0.555, 0.126, -0.902, -0.158, -0.152, 0.025, 0
2528038, -0.384, 0.007, -0.942, -0.031, 0.037, -0.01, 0
2528058, -0.103, -0.195, -1.04, -0.114, 0.026, 0.028, 0
2528078, -0.234, -0.275, -1.043, -0.221, -0.023, 0.069, 0
2528098, -0.257, -0.146, -0.677, -0.265, 0.001, 0.083, 0
2528118, -0.326, 0.067, -0.318, -0.122, 0.136, 0.026, 0
2528138, 0.004, -0.151, -0.123, -0.05, 0.163, -0.004, 0
2528158, -0.028, -0.198, -0.057, -0.126, 0.096, 0.015, 0
2528178, 0.032, -0.289, 0.179, -0.263, 0.002, 0.04, 1
2528198, -0.493, -0.325, 0.075, -0.412, 0.158, 0.115, 1
2528218, -0.919, -0.293, -0.09, -0.544, 0.475, 0.216, 1
2528238, -0.687, -0.131, 0.094, -0.634, 0.72, 0.278, 1
2528258, -0.153, -0.244, 0.874, -0.481, 0.572, 0.232, 1
2528278, 0.127, -0.333, 1.553, -0.258, 0.168, 0.107, 1
2528298, 0.018, -0.585, 1.716, -0.148, 0.017, 0.065, 1
2528318, -0.145, -0.714, 2.065, -0.077, 0.061, 0.013, 1
2528338, -0.212, -0.894, 2.431, 0.038, 0.09, -0.033, 1
2528358, -0.365, -0.733, 2.948, 0.21, 0.179, -0.117, 1
2528378, -0.422, -0.685, 3.412, 0.283, 0.257, -0.156, 1
2528398, -0.004, -1.151, 3.757, 0.122, 0.111, -0.092, 1
2528418, 0.544, -0.975, 4.209, -0.18, -0.279, -0.037, 1
2528438, -0.058, -0.621, 4.203, -0.355, -0.571, 0.051, 1
2528458, -0.843, -0.597, 3.923, -0.403, -0.584, 0.073, 1
2528478, -0.957, 0.096, 3.572, -0.101, -0.33, 0.015, 1
2528498, -1.023, 0.575, 3.142, 0.423, -0.124, -0.011, 1
2528518, -0.808, 0.404, 2.925, 0.877, -0.057, 0.003, 1
2528538, -0.619, -0.419, 2.277, 0.879, -0.084, 0.201, 1
2528558, 0.204, -1.673, 0.69, 0.032, -0.339, 0.339, 1
2528578, -0.367, -0.82, 0.53, -0.129, -0.326, 0.361, 1
2528598, -0.82, -0.199, 0.013, 0.376, 0.028, 0.297, 1
2528618, 0.118, -0.585, -0.721, 1.043, 0.325, 0.221, 1
2528638, 0.926, -2.251, -1.884, 1.017, 0.047, 0.178, 1
2528658, 0.456, -2.894, -3.101, 0.006, -0.594, 0.18, 1
2528678, -0.943, -0.543, -3.409, -0.98, -0.804, 0.241, 1
2528698, -0.468, 1.641, -2.538, -0.733, -0.68, 0.236, 1
2528718, -0.77, 1.832, -2.128, 0.387, -0.755, 0.07, 1
2528738, -1.206, 0.347, -3.012, 1.289, -0.502, 0.018, 1
2528758, -0.278, -1.12, -3.871, 1.282, -0.118, 0.04, 1
2528778, -0.265, -1.124, -3.69, 0.588, -0.298, 0.087, 1
2528798, -1.013, -0.117, -3.006, -0.072, -0.514, 0.169, 1
2528818, -0.87, 0.642, -2.085, -0.207, -0.362, 0.259, 1
2528838, -0.384, 0.495, -1.502, 0.109, -0.084, 0.247, 1
2528858, 0.017, -0.256, -1.568, 0.449, 0.01, 0.171, 1
2528878, 0.159, -0.733, -1.844, 0.485, -0.117, 0.105, 1
2528898, 0.021, -0.848, -1.9, 0.218, -0.275, 0.075, 1
2528918, -0.004, -0.257, -1.519, -0.102, -0.296, 0.069, 1
2528938, -0.095, 0.086, -1.448, -0.15, -0.256, 0.037, 1
2528958, -0.233, 0.486, -1.621, -0.032, -0.12, -0.001, 1
2528978, -0.225, 0.463, -1.625, 0.155, -0.03, -0.001, 1
2528998, -0.216, 0.199, -1.55, 0.263, 0.013, 0.015, 1
2529018, -0.215, 0.053, -1.49, 0.268, 0.037, 0.034, 1
2529038, -0.21, 0.133, -1.522, 0.185, 0.101, 0.072, 0
2529058, -0.156, 0.066, -1.431, 0.169, 0.093, 0.082, 0
2529078, -0.078, -0.13, -1.348, 0.195, 0.06, 0.076, 0
2529098, 0.001, -0.336, -1.392, 0.141, 0.069, 0.072, 0
2529118, 0.075, -0.343, -1.319, 0.032, 0.09, 0.083, 0
2529138, -0.011, -0.37, -1.238, -0.105, 0.089, 0.067, 0
2529158, -0.141, -0.108, -1.023, -0.176, 0.127, 0.071, 0
2529178, -0.043, 0.094, -0.696, -0.122, 0.151, 0.074, 0
2529198, -0.076, -0.023, -0.586, -0.054, 0.178, 0.078, 0
2529218, 0.119, -0.189, -0.464, -0.065, 0.131, 0.071, 0
2529238, 0.042, -0.27, -0.393, -0.123, 0.076, 0.071, 0
2529258, 0.016, -0.284, -0.206, -0.15, 0.065, 0.067, 0
2529278, 0.043, -0.141, -0.057, -0.128, 0.09, 0.06, 0
2529298, -0.015, -0.068, -0.106, -0.068, 0.096, 0.037, 0
2529318, 0.019, -0.123, -0.243, -0.053, 0.081, 0.023, 0
2529338, 0.023, -0.31, -0.479, -0.085, 0.06, 0.005, 0
2529358, -0.051, -0.141, -0.726, -0.083, 0.075, -0.009, 0
2529378, -0.282, 0.262, -1.156, 0.018, 0.109, -0.019, 0
2529398, -0.306, 0.379, -1.744, 0.089, 0.152, -0.032, 0
2529418, -0.156, 0.304, -2.468, 0.098, 0.136, -0.08, 0
2529438, -0.315, 0.468, -3.321, 0.104, 0.144, -0.132, 0
2529458, -0.699, 0.848, -4.36, 0.224, 0.306, -0.153, 0
2529478, -0.903, 0.914, -5.349, 0.402, 0.527, -0.186, 0
2529498, -0.435, 0.047, -6.202, 0.29, 0.541, -0.225, 0
2529518, -0.528, -0.377, -6.703, -0.062, 0.508, -0.271, 0
2529538, -0.753, -0.582, -5.87, 0.078, 0.876, -0.341, 0
2529558, 0.001, -1.146, -4.797, 0.238, 1.062, -0.444, 0
2529578, 0.573, -1.683, -4.012, 0.109, 0.812, -0.558, 0
2529598, 0.218, -2.201, -3.829, -0.458, 0.405, -0.59, 0
2529618, -0.24, -1.305, -3.08, -1.038, 0.26, -0.481, 0
2529638, -0.483, -0.77, -2.065, -1.159, 0.324, -0.419, 0
2529658, -0.55, -0.497, -0.91, -0.896, 0.579, -0.376, 0
2529678, 0.17, -1.374, -0.106, -0.684, 0.733, -0.334, 0
2529698, 0.912, -1.709, 0.832, -0.915, 0.453, -0.175, 0
2529718, 0.613, -1.552, 1.618, -1.189, 0.022, -0.032, 0
2529738, -0.262, -1.088, 2.132, -1.287, -0.05, 0.078, 0
2529758, -0.444, -0.751, 2.661, -1.255, 0.129, 0.193, 0
2529778, -0.334, -0.505, 3.446, -1.27, 0.244, 0.341, 0
2529798, -0.325, -0.666, 4.192, -1.283, 0.271, 0.467, 0
2529818, -0.276, -0.933, 4.922, -1.193, 0.365, 0.518, 0
2529838, -0.063, -1.327, 5.202, -1.065, 0.362, 0.494, 0
2529858, -0.109, -1.441, 5.449, -1.08, 0.269, 0.479, 0
2529878, 0.163, -1.238, 5.607, -1.018, 0.066, 0.433, 0
2529898, -0.15, -0.955, 5.237, -0.873, -0.124, 0.339, 0
2529918, -0.702, -0.607, 4.55, -0.654, -0.161, 0.224, 0
2529938, -0.869, -0.55, 3.786, -0.436, -0.076, 0.146, 0
2529958, -0.527, -0.606, 3.178, -0.378, -0.021, 0.124, 0
2529978, -0.43, -0.666, 2.816, -0.422, -0.18, 0.143, 0
2529998, -0.724, -0.403, 2.443, -0.413, -0.284, 0.111, 0
2530018, -0.764, -0.353, 1.937, -0.101, -0.053, -0.032, 0
2530038, -0.429, -0.367, 1.313, -0.013, 0.018, -0.062, 0
2530058, -0.241, -0.641, 0.852, -0.072, -0.091, -0.013, 0
2530078, -0.382, -0.545, 0.418, -0.177, -0.194, 0.012, 0
2530098, -0.352, -0.142, 0.15, -0.153, -0.144, 0.008, 0
2530118, -0.398, 0.019, -0.137, -0.066, -0.081, -0.011, 0
2530138, -0.351, 0.052, -0.254, 0.007, -0.054, -0.025, 0
2530158, -0.192, -0.144, -0.491, -0.059, -0.069, 0.031, 0
2530178, -0.198, -0.284, -0.635, -0.177, -0.096, 0.083, 0
2530198, -0.404, -0.16, -0.618, -0.175, -0.008, 0.095, 0
2530218, -0.235, -0.198, -0.45, -0.114, 0.066, 0.072, 0
2530238, -0.02, -0.528, -0.34, -0.149, 0.062, 0.053, 1
2530258, -0.162, -0.633, -0.405, -0.257, 0.184, 0.105, 1
2530278, -0.455, -0.6, -0.599, -0.417, 0.361, 0.191, 1
2530298, -0.826, -0.317, -0.337, -0.476, 0.609, 0.268, 1
2530318, -0.184, -0.093, 0.443, -0.286, 0.485, 0.203, 1
2530338, 0.078, -0.398, 0.921, -0.13, 0.176, 0.119, 1
2530358, 0.049, -0.928, 1.335, -0.185, 0.095, 0.088, 1
2530378, 0.307, -1.055, 1.978, -0.178, -0.01, 0.053, 1
2530398, 0.375, -1.247, 2.372, -0.259, -0.104, 0.065, 1
2530418, 0.196, -1.262, 2.815, -0.293, -0.245, 0.021, 1
2530438, -0.421, -1.079, 3.187, -0.082, -0.198, -0.084, 1
2530458, -0.667, -0.922, 3.414, 0.229, 0.122, -0.186, 1
2530478, 0.225, -0.784, 3.673, 0.48, 0.227, -0.288, 1
2530498, 0.194, -1.023, 3.512, 0.392, -0.114, -0.271, 1
2530518, 0.003, -0.727, 3.113, 0.204, -0.316, -0.188, 1
2530538, -0.657, 0.39, 2.847, 0.274, -0.417, -0.241, 1
2530558, -0.897, 0.243, 2.043, 0.83, -0.161, -0.329, 1
2530578, -0.965, -0.162, 1.045, 1.265, 0.083, -0.389, 1
2530598, -0.503, -0.246, 0.421, 1.392, 0.152, -0.322, 1
2530618, -0.601, -0.607, -0.008, 1.186, 0.007, -0.172, 1
2530638, 0.061, -0.762, -0.022, 0.671, -0.066, 0.075, 1
2530658, 0.519, -0.794, 0.03, 0.113, -0.187, 0.282, 1
2530678, 0.498, -0.768, -0.228, -0.258, -0.393, 0.354, 1
2530698, 0.063, -0.501, -0.409, -0.312, -0.624, 0.356, 1
2530718, -0.382, -0.474, -0.44, -0.069, -0.501, 0.278, 1
2530738, -0.019, -0.302, -0.499, 0.333, -0.029, 0.221, 1
2530758, 0.41, -0.601, -1.295, 0.652, 0.111, 0.087, 1
2530778, 0.104, -0.54, -2.198, 0.569, -0.103, 0.021, 1
2530798, -0.493, -0.575, -2.557, 0.169, -0.246, 0.125, 1
2530818, -0.679, -0.236, -2.286, -0.284, -0.307, 0.257, 1
2530838, -0.463, 0.308, -2.073, -0.404, -0.309, 0.316, 1
2530858, -0.309, 0.502, -2.252, -0.18, -0.291, 0.244, 1
2530878, -0.568, 0.519, -2.564, 0.124, -0.178, 0.177, 1
2530898, -0.856, 0.388, -2.853, 0.263, -0.051, 0.169, 1
2530918, -0.794, 0.202, -2.712, 0.167, 0.009, 0.248, 1
2530938, -0.109, 0.202, -2.292, -0.047, 0.0, 0.321, 1
2530958, -0.021, 0.503, -1.977, -0.119, -0.095, 0.277, 1
2530978, -0.287, 0.641, -1.884, 0.131, -0.144, 0.219, 1
2530998, -0.546, 0.434, -2.034, 0.498, 0.08, 0.219, 1
2531018, -0.177, 0.126, -2.218, 0.44, 0.178, 0.226, 1
2531038, 0.355, -0.328, -2.289, 0.169, 0.034, 0.218, 1
2531058, 0.542, -0.305, -2.041, -0.077, -0.221, 0.162, 1
2531078, 0.036, 0.125, -1.8, -0.095, -0.291, 0.131, 0
2531098, -0.23, 0.489, -1.657, 0.096, -0.092, 0.138, 0
2531118, -0.154, 0.165, -1.538, 0.225, 0.097, 0.169, 0
2531138, 0.232, -0.41, -1.403, 0.076, 0.123, 0.189, 0
2531158, 0.326, -0.463, -1.076, -0.084, 0.084, 0.174, 0
2531178, 0.304, -0.247, -0.72, -0.053, 0.058, 0.124, 0
2531198, 0.246, -0.337, -0.472, -0.022, 0.061, 0.097, 0
2531218, 0.127, -0.335, -0.411, -0.1, 0.098, 0.098, 0
2531238, 0.121, -0.279, -0.371, -0.2, 0.092, 0.109, 0
2531258, -0.058, -0.127, -0.38, -0.236, 0.1, 0.114, 0
2531278, 0.003, 0.021, -0.247, -0.165, 0.079, 0.107, 0
2531298, 0.063, -0.141, -0.197, -0.105, 0.029, 0.081, 0
2531318, 0.04, -0.203, -0.155, -0.083, -0.004, 0.064, 0
2531338, -0.074, -0.18, -0.202, -0.116, -0.003, 0.071, 0
2531358, -0.048, -0.031, -0.104, -0.114, -0.01, 0.078, 0
2531378, -0.022, -0.052, -0.113, -0.125, 0.011, 0.075, 0
2531398, 0.095, -0.023, -0.055, -0.084, -0.036, 0.058, 0
2531418, -0.017, -0.08, -0.259, -0.084, -0.048, 0.059, 0
2531438, 0.06, -0.019, -0.367, -0.062, -0.093, 0.039, 0
2531458, 0.026, 0.0, -0.69, -0.007, -0.098, 0.005, 0
2531478, 0.047, 0.01, -1.16, 0.065, -0.095, -0.067, 0
2531498, -0.049, 0.486, -2.789, 0.109, -0.108, -0.156, 0
2531518, -0.044, 0.749, -4.056, 0.135, -0.108, -0.227, 0
2531538, -0.782, 0.928, -5.273, 0.13, -0.084, -0.289, 0
2531558, -0.96, 1.023, -5.853, 0.048, 0.108, -0.226, 0
2531578, -0.51, 0.769, -5.993, -0.025, 0.297, -0.153, 0
2531598, -0.497, 0.44, -6.241, -0.064, 0.39, -0.176, 0
2531618, -0.939, 0.392, -6.3, -0.001, 0.507, -0.215, 0
2531638, -0.826, -0.282, -5.837, -0.087, 0.641, -0.177, 0
2531658, -0.418, -1.053, -4.562, -0.317, 0.722, -0.114, 0
2531678, 0.17, -1.197, -3.018, -0.572, 0.725, -0.084, 0
2531698, 0.56, -1.289, -1.898, -0.621, 0.595, -0.127, 0
2531718, 0.772, -1.743, -1.337, -0.613, 0.415, -0.188, 0
2531738, 0.571, -2.013, -1.229, -0.795, 0.231, -0.227, 0
2531758, 0.252, -1.748, -0.877, -1.084, 0.034, -0.162, 0
2531778, -0.236, -1.184, -0.232, -1.21, -0.044, -0.073, 0
2531798, -0.503, -0.591, 0.594, -1.106, 0.128, 0.003, 0
2531818, -0.399, -0.647, 1.383, -0.927, 0.268, 0.063, 0
2531838, -0.344, -0.954, 2.101, -0.954, 0.311, 0.186, 0
2531858, -0.267, -1.206, 2.861, -1.152, 0.279, 0.31, 0
2531878, -0.254, -1.209, 3.731, -1.238, 0.29, 0.416, 0
2531898, -0.237, -1.185, 4.121, -1.175, 0.409, 0.4, 0
2531918, -0.02, -1.125, 4.206, -1.026, 0.453, 0.364, 0
2531938, -0.145, -0.888, 4.302, -0.918, 0.327, 0.324, 0
2531958, -0.508, -0.658, 4.324, -0.7, 0.174, 0.305, 0
2531978, -0.677, -0.347, 4.294, -0.489, 0.267, 0.311, 0
2531998, -0.202, -0.555, 4.277, -0.338, 0.226, 0.251, 0
2532018, -0.053, -0.478, 4.169, -0.261, 0.103, 0.25, 0
2532038, -0.002, -0.5, 3.751, -0.287, -0.122, 0.255, 0
2532058, -0.272, -0.474, 3.206, -0.28, -0.236, 0.254, 0
2532078, -0.312, -0.729, 2.483, -0.3, -0.272, 0.252, 0
2532098, -0.317, -0.754, 2.045, -0.241, -0.283, 0.219, 0
2532118, -0.31, -0.718, 1.662, -0.138, -0.23, 0.147, 0
2532138, -0.271, -0.546, 1.329, -0.007, -0.098, 0.095, 0
2532158, -0.109, -0.61, 1.056, -0.007, -0.095, 0.064, 0
2532178, -0.259, -0.558, 0.774, -0.032, -0.076, 0.04, 0
2532198, -0.228, -0.201, 0.406, 0.031, 0.018, -0.012, 0
2532218, -0.122, -0.142, 0.132, 0.061, 0.058, -0.034, 0
2532238, -0.238, -0.086, -0.146, 0.045, 0.122, -0.017, 0
2532258, 0.102, -0.217, -0.142, -0.033, 0.032, -0.004, 0
2532278, 0.052, -0.214, -0.294, -0.131, -0.101, 0.013, 0
2532298, -0.192, -0.235, -0.449, -0.189, -0.078, 0.02, 0
2532318, -0.354, -0.029, -0.465, -0.158, 0.028, 0.026, 1
2532338, -0.412, -0.043, -0.539, -0.106, 0.188, 0.063, 1
2532358, -0.364, -0.472, -0.684, -0.256, 0.287, 0.117, 1
2532378, -0.313, -0.203, -0.416, -0.323, 0.335, 0.161, 1
2532398, -0.056, -0.183, -0.107, -0.317, 0.251, 0.129, 1
2532418, -0.129, -0.144, 0.39, -0.242, 0.175, 0.081, 1
2532438, -0.105, -0.14, 0.847, -0.1, 0.193, 0.015, 1
2532458, -0.17, -0.245, 1.151, 0.05, 0.343, -0.003, 1
2532478, 0.046, -1.01, 1.65, 0.009, 0.241, -0.023, 1
2532498, -0.135, -1.109, 2.158, -0.073, 0.123, -0.039, 1
2532518, -0.303, -1.329, 2.822, -0.169, 0.058, -0.032, 1
2532538, -0.499, -1.163, 3.372, -0.2, 0.139, -0.061, 1
2532558, -0.333, -1.179, 3.653, -0.069, 0.314, -0.117, 1
2532578, -0.409, -1.485, 3.683, 0.047, 0.359, -0.186, 1
2532598, -1.046, -1.695, 3.72, 0.067, 0.328, -0.235, 1
2532618, -0.705, -1.328, 4.151, -0.047, 0.441, -0.157, 1
2532638, 0.802, -1.463, 4.245, -0.243, 0.238, -0.089, 1
2532658, 0.879, -1.707, 3.374, -0.552, -0.5, -0.091, 1
2532678, -0.513, -0.951, 2.162, -0.88, -1.117, -0.062, 1
2532698, -1.302, 0.048, 1.667, -1.017, -1.106, 0.116, 1
2532718, -0.307, 1.133, 1.749, -0.711, -0.58, 0.201, 1
2532738, 0.314, 1.003, 0.959, 0.056, -0.303, 0.069, 1
2532758, -0.387, 0.343, -0.296, 0.684, -0.406, -0.027, 1
2532778, -1.15, 0.158, -1.149, 0.883, -0.374, 0.043, 1
2532798, -0.903, 0.214, -1.375, 0.869, -0.066, 0.208, 1
2532818, -0.179, 0.058, -1.626, 0.753, 0.097, 0.28, 1
2532838, 0.118, 0.212, -1.983, 0.634, -0.071, 0.323, 1
2532858, -0.179, 0.159, -2.373, 0.575, -0.345, 0.298, 1
2532878, -0.267, 0.16, -2.66, 0.518, -0.433, 0.301, 1
2532898, -0.137, -0.075, -2.882, 0.491, -0.43, 0.291, 1
2532918, 0.151, 0.041, -3.219, 0.42, -0.337, 0.221, 1
2532938, -0.033, 0.65, -3.888, 0.4, -0.332, 0.037, 1
2532958, -0.539, 1.008, -4.241, 0.257, -0.357, 0.07, 1
2532978, -0.792, 1.364, -3.721, 0.188, -0.312, 0.152, 1
2532998, -0.731, 1.421, -3.017, 0.227, -0.227, 0.208, 1
2533018, -0.456, 1.295, -2.446, 0.398, -0.137, 0.237, 1
2533038, -0.041, 0.665, -2.026, 0.609, -0.153, 0.189, 1
2533058, 0.014, -0.005, -2.105, 0.522, -0.216, 0.142, 1
2533078, -0.189, -0.012, -2.168, 0.235, -0.271, 0.159, 1
2533098, -0.295, 0.275, -1.913, 0.091, -0.221, 0.21, 1
2533118, -0.062, 0.282, -1.436, 0.161, -0.109, 0.216, 1
2533138, 0.188, 0.006, -1.144, 0.296, -0.071, 0.174, 1
2533158, 0.261, -0.225, -1.098, 0.311, -0.058, 0.136, 0
2533178, 0.14, -0.38, -1.173, 0.196, -0.015, 0.132, 0
2533198, 0.264, -0.515, -1.096, 0.008, -0.056, 0.126, 0
2533218, 0.148, -0.223, -0.845, -0.081, -0.014, 0.133, 0
2533238, -0.006, -0.089, -0.751, -0.097, 0.1, 0.139, 0
2533258, 0.155, -0.147, -0.63, -0.102, 0.142, 0.116, 0
2533278, 0.167, -0.12, -0.362, -0.084, 0.08, 0.062, 0
2533298, 0.0, -0.045, -0.28, -0.083, 0.069, 0.06, 0
2533318, -0.061, -0.01, -0.252, -0.125, 0.122, 0.064, 0
2533338, -0.028, 0.068, -0.163, -0.145, 0.13, 0.072, 0
2533358, -0.019, 0.092, -0.044, -0.072, 0.065, 0.05, 0
2533378, 0.002, -0.018, -0.051, -0.031, 0.003, 0.035, 0
2533398, -0.023, -0.021, -0.087, -0.031, -0.021, 0.018, 0
2533418, -0.165, -0.044, -0.253, -0.045, 0.012, 0.044, 0
2533438, -0.091, -0.023, -0.311, -0.085, 0.058, 0.044, 0
2533458, 0.016, 0.037, -0.411, -0.058, 0.021, 0.027, 0
2533478, -0.022, 0.086, -0.701, -0.039, 0.01, 0.011, 0
2533498, -0.078, 0.146, -1.146, -0.017, 0.007, -0.013, 0
2533518, -0.001, 0.468, -1.773, -0.027, 0.017, -0.028, 0
2533538, -0.393, 1.117, -3.154, 0.07, -0.016, -0.095, 0
2533558, -0.513, 1.352, -4.717, 0.242, 0.118, -0.108, 0
2533578, 0.081, 0.409, -6.071, 0.425, 0.332, -0.139, 0
2533598, 0.185, 0.571, -7.348, 0.145, 0.186, -0.213, 0
2533618, -1.155, 1.617, -7.959, -0.331, -0.186, -0.136, 0
2533638, -1.934, 1.425, -7.388, -0.54, -0.113, 0.048, 0
2533658, -0.972, 0.31, -6.093, -0.55, 0.443, 0.147, 0
2533678, -0.393, -0.404, -4.935, -0.431, 0.905, 0.015, 0
2533698, -0.085, -1.245, -4.118, -0.235, 1.081, -0.138, 0
2533718, 0.035, -1.897, -3.348, -0.359, 0.999, -0.24, 0
2533738, 0.697, -2.236, -2.101, -0.796, 0.739, -0.198, 0
2533758, 0.955, -2.24, -1.075, -1.335, 0.249, -0.145, 0
2533778, 0.241, -1.54, 0.037, -1.736, -0.127, -0.078, 0
2533798, -0.386, -0.639, 0.744, -1.553, -0.152, -0.07, 0
2533818, -0.605, -1.028, 1.271, -1.07, 0.063, -0.095, 0
2533838, 0.129, -1.321, 2.178, -0.808, 0.266, -0.065, 0
2533858, 0.34, -1.282, 3.008, -0.843, 0.044, 0.025, 0
2533878, -0.202, -1.004, 3.723, -0.995, -0.219, 0.228, 0
2533898, -0.317, -1.062, 4.346, -0.993, -0.338, 0.373, 0
2533918, -0.177, -0.846, 4.452, -0.642, -0.119, 0.365, 0
2533938, -0.362, -1.089, 4.11, -0.204, 0.125, 0.262, 0
2533958, -0.38, -1.848, 3.709, -0.026, 0.252, 0.213, 0
2533978, -0.021, -1.811, 3.653, -0.048, 0.24, 0.202, 0
2533998, -0.166, -1.556, 3.692, -0.07, 0.244, 0.196, 0
2534018, -0.324, -1.223, 3.855, 0.036, 0.32, 0.152, 0
2534038, -0.227, -0.981, 3.875, 0.196, 0.375, 0.069, 0
2534058, 0.099, -1.031, 3.489, 0.243, 0.258, 0.027, 0
2534078, -0.041, -1.179, 2.471, 0.017, 0.045, 0.068, 0
2534098, -0.275, -0.805, 1.898, -0.127, -0.073, 0.121, 0
2534118, -0.644, -0.545, 1.576, -0.087, 0.036, 0.106, 0
2534138, -0.394, -0.451, 1.323, 0.1, 0.189, 0.004, 0
2534158, -0.092, -0.509, 0.956, 0.215, 0.209, -0.078, 0
2534178, 0.004, -0.654, 0.646, 0.138, 0.143, -0.076, 0
2534198, -0.124, -0.585, 0.342, 0.007, 0.07, -0.039, 0
2534218, -0.26, -0.26, 0.15, -0.051, 0.034, -0.025, 0
2534238, -0.296, 0.097, 0.087, -0.003, 0.091, -0.023, 0
2534258, -0.176, 0.092, -0.065, 0.114, 0.111, -0.067, 0
2534278, -0.162, -0.202, -0.432, 0.113, 0.084, -0.061, 0
2534298, -0.191, -0.381, -0.708, -0.041, 0.008, 0.0, 0
2534318, -0.455, -0.279, -0.757, -0.176, -0.025, 0.045, 0
2534338, -0.489, -0.188, -0.418, -0.153, 0.062, 0.02, 0
2534358, -0.393, -0.081, -0.158, -0.047, 0.188, -0.018, 0
2534378, -0.222, -0.21, -0.061, -0.102, 0.232, -0.001, 1
2534398, -0.525, -0.161, -0.109, -0.268, 0.328, 0.196, 1
2534418, -0.079, -0.207, 0.679, -0.501, 0.5, 0.309, 1
2534438, 0.204, -0.314, 1.396, -0.364, 0.08, 0.238, 1
2534458, -0.258, -0.491, 1.625, -0.24, -0.135, 0.165, 1
2534478, -0.096, -0.646, 1.912, -0.067, -0.022, 0.104, 1
2534498, 0.145, -1.148, 2.028, 0.097, 0.017, 0.028, 1
2534518, 0.08, -1.357, 2.197, 0.102, -0.046, -0.028, 1
2534538, 0.271, -1.341, 2.36, 0.047, -0.127, -0.051, 1
2534558, 0.539, -1.917, 2.558, -0.155, -0.359, -0.032, 1
2534578, -0.115, -1.697, 3.017, -0.488, -0.676, -0.014, 1
2534598, -0.559, -1.449, 3.452, -0.556, -0.618, -0.026, 1
2534618, 0.489, -1.085, 3.864, -0.453, -0.37, -0.092, 1
2534638, 0.344, -1.135, 3.596, -0.39, -0.418, -0.207, 1
2534658, -0.604, -0.935, 3.184, -0.425, -0.456, -0.185, 1
2534678, -0.614, -0.538, 2.702, -0.407, -0.423, -0.132, 1
2534698, -0.433, -0.132, 2.055, -0.401, -0.5, -0.098, 1
2534718, -0.659, -0.017, 1.569, -0.351, -0.555, -0.058, 1
2534738, -1.14, 0.088, 0.986, -0.241, -0.348, -0.033, 1
2534758, -1.306, 0.342, 0.214, 0.003, 0.026, 0.003, 1
2534778, -1.211, 0.514, -0.027, 0.322, 0.422, 0.112, 1
2534798, -0.021, 0.171, 0.103, 0.714, 0.614, 0.229, 1
2534818, 0.2, -0.427, -0.417, 1.067, 0.395, 0.205, 1
2534838, -0.107, -0.884, -1.364, 1.04, 0.13, 0.244, 1
2534858, 0.188, -0.511, -1.789, 0.642, -0.044, 0.338, 1
2534878, 0.236, -0.153, -1.989, 0.307, -0.26, 0.373, 1
2534898, -0.05, 0.077, -2.46, 0.38, -0.401, 0.288, 1
2534918, -0.642, 0.341, -2.934, 0.745, -0.163, 0.235, 1
2534938, -0.727, 0.17, -3.205, 1.026, 0.169, 0.225, 1
2534958, -0.288, -0.463, -3.2, 0.946, 0.41, 0.265, 1
2534978, 0.78, -0.945, -2.99, 0.488, 0.295, 0.217, 1
2534998, 1.081, -0.421, -3.032, -0.004, -0.234, 0.065, 1
2535018, -0.149, 0.815, -3.353, -0.185, -0.591, -0.006, 1
2535038, -1.75, 1.709, -3.536, -0.043, -0.273, 0.11, 1
2535058, -1.58, 1.67, -3.092, 0.275, 0.173, 0.225, 1
2535078, -0.874, 0.947, -2.72, 0.502, 0.47, 0.257, 1
2535098, 0.199, 0.153, -2.415, 0.511, 0.368, 0.201, 1
2535118, 0.205, -0.302, -2.213, 0.301, 0.106, 0.128, 1
2535138, -0.148, -0.056, -1.987, 0.09, 0.0, 0.095, 1
2535158, -0.337, 0.221, -1.641, 0.085, 0.035, 0.056, 1
2535178, -0.074, 0.202, -1.206, 0.194, 0.006, 0.047, 1
2535198, 0.135, 0.106, -0.943, 0.267, -0.119, 0.014, 0
2535218, -0.039, -0.132, -0.892, 0.23, -0.189, 0.003, 0
2535238, -0.137, -0.144, -0.611, 0.097, -0.168, 0.016, 0
2535258, -0.362, 0.029, -0.493, -0.02, -0.066, 0.075, 0
2535278, -0.073, 0.034, -0.24, -0.004, -0.015, 0.088, 0
2535298, 0.123, -0.018, -0.139, 0.034, 0.003, 0.078, 0
2535318, -0.011, -0.129, -0.192, 0.032, 0.067, 0.082, 0
2535338, -0.028, -0.17, -0.178, -0.024, 0.131, 0.1, 0
2535358, 0.05, -0.127, -0.038, -0.07, 0.142, 0.11, 0
2535378, 0.212, -0.149, -0.008, -0.099, 0.089, 0.072, 0
2535398, -0.006, -0.022, -0.134, -0.062, -0.022, 0.032, 0
2535418, -0.014, 0.021, -0.264, -0.051, 0.026, 0.048, 0
2535438, -0.03, -0.024, -0.282, -0.048, 0.039, 0.052, 0
2535458, -0.003, -0.001, -0.291, -0.051, 0.021, 0.054, 0
2535478, 0.009, 0.018, -0.371, -0.048, 0.004, 0.044, 0
2535498, 0.025, 0.017, -0.479, -0.021, 0.006, 0.022, 0
2535518, -0.015, 0.043, -0.694, 0.002, -0.014, 0.0, 0
2535538, -0.146, 0.07, -1.135, 0.028, -0.026, -0.021, 0
2535558, -0.027, 0.315, -1.629, 0.064, 0.032, -0.045, 0
2535578, -0.079, 0.532, -2.603, 0.186, 0.057, -0.12, 0
2535598, -0.364, 0.911, -3.634, 0.28, 0.117, -0.191, 0
2535618, -0.351, 0.751, -4.282, 0.288, 0.14, -0.195, 0
2535638, -0.343, 0.401, -4.567, 0.043, 0.026, -0.153, 0
2535658, -0.237, 0.201, -4.355, -0.26, -0.108, -0.082, 0
2535678, -0.302, 0.038, -4.065, -0.362, -0.128, -0.061, 0
2535698, -0.462, 0.391, -3.905, -0.21, 0.132, -0.123, 0
2535718, -0.142, -0.019, -3.846, 0.083, 0.419, -0.174, 0
2535738, 0.466, -0.817, -3.612, 0.084, 0.416, -0.17, 0
2535758, 0.724, -1.436, -3.513, -0.317, 0.171, -0.183, 0
2535778, 0.474, -0.934, -3.342, -0.753, -0.034, -0.177, 0
2535798, -0.187, -0.324, -3.395, -0.654, 0.12, -0.242, 0
2535818, -0.13, -0.667, -3.405, -0.394, 0.408, -0.28, 0
2535838, 0.114, -1.219, -3.092, -0.406, 0.466, -0.224, 0
2535858, 0.332, -1.616, -2.363, -0.711, 0.318, -0.113, 0
2535878, 0.16, -1.617, -1.369, -1.205, 0.184, 0.0, 0
2535898, -0.666, -0.607, -0.449, -1.188, 0.527, 0.084, 0
2535918, -0.565, -0.286, 0.638, -1.072, 0.761, 0.186, 0
2535938, 0.022, -0.526, 1.914, -1.06, 0.588, 0.296, 0
2535958, 0.251, -0.622, 2.752, -1.045, 0.272, 0.411, 0
2535978, 0.322, -0.993, 3.392, -0.954, -0.034, 0.463, 0
2535998, -0.147, -1.376, 3.774, -0.811, -0.042, 0.444, 0
2536018, -0.503, -1.307, 4.233, -0.609, 0.222, 0.409, 0
2536038, -0.429, -1.243, 4.742, -0.315, 0.4, 0.319, 0
2536058, 0.25, -1.569, 4.911, -0.265, 0.298, 0.244, 0
2536078, 0.187, -1.67, 4.689, -0.429, 0.003, 0.225, 0
2536098, -0.217, -1.244, 4.28, -0.515, -0.165, 0.174, 0
2536118, -0.639, -0.234, 3.984, -0.403, -0.106, 0.113, 0
2536138, -1.147, 0.441, 3.789, -0.073, 0.152, 0.029, 0
2536158, -0.876, 0.295, 3.269, 0.06, 0.31, 0.035, 0
2536178, -0.247, -0.412, 2.727, -0.158, 0.083, 0.105, 0
2536198, -0.046, -0.531, 2.349, -0.401, -0.287, 0.196, 0
2536218, -0.664, -0.013, 1.866, -0.359, -0.315, 0.17, 0
2536238, -0.656, -0.079, 1.356, -0.135, -0.099, 0.086, 0
2536258, -0.15, -0.284, 0.881, 0.001, -0.028, 0.012, 0
2536278, -0.003, -0.637, 0.358, -0.109, -0.091, 0.032, 0
2536298, 0.1, -0.592, 0.17, -0.248, -0.183, 0.066, 0
2536318, -0.088, -0.207, 0.082, -0.233, -0.23, 0.038, 0
2536338, -0.766, 0.126, -0.112, -0.041, 0.003, -0.012, 0
2536358, -0.517, 0.007, 0.06, 0.072, 0.189, -0.031, 0
2536378, 0.06, -0.396, -0.211, -0.119, 0.045, 0.033, 0
2536398, -0.119, -0.535, -0.703, -0.431, -0.065, 0.112, 0
2536418, -0.397, 0.01, -0.673, -0.69, -0.097, 0.158, 0
2536438, -0.855, 0.336, -0.626, -0.515, 0.034, 0.108, 1
2536458, -0.149, -0.18, -0.491, -0.153, 0.333, 0.076, 1
2536478, -0.084, -0.478, -0.455, -0.18, 0.343, 0.075, 1
2536498, -0.263, -0.38, -0.147, -0.364, 0.323, 0.153, 1
2536518, -0.085, -0.216, 0.362, -0.462, 0.34, 0.199, 1
2536538, 0.068, -0.173, 0.802, -0.394, 0.191, 0.155, 1
2536558, -0.311, -0.306, 1.107, -0.26, 0.119, 0.084, 1
2536578, -0.266, -0.565, 1.526, -0.152, 0.178, 0.058, 1
2536598, 0.06, -0.817, 2.022, -0.103, 0.194, 0.032, 1
2536618, 0.252, -1.041, 2.435, -0.076, 0.033, 0.013, 1
2536638, -0.065, -1.371, 2.686, -0.192, -0.18, 0.013, 1
2536658, -0.622, -1.327, 3.046, -0.298, -0.222, 0.009, 1
2536678, -0.66, -0.919, 3.416, -0.063, 0.12, -0.077, 1
2536698, -0.048, -1.008, 3.695, 0.394, 0.447, -0.191, 1
2536718, 0.138, -1.471, 3.554, 0.686, 0.405, -0.304, 1
2536738, -0.269, -1.935, 3.059, 0.645, 0.195, -0.306, 1
2536758, -0.308, -1.822, 2.636, 0.29, 0.02, -0.211, 1
2536778, -0.269, -1.324, 2.608, -0.166, -0.072, -0.089, 1
2536798, -0.288, -1.018, 2.824, -0.52, -0.124, 0.009, 1
2536818, -0.679, -0.814, 2.831, -0.588, -0.262, 0.037, 1
2536838, -0.875, -0.127, 2.118, -0.376, -0.316, 0.086, 1
2536858, -0.827, 0.327, 1.256, 0.025, -0.072, 0.133, 1
2536878, -0.954, -0.308, 0.331, 0.122, 0.229, 0.197, 1
2536898, -0.617, -0.87, -0.186, 0.097, 0.377, 0.371, 1
2536918, 0.375, -0.759, -0.321, 0.091, 0.058, 0.403, 1
2536938, 0.261, -0.084, -0.345, 0.329, -0.167, 0.341, 1
2536958, 0.079, 0.102, -0.981, 0.66, -0.144, 0.317, 1
2536978, -0.032, -0.058, -2.052, 0.838, -0.153, 0.233, 1
2536998, -0.371, -0.305, -3.073, 0.703, -0.18, 0.24, 1
2537018, -0.153, -0.409, -3.473, 0.398, -0.263, 0.269, 1
2537038, 0.357, -0.52, -3.316, 0.066, -0.492, 0.229, 1
2537058, 0.381, 0.542, -3.254, 0.134, -0.726, 0.057, 1
2537078, -0.73, 1.348, -3.894, 0.505, -0.521, -0.018, 1
2537098, -1.45, 1.642, -4.327, 0.794, -0.019, 0.058, 1
2537118, -0.854, 0.867, -4.078, 0.658, 0.239, 0.16, 1
2537138, 0.229, 0.32, -3.477, 0.107, 0.05, 0.149, 1
2537158, 0.57, 0.636, -3.001, -0.27, -0.375, 0.08, 1
2537178, -0.36, 1.531, -2.677, -0.153, -0.478, 0.028, 1
2537198, -1.358, 1.687, -2.578, 0.185, -0.072, 0.113, 1
2537218, -0.757, 1.217, -2.127, 0.522, 0.203, 0.167, 1
2537238, 0.087, 0.027, -1.965, 0.471, 0.136, 0.124, 1
2537258, 0.524, -0.488, -1.803, 0.176, -0.119, 0.054, 1
2537278, -0.075, -0.004, -1.586, 0.034, -0.182, 0.011, 1
2537298, -0.53, 0.5, -1.349, 0.147, -0.029, 0.048, 0
2537318, 0.047, 0.157, -1.212, 0.203, 0.073, 0.097, 0
2537338, 0.175, -0.037, -0.928, 0.161, -0.032, 0.069, 0
2537358, -0.078, 0.006, -0.675, 0.039, -0.122, 0.047, 0
2537378, -0.27, 0.021, -0.564, -0.024, -0.095, 0.05, 0
2537398, -0.16, -0.129, -0.521, -0.129, 0.037, 0.073, 0
2537418, -0.061, -0.079, -0.403, -0.23, 0.13, 0.085, 0
2537438, 0.059, 0.045, -0.189, -0.226, 0.109, 0.084, 0
2537458, -0.023, -0.017, -0.064, -0.142, 0.018, 0.049, 0
2537478, -0.06, -0.1, -0.011, -0.092, 0.017, 0.062, 0
2537498, -0.026, -0.121, -0.015, -0.081, 0.062, 0.065, 0
2537518, -0.001, -0.064, -0.013, -0.114, 0.08, 0.079, 0
2537538, 0.041, -0.023, 0.022, -0.098, 0.03, 0.064, 0
2537558, 0.004, 0.016, -0.138, -0.043, 0.004, 0.058, 0
2537578, 0.054, 0.079, -0.385, 0.089, -0.028, 0.026, 0
2537598, 0.047, 0.036, -0.932, 0.259, -0.001, -0.008, 0
2537618, 0.185, 0.214, -1.778, 0.354, -0.006, -0.084, 0
2537638, -0.155, 0.638, -3.089, 0.341, -0.058, -0.172, 0
2537658, -0.188, 1.21, -4.021, 0.333, -0.056, -0.205, 0
2537678, -0.247, 1.404, -4.852, 0.463, 0.031, -0.23, 0
2537698, -0.06, 1.336, -5.652, 0.65, 0.169, -0.293, 0
2537718, 0.0, 1.109, -6.439, 0.808, 0.111, -0.402, 0
2537738, -0.431, 0.644, -6.659, 0.99, 0.058, -0.481, 0
2537758, -0.583, -0.535, -6.136, 1.29, 0.243, -0.59, 0
2537778, -0.612, -2.049, -5.957, 1.156, 0.501, -0.688, 0
2537798, 0.134, -2.406, -5.139, 0.398, 0.718, -0.621, 0
2537818, 0.602, -2.092, -3.799, -0.861, 0.448, -0.45, 0
2537838, 0.764, -1.316, -2.584, -1.368, -0.081, -0.335, 0
2537858, -0.028, -0.9, -2.057, -1.497, -0.155, -0.216, 0
2537878, -0.88, -0.858, -1.692, -1.312, 0.175, -0.119, 0
2537898, -0.483, -1.293, -0.899, -1.085, 0.474, -0.083, 0
2537918, 0.439, -2.205, -0.073, -1.178, 0.357, -0.05, 0
2537938, 0.776, -2.23, 0.736, -1.494, 0.065, 0.058, 0
2537958, 0.158, -1.049, 1.609, -1.565, -0.089, 0.218, 0
2537978, -0.266, -0.299, 2.485, -1.283, -0.006, 0.31, 0
2537998, -0.339, -0.392, 3.116, -0.935, 0.097, 0.349, 0
2538018, -0.504, -0.625, 3.758, -0.567, 0.337, 0.342, 0
2538038, -0.146, -1.567, 4.048, -0.488, 0.473, 0.33, 0
2538058, 0.16, -2.061, 4.663, -0.627, 0.389, 0.381, 0
2538078, -0.072, -1.864, 5.458, -0.656, 0.329, 0.365, 0
2538098, -0.175, -1.325, 5.959, -0.451, 0.301, 0.283, 0
2538118, 0.067, -1.083, 5.84, -0.292, 0.087, 0.169, 0
2538138, -0.18, -0.942, 5.022, -0.332, -0.072, 0.135, 0
2538158, -0.265, -0.647, 4.319, -0.403, -0.24, 0.162, 0
2538178, -0.657, -0.382, 3.483, -0.436, -0.284, 0.158, 0
2538198, -1.032, -0.046, 2.737, -0.234, -0.121, 0.126, 0
2538218, -0.876, -0.124, 1.951, -0.081, -0.004, 0.081, 0
2538238, -0.692, -0.399, 1.56, -0.032, 0.02, 0.092, 0
2538258, -0.22, -0.514, 1.318, -0.096, -0.116, 0.13, 0
2538278, -0.302, -0.455, 0.818, -0.165, -0.151, 0.167, 0
2538298, -0.513, -0.255, 0.54, -0.048, 0.011, 0.147, 0
2538318, -0.04, -0.443, 0.358, 0.047, -0.036, 0.107, 0
2538338, 0.127, -0.592, -0.258, -0.036, -0.191, 0.096, 0
2538358, 0.069, -0.749, -0.633, -0.145, -0.249, 0.133, 0
2538378, -0.32, -0.328, -0.78, -0.251, -0.26, 0.142, 0
2538398, -0.325, 0.032, -0.812, -0.113, -0.062, 0.105, 0
2538418, -0.039, -0.495, -0.986, 0.045, 0.031, 0.046, 0
2538438, -0.185, -0.396, -0.831, -0.044, 0.01, 0.066, 0
2538458, -0.089, -0.295, -0.562, -0.085, 0.043, 0.067, 0
2538478, -0.076, -0.273, -0.384, -0.136, 0.055, 0.076, 0
2538498, -0.05, -0.028, -0.136, -0.123, 0.099, 0.083, 0
2538518, -0.148, -0.179, -0.224, -0.105, 0.087, 0.068, 0
2538538, -0.084, -0.194, -0.021, -0.189, 0.084, 0.093, 0
2538558, -0.09, -0.189, 0.065, -0.306, 0.114, 0.12, 1
2538578, -0.095, -0.214, 0.016, -0.445, 0.308, 0.204, 1
2538598, -0.091, -0.161, 0.19, -0.648, 0.446, 0.298, 1
2538618, 0.047, 0.051, 0.422, -0.655, 0.342, 0.31, 1
2538638, 0.03, 0.003, 0.638, -0.425, 0.072, 0.247, 1
2538658, -0.31, -0.24, 0.672, -0.191, -0.041, 0.153, 1
2538678, -0.224, -0.479, 1.008, -0.075, 0.126, 0.121, 1
2538698, -0.03, -0.854, 1.118, -0.062, 0.197, 0.102, 1
2538718, 0.323, -0.902, 1.469, -0.143, 0.11, 0.12, 1
2538738, 0.37, -1.161, 1.762, -0.266, -0.152, 0.091, 1
2538758, -0.247, -1.102, 2.016, -0.328, -0.318, 0.047, 1
2538778, -0.474, -0.932, 2.442, -0.263, -0.18, 0.007, 1
2538798, -0.032, -0.74, 2.765, -0.051, 0.119, -0.097, 1
2538818, 0.531, -0.905, 2.826, -0.037, -0.076, -0.145, 1
2538838, 0.403, -1.345, 2.495, -0.244, -0.435, -0.139, 1
2538858, -0.096, -0.833, 2.271, -0.394, -0.617, -0.113, 1
2538878, -0.044, -0.751, 2.139, -0.494, -0.657, -0.086, 1
2538898, -0.211, -0.954, 1.934, -0.63, -0.636, -0.066, 1
2538918, -0.715, -0.445, 1.82, -0.551, -0.419, -0.039, 1
2538938, -0.447, 0.046, 1.607, -0.308, -0.295, -0.064, 1
2538958, -0.774, 0.305, 1.272, -0.077, -0.158, -0.02, 1
2538978, -1.001, 0.128, 0.956, 0.109, 0.157, 0.054, 1
2538998, -0.855, 0.009, 1.096, 0.363, 0.502, 0.141, 1
2539018, 0.074, -0.369, 0.963, 0.582, 0.548, 0.113, 1
2539038, 0.209, -0.469, 0.242, 0.615, 0.315, 0.069, 1
2539058, -0.332, -0.468, -0.411, 0.543, 0.171, 0.186, 1
2539078, -0.376, -0.37, -0.594, 0.439, 0.238, 0.294, 1
2539098, -0.04, -0.011, -0.422, 0.35, 0.225, 0.34, 1
2539118, -0.008, 0.245, -0.723, 0.313, 0.02, 0.367, 1
2539138, -0.255, 0.339, -0.798, 0.249, -0.084, 0.457, 1
2539158, -0.347, 0.1, -0.833, 0.258, -0.014, 0.516, 1
2539178, -0.11, -0.295, -1.0, 0.255, 0.138, 0.544, 1
2539198, 0.466, -0.571, -1.449, 0.165, -0.012, 0.497, 1
2539218, 0.559, -0.683, -1.834, -0.007, -0.31, 0.415, 1
2539238, 0.092, -0.166, -2.053, -0.105, -0.444, 0.372, 1
2539258, -0.247, 0.625, -2.07, 0.058, -0.339, 0.368, 1
2539278, -0.373, 0.935, -1.981, 0.44, -0.076, 0.33, 1
2539298, -0.139, 0.563, -1.903, 0.733, 0.098, 0.296, 1
2539318, 0.654, -0.621, -2.012, 0.466, -0.083, 0.254, 1
2539338, 0.37, -0.036, -2.064, 0.092, -0.461, 0.161, 1
2539358, -0.231, 0.507, -2.078, -0.086, -0.69, 0.08, 1
2539378, -0.902, 0.738, -2.119, 0.057, -0.525, 0.054, 1
2539398, -0.807, 0.283, -2.049, 0.321, -0.16, 0.103, 1
2539418, -0.047, -0.284, -1.858, 0.379, 0.093, 0.156, 1
2539438, 0.513, -0.25, -1.607, 0.253, -0.046, 0.11, 1
2539458, 0.45, -0.023, -1.452, 0.113, -0.318, 0.041, 1
2539478, -0.128, 0.191, -1.403, 0.074, -0.402, -0.007, 1
2539498, -0.246, 0.185, -1.305, 0.108, -0.183, 0.021, 1
2539518, 0.086, 0.129, -1.177, 0.187, 0.044, 0.045, 0
2539538, 0.086, 0.243, -1.155, 0.186, 0.03, 0.037, 0
2539558, -0.026, 0.202, -1.115, 0.215, -0.024, 0.045, 0
2539578, -0.046, 0.102, -0.937, 0.237, 0.018, 0.081, 0
2539598, 0.082, -0.115, -0.895, 0.207, 0.072, 0.084, 0
2539618, 0.021, -0.162, -0.994, 0.098, 0.12, 0.077, 0
2539638, 0.051, -0.058, -0.822, -0.045, 0.133, 0.083, 0
2539658, -0.034, 0.043, -0.62, -0.106, 0.092, 0.055, 0
2539678, -0.155, 0.086, -0.517, -0.082, 0.101, 0.056, 0
2539698, -0.041, 0.016, -0.386, -0.018, 0.186, 0.082, 0
2539718, 0.093, -0.182, -0.283, -0.025, 0.194, 0.087, 0
2539738, -0.036, -0.132, -0.239, -0.089, 0.1, 0.069, 0
2539758, -0.122, 0.017, -0.145, -0.136, 0.068, 0.068, 0
2539778, -0.028, 0.0, 0.037, -0.046, 0.086, 0.062, 0
2539798, -0.052, -0.024, 0.04, 0.011, 0.116, 0.073, 0
2539818, 0.076, -0.179, -0.031, 0.028, 0.073, 0.059, 0
2539838, 0.057, -0.167, -0.184, -0.028, 0.024, 0.042, 0
2539858, 0.006, 0.025, -0.333, -0.042, -0.036, 0.026, 0
2539878, -0.001, 0.241, -0.653, 0.033, -0.041, -0.008, 0
2539898, 0.0, 0.343, -1.313, 0.187, -0.038, -0.085, 0
2539918, -0.109, 0.425, -2.481, 0.265, -0.059, -0.142, 0
2539938, -0.139, 0.44, -3.699, 0.188, -0.13, -0.191, 0
2539958, -0.259, 0.726, -5.05, 0.003, -0.189, -0.273, 0
2539978, -0.951, 1.48, -6.255, -0.025, -0.174, -0.314, 0
2539998, -1.772, 1.748, -6.993, 0.182, 0.138, -0.252, 0
2540018, -1.203, 0.861, -6.983, 0.127, 0.313, -0.169, 0
2540038, -0.21, -0.241, -6.42, -0.263, 0.069, -0.149, 0
2540058, -0.209, -0.582, -5.74, -0.638, -0.142, -0.137, 0
2540078, -1.233, -0.167, -5.149, -0.552, 0.274, -0.128, 0
2540098, -1.191, -0.132, -4.157, 0.032, 1.034, -0.175, 0
2540118, 0.738, -1.682, -3.181, 0.139, 1.117, -0.27, 0
2540138, 1.689, -2.737, -2.368, -0.364, 0.572, -0.287, 0
2540158, 1.212, -2.289, -1.463, -0.714, 0.166, -0.237, 0
2540178, 0.048, -1.755, -0.655, -0.621, 0.387, -0.249, 0
2540198, 0.102, -1.626, 0.063, -0.53, 0.69, -0.205, 0
2540218, 0.863, -2.073, 1.051, -0.62, 0.55, -0.135, 0
2540238, 1.007, -1.816, 1.948, -0.742, 0.233, -0.091, 0
2540258, 0.404, -1.081, 2.689, -0.638, 0.15, -0.017, 0
2540278, -0.303, -0.505, 3.822, -0.564, 0.439, 0.059, 0
2540298, -0.07, -1.086, 4.813, -0.714, 0.436, 0.227, 0
2540318, 0.045, -1.093, 5.635, -0.788, 0.375, 0.306, 0
2540338, -0.064, -1.027, 5.985, -0.704, 0.253, 0.278, 0
2540358, -0.222, -0.962, 5.83, -0.443, 0.229, 0.179, 0
2540378, -0.101, -0.999, 5.378, -0.26, 0.206, 0.076, 0
2540398, 0.067, -0.762, 4.773, -0.265, -0.016, 0.044, 0
2540418, -0.47, -0.431, 3.855, -0.356, -0.292, 0.036, 0
2540438, -0.641, -0.202, 2.769, -0.365, -0.364, 0.04, 0
2540458, -0.562, 0.085, 2.005, -0.312, -0.339, 0.028, 0
2540478, -0.545, -0.144, 1.353, -0.249, -0.426, 0.031, 0
2540498, -1.174, -0.267, 0.519, -0.174, -0.428, 0.043, 0
2540518, -1.784, -0.264, -0.008, -0.042, -0.157, 0.006, 0
2540538, -1.576, -0.293, 0.132, 0.152, 0.254, -0.054, 0
2540558, -0.781, -0.351, 0.367, 0.277, 0.491, -0.076, 0
2540578, -0.034, -0.476, 0.414, 0.177, 0.387, -0.013, 0
2540598, -0.013, -0.416, 0.335, -0.156, -0.02, 0.136, 0
2540618, -0.356, -0.2, 0.247, -0.307, -0.243, 0.216, 0
2540638, -0.477, -0.102, 0.108, -0.242, -0.145, 0.194, 0
2540658, -0.365, -0.349, -0.171, -0.031, 0.062, 0.105, 0
2540678, 0.047, -0.891, -0.401, 0.004, 0.157, 0.091, 0
2540698, 0.108, -0.761, -0.285, -0.176, 0.053, 0.139, 0
2540718, 0.291, -1.013, -0.287, -0.433, -0.139, 0.206, 1
2540738, -0.568, -0.506, -0.529, -0.788, -0.285, 0.323, 1
2540758, -1.004, 0.089, -0.223, -0.737, 0.174, 0.373, 1
2540778, -0.274, 0.045, 0.217, -0.481, 0.291, 0.298, 1
2540798, -0.03, -0.29, 0.303, -0.422, 0.218, 0.287, 1
2540818, 0.099, -0.704, 0.434, -0.593, 0.065, 0.318, 1
2540838, 0.05, -0.751, 0.514, -0.85, -0.061, 0.385, 1
2540858, -0.139, -0.434, 0.771, -0.943, -0.044, 0.381, 1
2540878, -0.269, -0.192, 1.248, -0.664, 0.082, 0.273, 1
2540898, -0.194, -0.458, 1.709, -0.187, 0.166, 0.109, 1
2540918, 0.094, -1.143, 1.818, -0.047, 0.166, 0.026, 1
2540938, 0.379, -1.703, 1.937, -0.224, 0.071, 0.025, 1
2540958, 0.712, -2.136, 1.999, -0.549, -0.157, 0.042, 1
2540978, 0.604, -1.878, 2.226, -0.772, -0.396, -0.003, 1
2540998, -0.29, -0.782, 2.492, -0.428, -0.213, -0.143, 1
2541018, -0.298, -0.688, 2.689, 0.133, 0.063, -0.3, 1
2541038, -0.375, -1.223, 2.678, 0.381, 0.179, -0.384, 1
2541058, -0.205, -1.674, 2.337, 0.126, 0.128, -0.324, 1
2541078, -0.153, -1.979, 2.065, -0.374, -0.104, -0.244, 1
2541098, -0.21, -1.402, 2.095, -0.739, -0.325, -0.153, 1
2541118, -0.833, -0.511, 2.18, -0.664, -0.263, -0.116, 1
2541138, -0.644, 0.19, 2.304, -0.267, 0.114, -0.038, 1
2541158, -0.346, 0.177, 2.137, 0.143, 0.319, -0.007, 1
2541178, 0.181, -0.126, 1.731, 0.37, 0.304, 0.01, 1
2541198, 0.376, -0.289, 1.189, 0.435, 0.175, 0.015, 1
2541218, 0.026, -0.244, 0.304, 0.414, 0.093, 0.058, 1
2541238, -0.667, -0.011, -0.218, 0.654, 0.184, 0.241, 1
2541258, 0.396, -0.243, -0.267, 0.929, 0.255, 0.254, 1
2541278, 0.491, -0.662, -0.998, 1.041, -0.07, 0.182, 1
2541298, -0.534, -1.319, -2.325, 0.846, -0.351, 0.188, 1
2541318, -0.916, -0.981, -2.895, 0.44, -0.263, 0.26, 1
2541338, -0.384, -0.409, -2.625, 0.259, -0.155, 0.326, 1
2541358, 0.081, 0.16, -2.265, 0.303, -0.272, 0.271, 1
2541378, -0.389, 0.507, -2.477, 0.423, -0.433, 0.21, 1
2541398, -1.121, 0.98, -2.95, 0.516, -0.381, 0.207, 1
2541418, -1.477, 0.744, -3.136, 0.631, -0.15, 0.302, 1
2541438, -0.704, 0.605, -2.814, 0.649, 0.134, 0.394, 1
2541458, 0.354, 0.253, -2.451, 0.671, 0.086, 0.379, 1
2541478, 0.14, -0.317, -2.775, 0.545, -0.196, 0.262, 1
2541498, -0.293, -0.178, -2.874, 0.243, -0.384, 0.214, 1
2541518, -0.423, 0.371, -2.585, 0.056, -0.38, 0.229, 1
2541538, -0.254, 0.497, -2.26, 0.167, -0.245, 0.218, 1
2541558, 0.006, 0.325, -1.994, 0.37, -0.08, 0.188, 1
2541578, 0.33, -0.237, -1.859, 0.448, -0.059, 0.128, 1
2541598, 0.067, -0.251, -1.826, 0.297, -0.232, 0.06, 1
2541618, -0.108, -0.077, -1.839, 0.124, -0.266, 0.036, 1
2541638, -0.18, 0.239, -1.528, 0.04, -0.123, 0.047, 0
2541658, -0.043, 0.118, -1.241, 0.115, 0.007, 0.047, 0
2541678, 0.213, -0.006, -1.029, 0.147, 0.003, 0.023, 0
2541698, 0.067, -0.025, -0.965, 0.068, -0.075, 0.027, 0
2541718, -0.018, 0.039, -0.819, -0.061, -0.058, 0.065, 0
2541738, -0.051, 0.024, -0.628, -0.197, 0.094, 0.106, 0
2541758, 0.117, -0.026, -0.345, -0.196, 0.069, 0.106, 0
2541778, -0.06, -0.124, -0.304, -0.213, 0.073, 0.1, 0
2541798, 0.064, -0.048, -0.07, -0.154, 0.051, 0.076, 0
2541818, 0.054, -0.181, 0.05, -0.115, 0.019, 0.043, 0
2541838, 0.084, -0.103, 0.132, -0.055, -0.072, 0.004, 0
2541858, -0.106, -0.028, 0.034, -0.025, -0.076, -0.001, 0
2541878, -0.17, -0.06, -0.2, -0.045, -0.029, 0.015, 0
2541898, -0.048, 0.045, -0.311, -0.04, -0.02, 0.029, 0
2541918, -0.024, 0.031, -0.362, -0.006, -0.048, 0.021, 0
2541938, -0.018, 0.035, -0.48, 0.017, -0.012, 0.034, 0
2541958, 0.125, 0.023, -0.555, 0.064, -0.033, -0.002, 0
2541978, 0.15, -0.019, -0.914, 0.082, -0.113, -0.074, 0
2541998, -0.039, 0.172, -1.594, 0.042, -0.193, -0.118, 0
2542018, -0.603, 0.963, -2.394, 0.099, -0.183, -0.099, 0
2542038, -1.436, 2.378, -3.175, 0.592, 0.259, -0.048, 0
2542058, -1.017, 1.986, -4.134, 1.104, 0.842, -0.056, 0
2542078, 0.259, 0.449, -4.89, 0.971, 0.726, -0.106, 0
2542098, 0.293, -0.406, -5.526, 0.287, 0.302, -0.095, 0
2542118, -0.224, 0.091, -5.653, -0.07, 0.204, -0.089, 0
2542138, -0.663, 0.007, -5.516, 0.007, 0.579, -0.092, 0
2542158, -0.405, -0.26, -4.968, 0.326, 0.91, -0.207, 0
2542178, 0.527, -1.628, -4.435, 0.26, 0.777, -0.326, 0
2542198, 1.217, -2.45, -3.929, -0.228, 0.271, -0.417, 0
2542218, 0.52, -2.31, -3.615, -0.858, -0.012, -0.423, 0
2542238, -1.163, -0.671, -3.037, -0.918, 0.26, -0.351, 0
2542258, -0.322, -1.197, -1.915, -0.842, 0.492, -0.273, 0
2542278, 0.18, -0.852, -0.394, -0.853, 0.373, -0.238, 0
2542298, 0.072, -0.414, 0.754, -0.629, 0.209, -0.229, 0
2542318, -0.221, -0.536, 1.676, -0.197, 0.165, -0.226, 0
2542338, 0.043, -1.294, 2.27, -0.031, 0.363, -0.218, 0
2542358, 0.604, -0.936, 3.244, -0.452, 0.486, -0.056, 0
2542378, 0.514, -0.578, 4.169, -0.841, 0.076, 0.134, 0
2542398, 0.375, -0.219, 4.753, -0.962, -0.282, 0.285, 0
2542418, -0.25, 0.127, 5.043, -0.755, -0.339, 0.298, 0
2542438, -0.156, -0.885, 4.699, -0.56, -0.101, 0.264, 0
2542458, 0.103, -1.026, 4.613, -0.726, -0.039, 0.316, 0
2542478, -0.17, -0.786, 4.653, -0.846, -0.277, 0.352, 0
2542498, -0.538, -0.647, 4.279, -0.762, -0.301, 0.312, 0
2542518, -0.498, -0.642, 3.731, -0.637, -0.231, 0.207, 0
2542538, -0.628, -0.437, 3.217, -0.583, -0.222, 0.141, 0
2542558, -0.809, -0.194, 2.78, -0.514, -0.217, 0.089, 0
2542578, -0.689, -0.207, 2.38, -0.417, -0.089, 0.059, 0
2542598, -0.456, -0.312, 1.913, -0.383, -0.092, 0.048, 0
2542618, -0.775, -0.168, 1.391, -0.324, -0.093, 0.013, 0
2542638, -0.432, 0.117, 1.215, -0.193, 0.066, -0.026, 0
2542658, 0.007, -0.046, 0.827, -0.127, 0.08, -0.014, 0
2542678, -0.321, 0.027, 0.338, -0.128, -0.066, 0.012, 0
2542698, -0.454, 0.0, 0.136, -0.139, -0.001, 0.073, 0
2542718, -0.391, -0.166, 0.031, -0.088, 0.169, 0.08, 0
2542738, 0.023, -0.247, -0.061, -0.006, 0.112, 0.058, 0
2542758, 0.065, -0.496, -0.193, -0.037, 0.023, 0.064, 0
2542778, 0.175, -0.473, -0.201, -0.091, -0.05, 0.081, 0
2542798, 0.086, -0.514, -0.565, -0.19, -0.104, 0.109, 0
2542818, -0.354, -0.187, -0.668, -0.173, 0.029, 0.095, 0
2542838, -0.321, -0.195, -0.553, -0.106, 0.235, 0.091, 0
2542858, 0.204, -0.391, -0.311, -0.133, 0.13, 0.073, 0
2542878, 0.089, -0.355, -0.209, -0.227, 0.025, 0.098, 0
2542898, -0.001, -0.454, -0.208, -0.34, 0.031, 0.142, 0
2542918, -0.408, -0.254, -0.334, -0.44, 0.219, 0.177, 1
2542938, -0.804, -0.129, -0.275, -0.477, 0.518, 0.247, 1
2542958, -0.271, -0.248, -0.039, -0.568, 0.642, 0.287, 1
2542978, 0.007, -0.239, 0.396, -0.549, 0.576, 0.271, 1
2542998, 0.136, -0.346, 0.693, -0.414, 0.406, 0.155, 1
2543018, -0.017, -0.288, 1.035, -0.264, 0.266, 0.078, 1
2543038, -0.152, -0.317, 1.164, -0.175, 0.177, 0.012, 1
2543058, -0.183, -0.426, 1.435, -0.13, 0.119, -0.02, 1
2543078, -0.216, -0.514, 1.761, -0.054, 0.042, -0.057, 1
2543098, -0.234, -0.587, 2.081, 0.056, -0.038, -0.074, 1
2543118, -0.271, -0.699, 2.29, 0.117, -0.071, -0.057, 1
2543138, -0.143, -0.884, 2.28, 0.091, -0.093, -0.092, 1
2543158, -0.562, -1.063, 2.173, 0.025, 0.044, -0.076, 1
2543178, -0.161, -0.832, 2.561, -0.091, 0.171, -0.042, 1
2543198, 0.525, -0.97, 3.082, -0.218, -0.34, -0.059, 1
2543218, -0.807, -0.416, 2.702, -0.142, -0.457, -0.093, 1
2543238, -0.68, 0.004, 2.529, 0.016, -0.21, -0.084, 1
2543258, -0.299, -0.519, 2.364, 0.118, -0.005, -0.043, 1
2543278, -0.309, -0.84, 1.947, 0.075, -0.034, 0.013, 1
2543298, -0.268, -0.787, 1.605, -0.033, -0.165, 0.111, 1
2543318, -0.175, -0.855, 1.474, -0.132, -0.222, 0.177, 1
2543338, 0.243, -0.721, 1.196, -0.262, -0.061, 0.204, 1
2543358, 0.274, -0.435, 0.479, -0.208, -0.102, 0.195, 1
2543378, -0.147, -0.106, 0.055, -0.024, -0.374, 0.178, 1
2543398, -0.638, 0.327, -0.173, 0.216, -0.428, 0.177, 1
2543418, -0.258, 0.283, -0.881, 0.408, -0.263, 0.207, 1
2543438, -0.63, -0.068, -1.928, 0.373, -0.289, 0.18, 1
2543458, -1.005, 0.086, -2.303, 0.141, -0.235, 0.277, 1
2543478, -0.845, -0.125, -2.194, -0.003, -0.126, 0.455, 1
2543498, 0.031, 0.008, -1.923, 0.015, -0.134, 0.477, 1
2543518, 0.026, 0.008, -2.232, 0.234, -0.375, 0.332, 1
2543538, -0.598, 0.185, -2.61, 0.423, -0.459, 0.202, 1
2543558, -1.178, 0.272, -2.962, 0.539, -0.2, 0.203, 1
2543578, -0.514, 0.501, -3.083, 0.452, 0.161, 0.274, 1
2543598, 0.023, 0.579, -2.941, 0.342, 0.183, 0.292, 1
2543618, 0.009, 0.461, -2.738, 0.262, -0.007, 0.265, 1
2543638, -0.149, 0.391, -2.517, 0.185, -0.113, 0.239, 1
2543658, -0.235, 0.416, -2.37, 0.127, -0.081, 0.234, 1
2543678, -0.125, 0.44, -2.3, 0.281, 0.02, 0.222, 1
2543698, -0.101, 0.238, -2.351, 0.35, 0.263, 0.222, 1
2543718, 0.358, 0.109, -2.093, 0.325, 0.137, 0.198, 1
2543738, 0.39, 0.079, -1.74, 0.287, -0.07, 0.117, 1
2543758, 0.117, 0.22, -1.588, 0.273, -0.106, 0.106, 1
2543778, 0.071, 0.104, -1.51, 0.246, -0.091, 0.086, 1
2543798, -0.074, 0.085, -1.267, 0.218, -0.061, 0.079, 1
2543818, 0.01, -0.053, -1.004, 0.194, -0.04, 0.07, 1
2543838, 0.07, -0.079, -0.812, 0.135, 0.003, 0.06, 1
2543858, 0.139, 0.027, -0.545, 0.15, -0.047, 0.049, 0
2543878, 0.102, -0.007, -0.326, 0.134, -0.131, 0.014, 0
2543898, -0.127, 0.145, -0.238, 0.145, -0.073, 0.035, 0
2543918, -0.211, -0.006, -0.187, 0.145, 0.041, 0.054, 0
2543938, 0.06, 0.011, 0.02, 0.166, 0.097, 0.069, 0
2543958, 0.081, -0.161, 0.111, 0.093, 0.105, 0.052, 0
2543978, 0.034, -0.365, 0.004, -0.075, 0.121, 0.075, 0
2543998, 0.11, -0.183, 0.063, -0.171, 0.031, 0.072, 0
2544018, -0.289, 0.128, -0.016, -0.161, 0.073, 0.087, 0
2544038, -0.115, 0.171, -0.028, -0.052, 0.09, 0.088, 0
2544058, -0.012, -0.07, -0.105, -0.038, 0.05, 0.067, 0
2544078, -0.068, -0.085, -0.23, -0.051, 0.076, 0.065, 0
2544098, -0.02, -0.09, -0.219, -0.057, 0.085, 0.073, 0
2544118, 0.096, -0.084, -0.21, -0.043, 0.026, 0.022, 0
2544138, 0.028, 0.01, -0.309, -0.023, -0.021, -0.015, 0
2544158, -0.111, 0.06, -0.544, -0.016, -0.046, -0.026, 0
2544178, -0.09, 0.065, -0.838, 0.005, -0.04, -0.05, 0
2544198, -0.098, 0.26, -1.908, 0.096, -0.048, -0.108, 0
2544218, -0.271, 0.218, -2.663, 0.122, -0.058, -0.171, 0
2544238, -0.142, 0.258, -3.361, 0.102, -0.042, -0.21, 0
2544258, -0.029, 0.186, -4.245, 0.045, -0.067, -0.304, 0
2544278, -0.392, 0.289, -5.111, -0.106, -0.133, -0.395, 0
2544298, -0.883, 0.323, -5.499, -0.263, -0.089, -0.414, 0
2544318, -0.676, 0.253, -5.026, -0.397, -0.007, -0.344, 0
2544338, -0.73, 0.502, -4.387, -0.339, 0.132, -0.342, 0
2544358, -0.94, 0.441, -4.238, 0.095, 0.537, -0.411, 0
2544378, -0.397, -0.577, -4.342, 0.347, 0.929, -0.4, 0
2544398, 0.712, -1.563, -3.925, -0.131, 0.766, -0.295, 0
2544418, 0.877, -1.53, -3.371, -0.871, 0.211, -0.211, 0
2544438, 0.143, -0.759, -2.871, -1.205, 0.026, -0.173, 0
2544458, -0.37, -0.419, -2.616, -0.924, 0.278, -0.213, 0
2544478, -0.169, -0.876, -2.316, -0.573, 0.672, -0.222, 0
2544498, 0.352, -1.691, -1.668, -0.637, 0.751, -0.147, 0
2544518, 0.817, -1.979, -0.657, -1.023, 0.514, -0.034, 0
2544538, 0.336, -1.192, 0.582, -1.308, 0.223, 0.072, 0
2544558, -0.295, -0.628, 1.746, -1.135, 0.332, 0.105, 0
2544578, -0.152, -1.073, 2.486, -0.907, 0.67, 0.128, 0
2544598, 0.359, -1.406, 3.376, -0.971, 0.877, 0.201, 0
2544618, 0.816, -1.84, 4.352, -1.085, 0.766, 0.255, 0
2544638, 0.287, -1.317, 4.94, -1.028, 0.546, 0.211, 0
2544658, 0.259, -0.847, 5.246, -0.435, 0.503, 0.025, 0
2544678, 0.109, -0.987, 4.893, -0.332, 0.32, -0.022, 0
2544698, -0.075, -0.831, 4.333, -0.468, 0.045, 0.004, 0
2544718, -0.424, -0.089, 4.121, -0.434, -0.174, 0.031, 0
2544738, -0.972, 0.735, 4.114, -0.106, -0.104, 0.012, 0
2544758, -0.851, 0.689, 3.775, 0.228, -0.003, -0.023, 0
2544778, -0.515, -0.221, 3.023, 0.184, -0.108, 0.019, 0
2544798, -0.444, -0.516, 2.413, 0.016, -0.32, 0.083, 0
2544818, -0.553, -0.416, 1.917, -0.015, -0.438, 0.1, 0
2544838, -0.766, -0.233, 1.408, 0.107, -0.371, 0.064, 0
2544858, -0.922, -0.336, 0.662, 0.246, -0.145, 0.043, 0
2544878, -0.645, -0.969, 0.045, 0.162, -0.013, 0.04, 0
2544898, -0.356, -1.088, 0.048, 0.026, -0.014, 0.032, 0
2544918, -0.169, -0.884, 0.103, -0.139, -0.094, 0.042, 0
2544938, -0.265, -0.307, 0.339, -0.127, -0.032, 0.017, 0
2544958, -0.204, -0.156, 0.279, -0.048, 0.06, -0.011, 0
2544978, -0.058, -0.08, 0.18, 0.006, 0.06, -0.029, 0
2544998, -0.007, -0.1, 0.066, -0.017, -0.021, -0.002, 0
2545018, -0.016, -0.08, -0.137, -0.107, -0.103, 0.036, 0
2545038, -0.273, 0.111, -0.269, -0.137, -0.039, 0.086, 0
2545058, -0.156, 0.087, -0.253, -0.084, 0.039, 0.1, 0
2545078, -0.005, -0.102, -0.123, -0.034, 0.062, 0.094, 0
2545098, 0.052, -0.29, -0.17, -0.072, 0.022, 0.108, 0
2545118, 0.252, -0.465, -0.175, -0.191, -0.071, 0.118, 0
2545138, -0.131, -0.136, -0.103, -0.241, 0.0, 0.123, 0
2545158, -0.379, -0.044, -0.371, -0.313, 0.457, 0.183, 1
2545178, 0.041, -0.299, -0.019, -0.455, 0.548, 0.233, 1
2545198, 0.28, -0.158, 0.342, -0.478, 0.447, 0.248, 1
2545218, 0.256, -0.297, 0.509, -0.41, 0.202, 0.183, 1
2545238, -0.223, -0.173, 0.741, -0.304, 0.099, 0.107, 1
2545258, -0.316, -0.183, 0.991, -0.075, 0.27, 0.041, 1
2545278, 0.273, -0.65, 1.243, 0.091, 0.366, 0.012, 1
2545298, 0.202, -0.768, 1.401, 0.065, 0.224, -0.02, 1
2545318, 0.095, -0.744, 1.772, 0.021, 0.125, -0.022, 1
2545338, -0.064, -0.794, 2.027, -0.053, 0.021, 0.002, 1
2545358, 0.035, -0.706, 2.413, -0.182, -0.108, -0.006, 1
2545378, -0.245, -0.839, 2.496, -0.322, -0.278, 0.01, 1
2545398, -1.176, -0.979, 2.286, -0.404, -0.244, -0.034, 1
2545418, -1.16, -0.865, 2.488, -0.279, 0.164, -0.021, 1
2545438, 0.362, -0.906, 3.054, -0.155, 0.419, 0.005, 1
2545458, 0.986, -1.402, 3.123, -0.234, 0.019, -0.048, 1
2545478, 0.277, -1.737, 2.529, -0.503, -0.631, -0.078, 1
2545498, -0.188, -1.022, 2.256, -0.863, -0.981, -0.012, 1
2545518, -0.233, -0.602, 2.127, -1.093, -1.062, -0.004, 1
2545538, -0.489, -0.164, 2.082, -1.08, -0.875, 0.046, 1
2545558, -0.095, 0.046, 1.701, -0.677, -0.64, 0.047, 1
2545578, -0.341, 0.128, 0.861, -0.109, -0.557, -0.082, 1
2545598, -0.763, 0.138, 0.08, 0.368, -0.368, -0.164, 1
2545618, -0.837, -0.093, -0.448, 0.667, -0.092, -0.087, 1
2545638, -0.47, -0.53, -0.818, 0.585, -0.034, 0.017, 1
2545658, -0.686, -0.451, -1.11, 0.336, -0.134, 0.106, 1
2545678, -0.828, -0.126, -1.235, 0.114, -0.167, 0.229, 1
2545698, -0.771, 0.207, -1.216, 0.017, -0.113, 0.332, 1
2545718, -0.545, 0.328, -1.378, 0.135, -0.126, 0.337, 1
2545738, -0.579, 0.221, -1.851, 0.265, -0.21, 0.351, 1
2545758, -0.681, -0.035, -2.221, 0.285, -0.211, 0.348, 1
2545778, -0.604, 0.218, -2.388, 0.316, -0.106, 0.394, 1
2545798, -0.529, 0.436, -2.638, 0.45, 0.065, 0.417, 1
2545818, -0.315, 0.531, -2.607, 0.588, 0.259, 0.424, 1
2545838, -0.019, 0.217, -2.562, 0.66, 0.315, 0.375, 1
2545858, 0.245, 0.188, -2.386, 0.649, 0.182, 0.345, 1
2545878, 0.197, -0.018, -2.425, 0.437, 0.023, 0.323, 1
2545898, 0.153, 0.131, -2.32, 0.17, -0.098, 0.307, 1
2545918, 0.067, 0.376, -2.077, 0.01, -0.185, 0.274, 1
2545938, -0.1, 0.622, -1.881, 0.05, -0.152, 0.258, 1
2545958, -0.245, 0.719, -1.737, 0.214, -0.021, 0.252, 1
2545978, -0.111, 0.584, -1.668, 0.357, 0.045, 0.251, 1
2545998, 0.03, 0.211, -1.705, 0.346, 0.015, 0.235, 1
2546018, 0.073, 0.175, -1.618, 0.277, -0.067, 0.232, 1
2546038, 0.132, 0.172, -1.468, 0.218, -0.117, 0.226, 1
2546058, 0.038, 0.13, -1.356, 0.199, -0.086, 0.213, 1
2546078, 0.048, 0.115, -1.196, 0.239, -0.092, 0.177, 1
2546098, 0.144, -0.152, -1.153, 0.232, -0.127, 0.173, 0
2546118, 0.401, -0.058, -0.906, 0.321, -0.2, 0.138, 0
2546138, 0.069, 0.011, -0.717, 0.329, -0.188, 0.1, 0
2546158, 0.0, -0.336, -0.59, 0.139, -0.124, 0.063, 0
2546178, 0.003, -0.042, -0.39, -0.038, -0.095, 0.046, 0
2546198, -0.141, -0.01, -0.342, -0.117, -0.049, 0.045, 0
2546218, -0.042, 0.003, -0.172, -0.194, 0.043, 0.083, 0
2546238, 0.024, -0.004, 0.037, -0.144, 0.006, 0.072, 0
2546258, -0.082, -0.06, -0.04, -0.134, 0.029, 0.067, 0
2546278, -0.029, -0.055, -0.04, -0.17, 0.073, 0.094, 0
2546298, -0.031, -0.032, -0.014, -0.186, 0.075, 0.103, 0
2546318, 0.133, -0.012, 0.089, -0.141, 0.089, 0.097, 0
2546338, 0.05, -0.119, 0.025, -0.043, 0.048, 0.072, 0
2546358, 0.084, -0.162, 0.02, -0.025, 0.039, 0.06, 0
2546378, 0.024, -0.156, -0.072, -0.021, 0.0, 0.044, 0
2546398, 0.006, -0.03, -0.157, -0.046, -0.018, 0.022, 0
2546418, -0.037, 0.005, -0.344, -0.086, -0.037, 0.008, 0
2546438, -0.023, 0.107, -0.478, -0.059, -0.039, -0.005, 0
2546458, -0.027, 0.137, -0.796, 0.029, -0.032, -0.018, 0
2546478, -0.023, 0.122, -1.214, 0.136, -0.051, -0.061, 0
2546498, -0.063, 0.209, -1.783, 0.149, -0.045, -0.096, 0
2546518, 0.013, 0.407, -2.551, 0.163, -0.067, -0.145, 0
2546538, -0.257, 0.728, -3.604, 0.222, -0.045, -0.239, 0
2546558, -0.375, 1.141, -4.459, 0.314, -0.013, -0.282, 0
2546578, -0.528, 1.463, -5.382, 0.35, 0.069, -0.282, 0
2546598, -0.542, 1.419, -6.047, 0.436, 0.257, -0.262, 0
2546618, -0.299, 0.527, -6.562, 0.503, 0.542, -0.258, 0
2546638, -0.317, -0.518, -6.661, 0.178, 0.502, -0.197, 0
2546658, -0.082, -1.268, -5.826, -0.273, 0.357, -0.163, 0
2546678, -0.196, -1.22, -4.63, -0.456, 0.428, -0.197, 0
2546698, 0.205, -1.496, -3.661, -0.495, 0.461, -0.287, 0
2546718, 0.301, -1.91, -3.108, -0.698, 0.271, -0.328, 0
2546738, -0.237, -1.901, -2.587, -0.992, 0.078, -0.271, 0
2546758, -0.321, -1.986, -1.72, -1.275, 0.021, -0.146, 0
2546778, -0.495, -1.668, -0.68, -1.309, 0.069, -0.068, 0
2546798, -0.223, -1.184, 0.413, -0.975, 0.196, -0.059, 0
2546818, 0.567, -1.419, 1.164, -0.797, 0.087, -0.07, 0
2546838, 0.162, -1.206, 1.929, -0.751, -0.086, -0.012, 0
2546858, -0.091, -0.578, 2.736, -0.576, -0.156, 0.117, 0
2546878, -0.242, -0.589, 3.273, -0.452, -0.171, 0.18, 0
2546898, -0.32, -0.801, 3.272, -0.534, 0.044, 0.237, 0
2546918, 0.161, -0.608, 3.744, -0.569, 0.142, 0.386, 0
2546938, 0.286, -0.434, 4.251, -0.531, 0.023, 0.437, 0
2546958, 0.043, -0.587, 4.26, -0.355, 0.018, 0.463, 0
2546978, -0.224, -0.761, 4.297, -0.117, 0.122, 0.397, 0
2546998, -0.027, -1.31, 4.307, -0.037, 0.237, 0.301, 0
2547018, 0.136, -1.572, 4.318, -0.164, 0.284, 0.28, 0
2547038, 0.266, -1.238, 4.258, -0.274, 0.178, 0.227, 0
2547058, 0.187, -0.6, 3.987, -0.241, 0.046, 0.18, 0
2547078, 0.011, -0.53, 3.39, -0.264, -0.097, 0.161, 0
2547098, -0.526, -0.191, 2.772, -0.159, -0.029, 0.118, 0
2547118, -0.248, -0.505, 1.786, -0.221, -0.037, 0.114, 0
2547138, -0.026, -0.566, 1.389, -0.18, -0.033, 0.083, 0
2547158, -0.131, -0.46, 0.841, -0.168, -0.178, 0.047, 0
2547178, -0.528, -0.224, 0.374, -0.124, -0.156, 0.015, 0
2547198, -0.582, -0.004, -0.043, 0.014, 0.025, -0.025, 0
2547218, -0.366, 0.061, -0.379, 0.048, 0.089, -0.01, 0
2547238, -0.172, -0.002, -0.614, -0.04, 0.034, 0.067, 0
2547258, -0.087, -0.119, -0.736, -0.22, -0.072, 0.169, 0
2547278, -0.143, 0.03, -0.632, -0.274, -0.084, 0.195, 0
2547298, -0.266, -0.15, -0.868, -0.111, 0.032, 0.127, 0
2547318, 0.031, -0.399, -0.91, 0.013, 0.183, 0.085, 0
2547338, 0.173, -0.454, -0.799, -0.04, 0.148, 0.102, 0
2547358, -0.008, -0.327, -0.673, -0.177, 0.053, 0.155, 0
2547378, -0.125, -0.153, -0.522, -0.23, 0.086, 0.174, 0
2547398, -0.122, -0.046, -0.181, -0.21, 0.23, 0.155, 0
2547418, 0.002, -0.26, -0.062, -0.227, 0.37, 0.166, 1
2547438, -0.173, -0.082, 0.073, -0.4, 0.467, 0.273, 1
2547458, -0.127, -0.132, 0.064, -0.615, 0.555, 0.386, 1
2547478, 0.152, -0.014, 0.626, -0.671, 0.496, 0.425, 1
2547498, 0.033, -0.078, 0.882, -0.476, 0.175, 0.332, 1
2547518, -0.282, -0.079, 0.954, -0.23, 0.053, 0.214, 1
2547538, -0.196, -0.31, 1.051, -0.006, 0.18, 0.126, 1
2547558, -0.091, -0.509, 1.156, 0.079, 0.249, 0.101, 1
2547578, -0.24, -0.479, 1.404, 0.026, 0.259, 0.175, 1
2547598, 0.113, -0.45, 1.842, 0.025, 0.172, 0.169, 1
2547618, 0.222, -0.841, 2.198, 0.031, 0.001, 0.124, 1
2547638, -0.191, -1.116, 2.572, 0.096, 0.045, 0.05, 1
2547658, -0.257, -1.029, 2.852, 0.317, 0.227, -0.036, 1
2547678, 0.232, -1.37, 2.873, 0.402, 0.224, -0.133, 1
2547698, 0.453, -1.542, 2.743, 0.26, 0.039, -0.154, 1
2547718, 0.436, -1.979, 2.568, -0.111, -0.241, -0.125, 1
2547738, 0.333, -2.292, 2.445, -0.689, -0.482, -0.015, 1
2547758, 0.62, -1.946, 2.483, -1.254, -0.737, 0.043, 1
2547778, 0.665, -1.005, 2.553, -1.461, -0.974, 0.043, 1
2547798, -0.351, -0.111, 2.392, -1.097, -0.859, -0.056, 1
2547818, -1.435, 0.144, 1.835, -0.427, -0.312, -0.138, 1
2547838, -1.57, 0.503, 1.498, 0.305, 0.277, -0.162, 1
2547858, -0.864, 0.3, 1.131, 0.745, 0.649, -0.142, 1
2547878, -0.082, -0.392, 0.918, 0.809, 0.634, -0.08, 1
2547898, 0.224, -1.101, 0.493, 0.656, 0.287, -0.036, 1
2547918, -0.046, -1.027, -0.347, 0.407, -0.14, -0.014, 1
2547938, -0.54, -0.291, -0.869, 0.158, -0.211, 0.1, 1
2547958, -0.96, 0.273, -0.878, 0.133, 0.039, 0.208, 1
2547978, -0.304, 0.786, -0.965, 0.32, 0.138, 0.248, 1
2547998, -0.077, 0.843, -1.786, 0.495, -0.113, 0.209, 1
2548018, -0.902, 0.693, -2.406, 0.488, -0.166, 0.287, 1
2548038, -0.802, 0.427, -2.448, 0.449, -0.016, 0.423, 1
2548058, 0.109, -0.131, -2.606, 0.306, -0.103, 0.381, 1
2548078, 0.109, -0.25, -3.128, 0.0, -0.37, 0.334, 1
2548098, -0.868, 0.303, -2.748, -0.018, -0.194, 0.35, 1
2548118, -0.475, 0.343, -2.208, 0.171, 0.114, 0.372, 1
2548138, 0.026, 0.163, -1.9, 0.438, 0.3, 0.328, 1
2548158, 0.256, -0.01, -1.858, 0.585, 0.303, 0.244, 1
2548178, 0.265, -0.162, -2.015, 0.51, 0.2, 0.191, 1
2548198, -0.079, -0.133, -2.148, 0.191, 0.04, 0.172, 1
2548218, -0.284, 0.285, -1.934, -0.138, -0.007, 0.198, 1
2548238, -0.096, 0.754, -1.593, -0.188, -0.019, 0.207, 1
2548258, -0.252, 0.82, -1.492, 0.034, 0.009, 0.183, 1
2548278, -0.193, 0.508, -1.489, 0.321, 0.053, 0.183, 1
2548298, -0.084, -0.033, -1.666, 0.396, 0.056, 0.188, 1
2548318, -0.052, -0.015, -1.624, 0.212, 0.005, 0.197, 1
2548338, -0.103, 0.054, -1.47, 0.043, 0.004, 0.215, 1
2548358, 0.091, 0.149, -1.102, 0.005, 0.056, 0.216, 1
2548378, 0.203, -0.03, -0.841, 0.138, 0.026, 0.175, 1
2548398, 0.4, -0.23, -0.776, 0.202, -0.048, 0.119, 1
2548418, 0.234, -0.273, -0.847, 0.125, -0.121, 0.089, 1
2548438, 0.153, -0.206, -0.684, 0.024, -0.161, 0.086, 0
2548458, 0.028, 0.028, -0.398, -0.041, -0.16, 0.057, 0
2548478, 0.081, -0.048, -0.314, 0.048, -0.188, 0.025, 0
2548498, 0.078, -0.094, -0.337, 0.067, -0.235, 0.034, 0
2548518, 0.049, -0.109, -0.42, -0.028, -0.223, 0.042, 0
2548538, -0.042, -0.081, -0.418, -0.208, -0.124, 0.072, 0
2548558, -0.009, 0.102, -0.18, -0.341, -0.026, 0.097, 0
2548578, -0.134, 0.18, -0.089, -0.227, -0.012, 0.084, 0
2548598, -0.104, 0.044, -0.104, -0.148, 0.039, 0.089, 0
2548618, 0.049, -0.095, 0.016, -0.081, 0.021, 0.078, 0
2548638, 0.086, -0.201, 0.0, -0.074, 0.039, 0.061, 0
2548658, 0.053, -0.12, -0.096, -0.097, 0.015, 0.039, 0
2548678, -0.178, 0.009, -0.224, -0.106, 0.0, 0.034, 0
