timestamp, accX, accY, accZ, gyroX, gyroY, gyroZ, button
6188, 0.807, -1.638, -0.732, -0.133, 0.029, 0.394, 1
6208, 0.794, -1.479, -0.754, -0.087, 0.114, 0.34, 1
6228, 0.894, -1.42, -0.671, -0.09, 0.068, 0.332, 1
6248, 0.721, -1.33, -0.962, -0.121, -0.11, 0.175, 1
6268, 0.344, -1.34, -0.881, -0.063, 0.076, 0.065, 1
6288, 0.804, -1.606, -0.859, -0.112, 0.069, -0.009, 1
6308, 0.743, -1.423, -0.973, -0.124, 0.114, -0.023, 1
6328, 1.208, -1.477, -0.987, -0.128, 0.131, 0.008, 1
6348, 1.278, -1.42, -1.011, -0.098, 0.126, 0.016, 1
6368, 1.24, -1.275, -0.877, -0.045, 0.124, 0.001, 1
6388, 1.256, -1.146, -0.786, -0.003, 0.029, 0.012, 1
6408, 1.167, -1.052, -0.78, -0.032, -0.091, 0.011, 1
6428, 0.722, -0.812, -0.791, -0.012, 0.001, -0.015, 1
6448, 0.442, -0.469, -0.823, 0.031, 0.155, -0.042, 1
6468, 0.463, -0.442, -0.541, 0.026, 0.208, -0.043, 1
6488, 0.867, -0.647, -0.547, -0.133, -0.012, -0.064, 1
6508, 0.468, -0.466, -0.547, -0.353, -0.245, -0.135, 1
6528, 0.126, -0.136, -0.677, -0.39, -0.237, -0.219, 1
6548, 0.068, -0.192, -0.632, -0.265, -0.1, -0.281, 1
6568, 0.221, -0.477, -0.647, -0.093, 0.054, -0.322, 1
6588, 0.718, -0.722, -0.457, 0.049, 0.136, -0.39, 1
6608, 0.766, -0.641, -0.382, 0.032, 0.0, -0.411, 1
6628, 0.401, -0.326, -0.328, -0.001, -0.001, -0.371, 1
6648, 0.334, -0.444, -0.125, 0.028, 0.087, -0.358, 1
6668, 0.625, -0.793, 0.067, -0.009, 0.114, -0.399, 1
6688, 0.832, -0.601, -0.314, -0.21, 0.0, -0.405, 1
6708, 1.159, -0.23, -0.682, -0.433, -0.02, -0.368, 1
6728, 0.804, -0.081, -0.788, -0.528, -0.019, -0.147, 1
6748, 0.525, -0.206, -0.148, -0.515, 0.0, 0.005, 1
6768, 0.79, -0.794, 0.486, -0.571, -0.141, -0.048, 1
6788, 0.437, -0.895, 0.529, -0.781, -0.399, -0.07, 1
6808, 0.003, -0.427, 0.54, -0.822, -0.373, -0.011, 1
6828, 0.017, -0.437, 0.422, -0.762, -0.185, -0.075, 1
6848, -0.342, -0.296, 0.336, -0.72, 0.046, -0.217, 1
6868, -0.041, -0.213, 0.23, -0.626, 0.258, -0.257, 1
6888, 0.427, -0.614, -0.047, -0.558, 0.232, -0.443, 1
6908, 0.772, -0.925, 0.016, -0.529, 0.129, -0.656, 1
6928, 0.408, -0.595, -0.075, -0.48, 0.185, -0.437, 1
6948, 0.005, -0.881, -0.248, -0.128, 0.544, -0.498, 1
6968, 0.581, -1.123, -0.243, -0.049, 0.458, -0.566, 1
6988, 0.747, -0.84, -0.565, -0.007, 0.31, -0.471, 1
7008, 0.809, -1.095, -0.653, 0.032, 0.311, -0.452, 1
7028, 1.071, -2.125, -0.54, -0.091, 0.235, -0.381, 1
7048, 1.444, -1.446, -0.532, -0.24, 0.152, -0.266, 1
7068, 1.476, -0.422, -0.596, -0.224, 0.102, -0.373, 1
7088, 0.863, -1.33, -0.423, -0.226, 0.031, -0.23, 1
7108, 1.0, -0.91, -0.624, -0.146, -0.163, -0.191, 1
7128, 0.612, -1.092, -0.374, -0.138, -0.193, -0.165, 1
7148, 0.324, -0.642, -0.515, -0.12, -0.092, -0.135, 1
7168, 0.248, -0.08, -0.968, -0.025, 0.014, -0.014, 1
7188, 0.049, -0.096, -0.988, 0.053, 0.042, -0.002, 1
7208, 0.114, -0.206, -0.539, 0.001, -0.136, -0.06, 1
7228, 0.481, -0.238, -0.127, -0.107, -0.452, -0.072, 1
7248, 0.194, -0.9, 0.14, -0.276, -0.71, -0.098, 1
7268, 0.451, -0.511, 0.089, -0.402, -0.909, -0.15, 1
7288, 0.733, -0.235, 0.118, -0.437, -1.12, -0.064, 1
7308, -0.028, -0.372, 0.211, -0.464, -1.101, -0.044, 1
7328, 0.339, -0.346, 0.659, -0.642, -1.086, -0.105, 1
7348, 0.723, -0.431, 0.806, -0.889, -1.408, -0.135, 1
7368, 0.748, -0.366, 0.722, -1.111, -1.91, -0.186, 1
7388, -0.093, -0.113, 0.097, -1.158, -2.044, -0.223, 1
7408, -0.309, -0.018, -0.228, -1.098, -1.865, -0.227, 1
7428, 0.025, -0.317, 0.008, -1.307, -2.233, -0.394, 1
7448, -0.468, -0.032, 0.04, -1.557, -2.923, -0.447, 1
7468, -0.886, -0.418, -0.188, -1.528, -2.862, -0.497, 1
7488, -0.236, -0.573, -0.067, -1.579, -2.707, -0.602, 1
7508, 0.204, -0.726, -0.169, -1.604, -2.927, -0.62, 1
7528, -0.199, -0.936, -0.311, -1.5, -3.172, -0.577, 1
7548, -0.562, -1.219, -0.326, -1.327, -3.061, -0.609, 1
7568, -0.272, -1.406, -0.33, -1.167, -2.785, -0.568, 1
7588, -0.545, -1.652, -0.334, -0.957, -2.385, -0.46, 1
7608, -0.323, -2.067, -0.29, -0.751, -1.825, -0.335, 1
7628, -0.115, -2.261, -0.19, -0.604, -1.422, -0.239, 1
7648, -0.178, -2.586, -0.118, -0.544, -1.232, -0.23, 1
7668, -0.451, -2.611, -0.378, -0.503, -1.031, -0.211, 1
7688, -0.196, -2.693, -0.304, -0.422, -0.659, -0.182, 1
7708, 0.442, -2.739, -0.177, -0.38, -0.536, -0.143, 1
7728, -0.133, -2.69, -0.379, -0.248, -0.571, -0.07, 1
7748, -0.544, -2.662, -0.273, -0.031, -0.28, -0.064, 1
7768, 0.291, -3.085, 0.23, 0.0, -0.055, -0.108, 1
7788, 0.305, -3.117, 0.201, -0.174, -0.199, -0.081, 1
7808, 0.105, -2.906, -0.013, -0.241, -0.248, -0.092, 1
7828, -0.157, -2.789, -0.231, -0.098, -0.077, -0.05, 1
7848, -0.181, -2.836, -0.124, 0.098, 0.208, 0.042, 1
7868, 0.017, -2.922, 0.209, 0.211, 0.442, 0.101, 1
7888, 0.647, -3.128, 0.503, 0.106, 0.351, 0.035, 1
7908, 0.295, -2.866, 0.234, -0.201, 0.042, -0.007, 1
7928, 0.223, -2.581, -0.026, -0.178, 0.025, 0.007, 1
7948, -0.136, -2.46, -0.118, -0.041, 0.163, 0.033, 1
7968, -0.348, -2.312, -0.057, 0.138, 0.421, 0.108, 1
7988, -0.701, -2.109, -0.12, 0.408, 0.846, 0.21, 1
8014, -0.91, -1.945, 0.089, 0.758, 1.431, 0.327, 1
8034, -0.456, -2.276, 0.694, 0.874, 1.753, 0.33, 1
8054, 0.257, -2.322, 1.047, 0.731, 1.542, 0.337, 1
8074, 0.164, -2.197, 0.943, 0.538, 1.267, 0.3, 1
8094, -0.185, -1.804, 0.636, 0.425, 1.266, 0.278, 1
8114, -0.783, -1.264, 0.354, 0.55, 1.623, 0.313, 1
8134, -0.903, -1.072, 0.507, 0.792, 2.065, 0.349, 1
8154, -0.712, -1.037, 0.829, 0.951, 2.371, 0.397, 1
8174, -0.899, -0.912, 1.18, 1.152, 2.693, 0.525, 1
8194, -0.913, -1.22, 1.782, 1.279, 3.056, 0.588, 1
8214, -0.708, -1.162, 1.871, 1.329, 3.407, 0.63, 1
8234, -0.314, -0.953, 1.777, 1.287, 3.488, 0.624, 1
8254, -0.636, -0.339, 1.78, 1.334, 3.388, 0.587, 1
8274, -0.648, -0.429, 1.914, 1.281, 3.148, 0.375, 1
8294, 0.285, -0.903, 1.514, 0.816, 2.492, 0.139, 1
8314, 0.292, -0.469, 0.284, 0.395, 2.085, 0.077, 1
8334, -0.118, -0.113, -0.796, 0.458, 1.951, 0.008, 1
8354, 0.861, -0.671, -1.247, 0.47, 1.563, -0.088, 1
8374, 0.93, -1.034, -1.57, 0.33, 1.263, -0.145, 1
8394, 1.082, -0.838, -1.802, 0.26, 1.107, -0.227, 1
8414, 1.366, -0.409, -1.54, 0.264, 0.863, -0.177, 1
8434, 0.971, -0.249, -1.23, 0.222, 0.714, -0.106, 1
8454, 0.735, 0.054, -0.939, 0.169, 0.621, -0.05, 1
8474, 0.355, -0.103, -0.574, 0.161, 0.535, -0.034, 1
8494, 0.568, -0.154, -0.235, 0.028, 0.444, -0.109, 1
8514, 0.398, -0.095, -0.433, -0.092, 0.298, -0.125, 1
8534, 0.118, 0.073, -0.566, -0.102, 0.279, -0.108, 1
8554, -0.01, 0.28, -0.683, 0.05, 0.437, -0.031, 1
8574, 0.258, 0.003, -0.223, 0.227, 0.545, 0.08, 1
8594, 0.252, -0.317, 0.334, 0.23, 0.356, 0.125, 1
8614, -0.014, -0.01, 0.44, -0.004, 0.191, 0.086, 1
8634, -0.172, 0.064, 0.357, -0.135, 0.099, 0.145, 1
8654, -0.301, 0.102, 0.351, -0.167, 0.04, 0.136, 1
8674, -0.501, 0.207, 0.315, -0.175, 0.007, 0.125, 1
8694, -0.756, 0.242, 0.007, -0.083, 0.163, 0.173, 1
8714, -0.416, -0.015, 0.037, 0.02, 0.443, 0.186, 1
8734, -0.066, -0.084, 0.266, -0.075, 0.5, 0.178, 1
8754, -0.071, -0.355, 0.396, -0.256, 0.284, 0.193, 1
8774, -0.422, -0.241, 0.086, -0.453, 0.088, 0.21, 1
8794, -0.486, -0.226, -0.096, -0.485, 0.135, 0.189, 1
8814, -0.382, -0.182, -0.171, -0.405, 0.18, 0.114, 1
8834, 0.035, -0.263, -0.209, -0.312, 0.224, 0.144, 1
8854, -0.033, -0.35, -0.089, -0.27, 0.179, 0.194, 1
8874, -0.259, -0.27, -0.092, -0.397, 0.16, 0.24, 1
8894, -0.288, -0.042, -0.405, -0.434, 0.207, 0.215, 1
8914, -0.057, -0.052, -0.537, -0.412, 0.188, 0.206, 1
8934, -0.034, -0.042, -0.573, -0.441, 0.189, 0.218, 1
8954, -0.097, -0.044, -0.642, -0.519, 0.218, 0.232, 1
8974, -0.069, 0.024, -0.864, -0.505, 0.243, 0.243, 1
8994, 0.082, -0.115, -0.743, -0.478, 0.155, 0.23, 1
9014, -0.016, -0.139, -0.611, -0.507, 0.047, 0.235, 1
9034, -0.278, -0.003, -0.711, -0.449, 0.127, 0.239, 1
9054, -0.183, 0.092, -0.896, -0.261, 0.191, 0.198, 1
9074, 0.016, -0.014, -0.695, -0.141, 0.101, 0.17, 1
9094, -0.071, -0.016, -0.591, -0.077, 0.017, 0.171, 1
9114, -0.178, -0.052, -0.458, -0.032, -0.02, 0.154, 1
9134, -0.299, -0.065, -0.269, -0.036, 0.006, 0.152, 1
9154, -0.128, -0.081, -0.187, -0.096, 0.029, 0.169, 1
9174, -0.153, 0.09, -0.283, -0.063, 0.087, 0.173, 1
9194, 0.016, 0.042, -0.206, -0.007, 0.056, 0.17, 1
9214, -0.162, 0.027, -0.08, 0.008, 0.059, 0.133, 1
9234, -0.013, -0.066, 0.112, -0.018, 0.064, 0.12, 1
9254, 0.16, -0.144, 0.058, -0.064, 0.003, 0.106, 1
9274, 0.018, -0.028, 0.065, -0.1, -0.001, 0.131, 1
9294, -0.047, -0.157, 0.303, -0.188, 0.079, 0.135, 1
9314, -0.024, -0.036, 0.249, -0.192, 0.103, 0.157, 1
9334, -0.094, -0.033, 0.181, -0.158, 0.132, 0.186, 1
9354, -0.104, -0.34, 0.02, -0.174, 0.149, 0.207, 1
9374, 0.023, -0.142, -0.59, -0.139, 0.053, 0.221, 1
9394, -0.137, 0.324, -0.672, -0.087, -0.021, 0.252, 1
9414, -0.058, 0.185, -0.648, 0.065, -0.12, 0.221, 1
9434, -0.022, -0.051, -0.438, 0.124, -0.164, 0.185, 1
9454, 0.134, -0.022, -0.273, 0.061, -0.119, 0.154, 1
9474, 0.112, -0.047, -0.217, 0.004, -0.119, 0.169, 1
9494, -0.001, -0.035, -0.182, -0.045, -0.109, 0.147, 1
9514, -0.125, 0.051, -0.223, -0.004, -0.072, 0.125, 1
9534, 0.1, -0.132, -0.027, 0.036, 0.018, 0.098, 1
9554, 0.086, -0.009, -0.195, -0.095, -0.059, 0.127, 1
9574, -0.198, 0.448, -0.579, -0.061, -0.031, 0.111, 1
9594, -0.172, 0.235, -0.407, 0.136, 0.083, 0.109, 1
9614, -0.02, 0.028, -0.091, 0.2, 0.082, 0.04, 1
9634, -0.011, 0.171, -0.146, 0.197, -0.063, -0.054, 1
9654, -0.265, 0.382, -0.206, 0.268, -0.027, -0.07, 1
9674, -0.216, 0.47, -0.128, 0.354, 0.092, -0.045, 1
9694, -0.187, 0.145, 0.227, 0.348, 0.083, -0.046, 1
9714, -0.044, 0.053, 0.468, 0.184, 0.023, -0.072, 1
9734, -0.107, 0.126, 0.576, 0.053, -0.024, 0.024, 1
9754, -0.223, 0.453, 0.613, 0.029, -0.059, 0.086, 1
9774, -0.589, 0.439, 0.703, 0.091, -0.107, 0.146, 1
9794, -0.702, 0.16, 0.581, 0.147, -0.101, 0.047, 1
9814, -0.159, -0.469, 0.682, 0.154, -0.078, -0.047, 1
9834, 0.201, -1.129, 0.711, -0.014, -0.16, -0.174, 1
9854, 0.325, -1.252, 0.319, -0.285, -0.268, -0.347, 1
9874, 0.294, -1.138, -0.175, -0.234, -0.028, -0.43, 1
9894, 0.884, -0.96, -0.694, -0.103, 0.169, -0.323, 1
9914, 1.333, -1.39, -0.947, -0.046, 0.224, -0.271, 1
9934, 1.57, -1.525, -0.958, -0.084, 0.144, -0.251, 1
9954, 1.447, -1.383, -0.883, -0.112, 0.066, -0.169, 1
9974, 0.936, -1.049, -0.933, -0.049, 0.154, -0.092, 1
9994, 0.834, -0.968, -0.795, 0.053, 0.271, -0.071, 1
10014, 1.225, -1.365, -0.367, -0.066, 0.195, -0.049, 1
10034, 1.168, -1.114, -0.346, -0.193, 0.054, -0.009, 1
10054, 0.615, -0.594, -0.423, -0.174, 0.12, 0.095, 1
10074, 0.304, -0.236, -0.527, -0.021, 0.223, 0.134, 1
10094, 0.387, -0.417, -0.141, -0.011, 0.138, 0.156, 1
10114, 0.129, -0.21, -0.071, -0.109, 0.035, 0.173, 1
10134, -0.23, 0.134, -0.144, -0.132, 0.042, 0.176, 1
10154, -0.442, 0.248, -0.167, -0.076, 0.065, 0.14, 1
10174, -0.352, 0.065, -0.013, -0.092, 0.054, 0.145, 1
10194, -0.337, -0.056, 0.024, -0.114, 0.044, 0.169, 1
10214, -0.375, 0.078, 0.03, -0.103, 0.054, 0.142, 1
10234, -0.406, 0.08, -0.012, -0.095, 0.032, 0.108, 1
10254, -0.248, 0.059, -0.144, -0.073, -0.036, 0.055, 1
10274, -0.16, -0.093, -0.202, -0.067, -0.082, 0.007, 1
10294, 0.002, -0.102, -0.246, -0.073, -0.106, 0.031, 1
10314, -0.051, -0.241, -0.221, -0.075, -0.046, 0.029, 1
10334, 0.034, -0.228, -0.321, -0.001, -0.003, 0.014, 1
10354, 0.308, -0.356, -0.54, 0.042, 0.006, 0.034, 1
10374, 0.37, -0.215, -0.651, 0.08, -0.024, 0.028, 1
10394, 0.407, -0.072, -0.597, 0.146, -0.111, 0.041, 1
10414, -0.019, -0.87, -0.383, 0.18, -0.112, 0.056, 1
10434, 0.122, -0.306, -0.183, 0.012, -0.06, 0.109, 1
10454, -0.05, -0.086, -0.23, -0.1, -0.04, 0.13, 1
10474, -0.007, 0.157, -0.295, -0.081, -0.049, 0.109, 1
10494, -0.177, -0.097, -0.274, 0.009, -0.118, 0.084, 1
10514, -0.109, 0.126, -0.093, 0.012, -0.087, 0.182, 1
10534, -0.113, -0.147, 0.074, -0.006, -0.097, 0.235, 1
10554, -0.18, -0.083, -0.047, -0.128, -0.106, 0.208, 1
10574, -0.143, -0.056, -0.121, -0.172, -0.039, 0.152, 1
10594, 0.087, -0.06, -0.099, -0.17, 0.005, 0.098, 1
10614, 0.277, 0.117, -0.228, -0.168, 0.02, 0.15, 1
10634, -0.018, -0.317, 0.021, -0.137, 0.087, 0.281, 1
10654, 0.084, -0.107, -0.046, -0.328, 0.221, 0.322, 1
10674, 0.269, 0.228, -0.521, -0.149, 0.074, 0.233, 1
10694, 0.067, 0.008, -0.33, 0.104, -0.162, 0.169, 1
10714, -0.366, -0.701, 0.457, -0.062, 0.043, 0.166, 1
10734, -0.138, -0.134, 0.179, -0.367, 0.228, 0.21, 1
10754, -0.079, 0.22, -0.282, -0.347, 0.147, 0.133, 1
10774, -0.031, -0.073, -0.142, -0.173, 0.144, 0.064, 1
10794, 0.056, -0.053, -0.218, -0.087, 0.086, -0.033, 1
10814, 0.064, -0.301, -0.097, -0.127, 0.096, 0.051, 1
10834, 0.001, -0.096, -0.232, -0.162, 0.084, 0.087, 1
10854, 0.046, 0.002, -0.389, -0.07, -0.005, 0.082, 1
10874, -0.011, -0.055, -0.248, -0.037, -0.062, 0.128, 1
10894, -0.09, 0.042, -0.268, 0.018, -0.067, 0.113, 1
10914, -0.143, 0.007, -0.22, 0.006, -0.028, 0.124, 1
10934, -0.134, -0.006, -0.202, -0.05, 0.008, 0.073, 1
10954, -0.143, -0.014, -0.186, -0.141, 0.047, 0.051, 1
10974, -0.031, -0.03, -0.12, -0.19, 0.071, 0.028, 1
10994, 0.018, -0.024, -0.208, -0.147, 0.045, 0.009, 1
11014, -0.005, 0.022, -0.347, -0.058, 0.029, 0.045, 1
11034, -0.016, -0.029, -0.255, -0.037, 0.029, 0.031, 1
11054, 0.004, -0.034, -0.086, -0.08, 0.009, 0.042, 1
11074, -0.053, -0.069, -0.115, -0.114, 0.001, 0.055, 1
11094, -0.059, 0.004, -0.196, -0.08, 0.058, 0.069, 1
11114, 0.014, -0.026, -0.183, -0.068, 0.06, 0.059, 1
11134, 0.035, 0.003, -0.193, -0.048, 0.007, 0.056, 1
11154, -0.056, -0.111, -0.054, -0.128, 0.028, 0.057, 1
11174, -0.08, -0.066, -0.037, -0.23, 0.061, 0.064, 1
11194, -0.077, -0.005, -0.162, -0.259, 0.099, 0.05, 1
11214, 0.125, 0.026, -0.204, -0.178, 0.065, 0.007, 1
11234, 0.144, -0.06, -0.242, -0.123, -0.034, 0.045, 1
11254, -0.011, -0.026, -0.232, -0.143, -0.003, 0.1, 1
11274, -0.124, -0.419, 0.11, -0.419, 0.128, 0.162, 1
11294, -0.11, -0.001, -0.252, -0.354, 0.129, 0.008, 1
11314, -0.054, -0.064, -0.344, -0.363, 0.155, -0.05, 1
11334, -0.037, 0.289, -0.527, -0.4, 0.124, -0.059, 1
11354, -0.026, 0.026, -0.541, -0.168, -0.009, -0.028, 1
11374, -0.711, -2.09, -0.358, -0.071, -0.008, -0.214, 1
11394, 0.165, -0.412, 0.038, -0.149, 0.018, 0.054, 1
11414, -0.175, -0.52, -0.116, -0.268, 0.061, 0.037, 0
11434, 0.429, 0.943, -0.451, -0.179, -0.003, -0.012, 0
11454, 0.103, -0.055, -0.327, 0.007, -0.12, -0.01, 0
11474, -0.04, -0.083, -0.117, -0.072, -0.046, -0.039, 0
11494, 0.021, -0.035, -0.041, -0.185, -0.023, 0.076, 0
11514, -0.236, 0.315, -0.416, -0.156, -0.141, 0.105, 0
11534, -0.139, 0.188, -0.418, 0.202, -0.18, 0.082, 0
11554, -0.037, -0.835, 0.574, 0.142, 0.044, 0.075, 0
11574, 0.127, -0.032, 0.167, -0.233, 0.146, 0.095, 0
11594, -0.02, 0.012, -0.193, -0.149, 0.081, 0.072, 0
11614, 0.104, -0.149, -0.031, -0.089, 0.103, 0.059, 0
11634, 0.129, -0.094, -0.135, -0.066, 0.067, 0.065, 0
11654, 0.112, -0.177, -0.005, -0.143, 0.125, 0.115, 0
11674, 0.078, 0.079, -0.29, -0.168, 0.117, 0.142, 0
11694, 0.041, -0.097, -0.255, -0.065, 0.048, 0.084, 0
11714, 0.12, 0.0, -0.246, -0.051, -0.001, 0.026, 0
11734, 0.085, -0.01, -0.255, -0.037, -0.018, 0.023, 0
11754, 0.192, -0.084, -0.226, -0.053, 0.016, 0.046, 0
11774, 0.225, -0.118, -0.148, -0.094, 0.047, -0.034, 0
11794, 0.312, 0.018, -0.185, -0.12, 0.022, -0.078, 0
11814, 0.561, 0.493, -0.334, -0.074, 0.069, 0.116, 0
11834, 0.213, 0.107, -0.054, -0.104, 0.206, 0.136, 0
11854, 0.384, 0.186, 0.008, -0.114, 0.169, 0.063, 0
11874, 0.121, -0.097, 0.233, -0.16, 0.135, -0.05, 0
11894, 0.558, -0.022, -0.074, -0.169, 0.07, 0.054, 0
11914, 0.294, -0.134, -0.434, -0.142, 0.087, 0.2, 0
11934, 0.21, 0.097, -0.547, -0.092, 0.077, 0.257, 0
11954, 0.107, -0.105, -0.473, -0.054, -0.01, 0.251, 0
11974, 0.017, -0.262, -0.179, -0.097, -0.094, 0.226, 0
11994, -0.386, -0.077, -0.007, -0.153, 0.034, 0.407, 0
12014, -0.423, -0.137, 0.017, -0.118, 0.084, 0.511, 0
12034, -0.32, 0.082, -0.288, 0.01, -0.009, 0.485, 0
12054, -0.387, 0.116, -0.352, -0.04, -0.023, 0.354, 0
12074, -0.298, 0.188, 0.044, -0.164, 0.021, 0.251, 0
12094, 0.09, -0.372, -0.011, -0.225, -0.045, 0.492, 0
12114, -0.783, -0.268, 0.002, -0.189, 0.052, 0.587, 0
12134, -1.007, 0.104, 0.133, -0.033, 0.03, 0.417, 0
12154, -0.67, -0.234, 0.15, -0.107, -0.074, 0.235, 0
12174, -0.609, -0.511, 0.074, -0.271, 0.057, 0.324, 0
12194, -0.022, -0.222, -0.259, -0.28, 0.208, 0.62, 0
12214, -0.076, -0.005, -0.618, -0.068, 0.222, 0.533, 0
12234, 0.179, 0.03, -0.23, 0.028, -0.04, 0.485, 0
12254, -0.389, -0.141, 0.099, -0.116, -0.035, 0.401, 0
12274, -0.549, 0.837, -1.156, 0.188, 0.12, 0.581, 0
12294, -0.066, 0.205, -0.708, 0.289, 0.061, 0.635, 0
12314, -0.166, -0.128, -0.358, 0.182, -0.158, 0.679, 0
12334, -1.174, 0.051, -0.475, 0.076, -0.381, 0.528, 0
12354, -2.523, 1.377, -1.167, 0.098, -0.228, 0.499, 0
12374, -1.375, 0.379, -0.487, 0.509, -0.1, 0.425, 0
12394, -0.727, -0.608, 0.063, 0.196, -0.202, 0.517, 0
12414, -0.914, 0.179, -0.466, -0.086, -0.351, 0.513, 0
12434, -1.461, 0.275, -0.466, 0.043, -0.322, 0.486, 0
12454, -1.114, -0.159, -0.308, 0.071, -0.379, 0.572, 0
12474, -1.861, -0.093, -0.605, -0.021, -0.325, 0.808, 0
12494, -1.83, -0.213, -0.293, 0.015, 0.004, 0.854, 0
12514, -1.527, -0.109, -0.031, -0.064, 0.077, 0.767, 0
12534, -1.729, 0.0, -0.194, -0.061, -0.086, 0.614, 0
12554, -1.138, -0.105, -0.051, -0.003, -0.104, 0.411, 0
12574, -1.317, -0.528, -0.054, 0.024, -0.107, 0.406, 0
12594, -0.676, -0.66, -0.424, 0.005, 0.067, 0.367, 0
12614, -0.2, -0.275, -0.745, -0.018, -0.047, 0.332, 0
12634, -0.713, -0.094, -0.508, 0.026, -0.222, 0.331, 0
12654, -1.157, -0.12, 0.155, -0.072, -0.278, 0.362, 0
12674, -1.859, 0.027, 0.104, -0.094, -0.116, 0.34, 0
12694, -0.793, -0.158, 0.313, 0.046, 0.001, 0.088, 0
12714, -0.228, -0.312, 0.475, -0.04, -0.046, 0.065, 0
12734, -0.169, -0.201, 0.429, -0.099, -0.028, 0.014, 0
12754, 0.189, -0.392, 0.407, -0.204, 0.053, 0.071, 0
12774, 0.372, -0.192, 0.061, -0.208, 0.009, 0.095, 0
12794, 0.195, 0.136, -0.072, -0.085, 0.035, 0.116, 0
12814, 0.015, 0.111, -0.06, 0.135, 0.06, 0.058, 0
12834, 0.126, -0.329, 0.304, 0.109, 0.094, 0.138, 1
12854, 0.02, -0.573, 0.421, -0.075, 0.255, 0.178, 1
12874, -0.024, -0.366, 0.585, -0.163, 0.26, 0.118, 1
12894, 0.319, -0.261, 0.218, -0.259, 0.065, 0.069, 1
12914, 0.069, 0.031, -0.298, -0.175, 0.103, 0.025, 1
12934, 0.329, 0.071, -0.46, -0.083, 0.093, 0.051, 1
12954, 0.327, 0.002, -0.75, -0.043, 0.02, 0.07, 1
12974, 0.109, -0.075, -0.833, -0.071, -0.064, 0.062, 1
12994, -0.24, 0.005, -0.692, -0.116, -0.043, 0.062, 1
13014, -0.323, 0.019, -0.63, -0.127, 0.008, 0.04, 1
13034, -0.408, -0.007, -0.529, -0.111, 0.025, -0.006, 1
13054, -0.482, 0.072, -0.526, -0.062, 0.028, -0.094, 1
13074, -0.535, 0.159, -0.642, -0.021, 0.064, -0.124, 1
13094, -0.641, 0.351, -0.914, 0.006, 0.1, -0.102, 1
13114, -0.569, 0.111, -0.97, -0.003, 0.086, -0.084, 1
13134, -0.714, -0.075, -0.995, -0.095, 0.127, 0.012, 1
13154, -0.868, -0.013, -1.108, -0.167, 0.221, 0.113, 1
13174, -0.979, 0.239, -1.516, -0.088, 0.259, 0.037, 1
13194, -0.942, 0.486, -1.735, 0.154, 0.234, -0.123, 1
13214, -0.686, 0.214, -1.333, 0.318, 0.16, -0.164, 1
13234, -0.834, 0.001, -0.793, 0.397, 0.113, -0.283, 1
13254, -0.465, -0.47, 0.279, 0.26, 0.113, -0.309, 1
13274, -0.468, -0.389, 0.254, -0.018, 0.043, -0.246, 1
13294, -0.488, -0.013, -0.016, -0.144, 0.209, -0.169, 1
13314, -0.011, -0.184, 0.211, 0.06, 0.262, -0.337, 1
13334, 0.613, -0.399, 0.489, 0.233, 0.037, -0.601, 1
13354, 0.775, -0.478, 0.633, 0.213, -0.162, -0.675, 1
13374, 0.672, -0.236, 0.718, 0.145, -0.161, -0.569, 1
13394, 0.183, -0.533, 1.161, 0.089, -0.031, -0.374, 1
13414, 0.417, -0.874, 1.362, -0.076, 0.092, -0.45, 1
13434, 0.771, -0.545, 0.769, -0.342, -0.07, -0.701, 1
13454, 0.95, -0.188, 0.292, -0.394, -0.244, -0.931, 1
13474, 1.115, -0.178, 0.45, -0.232, -0.327, -1.1, 1
13494, 1.08, -0.351, 1.127, -0.098, -0.332, -1.124, 1
13514, 0.734, -0.566, 1.687, -0.157, -0.249, -1.011, 1
13534, 0.98, -0.549, 1.762, -0.379, -0.04, -0.963, 1
13554, 1.513, -0.226, 1.121, -0.632, -0.002, -0.942, 1
13574, 1.379, 0.428, 0.388, -0.726, -0.065, -0.819, 1
13594, 0.576, 0.739, 0.081, -0.591, 0.039, -0.678, 1
13614, 0.328, 0.805, 0.118, -0.398, 0.203, -0.658, 1
13634, 0.695, 0.659, 0.138, -0.266, 0.239, -0.705, 1
13654, 0.98, 0.471, 0.031, -0.27, 0.194, -0.678, 1
13674, 0.885, 0.295, -0.214, -0.287, 0.197, -0.444, 1
13694, 1.17, 0.013, -0.616, -0.261, 0.25, -0.518, 1
13714, 1.25, 0.403, -1.167, -0.222, 0.179, -0.274, 1
13734, 0.651, 0.476, -1.317, -0.055, 0.227, -0.262, 1
13754, 0.579, 0.237, -0.915, 0.015, 0.221, -0.412, 1
13774, 1.438, -0.558, -0.974, -0.166, 0.094, -0.349, 1
13794, 1.698, -0.715, -1.281, -0.265, 0.034, -0.205, 1
13814, 1.688, -0.613, -1.321, -0.137, -0.003, -0.116, 1
13834, 1.397, -0.307, -1.152, 0.037, -0.049, 0.025, 1
13854, 0.765, -0.45, -0.775, 0.082, -0.009, 0.124, 1
13874, 0.168, -0.471, -0.516, -0.032, 0.11, 0.083, 1
13894, 0.255, -0.501, -0.497, -0.2, 0.211, 0.1, 1
13914, 0.073, -0.148, -0.822, -0.197, 0.214, 0.25, 1
13934, -0.222, 0.261, -1.05, 0.003, 0.207, 0.177, 1
13954, -0.049, 0.027, -0.907, 0.082, 0.164, 0.158, 1
13974, 0.022, 0.047, -0.73, 0.026, 0.111, 0.241, 1
13994, -0.175, -0.088, -0.431, -0.051, 0.1, 0.27, 1
14014, -0.288, 0.021, -0.183, -0.029, 0.046, 0.177, 1
14034, -0.093, 0.186, -0.125, 0.091, -0.084, 0.144, 1
14054, -0.034, -0.05, 0.155, 0.097, -0.079, 0.149, 1
14074, 0.027, -0.169, 0.248, -0.014, -0.013, 0.242, 1
14094, -0.113, -0.276, 0.329, -0.15, 0.043, 0.267, 1
14114, -0.258, -0.092, 0.114, -0.19, -0.006, 0.221, 1
14134, -0.479, -0.023, -0.121, -0.195, 0.009, 0.16, 1
14154, -0.233, 0.143, -0.37, -0.144, 0.058, 0.189, 1
14174, -0.173, -0.288, -0.407, -0.133, 0.023, 0.229, 1
14194, -0.137, -0.14, -0.393, -0.058, -0.077, 0.125, 1
14214, -0.432, -0.302, -0.018, -0.001, -0.076, 0.027, 1
14234, -0.3, -0.538, 0.122, -0.043, -0.023, 0.026, 1
14254, -0.173, -0.292, -0.101, -0.125, 0.002, 0.046, 1
14274, -0.115, -0.059, -0.328, -0.114, 0.015, 0.072, 1
14294, -0.128, -0.036, -0.269, -0.047, 0.0, 0.064, 1
14314, -0.146, -0.014, -0.164, -0.025, -0.092, 0.006, 1
14334, -0.229, -0.108, -0.108, -0.078, -0.067, -0.035, 1
14354, 0.028, -0.047, -0.262, -0.145, 0.042, -0.027, 1
14374, 0.054, -0.086, -0.475, -0.102, 0.031, 0.026, 1
14394, -0.005, -0.019, -0.365, -0.077, 0.034, 0.039, 1
14414, 0.003, -0.005, -0.208, -0.073, 0.02, 0.051, 1
14434, -0.072, -0.013, -0.103, -0.088, 0.004, 0.057, 1
14454, -0.015, -0.087, -0.111, -0.135, 0.029, 0.031, 1
14474, 0.106, -0.006, -0.238, -0.146, 0.026, 0.042, 1
14494, 0.088, 0.061, -0.22, -0.093, 0.006, 0.058, 1
14514, 0.045, 0.009, -0.112, 0.025, -0.081, 0.062, 1
14534, -0.13, -0.156, 0.056, 0.034, -0.138, 0.059, 1
14554, -0.223, -0.175, 0.104, -0.061, -0.06, 0.056, 1
14574, 0.001, -0.06, 0.007, -0.141, 0.031, 0.08, 1
14594, -0.01, -0.011, -0.23, -0.148, 0.008, 0.094, 1
14614, -0.208, -0.056, -0.222, -0.109, -0.024, 0.082, 1
14634, -0.147, -0.003, -0.207, -0.137, 0.045, 0.096, 1
14654, -0.106, -0.134, -0.148, -0.188, 0.063, 0.094, 1
14674, -0.007, -0.035, -0.286, -0.232, 0.032, 0.055, 1
14694, -0.016, 0.079, -0.458, -0.118, 0.009, 0.098, 1
14714, -0.058, -0.04, -0.349, -0.051, 0.003, 0.066, 1
14734, -0.037, -0.072, -0.23, -0.056, -0.036, 0.037, 1
14754, -0.053, -0.085, -0.132, -0.136, 0.007, 0.042, 1
14774, 0.025, -0.081, -0.11, -0.144, -0.004, 0.02, 1
14794, -0.015, -0.001, -0.153, -0.097, -0.023, 0.035, 1
14814, -0.056, -0.118, -0.045, -0.105, 0.009, 0.058, 1
14834, 0.014, -0.196, 0.045, -0.202, 0.032, 0.054, 1
14854, 0.043, 0.009, -0.141, -0.172, 0.001, 0.034, 1
14874, 0.017, -0.034, -0.14, -0.139, -0.012, 0.026, 1
14894, -0.086, -0.154, 0.035, -0.204, 0.031, 0.048, 1
14914, 0.0, -0.006, -0.066, -0.201, 0.026, 0.073, 0
14934, -0.011, 0.259, -0.161, -0.051, -0.075, 0.043, 0
14954, 0.035, -0.026, -0.189, -0.081, -0.164, 0.017, 0
14974, 0.102, -0.128, -0.109, -0.146, -0.156, 0.082, 0
14994, 0.047, 0.065, -0.3, -0.068, -0.175, 0.149, 0
15014, 0.101, 0.1, -0.449, 0.083, -0.266, 0.14, 0
15034, -0.316, -0.227, -0.409, 0.076, -0.124, 0.073, 0
15054, -0.007, -0.22, -0.16, -0.035, -0.029, 0.042, 0
15074, 0.005, -0.178, -0.147, -0.139, -0.003, 0.05, 0
15094, -0.018, 0.0, -0.257, -0.14, 0.044, 0.025, 0
15114, 0.034, 0.0, -0.284, -0.065, 0.031, -0.009, 0
15134, 0.059, -0.084, -0.27, -0.08, 0.036, -0.018, 0
15154, 0.012, -0.167, -0.208, -0.171, 0.065, -0.051, 0
15174, 0.128, -0.062, -0.315, -0.176, 0.018, -0.008, 0
15194, -0.024, 0.026, -0.222, -0.125, 0.015, 0.005, 0
15214, -0.112, -0.076, -0.056, -0.147, 0.064, -0.119, 0
15234, 0.537, 0.233, 0.056, -0.285, 0.056, -0.237, 0
15254, 0.396, 0.026, 0.013, -0.276, -0.153, -0.119, 0
15274, -0.001, -0.132, 0.121, -0.204, -0.152, -0.029, 0
15294, 0.117, -0.237, 0.093, -0.24, 0.034, -0.01, 0
15314, 0.497, 0.082, -0.272, -0.197, -0.016, -0.098, 0
15334, 0.528, -0.262, -0.3, -0.139, -0.152, -0.035, 0
15354, 0.088, -0.228, -0.355, -0.132, -0.168, 0.143, 0
15374, -0.207, 0.007, -0.417, -0.104, -0.029, 0.172, 0
15394, -0.087, 0.129, -0.267, -0.059, 0.023, 0.136, 0
15414, 0.003, 0.049, -0.273, -0.086, 0.033, 0.216, 0
15434, 0.196, 0.11, -0.315, -0.078, 0.032, 0.314, 0
15454, -0.016, 0.02, -0.268, -0.05, 0.041, 0.409, 0
15474, -0.096, -0.286, -0.251, 0.02, 0.061, 0.375, 0
15494, -0.151, -0.639, -0.164, 0.064, 0.078, 0.281, 0
15514, 0.23, -0.341, -0.228, -0.039, 0.149, 0.268, 0
15534, 0.157, 0.055, -0.604, -0.12, 0.122, 0.4, 0
15554, 0.308, 0.066, -0.685, -0.034, 0.059, 0.405, 0
15574, 0.106, -0.267, -0.473, -0.026, -0.063, 0.431, 0
15594, -0.146, -0.079, -0.265, -0.104, -0.111, 0.392, 0
15614, -0.321, 0.095, -0.053, -0.137, -0.131, 0.511, 0
15634, -0.183, -0.186, -0.002, -0.128, -0.106, 0.522, 0
15654, -0.263, -0.565, 0.139, -0.029, -0.112, 0.621, 0
15674, -0.439, -0.134, 0.108, -0.087, -0.119, 0.703, 0
15694, -0.935, 0.522, -0.171, -0.045, -0.116, 0.571, 0
15714, -0.654, 0.801, -0.267, -0.01, -0.273, 0.601, 0
15734, -0.995, 0.439, -0.381, 0.123, -0.289, 0.57, 0
15754, -0.745, 0.067, -0.346, 0.144, -0.235, 0.619, 0
15774, -0.779, 0.112, -0.459, 0.15, -0.182, 0.64, 0
15794, -0.764, 0.225, -0.484, 0.206, -0.085, 0.591, 0
15814, -0.332, -0.062, -0.211, 0.191, -0.072, 0.479, 0
15834, -0.085, -0.393, -0.032, 0.128, -0.15, 0.483, 0
15854, -0.597, -0.412, 0.208, 0.034, -0.082, 0.466, 0
15874, -0.62, -0.269, 0.12, -0.039, -0.131, 0.249, 0
15894, -0.762, -0.144, -0.028, 0.02, -0.193, 0.028, 0
15914, -0.3, -0.194, 0.081, 0.089, -0.124, 0.064, 0
15934, 0.229, -0.201, 0.658, 0.07, -0.04, 0.249, 0
15954, 0.387, 0.05, 0.695, -0.043, 0.017, 0.425, 0
15974, -0.038, 0.028, -0.008, 0.039, -0.034, 0.332, 0
15994, -0.488, 0.003, -0.25, 0.086, -0.274, 0.201, 0
16014, -0.872, -0.114, -0.282, -0.026, -0.416, 0.127, 0
16034, -1.632, 0.261, -0.564, -0.049, -0.156, 0.145, 0
16054, -0.895, 0.325, -0.578, 0.015, -0.009, 0.221, 0
16074, -0.988, 0.363, -0.618, 0.095, 0.068, 0.34, 0
16094, -0.569, 0.098, -0.208, 0.02, 0.068, 0.477, 0
16114, -0.361, -0.186, 0.034, -0.028, -0.028, 0.435, 0
16134, -0.954, -0.216, -0.157, 0.059, 0.182, 0.343, 0
16154, -0.057, -0.466, 0.097, -0.002, 0.186, 0.364, 0
16174, -0.275, -0.438, 0.052, -0.111, 0.004, 0.444, 0
16194, -0.569, -0.503, 0.161, -0.094, 0.037, 0.437, 0
16214, -0.498, -0.528, 0.082, -0.048, -0.053, 0.317, 0
16234, -0.815, -0.308, -0.053, -0.094, -0.081, 0.306, 0
16254, -0.567, -0.327, 0.06, -0.16, 0.016, 0.313, 0
16274, -0.674, -0.284, -0.064, -0.2, -0.001, 0.291, 0
16294, -0.466, -0.272, -0.105, -0.104, 0.062, 0.18, 0
16314, -0.014, -0.143, -0.129, -0.078, 0.15, 0.106, 1
16334, 0.168, -0.409, -0.199, -0.069, 0.164, 0.095, 1
16354, 0.055, -0.069, -0.157, -0.089, 0.221, 0.13, 1
16374, 0.117, -0.145, -0.263, -0.097, 0.226, 0.109, 1
16394, 0.276, -0.015, -0.351, -0.08, 0.174, 0.075, 1
16414, 0.166, -0.069, -0.2, 0.003, 0.029, -0.023, 1
16434, -0.262, -0.085, 0.014, -0.041, 0.063, 0.01, 1
16454, -0.617, 0.08, -0.122, -0.164, 0.19, 0.026, 1
16474, -0.528, 0.103, -0.433, -0.235, 0.267, 0.028, 1
16494, -0.61, 0.138, -0.649, -0.195, 0.194, -0.032, 1
16514, -0.675, 0.105, -0.67, -0.155, 0.171, -0.105, 1
16534, -0.737, 0.028, -0.63, -0.148, 0.219, -0.109, 1
16554, -0.648, 0.017, -0.901, -0.139, 0.301, -0.125, 1
16574, -0.547, -0.1, -0.869, -0.143, 0.408, -0.076, 1
16594, -0.29, -0.133, -0.617, -0.13, 0.48, -0.058, 1
16614, -0.432, 0.048, -0.586, 0.056, 0.429, -0.119, 1
16634, -0.67, 0.148, -0.316, 0.163, 0.516, -0.124, 1
16654, -0.61, 0.029, -0.208, 0.194, 0.606, -0.149, 1
16674, -0.047, -0.103, -0.329, 0.107, 0.645, -0.081, 1
16694, 0.143, -0.352, -0.293, 0.017, 0.817, 0.139, 1
16714, 0.62, -0.466, -0.107, -0.065, 0.689, 0.128, 1
16734, 0.407, -0.325, -0.347, -0.018, 0.268, -0.118, 1
16754, -0.185, 0.044, -0.565, 0.091, 0.21, -0.176, 1
16774, -0.322, 0.058, -0.311, 0.097, 0.344, -0.199, 1
16794, -0.28, -0.233, 0.224, -0.012, 0.46, -0.238, 1
16814, 0.123, -0.619, 0.562, -0.222, 0.496, -0.2, 1
16834, 0.201, -0.293, 0.242, -0.283, 0.431, -0.357, 1
16854, 0.271, 0.105, -0.11, -0.056, 0.292, -0.648, 1
16874, 0.613, 0.121, -0.142, 0.046, 0.132, -0.594, 1
16894, 1.1, -0.527, -0.029, -0.068, 0.018, -0.643, 1
16914, 1.389, -0.505, -0.212, -0.199, -0.084, -0.538, 1
16934, 0.879, -0.124, -0.366, -0.18, -0.037, -0.467, 1
16954, 0.318, 0.275, -0.393, 0.05, 0.055, -0.485, 1
16974, 1.006, 0.215, -0.243, 0.234, -0.037, -0.558, 1
16994, 1.85, -0.663, 0.033, 0.16, -0.266, -0.434, 1
17014, 1.731, -0.853, 0.239, 0.036, -0.39, -0.351, 1
17034, 0.542, -0.387, 0.877, -0.035, -0.296, -0.255, 1
17054, 0.108, -0.141, 0.975, -0.117, -0.128, -0.363, 1
17074, 0.65, -0.11, 0.555, -0.07, -0.104, -0.456, 1
17094, 1.349, -0.48, 0.203, -0.027, -0.087, -0.317, 1
17114, 0.161, 0.228, 0.528, 0.011, 0.122, -0.283, 1
17134, 0.424, 0.244, 0.823, -0.08, 0.364, -0.354, 1
17154, 1.339, -0.141, 0.596, -0.238, 0.247, -0.444, 1
17174, 1.208, -0.111, 0.201, -0.257, 0.028, -0.306, 1
17194, 0.793, -0.025, 0.081, -0.064, 0.07, -0.169, 1
17214, 0.638, 0.208, 0.283, 0.067, 0.064, -0.209, 1
17234, 0.468, 0.099, 0.035, -0.006, -0.019, -0.241, 1
17254, 0.551, -0.165, -0.381, -0.1, 0.05, -0.149, 1
17274, 0.625, -0.493, -0.386, -0.155, 0.156, -0.135, 1
17294, 0.298, -0.14, -0.383, -0.222, 0.103, -0.136, 1
17314, 0.248, -0.038, -0.382, -0.254, 0.073, -0.165, 1
17334, 0.315, -0.003, -0.568, -0.269, 0.072, -0.02, 1
17354, 0.021, 0.003, -0.785, -0.213, 0.108, 0.035, 1
17374, 0.14, -0.17, -0.644, -0.152, 0.183, 0.005, 1
17394, 0.228, -0.222, -0.602, -0.295, 0.092, -0.039, 1
17414, 0.077, -0.013, -0.723, -0.391, -0.038, -0.037, 1
17434, -0.453, 0.125, -0.846, -0.251, -0.016, 0.018, 1
17454, -0.314, -0.284, -0.449, -0.1, 0.125, 0.052, 1
17474, -0.211, -0.576, -0.192, -0.207, 0.116, 0.039, 1
17494, -0.344, -0.225, -0.454, -0.371, 0.076, -0.045, 1
17514, -0.291, 0.053, -0.514, -0.316, 0.102, -0.073, 1
17534, -0.287, 0.069, -0.492, -0.142, 0.056, -0.001, 1
17554, -0.429, -0.219, -0.386, 0.04, -0.039, 0.037, 1
17574, -0.377, -0.568, -0.31, -0.012, -0.045, 0.076, 1
17594, -0.366, -0.298, -0.543, -0.259, 0.105, 0.084, 1
17614, -0.292, -0.005, -0.699, -0.168, 0.051, 0.01, 1
17634, -0.231, -0.017, -0.587, -0.068, -0.04, -0.015, 1
17654, -0.428, -0.117, -0.319, -0.024, 0.029, -0.021, 1
17674, -0.199, -0.238, -0.099, -0.061, 0.077, -0.01, 1
17694, -0.023, -0.406, -0.125, -0.093, 0.023, -0.008, 1
17714, 0.019, -0.257, -0.211, -0.119, 0.008, 0.044, 1
17734, -0.025, -0.147, -0.189, -0.135, 0.01, 0.052, 1
17754, -0.074, -0.017, -0.257, -0.11, -0.028, 0.058, 1
17774, -0.259, -0.001, -0.266, -0.069, 0.024, 0.075, 1
17794, -0.074, -0.102, -0.146, -0.095, 0.089, 0.05, 1
17814, -0.001, -0.119, -0.037, -0.12, 0.084, 0.037, 1
17834, 0.098, -0.081, -0.067, -0.1, -0.004, 0.047, 1
17854, -0.015, -0.017, -0.185, -0.109, 0.009, 0.095, 1
17874, -0.154, -0.004, -0.243, -0.078, 0.119, 0.098, 1
17894, 0.037, -0.148, -0.017, -0.155, 0.076, 0.063, 1
17914, 0.018, -0.026, -0.099, -0.216, 0.013, 0.1, 1
17934, -0.041, 0.015, -0.287, -0.119, 0.043, 0.152, 1
17954, -0.029, -0.142, -0.157, -0.107, 0.048, 0.119, 1
17974, -0.062, -0.108, -0.117, -0.188, 0.024, 0.045, 1
17994, -0.004, -0.041, -0.11, -0.268, 0.024, 0.062, 1
18014, -0.022, -0.059, -0.122, -0.299, 0.084, 0.161, 1
18034, 0.026, 0.111, -0.403, -0.167, 0.026, 0.101, 1
18054, 0.067, 0.031, -0.435, -0.065, -0.044, 0.069, 1
18074, -0.004, -0.421, 0.036, -0.294, -0.025, 0.026, 0
18094, -0.016, -0.256, -0.275, -0.232, -0.001, 0.017, 0
18114, 0.0, -0.018, -0.238, -0.174, 0.043, -0.01, 0
18134, 0.371, -0.068, -0.133, -0.109, 0.015, 0.034, 0
18154, 0.229, -0.058, -0.242, -0.067, -0.143, 0.109, 0
18174, -0.058, 0.112, -0.428, 0.073, -0.106, 0.116, 0
18194, 0.292, -0.366, -0.002, 0.141, 0.017, 0.08, 0
18214, 0.477, -0.267, -0.014, -0.129, 0.048, 0.105, 0
18234, 0.173, -0.008, -0.226, -0.226, -0.023, 0.042, 0
18254, 0.312, 0.088, -0.175, -0.156, -0.013, -0.171, 0
18274, 0.685, 0.268, -0.162, -0.071, -0.058, -0.162, 0
18294, 0.423, 0.038, -0.089, 0.007, 0.04, 0.055, 0
18314, 0.311, -0.122, 0.072, -0.002, 0.094, 0.039, 0
18334, 0.2, -0.271, -0.058, -0.103, 0.119, -0.029, 0
18354, 0.024, -0.532, -0.088, -0.118, 0.168, -0.073, 0
18374, 0.496, -0.336, -0.048, -0.139, 0.211, -0.122, 0
18394, 0.346, -0.276, -0.235, -0.183, 0.193, 0.091, 0
18414, 0.208, -0.008, -0.521, -0.093, 0.072, 0.1, 0
18434, 0.197, -0.13, -0.602, -0.087, -0.022, 0.128, 0
18454, -0.03, -0.042, -0.66, -0.204, -0.167, 0.101, 0
18474, -0.182, 0.994, -1.279, -0.222, -0.156, 0.305, 0
18494, -0.235, 0.346, -1.068, 0.064, -0.006, 0.57, 0
18514, 0.018, 0.21, -0.916, 0.155, -0.1, 0.569, 0
18534, -0.347, 0.273, -0.808, 0.16, -0.161, 0.525, 0
18554, -0.449, -0.026, -0.3, 0.084, 0.031, 0.351, 0
18574, 0.163, -0.013, -0.109, -0.02, -0.02, 0.414, 0
18594, -0.007, -0.034, -0.203, -0.042, 0.009, 0.492, 0
18614, -0.031, 0.032, -0.286, 0.062, 0.058, 0.557, 0
18634, -0.023, -0.072, -0.133, 0.051, -0.006, 0.542, 0
18654, -0.205, 0.105, -0.021, -0.021, -0.056, 0.5, 0
18674, -0.401, 0.423, 0.067, -0.021, -0.053, 0.451, 0
18694, -0.902, 0.194, 0.404, -0.009, 0.053, 0.593, 0
18714, -1.555, 0.129, 0.718, -0.07, 0.29, 0.588, 0
18734, -0.681, 0.166, 0.197, -0.083, 0.233, 0.633, 0
18754, -0.492, -0.046, -0.339, -0.025, 0.237, 0.618, 0
18774, -0.118, -0.55, -0.142, -0.101, 0.259, 0.626, 0
18794, 0.042, -0.558, -0.367, -0.121, 0.114, 0.623, 0
18814, -0.232, -0.18, -0.723, -0.034, -0.065, 0.463, 0
18834, -0.679, -0.442, -0.413, -0.06, -0.145, 0.288, 0
18854, -0.557, -0.388, -0.251, -0.103, -0.1, 0.271, 0
18874, -0.503, 0.112, -0.533, 0.002, 0.04, 0.472, 0
18894, -0.137, 0.117, -0.522, 0.116, 0.0, 0.417, 0
18914, -0.141, -0.011, -0.243, 0.136, -0.187, 0.383, 0
18934, -0.401, -0.394, 0.161, 0.029, -0.242, 0.381, 0
18954, -0.568, -0.126, -0.073, -0.064, -0.178, 0.617, 0
18974, -0.944, -0.081, -0.358, -0.046, -0.108, 0.612, 0
18994, -1.279, 0.227, -0.517, 0.044, -0.114, 0.472, 0
19014, -1.42, 0.29, -0.676, 0.058, -0.007, 0.525, 0
19034, -1.542, 0.141, -0.512, -0.045, 0.143, 0.709, 0
19054, -1.191, 0.133, -0.733, 0.065, -0.307, 0.514, 0
19074, -1.456, -0.254, -0.063, 0.356, -0.429, 0.301, 0
19094, -1.0, -0.991, 0.941, 0.333, -0.238, 0.23, 0
19114, -0.36, -0.82, 1.183, -0.097, -0.065, 0.29, 0
19134, -0.079, -0.25, 0.493, -0.296, 0.009, 0.295, 0
19154, 0.382, -0.204, -0.138, -0.117, -0.005, 0.143, 0
19174, 0.56, -0.544, 0.189, -0.005, 0.007, 0.096, 0
19194, 0.732, -0.678, 0.527, -0.188, 0.03, 0.187, 0
19214, 0.262, -0.173, 0.01, -0.401, -0.154, 0.255, 0
19234, -0.824, 0.161, -0.457, -0.268, -0.08, 0.293, 0
19254, -0.508, -0.093, 0.106, -0.091, 0.082, 0.153, 0
19274, -0.85, -0.1, 0.04, -0.116, -0.065, 0.076, 0
19294, -0.313, -0.288, -0.257, -0.178, 0.094, 0.091, 0
19314, 0.398, -0.235, -0.544, -0.262, 0.059, 0.147, 0
19334, -0.16, -0.095, -0.608, -0.236, 0.009, 0.254, 0
19354, -0.038, -0.039, -0.516, -0.211, 0.065, 0.291, 0
19374, -0.449, -0.11, -0.317, -0.204, 0.028, 0.288, 0
19394, -0.537, 0.012, -0.285, -0.252, 0.085, 0.241, 0
19414, -0.494, 0.162, -0.557, -0.152, 0.135, 0.204, 0
19434, -0.074, 0.011, -0.327, 0.033, 0.185, 0.112, 1
19454, -0.022, -0.084, -0.162, 0.042, 0.174, 0.063, 1
19474, 0.148, -0.122, 0.033, 0.005, 0.173, 0.065, 1
19494, 0.197, -0.216, 0.07, -0.072, 0.161, 0.084, 1
19514, 0.025, -0.036, -0.004, -0.177, 0.068, 0.1, 1
19534, -0.161, -0.041, -0.166, -0.157, 0.07, 0.061, 1
19554, -0.328, 0.018, -0.426, -0.105, 0.136, 0.034, 1
19574, -0.222, -0.038, -0.536, -0.12, 0.216, 0.016, 1
19594, 0.089, 0.052, -0.825, -0.174, 0.122, 0.023, 1
19614, -0.034, 0.079, -1.149, -0.107, 0.025, 0.032, 1
19634, -0.347, -0.001, -1.232, -0.067, 0.021, 0.065, 1
19654, -0.758, 0.136, -1.316, -0.037, 0.083, 0.106, 1
19674, -0.937, 0.03, -1.173, -0.032, 0.152, 0.168, 1
19694, -0.94, -0.128, -0.93, -0.028, 0.245, 0.184, 1
19714, -0.967, 0.142, -1.047, 0.204, 0.337, -0.036, 1
19734, -0.207, 0.111, -0.977, 0.363, 0.196, -0.098, 1
19754, -0.451, -0.039, -0.771, 0.326, 0.212, -0.073, 1
19774, -0.344, -0.343, -0.589, 0.194, 0.345, -0.038, 1
19794, 0.099, -0.686, -0.247, -0.028, 0.377, 0.0, 1
19814, 0.823, -0.826, -0.113, -0.321, 0.166, 0.123, 1
19834, 0.209, -0.262, -0.352, -0.423, 0.207, 0.152, 1
19854, 0.052, 0.25, -0.869, -0.157, 0.213, -0.103, 1
19874, 0.005, 0.178, -0.855, 0.279, 0.174, -0.313, 1
19894, -0.018, -0.048, -0.223, 0.471, 0.205, -0.412, 1
19914, 0.577, -0.536, 0.613, 0.361, 0.135, -0.465, 1
19934, 0.466, -0.62, 0.819, 0.078, -0.011, -0.414, 1
19954, 0.322, -0.151, 0.438, -0.042, -0.019, -0.409, 1
19974, 0.386, 0.188, 0.144, 0.129, -0.095, -0.544, 1
19994, 0.087, 0.29, 0.369, 0.469, -0.102, -0.478, 1
20014, 0.165, -0.625, 1.415, 0.433, 0.094, -0.592, 1
20034, 1.06, -0.697, 1.344, 0.138, -0.007, -0.65, 1
20054, 0.937, -0.287, 1.02, -0.139, -0.324, -0.574, 1
20074, -0.336, 0.05, 0.844, -0.142, -0.288, -0.419, 1
20094, -0.177, -0.045, 0.979, 0.002, -0.088, -0.563, 1
20114, 0.457, -0.049, 0.714, -0.009, -0.199, -0.676, 1
20134, 0.204, -0.094, 0.566, -0.095, -0.248, -0.6, 1
20154, 0.274, -0.177, 0.801, -0.162, -0.098, -0.628, 1
20174, -0.01, 0.029, 0.863, -0.265, -0.103, -0.636, 1
20194, -0.017, 0.456, 0.465, -0.288, -0.101, -0.652, 1
20214, 0.467, 0.175, 0.056, -0.269, -0.043, -0.605, 1
20234, 1.085, -0.166, 0.057, -0.289, -0.056, -0.642, 1
20254, 1.34, -0.178, 0.068, -0.343, -0.149, -0.634, 1
20274, 1.31, -0.113, -0.039, -0.287, -0.201, -0.469, 1
20294, 1.008, -0.14, -0.078, -0.133, -0.207, -0.246, 1
20314, 0.422, -0.37, 0.43, 0.01, -0.149, -0.213, 1
20334, 0.226, -0.433, 0.812, 0.017, -0.17, -0.408, 1
20354, 1.017, -1.099, 0.821, -0.174, -0.108, -0.494, 1
20374, 1.607, -1.084, 0.448, -0.475, -0.05, -0.425, 1
20394, 1.382, -0.465, 0.035, -0.535, 0.013, -0.323, 1
20414, 0.963, -0.157, -0.164, -0.404, 0.039, -0.163, 1
20434, 0.907, -0.394, -0.147, -0.247, 0.014, -0.168, 1
20454, 0.972, -0.305, -0.357, -0.336, -0.061, -0.185, 1
20474, 0.569, 0.084, -0.862, -0.441, -0.076, 0.009, 1
20494, -0.067, 0.135, -0.864, -0.326, 0.005, -0.024, 1
20514, -0.514, 0.086, -0.56, -0.254, 0.065, -0.149, 1
20534, -0.306, -0.424, -0.461, -0.347, 0.151, -0.318, 1
20554, 0.564, -0.408, -0.783, -0.467, 0.188, -0.23, 1
20574, 0.62, -0.281, -1.224, -0.403, 0.21, -0.13, 1
20594, 0.497, 0.152, -1.459, -0.147, 0.148, -0.04, 1
20614, 0.072, -0.062, -1.3, -0.061, 0.064, 0.029, 1
20634, -0.062, -0.133, -1.167, -0.129, -0.021, 0.047, 1
20654, -0.28, -0.237, -1.045, -0.207, 0.018, 0.031, 1
20674, -0.282, -0.185, -0.865, -0.221, 0.044, -0.043, 1
20694, -0.261, -0.067, -0.666, -0.177, 0.014, 0.014, 1
20714, -0.379, -0.122, -0.702, -0.112, 0.063, 0.062, 1
20734, -0.202, -0.194, -0.699, -0.092, 0.107, 0.111, 1
20754, -0.168, -0.286, -0.578, -0.144, 0.036, 0.064, 1
20774, -0.295, -0.227, -0.321, -0.208, -0.03, 0.034, 1
20794, -0.423, -0.116, -0.261, -0.211, 0.029, 0.066, 1
20814, -0.249, -0.24, -0.24, -0.196, 0.097, 0.058, 1
20834, -0.066, -0.147, -0.277, -0.187, 0.031, 0.04, 1
20854, -0.125, -0.006, -0.308, -0.186, 0.0, 0.052, 1
20874, -0.283, 0.015, -0.26, -0.145, 0.038, 0.07, 1
20894, -0.193, -0.025, -0.212, -0.098, 0.008, 0.044, 1
20914, -0.131, -0.301, -0.102, -0.199, -0.001, 0.014, 1
20934, -0.028, -0.15, -0.141, -0.26, 0.036, 0.074, 1
20954, 0.005, -0.041, -0.249, -0.196, 0.034, 0.098, 1
20974, -0.007, 0.054, -0.243, -0.058, -0.047, 0.04, 1
20994, -0.106, -0.153, -0.153, -0.107, 0.015, 0.018, 1
21014, -0.006, -0.094, -0.308, -0.163, 0.055, 0.042, 1
21034, 0.042, 0.006, -0.467, -0.116, 0.053, 0.059, 1
21054, 0.003, -0.042, -0.287, -0.031, 0.009, 0.059, 1
21074, -0.205, -0.163, -0.05, -0.051, 0.018, 0.051, 1
21094, -0.009, -0.042, -0.012, -0.178, 0.079, -0.019, 1
21114, -0.003, 0.002, -0.077, -0.27, 0.088, 0.006, 1
21134, -0.114, 0.097, -0.26, -0.216, 0.092, 0.043, 1
21154, 0.116, 0.046, -0.233, -0.047, -0.007, -0.04, 1
21174, -0.242, -0.264, -0.081, 0.038, -0.151, -0.016, 1
21194, -0.289, -0.515, 0.166, -0.119, 0.038, 0.033, 1
21214, -0.049, 0.206, -0.078, -0.283, 0.112, 0.051, 0
21234, -0.101, 0.159, -0.449, -0.173, -0.066, 0.019, 0
21254, 0.019, -0.057, -0.356, -0.014, -0.036, 0.058, 0
21274, 0.263, -0.386, -0.056, -0.003, -0.012, 0.015, 0
21294, 0.018, -0.001, -0.339, -0.05, -0.053, 0.031, 0
21314, 0.126, -0.241, -0.187, 0.037, 0.028, 0.017, 0
21334, 0.3, -0.406, 0.011, -0.097, 0.067, 0.014, 0
21354, 0.39, -0.121, -0.245, -0.191, 0.009, 0.038, 0
21374, 0.177, 0.017, -0.298, -0.103, 0.007, 0.087, 0
21394, 0.24, -0.153, -0.17, -0.032, 0.046, 0.109, 0
21414, 0.301, -0.051, -0.26, -0.057, 0.006, 0.089, 0
21434, 0.313, -0.009, -0.361, -0.023, -0.055, 0.083, 0
21454, 0.076, -0.198, -0.104, -0.119, -0.023, 0.064, 0
21474, 0.008, -0.013, 0.015, -0.217, 0.043, -0.014, 0
21494, 0.19, 0.219, -0.14, -0.149, 0.029, 0.041, 0
21514, 0.234, -0.006, -0.134, -0.027, -0.013, 0.091, 0
21534, 0.183, -0.354, 0.014, -0.034, -0.031, 0.182, 0
21554, 0.078, -0.222, -0.003, -0.136, -0.008, 0.194, 0
21574, 0.019, 0.125, -0.235, -0.119, -0.011, 0.18, 0
21594, 0.088, -0.082, -0.216, -0.094, -0.03, 0.229, 0
21614, -0.182, -0.261, -0.2, -0.133, -0.004, 0.287, 0
21634, -0.243, 0.137, -0.366, -0.064, -0.008, 0.208, 0
21654, -0.201, 0.229, -0.318, -0.077, -0.006, 0.287, 0
21674, -0.242, 0.302, -0.408, 0.041, 0.021, 0.186, 0
21694, 0.042, -0.038, -0.139, 0.04, -0.01, 0.161, 0
21714, -0.038, -0.181, -0.175, -0.058, 0.096, 0.3, 0
21734, -0.081, -0.258, -0.172, -0.078, 0.181, 0.278, 0
21754, -0.004, -0.008, -0.278, 0.0, 0.083, 0.212, 0
21774, 0.069, 0.113, -0.489, 0.119, 0.042, 0.28, 0
21794, 0.105, -0.409, -0.192, 0.081, 0.1, 0.364, 0
21814, 0.055, -0.344, 0.014, -0.037, 0.059, 0.469, 0
21834, -0.483, -0.198, -0.019, -0.078, 0.041, 0.419, 0
21854, -0.665, 0.281, -0.095, -0.02, 0.025, 0.362, 0
21874, -0.593, 0.332, -0.349, 0.115, 0.17, 0.401, 0
21894, -0.064, -0.117, -0.249, 0.078, 0.255, 0.461, 0
21914, 0.508, -0.228, -0.166, -0.01, 0.103, 0.431, 0
21934, 0.213, -0.428, -0.305, -0.119, 0.069, 0.571, 0
21954, -0.561, 0.081, -0.686, -0.053, 0.218, 0.664, 0
21974, -0.596, 0.224, -0.381, -0.021, 0.288, 0.556, 0
21994, -0.432, 0.335, -0.154, 0.028, 0.111, 0.4, 0
22014, -0.379, 0.179, 0.24, 0.007, 0.012, 0.371, 0
22034, -0.511, 0.15, 0.33, -0.055, 0.117, 0.679, 0
22054, -0.216, 0.341, 0.159, -0.06, 0.188, 0.757, 0
22074, -0.486, 0.182, 0.358, 0.001, -0.049, 0.731, 0
22094, -0.698, -0.012, 0.334, -0.067, -0.256, 0.636, 0
22114, -0.729, -0.234, -0.102, -0.061, -0.29, 0.55, 0
22134, -0.02, -0.321, -0.481, -0.031, -0.208, 0.537, 0
22154, -0.173, -0.199, -0.791, -0.04, -0.406, 0.596, 0
22174, -1.35, -0.223, -1.115, -0.038, -0.381, 0.603, 0
22194, -0.928, -0.349, -1.194, -0.039, -0.1, 0.495, 0
22214, -1.213, 0.047, -1.442, -0.011, -0.119, 0.578, 0
22234, -1.596, -0.103, -0.992, 0.109, 0.123, 0.59, 0
22254, -1.246, -0.328, -0.491, 0.108, 0.229, 0.579, 0
22274, -1.527, -0.433, -0.414, 0.017, 0.149, 0.493, 0
22294, -1.215, -0.222, -0.249, -0.033, 0.088, 0.379, 0
22314, -1.26, -0.006, -0.086, 0.023, 0.065, 0.442, 0
22334, -1.251, -0.171, 0.205, 0.032, 0.136, 0.535, 0
22354, -1.36, 0.013, -0.004, -0.112, 0.137, 0.524, 0
22374, -0.961, 0.292, -0.038, -0.075, 0.082, 0.362, 0
22394, -1.099, 0.07, 0.426, 0.069, -0.062, 0.295, 0
22414, -1.052, -0.471, 0.774, 0.145, -0.033, 0.209, 1
22434, -0.401, -1.415, 0.952, -0.17, 0.15, 0.237, 1
22454, -0.09, -0.263, 0.452, -0.215, 0.128, 0.122, 1
22474, 0.004, -0.169, 0.267, -0.208, 0.064, 0.142, 1
22494, 0.03, -0.154, -0.179, -0.164, 0.091, 0.202, 1
22514, 0.172, -0.327, -0.311, -0.221, 0.089, 0.238, 1
22534, -0.051, -0.134, -0.195, -0.306, 0.009, 0.228, 1
22554, -0.454, 0.221, -0.212, -0.178, -0.056, 0.082, 1
22574, -0.774, 0.061, -0.171, -0.119, -0.024, -0.027, 1
22594, -0.66, 0.094, -0.668, -0.078, 0.064, -0.098, 1
22614, -0.196, -0.028, -1.131, -0.073, 0.116, -0.098, 1
22634, -0.016, -0.102, -1.311, -0.104, 0.074, -0.053, 1
22654, -0.109, -0.177, -1.474, -0.164, 0.04, 0.016, 1
22674, -0.385, -0.02, -1.795, -0.212, 0.028, 0.1, 1
22694, -0.735, 0.201, -2.078, -0.17, 0.052, 0.062, 1
22714, -0.895, 0.23, -1.957, -0.046, 0.096, -0.017, 1
22734, -0.867, 0.031, -1.482, 0.014, 0.159, -0.069, 1
22754, -0.464, -0.073, -1.239, -0.001, 0.204, -0.108, 1
22774, 0.158, -0.119, -1.16, -0.007, 0.097, -0.109, 1
22794, 0.181, -0.131, -0.925, -0.073, 0.093, -0.032, 1
22814, -0.084, -0.019, -0.711, -0.133, 0.232, -0.021, 1
22834, -0.131, 0.206, -0.913, 0.141, 0.275, -0.268, 1
22854, 0.281, 0.212, -0.707, 0.408, 0.136, -0.37, 1
22874, 0.802, -0.281, -0.103, 0.428, -0.109, -0.4, 1
22894, 0.491, -0.401, 0.201, 0.316, -0.23, -0.433, 1
22914, 0.488, -0.181, 0.215, 0.267, 0.012, -0.402, 1
22934, 1.03, -0.378, 0.405, 0.123, 0.062, -0.377, 1
22954, 0.823, -0.267, 0.438, -0.035, -0.026, -0.351, 1
22974, 0.288, -0.028, 0.479, -0.004, -0.051, -0.324, 1
22994, 0.068, -0.039, 0.882, 0.109, 0.086, -0.363, 1
23014, 0.265, -0.095, 1.235, 0.134, 0.108, -0.495, 1
23034, 0.007, 0.038, 1.389, 0.065, 0.026, -0.502, 1
23054, 0.102, 0.029, 1.42, -0.026, 0.039, -0.508, 1
23074, 0.204, -0.18, 1.518, -0.209, 0.094, -0.392, 1
23094, -0.044, -0.052, 1.353, -0.419, 0.165, -0.329, 1
23114, -0.184, 0.176, 1.044, -0.383, 0.219, -0.544, 1
23134, 0.062, 0.164, 1.086, -0.187, 0.123, -0.639, 1
23154, -0.055, 0.015, 1.429, -0.061, 0.032, -0.625, 1
23174, 0.007, -0.183, 1.742, -0.111, 0.023, -0.592, 1
23194, 0.123, -0.427, 1.576, -0.331, 0.035, -0.584, 1
23214, 0.899, -0.041, 1.019, -0.608, -0.062, -0.637, 1
23234, 0.68, 0.256, 0.509, -0.672, -0.227, -0.533, 1
23254, 0.157, 0.244, 0.683, -0.489, -0.205, -0.543, 1
23274, -0.188, 0.381, 1.072, -0.241, -0.15, -0.479, 1
23294, 0.028, -0.184, 1.015, -0.122, 0.041, -0.456, 1
23314, 1.075, -0.739, 0.484, -0.332, 0.187, -0.541, 1
23334, 1.706, -0.383, -0.501, -0.593, 0.117, -0.632, 1
23354, 1.703, 0.308, -1.283, -0.478, -0.042, -0.588, 1
23374, 1.07, 0.731, -1.267, -0.062, -0.136, -0.345, 1
23394, 0.21, -0.057, -0.31, 0.403, 0.004, -0.409, 1
23414, 1.414, -1.073, 0.18, 0.045, -0.078, -0.445, 1
23434, 2.014, -1.314, -0.223, -0.328, -0.125, -0.301, 1
23454, 1.473, -0.194, -1.16, -0.145, 0.02, -0.12, 1
23474, 0.979, 0.096, -1.114, 0.193, 0.124, -0.122, 1
23494, 0.742, -0.128, -0.196, 0.169, 0.076, -0.123, 1
23514, 0.947, -0.546, 0.203, -0.066, -0.087, -0.127, 1
23534, 0.302, -0.223, 0.13, -0.2, -0.048, -0.068, 1
23554, -0.367, 0.061, 0.19, -0.168, 0.138, -0.186, 1
23574, 0.142, -0.146, 0.066, -0.189, 0.141, -0.241, 1
23594, 0.564, -0.433, -0.196, -0.325, 0.075, -0.114, 1
23614, 0.205, -0.696, -0.123, -0.464, 0.102, -0.064, 1
23634, 0.098, -0.451, -0.265, -0.529, 0.105, -0.015, 1
23654, -0.016, -0.277, -0.638, -0.513, 0.055, 0.0, 1
23674, -0.371, -0.07, -1.012, -0.472, 0.142, 0.06, 1
23694, -0.469, -0.353, -0.905, -0.5, 0.177, 0.047, 1
23714, -0.572, -0.292, -1.055, -0.582, 0.186, 0.042, 1
23734, -0.616, -0.013, -1.501, -0.5, 0.161, 0.045, 1
23754, -0.548, 0.035, -1.649, -0.326, 0.086, 0.048, 1
23774, -0.507, -0.098, -1.607, -0.252, 0.009, 0.048, 1
23794, -0.593, -0.026, -1.477, -0.205, 0.015, 0.05, 1
23814, -0.641, -0.298, -1.092, -0.222, 0.04, 0.028, 1
23834, -0.588, -0.153, -1.011, -0.185, 0.05, 0.017, 1
23854, -0.467, -0.068, -0.978, -0.033, 0.051, 0.028, 1
23874, -0.069, -0.232, -0.734, 0.006, -0.051, 0.032, 1
23894, -0.117, -0.192, -0.246, -0.012, -0.056, 0.059, 1
23914, -0.165, -0.159, 0.052, -0.032, 0.012, 0.059, 1
23934, -0.039, -0.014, 0.052, -0.055, 0.005, 0.054, 1
23954, -0.106, -0.116, 0.018, 0.015, -0.02, 0.083, 1
23974, 0.007, -0.279, 0.18, -0.057, 0.032, 0.089, 1
23994, -0.026, -0.077, 0.005, -0.166, 0.033, 0.076, 1
24014, -0.007, -0.006, -0.148, -0.209, 0.015, 0.081, 1
24034, -0.018, 0.018, -0.251, -0.147, 0.012, 0.078, 1
24054, 0.06, -0.056, -0.327, -0.057, -0.037, 0.065, 1
24074, 0.006, -0.267, -0.146, -0.102, -0.065, 0.051, 1
24094, 0.03, -0.054, -0.166, -0.235, -0.058, 0.046, 1
24114, -0.085, 0.116, -0.311, -0.229, -0.083, 0.053, 1
24134, -0.009, 0.018, -0.307, -0.129, -0.005, 0.056, 0
24154, 0.003, -0.288, -0.203, -0.047, -0.021, 0.05, 0
24174, 0.079, -0.131, -0.209, -0.104, -0.021, 0.076, 0
24194, 0.077, -0.133, -0.109, -0.115, -0.029, 0.11, 0
24214, 0.016, 0.07, -0.185, -0.121, -0.032, 0.135, 0
24234, 0.085, 0.152, -0.221, -0.009, -0.003, 0.087, 0
24254, 0.209, -0.242, -0.069, -0.01, -0.029, 0.038, 0
24274, 0.431, -0.272, -0.13, -0.201, -0.026, 0.007, 0
24294, 0.254, 0.011, -0.374, -0.29, -0.026, 0.001, 0
24314, 0.22, 0.195, -0.453, -0.185, -0.045, -0.081, 0
24334, 0.548, 0.082, -0.371, -0.078, -0.064, -0.033, 0
24354, 0.341, -0.126, -0.243, -0.035, -0.068, 0.164, 0
24374, 0.275, -0.297, -0.153, -0.08, -0.043, 0.227, 0
24394, 0.33, -0.194, -0.215, -0.189, -0.091, 0.224, 0
24414, 0.173, 0.157, -0.46, -0.117, -0.15, 0.094, 0
24434, 0.158, 0.061, -0.193, -0.072, -0.109, -0.034, 0
24454, 0.335, -0.392, 0.355, -0.179, -0.083, -0.045, 0
24474, 0.683, -0.366, 0.445, -0.315, -0.111, 0.12, 0
24494, 0.615, 0.02, 0.088, -0.297, -0.04, 0.339, 0
24514, 0.801, 0.069, 0.073, -0.24, 0.001, 0.522, 0
24534, 0.545, -0.36, 0.202, -0.282, -0.029, 0.597, 0
24554, 0.143, -0.375, 0.111, -0.329, -0.045, 0.572, 0
24574, -0.408, -0.227, 0.103, -0.337, 0.055, 0.458, 0
24594, -0.161, 0.021, 0.139, -0.388, 0.059, 0.452, 0
24614, -0.034, 0.049, -0.105, -0.456, -0.034, 0.473, 0
24634, -0.678, 0.455, -0.576, -0.345, -0.021, 0.596, 0
24654, -1.236, 0.456, -0.57, -0.124, 0.139, 0.553, 0
24674, -0.838, -0.321, 0.027, -0.271, 0.083, 0.366, 0
24694, -0.334, 0.038, -0.272, -0.344, -0.112, 0.423, 0
24714, -0.434, 0.075, -1.023, -0.128, -0.082, 0.685, 0
24734, -0.414, -0.346, -1.039, 0.006, 0.065, 0.744, 0
24754, -0.217, -0.196, -0.89, -0.039, -0.01, 0.795, 0
24774, -0.338, 0.133, -0.922, 0.009, -0.116, 0.697, 0
24794, -0.329, 0.131, -0.726, 0.091, -0.274, 0.69, 0
24814, -0.483, -0.27, -0.485, 0.102, -0.251, 0.662, 0
24834, -0.179, -0.241, -0.447, -0.098, -0.121, 0.86, 0
24854, -0.657, 0.576, -0.991, -0.003, 0.019, 1.036, 0
24874, -0.613, 0.018, -0.608, 0.197, 0.051, 1.095, 0
24894, -0.368, -0.297, -0.34, 0.13, 0.004, 1.123, 0
24914, -0.105, -0.277, -0.393, 0.21, -0.079, 1.079, 0
24934, -0.908, -0.038, 0.027, 0.253, -0.141, 1.086, 0
24954, -1.377, 0.309, 0.156, 0.094, 0.042, 1.177, 0
24974, -1.444, 0.009, 0.236, 0.017, 0.005, 1.128, 0
24994, -1.478, -0.231, -0.007, 0.01, -0.184, 0.863, 0
25014, -1.275, -0.177, -0.044, 0.069, -0.318, 0.625, 0
25034, -0.551, -0.133, -0.132, 0.037, -0.278, 0.621, 0
25054, -1.088, 0.286, -0.296, -0.04, -0.265, 0.8, 0
25074, -1.825, 0.492, -0.243, -0.012, -0.072, 0.897, 0
25094, -1.67, 0.178, 0.153, 0.031, -0.091, 0.774, 0
25114, -1.808, -0.127, 0.138, 0.007, -0.186, 0.681, 0
25134, -1.563, -0.222, 0.444, -0.079, -0.127, 0.591, 0
25154, -2.014, -0.258, 0.651, -0.116, -0.086, 0.559, 0
25174, -1.779, -0.234, 0.546, -0.12, 0.087, 0.458, 0
25194, -0.863, -0.179, 0.147, -0.063, 0.037, 0.277, 0
25214, -1.007, -0.162, 0.167, -0.127, -0.008, 0.275, 0
25234, -1.114, -0.143, 0.362, -0.197, 0.059, 0.25, 0
25254, -0.799, -0.118, 0.058, -0.183, 0.109, 0.2, 1
25274, -0.445, -0.087, -0.364, -0.008, 0.157, 0.124, 1
25294, -0.08, 0.126, -0.242, 0.09, 0.15, 0.015, 1
25314, -0.408, -0.383, 0.191, -0.006, 0.119, 0.019, 1
25334, -0.087, -0.66, 0.399, -0.288, 0.049, 0.032, 1
25354, 0.011, -0.276, -0.238, -0.355, -0.055, 0.009, 1
25374, -0.042, 0.039, -0.788, -0.2, -0.109, -0.056, 1
25394, -0.12, 0.12, -0.926, -0.035, -0.09, -0.036, 1
25414, -0.38, -0.154, -0.555, -0.03, 0.0, -0.042, 1
25434, -0.485, -0.206, -0.582, -0.135, -0.017, -0.092, 1
25454, -0.764, 0.073, -1.166, -0.213, 0.034, -0.136, 1
25474, -0.749, 0.181, -1.571, -0.2, 0.137, -0.12, 1
25494, -0.627, 0.072, -1.501, -0.213, 0.218, -0.063, 1
25514, -0.352, -0.029, -1.546, -0.299, 0.223, -0.03, 1
25534, -0.256, 0.158, -2.014, -0.163, 0.216, -0.142, 1
25554, 0.276, 0.128, -2.164, 0.023, 0.146, -0.16, 1
25574, 0.388, -0.04, -1.753, 0.106, 0.1, -0.133, 1
25594, 0.167, -0.008, -1.286, 0.118, 0.071, -0.105, 1
25614, -0.082, 0.112, -0.893, 0.076, 0.105, -0.054, 1
25634, 0.123, 0.013, -0.81, 0.067, 0.154, 0.03, 1
25654, 0.28, 0.094, -0.974, 0.089, 0.17, 0.06, 1
25674, 0.391, 0.195, -1.05, 0.224, 0.061, -0.126, 1
25694, 0.294, 0.19, -0.657, 0.398, -0.147, -0.309, 1
25714, -0.044, 0.1, -0.096, 0.493, -0.215, -0.288, 1
25734, -0.384, -0.066, 0.367, 0.549, -0.072, -0.277, 1
25754, -0.219, -0.3, 0.786, 0.463, 0.087, -0.389, 1
25774, 0.256, -0.362, 0.984, 0.291, 0.084, -0.463, 1
25794, 0.163, -0.078, 0.72, 0.257, 0.102, -0.636, 1
25814, 0.147, 0.008, 0.768, 0.298, 0.102, -0.605, 1
25834, 0.32, -0.182, 0.807, 0.243, 0.177, -0.68, 1
25854, 0.743, -0.056, 0.775, 0.152, 0.111, -0.673, 1
25874, 0.652, -0.191, 0.8, 0.095, 0.051, -0.648, 1
25894, 0.435, -0.066, 0.823, 0.122, 0.028, -0.683, 1
25914, 0.557, -0.297, 0.964, 0.089, 0.089, -0.693, 1
25934, 0.802, -0.382, 0.927, -0.032, 0.043, -0.666, 1
25954, 0.744, -0.18, 0.87, -0.079, -0.047, -0.64, 1
25974, 0.35, -0.371, 1.017, -0.034, -0.05, -0.555, 1
25994, 0.051, -0.126, 1.144, -0.003, 0.055, -0.581, 1
26014, 0.494, -0.028, 0.9, -0.037, 0.084, -0.629, 1
26034, 0.594, 0.025, 0.596, -0.144, 0.036, -0.582, 1
26054, 0.46, -0.017, 0.547, -0.159, 0.029, -0.521, 1
26074, 0.119, 0.074, 0.507, -0.072, -0.014, -0.472, 1
26094, 0.069, 0.094, 0.595, 0.07, -0.099, -0.47, 1
26114, 0.0, -0.192, 0.84, 0.075, -0.099, -0.466, 1
26134, 0.009, -0.186, 1.065, -0.08, -0.047, -0.439, 1
26154, 0.076, -0.185, 1.27, -0.197, 0.043, -0.414, 1
26174, 0.306, -0.035, 1.032, -0.233, 0.031, -0.391, 1
26194, 0.4, 0.024, 0.815, -0.097, -0.125, -0.406, 1
26214, 0.137, -0.024, 1.011, 0.007, -0.298, -0.329, 1
26234, -0.124, -0.192, 1.425, -0.124, -0.185, -0.283, 1
26254, 0.131, -0.373, 1.424, -0.321, -0.08, -0.263, 1
26274, 0.816, -0.357, 1.218, -0.394, -0.27, -0.321, 1
26294, 0.126, 0.377, 0.485, -0.163, -0.313, -0.066, 1
26314, -0.367, 0.491, 0.093, -0.13, 0.135, -0.122, 1
26334, 0.56, -0.022, 0.028, -0.517, 0.179, -0.056, 1
26354, 0.526, -0.146, -0.507, -0.734, -0.123, -0.074, 1
26374, 0.048, 0.42, -1.318, -0.613, -0.171, -0.069, 1
26394, -0.608, 0.861, -1.924, -0.437, 0.102, -0.032, 1
26414, -0.347, 0.39, -2.069, -0.351, 0.222, -0.028, 1
26434, -0.129, -0.311, -1.835, -0.464, 0.119, -0.093, 1
26454, 0.089, -0.475, -2.015, -0.566, -0.015, -0.123, 1
26474, -0.055, -0.257, -2.232, -0.489, 0.029, -0.045, 1
26494, -0.105, 0.007, -2.143, -0.263, 0.035, -0.017, 1
26514, -0.35, -0.001, -1.847, -0.122, 0.015, -0.061, 1
26534, -0.51, -0.515, -1.296, -0.257, 0.036, -0.062, 1
26554, -0.449, -0.489, -1.16, -0.364, 0.051, -0.034, 1
26574, -0.39, -0.235, -1.19, -0.283, 0.069, -0.025, 1
26594, -0.212, -0.099, -1.187, -0.096, 0.022, 0.012, 1
26614, -0.325, -0.417, -0.663, -0.095, 0.047, 0.026, 1
26634, -0.309, -0.248, -0.445, -0.145, 0.057, 0.028, 1
26654, -0.143, -0.11, -0.444, -0.128, -0.014, 0.0, 1
26674, -0.146, 0.015, -0.397, -0.068, -0.065, -0.051, 1
26694, -0.068, -0.156, -0.188, -0.053, -0.086, -0.025, 1
26714, -0.16, -0.171, -0.04, -0.13, -0.012, 0.05, 0
26734, -0.014, -0.007, -0.129, -0.065, 0.029, 0.076, 0
26754, -0.008, -0.133, 0.099, -0.125, 0.027, 0.064, 0
26774, 0.012, -0.013, 0.0, -0.105, -0.007, 0.052, 0
26794, 0.141, 0.156, -0.346, -0.026, -0.003, 0.094, 0
26814, 0.045, 0.089, -0.474, 0.111, -0.03, 0.13, 0
26834, 0.141, -0.278, -0.104, 0.083, 0.028, 0.117, 0
26854, 0.36, -0.24, -0.112, -0.109, -0.007, 0.119, 0
26874, 0.207, 0.066, -0.332, -0.189, -0.119, 0.06, 0
26894, 0.088, 0.269, -0.428, -0.075, -0.217, -0.032, 0
26914, 0.217, 0.025, -0.105, -0.009, -0.18, 0.005, 0
26934, 0.381, -0.039, -0.027, -0.065, -0.135, 0.15, 0
26954, 0.357, -0.014, -0.067, -0.039, -0.136, 0.208, 0
26974, 0.326, -0.274, 0.062, -0.029, -0.114, 0.263, 0
26994, 0.181, -0.196, -0.031, -0.046, -0.122, 0.263, 0
27014, 0.009, -0.028, 0.077, -0.066, -0.094, 0.215, 0
27034, -0.247, -0.127, 0.264, -0.125, -0.037, 0.157, 0
27054, -0.19, -0.12, 0.118, -0.116, -0.051, 0.01, 0
27074, -0.014, 0.418, -0.428, -0.053, -0.043, 0.177, 0
27094, -0.153, 0.15, -0.422, 0.029, 0.111, 0.392, 0
27114, 0.054, 0.172, -0.222, 0.0, 0.087, 0.326, 0
27134, -0.357, -0.208, -0.209, -0.041, -0.087, 0.229, 0
27154, 0.119, -0.106, -0.432, -0.086, 0.006, 0.116, 0
27174, 0.433, -0.265, -0.595, -0.038, 0.017, 0.111, 0
27194, 1.18, -0.373, -1.103, 0.043, -0.131, 0.098, 0
27214, 1.071, -0.586, -1.041, -0.007, -0.25, 0.289, 0
27234, 0.636, -0.408, -0.655, -0.047, -0.278, 0.375, 0
27254, -0.278, -0.382, -0.081, 0.021, -0.226, 0.513, 0
27274, -0.637, -0.33, 0.361, -0.054, -0.053, 0.594, 0
27294, -0.257, -0.378, 0.461, -0.14, -0.069, 0.475, 0
27314, -0.237, -0.169, 0.177, -0.113, -0.095, 0.489, 0
27334, -0.271, -0.147, -0.097, -0.052, -0.061, 0.509, 0
27354, -0.27, 0.255, -0.23, -0.01, -0.064, 0.755, 0
27374, -0.392, 0.316, -0.598, 0.024, -0.109, 0.792, 0
27394, -0.572, 0.569, -0.782, 0.08, -0.284, 0.72, 0
27414, -0.72, 0.454, -0.789, 0.235, -0.345, 0.781, 0
27434, -0.738, -0.206, -0.242, 0.205, -0.194, 0.86, 0
27454, -0.539, -0.27, -0.197, 0.15, -0.221, 0.849, 0
27474, -0.99, 0.287, -0.656, 0.333, -0.251, 0.679, 0
27494, -0.972, -0.154, 0.09, 0.198, -0.191, 0.681, 0
27514, -1.155, -0.137, 0.493, 0.113, -0.111, 0.596, 0
27534, -0.675, -0.278, 0.678, -0.021, -0.147, 0.527, 0
27554, -0.846, 0.202, 0.271, -0.064, -0.133, 0.55, 0
27574, -0.674, 0.296, 0.259, -0.01, -0.007, 0.624, 0
27594, -0.897, 0.045, 0.493, -0.029, 0.029, 0.723, 0
27614, -0.695, -0.276, 0.266, -0.138, -0.001, 0.742, 0
27634, -0.972, -0.139, -0.247, -0.093, -0.047, 0.669, 0
27654, -1.278, 0.005, -0.358, 0.007, 0.0, 0.693, 0
27674, -1.655, -0.068, -0.016, -0.062, 0.05, 0.713, 0
27694, -2.075, -0.164, -0.005, -0.105, 0.167, 0.608, 0
27714, -1.647, -0.385, 0.069, -0.124, 0.306, 0.489, 0
27734, -0.855, -0.46, 0.29, -0.196, 0.23, 0.559, 0
27754, -1.353, -0.658, 0.821, -0.286, 0.203, 0.575, 0
27774, -1.562, -0.197, 0.067, -0.394, 0.354, 0.492, 0
27794, -0.79, 0.189, -0.53, -0.241, 0.314, 0.307, 0
27814, -1.073, -0.038, -0.41, 0.097, 0.103, 0.249, 0
27834, -1.205, -0.681, 0.198, 0.221, 0.138, 0.23, 1
27854, -0.347, -0.548, 0.365, -0.163, 0.186, 0.405, 1
27874, -1.128, -0.082, -0.691, -0.391, 0.115, 0.544, 1
27894, -1.282, -0.13, -0.952, -0.151, 0.037, 0.282, 1
27914, -1.113, -0.311, -0.647, 0.056, 0.036, 0.114, 1
27934, -0.723, -0.557, -0.306, -0.017, 0.097, 0.071, 1
27954, -0.582, -0.338, -0.59, -0.127, 0.034, 0.048, 1
27974, -0.655, -0.114, -0.959, -0.111, -0.02, -0.004, 1
27994, -0.383, -0.131, -0.907, -0.014, -0.031, -0.104, 1
28014, -0.418, -0.128, -0.684, 0.046, -0.051, -0.133, 1
28034, -0.208, -0.207, -0.39, 0.084, -0.01, -0.178, 1
28054, 0.142, -0.339, -0.433, 0.029, 0.008, -0.127, 1
28074, 0.25, -0.302, -0.573, -0.134, 0.059, 0.043, 1
28094, -0.116, 0.036, -0.801, -0.18, 0.171, 0.171, 1
28114, -0.317, 0.152, -0.761, -0.035, 0.151, 0.05, 1
28134, -0.457, -0.106, -0.536, 0.123, 0.015, -0.097, 1
28154, -0.673, -0.012, -0.362, 0.144, 0.05, -0.173, 1
28174, -0.41, -0.024, -0.258, 0.117, 0.259, -0.154, 1
28194, 0.185, -0.27, -0.203, -0.006, 0.444, -0.009, 1
28214, 0.245, -0.076, -0.51, -0.177, 0.537, 0.161, 1
28234, 0.505, -0.016, -0.82, -0.092, 0.506, 0.125, 1
28254, 0.07, 0.075, -0.694, 0.065, 0.413, 0.084, 1
28274, -0.046, -0.124, -0.145, 0.083, 0.336, -0.054, 1
28294, -0.002, -0.286, 0.046, -0.018, 0.31, -0.108, 1
28314, 0.194, -0.33, 0.036, -0.181, 0.36, -0.111, 1
28334, 0.382, -0.004, -0.122, -0.307, 0.419, -0.048, 1
28354, 0.354, 0.059, -0.285, -0.232, 0.336, -0.255, 1
28374, 0.219, 0.102, -0.227, -0.013, 0.151, -0.404, 1
28394, 0.434, -0.335, 0.038, 0.024, 0.077, -0.493, 1
28414, 0.93, -0.358, 0.076, -0.085, 0.073, -0.347, 1
28434, 0.939, -0.434, 0.192, -0.21, 0.153, -0.275, 1
28454, 0.437, -0.208, 0.149, -0.247, 0.208, -0.305, 1
28474, -0.07, 0.024, 0.126, -0.111, 0.221, -0.616, 1
28494, 0.515, 0.028, 0.082, -0.004, 0.018, -0.712, 1
28514, 0.637, -0.022, 0.017, 0.028, -0.128, -0.673, 1
28534, 0.35, 0.117, 0.137, 0.102, -0.074, -0.568, 1
28554, 0.115, -0.114, 0.683, 0.052, 0.05, -0.529, 1
28574, -0.058, -0.293, 0.891, -0.097, 0.091, -0.656, 1
28594, 0.573, -0.213, 0.668, -0.181, -0.012, -0.691, 1
28614, 0.399, 0.056, 0.452, -0.098, -0.061, -0.638, 1
28634, -0.233, 0.29, 0.743, 0.078, 0.103, -0.667, 1
28654, -0.126, -0.304, 1.355, 0.061, 0.185, -0.7, 1
28674, 0.015, -0.568, 1.525, -0.217, 0.171, -0.742, 1
28694, 0.322, -0.436, 1.075, -0.387, 0.15, -0.784, 1
28714, 1.076, -0.291, -0.523, -0.319, -0.047, -0.71, 1
28734, 0.99, -0.265, -0.62, -0.133, -0.065, -0.619, 1
28754, 0.626, -0.172, -0.06, -0.037, 0.043, -0.539, 1
28774, 0.644, -0.412, 0.235, -0.079, 0.091, -0.483, 1
28794, 1.085, -0.339, -0.137, -0.138, -0.007, -0.534, 1
28814, 1.047, -0.177, -0.511, -0.088, -0.075, -0.48, 1
28834, 0.987, -0.302, -0.452, -0.002, 0.042, -0.4, 1
28854, 1.083, -0.677, -0.179, -0.062, 0.135, -0.294, 1
28874, 0.92, -0.32, -0.32, -0.193, 0.109, -0.266, 1
28894, 0.866, 0.043, -0.621, -0.248, 0.087, -0.229, 1
28914, 0.825, 0.103, -0.815, -0.272, 0.026, -0.194, 1
28934, 0.675, 0.53, -1.02, -0.203, -0.078, -0.108, 1
28954, 0.107, 0.184, -0.799, -0.014, -0.058, 0.014, 1
28974, 0.031, 0.055, -0.332, 0.034, -0.001, -0.036, 1
28994, -0.191, -0.132, -0.258, -0.105, 0.004, -0.014, 1
29014, -0.157, -0.107, -0.444, -0.281, 0.098, 0.011, 1
29034, -0.019, -0.034, -0.611, -0.27, 0.072, -0.067, 1
29054, -0.188, -0.042, -0.756, -0.189, -0.027, -0.018, 1
29074, -0.416, -0.091, -0.813, -0.111, 0.031, 0.042, 1
29094, -0.367, -0.365, -0.611, -0.039, 0.061, 0.075, 1
29114, -0.464, -0.554, -0.304, -0.161, 0.046, 0.05, 1
29134, -0.49, -0.154, -0.373, -0.263, 0.011, 0.02, 1
29154, -0.62, -0.114, -0.461, -0.12, -0.053, 0.025, 1
29174, -0.538, -0.396, -0.281, -0.027, -0.048, -0.021, 1
29194, -0.387, -0.49, -0.268, -0.136, -0.018, -0.024, 1
29214, -0.371, -0.371, -0.316, -0.173, 0.05, -0.029, 1
29234, -0.149, -0.268, -0.236, -0.207, 0.056, -0.009, 1
29254, 0.07, -0.181, -0.283, -0.152, -0.085, -0.011, 1
29274, -0.176, -0.159, -0.42, -0.128, -0.102, 0.035, 1
29294, -0.233, -0.18, -0.342, -0.187, 0.04, 0.063, 1
29314, 0.024, -0.013, -0.285, -0.187, -0.031, 0.075, 1
29334, -0.245, 0.177, -0.418, -0.024, -0.147, 0.085, 1
29354, -0.361, -0.141, -0.212, 0.018, -0.098, 0.012, 1
29374, -0.138, -0.307, -0.084, -0.091, -0.068, 0.029, 1
29394, -0.139, -0.07, -0.184, -0.127, -0.014, 0.072, 1
29414, -0.259, -0.036, -0.247, -0.119, 0.088, 0.05, 1
29434, -0.01, 0.01, -0.221, -0.087, -0.008, 0.039, 1
29454, -0.087, -0.037, -0.193, -0.006, -0.056, 0.048, 1
29474, 0.007, -0.235, -0.052, -0.029, -0.01, 0.053, 1
29494, 0.083, -0.198, 0.06, -0.132, 0.039, 0.054, 1
29514, -0.006, -0.238, 0.218, -0.309, 0.098, 0.039, 1
29534, 0.032, -0.036, 0.069, -0.288, 0.059, 0.005, 0
29554, 0.282, 0.22, -0.43, -0.016, -0.051, 0.048, 0
29574, -0.051, -0.317, -0.151, -0.025, 0.039, 0.061, 0
29594, -0.006, -0.379, 0.163, -0.297, 0.108, 0.053, 0
29614, 0.119, 0.123, -0.106, -0.27, -0.017, 0.078, 0
29634, -0.025, 0.18, -0.318, -0.034, -0.065, 0.059, 0
29654, 0.123, -0.068, -0.263, 0.067, 0.0, 0.047, 0
29674, 0.442, -0.298, -0.153, -0.168, 0.029, 0.136, 0
29694, 0.16, 0.12, -0.208, -0.263, 0.083, 0.134, 0
29714, 0.286, 0.026, -0.202, -0.251, 0.072, 0.059, 0
29734, 0.3, -0.166, -0.136, -0.274, 0.069, 0.026, 0
29754, 0.481, -0.291, -0.274, -0.229, 0.023, 0.06, 0
29774, 0.122, -0.325, -0.418, -0.141, -0.008, 0.128, 0
29794, 0.092, -0.37, -0.366, -0.147, 0.097, 0.031, 0
29814, 0.253, -0.205, -0.415, -0.199, 0.036, -0.106, 0
29834, 0.567, 0.276, -0.562, -0.262, -0.015, 0.116, 0
29854, -0.011, 0.082, -0.539, -0.105, 0.043, 0.373, 0
29874, 0.217, 0.015, -0.412, 0.037, -0.018, 0.286, 0
29894, -0.407, -0.497, 0.183, -0.009, -0.163, 0.109, 0
29914, 0.253, 0.151, 0.27, -0.271, -0.051, -0.043, 0
29934, -0.022, 0.057, -0.319, -0.225, 0.053, 0.373, 0
29954, 0.641, 0.013, -0.47, -0.01, 0.127, 0.39, 0
29974, 0.39, -0.434, -0.356, 0.083, -0.005, 0.414, 0
29994, -0.118, -0.533, -0.181, 0.0, 0.003, 0.238, 0
30014, 0.126, 0.206, -0.28, -0.135, 0.015, 0.018, 0
30034, 0.091, 0.944, -0.734, -0.114, 0.054, 0.432, 0
30054, 0.05, 0.172, -0.164, 0.098, 0.183, 0.618, 0
30074, 0.19, -0.441, 0.245, 0.131, -0.003, 0.616, 0
30094, -0.676, -0.627, 0.227, 0.046, -0.095, 0.505, 0
30114, -0.527, -0.312, 0.174, -0.054, 0.054, 0.285, 0
30134, -0.308, 0.418, -0.136, -0.117, 0.076, 0.387, 0
30154, -0.592, 0.593, -0.326, 0.026, 0.111, 0.718, 0
30174, -0.303, 0.127, -0.245, 0.087, 0.12, 0.758, 0
30194, -0.498, -0.476, -0.179, -0.089, -0.002, 0.714, 0
30214, -1.012, -0.402, -0.367, -0.335, -0.011, 0.541, 0
30234, -0.73, 0.288, -1.047, -0.19, -0.018, 0.601, 0
30254, -0.722, 0.007, -1.141, 0.027, 0.071, 0.69, 0
30274, -0.296, -0.239, -0.661, 0.127, 0.058, 0.707, 0
30294, -0.263, -0.459, -0.161, 0.114, -0.004, 0.682, 0
30314, -0.359, -0.518, -0.084, 0.064, -0.094, 0.623, 0
30334, -0.755, -0.266, -0.276, 0.032, -0.161, 0.587, 0
30354, -0.997, -0.014, -0.244, 0.11, -0.207, 0.536, 0
30374, -1.069, 0.096, 0.05, 0.149, -0.189, 0.654, 0
30394, -1.191, 0.109, 0.168, 0.205, -0.126, 0.658, 0
30414, -1.02, -0.17, 0.539, 0.089, -0.222, 0.646, 0
30434, -1.342, 0.027, 0.329, 0.047, -0.259, 0.638, 0
30454, -1.713, -0.228, 0.383, 0.037, -0.119, 0.697, 0
30474, -1.573, -0.326, 0.41, 0.065, -0.021, 0.65, 0
30494, -1.45, -0.371, 0.493, -0.021, -0.031, 0.654, 0
30514, -1.234, -0.728, 0.76, -0.278, -0.097, 0.767, 0
30534, -1.789, -0.124, 0.314, -0.364, -0.135, 0.723, 0
30554, -1.901, 0.273, -0.269, -0.161, -0.286, 0.454, 0
30574, -2.307, 0.089, -0.225, -0.029, -0.285, 0.39, 0
30594, -2.361, -0.086, 0.037, -0.053, -0.086, 0.428, 0
30614, -2.186, -0.084, -0.156, -0.042, 0.102, 0.49, 0
30634, -1.758, -0.022, -0.408, 0.119, 0.036, 0.172, 1
30654, -1.557, -0.838, -0.104, 0.123, -0.201, 0.152, 1
30674, -1.304, -0.446, -0.062, 0.084, 0.017, 0.125, 1
30694, -0.899, -0.685, 0.033, -0.045, 0.141, 0.12, 1
30714, -0.898, -0.45, -0.07, -0.21, 0.19, 0.132, 1
30734, -0.598, -0.384, 0.042, -0.221, 0.168, -0.015, 1
30754, -0.566, -0.219, -0.44, -0.275, 0.054, -0.066, 1
30774, -0.196, -0.119, -1.053, -0.24, 0.097, -0.061, 1
30794, -0.021, -0.091, -1.197, -0.197, 0.116, -0.001, 1
30814, -0.437, -0.116, -1.106, -0.185, 0.087, 0.075, 1
30834, -0.715, -0.074, -1.175, -0.178, 0.1, 0.012, 1
30854, -0.667, 0.035, -1.352, -0.09, 0.1, -0.062, 1
30874, -0.846, 0.256, -1.479, -0.018, 0.197, -0.072, 1
30894, -0.439, 0.125, -1.511, 0.003, 0.265, -0.12, 1
30914, -0.26, 0.022, -1.619, 0.021, 0.258, -0.125, 1
30934, 0.198, -0.234, -1.497, 0.055, 0.313, -0.098, 1
30954, 0.247, -0.216, -1.406, 0.037, 0.332, -0.025, 1
30974, -0.184, 0.153, -1.349, 0.142, 0.395, -0.083, 1
30994, 0.147, 0.076, -0.788, 0.326, 0.313, -0.241, 1
31014, -0.009, 0.136, -0.54, 0.351, 0.164, -0.224, 1
31034, -0.04, -0.026, -0.292, 0.384, 0.241, -0.105, 1
31054, 0.205, -0.43, 0.25, 0.323, 0.327, -0.114, 1
31074, -0.045, -0.056, 0.227, 0.164, 0.293, -0.167, 1
31094, 0.038, 0.175, 0.232, 0.277, 0.177, -0.309, 1
31114, -0.021, 0.075, 0.543, 0.45, 0.039, -0.298, 1
31134, -0.11, -0.21, 1.177, 0.429, 0.061, -0.328, 1
31154, 0.034, -0.337, 1.469, 0.18, 0.116, -0.274, 1
31174, 0.253, -0.184, 1.445, -0.087, 0.15, -0.164, 1
31194, 0.369, -0.026, 0.875, -0.218, 0.178, -0.111, 1
31214, 0.573, 0.069, 0.51, -0.122, 0.117, -0.229, 1
31234, 0.553, 0.034, 0.749, -0.032, -0.045, -0.279, 1
31254, 0.107, -0.042, 1.121, -0.071, -0.122, -0.312, 1
31274, 0.206, -0.441, 1.14, -0.231, -0.089, -0.4, 1
31294, 0.522, -0.352, 0.976, -0.384, -0.098, -0.378, 1
31314, 0.437, 0.092, 0.627, -0.32, -0.139, -0.342, 1
31334, 0.288, -0.059, 0.599, -0.122, -0.211, -0.39, 1
31354, 0.253, -0.385, 0.803, -0.135, -0.252, -0.447, 1
31374, 0.014, -0.272, 0.988, -0.272, -0.092, -0.483, 1
31394, 0.23, -0.047, 1.12, -0.45, 0.028, -0.311, 1
31414, 0.093, -0.29, 0.927, -0.637, 0.092, -0.236, 1
31434, -0.121, 0.15, 0.231, -0.55, 0.135, -0.257, 1
31454, 0.106, 0.271, -0.24, -0.37, 0.056, -0.41, 1
31474, 0.565, 0.306, -0.369, -0.359, -0.155, -0.412, 1
31494, 0.178, 0.294, -0.394, -0.354, -0.128, -0.353, 1
31514, -0.117, -0.042, -0.301, -0.317, 0.026, -0.441, 1
31534, 0.571, -0.31, -0.486, -0.251, 0.01, -0.486, 1
31554, 0.981, -0.57, -0.583, -0.183, -0.064, -0.393, 1
31574, 0.737, -0.626, -0.317, -0.237, 0.046, -0.278, 1
31594, 0.302, -0.587, -0.111, -0.337, 0.221, -0.327, 1
31614, 0.349, -0.074, -0.82, -0.293, 0.192, -0.34, 1
31634, 0.414, 0.124, -0.511, -0.119, 0.06, -0.355, 1
31654, 0.138, 0.044, -0.181, -0.072, 0.035, -0.321, 1
31674, 0.507, -0.309, -0.371, -0.194, 0.141, -0.274, 1
31694, 0.723, -0.162, -0.908, -0.368, 0.122, -0.208, 1
31714, 0.548, 0.173, -1.409, -0.316, 0.031, -0.244, 1
31734, 0.402, 0.216, -1.349, -0.112, -0.042, -0.243, 1
31754, 0.152, -0.052, -0.913, 0.036, -0.044, -0.177, 1
31774, 0.065, -0.417, -0.416, 0.063, -0.017, -0.167, 1
31794, 0.097, -0.446, -0.315, -0.078, 0.023, -0.109, 1
31814, 0.172, -0.213, -0.463, -0.169, 0.015, -0.151, 1
31834, 0.058, -0.052, -0.364, -0.136, -0.055, -0.127, 1
31854, -0.35, -0.219, -0.153, -0.135, 0.024, -0.005, 1
31874, -0.318, -0.17, -0.131, -0.166, 0.127, 0.023, 1
31894, -0.401, -0.377, -0.09, -0.211, 0.118, -0.031, 1
31914, -0.211, -0.194, -0.148, -0.368, 0.1, -0.07, 1
31934, -0.522, 0.02, -0.328, -0.395, 0.07, 0.084, 1
31954, -0.998, -0.018, -0.3, -0.254, 0.114, 0.116, 1
31974, -0.635, -0.093, -0.25, -0.18, 0.091, 0.041, 1
31994, -0.622, -0.259, -0.229, -0.185, 0.001, 0.047, 1
32014, -0.619, -0.263, -0.258, -0.216, 0.047, 0.06, 1
32034, -0.596, -0.024, -0.438, -0.244, 0.12, 0.096, 1
32054, -0.507, 0.004, -0.45, -0.154, 0.037, 0.036, 1
32074, -0.606, -0.148, -0.175, -0.116, -0.012, 0.03, 1
32094, -0.446, -0.315, 0.03, -0.213, 0.066, 0.025, 1
32114, -0.328, -0.191, -0.069, -0.233, 0.051, 0.0, 1
32134, -0.085, -0.088, -0.081, -0.247, 0.037, -0.014, 1
32154, -0.002, -0.155, -0.139, -0.276, 0.014, 0.033, 1
32174, -0.211, -0.223, -0.141, -0.351, 0.103, -0.029, 0
32194, 0.199, 0.355, -0.204, -0.4, 0.08, -0.125, 0
32214, 0.12, 0.1, -0.433, -0.332, -0.056, -0.048, 0
32234, 0.23, 0.329, -0.877, 0.136, -0.196, 0.036, 0
32254, 0.158, -0.37, -0.527, 0.358, -0.185, 0.052, 0
32274, 0.145, -1.007, 0.428, -0.183, 0.044, 0.091, 0
32294, 0.258, 0.105, -0.383, -0.229, -0.001, 0.127, 0
32314, -0.007, 0.05, -0.525, -0.081, 0.067, 0.039, 0
32334, 0.256, 0.005, -0.418, -0.069, 0.023, -0.039, 0
32354, 0.388, -0.075, -0.408, -0.072, -0.044, -0.047, 0
32374, 0.527, 0.074, -0.517, 0.021, -0.058, 0.029, 0
32394, 0.633, -0.089, -0.445, 0.113, -0.028, 0.037, 0
32414, 0.805, -0.328, -0.091, 0.025, -0.003, 0.127, 0
32434, 0.974, -0.205, -0.178, 0.028, -0.152, 0.027, 0
32454, 0.689, 0.148, -0.522, 0.098, -0.204, 0.09, 0
32474, 0.559, 0.17, -0.612, 0.205, 0.007, 0.081, 0
32494, 1.209, 0.039, -0.298, 0.205, -0.043, 0.346, 0
32514, 0.769, -0.377, 0.012, 0.244, -0.235, 0.408, 0
32534, 0.137, -0.664, 0.308, 0.215, -0.23, 0.43, 0
32554, -0.4, -1.007, 0.433, 0.056, -0.041, 0.303, 0
32574, -0.57, -0.611, 0.143, -0.081, 0.178, 0.081, 0
32594, 0.165, 0.32, -0.493, -0.028, 0.133, 0.425, 0
32614, -0.259, -0.231, -0.34, 0.023, 0.094, 0.606, 0
32634, -0.705, -0.192, -0.501, 0.04, 0.017, 0.612, 0
32654, -0.651, 0.188, -0.41, 0.009, 0.036, 0.453, 0
32674, -0.759, 0.624, -0.409, -0.003, -0.009, 0.461, 0
32694, -0.767, 0.043, 0.024, 0.084, 0.109, 0.4, 0
32714, -0.006, -0.118, 0.194, 0.021, 0.091, 0.416, 0
32734, 0.061, -0.23, 0.177, -0.003, -0.059, 0.431, 0
32754, 0.021, 0.0, 0.041, 0.046, -0.071, 0.384, 0
32774, 0.163, -0.271, 0.345, 0.027, 0.078, 0.511, 0
32794, 0.178, 0.391, -0.133, -0.146, 0.178, 0.587, 0
32814, -0.005, 0.191, -0.473, -0.135, 0.154, 0.756, 0
32834, -0.38, 0.156, -0.512, -0.175, 0.034, 0.718, 0
32854, -0.828, -0.014, -0.548, -0.21, -0.161, 0.681, 0
32874, -1.518, 0.431, -0.793, -0.251, -0.244, 0.692, 0
32894, -2.41, 0.796, -1.038, -0.098, -0.176, 0.735, 0
32914, -1.813, 0.388, -0.789, 0.168, -0.043, 0.6, 0
32934, -1.546, 0.103, -0.422, 0.199, -0.15, 0.542, 0
32954, -1.586, 0.058, -0.109, -0.013, -0.145, 0.648, 0
32974, -2.267, 0.222, -0.267, -0.025, -0.032, 0.692, 0
32994, -2.359, 0.047, -0.326, 0.073, 0.161, 0.761, 0
33014, -1.983, -0.153, -0.346, 0.0, 0.22, 0.831, 0
33034, -1.867, -0.237, -0.131, -0.106, 0.147, 0.831, 0
33054, -2.089, -0.003, -0.074, 0.053, 0.038, 0.545, 0
33074, -1.924, -0.23, 0.189, 0.058, 0.022, 0.461, 0
33094, -1.459, -0.203, 0.177, 0.009, -0.01, 0.5, 0
33114, -1.603, -0.451, 0.459, -0.083, 0.029, 0.573, 0
33134, -1.972, -0.446, 0.7, -0.171, 0.132, 0.491, 0
33154, -1.822, -0.278, 0.372, -0.122, 0.105, 0.346, 0
33174, -1.192, -0.498, 0.385, -0.27, -0.07, 0.474, 0
33194, -1.59, -0.423, 0.103, -0.223, 0.029, 0.489, 0
33214, -1.16, -0.375, -0.224, -0.098, 0.056, 0.379, 0
33234, -0.811, -0.278, -0.377, -0.026, -0.08, 0.26, 0
33254, -1.042, -0.064, -0.463, 0.031, -0.097, 0.264, 0
33274, -1.389, -0.002, -0.263, 0.126, -0.005, 0.213, 1
33294, -1.199, -0.157, 0.016, 0.113, 0.064, 0.138, 1
33314, -0.908, 0.32, -0.009, 0.162, 0.088, -0.004, 1
33334, -0.482, -0.291, -0.079, 0.145, 0.057, -0.036, 1
33354, -0.409, -0.466, 0.048, 0.04, 0.13, -0.015, 1
33374, -0.066, -0.456, -0.046, -0.189, 0.083, 0.039, 1
33394, -0.589, 0.036, -0.841, -0.158, 0.06, -0.008, 1
33414, -0.658, 0.065, -0.988, -0.043, 0.052, -0.087, 1
33434, -0.618, 0.02, -0.956, 0.023, 0.098, -0.128, 1
33454, -0.397, -0.015, -1.031, 0.099, 0.086, -0.152, 1
33474, -0.317, -0.04, -0.93, 0.062, 0.021, -0.121, 1
33494, -0.218, -0.081, -1.058, 0.001, 0.003, -0.058, 1
33514, -0.298, -0.131, -1.137, 0.008, 0.081, -0.061, 1
33534, -0.194, 0.017, -0.971, 0.048, 0.195, -0.015, 1
33554, -0.057, -0.271, -0.363, -0.097, 0.227, 0.043, 1
33574, -0.292, -0.078, -0.815, -0.237, 0.322, 0.131, 1
33594, -0.253, 0.0, -0.771, -0.23, 0.631, 0.188, 1
33614, -0.087, 0.004, -0.578, -0.096, 0.772, 0.049, 1
33634, 0.075, -0.164, -0.342, 0.078, 0.587, -0.12, 1
33654, -0.055, -0.217, -0.185, 0.038, 0.404, -0.194, 1
33674, -0.196, -0.011, -0.135, -0.017, 0.376, -0.246, 1
33694, 0.115, -0.186, 0.346, -0.037, 0.412, -0.314, 1
33714, 0.05, -0.225, 0.401, -0.157, 0.331, -0.221, 1
33734, 0.199, 0.069, -0.091, -0.139, 0.287, -0.365, 1
33754, 0.67, 0.213, -0.175, 0.022, 0.125, -0.488, 1
33774, 0.471, 0.176, 0.052, 0.116, -0.004, -0.382, 1
33794, 0.275, -0.153, 0.496, 0.186, 0.039, -0.335, 1
33814, 0.432, -0.461, 0.939, 0.169, 0.04, -0.29, 1
33834, 0.642, -0.464, 0.969, 0.034, -0.037, -0.319, 1
33854, 0.476, -0.035, 0.783, -0.094, -0.098, -0.332, 1
33874, 0.056, 0.07, 0.823, -0.075, -0.087, -0.406, 1
33894, 0.055, -0.128, 0.96, 0.032, -0.079, -0.479, 1
33914, 0.264, -0.57, 1.175, -0.025, -0.122, -0.615, 1
33934, 0.455, -0.278, 1.322, -0.182, -0.219, -0.707, 1
33954, 0.046, 0.238, 1.058, -0.243, -0.263, -0.666, 1
33974, -0.311, 0.986, 0.714, -0.015, -0.097, -0.749, 1
33994, 0.509, 0.052, 0.862, 0.19, 0.069, -0.802, 1
34014, 1.677, -0.939, 1.039, -0.098, -0.003, -0.819, 1
34034, 1.495, -0.912, 0.852, -0.546, -0.069, -0.612, 1
34054, 1.028, -0.49, 0.733, -0.53, 0.012, -0.387, 1
34074, 0.199, 0.073, 0.279, -0.352, 0.111, -0.413, 1
34094, 0.884, -0.165, -0.146, -0.394, 0.024, -0.468, 1
34114, 1.09, -0.324, -0.622, -0.533, -0.076, -0.442, 1
34134, 0.862, -0.058, -1.012, -0.479, -0.018, -0.359, 1
34154, 0.836, 0.234, -1.098, -0.233, -0.04, -0.202, 1
34174, 0.371, 0.391, -0.788, 0.022, -0.169, -0.264, 1
34194, 0.194, 0.182, -0.544, 0.064, -0.335, -0.285, 1
34214, 0.027, 0.022, -0.578, -0.007, -0.294, -0.333, 1
34234, 0.041, 0.043, -0.776, -0.092, -0.064, -0.356, 1
34254, 0.648, 0.043, -0.819, -0.087, -0.067, -0.301, 1
34274, 1.017, -0.123, -0.809, -0.015, -0.309, -0.243, 1
34294, 0.37, -0.121, -0.579, 0.097, -0.362, -0.181, 1
34314, -0.135, -0.585, 0.014, -0.042, -0.063, -0.17, 1
34334, 0.566, -0.662, -0.164, -0.233, 0.065, -0.117, 1
34354, 1.014, -0.567, -0.627, -0.163, -0.073, -0.122, 1
34374, 0.625, -0.607, -0.597, -0.138, -0.132, -0.124, 1
34394, 0.203, -0.466, -0.44, -0.239, -0.027, -0.191, 1
34414, 0.118, -0.149, -0.416, -0.322, 0.122, -0.156, 1
34434, 0.085, -0.09, -0.637, -0.284, 0.136, -0.053, 1
34454, -0.067, -0.552, -0.431, -0.34, 0.097, -0.036, 1
34474, -0.128, -0.464, -0.548, -0.417, 0.047, 0.042, 1
34494, -0.513, -0.134, -0.792, -0.351, 0.094, 0.06, 1
34514, -0.771, -0.229, -0.713, -0.287, 0.139, 0.045, 1
34534, -0.644, -0.066, -0.713, -0.259, 0.095, 0.066, 1
34554, -0.569, -0.118, -0.653, -0.202, 0.045, 0.078, 1
34574, -0.864, -0.336, -0.306, -0.151, 0.016, 0.094, 1
34594, -0.881, -0.31, -0.08, -0.191, 0.11, 0.072, 1
34614, -0.714, -0.055, -0.218, -0.175, 0.093, 0.036, 1
34634, -0.49, -0.046, -0.198, -0.131, 0.051, 0.009, 1
34654, -0.421, -0.126, -0.158, -0.117, 0.071, 0.048, 1
34674, -0.433, -0.331, 0.069, -0.124, 0.078, 0.04, 1
34694, -0.452, -0.191, 0.087, -0.208, 0.064, 0.04, 1
34714, -0.372, -0.112, -0.013, -0.268, 0.124, 0.036, 1
34734, -0.12, -0.22, -0.237, -0.231, 0.127, 0.026, 1
34754, 0.027, -0.158, -0.353, -0.221, 0.085, 0.035, 1
34774, -0.039, -0.11, -0.303, -0.251, 0.017, 0.036, 1
34794, -0.233, 0.705, -0.333, -0.262, 0.006, 0.003, 0
34814, -0.215, 0.198, -0.487, -0.087, -0.037, 0.048, 0
34834, -0.059, -0.235, -0.275, -0.078, 0.061, 0.08, 0
34854, 0.052, -0.003, -0.405, -0.162, 0.025, 0.06, 0
34874, -0.07, 0.177, -0.558, 0.018, -0.144, 0.034, 0
34894, 0.03, -0.336, -0.117, 0.147, -0.124, -0.014, 0
34914, 0.45, -0.389, 0.004, -0.069, 0.004, 0.026, 0
34934, 0.531, -0.184, -0.172, -0.172, 0.002, 0.071, 0
34954, 0.378, -0.101, -0.145, -0.163, -0.013, 0.13, 0
34974, 0.321, -0.008, -0.156, -0.081, -0.057, 0.105, 0
34994, 0.344, -0.135, 0.028, -0.121, -0.04, 0.07, 0
35014, 0.585, -0.051, -0.141, -0.102, -0.086, 0.09, 0
35034, 0.553, -0.1, -0.213, -0.123, -0.042, 0.148, 0
35054, 0.404, -0.064, -0.09, -0.125, 0.006, 0.165, 0
35074, 0.222, -0.015, 0.06, -0.125, -0.016, 0.113, 0
35094, 0.462, 0.404, -0.259, 0.045, -0.135, 0.114, 0
35114, 0.174, -0.056, -0.12, 0.064, -0.08, 0.222, 0
35134, -0.002, -0.265, 0.168, -0.148, 0.011, 0.24, 0
35154, 0.094, -0.011, 0.046, -0.342, -0.035, 0.364, 0
35174, -0.447, 0.434, -0.47, -0.238, 0.054, 0.477, 0
35194, -0.402, 0.478, -0.689, 0.073, 0.172, 0.371, 0
35214, 0.242, -0.378, -0.165, 0.025, 0.108, 0.414, 0
35234, 0.254, -0.643, -0.125, -0.147, 0.083, 0.474, 0
35254, 0.33, -0.396, -0.33, -0.105, -0.027, 0.57, 0
35274, 0.107, -0.382, -0.344, -0.061, -0.083, 0.605, 0
35294, -0.149, -0.269, -0.139, -0.087, -0.086, 0.545, 0
35314, -0.237, -0.068, -0.094, -0.097, -0.076, 0.477, 0
35334, -0.076, 0.028, -0.016, -0.123, -0.032, 0.525, 0
35354, -0.035, -0.082, -0.082, -0.201, -0.001, 0.584, 0
35374, 0.007, 0.041, -0.295, -0.207, -0.067, 0.55, 0
35394, -0.602, 0.256, -0.726, -0.054, 0.0, 0.392, 0
35414, -0.397, -0.397, -0.534, -0.126, 0.061, 0.197, 0
35434, 0.069, -0.047, -0.749, -0.334, -0.211, 0.134, 0
35454, -0.365, 0.66, -1.178, -0.295, -0.453, 0.233, 0
35474, -0.653, 0.995, -1.278, 0.039, -0.556, 0.389, 0
35494, -1.385, -0.089, -0.165, 0.128, -0.386, 0.541, 0
35514, -0.912, -0.364, 0.249, 0.064, -0.241, 0.484, 0
35534, -0.838, -0.011, -0.037, 0.005, -0.331, 0.505, 0
35554, -0.998, -0.323, 0.208, 0.111, -0.312, 0.57, 0
35574, -1.008, -0.465, 0.395, 0.097, -0.144, 0.626, 0
35594, -0.87, -0.399, 0.533, 0.068, 0.01, 0.577, 0
35614, -0.874, -0.438, 0.512, 0.016, -0.006, 0.477, 0
35634, -0.909, -0.049, 0.239, -0.135, -0.065, 0.433, 0
35654, -0.989, 0.248, -0.106, -0.183, -0.112, 0.514, 0
35674, -1.413, 0.141, -0.154, -0.058, -0.05, 0.502, 0
35694, -1.415, 0.056, -0.021, 0.023, 0.153, 0.508, 0
35714, -0.634, -0.253, 0.229, -0.095, 0.135, 0.608, 0
35734, -0.54, -0.454, 0.158, -0.365, -0.162, 0.687, 0
35754, -1.28, 0.143, -0.867, -0.337, -0.414, 0.607, 0
35774, -1.375, 0.068, -0.902, -0.023, -0.235, 0.505, 0
35794, -1.202, -0.162, -0.25, 0.043, 0.083, 0.646, 0
35814, -1.04, -0.15, -0.027, -0.084, -0.017, 0.69, 0
35834, -1.52, -0.104, -0.002, -0.042, -0.097, 0.624, 0
35854, -1.278, -0.294, 0.311, 0.034, -0.056, 0.468, 0
35874, -0.883, -0.611, 0.412, 0.039, -0.063, 0.331, 0
35894, -0.819, -0.194, 0.2, -0.127, -0.031, 0.334, 0
35914, -0.963, -0.067, 0.183, -0.18, 0.029, 0.353, 0
35934, -0.972, 0.057, 0.01, -0.129, 0.047, 0.229, 1
35954, -0.598, -0.268, -0.071, 0.067, 0.094, 0.032, 1
35974, -0.078, -0.087, 0.054, 0.003, 0.207, 0.05, 1
35994, 0.287, -0.469, -0.062, -0.088, 0.196, 0.104, 1
36014, 0.303, -0.145, -0.379, -0.112, 0.114, 0.138, 1
36034, 0.106, -0.019, -0.59, -0.006, 0.064, 0.036, 1
36054, 0.107, -0.156, -0.448, -0.01, 0.045, 0.006, 1
36074, 0.088, -0.172, -0.208, -0.089, 0.105, 0.046, 1
36094, 0.288, -0.211, -0.021, -0.172, 0.052, 0.087, 1
36114, 0.193, -0.033, -0.181, -0.15, 0.018, 0.065, 1
36134, 0.013, 0.009, -0.322, -0.078, 0.022, 0.037, 1
36154, -0.077, -0.043, -0.222, -0.077, 0.072, -0.006, 1
36174, -0.151, -0.033, -0.219, -0.132, 0.12, 0.007, 1
36194, -0.34, 0.177, -0.536, -0.181, 0.175, 0.061, 1
36214, -0.264, 0.069, -0.762, -0.167, 0.168, 0.044, 1
36234, -0.39, 0.02, -1.045, -0.159, 0.105, 0.021, 1
36254, -0.897, 0.112, -1.349, -0.143, 0.182, 0.01, 1
36274, -1.008, 0.108, -1.514, -0.183, 0.256, 0.05, 1
36294, -1.074, 0.059, -1.705, -0.156, 0.321, 0.087, 1
36314, -1.355, 0.18, -1.891, -0.009, 0.384, 0.02, 1
36334, -1.273, 0.0, -1.72, 0.078, 0.375, -0.018, 1
36354, -1.129, 0.027, -1.585, 0.184, 0.401, 0.029, 1
36374, -0.6, -0.301, -1.439, 0.183, 0.445, 0.076, 1
36394, -0.283, -0.226, -1.161, 0.131, 0.437, 0.21, 1
36414, -0.603, -0.199, -0.962, 0.194, 0.465, 0.185, 1
36434, -0.338, -0.158, -0.586, 0.326, 0.327, -0.046, 1
36454, -0.048, -0.013, 0.369, 0.392, 0.093, -0.161, 1
36474, -0.22, -0.446, 0.706, 0.376, 0.05, -0.188, 1
36494, 0.331, -0.246, 0.928, 0.306, 0.152, -0.212, 1
36514, 0.146, 0.062, 0.888, 0.336, 0.074, -0.173, 1
36534, -0.277, -0.013, 0.941, 0.452, 0.054, -0.218, 1
36554, 0.209, -0.067, 1.028, 0.421, 0.042, -0.427, 1
36574, 0.383, -0.011, 0.79, 0.247, -0.044, -0.456, 1
36594, 0.365, 0.064, 0.769, 0.078, -0.018, -0.481, 1
36614, 0.106, 0.276, 1.044, 0.011, 0.022, -0.465, 1
36634, 0.017, 0.133, 1.148, -0.035, 0.071, -0.555, 1
36654, 0.699, 0.185, 1.068, -0.058, 0.012, -0.824, 1
36674, 1.225, 0.09, 0.916, -0.047, -0.164, -0.905, 1
36694, 1.372, -0.015, 1.096, -0.04, -0.237, -0.904, 1
36714, 1.381, -0.306, 1.413, -0.111, -0.225, -0.841, 1
36734, 1.119, -0.306, 1.494, -0.283, -0.241, -0.805, 1
36754, 0.96, 0.216, 1.328, -0.416, -0.202, -0.752, 1
36774, 1.028, 0.087, 1.192, -0.304, -0.22, -0.756, 1
36794, 1.397, -0.292, 1.213, -0.228, -0.3, -0.79, 1
36814, 1.266, -0.151, 0.899, -0.321, -0.26, -0.74, 1
36834, 1.311, 0.104, 0.48, -0.392, -0.049, -0.632, 1
36854, 1.276, 0.553, 0.295, -0.379, 0.103, -0.675, 1
36874, 1.415, 0.399, 0.12, -0.265, 0.005, -0.729, 1
36894, 1.738, 0.019, -0.271, -0.171, -0.154, -0.687, 1
36914, 1.633, -0.54, -0.297, -0.208, -0.059, -0.613, 1
36934, 1.72, -0.335, -0.039, -0.259, 0.155, -0.656, 1
36954, 2.216, -0.246, -0.01, -0.251, -0.039, -0.477, 1
36974, 1.696, -0.372, -0.354, -0.331, -0.015, -0.344, 1
36994, 1.399, -0.441, -0.494, -0.461, 0.152, -0.299, 1
37014, 1.534, -0.29, -0.754, -0.452, 0.142, -0.273, 1
37034, 1.294, -0.367, -0.807, -0.351, 0.112, -0.236, 1
37054, 1.147, -0.671, -0.664, -0.392, 0.122, -0.211, 1
37074, 0.999, -0.466, -0.986, -0.519, 0.152, -0.078, 1
37094, 0.467, -0.323, -1.252, -0.591, 0.237, 0.001, 1
37114, 0.288, -0.146, -1.458, -0.526, 0.167, -0.032, 1
37134, 0.085, -0.004, -1.53, -0.397, 0.026, -0.08, 1
37154, -0.127, -0.21, -1.324, -0.365, 0.029, -0.048, 1
37174, -0.632, -0.35, -1.101, -0.378, 0.152, 0.037, 1
37194, -0.789, -0.268, -1.068, -0.431, 0.267, 0.023, 1
37214, -0.355, -0.125, -1.239, -0.402, 0.131, -0.061, 1
37234, -0.156, 0.068, -1.319, -0.22, -0.079, 0.013, 1
37254, -0.478, 0.079, -1.246, 0.03, -0.145, 0.119, 1
37274, -0.976, -0.365, -0.888, 0.01, -0.018, 0.119, 1
37294, -0.756, -0.364, -0.474, -0.135, 0.063, 0.139, 1
37314, -0.601, -0.184, -0.358, -0.157, 0.073, 0.103, 1
37334, -0.51, -0.157, -0.317, -0.051, 0.046, 0.051, 1
37354, -0.275, -0.217, -0.204, -0.014, 0.034, 0.021, 1
37374, -0.15, -0.225, -0.081, -0.056, 0.014, 0.003, 1
37394, -0.092, -0.249, -0.067, -0.12, 0.029, 0.041, 1
37414, -0.163, -0.162, 0.0, -0.239, 0.133, 0.07, 1
37434, -0.169, 0.105, 0.113, -0.291, 0.08, 0.04, 0
37454, -0.193, -0.294, 0.281, -0.532, 0.107, 0.01, 0
37474, 0.128, 0.506, -0.594, -0.491, 0.032, 0.052, 0
37494, 0.081, 0.411, -1.157, 0.213, -0.147, 0.094, 0
37514, -0.13, -1.27, 0.091, 0.44, -0.086, 0.07, 0
37534, 0.334, -0.577, 0.048, -0.141, 0.098, 0.133, 0
37554, -0.02, 0.041, -0.503, -0.255, 0.02, 0.13, 0
37574, 0.061, 0.165, -0.717, -0.065, -0.034, 0.062, 0
37594, -0.056, 0.038, -0.601, 0.054, 0.032, 0.067, 0
37614, 0.263, -0.289, -0.383, 0.084, 0.113, 0.065, 0
37634, 0.361, -0.363, -0.248, -0.005, 0.072, 0.079, 0
37654, 0.324, -0.035, -0.502, -0.073, -0.002, 0.106, 0
37674, 0.151, 0.248, -0.616, 0.027, 0.012, 0.036, 0
37694, 0.165, 0.034, -0.298, 0.141, 0.067, -0.007, 0
37714, 0.487, -0.323, 0.032, 0.104, -0.007, -0.072, 0
37734, 0.494, -0.137, -0.202, -0.068, -0.104, -0.072, 0
37754, 0.066, 0.612, -0.663, 0.017, -0.04, -0.046, 0
37774, 0.387, 0.254, -0.24, 0.284, 0.105, -0.045, 0
37794, 0.845, -0.137, 0.364, 0.287, -0.072, -0.041, 0
37814, 0.066, -0.664, 0.749, 0.122, -0.187, 0.108, 0
37834, 0.017, -0.836, 0.783, -0.127, 0.043, 0.232, 0
37854, 0.336, -0.321, 0.115, -0.18, 0.04, 0.233, 0
37874, 0.047, -0.052, -0.293, -0.073, -0.033, 0.329, 0
37894, 0.142, -0.435, 0.015, -0.039, 0.004, 0.329, 0
37914, 0.06, -0.59, 0.234, -0.199, -0.018, 0.384, 0
37934, -0.414, -0.083, -0.079, -0.189, 0.117, 0.439, 0
37954, -0.385, 0.09, -0.197, -0.09, 0.098, 0.349, 0
37974, -0.258, 0.342, -0.231, 0.025, 0.067, 0.358, 0
37994, -0.368, -0.453, 0.282, -0.122, 0.175, 0.326, 0
38014, -0.338, -0.594, 0.429, -0.367, 0.223, 0.186, 0
38034, 0.012, -0.283, 0.299, -0.465, -0.018, -0.068, 0
38054, 0.387, 0.267, 0.038, -0.5, -0.301, 0.196, 0
38074, -0.671, 0.105, -0.34, -0.326, -0.023, 0.504, 0
38094, -0.206, -0.646, 0.256, -0.376, 0.222, 0.515, 0
38114, 0.488, -0.651, 0.513, -0.567, -0.122, 0.383, 0
38134, 0.175, -0.107, -0.228, -0.503, -0.529, 0.284, 0
38154, -0.445, 0.437, -0.855, -0.271, -0.485, 0.574, 0
38174, -5.906, 7.443, -6.338, 1.009, 0.235, 0.308, 0
38194, -0.308, -1.943, 0.484, -0.259, -0.343, 1.053, 0
38214, -1.551, 0.199, -0.652, 0.036, 0.033, 0.824, 0
38234, -1.567, 1.075, -1.243, 0.11, 0.189, 0.673, 0
38254, -5.385, 5.249, -4.444, 0.144, 0.688, 0.783, 0
38274, -5.997, 5.763, -5.527, 0.137, 0.539, 0.505, 0
38294, -1.834, 1.473, -3.151, 0.503, -0.882, 0.07, 0
38314, -0.419, -2.307, 0.834, 0.693, -0.775, 0.038, 0
38334, 1.8, -3.977, 3.517, 0.522, 0.006, 0.295, 0
38354, 2.743, -3.308, 3.85, 0.302, 0.224, 0.502, 0
38374, 2.444, -3.005, 3.224, -0.078, 0.196, 0.538, 0
38394, -0.111, -0.122, 0.605, -0.141, -0.175, 0.384, 0
38414, -0.996, 0.185, 0.141, -0.097, -0.381, 0.395, 0
38434, -1.925, 0.319, 0.145, -0.087, -0.319, 0.538, 0
38454, -1.721, 0.144, 0.153, 0.015, 0.061, 0.604, 0
38474, -1.326, 0.392, -0.144, 0.088, -0.064, 0.415, 0
38494, -2.003, 0.179, -0.063, 0.017, -0.298, 0.422, 0
38514, -2.007, -0.338, 0.185, -0.067, -0.127, 0.475, 0
38534, -1.281, -0.807, 0.211, -0.062, -0.043, 0.445, 0
38554, -1.382, -0.495, 0.086, -0.144, -0.097, 0.474, 0
38574, -1.919, -0.126, 0.185, -0.191, -0.012, 0.478, 0
38594, -1.919, -0.228, 0.49, -0.257, 0.098, 0.464, 0
38614, -1.759, -0.185, 0.214, -0.272, 0.043, 0.309, 0
38634, -1.41, -0.18, 0.018, -0.285, 0.138, 0.245, 0
38654, -0.99, -0.13, -0.089, -0.342, 0.228, 0.281, 0
38674, -0.772, -0.03, -0.277, -0.31, 0.167, 0.217, 0
38694, -0.758, -0.03, -0.387, -0.198, 0.056, 0.142, 1
38714, -0.584, -0.312, -0.205, -0.082, 0.049, 0.07, 1
38734, -0.318, 0.073, -0.513, -0.174, 0.063, 0.064, 1
38754, -0.106, -0.193, -0.542, 0.021, 0.087, 0.011, 1
38774, -0.087, -0.11, -0.416, -0.016, 0.071, 0.078, 1
38794, -0.09, -0.059, -0.37, 0.003, 0.07, 0.121, 1
38814, 0.103, -0.112, -0.281, 0.034, -0.042, 0.031, 1
38834, -0.025, -0.101, -0.181, 0.021, -0.103, 0.027, 1
38854, 0.15, -0.068, -0.142, -0.015, -0.023, 0.046, 1
38874, -0.073, -0.008, -0.159, -0.078, 0.028, 0.048, 1
38894, -0.14, -0.012, -0.226, -0.091, 0.092, 0.039, 1
38914, 0.011, -0.09, -0.363, -0.097, 0.102, 0.021, 1
38934, 0.119, -0.031, -0.677, -0.13, 0.095, 0.051, 1
38954, -0.074, 0.093, -0.818, -0.216, 0.068, 0.136, 1
38974, -0.497, 0.217, -0.969, -0.226, 0.045, 0.165, 1
38994, -0.764, 0.149, -1.099, -0.175, 0.087, 0.147, 1
39014, -0.735, -0.086, -1.017, -0.103, 0.128, 0.086, 1
39034, -1.002, 0.024, -1.179, -0.109, 0.246, 0.111, 1
39054, -1.06, 0.02, -1.27, -0.105, 0.331, 0.105, 1
39074, -0.716, -0.202, -1.279, -0.095, 0.273, 0.078, 1
39094, -0.432, -0.287, -1.232, -0.029, 0.236, 0.028, 1
39114, -0.418, -0.157, -1.165, 0.047, 0.259, -0.006, 1
39134, -0.41, -0.037, -1.206, 0.098, 0.335, -0.013, 1
39154, -0.268, 0.081, -1.059, 0.177, 0.389, 0.028, 1
39174, -0.227, -0.044, -0.546, 0.188, 0.384, -0.008, 1
39194, -0.197, -0.017, -0.101, 0.145, 0.332, 0.032, 1
39214, -0.244, -0.18, 0.149, 0.131, 0.315, -0.04, 1
39234, -0.033, -0.141, 0.334, 0.164, 0.205, -0.221, 1
39254, -0.064, 0.028, 0.291, 0.229, 0.103, -0.365, 1
39274, 0.083, 0.081, 0.269, 0.309, 0.003, -0.518, 1
39294, 0.241, 0.041, 0.258, 0.31, -0.096, -0.456, 1
39314, 0.2, -0.098, 0.205, 0.293, -0.055, -0.338, 1
39334, 0.184, -0.288, 0.357, 0.24, 0.026, -0.366, 1
39354, 0.532, -0.262, 0.686, 0.128, -0.05, -0.375, 1
39374, -0.076, 0.171, 0.934, 0.147, -0.045, -0.392, 1
39394, -0.042, 0.008, 1.143, 0.171, 0.026, -0.417, 1
39414, -0.113, -0.303, 1.364, 0.077, 0.082, -0.453, 1
39434, 0.967, -0.255, 1.098, -0.104, 0.052, -0.674, 1
39454, 1.476, -0.104, 0.339, -0.177, -0.158, -0.701, 1
39474, 1.886, 0.009, 0.244, -0.103, -0.254, -0.817, 1
39494, 1.669, 0.064, 0.62, -0.063, -0.258, -0.591, 1
39514, 1.154, -0.187, 0.87, -0.093, -0.122, -0.364, 1
39534, 1.045, 0.039, 0.779, -0.2, 0.004, -0.356, 1
39554, 0.896, 0.403, 0.168, -0.29, 0.001, -0.363, 1
39574, 1.123, 0.832, -0.2, -0.156, -0.076, -0.52, 1
39594, 0.747, 1.126, -0.122, 0.056, -0.248, -0.428, 1
39614, 0.178, 0.244, 0.329, 0.106, -0.142, -0.379, 1
39634, 0.787, -0.016, 0.442, -0.106, 0.0, -0.459, 1
39654, 1.089, -0.051, 0.239, -0.299, -0.029, -0.428, 1
39674, 1.209, 0.44, -0.053, -0.262, -0.076, -0.409, 1
39694, 1.05, 0.684, -0.082, -0.047, -0.109, -0.319, 1
39714, 0.538, 0.005, 0.372, 0.121, -0.027, -0.216, 1
39734, 0.965, -0.853, 0.798, -0.045, 0.124, -0.251, 1
39754, 1.604, -0.853, 0.122, -0.43, 0.04, -0.231, 1
39774, 1.443, -0.072, -0.733, -0.563, -0.02, -0.137, 1
39794, 1.3, 0.229, -0.814, -0.331, -0.01, -0.067, 1
39814, 0.751, 0.084, -0.345, -0.135, -0.095, 0.024, 1
39834, 0.154, -0.176, -0.109, -0.177, 0.102, 0.012, 1
39854, 0.375, -0.317, -0.211, -0.414, 0.285, -0.032, 1
39874, 0.756, -0.218, -0.798, -0.519, 0.227, -0.12, 1
39894, 1.035, 0.0, -1.11, -0.431, -0.021, -0.014, 1
39914, 0.107, 0.1, -1.051, -0.242, 0.0, 0.177, 1
39934, -0.259, -0.433, -0.636, -0.168, 0.153, 0.211, 1
39954, -0.26, -0.751, -0.566, -0.302, 0.124, 0.135, 1
39974, -0.375, -0.3, -0.888, -0.329, 0.003, 0.016, 1
39994, -0.608, -0.11, -0.92, -0.352, 0.017, 0.085, 1
40014, -0.91, 0.178, -0.854, -0.216, 0.117, 0.171, 1
40034, -0.862, -0.016, -0.735, -0.029, 0.046, 0.105, 1
40054, -0.827, -0.588, -0.399, -0.147, -0.009, 0.055, 1
40074, -0.727, -0.523, -0.36, -0.294, 0.014, 0.019, 1
40094, -0.531, -0.255, -0.45, -0.251, 0.007, 0.053, 1
40114, -0.515, -0.117, -0.364, -0.183, 0.043, 0.114, 1
40134, -0.596, -0.221, -0.236, -0.118, 0.077, 0.081, 1
40154, -0.562, -0.458, 0.057, -0.196, 0.089, 0.022, 1
40174, -0.328, -0.366, -0.099, -0.265, 0.081, -0.031, 1
40194, -0.151, -0.107, -0.424, -0.21, 0.083, -0.03, 1
40214, -0.031, -0.054, -0.529, -0.172, 0.056, -0.001, 1
40234, -0.188, -0.207, -0.245, -0.255, 0.068, -0.03, 1
40254, -0.122, -0.069, -0.337, -0.207, -0.023, -0.009, 0
40274, -0.265, -0.994, -0.168, -0.252, 0.079, 0.004, 0
40294, -0.159, -0.516, 0.125, -0.441, 0.221, -0.004, 0
40314, 0.285, 0.096, -0.211, -0.178, -0.078, 0.015, 0
40334, 0.051, -0.02, -0.168, -0.003, -0.009, 0.014, 0
40354, 0.303, -0.036, -0.09, -0.147, 0.072, 0.047, 0
40374, 0.034, 0.125, -0.277, -0.219, 0.051, 0.014, 0
40394, 0.142, 0.166, -0.422, -0.13, 0.066, -0.021, 0
40414, 0.566, -0.218, -0.253, -0.017, 0.036, -0.071, 0
40434, 0.684, -0.397, -0.239, -0.018, -0.042, -0.007, 0
40454, 0.564, -0.34, -0.208, -0.07, -0.07, 0.003, 0
40474, 0.594, -0.046, -0.171, -0.083, -0.094, -0.076, 0
40494, 0.67, 0.165, -0.254, -0.084, -0.092, 0.165, 0
40514, 0.373, -0.034, 0.047, -0.006, -0.051, 0.255, 0
40534, 0.358, -0.49, 0.071, -0.053, -0.043, 0.301, 0
40554, 0.559, -0.41, -0.34, -0.151, -0.114, 0.29, 0
40574, 0.337, -0.098, -0.41, -0.16, -0.251, 0.217, 0
40594, -0.065, 0.145, -0.216, -0.089, -0.302, 0.143, 0
40614, -0.177, 0.209, 0.006, -0.012, -0.235, 0.317, 0
40634, -0.274, -0.025, 0.224, 0.026, -0.031, 0.514, 0
40654, -0.379, -0.118, 0.07, -0.001, 0.138, 0.608, 0
40674, 0.032, 0.041, -0.288, -0.096, 0.075, 0.492, 0
40694, -0.069, 0.101, -0.647, -0.124, -0.035, 0.426, 0
40714, -0.12, 0.042, -0.877, 0.022, 0.04, 0.563, 0
40734, -0.441, -0.031, -0.783, 0.135, 0.18, 0.659, 0
40754, -0.25, -0.002, -0.612, 0.049, 0.248, 0.67, 0
40774, -0.385, 0.133, -0.496, -0.023, 0.07, 0.524, 0
40794, -0.294, -0.114, -0.237, 0.022, -0.097, 0.295, 0
40814, 0.064, -0.061, -0.408, -0.007, -0.041, 0.692, 0
40834, -0.329, -0.315, -0.432, -0.004, 0.177, 0.794, 0
40854, -0.382, -0.059, -0.478, 0.036, 0.128, 0.723, 0
40874, -0.478, -0.162, -0.328, 0.072, 0.003, 0.561, 0
40894, -0.417, -0.316, 0.066, -0.012, -0.073, 0.399, 0
40914, -0.094, -0.024, -0.012, -0.014, -0.104, 0.551, 0
40934, -0.31, -0.16, -0.068, 0.113, 0.0, 0.472, 0
40954, -0.214, -0.028, 0.168, 0.195, 0.042, 0.438, 0
40974, -0.044, -0.279, 0.526, 0.015, -0.001, 0.348, 0
40994, 0.104, 0.048, 0.149, -0.106, -0.163, 0.359, 0
41014, -0.08, 0.479, -0.454, 0.058, -0.129, 0.585, 0
41034, -0.261, -0.283, -0.136, 0.127, 0.014, 0.642, 0
41054, -0.181, -0.325, 0.257, 0.031, -0.042, 0.67, 0
41074, -0.373, -0.234, 0.087, -0.089, -0.109, 0.594, 0
41094, -0.719, 0.369, -0.293, -0.06, -0.16, 0.453, 0
41114, -0.724, 0.348, -0.147, -0.018, -0.237, 0.303, 0
41134, -0.476, -0.024, 0.124, -0.109, -0.34, 0.316, 0
41154, -0.565, 0.215, -0.429, -0.08, -0.218, 0.519, 0
41174, -0.711, 0.148, -0.556, 0.039, -0.054, 0.569, 0
41194, -0.5, 0.051, -0.157, 0.044, -0.169, 0.478, 0
41214, -1.143, 0.004, 0.044, -0.018, -0.17, 0.468, 0
41234, -1.17, -0.19, 0.095, 0.006, 0.038, 0.43, 0
41254, -0.592, -0.273, 0.047, -0.02, -0.013, 0.414, 0
41274, -0.937, 0.078, -0.16, -0.032, 0.004, 0.532, 0
41294, -0.54, -0.293, 0.085, -0.042, -0.007, 0.512, 0
41314, -0.744, -0.243, -0.114, 0.002, -0.122, 0.416, 0
41334, -0.748, -0.239, 0.021, 0.018, -0.034, 0.356, 0
41354, -0.207, -0.303, -0.041, -0.053, -0.01, 0.318, 0
41374, -0.175, -0.412, -0.163, -0.07, -0.095, 0.312, 0
41394, -0.287, -0.425, -0.072, -0.136, -0.031, 0.323, 0
41414, -0.209, -0.152, -0.369, -0.19, 0.12, 0.331, 0
41434, -0.019, 0.32, -0.989, -0.08, 0.148, 0.245, 0
41454, 0.079, 0.011, -0.856, 0.257, -0.034, 0.062, 1
41474, -0.122, -0.206, -0.398, 0.226, 0.023, 0.109, 1
41494, -0.075, -0.181, -0.239, 0.122, 0.178, 0.138, 1
41514, 0.181, -0.243, -0.288, 0.007, 0.261, 0.143, 1
41534, 0.29, -0.106, -0.37, -0.123, 0.18, 0.117, 1
41554, 0.125, -0.044, -0.426, -0.125, 0.133, 0.067, 1
41574, 0.269, -0.089, -0.422, -0.103, 0.152, 0.065, 1
41594, 0.049, 0.076, -0.639, -0.131, 0.147, 0.127, 1
41614, -0.025, -0.012, -0.453, -0.164, 0.224, 0.223, 1
41634, -0.312, 0.0, -0.353, -0.174, 0.139, 0.23, 1
41654, -0.639, 0.132, -0.292, -0.102, 0.141, 0.167, 1
41674, -0.436, -0.039, -0.148, -0.05, 0.254, 0.125, 1
41694, -0.097, -0.01, -0.307, -0.076, 0.285, 0.042, 1
41714, 0.073, -0.196, -0.412, -0.04, 0.241, 0.007, 1
41734, 0.344, -0.278, -0.527, -0.037, 0.2, -0.007, 1
41754, 0.478, -0.406, -0.635, -0.032, 0.155, 0.094, 1
41774, 0.398, -0.504, -0.39, -0.166, 0.268, 0.211, 1
41794, 0.325, -0.288, -0.362, -0.114, 0.202, 0.146, 1
41814, 0.173, -0.091, -0.376, -0.011, 0.04, 0.087, 1
41834, -0.02, -0.141, -0.314, 0.035, 0.025, 0.006, 1
41854, -0.014, -0.078, -0.271, 0.051, 0.094, 0.071, 1
41874, 0.005, -0.563, 0.036, -0.066, 0.169, 0.125, 1
41894, 0.147, -0.812, 0.254, -0.252, 0.094, 0.113, 1
41914, -0.025, -0.24, -0.266, -0.212, -0.07, -0.055, 1
41934, -0.139, 0.124, -0.663, 0.07, -0.171, -0.113, 1
41954, -0.359, -0.158, -0.393, 0.158, -0.128, -0.105, 1
41974, -0.257, -0.553, 0.093, 0.065, -0.097, -0.191, 1
41994, 0.034, -0.353, 0.307, -0.08, -0.131, -0.113, 1
42014, -0.058, -0.452, 0.373, -0.206, -0.088, -0.169, 1
42034, -0.097, -0.224, 0.093, -0.152, -0.108, -0.384, 1
42054, 0.203, -0.199, -0.005, -0.062, -0.238, -0.514, 1
42074, 0.141, -0.042, 0.005, -0.058, -0.249, -0.464, 1
42094, -0.236, 0.116, 0.077, -0.098, -0.081, -0.39, 1
42114, -0.21, -0.087, 0.208, -0.223, 0.031, -0.426, 1
42134, -0.046, 0.297, -0.094, -0.242, -0.003, -0.467, 1
42154, -0.034, 0.787, -0.301, -0.041, -0.009, -0.434, 1
42174, 0.012, 0.454, 0.091, -0.036, 0.049, -0.387, 1
42194, -0.074, 0.278, 0.472, -0.193, 0.108, -0.299, 1
42214, -0.103, 0.072, 0.486, -0.246, 0.155, -0.28, 1
42234, 0.174, 0.153, 0.195, -0.281, 0.147, -0.346, 1
42254, 0.395, 0.354, -0.097, -0.235, 0.101, -0.327, 1
42274, 0.157, 0.447, -0.335, -0.284, 0.167, -0.292, 1
42294, 0.131, 0.395, -0.445, -0.234, 0.222, -0.279, 1
42314, 0.281, 0.143, -0.513, -0.166, 0.149, -0.32, 1
42334, 0.268, -0.072, -0.321, -0.032, 0.03, -0.303, 1
42354, 0.076, -0.241, 0.108, 0.069, 0.038, -0.223, 1
42374, 0.2, -0.706, 0.627, 0.089, 0.123, -0.22, 1
42394, 0.316, -0.627, 0.505, -0.059, 0.091, -0.215, 1
42414, 0.122, -0.331, 0.146, -0.108, 0.014, -0.243, 1
42434, 0.089, -0.25, 0.179, -0.048, 0.001, -0.235, 1
42454, 0.112, -0.403, 0.399, -0.013, 0.036, -0.204, 1
42474, 0.064, -0.599, 0.519, -0.045, 0.015, -0.152, 1
42494, -0.278, -0.217, 0.223, -0.123, -0.018, -0.09, 1
42514, -0.611, -0.247, 0.073, -0.184, 0.022, -0.08, 1
42534, -0.299, -0.02, -0.284, -0.268, 0.054, -0.213, 1
42554, -0.299, -0.083, -0.554, -0.268, 0.042, -0.29, 1
42574, -0.081, 0.052, -0.823, -0.269, 0.129, -0.312, 1
42594, -0.174, 0.195, -1.231, -0.159, 0.106, -0.253, 1
42614, -0.714, 0.399, -1.225, 0.105, 0.125, -0.234, 1
42634, -0.455, -0.094, -0.575, 0.236, 0.249, -0.301, 1
42654, 0.486, -0.51, -0.292, -0.028, 0.145, -0.458, 1
42674, 0.508, -0.084, -0.703, -0.296, -0.031, -0.398, 1
42694, 0.26, 0.01, -0.868, -0.14, -0.045, -0.307, 1
42714, 0.331, -0.167, -0.579, 0.11, -0.167, -0.297, 1
42734, 0.064, -0.287, -0.282, 0.038, -0.177, -0.333, 1
42754, 0.649, -0.18, -0.113, -0.066, -0.101, -0.229, 1
42774, 0.674, -0.487, -0.002, -0.104, -0.048, -0.17, 1
42794, 0.637, -0.432, -0.038, -0.092, -0.037, -0.192, 1
42814, 0.595, -0.292, -0.095, -0.07, -0.08, -0.273, 1
42834, 0.629, -0.242, -0.074, -0.128, -0.042, -0.214, 1
42854, 0.734, -0.135, -0.103, -0.119, 0.024, -0.107, 1
42874, 0.522, -0.115, -0.181, -0.076, 0.044, -0.034, 1
42894, 0.347, -0.046, -0.221, -0.048, 0.009, -0.02, 1
42914, 0.037, -0.059, -0.269, -0.065, 0.036, 0.046, 1
42934, -0.102, -0.235, -0.189, -0.103, 0.102, 0.094, 1
42954, -0.452, -0.013, -0.238, -0.071, 0.124, 0.122, 1
42974, -0.544, -0.163, -0.189, -0.078, 0.096, 0.107, 1
42994, -0.618, -0.219, -0.277, -0.111, 0.047, 0.109, 1
43014, -0.555, -0.229, -0.327, -0.098, 0.048, 0.114, 1
43034, -0.619, -0.439, -0.121, -0.142, 0.049, 0.125, 1
43054, -0.677, -0.392, 0.024, -0.193, 0.048, 0.136, 1
43074, -0.737, -0.172, -0.173, -0.107, 0.04, 0.118, 1
43094, -0.744, -0.07, -0.244, 0.023, 0.029, 0.065, 1
43114, -0.631, -0.153, -0.06, 0.03, 0.06, 0.09, 1
43134, -0.485, -0.229, 0.124, -0.096, 0.114, 0.107, 1
43154, -0.244, -0.039, -0.036, -0.175, 0.102, 0.135, 1
43174, -0.538, 0.069, -0.285, -0.119, 0.138, 0.101, 1
43194, -0.357, 0.065, -0.318, -0.073, 0.156, 0.059, 1
43214, -0.059, -0.006, -0.366, -0.045, 0.125, 0.054, 1
43234, 0.242, -0.341, -0.174, -0.054, 0.156, 0.074, 1
43254, 0.398, -0.258, -0.286, -0.15, 0.155, 0.124, 1
43274, 0.386, -0.003, -0.539, -0.177, 0.066, 0.139, 1
43294, 0.098, -0.042, -0.586, -0.062, -0.009, 0.147, 1
43314, -0.084, -0.079, -0.35, 0.042, -0.042, 0.17, 1
43334, -0.163, -0.085, -0.039, 0.044, -0.07, 0.174, 1
43354, -0.178, -0.142, 0.212, -0.082, -0.052, 0.189, 1
43374, -0.336, -0.037, 0.098, -0.16, -0.101, 0.183, 1
43394, -0.513, 0.289, -0.241, -0.117, -0.109, 0.134, 1
43414, -0.366, 0.004, -0.11, 0.007, -0.059, 0.089, 1
43434, -0.293, -0.275, 0.071, -0.036, -0.029, 0.087, 1
43454, -0.566, -0.424, 0.242, -0.172, 0.021, 0.118, 1
43474, -0.568, -0.385, 0.179, -0.332, 0.102, 0.13, 1
43494, -0.541, -0.073, -0.163, -0.271, 0.007, 0.067, 1
43514, -0.515, -0.12, -0.151, -0.117, 0.004, -0.009, 1
43534, -0.467, -0.309, 0.077, 0.007, -0.01, -0.044, 1
43554, -0.38, -0.438, 0.219, -0.012, 0.023, -0.044, 1
43574, -0.274, -0.219, -0.021, -0.135, 0.071, -0.048, 1
43594, -0.099, -0.047, -0.238, -0.151, 0.167, -0.06, 1
43614, 0.238, -0.217, -0.128, -0.147, 0.167, -0.14, 1
43634, 0.295, -0.128, -0.385, -0.171, 0.0, -0.155, 1
43654, 0.088, -0.093, -0.467, -0.142, -0.006, -0.124, 1
43674, -0.147, -0.06, -0.345, -0.135, 0.032, -0.103, 1
43694, -0.079, 0.005, -0.437, -0.156, 0.034, -0.153, 1
43714, -0.047, 0.103, -0.535, -0.075, 0.017, -0.194, 1
43734, 0.14, -0.218, -0.185, -0.069, 0.015, -0.239, 1
43754, 0.139, 0.012, -0.257, -0.021, -0.043, -0.201, 1
43774, -0.341, 0.029, -0.274, 0.072, 0.048, -0.21, 1
43794, -0.096, -0.388, 0.033, -0.111, 0.213, -0.32, 1
43814, 0.672, -0.154, -0.261, -0.256, 0.1, -0.393, 1
43834, 1.176, 0.201, -0.618, -0.147, -0.053, -0.356, 1
43854, 1.342, 0.348, -0.536, 0.023, -0.127, -0.208, 1
43874, 1.143, 0.427, -0.169, 0.123, -0.109, -0.163, 1
43894, 0.915, 0.159, 0.376, -0.005, 0.027, -0.214, 1
43914, 1.257, -0.256, 0.734, -0.295, 0.12, -0.216, 1
43934, 1.493, -0.047, 0.462, -0.334, 0.053, -0.172, 1
43954, 1.611, -0.101, 0.257, -0.333, -0.047, -0.064, 0
43974, 1.039, 0.43, 0.099, -0.27, 0.007, -0.068, 0
43994, 0.75, -0.316, 0.314, -0.513, 0.047, -0.073, 0
44014, 0.834, 0.343, -0.426, -0.323, -0.085, -0.102, 0
44034, 0.698, 0.374, -0.77, 0.021, -0.064, -0.042, 0
44054, 0.943, -0.353, -0.375, -0.006, -0.026, 0.069, 0
44074, 0.708, -0.403, -0.433, -0.153, -0.058, 0.147, 0
44094, 0.184, 0.019, -0.72, -0.178, 0.04, 0.12, 0
44114, 0.194, 0.13, -0.928, -0.006, -0.003, 0.042, 0
44134, 0.563, -0.143, -0.829, 0.005, -0.106, 0.109, 0
44154, 0.416, -0.209, -0.739, -0.05, -0.091, 0.156, 0
44174, 0.097, 0.036, -0.595, -0.04, 0.028, 0.221, 0
44194, 0.144, 0.115, -0.747, -0.054, -0.005, 0.12, 0
44214, -0.033, 0.333, -0.721, 0.026, -0.176, 0.126, 0
44234, 0.148, -0.183, -0.314, 0.036, -0.075, 0.106, 0
44254, 0.202, -0.812, -0.262, -0.05, 0.065, 0.202, 0
44274, 0.458, -0.562, -0.741, -0.002, 0.103, 0.114, 0
44294, 0.865, 0.0, -1.057, 0.119, 0.02, 0.174, 0
44314, 0.142, -0.196, -0.848, 0.165, 0.068, 0.456, 0
44334, -0.222, -0.209, -0.825, 0.114, 0.145, 0.535, 0
44354, -0.482, -0.236, -0.868, 0.183, 0.048, 0.528, 0
44374, -0.678, 0.024, -0.54, 0.236, -0.018, 0.493, 0
44394, -0.884, 0.153, -0.007, 0.186, 0.032, 0.635, 0
44414, -0.969, -0.572, 0.377, 0.156, 0.154, 0.739, 0
44434, -1.156, -0.625, 0.457, 0.155, 0.095, 0.722, 0
44454, -1.573, -0.733, 0.753, 0.105, 0.083, 0.594, 0
44474, -1.39, -0.824, 0.832, -0.172, 0.111, 0.388, 0
44494, -1.242, -0.419, -0.265, -0.207, 0.026, 0.388, 0
44514, -1.071, -0.201, -0.628, 0.083, 0.022, 0.365, 0
44534, -1.367, -0.57, -0.089, 0.103, 0.177, 0.657, 0
44554, -1.113, -0.389, 0.46, -0.202, 0.29, 0.643, 0
44574, -0.925, -0.264, 0.362, -0.3, 0.186, 0.484, 0
44594, -0.425, -0.334, 0.165, -0.232, 0.122, 0.467, 0
44614, -0.606, -0.162, -0.05, -0.194, 0.218, 0.646, 0
44634, -0.896, -0.102, 0.086, -0.256, 0.428, 0.751, 0
44654, -0.655, 0.126, 0.066, -0.343, 0.445, 0.637, 0
44674, -0.085, 0.048, 0.22, -0.313, -0.033, 0.255, 0
44694, -0.228, 0.16, 0.089, -0.213, -0.083, 0.37, 0
44714, -0.262, 0.036, 0.252, -0.182, 0.215, 0.525, 0
44734, -0.087, -0.105, 0.341, -0.267, 0.335, 0.641, 0
44754, 0.04, -0.034, 0.044, -0.326, 0.091, 0.526, 0
44774, -0.184, 0.04, -0.178, -0.268, -0.268, 0.446, 0
44794, -1.192, 0.051, -0.125, -0.198, -0.145, 0.489, 0
44814, -1.285, -0.062, -0.042, -0.21, 0.077, 0.664, 0
44834, -1.149, 0.214, -0.265, -0.171, 0.049, 0.607, 0
44854, -1.104, 0.189, -0.341, -0.038, -0.172, 0.455, 0
44874, -1.391, -0.147, -0.162, -0.028, -0.133, 0.491, 0
44894, -1.487, -0.445, 0.017, -0.175, 0.025, 0.6, 0
44914, -1.671, -0.172, -0.099, -0.251, 0.037, 0.467, 0
44934, -1.504, 0.134, -0.277, -0.127, -0.129, 0.221, 0
44954, -1.411, -0.111, -0.375, -0.062, -0.055, 0.235, 0
44974, -1.088, -0.604, -0.29, -0.144, 0.128, 0.223, 0
44994, -0.846, -0.345, -0.588, -0.181, 0.157, 0.183, 1
45014, -0.373, -0.059, -0.826, -0.003, 0.124, 0.149, 1
45034, -0.211, -0.099, -0.501, 0.116, 0.017, 0.064, 1
45054, -0.123, -0.229, -0.456, 0.208, -0.014, 0.003, 1
45074, -0.162, -0.223, -0.352, 0.169, 0.072, 0.032, 1
45094, 0.023, -0.054, -0.429, 0.13, 0.105, 0.046, 1
45114, -0.073, 0.043, -0.446, 0.082, 0.092, 0.067, 1
45134, -0.309, 0.032, -0.275, -0.007, 0.137, 0.049, 1
45154, -0.167, 0.004, -0.361, -0.028, 0.042, -0.092, 1
45174, -0.137, -0.044, -0.617, 0.042, 0.021, -0.114, 1
45194, -0.099, -0.011, -0.46, 0.02, 0.056, -0.096, 1
45214, -0.141, -0.31, -0.389, -0.069, 0.093, -0.061, 1
45234, -0.339, -0.021, -0.662, -0.188, 0.098, -0.018, 1
45254, -0.194, 0.03, -0.897, -0.139, 0.239, -0.061, 1
45274, 0.461, -0.205, -0.833, -0.02, 0.204, -0.164, 1
45294, 0.677, -0.297, -0.832, 0.045, 0.051, -0.242, 1
45314, 0.604, -0.211, -0.834, 0.072, -0.035, -0.251, 1
45334, 0.176, -0.286, -0.533, 0.087, 0.007, -0.176, 1
45354, 0.032, -0.309, -0.036, -0.006, 0.147, -0.078, 1
45374, -0.217, -0.14, 0.019, -0.114, 0.194, -0.065, 1
45394, 0.015, -0.146, -0.121, -0.076, 0.162, -0.195, 1
45414, 0.184, 0.062, -0.407, -0.053, 0.082, -0.241, 1
45434, 0.025, 0.063, -0.451, 0.016, 0.091, -0.205, 1
45454, 0.187, -0.076, -0.051, 0.039, 0.176, -0.187, 1
45474, 0.178, -0.25, 0.246, -0.008, 0.072, -0.133, 1
45494, -0.339, 0.056, 0.035, 0.009, -0.02, -0.21, 1
45514, -0.199, 0.083, -0.007, 0.098, 0.094, -0.21, 1
45534, 0.319, -0.134, 0.303, 0.064, 0.16, -0.211, 1
45554, 0.252, -0.323, 0.552, -0.081, 0.103, -0.145, 1
45574, -0.067, -0.026, 0.52, -0.183, 0.097, -0.178, 1
45594, 0.249, 0.076, 0.232, -0.153, 0.133, -0.311, 1
45614, 0.61, -0.035, 0.02, -0.1, 0.015, -0.376, 1
45634, 0.686, -0.197, 0.08, -0.047, -0.118, -0.317, 1
45654, 0.13, -0.16, 0.453, 0.001, -0.14, -0.296, 1
45674, -0.055, -0.263, 0.834, -0.097, -0.111, -0.374, 1
45694, 0.186, -0.308, 0.746, -0.285, -0.072, -0.431, 1
45714, 0.641, -0.154, 0.396, -0.294, -0.061, -0.444, 1
45734, 0.771, -0.088, 0.28, -0.244, -0.109, -0.28, 1
45754, 0.079, -0.027, 0.34, -0.177, -0.062, -0.337, 1
45774, 0.044, 0.02, 0.585, -0.189, -0.061, -0.351, 1
45794, 0.098, -0.056, 0.428, -0.261, -0.079, -0.356, 1
45814, 0.411, -0.06, 0.183, -0.276, -0.083, -0.329, 1
45834, 0.5, -0.059, -0.042, -0.215, -0.087, -0.332, 1
45854, 0.308, -0.163, 0.006, -0.185, -0.071, -0.306, 1
45874, 0.035, -0.165, 0.164, -0.239, 0.0, -0.315, 1
45894, -0.066, -0.089, 0.085, -0.248, 0.074, -0.4, 1
45914, 0.23, -0.038, 0.064, -0.224, 0.017, -0.395, 1
45934, 0.032, -0.065, -0.004, -0.201, 0.011, -0.375, 1
45954, -0.001, -0.122, 0.005, -0.207, 0.087, -0.367, 1
45974, 0.411, -0.327, 0.022, -0.3, 0.118, -0.324, 1
45994, 0.379, -0.112, -0.265, -0.304, 0.084, -0.328, 1
46014, 0.145, 0.292, -0.564, -0.113, 0.047, -0.373, 1
46034, 0.035, 0.027, -0.43, -0.037, 0.038, -0.326, 1
46054, 0.171, -0.322, -0.185, -0.161, 0.028, -0.276, 1
46074, 0.158, -0.376, -0.089, -0.313, 0.056, -0.276, 1
46094, -0.024, -0.078, -0.063, -0.376, 0.132, -0.311, 1
46114, 0.021, 0.131, -0.14, -0.238, 0.114, -0.232, 1
46134, -0.15, -0.325, 0.184, -0.262, 0.147, -0.19, 1
46154, -0.185, -0.258, 0.134, -0.382, 0.177, -0.146, 1
46174, -0.087, -0.038, -0.227, -0.485, 0.22, -0.152, 1
46194, 0.121, 0.041, -0.663, -0.384, 0.144, -0.189, 1
46214, 0.259, -0.114, -0.846, -0.282, 0.042, -0.183, 1
46234, 0.135, -0.132, -0.898, -0.348, 0.059, -0.061, 1
46254, -0.172, 0.093, -1.051, -0.348, 0.07, 0.045, 1
46274, -0.395, 0.049, -1.031, -0.232, 0.019, 0.01, 1
46294, -0.094, 0.001, -1.027, -0.141, -0.066, -0.036, 1
46314, -0.139, -0.114, -1.009, -0.009, -0.116, 0.027, 1
46334, -0.339, -0.496, -0.51, 0.019, -0.023, 0.094, 1
46354, -0.113, -0.094, -0.44, -0.216, 0.067, 0.036, 1
46374, -0.176, 0.138, -0.819, -0.244, -0.086, -0.019, 1
46394, -0.247, -0.065, -0.611, -0.127, -0.036, 0.025, 1
46414, -0.035, -0.003, -0.45, -0.032, -0.03, 0.091, 1
46434, -0.366, -0.129, -0.191, 0.015, -0.108, 0.125, 0
46454, -0.181, -0.099, -0.053, -0.106, 0.029, 0.097, 0
46474, -0.21, 0.039, -0.139, -0.221, 0.004, 0.055, 0
46494, -0.158, 0.146, -0.429, -0.001, -0.091, 0.026, 0
46514, -0.004, -0.399, 0.011, 0.08, -0.03, 0.031, 0
46534, 0.329, -0.196, -0.035, -0.139, 0.0, 0.067, 0
46554, 0.254, -0.24, -0.229, -0.178, -0.015, 0.103, 0
46574, 0.262, -0.088, -0.405, -0.118, -0.057, 0.113, 0
46594, 0.262, -0.038, -0.375, -0.042, -0.078, 0.1, 0
46614, 0.265, 0.005, -0.221, -0.112, -0.01, 0.109, 0
46634, 0.386, 0.034, -0.185, -0.074, -0.07, 0.13, 0
46654, 0.261, -0.087, -0.106, -0.051, -0.045, 0.213, 0
46674, 0.22, -0.149, 0.022, -0.032, -0.032, 0.213, 0
46694, 0.278, -0.061, 0.099, -0.025, -0.086, 0.153, 0
46714, -0.002, -0.313, 0.486, -0.155, -0.032, 0.016, 0
46734, 0.406, -0.008, 0.418, -0.275, -0.038, 0.144, 0
46754, 0.26, 0.269, 0.024, -0.155, 0.039, 0.375, 0
46774, -0.033, -0.012, 0.136, -0.067, 0.108, 0.435, 0
46794, -0.134, -0.172, 0.434, -0.144, 0.133, 0.386, 0
46814, -0.063, -0.423, 0.308, -0.277, 0.089, 0.309, 0
46834, 0.114, 0.135, -0.353, -0.224, 0.007, 0.531, 0
46854, -0.477, 0.015, -0.459, -0.116, 0.089, 0.648, 0
46874, -0.668, 0.145, -0.508, -0.055, 0.104, 0.544, 0
46894, -0.711, 0.181, -0.505, 0.069, 0.111, 0.45, 0
46914, -0.252, -0.26, -0.223, -0.016, 0.114, 0.392, 0
46934, -0.076, -0.011, -0.252, -0.113, 0.184, 0.552, 0
46954, -0.19, -0.071, -0.356, -0.035, 0.231, 0.516, 0
46974, -0.148, -0.203, -0.359, -0.025, 0.164, 0.485, 0
46994, -0.404, -0.104, -0.308, -0.081, 0.238, 0.364, 0
47014, -0.021, 0.1, -0.407, -0.08, 0.235, 0.297, 0
47034, 0.177, 0.208, -0.595, -0.033, 0.226, 0.479, 0
47054, 0.03, -0.281, -0.427, -0.056, 0.268, 0.574, 0
47074, -0.239, -0.431, -0.57, -0.062, 0.279, 0.573, 0
47094, -0.182, -0.253, -0.928, -0.095, 0.128, 0.522, 0
47114, -0.889, 0.452, -0.86, -0.131, 0.07, 0.521, 0
47134, -1.072, 0.606, -0.773, -0.08, 0.08, 0.626, 0
47154, -1.101, 0.287, -0.328, 0.074, 0.037, 0.554, 0
47174, -0.883, -0.203, -0.126, -0.019, -0.018, 0.41, 0
47194, -0.639, 0.164, -0.625, -0.117, -0.082, 0.322, 0
47214, -0.27, 0.046, -0.534, 0.019, 0.009, 0.365, 0
47234, 0.076, -0.102, -0.166, 0.074, 0.051, 0.406, 0
47254, 0.22, -0.239, -0.022, 0.08, -0.142, 0.334, 0
47274, -0.332, -0.184, 0.2, 0.004, -0.255, 0.266, 0
47294, -0.589, 0.049, 0.24, -0.064, -0.172, 0.31, 0
47314, -0.803, 0.116, 0.015, -0.003, -0.089, 0.333, 0
47334, -0.446, -0.031, -0.001, 0.095, 0.139, 0.325, 0
47354, 0.303, -0.24, 0.06, 0.052, 0.182, 0.449, 0
47374, 0.223, -0.254, 0.287, -0.106, -0.106, 0.532, 0
47394, -0.702, 0.111, -0.058, -0.212, -0.28, 0.544, 0
47414, -0.7, 0.033, -0.216, -0.083, -0.145, 0.446, 0
47434, -0.442, -0.286, -0.007, -0.033, -0.076, 0.563, 0
47454, -0.581, -0.255, 0.097, -0.164, -0.213, 0.629, 0
47474, -1.505, 0.521, -0.646, -0.246, -0.221, 0.674, 0
47494, -1.348, -0.053, -0.354, 0.015, 0.003, 0.554, 0
47514, -1.079, -0.304, 0.095, -0.012, 0.025, 0.478, 0
47534, -1.006, -0.29, -0.075, -0.156, 0.014, 0.547, 0
47554, -1.023, -0.14, -0.358, -0.248, -0.012, 0.55, 0
47574, -1.118, 0.127, -0.482, -0.032, -0.098, 0.284, 0
47594, -1.13, -0.065, -0.351, 0.003, -0.068, 0.265, 0
47614, -0.928, -0.442, 0.044, -0.202, 0.009, 0.339, 0
47634, -0.933, -0.344, 0.113, -0.331, 0.073, 0.348, 0
47654, -0.596, -0.131, -0.277, -0.174, 0.003, 0.184, 0
47674, -0.438, -0.34, -0.193, -0.149, -0.007, 0.135, 0
47694, -0.265, -0.328, 0.056, -0.309, 0.076, 0.142, 1
47714, -0.375, 0.048, -0.347, -0.269, 0.136, 0.12, 1
47734, -0.191, 0.571, -0.774, 0.064, 0.16, 0.018, 1
47754, -0.008, 0.008, -0.572, 0.217, 0.072, -0.047, 1
47774, 0.099, -0.25, -0.149, 0.081, 0.012, -0.059, 1
47794, 0.338, -0.408, 0.061, -0.155, -0.116, -0.055, 1
47814, -0.02, -0.016, -0.332, -0.17, -0.085, -0.022, 1
47834, -0.169, 0.136, -0.597, -0.014, 0.037, -0.036, 1
47854, -0.052, -0.033, -0.444, 0.023, 0.006, -0.056, 1
47874, -0.162, 0.015, -0.421, 0.017, -0.023, -0.087, 1
47894, -0.165, 0.017, -0.476, -0.012, 0.021, -0.084, 1
47914, -0.117, 0.085, -0.86, -0.028, 0.067, -0.023, 1
47934, -0.19, 0.091, -1.039, 0.0, 0.153, 0.009, 1
47954, -0.204, -0.013, -0.867, -0.012, 0.2, 0.041, 1
47974, -0.398, -0.011, -0.77, -0.032, 0.26, 0.049, 1
47994, -0.532, 0.102, -0.608, -0.08, 0.316, 0.109, 1
48014, -0.315, -0.03, -0.54, -0.126, 0.357, 0.079, 1
48034, 0.059, -0.105, -0.584, -0.097, 0.302, -0.033, 1
48054, 0.285, -0.073, -0.678, 0.109, 0.108, -0.127, 1
48074, -0.173, 0.029, -0.137, 0.265, 0.153, -0.158, 1
48094, -0.146, -0.191, 0.27, 0.176, 0.186, -0.207, 1
48114, 0.255, -0.41, 0.311, -0.067, 0.2, -0.273, 1
48134, 0.213, -0.316, 0.114, -0.218, 0.22, -0.171, 1
48154, 0.259, 0.096, -0.094, -0.223, 0.326, -0.245, 1
48174, 0.169, 0.274, 0.005, -0.054, 0.284, -0.282, 1
48194, -0.048, 0.019, 0.572, 0.078, 0.218, -0.382, 1
48214, 0.358, -0.41, 0.945, 0.087, 0.153, -0.498, 1
48234, 0.81, -0.378, 0.656, -0.067, 0.063, -0.529, 1
48254, 0.428, -0.241, 0.504, -0.131, 0.119, -0.442, 1
48274, -0.019, -0.101, 0.588, -0.087, 0.411, -0.448, 1
48294, 1.969, -0.523, 0.768, -0.011, 0.322, -0.786, 1
48314, 1.878, -0.579, 0.67, -0.107, -0.422, -0.822, 1
48334, 0.745, -0.464, 0.523, -0.145, -0.523, -0.682, 1
48354, 0.873, -0.755, 0.593, -0.158, -0.228, -0.593, 1
48374, 0.829, -0.523, 0.406, -0.319, -0.147, -0.522, 1
48394, 0.39, 0.177, -0.286, -0.376, -0.113, -0.547, 1
48414, 0.533, 0.489, -0.664, -0.194, -0.033, -0.538, 1
48434, 0.798, 0.386, -0.647, -0.069, -0.03, -0.499, 1
48454, 0.698, 0.164, -0.286, -0.045, -0.088, -0.488, 1
48474, 0.193, 0.208, -0.009, -0.113, -0.034, -0.439, 1
48494, 0.156, 0.241, -0.087, -0.148, 0.117, -0.441, 1
48514, 0.418, 0.096, -0.476, -0.155, 0.127, -0.493, 1
48534, 0.66, 0.04, -0.583, 0.104, 0.031, -0.596, 1
48554, 0.596, -0.321, -0.156, 0.158, -0.011, -0.483, 1
48574, 0.411, -0.323, -0.074, 0.103, 0.072, -0.389, 1
48594, 0.276, -0.446, 0.073, -0.029, 0.194, -0.379, 1
48614, 0.413, -0.106, 0.076, -0.118, 0.186, -0.29, 1
48634, 0.321, -0.229, -0.036, -0.155, 0.152, -0.288, 1
48654, 0.361, -0.176, -0.257, -0.125, 0.071, -0.317, 1
48674, 0.231, 0.023, -0.412, -0.08, 0.001, -0.272, 1
48694, 0.147, -0.004, -0.438, -0.092, 0.0, -0.177, 1
48714, -0.103, -0.157, -0.196, -0.091, 0.023, -0.183, 1
48734, -0.092, -0.146, -0.062, -0.128, -0.047, -0.252, 1
48754, 0.084, 0.015, -0.512, -0.184, -0.025, -0.164, 1
48774, -0.101, 0.033, -0.822, -0.047, 0.104, -0.153, 1
48794, 0.025, -0.077, -0.407, -0.021, 0.108, -0.257, 1
48814, 0.018, -0.357, -0.07, -0.185, 0.004, -0.328, 1
48834, 0.139, -0.102, -0.436, -0.188, -0.037, -0.247, 1
48854, 0.069, -0.155, -0.579, -0.059, -0.003, -0.243, 1
48874, 0.151, -0.194, -0.225, -0.055, -0.001, -0.22, 1
48894, 0.128, -0.122, -0.09, -0.121, -0.04, -0.138, 1
48914, -0.364, -0.112, -0.037, -0.212, 0.048, -0.12, 1
48934, -0.215, 0.192, -0.402, -0.095, 0.097, -0.098, 1
48954, 0.026, -0.162, -0.427, -0.065, 0.032, -0.058, 1
48974, 0.006, -0.232, -0.236, -0.122, -0.049, -0.023, 1
48994, -0.372, -0.108, -0.241, -0.153, -0.041, -0.065, 1
49014, -0.398, -0.028, -0.433, -0.117, -0.029, -0.012, 1
49034, -0.157, -0.116, -0.339, -0.132, -0.059, -0.014, 1
49054, -0.392, -0.15, -0.246, -0.142, -0.133, 0.007, 1
49074, -0.455, -0.079, -0.245, -0.189, -0.043, 0.045, 1
49094, -0.358, -0.042, -0.284, -0.189, 0.037, 0.051, 1
49114, -0.265, -0.02, -0.274, -0.15, 0.004, 0.043, 1
49134, -0.358, -0.007, -0.392, -0.102, -0.041, 0.052, 1
49154, -0.308, -0.143, -0.429, -0.071, -0.014, 0.048, 1
49174, -0.264, -0.308, -0.328, -0.092, 0.021, 0.071, 1
49194, -0.084, -0.153, -0.199, -0.211, 0.054, 0.07, 1
49214, -0.092, 0.061, -0.343, -0.215, 0.005, 0.072, 1
49234, -0.097, -0.03, -0.187, -0.136, 0.001, 0.009, 1
49254, -0.013, -0.08, -0.223, -0.07, 0.004, 0.004, 1
49274, -0.089, -0.489, 0.123, -0.119, 0.053, 0.028, 1
49294, 0.17, -0.003, 0.039, -0.346, 0.121, 0.028, 1
49314, 0.059, 0.017, -0.126, -0.284, -0.052, 0.034, 1
49334, -0.221, 0.016, -0.307, -0.167, -0.14, 0.048, 1
49354, -0.043, -0.241, -0.145, -0.082, -0.032, 0.014, 0
49374, 0.205, -0.318, -0.22, -0.108, 0.011, 0.053, 0
49394, -0.02, -0.051, -0.076, -0.266, 0.062, 0.092, 0
49414, 0.1, 0.334, -0.322, -0.203, 0.014, 0.056, 0
49434, -0.117, -0.046, -0.318, 0.06, -0.1, 0.042, 0
49454, 0.124, -0.32, 0.002, -0.004, -0.02, 0.014, 0
49474, 0.255, -0.002, -0.177, -0.196, 0.048, 0.05, 0
49494, 0.397, 0.099, -0.358, -0.14, 0.036, 0.053, 0
49514, 0.425, -0.082, -0.338, -0.029, -0.032, 0.107, 0
49534, 0.313, -0.227, -0.219, -0.118, -0.004, 0.087, 0
49554, 0.362, -0.089, -0.232, -0.182, -0.04, 0.095, 0
49574, 0.274, 0.051, -0.249, -0.148, -0.042, 0.109, 0
49594, 0.351, 0.101, -0.272, -0.01, -0.086, 0.144, 0
49614, 0.344, -0.314, 0.111, -0.086, -0.078, 0.168, 0
49634, 0.405, -0.347, 0.148, -0.21, -0.098, 0.158, 0
49654, 0.35, -0.012, -0.123, -0.23, -0.132, 0.218, 0
49674, 0.008, 0.077, -0.297, -0.137, -0.083, 0.285, 0
49694, 0.001, 0.006, -0.21, -0.106, -0.039, 0.293, 0
49714, 0.029, -0.011, -0.168, -0.078, -0.092, 0.287, 0
49734, -0.36, -0.19, -0.009, -0.181, 0.015, 0.216, 0
49754, -0.252, 0.162, 0.039, -0.241, 0.074, 0.153, 0
49774, -0.02, 0.226, -0.228, -0.145, 0.03, 0.212, 0
49794, -0.077, -0.01, -0.158, -0.097, 0.119, 0.368, 0
49814, 0.102, 0.049, -0.04, -0.062, 0.135, 0.385, 0
49834, 0.082, -0.27, 0.053, -0.043, 0.023, 0.335, 0
49854, 0.073, -0.439, -0.124, -0.064, -0.052, 0.345, 0
49874, -0.205, -0.343, -0.283, -0.061, 0.02, 0.35, 0
49894, -0.254, -0.218, -0.162, -0.171, 0.103, 0.291, 0
49914, -0.057, -0.074, -0.248, -0.199, -0.004, 0.232, 0
49934, 0.05, -0.055, -0.519, -0.171, -0.095, 0.352, 0
49954, -0.19, 0.053, -0.676, -0.12, -0.003, 0.489, 0
49974, -0.267, 0.08, -0.588, -0.084, 0.064, 0.521, 0
49994, 0.002, -0.48, -0.299, -0.257, -0.231, 0.345, 0
50014, -0.261, 0.231, -1.06, -0.232, -0.533, 0.313, 0
