timestamp, accX, accY, accZ, gyroX, gyroY, gyroZ, button
2803158, -0.017, 1.955, -0.096, -0.164, 0.211, 0.166, 1
2803178, -0.086, 2.001, -0.129, -0.235, 0.26, 0.186, 1
2803198, -0.51, 2.443, -0.167, -0.227, 0.392, 0.282, 1
2803218, -0.884, 2.763, -0.299, -0.036, 0.731, 0.554, 1
2803238, -0.534, 2.264, -0.48, 0.221, 1.185, 0.912, 1
2803258, 0.345, 1.409, -0.575, 0.236, 1.359, 1.061, 1
2803278, 0.495, 1.133, -0.49, -0.043, 1.18, 0.947, 1
2803298, 0.462, 1.411, -0.168, -0.273, 0.977, 0.717, 1
2803318, 0.067, 1.579, -0.019, -0.345, 0.828, 0.608, 1
2803338, -0.114, 1.545, 0.007, -0.326, 0.818, 0.652, 1
2803358, 0.16, 1.346, 0.058, -0.276, 0.84, 0.693, 1
2803378, 0.479, 1.088, 0.117, -0.315, 0.739, 0.624, 1
2803398, 0.427, 1.216, 0.264, -0.415, 0.529, 0.43, 1
2803418, 0.331, 1.226, 0.272, -0.432, 0.367, 0.312, 1
2803438, 0.131, 1.263, 0.135, -0.433, 0.271, 0.268, 1
2803458, 0.224, 1.453, 0.131, -0.4, 0.282, 0.285, 1
2803478, 0.202, 1.435, 0.016, -0.343, 0.272, 0.308, 1
2803498, 0.314, 1.33, -0.08, -0.305, 0.255, 0.309, 1
2803518, 0.389, 1.204, -0.195, -0.382, 0.2, 0.273, 1
2803538, 0.326, 1.401, -0.214, -0.513, 0.125, 0.215, 1
2803558, 0.201, 1.493, -0.055, -0.58, 0.087, 0.191, 1
2803578, 0.093, 1.533, 0.043, -0.595, 0.054, 0.166, 1
2803598, -0.09, 1.706, 0.191, -0.565, 0.027, 0.215, 1
2803618, -0.101, 1.495, 0.116, -0.456, 0.058, 0.227, 1
2803638, 0.207, 1.327, 0.194, -0.47, -0.05, 0.148, 1
2803658, 0.087, 1.341, 0.156, -0.462, -0.106, 0.055, 1
2803678, 0.151, 1.351, 0.082, -0.475, -0.086, 0.02, 1
2803698, 0.087, 1.59, 0.113, -0.466, -0.075, 0.031, 1
2803718, 0.02, 1.786, 0.066, -0.403, -0.017, 0.061, 1
2803738, 0.214, 1.626, 0.082, -0.355, -0.042, 0.028, 1
2803758, 0.042, 1.557, 0.091, -0.297, -0.057, 0.012, 1
2803778, 0.029, 1.475, 0.09, -0.247, -0.05, 0.007, 1
2803798, 0.043, 1.453, 0.057, -0.244, -0.047, 0.011, 1
2803818, -0.032, 1.545, 0.004, -0.191, -0.003, 0.04, 1
2803838, 0.09, 1.471, 0.055, -0.18, -0.022, 0.034, 1
2803858, -0.074, 1.603, -0.051, -0.193, -0.006, 0.039, 1
2803878, -0.079, 1.687, -0.031, -0.15, 0.036, 0.071, 1
2803898, 0.044, 1.619, -0.097, -0.125, 0.034, 0.064, 1
2803918, -0.002, 1.568, -0.108, -0.134, 0.028, 0.054, 1
2803938, 0.022, 1.644, -0.017, -0.157, -0.007, 0.066, 1
2803958, -0.129, 1.733, -0.08, -0.141, 0.029, 0.103, 1
2803978, -0.062, 1.604, -0.061, -0.092, 0.059, 0.119, 1
2803998, 0.056, 1.526, 0.016, -0.054, 0.059, 0.106, 1
2804018, 0.033, 1.598, 0.063, 0.023, 0.054, 0.114, 1
2804038, 0.095, 1.274, -0.032, -0.006, 0.046, 0.095, 1
2804058, 0.153, 1.448, 0.032, -0.07, 0.012, 0.057, 1
2804078, 0.076, 1.654, 0.03, -0.066, 0.006, 0.051, 1
2804098, 0.002, 1.67, -0.039, -0.083, 0.009, 0.045, 1
2804118, 0.013, 1.635, -0.024, -0.088, 0.01, 0.054, 1
2804138, -0.086, 1.615, -0.082, -0.082, -0.002, 0.053, 1
2804158, -0.103, 1.623, -0.06, -0.058, 0.025, 0.094, 1
2804178, 0.014, 1.397, -0.038, -0.04, 0.02, 0.114, 1
2804198, 0.072, 1.534, 0.027, -0.097, -0.016, 0.072, 1
2804218, -0.072, 1.592, -0.005, -0.095, -0.052, 0.061, 1
2804238, 0.027, 1.604, -0.035, -0.081, -0.007, 0.07, 1
2804258, 0.144, 1.635, 0.058, -0.067, -0.007, 0.051, 1
2804278, 0.062, 1.484, -0.23, -0.036, -0.017, -0.003, 1
2804298, 0.238, 1.598, -0.151, -0.155, -0.055, -0.048, 1
2804318, 0.113, 1.672, 0.044, -0.164, -0.131, -0.114, 1
2804338, 0.247, 1.562, 0.238, -0.153, -0.26, -0.233, 1
2804358, 0.094, 1.626, 0.208, -0.157, -0.433, -0.383, 1
2804378, 0.373, 1.564, 0.28, -0.158, -0.565, -0.523, 1
2804398, 0.317, 1.499, 0.161, -0.222, -0.772, -0.72, 1
2804418, 0.225, 1.804, 0.124, -0.379, -0.868, -0.956, 1
2804438, -0.04, 2.459, 0.215, -0.458, -0.914, -1.051, 1
2804458, -0.003, 2.679, 0.197, -0.411, -0.888, -1.042, 1
2804478, 0.322, 2.549, -0.003, -0.43, -0.965, -1.059, 1
2804498, 0.463, 2.67, 0.293, -0.558, -1.206, -1.164, 1
2804518, 0.056, 2.893, 0.258, -0.745, -1.439, -1.405, 1
2804538, 0.465, 3.229, 0.415, -0.957, -1.615, -1.745, 1
2804558, 0.617, 3.428, 0.649, -1.353, -1.961, -2.354, 1
2804578, 0.569, 3.686, 0.721, -1.645, -2.673, -2.665, 1
2804598, 0.602, 4.313, 1.42, -1.808, -3.151, -2.969, 1
2804618, 0.86, 4.965, 1.926, -2.045, -3.699, -3.324, 1
2804638, 0.859, 6.414, 2.566, -2.213, -4.259, -3.816, 1
2804658, 0.806, -0.831, 3.317, -2.282, -4.817, -4.304, 1
2804678, 0.608, -4.963, 3.989, -2.12, -5.39, -4.663, 1
2804698, 0.05, -5.439, 4.652, -1.909, -5.963, -4.94, 1
2804718, -0.745, -4.777, 5.251, -1.691, -6.509, -5.081, 1
2804738, -2.406, -3.65, 5.333, -1.466, -6.627, -4.855, 1
2804758, -4.223, -1.279, 4.62, -1.029, -6.1, -3.86, 1
2804778, -5.579, 2.001, 3.808, 0.055, -4.938, -2.163, 1
2804798, -5.808, 3.259, 2.317, 1.455, -3.353, -0.372, 1
2804818, -4.062, 1.944, 0.737, 2.338, -2.121, 0.685, 1
2804838, 0.503, 0.105, 0.006, 2.119, -2.623, 1.048, 1
2804858, 1.944, -0.53, 0.247, 1.403, -4.192, 0.883, 1
2804878, -0.576, 0.019, -0.21, 0.99, -4.72, 0.447, 1
2804898, -3.163, 1.186, -1.315, 0.933, -3.555, 0.529, 1
2804918, -2.607, 2.137, -1.927, 1.153, -2.33, 1.494, 1
2804938, -0.94, 1.484, -1.596, 1.25, -1.89, 2.04, 1
2804958, 0.934, 0.514, -0.822, 1.058, -2.202, 1.711, 1
2804978, 1.09, 0.712, -0.027, 0.853, -2.666, 1.521, 1
2804998, -0.008, 0.804, 0.142, 0.846, -2.618, 1.452, 1
2805018, -0.6, 0.288, -0.282, 0.704, -1.968, 1.345, 1
2805038, -0.404, -0.254, -0.81, 0.35, -1.204, 1.464, 1
2805058, 0.144, -0.218, 0.292, -0.156, -0.429, 1.556, 1
2805078, 1.544, -0.111, 0.664, -0.28, -0.307, 1.465, 1
2805098, 2.019, -0.384, 0.403, -0.232, -0.526, 1.361, 1
2805118, 1.543, -0.518, -0.047, -0.149, -0.685, 1.166, 1
2805138, 1.33, -0.573, -0.516, -0.141, -0.377, 1.046, 1
2805158, 1.496, -0.448, -0.46, -0.117, 0.056, 0.913, 1
2805178, 1.724, -0.435, -0.499, 0.063, 0.307, 0.852, 1
2805198, 1.804, -0.714, -0.584, 0.216, 0.354, 0.753, 1
2805218, 1.35, -0.453, -0.211, 0.257, 0.458, 0.582, 1
2805238, 1.021, -0.126, 0.278, 0.332, 0.676, 0.456, 1
2805258, 1.046, -0.192, 0.421, 0.532, 0.86, 0.309, 1
2805278, 1.268, -0.734, 0.03, 0.777, 0.788, 0.148, 1
2805298, 0.936, -1.003, -0.209, 0.862, 0.662, -0.087, 1
2805318, 0.453, -0.808, -0.338, 0.792, 0.67, -0.255, 1
2805338, 0.369, -0.761, -0.507, 0.802, 0.768, -0.347, 1
2805358, 0.816, -1.432, -1.019, 0.882, 0.815, -0.502, 1
2805378, 0.831, -1.897, -1.412, 0.834, 0.657, -0.774, 1
2805398, 0.126, -1.772, -1.539, 0.777, 0.458, -0.756, 1
2805418, -0.153, -1.973, -1.556, 0.66, 0.376, -0.522, 1
2805438, -0.632, -1.372, -1.258, 0.349, 0.447, -0.514, 1
2805458, -1.068, -0.469, -0.761, 0.271, 0.736, -0.49, 1
2805478, -1.16, 0.293, -0.273, 0.555, 1.073, -0.181, 1
2805498, -0.483, -0.478, -0.367, 0.869, 1.216, 0.484, 1
2805518, 0.456, -1.351, -0.517, 0.635, 1.089, 0.696, 1
2805538, 0.564, -1.198, -0.358, -0.233, 0.53, 0.723, 1
2805558, 0.474, -0.864, -0.143, -0.704, 0.121, 0.874, 1
2805578, 0.31, -0.572, 0.112, -1.092, -0.262, 1.098, 1
2805598, 0.469, -0.372, 0.459, -1.475, -0.774, 1.471, 1
2805618, 0.754, -0.403, 0.674, -1.83, -1.389, 1.801, 1
2805638, 0.545, -0.229, 0.543, -1.888, -1.709, 1.722, 1
2805658, 0.03, 0.084, 0.161, -1.474, -1.512, 1.547, 1
2805678, 0.014, -0.413, -0.372, -1.107, -1.117, 1.553, 1
2805698, 0.504, -1.052, -0.751, -1.043, -0.877, 1.544, 1
2805718, 0.862, -0.883, -0.789, -0.96, -0.773, 1.442, 1
2805738, 0.59, -0.286, -0.654, -0.639, -0.572, 1.337, 1
2805758, 0.564, -0.151, -0.431, -0.341, -0.309, 1.29, 1
2805778, 1.136, -0.36, -0.238, -0.296, -0.301, 1.271, 1
2805798, 1.226, -0.006, -0.152, -0.28, -0.363, 1.214, 1
2805818, 1.008, 0.381, -0.215, -0.107, -0.263, 1.183, 1
2805838, 0.854, 0.6, -0.267, 0.164, 0.004, 1.121, 1
2805858, 1.291, 0.386, -0.318, 0.262, 0.153, 1.133, 1
2805878, 2.019, 0.171, -0.386, 0.141, 0.075, 1.056, 1
2805898, 2.51, 0.184, -0.417, -0.012, -0.11, 0.885, 1
2805918, 2.612, 0.506, -0.432, -0.051, -0.227, 0.718, 1
2805938, 2.374, 0.674, -0.786, 0.132, -0.135, 0.576, 1
2805958, 2.256, 0.475, -1.43, 0.464, 0.151, 0.39, 1
2805978, 2.216, 0.257, -1.977, 0.668, 0.513, 0.176, 1
2805998, 2.262, 0.134, -2.076, 0.488, 0.678, -0.007, 1
2806018, 2.01, 0.401, -1.616, 0.046, 0.549, -0.26, 1
2806038, 1.752, 0.868, -0.619, -0.64, -0.152, -0.449, 1
2806058, -0.339, 2.412, -0.433, -0.836, -0.384, -0.583, 1
2806078, -0.635, 2.277, -0.302, -0.864, -0.379, -0.603, 1
2806098, -0.376, 1.68, -0.423, -0.818, -0.393, -0.628, 1
2806118, -0.358, 1.221, -0.508, -0.798, -0.602, -0.66, 1
2806138, -0.904, 1.228, -0.502, -0.792, -0.722, -0.72, 1
2806158, -1.303, 1.129, -0.395, -0.664, -0.61, -0.666, 1
2806178, -1.447, 0.828, -0.179, -0.514, -0.409, -0.623, 1
2806198, -1.541, 0.226, -0.285, -0.344, -0.251, -0.595, 1
2806218, -1.183, -1.027, -0.951, -0.256, -0.296, -0.523, 1
2806238, -1.321, -1.389, -1.423, -0.39, -0.431, -0.546, 1
2806258, -1.4, -1.598, -1.486, -0.491, -0.494, -0.543, 1
2806278, -1.812, -1.422, -1.302, -0.578, -0.443, -0.59, 1
2806298, -2.375, -0.903, -0.803, -0.536, -0.204, -0.577, 1
2806318, -2.415, -0.562, -0.23, -0.343, 0.145, -0.522, 1
2806338, -2.164, -0.735, 0.172, -0.098, 0.398, -0.47, 1
2806358, -1.56, -1.461, 0.36, 0.02, 0.287, -0.353, 1
2806378, -1.146, -1.961, 0.637, -0.217, -0.199, -0.273, 1
2806398, -1.871, -1.592, 0.844, -0.593, -0.655, -0.21, 1
2806418, -2.736, -1.083, 0.927, -0.722, -0.558, -0.078, 1
2806438, -2.376, -1.181, 1.148, -0.593, -0.145, 0.142, 1
2806458, -1.39, -1.8, 1.252, -0.408, 0.053, 0.197, 1
2806478, -0.641, -1.982, 1.396, -0.258, -0.072, 0.197, 1
2806498, -0.103, -2.056, 1.398, -0.177, -0.353, 0.13, 1
2806518, -0.271, -1.78, 1.19, -0.02, -0.715, -0.018, 1
2806538, -0.471, -1.505, 1.032, 0.096, -0.77, -0.05, 1
2806558, -0.562, -1.251, 0.771, 0.122, -0.777, -0.031, 1
2806578, -0.598, -1.192, 0.355, 0.028, -0.751, -0.042, 1
2806598, -0.817, -0.908, 0.175, -0.062, -0.591, -0.04, 1
2806618, -0.939, -0.617, 0.012, -0.108, -0.351, 0.051, 1
2806638, -0.731, -0.245, 0.252, 0.01, -0.141, 0.077, 1
2806658, -0.586, -0.034, 0.497, 0.205, 0.034, 0.119, 1
2806678, -0.234, 0.027, 0.708, 0.356, 0.216, 0.098, 1
2806698, 0.29, -0.343, 0.793, 0.309, 0.202, 0.138, 1
2806718, 0.641, -0.644, 0.879, 0.161, -0.042, 0.136, 1
2806738, 0.564, -0.301, 1.008, 0.167, -0.183, 0.098, 1
2806758, 0.412, 0.06, 0.86, 0.332, -0.091, 0.016, 1
2806778, 0.151, 0.078, 0.541, 0.489, 0.065, -0.026, 1
2806798, -0.212, 0.045, 0.166, 0.607, 0.324, -0.122, 1
2806818, -0.833, 0.132, -0.44, 0.742, 0.735, -0.128, 1
2806838, -0.486, -0.254, -0.757, 0.724, 0.933, -0.085, 1
2806858, -0.033, -0.683, -0.777, 0.468, 0.829, -0.106, 1
2806878, -0.064, -0.763, -0.719, 0.146, 0.72, -0.051, 1
2806898, 0.305, -0.799, -0.422, -0.142, 0.53, 0.018, 1
2806918, 0.16, -0.365, -0.226, -0.254, 0.367, -0.001, 1
2806938, -0.046, 0.101, -0.075, -0.157, 0.286, -0.017, 1
2806958, 0.028, 0.278, -0.042, -0.065, 0.27, -0.024, 1
2806978, 0.261, 0.182, 0.038, -0.067, 0.236, -0.038, 1
2806998, 0.504, -0.066, 0.021, -0.235, 0.064, -0.001, 1
2807018, 0.378, -0.299, -0.273, -0.392, -0.405, -0.014, 1
2807038, -0.016, 0.137, -0.329, -0.408, -0.519, -0.026, 1
2807058, -0.379, 0.254, -0.501, -0.265, -0.399, -0.058, 1
2807078, -0.625, 0.296, -0.633, -0.092, -0.169, -0.072, 1
2807098, -0.685, 0.128, -0.692, 0.022, 0.059, -0.043, 1
2807118, -0.551, -0.074, -0.679, 0.05, 0.243, -0.001, 1
2807138, -0.394, -0.114, -0.361, 0.026, 0.348, 0.069, 1
2807158, -0.109, -0.147, -0.099, -0.015, 0.399, 0.147, 1
2807178, 0.372, -0.222, 0.028, -0.051, 0.323, 0.193, 1
2807198, 0.551, -0.266, -0.079, -0.087, 0.111, 0.178, 1
2807218, 0.309, -0.26, -0.372, -0.093, -0.064, 0.135, 1
2807238, 0.259, -0.243, -0.741, -0.028, -0.083, 0.089, 1
2807258, 0.097, -0.115, -0.971, 0.054, -0.026, 0.025, 1
2807278, -0.109, -0.084, -1.102, 0.116, 0.063, 0.032, 1
2807298, -0.04, -0.211, -1.137, 0.031, 0.114, 0.076, 1
2807318, -0.06, -0.127, -0.899, -0.135, 0.056, 0.117, 1
2807338, -0.109, -0.069, -0.555, -0.211, 0.056, 0.131, 1
2807358, -0.053, -0.131, -0.259, -0.193, 0.12, 0.12, 1
2807378, -0.031, -0.04, -0.006, -0.176, 0.143, 0.098, 1
2807398, -0.057, -0.001, 0.137, -0.171, 0.113, 0.112, 1
2807418, -0.046, 0.063, 0.258, -0.182, 0.001, 0.15, 1
2807438, -0.065, 0.104, 0.281, -0.202, -0.1, 0.178, 1
2807458, -0.089, -0.036, 0.132, -0.159, -0.063, 0.164, 1
2807478, 0.029, -0.234, -0.04, -0.12, 0.06, 0.138, 1
2807498, 0.049, -0.244, -0.077, -0.161, 0.086, 0.109, 1
2807518, 0.073, -0.147, -0.028, -0.188, 0.056, 0.129, 1
2807538, 0.151, -0.094, 0.018, -0.166, 0.048, 0.131, 1
2807558, 0.125, -0.308, -0.118, -0.192, 0.062, 0.102, 1
2807578, -0.108, -0.454, -0.391, -0.277, 0.122, 0.108, 1
2807598, -0.051, -0.323, -0.341, -0.31, 0.069, 0.099, 1
2807618, -0.059, -0.136, -0.204, -0.347, -0.038, 0.095, 0
2807638, -0.276, 0.158, -0.112, -0.312, 0.009, 0.109, 0
2807658, -0.488, 0.168, -0.089, -0.287, 0.082, 0.103, 0
2807678, -0.47, 0.149, -0.175, -0.29, 0.161, 0.134, 0
2807698, -0.293, 0.119, -0.155, -0.301, 0.16, 0.184, 0
2807718, -0.002, -0.03, -0.07, -0.333, 0.058, 0.174, 0
2807738, 0.066, -0.032, 0.162, -0.274, -0.052, 0.137, 0
2807758, -0.067, -0.022, 0.146, -0.169, 0.009, 0.103, 0
2807778, 0.027, -0.169, 0.122, -0.072, 0.092, 0.058, 0
2807798, 0.191, -0.378, 0.158, -0.043, 0.065, 0.034, 0
2807818, 0.339, -0.468, 0.22, -0.115, -0.1, 0.033, 0
2807838, 0.093, -0.243, 0.49, -0.13, -0.193, 0.012, 0
2807858, -0.221, -0.274, 0.757, -0.167, -0.091, 0.02, 0
2807878, -0.391, -0.434, 1.348, -0.184, 0.029, 0.048, 0
2807898, -0.483, -0.717, 2.377, -0.303, 0.007, 0.086, 0
2807918, -0.822, -0.458, 3.693, -0.359, 0.207, 0.194, 0
2807938, -0.166, 0.094, 5.259, -0.15, 0.349, 0.32, 0
2807958, 0.482, 0.014, 6.469, 0.133, 0.328, 0.375, 0
2807978, 0.828, -0.145, 7.303, 0.331, 0.207, 0.388, 0
2807998, 0.555, -0.583, 7.08, 0.25, -0.361, 0.409, 0
2808019, -0.182, 0.519, 6.137, 0.173, -0.537, 0.427, 0
2808039, -0.631, 1.416, 5.209, 0.398, -0.529, 0.467, 0
2808059, -0.917, 0.979, 3.717, 0.632, -0.453, 0.595, 0
2808079, -0.127, -1.161, 1.104, 0.748, -0.548, 0.781, 0
2808099, -0.43, -3.15, -2.101, 0.336, -0.572, 0.736, 0
2808119, -1.054, -1.693, -3.416, -0.263, -0.285, 0.544, 0
2808139, -1.363, -0.866, -4.057, -0.288, -0.266, 0.433, 0
2808159, -1.435, -1.704, -5.056, -0.051, -0.109, 0.365, 0
2808179, 0.309, -2.903, -6.196, 0.063, -0.044, 0.392, 0
2808199, 0.176, -2.696, -6.556, -0.183, -0.085, 0.16, 0
2808219, 0.369, -0.531, -5.226, -0.045, 0.054, -0.118, 0
2808239, -0.322, -0.808, -5.316, 0.233, 0.217, -0.243, 0
2808259, 0.487, 0.007, -4.87, 0.065, 0.011, -0.026, 0
2808279, -0.078, 0.587, -4.681, -0.17, -0.252, -0.182, 0
2808299, -0.363, 1.527, -4.1, -0.166, -0.072, -0.124, 0
2808319, 0.009, 1.061, -3.523, 0.164, 0.208, 0.037, 0
2808339, 0.565, 0.103, -3.447, 0.172, 0.333, 0.084, 0
2808359, 0.157, -0.159, -3.053, -0.204, 0.163, -0.07, 0
2808379, -0.515, 0.974, -1.946, -0.461, 0.169, -0.16, 0
2808399, -0.547, 0.792, -1.043, -0.192, 0.327, 0.042, 0
2808419, -0.061, 0.144, -0.519, 0.043, 0.3, 0.175, 0
2808439, -0.112, -0.99, -0.873, 0.067, 0.086, 0.108, 0
2808459, -0.299, -0.218, -0.754, -0.166, 0.003, -0.056, 0
2808479, -0.487, 0.197, -0.582, -0.095, 0.125, 0.074, 0
2808499, 0.221, 0.097, -0.51, 0.169, 0.091, 0.148, 0
2808519, 0.604, -0.466, -0.62, 0.195, -0.195, 0.143, 1
2808539, 0.481, -0.51, -0.544, 0.19, -0.497, 0.034, 1
2808559, -0.932, -0.998, -1.198, -0.026, -0.322, -0.032, 1
2808579, -0.485, 0.463, -1.288, 0.227, -0.051, -0.054, 1
2808599, -0.053, -0.175, -1.996, 0.408, -0.03, -0.08, 1
2808619, 0.128, -0.249, -2.617, 0.362, -0.064, -0.113, 1
2808639, -0.047, -0.068, -3.31, 0.255, -0.067, -0.066, 1
2808659, 0.007, -0.05, -4.456, 0.243, 0.009, 0.012, 1
2808679, 0.127, -0.079, -5.19, 0.186, -0.037, 0.037, 1
2808699, 0.013, 0.178, -5.641, 0.262, -0.023, 0.09, 1
2808719, 0.356, -0.101, -5.897, 0.629, -0.027, 0.086, 1
2808739, 0.097, -1.424, -6.138, 0.756, -0.114, -0.136, 1
2808759, -0.626, -1.902, -5.576, 0.334, -0.188, -0.291, 1
2808779, -1.9, -1.501, -4.861, -0.134, 0.006, -0.289, 1
2808799, -2.705, -0.719, -3.159, -0.534, 0.482, -0.171, 1
2808819, -2.648, -0.446, -1.279, -0.888, 1.006, -0.053, 1
2808839, -1.914, -0.877, 0.234, -1.382, 1.233, 0.013, 1
2808859, -1.48, -0.392, 1.854, -1.739, 1.189, 0.047, 1
2808879, -1.241, -0.147, 3.039, -1.593, 1.014, 0.078, 1
2808899, -1.016, 0.085, 4.258, -1.148, 0.804, 0.037, 1
2808919, -0.375, -0.242, 4.772, -0.574, 0.523, -0.015, 1
2808939, 0.074, -1.039, 4.629, -0.3, 0.201, -0.062, 1
2808959, 0.33, -1.432, 4.518, -0.415, -0.182, -0.108, 1
2808979, 0.22, -1.094, 4.222, -0.375, -0.301, -0.086, 1
2808999, 0.463, -1.039, 3.972, -0.111, -0.437, -0.154, 1
2809019, 0.292, -1.018, 3.506, 0.13, -0.58, -0.211, 1
2809039, 0.238, -0.816, 2.913, 0.194, -0.552, -0.251, 1
2809059, 0.099, -1.073, 2.002, -0.047, -0.613, -0.207, 1
2809079, -0.827, -0.392, 1.276, -0.412, -0.634, -0.103, 1
2809099, -0.996, 0.003, 0.915, -0.421, -0.295, -0.005, 1
2809119, -0.427, 0.048, 0.937, -0.205, 0.004, 0.014, 1
2809139, -0.141, -0.07, 1.014, 0.039, 0.037, -0.016, 1
2809159, 0.0, -0.477, 0.73, 0.09, -0.056, 0.001, 1
2809179, 0.079, -0.725, 0.54, -0.051, -0.045, 0.019, 1
2809199, -0.032, -0.59, 0.485, -0.202, 0.042, 0.017, 1
2809219, -0.241, -0.119, 0.509, -0.276, 0.141, -0.012, 1
2809239, -0.104, 0.065, 0.635, -0.208, 0.198, 0.034, 1
2809259, 0.01, 0.027, 0.634, -0.141, 0.125, 0.037, 1
2809279, -0.169, -0.303, 0.216, -0.152, 0.065, 0.037, 1
2809299, -0.442, -0.304, -0.132, -0.407, 0.175, 0.054, 1
2809319, -0.142, -0.018, 0.055, -0.488, 0.27, 0.127, 1
2809339, -0.056, -0.1, 0.031, -0.353, 0.176, 0.124, 1
2809359, -0.131, -0.177, -0.165, -0.283, 0.124, 0.119, 0
2809379, -0.02, -0.245, -0.25, -0.26, 0.149, 0.129, 0
2809399, 0.174, -0.196, -0.189, -0.196, 0.158, 0.121, 0
2809419, 0.01, 0.022, -0.13, -0.143, 0.133, 0.103, 0
2809439, 0.013, -0.116, -0.192, -0.083, 0.122, 0.114, 0
2809459, -0.151, -0.447, -0.533, -0.261, 0.171, 0.14, 0
2809479, -0.095, -0.229, -0.435, -0.34, 0.237, 0.141, 0
2809499, -0.073, -0.052, -0.115, -0.262, 0.197, 0.107, 0
2809519, -0.257, 0.076, 0.188, -0.135, 0.26, 0.073, 0
2809539, -0.242, 0.019, 0.593, -0.028, 0.331, 0.079, 0
2809559, 0.102, -0.222, 1.103, -0.039, 0.188, 0.102, 0
2809579, 0.009, -0.476, 1.421, -0.196, 0.015, 0.15, 0
2809599, -0.196, -0.342, 2.016, -0.194, -0.054, 0.164, 0
2809619, -0.636, -0.333, 2.683, -0.007, 0.114, 0.165, 0
2809639, -0.496, -0.813, 3.646, 0.166, 0.28, 0.172, 0
2809659, -0.164, -1.158, 4.849, 0.244, 0.255, 0.194, 0
2809679, 0.028, -1.429, 5.901, 0.181, 0.175, 0.283, 0
2809699, 0.459, -1.105, 7.191, 0.189, 0.112, 0.314, 0
2809719, 1.036, -0.087, 8.55, 0.469, -0.02, 0.306, 0
2809739, 1.247, 0.115, 8.51, 0.602, -0.241, 0.262, 0
2809759, 0.336, 0.326, 7.227, 0.317, -0.379, 0.324, 0
2809779, -0.682, 1.616, 5.992, 0.141, -0.522, 0.477, 0
2809799, -1.603, 2.414, 4.976, 0.342, -0.657, 0.66, 0
2809819, -2.561, 0.947, 2.531, 0.511, -0.468, 1.003, 0
2809839, -1.482, -2.357, -0.825, 0.12, -0.185, 1.07, 0
2809859, 0.091, -3.919, -3.269, -0.397, -0.37, 0.525, 0
2809879, -0.541, -2.912, -5.123, -0.309, -0.415, 0.1, 0
2809899, -2.282, -2.199, -7.459, 0.215, 0.442, 0.26, 0
2809919, 0.181, -2.839, -8.528, 0.346, 0.759, 0.538, 0
2809939, 2.469, -2.819, -8.869, -0.015, 0.046, 0.032, 0
2809959, 1.593, 0.284, -7.18, 0.2, 0.02, -0.125, 0
2809979, 1.5, 0.753, -6.406, 0.21, 0.105, -0.221, 0
2809999, 0.642, 1.584, -5.497, 0.066, -0.056, -0.246, 0
2810019, 0.007, 1.705, -4.628, -0.025, -0.018, -0.221, 0
2810039, -0.293, 1.568, -3.614, -0.16, 0.097, -0.204, 0
2810059, -0.768, 1.493, -2.513, -0.183, 0.181, -0.116, 0
2810079, -0.518, 1.31, -1.728, -0.218, 0.227, 0.061, 0
2810099, -0.197, 0.08, -1.384, -0.066, 0.113, 0.037, 0
2810119, -0.244, -0.273, -1.332, -0.155, -0.023, -0.051, 0
2810139, -0.496, -0.147, -0.969, -0.197, -0.038, -0.111, 0
2810159, -0.349, -0.272, -0.938, -0.141, -0.054, -0.066, 0
2810179, 0.085, 0.28, -0.729, -0.061, -0.124, 0.022, 0
2810199, 0.286, -0.494, -1.151, 0.235, -0.268, 0.098, 1
2810219, 0.081, -1.28, -1.81, 0.143, -0.366, 0.059, 1
2810239, -0.244, -0.68, -2.456, -0.224, -0.171, -0.07, 1
2810259, 0.233, 0.964, -2.266, -0.086, 0.086, -0.053, 1
2810279, 0.401, -0.146, -2.641, 0.235, 0.199, -0.059, 1
2810299, 0.586, -0.496, -3.283, 0.154, 0.064, -0.097, 1
2810319, 0.66, -0.048, -4.173, 0.064, -0.075, -0.115, 1
2810339, -0.035, -0.01, -5.111, 0.061, -0.089, -0.115, 1
2810359, -0.238, 0.254, -5.081, 0.027, 0.076, -0.045, 1
2810379, -0.064, 0.054, -4.862, 0.167, 0.199, 0.059, 1
2810399, -0.177, -0.407, -4.544, 0.317, 0.211, 0.06, 1
2810419, -0.277, -1.089, -4.013, 0.18, 0.147, -0.043, 1
2810439, -0.493, -1.605, -3.786, -0.009, -0.028, -0.128, 1
2810459, -1.244, -1.103, -2.766, -0.01, 0.172, -0.131, 1
2810479, -2.006, -0.931, -1.57, -0.003, 0.693, -0.111, 1
2810499, -1.326, -1.84, -0.523, -0.259, 1.045, -0.2, 1
2810519, -0.647, -2.157, 0.599, -0.744, 0.977, -0.279, 1
2810539, -0.587, -1.563, 1.857, -1.087, 0.803, -0.356, 1
2810559, -0.642, -0.557, 3.095, -1.103, 0.645, -0.348, 1
2810579, -0.586, -0.158, 3.906, -0.971, 0.552, -0.306, 1
2810599, -0.429, -0.32, 4.357, -0.758, 0.539, -0.297, 1
2810619, -0.066, -0.844, 4.378, -0.734, 0.405, -0.299, 1
2810639, 0.097, -0.761, 4.494, -0.703, 0.224, -0.274, 1
2810659, 0.483, -0.456, 4.739, -0.608, -0.071, -0.235, 1
2810679, 0.143, -0.228, 4.684, -0.447, -0.317, -0.185, 1
2810699, 0.061, -0.025, 4.574, -0.291, -0.441, -0.141, 1
2810719, -0.148, -0.095, 4.064, -0.175, -0.436, -0.117, 1
2810739, -0.218, -0.524, 3.233, -0.128, -0.409, -0.071, 1
2810759, -0.363, -0.71, 2.504, -0.103, -0.433, -0.053, 1
2810779, -0.395, -0.946, 1.901, -0.102, -0.459, -0.019, 1
2810799, -0.684, -0.918, 1.304, -0.144, -0.357, 0.005, 1
2810819, -0.774, -0.588, 0.908, -0.124, -0.109, 0.074, 1
2810839, -0.303, -0.348, 0.944, -0.059, 0.029, 0.089, 1
2810859, -0.141, -0.443, 0.775, -0.047, 0.111, 0.097, 1
2810879, 0.005, -0.469, 0.486, -0.107, 0.177, 0.122, 1
2810899, 0.128, -0.253, 0.369, -0.087, 0.116, 0.105, 1
2810919, 0.005, -0.047, 0.224, 0.0, 0.018, 0.087, 1
2810939, -0.168, -0.062, -0.377, -0.013, 0.045, 0.073, 1
2810959, -0.325, -0.015, -0.601, -0.091, 0.218, 0.068, 1
2810979, 0.062, -0.052, -0.497, -0.109, 0.343, 0.095, 1
2810999, 0.257, -0.094, -0.297, -0.106, 0.185, 0.091, 0
2811019, -0.18, 0.033, -0.257, -0.066, 0.084, 0.095, 0
2811039, -0.138, -0.119, -0.21, 0.009, 0.08, 0.068, 0
2811059, -0.365, -0.07, -0.296, -0.053, 0.273, 0.034, 0
2811079, -0.011, -0.269, -0.227, -0.086, 0.38, 0.069, 0
2811099, 0.053, -0.294, -0.201, -0.243, 0.28, 0.122, 0
2811119, 0.029, 0.023, 0.054, -0.334, 0.2, 0.126, 0
2811139, -0.092, 0.043, 0.296, -0.216, 0.139, 0.102, 0
2811159, -0.19, -0.072, 0.462, -0.118, 0.172, 0.078, 0
2811179, -0.126, -0.125, 0.944, -0.075, 0.248, 0.089, 0
2811199, -0.206, -0.317, 1.547, -0.093, 0.17, 0.13, 0
2811219, -0.255, -0.639, 2.297, -0.231, 0.03, 0.208, 0
2811239, -0.308, -0.495, 3.472, -0.389, -0.116, 0.308, 0
2811259, -0.208, -0.076, 4.792, -0.21, -0.147, 0.31, 0
2811279, 0.457, -0.394, 5.288, 0.135, -0.094, 0.276, 0
2811299, 0.605, -0.364, 5.355, 0.154, -0.2, 0.237, 0
2811319, 0.172, -0.441, 5.157, -0.005, -0.489, 0.283, 0
2811339, -0.706, 0.89, 5.526, -0.142, -0.604, 0.338, 0
2811359, -0.988, 1.714, 6.053, 0.336, -0.402, 0.434, 0
2811379, -0.548, 0.77, 5.979, 0.811, -0.085, 0.605, 0
2811399, 0.338, -0.743, 5.493, 0.287, -0.087, 0.918, 0
2811419, 0.21, -1.84, 3.94, -0.191, -1.024, 0.897, 0
2811439, -1.845, -1.741, 2.065, -0.288, -0.675, 0.884, 0
2811459, -1.911, -1.149, 1.285, 0.336, -0.086, 0.971, 0
2811479, -0.961, -2.661, -0.562, 0.839, -0.006, 0.911, 0
2811499, 0.226, -5.397, -4.149, 0.4, -0.262, 0.623, 0
2811519, -0.369, -4.568, -6.067, -0.216, -0.378, 0.166, 0
2811539, -1.269, -2.011, -6.084, -0.255, -0.255, -0.034, 0
2811559, -1.51, -0.725, -6.003, -0.029, -0.047, 0.073, 0
2811579, -1.167, -0.386, -6.381, 0.146, 0.166, 0.166, 0
2811599, 0.213, -0.505, -6.562, 0.164, 0.109, 0.129, 0
2811619, 0.469, -0.097, -6.384, 0.078, 0.105, -0.1, 0
2811639, 0.125, 0.644, -5.956, -0.029, 0.104, -0.155, 0
2811659, 0.289, 0.977, -5.186, -0.072, 0.156, -0.186, 0
2811679, 0.354, 1.339, -4.27, -0.012, 0.084, -0.168, 0
2811699, -0.227, 1.182, -3.706, 0.042, 0.284, -0.111, 0
2811719, -0.068, 0.588, -3.196, -0.142, 0.389, -0.12, 0
2811739, -0.353, 0.504, -2.551, -0.387, 0.391, -0.132, 0
2811759, -0.576, 0.845, -1.594, -0.337, 0.385, -0.038, 0
2811779, -0.271, 0.431, -1.154, -0.199, 0.282, 0.039, 0
2811799, -0.186, 0.104, -0.909, -0.054, 0.174, 0.073, 0
2811819, -0.551, -0.578, -1.032, -0.138, 0.2, 0.074, 0
2811839, -0.16, -0.766, -0.726, -0.293, 0.135, 0.031, 0
2811859, -0.07, -0.59, -0.565, -0.189, 0.04, 0.0, 0
2811879, 0.248, -0.413, -0.921, -0.012, -0.069, 0.033, 1
2811899, 0.379, -0.269, -1.736, 0.139, -0.268, 0.097, 1
2811919, 0.188, -0.605, -2.412, 0.091, -0.3, 0.031, 1
2811939, -0.277, 0.019, -2.784, 0.359, -0.106, -0.078, 1
2811959, 0.123, -0.136, -3.391, 0.522, 0.017, -0.069, 1
2811979, 0.111, -0.34, -3.836, 0.423, 0.137, -0.07, 1
2811999, 0.483, 0.25, -4.161, 0.255, 0.179, -0.054, 1
2812019, 0.291, 0.296, -4.732, 0.308, 0.082, -0.055, 1
2812039, -0.209, -0.263, -5.002, 0.354, 0.009, -0.031, 1
2812059, -0.588, -0.574, -4.656, 0.291, 0.12, 0.006, 1
2812079, -0.534, -0.665, -4.265, 0.28, 0.375, 0.004, 1
2812099, -0.563, -1.536, -3.857, 0.335, 0.495, -0.042, 1
2812119, -0.988, -2.131, -3.157, 0.165, 0.543, -0.159, 1
2812139, -0.896, -2.74, -2.152, -0.31, 0.598, -0.29, 1
2812159, -0.863, -2.185, -0.693, -0.861, 0.523, -0.376, 1
2812179, -1.104, -1.122, 0.767, -1.073, 0.464, -0.464, 1
2812199, -1.085, -0.853, 1.862, -0.939, 0.519, -0.476, 1
2812219, -0.825, -0.688, 2.886, -0.802, 0.612, -0.495, 1
2812239, -0.129, -1.052, 3.62, -0.844, 0.402, -0.486, 1
2812259, -0.277, -0.53, 4.151, -1.09, -0.067, -0.47, 1
2812279, -0.352, -0.385, 4.39, -1.16, -0.248, -0.379, 1
2812299, -0.311, -0.003, 4.605, -0.93, -0.224, -0.353, 1
2812319, -0.287, -0.042, 4.479, -0.474, -0.138, -0.339, 1
2812339, -0.078, -0.35, 4.045, -0.103, -0.091, -0.331, 1
2812359, 0.157, -0.66, 3.507, 0.082, -0.13, -0.302, 1
2812379, -0.047, -0.593, 3.03, -0.164, -0.31, -0.243, 1
2812399, -0.144, -0.423, 2.668, -0.431, -0.437, -0.138, 1
2812419, -0.266, -0.292, 2.29, -0.48, -0.562, -0.033, 1
2812439, -0.461, -0.018, 2.013, -0.222, -0.602, 0.014, 1
2812459, -0.682, 0.036, 1.579, 0.164, -0.456, 0.017, 1
2812479, -0.658, -0.534, 0.845, 0.364, -0.206, 0.004, 1
2812499, -0.676, -0.88, 0.351, 0.271, 0.069, 0.067, 1
2812519, -0.218, -1.213, 0.125, -0.045, 0.108, 0.155, 1
2812539, -0.115, -0.896, 0.244, -0.332, 0.043, 0.243, 1
2812559, 0.064, -0.398, 0.509, -0.321, 0.036, 0.257, 1
2812579, -0.044, -0.245, 0.484, -0.116, 0.171, 0.173, 1
2812599, -0.006, -0.292, 0.48, 0.051, 0.299, 0.094, 1
2812619, 0.03, -0.352, 0.387, 0.085, 0.382, 0.058, 1
2812639, 0.569, -0.617, 0.325, -0.114, 0.202, 0.048, 1
2812659, 0.395, -0.358, 0.223, -0.313, -0.09, 0.037, 1
2812679, -0.025, 0.001, 0.061, -0.281, -0.216, 0.021, 1
2812699, -0.404, 0.155, -0.097, -0.172, -0.208, 0.029, 1
2812719, -0.761, -0.028, -0.558, -0.173, 0.009, 0.05, 1
2812739, -0.685, -0.212, -0.788, -0.371, 0.22, 0.137, 0
2812759, -0.149, -0.288, -0.578, -0.569, 0.128, 0.207, 0
2812779, 0.145, -0.078, -0.342, -0.606, -0.043, 0.23, 0
2812799, -0.271, -0.002, -0.177, -0.441, -0.025, 0.187, 0
2812819, -0.363, -0.046, -0.201, -0.22, 0.184, 0.145, 0
2812839, -0.103, -0.346, -0.284, -0.152, 0.312, 0.111, 0
2812859, 0.04, -0.422, -0.294, -0.267, 0.274, 0.138, 0
2812879, -0.046, -0.185, 0.253, -0.339, 0.113, 0.147, 0
2812899, -0.228, 0.304, 0.658, -0.186, 0.154, 0.121, 0
2812919, -0.117, 0.039, 1.016, -0.02, 0.227, 0.099, 0
2812939, -0.173, -0.234, 1.41, 0.045, 0.214, 0.095, 0
2812959, -0.212, -0.572, 1.813, -0.029, 0.109, 0.153, 0
2812979, -0.397, -0.442, 2.538, -0.15, -0.011, 0.227, 0
2812999, -0.454, -0.211, 3.216, -0.051, -0.023, 0.27, 0
2813019, -0.204, -0.543, 3.858, 0.212, 0.154, 0.304, 0
2813039, 0.31, -1.169, 4.286, 0.385, 0.291, 0.296, 0
2813059, 0.875, -1.784, 4.817, 0.296, 0.285, 0.327, 0
2813079, 1.153, -1.254, 5.669, -0.012, -0.075, 0.312, 0
2813099, 0.079, 0.234, 6.108, 0.06, -0.543, 0.248, 0
2813119, -1.178, 0.558, 5.687, 0.433, -0.43, 0.294, 0
2813139, -1.413, 0.008, 5.25, 0.569, -0.04, 0.477, 0
2813159, 0.543, -1.545, 4.81, 0.246, 0.015, 0.766, 0
2813179, 1.931, -3.93, 2.976, -0.559, -0.866, 0.758, 0
2813199, 0.281, -3.17, 1.097, -1.189, -1.411, 0.294, 0
2813219, -1.402, -0.964, -0.023, -0.894, -0.909, -0.092, 0
2813239, -1.796, -0.887, -1.791, -0.216, -0.282, -0.147, 0
2813259, -0.799, -0.815, -3.341, 0.017, -0.084, -0.063, 0
2813279, -0.886, -0.884, -4.989, -0.264, -0.2, -0.23, 0
2813299, -0.923, 0.553, -5.047, -0.496, -0.204, -0.146, 0
2813319, -0.706, 0.772, -4.518, -0.13, -0.037, 0.061, 0
2813339, -0.801, -0.162, -4.754, 0.193, 0.321, 0.183, 0
2813359, 0.132, -0.43, -4.871, 0.379, 0.783, 0.095, 0
2813379, 1.182, -0.71, -5.007, 0.299, 0.656, 0.11, 0
2813399, 1.525, -0.509, -4.905, 0.297, 0.48, 0.025, 0
2813419, 1.346, -0.371, -4.681, 0.13, 0.284, 0.011, 0
2813439, 1.275, 0.602, -4.065, 0.058, 0.277, -0.095, 0
2813459, 0.33, 1.062, -3.297, 0.161, 0.308, -0.077, 0
2813479, -0.314, 0.616, -2.91, 0.076, 0.453, -0.049, 0
2813499, -0.152, 0.643, -2.147, -0.091, 0.385, -0.083, 0
2813519, -0.081, 1.017, -1.573, -0.096, 0.208, -0.094, 0
2813539, -0.044, 1.248, -1.375, 0.075, 0.006, -0.043, 0
2813559, -0.44, 0.946, -1.701, 0.167, -0.086, 0.049, 0
2813579, -0.403, 0.659, -2.006, 0.11, 0.01, 0.147, 0
2813599, 0.119, 0.304, -2.289, 0.0, 0.074, 0.136, 0
2813619, 0.391, -0.099, -2.407, -0.263, 0.031, -0.002, 0
2813639, 0.285, 0.672, -1.977, -0.26, 0.073, -0.041, 0
2813659, 0.517, 0.57, -1.759, 0.043, -0.021, 0.034, 0
2813679, 0.815, 0.69, -1.459, 0.4, -0.337, 0.102, 1
2813699, 0.211, -0.058, -1.748, 0.66, -0.511, 0.112, 1
2813719, -0.245, -1.664, -3.19, 0.32, -0.149, 0.006, 1
2813739, 0.282, -0.965, -3.675, -0.18, -0.069, -0.073, 1
2813759, 0.184, -0.44, -3.733, -0.358, -0.057, -0.074, 1
2813779, -1.232, 0.367, -2.693, -0.065, 0.125, -0.025, 1
2813799, -0.19, 0.71, -3.076, 0.238, 0.127, 0.191, 1
2813819, -0.191, 0.363, -3.767, 0.473, 0.13, 0.28, 1
2813839, -0.523, -0.664, -4.039, 0.25, 0.147, 0.282, 1
2813859, -0.197, -1.495, -3.562, 0.017, 0.18, 0.176, 1
2813879, -0.389, -1.623, -2.887, 0.102, 0.21, 0.109, 1
2813899, -0.972, -1.753, -1.948, 0.233, 0.301, 0.007, 1
2813919, -0.876, -1.915, -1.169, 0.155, 0.416, -0.002, 1
2813939, -0.819, -2.107, -0.561, -0.155, 0.447, -0.027, 1
2813959, -0.688, -2.424, 0.12, -0.538, 0.434, -0.098, 1
2813979, -0.93, -1.655, 1.386, -0.92, 0.443, -0.185, 1
2813999, -0.681, -1.1, 2.343, -1.053, 0.597, -0.207, 1
2814019, -0.377, -0.778, 2.945, -0.926, 0.604, -0.243, 1
2814039, -0.272, -0.64, 3.47, -0.692, 0.417, -0.256, 1
2814059, -0.468, -0.44, 3.674, -0.554, 0.24, -0.26, 1
2814079, -0.362, -0.341, 3.642, -0.497, 0.166, -0.164, 1
2814099, -0.23, -0.571, 3.457, -0.506, 0.08, -0.111, 1
2814119, -0.184, -0.688, 3.288, -0.574, -0.039, -0.053, 1
2814139, -0.008, -0.653, 3.183, -0.583, -0.183, -0.015, 1
2814159, -0.213, -0.286, 3.119, -0.491, -0.261, -0.019, 1
2814179, -0.34, -0.194, 2.914, -0.302, -0.16, -0.008, 1
2814199, -0.351, -0.067, 2.738, -0.121, 0.043, 0.001, 1
2814219, -0.28, -0.394, 2.327, 0.026, 0.139, 0.01, 1
2814239, -0.084, -0.604, 1.958, 0.087, 0.027, 0.084, 1
2814259, 0.009, -0.765, 1.503, 0.039, -0.163, 0.155, 1
2814279, 0.222, -0.754, 1.082, -0.107, -0.311, 0.204, 1
2814299, 0.198, -0.951, 0.683, -0.156, -0.411, 0.183, 1
2814319, -0.212, -1.06, 0.112, -0.096, -0.426, 0.087, 1
2814339, -0.279, -1.044, -0.266, -0.051, -0.107, 0.047, 1
2814359, -0.13, -0.793, -0.246, -0.058, 0.05, 0.026, 1
2814379, 0.023, -0.555, -0.04, -0.023, 0.083, 0.018, 1
2814399, -0.08, -0.318, 0.038, -0.004, 0.061, 0.0, 1
2814419, -0.252, -0.35, -0.131, -0.074, 0.138, 0.024, 1
2814439, -0.117, -0.148, -0.067, -0.103, 0.16, 0.026, 1
2814459, -0.061, 0.022, 0.073, -0.036, 0.147, 0.02, 1
2814479, -0.211, -0.014, -0.07, 0.011, 0.221, 0.005, 1
2814499, -0.324, -0.081, -0.194, -0.016, 0.327, 0.048, 1
2814519, -0.096, -0.304, -0.32, -0.207, 0.259, 0.106, 1
2814539, 0.003, -0.219, -0.311, -0.384, 0.044, 0.128, 0
2814559, -0.835, -0.195, -0.416, -0.46, 0.148, 0.144, 0
2814579, -0.121, 0.12, -0.062, -0.252, 0.26, 0.109, 0
2814599, 0.151, -0.283, -0.131, -0.122, 0.237, 0.056, 0
2814619, 0.107, -0.422, -0.307, -0.182, 0.173, 0.043, 0
2814639, -0.099, -0.344, -0.337, -0.321, 0.195, 0.076, 0
2814659, -0.291, -0.036, -0.102, -0.39, 0.285, 0.125, 0
2814679, -0.045, 0.172, 0.4, -0.305, 0.243, 0.127, 0
2814699, -0.021, 0.128, 0.809, -0.196, 0.119, 0.115, 0
2814719, -0.045, -0.127, 1.105, -0.102, -0.021, 0.098, 0
2814739, -0.204, -0.361, 1.35, -0.089, -0.014, 0.1, 0
2814759, -0.251, -0.373, 1.74, -0.076, 0.056, 0.135, 0
2814779, -0.215, -0.462, 2.277, -0.026, 0.031, 0.177, 0
2814799, -0.167, -0.616, 2.913, 0.054, -0.064, 0.196, 0
2814819, -0.278, -0.634, 3.527, 0.22, -0.092, 0.206, 0
2814839, -0.151, -1.14, 4.335, 0.253, -0.017, 0.219, 0
2814859, 0.188, -0.881, 4.767, 0.165, 0.009, 0.262, 0
2814879, 0.377, -0.303, 5.099, 0.155, -0.255, 0.275, 0
2814899, -0.556, 0.388, 4.968, 0.171, -0.548, 0.299, 0
2814919, -1.605, 0.517, 4.47, 0.213, -0.431, 0.423, 0
2814939, -1.554, 0.298, 4.218, 0.114, -0.029, 0.593, 0
2814959, -0.713, -0.094, 4.261, 0.012, 0.04, 0.737, 0
2814979, -0.488, -0.88, 3.508, -0.189, -0.293, 0.767, 0
2814999, -0.879, -1.71, 2.071, -0.478, -0.511, 0.72, 0
2815019, -1.432, -1.864, 0.973, -0.529, -0.365, 0.629, 0
2815039, -0.169, -2.282, 0.136, -0.257, -0.189, 0.59, 0
2815059, -0.383, -2.509, -1.255, -0.109, -0.375, 0.255, 0
2815079, -1.794, -1.07, -3.399, 0.135, -0.37, 0.147, 0
2815099, -1.774, -1.331, -5.122, 0.665, 0.062, 0.446, 0
2815119, 0.3, -2.275, -5.826, 0.822, 0.278, 0.691, 0
2815139, 1.15, -3.225, -6.558, 0.599, -0.02, 0.63, 0
2815159, 2.018, -1.821, -6.267, 0.335, -0.133, 0.224, 0
2815179, 1.216, -0.494, -6.418, 0.386, -0.39, -0.133, 0
2815199, 0.119, 0.998, -6.337, 0.351, -0.315, -0.201, 0
2815219, 0.043, 1.509, -5.592, 0.301, 0.022, -0.026, 0
2815239, 0.446, 1.426, -4.566, 0.114, 0.185, -0.025, 0
2815259, 0.136, 1.723, -3.718, -0.078, 0.131, -0.203, 0
2815279, -0.418, 1.853, -3.361, -0.15, 0.111, -0.271, 0
2815299, -0.533, 1.695, -2.996, -0.177, 0.1, -0.175, 0
2815319, -0.274, 1.341, -2.802, -0.316, 0.197, -0.109, 0
2815339, 0.01, 1.173, -2.287, -0.303, 0.169, -0.078, 0
2815359, 0.062, 0.393, -1.902, -0.342, 0.173, -0.108, 0
2815379, 0.015, 0.064, -1.37, -0.411, 0.124, -0.145, 0
2815399, 0.097, -0.775, -1.356, -0.566, 0.117, -0.116, 0
2815419, 0.101, 0.062, -0.776, -0.405, 0.051, -0.064, 0
2815439, 0.003, -0.352, -0.989, -0.292, -0.012, 0.032, 0
2815459, 0.54, -0.407, -0.82, -0.169, -0.172, 0.071, 0
2815479, -0.094, -1.28, -1.298, -0.345, -0.16, -0.029, 1
2815499, 0.393, -0.044, -1.312, -0.288, -0.177, 0.031, 1
2815519, -0.156, 0.667, -1.59, 0.1, -0.124, 0.259, 1
2815539, 0.098, 1.076, -1.356, 0.675, -0.101, 0.301, 1
2815559, 0.34, 0.768, -1.748, 1.097, -0.248, 0.241, 1
2815579, 0.025, 0.378, -3.212, 1.345, -0.284, 0.254, 1
2815599, 0.116, -0.671, -4.58, 1.245, -0.253, 0.25, 1
2815619, 0.599, -1.516, -5.362, 0.99, -0.293, 0.131, 1
2815639, 0.213, -2.017, -5.181, 0.647, -0.288, -0.055, 1
2815659, -0.434, -1.948, -4.631, 0.414, -0.193, -0.114, 1
2815679, -0.665, -1.761, -3.976, 0.233, -0.073, -0.128, 1
2815699, -0.936, -1.665, -3.213, 0.095, 0.081, -0.147, 1
2815719, -1.059, -1.758, -2.401, 0.039, 0.222, -0.193, 1
2815739, -1.19, -2.39, -1.725, -0.321, 0.384, -0.321, 1
2815759, -1.331, -1.991, -0.781, -0.786, 0.529, -0.326, 1
2815779, -1.512, -1.384, 0.338, -1.057, 0.716, -0.287, 1
2815799, -1.334, -1.243, 1.277, -1.186, 0.941, -0.241, 1
2815819, -0.255, -0.813, 2.757, -1.147, 0.932, -0.241, 1
2815839, -0.314, -0.5, 3.177, -1.174, 0.634, -0.291, 1
2815859, -0.325, -0.184, 3.637, -1.175, 0.338, -0.231, 1
2815879, -0.32, -0.225, 3.826, -1.041, 0.226, -0.211, 1
2815899, -0.432, 0.041, 3.916, -0.723, 0.249, -0.222, 1
2815919, -0.21, 0.029, 3.923, -0.265, 0.288, -0.2, 1
2815939, 0.569, -0.801, 3.711, 0.016, 0.123, -0.177, 1
2815959, 0.484, -0.979, 3.359, -0.163, -0.329, -0.174, 1
2815979, -0.457, -0.13, 2.987, -0.268, -0.623, -0.167, 1
2815999, -0.65, 0.232, 2.57, 0.045, -0.531, -0.144, 1
2816019, -0.252, -0.306, 2.049, 0.571, -0.292, -0.194, 1
2816039, 0.329, -1.541, 1.399, 0.729, -0.139, -0.209, 1
2816059, 0.436, -2.011, 0.872, 0.117, -0.331, -0.045, 1
2816079, -0.438, -1.023, 0.783, -0.618, -0.409, 0.147, 1
2816099, -0.694, -0.059, 1.217, -0.772, -0.046, 0.244, 1
2816119, -0.158, -0.157, 1.434, -0.401, 0.284, 0.186, 1
2816139, 0.246, -0.529, 1.231, -0.029, 0.259, 0.079, 1
2816159, 0.441, -0.93, 0.661, 0.112, 0.061, 0.0, 1
2816179, 0.044, -0.651, 0.287, -0.065, -0.056, -0.006, 1
2816199, -0.33, -0.219, 0.082, -0.224, 0.004, 0.019, 1
2816219, -0.197, 0.146, 0.249, -0.133, 0.118, 0.003, 1
2816239, 0.039, 0.152, 0.372, 0.199, -0.003, -0.074, 1
2816259, -0.064, -0.105, 0.049, 0.431, -0.183, -0.106, 1
2816279, -0.23, -0.649, -0.552, 0.306, -0.177, 0.071, 1
2816299, -0.076, -1.124, -0.848, -0.478, -0.07, 0.222, 1
2816319, -0.201, -0.731, -0.715, -0.627, 0.027, 0.241, 1
2816339, -0.079, -0.147, -0.312, -0.248, 0.183, 0.133, 1
2816359, 0.184, -0.288, -0.18, 0.018, 0.227, 0.026, 1
2816379, 0.236, -0.713, -0.296, -0.138, 0.193, 0.059, 1
2816399, 0.168, -0.687, -0.229, -0.46, 0.027, 0.156, 0
2816419, -0.164, 0.034, -0.045, -0.443, 0.078, 0.179, 0
2816439, -0.213, 0.193, 0.052, -0.136, 0.179, 0.102, 0
2816459, -0.061, -0.084, 0.039, 0.028, 0.23, 0.074, 0
2816479, 0.151, -0.255, 0.101, -0.029, 0.124, 0.091, 0
2816499, 0.045, -0.506, -0.143, -0.323, 0.032, 0.164, 0
2816519, -0.457, -0.094, -0.21, -0.479, 0.182, 0.208, 0
2816539, -0.315, 0.374, 0.314, -0.266, 0.25, 0.167, 0
2816559, -0.131, 0.062, 0.606, -0.094, 0.231, 0.111, 0
2816579, -0.022, -0.22, 1.018, -0.072, 0.171, 0.124, 0
2816599, 0.147, -0.547, 1.489, -0.185, 0.027, 0.147, 0
2816619, 0.135, -0.722, 1.927, -0.392, -0.072, 0.186, 0
2816639, 0.101, -0.583, 2.723, -0.397, -0.091, 0.178, 0
2816659, -0.102, -0.546, 3.345, -0.183, -0.036, 0.143, 0
2816679, -0.059, -0.745, 3.592, -0.116, -0.051, 0.126, 0
2816699, -0.147, -0.265, 4.018, -0.127, -0.029, 0.134, 0
2816719, -0.114, 0.143, 4.453, -0.118, 0.025, 0.191, 0
2816739, -0.326, 0.082, 4.961, -0.205, 0.177, 0.255, 0
2816759, -0.195, 0.685, 5.445, -0.065, 0.047, 0.37, 0
2816779, -0.491, 0.64, 5.263, 0.239, -0.411, 0.459, 0
2816799, -0.954, -2.278, 2.783, 0.007, -0.378, 0.472, 0
2816819, -1.054, -3.141, 1.144, -0.51, -0.127, 0.386, 0
2816839, -0.383, -2.974, 0.484, -0.818, -0.01, 0.189, 0
2816859, -0.089, -2.077, 0.28, -0.513, -0.383, -0.262, 0
2816879, -2.128, -1.805, -1.463, 0.048, -0.694, -0.477, 0
2816899, -3.339, -1.64, -3.222, 0.152, -0.186, -0.352, 0
2816919, -2.891, -0.616, -3.777, 0.029, 0.522, -0.186, 0
2816939, -1.016, 0.098, -3.489, 0.327, 0.545, 0.056, 0
2816959, -0.665, -1.029, -3.944, 0.674, 0.377, 0.37, 0
2816979, 0.712, -1.718, -3.888, 0.639, 0.433, 0.39, 0
2816999, 0.999, -1.955, -4.101, 0.455, 0.16, 0.116, 0
2817019, 0.13, -0.786, -4.318, 0.227, 0.137, -0.179, 0
2817039, 0.662, 0.235, -3.92, 0.314, 0.323, -0.09, 0
2817059, 0.465, -0.181, -4.114, 0.299, 0.231, 0.111, 0
2817079, 1.046, 1.082, -3.711, 0.092, 0.087, 0.087, 0
2817099, -0.043, 1.167, -3.857, 0.102, -0.07, -0.08, 0
2817119, -0.331, 1.794, -3.36, 0.073, 0.117, -0.032, 0
2817139, -0.396, 1.35, -3.03, 0.078, 0.222, 0.091, 0
2817159, -0.363, 1.539, -2.379, 0.022, 0.179, 0.128, 0
2817179, -0.207, 1.098, -2.108, 0.008, 0.053, 0.101, 0
2817199, -0.804, 0.973, -2.196, -0.095, -0.099, 0.044, 0
2817219, -0.82, 0.669, -2.335, -0.183, 0.033, 0.077, 0
2817239, -0.096, 0.408, -2.129, -0.259, 0.163, 0.136, 0
2817259, 0.335, 0.232, -1.789, -0.151, 0.127, 0.095, 0
2817279, 0.405, -0.43, -1.943, -0.148, -0.042, -0.017, 0
2817299, 0.195, 0.042, -1.809, -0.141, -0.138, -0.048, 0
2817319, 0.174, 0.302, -1.683, 0.036, -0.249, 0.09, 1
2817339, 0.536, 0.208, -1.85, 0.317, -0.444, 0.202, 1
2817359, 0.415, -0.639, -2.79, 0.37, -0.496, 0.171, 1
2817379, -0.513, -1.332, -3.821, -0.144, -0.242, 0.012, 1
2817399, -0.871, -0.071, -3.587, -0.379, 0.101, 0.003, 1
2817419, -0.355, 0.245, -2.953, -0.229, 0.251, 0.086, 1
2817439, -0.004, 0.233, -3.088, -0.048, 0.249, 0.062, 1
2817459, 0.401, -0.268, -3.772, -0.13, 0.045, 0.036, 1
2817479, 0.082, -1.124, -4.535, -0.365, -0.089, 0.139, 1
2817499, -0.746, -1.143, -3.96, -0.547, 0.166, 0.264, 1
2817519, -0.803, -1.027, -3.055, -0.541, 0.505, 0.233, 1
2817539, -0.553, -0.795, -2.138, -0.367, 0.622, 0.137, 1
2817559, -0.229, -0.505, -0.947, 0.059, 0.419, 0.082, 1
2817579, 0.154, -1.178, 0.077, 0.406, -0.162, 0.15, 1
2817599, -0.291, -1.651, 0.892, 0.542, -0.604, 0.069, 1
2817619, -1.118, -2.036, 1.11, 0.343, -0.392, -0.149, 1
2817639, -1.41, -2.097, 1.366, -0.13, 0.211, -0.202, 1
2817659, -1.017, -1.987, 1.714, -0.484, 0.67, -0.275, 1
2817679, -0.34, -1.445, 2.423, -0.676, 0.453, -0.21, 1
2817699, -0.324, -0.452, 3.511, -0.695, -0.006, -0.074, 1
2817719, -0.386, -0.081, 3.926, -0.598, -0.179, -0.078, 1
2817739, -0.487, 0.112, 3.819, -0.43, -0.107, -0.05, 1
2817759, -0.278, -0.395, 3.335, -0.385, 0.147, 0.0, 1
2817779, 0.039, -0.451, 2.99, -0.483, 0.213, 0.077, 1
2817799, 0.542, -0.614, 2.673, -0.515, 0.152, 0.078, 1
2817819, 0.555, -0.329, 2.404, -0.445, -0.117, 0.044, 1
2817839, 0.158, -0.082, 2.01, -0.233, -0.28, -0.001, 1
2817859, -0.321, -0.007, 1.488, -0.029, -0.096, -0.025, 1
2817879, -0.293, -0.191, 1.009, -0.026, 0.31, -0.039, 1
2817899, 0.43, -0.429, 0.933, -0.092, 0.405, 0.048, 1
2817919, 0.595, -0.437, 0.791, -0.161, -0.007, 0.029, 1
2817939, -0.039, -0.163, 0.476, -0.171, -0.306, 0.004, 1
2817959, -0.241, -0.211, 0.218, -0.134, -0.15, -0.019, 1
2817979, -0.342, -0.247, 0.016, -0.144, 0.132, -0.026, 1
2817999, -0.167, -0.063, -0.025, -0.193, 0.333, 0.031, 1
2818019, 0.132, -0.168, -0.072, -0.208, 0.309, 0.063, 1
2818039, 0.098, -0.199, -0.099, -0.339, 0.172, 0.077, 1
2818059, 0.027, 0.056, 0.174, -0.333, 0.009, 0.07, 1
2818079, -0.214, -0.096, 0.003, -0.133, -0.065, 0.01, 0
2818099, -0.263, -0.463, -0.33, -0.058, 0.088, -0.025, 0
2818119, 0.016, -0.116, -0.034, -0.084, 0.157, -0.019, 0
2818139, -0.057, -0.063, -0.135, -0.076, -0.026, -0.028, 0
2818159, -0.332, 0.098, -0.201, -0.086, -0.171, 0.0, 0
2818179, -0.616, 0.069, -0.336, -0.073, -0.112, 0.012, 0
2818199, -0.422, -0.073, -0.284, -0.072, 0.084, 0.061, 0
2818219, -0.052, -0.196, -0.171, -0.128, 0.193, 0.079, 0
2818239, 0.023, -0.183, -0.045, -0.266, 0.138, 0.094, 0
2818259, -0.146, 0.024, 0.186, -0.293, 0.121, 0.116, 0
2818279, -0.101, 0.11, 0.511, -0.236, 0.139, 0.109, 0
2818299, -0.005, -0.016, 0.797, -0.158, 0.144, 0.125, 0
2818319, 0.124, -0.155, 0.982, -0.113, 0.089, 0.138, 0
2818339, -0.065, -0.213, 1.077, -0.096, 0.078, 0.149, 0
2818359, -0.054, -0.295, 1.342, -0.089, 0.044, 0.174, 0
2818379, -0.051, -0.467, 1.583, -0.133, -0.068, 0.192, 0
2818399, -0.288, -0.448, 2.003, -0.135, -0.078, 0.213, 0
2818419, -0.45, -0.62, 2.491, -0.119, -0.014, 0.246, 0
2818439, -0.422, -0.697, 3.154, -0.173, 0.094, 0.278, 0
2818459, -0.384, -0.616, 4.111, -0.217, 0.244, 0.36, 0
2818479, 0.075, -0.201, 5.327, -0.105, 0.266, 0.449, 0
2818499, 0.67, -0.307, 6.149, 0.014, 0.089, 0.48, 0
2818519, 0.807, -1.166, 6.14, -0.19, -0.147, 0.455, 0
2818539, 0.429, -1.011, 5.939, -0.412, -0.435, 0.436, 0
2818559, -0.502, -0.316, 5.367, -0.28, -0.627, 0.436, 0
2818579, -1.861, -0.743, 3.922, -0.303, -0.348, 0.54, 0
2818599, -1.287, -1.397, 2.722, -0.5, -0.281, 0.657, 0
2818619, -1.317, -2.856, 1.443, -1.036, -0.282, 0.557, 0
2818639, -1.226, -2.477, 0.816, -1.097, -0.295, 0.329, 0
2818659, -1.722, -1.213, -0.143, -0.24, 0.004, 0.229, 0
2818679, -1.687, -2.232, -2.312, 0.569, 0.34, 0.43, 0
2818699, -0.451, -4.161, -4.763, 0.178, 0.42, 0.146, 0
2818719, -0.489, -2.179, -5.104, -0.081, 0.043, -0.062, 0
2818739, -0.439, 0.591, -6.316, 1.145, -0.064, 0.067, 0
2818759, 1.957, -0.754, -7.705, 1.015, -0.541, 0.251, 0
2818779, 1.811, 0.667, -7.978, 0.591, -0.646, 0.103, 0
2818799, 1.731, 1.613, -6.99, 0.481, -0.263, 0.004, 0
2818819, 1.252, 1.76, -5.541, 0.325, 0.214, -0.091, 0
2818839, 0.203, 2.466, -3.727, 0.05, 0.252, -0.134, 0
2818859, -0.349, 2.604, -2.698, -0.013, 0.259, -0.083, 0
2818879, -0.141, 2.163, -2.21, -0.012, 0.142, 0.015, 0
2818899, -0.672, 0.808, -2.724, -0.067, 0.055, -0.004, 0
2818919, -0.713, 0.379, -2.842, -0.368, 0.215, -0.033, 0
2818939, -0.032, 1.029, -1.505, -0.395, 0.212, -0.016, 0
2818959, -0.076, 0.525, -1.164, -0.248, 0.092, 0.039, 0
2818979, -0.32, 0.223, -1.206, -0.165, -0.091, 0.074, 0
2818999, 0.385, 0.423, -1.342, 0.005, -0.215, 0.135, 0
2819019, 1.154, 0.518, -1.8, 0.365, -0.467, 0.207, 0
2819039, 1.303, -0.116, -2.704, 0.783, -0.719, 0.144, 1
2819059, 0.398, -0.766, -3.641, 1.002, -0.732, -0.023, 1
2819079, -0.574, -0.049, -4.012, 0.974, -0.426, -0.02, 1
2819099, -0.637, -0.512, -4.143, 1.046, 0.0, 0.134, 1
2819119, -0.04, -0.396, -4.007, 0.897, 0.047, 0.375, 1
2819139, 0.215, -1.019, -3.948, 0.776, -0.027, 0.303, 1
2819159, -0.185, -1.507, -3.954, 0.71, -0.01, 0.071, 1
2819179, -0.219, -1.523, -3.699, 0.573, 0.021, -0.108, 1
2819199, -0.748, -1.773, -3.466, 0.402, -0.004, -0.199, 1
2819219, -1.077, -1.968, -2.898, -0.043, 0.166, -0.164, 1
2819239, -0.747, -1.744, -2.046, -0.169, 0.17, -0.151, 1
2819259, -0.736, -1.523, -1.087, -0.083, 0.106, -0.226, 1
2819279, -0.894, -1.813, -0.677, -0.085, 0.018, -0.318, 1
2819299, -1.145, -2.161, -0.266, -0.266, 0.092, -0.416, 1
2819319, -1.582, -1.923, 0.196, -0.541, 0.505, -0.444, 1
2819339, -1.487, -1.955, 0.543, -0.825, 0.977, -0.397, 1
2819359, -0.752, -1.924, 1.268, -1.108, 1.062, -0.411, 1
2819379, 0.1, -1.443, 2.235, -1.265, 0.609, -0.452, 1
2819399, 0.122, -0.494, 3.035, -1.075, 0.065, -0.449, 1
2819419, -0.447, -0.303, 2.996, -0.816, -0.011, -0.416, 1
2819439, -0.377, -0.705, 2.756, -0.846, 0.312, -0.4, 1
2819459, -0.098, -0.837, 2.793, -0.986, 0.505, -0.368, 1
2819479, 0.001, -0.263, 3.151, -1.003, 0.397, -0.291, 1
2819499, -0.11, 0.511, 3.557, -0.797, 0.213, -0.193, 1
2819519, -0.131, 0.643, 3.684, -0.423, 0.122, -0.21, 1
2819539, -0.331, 0.213, 3.411, -0.124, 0.299, -0.221, 1
2819559, 0.009, -0.105, 3.411, -0.032, 0.355, -0.193, 1
2819579, 0.472, -0.174, 3.534, -0.087, 0.056, -0.168, 1
2819599, 0.181, -0.158, 3.234, -0.23, -0.219, -0.106, 1
2819619, -0.359, 0.042, 2.721, -0.295, -0.307, 0.0, 1
2819639, -0.473, -0.113, 2.146, -0.242, -0.291, 0.054, 1
2819659, -0.623, -0.25, 1.522, -0.119, -0.164, 0.065, 1
2819679, -0.785, -0.61, 0.745, -0.105, 0.094, 0.094, 1
2819699, -0.258, -0.777, 0.44, -0.078, 0.147, 0.118, 1
2819719, -0.346, -0.917, -0.271, -0.195, 0.251, 0.162, 1
2819739, -0.08, -0.428, -0.221, -0.197, 0.298, 0.196, 1
2819759, -0.036, -0.409, -0.226, -0.144, 0.17, 0.183, 0
2819779, -0.005, -0.378, -0.269, -0.135, 0.071, 0.197, 0
2819799, 0.006, -0.46, -0.486, -0.067, 0.078, 0.174, 0
2819819, -0.056, -0.304, -0.647, -0.084, 0.185, 0.129, 0
2819839, 0.007, -0.227, -0.575, -0.086, 0.221, 0.094, 0
2819859, -0.121, -0.311, -0.67, -0.133, 0.241, 0.057, 0
2819879, -0.253, -0.187, -0.642, -0.258, 0.357, 0.056, 0
2819899, -0.007, -0.011, -0.276, -0.317, 0.369, 0.058, 0
2819919, -0.118, -0.076, -0.064, -0.266, 0.256, 0.032, 0
2819939, -0.026, -0.063, 0.374, -0.183, 0.212, 0.02, 0
2819959, -0.16, -0.238, 0.47, -0.083, 0.105, 0.018, 0
2819979, -0.213, -0.162, 0.614, -0.078, 0.069, 0.04, 0
2819999, -0.241, -0.178, 0.69, -0.061, 0.048, 0.058, 0
2820019, -0.206, -0.206, 0.896, -0.022, 0.015, 0.097, 0
2820039, -0.15, -0.222, 1.227, -0.015, -0.008, 0.127, 0
2820059, -0.14, -0.253, 1.726, 0.002, -0.063, 0.142, 0
2820079, -0.106, -0.598, 2.137, 0.008, -0.125, 0.161, 0
2820099, -0.195, -0.606, 2.832, -0.131, -0.26, 0.209, 0
2820119, -0.369, -0.547, 3.483, -0.167, -0.317, 0.248, 0
2820139, -0.237, -0.424, 4.14, -0.117, -0.205, 0.233, 0
2820159, -0.355, -0.397, 4.669, -0.011, -0.111, 0.23, 0
2820179, -0.48, -0.083, 5.22, 0.06, -0.055, 0.274, 0
2820199, -0.342, 0.389, 5.673, 0.229, -0.332, 0.418, 0
2820219, -0.491, -0.079, 5.273, 0.091, -0.508, 0.511, 0
2820239, -0.767, -0.175, 4.608, -0.043, -0.431, 0.596, 0
2820259, -1.529, -0.207, 3.435, -0.072, -0.133, 0.672, 0
2820279, -1.059, -0.083, 2.662, 0.007, -0.077, 0.743, 0
2820299, -0.619, -1.442, 1.508, -0.393, -0.139, 0.724, 0
2820319, -0.28, -3.275, -0.152, -1.186, -0.096, 0.636, 0
2820339, 0.184, -1.965, -0.515, -1.06, -0.221, 0.4, 0
2820359, -0.364, -0.838, -0.673, -0.189, -0.069, 0.425, 0
2820379, -0.862, -2.501, -1.811, 0.021, 0.43, 0.491, 0
2820399, -0.338, -2.94, -2.521, -0.4, 0.301, 0.233, 0
2820419, 0.015, -1.396, -2.808, -0.31, -0.27, -0.237, 0
2820439, -1.466, 0.077, -4.024, 0.232, -0.475, -0.027, 0
2820459, -1.844, 0.307, -5.366, 0.746, -0.401, 0.372, 0
2820479, -0.634, 0.197, -6.245, 0.955, -0.256, 0.563, 0
2820499, 0.99, -0.752, -7.33, 0.783, -0.285, 0.436, 0
2820519, 2.3, 0.505, -7.192, 0.562, -0.49, 0.15, 0
2820539, 1.357, 1.697, -7.023, 0.445, -0.282, -0.015, 0
2820559, 0.905, 2.281, -6.378, 0.241, 0.045, 0.003, 0
2820579, 0.442, 2.18, -5.022, 0.027, 0.238, -0.022, 0
2820599, 0.197, 2.123, -3.443, -0.09, 0.177, -0.037, 0
2820619, -0.594, 1.35, -2.678, -0.194, 0.193, -0.023, 0
2820639, -0.56, 1.271, -2.102, -0.257, 0.168, 0.042, 0
2820659, -0.442, 0.764, -1.909, -0.232, 0.186, 0.103, 0
2820679, -0.085, 0.056, -1.951, -0.359, 0.283, 0.062, 0
2820699, 0.761, -0.452, -2.068, -0.447, 0.238, -0.033, 0
2820719, 0.883, 0.222, -1.665, -0.461, 0.095, -0.075, 0
2820739, 0.965, 0.092, -1.582, -0.114, -0.109, -0.036, 0
2820759, 0.454, -0.142, -1.933, 0.021, -0.401, 0.017, 1
2820779, 0.097, -0.186, -2.721, 0.047, -0.445, 0.05, 1
2820799, -0.627, -1.126, -3.595, 0.304, -0.177, -0.002, 1
2820819, 0.362, -0.179, -3.192, 0.166, 0.012, -0.029, 1
2820839, -0.19, -0.343, -3.229, 0.171, -0.091, -0.164, 1
2820859, -0.751, -0.288, -3.25, 0.108, -0.003, -0.131, 1
2820879, -0.609, -0.102, -3.048, 0.099, 0.166, -0.001, 1
2820899, -0.58, -0.464, -2.776, 0.152, 0.255, 0.053, 1
2820919, -0.495, -0.751, -2.211, 0.182, 0.298, 0.074, 1
2820939, -0.301, -1.193, -1.597, 0.161, 0.204, -0.001, 1
2820959, -0.522, -1.128, -1.082, 0.07, 0.095, -0.117, 1
2820979, -0.866, -0.939, -0.648, 0.063, 0.228, -0.235, 1
2820999, -0.798, -1.144, -0.47, 0.125, 0.472, -0.285, 1
2821019, -0.807, -1.298, -0.256, 0.071, 0.591, -0.305, 1
2821039, -0.41, -1.453, 0.112, -0.012, 0.658, -0.371, 1
2821059, -0.165, -1.649, 0.497, -0.171, 0.615, -0.485, 1
2821079, -0.348, -1.158, 1.07, -0.401, 0.508, -0.561, 1
2821099, -0.718, -0.586, 1.518, -0.556, 0.486, -0.532, 1
2821119, -0.315, -0.891, 1.685, -0.61, 0.553, -0.516, 1
2821139, 0.005, -0.765, 2.182, -0.668, 0.455, -0.509, 1
2821159, -0.33, -0.168, 2.721, -0.734, 0.224, -0.516, 1
2821179, -0.625, 0.331, 3.224, -0.93, 0.216, -0.365, 1
2821199, -0.574, 0.082, 3.423, -0.962, 0.244, -0.272, 1
2821219, -0.218, -0.297, 3.352, -0.872, 0.007, -0.2, 1
2821239, -0.24, -0.077, 3.383, -0.723, -0.185, -0.165, 1
2821259, -0.411, 0.182, 3.399, -0.482, -0.12, -0.128, 1
2821279, -0.593, 0.392, 3.24, -0.245, 0.096, -0.104, 1
2821299, -0.441, -0.201, 2.734, -0.24, 0.257, -0.041, 1
2821319, -0.11, -0.373, 2.591, -0.343, 0.196, 0.022, 1
2821339, 0.331, -0.355, 2.679, -0.266, -0.226, 0.042, 1
2821359, -0.1, -0.498, 2.094, -0.168, -0.469, 0.026, 1
2821379, -0.648, -0.398, 1.371, -0.099, -0.296, 0.041, 1
2821399, -0.754, -0.536, 0.668, -0.184, 0.123, 0.07, 1
2821419, -0.451, -0.441, 0.42, -0.266, 0.415, 0.15, 1
2821439, 0.178, -0.431, 0.458, -0.223, 0.284, 0.172, 1
2821459, 0.345, -0.381, 0.251, -0.153, -0.088, 0.116, 1
2821479, -0.396, -0.532, -0.526, -0.279, -0.003, 0.085, 1
2821499, -0.748, -0.222, -0.819, -0.334, 0.383, 0.138, 1
2821519, -0.013, -0.224, -0.529, -0.215, 0.438, 0.081, 0
2821539, 0.387, -0.356, -0.421, -0.205, 0.23, 0.058, 0
2821559, 0.028, -0.367, -0.498, -0.285, 0.085, 0.07, 0
2821579, -0.11, -0.086, -0.417, -0.269, 0.072, 0.07, 0
2821599, -0.201, -0.163, -0.564, -0.29, 0.17, 0.099, 0
2821619, 0.007, -0.212, -0.573, -0.262, 0.167, 0.089, 0
2821639, -0.115, -0.144, -0.541, -0.237, 0.183, 0.079, 0
2821659, 0.182, 0.083, -0.151, -0.099, 0.032, 0.042, 0
2821679, -0.33, -0.07, -0.291, -0.138, 0.012, 0.076, 0
2821699, -0.204, -0.029, -0.179, -0.14, 0.047, 0.08, 0
2821719, -0.177, 0.02, -0.024, -0.108, 0.043, 0.078, 0
2821739, -0.016, -0.064, 0.161, -0.068, 0.075, 0.089, 0
2821759, 0.056, -0.103, 0.412, -0.014, 0.046, 0.076, 0
2821779, 0.016, -0.251, 0.567, 0.026, -0.033, 0.084, 0
2821799, -0.108, -0.257, 0.711, 0.0, -0.101, 0.086, 0
2821819, -0.178, -0.237, 0.994, -0.02, -0.105, 0.109, 0
2821839, -0.255, -0.221, 1.375, 0.019, -0.078, 0.116, 0
2821859, -0.28, -0.399, 1.829, 0.122, 0.003, 0.118, 0
2821879, -0.437, -0.72, 2.393, 0.205, 0.061, 0.119, 0
2821899, -0.395, -0.917, 3.237, 0.201, 0.081, 0.183, 0
2821919, -0.309, -1.002, 4.195, 0.14, 0.067, 0.232, 0
2821939, -0.563, -1.097, 4.81, 0.037, 0.083, 0.261, 0
2821959, -0.725, -0.87, 5.21, -0.13, 0.336, 0.323, 0
2821979, -0.57, -0.578, 5.577, -0.256, 0.582, 0.441, 0
2821999, -0.4, -0.687, 5.71, -0.296, 0.409, 0.546, 0
2822019, -0.191, -0.541, 5.39, -0.372, -0.248, 0.526, 0
2822039, -1.918, -0.202, 3.782, -0.558, -0.648, 0.516, 0
2822059, -2.361, 0.498, 2.904, -0.594, -0.097, 0.723, 0
2822079, -0.938, 0.12, 2.692, -0.319, 0.271, 0.891, 0
2822099, -0.113, -1.231, 1.235, -0.224, -0.237, 0.868, 0
2822119, -1.429, -2.17, -0.826, -0.514, -0.627, 0.767, 0
2822139, -0.865, -1.552, -1.461, -0.65, -0.392, 0.613, 0
2822159, -0.404, -1.719, -1.98, -0.02, -0.366, 0.302, 0
2822179, -0.687, -2.059, -3.14, 0.271, -0.136, 0.25, 0
2822199, -0.136, -1.888, -4.317, 0.29, -0.306, 0.368, 0
2822219, -0.335, -1.327, -5.045, 0.158, -0.5, 0.243, 0
2822239, -0.421, 0.104, -4.935, 0.367, -0.533, 0.208, 0
2822259, 0.337, 0.713, -5.019, 0.834, -0.597, 0.319, 0
2822279, 0.568, 0.188, -5.893, 0.864, -0.619, 0.336, 0
2822299, 0.977, 0.6, -6.327, 0.61, -0.535, 0.209, 0
2822319, 0.77, 1.159, -6.337, 0.29, -0.309, 0.072, 0
2822339, 1.057, 2.155, -5.37, 0.181, -0.125, 0.0, 0
2822359, 0.469, 2.074, -4.555, 0.088, 0.062, -0.031, 0
2822379, 0.41, 2.011, -3.56, -0.079, 0.114, -0.007, 0
2822399, -0.252, 1.67, -2.506, -0.161, 0.105, -0.014, 0
2822419, -0.589, 1.03, -1.932, -0.224, 0.142, 0.015, 0
2822439, -0.269, 0.903, -1.412, -0.25, 0.134, 0.065, 0
2822459, -0.108, 0.243, -0.953, -0.205, 0.073, 0.078, 0
2822479, 0.232, -0.07, -0.423, -0.11, -0.102, 0.025, 0
2822499, 0.295, 0.004, -0.039, 0.058, -0.272, 0.029, 1
2822519, 0.133, -0.195, -0.014, 0.22, -0.456, 0.056, 1
2822539, -0.44, -0.777, -0.743, 0.294, -0.29, 0.015, 1
2822559, -0.912, -1.233, -1.621, 0.149, 0.131, -0.054, 1
2822579, 0.344, -0.397, -1.462, 0.169, 0.152, -0.131, 1
2822599, 0.319, -0.172, -1.727, 0.165, 0.113, -0.116, 1
2822619, 0.721, 0.02, -2.223, 0.21, 0.013, -0.061, 1
2822639, 0.39, 0.014, -3.649, 0.064, 0.123, -0.092, 1
2822659, 1.033, 0.889, -5.093, 0.083, 0.216, -0.003, 1
2822679, 1.344, 0.849, -4.999, 0.251, 0.039, -0.046, 1
2822699, 0.82, 0.957, -5.09, 0.561, -0.315, -0.155, 1
2822719, 0.044, 0.291, -5.514, 1.072, -0.546, -0.145, 1
2822739, -0.592, -1.053, -5.442, 1.367, -0.682, -0.165, 1
2822759, -1.371, -1.96, -4.796, 1.368, -0.637, -0.337, 1
2822779, -1.598, -2.703, -3.999, 1.238, -0.439, -0.43, 1
2822799, -1.992, -3.5, -3.16, 0.766, -0.213, -0.55, 1
2822819, -2.255, -3.346, -1.917, 0.086, 0.077, -0.662, 1
2822839, -2.462, -3.003, -0.58, -0.678, 0.468, -0.675, 1
2822859, -2.517, -2.418, 0.775, -1.408, 0.941, -0.602, 1
2822879, -2.066, -1.841, 2.287, -1.833, 1.346, -0.505, 1
2822899, -1.576, -1.245, 3.615, -1.959, 1.44, -0.459, 1
2822919, -1.278, -0.747, 4.655, -1.86, 1.255, -0.35, 1
2822939, -0.992, -0.535, 5.161, -1.722, 0.946, -0.339, 1
2822959, -0.735, -0.621, 5.365, -1.608, 0.63, -0.307, 1
2822979, -0.712, -0.559, 5.415, -1.486, 0.383, -0.232, 1
2822999, -0.507, -0.215, 5.252, -1.185, 0.239, -0.169, 1
2823019, -0.209, 0.053, 5.099, -0.897, 0.119, -0.153, 1
2823039, 0.127, -0.03, 4.889, -0.632, -0.043, -0.13, 1
2823059, 0.171, -0.36, 4.314, -0.574, -0.332, -0.043, 1
2823079, -0.189, -0.432, 3.651, -0.724, -0.495, 0.056, 1
2823099, -0.69, -0.334, 3.022, -0.789, -0.359, 0.153, 1
2823119, -0.631, -0.262, 2.611, -0.714, -0.08, 0.205, 1
2823139, -0.317, -0.888, 1.761, -0.23, -0.262, 0.204, 1
2823159, -0.268, -1.647, 0.489, -0.166, -0.378, 0.18, 1
2823179, -0.428, -1.669, -0.331, -0.143, -0.26, 0.16, 1
2823199, -0.29, -1.461, -0.631, -0.071, -0.077, 0.135, 1
2823219, -0.208, -1.148, -0.624, 0.033, 0.107, 0.121, 1
2823239, -0.046, -0.881, -0.439, 0.1, 0.165, 0.097, 1
2823259, 0.052, -0.514, -0.343, 0.12, 0.142, 0.086, 1
2823279, -0.018, -0.562, -0.516, 0.04, 0.105, 0.097, 1
2823299, -0.109, -0.576, -0.687, -0.087, 0.106, 0.098, 1
2823319, -0.414, -0.251, -0.637, -0.096, 0.211, 0.104, 1
2823339, -0.237, -0.26, -0.519, -0.1, 0.271, 0.107, 1
2823359, -0.033, -0.245, -0.32, -0.065, 0.219, 0.091, 1
2823379, -0.018, -0.331, -0.288, -0.098, 0.124, 0.084, 0
2823399, -0.017, -0.447, -0.213, -0.21, 0.087, 0.088, 0
2823419, -0.217, -0.237, -0.07, -0.23, 0.045, 0.125, 0
2823439, -0.228, -0.202, 0.097, -0.246, -0.01, 0.117, 0
2823459, -0.578, -0.208, 0.189, -0.259, 0.179, 0.149, 0
2823479, -0.367, -0.318, 0.345, -0.34, 0.359, 0.184, 0
2823499, -0.121, -0.266, 0.751, -0.337, 0.3, 0.199, 0
2823519, -0.122, -0.374, 1.198, -0.282, 0.138, 0.204, 0
2823539, -0.256, -0.504, 1.576, -0.208, 0.113, 0.219, 0
2823559, -0.326, -0.772, 2.185, -0.127, 0.145, 0.248, 0
2823579, -0.247, -1.075, 3.036, -0.105, 0.131, 0.262, 0
2823599, -0.092, -1.37, 3.977, -0.11, 0.027, 0.294, 0
2823619, 0.032, -1.392, 4.764, -0.026, -0.083, 0.281, 0
2823639, -0.711, -0.375, 5.322, 0.166, -0.043, 0.339, 0
2823659, -0.919, -0.166, 5.388, 0.502, -0.164, 0.42, 0
2823679, -0.683, -1.481, 4.677, 0.696, -0.408, 0.552, 0
2823699, -0.957, -2.332, 3.884, 0.407, -0.652, 0.596, 0
2823719, -0.922, -2.129, 3.33, 0.194, -0.673, 0.538, 0
2823739, -0.985, -1.787, 2.382, 0.204, -0.731, 0.473, 0
2823759, -1.896, -2.075, 0.794, 0.249, -0.781, 0.459, 0
2823779, -1.935, -2.582, -0.812, 0.044, -0.462, 0.499, 0
2823799, -0.99, -1.392, -1.393, -0.202, -0.419, 0.437, 0
2823819, -1.949, -1.171, -2.352, -0.043, -0.604, 0.342, 0
2823839, -1.615, -1.641, -2.971, 0.122, -0.426, 0.419, 0
2823859, -1.625, -2.095, -3.81, 0.086, -0.375, 0.334, 0
2823879, -1.279, -1.442, -4.558, 0.189, -0.265, 0.222, 0
2823899, -1.137, -1.27, -5.4, 0.327, -0.264, 0.337, 0
2823919, -0.543, -0.562, -5.373, 0.296, -0.137, 0.277, 0
2823939, 0.37, -0.114, -5.203, 0.512, -0.17, 0.194, 0
2823959, 0.542, 0.28, -5.726, 0.465, -0.228, 0.175, 0
2823979, 0.68, 1.276, -5.206, 0.257, -0.155, 0.167, 0
2823999, 0.675, 1.076, -4.551, 0.172, -0.036, 0.109, 0
2824019, 0.672, 1.485, -3.865, 0.062, 0.15, -0.015, 0
2824039, 0.33, 1.841, -3.134, 0.001, 0.175, -0.005, 0
2824059, -0.337, 1.468, -2.611, -0.087, 0.252, 0.046, 0
2824079, 0.265, 1.298, -1.849, -0.141, 0.277, 0.087, 0
2824099, -0.109, 0.951, -1.683, -0.146, 0.107, 0.079, 0
2824119, 0.029, 0.574, -1.695, -0.147, 0.089, 0.117, 0
2824139, -0.004, 0.222, -1.554, -0.156, 0.075, 0.153, 0
2824159, -0.043, -0.212, -1.42, -0.183, 0.089, 0.163, 0
2824179, 0.28, -0.226, -0.961, -0.101, -0.02, 0.146, 0
2824199, 1.027, 0.501, -0.268, 0.299, -0.406, 0.109, 1
2824219, 0.642, 0.013, -0.836, 0.522, -0.667, 0.099, 1
2824239, -0.796, 0.013, -1.377, 0.755, -0.426, 0.087, 1
2824259, -0.812, -0.666, -1.853, 0.733, -0.129, 0.072, 1
2824279, -0.011, -0.788, -2.043, 0.544, -0.14, -0.097, 1
2824299, -0.36, -0.301, -1.907, 0.417, -0.072, -0.226, 1
2824319, -0.32, -0.089, -2.021, 0.309, -0.071, -0.134, 1
2824339, -0.037, 0.229, -2.305, 0.34, -0.147, -0.012, 1
2824359, -0.253, 0.176, -2.699, 0.361, -0.071, 0.087, 1
2824379, -0.086, 0.003, -2.816, 0.356, 0.065, 0.08, 1
2824399, 0.054, -0.354, -2.857, 0.336, 0.077, 0.003, 1
2824419, 0.174, -0.419, -3.086, 0.384, -0.013, -0.059, 1
2824439, -0.084, -0.121, -3.346, 0.553, -0.161, -0.021, 1
2824459, -0.9, -0.182, -3.562, 0.731, -0.073, -0.009, 1
2824479, -0.729, -0.892, -3.29, 0.643, 0.044, -0.098, 1
2824499, -0.175, -1.618, -3.011, 0.492, -0.05, -0.314, 1
2824519, -0.539, -2.121, -2.87, 0.24, -0.125, -0.41, 1
2824539, -1.246, -2.169, -2.688, 0.001, 0.122, -0.497, 1
2824559, -1.752, -2.36, -2.301, -0.546, 0.585, -0.466, 1
2824579, -1.659, -2.209, -1.31, -1.294, 1.047, -0.394, 1
2824599, -1.509, -1.788, 0.046, -2.04, 1.35, -0.238, 1
2824619, -0.883, -0.083, 2.594, -1.783, 1.279, -0.163, 1
2824639, -0.435, -0.481, 3.292, -1.318, 1.069, -0.181, 1
2824659, -0.365, -0.554, 3.632, -1.266, 0.872, -0.216, 1
2824679, -0.386, -0.345, 3.962, -1.32, 0.651, -0.202, 1
2824699, -0.401, -0.454, 3.845, -1.199, 0.406, -0.15, 1
2824719, -0.44, -0.119, 3.965, -0.998, 0.2, -0.126, 1
2824739, -0.183, 0.252, 4.006, -0.579, 0.087, -0.084, 1
2824759, 0.201, -0.579, 3.308, -0.284, -0.07, -0.107, 1
2824779, 0.038, -0.573, 2.864, -0.346, -0.234, -0.102, 1
2824799, 0.016, -0.503, 2.648, -0.431, -0.202, -0.111, 1
2824819, -0.039, 0.011, 2.547, -0.351, -0.147, -0.136, 1
2824839, -0.163, -0.09, 2.073, -0.123, -0.098, -0.174, 1
2824859, -0.089, -0.336, 1.825, -0.045, -0.071, -0.153, 1
2824879, -0.199, -0.09, 1.75, -0.006, -0.157, -0.111, 1
2824899, -0.451, -0.044, 1.408, 0.094, -0.259, -0.061, 1
2824919, -0.722, -0.233, 0.953, 0.142, -0.137, 0.01, 1
2824939, -0.377, -0.395, 0.718, 0.116, 0.065, 0.111, 1
2824959, 0.041, -0.696, 0.563, 0.101, 0.051, 0.161, 1
2824979, 0.092, -0.894, 0.352, 0.107, -0.113, 0.169, 0
2824999, -0.167, -1.218, -0.259, 0.106, -0.152, 0.149, 0
2825019, -0.196, -1.145, -0.608, -0.074, 0.067, 0.196, 0
2825039, 0.224, -0.855, -0.562, -0.371, 0.148, 0.276, 0
2825059, 0.08, -0.42, -0.42, -0.478, -0.024, 0.265, 0
2825079, -0.11, -0.364, -0.569, -0.221, -0.028, 0.119, 0
2825099, 0.042, -0.365, -0.426, -0.121, 0.273, 0.008, 0
2825119, 0.2, -0.29, -0.238, -0.064, 0.279, -0.01, 0
2825139, 0.214, -0.392, -0.208, -0.147, 0.141, 0.003, 0
2825159, -0.16, -0.056, -0.14, -0.211, 0.098, 0.025, 0
2825179, -0.52, 0.203, -0.014, -0.16, 0.186, 0.053, 0
2825199, -0.205, 0.039, 0.296, -0.094, 0.174, 0.061, 0
2825219, -0.082, -0.134, 0.647, -0.007, 0.106, 0.04, 0
2825239, -0.096, -0.44, 0.69, -0.008, 0.078, 0.044, 0
2825259, -0.093, -0.525, 0.939, -0.037, 0.015, 0.053, 0
2825279, -0.212, -0.457, 1.318, 0.001, -0.044, 0.066, 0
2825299, -0.365, -0.473, 1.795, 0.09, 0.036, 0.083, 0
2825319, -0.247, -0.62, 2.335, 0.211, 0.11, 0.102, 0
2825339, -0.076, -0.919, 2.972, 0.287, 0.066, 0.11, 0
2825359, -0.102, -1.279, 3.461, 0.233, -0.023, 0.12, 0
2825379, -0.233, -1.273, 3.996, 0.141, -0.014, 0.124, 0
2825399, -0.506, -0.822, 4.51, 0.163, 0.153, 0.156, 0
2825419, -0.675, -0.148, 5.076, 0.409, 0.259, 0.205, 0
2825439, -0.157, 0.232, 5.558, 0.604, 0.105, 0.285, 0
2825459, 0.252, -0.216, 5.511, 0.351, -0.219, 0.397, 0
2825479, -0.219, 0.074, 5.249, -0.028, -0.322, 0.527, 0
2825499, -0.64, 0.54, 4.919, -0.138, -0.324, 0.701, 0
2825519, -1.293, -0.019, 4.044, -0.22, -0.243, 0.885, 0
2825539, -0.493, -1.797, 2.577, -0.597, -0.487, 0.847, 0
2825559, -0.507, -2.109, 0.888, -0.89, -0.78, 0.599, 0
2825579, -1.84, -0.719, -2.082, -0.276, -0.781, 0.397, 0
2825599, -2.161, -0.989, -4.489, 0.226, -0.817, 0.404, 0
2825619, -2.064, -1.544, -6.308, 0.066, -0.698, 0.407, 0
2825639, -1.002, -0.571, -6.218, -0.3, -0.51, 0.286, 0
2825659, -0.41, 1.152, -5.578, -0.023, -0.558, 0.17, 0
2825679, -0.65, 0.358, -6.18, 0.727, -0.632, 0.384, 0
2825699, 0.184, -0.247, -6.87, 0.753, -0.448, 0.38, 0
2825719, 0.054, 0.827, -6.637, 0.328, -0.345, 0.202, 0
2825739, 0.353, 1.278, -5.747, 0.156, -0.148, 0.107, 0
2825759, 0.219, 1.42, -4.782, 0.036, 0.014, 0.046, 0
2825779, 0.016, 1.518, -3.782, -0.108, 0.171, 0.024, 0
2825799, -0.151, 1.246, -2.935, -0.241, 0.27, -0.008, 0
2825819, -0.178, 1.173, -2.071, -0.284, 0.32, -0.017, 0
2825839, -0.144, 0.77, -1.501, -0.21, 0.275, 0.028, 0
2825859, -0.049, 0.176, -1.251, -0.18, 0.213, 0.053, 0
2825879, -0.252, -0.431, -1.346, -0.258, 0.153, 0.056, 1
2825899, -0.558, -0.063, -1.112, -0.448, 0.284, 0.036, 1
2825919, -0.036, -0.108, -0.505, -0.346, 0.379, 0.059, 1
2825939, 0.204, -0.494, -0.187, -0.203, 0.384, 0.032, 1
2825959, -0.398, -0.7, -0.218, -0.095, 0.307, -0.047, 1
2825979, 0.05, -0.293, -0.276, 0.017, 0.26, 0.013, 1
2825999, 0.154, -0.208, -0.567, 0.149, 0.144, 0.023, 1
2826019, 0.121, 0.265, -0.821, 0.329, 0.066, 0.032, 1
2826039, 0.212, 0.101, -1.222, 0.592, 0.043, 0.064, 1
2826059, 0.047, -0.361, -1.817, 0.557, 0.006, -0.003, 1
2826079, -0.087, -0.158, -2.371, 0.375, 0.118, -0.031, 1
2826099, -0.036, 0.07, -2.94, 0.195, 0.166, -0.005, 1
2826119, 0.02, 0.323, -3.282, 0.135, 0.277, 0.034, 1
2826139, 0.309, 0.76, -3.514, 0.319, 0.381, 0.05, 1
2826159, 0.604, 0.656, -4.026, 0.545, 0.299, -0.008, 1
2826179, 0.643, 0.397, -4.444, 0.612, 0.043, -0.12, 1
2826199, 0.281, 0.211, -4.645, 0.675, -0.146, -0.173, 1
2826219, -0.09, -0.073, -4.828, 0.936, -0.131, -0.237, 1
2826239, -0.562, -0.749, -4.284, 1.207, 0.003, -0.351, 1
2826259, -0.901, -2.001, -3.633, 1.134, 0.189, -0.521, 1
2826279, -0.87, -3.012, -2.985, 0.565, 0.188, -0.642, 1
2826299, -1.146, -3.236, -2.281, -0.158, 0.16, -0.725, 1
2826319, -1.816, -2.699, -1.159, -0.828, 0.356, -0.758, 1
2826339, -2.342, -2.001, -0.02, -1.187, 0.715, -0.673, 1
2826359, -2.293, -1.126, 1.405, -1.21, 1.005, -0.599, 1
2826379, -1.578, -1.231, 2.472, -1.139, 0.962, -0.541, 1
2826399, -0.89, -1.253, 3.438, -1.125, 0.715, -0.543, 1
2826419, -0.783, -0.672, 4.154, -1.136, 0.421, -0.535, 1
2826439, -0.584, -0.747, 4.343, -1.119, 0.061, -0.457, 1
2826459, -0.562, -0.781, 4.255, -1.003, -0.238, -0.316, 1
2826479, -0.507, -0.552, 4.059, -0.859, -0.272, -0.321, 1
2826499, -0.809, 0.074, 4.006, -0.726, -0.14, -0.241, 1
2826519, -0.341, 0.136, 3.907, -0.533, -0.094, -0.116, 1
2826539, 0.069, 0.318, 3.79, -0.313, -0.08, -0.045, 1
2826559, 0.221, -0.147, 2.781, -0.326, -0.238, -0.002, 1
2826579, -0.078, -0.167, 2.471, -0.477, -0.226, 0.035, 1
2826599, -0.146, 0.061, 2.198, -0.405, -0.07, 0.067, 1
2826619, -0.072, -0.003, 1.82, -0.195, 0.086, 0.019, 1
2826639, -0.126, -0.134, 1.284, 0.004, 0.1, -0.004, 1
2826659, -0.235, -0.243, 0.881, 0.027, 0.109, 0.025, 1
2826679, -0.194, -0.426, 0.548, -0.111, 0.033, 0.105, 1
2826699, -0.402, -0.11, 0.387, -0.237, -0.043, 0.167, 1
2826719, -0.273, -0.063, 0.227, -0.149, 0.035, 0.169, 1
2826739, -0.155, -0.316, -0.061, 0.016, 0.067, 0.129, 1
2826759, -0.329, -0.899, -0.705, -0.04, 0.094, 0.109, 1
2826779, -0.371, -0.849, -0.928, -0.268, 0.272, 0.187, 1
2826799, 0.022, -0.436, -0.463, -0.386, 0.342, 0.261, 1
2826819, -0.054, -0.254, -0.198, -0.291, 0.151, 0.241, 0
2826839, 0.123, -0.103, 0.048, -0.037, 0.002, 0.194, 0
2826859, 0.036, -0.531, -0.261, 0.027, 0.004, 0.151, 0
2826879, 0.063, -0.718, -0.579, -0.159, 0.106, 0.188, 0
2826899, -0.072, -0.466, -0.66, -0.406, 0.178, 0.214, 0
2826919, -0.211, 0.019, -0.324, -0.444, 0.237, 0.187, 0
2826939, -0.222, 0.07, -0.048, -0.279, 0.297, 0.124, 0
2826959, -0.027, -0.088, 0.2, -0.164, 0.307, 0.116, 0
2826979, -0.088, -0.143, 0.436, -0.191, 0.244, 0.133, 0
2826999, -0.117, -0.198, 0.829, -0.194, 0.145, 0.15, 0
2827019, -0.203, -0.266, 1.205, -0.15, 0.028, 0.164, 0
2827039, -0.164, -0.415, 1.62, -0.124, -0.014, 0.229, 0
2827059, -0.172, -0.475, 2.187, -0.074, -0.063, 0.244, 0
2827079, -0.171, -0.576, 2.798, 0.057, -0.096, 0.252, 0
2827099, 0.131, -0.811, 3.488, 0.16, -0.138, 0.25, 0
2827119, 0.004, -0.633, 4.096, 0.251, -0.175, 0.251, 0
2827139, -0.26, -0.597, 4.551, 0.196, -0.159, 0.325, 0
2827159, -0.369, -0.054, 5.198, 0.259, -0.243, 0.397, 0
2827179, -0.433, -0.229, 5.362, 0.344, -0.388, 0.467, 0
2827199, -0.702, -0.742, 5.075, 0.238, -0.411, 0.585, 0
2827219, -0.582, -1.034, 4.83, 0.05, -0.5, 0.7, 0
2827239, -0.633, -1.534, 4.148, -0.174, -0.685, 0.777, 0
2827259, -1.098, -2.559, 2.672, -0.422, -0.718, 0.722, 0
2827279, -1.368, -2.215, 1.595, -0.386, -0.626, 0.631, 0
2827299, -1.845, -2.855, 0.268, -0.588, -0.259, 0.577, 0
2827319, -1.54, -2.762, -0.662, -0.919, -0.015, 0.566, 0
2827339, -0.444, -2.037, -1.252, -0.77, -0.298, 0.272, 0
2827359, -0.832, -0.941, -2.097, -0.074, -0.587, -0.037, 0
2827379, -2.535, -0.712, -3.59, 0.433, -0.062, -0.057, 0
2827399, -2.302, -1.084, -4.598, 0.409, 0.592, -0.087, 0
2827419, -0.619, -1.303, -5.005, 0.122, 0.383, -0.136, 0
2827439, 0.458, 0.111, -4.592, 0.147, -0.612, -0.084, 0
2827459, -1.311, 1.079, -4.976, 0.48, -0.604, 0.075, 0
2827479, -0.966, 1.099, -5.311, 0.659, -0.316, 0.339, 0
2827499, 0.411, 0.87, -5.405, 0.554, -0.276, 0.187, 0
2827519, 0.6, 0.751, -5.424, 0.074, -0.244, -0.073, 0
2827539, 0.67, 1.319, -3.785, -0.038, 0.02, -0.142, 0
2827559, 0.129, 1.42, -3.38, -0.189, 0.002, -0.201, 0
2827579, -0.301, 1.716, -2.526, -0.262, 0.054, -0.089, 0
2827599, 0.161, 0.925, -1.62, -0.099, 0.133, 0.05, 0
2827619, 0.122, 0.197, -1.356, -0.059, 0.052, -0.02, 0
2827639, -0.36, 0.056, -1.305, -0.099, -0.019, -0.076, 0
2827659, -0.331, -0.129, -1.252, -0.149, 0.04, -0.014, 0
2827679, -0.162, -0.038, -0.944, -0.147, 0.117, 0.05, 1
2827699, 0.314, 0.365, -0.518, 0.092, 0.191, 0.089, 1
2827719, -0.124, -0.363, -0.62, 0.462, 0.253, -0.007, 1
2827739, -0.083, -0.412, -0.495, 0.624, 0.186, -0.053, 1
2827759, -0.691, -0.576, -0.795, 0.718, 0.067, -0.095, 1
2827779, -0.885, -0.721, -1.168, 0.666, 0.164, -0.074, 1
2827799, -0.269, -0.439, -1.44, 0.423, 0.251, 0.0, 1
2827819, 0.109, -0.205, -2.042, 0.172, 0.13, 0.048, 1
2827839, 0.0, -0.146, -2.42, 0.029, 0.021, 0.09, 1
2827859, -0.019, -0.015, -2.466, -0.037, 0.046, 0.092, 1
2827879, 0.264, 0.321, -2.637, 0.016, 0.107, 0.056, 1
2827899, 0.151, 0.224, -3.325, 0.189, 0.1, 0.064, 1
2827919, 0.014, 0.428, -3.588, 0.296, -0.009, 0.124, 1
2827939, 0.322, 0.674, -3.459, 0.512, -0.179, 0.15, 1
2827959, 0.248, 0.188, -3.606, 0.892, -0.458, 0.113, 1
2827979, -0.079, -0.582, -3.689, 1.241, -0.75, 0.006, 1
2827999, -0.836, -1.39, -3.963, 1.339, -0.882, -0.128, 1
2828019, -1.254, -2.02, -3.892, 0.949, -0.529, -0.304, 1
2828039, -1.767, -2.041, -3.081, 0.435, -0.003, -0.35, 1
2828059, -1.645, -1.764, -2.013, -0.084, 0.516, -0.385, 1
2828079, -1.307, -1.816, -1.143, -0.595, 0.821, -0.356, 1
2828099, -1.214, -1.812, -0.276, -1.16, 0.926, -0.302, 1
2828119, -1.251, -1.864, 0.618, -1.634, 0.904, -0.148, 1
2828139, -1.108, -1.31, 1.742, -1.718, 0.882, -0.109, 1
2828159, -0.81, -0.901, 2.503, -1.554, 0.858, -0.164, 1
2828179, -0.851, -0.679, 2.983, -1.284, 0.894, -0.155, 1
2828199, -0.858, -0.363, 3.636, -0.961, 0.997, -0.169, 1
2828219, -0.455, -0.644, 3.728, -0.803, 0.89, -0.156, 1
2828239, 0.239, -1.366, 3.433, -1.001, 0.464, -0.147, 1
2828259, 0.14, -0.884, 3.598, -1.127, 0.104, -0.138, 1
2828279, -0.306, -0.357, 3.755, -0.924, -0.018, -0.106, 1
2828299, -0.298, -0.165, 3.661, -0.517, 0.012, -0.113, 1
2828319, -0.234, -0.523, 3.1, -0.194, 0.143, -0.159, 1
2828339, -0.103, -0.798, 2.596, -0.116, 0.262, -0.189, 1
2828359, 0.349, -0.998, 2.255, -0.227, 0.088, -0.191, 1
2828379, 0.015, -0.488, 2.032, -0.289, -0.171, -0.141, 1
2828399, -0.303, -0.155, 1.579, -0.301, -0.276, -0.098, 1
2828419, -0.504, -0.06, 1.281, -0.29, -0.127, -0.034, 1
2828439, -0.469, -0.021, 1.068, -0.21, 0.058, -0.006, 1
2828459, -0.2, -0.262, 0.776, -0.187, 0.164, -0.015, 1
2828479, -0.295, -0.17, 0.558, -0.185, 0.238, 0.015, 0
2828499, -0.096, -0.22, 0.468, -0.283, 0.152, 0.086, 0
2828519, -0.055, -0.146, 0.089, -0.304, -0.109, 0.112, 0
2828539, -0.249, -0.073, -0.137, -0.29, -0.015, 0.109, 0
2828559, -0.1, -0.181, -0.203, -0.215, 0.185, 0.088, 0
2828579, 0.213, -0.226, -0.159, -0.142, 0.208, 0.053, 0
2828599, 0.014, -0.393, -0.381, -0.176, 0.158, 0.021, 0
2828619, -0.35, -0.077, -0.328, -0.315, 0.224, 0.065, 0
2828639, -0.098, 0.002, -0.089, -0.294, 0.22, 0.081, 0
2828659, -0.254, -0.056, -0.199, -0.216, 0.152, 0.056, 0
2828679, 0.019, -0.032, -0.011, -0.175, 0.188, 0.055, 0
2828699, 0.021, -0.061, 0.16, -0.121, 0.124, 0.017, 0
2828719, -0.247, -0.095, 0.126, -0.089, 0.074, 0.011, 0
2828739, -0.316, -0.203, 0.043, -0.133, 0.118, 0.058, 0
2828759, -0.098, -0.15, 0.24, -0.2, 0.146, 0.108, 0
2828779, -0.088, -0.064, 0.553, -0.175, 0.092, 0.113, 0
2828799, -0.07, -0.161, 0.936, -0.078, 0.06, 0.087, 0
2828819, -0.112, -0.287, 1.29, -0.023, 0.031, 0.089, 0
2828839, -0.179, -0.462, 1.507, -0.084, -0.029, 0.149, 0
2828859, -0.19, -0.549, 1.875, -0.26, -0.131, 0.244, 0
2828879, -0.517, -0.251, 2.557, -0.312, -0.252, 0.279, 0
2828899, -0.666, -0.214, 3.186, -0.079, -0.175, 0.288, 0
2828919, -0.232, -0.467, 3.929, 0.184, 0.056, 0.316, 0
2828939, 0.428, -0.917, 4.652, 0.216, 0.124, 0.376, 0
2828959, 0.498, -0.797, 5.207, -0.076, -0.114, 0.469, 0
2828979, -0.093, -0.008, 5.672, -0.336, -0.301, 0.56, 0
2828999, -0.67, 0.257, 5.713, 0.01, -0.314, 0.653, 0
2829019, -0.604, -0.556, 5.188, 0.084, -0.36, 0.74, 0
2829039, -0.733, -2.299, 3.882, -0.474, -0.467, 0.822, 0
2829059, -0.873, -2.619, 2.824, -1.016, -0.512, 0.762, 0
2829079, -1.452, -1.988, 2.194, -0.956, -0.403, 0.668, 0
2829099, -1.529, -2.013, 1.661, -0.53, -0.263, 0.653, 0
2829119, -1.364, -2.648, 0.48, -0.182, -0.305, 0.533, 0
2829139, -1.601, -2.893, -1.36, 0.172, -0.251, 0.527, 0
2829159, -1.041, -3.158, -3.023, 0.412, -0.335, 0.367, 0
2829179, -1.179, -3.366, -4.619, 0.212, -0.311, 0.128, 0
2829199, -1.11, -2.271, -5.236, 0.02, -0.298, -0.024, 0
2829219, -0.668, -0.475, -4.881, 0.278, -0.613, -0.002, 0
2829239, -1.211, -0.16, -5.315, 0.594, -0.46, 0.031, 0
2829259, -0.377, 0.342, -5.512, 0.746, -0.266, 0.051, 0
2829279, 0.413, 0.515, -5.638, 0.656, -0.427, 0.065, 0
2829299, 0.354, 0.809, -5.78, 0.395, -0.516, -0.05, 0
2829319, 0.119, 1.624, -5.676, 0.249, -0.248, -0.029, 0
2829339, 0.269, 1.761, -4.955, 0.227, -0.032, 0.028, 0
2829359, 0.483, 1.408, -4.236, 0.081, 0.128, 0.037, 0
2829379, 0.478, 1.364, -3.206, 0.015, 0.181, 0.0, 0
2829399, 0.338, 1.128, -2.454, -0.038, 0.111, -0.065, 0
2829419, -0.204, 1.23, -2.009, -0.098, 0.111, 0.009, 0
2829439, -0.384, 0.615, -1.718, -0.12, 0.192, 0.12, 0
2829459, -0.025, 0.199, -1.24, -0.211, 0.221, 0.121, 0
2829479, -0.113, 0.015, -0.947, -0.285, 0.204, 0.087, 0
2829499, 0.003, -0.435, -0.539, -0.229, 0.127, 0.075, 0
2829519, -0.067, -0.051, -0.081, -0.212, 0.059, 0.101, 1
2829539, 0.397, 0.141, -0.018, 0.011, -0.122, 0.139, 1
2829559, -0.438, -0.492, -0.149, 0.367, -0.169, 0.109, 1
2829579, -0.544, -0.92, -0.588, 0.624, -0.106, 0.134, 1
2829599, -0.601, -1.322, -1.689, 0.584, 0.165, 0.045, 1
2829619, -0.13, -0.918, -1.987, 0.264, 0.328, 0.03, 1
2829639, 0.022, -0.353, -1.813, -0.001, 0.294, -0.001, 1
2829659, 0.062, 0.22, -1.623, -0.026, 0.209, 0.015, 1
2829679, 0.271, 0.724, -1.844, 0.226, 0.106, 0.066, 1
2829699, 0.424, 0.477, -2.434, 0.569, -0.073, 0.113, 1
2829719, 0.111, 0.151, -3.282, 0.775, -0.237, 0.091, 1
2829739, -0.031, -0.195, -4.027, 0.811, -0.203, 0.025, 1
2829759, 0.127, -0.149, -4.064, 0.745, -0.137, -0.012, 1
2829779, 0.195, 0.185, -3.841, 0.725, -0.199, -0.114, 1
2829799, 0.274, 0.076, -3.886, 0.877, -0.483, -0.15, 1
2829819, -0.48, -0.494, -3.85, 1.107, -0.727, -0.239, 1
2829839, -0.899, -1.817, -4.042, 1.249, -0.649, -0.393, 1
2829859, -1.16, -2.704, -3.83, 1.006, -0.457, -0.51, 1
2829879, -1.545, -2.898, -3.121, 0.409, -0.149, -0.474, 1
2829899, -1.96, -2.59, -2.087, -0.494, 0.257, -0.457, 1
2829919, -1.834, -2.279, -0.859, -1.313, 0.731, -0.341, 1
2829939, -1.74, -1.23, 0.979, -1.908, 1.14, -0.307, 1
2829959, -0.949, -0.324, 2.804, -1.879, 1.315, -0.221, 1
2829979, -0.358, -0.337, 3.518, -1.101, 0.859, -0.258, 1
2829999, -0.14, -0.78, 3.533, -0.844, 0.599, -0.299, 1
2830019, -0.185, -1.03, 3.438, -0.956, 0.52, -0.317, 1
2830039, -0.088, -1.044, 3.291, -1.146, 0.343, -0.304, 1
2830059, -0.076, -0.569, 3.261, -1.158, 0.061, -0.277, 1
2830079, -0.079, -0.338, 3.016, -1.042, -0.174, -0.242, 1
2830099, -0.209, -0.235, 2.761, -0.858, -0.167, -0.202, 1
2830119, -0.348, -0.187, 2.623, -0.699, 0.035, -0.174, 1
2830139, -0.018, -0.649, 2.266, -0.728, 0.101, -0.112, 1
2830159, 0.23, -1.035, 1.884, -0.963, -0.012, -0.07, 1
2830179, -0.082, -0.565, 1.93, -1.028, -0.056, -0.009, 1
2830199, -0.1, -0.471, 2.014, -0.882, 0.036, -0.032, 1
2830219, -0.22, -0.324, 2.122, -0.63, 0.133, -0.054, 1
2830239, -0.177, -0.237, 2.173, -0.412, 0.205, -0.092, 1
2830259, -0.091, -0.223, 2.031, -0.298, 0.146, -0.091, 1
2830279, -0.034, -0.248, 1.919, -0.268, 0.03, -0.074, 1
2830299, -0.574, -0.291, 1.311, -0.373, 0.099, -0.041, 1
2830319, -1.069, -0.084, 0.794, -0.419, 0.408, 0.07, 1
2830339, -0.634, 0.221, 0.918, -0.268, 0.435, 0.139, 1
2830359, -0.082, -0.058, 0.851, -0.056, 0.136, 0.135, 1
2830379, -0.175, -0.513, 0.411, -0.005, -0.048, 0.166, 0
2830399, -0.407, -0.558, 0.028, -0.186, 0.058, 0.191, 0
2830419, -0.63, -0.402, -0.279, -0.292, 0.299, 0.237, 0
2830439, -0.122, -0.348, -0.28, -0.133, 0.29, 0.207, 0
2830459, 0.082, -0.67, -0.571, -0.064, 0.193, 0.091, 0
2830479, -0.033, -0.736, -1.02, -0.269, 0.252, 0.098, 0
2830499, -0.078, -0.265, -0.67, -0.51, 0.326, 0.139, 0
2830519, 0.105, 0.137, -0.077, -0.491, 0.229, 0.141, 0
2830539, -0.147, 0.069, 0.099, -0.268, 0.064, 0.083, 0
2830559, -0.041, -0.188, 0.246, -0.083, 0.056, 0.056, 0
2830579, -0.048, -0.481, 0.282, -0.095, -0.019, 0.068, 0
2830599, -0.158, -0.387, 0.467, -0.213, -0.092, 0.093, 0
2830619, -0.276, -0.271, 0.766, -0.217, -0.072, 0.124, 0
2830639, -0.141, -0.41, 1.216, -0.13, -0.008, 0.14, 0
2830659, -0.1, -0.506, 1.709, -0.023, -0.032, 0.133, 0
2830679, -0.05, -0.871, 2.033, 0.078, -0.039, 0.133, 0
2830699, 0.157, -1.26, 2.52, 0.064, -0.063, 0.155, 0
2830719, -0.144, -1.09, 2.976, 0.012, -0.094, 0.142, 0
2830739, -0.15, -0.461, 3.664, 0.081, 0.028, 0.178, 0
2830759, -0.328, -0.162, 4.145, 0.273, 0.15, 0.186, 0
2830779, -0.506, -0.078, 4.375, 0.378, 0.233, 0.266, 0
2830799, -0.372, -0.656, 4.354, 0.26, 0.076, 0.414, 0
2830819, -0.654, -1.04, 4.035, 0.015, -0.164, 0.549, 0
2830839, -0.88, -0.612, 3.886, 0.054, -0.283, 0.588, 0
2830859, -0.882, -1.064, 3.481, 0.229, -0.097, 0.67, 0
2830879, -0.616, -2.278, 3.022, -0.001, 0.04, 0.765, 0
2830899, 0.282, -2.842, 2.9, -0.492, -0.23, 0.748, 0
2830919, -0.772, -3.668, 2.006, -0.884, -0.641, 0.417, 0
2830939, -1.058, -3.071, 1.608, -0.855, -0.444, -0.114, 0
2830959, -0.412, -3.335, 0.852, -0.4, 0.098, -0.511, 0
2830979, -0.615, -3.773, -0.897, -0.102, 0.108, -0.726, 0
2830999, -0.729, -2.132, -2.857, 0.043, -0.385, -0.607, 0
2831019, -2.584, -0.196, -4.768, 0.218, -0.423, -0.494, 0
2831039, -2.772, 0.79, -5.491, 0.396, -0.266, -0.009, 0
2831059, -2.044, 0.565, -5.541, 0.555, 0.041, 0.24, 0
2831079, 0.29, 0.077, -5.235, 0.695, -0.096, 0.296, 0
2831099, 1.034, 0.445, -5.525, 0.678, -0.427, 0.158, 0
2831119, 0.299, 1.253, -5.743, 0.643, -0.427, 0.05, 0
2831139, -0.443, 1.677, -5.535, 0.505, -0.182, 0.15, 0
2831159, 0.325, 1.96, -4.753, 0.33, -0.094, 0.205, 0
2831179, 0.368, 1.402, -4.17, 0.21, 0.049, 0.023, 0
2831199, 0.624, 1.224, -3.209, 0.08, 0.091, -0.103, 0
2831219, 0.283, 0.929, -2.63, -0.089, 0.051, -0.144, 0
2831239, 0.113, 0.956, -1.957, -0.171, 0.016, -0.113, 0
2831259, -0.19, 0.814, -1.476, -0.126, -0.014, -0.032, 0
2831279, -0.154, 0.46, -1.176, -0.076, 0.014, 0.081, 0
2831299, -0.054, -0.073, -1.134, -0.067, 0.037, 0.148, 0
2831319, 0.298, -0.316, -1.087, -0.125, 0.0, 0.1, 1
2831339, -0.218, 0.128, -0.706, -0.103, -0.068, 0.133, 1
2831359, 0.392, 0.417, -0.298, 0.182, -0.2, 0.146, 1
2831379, -0.719, -0.761, -0.661, 0.342, -0.108, 0.067, 1
2831399, -0.655, -0.002, -0.419, 0.513, 0.142, 0.048, 1
2831419, -0.823, -0.814, -1.058, 0.446, 0.329, 0.069, 1
2831439, -0.057, -0.944, -1.21, 0.051, 0.237, 0.115, 1
2831459, 0.27, -0.547, -1.259, -0.039, 0.136, 0.065, 1
2831479, 0.204, -0.323, -1.749, -0.028, -0.01, 0.004, 1
2831499, -0.005, 0.2, -2.308, -0.019, -0.113, 0.0, 1
2831519, 0.162, 0.523, -2.658, 0.056, -0.067, 0.076, 1
2831539, 0.62, 0.835, -2.969, 0.333, -0.164, 0.188, 1
2831559, 0.484, 0.995, -3.062, 0.764, -0.453, 0.232, 1
2831579, 0.272, 0.576, -3.597, 1.285, -0.756, 0.211, 1
2831599, -0.349, -0.113, -4.227, 1.607, -0.938, 0.125, 1
2831619, -1.353, -1.107, -5.014, 1.626, -0.885, 0.066, 1
2831639, -1.832, -1.387, -4.984, 1.384, -0.538, 0.11, 1
2831659, -1.446, -1.85, -4.166, 1.095, -0.065, 0.026, 1
2831679, -1.288, -2.084, -3.211, 0.597, 0.218, -0.108, 1
2831699, -0.848, -1.968, -2.271, 0.066, 0.335, -0.089, 1
2831719, -0.963, -1.444, -1.22, -0.373, 0.291, -0.193, 1
2831739, -1.032, -1.688, -0.62, -0.447, 0.336, -0.288, 1
2831759, -1.204, -1.894, 0.129, -0.543, 0.519, -0.324, 1
2831779, -0.782, -1.985, 0.853, -0.786, 0.816, -0.285, 1
2831799, -0.636, -1.655, 1.654, -1.144, 0.925, -0.286, 1
2831819, -0.635, -1.006, 2.501, -1.382, 0.853, -0.221, 1
2831839, -0.435, -0.517, 3.175, -1.379, 0.771, -0.18, 1
2831859, -0.099, -0.551, 3.431, -1.189, 0.664, -0.15, 1
2831879, 0.029, -0.644, 3.468, -1.037, 0.51, -0.125, 1
2831899, 0.09, -0.581, 3.441, -1.036, 0.36, -0.087, 1
2831919, -0.03, -0.361, 3.268, -1.086, 0.204, -0.053, 1
2831939, -0.212, -0.418, 2.755, -0.981, 0.22, -0.014, 1
2831959, -0.278, -0.406, 2.362, -0.828, 0.339, -0.015, 1
2831979, -0.236, -0.132, 2.529, -0.606, 0.476, -0.01, 1
2831999, 0.265, -0.428, 2.602, -0.535, 0.365, -0.022, 1
2832019, 0.064, -0.532, 2.15, -0.739, 0.228, 0.031, 1
2832039, -0.435, -0.306, 1.865, -0.943, 0.238, 0.146, 1
2832059, -0.306, -0.125, 1.957, -0.769, 0.187, 0.169, 1
2832079, -0.214, 0.076, 2.039, -0.304, 0.085, 0.084, 1
2832099, -0.451, -0.084, 1.701, 0.023, 0.16, 0.023, 1
2832119, -0.392, -0.489, 1.319, -0.012, 0.218, 0.071, 1
2832139, -0.206, -0.578, 1.126, -0.251, 0.067, 0.152, 1
2832159, -0.405, -0.505, 0.727, -0.29, 0.039, 0.214, 1
2832179, -0.208, -0.335, 0.663, -0.089, -0.069, 0.168, 0
2832199, -0.418, -0.386, 0.481, 0.115, -0.061, 0.104, 0
2832219, -0.085, -0.629, 0.095, 0.131, -0.075, 0.093, 0
2832239, -0.19, -0.748, -0.297, -0.032, -0.085, 0.105, 0
2832259, -0.476, -0.331, -0.435, -0.121, 0.086, 0.119, 0
2832279, -0.382, -0.161, -0.344, -0.161, 0.232, 0.129, 0
2832299, -0.099, -0.146, -0.281, -0.178, 0.2, 0.122, 0
2832319, -0.051, -0.1, -0.217, -0.16, 0.116, 0.132, 0
2832339, -0.069, -0.222, -0.249, -0.169, 0.081, 0.119, 0
2832359, -0.061, -0.14, -0.146, -0.185, 0.116, 0.105, 0
2832379, -0.032, -0.09, 0.106, -0.181, 0.127, 0.1, 0
2832399, -0.01, -0.135, 0.255, -0.221, 0.069, 0.119, 0
2832419, -0.12, 0.0, 0.802, -0.135, 0.038, 0.113, 0
2832439, -0.076, -0.249, 1.186, -0.061, 0.05, 0.107, 0
2832459, -0.125, -0.422, 1.465, -0.031, 0.015, 0.1, 0
2832479, -0.224, -0.446, 1.782, -0.067, 0.021, 0.11, 0
2832499, -0.395, -0.455, 2.348, -0.129, 0.027, 0.144, 0
2832519, -0.459, -0.22, 3.278, -0.091, 0.058, 0.193, 0
2832539, -0.461, -0.425, 4.043, 0.057, 0.101, 0.246, 0
2832559, -0.375, -0.724, 4.577, -0.001, 0.17, 0.33, 0
2832579, 0.468, -0.257, 5.47, -0.103, -0.101, 0.406, 0
2832599, -0.579, 0.257, 5.493, 0.044, -0.694, 0.365, 0
2832619, -1.47, 0.7, 5.117, 0.355, -0.83, 0.369, 0
2832639, -1.711, 0.253, 4.365, 0.668, -0.784, 0.45, 0
2832659, -1.398, -1.481, 3.151, 0.682, -0.883, 0.588, 0
2832679, -1.245, -2.383, 2.005, 0.222, -1.08, 0.621, 0
2832699, -1.73, -2.218, 1.048, -0.224, -1.145, 0.559, 0
2832719, -1.912, -1.958, -0.047, -0.31, -0.911, 0.514, 0
2832739, -1.575, -2.024, -1.11, -0.153, -0.441, 0.517, 0
2832759, -0.99, -2.792, -2.267, -0.14, -0.026, 0.547, 0
2832779, -0.239, -2.592, -2.443, -0.376, 0.202, 0.492, 0
2832799, -0.171, -2.032, -2.056, -0.291, 0.155, 0.383, 0
2832819, -0.476, -2.54, -2.031, 0.015, 0.309, 0.31, 0
2832839, -0.188, -2.921, -2.134, 0.062, 0.557, 0.232, 0
2832859, -1.129, -2.062, -2.426, 0.07, 0.708, 0.036, 0
2832879, -1.078, -1.291, -2.77, 0.44, 0.998, -0.014, 0
2832899, 0.332, -0.601, -3.458, 0.76, 0.272, 0.527, 0
2832919, 0.157, -0.538, -4.551, 0.557, -0.127, 0.459, 0
2832939, 0.952, 0.639, -4.296, 0.518, -0.384, 0.302, 0
2832959, 0.591, 0.765, -4.623, 0.507, -0.324, 0.1, 0
2832979, 0.687, 1.12, -4.789, 0.31, -0.332, -0.1, 0
2832999, 0.532, 1.354, -4.773, 0.135, -0.24, -0.167, 0
2833019, 0.312, 1.738, -4.153, -0.036, -0.131, -0.161, 0
2833039, -0.129, 1.738, -3.507, -0.059, 0.096, -0.083, 0
2833059, 0.119, 1.511, -2.783, -0.011, 0.23, 0.012, 0
2833079, 0.436, 0.416, -2.642, -0.197, 0.216, -0.015, 0
2833099, 0.338, 0.388, -2.024, -0.266, 0.191, -0.037, 0
2833119, 0.051, 0.027, -1.537, -0.321, 0.233, -0.07, 0
2833139, -0.195, -0.067, -1.012, -0.363, 0.235, -0.067, 1
2833159, -0.279, -0.357, -0.689, -0.335, 0.211, -0.005, 1
2833179, 0.061, -0.319, -0.256, -0.27, 0.094, -0.031, 1
2833199, -0.117, 0.17, -0.073, 0.092, 0.027, -0.085, 1
2833219, -0.405, -0.211, -0.503, 0.368, 0.028, -0.075, 1
2833239, -0.383, -1.172, -1.448, 0.183, 0.075, -0.065, 1
2833259, -0.237, -0.858, -1.598, -0.072, 0.167, -0.009, 1
2833279, 0.045, -0.374, -1.615, -0.115, 0.271, -0.012, 1
2833299, 0.218, -0.266, -1.87, -0.11, 0.274, -0.042, 1
2833319, 0.078, 0.095, -1.78, -0.064, 0.239, -0.002, 1
2833339, 0.561, 0.347, -1.779, 0.104, 0.111, 0.021, 1
2833359, 0.717, 0.217, -2.357, 0.215, -0.139, 0.048, 1
2833379, 0.858, 0.575, -2.92, 0.402, -0.409, 0.183, 1
2833399, 0.282, 0.578, -3.968, 0.863, -0.6, 0.197, 1
2833419, -0.06, -0.538, -4.223, 1.039, -0.646, 0.125, 1
2833439, -0.482, -0.532, -3.84, 1.178, -0.542, -0.018, 1
2833459, -0.629, -1.49, -3.616, 1.258, -0.573, -0.097, 1
2833479, -0.751, -2.29, -3.285, 1.108, -0.738, -0.131, 1
2833499, -1.514, -2.432, -2.903, 0.855, -0.805, -0.232, 1
2833519, -2.275, -2.118, -2.276, 0.436, -0.45, -0.275, 1
2833539, -2.039, -2.026, -1.622, -0.056, 0.246, -0.348, 1
2833559, -1.186, -2.736, -1.147, -0.53, 0.769, -0.431, 1
2833579, -1.371, -1.792, 0.205, -1.001, 0.84, -0.508, 1
2833599, -1.437, -0.796, 1.441, -1.2, 0.921, -0.423, 1
2833619, -0.867, -0.846, 2.13, -1.189, 0.955, -0.401, 1
2833639, -0.814, -0.729, 2.687, -1.119, 0.857, -0.445, 1
2833659, -0.691, -0.513, 3.212, -1.034, 0.83, -0.42, 1
2833679, -0.566, -0.538, 3.478, -0.982, 0.801, -0.339, 1
2833699, -0.173, -0.24, 3.505, -0.984, 0.623, -0.244, 1
2833719, -0.338, -0.149, 3.079, -1.067, 0.407, -0.176, 1
2833739, -0.54, -0.099, 2.666, -1.154, 0.448, -0.048, 1
2833759, -0.512, -0.2, 2.521, -1.027, 0.521, 0.017, 1
2833779, 0.087, -0.574, 2.421, -0.736, 0.66, 0.028, 1
2833799, 0.221, -0.593, 2.721, -0.665, 0.54, -0.004, 1
2833819, -0.227, -0.531, 2.695, -0.654, 0.361, -0.005, 1
2833839, -0.234, -0.53, 2.492, -0.604, 0.319, -0.017, 1
2833859, -0.366, -0.553, 2.284, -0.503, 0.229, -0.026, 1
2833879, -0.462, -0.475, 1.999, -0.398, 0.179, -0.038, 1
2833899, -0.327, -0.409, 1.91, -0.343, 0.124, -0.026, 1
2833919, -0.443, -0.296, 1.744, -0.251, 0.0, 0.0, 1
2833939, -0.69, -0.698, 1.144, -0.271, 0.003, 0.011, 1
2833959, -0.767, -0.427, 0.899, -0.268, 0.084, 0.108, 0
2833979, -0.354, -0.348, 0.728, -0.257, -0.026, 0.155, 0
2833999, -0.371, -0.737, 0.127, -0.345, -0.08, 0.186, 0
2834019, -0.315, -0.961, -0.332, -0.507, -0.109, 0.256, 0
2834039, -0.395, -0.642, -0.46, -0.531, -0.083, 0.246, 0
2834059, -0.415, -0.392, -0.499, -0.359, 0.08, 0.194, 0
2834079, -0.077, -0.348, -0.416, -0.191, 0.188, 0.136, 0
2834099, 0.097, -0.395, -0.336, -0.161, 0.213, 0.099, 0
2834119, 0.239, -0.354, -0.117, -0.201, 0.121, 0.087, 0
2834139, 0.096, -0.064, 0.123, -0.172, -0.048, 0.071, 0
2834159, -0.368, -0.006, 0.049, -0.115, -0.026, 0.074, 0
2834179, -0.28, 0.024, 0.363, -0.001, 0.001, 0.072, 0
2834199, -0.274, -0.242, 0.518, 0.032, 0.0, 0.09, 0
2834219, -0.201, -0.461, 0.683, -0.053, -0.035, 0.139, 0
2834239, -0.145, -0.333, 1.006, -0.095, -0.105, 0.167, 0
2834259, -0.185, -0.299, 1.34, -0.03, -0.166, 0.17, 0
2834279, -0.219, -0.406, 1.642, 0.094, -0.149, 0.161, 0
2834299, -0.291, -0.515, 2.129, 0.217, -0.103, 0.161, 0
2834319, -0.24, -0.656, 2.751, 0.252, -0.098, 0.196, 0
2834339, -0.217, -0.717, 3.504, 0.195, -0.194, 0.224, 0
2834359, -0.127, -0.407, 4.393, 0.367, -0.332, 0.287, 0
2834379, -1.412, 0.462, 4.362, 0.642, -0.269, 0.433, 0
2834399, -1.171, -0.578, 3.869, 0.684, -0.09, 0.632, 0
2834419, -0.508, -1.323, 3.257, 0.35, 0.131, 0.847, 0
2834439, 0.411, -1.313, 2.885, -0.182, 0.075, 0.953, 0
2834459, -0.086, -0.749, 2.554, -0.4, -0.339, 0.946, 0
2834479, -1.008, -1.081, 2.087, -0.408, -0.337, 0.891, 0
2834499, -0.493, -1.92, 1.365, -0.315, -0.285, 0.886, 0
2834519, -0.855, -2.538, 0.02, -0.248, -0.328, 0.742, 0
2834539, -1.323, -3.122, -0.925, -0.391, -0.077, 0.669, 0
2834559, -0.242, -2.396, -1.128, -0.418, -0.089, 0.473, 0
2834579, -1.613, -2.234, -1.844, -0.486, -0.319, 0.219, 0
2834599, -2.111, -1.721, -2.201, -0.459, -0.228, 0.075, 0
2834619, -1.389, -0.894, -1.987, -0.281, -0.124, 0.041, 0
2834639, -1.262, -0.965, -2.695, -0.032, -0.162, 0.003, 0
2834659, -1.161, -0.429, -3.576, 0.246, -0.458, 0.061, 0
2834679, -2.012, -0.327, -4.84, 0.338, -0.59, 0.141, 0
2834699, -1.046, 0.251, -5.015, 0.23, -0.364, 0.31, 0
2834719, 0.463, 0.276, -4.895, 0.301, -0.337, 0.338, 0
2834739, 1.065, 0.132, -5.388, 0.384, -0.321, 0.139, 0
2834759, 1.168, 0.867, -5.501, 0.301, -0.319, -0.025, 0
2834779, 0.347, 0.983, -5.075, 0.072, -0.185, -0.071, 0
2834799, 0.514, 0.781, -3.884, -0.151, 0.172, -0.094, 0
2834819, 0.416, 1.005, -2.684, -0.381, 0.276, -0.174, 0
2834839, 0.032, 0.933, -1.878, -0.41, 0.237, -0.23, 0
2834859, -0.051, 0.926, -1.384, -0.339, 0.128, -0.125, 0
2834879, -0.37, 0.348, -1.36, -0.356, 0.153, -0.071, 1
2834899, -0.313, 0.277, -1.122, -0.334, 0.229, 0.017, 1
2834919, -0.303, 0.075, -0.834, -0.24, 0.298, 0.131, 1
2834939, -0.057, -0.158, -0.64, -0.057, 0.355, 0.175, 1
2834959, 0.353, -0.225, -0.537, 0.108, 0.361, 0.048, 1
2834979, 0.09, -0.381, -0.679, 0.242, 0.345, -0.052, 1
2834999, -0.114, -0.224, -0.707, 0.357, 0.31, -0.041, 1
2835019, 0.248, -0.214, -0.798, 0.356, 0.089, 0.036, 1
2835039, -0.076, -0.075, -0.833, 0.39, -0.016, 0.069, 1
2835059, -0.102, -0.08, -1.007, 0.461, 0.021, 0.105, 1
2835079, 0.086, -0.25, -1.429, 0.499, 0.057, 0.065, 1
2835099, -0.003, -0.153, -2.07, 0.492, 0.1, -0.002, 1
2835119, -0.037, 0.257, -2.508, 0.552, 0.167, 0.018, 1
2835139, 0.198, 0.342, -2.707, 0.64, 0.14, 0.047, 1
2835159, 0.27, 0.088, -2.943, 0.588, 0.061, 0.029, 1
2835179, 0.261, 0.482, -3.068, 0.638, -0.008, -0.029, 1
2835199, 0.286, 0.811, -3.414, 0.921, -0.132, -0.07, 1
2835219, 0.433, 0.387, -3.906, 1.279, -0.371, -0.078, 1
2835239, 0.388, -0.799, -4.273, 1.362, -0.646, -0.21, 1
2835259, 0.132, -1.547, -4.003, 1.167, -0.797, -0.406, 1
2835279, -0.354, -1.887, -3.611, 0.817, -0.628, -0.549, 1
2835299, -1.1, -1.43, -3.198, 0.369, -0.219, -0.613, 1
2835319, -1.664, -1.205, -2.896, -0.026, 0.27, -0.532, 1
2835339, -1.342, -1.678, -2.203, -0.734, 0.55, -0.425, 1
2835359, -0.544, -1.295, 0.358, -1.304, 0.643, -0.436, 1
2835379, -0.594, -0.754, 1.419, -1.642, 0.634, -0.412, 1
2835399, -0.45, -0.724, 2.385, -1.74, 0.527, -0.288, 1
2835419, 0.045, -0.474, 3.534, -1.496, 0.4, -0.224, 1
2835439, 0.317, -0.944, 3.858, -1.259, 0.103, -0.282, 1
2835459, -0.146, -0.403, 3.899, -1.111, -0.214, -0.277, 1
2835479, -0.43, -0.028, 4.121, -1.148, -0.26, -0.155, 1
2835499, -0.222, -0.205, 4.016, -1.105, -0.109, -0.066, 1
2835519, -0.279, -0.314, 3.837, -0.962, -0.084, -0.024, 1
2835539, -0.149, -0.245, 3.695, -0.771, -0.059, 0.048, 1
2835559, 0.025, -0.273, 3.506, -0.578, -0.021, 0.07, 1
2835579, -0.017, -0.412, 3.162, -0.387, 0.083, 0.033, 1
2835599, 0.022, -0.414, 2.831, -0.252, 0.208, 0.045, 1
2835619, -0.263, -0.506, 2.376, -0.096, 0.199, 0.043, 1
2835639, -0.171, -0.851, 1.794, -0.089, 0.215, 0.093, 1
2835659, -0.083, -0.872, 1.343, -0.251, 0.155, 0.157, 1
2835679, -0.154, -0.482, 1.029, -0.363, 0.036, 0.133, 1
2835699, -0.155, -0.272, 0.842, -0.285, -0.026, 0.101, 1
2835719, -0.153, -0.171, 0.653, -0.053, -0.024, 0.028, 1
2835739, -0.303, -0.342, 0.141, 0.096, 0.054, 0.05, 1
2835759, -0.147, -0.243, -0.149, 0.073, 0.24, 0.04, 1
2835779, -0.197, -0.295, -0.326, 0.008, 0.317, 0.04, 1
2835799, 0.057, -0.087, -0.233, -0.058, 0.32, 0.056, 1
2835819, 0.389, -0.375, -0.224, 0.002, 0.177, 0.063, 1
2835839, 0.149, -0.381, -0.359, 0.044, -0.017, 0.013, 1
2835859, -0.01, -0.453, -0.474, 0.001, 0.014, 0.003, 0
2835879, -0.118, -0.262, -0.433, -0.005, 0.068, -0.004, 0
2835899, 0.035, -0.069, -0.097, 0.127, -0.046, -0.08, 0
2835919, -0.171, -0.017, -0.05, 0.224, -0.039, -0.12, 0
2835939, -0.317, -0.191, -0.204, 0.059, 0.012, -0.02, 0
2835959, -0.591, -0.484, -0.569, -0.398, 0.185, 0.164, 0
2835979, -0.426, 0.147, -0.332, -0.565, 0.277, 0.239, 0
2835999, -0.092, 0.329, -0.001, -0.348, 0.107, 0.124, 0
2836019, -0.106, -0.001, -0.115, -0.191, 0.185, 0.015, 0
2836039, 0.005, 0.081, 0.297, -0.02, 0.18, -0.003, 0
2836059, 0.003, -0.1, 0.418, -0.009, 0.114, 0.01, 0
2836079, -0.03, -0.157, 0.665, -0.117, 0.002, 0.058, 0
2836099, -0.06, -0.172, 0.858, -0.216, -0.16, 0.093, 0
2836119, -0.317, 0.151, 1.184, -0.122, -0.212, 0.1, 0
2836139, -0.357, -0.031, 1.558, 0.1, -0.155, 0.076, 0
2836159, -0.253, -0.494, 1.817, 0.205, -0.058, 0.082, 0
2836179, -0.06, -0.786, 2.462, 0.206, -0.069, 0.092, 0
2836199, -0.075, -0.633, 3.304, 0.246, -0.102, 0.132, 0
2836219, -0.179, -0.412, 4.186, 0.352, -0.111, 0.161, 0
2836239, -0.413, -0.218, 4.973, 0.495, -0.047, 0.217, 0
2836259, -0.501, -0.269, 5.454, 0.532, 0.046, 0.329, 0
2836279, -0.383, -0.503, 5.437, 0.313, 0.086, 0.483, 0
2836299, 0.053, -0.057, 5.525, 0.166, -0.381, 0.591, 0
2836319, -0.48, -0.243, 4.929, 0.108, -0.872, 0.62, 0
2836339, -1.89, -1.063, 2.51, -0.16, -0.314, 0.769, 0
2836359, -0.698, -1.388, 2.106, -0.302, -0.185, 0.854, 0
2836379, -0.736, -3.211, 0.471, -0.437, -0.756, 0.572, 0
2836399, -2.454, -2.986, -1.216, -0.839, -0.858, 0.413, 0
2836419, -3.289, -1.879, -2.944, -0.998, -0.079, 0.423, 0
2836439, -0.632, -1.244, -3.291, -0.356, 0.474, 0.513, 0
2836459, 0.206, -3.137, -4.455, 0.29, -0.031, 0.351, 0
2836479, 0.218, -4.08, -5.826, -0.103, -0.304, -0.003, 0
2836499, -0.139, -1.172, -5.042, -0.548, -0.312, -0.422, 0
2836519, -0.89, 0.224, -4.468, -0.109, -0.241, -0.439, 0
2836539, -0.792, 0.242, -4.882, 0.3, -0.034, -0.221, 0
2836559, -0.155, 0.757, -5.077, 0.321, -0.007, -0.011, 0
2836579, 0.214, 0.675, -4.801, 0.321, -0.178, 0.089, 0
2836599, 0.126, 0.367, -4.62, 0.248, -0.044, -0.007, 0
2836619, 0.432, 0.765, -3.891, 0.021, 0.194, -0.127, 0
2836639, 0.458, 1.136, -3.238, -0.1, 0.16, -0.2, 0
2836659, -0.228, 1.435, -2.741, -0.139, 0.041, -0.192, 0
2836679, -0.453, 0.747, -2.286, 0.0, 0.119, -0.095, 0
2836699, -0.629, -0.178, -1.919, -0.088, 0.227, -0.027, 0
2836719, -0.211, -0.09, -1.244, -0.317, 0.282, -0.089, 0
2836739, -0.074, 0.067, -0.69, -0.374, 0.16, -0.182, 0
2836759, -0.226, 0.239, -0.382, -0.248, 0.034, -0.16, 0
2836779, -0.484, -0.253, -0.416, -0.067, -0.045, -0.028, 0
2836799, -0.588, -0.313, -0.587, -0.072, -0.014, 0.125, 1
2836819, -0.467, 0.846, -0.489, 0.06, 0.246, 0.194, 1
2836839, -0.127, -1.188, -0.598, 0.183, 0.228, 0.111, 1
2836859, 0.113, -0.255, -0.431, 0.349, 0.066, -0.024, 1
2836879, -0.375, -0.419, -0.607, 0.437, 0.008, -0.01, 1
2836899, -0.679, -0.616, -1.19, 0.342, 0.132, 0.088, 1
2836919, -0.191, -0.374, -1.373, 0.257, 0.205, 0.144, 1
2836939, 0.349, -0.373, -1.5, 0.271, 0.077, 0.113, 1
2836959, 0.45, -0.187, -1.853, 0.371, -0.043, 0.042, 1
2836979, 0.209, -0.224, -2.384, 0.339, -0.04, 0.0, 1
2836999, -0.354, -0.149, -2.732, 0.125, 0.113, 0.036, 1
2837019, -0.219, 0.442, -2.989, 0.114, 0.258, 0.143, 1
2837039, 0.058, 0.238, -3.274, 0.238, 0.268, 0.302, 1
2837059, 0.329, -0.214, -3.515, 0.289, 0.161, 0.331, 1
2837079, 0.252, -0.21, -3.346, 0.349, 0.1, 0.188, 1
2837099, -0.027, -0.153, -3.44, 0.395, 0.004, 0.148, 1
2837119, -0.361, -0.192, -3.349, 0.488, -0.164, 0.228, 1
2837139, -0.913, -0.463, -2.789, 0.469, -0.136, 0.269, 1
2837159, -0.772, -0.838, -2.359, 0.345, -0.134, 0.292, 1
2837179, -0.089, -1.205, -2.019, 0.135, -0.403, 0.366, 1
2837199, -0.185, -0.819, -0.936, 0.097, -0.75, 0.277, 1
2837219, -0.439, -1.038, -0.711, 0.131, -0.717, -0.008, 1
2837239, -1.326, -1.745, -1.097, -0.213, -0.095, -0.107, 1
2837259, -1.197, -1.808, -0.577, -0.86, 0.744, -0.172, 1
2837279, -0.74, -1.011, 0.788, -1.318, 1.147, -0.125, 1
2837299, 0.26, -0.374, 2.274, -1.208, 0.607, -0.215, 1
2837319, 0.091, -0.109, 2.725, -0.9, 0.154, -0.295, 1
2837339, -0.322, -0.222, 2.419, -0.751, 0.239, -0.307, 1
2837359, -0.058, -0.015, 2.695, -0.641, 0.554, -0.28, 1
2837379, 0.785, 0.069, 3.391, -0.296, 0.589, -0.339, 1
2837399, 1.349, -0.637, 3.191, 0.001, 0.127, -0.441, 1
2837419, 0.929, -0.604, 2.407, -0.072, -0.348, -0.511, 1
2837439, 0.129, -0.085, 1.815, -0.276, -0.45, -0.458, 1
2837459, -0.1, 0.29, 1.75, -0.371, -0.25, -0.359, 1
2837479, -0.101, 0.359, 1.927, -0.282, -0.18, -0.333, 1
2837499, -0.236, 0.032, 1.619, -0.13, -0.106, -0.337, 1
2837519, -0.064, -0.267, 1.563, -0.141, 0.047, -0.301, 1
2837539, 0.001, -0.276, 1.416, -0.242, 0.002, -0.226, 1
2837559, -0.475, -0.37, 0.923, -0.442, 0.043, -0.107, 1
2837579, -0.235, -0.079, 1.229, -0.609, 0.156, 0.053, 1
2837599, -0.133, -0.129, 1.268, -0.548, 0.117, 0.096, 1
2837619, -0.075, -0.193, 1.173, -0.397, 0.13, 0.08, 1
2837639, -0.078, -0.178, 1.111, -0.227, 0.183, 0.049, 1
2837659, -0.103, -0.241, 0.947, -0.135, 0.303, 0.051, 1
2837679, 0.08, -0.547, 0.751, -0.208, 0.387, 0.134, 1
2837699, 0.046, -0.34, 0.716, -0.336, 0.274, 0.208, 1
2837719, -0.111, -0.154, 0.543, -0.32, 0.087, 0.251, 0
2837739, -0.329, -0.202, 0.088, -0.312, 0.167, 0.28, 0
2837759, -0.084, -0.338, 0.028, -0.323, 0.32, 0.341, 0
2837779, 0.272, -0.352, -0.026, -0.249, 0.258, 0.279, 0
2837799, 0.141, -0.375, -0.318, -0.188, 0.105, 0.196, 0
2837819, 0.021, -0.251, -0.49, -0.148, 0.126, 0.125, 0
2837839, 0.113, -0.21, -0.47, -0.135, 0.172, 0.087, 0
2837859, 0.244, -0.115, -0.298, -0.108, 0.089, 0.031, 0
2837879, -0.076, -0.125, -0.439, -0.14, 0.079, 0.02, 0
2837899, -0.265, -0.073, -0.487, -0.21, 0.163, 0.051, 0
2837919, -0.209, 0.115, -0.231, -0.186, 0.182, 0.062, 0
2837939, -0.087, 0.155, 0.078, -0.084, 0.138, 0.051, 0
2837959, -0.022, -0.088, 0.19, -0.041, 0.087, 0.031, 0
2837979, -0.091, -0.164, 0.315, -0.072, 0.088, 0.042, 0
2837999, -0.129, -0.067, 0.625, -0.049, 0.099, 0.058, 0
2838019, -0.24, -0.125, 0.861, -0.058, 0.145, 0.097, 0
2838039, -0.117, -0.194, 1.329, -0.076, 0.131, 0.147, 0
2838059, -0.177, -0.289, 1.74, -0.066, 0.11, 0.205, 0
2838079, 0.005, -0.574, 2.309, -0.079, 0.043, 0.255, 0
2838099, 0.046, -0.714, 2.968, -0.029, -0.006, 0.274, 0
2838119, 0.083, -1.01, 3.391, -0.037, 0.059, 0.296, 0
2838139, 0.017, -0.766, 3.773, -0.1, 0.226, 0.328, 0
2838159, -0.168, -0.414, 4.159, -0.144, 0.365, 0.369, 0
2838179, -0.116, 0.206, 4.764, -0.114, 0.186, 0.473, 0
2838199, -0.904, 0.153, 4.619, -0.337, 0.247, 0.686, 0
2838219, -1.284, -0.807, 4.08, -1.119, 0.662, 1.04, 0
2838239, -1.308, -0.829, 4.229, -1.732, 0.861, 1.288, 0
2838259, -0.645, -0.737, 4.535, -1.694, 0.442, 1.119, 0
2838279, -0.708, -0.726, 4.371, -0.783, -0.464, 0.687, 0
2838299, -1.589, -1.803, 1.0, -0.285, -0.76, 0.501, 0
2838319, -1.545, -2.356, -1.068, -0.08, -0.655, 0.417, 0
2838339, -0.374, -1.988, -1.671, -0.145, -0.734, 0.144, 0
2838359, -1.188, -1.062, -2.26, 0.034, -1.186, -0.141, 0
2838379, -1.41, -1.053, -3.427, 0.458, -1.027, -0.048, 0
2838399, -1.273, -1.347, -4.134, 0.683, -0.608, 0.063, 0
2838419, -0.664, -1.21, -4.428, 0.7, -0.22, 0.038, 0
2838439, 0.039, -0.645, -4.22, 0.904, -0.2, 0.025, 0
2838459, 0.323, -1.087, -4.8, 1.01, -0.315, 0.044, 0
2838479, 0.407, -0.434, -5.473, 0.695, -0.408, -0.039, 0
2838499, 0.612, 1.482, -5.084, 0.531, -0.521, -0.001, 0
2838519, 0.405, 0.863, -5.44, 0.74, -0.444, 0.108, 0
2838539, 1.078, 0.918, -5.029, 0.538, -0.315, 0.006, 0
2838559, 0.13, 1.241, -4.402, 0.301, -0.274, -0.215, 0
2838579, -0.065, 1.674, -3.8, 0.104, -0.023, -0.261, 0
2838599, -0.173, 1.978, -3.104, -0.059, 0.026, -0.18, 0
2838619, -0.012, 1.479, -2.585, -0.046, 0.059, -0.085, 0
2838639, 0.034, 1.035, -2.205, -0.063, 0.017, -0.051, 0
2838659, -0.104, 0.647, -1.728, -0.1, 0.033, -0.037, 0
2838679, 0.059, 0.12, -1.354, -0.125, 0.089, -0.031, 1
2838699, -0.27, -0.016, -1.062, -0.249, 0.084, -0.044, 1
2838719, 0.346, 1.358, -0.109, -0.216, 0.064, -0.033, 1
2838739, -0.346, -0.523, -0.257, -0.069, 0.05, -0.07, 1
2838759, -0.275, -0.335, -0.124, 0.196, 0.069, -0.085, 1
2838779, -0.26, -0.743, -0.252, 0.343, 0.095, -0.045, 1
2838799, -0.219, -0.623, -0.507, 0.434, 0.141, -0.032, 1
2838819, 0.026, -0.581, -0.961, 0.423, 0.125, 0.024, 1
2838839, -0.204, -0.278, -1.497, 0.387, 0.16, 0.078, 1
2838859, -0.129, 0.022, -1.899, 0.367, 0.229, 0.178, 1
2838879, -0.171, -0.036, -1.95, 0.334, 0.288, 0.241, 1
2838899, 0.037, -0.153, -1.965, 0.282, 0.268, 0.175, 1
2838919, 0.117, -0.037, -2.326, 0.171, 0.177, 0.067, 1
2838939, -0.286, 0.274, -2.797, 0.103, 0.252, 0.124, 1
2838959, -0.317, 0.265, -3.346, 0.125, 0.414, 0.235, 1
2838979, 0.169, 0.065, -3.242, 0.15, 0.405, 0.247, 1
2838999, 0.626, 0.192, -3.05, 0.322, 0.175, 0.171, 1
2839019, 0.386, 0.351, -2.914, 0.685, -0.078, 0.067, 1
2839039, -0.042, -0.101, -3.026, 0.945, -0.215, 0.049, 1
2839059, -0.408, -0.823, -3.255, 1.124, -0.222, 0.045, 1
2839079, -0.37, -1.705, -3.19, 1.069, -0.175, 0.02, 1
2839099, -0.444, -2.347, -2.647, 0.707, -0.046, -0.174, 1
2839119, -0.317, -2.589, -2.013, 0.295, 0.119, -0.425, 1
2839139, -0.661, -2.283, -1.262, -0.241, 0.316, -0.52, 1
2839159, -1.398, -1.599, -0.494, -0.637, 0.637, -0.424, 1
2839179, -1.072, -1.707, 0.247, -1.025, 0.811, -0.363, 1
2839199, -0.59, -2.209, 1.058, -1.413, 0.692, -0.407, 1
2839219, -0.62, -1.531, 1.836, -1.535, 0.635, -0.472, 1
2839239, -0.848, -0.984, 2.315, -1.5, 0.673, -0.511, 1
2839259, -0.748, -0.985, 2.984, -1.32, 0.649, -0.501, 1
2839279, -0.281, -1.252, 3.165, -1.256, 0.517, -0.414, 1
2839299, -0.485, -0.35, 3.544, -1.321, 0.36, -0.456, 1
2839319, -0.522, 0.042, 3.424, -1.082, 0.506, -0.412, 1
2839339, -0.206, -0.361, 3.103, -0.778, 0.697, -0.389, 1
2839359, -0.137, -0.224, 2.915, -0.742, 0.607, -0.353, 1
2839379, -0.224, 0.02, 2.857, -0.799, 0.34, -0.32, 1
2839399, -0.459, 0.617, 2.784, -0.771, -0.025, -0.258, 1
2839419, -0.571, 0.656, 2.402, -0.485, -0.235, -0.235, 1
2839439, -0.592, 0.289, 1.643, -0.188, -0.261, -0.255, 1
2839459, -0.9, 0.109, 0.932, -0.078, -0.083, -0.204, 1
2839479, -0.464, 0.141, 0.77, -0.119, 0.221, -0.127, 1
2839499, 0.016, 0.027, 0.846, -0.138, 0.152, -0.036, 1
2839519, -0.22, 0.111, 0.873, -0.164, -0.22, 0.029, 1
2839539, -0.797, 0.09, 0.607, -0.155, -0.332, 0.102, 1
2839559, -1.075, -0.072, 0.303, -0.191, 0.017, 0.185, 1
2839579, -0.108, -0.472, 0.33, -0.235, 0.297, 0.319, 0
2839599, 0.334, -0.516, 0.351, -0.364, 0.115, 0.315, 0
2839619, 0.174, -0.717, 0.207, -0.349, -0.191, 0.311, 0
2839639, -0.155, -0.508, -0.013, -0.273, -0.239, 0.233, 0
2839659, -0.156, -0.374, -0.104, -0.117, -0.074, 0.161, 0
2839679, -0.277, -0.625, -0.431, -0.033, 0.059, 0.097, 0
2839699, -0.07, -0.65, -0.416, -0.172, 0.167, 0.138, 0
2839719, 0.017, -0.27, -0.173, -0.339, 0.094, 0.165, 0
2839739, -0.146, 0.045, 0.041, -0.182, 0.042, 0.151, 0
2839759, -0.036, -0.059, 0.104, -0.03, 0.051, 0.094, 0
2839779, 0.103, -0.192, 0.05, -0.03, 0.004, 0.086, 0
2839799, -0.033, -0.281, -0.092, -0.114, -0.05, 0.108, 0
2839819, -0.148, -0.119, -0.033, -0.148, -0.042, 0.127, 0
2839839, -0.14, -0.051, 0.127, -0.095, -0.034, 0.123, 0
2839859, -0.035, -0.08, 0.355, 0.008, -0.024, 0.105, 0
2839879, 0.044, -0.333, 0.541, 0.036, -0.017, 0.098, 0
2839899, -0.034, -0.491, 0.7, -0.028, -0.005, 0.135, 0
2839919, 0.037, -0.452, 0.94, -0.08, -0.072, 0.167, 0
2839939, -0.024, -0.35, 1.358, -0.073, -0.173, 0.163, 0
2839959, -0.126, -0.289, 1.816, 0.016, -0.182, 0.144, 0
2839979, -0.301, -0.377, 2.307, 0.161, -0.077, 0.124, 0
2839999, -0.156, -0.438, 2.84, 0.268, -0.029, 0.134, 0
2840019, -0.111, -0.589, 3.398, 0.262, -0.098, 0.166, 0
2840039, 0.005, -0.646, 3.869, 0.135, -0.327, 0.218, 0
2840059, -0.515, -0.118, 4.107, 0.056, -0.485, 0.309, 0
2840079, -0.974, 0.325, 4.239, 0.099, -0.392, 0.405, 0
2840099, -1.005, -0.028, 4.062, 0.007, -0.235, 0.538, 0
2840119, -0.36, -0.799, 3.749, -0.386, -0.5, 0.635, 0
2840139, -0.124, -1.21, 3.472, -0.861, -1.033, 0.569, 0
2840159, -1.53, -1.259, 2.604, -1.136, -0.846, 0.455, 0
2840179, -2.38, -0.94, 2.073, -0.899, -0.106, 0.504, 0
2840199, -1.371, -0.771, 1.993, -0.211, 0.131, 0.48, 0
2840219, -0.489, -1.91, 1.063, 0.335, -0.211, 0.348, 0
2840239, -2.065, -3.427, -2.098, -0.103, -0.051, 0.333, 0
2840259, -1.598, -2.09, -2.215, -0.345, 0.186, 0.292, 0
2840279, -1.543, -0.654, -1.99, -0.149, -0.017, 0.093, 0
2840299, -2.436, -0.791, -3.017, 0.35, -0.1, 0.17, 0
2840319, -1.924, -1.934, -4.397, 0.337, 0.0, 0.386, 0
2840339, -1.155, -0.784, -4.218, -0.098, 0.003, 0.207, 0
2840359, -0.127, 0.257, -4.179, 0.317, -0.062, -0.053, 0
2840379, 0.433, -0.356, -5.454, 0.834, -0.378, 0.107, 0
2840399, 0.299, 0.463, -6.171, 0.664, -0.344, 0.067, 0
2840419, 1.094, 1.218, -5.625, 0.428, -0.248, 0.164, 0
2840439, 1.083, 1.272, -4.588, 0.207, -0.13, 0.077, 0
2840459, 0.571, 1.499, -3.32, 0.134, -0.109, -0.031, 0
2840479, -0.173, 1.223, -2.717, 0.11, -0.016, -0.083, 0
2840499, -0.416, 1.07, -2.283, 0.032, 0.087, -0.032, 0
2840519, -0.254, 0.586, -2.073, -0.045, 0.093, 0.032, 0
2840539, 0.018, 0.254, -1.906, -0.154, 0.089, 0.04, 0
2840559, 0.063, 0.233, -1.555, -0.215, 0.114, 0.007, 0
2840579, -0.052, 0.066, -1.288, -0.199, 0.146, 0.012, 0
2840599, -0.407, -0.054, -1.004, -0.219, 0.206, 0.027, 0
2840619, -0.04, -0.155, -0.473, -0.213, 0.284, 0.097, 1
2840639, 0.696, -0.168, 0.037, -0.14, 0.189, 0.091, 1
2840659, 0.506, 0.493, -0.042, 0.089, 0.07, 0.048, 1
2840679, -0.274, -0.352, -0.015, 0.424, 0.037, -0.03, 1
2840699, -0.828, -0.923, -0.642, 0.533, -0.078, -0.025, 1
2840719, -0.876, -1.319, -1.205, 0.246, 0.155, -0.003, 1
2840739, -0.4, -0.97, -1.333, 0.01, 0.215, 0.006, 1
2840759, -0.142, -0.395, -1.237, -0.023, 0.126, -0.029, 1
2840779, -0.08, 0.063, -1.306, 0.098, 0.064, -0.021, 1
2840799, 0.228, 0.286, -1.62, 0.251, -0.155, -0.004, 1
2840819, 0.221, 0.501, -2.163, 0.416, -0.45, -0.015, 1
2840839, -0.38, 0.392, -2.917, 0.613, -0.503, 0.051, 1
2840859, -0.41, 0.386, -3.445, 0.885, -0.427, 0.15, 1
2840879, -0.37, 0.03, -3.447, 1.03, -0.419, 0.178, 1
2840899, -0.375, -0.072, -3.387, 1.148, -0.45, 0.128, 1
2840919, -0.022, -0.038, -3.878, 1.307, -0.692, 0.072, 1
2840939, -0.351, -0.477, -3.974, 1.461, -0.878, -0.018, 1
2840959, -0.926, -1.08, -3.486, 1.396, -0.748, -0.166, 1
2840979, -1.026, -1.362, -2.943, 1.115, -0.398, -0.226, 1
2840999, -0.841, -1.702, -2.804, 0.675, -0.036, -0.317, 1
2841019, -0.826, -1.909, -2.655, 0.004, 0.255, -0.334, 1
2841039, -0.661, -1.644, -1.985, -0.692, 0.403, -0.276, 1
2841059, -0.695, -0.998, -0.94, -1.096, 0.682, -0.244, 1
2841079, -0.521, -0.84, 0.029, -1.305, 0.988, -0.24, 1
2841099, -0.171, -0.874, 0.908, -1.431, 1.053, -0.23, 1
2841119, 0.092, -0.917, 1.602, -1.501, 0.832, -0.17, 1
2841139, 0.155, -0.944, 2.338, -1.517, 0.598, -0.161, 1
2841159, 0.075, -0.332, 2.978, -1.499, 0.484, -0.182, 1
2841179, -0.135, 0.058, 3.314, -1.261, 0.588, -0.158, 1
2841199, 0.19, -0.489, 3.21, -1.097, 0.583, -0.144, 1
2841219, 0.194, -0.586, 3.222, -1.025, 0.339, -0.119, 1
2841239, -0.085, 0.039, 3.227, -0.934, 0.224, -0.098, 1
2841259, -0.174, -0.019, 3.082, -0.758, 0.206, -0.026, 1
2841279, -0.034, -0.126, 2.974, -0.627, 0.2, -0.009, 1
2841299, 0.114, -0.362, 2.819, -0.543, 0.109, 0.022, 1
2841319, -0.15, -0.387, 2.713, -0.484, -0.001, 0.0, 1
2841339, -0.209, -0.154, 2.661, -0.326, -0.077, -0.006, 1
2841359, -0.449, -0.161, 2.387, -0.114, -0.084, -0.042, 1
2841379, -0.278, -0.502, 1.953, 0.056, -0.044, -0.042, 1
2841399, -0.037, -0.871, 1.323, 0.087, -0.122, -0.029, 1
2841419, -0.366, -0.878, 0.583, -0.046, -0.168, -0.007, 1
2841439, -0.428, -0.665, 0.118, -0.239, 0.026, 0.076, 1
2841459, -0.256, -0.282, 0.123, -0.405, 0.27, 0.148, 1
2841479, 0.138, 0.125, 0.4, -0.28, 0.215, 0.129, 1
2841499, -0.126, -0.043, -0.005, -0.043, 0.063, 0.055, 1
2841519, 0.092, -0.315, -0.262, -0.009, 0.084, 0.05, 1
2841539, 0.068, -0.348, -0.4, -0.044, 0.034, 0.032, 1
2841559, -0.199, -0.199, -0.528, -0.108, 0.023, 0.018, 1
2841579, -0.219, 0.043, -0.352, -0.131, 0.12, 0.028, 1
2841599, -0.006, 0.019, -0.181, -0.058, 0.109, 0.015, 1
2841619, -0.12, -0.081, -0.202, -0.031, 0.096, 0.009, 1
2841639, -0.055, -0.325, -0.207, -0.164, 0.166, 0.048, 1
2841659, -0.061, -0.487, -0.187, -0.316, 0.111, 0.105, 0
2841679, -0.058, -0.114, 0.021, -0.431, 0.089, 0.097, 0
2841699, 0.064, 0.083, 0.256, -0.152, 0.08, -0.014, 0
2841719, -0.093, 0.163, 0.271, -0.063, 0.065, -0.001, 0
2841739, -0.085, 0.009, 0.313, -0.211, 0.047, 0.075, 0
2841759, -0.65, -0.081, 0.055, -0.423, 0.197, 0.164, 0
2841779, -0.331, 0.01, 0.277, -0.4, 0.283, 0.147, 0
2841799, -0.126, -0.094, 0.448, -0.195, 0.186, 0.093, 0
2841819, -0.002, -0.304, 0.374, -0.098, 0.191, 0.082, 0
2841839, 0.324, -0.434, 0.48, -0.106, 0.108, 0.081, 0
2841859, 0.177, -0.576, 0.463, -0.17, 0.003, 0.083, 0
2841879, -0.071, -0.351, 0.678, -0.146, -0.043, 0.1, 0
2841899, -0.176, -0.223, 0.947, -0.058, 0.039, 0.094, 0
2841919, -0.029, -0.445, 1.294, -0.029, 0.111, 0.119, 0
2841939, 0.245, -0.596, 1.938, -0.037, 0.015, 0.119, 0
2841959, 0.129, -0.437, 2.448, -0.012, -0.081, 0.131, 0
2841979, -0.259, -0.285, 2.892, 0.028, 0.025, 0.154, 0
2841999, -0.741, 0.146, 3.596, 0.158, 0.279, 0.222, 0
2842019, -0.257, 0.03, 4.615, 0.322, 0.24, 0.29, 0
2842039, -0.22, -0.728, 5.007, 0.166, -0.001, 0.393, 0
2842059, 0.075, -0.654, 5.311, 0.073, -0.439, 0.45, 0
2842079, -0.588, -0.712, 5.012, 0.169, -0.594, 0.432, 0
2842099, -1.355, -1.046, 4.257, 0.227, -0.273, 0.522, 0
2842119, -1.39, -1.671, 3.626, 0.0, 0.037, 0.602, 0
2842139, -0.262, -1.708, 3.527, -0.111, -0.417, 0.545, 0
2842159, -0.4, -2.128, 2.537, -0.195, -1.029, 0.385, 0
2842179, -1.991, -2.362, 0.647, -0.131, -0.707, 0.387, 0
2842199, -1.298, -2.882, -1.549, -0.147, 0.007, 0.435, 0
2842219, -0.945, -2.299, -1.65, -0.256, -0.122, 0.166, 0
2842239, -2.142, -1.298, -2.648, -0.124, -0.366, -0.109, 0
2842259, -2.675, -0.505, -4.018, 0.04, -0.28, 0.083, 0
2842279, -1.739, -0.71, -4.754, 0.302, -0.103, 0.326, 0
2842299, -0.517, -0.643, -4.991, 0.53, -0.304, 0.386, 0
2842319, -0.63, -0.395, -5.601, 0.737, -0.429, 0.225, 0
2842339, -0.067, -0.257, -6.226, 0.718, -0.252, 0.154, 0
2842359, 0.405, 0.603, -6.005, 0.361, -0.284, 0.051, 0
2842379, 0.324, 1.545, -5.253, 0.193, -0.302, -0.024, 0
2842399, 0.677, 1.285, -4.88, 0.298, -0.139, 0.008, 0
2842419, 0.516, 1.09, -4.412, 0.189, 0.004, -0.067, 0
2842439, 0.388, 1.103, -3.508, -0.01, 0.064, -0.151, 0
2842459, 0.059, 0.744, -2.558, -0.179, 0.133, -0.227, 0
2842479, -0.121, 0.674, -1.621, -0.265, 0.145, -0.255, 0
2842499, -0.396, 0.929, -1.107, -0.29, 0.103, -0.217, 0
2842519, -0.36, 0.646, -0.904, -0.158, 0.094, -0.037, 0
2842539, -0.051, 0.094, -0.825, -0.067, 0.106, 0.114, 0
2842559, 0.045, -0.403, -0.788, -0.073, 0.098, 0.113, 1
2842579, -0.154, -0.342, -0.557, -0.144, 0.053, 0.047, 1
2842599, -0.311, -0.319, -0.326, -0.115, 0.006, 0.066, 1
2842619, -0.332, -0.085, -0.322, 0.004, 0.002, 0.136, 1
2842639, -0.349, -0.214, -0.633, 0.265, 0.037, 0.189, 1
2842659, -0.351, -0.061, -1.01, 0.49, 0.081, 0.252, 1
2842679, -0.171, -0.282, -1.493, 0.598, 0.154, 0.238, 1
2842699, -0.009, -0.539, -1.982, 0.397, 0.15, 0.171, 1
2842719, -0.119, -0.221, -2.309, 0.194, 0.226, 0.119, 1
2842739, -0.22, 0.199, -2.455, 0.169, 0.353, 0.18, 1
2842759, -0.102, 0.359, -2.584, 0.324, 0.488, 0.276, 1
2842779, 0.318, 0.4, -2.829, 0.547, 0.425, 0.364, 1
2842799, 1.231, -0.087, -3.249, 0.678, 0.056, 0.319, 1
2842819, 1.344, -0.447, -3.764, 0.741, -0.466, 0.129, 1
2842839, 0.119, -0.536, -4.213, 0.807, -0.574, -0.04, 1
2842859, -1.031, -0.706, -4.53, 0.861, -0.206, -0.01, 1
2842879, -0.858, -1.336, -3.972, 0.85, 0.042, 0.06, 1
2842899, -0.303, -1.906, -3.252, 0.704, -0.007, -0.042, 1
2842919, -0.084, -2.595, -2.912, 0.353, -0.259, -0.21, 1
2842939, -0.514, -2.722, -2.387, -0.122, -0.312, -0.389, 1
2842959, -1.182, -2.426, -1.813, -0.634, -0.001, -0.441, 1
2842979, -1.402, -2.147, -1.084, -0.998, 0.464, -0.398, 1
2842999, -1.314, -2.088, -0.591, -1.227, 0.833, -0.385, 1
2843019, -0.815, -2.168, 0.239, -1.271, 1.011, -0.388, 1
2843039, -0.472, -2.121, 1.231, -1.481, 0.94, -0.409, 1
2843059, -0.512, -1.211, 2.363, -1.679, 0.851, -0.359, 1
2843079, -0.479, -0.942, 2.988, -1.641, 0.78, -0.341, 1
2843099, -0.56, -0.512, 3.403, -1.472, 0.778, -0.397, 1
2843119, -0.602, -0.404, 3.553, -1.34, 0.801, -0.32, 1
2843139, -0.586, -0.328, 3.696, -1.16, 0.839, -0.263, 1
2843159, -0.249, -0.381, 3.694, -0.925, 0.673, -0.219, 1
2843179, 0.2, -0.499, 3.373, -0.837, 0.368, -0.195, 1
2843199, 0.11, -0.439, 3.223, -0.725, 0.131, -0.19, 1
2843219, -0.07, -0.184, 3.205, -0.568, -0.021, -0.203, 1
2843239, -0.537, -0.302, 2.758, -0.412, -0.041, -0.193, 1
2843259, -0.717, -0.216, 2.47, -0.285, 0.202, -0.127, 1
2843279, 0.006, -0.553, 2.298, -0.21, 0.391, -0.048, 1
2843299, 0.208, -0.319, 2.294, -0.183, 0.196, -0.065, 1
2843319, -0.265, -0.137, 1.905, -0.075, -0.191, -0.074, 1
2843339, -0.919, 0.145, 1.545, 0.056, -0.362, 0.001, 1
2843359, -0.744, -0.318, 1.141, 0.132, -0.312, 0.156, 0
2843379, -0.382, -0.697, 0.468, 0.166, -0.174, 0.218, 0
2843399, -0.299, -1.286, -0.387, 0.139, -0.08, 0.215, 0
2843419, 0.05, -1.371, -0.69, 0.108, 0.029, 0.156, 0
2843439, -0.098, -1.218, -0.853, 0.034, 0.191, 0.08, 0
2843459, 0.117, -0.712, -0.567, -0.05, 0.341, 0.063, 0
2843479, 0.343, -0.356, -0.348, -0.087, 0.238, 0.061, 0
2843499, 0.198, -0.275, -0.357, -0.132, 0.059, 0.055, 0
2843519, -0.003, -0.14, -0.456, -0.177, 0.013, 0.047, 0
2843539, -0.289, -0.155, -0.509, -0.206, 0.075, 0.047, 0
2843559, -0.208, -0.083, -0.301, -0.204, 0.167, 0.04, 0
2843579, -0.066, -0.244, -0.12, -0.162, 0.163, 0.04, 0
2843599, -0.065, -0.181, 0.147, -0.18, 0.114, 0.039, 0
2843619, -0.139, -0.134, 0.472, -0.161, 0.038, 0.061, 0
2843639, -0.296, -0.192, 0.763, -0.09, 0.026, 0.086, 0
2843659, -0.157, -0.349, 1.161, -0.018, 0.092, 0.091, 0
2843679, -0.076, -0.493, 1.652, 0.031, 0.053, 0.091, 0
2843699, 0.006, -0.811, 2.058, -0.003, -0.031, 0.113, 0
2843719, 0.128, -1.252, 2.445, -0.221, -0.219, 0.174, 0
2843739, -0.243, -0.876, 2.947, -0.311, -0.246, 0.191, 0
2843759, -0.638, -0.406, 3.372, -0.086, -0.021, 0.156, 0
2843779, -0.889, -0.199, 3.68, 0.226, 0.276, 0.155, 0
2843799, -1.134, 0.029, 3.957, 0.435, 0.537, 0.252, 0
2843819, -1.267, 0.057, 4.29, 0.48, 0.673, 0.447, 0
2843839, -0.675, 0.572, 4.846, 0.546, 0.433, 0.613, 0
2843859, -1.212, 0.637, 4.762, 0.522, 0.346, 0.799, 0
2843879, -1.044, 0.15, 4.574, 0.331, 0.298, 0.962, 0
2843899, 0.064, -0.955, 3.924, 0.004, -0.196, 0.939, 0
2843919, 0.13, -2.331, 2.54, -0.54, -0.697, 0.846, 0
2843939, -0.434, -2.335, 1.727, -1.122, -0.801, 0.61, 0
2843959, -0.779, -1.29, 1.468, -1.11, -0.659, 0.447, 0
2843979, -0.991, -1.504, 0.726, -0.62, -0.496, 0.24, 0
2843999, -0.591, -2.431, -0.718, -0.248, -0.621, 0.175, 0
2844019, -0.25, -3.365, -2.449, -0.452, -1.001, -0.196, 0
2844039, -1.278, -2.667, -3.812, -0.747, -0.925, -0.613, 0
2844059, -2.516, 0.282, -3.669, -0.056, -0.577, -0.737, 0
2844079, -3.231, 0.82, -3.92, 1.058, -0.216, -0.301, 0
2844099, -1.292, -0.372, -5.487, 1.291, -0.452, 0.406, 0
2844119, 0.452, -0.402, -6.869, 1.087, -0.907, 0.55, 0
2844139, 1.636, -0.389, -7.743, 0.681, -0.728, 0.095, 0
2844159, 1.591, 0.892, -6.955, 0.362, -0.249, -0.195, 0
2844179, 0.655, 1.864, -5.067, 0.037, 0.066, -0.361, 0
2844199, -0.464, 2.061, -3.449, -0.154, 0.29, -0.248, 0
2844219, -0.261, 1.91, -2.119, -0.227, 0.379, -0.057, 0
2844239, -0.101, 1.458, -1.584, -0.211, 0.222, 0.003, 0
2844259, -0.379, 0.735, -1.449, -0.204, 0.138, 0.042, 0
2844279, -0.119, 0.447, -1.122, -0.255, 0.199, 0.077, 0
2844299, -0.082, -0.021, -0.976, -0.292, 0.21, 0.086, 0
2844319, 0.018, -0.168, -0.606, -0.348, 0.205, 0.094, 0
2844339, 0.145, -0.447, -0.381, -0.29, 0.16, 0.111, 1
2844359, -0.223, -0.396, -0.124, -0.277, 0.106, 0.119, 1
2844379, -0.227, -0.714, -0.277, -0.252, 0.119, 0.12, 1
2844399, -0.21, -0.47, 0.0, -0.217, 0.195, 0.105, 1
2844419, -0.307, -0.296, 0.036, 0.0, 0.232, 0.129, 1
2844439, -0.05, -0.127, -0.353, 0.238, 0.243, 0.259, 1
2844459, -0.071, -0.456, -0.811, 0.32, 0.178, 0.317, 1
2844479, 0.25, -0.217, -1.0, 0.263, 0.088, 0.292, 1
2844499, 0.068, 0.001, -1.568, 0.27, 0.02, 0.243, 1
2844519, 0.249, 0.271, -2.102, 0.302, 0.087, 0.263, 1
2844539, 0.742, 0.432, -2.831, 0.406, 0.093, 0.257, 1
2844559, 0.417, 0.403, -3.305, 0.453, 0.045, 0.201, 1
2844579, 0.582, 0.88, -3.522, 0.53, -0.006, 0.188, 1
2844599, 0.126, 0.905, -3.668, 0.761, -0.173, 0.269, 1
2844619, 0.167, 0.499, -3.641, 1.187, -0.298, 0.35, 1
2844639, 0.168, 0.292, -3.703, 1.536, -0.73, 0.326, 1
2844659, -0.146, -0.518, -3.532, 1.913, -0.842, 0.097, 1
2844679, -0.719, -1.857, -3.336, 1.927, -0.783, -0.222, 1
2844699, -1.265, -2.443, -2.731, 1.54, -0.521, -0.349, 1
2844719, -1.222, -2.727, -2.374, 0.866, -0.2, -0.329, 1
2844739, -1.22, -2.574, -1.926, 0.042, 0.145, -0.427, 1
2844759, -1.241, -2.308, -1.345, -0.678, 0.486, -0.464, 1
2844779, -1.302, -1.978, -0.498, -1.141, 0.776, -0.427, 1
2844799, -0.995, -1.247, 0.741, -1.29, 0.923, -0.4, 1
2844819, -0.574, -1.636, 1.324, -1.306, 0.951, -0.419, 1
2844839, -0.455, -1.636, 1.733, -1.313, 1.001, -0.496, 1
2844859, -0.503, -1.355, 1.958, -1.318, 1.058, -0.613, 1
2844879, -0.787, -0.844, 2.438, -1.203, 1.182, -0.638, 1
2844899, -0.723, -0.337, 2.958, -1.014, 1.252, -0.522, 1
2844919, -0.316, -0.456, 2.925, -0.921, 1.048, -0.432, 1
2844939, -0.109, -0.648, 2.739, -0.968, 0.693, -0.378, 1
2844959, -0.07, -0.519, 2.625, -1.107, 0.386, -0.321, 1
2844979, -0.313, -0.126, 2.812, -1.153, 0.254, -0.249, 1
2844999, -0.317, 0.239, 3.0, -1.034, 0.153, -0.181, 1
2845019, -0.419, 0.125, 3.028, -0.831, 0.124, -0.136, 1
2845039, -0.412, 0.042, 2.824, -0.721, 0.219, -0.125, 1
2845059, -0.205, -0.244, 2.496, -0.646, 0.174, -0.097, 1
2845079, -0.163, -0.329, 2.353, -0.565, -0.009, -0.119, 1
2845099, -0.393, -0.449, 2.065, -0.535, -0.229, -0.137, 1
2845119, -0.889, -0.22, 1.862, -0.41, -0.12, -0.087, 1
2845139, -1.038, -0.088, 1.135, -0.321, 0.078, 0.0, 1
2845159, -0.741, -0.252, 0.891, -0.253, 0.146, 0.079, 1
2845179, -0.621, -0.537, 0.492, -0.195, 0.012, 0.087, 1
2845199, -0.761, -0.761, 0.027, -0.24, -0.08, 0.133, 1
2845219, -0.931, -0.81, -0.37, -0.434, 0.032, 0.176, 1
2845239, -0.448, -0.226, -0.112, -0.433, 0.252, 0.244, 0
2845259, -0.612, 0.035, 0.48, -0.339, 0.245, 0.239, 0
2845279, 0.263, -0.414, 0.011, -0.083, 0.147, 0.218, 0
2845299, 0.121, -0.475, -0.104, -0.021, -0.03, 0.139, 0
2845319, 0.069, -0.406, -0.365, -0.048, -0.039, 0.087, 0
2845339, -0.044, -0.288, -0.608, -0.145, 0.028, 0.071, 0
2845359, -0.278, -0.153, -0.77, -0.24, 0.159, 0.057, 0
2845379, -0.014, 0.028, -0.596, -0.226, 0.16, 0.058, 0
2845399, -0.078, -0.088, -0.675, -0.2, 0.056, 0.058, 0
2845419, -0.138, -0.167, -0.57, -0.243, 0.066, 0.072, 0
2845439, -0.178, -0.053, -0.346, -0.328, 0.133, 0.111, 0
2845459, -0.077, 0.081, 0.113, -0.343, 0.147, 0.116, 0
2845479, -0.077, -0.044, 0.388, -0.238, 0.101, 0.118, 0
