timestamp, accX, accY, accZ, gyroX, gyroY, gyroZ, button
1613337, -0.001, -0.04, -0.277, -0.145, 0.023, 0.078, 1
1613357, -0.032, -0.06, -0.243, -0.148, 0.026, 0.089, 1
1613377, -0.009, -0.074, -0.194, -0.143, 0.054, 0.102, 1
1613397, 0.003, -0.036, -0.088, -0.128, 0.076, 0.112, 1
1613417, 0.005, -0.023, -0.014, -0.124, 0.087, 0.114, 1
1613437, 0.028, -0.039, 0.037, -0.129, 0.07, 0.112, 1
1613457, 0.017, -0.026, 0.023, -0.133, 0.039, 0.097, 1
1613477, -0.004, -0.01, -0.031, -0.116, 0.006, 0.091, 1
1613497, 0.005, -0.018, -0.184, -0.091, 0.0, 0.092, 1
1613517, 0.027, -0.103, -0.332, -0.085, 0.019, 0.09, 1
1613537, 0.049, -0.117, -0.403, -0.116, 0.012, 0.072, 1
1613557, -0.033, -0.045, -0.367, -0.131, -0.016, 0.06, 1
1613577, -0.038, -0.011, -0.145, -0.142, -0.002, 0.063, 1
1613597, 0.03, 0.01, 0.126, -0.147, 0.025, 0.067, 1
1613617, 0.095, 0.002, 0.286, -0.128, 0.014, 0.067, 1
1613637, 0.084, -0.036, 0.222, -0.091, -0.035, 0.054, 1
1613657, 0.05, -0.05, 0.062, -0.06, -0.074, 0.043, 1
1613677, 0.025, -0.061, -0.142, -0.054, -0.067, 0.047, 1
1613697, 0.102, -0.103, -0.245, -0.06, -0.01, 0.047, 1
1613717, 0.173, -0.124, -0.312, -0.056, -0.001, 0.039, 1
1613737, 0.1, -0.071, -0.376, -0.07, -0.007, 0.009, 1
1613757, 0.058, -0.042, -0.465, -0.072, 0.004, -0.009, 1
1613777, 0.005, -0.072, -0.491, -0.085, 0.053, -0.039, 1
1613797, 0.036, -0.037, -0.429, -0.113, 0.031, -0.062, 1
1613817, -0.1, -0.014, -0.381, -0.154, 0.034, -0.069, 1
1613837, -0.098, -0.018, -0.218, -0.16, 0.068, -0.056, 1
1613857, 0.017, -0.043, -0.134, -0.131, 0.07, -0.071, 1
1613877, -0.011, -0.121, -0.009, -0.138, 0.07, -0.085, 1
1613897, -0.039, -0.061, 0.311, -0.153, 0.077, -0.108, 1
1613917, -0.026, 0.014, 0.553, -0.111, 0.016, -0.119, 1
1613937, 0.051, 0.098, 0.415, -0.053, -0.108, -0.168, 1
1613957, -0.205, 0.087, -0.014, -0.047, -0.153, -0.169, 1
1613977, -0.388, 0.042, -0.466, -0.064, -0.087, -0.113, 1
1613997, -0.547, -0.034, -0.714, -0.091, 0.05, -0.034, 1
1614017, -0.383, -0.136, -0.71, -0.119, 0.138, 0.032, 1
1614037, -0.219, -0.216, -0.483, -0.152, 0.164, 0.072, 1
1614057, -0.155, -0.12, -0.304, -0.155, 0.184, 0.091, 1
1614077, -0.07, -0.094, -0.119, -0.138, 0.2, 0.095, 1
1614097, -0.003, -0.159, 0.033, -0.145, 0.183, 0.076, 1
1614117, -0.018, -0.04, 0.32, -0.145, 0.158, 0.05, 1
1614137, 0.046, 0.089, 0.54, -0.091, 0.097, 0.006, 1
1614157, 0.031, 0.033, 0.457, -0.031, -0.014, -0.049, 1
1614177, -0.07, -0.049, 0.111, -0.019, -0.102, -0.092, 1
1614197, -0.257, -0.058, -0.301, -0.043, -0.12, -0.086, 1
1614217, -0.325, -0.065, -0.548, -0.073, -0.126, -0.058, 1
1614237, -0.461, -0.062, -0.62, -0.105, -0.069, -0.008, 1
1614257, -0.418, -0.016, -0.517, -0.113, 0.021, 0.085, 1
1614277, 0.029, -0.028, -0.002, -0.141, 0.091, 0.142, 1
1614297, 0.208, -0.09, 0.207, -0.135, 0.064, 0.141, 1
1614317, 0.183, -0.099, 0.191, -0.104, 0.024, 0.124, 1
1614337, 0.142, -0.106, 0.049, -0.062, 0.003, 0.096, 1
1614357, 0.106, -0.157, -0.18, -0.049, 0.0, 0.093, 1
1614377, 0.107, -0.172, -0.282, -0.078, -0.008, 0.073, 1
1614397, 0.007, -0.052, -0.289, -0.088, -0.014, 0.056, 1
1614417, -0.016, -0.005, -0.274, -0.075, 0.023, 0.056, 1
1614437, 0.016, 0.003, -0.283, -0.061, 0.043, 0.063, 1
1614457, 0.043, -0.013, -0.441, -0.054, 0.025, 0.059, 1
1614477, -0.066, -0.075, -0.496, -0.077, 0.023, 0.049, 1
1614497, -0.152, -0.069, -0.618, -0.097, 0.043, 0.058, 1
1614517, -0.236, -0.188, -0.654, -0.103, 0.063, 0.072, 1
1614537, -0.278, -0.074, -0.385, -0.171, 0.087, 0.071, 1
1614557, -0.291, 0.057, -0.018, -0.207, 0.125, 0.102, 1
1614577, -0.188, 0.167, 0.286, -0.188, 0.147, 0.143, 1
1614597, -0.011, 0.076, 0.322, -0.143, 0.115, 0.18, 1
1614617, 0.149, -0.109, 0.142, -0.098, 0.0, 0.203, 1
1614637, 0.095, -0.274, -0.23, -0.084, -0.065, 0.177, 1
1614657, 0.033, -0.268, -0.396, -0.115, -0.028, 0.177, 1
1614677, -0.024, -0.28, -0.445, -0.155, 0.03, 0.196, 1
1614697, 0.066, -0.139, -0.3, -0.218, 0.035, 0.244, 1
1614717, 0.104, 0.0, -0.187, -0.209, -0.003, 0.223, 1
1614737, -0.002, -0.024, -0.086, -0.159, -0.026, 0.247, 1
1614757, -0.003, -0.035, -0.055, -0.155, 0.014, 0.331, 1
1614777, 0.321, 0.003, -0.091, -0.136, 0.051, 0.252, 1
1614797, 0.24, -0.241, -0.068, -0.13, 0.075, 0.182, 1
1614817, 0.135, -0.296, 0.054, -0.143, 0.094, 0.166, 1
1614837, 0.187, -0.257, 0.076, -0.114, 0.081, 0.152, 1
1614857, 0.206, -0.286, -0.027, -0.08, 0.069, 0.106, 1
1614877, 0.115, -0.293, -0.151, -0.064, 0.079, 0.091, 1
1614897, -0.056, -0.258, -0.279, -0.048, 0.093, 0.069, 1
1614917, -0.143, -0.258, -0.308, -0.032, 0.107, 0.07, 1
1614937, -0.185, -0.306, -0.22, -0.081, 0.131, 0.066, 1
1614957, 0.008, -0.082, 0.048, -0.076, 0.103, 0.034, 1
1614977, 0.022, -0.029, 0.235, -0.053, 0.057, 0.0, 1
1614997, -0.014, -0.074, 0.155, -0.056, -0.001, -0.025, 1
1615017, -0.129, -0.127, -0.053, -0.08, -0.067, -0.053, 1
1615037, -0.278, -0.052, -0.122, -0.092, -0.074, -0.059, 1
1615057, -0.384, 0.012, -0.143, -0.08, 0.017, -0.061, 1
1615077, -0.176, -0.025, -0.109, -0.063, 0.097, -0.036, 1
1615097, 0.095, -0.042, 0.029, -0.05, 0.07, -0.009, 1
1615117, 0.093, 0.022, 0.071, -0.034, 0.064, -0.03, 1
1615137, 0.009, 0.01, 0.046, -0.018, 0.099, -0.051, 1
1615157, 0.04, 0.074, 0.06, -0.007, 0.112, -0.034, 1
1615177, 0.115, 0.133, 0.043, 0.02, 0.096, -0.03, 1
1615197, -0.024, 0.023, -0.139, -0.023, 0.092, -0.014, 1
1615217, -0.035, -0.031, -0.342, -0.077, 0.141, -0.005, 1
1615237, -0.06, -0.087, -0.321, -0.13, 0.185, -0.009, 1
1615257, -0.232, 0.239, -0.267, -0.009, 0.141, -0.009, 1
1615277, -0.359, 0.041, -0.459, 0.024, 0.18, 0.096, 1
1615297, -0.077, 0.146, -0.396, 0.059, 0.086, 0.075, 1
1615317, -0.202, 0.01, -0.615, -0.009, 0.055, -0.016, 1
1615337, -0.234, -0.035, -0.471, -0.018, 0.08, -0.006, 1
1615357, -0.128, 0.005, -0.437, -0.072, 0.103, -0.021, 1
1615377, -0.02, -0.131, -0.398, -0.113, 0.092, -0.043, 1
1615397, 0.166, -0.164, -0.531, -0.227, 0.023, -0.047, 1
1615417, -0.138, -0.121, -0.552, -0.305, -0.045, -0.084, 1
1615437, -0.101, -0.033, -0.437, -0.309, -0.003, -0.082, 1
1615457, 0.04, 0.0, -0.271, -0.278, -0.017, -0.057, 1
1615477, 0.035, -0.002, -0.076, -0.195, -0.058, -0.044, 1
1615497, -0.026, -0.08, -0.09, -0.164, -0.062, 0.0, 1
1615517, 0.033, -0.126, -0.091, -0.13, -0.013, 0.028, 1
1615537, 0.095, -0.085, -0.056, -0.108, 0.003, 0.038, 1
1615557, -0.013, -0.074, -0.035, -0.12, 0.009, 0.039, 1
1615577, 0.154, -0.111, -0.021, -0.094, 0.021, 0.054, 1
1615597, 0.116, -0.168, -0.093, -0.114, -0.017, 0.064, 1
1615617, 0.056, -0.132, -0.113, -0.121, -0.07, 0.055, 1
1615637, -0.068, -0.068, -0.166, -0.146, -0.053, 0.058, 1
1615657, -0.025, -0.007, -0.073, -0.133, 0.004, 0.064, 1
1615677, 0.178, -0.087, -0.09, -0.068, 0.061, 0.07, 1
1615697, 0.15, -0.165, -0.165, -0.087, 0.035, 0.067, 1
1615717, 0.094, -0.175, -0.13, -0.141, 0.014, 0.043, 1
1615737, 0.017, 0.002, 0.034, -0.136, 0.015, 0.031, 1
1615757, -0.005, -0.026, 0.044, -0.106, 0.018, 0.025, 1
1615777, 0.013, -0.022, -0.093, -0.1, 0.022, 0.028, 1
1615797, 0.04, -0.078, -0.183, -0.105, -0.005, 0.027, 1
1615817, -0.051, -0.105, -0.237, -0.129, 0.009, 0.023, 1
1615837, -0.004, -0.011, -0.067, -0.099, 0.011, 0.02, 1
1615857, -0.067, -0.017, 0.005, -0.063, 0.023, 0.029, 1
1615877, -0.008, -0.006, 0.045, -0.028, 0.04, 0.041, 1
1615897, 0.034, -0.052, -0.105, -0.028, 0.034, 0.05, 1
1615917, 0.029, -0.182, -0.215, -0.088, 0.018, 0.034, 1
1615937, 0.005, -0.078, -0.156, -0.117, 0.025, 0.018, 1
1615957, -0.057, 0.01, -0.112, -0.108, 0.047, 0.015, 1
1615977, -0.009, -0.026, -0.079, -0.101, 0.024, 0.018, 1
1615997, -0.003, -0.014, -0.105, -0.09, 0.006, 0.025, 1
1616017, -0.041, -0.03, -0.15, -0.095, 0.024, 0.035, 1
1616037, 0.02, -0.047, -0.065, -0.079, 0.05, 0.036, 1
1616057, 0.118, -0.131, -0.022, -0.098, 0.028, 0.021, 1
1616077, 0.069, -0.055, -0.047, -0.092, -0.018, -0.001, 1
1616097, -0.07, 0.048, -0.129, -0.038, -0.009, 0.005, 1
1616117, -0.051, 0.021, -0.203, 0.008, 0.038, 0.019, 1
1616137, -0.016, -0.195, -0.292, -0.077, 0.047, 0.018, 1
1616157, -0.12, -0.016, -0.316, -0.108, 0.076, 0.005, 1
1616177, -0.123, -0.097, -0.265, -0.096, 0.12, -0.003, 1
1616197, -0.278, -0.014, -0.273, -0.07, 0.315, 0.049, 1
1616217, -0.342, -0.428, -0.341, -0.073, 0.682, 0.191, 1
1616237, 0.463, -0.505, -0.518, -0.017, 0.709, 0.086, 1
1616257, 0.471, -0.496, -0.156, -0.008, 0.563, -0.128, 0
1616277, 0.188, -0.701, 0.059, -0.084, 0.204, -0.36, 0
1616297, -1.109, 1.367, 0.161, -0.302, -0.15, -0.251, 0
1616317, -1.446, 0.794, -0.099, -0.321, -0.149, -0.388, 0
1616337, -1.458, 0.166, -0.96, -0.017, -0.202, -0.319, 0
1616357, -1.649, 0.624, -1.486, -0.149, 0.193, -0.233, 0
1616377, -1.783, -1.838, -0.953, -0.183, 0.61, -0.073, 0
1616397, -0.788, -0.524, -0.439, -0.32, 0.665, -0.019, 0
1616417, -1.841, -0.01, 0.914, -0.412, 0.367, -0.015, 0
1616437, -2.671, 0.125, 1.694, -0.318, 0.171, -0.03, 0
1616457, -2.856, -0.46, 1.151, -0.249, 0.026, 0.058, 0
1616477, -3.294, -0.187, 0.88, -0.291, -0.434, 0.177, 0
1616497, -5.436, 0.237, 0.306, -0.279, -0.883, 0.237, 0
1616517, -6.855, 0.614, 0.403, -0.26, -0.842, 0.415, 0
1616537, -6.599, 0.72, 0.926, -0.143, -0.543, 0.816, 0
1616557, -5.436, -0.244, 0.721, 0.061, -0.31, 1.156, 0
1616577, -3.079, -1.482, -0.455, 0.084, -0.556, 1.431, 0
1616597, -1.927, -2.256, -1.667, -0.193, -0.898, 1.532, 0
1616617, -1.301, -2.312, -2.11, -0.454, -0.871, 1.329, 0
1616637, -0.334, -1.436, -1.924, -0.489, -0.625, 1.244, 0
1616657, 0.718, -1.929, -1.917, -0.247, -0.404, 1.141, 0
1616677, 2.035, -3.371, -3.091, -0.445, -0.607, 1.037, 0
1616697, 0.576, -1.428, -2.429, -0.969, -1.219, 0.953, 0
1616717, -0.371, -0.35, -1.989, -0.629, -0.905, 1.168, 0
1616737, -0.429, -1.203, -2.033, -0.407, -0.463, 1.352, 0
1616757, 0.934, -2.269, -1.544, -0.442, -0.222, 1.476, 0
1616777, 2.73, -2.31, -1.048, -0.503, -0.693, 1.781, 0
1616797, 2.006, -2.181, -1.17, -0.39, -0.703, 1.959, 0
1616817, 3.312, -2.729, -2.25, -0.326, -0.301, 2.122, 0
1616837, 4.98, -2.762, -1.885, -0.381, -0.108, 2.296, 0
1616857, 7.425, -3.064, -1.19, -0.428, -0.134, 1.868, 0
1616877, 8.867, -1.9, 0.302, -0.28, -0.413, 1.169, 0
1616897, 8.686, -1.274, 1.059, -0.05, -0.641, 0.739, 0
1616917, 7.568, -0.835, 0.249, 0.114, -0.7, 0.378, 0
1616937, 6.133, -1.055, -0.766, -0.064, -0.572, 0.125, 0
1616957, 4.577, -0.084, -0.1, -0.196, -0.256, 0.021, 0
1616977, 4.339, 0.314, 0.469, -0.172, -0.121, 0.033, 0
1616997, 3.797, 0.486, 0.709, -0.061, -0.063, -0.006, 0
1617017, 3.074, 0.188, 0.402, -0.039, -0.047, -0.021, 0
1617037, 1.682, 0.043, 0.091, -0.174, 0.003, -0.054, 0
1617057, 0.582, 0.186, 0.126, -0.305, 0.043, 0.042, 0
1617077, -0.094, 0.205, 0.303, -0.293, 0.202, 0.226, 0
1617097, 0.183, 0.213, 0.611, -0.147, 0.335, 0.331, 0
1617117, 0.71, -0.479, 0.781, -0.077, 0.323, 0.257, 0
1617137, 1.05, -0.564, 0.921, 0.026, 0.183, 0.092, 0
1617157, 1.016, -0.332, 0.738, 0.189, -0.045, -0.072, 0
1617177, 0.329, -0.572, 0.224, 0.175, -0.254, -0.109, 0
1617197, -0.49, -0.776, -0.17, -0.258, -0.169, 0.159, 1
1617217, 0.469, -0.583, -0.2, -0.348, -0.182, 0.222, 1
1617237, 0.81, -0.125, -0.23, -0.441, -0.215, 0.181, 1
1617257, 1.598, -0.092, -0.276, -0.296, -0.174, 0.07, 1
1617277, 2.322, -0.675, -0.814, -0.152, -0.108, -0.072, 1
1617297, 2.931, -0.832, -1.108, -0.184, -0.076, -0.313, 1
1617317, 2.812, -0.415, -1.122, -0.273, -0.156, -0.452, 1
1617337, 2.208, -0.733, -1.315, -0.385, -0.219, -0.46, 1
1617357, 1.727, -0.442, -1.265, -0.419, -0.07, -0.597, 1
1617377, 1.704, -0.19, -0.698, -0.195, 0.076, -0.558, 1
1617397, 2.085, -0.078, -0.477, 0.034, 0.063, -0.283, 1
1617417, 1.928, -1.487, -1.249, 0.102, -0.059, -0.211, 1
1617437, 1.236, -2.56, -1.677, -0.285, 0.109, -0.558, 1
1617457, 1.198, -1.729, -1.197, -0.651, 0.44, -0.954, 1
1617477, 0.507, -0.96, -0.811, -0.771, 0.554, -0.985, 1
1617497, 0.05, -0.741, -0.207, -0.704, 0.619, -0.852, 1
1617517, -0.308, -0.158, 0.816, -0.459, 0.595, -0.754, 1
1617537, -0.332, -0.522, 0.604, 0.056, 0.489, -0.755, 1
1617557, -0.965, -1.273, -0.336, 0.228, 0.41, -1.035, 1
1617577, -1.567, -1.43, -0.438, -0.097, 0.381, -1.168, 1
1617597, -1.858, -1.357, -0.211, -0.439, 0.505, -1.001, 1
1617617, -1.641, -1.214, 0.163, -0.383, 0.643, -0.813, 1
1617637, -0.812, -1.415, 0.447, -0.046, 0.612, -0.714, 1
1617657, -0.942, -2.347, -0.2, 0.212, 0.458, -0.828, 1
1617677, -2.146, -1.786, -0.8, 0.048, 0.717, -1.554, 1
1617697, -2.778, -1.153, -1.092, -0.232, 1.034, -1.377, 1
1617717, -2.769, -0.719, -0.776, -0.442, 1.041, -1.039, 1
1617737, -2.338, -0.606, -0.391, -0.32, 1.125, -0.896, 1
1617757, -1.773, -0.3, -0.288, 0.054, 1.105, -0.91, 1
1617777, -2.175, -0.574, -0.604, 0.307, 0.902, -0.857, 1
1617797, -2.851, -0.77, -1.037, 0.288, 0.753, -0.673, 1
1617817, -3.667, -0.71, -0.841, 0.177, 0.887, -0.494, 1
1617837, -3.422, -0.429, -0.344, 0.185, 0.979, -0.43, 1
1617857, -3.192, -0.231, 0.145, 0.287, 0.857, -0.409, 1
1617877, -2.75, -0.322, 0.205, 0.395, 0.509, -0.412, 1
1617897, -2.903, -0.587, -0.147, 0.412, 0.18, -0.43, 1
1617917, -3.446, -0.828, -0.603, 0.257, 0.094, -0.343, 1
1617937, -3.666, -0.85, -0.821, 0.062, 0.227, -0.197, 1
1617957, -3.323, -0.842, -0.576, -0.048, 0.445, -0.055, 1
1617977, -2.153, -0.882, -0.417, -0.061, 0.404, 0.006, 1
1617997, -1.269, -0.773, -0.036, -0.052, 0.131, 0.019, 1
1618017, -0.907, -0.486, 0.182, 0.039, -0.085, -0.091, 1
1618037, -0.963, -0.528, 0.079, 0.069, -0.191, -0.186, 1
1618057, -0.995, -0.551, -0.104, 0.0, -0.225, -0.131, 1
1618077, -0.816, -0.41, -0.165, -0.1, -0.202, -0.049, 1
1618097, -0.448, -0.072, -0.062, -0.073, -0.187, -0.043, 1
1618117, -0.101, 0.0, 0.019, 0.015, -0.209, -0.03, 1
1618137, 0.17, -0.027, -0.044, 0.083, -0.221, 0.0, 1
1618157, 0.214, -0.211, -0.173, 0.098, -0.187, -0.036, 1
1618177, 0.031, -0.288, -0.548, -0.024, -0.114, 0.031, 1
1618197, 0.104, -0.035, -0.313, -0.084, -0.065, 0.092, 1
1618217, 0.523, -0.092, -0.197, -0.067, -0.038, 0.142, 1
1618237, 0.533, -0.162, -0.306, 0.001, -0.026, 0.067, 1
1618257, 0.371, -0.373, -0.479, 0.021, -0.021, -0.042, 1
1618277, 0.014, -0.383, -0.591, -0.033, -0.005, -0.098, 1
1618297, -0.223, -0.271, -0.489, -0.164, 0.024, -0.029, 1
1618317, -0.279, -0.019, -0.117, -0.201, 0.062, 0.064, 1
1618337, -0.109, -0.055, 0.196, -0.136, 0.132, 0.065, 1
1618357, -0.089, -0.03, 0.325, -0.022, 0.125, 0.071, 1
1618377, -0.103, -0.178, 0.341, 0.063, 0.106, 0.073, 1
1618397, 0.171, -0.268, 0.266, 0.073, 0.026, 0.054, 1
1618417, -0.04, -0.39, 0.055, -0.009, -0.071, 0.039, 1
1618437, -0.121, -0.23, -0.136, -0.107, -0.04, 0.031, 1
1618457, -0.033, -0.067, -0.125, -0.147, 0.025, 0.037, 1
1618477, 0.033, -0.019, -0.07, -0.135, 0.067, 0.059, 1
1618497, 0.079, -0.031, -0.034, -0.108, 0.076, 0.064, 1
1618517, 0.045, -0.13, -0.132, -0.084, 0.077, 0.061, 1
1618537, 0.004, -0.041, -0.171, -0.117, 0.041, 0.058, 1
1618557, 0.094, 0.014, -0.099, -0.13, 0.01, 0.046, 1
1618577, 0.175, 0.0, -0.174, -0.132, 0.014, 0.054, 1
1618597, 0.102, -0.053, -0.237, -0.125, 0.051, 0.059, 1
1618617, 0.175, 0.013, -0.206, -0.069, 0.053, -0.006, 1
1618637, -0.003, -0.016, -0.203, -0.064, 0.026, -0.035, 1
1618657, -0.049, -0.176, -0.347, -0.149, 0.075, -0.042, 1
1618677, -0.171, -0.202, -0.385, -0.204, 0.177, -0.021, 1
1618697, -0.278, 0.051, -0.22, -0.183, 0.308, -0.048, 1
1618717, -0.151, 0.055, -0.02, -0.091, 0.373, -0.09, 1
1618737, -0.275, -0.129, 0.046, -0.118, 0.506, -0.037, 1
1618757, -1.16, -0.584, -0.19, -0.346, 0.866, 0.021, 1
1618777, -0.565, 0.181, 0.351, -0.208, 0.906, -0.089, 0
1618797, -1.182, 0.067, 0.359, -0.156, 0.808, -0.152, 0
1618817, -1.735, 0.318, 0.57, 0.056, 0.578, -0.232, 0
1618837, -1.669, -0.128, 0.585, -0.039, 0.168, -0.078, 0
1618857, -2.172, -0.281, -0.001, -0.122, -0.242, -0.02, 0
1618877, -3.603, -0.78, -0.989, -0.34, -0.037, 0.119, 0
1618897, -3.923, 0.348, -1.3, -0.34, 0.387, 0.337, 0
1618917, -3.938, 0.656, -1.318, -0.276, 0.503, 0.628, 0
1618937, -4.282, 0.425, -0.974, -0.274, 0.546, 0.897, 0
1618957, -3.498, -0.171, -0.726, -0.307, 0.444, 0.995, 0
1618977, -2.839, -0.471, -0.363, -0.386, -0.028, 0.953, 0
1618997, -3.148, -0.824, -0.26, -0.425, -0.353, 0.902, 0
1619017, -3.378, -1.206, -0.314, -0.393, -0.373, 0.874, 0
1619037, -2.788, -1.363, -0.682, -0.436, -0.642, 1.044, 0
1619057, -2.155, -2.127, -1.18, -0.558, -0.869, 0.955, 0
1619077, -1.794, -2.02, -1.313, -0.657, -0.922, 0.72, 0
1619097, -1.346, -1.682, -0.918, -0.527, -0.919, 0.627, 0
1619117, -0.491, -1.621, -1.219, -0.387, -1.146, 0.803, 0
1619137, -0.481, -1.36, -1.544, -0.268, -1.332, 1.185, 0
1619157, 0.482, -2.21, -2.15, -0.294, -0.854, 1.073, 0
1619177, 1.098, -1.322, -1.034, -0.115, -0.775, 0.944, 0
1619197, 2.031, -1.53, -0.748, 0.129, -0.803, 0.961, 0
1619217, 2.893, -2.578, -2.299, 0.018, -1.263, 1.291, 0
1619237, 2.237, -2.163, -3.028, -0.342, -1.248, 1.461, 0
1619257, 3.566, -1.612, -2.156, -0.356, -0.615, 1.243, 0
1619277, 4.24, -1.096, -0.516, -0.285, -0.474, 1.436, 0
1619297, 5.471, -1.794, -0.09, -0.053, -0.251, 1.447, 0
1619317, 6.168, -2.142, -0.323, -0.197, -0.535, 1.192, 0
1619337, 4.351, -0.722, 0.139, -0.337, -0.753, 1.04, 0
1619357, 4.046, -0.784, 0.259, -0.205, -0.505, 1.023, 0
1619377, 4.039, -0.76, 0.61, -0.154, -0.346, 1.13, 0
1619397, 4.432, -0.943, 0.583, -0.091, -0.201, 0.971, 0
1619417, 4.681, -0.744, 0.511, -0.21, -0.229, 0.737, 0
1619437, 4.306, 0.024, 0.831, -0.153, -0.224, 0.58, 0
1619457, 4.183, -0.116, 0.689, 0.036, -0.152, 0.541, 0
1619477, 4.052, -0.234, 0.582, 0.175, -0.145, 0.436, 0
1619497, 3.224, -0.724, 0.212, 0.139, -0.105, 0.213, 0
1619517, 2.006, 0.007, 0.335, 0.047, -0.091, 0.017, 0
1619537, 1.093, 0.231, 0.309, 0.086, -0.034, -0.003, 0
1619557, 0.802, 0.057, -0.003, 0.172, 0.093, -0.027, 0
1619577, -0.005, -0.188, -0.575, 0.083, 0.051, -0.096, 0
1619597, -0.993, 0.139, -0.524, -0.1, 0.086, -0.022, 0
1619617, -0.824, 0.169, -0.267, -0.118, 0.255, 0.158, 0
1619637, -0.487, 0.075, 0.239, 0.034, 0.284, 0.226, 0
1619657, -0.065, -0.593, -0.011, -0.036, 0.238, 0.139, 0
1619677, 0.072, -0.391, -0.018, -0.076, 0.185, 0.05, 0
1619697, 0.096, -0.277, -0.164, -0.057, 0.08, 0.028, 0
1619717, -0.072, -0.022, 0.004, 0.031, 0.037, 0.04, 0
1619737, 0.32, 0.07, 0.334, 0.185, 0.014, 0.073, 0
1619757, 1.0, -0.127, 0.268, 0.288, -0.069, 0.053, 0
1619777, 1.389, -0.618, -0.133, 0.13, -0.146, 0.028, 0
1619797, 1.484, -1.025, -0.644, -0.302, -0.13, 0.121, 1
1619817, 1.645, -0.401, -0.879, -0.469, -0.133, 0.172, 1
1619837, 1.989, -0.121, -0.697, -0.501, -0.168, 0.102, 1
1619857, 1.697, -0.28, -0.558, -0.337, -0.091, -0.074, 1
1619877, 1.876, -0.505, -0.698, -0.213, 0.032, -0.14, 1
1619897, 1.747, -1.44, -1.169, -0.278, 0.229, -0.422, 1
1619917, 1.639, -1.117, -0.991, -0.426, 0.275, -0.563, 1
1619937, 0.804, -0.915, -0.644, -0.4, 0.367, -0.707, 1
1619957, 0.76, -0.398, -0.311, -0.312, 0.41, -0.769, 1
1619977, 0.333, 0.037, -0.227, -0.157, 0.407, -0.638, 1
1619997, 0.352, -0.339, -0.325, -0.065, 0.311, -0.446, 1
1620017, 0.392, -1.576, -0.983, -0.246, 0.368, -0.588, 1
1620037, 0.08, -1.329, -0.736, -0.372, 0.557, -0.796, 1
1620057, -0.521, -0.67, -0.392, -0.323, 0.788, -1.043, 1
1620077, -0.448, -0.249, -0.314, -0.263, 0.78, -0.934, 1
1620097, -0.591, -0.5, 0.065, -0.112, 0.705, -0.704, 1
1620117, -0.466, -0.965, 0.337, 0.207, 0.738, -0.766, 1
1620137, -0.381, -1.384, 0.236, 0.141, 0.564, -0.948, 1
1620157, -0.86, -0.992, 0.302, 0.085, 0.488, -1.171, 1
1620177, -1.508, -1.093, -0.085, 0.099, 0.574, -1.261, 1
1620197, -1.914, -0.898, -0.385, 0.111, 0.563, -1.169, 1
1620217, -1.993, -1.035, -0.369, 0.139, 0.514, -1.028, 1
1620237, -2.126, -0.942, -0.306, 0.081, 0.489, -0.996, 1
1620257, -2.608, -0.452, -0.494, 0.004, 0.561, -1.065, 1
1620277, -3.233, 0.064, -0.226, -0.043, 0.616, -0.873, 1
1620297, -2.891, 0.272, -0.046, 0.124, 0.744, -0.545, 1
1620317, -2.105, -0.219, -0.531, 0.332, 0.641, -0.319, 1
1620337, -1.899, -0.794, -1.055, 0.445, 0.413, -0.387, 1
1620357, -1.684, -1.008, -1.038, 0.292, 0.138, -0.426, 1
1620377, -1.824, -1.177, -1.19, 0.116, 0.039, -0.412, 1
1620397, -2.85, -0.818, -1.408, 0.075, 0.227, -0.581, 1
1620417, -3.181, -0.55, -1.172, 0.042, 0.479, -0.47, 1
1620437, -2.59, -0.59, -0.686, -0.025, 0.649, -0.178, 1
1620457, -1.287, -0.623, -0.111, -0.091, 0.624, -0.01, 1
1620477, -0.204, -0.604, -0.062, 0.026, 0.428, -0.091, 1
1620497, -0.746, -0.712, -0.532, 0.119, 0.175, -0.348, 1
1620517, -1.404, -0.552, -0.629, 0.07, 0.064, -0.475, 1
1620537, -1.854, -0.546, -0.496, -0.089, 0.157, -0.376, 1
1620557, -1.976, -0.267, -0.299, -0.19, 0.247, -0.288, 1
1620577, -2.029, -0.189, -0.003, -0.156, 0.194, -0.258, 1
1620597, -1.63, -0.133, 0.355, -0.058, 0.084, -0.22, 1
1620617, -1.035, -0.206, 0.422, -0.021, -0.028, -0.146, 1
1620637, -0.79, -0.288, 0.197, -0.019, -0.158, -0.213, 1
1620657, -1.075, -0.006, -0.107, -0.007, -0.238, -0.16, 1
1620677, -1.297, -0.014, -0.121, -0.045, -0.171, -0.01, 1
1620697, -0.895, 0.014, -0.048, -0.002, -0.054, 0.046, 1
1620717, -0.547, -0.168, -0.17, -0.01, -0.061, 0.134, 1
1620737, -0.09, -0.113, -0.163, -0.028, -0.146, 0.172, 1
1620757, 0.187, -0.17, -0.13, -0.074, -0.182, 0.178, 1
1620777, 0.183, -0.3, -0.254, -0.114, -0.163, 0.158, 1
1620797, 0.118, -0.269, -0.319, -0.16, -0.106, 0.21, 1
1620817, 0.145, -0.102, -0.203, -0.156, -0.011, 0.225, 1
1620837, 0.373, 0.016, -0.021, -0.028, 0.032, 0.128, 1
1620857, 0.472, -0.146, 0.046, 0.044, -0.035, 0.056, 1
1620877, 0.199, -0.261, -0.107, -0.011, -0.072, 0.023, 1
1620897, 0.071, -0.021, -0.061, -0.054, -0.047, 0.073, 1
1620917, 0.108, 0.065, -0.018, -0.006, -0.047, 0.111, 1
1620937, 0.063, 0.121, -0.111, 0.097, -0.039, 0.162, 1
1620957, -0.188, -0.222, -0.31, 0.027, 0.048, 0.318, 1
1620977, -0.169, -0.242, -0.455, -0.105, 0.264, 0.393, 1
1620997, 0.183, -0.217, -0.306, -0.109, 0.357, 0.222, 1
1621017, 0.37, -0.032, -0.013, -0.038, 0.248, 0.106, 1
1621037, 0.341, -0.178, -0.077, -0.037, -0.001, 0.075, 1
1621057, 0.024, -0.04, -0.101, -0.04, -0.084, -0.009, 1
1621077, -0.145, -0.108, -0.153, -0.036, 0.025, -0.068, 1
1621097, -0.06, -0.089, -0.267, -0.089, 0.089, -0.101, 1
1621117, 0.037, -0.017, -0.319, -0.134, 0.019, -0.086, 1
1621137, -0.062, 0.115, -0.115, -0.077, 0.08, -0.082, 1
1621157, 0.011, -0.012, -0.06, 0.044, 0.133, -0.069, 1
1621177, -0.005, -0.262, -0.148, -0.007, 0.139, -0.036, 1
1621197, 0.083, -0.092, -0.184, -0.113, 0.135, -0.048, 1
1621217, -0.124, 0.043, -0.054, -0.124, 0.069, -0.097, 1
1621237, -0.077, 0.147, 0.11, 0.038, 0.056, -0.139, 1
1621257, -0.099, -0.238, 0.019, 0.239, 0.045, -0.166, 1
1621277, -0.598, -0.809, -0.395, 0.133, 0.087, -0.197, 1
1621297, -0.789, -0.217, -0.247, -0.11, 0.361, -0.223, 0
1621317, -0.475, 0.349, 0.245, -0.101, 0.481, -0.163, 0
1621337, -0.553, 0.103, 0.462, 0.187, 0.334, -0.149, 0
1621357, -1.591, -0.35, -0.098, 0.351, 0.185, -0.178, 0
1621377, -2.955, 0.13, -0.206, 0.178, 0.448, -0.124, 0
1621397, -3.3, 0.078, -0.371, 0.032, 0.8, 0.103, 0
1621417, -2.951, -0.229, -0.554, -0.126, 0.662, 0.235, 0
1621437, -3.7, -0.069, -0.461, -0.304, 0.098, 0.188, 0
1621457, -5.295, -0.037, -0.53, -0.357, -0.309, 0.211, 0
1621477, -6.276, 0.081, -0.475, -0.359, -0.207, 0.293, 0
1621497, -6.063, -0.062, -0.315, -0.28, -0.058, 0.581, 0
1621517, -5.273, -0.756, -0.653, -0.141, -0.106, 0.746, 0
1621537, -4.372, -1.51, -1.403, -0.265, -0.278, 0.788, 0
1621557, -3.663, -1.408, -1.369, -0.398, -0.556, 0.804, 0
1621577, -3.259, -1.547, -1.692, -0.493, -0.734, 1.134, 0
1621597, -2.68, -1.583, -1.646, -0.487, -0.602, 1.21, 0
1621617, -1.551, -2.052, -1.748, -0.444, -0.436, 0.902, 0
1621637, 0.507, -2.544, -1.625, -0.537, -0.75, 0.551, 0
1621657, 0.678, -1.99, -1.376, -0.728, -1.304, 0.879, 0
1621677, -0.053, -1.156, -1.63, -0.601, -1.191, 1.353, 0
1621697, 0.455, -1.459, -1.933, -0.346, -0.725, 1.593, 0
1621717, 1.943, -2.051, -1.691, -0.224, -0.511, 1.569, 0
1621737, 2.959, -1.933, -0.995, -0.15, -0.446, 1.371, 0
1621757, 4.066, -2.105, -0.492, -0.169, -0.785, 1.506, 0
1621777, 3.232, -1.623, 0.046, -0.144, -0.935, 1.735, 0
1621797, 3.902, -2.331, -0.538, -0.139, -0.724, 1.638, 0
1621817, 4.501, -2.408, -0.35, -0.257, -0.659, 1.533, 0
1621837, 5.274, -1.614, 0.526, -0.144, -0.565, 1.485, 0
1621857, 6.823, -1.699, 1.413, -0.001, -0.692, 1.354, 0
1621877, 7.001, -0.979, 1.141, 0.266, -0.985, 1.1, 0
1621897, 6.449, -1.504, -0.483, 0.291, -0.932, 0.74, 0
1621917, 5.602, -0.939, -1.147, 0.224, -0.503, 0.458, 0
1621937, 5.084, -0.359, -1.153, 0.116, -0.327, 0.327, 0
1621957, 3.861, 0.158, -0.589, 0.051, -0.24, 0.363, 0
1621977, 3.485, 0.102, -0.148, 0.064, -0.054, 0.334, 0
1621997, 2.883, -0.329, -0.318, -0.082, -0.035, 0.12, 0
1622017, 1.087, 0.109, 0.068, -0.158, 0.013, 0.004, 0
1622037, 0.068, 0.223, 0.345, -0.167, 0.136, 0.149, 0
1622057, 0.371, 0.208, 0.513, -0.066, 0.179, 0.197, 0
1622077, 0.726, -0.194, 0.177, -0.034, -0.001, 0.069, 0
1622097, -0.043, -0.275, -0.423, -0.089, 0.02, 0.037, 0
1622117, -0.114, -0.08, -0.198, -0.125, 0.054, 0.1, 0
1622137, 0.039, -0.088, -0.101, -0.072, 0.091, 0.126, 0
1622157, 0.27, -0.224, -0.071, -0.017, 0.105, 0.117, 0
1622177, 0.598, -0.676, -0.082, -0.083, 0.095, 0.101, 0
1622197, 0.542, -0.982, -0.552, -0.441, 0.065, 0.136, 1
1622217, 0.242, -0.508, -0.404, -0.847, -0.017, 0.202, 1
1622237, 0.029, 0.232, -0.373, -1.072, 0.039, 0.257, 1
1622257, 0.503, 0.02, -0.249, -0.789, 0.128, 0.141, 1
1622277, 0.57, -0.329, -0.267, -0.498, 0.098, 0.02, 1
1622297, 0.66, -0.372, -0.329, -0.354, 0.11, -0.083, 1
1622317, 0.944, -0.246, -0.414, -0.313, 0.141, -0.129, 1
1622337, 1.189, -0.403, -0.391, -0.334, 0.105, -0.152, 1
1622357, 1.23, -0.44, -0.24, -0.266, 0.164, -0.263, 1
1622377, 1.376, -0.467, -0.108, -0.202, 0.284, -0.303, 1
1622397, 1.501, -0.553, 0.093, -0.145, 0.309, -0.343, 1
1622417, 1.701, -1.065, 0.143, -0.039, 0.271, -0.437, 1
1622437, 1.183, -1.028, 0.175, -0.037, 0.164, -0.448, 1
1622457, 0.521, -0.853, 0.173, 0.002, 0.196, -0.524, 1
1622477, 0.394, -0.725, 0.162, 0.058, 0.197, -0.6, 1
1622497, -0.002, -0.503, 0.189, 0.191, 0.064, -0.563, 1
1622517, -0.408, -0.519, 0.401, 0.436, -0.045, -0.347, 1
1622537, -0.455, -0.453, 0.507, 0.606, -0.093, -0.07, 1
1622557, -0.448, -0.839, 0.29, 0.731, -0.202, -0.073, 1
1622577, -0.395, -1.983, -0.589, 0.702, -0.237, -0.544, 1
1622597, -0.809, -2.464, -1.08, 0.25, 0.109, -0.965, 1
1622617, -1.509, -1.263, -1.117, -0.101, 0.394, -1.121, 1
1622637, -2.397, -0.249, -1.072, -0.239, 0.546, -1.016, 1
1622657, -2.335, 0.111, -0.529, -0.259, 0.685, -0.714, 1
1622677, -1.237, -0.226, -0.002, -0.022, 0.744, -0.596, 1
1622697, -0.908, -0.3, -0.527, 0.3, 0.656, -0.914, 1
1622717, -1.303, -0.839, -1.073, 0.212, 0.499, -0.936, 1
1622737, -2.083, -1.103, -1.045, -0.089, 0.628, -0.9, 1
1622757, -2.159, -0.602, -0.718, -0.191, 0.841, -1.016, 1
1622777, -2.192, -0.249, -0.674, -0.073, 0.785, -1.078, 1
1622797, -2.625, -0.411, -0.666, -0.016, 0.565, -0.962, 1
1622817, -2.659, -0.71, -0.472, -0.069, 0.51, -0.803, 1
1622837, -3.061, -0.77, -0.907, -0.136, 0.589, -0.832, 1
1622857, -3.519, -0.949, -1.258, -0.359, 0.615, -0.683, 1
1622877, -3.429, -1.057, -0.798, -0.51, 0.666, -0.541, 1
1622897, -2.519, -0.661, -0.102, -0.43, 0.64, -0.431, 1
1622917, -2.371, -0.59, 0.139, -0.185, 0.481, -0.468, 1
1622937, -2.626, -0.494, -0.016, -0.033, 0.383, -0.47, 1
1622957, -2.44, -0.826, -0.17, -0.032, 0.32, -0.417, 1
1622977, -2.141, -1.062, -0.306, -0.139, 0.324, -0.439, 1
1622997, -2.165, -0.853, -0.356, -0.24, 0.286, -0.437, 1
1623017, -2.396, -0.307, -0.181, -0.224, 0.262, -0.41, 1
1623037, -2.068, -0.188, 0.124, -0.098, 0.211, -0.302, 1
1623057, -1.376, -0.389, 0.258, -0.007, 0.026, -0.23, 1
1623077, -1.244, -0.646, -0.105, -0.023, -0.036, -0.296, 1
1623097, -1.046, -0.679, 0.067, -0.113, -0.047, -0.243, 1
1623117, -0.542, -0.524, 0.17, -0.159, -0.004, -0.18, 1
1623137, -0.28, -0.486, 0.126, -0.135, -0.02, -0.108, 1
1623157, -0.528, -0.553, 0.005, -0.063, -0.097, -0.097, 1
1623177, -0.69, -0.588, -0.144, 0.018, -0.105, -0.151, 1
1623197, -0.723, -0.447, -0.031, -0.032, -0.078, -0.15, 1
1623217, -0.455, -0.144, 0.125, -0.097, 0.021, -0.096, 1
1623237, -0.123, -0.006, 0.036, -0.069, 0.009, -0.037, 1
1623257, 0.05, 0.068, -0.046, 0.019, -0.09, -0.017, 1
1623277, 0.094, -0.101, -0.207, 0.069, -0.139, 0.031, 1
1623297, 0.231, -0.215, -0.437, 0.021, -0.097, 0.053, 1
1623317, 0.198, -0.151, -0.543, -0.081, -0.016, 0.068, 1
1623337, 0.356, -0.033, -0.419, -0.135, 0.051, 0.083, 1
1623357, 0.485, 0.002, -0.265, -0.07, 0.043, 0.042, 1
1623377, 0.436, -0.201, -0.295, -0.023, -0.004, 0.052, 1
1623397, 0.279, -0.296, -0.362, -0.036, -0.003, 0.041, 1
1623417, 0.039, -0.242, -0.428, -0.1, 0.032, 0.043, 1
1623437, 0.018, -0.075, -0.28, -0.103, 0.078, 0.032, 1
1623457, -0.023, -0.086, -0.111, -0.072, 0.102, 0.051, 1
1623477, 0.058, -0.152, -0.062, -0.021, 0.116, 0.041, 1
1623497, -0.051, -0.189, -0.138, -0.048, 0.096, 0.035, 1
1623517, -0.136, -0.123, -0.136, -0.098, 0.102, 0.0, 1
1623537, -0.243, 0.018, -0.075, 0.003, 0.122, -0.053, 1
1623557, -0.479, -0.104, -0.17, 0.072, 0.232, -0.064, 1
1623577, -0.637, -0.192, -0.139, 0.071, 0.233, -0.088, 1
1623597, -0.73, 0.075, 0.069, 0.146, 0.17, -0.083, 1
1623617, -1.146, 0.316, 0.306, 0.327, 0.21, -0.114, 1
1623637, -1.69, 0.451, 0.2, 0.474, 0.366, -0.088, 0
1623657, -1.734, 0.208, -0.172, 0.396, 0.418, -0.024, 0
1623677, -2.157, -0.648, -0.583, 0.062, 0.335, 0.012, 0
1623697, -2.395, -0.574, -0.347, -0.213, 0.199, 0.081, 0
1623717, -2.708, 0.046, 0.448, -0.08, 0.13, 0.211, 0
1623737, -3.601, -0.583, 0.134, -0.127, 0.278, 0.379, 0
1623757, -4.428, -0.578, -0.621, -0.33, 0.432, 0.472, 0
1623777, -4.647, -0.498, -1.025, -0.581, 0.382, 0.519, 0
1623797, -4.115, -0.459, -0.665, -0.742, 0.102, 0.469, 0
1623817, -3.791, 0.012, -0.011, -0.583, -0.248, 0.544, 0
1623837, -3.634, -0.715, -0.321, -0.521, -0.415, 0.689, 0
1623857, -3.67, -1.61, -1.478, -0.742, -0.317, 0.805, 0
1623877, -3.034, -1.175, -1.632, -0.881, -0.412, 1.09, 0
1623897, -1.628, -0.808, -1.049, -0.591, -0.572, 1.217, 0
1623917, -0.35, -1.464, -1.169, -0.444, -0.784, 1.316, 0
1623937, 0.794, -2.52, -1.524, -0.524, -0.773, 1.127, 0
1623957, 1.993, -2.777, -1.743, -0.618, -0.628, 0.746, 0
1623977, 3.016, -2.056, -1.216, -0.385, -0.817, 0.691, 0
1623997, 2.969, -2.444, -1.58, -0.466, -1.106, 1.101, 0
1624017, 2.584, -2.174, -1.607, -0.558, -0.781, 1.045, 0
1624037, 2.782, -1.509, -0.964, -0.513, -0.613, 1.114, 0
1624057, 3.343, -0.988, -0.979, -0.139, -0.536, 1.045, 0
1624077, 3.891, -2.16, -1.715, -0.095, -0.481, 1.014, 0
1624097, 2.953, -1.325, -1.365, -0.513, -0.513, 1.213, 0
1624117, 2.869, -0.828, -0.507, -0.623, -0.311, 1.28, 0
1624137, 2.676, -0.584, 0.322, -0.577, -0.192, 1.361, 0
1624157, 2.955, -0.642, 1.002, -0.368, -0.109, 1.362, 0
1624177, 2.915, -1.227, 1.069, -0.248, -0.204, 1.244, 0
1624197, 2.861, -0.821, 1.55, -0.349, -0.25, 1.185, 0
1624217, 4.163, -0.227, 1.751, -0.181, -0.184, 1.122, 0
1624237, 5.007, -0.296, 0.754, 0.1, -0.406, 0.885, 0
1624257, 3.896, -0.404, -0.169, 0.251, -0.653, 0.593, 0
1624277, 3.127, -0.766, -0.717, 0.182, -0.403, 0.431, 0
1624297, 3.085, -0.194, -0.685, -0.051, -0.098, 0.383, 0
1624317, 2.613, 0.225, -0.371, -0.069, -0.042, 0.282, 0
1624337, 2.181, 0.084, -0.242, -0.05, -0.045, 0.262, 0
1624357, 1.658, 0.021, -0.321, -0.073, -0.015, 0.162, 0
1624377, 0.672, -0.13, -0.322, -0.162, -0.019, 0.054, 0
1624397, 0.078, 0.06, 0.099, -0.238, 0.127, 0.054, 0
1624417, 0.274, 0.112, 0.346, -0.213, 0.264, 0.069, 0
1624437, 0.01, -0.054, 0.195, -0.157, 0.108, 0.022, 0
1624457, -0.729, -0.172, -0.12, -0.14, 0.007, 0.006, 0
1624477, -0.986, -0.287, -0.25, -0.159, 0.083, 0.051, 0
1624497, -1.035, -0.187, 0.144, -0.182, 0.165, 0.144, 0
1624517, -0.303, -0.359, 0.476, -0.07, 0.26, 0.207, 0
1624537, 0.698, -0.559, 0.593, -0.009, 0.076, 0.119, 0
1624557, 0.738, -0.806, 0.388, -0.028, -0.041, -0.004, 0
1624577, 0.308, -1.205, -0.02, -0.313, -0.059, -0.001, 0
1624597, 0.161, -1.317, -0.433, -0.875, 0.038, 0.24, 1
1624617, 0.426, -0.768, -0.759, -1.001, 0.023, 0.325, 1
1624637, 0.124, -0.034, -0.809, -0.797, 0.024, 0.081, 1
1624657, -0.065, 0.124, -0.544, -0.475, 0.054, 0.0, 1
1624677, -0.189, -0.266, -0.136, -0.194, 0.149, -0.053, 1
1624697, 0.913, -0.249, -0.089, -0.111, 0.259, -0.009, 1
1624717, 1.682, -0.604, 0.147, -0.015, 0.259, -0.183, 1
1624737, 2.149, -0.735, 0.163, 0.083, 0.193, -0.368, 1
1624757, 2.451, -1.182, -0.104, 0.031, 0.101, -0.552, 1
1624777, 2.341, -1.192, -0.438, -0.1, 0.057, -0.74, 1
1624797, 1.507, -0.946, -0.518, -0.175, 0.125, -0.791, 1
1624817, 0.789, -0.636, -0.167, -0.108, 0.354, -0.771, 1
1624837, 0.513, -0.372, -0.332, 0.019, 0.486, -0.686, 1
1624857, 0.824, -0.793, -0.505, 0.04, 0.486, -0.715, 1
1624877, 0.342, -1.041, -0.495, -0.088, 0.601, -0.846, 1
1624897, 0.178, -0.774, 0.055, -0.13, 0.725, -0.894, 1
1624917, 0.248, -0.187, 0.346, -0.037, 0.598, -0.929, 1
1624937, 0.106, -0.444, -0.093, 0.116, 0.357, -0.945, 1
1624957, -0.279, -0.6, -0.257, 0.19, 0.233, -0.886, 1
1624977, -0.639, -0.983, -0.429, 0.089, 0.342, -0.874, 1
1624997, -1.485, -0.225, -0.722, -0.014, 0.436, -0.782, 1
1625017, -1.943, -0.082, -0.431, 0.15, 0.455, -0.74, 1
1625037, -1.763, -0.462, -0.328, 0.371, 0.627, -0.485, 1
1625057, -1.419, -0.865, -0.624, 0.542, 0.821, -0.42, 1
1625077, -1.804, -1.24, -0.904, 0.405, 0.72, -0.693, 1
1625097, -1.971, -0.531, -0.718, -0.001, 0.51, -0.648, 1
1625117, -1.869, -0.429, -0.434, -0.094, 0.425, -0.534, 1
1625137, -2.566, -0.527, -1.072, 0.201, 0.422, -0.677, 1
1625157, -3.09, -0.815, -1.141, 0.388, 0.344, -0.522, 1
1625177, -2.925, -1.449, -0.818, 0.449, 0.436, -0.42, 1
1625197, -2.008, -1.392, -0.423, 0.362, 0.559, -0.381, 1
1625217, -1.899, -1.33, -0.616, 0.357, 0.447, -0.535, 1
1625237, -2.843, -0.892, -0.785, 0.241, 0.124, -0.651, 1
1625257, -3.22, -0.533, -0.665, 0.125, 0.082, -0.536, 1
1625277, -2.545, -0.771, -0.822, 0.165, 0.29, -0.415, 1
1625297, -2.552, -0.945, -1.255, 0.166, 0.365, -0.455, 1
1625317, -2.542, -0.985, -1.103, -0.012, 0.309, -0.337, 1
1625337, -2.045, -0.925, -0.457, -0.23, 0.361, -0.231, 1
1625357, -1.504, -0.304, 0.147, -0.218, 0.367, -0.219, 1
1625377, -1.493, -0.445, -0.031, 0.002, 0.163, -0.296, 1
1625397, -2.214, -0.679, -0.421, 0.017, -0.061, -0.282, 1
1625417, -2.048, -0.535, -0.286, -0.101, 0.009, -0.182, 1
1625437, -1.727, -0.155, -0.029, -0.124, 0.132, -0.147, 1
1625457, -1.587, -0.068, -0.093, -0.006, 0.155, -0.197, 1
1625477, -1.358, -0.216, -0.222, 0.028, 0.032, -0.059, 1
1625497, -1.098, -0.328, -0.173, 0.061, -0.039, -0.045, 1
1625517, -1.071, -0.466, -0.214, -0.017, 0.015, 0.05, 1
1625537, -0.654, -0.244, -0.002, -0.015, 0.025, 0.151, 1
1625557, -0.312, -0.189, 0.047, 0.117, -0.036, 0.106, 1
1625577, -0.073, -0.349, 0.001, 0.154, -0.091, 0.124, 1
1625597, -0.021, -0.677, -0.166, 0.034, -0.052, 0.075, 1
1625617, -0.101, -0.512, -0.22, -0.093, 0.036, 0.02, 1
1625637, 0.082, -0.134, -0.169, -0.078, 0.029, -0.034, 1
1625657, -0.038, -0.024, -0.068, -0.052, 0.01, -0.016, 1
1625677, 0.045, -0.002, 0.074, -0.047, -0.013, 0.015, 1
1625697, 0.255, -0.036, 0.09, -0.053, -0.012, 0.086, 1
1625717, 0.251, 0.06, -0.111, 0.011, 0.034, 0.076, 1
1625737, 0.126, 0.002, -0.331, 0.018, 0.079, 0.096, 1
1625757, 0.172, -0.034, -0.295, 0.059, 0.068, 0.055, 1
1625777, 0.069, -0.306, -0.419, -0.019, 0.072, 0.028, 1
1625797, 0.126, -0.376, -0.469, -0.188, 0.102, 0.038, 1
1625817, 0.277, -0.197, -0.176, -0.276, 0.18, 0.067, 1
1625837, 0.057, 0.025, 0.053, -0.169, 0.211, 0.128, 1
1625857, -0.019, -0.011, -0.093, -0.04, 0.135, 0.101, 1
1625877, -0.265, -0.226, -0.174, -0.051, 0.084, 0.094, 1
1625897, -0.231, -0.259, 0.066, -0.103, 0.077, 0.071, 1
1625917, -0.132, -0.177, 0.198, -0.12, 0.056, 0.021, 1
1625937, -0.128, -0.115, 0.165, -0.124, 0.008, 0.009, 1
1625957, 0.036, -0.17, -0.045, -0.084, -0.102, -0.07, 1
1625977, 0.021, 0.057, -0.184, 0.015, -0.023, -0.121, 1
1625997, -0.415, -0.068, -0.27, -0.093, 0.215, -0.066, 1
1626017, -0.349, 0.312, -0.048, -0.069, 0.193, -0.071, 1
1626037, -0.126, 0.056, -0.054, 0.061, 0.049, -0.056, 1
1626057, -0.276, -0.282, -0.309, 0.103, -0.059, -0.105, 1
1626077, -0.766, -0.41, -0.646, -0.033, 0.0, -0.142, 1
1626097, -0.798, 0.051, -0.458, -0.151, 0.124, -0.207, 1
1626117, -1.107, 0.652, -0.145, -0.016, 0.186, -0.255, 1
1626137, -1.405, 0.604, 0.004, 0.266, 0.246, -0.158, 1
1626157, -1.833, -0.107, -0.52, 0.277, 0.277, -0.002, 1
1626177, -2.482, -0.162, -0.568, -0.016, 0.25, 0.073, 1
1626197, -3.277, 0.476, 0.077, -0.185, 0.277, 0.121, 0
1626217, -3.058, 0.251, 0.588, -0.018, 0.197, 0.285, 0
1626237, -2.939, -0.564, 0.564, 0.107, -0.147, 0.352, 0
1626257, -3.681, -1.117, 0.343, -0.087, -0.382, 0.403, 0
1626277, -4.456, -0.491, 0.3, -0.397, -0.317, 0.507, 0
1626297, -4.138, -0.577, -0.156, -0.426, -0.359, 0.817, 0
1626317, -3.992, -0.528, -0.182, -0.278, -0.505, 1.026, 0
1626337, -3.755, -1.084, -0.45, 0.003, -0.447, 1.199, 0
1626357, -2.891, -1.544, -0.698, -0.025, -0.266, 1.313, 0
1626377, -1.808, -1.561, -0.823, -0.167, -0.428, 1.336, 0
1626397, -1.204, -1.858, -1.111, -0.24, -0.864, 1.321, 0
1626417, -0.779, -2.29, -1.61, -0.212, -1.032, 1.175, 0
1626437, -0.464, -2.264, -1.917, -0.308, -0.995, 1.285, 0
1626457, -0.197, -2.067, -1.97, -0.394, -0.916, 1.489, 0
1626477, 0.372, -2.291, -2.079, -0.508, -0.733, 1.485, 0
1626497, 1.731, -1.986, -1.21, -0.473, -0.976, 1.37, 0
1626517, 2.087, -1.9, -1.189, -0.251, -1.157, 1.291, 0
1626537, 2.231, -2.816, -2.445, -0.412, -1.044, 1.35, 0
1626557, 2.427, -2.093, -2.477, -0.431, -0.781, 1.435, 0
1626577, 3.604, -2.086, -2.227, -0.383, -0.616, 1.354, 0
1626597, 4.132, -2.04, -1.701, -0.339, -0.612, 1.229, 0
1626617, 3.797, -1.644, -1.259, -0.251, -0.518, 1.149, 0
1626637, 4.152, -1.716, -0.697, -0.251, -0.467, 1.291, 0
1626657, 4.931, -1.69, -0.312, -0.255, -0.463, 1.15, 0
1626677, 4.637, -1.5, -0.319, -0.21, -0.472, 0.921, 0
1626697, 3.632, -1.321, -0.895, -0.244, -0.453, 0.879, 0
1626717, 2.82, -0.961, -0.616, -0.261, -0.144, 0.96, 0
1626737, 3.617, -0.823, 0.343, -0.2, -0.012, 0.979, 0
1626757, 4.003, -0.75, 0.663, -0.045, -0.192, 0.783, 0
1626777, 3.575, -1.125, 0.1, -0.024, -0.307, 0.589, 0
1626797, 3.114, -0.936, -0.057, -0.059, -0.133, 0.547, 0
1626817, 3.686, -0.865, 0.17, -0.058, -0.014, 0.401, 0
1626837, 3.615, -0.697, 0.051, -0.047, -0.097, 0.12, 0
1626857, 2.179, -0.358, -0.178, -0.081, -0.174, -0.004, 0
1626877, 0.936, -0.067, 0.124, -0.067, 0.037, 0.052, 0
1626897, 0.801, -0.222, 0.006, -0.126, 0.098, 0.048, 0
1626917, 0.161, -0.121, -0.151, -0.183, 0.135, 0.059, 0
1626937, -0.099, -0.023, -0.181, -0.163, 0.247, 0.135, 0
1626957, -0.022, -0.102, 0.006, -0.155, 0.231, 0.081, 0
1626977, -0.452, -0.139, 0.057, -0.166, 0.169, 0.054, 0
1626997, -0.436, -0.08, 0.087, -0.16, 0.199, 0.103, 0
1627017, 0.08, -0.372, -0.191, -0.122, 0.209, 0.152, 0
1627037, 0.165, -0.547, -0.326, -0.186, 0.149, 0.131, 0
1627057, 0.262, -0.548, -0.536, -0.329, 0.136, 0.138, 0
1627077, 0.574, -0.49, -0.48, -0.479, 0.07, 0.16, 1
1627097, 0.991, -0.083, -0.445, -0.545, 0.045, 0.184, 1
1627117, 1.221, -0.066, -0.488, -0.481, 0.059, 0.126, 1
1627137, 1.52, -0.287, -0.777, -0.327, 0.083, 0.037, 1
1627157, 2.176, -0.643, -1.41, -0.362, 0.153, -0.07, 1
1627177, 2.006, -0.709, -1.101, -0.359, 0.114, -0.298, 1
1627197, 1.716, -0.94, -0.864, -0.439, 0.204, -0.295, 1
1627217, 1.809, -0.837, -0.333, -0.398, 0.339, -0.288, 1
1627237, 2.123, -0.636, 0.249, -0.221, 0.342, -0.291, 1
1627257, 1.986, -1.093, -0.123, 0.042, 0.296, -0.388, 1
1627277, 1.71, -1.578, -0.279, 0.031, 0.372, -0.657, 1
1627297, 1.345, -0.93, -0.143, -0.142, 0.36, -0.773, 1
1627317, 0.273, -0.416, -0.032, -0.15, 0.282, -0.679, 1
1627337, -0.364, -0.385, 0.396, -0.067, 0.335, -0.442, 1
1627357, 0.352, -0.825, 0.323, 0.204, 0.546, -0.399, 1
1627377, 0.719, -2.08, -0.562, 0.29, 0.698, -0.698, 1
1627397, 0.079, -1.919, -0.866, -0.026, 0.88, -1.197, 1
1627417, -0.556, -0.645, -0.553, -0.33, 0.83, -1.492, 1
1627437, -1.526, 0.154, -0.16, -0.346, 0.612, -1.331, 1
1627457, -1.656, 0.43, 0.079, 0.06, 0.566, -1.024, 1
1627477, -1.956, -0.246, -0.934, 0.412, 0.596, -1.084, 1
1627497, -2.227, -1.204, -1.832, 0.304, 0.69, -1.123, 1
1627517, -2.529, -1.652, -1.747, -0.001, 0.949, -1.205, 1
1627537, -2.159, -1.174, -1.013, -0.175, 1.018, -1.291, 1
1627557, -2.511, -0.487, -0.485, -0.139, 0.837, -1.217, 1
1627577, -3.049, -0.044, -0.261, 0.075, 0.601, -1.061, 1
1627597, -3.127, -0.025, -0.219, 0.329, 0.401, -0.808, 1
1627617, -3.746, -0.489, -0.544, 0.456, 0.371, -0.69, 1
1627637, -3.79, -0.64, -0.537, 0.417, 0.409, -0.544, 1
1627657, -3.106, -1.079, -0.268, 0.279, 0.373, -0.494, 1
1627677, -2.472, -1.306, -0.019, 0.211, 0.306, -0.54, 1
1627697, -2.45, -1.232, -0.329, 0.205, 0.24, -0.643, 1
1627717, -2.955, -1.094, -0.691, 0.163, 0.227, -0.594, 1
1627737, -3.435, -1.093, -0.805, 0.016, 0.383, -0.4, 1
1627757, -2.855, -0.786, -0.412, -0.017, 0.514, -0.264, 1
1627777, -2.117, -0.662, -0.074, 0.08, 0.455, -0.219, 1
1627797, -1.849, -0.774, 0.1, 0.087, 0.27, -0.139, 1
1627817, -1.352, -0.711, 0.452, 0.004, 0.138, -0.103, 1
1627837, -1.49, -0.694, 0.056, -0.07, 0.084, -0.124, 1
1627857, -2.101, -0.562, -0.321, -0.066, 0.169, -0.152, 1
1627877, -2.323, -0.448, -0.613, -0.045, 0.287, -0.128, 1
1627897, -2.105, -0.679, -0.102, -0.091, 0.332, -0.11, 1
1627917, -1.446, -0.067, 0.114, -0.035, 0.25, -0.046, 1
1627937, -1.522, -0.057, -0.085, 0.083, 0.143, -0.072, 1
1627957, -1.042, -0.697, -0.175, 0.011, 0.136, -0.029, 1
1627977, -0.552, -0.764, -0.109, -0.056, 0.142, -0.08, 1
1627997, -0.423, -0.642, -0.114, -0.149, 0.073, -0.128, 1
1628017, -0.363, -0.461, -0.069, -0.166, 0.017, -0.182, 1
1628037, -0.323, -0.035, 0.224, -0.108, 0.0, -0.172, 1
1628057, 0.011, 0.062, 0.207, 0.039, 0.021, -0.084, 1
1628077, 0.07, -0.187, -0.311, 0.115, -0.021, -0.024, 1
1628097, 0.125, -0.474, -0.587, 0.051, 0.002, -0.057, 1
1628117, 0.364, -0.374, -0.351, -0.075, 0.072, -0.072, 1
1628137, 0.516, -0.197, -0.07, -0.075, 0.112, -0.102, 1
1628157, 0.25, -0.209, -0.041, -0.001, 0.069, -0.094, 1
1628177, -0.095, -0.121, -0.249, 0.059, 0.069, -0.087, 1
1628197, -0.037, -0.22, -0.225, -0.025, 0.145, -0.011, 1
1628217, 0.349, -0.147, -0.125, -0.153, 0.156, 0.016, 1
1628237, 0.353, 0.121, -0.057, -0.12, 0.067, -0.07, 1
1628257, -0.225, 0.014, -0.257, 0.007, -0.011, -0.122, 1
1628277, -0.45, -0.224, -0.514, 0.043, 0.039, -0.076, 1
1628297, -0.035, -0.218, -0.413, -0.083, 0.149, -0.008, 1
1628317, 0.081, -0.157, -0.388, -0.252, 0.162, 0.041, 1
1628337, -0.173, 0.078, -0.314, -0.296, 0.111, 0.04, 1
1628357, -0.172, -0.034, -0.026, -0.073, 0.099, -0.01, 1
1628377, -0.066, -0.237, 0.075, 0.001, 0.161, -0.003, 1
1628397, 0.342, -0.267, 0.246, -0.059, 0.182, -0.006, 1
1628417, 0.113, -0.152, -0.022, -0.17, 0.057, -0.028, 1
1628437, -0.086, 0.067, -0.078, -0.029, -0.039, -0.044, 1
1628457, -0.227, 0.116, -0.046, 0.109, 0.117, -0.075, 1
1628477, 0.032, -0.344, -0.112, 0.122, 0.222, -0.091, 1
1628497, 0.008, -0.863, -0.535, -0.137, 0.229, -0.098, 1
1628517, -0.284, -0.316, -0.396, -0.177, 0.263, -0.215, 1
1628537, -0.541, -0.066, 0.035, -0.044, 0.36, -0.221, 0
1628557, -0.654, -0.034, 0.074, 0.057, 0.48, -0.177, 0
1628577, -1.003, 0.315, 0.133, 0.26, 0.422, -0.131, 0
1628597, -2.385, 0.214, -0.06, 0.278, 0.447, -0.144, 0
1628617, -3.377, -0.009, -0.07, 0.158, 0.499, 0.003, 0
1628637, -3.799, 0.15, -0.335, 0.007, 0.378, 0.202, 0
1628657, -4.421, 0.241, -0.47, -0.142, 0.184, 0.332, 0
1628677, -4.97, 0.406, -0.535, -0.204, 0.001, 0.354, 0
1628697, -5.613, 0.521, -0.511, -0.168, -0.136, 0.466, 0
1628717, -5.587, 0.105, -0.544, -0.156, -0.255, 0.663, 0
1628737, -5.161, -0.641, -0.942, -0.347, -0.409, 0.845, 0
1628757, -4.395, -0.549, -1.048, -0.407, -0.646, 0.97, 0
1628777, -3.656, -1.065, -1.451, -0.403, -0.781, 1.076, 0
1628797, -2.395, -1.49, -1.496, -0.409, -0.935, 1.153, 0
1628817, -1.433, -1.716, -1.493, -0.316, -0.925, 0.959, 0
1628837, -0.817, -2.694, -2.253, -0.5, -1.059, 1.003, 0
1628857, -0.916, -2.044, -1.691, -0.649, -1.227, 1.111, 0
1628877, -0.278, -1.486, -0.892, -0.363, -1.169, 1.174, 0
1628897, 0.588, -2.326, -1.76, -0.295, -1.207, 1.338, 0
1628917, 1.138, -3.125, -2.36, -0.616, -0.745, 0.855, 0
1628937, 2.297, -1.652, -0.713, -0.56, -0.81, 1.053, 0
1628957, 3.008, -1.669, -0.92, -0.296, -0.951, 1.427, 0
1628977, 3.787, -2.775, -1.86, -0.135, -0.953, 1.666, 0
1628997, 4.027, -2.514, -1.578, -0.251, -0.665, 1.557, 0
1629017, 4.789, -1.93, -0.773, -0.213, -0.291, 1.505, 0
1629037, 5.315, -2.144, -0.473, -0.208, -0.41, 1.618, 0
1629057, 4.911, -1.793, 0.114, -0.24, -0.572, 1.477, 0
1629077, 5.073, -1.321, 0.783, -0.191, -0.525, 1.436, 0
1629097, 6.34, -1.445, 0.695, -0.051, -0.363, 1.254, 0
1629117, 6.526, -0.977, 0.055, 0.036, -0.505, 0.906, 0
1629137, 5.305, -0.547, -0.447, 0.122, -0.632, 0.693, 0
1629157, 4.812, -0.83, -0.729, 0.051, -0.425, 0.645, 0
1629177, 4.636, -0.488, -0.576, -0.081, -0.155, 0.439, 0
1629197, 3.49, -0.155, -0.356, -0.145, -0.083, 0.201, 0
1629217, 2.217, 0.161, -0.098, -0.183, -0.026, 0.118, 0
1629237, 1.01, 0.084, 0.128, -0.208, 0.039, 0.156, 0
1629257, 0.24, -0.01, 0.465, -0.265, 0.122, 0.2, 0
1629277, 0.118, 0.237, 0.918, -0.224, 0.216, 0.261, 0
1629297, 0.412, -0.209, 0.683, -0.087, 0.221, 0.289, 0
1629317, 0.197, -0.356, 0.239, -0.027, 0.142, 0.222, 0
1629337, -0.074, -0.365, -0.001, -0.04, 0.139, 0.23, 0
1629357, 0.121, -0.408, -0.063, -0.045, 0.214, 0.227, 0
1629377, 0.306, -0.387, -0.03, -0.102, 0.201, 0.24, 0
1629397, 0.609, -0.688, -0.264, -0.394, 0.174, 0.298, 1
1629417, 0.593, -0.281, -0.429, -0.464, 0.068, 0.27, 1
1629437, 0.37, -0.049, -0.276, -0.475, 0.12, 0.167, 1
1629457, 0.522, 0.01, -0.142, -0.359, 0.106, 0.116, 1
1629477, 0.701, -0.038, -0.15, -0.26, 0.124, 0.098, 1
1629497, 1.312, -0.131, -0.38, -0.181, 0.131, 0.056, 1
1629517, 1.716, -0.477, -0.767, -0.24, 0.232, -0.056, 1
1629537, 1.817, -0.683, -0.609, -0.294, 0.326, -0.234, 1
1629557, 2.557, -0.72, -0.377, -0.345, 0.256, -0.203, 1
1629577, 2.804, -0.752, -0.439, -0.31, 0.186, -0.302, 1
1629597, 2.369, -0.77, -0.654, -0.2, 0.262, -0.448, 1
1629617, 1.852, -1.009, -0.796, -0.083, 0.555, -0.63, 1
1629637, 1.748, -1.242, -0.893, -0.166, 0.599, -0.712, 1
1629657, 1.115, -1.576, -0.781, -0.358, 0.59, -0.753, 1
1629677, 0.942, -1.411, -0.056, -0.39, 0.623, -0.745, 1
1629697, 0.412, -0.746, 0.49, -0.073, 0.693, -0.841, 1
1629717, 0.487, -1.069, 0.504, 0.307, 0.739, -1.176, 1
1629737, 0.034, -2.496, -0.122, 0.119, 0.803, -1.558, 1
1629757, -0.371, -2.078, 0.235, -0.09, 0.678, -1.8, 1
1629777, -1.067, -0.784, 0.157, 0.04, 0.317, -1.764, 1
1629797, -2.459, -0.64, -0.607, 0.18, 0.1, -1.505, 1
1629817, -2.789, -0.745, -0.568, 0.245, 0.202, -1.125, 1
1629837, -2.248, -1.398, -0.344, 0.34, 0.551, -1.023, 1
1629857, -1.803, -1.372, -0.766, 0.488, 0.691, -1.22, 1
1629877, -2.186, -1.275, -1.105, 0.393, 0.255, -0.911, 1
1629897, -3.056, -1.006, -0.523, 0.361, 0.115, -0.602, 1
1629917, -3.289, -1.567, -0.97, 0.465, 0.27, -0.481, 1
1629937, -3.664, -1.78, -1.397, 0.419, 0.532, -0.786, 1
1629957, -3.752, -1.441, -1.238, 0.174, 0.695, -0.827, 1
1629977, -2.825, -1.024, -0.68, 0.018, 0.656, -0.687, 1
1629997, -2.726, -0.779, -0.606, 0.156, 0.47, -0.651, 1
1630017, -3.273, -0.758, -0.826, 0.331, 0.208, -0.613, 1
1630037, -3.863, -1.177, -1.346, 0.325, 0.023, -0.411, 1
1630057, -3.701, -1.255, -1.478, 0.059, 0.347, -0.413, 1
1630077, -2.879, -0.742, -1.18, -0.098, 0.695, -0.383, 1
1630097, -2.373, -0.693, -0.883, -0.13, 0.701, -0.305, 1
1630117, -2.33, -0.826, -0.542, -0.125, 0.499, -0.324, 1
1630137, -2.515, -0.64, -0.189, -0.167, 0.315, -0.266, 1
1630157, -2.442, -0.616, -0.05, -0.149, 0.238, -0.18, 1
1630177, -2.55, -0.401, -0.185, -0.099, 0.206, -0.108, 1
1630197, -2.584, -0.517, -0.189, -0.015, 0.169, -0.041, 1
1630217, -2.376, -0.775, -0.056, -0.04, 0.216, 0.034, 1
1630237, -1.553, -0.687, 0.171, -0.114, 0.262, 0.093, 1
1630257, -1.141, -0.512, 0.215, -0.122, 0.148, 0.142, 1
1630277, -1.3, -0.56, 0.057, -0.06, 0.012, 0.12, 1
1630297, -1.169, -0.781, -0.079, -0.012, -0.006, 0.155, 1
1630317, -0.7, -0.924, -0.079, -0.006, 0.079, 0.129, 1
1630337, -0.487, -0.803, -0.131, -0.028, 0.158, 0.045, 1
1630357, -0.514, -0.693, -0.232, -0.057, 0.119, -0.034, 1
1630377, -0.565, -0.452, -0.156, -0.104, -0.021, -0.054, 1
1630397, -0.505, -0.316, -0.101, -0.106, -0.016, -0.012, 1
1630417, -0.175, -0.171, -0.006, -0.058, -0.009, 0.042, 1
1630437, 0.01, -0.245, -0.176, -0.004, 0.0, 0.025, 1
1630457, 0.013, -0.352, -0.2, -0.031, 0.028, 0.017, 1
1630477, 0.201, -0.35, -0.101, -0.078, 0.038, 0.015, 1
1630497, 0.355, -0.32, -0.034, -0.102, 0.017, -0.028, 1
1630517, 0.184, -0.123, -0.133, -0.061, -0.031, -0.037, 1
1630537, -0.093, -0.111, -0.265, -0.045, 0.014, -0.019, 1
1630557, -0.181, -0.13, -0.251, -0.065, 0.092, 0.015, 1
1630577, -0.027, 0.019, -0.009, -0.022, 0.127, 0.031, 1
1630597, -0.058, -0.027, -0.113, -0.007, 0.097, 0.043, 1
1630617, -0.141, -0.159, -0.266, -0.094, 0.071, 0.065, 1
1630637, -0.029, -0.085, -0.206, -0.158, 0.086, 0.064, 1
1630657, -0.01, -0.013, -0.015, -0.119, 0.104, 0.08, 1
1630677, 0.069, 0.046, -0.071, -0.018, 0.081, 0.097, 1
1630697, -0.171, -0.279, -0.41, -0.094, 0.121, 0.126, 1
1630717, -0.01, -0.262, -0.352, -0.196, 0.216, 0.106, 1
1630737, 0.275, 0.037, -0.139, -0.192, 0.254, 0.108, 1
1630757, 0.51, 0.049, 0.103, -0.086, 0.207, 0.036, 1
1630777, 0.671, 0.026, -0.033, 0.087, 0.137, -0.015, 1
1630797, 0.317, -0.364, -0.42, 0.045, 0.169, -0.045, 1
1630817, 0.209, -0.441, -0.476, -0.097, 0.247, -0.051, 1
1630837, 0.121, 0.084, -0.158, -0.002, 0.234, -0.107, 1
1630857, -0.023, -0.021, -0.051, 0.122, 0.178, -0.127, 1
1630877, -0.086, -0.147, 0.136, 0.08, 0.177, -0.13, 1
1630897, -0.097, -0.13, -0.015, -0.036, 0.111, -0.091, 1
1630917, -0.358, 0.105, -0.067, -0.006, 0.045, -0.175, 1
1630937, -0.897, -0.074, -0.098, 0.125, 0.099, -0.276, 1
1630957, -1.182, -0.778, -0.742, 0.134, 0.293, -0.381, 0
1630977, -1.916, -0.355, -0.61, -0.16, 0.602, -0.408, 0
1630997, -2.591, 0.625, -0.341, -0.153, 0.539, -0.354, 0
1631017, -3.514, 0.183, -0.535, 0.005, 0.305, -0.279, 0
1631037, -4.45, 0.26, -0.692, -0.113, 0.312, -0.164, 0
1631057, -5.284, 0.353, -1.074, -0.263, 0.271, 0.13, 0
1631077, -5.801, 0.516, -1.288, -0.431, 0.08, 0.398, 0
1631097, -6.381, 0.619, -1.264, -0.507, -0.12, 0.591, 0
1631117, -5.917, 0.437, -0.917, -0.478, -0.154, 0.77, 0
1631137, -4.778, -0.474, -0.656, -0.32, -0.193, 0.864, 0
1631157, -3.443, -1.393, -0.939, -0.411, -0.632, 1.026, 0
1631177, -3.395, -1.545, -0.97, -0.588, -1.083, 1.029, 0
1631197, -2.97, -1.654, -1.176, -0.662, -1.059, 0.884, 0
1631217, -2.081, -1.705, -1.134, -0.646, -1.048, 0.778, 0
1631237, -1.628, -1.602, -1.343, -0.58, -0.99, 0.592, 0
1631257, -1.295, -2.09, -1.779, -0.538, -0.95, 0.555, 0
1631277, -1.458, -1.825, -1.895, -0.687, -1.147, 0.942, 0
1631297, -0.753, -1.453, -1.443, -0.599, -1.05, 1.021, 0
1631317, -0.228, -1.775, -1.344, -0.356, -0.886, 1.123, 0
1631337, 1.854, -2.355, -1.819, -0.093, -0.651, 0.989, 0
1631357, 2.612, -2.626, -2.139, 0.041, -0.851, 0.786, 0
1631377, 2.48, -2.486, -2.123, 0.051, -0.72, 0.864, 0
1631397, 2.936, -2.703, -1.647, -0.127, -0.587, 1.352, 0
1631417, 3.108, -2.154, -0.767, -0.227, -0.425, 1.72, 0
1631437, 3.982, -2.199, 0.086, -0.233, -0.266, 1.649, 0
1631457, 5.281, -1.697, 0.639, -0.183, -0.499, 1.565, 0
1631477, 5.815, -1.641, 0.64, -0.165, -0.629, 1.38, 0
1631497, 6.183, -1.214, 0.738, -0.143, -0.634, 1.332, 0
1631517, 6.113, -0.785, 0.356, -0.088, -0.641, 1.138, 0
1631537, 5.459, -0.817, 0.237, -0.088, -0.374, 0.869, 0
1631557, 4.973, -0.387, 0.428, -0.086, -0.115, 0.714, 0
1631577, 4.757, -0.117, 0.548, -0.098, -0.117, 0.594, 0
1631597, 3.985, 0.054, 0.301, -0.14, -0.248, 0.551, 0
1631617, 2.866, 0.378, 0.122, -0.128, -0.178, 0.553, 0
1631637, 2.114, 0.025, -0.137, -0.144, 0.104, 0.463, 0
1631657, 1.996, 0.094, 0.14, -0.19, 0.293, 0.411, 0
1631677, 2.37, 0.076, 0.211, -0.153, 0.208, 0.247, 0
1631697, 1.653, 0.2, 0.002, -0.159, 0.036, 0.146, 0
1631717, 0.508, 0.267, -0.219, -0.139, 0.092, 0.161, 0
1631737, 0.111, 0.092, -0.44, -0.16, 0.174, 0.197, 0
1631757, -0.049, -0.032, -0.549, -0.143, 0.229, 0.165, 0
1631777, 0.051, -0.052, -0.26, -0.146, 0.193, 0.129, 0
1631797, 0.352, -0.108, 0.122, -0.093, 0.174, 0.057, 0
1631817, 0.42, -0.306, 0.165, -0.106, 0.028, -0.023, 0
1631837, 0.073, -0.511, 0.097, -0.365, -0.015, 0.073, 1
1631857, 0.04, 0.063, -0.103, -0.466, -0.025, 0.149, 1
1631877, 0.441, -0.157, 0.016, -0.441, -0.007, 0.119, 1
1631897, 0.442, -0.187, 0.097, -0.248, 0.102, 0.05, 1
1631917, 1.055, -0.568, -0.047, -0.071, 0.185, -0.036, 1
1631937, 1.325, -0.874, -0.044, -0.063, 0.167, -0.127, 1
1631957, 1.907, -1.141, -0.043, -0.092, 0.094, -0.233, 1
1631977, 1.518, -1.134, 0.026, -0.123, 0.057, -0.445, 1
1631997, 1.19, -0.886, 0.222, -0.117, 0.123, -0.624, 1
1632017, 1.037, -0.744, 0.241, -0.039, 0.239, -0.66, 1
1632037, 1.236, -0.767, -0.02, 0.031, 0.196, -0.682, 1
1632057, 0.852, -0.636, 0.122, 0.052, 0.09, -0.773, 1
1632077, 0.307, -0.291, 0.324, 0.049, 0.003, -0.694, 1
1632097, 0.048, -0.294, 0.403, 0.182, -0.054, -0.522, 1
1632117, -0.258, -1.294, -0.304, 0.307, -0.077, -0.436, 1
1632137, 0.013, -1.887, -0.543, 0.251, 0.35, -0.773, 1
1632157, 0.773, -1.755, -0.426, 0.0, 0.571, -0.921, 1
1632177, -0.337, -0.851, -0.669, -0.153, 0.385, -1.093, 1
1632197, -1.348, -0.446, -0.789, -0.111, 0.025, -1.242, 1
1632217, -2.104, -0.32, -0.67, 0.001, -0.273, -1.173, 1
1632237, -2.327, -0.474, -0.733, 0.125, -0.332, -0.968, 1
1632257, -3.031, -1.171, -1.476, 0.183, 0.106, -1.037, 1
1632277, -3.051, -0.898, -1.582, 0.0, 0.639, -1.063, 1
1632297, -3.007, -0.622, -1.302, -0.143, 0.776, -1.023, 1
1632317, -2.646, -0.647, -0.702, -0.287, 0.673, -0.791, 1
1632337, -2.573, -0.379, -0.107, -0.059, 0.666, -0.568, 1
1632357, -2.812, -0.291, -0.246, 0.287, 0.564, -0.613, 1
1632377, -3.054, -0.929, -0.737, 0.194, 0.424, -0.436, 1
1632397, -3.18, -1.331, -0.765, -0.039, 0.557, -0.351, 1
1632417, -2.323, -1.447, -0.502, -0.134, 0.673, -0.354, 1
1632437, -2.407, -1.177, -0.718, -0.068, 0.607, -0.511, 1
1632457, -2.607, -1.114, -0.579, -0.109, 0.406, -0.474, 1
1632477, -2.704, -1.044, -0.227, -0.164, 0.357, -0.323, 1
1632497, -2.132, -0.994, -0.117, -0.09, 0.4, -0.34, 1
1632517, -2.244, -0.835, -0.603, 0.045, 0.403, -0.447, 1
1632537, -2.686, -1.126, -0.825, -0.024, 0.416, -0.367, 1
1632557, -2.787, -1.065, -0.523, -0.118, 0.57, -0.238, 1
1632577, -2.349, -0.647, -0.171, -0.059, 0.586, -0.197, 1
1632597, -2.328, -0.368, -0.168, 0.071, 0.418, -0.219, 1
1632617, -2.459, -0.684, -0.143, 0.045, 0.277, -0.208, 1
1632637, -2.481, -0.708, 0.064, -0.065, 0.313, -0.138, 1
1632657, -1.999, -0.527, 0.282, -0.059, 0.298, -0.143, 1
1632677, -1.555, -0.589, 0.455, 0.015, 0.089, -0.166, 1
1632697, -1.196, -0.566, 0.622, 0.025, -0.139, -0.204, 1
1632717, -1.583, -0.38, 0.158, 0.02, -0.215, -0.249, 1
1632737, -2.263, -0.059, -0.328, -0.028, -0.182, -0.061, 1
1632757, -1.783, 0.052, -0.229, -0.023, -0.064, 0.113, 1
1632777, -0.698, -0.144, 0.185, 0.022, 0.035, 0.195, 1
1632797, 0.196, -0.266, 0.293, 0.166, -0.048, 0.133, 1
1632817, 0.239, -0.459, -0.165, 0.2, -0.213, 0.01, 1
1632837, -0.611, -0.766, -0.776, 0.015, -0.028, 0.029, 1
1632857, 0.112, -0.619, -0.409, -0.085, 0.169, 0.076, 1
1632877, 0.383, -0.614, -0.278, -0.109, 0.095, 0.094, 1
1632897, -0.015, -0.266, -0.176, -0.102, 0.002, 0.043, 1
1632917, -0.327, -0.057, -0.077, -0.091, 0.069, 0.096, 1
1632937, 0.074, -0.046, 0.078, -0.004, 0.211, 0.135, 1
1632957, 0.397, -0.277, -0.058, 0.005, 0.209, 0.153, 1
1632977, 0.5, -0.328, -0.146, -0.031, 0.091, 0.082, 1
1632997, 0.162, -0.078, -0.139, -0.079, 0.032, -0.005, 1
1633017, -0.07, -0.029, -0.175, -0.065, 0.068, 0.0, 1
1633037, -0.053, -0.164, -0.398, -0.04, 0.114, 0.01, 1
1633057, -0.069, -0.116, -0.532, -0.063, 0.104, -0.016, 1
1633077, -0.083, -0.03, -0.304, -0.079, 0.114, -0.024, 1
1633097, 0.017, 0.011, -0.065, -0.084, 0.174, -0.019, 1
1633117, 0.039, -0.041, -0.176, -0.057, 0.133, -0.005, 1
1633137, -0.173, -0.174, -0.358, -0.092, 0.1, 0.025, 1
1633157, -0.185, -0.326, -0.318, -0.168, 0.191, 0.037, 1
1633177, -0.025, -0.246, -0.084, -0.166, 0.298, 0.01, 1
1633197, -0.225, -0.318, 0.091, -0.15, 0.309, -0.003, 1
1633217, -0.407, -0.349, 0.19, -0.124, 0.317, -0.039, 1
1633237, -0.606, -0.357, 0.24, -0.142, 0.354, -0.058, 1
1633257, -0.284, -0.183, 0.504, -0.204, 0.324, -0.116, 1
1633277, -0.259, 0.238, 0.589, -0.212, 0.141, -0.151, 1
1633297, -1.017, 0.71, 0.345, 0.004, -0.003, -0.232, 1
1633317, -2.213, 0.082, -0.514, 0.111, 0.202, -0.142, 1
1633337, -2.405, -0.185, -1.017, -0.09, 0.633, -0.133, 1
1633357, -1.271, 0.482, -0.393, 0.068, 0.656, -0.276, 0
1633377, -1.141, 1.225, 0.125, 0.394, 0.375, -0.275, 0
1633397, -1.588, 0.259, 0.055, 0.425, 0.025, -0.084, 0
1633417, -2.844, -0.539, -0.823, 0.199, 0.135, -0.021, 0
1633437, -3.213, -0.227, -0.999, -0.093, 0.37, 0.08, 0
1633457, -3.146, -0.16, -0.824, -0.287, 0.24, 0.252, 0
1633477, -3.51, 0.244, -0.882, -0.317, -0.076, 0.265, 0
1633497, -4.487, -0.2, -1.069, -0.397, -0.265, 0.445, 0
1633517, -4.748, -0.302, -0.954, -0.5, -0.336, 0.591, 0
1633537, -4.463, -0.669, -0.697, -0.621, -0.332, 0.664, 0
1633557, -3.575, -0.79, -0.493, -0.628, -0.622, 0.778, 0
1633577, -2.747, -0.66, -0.342, -0.43, -1.031, 0.899, 0
1633597, -2.523, -1.44, -1.26, -0.421, -1.348, 1.301, 0
1633617, -2.222, -2.172, -1.977, -0.526, -1.16, 1.293, 0
1633637, -0.692, -2.376, -2.023, -0.657, -1.208, 1.346, 0
1633657, 0.317, -1.938, -1.674, -0.555, -1.497, 1.357, 0
1633677, 0.426, -2.176, -1.593, -0.394, -1.539, 1.408, 0
1633697, 0.65, -2.761, -1.974, -0.415, -1.375, 1.483, 0
1633717, 1.202, -2.677, -1.73, -0.454, -1.126, 1.467, 0
1633737, 1.715, -2.426, -1.325, -0.434, -1.01, 1.533, 0
1633757, 1.941, -1.992, -0.704, -0.249, -0.901, 1.554, 0
1633777, 3.301, -2.117, -0.666, -0.142, -1.061, 1.588, 0
1633797, 3.815, -2.593, -1.247, -0.305, -1.134, 1.444, 0
1633817, 3.987, -1.658, -0.815, -0.249, -0.88, 1.407, 0
1633837, 4.262, -1.544, -0.623, -0.122, -0.653, 1.378, 0
1633857, 4.695, -1.534, -0.453, -0.054, -0.558, 1.346, 0
1633877, 5.05, -1.442, -0.597, -0.065, -0.54, 1.196, 0
1633897, 4.632, -0.928, -0.929, -0.059, -0.55, 1.117, 0
1633917, 3.987, -0.938, -1.114, -0.017, -0.432, 1.067, 0
1633937, 4.005, -1.19, -0.689, 0.009, -0.195, 1.05, 0
1633957, 4.251, -1.049, -0.177, -0.023, 0.036, 0.89, 0
1633977, 3.827, -0.804, -0.022, -0.042, -0.008, 0.63, 0
1633997, 2.547, -0.531, 0.056, -0.062, -0.132, 0.523, 0
1634017, 1.993, -0.522, 0.298, -0.023, -0.026, 0.532, 0
1634037, 2.628, -0.625, 0.437, -0.01, 0.122, 0.503, 0
1634057, 2.507, -0.776, 0.162, 0.025, 0.021, 0.301, 0
1634077, 1.401, -0.441, -0.254, -0.032, -0.069, 0.135, 0
1634097, 0.637, -0.299, -0.296, -0.069, 0.072, 0.131, 0
1634117, 0.982, -0.329, -0.169, -0.098, 0.249, 0.164, 0
1634137, 0.855, -0.35, -0.271, -0.142, 0.217, 0.108, 0
1634157, 0.38, -0.319, -0.217, -0.197, 0.243, 0.113, 0
1634177, 0.634, -0.629, -0.155, -0.263, 0.329, 0.182, 0
1634197, 1.177, -0.688, -0.152, -0.424, 0.347, 0.208, 1
1634217, 1.001, -0.455, -0.102, -0.541, 0.249, 0.138, 1
1634237, 0.716, 0.167, -0.203, -0.527, 0.156, 0.086, 1
1634257, 0.553, 0.084, -0.287, -0.373, 0.117, 0.104, 1
1634277, 0.569, -0.424, -0.699, -0.145, 0.106, 0.092, 1
1634297, 0.757, -0.891, -0.796, -0.191, 0.268, -0.043, 1
1634317, 1.18, -1.055, -0.693, -0.258, 0.355, -0.161, 1
1634337, 1.496, -1.026, -0.428, -0.286, 0.4, -0.297, 1
1634357, 1.592, -0.885, -0.455, -0.186, 0.328, -0.392, 1
1634377, 1.098, -0.764, -0.78, -0.076, 0.408, -0.536, 1
1634397, 0.593, -0.697, -0.649, 0.001, 0.567, -0.484, 1
1634417, 0.74, -0.566, -0.275, 0.1, 0.648, -0.373, 1
1634437, 0.571, -0.68, -0.272, 0.166, 0.746, -0.538, 1
1634457, 0.015, -1.086, -0.754, 0.062, 0.959, -0.829, 1
1634477, -0.385, -0.969, -0.934, -0.095, 1.172, -0.91, 1
1634497, -0.698, -1.46, -0.861, -0.218, 1.31, -0.89, 1
1634517, -0.53, -1.278, -0.477, -0.161, 1.35, -0.971, 1
1634537, -1.101, -0.978, -0.355, -0.023, 1.262, -1.103, 1
1634557, -1.906, -0.29, -0.152, 0.075, 1.067, -1.085, 1
1634577, -2.53, 0.047, -0.083, 0.15, 0.901, -0.906, 1
1634597, -2.785, -0.229, -0.282, 0.244, 0.885, -0.756, 1
1634617, -2.136, -0.835, -0.613, 0.306, 0.9, -0.803, 1
1634637, -1.967, -1.456, -0.809, 0.226, 0.872, -0.957, 1
1634657, -1.87, -1.172, -0.561, 0.193, 0.726, -1.118, 1
1634677, -2.456, -0.87, -0.432, 0.221, 0.456, -1.205, 1
1634697, -3.46, -0.12, -0.513, 0.338, 0.271, -1.07, 1
1634717, -4.077, -0.48, -0.594, 0.365, 0.351, -0.88, 1
1634737, -3.429, -0.688, -0.342, 0.328, 0.614, -0.628, 1
1634757, -2.215, -0.815, -0.236, 0.329, 0.657, -0.638, 1
1634777, -1.849, -0.756, -0.469, 0.318, 0.18, -0.765, 1
1634797, -2.605, -1.079, -0.714, 0.223, 0.095, -0.811, 1
1634817, -2.128, -0.764, -0.625, 0.078, 0.263, -0.743, 1
1634837, -2.115, -0.571, -0.755, 0.131, 0.385, -0.738, 1
1634857, -2.076, -0.756, -0.607, 0.154, 0.326, -0.646, 1
1634877, -1.539, -0.934, -0.299, 0.174, 0.243, -0.61, 1
1634897, -1.605, -0.657, -0.539, 0.186, 0.144, -0.654, 1
1634917, -2.755, -0.506, -1.005, 0.177, 0.095, -0.706, 1
1634937, -2.83, -0.502, -0.869, 0.051, 0.193, -0.519, 1
1634957, -2.046, -0.442, -0.347, -0.028, 0.348, -0.39, 1
1634977, -1.24, -0.386, -0.105, 0.054, 0.32, -0.345, 1
1634997, -1.897, -0.427, -0.386, 0.193, 0.142, -0.441, 1
1635017, -2.553, -0.47, -0.62, 0.192, 0.133, -0.422, 1
1635037, -2.305, -0.526, -0.399, 0.042, 0.303, -0.226, 1
1635057, -1.307, -0.396, -0.005, -0.039, 0.408, -0.104, 1
1635077, -1.011, -0.52, 0.0, -0.007, 0.249, -0.056, 1
1635097, -0.632, -0.445, 0.177, 0.013, 0.091, -0.039, 1
1635117, -0.237, -0.306, 0.11, 0.063, 0.024, -0.073, 1
1635137, -0.247, -0.36, -0.387, 0.066, -0.063, -0.085, 1
1635157, -0.732, -0.371, -0.975, -0.038, -0.127, -0.079, 1
1635177, -0.853, -0.291, -0.882, -0.178, -0.062, -0.001, 1
1635197, -0.385, -0.254, -0.417, -0.182, 0.127, 0.087, 1
1635217, 0.264, -0.298, -0.194, -0.064, 0.208, 0.121, 1
1635237, 0.268, -0.625, -0.32, -0.04, 0.117, 0.114, 1
1635257, 0.094, -0.638, -0.301, -0.263, 0.118, 0.102, 1
1635277, -0.004, -0.289, -0.048, -0.252, 0.203, 0.104, 1
1635297, -0.013, -0.032, 0.072, -0.075, 0.182, 0.064, 1
1635317, 0.052, -0.327, 0.094, -0.03, 0.08, 0.013, 1
1635337, 0.033, -0.174, 0.058, -0.07, -0.02, -0.043, 1
1635357, 0.132, -0.034, 0.109, -0.061, -0.014, -0.064, 1
1635377, 0.083, -0.118, -0.193, -0.048, -0.031, -0.075, 1
1635397, -0.081, -0.109, -0.274, -0.075, 0.003, -0.111, 1
1635417, -0.008, -0.161, -0.291, -0.151, 0.061, -0.091, 1
1635437, 0.135, 0.021, -0.186, -0.141, 0.116, -0.043, 1
1635457, 0.231, 0.051, -0.198, -0.042, 0.089, -0.067, 1
1635477, -0.004, -0.072, -0.282, -0.013, 0.074, -0.13, 1
1635497, 0.01, 0.014, -0.046, -0.047, 0.105, -0.103, 1
1635517, 0.096, -0.081, -0.073, -0.047, 0.077, -0.114, 1
1635537, -0.042, -0.107, -0.214, -0.032, 0.057, -0.206, 1
1635557, -0.598, 0.175, -0.374, 0.026, 0.078, -0.305, 1
1635577, -0.864, 0.112, -0.251, 0.048, 0.161, -0.221, 1
1635597, -0.743, -0.096, -0.14, -0.041, 0.285, -0.167, 1
1635617, -0.808, -0.121, -0.218, -0.052, 0.335, -0.273, 0
1635637, -0.566, 0.001, 0.059, 0.028, 0.28, -0.375, 0
1635657, -1.762, 0.277, 0.048, 0.095, 0.455, -0.192, 0
1635677, -2.007, 0.71, 0.184, 0.25, 0.475, -0.012, 0
1635697, -2.04, 0.101, 0.199, 0.238, 0.306, 0.164, 0
1635717, -2.468, -0.509, 0.038, 0.031, 0.158, 0.208, 0
1635737, -3.301, -0.579, -0.329, -0.189, 0.073, 0.163, 0
1635757, -4.344, -0.18, -0.381, -0.3, -0.121, 0.256, 0
1635777, -5.39, 0.141, -0.413, -0.234, -0.229, 0.422, 0
1635797, -4.905, -0.306, -0.76, -0.21, -0.24, 0.635, 0
1635817, -3.866, -1.07, -0.931, -0.24, -0.277, 0.748, 0
1635837, -2.755, -1.299, -0.739, -0.31, -0.445, 0.549, 0
1635857, -2.408, -1.412, -0.979, -0.324, -0.704, 0.347, 0
1635877, -3.019, -1.035, -1.022, -0.451, -1.138, 0.891, 0
1635897, -2.497, -1.299, -1.375, -0.447, -0.964, 1.183, 0
1635917, -1.393, -1.638, -1.375, -0.417, -0.733, 1.315, 0
1635937, 0.033, -1.325, -0.665, -0.33, -0.628, 1.275, 0
1635957, 1.062, -1.268, -0.47, -0.053, -0.74, 1.108, 0
1635977, 0.692, -1.84, -1.343, -0.001, -1.135, 1.169, 0
1635997, 0.084, -1.673, -2.027, -0.111, -1.129, 1.344, 0
1636017, 0.269, -1.745, -2.284, -0.117, -0.804, 1.673, 0
1636037, 1.336, -2.35, -1.943, -0.154, -0.436, 1.808, 0
1636057, 2.083, -2.346, -1.333, -0.109, -0.307, 1.725, 0
1636077, 2.37, -2.627, -1.317, -0.158, -0.517, 1.771, 0
1636097, 1.14, -2.532, -1.25, -0.236, -0.705, 1.89, 0
1636117, 1.191, -2.777, -1.155, -0.293, -0.343, 2.043, 0
1636137, 3.216, -2.304, -0.973, -0.298, -0.031, 2.132, 0
1636157, 3.93, -2.453, -0.865, -0.366, -0.161, 2.075, 0
1636177, 4.384, -1.82, -0.033, -0.446, -0.172, 1.985, 0
1636197, 5.426, -1.644, 0.504, -0.351, -0.136, 1.963, 0
1636217, 6.172, -1.488, 0.405, -0.227, -0.152, 1.691, 0
1636237, 6.207, -0.819, 0.176, -0.23, -0.285, 1.204, 0
1636257, 5.586, -0.666, -0.112, -0.276, -0.279, 0.964, 0
1636277, 5.293, -0.557, -0.017, -0.265, -0.147, 0.854, 0
1636297, 5.201, -0.421, -0.059, -0.238, -0.048, 0.715, 0
1636317, 5.033, -0.321, -0.149, -0.237, -0.037, 0.48, 0
1636337, 4.329, -0.408, 0.061, -0.309, 0.029, 0.21, 0
1636357, 3.604, -0.389, 0.29, -0.341, 0.071, -0.024, 0
1636377, 2.841, -0.327, 0.36, -0.368, -0.017, -0.2, 0
1636397, 1.446, 0.005, 0.241, -0.331, 0.001, -0.207, 0
1636417, 0.674, -0.145, 0.145, -0.307, 0.171, -0.16, 0
1636437, 0.924, -0.343, 0.403, -0.301, 0.18, -0.204, 0
1636457, 0.878, -0.491, 0.564, -0.288, 0.109, -0.267, 0
1636477, 0.821, -0.721, 0.439, -0.397, 0.016, -0.291, 0
1636497, 0.689, -0.716, 0.111, -0.577, 0.016, -0.238, 1
1636517, 0.019, -0.313, -0.244, -0.653, 0.119, -0.226, 1
1636537, 0.37, -0.444, 0.079, -0.651, 0.197, -0.213, 1
1636557, 0.422, -0.246, 0.275, -0.417, 0.282, -0.136, 1
1636577, 1.099, -0.573, 0.276, -0.199, 0.375, -0.158, 1
1636597, 1.616, -0.681, -0.114, -0.119, 0.396, -0.389, 1
1636617, 2.053, -0.928, 0.11, -0.15, 0.316, -0.661, 1
1636637, 1.848, -1.127, 0.25, -0.13, 0.279, -0.781, 1
1636657, 1.512, -1.086, 0.166, -0.076, 0.259, -0.789, 1
1636677, 1.542, -1.145, -0.198, -0.048, 0.216, -0.811, 1
1636697, 1.56, -1.451, -0.621, -0.029, 0.295, -0.949, 1
1636717, 1.196, -1.558, -0.713, -0.133, 0.332, -1.145, 1
1636737, 0.471, -1.201, 0.094, -0.038, 0.613, -1.081, 1
1636757, 0.36, -0.82, -0.342, 0.156, 0.524, -1.194, 1
1636777, -0.482, -0.889, -0.59, 0.128, 0.238, -1.21, 1
1636797, -0.988, -0.664, -0.284, 0.073, 0.328, -1.115, 1
1636817, -1.158, -0.167, -0.366, 0.266, 0.645, -1.159, 1
1636837, -0.977, -0.207, -0.345, 0.386, 0.675, -1.076, 1
1636857, -0.516, -0.56, -0.335, 0.428, 0.508, -0.923, 1
1636877, -0.174, -1.414, -1.029, 0.434, 0.231, -0.918, 1
1636897, -1.862, -1.625, -1.813, 0.218, 0.091, -1.246, 1
1636917, -2.963, -0.757, -1.543, -0.003, 0.33, -1.514, 1
1636937, -3.363, -0.362, -1.166, -0.015, 0.662, -1.413, 1
1636957, -2.487, -0.208, -0.462, 0.031, 1.006, -0.973, 1
1636977, -2.133, -0.025, -0.398, 0.341, 0.992, -0.805, 1
1636997, -2.472, -0.436, -1.012, 0.509, 0.522, -0.679, 1
1637017, -3.202, -1.353, -1.606, 0.31, 0.331, -0.726, 1
1637037, -3.314, -0.972, -1.295, -0.122, 0.511, -0.74, 1
1637057, -2.875, -0.465, -0.441, -0.276, 0.856, -0.616, 1
1637077, -2.498, -0.303, -0.251, -0.072, 0.925, -0.546, 1
1637097, -2.52, -0.654, -0.338, 0.084, 0.525, -0.474, 1
1637117, -2.885, -0.92, -0.632, 0.076, 0.238, -0.366, 1
1637137, -2.929, -1.083, -0.924, -0.016, 0.397, -0.355, 1
1637157, -2.532, -0.646, -0.823, -0.129, 0.616, -0.285, 1
1637177, -2.112, -0.481, -0.507, -0.145, 0.596, -0.27, 1
1637197, -1.699, -0.378, -0.164, -0.112, 0.375, -0.264, 1
1637217, -1.617, -0.44, -0.203, 0.017, 0.153, -0.257, 1
1637237, -1.932, -0.523, -0.448, 0.006, 0.125, -0.262, 1
1637257, -2.154, -0.531, -0.392, -0.049, 0.2, -0.243, 1
1637277, -1.736, -0.363, -0.162, -0.055, 0.23, -0.13, 1
1637297, -1.436, -0.059, -0.143, 0.046, 0.135, -0.117, 1
1637317, -1.228, -0.136, -0.209, 0.065, -0.01, -0.05, 1
1637337, -1.331, -0.48, -0.353, 0.007, -0.002, -0.038, 1
1637357, -0.841, -0.66, -0.187, -0.051, 0.127, -0.105, 1
1637377, -0.283, -0.509, -0.128, -0.037, 0.077, -0.23, 1
1637397, -0.757, -0.252, -0.195, -0.042, -0.083, -0.233, 1
1637417, -1.411, -0.126, -0.257, -0.087, -0.065, -0.059, 1
1637437, -1.037, -0.004, -0.037, -0.037, 0.079, 0.109, 1
1637457, -0.09, -0.313, 0.02, -0.001, 0.087, 0.156, 1
1637477, 0.542, -0.553, -0.017, -0.069, -0.026, 0.148, 1
1637497, 0.844, -0.644, 0.059, -0.103, -0.065, 0.057, 1
1637517, 0.781, -0.265, 0.113, -0.036, -0.054, -0.024, 1
1637537, 0.36, -0.227, -0.268, -0.001, -0.064, -0.003, 1
1637557, 0.096, -0.33, -0.351, -0.059, 0.025, 0.047, 1
1637577, 0.431, -0.154, -0.124, -0.035, 0.119, 0.023, 1
1637597, 0.698, -0.071, -0.35, -0.036, 0.048, 0.0, 1
1637617, 0.081, -0.302, -0.491, -0.045, -0.01, -0.086, 1
1637637, -0.357, -0.122, -0.357, -0.097, 0.1, -0.049, 1
1637657, -0.004, -0.009, -0.064, -0.076, 0.18, -0.029, 1
1637677, 0.274, -0.067, -0.008, -0.05, 0.1, -0.065, 1
1637697, -0.018, -0.042, -0.206, -0.034, 0.023, -0.143, 1
1637717, -0.214, -0.157, -0.081, -0.069, 0.117, -0.178, 1
1637737, 0.0, 0.068, -0.054, -0.115, 0.114, -0.143, 1
1637757, -0.248, 0.024, -0.311, -0.033, 0.006, -0.211, 1
1637777, -0.665, -0.012, -0.439, -0.039, -0.016, -0.207, 1
1637797, -0.654, -0.013, -0.238, -0.043, 0.105, -0.198, 1
1637817, -0.086, -0.012, -0.07, -0.01, 0.244, -0.157, 1
1637837, 0.432, -0.162, -0.206, 0.058, 0.218, -0.207, 1
1637857, -0.043, -0.304, -0.509, 0.095, 0.017, -0.317, 1
1637877, -0.542, -0.36, -0.633, 0.136, -0.001, -0.411, 1
1637897, -0.713, -1.454, -0.761, 0.054, 0.082, -0.367, 0
1637917, -1.051, -0.577, -0.455, -0.177, 0.253, -0.376, 0
1637937, -1.792, -0.084, -0.002, -0.157, 0.2, -0.35, 0
1637957, -2.585, -0.189, -0.018, -0.034, 0.162, -0.3, 0
1637977, -2.849, -0.441, -0.031, -0.079, -0.006, -0.13, 0
1637997, -3.429, -0.643, -0.438, -0.255, -0.161, 0.023, 0
1638017, -4.041, -0.464, -0.536, -0.429, -0.111, 0.068, 0
1638037, -4.062, -0.098, -0.176, -0.395, -0.017, 0.048, 0
1638057, -4.171, -0.103, 0.028, -0.289, -0.192, 0.217, 0
1638077, -3.659, -0.601, -0.096, -0.209, -0.32, 0.311, 0
1638097, -3.459, -0.688, -0.402, -0.331, -0.649, 0.477, 0
1638117, -3.483, -0.759, -0.546, -0.387, -0.822, 0.513, 0
1638137, -3.06, -0.702, -0.408, -0.283, -0.745, 0.457, 0
1638157, -1.764, -0.694, -0.235, 0.015, -0.585, 0.33, 0
1638177, -0.949, -1.686, -1.087, 0.232, -0.825, 0.461, 0
1638197, -1.36, -1.897, -1.72, -0.017, -1.137, 0.883, 0
1638217, -0.518, -1.35, -1.493, 0.108, -0.821, 0.906, 0
1638237, 0.38, -1.089, -0.999, 0.324, -0.561, 1.041, 0
1638257, 1.42, -1.331, -0.86, 0.554, -0.365, 1.048, 0
1638277, 3.025, -2.388, -1.791, 0.211, -0.927, 1.147, 0
1638297, 1.634, -1.312, -1.842, -0.07, -1.224, 1.406, 0
1638317, 0.69, -0.634, -1.624, 0.147, -0.754, 1.681, 0
1638337, 1.424, -1.267, -1.328, 0.261, -0.472, 1.973, 0
1638357, 2.684, -1.916, -1.121, 0.222, -0.469, 1.991, 0
1638377, 3.334, -2.176, -0.922, 0.069, -0.662, 1.985, 0
1638397, 2.456, -1.694, -0.605, 0.014, -0.628, 2.031, 0
1638417, 2.579, -1.563, -0.091, 0.15, -0.348, 2.131, 0
1638437, 3.028, -1.675, -0.368, 0.184, -0.263, 2.181, 0
1638457, 4.129, -2.303, -1.078, 0.009, -0.218, 1.929, 0
1638477, 4.341, -1.659, -1.125, -0.188, -0.262, 1.782, 0
1638497, 4.267, -1.249, -0.857, -0.246, -0.154, 1.539, 0
1638517, 4.744, -0.707, -0.147, -0.206, -0.159, 1.324, 0
1638537, 4.837, -0.762, -0.007, -0.151, -0.184, 1.028, 0
1638557, 4.675, -0.553, -0.309, -0.177, -0.219, 0.775, 0
1638577, 4.161, -0.184, -0.309, -0.255, -0.179, 0.66, 0
1638597, 4.16, 0.221, -0.033, -0.204, -0.123, 0.454, 0
1638617, 3.643, 0.131, -0.131, -0.164, -0.172, 0.21, 0
1638637, 2.283, 0.036, -0.375, -0.216, -0.076, 0.108, 0
1638657, 1.509, 0.152, -0.049, -0.29, 0.133, 0.167, 0
1638677, 1.554, 0.09, 0.223, -0.318, 0.067, 0.072, 0
1638697, 0.545, 0.06, 0.446, -0.235, 0.063, 0.033, 0
1638717, 0.345, -0.16, 0.261, -0.251, 0.144, 0.048, 0
1638737, 0.153, -0.093, 0.395, -0.272, 0.168, 0.033, 0
1638757, 0.129, -0.235, 0.389, -0.251, 0.204, 0.01, 0
1638777, 0.033, -0.271, 0.423, -0.219, 0.156, -0.042, 0
1638797, -0.068, -0.267, 0.428, -0.161, 0.139, -0.06, 0
1638817, -0.026, -0.313, 0.454, -0.145, 0.156, -0.025, 0
1638837, 0.032, -0.445, 0.422, -0.142, 0.19, 0.035, 0
1638857, 0.616, -0.975, -0.064, -0.273, 0.182, 0.098, 1
1638877, 0.452, -0.744, -0.04, -0.542, 0.136, 0.081, 1
1638897, 0.387, -0.071, -0.213, -0.604, 0.141, 0.004, 1
1638917, 0.292, -0.283, -0.473, -0.389, 0.106, -0.045, 1
1638937, 0.882, -0.679, -0.631, -0.262, 0.144, -0.084, 1
1638957, 0.787, -1.054, -0.336, -0.219, 0.263, -0.136, 1
1638977, 1.976, -0.775, 0.065, -0.303, 0.294, -0.16, 1
1638997, 1.462, -0.396, 0.201, -0.286, 0.176, -0.263, 1
1639017, 1.899, -0.549, 0.479, -0.085, 0.222, -0.511, 1
1639037, 1.401, -0.531, 0.292, 0.053, 0.106, -0.603, 1
1639057, 1.407, -0.662, 0.423, 0.17, 0.043, -0.566, 1
1639077, 1.396, -0.596, 0.381, 0.266, -0.056, -0.403, 1
1639097, 1.698, -1.27, -0.36, 0.287, -0.205, -0.291, 1
1639117, 0.347, -1.543, -0.767, 0.104, -0.254, -0.555, 1
1639137, 0.11, -1.037, -0.376, 0.007, 0.043, -0.983, 1
1639157, -0.924, 0.184, -0.199, -0.045, 0.193, -0.657, 1
1639177, -1.15, 0.82, 0.03, 0.345, 0.18, -0.401, 1
1639197, -1.353, -0.893, -0.83, 0.198, 0.143, -0.311, 1
1639217, -1.551, -1.779, -1.105, -0.172, 0.446, -0.736, 1
1639237, -1.715, -1.157, -1.091, -0.294, 0.725, -1.025, 1
1639257, -2.467, -0.462, -0.957, -0.222, 1.02, -0.792, 1
1639277, -2.036, -0.103, -0.174, 0.025, 1.184, -0.617, 1
1639297, -1.574, -0.125, -0.12, 0.309, 1.021, -0.633, 1
1639317, -1.476, -0.682, -0.902, 0.205, 0.578, -0.708, 1
1639337, -2.503, -0.834, -1.198, -0.164, 0.444, -0.814, 1
1639357, -3.069, -0.603, -0.692, -0.309, 0.813, -0.742, 1
1639377, -2.686, -0.298, -0.223, -0.054, 1.274, -0.557, 1
1639397, -2.124, -0.514, -0.337, 0.281, 1.246, -0.554, 1
1639417, -1.512, -1.047, -0.313, 0.276, 0.857, -0.517, 1
1639437, -1.149, -1.673, -0.365, 0.131, 0.584, -0.664, 1
1639457, -0.927, -1.688, -0.64, -0.004, 0.405, -1.009, 1
1639477, -2.794, -0.721, -1.196, 0.027, 0.356, -1.207, 1
1639497, -3.96, -0.391, -1.394, 0.009, 0.473, -1.014, 1
1639517, -3.549, -0.293, -1.057, 0.041, 0.622, -0.748, 1
1639537, -3.039, -0.285, -1.011, 0.172, 0.616, -0.695, 1
1639557, -2.832, -0.572, -1.14, 0.053, 0.489, -0.582, 1
1639577, -2.489, -0.619, -0.827, -0.125, 0.394, -0.613, 1
1639597, -2.19, -0.305, -0.482, -0.185, 0.284, -0.659, 1
1639617, -2.857, 0.108, -0.487, -0.114, 0.158, -0.667, 1
1639637, -3.762, 0.252, -0.373, -0.075, 0.14, -0.409, 1
1639657, -3.425, 0.058, -0.077, -0.004, 0.294, -0.141, 1
1639677, -1.772, -0.388, 0.057, -0.001, 0.215, -0.044, 1
1639697, -0.979, -0.443, -0.054, 0.058, -0.033, -0.032, 1
1639717, -0.549, -0.766, -0.164, 0.09, -0.15, -0.054, 1
1639737, -0.558, -0.585, -0.453, 0.057, -0.119, -0.101, 1
1639757, -1.008, -0.63, -0.842, 0.035, -0.058, -0.201, 1
1639777, -1.331, -0.403, -0.619, -0.093, 0.087, -0.174, 1
1639797, -1.017, -0.038, 0.01, -0.138, 0.2, -0.002, 1
1639817, -0.365, 0.086, 0.226, -0.078, 0.175, 0.07, 1
1639837, -0.323, -0.418, 0.0, -0.037, 0.016, 0.075, 1
1639857, -0.512, -0.505, -0.012, -0.111, -0.004, 0.021, 1
1639877, 0.086, -0.257, 0.21, -0.167, 0.102, 0.044, 1
1639897, 0.617, -0.413, 0.066, -0.149, 0.009, -0.026, 1
1639917, 0.104, -0.416, -0.376, -0.145, -0.237, -0.16, 1
1639937, -0.503, -0.038, -0.416, -0.177, -0.255, -0.182, 1
1639957, -0.038, 0.057, -0.047, -0.15, 0.001, -0.035, 1
1639977, 0.703, -0.179, 0.003, -0.102, 0.073, 0.064, 1
1639997, 0.828, -0.36, -0.118, -0.034, -0.047, -0.009, 1
1640017, 0.173, -0.341, -0.377, -0.021, -0.114, -0.065, 1
1640037, 0.036, -0.301, -0.226, -0.029, 0.029, -0.056, 1
1640057, 0.46, -0.34, 0.022, 0.031, 0.122, -0.072, 1
1640077, 0.299, -0.3, 0.194, 0.045, 0.082, -0.094, 1
1640097, -0.044, -0.227, 0.061, 0.064, 0.061, -0.12, 1
1640117, -0.195, -0.137, -0.168, 0.002, 0.125, -0.078, 1
1640137, -0.169, -0.032, -0.203, 0.018, 0.164, -0.106, 1
1640157, -0.126, -0.133, -0.258, 0.026, 0.173, -0.153, 1
1640177, -0.107, -0.033, 0.0, 0.061, 0.151, -0.266, 1
1640197, -0.614, 0.049, -0.023, 0.125, 0.132, -0.337, 1
1640217, -1.571, -0.453, -0.756, -0.089, 0.273, -0.332, 1
1640237, -1.705, 0.429, -0.396, -0.06, 0.48, -0.35, 0
1640257, -1.268, 0.656, -0.14, 0.216, 0.339, -0.246, 0
1640277, -1.563, -0.205, -0.381, 0.108, 0.2, -0.141, 0
1640297, -2.309, -0.478, -0.6, -0.011, 0.044, -0.147, 0
1640317, -3.371, -0.682, -1.057, -0.305, 0.05, -0.067, 0
1640337, -3.874, -0.245, -0.623, -0.488, -0.054, 0.051, 0
1640357, -4.222, 0.035, -0.14, -0.526, -0.165, 0.266, 0
1640377, -4.269, 0.132, 0.155, -0.407, -0.208, 0.419, 0
1640397, -4.153, -0.037, 0.0, -0.29, -0.255, 0.548, 0
1640417, -3.987, -0.773, -0.461, -0.387, -0.265, 0.625, 0
1640437, -3.23, -0.519, -0.552, -0.423, -0.486, 0.744, 0
1640457, -2.314, -0.639, -0.508, -0.354, -0.853, 0.74, 0
1640477, -2.227, -0.865, -0.733, -0.266, -0.948, 0.744, 0
1640497, -1.825, -1.112, -1.048, -0.169, -0.835, 0.731, 0
1640517, -1.288, -1.208, -1.153, -0.025, -0.558, 0.587, 0
1640537, -0.153, -1.606, -1.413, 0.021, -0.649, 0.572, 0
1640557, 0.352, -1.527, -1.53, -0.198, -1.221, 0.848, 0
1640577, 0.419, -1.132, -1.841, -0.132, -1.354, 1.013, 0
1640597, 0.27, -1.68, -2.344, -0.103, -1.025, 1.196, 0
1640617, 1.177, -1.61, -1.976, 0.001, -0.569, 1.309, 0
1640637, 2.9, -1.689, -1.222, 0.176, -0.556, 1.155, 0
1640657, 3.314, -2.321, -1.112, 0.166, -0.7, 0.992, 0
1640677, 3.602, -1.935, -1.14, 0.0, -0.677, 0.978, 0
1640697, 3.696, -1.53, -1.238, -0.174, -0.638, 1.444, 0
1640717, 4.373, -1.716, -1.288, -0.171, -0.371, 1.508, 0
1640737, 4.777, -1.47, -0.61, -0.261, -0.277, 1.396, 0
1640757, 4.874, -1.137, -0.039, -0.226, -0.222, 1.263, 0
1640777, 4.659, -1.212, -0.531, -0.274, -0.334, 1.199, 0
1640797, 3.466, -0.692, -0.453, -0.462, -0.483, 1.234, 0
1640817, 3.514, -0.202, 0.359, -0.425, -0.113, 1.162, 0
1640837, 4.637, -0.136, 0.857, -0.202, 0.07, 1.108, 0
1640857, 5.1, -0.372, 0.332, 0.0, -0.199, 0.899, 0
1640877, 4.527, -0.388, -0.223, 0.076, -0.397, 0.627, 0
1640897, 3.896, -0.369, -0.74, -0.037, -0.275, 0.412, 0
1640917, 3.025, 0.041, -0.552, -0.162, -0.144, 0.309, 0
1640937, 2.279, -0.008, -0.303, -0.182, -0.024, 0.237, 0
1640957, 1.716, 0.177, 0.13, -0.221, 0.1, 0.222, 0
1640977, 1.449, -0.157, 0.223, -0.21, 0.134, 0.224, 0
1640997, 0.856, -0.105, 0.468, -0.258, 0.045, 0.23, 0
1641017, 0.526, -0.24, 0.656, -0.235, 0.065, 0.263, 0
1641037, 0.65, -0.397, 0.623, -0.183, 0.173, 0.196, 0
1641057, 0.633, -0.33, 0.411, -0.18, 0.152, 0.126, 0
1641077, 0.315, -0.619, 0.034, -0.252, 0.054, 0.142, 0
1641097, 0.498, -0.657, -0.223, -0.476, 0.06, 0.294, 1
1641117, 1.019, -1.014, -0.049, -0.712, 0.213, 0.462, 1
1641137, 1.453, -0.315, 0.171, -0.537, 0.254, 0.249, 1
1641157, 1.772, -0.36, 0.456, -0.326, 0.163, 0.098, 1
1641177, 1.828, -0.553, 0.111, -0.139, 0.056, -0.131, 1
1641197, 1.637, -0.723, -0.338, -0.129, 0.01, -0.262, 1
1641217, 1.156, -0.625, -0.557, -0.249, 0.063, -0.284, 1
1641237, 0.828, -0.262, -0.173, -0.249, 0.244, -0.266, 1
1641257, 1.122, -0.119, 0.083, -0.087, 0.299, -0.213, 1
1641277, 1.061, -0.292, -0.021, 0.126, 0.282, -0.251, 1
1641297, 1.031, -1.818, -0.724, -0.091, 0.313, -0.524, 1
1641317, 0.779, -1.286, -0.596, -0.368, 0.381, -0.804, 1
1641337, 0.284, -0.253, -0.269, -0.386, 0.369, -0.861, 1
1641357, -0.695, 0.067, -0.156, -0.286, 0.437, -0.744, 1
1641377, -1.079, 0.173, 0.145, -0.113, 0.616, -0.538, 1
1641397, -0.234, -0.33, 0.238, 0.041, 0.701, -0.35, 1
1641417, 0.722, -1.09, -0.155, 0.064, 0.585, -0.436, 1
1641437, 0.455, -1.029, -0.124, 0.078, 0.442, -0.538, 1
1641457, -0.221, -1.172, -0.334, 0.019, 0.441, -0.668, 1
1641477, -0.789, -1.131, -0.588, -0.121, 0.449, -0.724, 1
1641497, -1.398, -0.382, -0.607, -0.045, 0.477, -0.794, 1
1641517, -2.257, -0.412, -0.548, 0.164, 0.704, -0.707, 1
1641537, -1.72, -0.637, -0.321, 0.282, 0.879, -0.5, 1
1641557, -0.726, -0.503, 0.041, 0.453, 0.709, -0.479, 1
1641577, -0.953, -1.016, -0.751, 0.491, 0.317, -0.696, 1
1641597, -1.985, -1.577, -1.411, 0.068, -0.009, -0.576, 1
1641617, -3.407, -0.935, -0.346, -0.118, 0.543, -0.42, 1
1641637, -2.349, -0.386, -0.232, 0.245, 1.169, -0.369, 1
1641657, -1.067, -0.8, -0.166, 0.47, 1.249, -0.267, 1
1641677, -0.565, -1.222, -0.502, 0.507, 0.732, -0.379, 1
1641697, -2.094, -1.285, -1.301, 0.329, 0.19, -0.636, 1
1641717, -3.113, -0.724, -1.385, 0.031, 0.037, -0.689, 1
1641737, -3.286, -0.361, -0.875, -0.098, 0.375, -0.529, 1
1641757, -2.28, -0.356, -0.614, 0.031, 0.863, -0.367, 1
1641777, -1.857, -0.354, -1.008, 0.242, 0.878, -0.381, 1
1641797, -2.213, -0.677, -1.299, 0.231, 0.439, -0.525, 1
1641817, -2.994, -0.632, -0.896, -0.055, 0.111, -0.543, 1
1641837, -2.481, -0.175, -0.404, -0.203, 0.27, -0.476, 1
1641857, -1.796, -0.245, -0.227, -0.077, 0.344, -0.42, 1
1641877, -1.557, -0.531, -0.463, 0.048, 0.202, -0.499, 1
1641897, -1.64, -0.699, -0.456, 0.014, -0.076, -0.476, 1
1641917, -1.77, -0.82, -0.4, -0.053, -0.135, -0.489, 1
1641937, -2.178, -0.514, -0.242, -0.105, 0.009, -0.536, 1
1641957, -1.899, -0.261, 0.066, -0.138, 0.163, -0.457, 1
1641977, -1.372, -0.125, 0.179, -0.023, 0.199, -0.431, 1
1641997, -1.308, -0.119, 0.13, 0.053, 0.054, -0.405, 1
1642017, -1.569, 0.06, -0.034, 0.067, -0.092, -0.325, 1
1642037, -1.52, -0.012, -0.209, 0.039, -0.087, -0.19, 1
1642057, -1.076, -0.063, -0.337, 0.073, -0.004, -0.2, 1
1642077, -0.837, -0.129, -0.406, 0.053, -0.018, -0.155, 1
1642097, -0.695, -0.248, -0.271, -0.042, -0.049, -0.006, 1
1642117, -0.283, -0.188, -0.125, -0.005, -0.036, 0.04, 1
1642137, -0.059, -0.358, -0.245, 0.006, -0.053, 0.004, 1
1642157, -0.147, -0.269, -0.307, -0.071, -0.007, 0.015, 1
1642177, -0.033, -0.076, -0.186, -0.095, 0.06, 0.062, 1
1642197, 0.108, -0.067, -0.198, -0.064, 0.024, 0.102, 1
1642217, 0.231, -0.183, -0.345, -0.024, -0.052, 0.12, 1
1642237, 0.064, -0.165, -0.255, -0.026, 0.003, 0.134, 1
1642257, 0.275, -0.346, -0.209, -0.091, 0.119, 0.123, 1
1642277, 0.53, -0.195, -0.237, -0.119, 0.125, 0.084, 1
1642297, 0.338, -0.142, -0.263, -0.094, 0.013, 0.056, 1
1642317, 0.065, 0.071, -0.104, 0.009, 0.024, 0.055, 1
1642337, 0.024, 0.004, -0.124, 0.153, 0.076, -0.061, 1
1642357, -0.123, -0.533, -0.358, -0.025, 0.153, -0.023, 1
1642377, -0.071, -0.214, -0.447, -0.164, 0.229, -0.023, 1
1642397, -0.03, 0.0, -0.186, -0.123, 0.219, -0.001, 1
1642417, -0.007, 0.016, 0.126, 0.01, 0.158, -0.006, 1
1642437, -0.097, -0.144, 0.052, 0.055, 0.116, -0.023, 1
1642457, -0.136, -0.391, -0.142, -0.028, 0.124, -0.009, 1
1642477, -0.342, -0.276, -0.14, -0.097, 0.251, -0.094, 1
1642497, -0.159, 0.123, 0.435, 0.174, 0.289, -0.24, 0
1642517, -0.094, -0.062, 0.42, 0.25, 0.276, -0.24, 0
1642537, -0.431, -0.198, -0.338, 0.248, 0.155, -0.222, 0
1642557, -1.176, -0.561, -1.305, -0.26, 0.169, -0.29, 0
1642577, -1.795, -0.517, -1.441, -0.667, 0.255, -0.337, 0
1642597, -3.099, 0.339, -0.296, -0.618, 0.336, -0.043, 0
1642617, -3.535, 0.621, -0.336, -0.452, 0.196, 0.157, 0
1642637, -3.758, 0.459, -0.359, -0.24, -0.038, 0.144, 0
1642657, -4.543, 0.01, -0.448, -0.2, -0.229, 0.127, 0
1642677, -4.589, 0.276, -0.087, -0.235, -0.309, 0.203, 0
1642697, -4.284, 0.31, -0.058, -0.135, -0.461, 0.483, 0
1642717, -3.833, -0.529, -0.508, 0.03, -0.563, 0.67, 0
1642737, -3.011, -1.299, -0.823, 0.097, -0.47, 0.524, 0
1642757, -1.929, -1.821, -1.102, -0.037, -0.499, 0.4, 0
1642777, -1.948, -1.162, -0.731, -0.323, -0.991, 0.621, 0
1642797, -2.087, -0.834, -0.583, -0.187, -1.071, 0.809, 0
1642817, -1.303, -1.566, -1.337, 0.072, -0.896, 0.957, 0
1642837, -0.18, -2.05, -1.546, 0.143, -0.581, 0.872, 0
1642857, 0.998, -2.076, -1.272, 0.12, -0.408, 0.788, 0
1642877, 1.61, -2.157, -1.208, -0.004, -0.635, 0.962, 0
1642897, 0.938, -1.599, -0.737, -0.093, -0.799, 1.207, 0
1642917, 1.151, -1.8, -0.513, 0.059, -0.378, 1.211, 0
1642937, 1.39, -1.345, -0.339, 0.163, 0.025, 1.232, 0
1642957, 2.218, -1.574, -0.625, 0.286, 0.097, 1.461, 0
1642977, 4.177, -2.084, -1.002, 0.075, -0.581, 1.677, 0
1642997, 3.269, -1.676, -1.128, -0.145, -1.282, 1.505, 0
1643017, 2.291, -1.003, -0.976, -0.12, -1.046, 1.352, 0
1643037, 2.81, -0.954, -0.863, -0.018, -0.541, 1.624, 0
1643057, 3.951, -1.215, -0.823, -0.024, -0.356, 1.732, 0
1643077, 4.479, -1.31, -0.642, -0.182, -0.583, 1.595, 0
1643097, 4.366, -0.897, 0.147, -0.227, -0.535, 1.436, 0
1643117, 4.774, -0.588, 0.913, -0.057, -0.332, 1.186, 0
1643137, 5.127, -0.356, 0.734, 0.081, -0.499, 0.927, 0
1643157, 4.223, -0.077, 0.404, 0.127, -0.653, 0.79, 0
1643177, 3.413, -0.312, -0.353, 0.011, -0.485, 0.697, 0
1643197, 3.258, 0.193, -0.213, -0.05, -0.268, 0.645, 0
1643217, 3.453, 0.229, -0.12, -0.059, -0.204, 0.572, 0
1643237, 3.373, 0.221, -0.291, -0.05, -0.15, 0.466, 0
1643257, 2.892, 0.204, -0.509, -0.067, -0.052, 0.335, 0
1643277, 2.443, -0.002, -0.5, -0.177, 0.084, 0.213, 0
1643297, 2.176, 0.182, -0.186, -0.209, 0.216, 0.1, 0
1643317, 1.778, 0.214, -0.12, -0.222, 0.135, 0.061, 0
1643337, 0.957, 0.138, 0.041, -0.255, 0.189, 0.064, 0
1643357, 0.92, -0.242, 0.125, -0.314, 0.3, 0.009, 0
1643377, 1.107, -0.391, 0.265, -0.415, 0.271, -0.12, 0
1643397, 0.895, -0.166, 0.293, -0.436, 0.201, -0.194, 0
1643417, 0.605, -0.2, 0.192, -0.444, 0.155, -0.197, 1
1643437, 0.647, -0.269, 0.021, -0.459, 0.078, -0.24, 1
1643457, 0.342, -0.603, -0.059, -0.481, 0.056, -0.244, 1
1643477, -0.016, -0.131, -0.336, -0.449, 0.152, -0.241, 1
1643497, -0.007, 0.025, -0.351, -0.406, 0.257, -0.198, 1
1643517, 0.225, -0.232, -0.444, -0.393, 0.324, -0.189, 1
1643537, 0.254, -0.372, -0.38, -0.39, 0.415, -0.246, 1
1643557, 0.539, -0.229, -0.233, -0.277, 0.481, -0.442, 1
1643577, 0.979, -0.46, -0.291, -0.255, 0.417, -0.563, 1
1643597, 0.763, -0.692, -0.339, -0.245, 0.385, -0.677, 1
1643617, 0.655, -0.884, -0.377, -0.286, 0.394, -0.699, 1
1643637, 0.637, -0.658, -0.566, -0.312, 0.46, -0.711, 1
1643657, 0.452, -0.628, -0.697, -0.336, 0.427, -0.82, 1
1643677, -0.191, -0.627, -0.645, -0.426, 0.418, -0.813, 1
1643697, -0.297, -0.564, -0.354, -0.443, 0.615, -0.756, 1
1643717, 0.498, -0.486, -0.233, -0.411, 0.615, -0.555, 1
1643737, 0.418, -0.831, -0.463, -0.387, 0.307, -0.515, 1
1643757, -0.556, -0.932, -1.002, -0.329, 0.211, -0.811, 1
1643777, -1.441, -0.633, -0.95, -0.368, 0.357, -0.861, 1
1643797, -1.755, -0.434, -0.395, -0.329, 0.655, -0.651, 1
1643817, -1.026, -0.096, 0.217, -0.174, 0.744, -0.301, 1
1643837, -0.659, -0.676, 0.32, 0.144, 0.571, -0.242, 1
1643857, -0.6, -1.043, 0.25, 0.408, 0.307, -0.524, 1
1643877, -1.256, -1.602, -0.49, 0.384, 0.074, -0.685, 1
1643897, -1.758, -1.517, -0.653, 0.116, 0.142, -1.0, 1
1643917, -1.786, -0.591, -0.6, -0.117, 0.252, -1.009, 1
1643937, -2.098, -0.272, -0.334, -0.172, 0.182, -0.759, 1
1643957, -2.798, 0.121, -0.486, -0.011, 0.194, -0.573, 1
1643977, -2.843, -0.394, -0.554, 0.321, 0.345, -0.536, 1
1643997, -2.768, -1.277, -1.202, 0.332, 0.532, -0.466, 1
1644017, -2.585, -1.171, -0.99, 0.042, 0.704, -0.578, 1
1644037, -2.542, -0.622, -0.313, -0.181, 0.729, -0.444, 1
1644057, -2.238, -0.555, 0.155, -0.043, 0.492, -0.4, 1
1644077, -2.518, -0.325, -0.051, 0.183, 0.277, -0.453, 1
1644097, -2.789, -0.782, -0.541, 0.15, 0.203, -0.35, 1
1644117, -3.317, -1.169, -0.994, -0.065, 0.504, -0.327, 1
1644137, -2.666, -0.818, -0.797, -0.146, 0.691, -0.224, 1
1644157, -2.25, -0.477, -0.673, -0.065, 0.552, -0.222, 1
1644177, -2.111, -0.471, -0.445, -0.026, 0.357, -0.224, 1
1644197, -2.133, -0.538, -0.274, -0.07, 0.267, -0.151, 1
1644217, -1.876, -0.592, -0.251, -0.122, 0.237, -0.14, 1
1644237, -1.931, -0.193, -0.306, -0.089, 0.191, -0.134, 1
1644257, -2.047, -0.096, -0.31, -0.029, 0.139, 0.002, 1
1644277, -1.992, -0.113, -0.177, 0.025, 0.2, 0.152, 1
1644297, -1.1, -0.156, 0.046, 0.092, 0.165, 0.26, 1
1644317, -0.601, -0.627, 0.09, 0.175, 0.041, 0.252, 1
1644337, -0.339, -0.597, -0.001, 0.15, -0.15, 0.105, 1
1644357, -0.89, -0.389, -0.419, 0.012, -0.175, -0.1, 1
1644377, -0.747, -0.118, -0.195, -0.021, -0.128, -0.132, 1
1644397, -0.855, 0.033, -0.179, 0.031, -0.002, -0.018, 1
1644417, -0.454, -0.281, -0.211, 0.023, 0.077, 0.028, 1
1644437, 0.113, -0.396, -0.129, -0.057, 0.01, -0.034, 1
1644457, 0.086, -0.264, -0.154, -0.09, -0.047, -0.1, 1
1644477, -0.244, -0.206, -0.325, -0.085, -0.003, -0.094, 1
1644497, -0.132, -0.095, -0.203, -0.082, 0.071, -0.059, 1
1644517, -0.013, -0.019, -0.154, -0.083, 0.092, -0.049, 1
1644537, 0.094, -0.049, -0.06, -0.071, 0.067, -0.048, 1
1644557, 0.433, -0.081, 0.1, -0.061, 0.034, -0.08, 1
1644577, 0.136, -0.066, -0.099, -0.071, -0.009, -0.064, 1
1644597, 0.007, -0.074, -0.31, -0.077, -0.026, -0.098, 1
1644617, -0.13, 0.032, -0.211, -0.132, 0.046, -0.077, 1
1644637, 0.097, -0.021, -0.092, -0.089, 0.181, -0.044, 1
1644657, 0.489, -0.165, -0.1, -0.007, 0.178, -0.033, 1
1644677, 0.094, -0.445, -0.315, -0.01, 0.101, -0.056, 1
1644697, -0.236, -0.382, -0.33, -0.091, 0.106, -0.109, 1
1644717, -0.198, 0.039, -0.027, -0.139, 0.246, -0.13, 1
1644737, -0.258, 0.099, -0.038, -0.061, 0.246, -0.102, 1
1644757, -0.362, -0.018, -0.091, 0.077, 0.119, -0.158, 1
1644777, -0.473, -0.396, -0.3, 0.125, 0.118, -0.213, 1
1644797, -0.79, -0.487, -0.562, -0.06, 0.264, -0.214, 1
1644817, -0.73, -0.111, -0.445, -0.161, 0.347, -0.268, 1
1644837, -0.824, 0.272, -0.18, -0.042, 0.226, -0.312, 1
1644857, -1.58, -0.182, -0.764, -0.005, 0.108, -0.238, 0
1644877, -2.247, -0.166, -1.095, -0.139, 0.105, -0.145, 0
1644897, -2.802, 0.184, -1.155, -0.325, 0.181, -0.168, 0
1644917, -3.298, 0.04, -0.705, -0.315, 0.077, -0.178, 0
1644937, -3.573, 0.306, -0.265, -0.31, -0.026, 0.103, 0
1644957, -3.684, 0.195, -0.365, -0.31, -0.086, 0.432, 0
1644977, -3.334, -0.159, -0.535, -0.341, -0.042, 0.507, 0
1644997, -2.631, -0.192, -0.068, -0.348, -0.079, 0.412, 0
1645017, -2.223, -0.639, -0.13, -0.329, -0.291, 0.378, 0
1645037, -2.011, -0.62, -0.028, -0.347, -0.852, 0.471, 0
1645057, -2.329, -0.938, -0.433, -0.333, -0.946, 0.668, 0
1645077, -1.924, -0.997, -0.927, -0.23, -0.862, 0.821, 0
1645097, -0.888, -1.322, -1.132, -0.127, -0.707, 0.802, 0
1645117, 0.397, -1.785, -1.166, -0.045, -0.75, 0.573, 0
1645137, 0.888, -1.931, -1.031, -0.111, -1.008, 0.455, 0
1645157, 0.166, -1.635, -0.888, -0.179, -1.226, 0.817, 0
1645177, -0.4, -1.149, -0.973, -0.077, -0.998, 1.097, 0
1645197, 0.798, -1.36, -1.238, 0.119, -0.778, 1.158, 0
1645217, 2.059, -1.778, -1.754, 0.186, -0.724, 1.026, 0
1645237, 2.669, -1.811, -1.554, 0.207, -0.716, 0.867, 0
1645257, 2.89, -1.773, -1.432, 0.187, -0.685, 0.817, 0
1645277, 2.557, -1.412, -1.129, 0.199, -0.511, 0.83, 0
1645297, 2.804, -1.715, -1.483, 0.046, -0.475, 1.051, 0
1645317, 2.929, -1.31, -1.163, -0.106, -0.492, 1.258, 0
1645337, 3.321, -0.92, -0.835, -0.037, -0.27, 1.213, 0
1645357, 3.746, -1.04, -0.74, -0.059, -0.227, 1.134, 0
1645377, 3.527, -0.909, -0.589, -0.172, -0.208, 1.16, 0
1645397, 3.868, -0.838, -0.264, -0.282, -0.241, 1.361, 0
1645417, 4.01, -0.584, 0.09, -0.276, -0.188, 1.35, 0
1645437, 4.326, -0.359, 0.271, -0.184, -0.123, 1.243, 0
1645457, 4.532, -0.57, 0.235, -0.208, -0.145, 1.052, 0
1645477, 4.275, -0.237, 0.444, -0.185, -0.13, 0.883, 0
1645497, 3.998, -0.153, 0.592, -0.17, -0.166, 0.77, 0
1645517, 3.508, 0.147, 0.625, -0.064, -0.161, 0.558, 0
1645537, 2.42, -0.047, 0.041, -0.094, -0.101, 0.39, 0
1645557, 1.708, 0.138, 0.21, -0.166, -0.006, 0.337, 0
1645577, 1.794, 0.199, 0.479, -0.189, 0.175, 0.351, 0
1645597, 2.099, 0.109, 0.474, -0.144, 0.155, 0.331, 0
1645617, 1.942, -0.295, -0.001, -0.101, 0.028, 0.219, 0
1645637, 1.604, -0.496, -0.232, -0.18, 0.073, 0.114, 0
1645657, 1.696, -0.561, -0.066, -0.335, 0.183, 0.114, 1
1645677, 1.502, -0.668, 0.22, -0.523, 0.175, 0.234, 1
1645697, 1.143, 0.078, -0.064, -0.672, 0.222, 0.406, 1
1645717, 1.233, 0.107, -0.06, -0.445, 0.251, 0.288, 1
1645737, 1.291, -0.147, -0.134, -0.194, 0.138, 0.109, 1
1645757, 0.877, -0.874, -0.328, 0.01, 0.018, -0.177, 1
1645777, 0.514, -0.397, -0.469, -0.083, -0.087, -0.254, 1
1645797, 0.023, -0.321, -0.478, -0.084, 0.043, -0.317, 1
1645817, 0.273, -0.562, -0.291, -0.017, 0.251, -0.292, 1
1645837, 0.741, -0.64, -0.11, -0.045, 0.283, -0.141, 1
1645857, 1.08, -0.74, 0.026, -0.111, 0.31, -0.133, 1
1645877, 1.0, -0.514, 0.371, -0.226, 0.277, -0.212, 1
1645897, 0.988, -0.532, 0.266, -0.116, 0.389, -0.524, 1
1645917, 0.625, -0.639, -0.205, -0.073, 0.331, -0.672, 1
1645937, 0.203, -0.619, -0.31, -0.116, 0.243, -0.703, 1
1645957, 0.03, -0.453, -0.151, -0.189, 0.234, -0.556, 1
1645977, -0.151, -0.203, -0.042, -0.219, 0.251, -0.36, 1
1645997, -0.156, -0.466, -0.429, 0.055, 0.538, -0.8, 1
1646017, -0.113, -1.007, -0.872, -0.062, 0.648, -0.894, 1
1646037, -0.075, -0.822, -0.524, -0.15, 0.612, -0.935, 1
1646057, -0.135, -0.57, -0.055, -0.053, 0.566, -0.804, 1
1646077, -0.335, -0.08, -0.027, 0.213, 0.366, -0.699, 1
1646097, -0.869, -0.646, -0.521, 0.291, 0.169, -0.715, 1
1646117, -1.684, -1.55, -1.174, 0.007, 0.393, -0.841, 1
1646137, -1.384, -1.168, -0.945, -0.16, 0.734, -0.886, 1
1646157, -1.809, -0.766, -0.848, -0.152, 0.844, -0.895, 1
1646177, -2.21, -0.375, -0.573, -0.123, 0.74, -0.77, 1
1646197, -2.218, -0.175, -0.066, -0.018, 0.526, -0.655, 1
1646217, -2.267, 0.153, -0.019, 0.185, 0.227, -0.653, 1
1646237, -2.732, -0.371, -0.555, 0.235, 0.136, -0.638, 1
1646257, -2.767, -0.719, -0.782, 0.184, 0.279, -0.579, 1
1646277, -2.491, -1.085, -1.003, 0.084, 0.417, -0.56, 1
1646297, -2.855, -0.661, -1.157, 0.077, 0.409, -0.598, 1
1646317, -3.107, -0.39, -1.025, 0.018, 0.271, -0.406, 1
1646337, -2.827, -0.52, -0.608, 0.036, 0.237, -0.273, 1
1646357, -2.045, -0.857, -0.523, 0.058, 0.268, -0.337, 1
1646377, -2.168, -0.854, -0.644, 0.063, 0.295, -0.502, 1
1646397, -2.617, -0.518, -0.71, 0.014, 0.317, -0.389, 1
1646417, -2.441, -0.459, -0.278, -0.054, 0.411, -0.158, 1
1646437, -1.527, -0.352, 0.241, 0.016, 0.491, -0.08, 1
1646457, -0.909, -0.396, 0.354, 0.13, 0.375, -0.174, 1
1646477, -1.039, -0.512, -0.019, 0.153, 0.191, -0.304, 1
1646497, -1.454, -0.624, -0.083, -0.007, 0.251, -0.273, 1
1646517, -0.875, -0.252, 0.075, -0.039, 0.293, -0.19, 1
1646537, -1.002, -0.143, -0.125, 0.054, 0.254, -0.139, 1
1646557, -0.966, -0.172, -0.344, 0.168, 0.207, -0.083, 1
1646577, -0.886, -0.513, -0.396, 0.145, 0.231, -0.023, 1
1646597, -0.689, -0.492, -0.432, 0.017, 0.31, -0.044, 1
1646617, -0.653, -0.426, -0.38, -0.076, 0.248, -0.111, 1
1646637, -1.114, -0.105, -0.249, -0.081, 0.109, -0.202, 1
1646657, -1.221, 0.22, 0.017, -0.051, 0.099, -0.186, 1
1646677, -0.713, 0.221, 0.087, -0.014, 0.135, -0.034, 1
1646697, -0.361, 0.127, -0.155, 0.042, 0.081, -0.045, 1
1646717, -0.436, 0.025, -0.669, 0.062, -0.018, -0.135, 1
1646737, -0.737, -0.227, -0.655, -0.012, -0.031, -0.123, 1
1646757, -0.626, -0.168, -0.495, -0.105, 0.069, -0.062, 1
1646777, -0.283, -0.217, -0.307, -0.133, 0.103, -0.001, 1
1646797, -0.093, -0.208, -0.117, -0.139, 0.043, -0.017, 1
1646817, -0.028, -0.007, 0.084, -0.14, 0.026, 0.047, 1
1646837, 0.072, 0.063, 0.196, -0.071, 0.031, 0.12, 1
1646857, 0.456, -0.306, -0.007, 0.081, 0.015, 0.071, 1
1646877, 0.5, -0.585, -0.183, -0.029, 0.059, 0.108, 1
1646897, 0.592, -0.352, -0.147, -0.158, 0.127, 0.101, 1
1646917, 0.922, -0.046, 0.08, -0.099, 0.117, 0.058, 1
1646937, 1.01, -0.27, 0.046, 0.052, 0.068, 0.017, 1
1646957, 0.858, -0.801, -0.366, 0.11, 0.095, -0.047, 1
1646977, 0.456, -0.978, -0.68, -0.345, 0.425, -0.092, 1
1646997, 0.67, -0.148, -0.1, -0.294, 0.431, -0.222, 1
1647017, 0.472, -0.572, -0.215, -0.361, 0.395, -0.23, 1
1647037, 0.042, -0.541, -0.209, -0.497, 0.431, -0.256, 1
1647057, -0.623, 0.308, 0.253, -0.348, 0.322, -0.17, 0
1647077, -1.144, 0.77, 0.508, -0.09, 0.122, -0.05, 0
1647097, -1.826, 0.538, 0.024, 0.023, 0.054, 0.049, 0
1647117, -2.189, -0.071, -0.885, -0.135, 0.238, 0.08, 0
1647137, -1.963, -0.521, -1.044, -0.354, 0.276, 0.095, 0
1647157, -1.74, -0.089, -0.543, -0.424, 0.051, 0.13, 0
1647177, -2.504, 0.317, -0.54, -0.305, -0.092, 0.251, 0
1647197, -3.051, 0.235, -0.634, -0.178, -0.061, 0.361, 0
1647217, -3.037, -0.135, -0.548, -0.097, -0.122, 0.378, 0
1647237, -3.107, -0.544, -0.424, -0.182, -0.256, 0.414, 0
1647257, -3.488, 0.055, -0.074, -0.178, -0.439, 0.591, 0
1647277, -3.29, -0.148, -0.097, -0.091, -0.567, 0.781, 0
1647297, -2.62, -0.884, -0.514, -0.151, -0.634, 0.773, 0
1647317, -1.939, -1.071, -0.954, -0.248, -0.689, 0.557, 0
1647337, -1.46, -1.132, -0.979, -0.334, -0.951, 0.64, 0
1647357, -1.323, -1.116, -0.896, -0.377, -1.178, 0.728, 0
1647377, -1.319, -0.924, -0.856, -0.219, -1.154, 0.896, 0
1647397, -1.187, -1.256, -1.079, -0.078, -0.982, 1.002, 0
1647417, -0.59, -1.106, -0.844, 0.125, -0.778, 0.967, 0
1647437, 0.743, -1.593, -1.126, 0.194, -0.927, 1.056, 0
1647457, 1.362, -2.404, -1.821, -0.064, -1.042, 0.799, 0
1647477, 0.572, -1.788, -1.856, -0.227, -1.061, 0.94, 0
1647497, 0.609, -1.735, -1.873, -0.183, -0.777, 1.219, 0
1647517, 1.58, -1.945, -1.425, -0.25, -0.386, 1.241, 0
1647537, 2.283, -1.936, -0.78, -0.266, -0.386, 1.349, 0
1647557, 2.39, -2.251, -0.537, -0.308, -0.609, 1.491, 0
1647577, 2.413, -2.072, -0.339, -0.244, -0.533, 1.401, 0
1647677, 3.166, -0.822, 0.0, -0.268, -0.351, 1.231, 0
1647697, 3.726, -0.858, 0.202, -0.092, -0.183, 1.353, 0
1647717, 4.426, -0.862, -0.035, -0.003, -0.18, 1.23, 0
1647737, 3.96, -0.667, -0.141, -0.027, -0.358, 0.934, 0
1647757, 3.547, -0.362, -0.149, -0.077, -0.298, 0.704, 0
1647777, 3.361, 0.093, 0.045, -0.11, -0.25, 0.662, 0
1647797, 3.317, 0.046, -0.087, -0.043, -0.175, 0.666, 0
1647817, 3.301, -0.225, -0.247, -0.031, -0.112, 0.629, 0
1647837, 3.573, -0.397, -0.162, -0.069, -0.047, 0.437, 0
1647857, 3.111, -0.297, 0.018, -0.102, -0.07, 0.21, 0
1647877, 2.36, -0.052, 0.256, -0.134, -0.036, 0.099, 0
1647897, 2.063, 0.057, 0.563, -0.098, 0.056, 0.086, 0
1647917, 1.876, -0.328, 0.356, -0.025, 0.063, -0.005, 0
1647937, 1.421, -0.118, 0.461, 0.004, 0.035, -0.08, 0
1647957, 1.476, -0.305, 0.394, 0.08, 0.141, -0.054, 0
1647977, 1.821, -0.683, 0.425, 0.044, 0.125, -0.043, 0
1647997, 2.087, -1.013, 0.235, -0.098, 0.081, 0.006, 1
1648017, 2.111, -0.876, 0.215, -0.239, -0.007, 0.075, 1
1648037, 1.87, -0.655, -0.198, -0.249, -0.045, -0.001, 1
1648057, 1.853, -0.427, -0.334, -0.085, -0.096, -0.026, 1
1648077, 1.382, -1.386, -0.824, -0.028, 0.0, -0.118, 1
1648097, 1.156, -2.07, -1.073, -0.189, 0.265, -0.336, 1
1648117, 1.227, -1.575, -0.691, -0.337, 0.543, -0.58, 1
1648137, 1.507, -0.961, -0.174, -0.215, 0.601, -0.712, 1
1648157, 1.328, -0.689, -0.517, -0.023, 0.573, -0.912, 1
1648177, 0.506, -0.932, -0.953, 0.006, 0.481, -1.023, 1
1648197, -0.308, -0.782, -0.78, -0.062, 0.413, -0.877, 1
1648217, -0.978, -0.839, -0.934, -0.127, 0.518, -0.773, 1
1648237, -1.086, -1.285, -0.956, -0.241, 0.675, -0.825, 1
1648257, -0.729, -1.231, -0.648, -0.264, 0.811, -0.962, 1
1648277, -1.12, -1.06, -0.322, -0.191, 1.015, -0.949, 1
1648297, -0.723, -0.669, 0.251, -0.007, 1.04, -0.937, 1
1648317, -0.924, -0.195, 0.057, 0.171, 0.65, -0.959, 1
1648337, -1.227, -0.673, -0.519, 0.133, 0.194, -0.788, 1
1648357, -2.062, -1.382, -0.984, -0.059, 0.252, -0.89, 1
1648377, -2.284, -1.383, -0.625, -0.174, 0.605, -1.004, 1
1648397, -2.234, -0.675, -0.307, -0.01, 0.878, -1.065, 1
1648417, -2.804, 0.042, -0.425, 0.221, 0.701, -1.083, 1
1648437, -3.42, 0.039, -0.384, 0.096, 0.416, -0.608, 1
1648457, -2.715, -0.719, -0.358, -0.068, 0.608, -0.5, 1
1648477, -2.277, -0.3, -0.192, -0.143, 0.801, -0.574, 1
1648497, -1.812, -0.468, -0.353, 0.009, 0.705, -0.607, 1
1648517, -1.666, -0.859, -0.476, 0.079, 0.479, -0.55, 1
1648537, -1.64, -0.675, -0.578, 0.045, 0.31, -0.576, 1
1648557, -2.193, -0.634, -0.944, 0.0, 0.222, -0.588, 1
1648577, -2.429, -0.687, -0.981, -0.078, 0.299, -0.554, 1
1648597, -1.784, -0.68, -0.441, -0.072, 0.433, -0.37, 1
1648617, -0.967, -0.848, -0.193, 0.049, 0.557, -0.255, 1
1648637, -0.206, -1.021, -0.034, 0.152, 0.5, -0.24, 1
1648657, -0.085, -1.058, -0.098, 0.151, 0.285, -0.306, 1
1648677, -0.387, -0.872, -0.314, 0.09, 0.136, -0.422, 1
1648697, -0.747, -0.924, -0.431, 0.089, 0.086, -0.55, 1
1648717, -1.405, -0.676, -0.53, 0.104, 0.158, -0.605, 1
1648737, -1.722, -0.151, -0.439, 0.037, 0.295, -0.461, 1
1648757, -1.365, -0.143, -0.085, 0.074, 0.451, -0.282, 1
1648777, -0.571, -0.32, 0.014, 0.151, 0.496, -0.248, 1
1648797, -0.864, -0.423, -0.245, 0.121, 0.311, -0.299, 1
1648817, -1.275, -0.225, -0.465, 0.022, 0.155, -0.334, 1
1648837, -1.552, -0.113, -0.382, -0.029, 0.179, -0.32, 1
1648857, -1.501, -0.127, -0.409, -0.029, 0.255, -0.263, 1
1648877, -1.427, 0.151, -0.18, -0.064, 0.182, -0.2, 1
1648897, -1.118, 0.047, -0.026, 0.056, 0.034, -0.218, 1
1648917, -0.746, -0.278, -0.086, 0.109, -0.019, -0.194, 1
1648937, -0.534, -0.46, -0.169, -0.124, 0.029, -0.106, 1
1648957, -0.661, 0.04, -0.304, -0.159, 0.043, 0.0, 1
1648977, -0.696, 0.119, -0.321, -0.136, -0.039, 0.086, 1
1648997, -0.51, -0.145, 0.549, 0.103, -0.116, -0.03, 1
1649017, 0.499, 0.329, 0.38, 0.139, -0.189, 0.196, 1
1649037, 0.332, -0.468, -0.282, 0.033, -0.199, 0.007, 1
1649057, 0.249, -0.478, -0.21, -0.013, -0.13, -0.051, 1
1649077, 0.05, -0.126, -0.247, -0.048, -0.015, -0.042, 1
1649097, 0.498, -0.189, -0.113, -0.104, -0.058, -0.025, 1
1649117, 0.157, -0.346, -0.407, -0.213, -0.047, 0.003, 1
1649137, 0.018, -0.005, -0.374, -0.201, 0.136, 0.066, 1
1649157, 0.496, -0.059, -0.097, -0.02, 0.172, 0.0, 1
1649177, 0.796, -0.253, -0.337, 0.029, 0.0, -0.052, 1
1649197, 0.125, -0.105, -0.659, 0.028, -0.056, -0.111, 1
1649217, -0.186, -0.116, -0.547, -0.035, 0.112, -0.122, 1
1649237, -0.135, -0.02, -0.282, -0.017, 0.317, -0.156, 1
1649257, 0.305, -0.025, -0.176, -0.026, 0.32, -0.226, 1
1649277, 0.358, 0.056, -0.04, 0.0, 0.15, -0.193, 1
1649297, 0.2, -0.062, -0.009, 0.005, 0.041, -0.211, 1
1649317, -0.17, -0.365, -0.211, -0.11, 0.079, -0.204, 1
1649337, -0.391, -0.053, -0.208, -0.154, 0.215, -0.246, 1
1649357, -0.239, 0.221, -0.052, -0.036, 0.195, -0.228, 1
1649377, -0.246, 0.031, 0.022, 0.088, 0.059, -0.233, 1
1649397, -0.579, -0.264, -0.253, 0.098, 0.01, -0.263, 1
1649417, -1.243, -0.295, -0.503, -0.091, 0.076, -0.108, 1
1649437, -2.547, 0.126, 0.021, -0.019, 0.091, -0.049, 1
1649457, -2.778, 0.334, 0.163, 0.044, 0.062, 0.161, 1
1649477, -3.432, 0.235, -0.065, 0.141, -0.045, 0.342, 1
1649497, -3.687, -0.811, -0.471, 0.001, -0.087, 0.461, 0
1649517, -3.694, -0.417, 0.18, -0.301, -0.205, 0.469, 0
1649537, -3.924, -0.136, 0.322, -0.194, -0.422, 0.532, 0
1649557, -4.467, -0.517, -0.067, -0.103, -0.392, 0.755, 0
1649577, -3.73, -1.406, -0.458, -0.12, -0.135, 0.905, 0
1649597, -2.268, -1.397, -0.499, -0.354, -0.157, 1.065, 0
1649617, -2.291, -0.847, -0.043, -0.452, -0.511, 1.066, 0
1649637, -2.242, -1.089, -0.413, -0.307, -0.604, 1.163, 0
1649657, -1.079, -1.423, -0.91, -0.253, -0.593, 1.22, 0
1649677, -1.05, -1.519, -1.336, -0.274, -0.882, 1.236, 0
1649697, -1.123, -1.653, -1.424, -0.295, -0.921, 1.257, 0
1649717, 0.279, -1.642, -1.232, -0.35, -0.791, 1.272, 0
1649737, 0.821, -1.642, -1.564, -0.356, -0.972, 1.266, 0
1649757, 0.485, -1.219, -1.843, -0.326, -1.087, 1.341, 0
1649777, 0.852, -1.585, -2.077, -0.293, -0.879, 1.412, 0
1649797, 1.653, -1.487, -1.392, -0.277, -0.69, 1.454, 0
1649817, 2.596, -1.911, -1.061, -0.259, -0.69, 1.419, 0
1649837, 2.792, -1.816, -0.815, -0.271, -0.886, 1.177, 0
1649857, 2.078, -1.712, -0.919, -0.304, -1.029, 1.158, 0
1649877, 2.201, -1.633, -0.831, -0.299, -0.816, 1.173, 0
1649897, 3.24, -1.934, -1.267, -0.235, -0.714, 1.224, 0
1649917, 3.183, -1.903, -1.598, -0.307, -0.731, 1.133, 0
1649937, 2.756, -1.564, -1.716, -0.285, -0.54, 1.061, 0
1649957, 2.446, -1.324, -1.49, -0.292, -0.297, 1.064, 0
1649977, 2.509, -1.395, -1.254, -0.365, -0.21, 1.158, 0
1649997, 2.45, -1.323, -0.91, -0.39, -0.203, 1.158, 0
1650017, 2.561, -1.244, -0.259, -0.363, -0.123, 1.067, 0
1650037, 2.81, -0.915, 0.605, -0.257, -0.184, 0.935, 0
1650057, 2.855, -0.769, 0.981, -0.133, -0.249, 0.863, 0
1650077, 2.785, -0.508, 0.839, 0.023, -0.315, 0.82, 0
1650097, 2.754, -0.768, -0.02, 0.045, -0.39, 0.723, 0
1650117, 2.203, -0.502, -0.474, 0.017, -0.279, 0.627, 0
1650137, 2.122, -0.453, -0.385, -0.042, -0.063, 0.594, 0
1650157, 2.7, -0.395, 0.145, -0.071, 0.025, 0.575, 0
1650177, 3.284, -0.184, 0.488, -0.027, -0.029, 0.428, 0
1650197, 2.925, -0.36, -0.006, -0.052, -0.158, 0.262, 0
1650217, 2.229, -0.152, -0.185, -0.098, 0.026, 0.186, 0
1650237, 2.59, 0.0, 0.215, -0.099, 0.152, 0.12, 0
1650257, 2.797, -0.207, 0.242, -0.092, 0.114, -0.078, 0
1650277, 2.28, -0.13, -0.026, -0.095, 0.029, -0.226, 0
1650297, 1.622, -0.155, -0.208, -0.143, 0.104, -0.263, 0
1650317, 1.44, -0.12, -0.311, -0.175, 0.272, -0.221, 1
1650337, 1.695, -0.56, -0.604, -0.337, 0.36, -0.174, 1
1650357, 1.571, -0.471, -0.72, -0.522, 0.383, -0.15, 1
1650377, 1.348, -0.399, -0.337, -0.496, 0.462, -0.259, 1
1650397, 1.389, -0.547, 0.095, -0.377, 0.365, -0.257, 1
1650417, 1.29, -0.856, 0.124, -0.229, 0.304, -0.194, 1
1650437, 1.299, -1.449, -0.187, -0.204, 0.386, -0.257, 1
1650457, 1.061, -0.788, -0.557, -0.298, 0.56, -0.554, 1
1650477, 0.078, -0.509, -0.162, -0.156, 0.626, -0.871, 1
1650497, -0.488, -0.693, -0.621, -0.184, 0.591, -0.791, 1
1650517, -0.684, -0.659, -0.555, -0.282, 0.603, -0.678, 1
1650537, -0.362, -0.527, -0.079, -0.278, 0.851, -0.57, 1
1650557, -0.275, -0.458, 0.171, -0.106, 1.029, -0.599, 1
1650577, 0.021, -0.896, -0.024, 0.119, 0.968, -0.775, 1
1650597, 0.112, -1.412, -0.444, 0.184, 0.796, -0.855, 1
1650617, -0.239, -1.862, -0.727, 0.086, 0.665, -1.006, 1
1650637, -0.745, -1.587, -0.69, 0.0, 0.738, -1.222, 1
1650657, -1.559, -0.824, -0.927, 0.012, 0.653, -1.262, 1
1650677, -2.043, -0.542, -0.592, -0.028, 0.421, -1.075, 1
1650697, -1.834, -0.75, -0.316, 0.02, 0.516, -1.004, 1
1650717, -2.228, -0.851, -1.03, 0.222, 0.751, -1.08, 1
1650737, -2.724, -1.145, -1.372, 0.237, 0.764, -1.108, 1
1650757, -3.028, -1.25, -0.934, 0.055, 0.719, -0.995, 1
1650777, -2.66, -0.956, -0.63, -0.05, 0.842, -0.901, 1
1650797, -2.8, -0.658, -0.842, 0.066, 0.742, -0.905, 1
1650817, -3.646, -0.633, -0.894, 0.034, 0.575, -0.828, 1
1650837, -3.362, -0.756, -0.693, 0.065, 0.714, -0.794, 1
1650857, -2.565, -0.884, -0.768, 0.087, 0.782, -0.735, 1
1650877, -2.905, -0.866, -1.036, 0.021, 0.597, -0.873, 1
1650897, -3.482, -0.598, -0.825, -0.022, 0.293, -0.786, 1
1650917, -3.348, -0.396, -0.361, 0.08, 0.403, -0.601, 1
1650937, -2.41, -0.6, -0.225, 0.194, 0.374, -0.492, 1
1650957, -2.235, -0.589, -0.632, 0.188, 0.176, -0.613, 1
1650977, -2.858, -0.83, -0.965, -0.002, 0.087, -0.629, 1
1650997, -3.161, -0.439, -0.66, -0.149, 0.298, -0.436, 1
1651017, -2.324, -0.281, -0.133, -0.094, 0.422, -0.273, 1
1651037, -1.858, -0.204, -0.029, 0.034, 0.252, -0.221, 1
1651057, -1.896, -0.411, -0.134, 0.081, 0.057, -0.178, 1
1651077, -1.742, -0.495, -0.104, 0.023, 0.105, -0.079, 1
1651097, -1.328, -0.649, 0.111, 0.045, 0.204, -0.056, 1
1651117, -0.795, -0.459, 0.035, 0.136, 0.139, -0.164, 1
1651137, -1.047, -0.484, -0.283, 0.12, 0.01, -0.211, 1
1651157, -1.225, -0.641, -0.359, -0.021, -0.025, -0.13, 1
1651177, -0.635, -0.146, -0.066, -0.048, -0.065, -0.108, 1
1651197, -0.609, -0.04, 0.001, 0.02, -0.087, -0.071, 1
1651217, -0.653, -0.078, -0.254, 0.043, -0.078, -0.065, 1
1651237, -0.678, -0.14, -0.315, -0.006, -0.036, -0.031, 1
1651257, -0.347, -0.058, -0.2, 0.071, 0.086, -0.039, 1
1651277, 0.273, -0.26, -0.225, 0.08, 0.03, -0.022, 1
1651297, 0.372, -0.351, -0.448, -0.012, -0.059, -0.009, 1
1651317, 0.133, -0.099, -0.591, -0.036, -0.087, -0.029, 1
1651337, -0.128, -0.049, -0.682, -0.027, -0.003, 0.0, 1
1651357, -0.046, -0.186, -0.521, -0.056, 0.163, 0.022, 1
1651377, 0.335, -0.127, -0.223, -0.04, 0.186, -0.003, 1
1651397, 0.477, -0.54, -0.302, -0.059, 0.023, -0.026, 1
1651417, 0.166, -0.435, -0.194, -0.183, 0.006, -0.023, 1
1651437, 0.078, -0.263, -0.05, -0.215, 0.151, -0.046, 1
1651457, 0.173, -0.015, 0.072, -0.138, 0.241, -0.094, 1
1651477, -0.275, -0.223, -0.127, -0.039, 0.136, -0.107, 1
1651497, -0.536, -0.313, -0.13, -0.044, 0.072, -0.094, 1
1651517, -0.518, -0.207, 0.217, -0.131, 0.131, -0.053, 1
1651537, -0.448, -0.003, 0.276, -0.159, 0.174, -0.021, 1
1651557, -0.467, 0.04, 0.231, -0.015, 0.086, -0.085, 1
1651577, -0.912, -0.17, -0.035, 0.103, 0.015, -0.105, 1
1651597, -1.256, -0.538, -0.391, 0.061, 0.013, -0.024, 1
1651617, -1.557, -0.915, -0.634, -0.218, 0.185, -0.029, 1
1651637, -1.988, -0.04, -0.572, -0.474, 0.404, -0.178, 1
1651657, -2.344, 0.465, -0.224, -0.16, 0.54, -0.46, 1
1651677, -1.906, -0.227, -0.443, -0.117, 0.576, -0.151, 0
1651697, -1.505, -0.273, -0.218, -0.205, 0.244, 0.059, 0
1651717, -2.396, -0.125, -0.355, -0.321, -0.125, 0.15, 0
1651737, -2.822, -0.361, -0.56, -0.258, -0.107, 0.174, 0
1651757, -2.51, -0.275, -0.659, -0.27, 0.012, 0.4, 0
1651777, -2.052, -0.221, -0.68, -0.241, -0.054, 0.664, 0
1651797, -1.636, -0.261, -0.719, -0.192, -0.252, 0.737, 0
1651817, -1.794, -0.166, -0.503, -0.113, -0.579, 0.676, 0
1651837, -2.037, -0.356, -0.603, -0.028, -0.753, 0.726, 0
1651857, -1.629, -0.412, -0.567, 0.137, -0.739, 0.868, 0
1651877, -1.082, -1.068, -1.049, 0.171, -0.747, 0.824, 0
1651897, -0.608, -1.422, -1.42, 0.091, -0.925, 0.767, 0
1651917, -0.556, -1.768, -1.607, -0.197, -1.128, 0.938, 0
1651937, -0.493, -1.465, -1.326, -0.213, -0.979, 0.967, 0
1651957, 0.004, -1.639, -1.178, -0.188, -0.828, 1.02, 0
1651977, 0.627, -1.425, -0.827, 0.01, -0.759, 0.939, 0
1651997, 1.612, -2.241, -1.455, -0.075, -0.984, 0.924, 0
1652017, 1.284, -1.747, -1.619, -0.378, -1.28, 1.209, 0
1652037, 0.674, -1.041, -1.484, -0.207, -0.894, 1.318, 0
1652057, 1.455, -1.576, -1.656, -0.205, -0.698, 1.464, 0
1652077, 2.72, -1.557, -1.388, -0.137, -0.779, 1.431, 0
1652097, 3.049, -1.8, -1.528, -0.137, -0.91, 1.348, 0
1652117, 2.143, -1.56, -1.78, -0.149, -0.753, 1.318, 0
1652137, 1.758, -2.073, -2.053, -0.395, -0.433, 1.57, 0
1652157, 2.055, -1.651, -1.19, -0.56, -0.149, 1.898, 0
1652177, 3.161, -1.493, -0.27, -0.454, 0.008, 1.912, 0
1652197, 4.354, -1.344, 0.538, -0.302, -0.091, 1.736, 0
1652217, 5.394, -1.339, 1.05, -0.174, -0.226, 1.43, 0
1652237, 6.312, -1.502, 0.889, -0.153, -0.403, 1.058, 0
1652257, 6.1, -0.859, 0.654, -0.109, -0.568, 0.787, 0
1652277, 5.67, -0.304, 0.396, 0.039, -0.49, 0.602, 0
1652297, 5.666, -0.073, 0.023, 0.12, -0.483, 0.418, 0
1652317, 4.845, -0.104, -0.395, 0.083, -0.39, 0.228, 0
1652337, 3.961, -0.275, -0.673, -0.092, -0.145, 0.068, 0
1652357, 3.235, 0.092, -0.09, -0.251, 0.006, 0.028, 0
1652377, 1.94, 0.323, 0.348, -0.185, 0.114, 0.028, 0
1652397, 1.809, -0.031, 0.457, -0.131, 0.17, 0.072, 0
1652417, 1.37, -0.401, 0.225, -0.172, 0.198, 0.051, 0
1652437, 1.525, -0.233, 0.401, -0.218, 0.258, 0.084, 0
1652457, 2.092, -0.622, 0.353, -0.226, 0.317, 0.091, 0
1652477, 2.798, -0.995, 0.182, -0.323, 0.284, 0.01, 0
1652497, 2.387, -0.785, -0.188, -0.557, 0.128, -0.054, 1
1652517, 1.711, -0.347, -0.362, -0.65, 0.072, -0.092, 1
1652537, 1.319, -0.292, -0.277, -0.566, 0.204, -0.191, 1
1652557, 0.964, 0.063, -0.015, -0.408, 0.272, -0.211, 1
1652577, 1.0, -0.289, -0.075, -0.255, 0.376, -0.161, 1
1652597, 1.139, -0.817, -0.355, -0.223, 0.43, -0.214, 1
1652617, 0.98, -0.721, -0.372, -0.251, 0.544, -0.401, 1
1652637, 0.876, -0.704, -0.186, -0.241, 0.596, -0.511, 1
1652657, 0.444, -0.657, -0.105, -0.194, 0.647, -0.565, 1
1652677, 0.262, -0.603, 0.026, -0.125, 0.621, -0.577, 1
1652697, -0.08, -0.481, -0.012, -0.074, 0.483, -0.511, 1
1652717, -0.319, -0.469, -0.225, 0.003, 0.409, -0.455, 1
1652737, -0.477, -0.911, -0.516, 0.018, 0.432, -0.515, 1
1652757, -0.856, -0.791, -0.608, -0.092, 0.489, -0.604, 1
1652777, -1.13, -0.514, -0.373, -0.13, 0.657, -0.678, 1
1652797, -0.866, -0.267, 0.191, -0.109, 0.751, -0.472, 1
1652817, -0.294, -0.301, 0.365, 0.061, 0.757, -0.281, 1
1652837, 0.123, -0.509, -0.01, 0.266, 0.463, -0.35, 1
1652857, -0.273, -1.207, -0.535, 0.164, 0.426, -0.645, 1
1652877, -0.829, -1.002, -0.608, -0.001, 0.561, -0.75, 1
1652897, -1.062, -0.568, -0.421, -0.025, 0.658, -0.701, 1
1652917, -1.156, -0.259, -0.403, -0.071, 0.516, -0.555, 1
1652937, -1.24, 0.351, -0.444, 0.032, 0.379, -0.314, 1
1652957, -1.302, 0.088, -0.436, 0.281, 0.516, -0.25, 1
1652977, -0.955, -0.814, -0.885, 0.346, 0.762, -0.319, 1
1652997, -0.433, -1.213, -1.148, 0.195, 0.826, -0.45, 1
1653017, -0.142, -1.182, -0.933, 0.048, 0.663, -0.634, 1
1653037, -0.533, -0.708, -0.663, 0.088, 0.469, -0.728, 1
1653057, -0.8, -0.785, -0.497, 0.154, 0.37, -0.655, 1
1653077, -0.843, -0.837, -0.554, 0.299, 0.334, -0.781, 1
1653097, -1.786, -1.29, -1.574, 0.162, 0.28, -0.915, 1
1653117, -3.076, -1.045, -1.634, -0.146, 0.428, -0.718, 1
1653137, -3.176, -0.312, -0.782, -0.098, 0.813, -0.438, 1
1653157, -1.665, -0.47, -0.036, 0.075, 0.921, -0.266, 1
1653177, -0.499, -0.788, 0.15, 0.158, 0.548, -0.525, 1
1653197, -0.635, -0.866, 0.154, 0.084, -0.002, -0.748, 1
1653217, -1.962, -0.374, -0.092, 0.086, -0.169, -0.804, 1
1653237, -2.706, 0.005, -0.325, 0.168, 0.001, -0.72, 1
1653257, -2.964, -0.108, -0.602, 0.166, 0.215, -0.569, 1
1653277, -2.692, 0.044, -0.529, 0.116, 0.291, -0.351, 1
1653297, -2.021, -0.058, -0.299, 0.028, 0.241, -0.147, 1
1653317, -1.412, 0.061, -0.049, 0.053, 0.167, -0.242, 1
1653337, -1.245, -0.096, -0.247, 0.088, 0.074, -0.352, 1
1653357, -1.323, 0.294, -0.124, 0.051, 0.061, -0.281, 1
1653377, -1.09, 0.134, -0.139, 0.043, 0.121, -0.148, 1
1653397, -0.386, 0.054, -0.086, 0.035, 0.1, -0.023, 1
1653417, -0.148, 0.173, -0.105, 0.069, -0.029, -0.051, 1
1653437, -0.318, -0.088, -0.282, 0.087, -0.063, -0.119, 1
1653457, 0.049, -0.041, -0.347, 0.05, 0.058, -0.125, 1
1653477, 0.185, -0.105, -0.572, 0.014, 0.048, -0.108, 1
1653497, 0.075, 0.001, -0.514, -0.062, -0.026, -0.062, 1
1653517, 0.134, 0.104, -0.326, -0.056, -0.02, -0.059, 1
1653537, 0.102, 0.02, -0.418, 0.01, 0.001, -0.045, 1
1653557, -0.272, -0.182, -0.694, 0.043, 0.024, -0.075, 1
1653577, -0.179, -0.116, -0.522, -0.071, 0.087, -0.029, 1
1653597, 0.13, 0.001, -0.258, -0.119, 0.153, -0.019, 1
1653617, 0.187, -0.011, -0.208, -0.084, 0.076, 0.036, 1
1653637, 0.069, -0.197, -0.293, -0.017, 0.031, 0.02, 1
1653657, -0.428, -0.286, -0.541, -0.019, 0.063, -0.051, 1
1653677, -0.464, -0.226, -0.283, -0.153, 0.186, -0.029, 1
1653697, -0.025, -0.069, -0.005, -0.262, 0.209, 0.031, 1
1653717, 0.125, 0.175, 0.235, -0.224, 0.108, 0.064, 1
1653737, 0.253, -0.222, 0.143, -0.021, 0.034, 0.012, 1
1653757, -0.104, -0.337, -0.074, 0.004, 0.005, -0.046, 1
1653777, -0.46, -0.232, -0.185, -0.125, 0.062, -0.029, 1
1653797, -0.195, -0.14, -0.163, -0.211, 0.119, 0.034, 1
1653817, 0.057, -0.193, -0.105, -0.171, 0.08, 0.063, 1
1653837, 0.122, -0.496, 0.079, -0.072, 0.109, -0.051, 1
1653857, 0.031, -0.329, -0.108, -0.119, 0.166, -0.111, 1
1653877, -0.354, -0.351, -0.184, -0.205, 0.207, -0.188, 1
1653897, -0.871, -0.038, -0.316, -0.373, 0.393, -0.144, 0
1653917, -0.698, 0.809, 0.262, -0.087, 0.455, -0.081, 0
1653937, -0.795, 0.787, 0.359, 0.284, 0.316, 0.039, 0
1653957, -1.771, -0.809, -0.742, -0.012, 0.13, 0.0, 0
1653977, -2.528, 0.217, -0.562, -0.174, 0.106, -0.04, 0
1653997, -3.121, -0.01, -0.237, -0.27, 0.103, 0.122, 0
1654017, -3.178, -0.027, -0.156, -0.351, -0.032, 0.18, 0
1654037, -3.757, 0.163, 0.071, -0.323, -0.189, 0.257, 0
1654057, -4.167, 0.22, 0.224, -0.161, -0.319, 0.369, 0
1654077, -4.366, -0.055, 0.104, -0.089, -0.464, 0.533, 0
1654097, -4.007, -0.437, -0.007, -0.111, -0.62, 0.627, 0
1654117, -3.246, -0.812, -0.436, -0.163, -0.777, 0.722, 0
1654137, -2.676, -1.123, -0.773, -0.227, -0.912, 0.639, 0
1654157, -1.986, -1.002, -0.93, -0.181, -1.075, 0.584, 0
1654177, -1.927, -0.894, -1.054, -0.054, -1.193, 0.889, 0
1654197, -1.409, -1.385, -1.541, 0.055, -1.018, 1.007, 0
1654217, -0.382, -1.659, -1.949, 0.032, -1.011, 1.029, 0
1654237, 0.382, -1.866, -2.185, -0.065, -1.078, 0.951, 0
1654257, 0.765, -1.616, -2.412, -0.095, -1.065, 0.872, 0
1654277, 0.857, -1.56, -2.519, -0.193, -1.192, 1.207, 0
1654297, 0.836, -1.469, -2.335, -0.152, -0.947, 1.439, 0
1654317, 2.565, -2.119, -2.118, -0.237, -0.55, 1.437, 0
1654337, 3.062, -2.162, -1.612, -0.235, -0.437, 1.338, 0
1654357, 3.116, -2.139, -0.986, -0.326, -0.596, 1.441, 0
1654377, 2.413, -1.67, -0.364, -0.368, -0.676, 1.595, 0
1654397, 2.63, -1.614, -0.007, -0.31, -0.429, 1.568, 0
1654417, 3.482, -1.348, 0.047, -0.27, -0.407, 1.583, 0
1654437, 3.774, -1.351, -0.403, -0.194, -0.566, 1.565, 0
1654457, 3.733, -1.059, -0.392, -0.167, -0.586, 1.529, 0
1654477, 4.354, -1.187, -0.177, -0.084, -0.398, 1.409, 0
1654497, 4.309, -0.99, -0.284, -0.103, -0.334, 1.222, 0
1654517, 3.807, -0.671, -0.297, -0.137, -0.397, 1.099, 0
1654537, 3.76, -0.536, -0.122, -0.122, -0.368, 1.04, 0
1654557, 3.745, -0.179, 0.438, -0.073, -0.267, 0.946, 0
1654577, 3.537, -0.227, 0.513, 0.026, -0.213, 0.796, 0
1654597, 3.299, -0.359, 0.284, 0.003, -0.245, 0.662, 0
1654617, 3.287, -0.247, 0.14, -0.061, -0.226, 0.554, 0
1654637, 3.269, -0.151, -0.1, -0.059, -0.183, 0.464, 0
1654657, 2.812, -0.191, -0.142, -0.028, -0.125, 0.338, 0
1654677, 2.825, -0.273, 0.035, -0.023, 0.054, 0.238, 0
1654697, 3.155, -0.714, 0.068, -0.066, 0.166, 0.131, 0
1654717, 3.062, -0.681, 0.124, -0.166, 0.095, -0.009, 0
1654737, 2.432, -0.685, -0.169, -0.33, 0.037, -0.056, 1
1654757, 1.676, 0.006, -0.042, -0.508, 0.109, -0.009, 1
1654777, 2.022, -0.069, -0.03, -0.443, 0.241, 0.032, 1
1654797, 2.389, -0.593, -0.15, -0.322, 0.168, -0.099, 1
1654817, 2.233, -0.525, -0.082, -0.245, 0.089, -0.15, 1
1654837, 2.109, -0.718, -0.127, -0.125, 0.105, -0.229, 1
1654857, 1.847, -1.286, -0.45, -0.093, 0.27, -0.506, 1
1654877, 1.598, -1.207, -0.509, -0.111, 0.346, -0.662, 1
1654897, 0.936, -0.663, -0.508, -0.026, 0.455, -0.684, 1
1654917, 0.628, -0.231, -0.313, 0.048, 0.521, -0.538, 1
1654937, 0.816, -0.665, -0.59, -0.011, 0.513, -0.334, 1
1654957, 0.751, -1.184, -0.842, -0.167, 0.491, -0.324, 1
1654977, 0.642, -1.818, -1.064, -0.385, 0.615, -0.482, 1
1654997, 0.369, -1.415, -0.417, -0.375, 0.866, -0.751, 1
1655017, 0.156, -0.758, -0.15, -0.144, 1.003, -0.796, 1
1655037, 0.341, -0.989, -0.339, 0.053, 0.87, -0.864, 1
1655057, 0.063, -1.1, -0.441, 0.142, 0.548, -0.893, 1
1655077, -0.776, -1.681, -0.704, 0.132, 0.4, -0.929, 1
1655097, -1.434, -1.134, -0.743, 0.143, 0.422, -1.003, 1
1655117, -1.857, -0.997, -0.884, 0.116, 0.517, -1.072, 1
1655137, -2.428, -1.323, -1.084, 0.017, 0.791, -1.153, 1
1655157, -2.52, -1.037, -0.976, -0.01, 1.017, -1.127, 1
1655177, -2.523, -1.002, -0.719, 0.069, 0.956, -1.1, 1
1655197, -2.783, -0.508, -0.643, 0.147, 0.739, -1.106, 1
1655217, -3.383, -0.458, -0.513, 0.192, 0.56, -1.064, 1
1655237, -3.682, -0.73, -0.484, 0.172, 0.653, -0.941, 1
1655257, -3.405, -0.967, -0.301, 0.219, 0.858, -0.915, 1
1655277, -3.231, -0.772, -0.546, 0.287, 0.728, -0.9, 1
1655297, -3.105, -1.025, -0.633, 0.138, 0.577, -0.675, 1
1655317, -2.582, -1.06, -0.42, 0.057, 0.63, -0.568, 1
1655337, -2.289, -0.771, -0.353, 0.135, 0.664, -0.557, 1
1655357, -2.29, -1.077, -0.644, 0.216, 0.538, -0.605, 1
1655377, -2.573, -0.828, -0.695, 0.135, 0.34, -0.579, 1
1655397, -2.461, -0.44, -0.543, 0.036, 0.283, -0.529, 1
