timestamp, accX, accY, accZ, gyroX, gyroY, gyroZ, button
2359938, 0.111, -0.077, -0.343, -0.131, -0.025, 0.056, 1
2359958, 0.034, 0.049, -0.25, -0.05, -0.057, -0.001, 1
2359978, -0.052, -0.008, -0.243, 0.05, 0.0, -0.012, 1
2359998, 0.05, -0.285, -0.32, 0.091, 0.064, 0.023, 1
2360018, 0.187, -0.503, -0.366, -0.004, 0.009, 0.07, 1
2360038, 0.094, -0.38, -0.374, -0.177, -0.047, 0.055, 1
2360058, -0.068, -0.016, -0.187, -0.217, -0.018, 0.064, 1
2360078, -0.2, 0.023, -0.084, -0.165, 0.086, 0.12, 1
2360098, -0.03, -0.131, -0.085, -0.116, 0.152, 0.133, 1
2360118, 0.231, -0.285, -0.235, -0.152, 0.075, 0.142, 1
2360138, 0.074, -0.439, -0.27, -0.301, 0.047, 0.146, 1
2360158, -0.112, -0.114, -0.148, -0.361, 0.169, 0.175, 1
2360178, 0.051, 0.101, 0.075, -0.253, 0.237, 0.171, 1
2360198, 0.269, 0.017, 0.068, -0.128, 0.116, 0.105, 1
2360218, 0.111, -0.07, -0.012, -0.059, -0.059, 0.094, 1
2360238, -0.049, 0.014, -0.191, -0.083, -0.089, 0.072, 1
2360258, -0.041, 0.035, -0.143, -0.135, -0.056, 0.048, 1
2360278, 0.03, 0.097, -0.186, -0.101, -0.05, -0.009, 1
2360298, 0.024, -0.019, -0.252, -0.077, -0.064, -0.018, 1
2360318, 0.029, -0.086, -0.314, -0.131, -0.091, 0.018, 1
2360338, 0.066, -0.09, -0.374, -0.18, -0.128, -0.009, 1
2360358, 0.11, -0.143, -0.277, -0.24, -0.232, -0.027, 1
2360378, 0.032, -0.131, -0.245, -0.28, -0.269, -0.032, 1
2360398, -0.023, -0.183, -0.218, -0.244, -0.218, 0.012, 1
2360418, -0.073, -0.321, -0.17, -0.218, -0.073, 0.1, 1
2360438, 0.168, -0.611, -0.089, -0.227, 0.037, 0.141, 1
2360458, 0.423, -0.793, -0.027, -0.233, 0.029, 0.111, 1
2360478, 0.405, -0.52, 0.248, -0.173, 0.006, 0.05, 1
2360498, 0.144, -0.352, 0.354, -0.114, 0.031, 0.029, 1
2360518, -0.02, -0.175, 0.361, -0.095, 0.072, 0.039, 1
2360538, -0.036, 0.028, 0.328, -0.113, 0.062, 0.086, 1
2360558, 0.029, 0.077, 0.069, -0.207, -0.003, 0.102, 1
2360578, -0.024, 0.323, 0.039, -0.187, -0.031, 0.084, 1
2360598, -0.078, 0.072, -0.199, -0.133, 0.012, 0.113, 1
2360618, 0.034, -0.051, -0.221, -0.113, 0.037, 0.129, 1
2360638, 0.029, -0.1, -0.315, -0.075, 0.007, 0.111, 1
2360658, 0.112, -0.135, -0.414, -0.069, -0.036, 0.116, 1
2360678, 0.085, -0.168, -0.444, -0.076, -0.004, 0.106, 1
2360698, 0.122, -0.173, -0.32, -0.087, 0.081, 0.095, 1
2360718, 0.033, -0.064, -0.222, -0.092, 0.112, 0.061, 1
2360738, -0.023, 0.047, -0.11, -0.111, 0.062, 0.057, 1
2360758, -0.103, 0.084, -0.066, -0.09, 0.013, 0.038, 1
2360778, -0.092, -0.017, -0.136, -0.051, 0.027, 0.017, 1
2360798, 0.014, -0.042, -0.086, -0.045, 0.025, 0.003, 1
2360818, -0.065, -0.062, -0.101, -0.086, 0.011, -0.001, 1
2360838, -0.113, 0.049, -0.145, -0.136, 0.024, 0.023, 1
2360858, -0.159, -0.024, -0.289, -0.188, 0.042, 0.082, 1
2360878, -0.059, 0.007, -0.244, -0.215, 0.069, 0.09, 1
2360898, 0.187, 0.038, -0.319, -0.147, 0.038, 0.091, 1
2360918, 0.012, -0.071, -0.326, -0.085, -0.03, 0.065, 1
2360938, 0.033, -0.152, -0.443, -0.023, 0.018, 0.022, 1
2360958, 0.073, -0.222, -0.543, -0.031, 0.066, 0.028, 1
2360978, 0.126, -0.293, -0.466, -0.127, 0.075, 0.05, 1
2360998, 0.062, -0.072, -0.162, -0.232, 0.031, 0.025, 1
2361018, -0.048, -0.003, 0.154, -0.226, 0.0, 0.011, 1
2361038, -0.073, 0.049, 0.338, -0.078, 0.031, 0.042, 1
2361058, 0.003, -0.054, 0.181, -0.035, 0.01, 0.053, 1
2361078, 0.046, -0.12, 0.013, -0.056, -0.021, 0.055, 1
2361098, 0.016, -0.164, -0.17, -0.102, -0.006, 0.065, 1
2361118, 0.025, -0.098, -0.187, -0.136, 0.028, 0.064, 1
2361138, 0.021, 0.005, 0.021, -0.102, 0.037, 0.051, 1
2361158, -0.006, -0.001, 0.086, -0.068, 0.039, 0.062, 1
2361178, 0.01, -0.019, 0.037, -0.052, 0.017, 0.056, 1
2361198, 0.043, -0.037, -0.001, -0.049, -0.023, 0.045, 1
2361218, 0.0, -0.004, 0.008, -0.024, -0.028, 0.0, 1
2361238, -0.019, 0.041, 0.055, 0.03, -0.006, -0.012, 1
2361258, -0.025, -0.002, -0.004, 0.024, 0.012, -0.012, 1
2361278, 0.019, 0.0, -0.125, 0.013, -0.034, -0.001, 1
2361298, 0.036, -0.051, -0.245, -0.034, -0.067, 0.016, 1
2361318, -0.041, -0.091, -0.348, -0.082, -0.023, 0.019, 1
2361338, -0.003, -0.048, -0.328, -0.092, 0.04, 0.029, 1
2361358, 0.024, -0.004, -0.174, -0.063, 0.056, 0.042, 1
2361378, 0.007, -0.02, -0.114, -0.048, 0.051, 0.048, 1
2361398, 0.048, -0.003, -0.078, -0.021, 0.012, 0.04, 1
2361418, 0.014, -0.034, -0.157, -0.032, -0.01, 0.04, 1
2361438, 0.012, -0.05, -0.226, -0.032, -0.006, 0.045, 1
2361458, 0.004, -0.068, -0.313, -0.051, 0.014, 0.034, 1
2361478, 0.003, -0.031, -0.323, -0.072, 0.012, 0.031, 1
2361498, -0.015, -0.026, -0.274, -0.076, 0.017, 0.037, 1
2361518, 0.032, -0.098, -0.368, -0.094, 0.017, 0.053, 1
2361538, 0.046, -0.069, -0.322, -0.1, 0.04, 0.053, 1
2361558, 0.069, -0.153, -0.243, -0.115, 0.021, 0.039, 1
2361578, -0.067, -0.196, -0.177, -0.145, 0.007, 0.033, 1
2361598, -0.018, -0.04, 0.03, -0.167, 0.024, 0.056, 1
2361618, -0.006, -0.031, 0.094, -0.129, 0.042, 0.075, 1
2361638, 0.037, -0.029, 0.027, -0.073, 0.027, 0.078, 1
2361658, 0.029, -0.091, -0.218, -0.052, 0.01, 0.07, 1
2361678, 0.029, -0.095, -0.245, -0.084, -0.001, 0.063, 1
2361698, -0.026, -0.053, -0.207, -0.121, 0.014, 0.036, 1
2361718, -0.059, 0.0, -0.067, -0.136, 0.038, 0.049, 1
2361738, -0.079, -0.043, 0.032, -0.111, 0.062, 0.054, 1
2361758, -0.051, -0.02, 0.216, -0.117, 0.065, 0.088, 1
2361778, 0.001, -0.018, 0.315, -0.11, 0.068, 0.108, 1
2361798, 0.017, -0.017, 0.391, -0.064, 0.062, 0.127, 1
2361818, 0.024, 0.04, 0.372, -0.025, 0.056, 0.128, 1
2361838, -0.003, 0.073, 0.336, 0.027, 0.047, 0.122, 1
2361858, 0.037, 0.071, 0.155, 0.08, 0.037, 0.114, 1
2361878, 0.1, 0.032, -0.182, 0.126, -0.006, 0.1, 1
2361898, 0.065, 0.017, -0.625, 0.122, -0.043, 0.07, 1
2361918, 0.074, 0.039, -1.007, 0.095, -0.072, 0.055, 1
2361938, -0.029, -0.006, -1.259, 0.034, -0.058, 0.039, 1
2361958, -0.072, -0.102, -1.237, -0.051, 0.009, 0.032, 1
2361978, 0.025, -0.163, -0.981, -0.141, 0.061, 0.042, 1
2361998, 0.04, -0.128, -0.602, -0.185, 0.058, 0.03, 1
2362018, -0.022, -0.24, -0.34, -0.238, 0.048, 0.042, 1
2362038, -0.063, -0.377, -0.166, -0.291, 0.064, 0.051, 1
2362058, 0.006, -0.328, 0.005, -0.302, 0.051, 0.07, 1
2362078, -0.095, -0.35, -0.033, -0.345, 0.071, 0.119, 1
2362098, -0.205, -0.302, 0.066, -0.34, 0.131, 0.199, 1
2362118, 0.0, -0.101, 0.254, -0.199, 0.124, 0.142, 1
2362138, -0.057, -0.038, 0.343, -0.082, 0.108, 0.142, 1
2362158, -0.04, -0.107, 0.319, -0.047, 0.143, 0.146, 1
2362178, 0.296, -0.164, 0.296, -0.022, 0.078, 0.116, 1
2362198, 0.406, -0.197, 0.176, -0.017, -0.045, 0.046, 1
2362218, 0.091, -0.192, -0.003, -0.047, -0.073, 0.012, 1
2362238, -0.049, 0.011, 0.021, -0.003, -0.009, -0.009, 1
2362258, 0.0, -0.053, -0.02, -0.015, 0.017, -0.01, 1
2362278, 0.014, -0.019, -0.038, -0.087, -0.002, 0.001, 1
2362298, -0.039, 0.017, -0.032, -0.133, -0.003, 0.031, 1
2362318, -0.292, 0.073, 0.088, -0.13, 0.065, 0.074, 1
2362338, -0.103, 0.235, 0.199, -0.01, 0.081, 0.072, 1
2362358, 0.073, 0.12, 0.073, 0.102, -0.009, 0.072, 1
2362378, 0.006, -0.079, -0.155, 0.091, -0.047, 0.057, 1
2362398, -0.052, -0.151, -0.148, 0.048, -0.009, 0.05, 1
2362418, 0.012, 0.0, 0.052, 0.072, 0.03, 0.003, 1
2362438, -0.003, 0.126, 0.269, 0.158, -0.007, -0.02, 1
2362458, 0.017, 0.035, 0.16, 0.179, -0.082, -0.001, 1
2362478, -0.033, -0.038, -0.034, 0.097, -0.087, 0.001, 1
2362498, -0.055, 0.008, -0.19, -0.007, -0.062, 0.024, 1
2362518, -0.059, 0.067, -0.284, 0.006, -0.11, 0.036, 1
2362538, -0.122, -0.001, -0.352, -0.016, -0.091, 0.092, 1
2362558, 0.022, -0.049, -0.241, 0.051, -0.057, 0.123, 1
2362578, 0.107, -0.149, -0.144, 0.111, -0.012, 0.131, 1
2362598, 0.264, -0.258, -0.125, 0.111, -0.005, 0.114, 1
2362618, 0.234, -0.279, -0.331, 0.098, -0.094, 0.08, 1
2362638, 0.061, -0.107, -0.431, 0.046, -0.101, 0.062, 1
2362658, 0.021, -0.089, -0.492, 0.04, -0.043, 0.046, 1
2362678, 0.061, -0.077, -0.535, 0.065, -0.032, 0.041, 1
2362698, 0.017, -0.062, -0.458, 0.043, 0.0, 0.034, 1
2362718, 0.016, -0.065, -0.372, 0.007, 0.042, 0.02, 1
2362738, 0.196, 0.235, -0.399, 0.003, 0.009, 0.034, 1
2362758, 0.085, 0.359, -0.538, 0.202, -0.117, -0.014, 1
2362778, -0.249, 0.444, -0.786, 0.455, -0.113, 0.152, 1
2362798, 0.409, 0.115, -1.773, 0.615, 0.0, 0.221, 1
2362818, 1.086, -0.437, -3.759, 0.623, -0.187, 0.169, 1
2362838, 0.843, -0.385, -5.646, 0.472, -0.465, -0.034, 0
2362858, 0.11, -0.171, -8.137, 0.478, -0.59, -0.168, 0
2362878, -1.456, -1.371, -9.676, 0.031, -0.238, -0.264, 0
2362898, -1.083, -1.081, -8.425, -0.724, 0.362, -0.379, 0
2362918, -0.884, -0.177, -6.792, -1.036, 0.399, -0.286, 0
2362938, -2.265, -2.782, -5.475, -1.084, 0.422, -0.32, 0
2362958, -0.08, -1.432, -5.935, -0.929, 0.472, -0.175, 0
2362978, 0.242, -1.756, -6.438, -0.95, 0.08, -0.185, 0
2362998, -0.549, -1.725, -5.785, -1.419, -0.051, -0.143, 0
2363018, -0.815, -1.953, -3.665, -1.574, 0.0, -0.065, 0
2363038, -0.494, -1.644, -1.684, -1.44, 0.131, 0.061, 0
2363058, -0.642, -1.938, -0.269, -1.371, 0.431, -0.044, 0
2363078, -0.975, -2.133, 1.54, -1.346, 0.738, -0.172, 0
2363098, 0.256, -2.812, 2.121, -1.335, 0.312, 0.028, 0
2363118, 0.62, -3.416, 2.595, -1.744, -0.236, 0.284, 0
2363138, 0.668, -3.199, 3.847, -1.908, -0.353, 0.379, 0
2363158, -0.029, -2.204, 5.687, -1.66, 0.086, 0.254, 0
2363178, -0.116, -1.454, 7.338, -0.983, 0.577, 0.164, 0
2363198, 0.901, -1.607, 7.597, -0.406, 0.538, 0.09, 0
2363218, 1.906, -3.1, 6.739, -0.436, -0.147, 0.196, 0
2363238, 1.419, -3.435, 6.04, -0.801, -0.626, 0.262, 0
2363258, 0.737, -2.124, 6.093, -0.766, -0.46, 0.072, 0
2363278, 0.332, -0.666, 6.091, -0.293, -0.007, -0.135, 0
2363298, 0.251, -0.349, 5.436, 0.207, 0.218, -0.23, 0
2363318, 0.05, -0.796, 4.085, 0.329, 0.21, -0.27, 0
2363338, 0.026, -1.146, 2.872, 0.014, 0.054, -0.231, 0
2363358, -0.51, -0.53, 2.607, -0.16, -0.117, -0.183, 0
2363378, -0.845, 0.296, 2.63, 0.032, -0.127, -0.13, 0
2363398, -1.03, 0.175, 1.91, 0.233, 0.076, -0.14, 0
2363418, -1.013, -0.092, 1.19, 0.235, 0.322, -0.11, 0
2363438, -0.887, -0.483, 0.995, 0.02, 0.461, -0.039, 0
2363458, -0.502, -0.365, 1.317, -0.172, 0.5, 0.014, 0
2363478, -0.27, -0.582, 1.368, -0.394, 0.519, 0.116, 1
2363498, -0.283, -0.656, 1.233, -0.644, 0.677, 0.302, 1
2363518, -0.608, -0.463, 2.206, -0.692, 0.753, 0.322, 1
2363538, -0.598, -0.483, 2.717, -0.345, 0.596, 0.352, 1
2363558, 0.077, -1.133, 2.562, -0.059, 0.337, 0.373, 1
2363578, 0.537, -1.269, 2.252, -0.081, 0.136, 0.246, 1
2363598, 0.532, -1.086, 2.225, -0.216, -0.004, 0.095, 1
2363618, -0.293, -0.851, 2.153, -0.357, 0.127, 0.032, 1
2363638, -0.579, -0.536, 2.395, -0.326, 0.299, 0.061, 1
2363658, 0.111, -0.682, 2.496, -0.21, 0.264, 0.108, 1
2363678, 0.252, -0.726, 2.466, -0.189, 0.006, 0.16, 1
2363698, -0.347, -0.45, 2.912, -0.088, 0.009, 0.152, 1
2363718, -0.384, -0.674, 3.273, 0.131, 0.337, 0.161, 1
2363738, -0.153, -1.277, 3.171, 0.34, 0.411, 0.139, 1
2363758, 0.596, -1.74, 2.601, 0.474, -0.031, 0.166, 1
2363778, 0.761, -1.227, 1.524, 0.72, -0.675, 0.047, 1
2363798, -0.399, -1.047, -0.181, 0.924, -0.972, -0.107, 1
2363818, -1.331, -1.088, -0.97, 0.869, -0.654, -0.153, 1
2363838, -1.375, -0.437, -1.236, 0.667, -0.161, -0.191, 1
2363858, -0.306, 0.397, -1.887, 0.777, -0.177, -0.189, 1
2363878, 0.0, -0.042, -3.518, 1.101, -0.603, -0.111, 1
2363898, -0.508, 0.043, -4.645, 1.086, -0.643, -0.126, 1
2363918, -0.951, 0.841, -4.719, 0.888, -0.157, -0.142, 1
2363938, -0.709, 1.432, -4.7, 0.812, 0.159, -0.059, 1
2363958, -0.292, 1.017, -4.453, 0.703, 0.083, 0.003, 1
2363978, -0.142, 0.766, -3.858, 0.339, -0.222, -0.023, 1
2363998, 0.045, 1.009, -3.37, 0.289, -0.304, -0.084, 1
2364018, -0.684, 0.737, -3.196, 0.18, -0.097, -0.125, 1
2364038, -0.567, 0.719, -2.61, 0.138, 0.067, -0.078, 1
2364058, 0.309, 0.774, -2.49, 0.274, -0.081, -0.005, 1
2364078, 0.281, 0.425, -2.958, 0.361, -0.205, -0.031, 1
2364098, -0.142, 0.499, -3.543, 0.296, -0.101, -0.037, 1
2364118, -0.243, 0.637, -3.675, 0.171, 0.058, 0.02, 1
2364138, -0.014, 0.456, -3.245, -0.04, 0.153, 0.062, 1
2364158, 0.351, 0.362, -2.53, -0.165, 0.101, 0.043, 1
2364178, 0.315, 0.382, -1.707, -0.185, -0.05, 0.03, 1
2364198, 0.094, 0.125, -1.128, -0.193, -0.086, 0.05, 1
2364218, -0.03, -0.111, -0.721, -0.227, -0.007, 0.139, 1
2364238, 0.165, -0.388, -0.146, -0.277, 0.084, 0.184, 1
2364258, 0.396, -0.713, 0.35, -0.304, 0.075, 0.186, 1
2364278, 0.502, -0.914, 0.867, -0.274, -0.026, 0.112, 1
2364298, 0.242, -0.943, 1.169, -0.182, -0.136, -0.034, 1
2364318, 0.025, -0.423, 1.174, -0.045, -0.188, -0.039, 1
2364338, -0.373, -0.558, 0.73, 0.018, -0.115, 0.019, 1
2364358, -0.224, -0.699, 0.4, -0.006, -0.045, 0.051, 1
2364378, 0.026, -0.503, 0.51, 0.001, -0.091, 0.043, 1
2364398, -0.035, -0.304, 0.677, 0.114, -0.136, 0.114, 1
2364418, 0.153, -0.292, 0.368, 0.228, -0.221, 0.095, 1
2364438, 0.204, -0.317, -0.126, 0.204, -0.295, 0.116, 1
2364458, -0.147, -0.356, -0.606, 0.071, -0.102, 0.18, 1
2364478, 0.334, -0.165, -0.652, 0.072, -0.067, 0.127, 1
2364498, 0.115, -0.07, -0.571, 0.136, -0.097, 0.074, 1
2364518, 0.029, -0.171, -0.811, 0.167, -0.095, 0.064, 1
2364538, 0.044, -0.147, -1.154, 0.138, -0.108, 0.037, 1
2364558, -0.217, 0.046, -1.16, 0.17, -0.087, -0.078, 1
2364578, 0.104, 0.638, -0.995, 0.458, -0.068, -0.196, 1
2364598, -0.592, 0.11, -1.865, 0.678, -0.062, -0.125, 1
2364618, 0.099, -0.163, -3.5, 0.514, 0.139, 0.167, 1
2364638, 0.546, -0.241, -5.247, 0.303, 0.172, 0.406, 0
2364658, 1.343, 0.025, -7.466, 0.295, 0.107, 0.422, 0
2364678, 0.565, -0.138, -9.394, 0.287, -0.181, 0.364, 0
2364698, -1.598, -1.256, -11.134, 0.002, -0.01, -0.039, 0
2364718, -1.574, -0.389, -9.205, -0.58, 0.852, -0.243, 0
2364738, -0.436, -0.732, -7.063, -0.762, 1.229, -0.089, 0
2364758, 0.186, -1.339, -5.886, -0.834, 0.954, -0.097, 0
2364778, 0.235, -0.915, -4.08, -0.755, 0.485, -0.189, 0
2364798, -0.23, -1.532, -2.89, -0.538, -0.364, -0.139, 0
2364818, -1.805, -3.316, -2.693, -0.833, -0.466, -0.167, 0
2364838, -0.678, -3.106, -0.882, -1.241, 0.232, -0.242, 0
2364858, 0.626, -2.774, 0.769, -1.103, 0.518, -0.302, 0
2364878, 1.238, -3.181, 1.703, -0.883, 0.168, -0.296, 0
2364898, 0.07, -2.823, 2.166, -1.078, -0.288, -0.278, 0
2364918, -0.486, -1.427, 2.717, -1.293, -0.178, -0.255, 0
2364938, 0.348, -1.966, 2.585, -1.36, -0.21, -0.178, 0
2364958, 0.413, -1.566, 2.977, -1.405, -0.094, -0.138, 0
2364978, -0.104, -1.354, 3.714, -1.245, 0.273, -0.178, 0
2364998, -0.216, -0.923, 4.619, -0.94, 0.627, -0.284, 0
2365018, 0.093, -0.877, 5.176, -0.623, 0.63, -0.307, 0
2365038, 0.166, -1.802, 4.612, -0.726, 0.322, -0.243, 0
2365058, 0.122, -1.992, 4.238, -1.062, -0.065, -0.125, 0
2365078, -0.454, -1.289, 4.36, -1.218, -0.321, -0.08, 0
2365098, -0.932, -0.307, 4.675, -0.926, -0.283, -0.03, 0
2365118, -0.917, -0.004, 4.909, -0.432, -0.103, 0.008, 0
2365138, -0.437, -0.584, 4.493, -0.138, 0.021, -0.056, 0
2365158, -0.244, -1.015, 3.691, -0.117, 0.117, -0.101, 0
2365178, -0.203, -1.044, 3.278, -0.221, 0.103, -0.102, 0
2365198, -0.046, -0.678, 3.392, -0.207, -0.129, -0.02, 0
2365218, -0.552, -0.326, 3.21, -0.089, -0.172, -0.015, 0
2365238, -0.637, -0.064, 3.014, 0.065, -0.023, -0.047, 0
2365258, -0.34, -0.249, 2.439, 0.146, 0.051, -0.051, 0
2365278, -0.139, -0.334, 1.838, 0.096, 0.098, -0.032, 0
2365298, -0.257, -0.191, 1.476, 0.163, 0.029, -0.015, 0
2365318, -0.517, -0.181, 1.127, 0.266, -0.009, 0.041, 0
2365338, -0.55, -0.202, 0.777, 0.265, 0.08, 0.072, 0
2365358, -0.248, -0.157, 0.757, 0.178, 0.188, 0.111, 0
2365378, -0.25, -0.36, 0.487, -0.031, 0.268, 0.189, 1
2365398, -0.057, -0.814, 0.235, -0.484, 0.317, 0.381, 1
2365418, 0.007, -1.357, 0.224, -1.018, 0.467, 0.623, 1
2365438, -0.574, -0.644, 1.18, -0.744, 0.533, 0.5, 1
2365458, -0.322, -0.668, 2.012, -0.25, 0.275, 0.445, 1
2365478, 0.296, -0.993, 1.931, -0.12, 0.128, 0.364, 1
2365498, 0.159, -1.353, 2.096, -0.135, 0.128, 0.231, 1
2365518, -0.803, -0.807, 2.502, -0.184, 0.2, 0.207, 1
2365538, -0.468, -0.43, 3.634, -0.002, 0.547, 0.26, 1
2365558, 0.718, -0.843, 4.015, 0.222, 0.623, 0.345, 1
2365578, 1.63, -0.831, 3.698, 0.168, 0.18, 0.35, 1
2365598, 0.533, -0.319, 3.088, 0.079, -0.268, 0.25, 1
2365618, -0.814, -0.146, 2.603, 0.114, -0.059, 0.061, 1
2365638, -1.214, -0.929, 2.381, 0.156, 0.36, 0.118, 1
2365658, -0.667, -1.67, 2.733, 0.034, 0.539, 0.229, 1
2365678, 1.087, -1.993, 3.341, -0.122, 0.34, 0.334, 1
2365698, 0.665, -0.245, 3.03, 0.006, -0.188, 0.121, 1
2365718, -1.202, 0.869, 1.555, 0.599, -0.335, -0.008, 1
2365738, -1.715, 0.197, -0.761, 1.125, -0.204, 0.201, 1
2365758, -0.352, -1.35, -3.059, 1.324, -0.316, 0.444, 1
2365778, 0.51, -0.826, -4.153, 1.129, -0.693, 0.398, 1
2365798, -0.345, -0.229, -4.754, 0.855, -0.701, 0.179, 1
2365818, -0.875, -0.107, -4.44, 0.535, -0.406, 0.09, 1
2365838, -0.945, 0.293, -3.463, 0.323, -0.116, 0.072, 1
2365858, -0.037, 0.35, -3.048, 0.407, -0.012, 0.169, 1
2365878, 0.65, 0.225, -3.222, 0.585, -0.156, 0.2, 1
2365898, 0.544, -0.322, -3.983, 0.657, -0.346, 0.161, 1
2365918, -0.23, -0.145, -4.435, 0.213, -0.271, -0.158, 1
2365938, -0.855, 0.92, -3.857, 0.038, -0.058, -0.065, 1
2365958, -0.544, 1.422, -3.096, 0.167, 0.036, 0.132, 1
2365978, 0.194, 0.615, -2.62, 0.172, -0.059, 0.135, 1
2365998, 0.474, 0.14, -2.322, 0.078, -0.227, 0.036, 1
2366018, 0.345, 0.004, -1.963, -0.01, -0.337, -0.064, 1
2366038, 0.144, -0.198, -1.501, -0.103, -0.3, -0.142, 1
2366058, 0.08, -0.172, -0.774, -0.181, -0.249, -0.214, 1
2366078, 0.006, 0.238, -0.538, -0.036, -0.284, -0.069, 1
2366098, 0.071, 0.019, -0.586, 0.242, -0.264, 0.072, 1
2366118, 0.401, -0.136, -0.98, 0.399, -0.185, 0.075, 1
2366138, 0.352, -0.146, -1.489, 0.333, -0.205, 0.088, 1
2366158, -0.496, 0.247, -1.712, 0.21, -0.124, 0.188, 1
2366178, -0.482, 0.466, -1.325, 0.146, -0.024, 0.309, 1
2366198, 0.034, 0.008, -0.881, 0.132, 0.015, 0.323, 1
2366218, 0.061, -0.404, -0.772, 0.043, 0.042, 0.258, 1
2366238, -0.058, -0.262, -0.633, 0.004, 0.06, 0.213, 1
2366258, -0.056, -0.234, -0.347, 0.018, 0.036, 0.232, 1
2366278, 0.079, -0.341, -0.033, 0.009, 0.007, 0.248, 1
2366298, 0.129, -0.378, 0.132, 0.024, -0.04, 0.214, 1
2366318, 0.028, -0.271, 0.188, 0.046, -0.119, 0.165, 1
2366338, -0.095, -0.175, -0.105, 0.08, -0.16, 0.146, 1
2366358, -0.052, -0.372, -0.383, 0.064, -0.142, 0.145, 1
2366378, 0.191, -0.34, -0.454, 0.025, -0.127, 0.113, 1
2366398, 0.267, -0.278, -0.501, -0.03, -0.148, 0.017, 1
2366418, 0.074, -0.069, -0.311, 0.023, -0.208, -0.013, 1
2366438, -0.345, 0.033, -0.466, 0.07, -0.172, 0.064, 1
2366458, -0.124, 0.011, -0.482, 0.069, -0.061, 0.089, 1
2366478, -0.018, -0.089, -0.629, 0.058, -0.031, 0.113, 1
2366498, 0.085, 0.035, -0.576, 0.152, -0.036, 0.042, 1
2366518, -0.066, 0.106, -0.758, 0.463, -0.118, -0.064, 1
2366538, 0.442, -0.159, -1.354, 0.701, -0.101, -0.113, 1
2366558, 0.244, -0.289, -2.704, 0.595, -0.098, -0.105, 0
2366578, -0.402, 1.059, -3.679, 0.461, -0.186, -0.14, 0
2366598, -1.091, 1.176, -5.494, 0.602, -0.19, 0.1, 0
2366618, -0.907, 0.715, -6.664, 0.626, -0.091, 0.202, 0
2366638, -1.005, -0.181, -7.539, 0.358, 0.035, 0.108, 0
2366658, -0.668, -0.127, -7.903, -0.059, 0.145, 0.006, 0
2366678, -0.508, -0.844, -8.523, -0.348, 0.182, 0.187, 0
2366698, 0.105, -1.396, -8.026, -0.511, 0.156, 0.298, 0
2366718, -0.018, -1.892, -7.202, -0.661, 0.163, 0.391, 0
2366738, -0.444, -2.693, -6.571, -0.769, 0.228, 0.362, 0
2366758, -0.883, -3.153, -5.513, -0.965, 0.455, 0.21, 0
2366778, -0.515, -3.411, -4.058, -1.206, 0.831, -0.053, 0
2366798, -0.131, -4.098, -2.036, -1.426, 0.888, -0.114, 0
2366818, -0.375, -3.523, -0.581, -1.744, 0.611, -0.22, 0
2366838, -0.688, -2.278, 1.161, -1.918, 0.535, -0.207, 0
2366858, -1.358, -1.334, 2.522, -1.8, 0.584, -0.267, 0
2366878, -1.186, -1.018, 2.844, -1.345, 0.673, -0.217, 0
2366898, -1.586, -1.843, 1.922, -1.095, 0.836, -0.19, 0
2366918, -0.51, -2.217, 2.053, -1.426, 0.723, -0.173, 0
2366938, 0.12, -2.073, 3.052, -1.643, 0.327, -0.011, 0
2366958, 0.693, -2.159, 4.109, -1.67, -0.098, 0.142, 0
2366978, 0.819, -2.274, 4.612, -1.597, -0.245, 0.153, 0
2366998, 0.713, -1.953, 4.778, -1.386, -0.144, 0.012, 0
2367018, 0.501, -1.604, 5.003, -1.036, -0.026, -0.073, 0
2367038, 0.523, -1.492, 5.247, -0.649, -0.051, -0.067, 0
2367058, 0.449, -1.767, 5.001, -0.444, -0.117, -0.041, 0
2367078, 0.237, -1.981, 4.539, -0.368, -0.235, -0.046, 0
2367098, 0.165, -1.852, 4.413, -0.386, -0.353, -0.029, 0
2367118, 0.006, -1.517, 4.474, -0.378, -0.419, -0.031, 0
2367138, -0.069, -1.095, 4.652, -0.258, -0.453, -0.047, 0
2367158, -0.281, -0.701, 4.457, -0.055, -0.386, -0.094, 0
2367178, -0.454, -0.738, 3.475, 0.032, -0.172, -0.206, 0
2367198, -0.884, -0.52, 2.69, 0.059, 0.034, -0.276, 0
2367218, -0.894, -0.347, 2.189, 0.114, 0.032, -0.237, 0
2367238, -1.06, -0.099, 1.844, 0.155, 0.01, -0.129, 0
2367258, -1.174, 0.033, 1.478, 0.178, 0.08, -0.065, 0
2367278, -1.023, -0.126, 1.071, 0.107, 0.238, -0.034, 0
2367298, -0.858, -0.167, 1.093, 0.051, 0.311, -0.017, 0
2367318, -0.535, 0.021, 1.476, 0.164, 0.244, 0.031, 0
2367338, -0.648, 0.012, 1.493, 0.297, 0.187, 0.08, 0
2367358, -0.678, -0.057, 1.441, 0.324, 0.375, 0.113, 0
2367378, -0.609, -0.387, 1.586, 0.205, 0.621, 0.29, 1
2367398, 0.008, -0.974, 1.604, -0.477, 1.0, 0.572, 1
2367418, 1.256, -1.944, 3.343, -0.924, 0.942, 0.668, 1
2367438, 0.768, -1.139, 4.381, -0.842, 0.266, 0.61, 1
2367458, -0.362, -0.864, 4.291, -0.227, -0.145, 0.4, 1
2367478, -0.702, -1.012, 3.713, 0.415, -0.004, 0.235, 1
2367498, 0.093, -1.402, 3.377, 0.72, 0.313, 0.13, 1
2367518, 1.609, -2.426, 3.117, 0.61, 0.345, 0.16, 1
2367538, 1.058, -1.697, 2.856, 0.211, -0.348, 0.196, 1
2367558, -0.03, -0.986, 2.903, 0.277, -0.634, 0.103, 1
2367578, -0.369, -1.209, 2.415, 0.705, -0.403, 0.017, 1
2367598, 0.148, -2.086, 1.441, 0.886, -0.1, -0.023, 1
2367618, 0.364, -2.038, 0.531, 0.664, -0.167, -0.102, 1
2367638, 0.541, -1.896, 0.342, 0.263, -0.257, -0.189, 1
2367658, -0.2, -0.663, -0.044, 0.11, -0.408, -0.343, 1
2367678, -1.255, -0.392, -1.06, 0.446, -0.653, -0.372, 1
2367698, -1.5, -0.979, -2.053, 0.721, -0.719, -0.2, 1
2367718, -0.771, -1.328, -2.796, 0.762, -0.386, -0.211, 1
2367738, -0.598, -1.125, -3.048, 0.581, 0.082, -0.352, 1
2367758, -0.366, 0.187, -2.637, 0.403, 0.287, -0.444, 1
2367778, -0.307, 0.979, -2.725, 0.431, 0.076, -0.477, 1
2367798, -0.643, 0.839, -3.526, 0.546, -0.334, -0.381, 1
2367818, -1.445, 0.791, -4.525, 0.475, -0.298, -0.38, 1
2367838, -1.554, 0.277, -4.584, 0.265, 0.215, -0.343, 1
2367858, -0.631, 0.386, -3.102, -0.05, 0.657, -0.28, 1
2367878, 0.197, 1.175, -1.944, -0.023, 0.452, -0.232, 1
2367898, 0.173, 1.061, -1.685, 0.12, -0.06, -0.093, 1
2367918, -0.566, 0.363, -2.032, -0.026, -0.056, -0.094, 1
2367938, -0.456, 0.133, -1.929, -0.233, 0.127, -0.128, 1
2367958, -0.416, 0.133, -1.218, -0.394, 0.229, -0.117, 1
2367978, 0.499, 0.769, -0.511, -0.111, -0.02, 0.02, 1
2367998, 1.141, 0.673, -1.207, 0.412, -0.459, 0.158, 1
2368018, 0.41, -1.26, -2.818, 0.301, -0.302, -0.018, 1
2368038, 0.045, -1.581, -3.382, -0.135, 0.314, -0.171, 1
2368058, 0.971, -0.48, -2.084, -0.309, 0.448, -0.178, 1
2368078, 0.533, 0.211, -0.697, -0.128, 0.224, -0.227, 1
2368098, -0.298, 0.411, 0.229, 0.045, 0.012, -0.075, 1
2368118, -0.116, 0.347, 0.351, 0.224, -0.171, 0.059, 1
2368138, -0.246, -0.305, -0.304, 0.255, -0.087, 0.136, 1
2368158, 0.372, -0.479, -0.947, 0.164, -0.104, 0.127, 1
2368178, 0.652, -0.364, -0.775, 0.211, -0.263, -0.018, 1
2368198, 0.25, -0.596, -0.72, 0.182, -0.346, -0.078, 1
2368218, -0.196, -0.351, -0.978, 0.207, -0.216, -0.076, 1
2368238, -0.064, -0.37, -1.473, 0.12, -0.143, -0.059, 1
2368258, 0.015, -0.098, -1.343, 0.053, -0.164, -0.106, 1
2368278, -0.3, 0.082, -0.839, 0.069, -0.139, -0.05, 1
2368298, -0.275, 0.073, -0.397, 0.147, -0.103, 0.003, 1
2368318, -0.05, -0.016, -0.587, 0.18, -0.127, 0.041, 1
2368338, 0.026, -0.138, -0.81, 0.091, -0.158, 0.084, 1
2368358, 0.187, -0.191, -0.961, -0.014, -0.18, 0.057, 1
2368378, -0.014, -0.211, -0.741, -0.045, -0.15, 0.065, 1
2368398, -0.063, -0.233, -0.464, -0.056, -0.122, 0.046, 1
2368418, 0.033, -0.073, -0.262, -0.036, -0.081, 0.07, 1
2368438, 0.016, -0.038, -0.12, -0.001, -0.032, 0.166, 1
2368458, -0.008, -0.044, 0.036, 0.057, -0.065, 0.192, 1
2368478, 0.081, -0.115, 0.131, 0.136, -0.072, 0.215, 1
2368498, 0.532, -0.273, -0.128, 0.339, -0.112, 0.161, 1
2368518, 0.218, -0.088, -0.435, 0.533, -0.171, 0.034, 1
2368538, 0.034, 0.226, -1.056, 0.717, -0.186, -0.051, 1
2368558, 0.078, 0.298, -2.778, 0.806, -0.3, 0.042, 0
2368578, -0.375, 0.037, -5.336, 0.535, -0.192, 0.083, 0
2368598, -0.726, 0.874, -7.164, 0.196, 0.039, 0.008, 0
2368618, -1.151, 1.069, -8.028, 0.119, 0.145, 0.19, 0
2368638, -0.575, 0.497, -7.887, 0.024, 0.386, 0.298, 0
2368658, -0.004, -0.638, -7.669, -0.287, 0.442, 0.354, 0
2368678, 0.0, -1.0, -7.492, -0.751, 0.363, 0.409, 0
2368698, -0.141, -1.146, -6.803, -1.003, 0.328, 0.422, 0
2368718, -0.024, -1.549, -5.771, -0.958, 0.194, 0.381, 0
2368738, -0.394, -1.738, -4.554, -0.937, 0.1, 0.263, 0
2368758, -0.765, -2.099, -3.484, -0.952, 0.145, 0.392, 0
2368778, -0.293, -3.381, -2.406, -1.017, 0.206, 0.378, 0
2368798, 0.606, -3.842, -1.089, -1.472, 0.305, 0.177, 0
2368818, 0.233, -2.815, 0.214, -2.145, 0.108, -0.089, 0
2368838, -0.517, -1.583, 1.447, -2.279, -0.016, -0.119, 0
2368858, -0.601, -0.687, 2.415, -1.712, 0.082, 0.081, 0
2368878, -0.292, -0.707, 2.845, -1.163, 0.153, 0.252, 0
2368898, 0.106, -1.744, 1.954, -0.883, 0.351, 0.206, 0
2368918, 0.385, -2.902, 1.027, -1.037, 0.646, 0.084, 0
2368938, 1.023, -2.524, 1.927, -1.112, 0.657, 0.003, 0
2368958, 1.141, -1.819, 2.913, -0.974, 0.478, -0.06, 0
2368978, 0.297, -1.287, 3.187, -0.689, 0.516, -0.077, 0
2368998, 0.05, -1.504, 3.061, -0.559, 0.681, -0.131, 0
2369018, 0.637, -2.063, 3.252, -0.646, 0.567, -0.178, 0
2369038, 0.671, -2.371, 3.436, -0.783, 0.185, -0.111, 0
2369058, 0.776, -2.326, 3.88, -0.832, -0.222, -0.047, 0
2369078, 0.237, -1.774, 4.377, -0.75, -0.293, -0.064, 0
2369098, -0.009, -1.259, 4.527, -0.533, -0.084, -0.208, 0
2369118, -0.475, -0.91, 4.367, -0.331, 0.169, -0.371, 0
2369138, -0.593, -0.638, 4.49, -0.119, 0.185, -0.379, 0
2369158, -0.738, -0.415, 4.125, -0.021, 0.023, -0.297, 0
2369178, -0.818, -0.441, 3.673, -0.008, -0.164, -0.164, 0
2369198, -0.511, -0.603, 3.148, -0.057, -0.356, -0.091, 0
2369218, -0.742, -0.573, 2.516, -0.128, -0.273, -0.083, 0
2369238, -0.786, -0.279, 2.358, -0.039, -0.091, -0.11, 0
2369258, -0.644, -0.147, 2.065, 0.13, -0.064, -0.078, 0
2369278, -0.96, -0.117, 1.348, 0.183, 0.068, -0.062, 0
2369298, -0.687, -0.253, 1.074, 0.147, 0.162, -0.037, 0
2369318, -0.517, -0.26, 1.035, 0.13, 0.119, 0.004, 0
2369338, -0.328, -0.198, 1.057, 0.21, 0.048, 0.072, 0
2369358, -0.283, -0.483, 0.688, 0.241, 0.045, 0.111, 0
2369378, -0.42, -0.956, 0.482, 0.13, 0.174, 0.142, 0
2369398, -0.688, -1.201, 0.673, -0.147, 0.485, 0.169, 1
2369418, -0.486, -0.996, 1.289, -0.477, 0.825, 0.285, 1
2369438, 0.623, -0.822, 2.808, -0.642, 0.805, 0.345, 1
2369458, 0.837, -0.526, 3.391, -0.504, 0.247, 0.458, 1
2369478, 0.517, -0.896, 3.171, -0.255, -0.105, 0.46, 1
2369498, 0.117, -1.175, 2.999, -0.097, -0.108, 0.328, 1
2369518, -0.834, -1.168, 2.603, 0.072, 0.218, 0.149, 1
2369538, -0.088, -1.0, 3.189, 0.243, 0.632, 0.196, 1
2369558, 1.173, -1.416, 3.489, 0.348, 0.473, 0.328, 1
2369578, 0.795, -1.288, 2.627, 0.329, -0.048, 0.331, 1
2369598, -0.001, -1.167, 2.371, 0.354, -0.339, 0.261, 1
2369618, -0.302, -1.522, 2.1, 0.37, -0.05, 0.128, 1
2369638, 0.118, -1.748, 2.245, 0.295, 0.472, -0.036, 1
2369658, 0.693, -1.106, 2.36, 0.128, 0.575, -0.084, 1
2369678, 0.328, -0.406, 2.126, 0.17, 0.256, -0.13, 1
2369698, -0.837, 0.101, 1.221, 0.385, -0.179, -0.158, 1
2369718, -1.362, -0.145, -0.028, 0.584, -0.239, -0.087, 1
2369738, -0.91, -0.761, -0.707, 0.633, -0.071, 0.051, 1
2369758, 0.292, -1.317, -1.152, 0.549, -0.108, 0.067, 1
2369778, -0.357, -0.362, -1.592, 0.475, -0.438, -0.045, 1
2369798, -0.968, -0.223, -2.699, 0.74, -0.521, -0.07, 1
2369818, -1.808, -0.399, -3.828, 0.88, -0.244, 0.056, 1
2369838, -1.279, -0.744, -3.764, 0.491, 0.159, 0.103, 1
2369858, -0.585, -0.418, -2.669, 0.277, 0.062, 0.013, 1
2369878, -0.191, 0.171, -1.892, 0.437, -0.296, 0.065, 1
2369898, -0.545, -0.16, -2.188, 0.679, -0.32, 0.097, 1
2369918, 0.175, -0.042, -3.072, 0.726, -0.188, 0.043, 1
2369938, 0.116, -0.061, -3.933, 0.533, -0.216, -0.012, 1
2369958, -0.248, 0.185, -3.801, 0.241, -0.135, -0.038, 1
2369978, -0.616, 0.239, -2.817, 0.112, 0.174, 0.0, 1
2369998, -0.104, 0.027, -1.277, 0.115, 0.39, 0.157, 1
2370018, 0.529, 0.031, -0.271, 0.381, 0.343, 0.243, 1
2370038, 0.898, -0.542, -0.355, 0.474, 0.013, 0.238, 1
2370058, 0.9, -0.985, -0.791, 0.432, -0.149, 0.043, 1
2370078, 0.583, -0.852, -0.973, 0.337, -0.14, -0.033, 1
2370098, 0.57, -0.052, -1.012, 0.331, -0.287, -0.078, 1
2370118, 0.034, 0.4, -1.144, 0.433, -0.328, -0.017, 1
2370138, -0.928, 0.555, -1.684, 0.402, -0.003, 0.048, 1
2370158, -0.17, 0.882, -2.007, 0.337, 0.161, 0.202, 1
2370178, 0.452, 0.699, -2.33, 0.227, 0.031, 0.225, 1
2370198, 0.297, 0.774, -2.275, 0.163, -0.042, 0.195, 1
2370218, 0.09, 0.814, -1.859, 0.236, -0.056, 0.193, 1
2370238, 0.041, 0.337, -1.834, 0.233, -0.062, 0.124, 1
2370258, 0.102, -0.022, -1.838, 0.123, -0.126, 0.062, 1
2370278, 0.115, -0.059, -1.752, 0.05, -0.189, 0.062, 1
2370298, -0.158, 0.009, -1.43, 0.021, -0.173, 0.132, 1
2370318, -0.106, -0.038, -0.966, 0.112, -0.148, 0.199, 1
2370338, 0.347, -0.823, -0.955, 0.028, -0.146, 0.103, 1
2370358, 0.253, -0.532, -1.04, -0.077, -0.142, -0.019, 1
2370378, 0.006, -0.362, -1.103, -0.099, -0.144, -0.028, 1
2370398, 0.037, -0.223, -0.736, -0.1, -0.124, 0.02, 1
2370418, 0.278, -0.283, -0.546, -0.023, -0.163, 0.065, 1
2370438, 0.178, -0.176, -0.828, 0.035, -0.238, 0.034, 1
2370458, -0.108, -0.284, -1.311, 0.018, -0.262, 0.031, 1
2370478, -0.063, -0.285, -1.394, -0.005, -0.202, -0.039, 1
2370498, 0.094, 0.134, -0.73, 0.083, -0.076, -0.036, 1
2370518, 0.368, 0.658, -0.646, 0.521, -0.158, -0.187, 1
2370538, 0.883, 1.729, -0.71, 1.526, -0.535, -0.45, 1
2370558, 0.596, 0.698, -1.531, 2.58, -1.269, -0.066, 1
2370578, -1.248, -0.4, -5.595, 2.403, -1.625, 0.801, 0
2370598, -1.726, -2.955, -9.366, 1.86, -1.063, 0.62, 0
2370618, -1.551, -2.359, -9.732, 0.796, -0.124, 0.333, 0
2370638, -0.677, -1.805, -7.915, 0.292, 0.408, 0.337, 0
2370658, -1.157, -3.015, -6.6, 0.176, 0.354, 0.243, 0
2370678, -0.683, -3.569, -6.26, -0.488, 0.597, 0.171, 0
2370698, -0.941, -3.607, -5.717, -1.076, 0.763, 0.133, 0
2370718, -0.524, -3.434, -4.413, -1.584, 0.96, -0.008, 0
2370738, -0.084, -2.738, -2.357, -1.923, 0.665, -0.082, 0
2370758, -1.032, -2.254, -1.456, -2.045, 0.394, -0.003, 0
2370778, -0.926, -2.18, -0.568, -1.985, 0.456, 0.095, 0
2370798, -0.897, -2.113, 0.495, -1.973, 0.704, -0.067, 0
2370818, 0.03, -1.522, 2.226, -1.675, 1.153, -0.164, 0
2370838, 0.893, -2.065, 2.259, -1.599, 0.726, -0.095, 0
2370858, 1.019, -2.664, 1.899, -1.993, 0.15, -0.013, 0
2370878, 0.801, -2.166, 2.571, -2.205, -0.095, 0.046, 0
2370898, 0.087, -1.715, 2.768, -2.086, 0.134, 0.014, 0
2370918, 0.324, -1.063, 3.374, -1.594, 0.356, -0.009, 0
2370938, 0.522, -0.716, 3.541, -1.136, 0.538, -0.104, 0
2370958, 1.406, -1.363, 2.577, -1.235, 0.273, -0.097, 0
2370978, 1.383, -1.783, 2.083, -1.657, -0.434, 0.048, 0
2370998, -0.065, -1.106, 1.979, -1.814, -0.532, 0.098, 0
2371018, -0.372, -0.786, 2.253, -1.506, -0.289, 0.107, 0
2371038, -0.215, -1.16, 2.222, -1.101, -0.1, 0.102, 0
2371058, 0.098, -1.689, 2.186, -0.795, 0.064, 0.029, 0
2371078, -0.25, -2.092, 2.034, -0.7, 0.372, -0.112, 0
2371098, 0.24, -2.24, 2.246, -0.836, 0.364, -0.105, 0
2371118, 0.518, -2.038, 2.931, -1.071, -0.02, -0.014, 0
2371138, 0.032, -1.031, 3.955, -0.968, -0.284, 0.033, 0
2371158, -0.688, -0.541, 4.297, -0.651, -0.164, -0.021, 0
2371178, -0.969, -0.365, 4.503, -0.31, 0.14, -0.086, 0
2371198, -0.685, -0.469, 4.203, -0.079, 0.383, -0.158, 0
2371218, -0.072, -0.863, 3.913, -0.031, 0.287, -0.118, 0
2371238, 0.354, -1.203, 3.847, -0.125, -0.229, 0.0, 0
2371258, -0.273, -1.004, 3.601, -0.153, -0.367, 0.011, 0
2371278, -0.749, -0.343, 3.456, 0.062, -0.177, -0.047, 0
2371298, -0.804, -0.171, 2.989, 0.32, 0.063, -0.053, 0
2371318, -0.579, -0.463, 2.155, 0.373, 0.04, -0.002, 0
2371338, -0.418, -0.777, 1.46, 0.384, -0.154, 0.108, 0
2371358, -0.514, -0.599, 1.089, 0.296, -0.193, 0.14, 0
2371378, -0.541, -0.48, 0.588, 0.299, -0.083, 0.133, 0
2371398, -0.67, -0.721, 0.078, 0.288, 0.13, 0.147, 0
2371418, -0.239, -1.047, 0.011, 0.112, 0.321, 0.226, 1
2371438, 0.236, -0.983, -0.018, -0.252, 0.503, 0.403, 1
2371458, -0.082, -1.392, 0.69, -0.594, 0.654, 0.466, 1
2371478, -0.252, -1.035, 1.568, -0.543, 0.547, 0.431, 1
2371498, -0.731, -0.87, 2.29, -0.27, 0.398, 0.401, 1
2371518, -0.504, -0.69, 2.377, 0.044, 0.356, 0.32, 1
2371538, 0.293, -1.217, 2.498, 0.203, 0.26, 0.304, 1
2371558, -0.002, -1.145, 2.447, 0.21, 0.204, 0.219, 1
2371578, 0.563, -1.58, 2.861, 0.085, 0.348, 0.237, 1
2371598, 0.686, -1.572, 3.322, -0.051, 0.378, 0.199, 1
2371618, 0.659, -1.134, 3.31, 0.042, 0.368, 0.095, 1
2371638, 0.429, -1.12, 2.697, 0.34, 0.24, 0.106, 1
2371658, 0.096, -1.231, 1.923, 0.561, 0.158, 0.132, 1
2371678, 0.235, -1.591, 1.352, 0.526, 0.196, 0.121, 1
2371698, 0.061, -1.149, 1.341, 0.221, 0.108, 0.019, 1
2371718, -1.269, 0.255, 1.459, 0.234, 0.106, -0.049, 1
2371738, -0.48, -0.315, 1.481, 0.631, 0.237, 0.18, 1
2371758, 0.895, -1.342, 0.762, 0.894, -0.018, 0.261, 1
2371778, 0.393, -1.673, -0.517, 0.676, -0.295, -0.102, 1
2371798, -0.736, -0.73, -1.137, 0.566, -0.245, -0.234, 1
2371818, -1.231, -0.165, -1.175, 0.706, -0.087, -0.147, 1
2371838, -0.69, 0.001, -1.214, 0.829, -0.128, -0.124, 1
2371858, -0.353, -0.043, -2.684, 0.915, -0.408, -0.126, 1
2371878, -0.388, -0.537, -3.96, 0.627, -0.597, -0.148, 1
2371898, -1.047, 0.173, -4.419, 0.537, -0.309, -0.214, 1
2371918, -1.363, 0.529, -3.848, 0.574, 0.094, 0.033, 1
2371938, -0.973, 0.364, -2.961, 0.652, 0.451, 0.228, 1
2371958, 0.292, 0.089, -1.874, 0.724, 0.411, 0.3, 1
2371978, 1.387, 0.279, -1.606, 0.772, -0.063, 0.144, 1
2371998, 0.457, 0.496, -1.91, 0.776, -0.432, 0.062, 1
2372018, -0.691, 0.759, -2.653, 0.827, -0.37, 0.2, 1
2372038, -0.343, 0.203, -3.276, 0.74, -0.012, 0.252, 1
2372058, 0.705, -0.033, -3.292, 0.593, 0.017, 0.172, 1
2372078, 0.822, 0.226, -2.995, 0.497, -0.186, 0.027, 1
2372098, -0.291, 0.656, -2.764, 0.419, -0.207, 0.064, 1
2372118, -1.007, 0.791, -2.362, 0.384, 0.067, 0.129, 1
2372138, -0.536, 0.154, -2.001, 0.282, 0.309, 0.103, 1
2372158, 0.277, 0.253, -1.521, 0.246, 0.101, 0.024, 1
2372178, 0.13, 0.008, -1.231, 0.213, -0.183, -0.018, 1
2372198, -0.316, -0.119, -1.081, 0.182, -0.244, -0.029, 1
2372218, -0.245, 0.047, -0.88, 0.223, -0.263, -0.035, 1
2372238, -0.48, -0.08, -1.271, 0.188, -0.276, -0.068, 1
2372258, -0.378, 0.068, -1.521, 0.127, -0.326, 0.016, 1
2372278, 0.022, -0.166, -1.685, 0.109, -0.324, 0.113, 1
2372298, 0.359, -0.474, -1.498, 0.053, -0.244, 0.076, 1
2372318, 0.094, -0.519, -1.479, -0.017, -0.185, 0.075, 1
2372338, 0.144, -0.426, -1.203, -0.076, -0.106, 0.07, 1
2372358, 0.36, -0.302, -0.882, -0.08, -0.103, 0.059, 1
2372378, 0.128, -0.246, -0.782, -0.061, -0.141, 0.045, 1
2372398, -0.065, -0.219, -0.661, -0.034, -0.097, 0.049, 1
2372418, 0.066, -0.403, -0.759, -0.075, -0.026, 0.112, 1
2372438, 0.251, -0.32, -0.727, -0.069, -0.043, 0.067, 1
2372458, -0.152, -0.26, -0.754, 0.032, -0.075, 0.028, 1
2372478, 0.03, -0.029, -0.953, 0.348, -0.063, -0.13, 1
2372498, -0.153, -0.319, -1.8, 0.468, -0.06, -0.17, 1
2372518, 0.008, -0.395, -2.717, 0.356, 0.03, -0.174, 0
2372538, 0.369, 0.446, -3.425, 0.412, 0.019, -0.048, 0
2372558, -0.546, -0.146, -5.811, 0.396, -0.272, 0.208, 0
2372578, -0.636, -0.554, -7.429, 0.037, 0.054, 0.147, 0
2372598, -0.27, -0.689, -7.489, -0.131, 0.377, 0.09, 0
2372618, -0.209, -0.851, -7.211, -0.34, 0.412, 0.193, 0
2372638, -0.239, -0.788, -6.709, -0.368, 0.367, 0.302, 0
2372658, -0.592, -1.997, -7.278, -0.348, 0.69, 0.092, 0
2372678, 0.807, -1.914, -6.305, -0.55, 0.872, -0.13, 0
2372698, 0.024, -2.644, -5.731, -0.666, 0.363, -0.106, 0
2372718, -0.911, -3.171, -4.62, -0.85, 0.254, 0.078, 0
2372738, -0.936, -3.717, -3.785, -1.049, 0.643, -0.115, 0
2372758, -0.064, -2.635, -1.645, -1.105, 1.068, -0.409, 0
2372778, 0.92, -2.84, -0.251, -1.116, 0.658, -0.431, 0
2372798, 0.209, -2.658, 0.661, -1.414, 0.205, -0.361, 0
2372818, -0.079, -2.113, 1.186, -1.734, -0.048, -0.266, 0
2372838, -0.399, -1.945, 1.666, -1.911, -0.017, -0.223, 0
2372858, 0.212, -1.482, 2.705, -1.745, -0.161, -0.098, 0
2372878, 0.299, -1.451, 3.014, -1.449, -0.271, 0.023, 0
2372898, 0.207, -1.715, 2.897, -1.323, -0.163, 0.051, 0
2372918, 0.297, -1.677, 3.184, -1.254, 0.068, -0.056, 0
2372938, 0.275, -1.599, 3.79, -1.172, 0.16, -0.126, 0
2372958, 0.629, -1.732, 3.877, -1.116, -0.063, -0.014, 0
2372978, 0.715, -1.921, 3.929, -1.121, -0.363, 0.09, 0
2372998, 0.271, -1.922, 3.67, -1.088, -0.441, 0.125, 0
2373018, 0.006, -2.213, 3.314, -1.178, -0.142, 0.0, 0
2373038, 0.392, -1.864, 3.707, -1.092, -0.051, -0.069, 0
2373058, 0.212, -1.513, 3.995, -0.888, -0.103, -0.081, 0
2373078, -0.346, -1.202, 4.197, -0.659, -0.056, -0.111, 0
2373098, -0.521, -0.977, 4.404, -0.463, 0.05, -0.171, 0
2373118, -0.787, -0.942, 4.232, -0.383, 0.198, -0.226, 0
2373138, -0.494, -0.733, 4.563, -0.278, 0.125, -0.208, 0
2373158, -0.743, -0.633, 4.473, -0.193, -0.012, -0.133, 0
2373178, -0.62, -0.514, 4.208, -0.125, -0.084, -0.086, 0
2373198, -0.913, -0.363, 3.57, -0.054, -0.065, -0.065, 0
2373218, -1.094, -0.166, 2.858, 0.033, 0.059, -0.059, 0
2373238, -0.827, -0.262, 2.632, 0.139, 0.059, 0.023, 0
2373258, -0.806, -0.416, 1.89, 0.205, 0.069, 0.089, 0
2373278, -0.663, -0.37, 1.553, 0.24, 0.14, 0.106, 0
2373298, -0.506, -0.511, 1.477, 0.268, 0.265, 0.138, 0
2373318, -0.461, -0.901, 1.512, 0.23, 0.301, 0.202, 0
2373338, -0.72, -1.478, 1.645, 0.037, 0.327, 0.334, 1
2373358, -0.442, -2.197, 2.574, -0.295, 0.497, 0.547, 1
2373378, 0.433, -1.466, 3.39, -0.651, 0.548, 0.734, 1
2373398, 0.548, -0.962, 3.752, -0.503, 0.279, 0.701, 1
2373418, 0.018, -1.04, 2.92, -0.048, -0.064, 0.597, 1
2373438, -0.255, -1.776, 2.086, 0.136, -0.198, 0.521, 1
2373458, -0.516, -2.183, 2.352, 0.021, -0.083, 0.445, 1
2373478, 1.3, -1.944, 2.662, -0.174, -0.057, 0.408, 1
2373498, 0.956, -1.824, 2.744, -0.199, -0.31, 0.29, 1
2373518, 0.959, -0.772, 3.354, 0.061, -0.342, 0.189, 1
2373538, 0.191, -0.743, 2.89, 0.584, -0.28, 0.098, 1
2373558, 0.125, -1.449, 2.254, 0.717, -0.244, 0.153, 1
2373578, -0.034, -1.121, 1.692, 0.516, -0.321, 0.07, 1
2373598, -0.624, -0.374, 1.213, 0.433, -0.21, -0.023, 1
2373618, -0.858, -0.028, 0.85, 0.789, 0.075, 0.016, 1
2373638, 0.039, -1.178, 0.2, 1.029, 0.089, 0.108, 1
2373658, -1.018, -1.323, -0.854, 0.729, -0.028, 0.023, 1
2373678, -1.259, -0.712, -1.135, 0.496, 0.158, 0.0, 1
2373698, -0.322, -0.492, -0.583, 0.51, 0.401, 0.066, 1
2373718, 0.324, -0.531, -0.1, 0.594, 0.361, 0.064, 1
2373738, -0.772, -0.23, -0.941, 0.716, -0.05, 0.06, 1
2373758, -1.295, -0.886, -2.187, 0.71, -0.106, 0.171, 1
2373778, -0.304, -1.098, -2.94, 0.609, -0.097, 0.121, 1
2373798, 0.515, -0.452, -3.272, 0.596, -0.123, 0.042, 1
2373818, -0.024, -0.058, -3.747, 0.577, -0.222, 0.03, 1
2373838, -0.665, 0.163, -3.789, 0.348, -0.158, 0.045, 1
2373858, -0.719, 0.177, -3.254, 0.163, -0.006, -0.01, 1
2373878, -0.117, 0.439, -2.387, 0.274, 0.021, -0.027, 1
2373898, 0.639, 0.547, -2.144, 0.486, -0.242, -0.055, 1
2373918, 0.443, 0.163, -2.688, 0.457, -0.579, -0.225, 1
2373938, -0.385, -0.065, -3.128, 0.091, -0.681, -0.441, 1
2373958, -1.417, 0.509, -2.744, -0.132, -0.511, -0.46, 1
2373978, -1.437, 1.323, -1.992, 0.021, -0.32, -0.194, 1
2373998, -0.74, 0.913, -1.903, 0.362, -0.235, 0.119, 1
2374018, 0.283, -0.05, -2.263, 0.485, -0.273, 0.158, 1
2374038, 0.693, -0.652, -2.87, 0.32, -0.298, 0.001, 1
2374058, 0.186, -0.366, -2.887, 0.078, -0.213, -0.119, 1
2374078, 0.052, -0.164, -2.4, -0.064, -0.149, -0.051, 1
2374098, 0.37, -0.176, -1.625, -0.042, -0.21, -0.072, 1
2374118, 0.482, -0.4, -1.158, -0.022, -0.253, -0.092, 1
2374138, 0.162, -0.692, -1.242, -0.073, -0.075, -0.16, 1
2374158, 0.024, -0.171, -1.137, -0.118, 0.022, -0.097, 1
2374178, 0.065, -0.009, -0.836, -0.084, -0.054, -0.082, 1
2374198, 0.096, 0.076, -0.448, 0.0, -0.128, -0.056, 1
2374218, -0.064, 0.15, -0.394, 0.089, -0.134, 0.062, 1
2374238, -0.494, 0.055, -1.041, 0.1, -0.02, 0.113, 1
2374258, -0.082, -0.024, -1.02, 0.045, 0.027, 0.122, 1
2374278, 0.073, -0.07, -0.894, 0.062, 0.013, 0.116, 1
2374298, -0.034, -0.078, -1.024, 0.089, -0.078, 0.08, 1
2374318, -0.195, -0.117, -1.371, 0.113, -0.157, 0.079, 1
2374338, -0.337, -0.19, -1.63, 0.064, -0.14, 0.117, 1
2374358, -0.067, -0.101, -1.562, 0.062, -0.076, 0.102, 1
2374378, -0.137, -0.036, -1.71, 0.138, -0.092, 0.031, 1
2374398, -0.15, 0.086, -1.957, 0.337, -0.087, -0.132, 1
2374418, -0.305, -0.261, -2.729, 0.48, -0.142, -0.173, 1
2374438, 0.249, -0.22, -3.333, 0.431, -0.082, -0.215, 0
2374458, 0.184, 0.102, -3.825, 0.39, -0.124, -0.251, 0
2374478, -0.625, 0.102, -4.254, 0.419, -0.208, -0.065, 0
2374498, -0.811, -0.06, -4.697, 0.546, 0.008, 0.282, 0
2374518, -0.8, -1.345, -5.072, 0.627, 0.396, 0.485, 0
2374538, 0.628, -1.438, -4.914, 0.36, 0.685, 0.502, 0
2374558, 0.853, -1.895, -5.203, 0.255, 0.265, 0.54, 0
2374578, -0.3, -0.979, -4.601, 0.152, -0.172, 0.561, 0
2374598, -1.222, -1.649, -4.829, 0.268, -0.192, 0.602, 0
2374618, -1.611, -2.304, -5.313, 0.102, 0.326, 0.357, 0
2374638, -1.441, -2.011, -4.571, -0.284, 1.04, 0.089, 0
2374658, 0.226, -2.677, -3.898, -0.662, 1.073, 0.111, 0
2374678, 0.69, -2.732, -3.081, -1.297, 0.305, 0.094, 0
2374698, -0.3, -2.112, -2.165, -1.881, -0.301, 0.034, 0
2374718, -1.54, -1.202, -1.033, -2.172, 0.122, -0.14, 0
2374738, -0.832, -0.714, 0.551, -1.852, 0.387, -0.079, 0
2374758, -0.542, -1.009, 1.121, -1.442, 0.482, 0.081, 0
2374778, 0.171, -1.712, 1.087, -1.321, 0.451, 0.174, 0
2374798, 0.562, -2.318, 0.872, -1.459, 0.441, 0.08, 0
2374818, 0.521, -2.234, 1.189, -1.643, 0.485, 0.051, 0
2374838, 0.552, -1.732, 2.076, -1.695, 0.411, 0.076, 0
2374858, 0.465, -1.595, 3.114, -1.597, 0.336, 0.123, 0
2374878, 0.658, -1.543, 3.737, -1.279, 0.345, 0.117, 0
2374898, 0.277, -1.99, 3.146, -0.996, 0.549, 0.02, 0
2374918, -0.047, -2.345, 2.578, -0.989, 0.811, -0.095, 0
2374938, 0.923, -2.152, 3.249, -1.051, 0.558, -0.042, 0
2374958, 0.956, -1.954, 3.655, -1.204, 0.035, 0.062, 0
2374978, 0.271, -1.572, 3.802, -1.232, -0.32, 0.177, 0
2374998, -0.346, -1.153, 4.002, -1.108, -0.239, 0.186, 0
2375018, -0.473, -1.063, 4.312, -0.916, 0.01, 0.065, 0
2375038, -0.419, -1.012, 4.795, -0.617, 0.109, 0.034, 0
2375058, -0.2, -1.153, 5.049, -0.396, -0.005, 0.029, 0
2375078, -0.346, -1.223, 4.966, -0.312, -0.151, 0.015, 0
2375098, -0.586, -0.857, 4.823, -0.221, -0.195, 0.004, 0
2375118, -0.748, -0.469, 4.356, -0.059, -0.122, -0.034, 0
2375138, -1.025, -0.201, 3.809, 0.098, 0.046, -0.077, 0
2375158, -0.955, -0.136, 3.476, 0.254, 0.018, -0.033, 0
2375178, -0.88, -0.322, 2.918, 0.307, -0.034, 0.021, 0
2375198, -1.141, -0.396, 2.091, 0.238, 0.056, 0.059, 0
2375218, -0.343, -0.5, 1.969, 0.224, 0.117, 0.081, 0
2375238, -0.276, -0.464, 1.781, 0.295, -0.022, 0.111, 0
2375258, -0.644, -0.531, 1.248, 0.377, -0.136, 0.189, 0
2375278, -0.544, -0.845, 0.9, 0.372, -0.001, 0.219, 1
2375298, -0.585, -0.962, 1.101, 0.263, 0.252, 0.249, 1
2375318, -0.347, -1.618, 0.808, -0.111, 0.563, 0.371, 1
2375338, 0.137, -1.646, 1.828, -0.445, 0.652, 0.423, 1
2375358, 0.233, -1.748, 2.369, -0.473, 0.332, 0.473, 1
2375378, -0.536, -1.526, 2.535, -0.269, -0.104, 0.475, 1
2375398, -0.815, -1.263, 2.9, 0.004, -0.104, 0.415, 1
2375418, 0.335, -1.103, 3.705, 0.282, 0.238, 0.232, 1
2375438, 0.947, -0.818, 3.369, 0.494, 0.408, 0.076, 1
2375458, 0.305, -0.451, 2.624, 0.715, 0.074, 0.076, 1
2375478, -0.216, -0.821, 1.672, 0.926, -0.339, 0.249, 1
2375498, -0.191, -1.397, 1.088, 0.818, -0.496, 0.262, 1
2375518, -0.261, -1.28, 1.087, 0.513, -0.322, 0.186, 1
2375538, -0.885, -0.685, 1.168, 0.494, -0.091, 0.11, 1
2375558, -0.243, -0.609, 1.288, 0.871, 0.145, 0.125, 1
2375578, 0.896, -1.609, 1.103, 1.091, 0.087, 0.122, 1
2375598, 1.104, -1.402, 0.656, 0.949, 0.01, -0.084, 1
2375618, -0.9, -0.404, -0.131, 0.858, -0.05, -0.229, 1
2375638, -1.673, 0.547, -0.472, 1.002, 0.072, -0.119, 1
2375658, -0.714, 0.406, -0.529, 1.31, 0.146, 0.07, 1
2375678, -0.237, -0.069, -1.664, 1.439, -0.081, 0.106, 1
2375698, -0.174, -0.16, -2.588, 1.244, -0.489, 0.117, 1
2375718, -0.586, -0.393, -3.1, 0.999, -0.566, 0.074, 1
2375738, -0.721, -0.877, -3.41, 0.733, -0.462, -0.025, 1
2375758, -0.809, -1.003, -3.729, 0.478, -0.215, -0.161, 1
2375778, -0.573, -0.584, -3.597, 0.31, -0.094, -0.181, 1
2375798, -0.365, -0.188, -3.466, -0.026, -0.115, -0.261, 1
2375818, -0.634, 0.245, -2.67, -0.248, -0.007, -0.259, 1
2375838, -0.649, 0.527, -2.02, -0.099, 0.288, -0.163, 1
2375858, -0.402, 0.265, -1.797, 0.028, 0.504, -0.088, 1
2375878, 0.229, -0.257, -1.364, -0.029, 0.369, 0.017, 1
2375898, 0.42, -0.166, -0.899, -0.009, 0.026, -0.03, 1
2375918, 0.082, 0.021, -0.875, 0.22, -0.117, 0.016, 1
2375938, -0.145, 0.061, -1.349, 0.431, 0.05, 0.031, 1
2375958, 0.305, -0.346, -1.707, 0.391, 0.045, 0.039, 1
2375978, 0.184, -0.309, -1.831, 0.106, -0.194, 0.013, 1
2375998, -0.571, 0.164, -1.497, 0.099, -0.244, 0.1, 1
2376018, -0.545, 0.308, -1.498, 0.361, -0.04, 0.205, 1
2376038, 0.124, -0.328, -1.996, 0.439, 0.043, 0.207, 1
2376058, 0.636, -0.902, -2.399, 0.197, -0.075, 0.096, 1
2376078, 0.167, -0.53, -2.087, -0.035, -0.132, 0.055, 1
2376098, -0.01, 0.018, -1.526, 0.073, -0.023, 0.073, 1
2376118, 0.288, 0.198, -1.357, 0.25, -0.042, 0.032, 1
2376138, 0.129, 0.045, -1.568, 0.268, -0.151, 0.063, 1
2376158, -0.248, -0.233, -1.906, 0.095, -0.145, 0.136, 1
2376178, -0.149, -0.206, -1.757, -0.07, 0.02, 0.177, 1
2376198, 0.232, 0.024, -1.147, -0.034, -0.032, 0.159, 1
2376218, 0.072, -0.125, -1.147, 0.04, -0.211, 0.152, 1
2376238, -0.107, -0.16, -1.261, 0.061, -0.268, 0.177, 1
2376258, 0.016, -0.414, -1.483, 0.107, -0.189, 0.169, 1
2376278, -0.003, -0.487, -1.529, 0.061, -0.089, 0.175, 1
2376298, 0.488, 0.142, -1.175, 0.189, -0.103, 0.095, 1
2376318, 0.264, 0.051, -1.574, 0.489, -0.403, 0.045, 1
2376338, -0.12, -0.285, -2.192, 0.725, -0.609, 0.122, 1
2376358, 0.324, -1.108, -3.404, 0.83, -0.549, 0.291, 0
2376378, 0.027, -2.081, -4.96, 0.524, -0.151, -0.048, 0
2376398, 0.176, -1.077, -4.936, -0.043, 0.056, -0.205, 0
2376418, -0.293, -0.913, -5.436, -0.291, 0.047, -0.064, 0
2376438, -0.127, -1.376, -5.998, -0.28, 0.064, 0.163, 0
2376458, 0.02, -2.513, -7.145, -0.178, 0.082, 0.286, 0
2376478, -0.297, -2.813, -7.53, -0.326, 0.384, 0.04, 0
2376498, -0.537, -2.739, -7.177, -0.803, 0.605, -0.157, 0
2376518, -0.352, -1.841, -5.438, -1.068, 0.506, -0.172, 0
2376538, -1.017, -2.122, -4.585, -1.015, 0.417, -0.12, 0
2376558, -1.203, -2.186, -3.658, -0.984, 0.657, -0.094, 0
2376578, -1.176, -2.05, -2.567, -1.079, 1.169, -0.28, 0
2376598, -0.247, -1.707, -0.698, -1.288, 1.317, -0.452, 0
2376618, 0.431, -1.897, 0.023, -1.372, 0.726, -0.382, 0
2376638, 0.503, -2.021, 0.41, -1.534, 0.047, -0.225, 0
2376658, 0.233, -1.8, 1.106, -1.795, -0.302, -0.147, 0
2376678, -0.482, -1.081, 1.707, -1.888, -0.101, -0.15, 0
2376698, -0.253, -0.869, 2.371, -1.564, 0.158, -0.069, 0
2376718, 0.262, -0.91, 2.856, -1.329, 0.239, 0.021, 0
2376738, 0.411, -0.898, 3.073, -1.227, 0.104, 0.167, 0
2376758, 0.263, -1.22, 2.96, -1.311, -0.191, 0.275, 0
2376778, -0.212, -1.759, 2.995, -1.431, -0.254, 0.378, 0
2376798, -0.12, -2.364, 3.092, -1.462, -0.174, 0.393, 0
2376818, 0.295, -2.671, 3.433, -1.459, 0.052, 0.268, 0
2376838, 0.812, -2.579, 4.101, -1.313, 0.196, 0.153, 0
2376858, 0.559, -2.122, 4.329, -1.035, 0.252, 0.031, 0
2376878, -0.043, -1.678, 4.353, -0.825, 0.352, -0.08, 0
2376898, -0.327, -1.462, 4.573, -0.737, 0.401, -0.148, 0
2376918, -0.511, -1.187, 4.732, -0.703, 0.414, -0.215, 0
2376938, -0.389, -0.802, 5.178, -0.602, 0.315, -0.227, 0
2376958, -0.529, -0.492, 5.139, -0.458, 0.165, -0.19, 0
2376978, -0.69, -0.179, 5.092, -0.262, 0.045, -0.148, 0
2376998, -0.597, -0.081, 4.68, -0.109, -0.051, -0.15, 0
2377018, -0.876, 0.001, 4.004, 0.019, -0.087, -0.174, 0
2377038, -1.035, 0.17, 3.211, 0.152, -0.106, -0.124, 0
2377058, -1.388, 0.185, 2.505, 0.212, -0.065, -0.064, 0
2377078, -1.396, 0.039, 2.025, 0.169, 0.0, 0.005, 0
2377098, -1.251, -0.045, 1.547, 0.076, 0.177, 0.073, 1
2377118, -0.978, -0.005, 1.335, 0.0, 0.351, 0.166, 1
2377138, -0.683, -0.605, 1.284, -0.136, 0.464, 0.289, 1
2377158, -1.142, -0.632, 1.004, -0.165, 0.54, 0.361, 1
2377178, -1.843, -1.638, 2.053, -0.166, 0.456, 0.427, 1
2377198, -1.095, -2.047, 2.955, -0.215, 0.388, 0.5, 1
2377218, 0.051, -2.079, 4.1, -0.367, 0.113, 0.533, 1
2377238, 0.888, -1.741, 4.563, -0.551, -0.329, 0.466, 1
2377258, 0.108, -1.342, 4.532, -0.532, -0.642, 0.288, 1
2377278, -1.291, -1.274, 3.758, -0.203, -0.417, 0.171, 1
2377298, -1.027, -1.997, 3.429, 0.059, -0.01, 0.287, 1
2377318, 0.317, -2.077, 3.853, -0.129, -0.058, 0.458, 1
2377338, 1.15, -1.418, 4.306, -0.304, -0.409, 0.422, 1
2377358, 0.489, -0.725, 3.52, 0.12, -0.523, 0.183, 1
2377378, -0.158, -1.106, 2.056, 0.862, -0.293, 0.122, 1
2377398, -0.261, -2.245, 1.073, 1.132, -0.091, 0.151, 1
2377418, -0.024, -2.501, 1.301, 0.899, 0.148, 0.069, 1
2377438, 0.174, -1.097, 1.18, 0.861, 0.316, -0.12, 1
2377458, -0.334, -0.112, 0.465, 1.156, 0.144, -0.086, 1
2377478, -0.822, -0.005, -0.405, 1.544, -0.307, 0.118, 1
2377498, -1.578, -0.914, -1.894, 1.744, -0.438, 0.243, 1
2377518, -0.872, -1.508, -2.597, 1.644, -0.126, 0.299, 1
2377538, 0.274, -1.415, -3.099, 1.442, 0.185, 0.217, 1
2377558, 0.845, -0.889, -3.4, 1.152, -0.105, 0.097, 1
2377578, -0.626, -0.067, -3.667, 0.799, -0.675, -0.039, 1
2377598, -2.142, 0.339, -3.838, 0.631, -0.602, -0.028, 1
2377618, -1.558, -0.415, -4.297, 0.557, -0.02, 0.048, 1
2377638, -0.075, -0.581, -4.419, 0.223, 0.215, 0.08, 1
2377658, 0.923, -0.258, -3.957, 0.016, -0.144, 0.012, 1
2377678, 0.65, 0.503, -3.419, 0.109, -0.199, -0.017, 1
2377698, 0.168, 0.601, -3.249, 0.241, 0.036, 0.015, 1
2377718, 0.408, 0.833, -3.142, 0.276, 0.201, -0.045, 1
2377738, 0.474, 0.837, -2.955, 0.159, 0.213, -0.1, 1
2377758, 0.288, 1.609, -2.484, 0.237, 0.177, -0.011, 1
2377778, -0.131, 1.086, -2.343, 0.211, 0.138, 0.078, 1
2377798, -0.473, 0.264, -1.922, 0.035, 0.067, 0.081, 1
2377818, -0.221, 0.417, -1.837, 0.146, 0.039, 0.141, 1
2377838, 0.255, 0.14, -2.394, 0.343, -0.133, 0.215, 1
2377858, 0.263, -0.062, -2.872, 0.469, -0.326, 0.281, 1
2377878, -0.076, -0.776, -3.107, 0.377, -0.306, 0.238, 1
2377898, -0.454, -1.295, -2.751, 0.072, -0.086, 0.13, 1
2377918, -0.008, -0.508, -1.618, -0.048, -0.106, 0.086, 1
2377938, -0.021, -0.03, -0.661, 0.067, -0.221, 0.14, 1
2377958, 0.279, 0.169, -0.602, 0.286, -0.321, 0.197, 1
2377978, -0.006, -0.245, -1.232, 0.278, -0.367, 0.164, 1
2377998, -0.249, -0.735, -1.957, 0.037, -0.161, 0.073, 1
2378018, 0.059, -0.264, -1.811, -0.114, -0.056, 0.031, 1
2378038, 0.46, 0.037, -1.444, 0.028, -0.075, 0.014, 1
2378058, 0.589, -0.262, -1.551, 0.225, -0.1, -0.031, 1
2378078, 0.885, -0.52, -1.896, 0.213, -0.155, -0.085, 1
2378098, 0.451, -0.676, -2.72, 0.031, -0.197, -0.21, 1
2378118, 0.06, -0.066, -2.84, 0.186, -0.204, -0.372, 1
2378138, -0.024, 0.085, -2.944, 0.594, -0.202, -0.281, 0
2378158, 1.321, -0.781, -4.312, 0.632, -0.335, -0.136, 0
2378178, 0.25, -1.061, -6.058, 0.414, -0.509, -0.178, 0
2378198, -1.045, -0.369, -6.423, 0.054, -0.38, -0.252, 0
2378218, -0.582, -0.268, -6.1, 0.073, -0.211, -0.156, 0
2378238, -0.27, -0.856, -5.848, 0.243, -0.288, -0.015, 0
2378258, -0.971, -1.457, -5.725, 0.38, -0.433, 0.209, 0
2378278, -1.334, -2.424, -5.303, 0.344, -0.222, 0.413, 0
2378298, -1.091, -3.085, -5.102, 0.046, 0.32, 0.268, 0
2378318, -1.748, -3.028, -4.471, -0.268, 1.042, -0.009, 0
2378338, -0.24, -3.386, -3.344, -0.508, 1.477, -0.231, 0
2378358, -0.173, -2.846, -1.485, -1.083, 1.116, -0.31, 0
2378378, -0.16, -2.493, -0.456, -1.54, 0.694, -0.329, 0
2378398, -1.034, -2.166, -0.17, -1.726, 0.54, -0.348, 0
2378418, -0.653, -1.852, 0.691, -1.668, 0.729, -0.348, 0
2378438, -0.757, -2.238, 1.503, -1.624, 0.795, -0.328, 0
2378458, 0.196, -2.835, 1.222, -1.701, 0.424, -0.222, 0
2378478, 0.583, -2.832, 2.041, -1.982, 0.067, -0.117, 0
2378498, 0.152, -2.284, 2.579, -2.171, -0.175, -0.061, 0
2378518, -0.258, -1.469, 2.969, -2.041, -0.098, -0.01, 0
2378538, -0.195, -1.582, 3.023, -1.718, 0.102, -0.066, 0
2378558, 0.195, -1.75, 3.263, -1.557, 0.306, -0.119, 0
2378578, 0.54, -1.972, 3.614, -1.54, 0.233, -0.103, 0
2378598, 0.751, -1.853, 4.018, -1.608, -0.051, -0.042, 0
2378618, 0.123, -1.449, 4.172, -1.446, -0.277, 0.004, 0
2378638, -0.306, -1.115, 4.513, -1.119, -0.11, -0.017, 0
2378658, -0.242, -0.932, 4.891, -0.801, 0.065, -0.084, 0
2378678, -0.504, -1.088, 4.925, -0.556, 0.125, -0.139, 0
2378698, -0.625, -1.113, 4.874, -0.403, 0.062, -0.122, 0
2378718, -0.678, -1.122, 4.673, -0.306, -0.065, -0.091, 0
2378738, -0.635, -0.786, 4.505, -0.196, -0.186, -0.055, 0
2378758, -0.755, -0.815, 3.88, -0.16, -0.156, -0.1, 0
2378778, -0.861, -0.464, 3.654, -0.058, -0.039, -0.087, 0
2378798, -0.642, -0.575, 3.344, 0.037, -0.098, -0.058, 0
2378818, -0.844, -0.707, 2.751, 0.091, -0.134, 0.004, 0
2378838, -0.928, -0.743, 2.281, 0.127, -0.111, 0.056, 0
2378858, -0.864, -0.674, 1.878, 0.139, -0.021, 0.086, 0
2378878, -0.938, -0.658, 1.765, 0.117, 0.185, 0.109, 1
2378898, -0.706, -0.711, 1.854, 0.046, 0.33, 0.177, 1
2378918, -0.061, -1.107, 2.07, -0.145, 0.408, 0.324, 1
2378938, -0.45, -1.081, 1.862, -0.417, 0.599, 0.408, 1
2378958, -0.738, -1.04, 1.941, -0.535, 0.618, 0.481, 1
2378978, -0.554, -0.992, 2.487, -0.486, 0.377, 0.53, 1
2378998, -0.414, -0.908, 3.254, -0.238, 0.122, 0.516, 1
2379018, -0.593, -0.661, 3.728, 0.181, 0.018, 0.452, 1
2379038, -0.532, -0.976, 3.466, 0.549, -0.006, 0.421, 1
2379058, 0.407, -1.487, 2.722, 0.483, -0.189, 0.441, 1
2379078, -0.013, -1.799, 2.043, 0.208, -0.228, 0.448, 1
2379098, -0.389, -2.096, 1.853, -0.12, -0.191, 0.417, 1
2379118, -1.015, -1.826, 2.869, -0.067, 0.362, 0.215, 1
2379138, 0.393, -0.941, 3.197, 0.36, 0.752, 0.186, 1
2379158, 1.26, -1.324, 3.0, 0.572, 0.634, 0.191, 1
2379178, 0.546, -1.006, 2.366, 0.565, 0.204, 0.186, 1
2379198, -0.2, -1.325, 1.588, 0.74, -0.004, 0.171, 1
2379218, -0.915, -0.846, 0.58, 0.968, 0.034, 0.067, 1
2379238, -0.559, -0.908, 0.137, 1.137, 0.235, 0.152, 1
2379258, -0.037, -1.246, -0.232, 1.031, 0.246, 0.182, 1
2379278, -0.662, -1.075, -0.68, 0.7, 0.193, 0.098, 1
2379298, 0.208, -0.825, -1.153, 0.649, 0.025, 0.091, 1
2379318, -0.194, -0.683, -2.07, 0.823, -0.307, -0.051, 1
2379338, -1.063, -0.302, -2.992, 0.788, -0.403, -0.147, 1
2379358, -1.321, -0.064, -3.189, 0.448, -0.362, -0.135, 1
2379378, -1.194, 0.098, -3.119, 0.168, -0.375, -0.154, 1
2379398, -0.769, 0.397, -2.934, 0.199, -0.368, -0.111, 1
2379418, -0.113, 0.462, -2.925, 0.534, -0.239, -0.133, 1
2379438, 0.394, -0.022, -3.576, 0.785, -0.071, -0.131, 1
2379458, 0.494, -0.187, -3.621, 0.524, -0.283, -0.199, 1
2379478, -0.402, 0.469, -2.93, 0.197, -0.364, -0.3, 1
2379498, -0.442, 1.167, -2.186, 0.28, -0.177, -0.17, 1
2379518, 0.361, 1.21, -2.358, 0.706, -0.033, 0.117, 1
2379538, 1.304, -0.011, -2.693, 0.967, -0.326, 0.282, 1
2379558, 0.859, -0.722, -2.851, 0.769, -0.577, 0.163, 1
2379578, 0.114, -0.343, -2.657, 0.422, -0.461, 0.032, 1
2379598, 0.1, 0.312, -2.102, 0.269, -0.124, 0.059, 1
2379618, 0.51, 0.333, -1.76, 0.326, -0.155, 0.089, 1
2379638, 0.43, -0.146, -1.876, 0.24, -0.096, 0.09, 1
2379658, 0.038, -0.479, -2.101, 0.021, 0.143, 0.086, 1
2379678, 0.26, -0.438, -1.728, -0.15, 0.139, 0.0, 1
2379698, 0.358, 0.171, -1.208, -0.065, -0.119, -0.075, 1
2379718, -0.179, 0.15, -1.204, 0.054, -0.243, 0.009, 1
2379738, -0.676, -0.147, -1.534, 0.098, -0.061, 0.099, 1
2379758, -0.421, -0.675, -1.717, 0.0, 0.176, 0.12, 1
2379778, 0.247, -0.542, -1.551, -0.114, 0.147, 0.078, 1
2379798, 0.227, -0.183, -1.312, -0.119, -0.055, 0.047, 1
2379818, -0.196, -0.03, -0.95, 0.006, -0.078, 0.108, 1
2379838, -0.094, -0.23, -0.897, 0.102, -0.004, 0.109, 1
2379858, 0.017, -0.393, -1.184, 0.044, 0.022, 0.03, 1
2379878, 0.063, -0.215, -1.384, -0.048, -0.057, 0.025, 1
2379898, -0.176, -0.131, -1.342, -0.142, -0.116, 0.124, 1
2379918, -0.341, 0.246, -0.727, 0.078, 0.056, 0.237, 1
2379938, 0.007, -0.361, -1.247, 0.216, 0.239, 0.101, 1
2379958, 0.487, -0.478, -1.323, 0.193, 0.119, -0.023, 1
2379978, 0.612, 0.367, -0.93, 0.459, -0.142, 0.023, 1
2379998, 0.201, -0.691, -1.952, 0.48, -0.139, -0.103, 1
2380018, 0.324, -0.506, -2.606, 0.434, 0.039, -0.382, 0
2380038, 0.508, 0.749, -2.745, 0.657, -0.075, -0.348, 0
2380058, 0.892, 0.125, -3.699, 0.648, -0.388, -0.145, 0
2380078, 0.272, -0.711, -5.703, 0.293, -0.372, -0.13, 0
2380098, -0.471, -0.96, -6.72, -0.064, 0.098, -0.078, 0
2380118, 0.212, -0.591, -6.329, 0.188, 0.015, 0.237, 0
2380138, -0.796, -2.148, -6.7, 0.472, 0.004, 0.422, 0
2380158, -1.496, -2.916, -7.035, 0.128, 0.869, 0.107, 0
2380178, -0.81, -2.367, -5.513, -0.607, 1.344, -0.282, 0
2380198, -0.285, -1.434, -3.116, -1.004, 1.095, -0.282, 0
2380218, -0.473, -1.308, -1.913, -1.018, 0.4, -0.145, 0
2380238, -0.799, -2.159, -2.202, -0.967, 0.116, -0.073, 0
2380258, -1.528, -1.558, -1.478, -1.196, 0.639, -0.408, 0
2380278, -0.372, -1.433, -0.297, -1.124, 0.935, -0.474, 0
2380298, 0.025, -1.857, 0.542, -1.248, 0.668, -0.521, 0
2380318, 0.338, -2.005, 1.008, -1.47, 0.309, -0.459, 0
2380338, 0.043, -1.562, 1.293, -1.638, 0.014, -0.347, 0
2380358, -0.188, -1.192, 1.691, -1.623, 0.001, -0.261, 0
2380378, 0.474, -1.791, 1.733, -1.53, 0.056, -0.2, 0
2380398, 0.889, -1.901, 2.239, -1.631, 0.063, -0.233, 0
2380418, 0.823, -1.733, 2.732, -1.554, -0.106, -0.188, 0
2380438, 0.194, -1.295, 2.999, -1.276, -0.156, -0.154, 0
2380458, -0.053, -1.626, 2.727, -0.905, -0.036, -0.108, 0
2380478, 0.325, -2.207, 2.409, -0.842, 0.144, -0.186, 0
2380498, 0.691, -2.14, 2.797, -1.034, 0.196, -0.262, 0
2380518, 0.62, -1.735, 3.2, -1.187, -0.135, -0.197, 0
2380538, -0.326, -1.124, 3.451, -1.17, -0.507, -0.066, 0
2380558, -0.886, -0.817, 3.487, -1.042, -0.524, 0.046, 0
2380578, -0.638, -0.657, 3.576, -0.891, -0.202, -0.023, 0
2380598, -0.674, -0.695, 3.745, -0.795, 0.008, -0.097, 0
2380618, -0.527, -0.753, 4.363, -0.615, 0.028, -0.127, 0
2380638, -0.107, -0.651, 4.959, -0.316, -0.202, -0.034, 0
2380658, -0.27, -0.83, 4.532, -0.163, -0.276, -0.04, 0
2380678, -0.436, -0.651, 4.169, -0.114, -0.141, -0.111, 0
2380698, -0.519, -0.312, 3.928, -0.019, -0.091, -0.151, 0
2380718, -0.667, -0.05, 3.6, 0.114, -0.167, -0.087, 0
2380738, -0.887, -0.144, 2.991, 0.182, -0.251, 0.005, 0
2380758, -0.896, -0.422, 2.321, 0.132, -0.236, 0.052, 0
2380778, -1.029, -0.499, 2.034, 0.129, -0.146, 0.078, 0
2380798, -0.834, -0.551, 2.074, 0.215, -0.088, 0.116, 0
2380818, -0.645, -0.539, 1.881, 0.276, 0.02, 0.147, 0
2380838, -0.389, -0.648, 1.699, 0.274, 0.174, 0.156, 1
2380858, -0.294, -0.689, 1.598, 0.167, 0.317, 0.218, 1
2380878, -0.132, -1.376, 1.676, -0.116, 0.521, 0.367, 1
2380898, -0.493, -1.572, 2.128, -0.323, 0.636, 0.368, 1
2380918, -0.45, -1.413, 3.419, -0.226, 0.392, 0.451, 1
2380938, -0.322, -1.207, 4.397, 0.101, 0.122, 0.465, 1
2380958, 0.663, -0.753, 4.509, 0.387, -0.016, 0.417, 1
2380978, 0.909, -1.219, 4.279, 0.486, -0.244, 0.257, 1
2380998, 0.176, -1.171, 3.047, 0.471, -0.326, 0.277, 1
2381018, -0.709, -1.319, 2.23, 0.284, -0.278, 0.279, 1
2381038, -1.141, -0.942, 1.796, 0.211, 0.009, 0.35, 1
2381058, 0.208, -0.731, 1.71, 0.163, 0.011, 0.296, 1
2381078, 0.311, -0.994, 0.563, 0.015, 0.056, 0.182, 1
2381098, -0.649, -1.05, 0.437, -0.105, 0.276, 0.111, 1
2381118, 0.265, -0.99, 0.623, -0.075, 0.371, 0.129, 1
2381138, 0.608, -1.234, 0.332, 0.015, -0.143, 0.193, 1
2381158, 0.339, -0.914, -0.156, 0.095, -0.631, 0.257, 1
2381178, -0.631, -0.798, -0.84, 0.313, -0.403, 0.175, 1
2381198, -0.386, -1.276, -1.063, 0.426, 0.232, 0.046, 1
2381218, -0.463, -0.019, -0.758, 0.248, 0.375, -0.049, 1
2381238, -0.721, 0.55, -0.641, 0.368, 0.396, 0.02, 1
2381258, -1.227, 0.587, -0.862, 0.424, 0.2, 0.081, 1
2381278, -1.534, 0.232, -0.964, 0.313, 0.158, 0.128, 1
2381298, -1.124, 0.162, -1.336, 0.301, 0.357, 0.182, 1
2381318, -0.711, 0.516, -1.455, 0.375, 0.397, 0.158, 1
2381338, -0.698, 0.408, -1.412, 0.285, 0.195, 0.183, 1
2381358, -1.281, 0.649, -1.03, 0.123, -0.067, 0.15, 1
2381378, -1.386, 0.877, -1.651, 0.273, 0.039, 0.259, 1
2381398, -0.994, 0.636, -2.569, 0.727, 0.524, 0.567, 1
2381418, 1.482, -0.338, -3.296, 0.947, 0.644, 0.719, 1
2381438, 1.661, -0.765, -3.756, 0.643, -0.015, 0.508, 1
2381458, 0.462, -0.486, -3.462, 0.204, -0.244, 0.326, 1
2381478, 0.426, -0.105, -2.855, 0.043, 0.036, 0.299, 1
2381498, 0.913, 0.328, -2.316, 0.156, 0.126, 0.31, 1
2381518, 1.454, 0.21, -2.158, 0.401, -0.213, 0.367, 1
2381538, 0.649, -0.486, -2.592, 0.397, -0.58, 0.262, 1
2381558, 0.187, -0.324, -2.435, 0.092, -0.324, 0.114, 1
2381578, 0.321, 0.18, -1.92, 0.131, -0.093, 0.132, 1
2381598, 0.594, 0.166, -1.627, 0.257, -0.235, 0.152, 1
2381618, 0.444, 0.047, -1.383, 0.364, -0.441, 0.174, 1
2381638, 0.266, -0.54, -1.445, 0.238, -0.468, 0.222, 1
2381658, 0.024, -0.385, -1.595, 0.188, -0.213, 0.118, 1
2381678, 0.688, 0.007, -1.571, 0.167, -0.142, 0.116, 1
2381698, 0.881, -0.071, -1.382, 0.229, -0.278, 0.049, 1
2381718, 0.869, -0.29, -1.231, 0.193, -0.483, -0.017, 1
2381738, 0.108, -0.308, -1.177, 0.186, -0.376, -0.089, 1
2381758, 0.069, -0.118, -0.909, 0.133, -0.21, -0.109, 1
2381778, 0.111, -0.048, -0.768, 0.145, -0.171, -0.127, 1
2381798, -0.077, -0.139, -1.057, 0.092, -0.191, -0.061, 1
2381818, -0.211, -0.027, -0.943, 0.08, -0.109, 0.021, 1
2381838, 0.085, -0.129, -0.662, 0.136, -0.056, 0.034, 1
2381858, 0.157, -0.387, -1.079, 0.072, -0.105, -0.131, 1
2381878, -0.217, -0.016, -1.293, -0.001, -0.158, -0.205, 1
2381898, -0.472, 0.238, -1.263, 0.042, -0.127, -0.169, 1
2381918, -0.367, 0.295, -1.166, 0.076, -0.08, -0.064, 1
2381938, 0.011, 0.142, -1.609, 0.133, -0.139, -0.174, 1
2381958, -0.345, 0.168, -2.553, 0.136, -0.179, -0.34, 1
2381978, -1.307, 0.14, -3.018, 0.017, 0.081, -0.263, 1
2381998, -1.332, 0.432, -2.916, 0.056, 0.444, -0.181, 1
2382018, -0.095, 1.548, -2.202, 0.386, 0.364, -0.021, 1
2382038, 0.646, 0.007, -3.696, -0.02, -0.03, -0.173, 0
2382058, -0.888, 0.83, -5.563, -0.313, 0.106, -0.26, 0
2382078, -1.004, 0.125, -5.72, -0.158, 0.306, -0.087, 0
2382098, -0.237, -0.589, -5.231, 0.01, 0.513, 0.092, 0
2382118, 1.486, -2.474, -6.279, -0.228, 0.488, 0.101, 0
2382138, 1.023, -2.513, -6.751, -0.967, 0.207, 0.058, 0
2382158, -0.061, -1.512, -5.441, -1.112, 0.167, 0.055, 0
2382178, 0.354, -1.707, -3.98, -0.762, 0.448, 0.322, 0
2382198, 0.395, -4.213, -4.428, -0.48, 0.553, 0.289, 0
2382218, 0.536, -4.896, -3.733, -0.957, 1.049, -0.118, 0
2382238, 1.68, -3.644, -1.279, -1.416, 1.19, -0.306, 0
2382258, 1.149, -2.933, 0.404, -1.313, 0.588, -0.398, 0
2382278, -0.037, -3.096, 0.765, -1.164, 0.138, -0.332, 0
2382298, -0.987, -2.741, 1.072, -1.202, 0.355, -0.418, 0
2382318, -0.02, -2.325, 1.431, -1.142, 0.634, -0.458, 0
2382338, 0.683, -2.305, 1.743, -1.017, 0.358, -0.436, 0
2382358, 0.62, -2.333, 1.728, -0.933, -0.163, -0.384, 0
2382378, -0.263, -2.172, 1.551, -0.976, -0.467, -0.367, 0
2382398, -0.692, -1.342, 2.126, -1.036, -0.345, -0.369, 0
2382418, -0.534, -1.175, 2.528, -0.855, -0.153, -0.285, 0
2382438, 0.296, -1.42, 2.962, -0.596, -0.144, -0.206, 0
2382458, 0.644, -1.77, 2.757, -0.535, -0.389, -0.156, 0
2382478, -0.207, -1.56, 2.201, -0.801, -0.449, -0.295, 0
2382498, -0.361, -0.68, 2.557, -1.032, -0.195, -0.317, 0
2382518, -0.261, -0.497, 3.079, -0.979, -0.172, -0.231, 0
2382538, -0.273, -0.666, 3.185, -0.79, -0.36, -0.065, 0
2382558, -0.643, -1.325, 2.773, -0.916, -0.197, -0.116, 0
2382578, -0.728, -1.359, 2.995, -1.111, 0.057, -0.183, 0
2382598, -0.666, -0.961, 3.798, -0.995, 0.04, -0.172, 0
2382618, -0.478, -0.524, 4.379, -0.603, -0.208, -0.008, 0
2382638, -0.511, -0.743, 3.961, -0.382, -0.298, 0.068, 0
2382658, -0.518, -1.521, 3.912, -0.489, -0.165, 0.001, 0
2382678, -0.93, -0.718, 3.754, -0.319, 0.08, -0.124, 0
2382698, -0.694, -0.307, 4.065, -0.102, 0.059, -0.059, 0
2382718, -0.811, -0.255, 3.863, 0.136, -0.007, 0.025, 0
2382738, -0.769, -0.499, 3.3, 0.233, -0.079, 0.1, 0
2382758, -0.575, -0.75, 2.677, 0.136, -0.027, 0.09, 0
2382778, -0.511, -0.679, 2.425, 0.001, 0.143, 0.079, 0
2382798, -0.477, -0.406, 2.636, 0.045, 0.302, 0.124, 1
2382818, -0.139, -0.398, 2.67, 0.205, 0.269, 0.177, 1
2382838, 0.304, -1.063, 2.406, 0.265, 0.104, 0.293, 1
2382858, -0.141, -0.995, 1.611, 0.108, 0.255, 0.315, 1
2382878, -0.564, -1.215, 1.394, -0.043, 0.535, 0.308, 1
2382898, -0.798, -1.436, 1.616, -0.146, 0.795, 0.37, 1
2382918, 0.376, -1.868, 2.41, -0.317, 0.601, 0.442, 1
2382938, 0.547, -1.476, 2.898, -0.339, -0.055, 0.446, 1
2382958, -0.212, -1.05, 3.246, -0.145, -0.282, 0.394, 1
2382978, -0.702, -1.105, 3.176, 0.209, 0.061, 0.311, 1
2382998, -0.608, -1.297, 2.961, 0.432, 0.532, 0.185, 1
2383018, 0.062, -1.968, 2.136, 0.092, 0.517, 0.212, 1
2383038, 0.679, -1.727, 2.237, -0.082, 0.166, 0.153, 1
2383058, 0.606, -1.766, 2.202, 0.017, -0.003, 0.156, 1
2383078, 0.411, -1.515, 1.474, 0.069, -0.02, 0.069, 1
2383098, -0.154, -1.451, 0.797, 0.138, -0.012, -0.043, 1
2383118, -0.123, -0.447, 0.785, 0.294, 0.05, 0.027, 1
2383138, -0.073, -0.143, 0.406, 0.685, 0.138, 0.109, 1
2383158, -0.414, -0.379, -0.382, 0.908, 0.054, 0.184, 1
2383178, -0.898, -0.639, -0.861, 0.826, 0.04, 0.222, 1
2383198, -0.625, -1.166, -0.543, 0.571, 0.177, 0.196, 1
2383218, 0.299, -0.52, -0.236, 0.411, 0.262, 0.096, 1
2383238, 0.069, 0.117, -0.275, 0.63, 0.163, 0.172, 1
2383258, -0.328, 0.5, -0.803, 1.034, -0.093, 0.222, 1
2383278, -0.623, -0.339, -1.939, 1.216, -0.221, 0.226, 1
2383298, -0.635, -1.066, -3.326, 0.932, -0.053, 0.152, 1
2383318, -0.275, -0.408, -3.154, 0.465, 0.066, 0.082, 1
2383338, -0.227, 0.321, -2.068, 0.267, 0.08, 0.079, 1
2383358, 0.286, 0.569, -1.196, 0.445, -0.019, 0.069, 1
2383378, 0.506, 0.218, -1.483, 0.766, -0.141, 0.038, 1
2383398, 0.471, 0.04, -2.839, 0.852, -0.292, -0.07, 1
2383418, -0.04, 0.021, -3.683, 0.554, -0.53, 0.004, 1
2383438, -0.544, 0.506, -3.655, 0.287, -0.409, 0.06, 1
2383458, -0.037, 0.946, -3.009, 0.396, -0.222, 0.158, 1
2383478, 0.27, 0.42, -2.936, 0.566, -0.262, 0.276, 1
2383498, 0.412, -0.149, -2.429, 0.524, -0.284, 0.254, 1
2383518, 0.168, -0.755, -2.178, 0.121, -0.254, 0.054, 1
2383538, 0.0, -0.198, -1.833, -0.029, -0.202, -0.043, 1
2383558, -0.172, 0.441, -1.538, 0.136, -0.118, 0.097, 1
2383578, -0.062, 0.259, -1.553, 0.279, -0.054, 0.224, 1
2383598, 0.46, -0.407, -1.557, 0.208, -0.124, 0.23, 1
2383618, 0.157, -0.741, -1.397, -0.011, -0.136, 0.159, 1
2383638, -0.002, -0.767, -0.803, -0.136, -0.111, 0.093, 1
2383658, 0.118, -0.048, -0.155, 0.063, -0.141, 0.156, 1
2383678, 0.07, -0.037, -0.326, 0.315, -0.22, 0.249, 1
2383698, -0.036, -0.36, -0.829, 0.252, -0.268, 0.287, 1
2383718, -0.354, -0.48, -1.02, 0.047, -0.114, 0.252, 1
2383738, 0.027, -0.13, -0.704, -0.025, -0.04, 0.227, 1
2383758, 0.131, -0.006, -0.551, 0.01, -0.081, 0.213, 1
2383778, 0.182, -0.056, -0.505, 0.066, -0.131, 0.231, 1
2383798, 0.374, -0.181, -0.555, 0.117, -0.111, 0.214, 1
2383818, 0.576, -0.209, -0.969, 0.188, -0.15, 0.135, 1
2383838, 0.33, -0.1, -1.75, 0.164, -0.273, 0.109, 1
2383858, -0.278, 0.04, -2.11, 0.052, -0.276, 0.196, 1
2383878, -0.19, 0.052, -1.924, 0.09, -0.073, 0.218, 1
2383898, 0.09, -0.365, -2.137, 0.081, 0.033, 0.194, 1
2383918, 0.299, -0.346, -2.266, 0.02, -0.011, 0.05, 1
2383938, 0.027, -0.406, -2.49, -0.127, -0.081, -0.014, 1
2383958, -0.384, -0.203, -2.23, -0.215, 0.0, 0.0, 1
2383978, -0.198, -0.232, -2.082, -0.128, 0.109, -0.09, 1
2383998, -0.107, -0.268, -2.081, 0.071, 0.306, -0.166, 1
2384018, 0.472, 0.142, -2.06, 0.345, 0.331, -0.098, 1
2384038, 0.099, -0.419, -2.476, 0.576, 0.339, 0.226, 1
2384058, 1.049, -1.074, -3.492, 0.787, 0.373, 0.209, 0
2384078, 1.545, -1.728, -4.566, 0.632, 0.345, 0.151, 0
2384098, 1.619, -1.304, -4.743, 0.417, 0.126, -0.108, 0
2384118, 0.501, -1.124, -4.935, 0.326, -0.08, -0.219, 0
2384138, -0.936, -1.525, -5.155, 0.081, 0.143, -0.136, 0
2384158, -0.438, -0.882, -4.412, -0.128, 0.565, -0.147, 0
2384178, -0.231, -0.495, -4.629, -0.109, 0.69, -0.091, 0
2384198, -0.302, -0.802, -4.516, -0.056, 0.524, -0.04, 0
2384218, -0.458, -1.201, -3.955, -0.169, 0.322, -0.037, 0
2384238, -0.688, -2.495, -4.61, -0.641, 0.392, -0.215, 0
2384258, -0.387, -1.894, -3.372, -1.4, 0.731, -0.443, 0
2384278, 0.212, -1.355, -1.637, -1.724, 0.653, -0.476, 0
2384298, 0.344, -1.351, -0.408, -1.816, 0.247, -0.412, 0
2384318, 0.255, -1.658, 0.497, -1.811, -0.107, -0.282, 0
2384338, 0.041, -1.773, 1.001, -1.753, -0.349, -0.164, 0
2384358, 0.01, -1.626, 1.752, -1.68, -0.394, -0.089, 0
2384378, 0.552, -2.174, 2.15, -1.541, -0.398, -0.039, 0
2384398, 0.212, -2.009, 2.515, -1.426, -0.46, -0.05, 0
2384418, 0.133, -1.555, 2.963, -1.329, -0.458, 0.117, 0
2384438, 0.237, -1.571, 3.125, -1.226, -0.571, 0.194, 0
2384458, -0.06, -1.437, 2.934, -1.232, -0.63, 0.202, 0
2384478, 0.223, -1.534, 3.02, -1.092, -0.443, 0.2, 0
2384498, 0.316, -1.348, 2.966, -0.974, -0.411, 0.184, 0
2384518, 0.322, -1.322, 2.804, -0.894, -0.378, 0.181, 0
2384538, 0.0, -1.241, 2.435, -0.891, -0.276, 0.082, 0
2384558, -0.583, -0.934, 2.35, -0.853, -0.04, 0.091, 0
2384578, -0.634, -0.836, 2.388, -0.876, 0.141, 0.073, 0
2384598, -0.601, -0.734, 2.795, -0.847, 0.258, 0.071, 0
2384618, -0.341, -0.723, 3.313, -0.764, 0.221, 0.108, 0
2384638, -0.282, -0.658, 3.625, -0.671, 0.218, 0.126, 0
2384658, -0.255, -0.674, 3.637, -0.674, 0.278, 0.081, 0
2384678, -0.287, -0.48, 3.843, -0.629, 0.326, 0.037, 0
2384698, -0.075, -0.197, 4.269, -0.42, 0.197, 0.061, 0
2384718, 0.124, -0.088, 4.396, -0.138, -0.041, 0.105, 0
2384738, -0.21, -0.115, 3.914, 0.078, -0.14, 0.136, 0
2384758, -0.405, -0.396, 2.888, 0.078, -0.04, 0.07, 0
2384778, -0.545, -0.39, 2.659, 0.041, 0.095, 0.019, 0
2384798, -0.319, -0.387, 2.644, 0.141, -0.009, 0.068, 0
2384818, -0.292, -0.239, 2.489, 0.305, -0.111, 0.146, 0
2384838, -0.208, -0.31, 2.317, 0.39, -0.113, 0.16, 0
2384858, -0.272, -0.503, 2.032, 0.372, 0.004, 0.153, 1
2384878, -0.222, -0.568, 1.862, 0.319, 0.164, 0.163, 1
2384898, -0.124, -0.642, 2.184, 0.263, 0.249, 0.249, 1
2384918, -0.238, -0.943, 1.524, 0.015, 0.496, 0.317, 1
2384938, -0.639, -0.889, 1.79, -0.025, 0.708, 0.309, 1
2384958, -0.333, -0.946, 2.387, 0.043, 0.711, 0.381, 1
2384978, 0.432, -1.041, 2.598, 0.042, 0.295, 0.298, 1
2384998, 0.854, -1.382, 2.445, -0.026, -0.18, 0.198, 1
2385018, -0.146, -1.611, 2.095, 0.013, -0.485, 0.1, 1
2385038, -1.264, -1.34, 1.796, 0.144, -0.333, 0.02, 1
2385058, -0.384, -1.23, 1.918, 0.255, 0.108, 0.1, 1
2385078, 1.209, -1.247, 2.023, 0.231, 0.256, 0.084, 1
2385098, 0.868, -0.993, 1.388, 0.138, -0.059, -0.035, 1
2385118, -0.046, -0.899, 0.925, 0.128, -0.342, -0.023, 1
2385138, -0.762, -1.021, 0.619, 0.058, -0.313, 0.003, 1
2385158, -0.869, -0.44, 0.431, -0.007, 0.102, -0.053, 1
2385178, 0.141, -0.326, 0.276, 0.214, 0.467, 0.004, 1
2385198, 1.043, -0.64, -0.065, 0.378, 0.325, 0.02, 1
2385218, 0.903, -1.29, -0.571, 0.248, -0.134, -0.042, 1
2385238, -0.641, -0.724, -1.032, -0.052, -0.472, -0.229, 1
2385258, -1.462, -0.116, -1.361, -0.017, -0.265, -0.213, 1
2385278, -0.086, 0.109, -1.494, 0.229, 0.181, -0.125, 1
2385298, 0.948, -0.5, -1.97, 0.251, 0.116, -0.11, 1
2385318, 0.352, -0.033, -2.493, 0.09, -0.309, -0.312, 1
2385338, -0.799, 0.4, -2.743, -0.083, -0.499, -0.318, 1
2385358, -1.607, 0.96, -2.247, -0.047, -0.075, -0.213, 1
2385378, -0.445, 0.607, -1.547, 0.248, 0.639, 0.062, 1
2385398, 1.63, -0.26, -1.254, 0.572, 0.889, 0.13, 1
2385418, 1.874, -0.426, -1.573, 0.632, 0.34, -0.047, 1
2385438, 0.588, 0.478, -1.954, 0.564, -0.282, -0.276, 1
2385458, -1.056, 1.153, -2.441, 0.471, -0.309, -0.312, 1
2385478, -1.508, 1.238, -2.509, 0.321, 0.279, -0.103, 1
2385498, -0.785, 1.222, -2.022, 0.285, 0.414, 0.042, 1
2385518, -0.2, 1.183, -1.328, 0.416, 0.231, 0.171, 1
2385538, -0.033, 0.75, -1.001, 0.562, -0.054, 0.156, 1
2385558, -0.736, 0.426, -1.299, 0.604, -0.043, 0.259, 1
2385578, -0.96, -0.529, -1.526, 0.356, 0.252, 0.32, 1
2385598, 0.191, -0.839, -0.948, 0.105, 0.271, 0.145, 1
2385618, 0.779, 0.045, -0.309, 0.222, -0.093, -0.047, 1
2385638, 0.113, 0.201, -0.547, 0.449, -0.353, -0.037, 1
2385658, -0.744, -0.327, -1.316, 0.418, -0.26, 0.006, 1
2385678, -0.604, -0.592, -1.372, 0.163, -0.14, 0.045, 1
2385698, -0.187, 0.025, -0.903, 0.087, -0.208, 0.045, 1
2385718, -0.285, 0.286, -0.621, 0.253, -0.285, 0.042, 1
2385738, -0.443, -0.265, -0.741, 0.344, -0.189, 0.109, 1
2385758, -0.072, -0.613, -1.095, 0.29, -0.085, 0.085, 1
2385778, 0.382, -0.858, -1.074, 0.076, -0.165, -0.017, 1
2385798, 0.133, 0.148, -0.832, 0.14, -0.302, -0.029, 1
2385818, -0.55, 0.375, -1.027, 0.318, -0.269, 0.169, 1
2385838, -0.356, -0.029, -1.278, 0.403, -0.076, 0.271, 1
2385858, 0.399, -0.453, -1.498, 0.309, -0.059, 0.234, 1
2385878, 0.631, -0.619, -1.469, 0.105, -0.127, 0.142, 1
2385898, 0.561, -0.266, -1.394, 0.023, -0.171, 0.083, 1
2385918, 0.399, -0.201, -1.553, 0.029, -0.197, 0.07, 1
2385938, 0.155, -0.172, -1.783, -0.006, -0.155, 0.02, 1
2385958, -0.022, -0.176, -1.823, -0.114, -0.018, 0.02, 1
2385978, -0.03, -0.211, -1.806, -0.148, 0.078, 0.064, 1
2385998, 0.129, -0.198, -1.725, -0.108, 0.047, 0.038, 1
2386018, 0.174, -0.179, -1.978, -0.021, -0.028, -0.097, 1
2386038, -0.391, -0.031, -2.405, 0.028, -0.029, -0.141, 1
2386058, -0.079, 0.246, -2.55, 0.29, 0.085, -0.28, 1
2386078, 0.822, 0.543, -2.271, 0.826, 0.054, -0.343, 1
2386098, 0.959, -0.74, -2.812, 1.314, -0.217, -0.067, 1
2386118, 0.608, -1.218, -3.799, 1.105, -0.378, 0.277, 1
2386138, 0.239, -1.482, -4.494, 0.922, -0.425, 0.229, 0
2386158, -0.103, -1.36, -4.561, 0.781, -0.084, -0.143, 0
2386178, -0.094, -2.183, -4.185, 0.591, 0.188, -0.274, 0
2386198, -0.113, -1.944, -4.053, 0.094, 0.235, -0.175, 0
2386218, -0.43, -2.156, -4.039, -0.428, 0.213, -0.164, 0
2386238, -0.122, -1.383, -3.284, -0.782, 0.266, -0.178, 0
2386258, -0.048, -0.911, -2.745, -0.8, 0.275, -0.164, 0
2386278, 0.089, -1.098, -2.527, -0.707, 0.152, -0.074, 0
2386298, 0.063, -2.192, -2.763, -0.825, 0.08, -0.066, 0
2386318, 0.186, -1.946, -2.27, -1.194, 0.098, -0.202, 0
2386338, -0.514, -0.956, -1.059, -1.368, 0.073, -0.299, 0
2386358, -0.99, -0.501, -0.07, -1.185, 0.186, -0.182, 0
2386378, -0.637, -0.595, 0.476, -0.853, 0.386, -0.087, 0
2386398, 0.097, -1.4, 0.0, -0.737, 0.615, -0.245, 0
2386418, 0.058, -1.226, 0.102, -0.932, 0.724, -0.426, 0
2386438, 0.725, -0.771, 0.879, -1.069, 0.22, -0.271, 0
2386458, 0.651, -0.801, 1.218, -1.121, -0.17, -0.141, 0
2386478, 0.356, -0.912, 1.225, -1.268, -0.277, -0.06, 0
2386498, 0.057, -0.873, 1.112, -1.44, -0.145, -0.07, 0
2386518, -0.178, -0.16, 1.685, -1.34, 0.098, -0.049, 0
2386538, 0.084, -0.023, 2.091, -1.039, 0.197, 0.009, 0
2386558, 0.378, -0.713, 1.869, -0.853, 0.076, 0.04, 0
2386578, 0.62, -1.509, 1.511, -0.994, -0.031, -0.017, 0
2386598, 0.216, -1.366, 1.692, -1.152, -0.111, 0.012, 0
2386618, 0.017, -0.924, 2.071, -1.197, -0.252, 0.11, 0
2386638, 0.058, -0.575, 2.652, -1.12, -0.457, 0.226, 0
2386658, -0.083, -0.547, 3.02, -1.009, -0.514, 0.258, 0
2386678, -0.191, -0.581, 3.025, -0.959, -0.327, 0.114, 0
2386698, -0.497, -0.369, 3.275, -0.868, -0.089, 0.026, 0
2386718, -0.304, -0.142, 3.819, -0.645, 0.003, 0.003, 0
2386738, -0.033, -0.2, 4.159, -0.406, -0.08, 0.057, 0
2386758, 0.231, -0.459, 3.742, -0.293, -0.229, 0.024, 0
2386778, -0.237, -0.644, 3.342, -0.328, -0.171, -0.038, 0
2386798, -0.318, -0.477, 3.19, -0.326, -0.048, -0.07, 0
2386818, -0.405, -0.162, 3.164, -0.192, -0.057, -0.087, 0
2386838, -0.525, -0.094, 2.989, 0.0, -0.082, -0.025, 0
2386858, -0.649, -0.27, 2.547, 0.054, 0.004, -0.018, 0
2386878, -0.514, -0.359, 2.46, 0.05, 0.049, -0.018, 0
2386898, -0.393, -0.309, 2.34, 0.066, 0.094, -0.006, 0
2386918, -0.24, -0.149, 2.402, 0.171, 0.1, 0.01, 0
2386938, -0.243, -0.13, 1.973, 0.348, 0.114, 0.065, 0
2386958, -0.214, -0.268, 1.636, 0.371, 0.097, 0.095, 1
2386978, -0.497, -0.451, 1.226, 0.36, 0.145, 0.16, 1
2386998, -0.736, -0.671, 0.702, 0.216, 0.365, 0.288, 1
2387018, -0.757, -0.862, 0.944, -0.032, 0.769, 0.334, 1
2387038, -0.585, -0.884, 1.336, -0.161, 0.971, 0.364, 1
2387058, -0.021, -0.911, 1.702, -0.166, 0.921, 0.448, 1
2387078, 0.672, -0.703, 1.987, -0.215, 0.664, 0.557, 1
2387098, 0.553, -1.466, 2.54, -0.232, 0.196, 0.41, 1
2387118, -0.336, -1.082, 2.544, -0.281, -0.005, 0.467, 1
2387138, -0.815, -0.604, 2.386, -0.012, 0.144, 0.377, 1
2387158, -0.386, -0.701, 2.052, 0.395, 0.572, 0.332, 1
2387178, 0.985, -1.383, 1.943, 0.436, 0.837, 0.365, 1
2387198, 1.972, -1.42, 2.605, 0.061, 0.707, 0.381, 1
2387218, 2.161, -0.715, 3.325, -0.245, 0.306, 0.321, 1
2387238, 0.792, 0.071, 2.834, 0.043, -0.102, 0.188, 1
2387258, -0.236, -0.369, 1.596, 0.615, -0.24, 0.277, 1
2387278, -0.226, -0.96, 0.48, 0.766, -0.034, 0.422, 1
2387298, 0.355, -1.351, 0.35, 0.403, 0.191, 0.373, 1
2387318, -0.208, -0.279, 0.281, 0.089, 0.262, 0.139, 1
2387338, -1.329, 0.628, -0.308, 0.368, 0.178, 0.065, 1
2387358, -0.9, -0.138, -0.836, 0.702, 0.173, 0.384, 1
2387378, 0.028, -0.712, -1.074, 0.543, 0.175, 0.456, 1
2387398, 0.133, -0.343, -1.271, 0.241, 0.097, 0.301, 1
2387418, -0.203, 0.268, -1.547, 0.34, -0.239, 0.149, 1
2387438, -0.619, 0.233, -2.127, 0.583, -0.298, 0.296, 1
2387458, -0.661, -0.702, -2.58, 0.402, -0.094, 0.348, 1
2387478, 0.015, -1.016, -2.218, 0.072, -0.007, 0.323, 1
2387498, -0.227, -0.147, -1.944, 0.217, -0.075, 0.29, 1
2387518, -0.204, 0.406, -1.813, 0.653, -0.09, 0.489, 1
2387538, 0.407, -0.354, -1.775, 0.83, -0.064, 0.568, 1
2387558, 1.471, -1.092, -1.96, 0.534, -0.229, 0.365, 1
2387578, 1.149, -0.719, -1.897, 0.128, -0.431, 0.101, 1
2387598, 0.092, 0.299, -1.48, 0.099, -0.248, 0.062, 1
2387618, 0.02, 0.487, -0.823, 0.417, 0.043, 0.18, 1
2387638, 1.151, 0.35, -1.211, 0.624, -0.214, 0.218, 1
2387658, 1.184, 0.099, -1.977, 0.486, -0.794, 0.13, 1
2387678, -0.528, 0.22, -2.43, 0.25, -0.668, 0.138, 1
2387698, -1.114, 0.459, -2.427, 0.287, 0.015, 0.237, 1
2387718, -0.211, -0.139, -2.119, 0.31, 0.308, 0.341, 1
2387738, 0.848, -0.434, -1.909, 0.252, -0.04, 0.276, 1
2387758, 0.494, -0.381, -1.576, 0.141, -0.398, 0.221, 1
2387778, -0.473, 0.003, -1.335, 0.202, -0.215, 0.197, 1
2387798, -0.152, -0.142, -1.27, 0.254, 0.012, 0.245, 1
2387818, 0.272, -0.345, -1.493, 0.196, -0.101, 0.221, 1
2387838, 0.328, 0.006, -1.565, 0.185, -0.345, 0.231, 1
2387858, 0.298, -0.128, -1.628, 0.155, -0.477, 0.186, 1
2387878, 0.035, -0.109, -1.452, 0.114, -0.362, 0.171, 1
2387898, 0.081, -0.156, -1.243, 0.116, -0.164, 0.124, 1
2387918, 0.735, -0.253, -0.997, 0.138, -0.064, 0.075, 1
2387938, 0.73, -0.674, -1.02, 0.109, -0.188, -0.002, 1
2387958, 0.18, -0.372, -1.109, -0.045, -0.178, 0.05, 1
2387978, 0.136, -0.219, -0.851, -0.059, -0.054, 0.071, 1
2387998, 0.452, -0.192, -0.645, 0.062, 0.003, 0.022, 1
2388018, 0.589, -0.654, -0.802, 0.173, -0.087, -0.07, 1
2388038, 0.211, -0.446, -0.872, 0.154, -0.155, -0.108, 1
2388058, -0.134, -0.731, -1.45, 0.166, -0.044, -0.208, 1
2388078, -0.252, -0.257, -1.459, 0.094, 0.104, -0.299, 1
2388098, 0.065, 0.159, -1.458, 0.31, 0.111, -0.444, 1
2388118, 0.112, 0.225, -1.809, 0.577, -0.059, -0.295, 1
2388138, 0.051, -0.617, -3.269, 0.547, -0.172, -0.086, 0
2388158, 0.116, -0.596, -4.241, 0.153, -0.057, -0.273, 0
2388178, -0.409, 0.114, -4.355, -0.136, -0.048, -0.287, 0
2388198, -0.303, 0.583, -4.215, -0.091, -0.197, -0.139, 0
2388218, -0.067, -0.595, -4.692, 0.026, -0.25, -0.036, 0
2388238, -0.047, -1.38, -4.935, -0.125, 0.017, -0.141, 0
2388258, 0.179, -1.314, -4.996, -0.329, 0.295, -0.173, 0
2388278, 0.288, -1.612, -5.258, -0.538, 0.329, -0.143, 0
2388298, 0.013, -1.022, -4.479, -0.56, 0.163, -0.186, 0
2388318, -0.413, -1.817, -4.197, -0.483, 0.117, -0.169, 0
2388338, -0.839, -1.582, -3.496, -0.654, 0.34, -0.234, 0
2388358, -0.32, -1.503, -2.882, -0.607, 0.444, -0.175, 0
2388378, 0.29, -2.212, -2.627, -0.501, 0.277, -0.095, 0
2388398, 0.337, -2.757, -2.291, -0.803, 0.092, -0.23, 0
2388418, -0.453, -2.676, -1.64, -1.194, 0.26, -0.418, 0
2388438, -0.29, -1.962, -0.45, -1.282, 0.237, -0.361, 0
2388458, -0.289, -1.281, 0.565, -1.052, 0.145, -0.264, 0
2388478, -0.054, -1.07, 0.907, -0.863, 0.122, -0.182, 0
2388498, 0.063, -0.935, 0.836, -0.897, 0.075, -0.148, 0
2388518, 0.338, -0.951, 0.759, -1.125, -0.043, -0.224, 0
2388538, -0.025, -1.048, 0.922, -1.331, -0.159, -0.169, 0
2388558, 0.233, -0.897, 1.494, -1.295, -0.362, -0.049, 0
2388578, 0.434, -0.83, 2.014, -1.139, -0.499, 0.053, 0
2388598, 0.184, -1.506, 1.903, -1.281, -0.348, -0.015, 0
2388618, -0.372, -1.482, 1.686, -1.301, 0.164, -0.252, 0
2388638, 0.039, -1.034, 2.294, -1.328, 0.331, -0.244, 0
2388658, 0.243, -1.118, 2.725, -1.266, 0.069, -0.128, 0
2388678, 0.169, -1.209, 2.815, -1.231, -0.226, -0.014, 0
2388698, 0.113, -1.326, 2.991, -1.282, -0.295, 0.027, 0
2388718, -0.232, -1.261, 3.398, -1.318, -0.131, -0.048, 0
2388738, -0.359, -0.826, 4.078, -1.184, 0.034, -0.091, 0
2388758, -0.183, -0.658, 4.329, -0.924, 0.094, -0.114, 0
2388778, -0.036, -0.495, 4.483, -0.664, 0.116, -0.125, 0
2388798, -0.208, -0.537, 4.213, -0.527, 0.128, -0.183, 0
2388818, -0.415, -0.504, 3.964, -0.469, 0.142, -0.228, 0
2388838, -0.644, -0.265, 3.987, -0.363, 0.073, -0.227, 0
2388858, -0.78, 0.179, 4.039, -0.125, -0.028, -0.133, 0
2388878, -0.983, 0.142, 3.657, 0.017, -0.035, -0.021, 0
2388898, -0.629, 0.088, 3.272, 0.023, 0.011, -0.025, 0
2388918, -0.852, 0.139, 2.982, 0.119, 0.025, -0.005, 0
2388938, -0.939, 0.098, 2.641, 0.257, 0.083, 0.014, 0
2388958, -0.981, -0.223, 2.186, 0.365, 0.088, 0.066, 0
2388978, -0.845, -0.326, 2.017, 0.372, 0.181, 0.122, 0
2388998, -0.735, -0.466, 1.948, 0.37, 0.298, 0.174, 1
2389018, -0.683, -0.801, 1.684, 0.265, 0.413, 0.29, 1
2389038, -0.859, -1.053, 2.097, -0.082, 0.753, 0.428, 1
2389058, -0.22, -1.08, 2.697, -0.186, 0.838, 0.53, 1
2389078, 0.536, -1.11, 2.946, -0.144, 0.482, 0.636, 1
2389098, -0.099, -1.141, 2.807, -0.034, 0.02, 0.606, 1
2389118, -0.566, -0.918, 2.744, 0.077, 0.145, 0.532, 1
2389138, -0.222, -1.361, 2.924, 0.169, 0.478, 0.41, 1
2389158, 0.534, -1.105, 2.833, 0.202, 0.572, 0.376, 1
2389178, 0.51, -1.359, 2.49, 0.321, 0.259, 0.339, 1
2389198, 0.214, -1.742, 2.203, 0.363, -0.084, 0.373, 1
2389218, -0.308, -1.997, 2.067, 0.284, -0.186, 0.34, 1
2389238, -0.639, -1.251, 1.847, 0.213, 0.014, 0.31, 1
2389258, -0.033, -0.129, 1.659, 0.394, 0.198, 0.356, 1
2389278, 0.762, 0.206, 1.161, 0.706, 0.084, 0.412, 1
2389298, 0.328, -0.3, -0.287, 0.945, -0.359, 0.475, 1
2389318, -0.815, -0.765, -1.568, 0.992, -0.492, 0.369, 1
2389338, -1.502, -1.197, -1.938, 0.756, -0.041, 0.276, 1
2389358, -0.59, -0.67, -1.222, 0.394, 0.53, 0.265, 1
2389378, 0.155, 0.059, -0.204, 0.373, 0.481, 0.275, 1
2389398, 0.428, 0.021, -0.72, 0.638, -0.106, 0.162, 1
2389418, -0.479, -0.831, -2.314, 0.618, -0.378, 0.131, 1
2389438, -1.236, -1.531, -3.654, 0.142, 0.034, 0.023, 1
2389458, -0.109, -1.149, -3.037, -0.307, 0.263, -0.206, 1
2389478, -0.112, -0.074, -1.941, -0.234, 0.254, -0.239, 1
2389498, -0.699, 1.16, -0.917, 0.372, 0.119, -0.015, 1
2389518, -0.956, 1.182, -1.447, 0.902, 0.015, 0.216, 1
2389538, -0.728, 0.201, -2.894, 0.88, 0.095, 0.303, 1
2389558, 0.229, -0.214, -3.507, 0.583, 0.096, 0.227, 1
2389578, 0.732, 0.137, -3.308, 0.464, -0.04, 0.169, 1
2389598, 0.782, 0.232, -2.636, 0.479, -0.188, 0.124, 1
2389618, 0.513, 0.448, -2.208, 0.485, -0.346, 0.086, 1
2389638, -0.263, 0.488, -2.095, 0.379, -0.37, 0.072, 1
2389658, -0.488, 0.78, -1.515, 0.289, -0.203, 0.066, 1
2389678, -0.438, 0.775, -1.207, 0.332, 0.036, 0.149, 1
2389698, 0.529, 0.262, -1.184, 0.373, -0.102, 0.219, 1
2389718, 0.666, -0.015, -1.201, 0.369, -0.431, 0.154, 1
2389738, -0.019, -0.17, -1.468, 0.301, -0.442, 0.084, 1
2389758, -0.378, -0.154, -1.356, 0.26, -0.18, 0.094, 1
2389778, 0.1, -0.312, -1.317, 0.14, -0.105, 0.115, 1
2389798, 0.658, -0.518, -0.967, -0.08, -0.415, 0.013, 1
2389818, -0.34, -0.181, -1.099, -0.121, -0.384, -0.026, 1
2389838, -0.566, -0.196, -1.198, -0.08, -0.094, 0.103, 1
2389858, 0.265, -0.439, -0.895, -0.034, -0.028, 0.174, 1
2389878, 0.195, -0.34, -0.664, 0.038, -0.091, 0.191, 1
2389898, 0.023, -0.884, -1.151, 0.125, -0.048, 0.186, 1
2389918, 0.553, -0.799, -1.344, 0.077, 0.006, 0.026, 1
2389938, 0.39, -0.372, -1.297, 0.05, -0.122, -0.039, 1
2389958, -0.046, -0.273, -1.39, 0.024, -0.177, 0.037, 1
2389978, 0.041, -0.278, -1.342, 0.013, -0.079, 0.111, 1
2389998, 0.443, -0.455, -1.501, 0.022, 0.023, 0.136, 1
2390018, 0.602, -0.33, -1.519, 0.053, 0.04, -0.028, 1
2390038, 0.207, -0.064, -1.328, 0.113, -0.051, -0.186, 1
2390058, -0.162, -0.1, -1.532, 0.249, -0.095, -0.272, 1
2390078, -0.46, -0.384, -1.816, 0.081, 0.031, -0.122, 1
2390098, -0.191, -0.159, -1.777, 0.02, 0.118, -0.307, 1
2390118, 0.411, 0.316, -1.678, 0.186, 0.129, -0.53, 1
2390138, 0.308, -0.015, -2.559, 0.286, -0.053, -0.325, 0
2390158, -0.064, -0.458, -3.655, 0.234, -0.014, -0.164, 0
2390178, 0.21, -0.537, -4.562, 0.124, 0.185, -0.091, 0
2390198, 0.417, -0.525, -5.296, -0.09, 0.255, -0.054, 0
2390218, 0.502, 0.251, -4.149, 0.048, 0.054, -0.164, 0
2390238, 0.982, -0.526, -4.227, 0.593, -0.342, 0.014, 0
2390258, 0.905, -1.777, -5.326, 0.851, -0.632, 0.355, 0
2390278, 0.318, -3.115, -6.217, 0.701, -0.651, 0.328, 0
2390298, -0.289, -2.642, -5.281, 0.065, -0.252, -0.01, 0
2390318, -0.417, -1.566, -3.615, -0.204, -0.017, -0.154, 0
2390338, -1.019, -1.104, -2.504, -0.15, 0.029, 0.177, 0
2390358, -1.091, -1.368, -2.028, 0.062, 0.26, 0.299, 0
2390378, -0.545, -2.293, -2.575, -0.284, 0.624, -0.136, 0
2390398, -0.931, -2.828, -2.32, -0.929, 1.011, -0.554, 0
2390418, -0.459, -1.733, -0.821, -1.246, 0.87, -0.477, 0
2390438, 0.084, -1.886, -0.723, -1.52, 0.352, -0.305, 0
2390458, 0.315, -2.636, -0.97, -1.957, -0.186, -0.136, 0
2390478, 0.461, -2.019, -0.189, -2.132, -0.499, -0.126, 0
2390498, 0.278, -1.78, 0.921, -2.116, -0.485, -0.048, 0
2390518, 0.313, -1.503, 1.769, -1.862, -0.287, -0.023, 0
2390538, 0.354, -1.533, 2.153, -1.567, -0.139, -0.084, 0
2390558, -0.063, -1.648, 1.97, -1.422, 0.158, -0.115, 0
2390578, 0.784, -1.698, 2.279, -1.316, 0.216, -0.16, 0
2390598, 1.085, -1.969, 2.528, -1.321, -0.011, -0.163, 1
2390618, 0.66, -1.798, 2.656, -1.403, -0.121, -0.196, 1
2390638, -0.047, -1.549, 2.908, -1.508, -0.039, -0.206, 1
2390658, -0.243, -0.997, 3.567, -1.47, 0.03, -0.202, 1
2390678, -0.392, -0.674, 4.175, -1.282, 0.105, -0.2, 1
2390698, -0.252, -0.787, 4.475, -0.997, 0.09, -0.145, 1
2390718, -0.197, -0.933, 4.526, -0.766, 0.009, -0.141, 1
2390738, -0.196, -1.172, 4.396, -0.668, 0.003, -0.182, 1
2390758, -0.342, -0.814, 4.549, -0.609, 0.05, -0.244, 1
2390778, -0.094, -0.337, 4.951, -0.437, 0.001, -0.22, 1
2390798, -0.214, -0.185, 4.933, -0.206, -0.186, -0.18, 1
2390818, -0.575, -0.081, 4.366, -0.037, -0.288, -0.139, 1
2390838, -0.775, -0.043, 3.418, 0.018, -0.053, -0.204, 1
2390858, -0.406, -0.271, 2.772, 0.034, -0.036, -0.142, 1
2390878, -0.22, -0.442, 2.478, 0.062, -0.279, -0.033, 1
2390898, -0.482, -0.369, 1.954, 0.132, -0.497, 0.053, 1
2390918, -1.085, -0.173, 1.312, 0.219, -0.452, 0.072, 1
2390938, -1.251, -0.148, 1.132, 0.338, -0.211, -0.017, 1
2390958, -1.428, -0.217, 1.1, 0.386, 0.117, -0.061, 1
2390978, -0.988, -0.367, 1.378, 0.315, 0.461, -0.028, 1
2390998, -0.466, -0.356, 1.848, 0.194, 0.637, 0.007, 1
2391018, -0.405, -0.575, 1.582, 0.036, 0.657, 0.191, 1
2391038, -0.611, -0.862, 1.606, -0.337, 0.781, 0.406, 1
2391058, -0.317, -0.872, 2.749, -0.55, 0.861, 0.451, 1
2391078, 0.365, -0.952, 3.51, -0.42, 0.622, 0.483, 1
2391098, 0.745, -0.969, 3.35, -0.192, 0.206, 0.508, 1
2391118, 0.77, -1.054, 3.218, -0.023, 0.095, 0.391, 1
2391138, -0.02, -1.033, 2.925, 0.073, 0.326, 0.191, 1
2391158, -0.319, -1.331, 2.849, 0.24, 0.604, 0.103, 1
2391178, 0.21, -1.523, 3.154, 0.379, 0.509, 0.182, 1
2391198, 0.34, -0.623, 3.32, 0.541, 0.186, 0.276, 1
2391218, -0.46, -0.308, 2.65, 0.992, 0.116, 0.345, 1
2391238, -0.644, -0.615, 1.643, 1.262, 0.22, 0.405, 1
2391258, -0.071, -0.973, 1.199, 1.007, 0.397, 0.399, 1
2391278, -0.087, -0.468, 1.106, 0.571, 0.185, 0.307, 1
2391298, -0.9, 0.42, 0.73, 0.574, -0.101, 0.298, 1
2391318, -1.081, 0.036, 0.217, 1.048, -0.193, 0.45, 1
2391338, -0.871, -0.903, -0.515, 0.941, -0.097, 0.425, 1
2391358, -0.745, -1.157, -1.582, 0.502, -0.119, 0.299, 1
2391378, -1.178, -0.548, -1.974, 0.238, -0.202, 0.302, 1
2391398, -0.912, 0.007, -1.837, 0.359, -0.189, 0.361, 1
2391418, -0.236, -0.822, -2.067, 0.464, -0.189, 0.3, 1
2391438, -0.287, -1.017, -2.57, 0.408, -0.325, 0.301, 1
2391458, -0.796, -0.721, -2.757, 0.323, -0.202, 0.348, 1
2391478, -0.368, -0.676, -2.849, 0.42, 0.152, 0.431, 1
2391498, 0.595, -0.623, -2.801, 0.518, 0.205, 0.401, 1
2391518, 1.293, -0.736, -2.65, 0.489, -0.069, 0.32, 1
2391538, 0.958, -0.908, -2.707, 0.264, -0.276, 0.18, 1
2391558, 0.399, -0.433, -2.729, 0.215, -0.117, 0.095, 1
2391578, 0.3, -0.056, -2.572, 0.324, 0.031, 0.117, 1
2391598, 0.369, 0.029, -2.536, 0.433, -0.012, 0.188, 1
2391618, 0.404, -0.123, -2.099, 0.337, -0.125, 0.179, 1
2391638, 0.192, -0.217, -1.624, 0.268, -0.027, 0.12, 1
2391658, 0.048, -0.029, -1.358, 0.323, 0.025, 0.098, 1
2391678, 0.059, 0.293, -1.399, 0.496, -0.1, 0.128, 1
2391698, 0.066, -0.167, -1.66, 0.494, -0.264, 0.154, 1
2391718, -0.09, -0.293, -1.838, 0.323, -0.326, 0.083, 1
2391738, -0.332, -0.106, -1.883, 0.21, -0.149, 0.117, 1
2391758, -0.32, 0.079, -1.568, 0.275, 0.074, 0.235, 1
2391778, 0.408, -0.054, -1.036, 0.394, 0.014, 0.268, 1
2391798, 0.594, -0.341, -1.014, 0.431, -0.184, 0.164, 1
2391818, 0.222, -0.342, -1.666, 0.379, -0.298, 0.145, 1
2391838, -0.357, -0.381, -2.34, 0.329, -0.136, 0.135, 1
2391858, -0.079, -0.56, -2.337, 0.197, -0.061, 0.181, 1
2391878, 0.116, -0.497, -1.913, 0.111, -0.014, 0.102, 1
2391898, 0.045, -0.345, -1.719, 0.095, -0.05, 0.041, 1
2391918, -0.208, -0.306, -1.706, 0.121, -0.028, -0.043, 1
2391938, -0.035, -0.616, -1.761, -0.001, 0.034, -0.071, 1
2391958, 0.107, -0.389, -1.488, -0.248, 0.039, -0.08, 1
2391978, -0.072, -0.194, -1.251, -0.334, 0.023, -0.084, 1
2391998, 0.015, -0.288, -1.146, -0.219, 0.064, -0.122, 1
2392018, -0.166, -0.381, -1.325, -0.191, 0.128, -0.03, 1
2392038, 0.364, -0.47, -1.433, 0.005, 0.112, -0.094, 1
2392058, 0.824, -0.723, -1.833, 0.168, -0.117, -0.228, 1
2392078, 0.51, -0.95, -2.664, 0.29, -0.265, -0.333, 0
2392098, 0.077, -1.204, -3.346, 0.354, -0.153, -0.406, 0
2392118, 0.444, -1.219, -3.274, 0.336, -0.135, -0.31, 0
2392138, 0.28, -0.412, -3.208, 0.422, -0.161, -0.187, 0
2392158, 0.074, -0.605, -3.657, 0.684, -0.265, 0.098, 0
2392178, 0.247, -2.208, -5.154, 0.781, -0.415, 0.052, 0
2392198, -0.055, -2.839, -5.674, 0.452, -0.268, -0.163, 0
2392218, -0.155, -2.469, -5.213, 0.096, 0.067, -0.116, 0
2392238, 0.169, -2.343, -4.259, -0.298, 0.251, -0.009, 0
2392258, -0.076, -1.6, -3.544, -0.607, 0.163, -0.074, 0
2392278, -1.26, -1.868, -3.673, -0.865, 0.216, -0.196, 0
2392298, -0.7, -1.561, -2.688, -1.282, 0.397, -0.215, 0
2392318, -0.434, -1.322, -1.576, -1.284, 0.354, -0.139, 0
2392338, -0.932, -0.855, -1.031, -1.241, 0.644, -0.166, 0
2392358, -0.967, -0.41, -0.37, -1.058, 0.999, -0.248, 0
2392378, -0.59, -0.218, 0.02, -0.887, 1.12, -0.354, 0
2392398, 0.006, -0.133, 0.725, -0.824, 0.781, -0.32, 0
2392418, 0.497, -0.866, 0.732, -0.961, 0.163, -0.086, 0
2392438, 0.239, -1.513, 0.279, -1.345, -0.238, 0.052, 0
2392458, 0.69, -1.565, 0.754, -1.627, -0.407, 0.075, 0
2392478, 0.615, -1.568, 1.537, -1.712, -0.339, -0.075, 0
2392498, 0.291, -1.061, 2.364, -1.518, -0.07, -0.103, 0
2392518, 0.425, -1.051, 2.728, -1.269, 0.053, -0.106, 0
2392538, 0.685, -1.005, 2.831, -1.136, 0.054, -0.128, 0
2392558, 1.099, -0.956, 3.326, -1.003, -0.128, -0.117, 0
2392578, 0.774, -1.221, 3.251, -0.963, -0.21, -0.171, 0
2392598, 0.48, -1.431, 3.153, -1.024, -0.102, -0.318, 0
2392618, -0.241, -0.91, 3.593, -0.95, 0.054, -0.334, 0
2392638, -0.036, -0.627, 4.135, -0.822, 0.045, -0.285, 0
2392658, -0.234, -0.409, 4.215, -0.786, -0.034, -0.148, 0
2392678, -0.427, -0.309, 4.011, -0.836, -0.203, -0.055, 0
2392698, -0.427, -0.151, 4.283, -0.805, -0.34, 0.017, 0
2392718, -0.485, 0.1, 4.463, -0.62, -0.301, -0.014, 0
2392738, -0.451, 0.301, 4.308, -0.322, -0.144, -0.06, 0
2392758, -0.488, 0.158, 3.693, -0.073, 0.007, -0.149, 0
2392778, -0.585, -0.018, 3.18, 0.063, 0.132, -0.209, 0
2392798, -0.563, -0.011, 2.303, 0.191, 0.04, -0.115, 0
2392818, -0.753, -0.042, 1.741, 0.077, -0.048, 0.004, 0
2392838, -0.729, 0.086, 1.694, 0.004, -0.069, 0.085, 0
2392858, -0.63, -0.106, 1.787, 0.024, -0.026, 0.13, 0
2392878, -0.206, -0.187, 1.949, 0.107, 0.067, 0.129, 0
2392898, -0.339, -0.23, 1.674, 0.227, 0.116, 0.122, 0
2392918, -0.44, -0.366, 1.252, 0.243, 0.286, 0.158, 0
2392938, -0.421, -0.717, 1.029, -0.016, 0.443, 0.304, 1
2392958, -0.022, -1.456, 1.4, -0.593, 0.611, 0.599, 1
2392978, -0.198, -0.557, 2.557, -1.141, 0.628, 0.697, 1
2392998, -0.521, -0.192, 3.345, -0.922, 0.505, 0.662, 1
2393018, -0.177, -0.896, 3.302, -0.39, 0.37, 0.623, 1
2393038, 0.144, -1.1, 3.485, -0.211, 0.014, 0.626, 1
2393058, 0.231, -1.178, 3.584, -0.056, -0.072, 0.519, 1
2393078, 0.093, -0.647, 3.492, 0.02, -0.07, 0.55, 1
2393098, 0.414, -0.484, 3.409, 0.298, 0.083, 0.466, 1
2393118, 0.468, -0.866, 3.017, 0.477, 0.124, 0.347, 1
2393138, 0.149, -1.294, 2.502, 0.352, 0.034, 0.331, 1
2393158, -0.498, -0.619, 1.717, 0.087, 0.039, 0.226, 1
2393178, -0.604, -0.371, 1.384, -0.014, 0.369, 0.175, 1
2393198, 0.268, -0.947, 1.181, -0.086, 0.684, 0.12, 1
2393218, 0.203, -1.079, 1.297, -0.235, 0.456, 0.061, 1
2393238, -0.965, -1.141, 0.76, -0.1, -0.061, 0.066, 1
2393258, -0.616, -0.873, 0.278, 0.282, -0.179, 0.211, 1
2393278, 0.007, -1.322, -0.3, 0.571, 0.126, 0.204, 1
2393298, 0.599, -1.413, -0.833, 0.437, 0.022, 0.031, 1
2393318, 0.205, -0.611, -1.051, 0.383, -0.265, -0.006, 1
2393338, -0.333, -0.268, -1.497, 0.659, -0.277, -0.026, 1
2393358, -0.317, 0.251, -2.222, 0.889, -0.216, -0.021, 1
2393378, -0.425, 0.244, -2.959, 0.892, -0.272, 0.119, 1
2393398, -0.755, 0.058, -3.165, 0.63, -0.318, 0.169, 1
2393418, -0.64, 0.01, -2.947, 0.541, -0.083, 0.191, 1
2393438, -0.159, 0.26, -2.736, 0.688, 0.12, 0.271, 1
2393458, 0.42, -0.172, -2.696, 0.728, 0.136, 0.256, 1
2393478, 0.238, -0.172, -3.051, 0.538, -0.063, 0.201, 1
2393498, -0.127, -0.05, -2.917, 0.293, -0.139, 0.134, 1
2393518, -0.09, 0.608, -2.906, 0.405, 0.039, 0.183, 1
2393538, 0.064, 0.416, -2.959, 0.512, 0.158, 0.315, 1
2393558, 0.654, 0.001, -2.845, 0.45, 0.071, 0.263, 1
2393578, 0.707, -0.435, -2.573, 0.189, -0.186, 0.131, 1
2393598, 0.156, -0.271, -1.879, 0.054, -0.208, 0.025, 1
2393618, 0.29, 0.326, -1.375, 0.263, -0.129, 0.062, 1
2393638, 0.466, 0.194, -1.537, 0.462, -0.263, 0.169, 1
2393658, 0.344, -0.283, -2.104, 0.437, -0.348, 0.141, 1
2393678, 0.285, -0.446, -2.19, 0.299, -0.31, 0.075, 1
2393698, 0.125, -0.626, -1.968, 0.117, -0.142, -0.078, 1
2393718, 0.25, 0.017, -1.39, 0.115, -0.182, -0.046, 1
2393738, 0.063, 0.021, -1.205, 0.233, -0.264, -0.018, 1
2393758, 0.177, -0.169, -1.275, 0.315, -0.262, -0.012, 1
2393778, 0.324, -0.391, -1.335, 0.277, -0.312, -0.054, 1
2393798, -0.065, -0.442, -1.307, 0.188, -0.266, -0.107, 1
2393818, -0.292, -0.215, -0.999, 0.049, -0.18, -0.078, 1
2393838, -0.135, -0.086, -0.639, -0.003, -0.072, -0.062, 1
2393858, 0.098, 0.034, -0.501, 0.012, -0.016, -0.054, 1
2393878, 0.251, -0.129, -0.56, 0.103, -0.081, -0.092, 1
2393898, -0.067, -0.202, -1.0, 0.067, -0.201, -0.105, 1
2393918, -0.547, -0.016, -1.282, -0.056, -0.163, -0.057, 1
2393938, -0.393, -0.097, -1.272, -0.074, -0.035, -0.037, 1
2393958, -0.243, -0.172, -1.254, -0.065, 0.078, -0.021, 1
2393978, -0.015, -0.173, -1.417, 0.133, 0.076, -0.145, 1
2393998, 0.162, -0.356, -1.851, 0.363, -0.017, -0.219, 1
2394018, 0.281, -0.606, -2.467, 0.398, -0.067, -0.282, 0
2394038, 0.511, -0.211, -2.832, 0.463, -0.046, -0.522, 0
2394058, 0.101, -0.212, -2.96, 0.617, -0.153, -0.322, 0
2394078, -0.035, -1.029, -3.864, 0.653, -0.144, -0.109, 0
2394098, -0.682, -1.737, -4.834, 0.179, 0.0, -0.128, 0
2394118, -0.195, -1.106, -4.062, -0.329, 0.324, -0.202, 0
2394138, 0.274, -1.033, -3.614, -0.331, 0.382, -0.067, 0
2394158, 0.792, -1.407, -3.41, -0.288, 0.28, -0.076, 0
2394178, 0.242, -2.026, -3.842, -0.441, 0.135, -0.207, 0
2394198, -0.371, -1.042, -3.0, -0.712, 0.232, -0.329, 0
2394218, -0.335, -0.721, -2.889, -0.659, 0.259, -0.213, 0
2394238, -0.54, -0.737, -2.461, -0.689, 0.312, -0.164, 0
2394258, -0.229, -0.681, -2.053, -0.609, 0.425, -0.161, 0
2394278, 0.655, -1.799, -2.357, -0.871, 0.514, -0.538, 0
2394298, 0.899, -1.78, -1.741, -1.058, 0.266, -0.496, 0
2394318, 1.011, -1.248, -0.866, -1.024, -0.184, -0.514, 0
2394338, -0.111, -1.373, -0.694, -1.003, -0.428, -0.296, 0
2394358, -0.408, -1.459, -0.437, -1.039, -0.167, -0.239, 0
2394378, -0.252, -1.317, 0.17, -0.953, 0.246, -0.261, 0
2394398, -0.085, -0.938, 0.964, -0.707, 0.459, -0.186, 0
2394418, 0.717, -0.792, 1.663, -0.371, 0.27, -0.15, 0
2394438, 1.145, -1.432, 1.034, -0.439, -0.041, -0.138, 0
2394458, 0.872, -1.763, 0.319, -0.911, -0.208, -0.225, 0
2394478, 0.407, -1.387, 0.138, -1.241, -0.263, -0.171, 0
2394498, 0.458, -0.707, 0.995, -1.185, -0.422, -0.06, 0
2394518, 0.453, -0.404, 1.377, -0.919, -0.515, 0.046, 0
2394538, -0.26, -0.858, 0.927, -0.937, -0.334, -0.039, 0
2394558, -0.502, -0.915, 0.686, -1.025, 0.042, -0.083, 0
2394578, 0.167, -0.925, 1.212, -1.116, 0.136, -0.091, 0
2394598, 0.871, -1.273, 1.422, -1.155, -0.052, -0.049, 0
2394618, 0.62, -1.173, 1.475, -1.204, -0.216, 0.007, 0
2394638, 0.674, -0.835, 1.79, -1.207, -0.355, 0.018, 0
2394658, 0.302, -0.768, 2.042, -1.235, -0.291, -0.039, 0
2394678, -0.228, -0.426, 2.541, -1.102, -0.169, -0.054, 0
2394698, -0.338, -0.353, 3.07, -0.839, -0.032, -0.028, 0
2394718, -0.23, -0.548, 3.305, -0.676, 0.024, -0.073, 0
2394738, -0.318, -0.594, 3.277, -0.601, 0.108, -0.138, 0
2394758, -0.395, -0.307, 3.77, -0.496, 0.133, -0.169, 0
2394778, -0.374, -0.151, 4.139, -0.306, 0.056, -0.115, 0
2394798, -0.442, 0.039, 4.114, -0.094, -0.011, -0.092, 0
2394818, -0.535, -0.038, 3.575, 0.058, 0.007, -0.074, 0
2394838, -0.553, -0.074, 3.156, 0.102, 0.07, -0.084, 0
2394858, -0.387, -0.351, 2.829, 0.114, 0.051, -0.048, 0
2394878, -0.401, -0.43, 2.675, 0.085, -0.063, 0.005, 0
2394898, -0.569, -0.333, 2.175, 0.194, -0.17, 0.063, 0
2394918, -0.566, -0.393, 1.634, 0.302, -0.103, 0.094, 0
2394938, -0.328, -0.47, 1.519, 0.315, 0.06, 0.07, 0
2394958, -0.246, -0.485, 1.715, 0.269, 0.188, 0.083, 0
2394978, -0.103, -0.292, 2.004, 0.279, 0.241, 0.122, 0
2394998, -0.08, -0.439, 1.981, 0.29, 0.277, 0.21, 0
2395018, -0.044, -0.592, 1.766, 0.137, 0.326, 0.344, 1
2395038, 0.059, -0.823, 1.665, -0.214, 0.453, 0.511, 1
2395058, -0.233, -0.847, 2.512, -0.585, 0.762, 0.502, 1
2395078, -0.016, -0.473, 3.463, -0.579, 0.814, 0.442, 1
2395098, 0.636, -0.256, 3.307, -0.245, 0.439, 0.464, 1
2395118, 0.521, -0.451, 2.338, -0.094, -0.131, 0.487, 1
2395138, -0.423, -0.952, 1.592, -0.114, -0.35, 0.329, 1
2395158, -1.199, -0.781, 1.523, -0.24, -0.131, 0.277, 1
2395178, -0.979, -0.914, 2.248, -0.208, 0.398, 0.274, 1
2395198, 0.318, -0.554, 2.497, -0.026, 0.723, 0.296, 1
2395218, 0.711, -0.753, 1.943, 0.124, 0.45, 0.387, 1
2395238, 0.564, -1.06, 0.973, 0.031, 0.02, 0.244, 1
2395258, -0.342, -1.209, 0.65, -0.324, 0.081, 0.14, 1
2395278, -0.785, -0.44, 0.854, -0.305, 0.293, 0.135, 1
2395298, -0.974, -0.041, 0.468, 0.009, 0.527, 0.303, 1
2395318, 0.088, -0.895, 0.476, -0.039, 0.473, 0.39, 1
2395338, 0.848, -1.645, 0.794, -0.42, 0.138, 0.131, 1
2395358, 0.23, -0.945, 0.728, -0.493, -0.295, -0.101, 1
2395378, -0.48, 0.683, 0.325, 0.025, -0.547, -0.083, 1
2395398, -1.436, 0.346, -0.643, 0.495, -0.264, 0.182, 1
2395418, -0.971, -0.511, -1.248, 0.529, 0.08, 0.213, 1
2395438, -0.421, -0.484, -1.698, 0.378, -0.001, 0.12, 1
2395458, -0.456, -0.046, -1.536, 0.421, -0.234, 0.186, 1
2395478, -0.326, 0.086, -1.932, 0.786, -0.189, 0.449, 1
2395498, 0.179, -0.698, -2.272, 0.974, 0.025, 0.605, 1
2395518, 1.047, -1.133, -2.548, 0.957, 0.034, 0.528, 1
2395538, 1.053, -0.964, -2.614, 0.82, 0.017, 0.319, 1
2395558, 0.851, -0.017, -2.073, 0.926, 0.059, 0.271, 1
2395578, 0.959, 0.067, -1.996, 1.01, -0.028, 0.274, 1
2395598, 0.758, 0.067, -2.052, 0.934, -0.266, 0.139, 1
2395618, 0.246, -0.039, -2.039, 0.796, -0.39, -0.016, 1
2395638, -0.301, -0.052, -1.82, 0.659, -0.297, -0.155, 1
2395658, -0.183, 0.646, -1.355, 0.709, -0.365, -0.076, 1
2395678, -0.138, 1.065, -1.561, 0.957, -0.538, 0.07, 1
2395698, -0.23, 0.597, -2.48, 1.064, -0.612, 0.238, 1
2395718, -0.189, -0.436, -3.434, 0.632, -0.204, 0.154, 1
2395738, 0.602, -0.32, -2.594, 0.324, -0.07, 0.051, 1
2395758, 0.336, 0.277, -1.993, 0.316, -0.203, 0.004, 1
2395778, -0.282, 0.116, -1.637, 0.392, -0.373, 0.041, 1
2395798, -0.308, -0.213, -1.831, 0.428, -0.309, 0.177, 1
2395818, 0.122, -0.729, -2.189, 0.277, -0.082, 0.112, 1
2395838, 0.291, -0.377, -2.013, -0.027, 0.023, -0.009, 1
2395858, 0.17, 0.3, -1.299, -0.124, -0.058, -0.026, 1
2395878, 0.158, 0.311, -0.817, 0.073, -0.082, -0.033, 1
2395898, -0.183, 0.003, -1.217, 0.227, -0.149, -0.005, 1
2395918, -0.376, -0.365, -1.563, 0.085, -0.09, 0.017, 1
2395938, -0.245, 0.143, -1.047, -0.119, -0.069, 0.031, 1
2395958, -0.347, 0.274, -0.476, -0.068, -0.047, 0.075, 1
2395978, -0.195, 0.333, -0.109, 0.216, 0.007, 0.143, 1
2395998, 0.081, -0.474, -0.677, 0.442, 0.01, 0.184, 1
2396018, 0.341, -1.147, -1.376, 0.249, -0.074, 0.121, 1
2396038, -0.309, -0.287, -1.54, -0.046, -0.067, -0.048, 1
2396058, -0.545, 0.244, -0.995, 0.1, 0.091, -0.113, 0
2396078, 0.551, 0.082, -0.876, 0.566, 0.202, -0.135, 0
2396098, 1.175, -1.111, -1.477, 0.737, 0.056, -0.039, 0
2396118, 0.503, -1.521, -2.725, 0.365, -0.12, -0.167, 0
2396138, -0.136, -0.631, -3.305, 0.026, -0.084, -0.196, 0
2396158, 0.401, -0.256, -3.169, 0.045, 0.271, 0.039, 0
2396178, 1.48, -1.321, -4.134, 0.107, 0.368, 0.189, 0
2396198, 1.099, -1.467, -5.06, -0.145, 0.17, -0.205, 0
2396218, -0.182, -0.531, -4.54, -0.128, 0.146, -0.255, 0
2396238, 0.077, 0.023, -3.478, 0.312, 0.08, -0.172, 0
2396258, 0.426, -0.819, -3.611, 0.534, -0.105, -0.2, 0
2396278, -0.098, -2.748, -5.446, -0.029, -0.317, -0.265, 0
2396298, -0.911, -3.071, -6.162, -0.879, -0.067, -0.543, 0
2396318, -0.958, -1.682, -4.463, -1.109, 0.261, -0.503, 0
2396338, -0.431, -1.204, -2.752, -0.887, 0.362, -0.298, 0
2396358, -0.085, -1.66, -2.464, -0.816, 0.235, -0.129, 0
2396378, -0.242, -2.688, -2.772, -1.169, 0.238, -0.213, 0
2396398, 0.183, -2.446, -2.036, -1.446, 0.254, -0.353, 0
2396418, 0.184, -1.914, -0.908, -1.519, -0.024, -0.299, 0
2396438, -0.381, -1.207, 0.393, -1.31, -0.277, -0.107, 0
2396458, -0.281, -1.576, 0.393, -1.211, -0.361, 0.044, 0
2396478, -0.391, -2.277, 0.195, -1.404, -0.166, -0.04, 0
2396498, -0.309, -1.928, 0.638, -1.455, 0.093, -0.056, 0
2396518, 0.465, -1.558, 1.398, -1.279, 0.053, -0.043, 0
2396538, 0.792, -1.397, 1.733, -1.057, -0.087, 0.062, 0
2396558, 0.828, -1.818, 1.165, -1.137, -0.163, -0.025, 0
2396578, 0.616, -2.297, 0.955, -1.458, -0.04, -0.106, 0
2396598, 1.033, -1.873, 1.807, -1.539, 0.001, -0.185, 0
2396618, 0.869, -1.162, 2.507, -1.314, -0.069, -0.16, 0
2396638, 0.285, -1.149, 2.376, -1.129, -0.056, -0.1, 0
2396658, 0.046, -1.3, 2.428, -1.199, 0.04, -0.16, 0
2396678, -0.21, -0.947, 2.705, -1.134, 0.099, -0.215, 0
2396698, -0.205, -0.581, 3.131, -0.921, 0.003, -0.085, 0
2396718, 0.007, -0.754, 3.671, -0.76, -0.091, 0.014, 0
2396738, 0.027, -0.753, 3.676, -0.788, -0.133, -0.047, 0
2396758, -0.276, -0.373, 4.08, -0.769, -0.086, -0.15, 0
2396778, -0.571, -0.171, 4.156, -0.56, -0.021, -0.142, 0
2396798, -0.509, -0.362, 3.918, -0.275, -0.022, -0.089, 0
2396818, -0.382, -0.58, 3.246, -0.158, -0.029, -0.067, 0
2396838, -0.235, -0.544, 2.682, -0.152, -0.053, -0.115, 0
2396858, -0.307, -0.549, 2.531, -0.216, -0.054, -0.109, 0
2396878, -0.377, -0.592, 2.847, -0.24, -0.029, -0.059, 0
2396898, -0.417, -0.483, 2.825, -0.07, -0.066, -0.025, 0
2396918, -0.371, -0.397, 2.412, 0.137, -0.053, 0.032, 0
2396938, -0.296, -0.437, 2.27, 0.246, 0.032, 0.015, 0
2396958, -0.159, -0.611, 2.301, 0.243, 0.14, -0.005, 0
2396978, -0.158, -0.621, 2.484, 0.209, 0.197, 0.033, 0
2396998, -0.202, -0.67, 2.439, 0.271, 0.167, 0.105, 0
2397018, -0.128, -0.605, 2.427, 0.348, 0.235, 0.213, 0
2397038, -0.109, -0.933, 2.172, 0.357, 0.366, 0.28, 1
2397058, -0.514, -0.866, 1.982, 0.169, 0.62, 0.441, 1
2397078, -0.539, -1.586, 2.246, -0.262, 0.951, 0.503, 1
2397098, -0.102, -1.464, 3.296, -0.519, 1.125, 0.45, 1
2397118, 0.958, -0.964, 4.054, -0.464, 0.816, 0.577, 1
2397138, 0.681, -0.732, 3.966, -0.188, 0.185, 0.516, 1
2397158, -0.076, -0.465, 3.665, 0.2, -0.081, 0.382, 1
2397178, -0.538, -0.824, 2.699, 0.47, -0.007, 0.253, 1
2397198, -0.509, -1.607, 2.145, 0.31, 0.434, 0.176, 1
2397218, -0.029, -1.435, 1.912, 0.073, 0.378, 0.189, 1
2397238, 0.626, -1.829, 1.759, -0.228, 0.159, 0.272, 1
2397258, 0.712, -1.253, 1.809, -0.208, 0.095, 0.194, 1
2397278, 0.028, -0.881, 1.6, 0.135, 0.389, 0.132, 1
2397298, 0.146, -1.138, 0.951, 0.427, 0.53, 0.301, 1
2397318, 0.572, -1.073, 0.139, 0.437, 0.252, 0.291, 1
2397338, 0.504, -0.715, -0.244, 0.308, -0.05, 0.075, 1
2397358, -0.467, -0.298, -0.409, 0.296, -0.04, 0.03, 1
2397378, -1.466, -0.367, -0.923, 0.284, 0.098, 0.25, 1
2397398, -0.693, 0.001, -1.037, 0.343, 0.156, 0.411, 1
2397418, 0.31, -0.14, -1.249, 0.533, 0.324, 0.196, 1
2397438, 0.934, -0.292, -2.135, 0.609, 0.233, -0.016, 1
2397458, 0.636, 0.156, -2.855, 0.466, -0.233, -0.037, 1
2397478, -0.634, 0.666, -3.163, 0.34, -0.32, 0.076, 1
2397498, -0.938, 0.664, -3.489, 0.433, 0.168, 0.207, 1
2397518, 0.3, 0.551, -3.281, 0.638, 0.414, 0.2, 1
2397538, 1.082, 0.282, -3.471, 0.628, -0.004, 0.142, 1
2397558, 0.147, 0.06, -3.515, 0.362, -0.37, 0.102, 1
2397578, -0.741, 0.115, -3.239, 0.034, -0.284, 0.251, 1
2397598, -0.894, 0.7, -2.771, 0.111, 0.129, 0.412, 1
2397618, -0.166, 0.93, -2.248, 0.494, 0.384, 0.541, 1
2397638, 0.788, -0.034, -2.251, 0.598, 0.219, 0.477, 1
2397658, 0.753, -0.772, -2.187, 0.267, -0.164, 0.268, 1
2397678, -0.126, -0.331, -1.937, -0.003, -0.172, 0.172, 1
2397698, -0.555, 0.176, -0.909, 0.13, 0.078, 0.386, 1
2397718, 0.525, -0.321, -0.601, 0.364, 0.28, 0.558, 1
2397738, 1.408, -0.858, -0.58, 0.408, -0.026, 0.442, 1
2397758, 0.057, -0.4, -0.877, 0.194, -0.381, 0.231, 1
2397778, -0.804, -0.085, -0.448, 0.051, -0.255, 0.222, 1
2397798, -0.128, 0.142, -0.263, 0.178, 0.017, 0.249, 1
2397818, 0.561, -0.316, -0.125, 0.3, -0.012, 0.188, 1
2397838, 0.228, -0.128, -0.406, 0.257, -0.158, 0.028, 1
2397858, -0.141, 0.056, -0.872, 0.178, -0.224, 0.004, 1
2397878, -0.17, 0.244, -0.978, 0.122, -0.088, 0.066, 1
2397898, 0.326, 0.301, -0.833, 0.248, -0.018, 0.176, 1
2397918, 0.583, -0.191, -1.296, 0.437, -0.062, 0.139, 1
2397938, 0.656, -0.617, -1.859, 0.423, -0.123, -0.03, 1
2397958, 0.104, -0.356, -2.139, 0.169, -0.166, -0.084, 1
2397978, 0.044, 0.088, -1.86, 0.046, -0.076, -0.118, 1
2397998, -0.019, 0.147, -1.332, 0.128, 0.04, -0.075, 1
2398018, 0.167, -0.07, -1.283, 0.334, 0.096, -0.169, 1
2398038, 0.08, -0.583, -1.489, 0.345, 0.034, -0.352, 1
2398058, 0.097, -0.316, -1.228, 0.17, 0.007, -0.439, 1
2398078, -0.042, 0.349, -0.726, 0.106, -0.044, -0.402, 1
2398098, -0.103, 0.657, -0.724, 0.495, -0.151, -0.431, 1
2398118, -0.116, -0.769, -1.621, 0.673, -0.241, -0.266, 1
2398138, 0.026, -1.089, -1.831, 0.378, -0.135, -0.303, 1
2398158, 0.556, -0.04, -1.507, 0.311, -0.114, -0.323, 0
2398178, 0.161, -0.46, -2.066, 0.485, -0.304, -0.281, 0
2398198, 0.411, -1.147, -2.949, 0.403, -0.275, -0.304, 0
2398218, 0.899, -1.747, -4.503, -0.01, -0.27, -0.359, 0
2398238, 0.189, -1.596, -4.65, -0.474, 0.062, -0.359, 0
2398258, -0.066, -0.492, -4.438, -0.567, 0.365, -0.268, 0
2398278, 0.05, -0.392, -4.41, -0.554, 0.479, -0.224, 0
2398298, -0.19, 0.168, -3.908, -0.453, 0.535, -0.147, 0
2398318, 0.57, 0.177, -3.942, -0.377, 0.348, -0.07, 0
2398338, 1.124, 0.059, -3.895, -0.328, -0.145, -0.128, 0
2398358, 0.269, -0.024, -3.805, -0.253, -0.465, -0.239, 0
2398378, -0.612, -0.74, -3.958, -0.356, -0.359, -0.315, 0
2398398, -1.017, -0.667, -3.466, -0.497, -0.113, -0.156, 0
2398418, -0.224, -1.156, -2.667, -0.661, -0.161, -0.03, 0
2398438, -0.06, -1.468, -1.638, -0.879, -0.432, 0.052, 0
2398458, 0.263, -2.105, -0.899, -1.095, -0.704, 0.108, 0
2398478, 0.289, -2.243, -0.417, -1.293, -0.655, 0.12, 0
2398498, 0.831, -1.525, 0.534, -1.037, -0.45, 0.111, 0
2398518, 0.898, -1.699, 0.667, -0.734, -0.318, 0.141, 0
2398538, 0.395, -1.838, 0.602, -0.701, -0.163, 0.169, 0
2398558, 0.396, -2.297, 0.223, -1.018, 0.023, -0.015, 0
2398578, 0.733, -2.043, 0.569, -1.261, -0.021, -0.098, 0
2398598, 1.084, -1.475, 1.316, -1.202, -0.296, -0.065, 0
2398618, 0.427, -1.146, 1.6, -1.038, -0.367, 0.036, 0
2398638, 0.164, -1.039, 1.568, -0.996, -0.148, 0.061, 0
2398658, 0.345, -1.071, 2.04, -1.043, 0.329, -0.217, 0
2398678, 0.782, -1.073, 2.506, -0.946, 0.374, -0.167, 0
2398698, 1.114, -1.192, 2.846, -0.864, 0.087, -0.106, 0
2398718, 0.493, -1.231, 2.445, -0.875, -0.21, -0.032, 0
2398738, 0.063, -0.853, 2.71, -0.99, -0.27, -0.034, 0
2398758, -0.15, -0.493, 3.046, -1.0, -0.229, -0.04, 0
2398778, -0.295, -0.539, 3.285, -0.891, -0.131, -0.072, 0
2398798, -0.418, -0.603, 3.211, -0.721, -0.021, -0.1, 0
2398818, -0.185, -0.486, 3.144, -0.533, 0.141, -0.113, 0
2398838, -0.073, -0.444, 2.979, -0.37, 0.216, -0.115, 1
2398858, -0.251, -0.63, 2.566, -0.305, 0.202, -0.156, 1
2398878, -0.519, -0.529, 2.584, -0.365, 0.188, -0.156, 1
2398898, -0.474, -0.283, 2.933, -0.359, 0.116, -0.119, 1
2398918, -0.555, -0.061, 2.796, -0.213, 0.019, -0.039, 1
2398938, -0.713, -0.156, 2.647, -0.116, -0.022, 0.025, 1
2398958, -0.466, -0.348, 2.634, -0.117, 0.008, 0.063, 1
2398978, -0.443, -0.402, 2.486, -0.103, 0.024, 0.071, 1
2398998, -0.306, -0.353, 2.337, -0.017, 0.05, 0.086, 1
2399018, -0.007, -0.411, 2.499, 0.078, 0.084, 0.116, 1
2399038, -0.106, -0.502, 2.342, 0.188, 0.047, 0.139, 1
2399058, 0.004, -0.549, 2.154, 0.345, 0.021, 0.203, 1
2399078, 0.007, -0.497, 1.908, 0.371, 0.1, 0.246, 1
2399098, 0.037, -0.736, 1.816, 0.328, 0.218, 0.292, 1
2399118, 0.134, -1.035, 1.54, 0.197, 0.304, 0.395, 1
2399138, -0.26, -1.389, 1.517, -0.324, 0.634, 0.597, 1
2399158, -0.452, -1.299, 2.471, -0.496, 1.018, 0.438, 1
2399178, 0.114, -1.142, 3.661, -0.468, 1.089, 0.516, 1
2399198, 0.729, -2.225, 4.232, -0.339, 0.368, 0.449, 1
2399218, 1.339, -1.055, 4.101, -0.188, -0.463, 0.373, 1
2399238, 0.028, -0.807, 3.48, 0.147, -0.591, 0.169, 1
2399258, -1.462, -0.828, 2.959, 0.514, 0.108, 0.133, 1
2399278, -1.415, -0.846, 2.23, 0.748, 0.977, 0.263, 1
2399298, 0.546, -1.215, 1.944, 0.667, 1.094, 0.357, 1
2399318, 1.875, -1.628, 1.867, 0.407, 0.44, 0.284, 1
2399338, 1.299, -1.398, 1.738, 0.305, -0.182, 0.113, 1
2399358, -0.803, -1.096, 1.113, 0.471, -0.254, 0.147, 1
2399378, -1.913, -0.971, 0.591, 0.631, 0.223, 0.316, 1
2399398, -1.375, -0.781, 0.875, 0.651, 0.704, 0.441, 1
2399418, 0.046, -0.874, 0.97, 0.577, 0.756, 0.395, 1
2399438, 0.595, -1.039, 0.248, 0.649, 0.353, 0.323, 1
2399458, 0.492, -0.993, -0.804, 0.714, -0.221, 0.321, 1
2399478, -0.446, -0.825, -1.357, 0.722, -0.268, 0.323, 1
2399498, -0.838, -0.529, -1.463, 0.744, 0.092, 0.319, 1
2399518, -0.57, -0.308, -1.745, 0.789, 0.26, 0.346, 1
2399538, 0.319, -0.137, -2.351, 0.844, -0.037, 0.284, 1
2399558, 0.452, -0.262, -2.833, 0.805, -0.384, 0.195, 1
2399578, -0.078, -0.351, -3.582, 0.592, -0.306, 0.163, 1
2399598, -0.249, -0.013, -3.894, 0.41, 0.041, 0.188, 1
2399618, 0.06, 0.327, -3.331, 0.389, 0.342, 0.262, 1
2399638, 0.731, 0.367, -3.172, 0.568, 0.259, 0.282, 1
2399658, 1.083, -0.268, -3.525, 0.511, -0.145, 0.256, 1
2399678, 0.159, -0.173, -3.664, 0.317, -0.411, 0.121, 1
2399698, -0.502, 0.135, -3.148, 0.208, -0.282, 0.097, 1
2399718, -0.29, 0.043, -2.454, 0.2, 0.027, 0.204, 1
2399738, 0.384, -0.183, -2.095, 0.223, 0.194, 0.26, 1
2399758, 0.368, -0.305, -1.604, 0.131, 0.01, 0.192, 1
2399778, -0.075, -0.19, -0.925, -0.001, -0.213, 0.14, 1
2399798, -0.393, 0.001, -0.275, 0.035, -0.175, 0.158, 1
2399818, -0.193, 0.088, -0.135, 0.2, 0.078, 0.293, 1
2399838, 0.546, -0.281, -0.592, 0.471, 0.213, 0.408, 1
2399858, 1.036, -0.749, -1.235, 0.497, 0.002, 0.337, 1
2399878, 0.533, -0.708, -1.3, 0.302, -0.197, 0.224, 1
2399898, 0.231, -0.368, -0.991, 0.199, -0.098, 0.158, 1
2399918, 0.297, -0.161, -0.8, 0.238, 0.032, 0.171, 1
2399938, 0.318, -0.219, -0.961, 0.353, 0.002, 0.218, 1
2399958, 0.338, -0.583, -1.655, 0.353, -0.054, 0.199, 1
2399978, 0.229, -0.593, -1.926, 0.078, -0.014, 0.083, 1
2399998, 0.199, 0.043, -1.6, -0.113, 0.061, 0.02, 1
2400018, 0.204, 0.358, -1.476, 0.021, 0.063, 0.0, 1
2400038, 0.062, -0.098, -1.64, 0.102, 0.015, 0.061, 1
2400058, 0.202, -0.368, -1.76, 0.057, 0.009, 0.072, 1
2400078, 0.261, -0.44, -1.795, -0.085, -0.021, 0.016, 1
2400098, 0.021, -0.049, -1.833, -0.191, -0.125, -0.096, 1
2400118, -0.475, 0.049, -1.906, -0.172, -0.029, -0.075, 1
2400138, -0.457, 0.168, -1.73, -0.109, 0.116, 0.067, 1
2400158, 0.271, -0.29, -1.862, 0.007, 0.075, 0.007, 1
2400178, 0.833, -0.741, -2.381, -0.088, -0.105, -0.127, 1
2400198, 0.536, -0.36, -2.719, -0.06, -0.233, -0.398, 1
2400218, -0.172, 0.255, -3.043, 0.115, -0.269, -0.447, 1
2400238, -0.64, 0.185, -3.418, 0.358, -0.248, -0.208, 0
2400258, 0.39, -0.971, -4.492, 0.347, -0.194, -0.13, 0
2400278, 0.605, -1.141, -5.325, 0.107, -0.155, -0.174, 0
2400298, 0.359, -1.865, -5.978, -0.359, -0.037, -0.37, 0
2400318, -0.376, -2.354, -5.702, -0.786, 0.258, -0.609, 0
2400338, 0.258, -1.364, -4.189, -0.82, 0.37, -0.315, 0
2400358, 0.301, -1.857, -4.171, -0.852, 0.438, -0.215, 0
2400378, 0.483, -1.014, -3.331, -0.63, 0.378, -0.274, 0
2400398, 0.848, -0.715, -2.41, -0.093, -0.03, -0.117, 0
2400418, 0.808, -1.863, -2.588, -0.023, -0.538, 0.03, 0
2400438, 0.231, -2.674, -2.582, -0.332, -0.753, -0.139, 0
2400458, -0.417, -2.214, -1.735, -0.547, -0.662, -0.054, 0
2400478, -0.37, -1.77, -0.844, -0.596, -0.469, -0.045, 0
2400498, -0.191, -1.672, 0.171, -0.681, -0.265, -0.063, 0
2400518, 0.199, -1.81, 0.522, -0.874, -0.16, -0.131, 0
2400538, 0.162, -1.342, 0.749, -1.049, -0.087, -0.128, 0
2400558, 0.006, -0.753, 1.037, -1.194, -0.1, -0.091, 0
2400578, 0.384, -0.979, 1.062, -1.403, -0.211, -0.098, 0
2400598, 0.557, -1.573, 1.062, -1.828, -0.253, -0.146, 0
2400618, 0.646, -1.06, 2.524, -1.69, -0.354, -0.054, 0
2400638, 0.138, -0.634, 2.563, -1.519, -0.204, -0.053, 0
2400658, 0.172, -0.767, 2.791, -1.463, -0.035, -0.078, 0
2400678, 0.098, -0.773, 2.884, -1.461, 0.072, -0.161, 0
2400698, -0.096, -0.333, 3.516, -1.461, 0.059, -0.193, 0
2400718, -0.2, -0.387, 3.867, -1.283, -0.08, -0.041, 0
2400738, -0.388, -0.462, 4.183, -1.134, -0.188, 0.037, 0
2400758, 0.047, -0.778, 4.113, -0.987, -0.194, 0.073, 0
2400778, -0.417, -0.737, 4.032, -0.957, -0.096, 0.004, 0
2400798, -0.388, -0.393, 4.53, -0.75, 0.006, -0.075, 0
2400818, -0.129, -0.371, 4.344, -0.44, 0.012, -0.047, 0
2400838, -0.289, -0.719, 3.762, -0.273, -0.065, -0.07, 0
2400858, -0.242, -0.753, 3.305, -0.27, -0.106, -0.037, 0
2400878, -0.443, -0.476, 2.933, -0.281, -0.163, -0.043, 0
2400898, -0.455, -0.275, 3.131, -0.261, -0.099, -0.03, 0
2400918, -0.738, -0.367, 3.082, -0.147, -0.048, -0.002, 0
2400938, -0.577, -0.329, 3.037, 0.017, -0.004, 0.029, 0
2400958, -0.536, -0.372, 2.87, 0.119, 0.076, 0.067, 0
2400978, -0.34, -0.368, 3.041, 0.189, 0.19, 0.04, 0
2400998, -0.428, -0.385, 2.956, 0.295, 0.219, 0.047, 0
2401018, -0.43, -0.486, 2.996, 0.367, 0.273, 0.095, 0
2401038, -0.339, -0.487, 3.045, 0.415, 0.369, 0.148, 0
2401058, -0.062, -0.606, 2.829, 0.426, 0.497, 0.277, 1
2401078, -0.241, -0.83, 2.008, 0.159, 0.626, 0.543, 1
2401098, -0.028, -1.207, 2.043, -0.431, 0.693, 0.583, 1
2401118, 0.061, -1.14, 2.579, -0.373, 0.453, 0.463, 1
2401138, -0.113, -0.868, 2.944, -0.012, 0.207, 0.337, 1
2401158, -0.269, -0.946, 2.524, 0.288, 0.025, 0.325, 1
2401178, 0.56, -1.276, 2.142, 0.356, -0.237, 0.388, 1
2401198, 0.474, -0.75, 1.702, 0.52, -0.291, 0.289, 1
2401218, -0.058, -0.75, 1.138, 0.582, -0.09, 0.225, 1
2401238, -0.394, -0.839, 0.605, 0.444, 0.114, 0.277, 1
2401258, -0.413, -0.923, 0.474, 0.263, 0.297, 0.285, 1
2401278, 0.181, -0.809, 0.668, 0.122, 0.251, 0.282, 1
2401298, 0.178, -0.687, 0.765, 0.126, 0.145, 0.23, 1
2401318, -0.244, -0.379, 0.561, 0.263, 0.254, 0.29, 1
2401338, -0.175, -0.743, 0.074, 0.246, 0.477, 0.336, 1
2401358, 0.306, -0.95, 0.008, 0.08, 0.494, 0.285, 1
2401378, -0.06, 0.058, -0.178, 0.278, 0.462, 0.106, 1
2401398, -0.574, 0.316, -0.59, 0.551, 0.396, 0.21, 1
2401418, -0.402, -0.038, -0.982, 0.602, 0.333, 0.383, 1
2401438, 0.02, -0.458, -1.067, 0.401, 0.194, 0.387, 1
2401458, 0.054, -0.402, -1.088, 0.363, 0.001, 0.268, 1
2401478, -0.253, -0.106, -1.437, 0.594, -0.015, 0.221, 1
2401498, 0.028, -0.593, -1.945, 0.664, -0.046, 0.29, 1
2401518, 0.668, -0.91, -2.308, 0.46, -0.253, 0.271, 1
2401538, 0.608, -0.737, -2.262, 0.178, -0.448, 0.152, 1
2401558, 0.47, 0.014, -1.775, 0.215, -0.387, 0.015, 1
2401578, 0.266, 0.428, -2.064, 0.454, -0.226, -0.039, 1
2401598, -0.257, 0.608, -2.573, 0.386, -0.295, -0.028, 1
2401618, -0.758, 0.826, -2.266, 0.239, -0.216, -0.013, 1
2401638, -0.553, 0.927, -1.585, 0.238, 0.08, 0.072, 1
2401658, 0.06, 0.483, -1.248, 0.401, 0.307, 0.146, 1
2401678, 0.194, 0.206, -1.257, 0.47, 0.177, 0.152, 1
2401698, -0.418, 0.088, -1.384, 0.47, -0.041, 0.15, 1
2401718, -0.572, 0.0, -1.562, 0.475, -0.062, 0.166, 1
2401738, -0.331, -0.288, -1.574, 0.524, 0.061, 0.199, 1
2401758, 0.173, -0.504, -1.712, 0.541, 0.092, 0.211, 1
2401778, 0.083, -0.7, -1.875, 0.456, -0.06, 0.182, 1
2401798, -0.162, -0.563, -1.622, 0.28, -0.188, 0.117, 1
2401818, -0.022, -0.203, -0.99, 0.199, -0.124, 0.114, 1
2401838, 0.407, 0.215, -0.743, 0.378, -0.06, 0.138, 1
2401858, 0.492, -0.323, -1.373, 0.538, -0.16, 0.171, 1
2401878, 0.174, -0.32, -1.706, 0.397, -0.267, 0.163, 1
2401898, 0.164, -0.312, -1.604, 0.229, -0.2, 0.092, 1
2401918, 0.362, 0.004, -1.247, 0.135, -0.124, 0.005, 1
2401938, 0.175, 0.356, -1.218, 0.217, -0.188, -0.004, 1
2401958, -0.042, 0.034, -1.486, 0.265, -0.205, 0.055, 1
2401978, 0.018, -0.083, -1.596, 0.192, -0.192, 0.092, 1
2401998, 0.041, -0.203, -1.792, 0.127, -0.084, 0.048, 1
2402018, 0.111, -0.14, -1.818, 0.007, 0.009, -0.006, 1
2402038, 0.144, -0.049, -1.673, -0.1, 0.022, 0.043, 1
2402058, 0.15, -0.332, -1.59, -0.133, 0.027, 0.07, 1
2402078, 0.244, -0.407, -1.537, -0.107, -0.056, -0.031, 1
2402098, -0.028, -0.217, -1.607, 0.051, -0.072, -0.122, 1
2402118, -0.15, -0.351, -1.875, 0.163, 0.003, -0.154, 1
2402138, -0.026, -0.332, -1.845, 0.277, -0.003, -0.144, 1
2402158, 0.266, -0.411, -2.192, 0.594, -0.156, -0.547, 0
2402178, 1.383, 0.303, -2.391, 0.931, -0.432, -0.565, 0
2402198, 0.497, -1.555, -3.277, 0.582, -0.414, -0.225, 0
2402218, 0.41, -1.156, -4.125, 0.405, -0.29, -0.197, 0
2402238, 0.043, -1.051, -4.119, 0.356, -0.253, 0.028, 0
2402258, 0.425, -1.302, -4.372, 0.445, -0.361, 0.307, 0
2402278, 0.395, -2.385, -5.288, 0.212, -0.279, 0.178, 0
