timestamp, accX, accY, accZ, gyroX, gyroY, gyroZ, button
2105918, -0.121, -0.057, -0.129, -0.102, 0.052, 0.064, 1
2105938, -0.019, -0.047, -0.097, -0.12, 0.117, 0.08, 1
2105958, 0.015, -0.061, -0.055, -0.099, 0.086, 0.063, 1
2105978, -0.092, -0.032, -0.076, -0.116, 0.067, 0.053, 1
2105998, -0.053, -0.018, -0.08, -0.156, 0.12, 0.085, 1
2106018, 0.05, -0.025, -0.022, -0.163, 0.096, 0.083, 1
2106038, 0.029, 0.023, 0.03, -0.1, 0.016, 0.059, 1
2106058, -0.061, -0.039, -0.076, -0.073, 0.023, 0.048, 1
2106078, -0.039, -0.091, -0.131, -0.076, 0.064, 0.048, 1
2106098, 0.01, -0.087, -0.107, -0.084, 0.052, 0.034, 1
2106118, -0.036, -0.031, -0.126, -0.086, 0.056, 0.03, 1
2106138, -0.019, -0.026, -0.134, -0.075, 0.055, 0.04, 1
2106158, 0.001, -0.029, -0.142, -0.095, 0.056, 0.039, 1
2106178, -0.013, -0.02, -0.131, -0.095, 0.06, 0.034, 1
2106198, -0.009, -0.007, -0.113, -0.077, 0.035, 0.022, 1
2106218, -0.078, -0.013, -0.183, -0.082, 0.026, 0.031, 1
2106238, -0.043, -0.006, -0.184, -0.086, 0.026, 0.034, 1
2106258, -0.05, -0.017, -0.117, -0.078, 0.045, 0.041, 1
2106278, -0.022, -0.022, -0.126, -0.084, 0.062, 0.045, 1
2106298, 0.0, -0.004, -0.068, -0.077, 0.037, 0.038, 1
2106318, -0.033, -0.003, -0.08, -0.06, 0.012, 0.042, 1
2106338, -0.013, -0.011, -0.1, -0.067, 0.006, 0.05, 1
2106358, -0.028, -0.036, -0.129, -0.091, 0.015, 0.053, 1
2106378, -0.035, -0.018, -0.12, -0.089, 0.039, 0.065, 1
2106398, -0.002, -0.022, -0.099, -0.089, 0.041, 0.078, 1
2106418, 0.013, -0.044, -0.106, -0.089, 0.02, 0.074, 1
2106438, -0.016, -0.015, -0.145, -0.077, 0.021, 0.073, 1
2106458, -0.032, -0.036, -0.192, -0.091, 0.043, 0.079, 1
2106478, -0.014, 0.0, -0.097, -0.078, 0.047, 0.078, 1
2106498, -0.004, -0.035, -0.114, -0.09, 0.049, 0.086, 1
2106518, 0.045, -0.024, -0.084, -0.095, 0.045, 0.09, 1
2106538, 0.007, -0.037, -0.101, -0.079, 0.025, 0.08, 1
2106558, -0.009, -0.036, -0.109, -0.075, 0.031, 0.072, 1
2106578, -0.004, -0.015, -0.099, -0.078, 0.039, 0.065, 1
2106598, -0.019, -0.011, -0.109, -0.077, 0.027, 0.069, 1
2106618, -0.028, -0.009, -0.111, -0.083, 0.02, 0.07, 1
2106638, -0.038, 0.001, -0.085, -0.084, 0.032, 0.062, 1
2106658, -0.016, -0.005, -0.047, -0.065, 0.048, 0.064, 1
2106678, -0.004, -0.03, -0.026, -0.065, 0.051, 0.069, 1
2106698, -0.012, -0.023, -0.063, -0.074, 0.042, 0.081, 1
2106718, -0.026, -0.023, -0.083, -0.081, 0.032, 0.081, 1
2106738, -0.011, -0.016, -0.063, -0.071, 0.033, 0.075, 1
2106758, -0.011, -0.009, -0.034, -0.059, 0.036, 0.066, 1
2106778, 0.021, -0.034, 0.017, -0.026, 0.008, 0.053, 1
2106798, -0.008, -0.015, -0.069, -0.013, -0.031, 0.045, 1
2106818, -0.012, -0.002, -0.089, -0.007, -0.042, 0.043, 1
2106838, -0.024, -0.017, -0.215, 0.007, -0.031, 0.02, 1
2106858, -0.033, -0.021, -0.34, -0.015, 0.04, 0.035, 1
2106878, 0.023, -0.028, -0.338, -0.081, 0.091, 0.056, 1
2106898, -0.025, -0.021, -0.387, -0.147, 0.053, 0.088, 1
2106918, -0.147, 0.07, -0.364, -0.243, 0.057, 0.117, 1
2106938, -0.064, 0.045, -0.273, -0.218, 0.11, 0.123, 1
2106958, 0.01, -0.007, -0.107, -0.136, 0.144, 0.106, 1
2106978, 0.117, -0.163, -0.054, -0.074, 0.056, 0.062, 1
2106998, -0.007, -0.135, -0.051, -0.101, 0.032, 0.063, 1
2107018, -0.05, -0.068, 0.008, -0.093, 0.048, 0.069, 1
2107038, -0.031, -0.039, 0.048, -0.095, 0.059, 0.061, 1
2107058, -0.025, -0.032, 0.008, -0.117, 0.062, 0.067, 1
2107078, -0.012, -0.015, 0.016, -0.091, 0.048, 0.07, 1
2107098, 0.025, -0.059, -0.019, -0.037, 0.009, 0.05, 1
2107118, 0.01, -0.057, -0.075, -0.029, -0.018, 0.041, 1
2107138, -0.003, -0.046, -0.181, -0.065, -0.017, 0.044, 1
2107158, -0.123, -0.038, -0.29, -0.14, 0.048, 0.067, 1
2107178, -0.103, 0.096, -0.227, -0.149, 0.102, 0.085, 1
2107198, -0.028, 0.0, -0.192, -0.149, 0.095, 0.087, 1
2107218, -0.011, -0.054, -0.22, -0.174, 0.082, 0.088, 1
2107238, -0.034, -0.071, -0.257, -0.171, 0.103, 0.092, 1
2107258, 0.025, -0.043, -0.119, -0.14, 0.086, 0.071, 1
2107278, -0.026, -0.03, -0.119, -0.122, 0.051, 0.07, 1
2107298, -0.019, -0.026, -0.1, -0.108, 0.015, 0.064, 1
2107318, -0.09, -0.011, -0.082, -0.106, 0.041, 0.069, 1
2107338, -0.08, -0.028, -0.133, -0.111, 0.086, 0.084, 1
2107358, 0.0, -0.029, -0.043, -0.092, 0.054, 0.085, 1
2107378, 0.0, -0.022, -0.003, -0.072, 0.0, 0.08, 1
2107398, -0.011, -0.032, -0.051, -0.061, -0.004, 0.067, 1
2107418, -0.046, -0.068, -0.118, -0.099, 0.036, 0.076, 1
2107438, -0.028, -0.029, -0.148, -0.132, 0.062, 0.101, 1
2107458, 0.005, 0.017, -0.044, -0.094, 0.021, 0.094, 1
2107478, 0.013, -0.051, -0.07, -0.056, 0.003, 0.091, 1
2107498, 0.027, -0.075, -0.145, -0.061, 0.025, 0.078, 1
2107518, 0.014, -0.036, -0.104, -0.078, 0.04, 0.084, 1
2107538, -0.019, -0.021, -0.123, -0.072, 0.029, 0.078, 1
2107558, -0.009, 0.0, -0.135, -0.075, 0.026, 0.078, 1
2107578, -0.032, -0.002, -0.137, -0.07, 0.039, 0.075, 1
2107598, 0.006, -0.023, -0.106, -0.081, 0.059, 0.08, 1
2107618, -0.015, -0.022, -0.077, -0.102, 0.053, 0.084, 1
2107638, -0.024, -0.016, -0.118, -0.119, 0.055, 0.086, 1
2107658, -0.008, -0.026, -0.146, -0.089, 0.053, 0.087, 1
2107678, 0.01, -0.035, -0.173, -0.073, 0.024, 0.073, 1
2107698, -0.071, -0.016, -0.223, -0.074, 0.021, 0.061, 1
2107718, -0.027, 0.001, -0.146, -0.058, 0.048, 0.056, 1
2107738, -0.024, -0.022, -0.184, -0.065, 0.04, 0.063, 1
2107758, -0.02, -0.006, -0.098, -0.089, 0.029, 0.078, 1
2107778, -0.004, -0.008, -0.04, -0.053, 0.021, 0.067, 1
2107798, -0.001, -0.035, -0.056, -0.033, 0.027, 0.055, 1
2107818, 0.008, -0.078, -0.092, -0.034, 0.026, 0.057, 1
2107838, -0.004, -0.037, -0.1, -0.037, 0.012, 0.056, 1
2107858, -0.072, -0.034, -0.178, -0.039, 0.025, 0.058, 1
2107878, -0.018, 0.011, -0.111, -0.02, 0.075, 0.062, 1
2107898, 0.03, 0.033, 0.016, 0.078, 0.073, 0.048, 0
2107918, -0.042, -0.021, -0.068, 0.108, 0.094, 0.046, 0
2107938, -0.055, -0.075, -0.202, 0.092, 0.142, 0.078, 0
2107958, -0.04, -0.083, -0.288, -0.058, 0.175, 0.167, 0
2107978, 0.114, 0.008, -0.152, -0.142, 0.056, 0.167, 0
2107998, -0.071, 0.004, -0.282, -0.207, 0.064, 0.138, 0
2108018, -0.087, -0.011, -0.335, -0.254, 0.158, 0.14, 0
2108038, -0.028, -0.067, -0.257, -0.287, 0.174, 0.146, 0
2108058, 0.123, -0.092, -0.142, -0.286, 0.073, 0.139, 0
2108078, 0.373, -0.062, -0.076, -0.224, -0.127, 0.188, 0
2108098, 0.753, -0.145, -0.087, -0.145, -0.339, 0.129, 0
2108118, 0.564, -0.144, -0.371, -0.07, -0.373, 0.106, 0
2108138, 0.448, -0.167, -0.811, -0.098, -0.267, 0.177, 0
2108158, 0.927, 0.103, -0.981, -0.137, -0.152, 0.257, 0
2108178, 1.821, 0.235, -0.985, -0.189, -0.167, 0.28, 0
2108198, 2.456, -0.022, -1.047, -0.226, -0.291, 0.189, 0
2108218, 2.623, -0.083, -1.09, -0.185, -0.248, 0.068, 0
2108238, 3.231, -0.608, -1.24, -0.101, -0.071, -0.079, 0
2108258, 3.891, -1.547, -1.645, -0.129, 0.098, -0.169, 0
2108278, 4.36, -1.525, -2.116, -0.35, 0.235, -0.322, 0
2108298, 3.738, -1.067, -2.071, -0.486, 0.302, -0.543, 0
2108318, 2.635, -0.188, -1.11, -0.284, 0.562, -0.762, 0
2108338, 1.855, 0.51, 0.229, 0.111, 0.851, -0.909, 0
2108358, 2.02, -1.087, 0.405, 0.069, 0.666, -1.034, 0
2108378, 1.167, -1.321, 0.37, -0.16, 0.37, -1.118, 0
2108398, -0.998, -1.382, -0.028, -0.267, 0.534, -1.148, 0
2108418, -2.098, -0.503, 0.503, -0.081, 0.956, -1.061, 0
2108438, -1.782, -0.874, 1.316, 0.11, 0.908, -1.059, 0
2108458, -2.792, -1.766, 0.769, 0.019, 0.084, -1.127, 0
2108478, -4.377, -2.354, 0.099, 0.003, -0.129, -1.2, 0
2108498, -4.984, -1.626, -0.242, 0.059, 0.061, -1.18, 0
2108518, -5.297, -1.099, -0.293, 0.054, 0.162, -1.07, 0
2108538, -5.428, -0.792, -0.316, -0.071, 0.07, -0.912, 0
2108558, -5.611, -0.552, -0.23, -0.219, -0.082, -0.745, 0
2108578, -5.646, -0.2, 0.076, -0.253, -0.05, -0.569, 0
2108598, -4.95, -0.159, 0.412, -0.156, 0.072, -0.437, 0
2108618, -4.405, -0.518, 0.299, -0.038, 0.139, -0.326, 0
2108638, -3.468, -0.584, 0.284, -0.076, 0.078, -0.225, 0
2108658, -3.382, -0.464, 0.21, -0.174, -0.086, -0.125, 0
2108678, -2.576, -0.474, 0.291, -0.208, -0.072, -0.015, 0
2108698, -1.57, -0.424, 0.462, -0.134, -0.04, 0.04, 0
2108718, -1.438, -0.548, 0.117, 0.024, -0.003, 0.015, 0
2108738, -1.248, -0.516, -0.158, 0.103, 0.089, 0.05, 0
2108758, -0.632, -0.372, -0.142, 0.012, 0.131, 0.149, 0
2108778, -0.43, -0.304, -0.306, -0.142, 0.106, 0.227, 0
2108798, 0.044, -0.817, -0.597, -0.167, 0.183, 0.218, 0
2108818, 0.015, -1.127, -1.105, -0.232, 0.183, 0.129, 1
2108838, -0.406, -0.865, -1.41, -0.33, 0.303, 0.094, 1
2108858, -0.468, -0.579, -1.376, -0.42, 0.577, 0.094, 1
2108878, -0.104, -0.372, -0.958, -0.229, 0.624, 0.085, 1
2108898, -0.767, -0.808, -0.861, -0.175, 0.489, 0.057, 1
2108918, -0.999, -0.89, -0.902, -0.294, 0.369, 0.09, 1
2108938, -1.892, -0.587, -0.936, -0.436, 0.318, 0.137, 1
2108958, -2.574, -0.397, -0.923, -0.454, 0.299, 0.204, 1
2108978, -3.289, -0.487, -0.656, -0.482, 0.203, 0.279, 1
2108998, -3.824, -0.422, -0.269, -0.379, 0.217, 0.348, 1
2109018, -4.311, -0.438, 0.02, -0.288, 0.259, 0.432, 1
2109038, -4.188, -0.638, 0.262, -0.247, 0.199, 0.43, 1
2109058, -3.857, -0.452, 0.565, -0.213, 0.083, 0.442, 1
2109078, -3.776, -0.105, 0.85, -0.158, -0.054, 0.516, 1
2109098, -3.127, 0.212, 1.056, -0.108, -0.157, 0.591, 1
2109118, -1.949, -0.575, 0.851, -0.219, -0.282, 0.466, 1
2109138, -0.882, -0.976, 0.802, -0.351, -0.405, 0.091, 1
2109158, -0.505, -0.271, 1.143, -0.16, -0.664, 0.186, 1
2109178, -0.486, 0.196, 1.031, 0.178, -0.93, 0.902, 1
2109198, 0.471, 0.126, 0.567, 0.277, -1.038, 1.04, 1
2109218, 1.144, -0.563, -0.233, 0.129, -1.015, 0.975, 1
2109238, 1.583, -0.751, -0.829, 0.033, -0.736, 0.664, 1
2109258, 2.143, -0.568, -0.835, 0.038, -0.392, 0.402, 1
2109278, 2.347, -0.018, -0.524, 0.158, -0.144, 0.474, 1
2109298, 2.499, -0.061, -0.299, 0.242, -0.051, 0.68, 1
2109318, 3.352, -0.588, -0.116, 0.12, -0.213, 0.648, 1
2109338, 3.734, -0.673, -0.274, -0.081, -0.493, 0.569, 1
2109358, 3.741, -0.25, -0.485, -0.14, -0.671, 0.773, 1
2109378, 4.018, -0.705, -1.239, -0.246, -0.83, 1.029, 1
2109398, 4.286, -1.131, -1.791, -0.376, -0.973, 0.995, 1
2109418, 3.708, -0.982, -1.957, -0.269, -0.821, 0.594, 1
2109438, 2.413, -0.416, -1.429, 0.07, -0.056, 0.552, 1
2109458, 2.347, -0.727, -0.923, 0.26, 0.238, 0.591, 1
2109478, 2.151, -0.736, -0.451, 0.139, 0.245, 0.69, 1
2109498, 1.9, -0.809, -0.144, -0.106, 0.12, 0.768, 1
2109518, 1.353, -0.266, 0.058, -0.239, -0.083, 0.619, 1
2109538, 0.501, -0.125, 0.038, -0.107, -0.204, 0.447, 1
2109558, -0.608, -0.539, -0.417, -0.028, -0.049, 0.342, 0
2109578, -0.156, -0.434, -0.331, -0.09, 0.229, 0.457, 0
2109598, 0.115, -0.534, -0.21, -0.23, 0.238, 0.44, 0
2109618, -0.059, -0.329, -0.052, -0.326, 0.065, 0.307, 0
2109638, -0.323, -0.099, 0.0, -0.278, -0.037, 0.135, 0
2109658, -0.817, 0.094, -0.112, -0.156, 0.067, -0.026, 0
2109678, -0.656, -0.103, -0.132, -0.075, 0.263, 0.083, 0
2109698, -0.247, -0.209, -0.051, -0.149, 0.23, 0.114, 0
2109718, -0.29, 0.006, 0.077, -0.218, 0.041, 0.091, 0
2109738, -0.458, 0.114, 0.048, -0.172, -0.03, 0.073, 0
2109758, -0.345, 0.088, 0.002, -0.067, 0.048, 0.058, 0
2109778, -0.012, -0.215, -0.025, 0.045, 0.079, 0.089, 0
2109798, 0.214, -0.345, -0.056, -0.032, 0.022, 0.096, 0
2109818, 0.548, -0.138, -0.066, -0.127, -0.053, 0.128, 0
2109838, 0.907, 0.086, -0.137, -0.108, -0.036, 0.087, 0
2109858, 1.36, -0.147, -0.45, -0.047, 0.039, 0.046, 0
2109878, 2.203, 0.022, -0.519, -0.042, 0.065, -0.049, 0
2109898, 3.241, 0.417, -0.846, -0.048, 0.042, -0.12, 0
2109918, 4.307, -0.154, -1.755, -0.241, 0.006, -0.113, 0
2109938, 4.566, -0.415, -2.571, -0.438, -0.076, -0.159, 0
2109958, 4.305, 0.675, -2.395, -0.249, 0.127, -0.141, 0
2109978, 4.348, 0.583, -1.674, 0.116, 0.443, -0.171, 0
2109998, 4.552, -0.324, -0.549, 0.216, 0.504, -0.388, 0
2110018, 3.874, -1.107, 0.145, -0.083, 0.488, -0.6, 0
2110038, 2.688, -1.208, 0.817, -0.376, 0.592, -0.645, 0
2110058, 1.661, -2.13, 0.501, -0.405, 0.628, -0.662, 0
2110078, 0.299, -1.926, 0.229, -0.094, 0.576, -0.792, 0
2110098, -0.883, -2.524, -0.402, 0.133, 0.478, -0.823, 0
2110118, -2.23, -2.624, -0.713, 0.091, 0.525, -0.759, 0
2110138, -2.755, -2.127, -0.481, -0.054, 0.642, -0.734, 0
2110158, -3.484, -2.079, -0.347, -0.046, 0.598, -0.733, 0
2110178, -4.479, -2.42, -0.52, -0.103, 0.622, -0.796, 0
2110198, -4.763, -2.137, -0.301, -0.18, 0.561, -0.826, 0
2110218, -5.153, -1.618, 0.078, -0.291, 0.261, -0.847, 0
2110238, -5.788, -1.232, -0.037, -0.437, -0.082, -0.855, 0
2110258, -6.669, -0.646, -0.382, -0.505, -0.188, -0.81, 0
2110278, -6.785, 0.33, -0.198, -0.368, -0.086, -0.74, 0
2110298, -6.674, 0.611, 0.173, -0.174, 0.031, -0.596, 0
2110318, -5.603, 0.212, 0.388, -0.172, 0.028, -0.444, 0
2110338, -4.274, 0.096, 0.651, -0.248, -0.142, -0.328, 0
2110358, -3.345, 0.109, 0.796, -0.243, -0.218, -0.199, 0
2110378, -2.967, 0.04, 0.484, -0.128, -0.224, -0.106, 0
2110398, -2.551, 0.143, 0.244, 0.051, -0.086, 0.027, 0
2110418, -0.864, -0.719, 0.062, 0.053, -0.062, 0.1, 0
2110438, -0.571, -0.83, -0.042, -0.035, -0.131, 0.094, 0
2110458, -0.665, -0.506, -0.209, -0.042, -0.131, 0.097, 0
2110478, -0.3, -0.381, -0.324, 0.028, -0.059, 0.131, 0
2110498, -0.157, -0.67, -0.555, 0.045, 0.023, 0.137, 0
2110518, 0.113, -0.603, -0.562, 0.01, 0.081, 0.123, 0
2110538, -0.158, -0.433, -0.637, 0.095, 0.091, 0.027, 0
2110558, -0.4, -0.558, -0.81, 0.122, 0.175, -0.018, 1
2110578, 0.183, -0.458, -0.645, 0.052, 0.328, -0.01, 1
2110598, -0.45, -0.584, -0.836, -0.078, 0.435, -0.015, 1
2110618, -0.859, -0.289, -0.77, -0.206, 0.601, 0.034, 1
2110638, -0.722, -0.266, -0.45, -0.24, 0.559, 0.072, 1
2110658, -0.739, -0.588, -0.33, -0.152, 0.383, 0.046, 1
2110678, -1.048, -0.719, -0.367, -0.153, 0.342, 0.039, 1
2110698, -1.402, -0.398, -0.369, -0.179, 0.334, 0.038, 1
2110718, -1.861, -0.156, -0.283, -0.151, 0.331, 0.084, 1
2110738, -2.169, -0.063, -0.1, -0.192, 0.301, 0.154, 1
2110758, -2.493, -0.054, -0.085, -0.216, 0.215, 0.224, 1
2110778, -3.104, -0.015, -0.106, -0.111, 0.216, 0.262, 1
2110798, -3.562, -0.194, -0.075, 0.006, 0.328, 0.345, 1
2110818, -3.499, -0.494, 0.023, 0.001, 0.403, 0.449, 1
2110838, -2.789, -0.574, 0.345, -0.147, 0.301, 0.518, 1
2110858, -2.793, -0.331, 0.655, -0.254, 0.032, 0.551, 1
2110878, -2.857, 0.079, 0.945, -0.238, -0.135, 0.665, 1
2110898, -2.258, -0.141, 0.885, -0.092, -0.326, 0.783, 1
2110918, -1.806, -0.522, 0.709, -0.079, -0.393, 0.844, 1
2110938, -1.178, -0.811, 0.503, -0.161, -0.333, 0.854, 1
2110958, 0.154, -0.82, 0.407, -0.269, -0.352, 0.694, 1
2110978, 0.619, 0.022, 0.302, -0.164, -0.522, 0.726, 1
2110998, 1.263, -0.264, -0.15, -0.085, -0.792, 0.756, 1
2111018, 1.404, -0.891, -0.877, -0.16, -0.981, 0.889, 1
2111038, 1.601, -0.643, -1.215, -0.172, -0.867, 0.978, 1
2111058, 2.694, -1.063, -1.424, -0.219, -0.613, 0.856, 1
2111078, 3.36, -1.28, -1.389, -0.282, -0.394, 0.555, 1
2111098, 3.428, -0.606, -1.02, -0.221, -0.315, 0.53, 1
2111118, 2.943, -0.266, -0.798, -0.175, -0.308, 0.879, 1
2111138, 3.446, -0.156, -0.522, -0.284, -0.326, 0.755, 1
2111158, 3.382, 0.099, -0.323, -0.222, -0.353, 0.527, 1
2111178, 3.055, -0.067, 0.038, -0.053, -0.186, 0.067, 1
2111198, 2.381, 0.403, 0.302, 0.267, 0.005, -0.018, 1
2111218, 1.922, 0.29, 0.178, 0.43, 0.035, 0.394, 1
2111238, 2.285, -0.699, -0.214, 0.182, -0.156, 0.522, 1
2111258, 2.073, -0.62, -0.249, 0.031, -0.464, 0.405, 1
2111278, 1.108, -0.506, -0.564, 0.083, -0.369, 0.234, 1
2111298, 0.484, -0.519, -0.836, 0.121, 0.014, 0.226, 1
2111318, 0.626, -0.736, -0.798, 0.078, 0.191, 0.331, 1
2111338, 0.888, -0.899, -0.666, -0.075, 0.049, 0.348, 0
2111358, 0.569, -0.623, -0.507, -0.205, -0.112, 0.244, 0
2111378, -0.099, -0.058, -0.357, -0.141, 0.091, 0.175, 0
2111398, -0.182, -0.248, -0.117, -0.132, 0.16, 0.159, 0
2111418, -0.192, -0.167, -0.107, -0.218, 0.08, 0.121, 0
2111438, -0.235, -0.047, -0.072, -0.25, 0.039, 0.061, 0
2111458, -0.541, 0.06, -0.086, -0.144, 0.007, -0.018, 0
2111478, -0.685, 0.019, -0.189, -0.147, 0.025, 0.041, 0
2111498, -0.584, 0.089, -0.156, -0.169, 0.061, 0.113, 0
2111518, -0.298, -0.115, -0.167, -0.135, 0.038, 0.118, 0
2111538, -0.162, -0.101, -0.176, -0.127, 0.046, 0.076, 0
2111558, -0.032, -0.146, -0.159, -0.073, 0.069, 0.026, 0
2111578, 0.208, -0.173, -0.183, -0.072, 0.071, 0.037, 0
2111598, 0.414, 0.039, -0.196, -0.125, 0.055, 0.032, 0
2111618, 0.691, 0.123, -0.298, -0.111, 0.032, 0.076, 0
2111638, 1.38, 0.093, -0.517, -0.094, 0.039, 0.034, 0
2111658, 2.342, 0.103, -0.855, -0.096, 0.054, -0.004, 0
2111678, 3.091, -0.29, -1.32, -0.109, 0.113, -0.111, 0
2111698, 3.285, -0.331, -1.67, -0.16, 0.216, -0.237, 0
2111718, 3.871, 0.013, -1.811, -0.25, 0.374, -0.233, 0
2111738, 4.858, -0.237, -2.164, -0.349, 0.432, -0.194, 0
2111758, 4.793, -1.47, -2.559, -0.489, 0.385, -0.301, 0
2111778, 3.555, -1.163, -1.791, -0.512, 0.465, -0.618, 0
2111798, 2.536, -0.38, -0.268, -0.154, 0.72, -0.85, 0
2111818, 2.31, -0.073, 1.216, 0.166, 0.853, -0.896, 0
2111838, 1.076, -0.391, 1.683, 0.156, 0.623, -0.9, 0
2111858, -0.984, -1.047, 0.941, -0.19, 0.268, -0.829, 0
2111878, -3.048, -0.575, 0.497, 0.019, 0.551, -0.745, 0
2111898, -3.622, -0.702, 0.695, 0.583, 1.012, -0.775, 0
2111918, -2.919, -1.856, 0.858, 0.711, 0.987, -0.816, 0
2111938, -2.573, -2.853, 0.436, 0.119, 0.309, -0.829, 0
2111958, -4.295, -1.838, -0.101, -0.091, 0.043, -0.814, 0
2111978, -4.998, -0.899, -0.248, 0.091, 0.213, -0.758, 0
2111998, -4.756, -0.832, 0.023, 0.193, 0.339, -0.684, 0
2112018, -4.414, -0.817, 0.38, 0.21, 0.167, -0.631, 0
2112038, -4.295, -0.593, 0.328, 0.118, -0.058, -0.55, 0
2112058, -4.237, 0.019, 0.286, 0.037, -0.21, -0.442, 0
2112078, -4.35, 0.115, 0.0, 0.087, -0.254, -0.351, 0
2112098, -4.343, -0.192, -0.239, 0.137, -0.224, -0.26, 0
2112118, -4.285, -0.515, -0.469, 0.161, -0.153, -0.157, 0
2112138, -3.612, -0.762, -0.407, 0.113, -0.091, -0.068, 0
2112158, -2.777, -0.75, -0.151, 0.055, -0.076, -0.031, 0
2112178, -2.253, -0.603, -0.141, 0.095, -0.092, -0.009, 0
2112198, -1.997, -0.722, -0.425, 0.051, -0.131, -0.01, 0
2112218, -1.769, -0.572, -0.535, 0.034, -0.039, 0.011, 0
2112238, -0.941, -0.485, -0.401, -0.003, -0.021, 0.037, 0
2112258, -0.303, -0.289, -0.425, -0.111, -0.124, 0.053, 0
2112278, -0.112, -0.052, -0.559, -0.122, -0.121, 0.083, 0
2112298, -0.059, -0.154, -0.819, -0.103, -0.089, 0.101, 0
2112318, -0.078, -0.287, -1.021, -0.147, 0.025, 0.13, 0
2112338, -0.095, -0.486, -0.763, -0.204, 0.136, 0.155, 1
2112358, -0.089, -0.557, -0.565, -0.257, 0.284, 0.142, 1
2112378, 0.14, -0.629, -0.372, -0.338, 0.437, 0.098, 1
2112398, 0.099, -0.568, -0.287, -0.314, 0.434, 0.051, 1
2112418, -0.274, -0.439, -0.306, -0.195, 0.43, -0.006, 1
2112438, -0.433, -0.1, -0.221, -0.2, 0.492, 0.017, 1
2112458, -0.263, -0.009, 0.027, -0.251, 0.437, 0.045, 1
2112478, -0.219, -0.211, 0.047, -0.237, 0.29, 0.024, 1
2112498, -0.55, -0.381, -0.176, -0.23, 0.118, -0.01, 1
2112518, -1.168, -0.34, -0.352, -0.246, 0.038, -0.028, 1
2112538, -2.119, -0.231, -0.529, -0.236, 0.039, -0.017, 1
2112558, -2.74, -0.238, -0.413, -0.17, 0.105, 0.032, 1
2112578, -3.279, -0.43, -0.343, -0.084, 0.172, 0.087, 1
2112598, -3.481, -0.865, -0.265, -0.114, 0.244, 0.125, 1
2112618, -3.737, -1.112, -0.122, -0.414, 0.01, 0.108, 1
2112638, -4.598, -0.282, 0.325, -0.677, -0.309, 0.089, 1
2112658, -4.516, 0.692, 0.827, -0.614, -0.35, 0.238, 1
2112678, -3.599, 1.041, 1.128, -0.296, -0.288, 0.428, 1
2112698, -2.355, 0.676, 1.011, -0.07, -0.32, 0.622, 1
2112718, -1.071, -0.463, 0.458, -0.051, -0.389, 0.822, 1
2112738, -0.387, -0.775, 0.029, -0.321, -0.455, 0.915, 1
2112758, 0.619, -0.701, 0.19, -0.436, -0.433, 1.174, 1
2112778, 1.556, -0.854, 0.29, -0.382, -0.48, 1.235, 1
2112798, 2.535, -1.048, 0.333, -0.26, -0.595, 1.153, 1
2112818, 2.52, -0.655, 0.408, -0.069, -0.737, 1.081, 1
2112838, 2.687, -1.485, -0.13, -0.012, -0.803, 0.932, 1
2112858, 2.987, -1.134, -0.536, -0.203, -0.458, 0.678, 1
2112878, 3.16, -0.681, -0.499, -0.251, -0.183, 0.432, 1
2112898, 3.39, -0.393, -0.202, -0.067, -0.088, 0.185, 1
2112918, 3.364, -0.51, -0.035, 0.191, -0.095, -0.045, 1
2112938, 2.956, -0.441, 0.14, 0.437, 0.009, -0.114, 1
2112958, 2.838, -0.678, 0.101, 0.49, 0.087, -0.064, 1
2112978, 3.025, -0.618, -0.191, 0.274, -0.047, 0.105, 1
2112998, 2.823, -0.097, -0.514, 0.048, -0.483, 0.514, 1
2113018, 2.593, -0.116, -0.824, -0.163, -0.842, 0.459, 1
2113038, 1.746, 0.328, -1.009, -0.111, -0.923, 0.293, 1
2113058, 0.861, 0.199, -1.177, 0.067, -0.722, 0.175, 1
2113078, -0.036, 0.194, -1.264, 0.166, -0.252, 0.22, 1
2113098, -0.138, 0.128, -1.163, 0.242, 0.165, 0.508, 1
2113118, 0.608, -0.307, -0.767, 0.147, 0.189, 0.554, 1
2113138, 0.708, -0.405, -0.525, 0.009, -0.045, 0.479, 1
2113158, 0.237, -0.254, -0.461, -0.067, -0.175, 0.334, 1
2113178, -0.332, -0.012, -0.582, -0.074, -0.042, 0.304, 0
2113198, -0.035, -0.109, -0.594, -0.077, 0.148, 0.328, 0
2113218, -0.054, -0.318, -0.469, -0.037, 0.209, 0.32, 0
2113238, 0.195, -0.521, -0.316, -0.089, 0.061, 0.169, 0
2113258, -0.158, -0.133, -0.179, -0.148, -0.014, 0.133, 0
2113278, -0.327, 0.037, -0.067, -0.108, -0.017, 0.167, 0
2113298, -0.418, 0.06, -0.091, -0.06, 0.037, 0.177, 0
2113318, -0.262, -0.067, -0.192, -0.097, 0.106, 0.202, 0
2113338, 0.003, -0.118, -0.227, -0.167, 0.081, 0.116, 0
2113358, -0.098, 0.005, -0.225, -0.219, 0.104, 0.122, 0
2113378, 0.161, 0.124, -0.055, -0.235, 0.118, 0.147, 0
2113398, 0.262, 0.005, -0.154, -0.172, 0.094, 0.108, 0
2113418, 0.412, -0.216, -0.366, -0.113, 0.085, 0.036, 0
2113438, 0.693, -0.298, -0.539, -0.088, 0.066, -0.049, 0
2113458, 1.045, -0.238, -0.715, -0.101, 0.028, -0.057, 0
2113478, 1.559, -0.119, -0.806, -0.185, 0.036, -0.009, 0
2113498, 1.923, -0.059, -0.89, -0.221, 0.105, -0.051, 0
2113518, 2.344, -0.02, -1.073, -0.216, 0.225, -0.103, 0
2113538, 3.011, 0.309, -1.25, -0.235, 0.282, -0.109, 0
2113558, 3.745, 0.941, -1.539, -0.247, 0.305, -0.078, 0
2113578, 4.524, -0.237, -2.327, -0.251, 0.298, 0.084, 0
2113598, 5.051, -1.915, -2.524, -0.36, 0.068, 0.054, 0
2113618, 3.605, -2.088, -2.072, -0.431, -0.12, -0.213, 0
2113638, 2.274, -1.79, -1.527, -0.156, 0.16, -0.438, 0
2113658, 0.87, -1.588, -1.34, 0.135, 0.577, -0.617, 0
2113678, -0.21, -1.742, -0.997, -0.032, 0.966, -0.872, 0
2113698, -1.315, -1.004, -0.157, -0.403, 1.136, -0.965, 0
2113718, -2.775, 0.303, 0.866, -0.594, 1.042, -1.034, 0
2113738, -4.144, 0.758, 1.51, -0.37, 1.014, -0.999, 0
2113758, -4.517, 0.189, 1.575, -0.044, 1.042, -0.889, 0
2113778, -4.703, -0.438, 1.718, 0.091, 0.929, -0.778, 0
2113798, -4.306, -0.329, 2.033, 0.13, 0.777, -0.61, 0
2113818, -3.248, -0.206, 2.233, 0.302, 0.538, -0.472, 0
2113838, -3.087, -0.691, 1.827, 0.392, 0.334, -0.398, 0
2113858, -3.199, -1.108, 1.316, 0.424, 0.001, -0.393, 0
2113878, -3.455, -1.141, 0.519, 0.456, -0.333, -0.365, 0
2113898, -3.767, -1.752, -0.527, 0.307, -0.375, -0.315, 0
2113918, -3.976, -2.042, -1.17, 0.169, -0.316, -0.298, 0
2113938, -3.604, -1.361, -1.238, 0.203, -0.202, -0.296, 0
2113958, -3.58, -1.552, -1.378, 0.241, -0.037, -0.298, 0
2113978, -3.412, -1.226, -1.18, 0.141, 0.036, -0.257, 0
2113998, -3.184, -1.047, -0.711, 0.003, 0.075, -0.191, 0
2114018, -2.852, -0.756, -0.147, -0.057, 0.105, -0.155, 0
2114038, -2.372, -0.745, 0.359, -0.042, 0.051, -0.184, 0
2114058, -1.83, -0.688, 0.513, -0.031, -0.071, -0.176, 0
2114078, -1.566, -0.379, 0.441, -0.049, -0.144, -0.105, 0
2114098, -1.205, -0.017, 0.288, -0.048, -0.143, -0.029, 0
2114118, -0.919, -0.046, 0.016, -0.016, -0.16, 0.01, 0
2114138, -0.776, -0.144, -0.42, 0.011, -0.146, 0.048, 0
2114158, -0.499, -0.302, -0.62, 0.012, -0.002, 0.117, 0
2114178, 0.06, -0.644, -0.683, -0.033, 0.091, 0.122, 1
2114198, 0.15, -0.761, -0.728, -0.087, 0.155, 0.1, 1
2114218, 0.14, -0.536, -0.578, -0.083, 0.228, 0.045, 1
2114238, 0.026, -0.87, -1.029, -0.244, 0.354, -0.008, 1
2114258, -0.197, -0.785, -1.112, -0.456, 0.511, 0.02, 1
2114278, 0.072, -0.481, -0.718, -0.524, 0.503, 0.036, 1
2114298, 0.448, -0.022, -0.221, -0.375, 0.243, -0.029, 1
2114318, -0.48, -0.35, -0.658, -0.194, 0.01, -0.047, 1
2114338, -0.37, -0.307, -0.705, -0.223, 0.095, -0.01, 1
2114358, -0.301, -0.253, -0.469, -0.31, 0.148, 0.036, 1
2114378, -0.599, -0.294, -0.371, -0.318, 0.131, 0.025, 1
2114398, -0.97, -0.317, -0.284, -0.286, 0.169, 0.028, 1
2114418, -1.007, -0.399, -0.118, -0.259, 0.26, 0.057, 1
2114438, -0.824, -0.558, 0.087, -0.233, 0.289, 0.099, 1
2114458, -1.021, -0.634, -0.019, -0.194, 0.189, 0.067, 1
2114478, -1.824, -0.832, -0.311, -0.177, 0.102, 0.04, 1
2114498, -2.667, -0.806, -0.556, -0.183, 0.118, 0.048, 1
2114518, -3.27, -0.864, -0.608, -0.249, 0.241, 0.095, 1
2114538, -3.454, -0.668, -0.434, -0.228, 0.302, 0.158, 1
2114558, -3.787, -0.732, -0.369, -0.299, 0.299, 0.23, 1
2114578, -3.698, -0.674, -0.043, -0.423, 0.242, 0.323, 1
2114598, -3.231, -0.33, 0.133, -0.481, 0.106, 0.419, 1
2114618, -2.988, -0.097, 0.447, -0.466, -0.02, 0.533, 1
2114638, -2.169, -0.057, 0.965, -0.423, -0.072, 0.672, 1
2114658, -0.821, -0.008, 1.307, -0.297, -0.204, 0.813, 1
2114678, -0.04, -0.123, 0.942, -0.167, -0.424, 0.986, 1
2114698, 0.654, -0.234, 0.391, -0.137, -0.561, 1.169, 1
2114718, 1.468, -0.553, 0.007, -0.137, -0.621, 1.238, 1
2114738, 2.441, -0.951, -0.315, -0.103, -0.661, 1.135, 1
2114758, 2.786, -0.938, -0.391, 0.009, -0.66, 1.127, 1
2114778, 3.104, -0.822, -0.377, 0.067, -0.627, 1.172, 1
2114798, 3.357, -0.517, -0.248, 0.021, -0.544, 1.124, 1
2114818, 3.574, -0.461, -0.286, 0.007, -0.485, 0.978, 1
2114838, 3.617, -0.954, -0.392, -0.047, -0.404, 0.728, 1
2114858, 2.932, -0.972, -0.313, -0.106, -0.276, 0.639, 1
2114878, 2.233, -0.079, 0.039, -0.047, -0.045, 0.81, 1
2114898, 2.144, 0.613, 0.312, 0.046, 0.109, 0.83, 1
2114918, 2.328, 0.94, 0.448, 0.105, 0.081, 0.857, 1
2114938, 2.515, 0.216, 0.17, -0.015, -0.049, 0.73, 1
2114958, 2.705, -0.713, -0.323, -0.207, -0.268, 0.463, 1
2114978, 2.228, -1.193, -0.788, -0.36, -0.552, 0.552, 1
2114998, 1.389, -1.378, -0.999, -0.505, -0.485, 0.541, 1
2115018, 0.463, -0.539, -0.687, -0.35, -0.143, 0.475, 1
2115038, 0.245, 0.026, -0.235, 0.083, 0.213, 0.417, 1
2115058, 0.713, -0.144, 0.135, 0.376, 0.296, 0.268, 1
2115078, 0.54, -0.493, 0.138, 0.39, 0.15, 0.304, 1
2115098, 0.572, -1.14, -0.235, 0.015, -0.083, 0.356, 1
2115118, 0.117, -0.775, -0.398, -0.354, -0.205, 0.331, 1
2115138, -0.275, -0.135, -0.241, -0.321, -0.167, 0.258, 1
2115158, -0.438, 0.157, -0.259, -0.007, -0.008, 0.108, 1
2115178, -0.47, -0.067, -0.552, 0.255, 0.118, 0.101, 1
2115198, 0.035, -0.535, -0.675, 0.219, 0.047, 0.111, 1
2115218, 0.064, -0.644, -0.706, -0.002, -0.123, 0.127, 1
2115238, -0.143, -0.214, -0.631, -0.113, -0.174, 0.149, 1
2115258, -0.305, 0.043, -0.423, -0.028, -0.099, 0.099, 1
2115278, -0.139, 0.039, -0.242, 0.114, -0.032, -0.004, 0
2115298, -0.04, -0.049, -0.284, 0.071, -0.08, 0.043, 0
2115318, -0.288, -0.266, -0.506, -0.078, -0.064, 0.092, 0
2115338, -0.082, -0.054, -0.399, -0.196, 0.018, 0.102, 0
2115358, -0.034, -0.106, -0.318, -0.185, 0.065, 0.059, 0
2115378, 0.033, -0.185, -0.355, -0.198, 0.131, 0.026, 0
2115398, -0.037, -0.029, -0.298, -0.236, 0.153, 0.042, 0
2115418, -0.024, -0.033, -0.168, -0.269, 0.136, 0.072, 0
2115438, 0.065, 0.023, -0.021, -0.265, 0.07, 0.07, 0
2115458, 0.011, -0.022, -0.093, -0.152, -0.004, 0.033, 0
2115478, 0.159, -0.054, -0.123, -0.08, -0.001, 0.0, 0
2115498, 0.543, -0.172, -0.123, -0.023, 0.018, -0.03, 0
2115518, 1.217, -0.219, -0.204, -0.063, 0.026, -0.028, 0
2115538, 1.944, -0.205, -0.326, -0.117, -0.042, -0.046, 0
2115558, 2.496, -0.076, -0.695, -0.159, -0.088, -0.098, 0
2115578, 2.834, -0.109, -1.183, -0.184, -0.04, -0.168, 0
2115598, 3.569, -0.338, -1.526, -0.202, 0.098, -0.226, 0
2115618, 3.9, -0.658, -1.931, -0.24, 0.274, -0.228, 0
2115638, 4.733, -1.269, -1.95, -0.315, 0.469, -0.076, 0
2115658, 4.008, -0.98, -1.368, -0.383, 0.578, -0.277, 0
2115678, 3.071, -0.519, -0.389, -0.206, 0.769, -0.365, 0
2115698, 2.923, -0.63, 0.428, -0.039, 0.871, -0.467, 0
2115718, 1.562, -0.822, 0.198, -0.004, 0.796, -0.661, 0
2115738, 0.192, -0.747, -0.216, -0.01, 0.951, -0.804, 0
2115758, -0.457, 0.323, -0.151, -0.064, 1.06, -0.884, 0
2115778, -0.916, -0.611, -0.539, 0.182, 1.152, -0.93, 0
2115798, -1.619, -2.885, -1.429, 0.242, 1.101, -1.065, 0
2115818, -2.419, -3.546, -1.601, 0.02, 0.929, -1.178, 0
2115838, -3.221, -3.008, -0.91, -0.246, 0.599, -1.23, 0
2115858, -4.283, -1.587, 0.079, -0.216, 0.354, -1.224, 0
2115878, -4.805, -1.179, 0.579, -0.055, 0.194, -1.156, 0
2115898, -5.041, -1.644, 0.238, 0.042, -0.02, -1.161, 0
2115918, -5.467, -1.903, -0.475, -0.034, -0.061, -1.144, 0
2115938, -5.77, -1.247, -0.657, -0.166, -0.036, -1.035, 0
2115958, -6.141, -0.464, -0.481, -0.257, -0.054, -0.883, 0
2115978, -5.986, 0.523, 0.176, -0.089, -0.017, -0.712, 0
2115998, -5.014, 0.55, 0.819, 0.137, 0.003, -0.527, 0
2116018, -4.197, -0.622, 0.683, -0.065, -0.231, -0.36, 0
2116038, -3.765, -0.575, 0.58, -0.379, -0.494, -0.23, 0
2116058, -3.449, 0.224, 0.532, -0.279, -0.42, -0.111, 0
2116078, -2.589, 0.079, 0.448, -0.014, -0.243, -0.019, 0
2116098, -1.92, -0.125, 0.543, 0.136, -0.127, 0.057, 0
2116118, -0.943, -0.177, 0.691, 0.191, -0.213, 0.097, 0
2116138, -0.41, -0.21, 0.451, 0.229, -0.295, 0.138, 0
2116158, -0.107, -0.438, -0.328, 0.164, -0.301, 0.172, 0
2116178, -0.078, -0.533, -0.954, 0.181, -0.227, 0.155, 0
2116198, -0.195, -0.777, -1.387, 0.172, -0.066, 0.127, 0
2116218, -0.184, -0.542, -1.323, 0.171, 0.103, 0.124, 0
2116238, 0.054, -0.521, -1.135, 0.163, 0.163, 0.123, 0
2116258, 0.192, -0.683, -0.939, 0.081, 0.025, 0.072, 1
2116278, -0.805, -0.395, -0.724, 0.115, 0.123, 0.038, 1
2116298, -0.614, -0.695, -0.904, 0.009, 0.273, -0.007, 1
2116318, -0.901, -0.301, -0.767, -0.222, 0.292, -0.036, 1
2116338, -1.163, -0.566, -0.806, -0.181, 0.345, -0.062, 1
2116358, -0.57, -0.337, -0.385, -0.231, 0.317, -0.012, 1
2116378, -0.803, -0.47, -0.502, -0.276, 0.135, -0.018, 1
2116398, -1.246, -0.495, -0.796, -0.326, 0.072, 0.032, 1
2116418, -1.673, -0.407, -0.945, -0.354, 0.106, 0.069, 1
2116438, -2.009, -0.581, -1.017, -0.355, 0.185, 0.102, 1
2116458, -2.401, -0.509, -0.895, -0.379, 0.224, 0.114, 1
2116478, -2.803, -0.516, -0.657, -0.414, 0.263, 0.197, 1
2116498, -2.59, -0.28, -0.245, -0.444, 0.27, 0.312, 1
2116518, -2.253, -0.582, -0.222, -0.398, 0.213, 0.412, 1
2116538, -2.261, -0.689, -0.151, -0.422, 0.105, 0.461, 1
2116558, -2.256, -0.715, 0.056, -0.457, 0.085, 0.498, 1
2116578, -1.886, -0.264, 0.544, -0.444, 0.121, 0.555, 1
2116598, -1.372, -0.089, 1.129, -0.422, 0.075, 0.623, 1
2116618, -0.997, -0.399, 1.258, -0.343, -0.091, 0.712, 1
2116638, -0.891, -0.705, 1.235, -0.291, -0.275, 0.798, 1
2116658, 0.018, -0.032, 1.358, -0.286, -0.361, 0.974, 1
2116678, 0.718, -0.256, 1.084, -0.248, -0.533, 1.067, 1
2116698, 1.342, -0.557, 0.521, -0.213, -0.831, 1.032, 1
2116718, 1.435, -0.798, 0.012, -0.173, -0.97, 0.901, 1
2116738, 1.604, -0.791, -0.317, -0.039, -0.972, 0.995, 1
2116758, 1.792, -0.866, -0.629, 0.141, -0.831, 1.1, 1
2116778, 2.415, -1.005, -0.884, 0.144, -0.739, 1.064, 1
2116798, 3.181, -0.935, -1.152, 0.102, -0.756, 0.927, 1
2116818, 3.332, -1.126, -1.267, 0.009, -0.772, 0.722, 1
2116838, 2.544, -0.689, -1.109, -0.017, -0.67, 0.847, 1
2116858, 2.35, -0.61, -1.06, -0.133, -0.411, 0.965, 1
2116878, 2.301, -0.336, -0.69, -0.196, -0.143, 0.839, 1
2116898, 2.214, -0.26, -0.359, -0.149, 0.019, 0.748, 1
2116918, 2.29, -0.295, -0.064, -0.069, 0.021, 0.552, 1
2116938, 2.017, -0.103, 0.173, 0.065, -0.099, 0.539, 1
2116958, 1.793, -0.368, 0.031, 0.064, -0.241, 0.496, 1
2116978, 1.236, -0.386, -0.218, 0.025, -0.266, 0.418, 1
2116998, 0.808, -0.663, -0.483, 0.012, -0.164, 0.343, 1
2117018, 0.673, -0.633, -0.453, 0.06, -0.031, 0.293, 1
2117038, 0.622, -0.475, -0.255, 0.143, 0.0, 0.375, 1
2117058, 0.644, -0.517, -0.226, 0.114, -0.05, 0.309, 1
2117078, 0.214, -0.432, -0.293, 0.065, -0.051, 0.309, 1
2117098, 0.078, -0.464, -0.402, -0.004, 0.003, 0.268, 1
2117118, -0.023, -0.301, -0.255, -0.003, 0.02, 0.232, 1
2117138, -0.252, -0.114, -0.149, 0.056, 0.069, 0.185, 1
2117158, -0.302, -0.318, -0.18, 0.052, 0.127, 0.182, 1
2117178, -0.21, -0.337, -0.113, 0.012, 0.098, 0.164, 1
2117198, -0.161, -0.159, -0.068, -0.01, 0.039, 0.127, 1
2117218, -0.363, 0.16, -0.05, 0.031, 0.082, 0.089, 1
2117238, -0.457, 0.274, 0.058, 0.172, 0.069, 0.105, 1
2117258, -0.319, -0.104, -0.14, 0.159, -0.059, 0.075, 1
2117278, -0.612, -0.061, -0.343, 0.095, -0.076, 0.086, 1
2117298, -0.661, 0.0, -0.499, 0.03, 0.081, 0.153, 0
2117318, -0.443, -0.061, -0.392, -0.083, 0.107, 0.21, 0
2117338, -0.002, 0.0, -0.208, -0.105, 0.003, 0.2, 0
2117358, -0.193, -0.045, -0.414, -0.058, -0.032, 0.141, 0
2117378, -0.248, -0.285, -0.685, -0.098, 0.167, 0.153, 0
2117398, -0.147, -0.313, -0.663, -0.317, 0.39, 0.186, 0
2117418, 0.274, 0.067, -0.173, -0.462, 0.415, 0.21, 0
2117438, 0.567, 0.002, 0.043, -0.334, 0.201, 0.137, 0
2117458, 0.733, -0.077, 0.007, -0.271, 0.044, 0.098, 0
2117478, 0.931, -0.238, -0.185, -0.26, -0.004, 0.057, 0
2117498, 0.962, -0.195, -0.456, -0.263, 0.006, -0.015, 0
2117518, 1.078, -0.102, -0.621, -0.22, 0.073, -0.075, 0
2117538, 1.391, -0.048, -0.63, -0.143, 0.128, -0.143, 0
2117558, 1.663, -0.158, -0.637, -0.092, 0.15, -0.211, 0
2117578, 1.935, -0.359, -0.657, -0.139, 0.164, -0.265, 0
2117598, 2.514, -0.416, -0.71, -0.225, 0.212, -0.337, 0
2117618, 2.956, -0.585, -1.052, -0.304, 0.285, -0.434, 0
2117638, 3.153, -0.721, -1.426, -0.331, 0.357, -0.529, 0
2117658, 3.256, -0.288, -1.28, -0.353, 0.502, -0.629, 0
2117678, 3.233, 0.274, -0.603, -0.341, 0.669, -0.675, 0
2117698, 2.584, 0.186, -0.062, -0.271, 0.834, -0.742, 0
2117718, 1.682, 0.08, 0.121, -0.213, 1.098, -0.819, 0
2117738, 0.914, -0.626, -0.13, 0.01, 1.376, -0.89, 0
2117758, 0.072, -1.708, -0.663, 0.069, 1.419, -0.935, 0
2117778, -0.475, -1.965, -0.516, 0.094, 1.328, -0.941, 0
2117798, -1.45, -2.134, -0.467, 0.117, 1.186, -0.94, 0
2117818, -2.349, -2.198, -0.67, 0.048, 1.107, -0.868, 0
2117838, -2.871, -1.983, -0.586, -0.081, 0.963, -0.839, 0
2117858, -3.581, -1.837, -0.597, -0.315, 0.778, -0.741, 0
2117878, -3.592, -0.944, -0.377, -0.192, 0.427, -0.704, 0
2117898, -3.81, -1.361, -0.71, 0.069, 0.149, -0.713, 0
2117918, -4.135, -1.954, -1.293, 0.175, -0.025, -0.736, 0
2117938, -4.202, -2.133, -1.679, 0.115, -0.105, -0.743, 0
2117958, -4.102, -1.481, -1.423, 0.018, -0.085, -0.688, 0
2117978, -3.746, -1.027, -0.829, -0.017, -0.24, -0.696, 0
2117998, -3.921, -0.582, -0.492, 0.003, -0.437, -0.662, 0
2118018, -4.58, -0.355, -0.24, 0.002, -0.371, -0.593, 0
2118038, -4.212, -0.384, -0.16, -0.077, -0.16, -0.499, 0
2118058, -3.635, 0.111, -0.044, -0.155, 0.031, -0.464, 0
2118078, -3.464, -0.013, -0.315, -0.266, 0.033, -0.361, 0
2118098, -2.564, 0.151, -0.113, -0.302, -0.412, -0.251, 0
2118118, -2.944, -0.154, 0.058, -0.363, -0.511, -0.149, 0
2118138, -2.667, -0.025, 0.29, -0.292, -0.232, 0.004, 0
2118158, -1.804, -0.152, 0.284, -0.229, -0.089, 0.134, 0
2118178, -1.36, -0.381, -0.102, -0.24, -0.069, 0.172, 0
2118198, -1.156, -0.592, -0.245, -0.074, -0.028, 0.144, 0
2118218, -0.532, -0.971, -0.225, 0.059, 0.062, 0.17, 0
2118238, -0.077, -0.914, -0.464, 0.041, 0.092, 0.147, 0
2118258, 0.023, -0.821, -0.559, -0.023, 0.109, 0.136, 0
2118278, 0.209, -0.56, -0.621, -0.11, 0.052, 0.089, 1
2118298, -0.297, -0.573, -0.861, -0.207, 0.153, 0.076, 1
2118318, -0.313, -0.624, -1.09, -0.357, 0.306, 0.076, 1
2118338, -0.749, -0.359, -1.001, -0.348, 0.454, 0.053, 1
2118358, -0.245, -0.11, -0.745, -0.245, 0.574, 0.048, 1
2118378, -0.393, -0.401, -0.368, -0.259, 0.509, 0.029, 1
2118398, -0.707, -0.773, -0.482, -0.334, 0.417, -0.003, 1
2118418, -1.32, -0.549, -0.515, -0.45, 0.404, -0.003, 1
2118438, -1.339, -0.326, -0.401, -0.409, 0.422, 0.098, 1
2118458, -1.238, -0.353, -0.342, -0.357, 0.344, 0.144, 1
2118478, -1.61, -0.195, -0.244, -0.357, 0.262, 0.174, 1
2118498, -2.104, -0.165, -0.281, -0.308, 0.22, 0.23, 1
2118518, -2.279, -0.083, -0.265, -0.239, 0.172, 0.301, 1
2118538, -2.631, -0.192, -0.411, -0.186, 0.115, 0.346, 1
2118558, -2.717, -0.165, -0.372, -0.198, 0.089, 0.415, 1
2118578, -2.673, 0.236, 0.064, -0.222, 0.102, 0.505, 1
2118598, -2.149, 0.503, 0.461, -0.151, 0.065, 0.615, 1
2118618, -1.276, 0.542, 0.726, -0.036, -0.122, 0.66, 1
2118638, -1.021, -0.116, 0.226, 0.034, -0.381, 0.659, 1
2118658, -0.942, -0.684, -0.208, -0.042, -0.612, 0.681, 1
2118678, -0.721, -0.803, -0.175, -0.148, -0.778, 0.673, 1
2118698, 0.024, -0.301, -0.063, -0.136, -0.975, 0.816, 1
2118718, 0.499, -0.403, -0.266, -0.039, -1.207, 0.869, 1
2118738, 0.701, -0.734, -0.342, 0.045, -1.149, 0.832, 1
2118758, 1.215, -1.354, -0.282, 0.107, -1.129, 0.707, 1
2118778, 1.582, -0.849, -0.028, 0.212, -1.178, 0.736, 1
2118798, 1.605, -0.703, -0.258, 0.263, -1.15, 0.852, 1
2118818, 1.886, -0.757, -0.395, 0.169, -1.092, 1.003, 1
2118838, 2.117, -0.901, -0.519, 0.025, -0.978, 1.009, 1
2118858, 2.264, -0.589, -0.29, 0.062, -0.804, 0.913, 1
2118878, 2.519, -0.508, -0.135, 0.21, -0.667, 0.715, 1
2118898, 2.492, -0.391, -0.105, 0.303, -0.563, 0.645, 1
2118918, 1.591, -0.296, -0.152, 0.288, -0.351, 0.962, 1
2118938, 1.784, -0.83, -0.422, -0.06, -0.2, 1.034, 1
2118958, 1.615, -0.557, -0.291, -0.354, -0.188, 1.067, 1
2118978, 1.5, -0.1, 0.081, -0.353, -0.174, 1.004, 1
2118998, 1.445, 0.172, 0.477, -0.128, -0.147, 0.845, 1
2119018, 1.475, 0.224, 0.469, 0.144, -0.162, 0.695, 1
2119038, 1.144, -0.17, -0.188, 0.201, -0.117, 0.706, 1
2119058, 1.206, -0.827, -0.771, -0.04, 0.016, 0.621, 1
2119078, 1.297, -0.859, -0.938, -0.212, 0.087, 0.513, 1
2119098, 1.627, -0.543, -0.762, -0.089, 0.001, 0.287, 1
2119118, 1.236, -0.11, -0.589, 0.171, -0.13, 0.211, 1
2119138, 0.907, -0.533, -0.626, 0.241, -0.169, 0.214, 1
2119158, 0.576, -0.767, -0.753, 0.058, -0.141, 0.176, 1
2119178, 0.13, -0.359, -0.686, -0.048, -0.025, 0.111, 1
2119198, -0.099, 0.003, -0.2, 0.021, -0.007, 0.076, 1
2119218, -0.254, 0.051, -0.108, 0.073, -0.091, 0.065, 1
2119238, -0.567, -0.107, -0.19, 0.05, -0.125, 0.068, 1
2119258, -0.672, -0.158, -0.344, -0.019, -0.043, 0.067, 1
2119278, -0.615, -0.152, -0.46, -0.089, 0.074, 0.091, 0
2119298, -0.376, 0.159, -0.241, -0.105, 0.134, 0.106, 0
2119318, -0.335, 0.034, -0.222, -0.021, 0.114, 0.141, 0
2119338, -0.072, -0.014, -0.073, -0.012, 0.098, 0.161, 0
2119358, 0.025, -0.132, -0.085, -0.034, 0.008, 0.151, 0
2119378, 0.085, -0.198, -0.284, -0.032, -0.045, 0.125, 0
2119398, 0.213, -0.284, -0.456, -0.097, 0.055, 0.15, 0
2119418, 0.653, -0.273, -0.418, -0.153, 0.124, 0.158, 0
2119438, 0.784, -0.133, -0.462, -0.207, 0.082, 0.086, 0
2119458, 1.274, 0.083, -0.401, -0.219, 0.097, 0.072, 0
2119478, 1.972, -0.083, -0.487, -0.222, 0.045, 0.043, 0
2119498, 2.448, -0.465, -0.81, -0.324, -0.058, 0.021, 0
2119518, 2.245, -0.42, -1.067, -0.399, 0.009, -0.097, 0
2119538, 2.336, -0.168, -0.964, -0.293, 0.32, -0.145, 0
2119558, 2.928, -0.639, -1.087, -0.072, 0.602, -0.215, 0
2119578, 3.061, -0.994, -1.241, -0.05, 0.621, -0.384, 0
2119598, 2.497, -0.52, -1.065, -0.152, 0.483, -0.561, 0
2119618, 0.9, -0.459, -1.136, -0.171, 0.55, -0.605, 0
2119638, -0.043, -0.326, -0.644, -0.337, 0.978, -0.62, 0
2119658, 0.323, 0.538, 0.753, -0.302, 1.155, -0.632, 0
2119678, 0.551, 0.64, 1.316, -0.136, 0.62, -0.756, 0
2119698, -0.469, 0.189, 0.686, -0.221, 0.329, -0.762, 0
2119718, -1.26, 0.235, 0.13, -0.108, 0.347, -0.715, 0
2119738, -1.112, 0.133, -0.023, 0.194, 0.428, -0.731, 0
2119758, -0.846, -1.008, -0.827, 0.229, 0.478, -0.712, 0
2119778, -0.55, -1.008, -0.94, 0.106, 0.466, -0.69, 0
2119798, -0.881, -1.113, -0.875, 0.053, 0.411, -0.7, 0
2119818, -1.431, -1.698, -1.051, 0.069, 0.29, -0.769, 0
2119838, -2.519, -2.083, -1.245, 0.089, 0.275, -0.782, 0
2119858, -2.83, -2.493, -1.296, -0.043, 0.262, -0.801, 0
2119878, -3.746, -1.966, -0.797, -0.043, 0.242, -0.817, 0
2119898, -4.535, -1.534, -0.158, 0.119, 0.257, -0.768, 0
2119918, -4.38, -1.675, 0.355, 0.179, 0.23, -0.726, 0
2119938, -4.009, -1.697, 0.707, 0.058, -0.029, -0.686, 0
2119958, -4.926, -1.263, 0.292, -0.027, -0.117, -0.656, 0
2119978, -5.493, -0.389, 0.048, 0.009, 0.034, -0.518, 0
2119998, -4.786, 0.031, 0.125, 0.06, 0.131, -0.389, 0
2120018, -4.053, 0.035, 0.251, 0.017, 0.09, -0.284, 0
2120038, -3.032, 0.03, 0.419, 0.062, -0.032, -0.215, 0
2120058, -2.388, -0.075, 0.012, 0.067, -0.117, -0.161, 0
2120078, -2.4, -0.173, -0.436, 0.02, -0.127, -0.124, 0
2120098, -2.314, 0.141, -0.409, 0.021, 0.01, -0.026, 0
2120118, -1.458, 0.189, -0.129, 0.037, 0.075, 0.058, 0
2120138, -0.529, -0.025, -0.014, 0.025, 0.039, 0.096, 0
2120158, -0.095, -0.445, -0.167, 0.029, -0.035, 0.076, 0
2120178, -0.073, -0.846, -0.587, 0.013, 0.025, 0.051, 0
2120198, 0.046, -0.566, -0.473, -0.015, 0.156, 0.054, 0
2120218, 0.079, -0.52, -0.478, -0.002, 0.227, 0.043, 0
2120238, -0.283, -0.771, -0.789, -0.106, 0.323, 0.052, 1
2120258, -0.271, -0.546, -0.468, -0.215, 0.439, 0.044, 1
2120278, -0.084, -0.401, -0.198, -0.185, 0.47, -0.018, 1
2120298, -0.017, -0.479, -0.199, -0.076, 0.35, -0.09, 1
2120318, -0.418, -0.202, -0.273, -0.095, 0.201, -0.084, 1
2120338, -0.552, -0.239, -0.367, -0.094, 0.188, -0.047, 1
2120358, -0.679, -0.282, -0.441, -0.118, 0.214, -0.02, 1
2120378, -0.563, -0.32, -0.507, -0.188, 0.196, 0.001, 1
2120398, -0.845, -0.249, -0.643, -0.248, 0.167, -0.001, 1
2120418, -0.957, -0.258, -0.682, -0.248, 0.199, 0.011, 1
2120438, -1.274, -0.198, -0.673, -0.26, 0.208, 0.025, 1
2120458, -1.827, -0.051, -0.597, -0.268, 0.215, 0.045, 1
2120478, -1.927, 0.0, -0.463, -0.289, 0.242, 0.129, 1
2120498, -1.729, -0.005, -0.204, -0.338, 0.22, 0.202, 1
2120518, -1.941, -0.122, -0.14, -0.378, 0.148, 0.248, 1
2120538, -2.416, -0.003, -0.156, -0.36, 0.124, 0.299, 1
2120558, -2.366, 0.111, -0.015, -0.313, 0.137, 0.367, 1
2120578, -2.067, 0.034, 0.067, -0.301, 0.108, 0.44, 1
2120598, -1.825, -0.03, 0.218, -0.299, 0.038, 0.501, 1
2120618, -1.885, -0.53, 0.206, -0.321, -0.047, 0.572, 1
2120638, -1.325, -0.44, 0.378, -0.367, -0.128, 0.681, 1
2120658, -0.689, -0.4, 0.523, -0.354, -0.352, 0.778, 1
2120678, -0.308, -0.51, 0.537, -0.256, -0.457, 0.751, 1
2120698, 0.208, -0.995, 0.269, -0.221, -0.466, 0.658, 1
2120718, 0.094, -1.229, 0.176, -0.244, -0.401, 0.709, 1
2120738, 0.901, -0.636, 0.578, -0.232, -0.452, 0.829, 1
2120758, 1.776, -1.022, 0.526, -0.261, -0.807, 0.848, 1
2120778, 1.914, -0.867, 0.208, -0.268, -1.095, 0.667, 1
2120798, 1.369, -0.425, -0.057, -0.109, -0.968, 0.633, 1
2120818, 0.948, -0.259, -0.18, 0.036, -0.625, 0.825, 1
2120838, 1.759, -0.632, -0.353, -0.021, -0.415, 0.953, 1
2120858, 2.334, -0.366, -0.326, -0.139, -0.478, 0.97, 1
2120878, 2.535, -0.174, -0.332, -0.184, -0.618, 0.86, 1
2120898, 2.366, 0.247, -0.279, -0.098, -0.607, 0.713, 1
2120918, 2.289, 0.091, -0.398, -0.024, -0.455, 0.556, 1
2120938, 1.88, 0.224, -0.525, 0.018, -0.218, 0.626, 1
2120958, 1.826, 0.312, -0.277, 0.105, -0.031, 0.688, 1
2120978, 2.388, -0.014, -0.204, 0.126, -0.056, 0.605, 1
2120998, 2.758, -0.488, -0.257, 0.104, -0.231, 0.373, 1
2121018, 2.607, -0.48, -0.414, 0.205, -0.409, 0.239, 1
2121038, 1.954, -0.608, -0.921, 0.287, -0.479, 0.553, 1
2121058, 1.293, -0.909, -1.363, 0.045, -0.255, 0.882, 1
2121078, 0.776, -0.379, -1.114, -0.031, 0.056, 1.047, 1
2121098, 1.269, -0.063, -0.483, 0.191, 0.138, 0.794, 1
2121118, 1.135, -0.139, -0.288, 0.408, 0.087, 0.499, 1
2121138, 0.816, -0.584, -0.359, 0.218, 0.032, 0.271, 1
2121158, 0.086, -0.858, -0.155, -0.055, -0.032, 0.197, 1
2121178, -0.168, -0.037, -0.093, -0.086, -0.017, 0.189, 1
2121198, -0.288, -0.068, -0.128, -0.015, 0.061, 0.165, 1
2121218, -0.138, -0.047, 0.072, 0.055, 0.133, 0.122, 1
2121238, -0.082, -0.244, -0.025, 0.139, 0.016, 0.051, 0
2121258, -0.619, -0.255, -0.225, 0.028, -0.058, 0.07, 0
2121278, -0.337, 0.07, -0.058, -0.012, -0.02, 0.145, 0
2121298, -0.283, 0.185, 0.107, 0.089, -0.047, 0.096, 0
2121318, -0.177, -0.085, -0.061, 0.198, 0.007, 0.009, 0
2121338, -0.23, -0.267, -0.378, 0.148, 0.083, -0.006, 0
2121358, -0.302, -0.347, -0.639, -0.076, 0.186, 0.109, 0
2121378, 0.018, 0.03, -0.352, -0.257, 0.243, 0.186, 0
2121398, 0.141, 0.111, -0.125, -0.194, 0.161, 0.145, 0
2121418, 0.048, -0.102, -0.28, -0.09, 0.1, 0.073, 0
2121438, 0.247, -0.253, -0.3, -0.094, 0.151, 0.046, 0
2121458, 0.526, -0.25, -0.333, -0.152, 0.117, 0.036, 0
2121478, 0.641, -0.187, -0.368, -0.233, 0.025, 0.058, 0
2121498, 0.94, 0.066, -0.23, -0.267, -0.025, 0.042, 0
2121518, 1.115, 0.114, -0.248, -0.153, -0.029, -0.045, 0
2121538, 1.837, -0.082, -0.343, -0.065, 0.036, -0.094, 0
2121558, 2.633, -0.33, -0.656, -0.157, 0.029, -0.142, 0
2121578, 3.341, -0.724, -1.069, -0.378, -0.062, -0.168, 0
2121598, 3.441, -0.165, -1.143, -0.55, -0.116, -0.221, 0
2121618, 3.629, 0.559, -0.927, -0.419, 0.063, -0.31, 0
2121638, 3.485, 0.641, -0.606, -0.037, 0.554, -0.219, 0
2121658, 3.432, 0.306, 0.137, 0.106, 0.543, -0.183, 0
2121678, 3.354, -1.71, -0.427, 0.031, 0.386, -0.518, 0
2121698, 1.735, -2.223, -1.363, -0.108, 0.383, -0.794, 0
2121718, 0.282, -1.246, -1.32, -0.012, 0.717, -0.868, 0
2121738, -0.757, -0.712, -0.788, 0.251, 1.075, -0.856, 0
2121758, -1.208, -0.55, -0.274, 0.374, 1.051, -0.866, 0
2121778, -1.531, -1.621, -0.378, 0.129, 0.605, -0.872, 0
2121798, -2.11, -2.453, -0.678, -0.205, 0.197, -0.877, 0
2121818, -2.898, -1.449, -0.303, -0.175, 0.306, -0.886, 0
2121838, -2.987, -0.616, 0.269, 0.199, 0.428, -0.859, 0
2121858, -2.661, -1.056, 0.662, 0.376, 0.337, -0.841, 0
2121878, -2.757, -2.004, 0.267, 0.191, 0.07, -0.824, 0
2121898, -3.338, -1.971, -0.203, -0.015, -0.133, -0.896, 0
2121918, -3.985, -1.578, -0.627, -0.079, -0.12, -0.931, 0
2121938, -4.18, -0.954, -0.427, -0.01, -0.003, -0.884, 0
2121958, -4.383, -0.714, -0.417, -0.016, 0.075, -0.761, 0
2121978, -4.792, -0.536, -0.538, -0.091, 0.121, -0.627, 0
2121998, -5.206, -0.515, -0.643, -0.205, 0.178, -0.497, 0
2122018, -4.859, -0.246, -0.174, -0.293, 0.249, -0.363, 0
2122038, -4.04, 0.2, 0.385, -0.249, 0.137, -0.288, 0
2122058, -3.693, 0.29, 0.408, -0.224, -0.01, -0.208, 0
2122078, -3.135, 0.478, 0.324, -0.205, -0.049, -0.131, 0
2122098, -2.511, 0.227, 0.241, -0.182, -0.135, -0.053, 0
2122118, -2.036, -0.199, 0.081, -0.161, -0.139, 0.058, 0
2122138, -1.142, -0.643, 0.12, -0.109, -0.068, 0.089, 0
2122158, -0.716, -0.64, 0.248, -0.05, -0.034, 0.113, 0
2122178, 0.123, -0.439, 0.549, 0.008, -0.008, 0.155, 0
2122198, 0.387, -0.743, 0.39, 0.091, -0.106, 0.144, 0
2122218, 0.068, -0.994, -0.216, 0.064, -0.147, 0.105, 0
2122238, -0.207, -0.603, -0.5, 0.02, -0.053, 0.076, 0
2122258, -0.16, -0.418, -0.552, -0.02, 0.052, 0.068, 1
2122278, -0.134, -0.365, -0.559, -0.151, 0.194, 0.12, 1
2122298, -0.183, -0.303, -0.765, -0.266, 0.288, 0.115, 1
2122318, -0.332, -0.227, -0.758, -0.288, 0.367, 0.085, 1
2122338, -0.076, -0.098, -0.701, -0.262, 0.342, 0.001, 1
2122358, -0.427, -0.373, -0.858, -0.293, 0.241, -0.041, 1
2122378, -0.561, -0.08, -0.654, -0.346, 0.224, -0.01, 1
2122398, -0.427, 0.042, -0.343, -0.219, 0.248, 0.053, 1
2122418, -0.542, -0.372, -0.417, -0.097, 0.204, 0.037, 1
2122438, -0.845, -0.362, -0.444, -0.158, 0.157, 0.019, 1
2122458, -0.943, -0.086, -0.385, -0.228, 0.14, 0.039, 1
2122478, -1.117, -0.13, -0.473, -0.222, 0.124, 0.092, 1
2122498, -1.504, -0.433, -0.727, -0.215, 0.146, 0.102, 1
2122518, -2.16, -0.447, -0.788, -0.262, 0.218, 0.131, 1
2122538, -2.425, -0.082, -0.478, -0.26, 0.332, 0.176, 1
2122558, -2.488, 0.121, -0.168, -0.198, 0.343, 0.216, 1
2122578, -2.648, 0.217, -0.025, -0.183, 0.275, 0.265, 1
2122598, -2.831, 0.049, 0.254, -0.258, 0.18, 0.387, 1
2122618, -2.706, -0.355, 0.475, -0.367, 0.049, 0.457, 1
2122638, -2.276, -0.403, 0.627, -0.363, -0.065, 0.518, 1
2122658, -1.588, 0.386, 0.855, -0.266, -0.234, 0.74, 1
2122678, -0.943, 0.116, 0.652, -0.239, -0.368, 0.812, 1
2122698, -0.692, -0.434, 0.049, -0.339, -0.356, 0.883, 1
2122718, -0.137, -0.769, -0.225, -0.387, -0.27, 0.838, 1
2122738, 1.216, -0.328, 0.13, -0.331, -0.394, 0.64, 1
2122758, 1.888, -0.309, 0.235, -0.102, -0.752, 0.494, 1
2122778, 1.558, -0.055, 0.268, 0.15, -1.103, 0.808, 1
2122798, 1.307, -0.448, -0.061, 0.124, -1.062, 1.054, 1
2122818, 1.801, -0.602, -0.435, -0.084, -0.8, 1.03, 1
2122838, 2.375, -0.559, -0.851, -0.197, -0.549, 0.918, 1
2122858, 3.054, -0.436, -0.805, -0.166, -0.4, 0.638, 1
2122878, 2.867, -0.439, -0.49, -0.062, -0.256, 0.459, 1
2122898, 2.45, -0.576, -0.241, -0.023, -0.096, 0.602, 1
2122918, 2.34, -0.673, -0.162, -0.133, 0.039, 0.944, 1
2122938, 3.006, -0.973, -0.178, -0.335, -0.014, 0.974, 1
2122958, 3.2, -1.134, -0.17, -0.494, -0.072, 0.745, 1
2122978, 3.654, -1.083, -0.16, -0.402, -0.264, 0.465, 1
2122998, 3.159, -1.337, -0.665, -0.307, -0.401, 0.366, 1
2123018, 1.943, -1.082, -0.944, -0.31, -0.163, 0.412, 1
2123038, 1.217, -0.532, -0.742, -0.234, 0.202, 0.516, 1
2123058, 1.383, -0.431, -0.443, -0.123, 0.35, 0.485, 1
2123078, 1.631, -0.381, -0.054, 0.003, 0.254, 0.305, 1
2123098, 1.541, -0.479, -0.03, 0.121, -0.037, 0.129, 1
2123118, 0.423, -0.591, -0.412, 0.019, -0.107, 0.321, 1
2123138, 0.053, -0.061, -0.339, -0.166, -0.057, 0.323, 1
2123158, 0.042, 0.167, -0.21, -0.119, 0.032, 0.24, 1
2123178, 0.223, -0.02, -0.268, 0.055, -0.001, 0.141, 0
2123198, -0.094, -0.147, -0.387, 0.134, -0.105, 0.095, 0
2123218, -0.45, -0.409, -0.646, 0.038, -0.176, 0.117, 0
2123238, -0.459, -0.093, -0.572, -0.107, -0.098, 0.093, 0
2123258, -0.458, 0.048, -0.425, -0.124, 0.03, 0.052, 0
2123278, -0.21, -0.027, -0.205, -0.026, 0.141, -0.002, 0
2123298, -0.054, -0.226, -0.157, -0.021, 0.113, 0.02, 0
2123318, -0.161, -0.171, -0.261, -0.184, 0.042, 0.041, 0
2123338, -0.264, 0.051, -0.21, -0.264, 0.045, 0.036, 0
2123358, -0.157, -0.003, -0.187, -0.239, 0.106, 0.018, 0
2123378, 0.126, 0.01, -0.11, -0.164, 0.139, -0.001, 0
2123398, 0.406, -0.171, -0.18, -0.086, 0.065, 0.007, 0
2123418, 0.396, -0.14, -0.27, -0.092, -0.014, 0.012, 0
2123438, 0.391, -0.041, -0.266, -0.111, -0.014, 0.015, 0
2123458, 0.912, 0.18, -0.158, -0.095, 0.001, 0.042, 0
2123478, 1.613, 0.205, -0.217, -0.078, 0.031, 0.047, 0
2123498, 2.375, 0.013, -0.441, -0.04, 0.02, 0.057, 0
2123518, 2.916, -0.367, -1.007, -0.065, 0.013, 0.016, 0
2123538, 3.309, -0.493, -1.477, -0.116, 0.035, -0.054, 0
2123558, 3.68, -0.156, -1.735, -0.114, 0.105, -0.104, 0
2123578, 3.719, 0.116, -1.64, -0.037, 0.163, 0.129, 0
2123598, 3.525, -0.343, -1.03, 0.157, 0.225, 0.005, 0
2123618, 2.142, -0.665, -0.35, 0.125, 0.478, -0.207, 0
2123638, 0.926, -0.335, 0.474, 0.113, 0.726, -0.265, 0
2123658, 0.421, -0.602, 0.744, 0.03, 0.566, -0.314, 0
2123678, -0.484, -0.463, 0.789, 0.011, 0.326, -0.354, 0
2123698, -1.274, -0.513, 0.695, 0.093, 0.152, -0.414, 0
2123718, -1.308, -0.068, 0.91, 0.324, 0.078, -0.467, 0
2123738, -1.74, -0.861, 0.324, 0.406, 0.163, -0.472, 0
2123758, -1.48, -1.421, -0.025, 0.245, 0.264, -0.468, 0
2123778, -1.464, -1.476, -0.114, 0.061, 0.246, -0.456, 0
2123798, -0.913, -1.44, 0.13, 0.029, 0.155, -0.521, 0
2123818, -0.998, -2.011, -0.159, 0.028, -0.023, -0.613, 0
2123838, -1.98, -2.815, -1.042, -0.097, -0.238, -0.786, 0
2123858, -2.836, -2.281, -1.361, -0.098, -0.097, -0.864, 0
2123878, -3.06, -1.775, -1.047, 0.003, 0.12, -0.898, 0
2123898, -3.151, -2.133, -1.156, -0.071, 0.081, -0.957, 0
2123918, -4.407, -1.901, -1.426, -0.302, 0.04, -0.92, 0
2123938, -4.83, -0.746, -0.79, -0.372, 0.171, -0.831, 0
2123958, -4.901, 0.191, 0.047, -0.266, 0.322, -0.717, 0
2123978, -4.586, 0.454, 0.663, -0.141, 0.241, -0.623, 0
2123998, -4.475, 0.667, 0.907, -0.141, 0.161, -0.503, 0
2124018, -3.809, 0.714, 0.986, -0.128, 0.031, -0.428, 0
2124038, -3.353, 0.784, 1.048, -0.062, -0.065, -0.32, 0
2124058, -2.665, 0.496, 0.74, -0.017, -0.207, -0.196, 0
2124078, -2.225, 0.516, 0.276, 0.047, -0.205, -0.048, 0
2124098, -0.746, -0.223, -0.076, 0.058, -0.117, 0.026, 0
2124118, 0.109, -0.615, -0.073, 0.06, -0.164, 0.012, 0
2124138, -0.108, -0.973, -0.49, 0.087, -0.315, -0.053, 0
2124158, -0.627, -0.885, -0.732, 0.079, -0.315, -0.069, 0
2124178, -0.334, -0.56, -0.399, 0.018, -0.043, 0.0, 0
2124198, 0.068, -0.294, 0.018, -0.003, 0.124, 0.047, 1
2124218, 0.033, -0.049, 0.013, 0.075, -0.001, -0.009, 1
2124238, -0.156, -0.394, -0.35, 0.083, -0.079, -0.037, 1
2124258, -0.285, -0.471, -0.708, -0.083, 0.053, -0.018, 1
2124278, -0.613, -0.127, -0.827, -0.233, 0.105, 0.01, 1
2124298, -0.835, 0.14, -0.851, -0.274, 0.224, 0.076, 1
2124318, -0.613, -0.067, -0.53, -0.211, 0.349, 0.128, 1
2124338, -0.398, -0.273, -0.322, -0.147, 0.348, 0.13, 1
2124358, -0.461, -0.348, -0.398, -0.094, 0.306, 0.082, 1
2124378, -0.499, -0.311, -0.435, -0.095, 0.31, 0.072, 1
2124398, -0.783, -0.117, -0.327, -0.085, 0.332, 0.06, 1
2124418, -1.411, -0.272, -0.562, -0.075, 0.287, 0.065, 1
2124438, -1.758, -0.422, -0.768, -0.119, 0.295, 0.138, 1
2124458, -2.352, -0.524, -0.887, -0.163, 0.348, 0.174, 1
2124478, -2.977, -0.39, -0.752, -0.175, 0.453, 0.233, 1
2124498, -3.009, -0.024, -0.117, -0.143, 0.578, 0.31, 1
2124518, -2.524, 0.025, 0.37, -0.085, 0.639, 0.394, 1
2124538, -1.968, -0.055, 0.564, -0.072, 0.478, 0.42, 1
2124558, -1.942, -0.209, 0.432, -0.318, 0.17, 0.489, 1
2124578, -2.2, -0.054, 0.384, -0.505, -0.159, 0.623, 1
2124598, -2.156, 0.303, 0.52, -0.454, -0.227, 0.731, 1
2124618, -1.934, 0.018, 0.57, -0.321, -0.238, 0.809, 1
2124638, -1.147, -0.279, 0.74, -0.25, -0.282, 0.896, 1
2124658, -0.004, -0.407, 0.613, -0.233, -0.446, 0.953, 1
2124678, 0.487, -0.559, 0.287, -0.288, -0.59, 0.962, 1
2124698, 0.728, -0.467, 0.224, -0.301, -0.634, 0.846, 1
2124718, 0.739, -0.419, 0.172, -0.215, -0.544, 0.67, 1
2124738, 1.195, -0.494, 0.35, -0.049, -0.535, 0.651, 1
2124758, 2.116, -0.587, 0.764, 0.111, -0.722, 0.657, 1
2124778, 2.554, -0.618, 0.687, 0.204, -0.982, 0.862, 1
2124798, 2.355, -1.144, -0.019, 0.104, -1.03, 1.1, 1
2124818, 2.653, -1.384, -0.604, -0.172, -0.816, 1.183, 1
2124838, 2.745, -1.273, -1.151, -0.424, -0.408, 1.092, 1
2124858, 2.993, -0.86, -1.164, -0.393, -0.069, 0.964, 1
2124878, 3.319, -1.003, -0.966, -0.205, -0.026, 0.734, 1
2124898, 3.189, -0.973, -0.844, -0.036, -0.153, 0.673, 1
2124918, 2.987, -0.852, -0.752, -0.017, -0.289, 0.69, 1
2124938, 2.522, -0.783, -0.977, -0.156, -0.224, 0.521, 1
2124958, 1.907, -0.674, -1.164, -0.276, 0.058, 0.409, 1
2124978, 1.797, -0.711, -1.008, -0.287, 0.316, 0.232, 1
2124998, 1.862, -0.229, -0.645, -0.103, 0.259, 0.165, 1
2125018, 1.51, -0.049, -0.475, 0.084, 0.068, 0.222, 1
2125038, 1.12, -0.15, -0.344, 0.105, -0.026, 0.172, 1
2125058, 0.626, -0.072, -0.322, 0.07, 0.018, 0.087, 1
2125078, 0.375, -0.335, -0.245, 0.131, 0.11, -0.079, 1
2125098, 0.094, -0.389, -0.352, 0.158, 0.118, -0.162, 1
2125118, -0.227, -0.299, -0.451, 0.034, 0.104, -0.039, 1
2125138, -0.263, -0.22, -0.301, -0.149, 0.064, 0.096, 1
2125158, -0.281, -0.032, -0.107, -0.199, 0.017, 0.073, 1
2125178, -0.135, -0.038, -0.027, -0.064, 0.086, 0.018, 1
2125198, 0.053, -0.126, 0.0, 0.089, 0.126, -0.049, 0
2125218, -0.228, -0.059, -0.102, 0.141, 0.081, 0.007, 0
2125238, -0.288, -0.378, -0.419, -0.002, 0.065, 0.119, 0
2125258, -0.351, 0.112, -0.308, -0.254, 0.022, 0.18, 0
2125278, -0.508, 0.233, -0.316, -0.254, 0.135, 0.175, 0
2125298, -0.097, -0.054, -0.238, -0.222, 0.351, 0.138, 0
2125318, 0.166, -0.037, -0.039, -0.216, 0.321, 0.053, 0
2125338, 0.02, -0.166, -0.174, -0.193, 0.142, 0.051, 0
2125358, -0.066, -0.061, -0.331, -0.247, 0.043, 0.05, 0
2125378, -0.036, 0.07, -0.285, -0.24, 0.092, 0.047, 0
2125398, 0.48, 0.096, -0.048, -0.125, 0.126, 0.043, 0
2125418, 0.653, -0.136, -0.098, -0.022, 0.027, -0.008, 0
2125438, 0.685, -0.087, -0.16, -0.056, -0.056, -0.013, 0
2125458, 1.166, 0.058, -0.195, -0.087, -0.096, 0.0, 0
2125478, 1.634, 0.047, -0.368, -0.103, -0.082, 0.006, 0
2125498, 1.967, -0.318, -0.678, -0.137, -0.023, -0.059, 0
2125518, 2.094, -0.409, -0.941, -0.147, 0.037, -0.108, 0
2125538, 2.579, -0.178, -0.892, -0.099, 0.163, -0.156, 0
2125558, 2.939, -0.407, -0.992, -0.08, 0.248, -0.032, 0
2125578, 3.164, -1.164, -1.132, -0.136, 0.27, -0.102, 0
2125598, 2.172, -1.107, -1.087, -0.103, 0.37, -0.386, 0
2125618, 0.564, -0.434, -0.683, 0.048, 0.672, -0.497, 0
2125638, 0.168, 0.143, 0.272, 0.232, 0.874, -0.355, 0
2125658, 0.466, -0.365, 0.644, 0.172, 0.721, -0.296, 0
2125678, 0.403, -0.388, 0.719, -0.04, 0.322, -0.419, 0
2125698, -0.638, -0.387, 0.356, -0.076, 0.15, -0.499, 0
2125718, -1.137, -0.327, 0.097, 0.068, 0.334, -0.538, 0
2125738, -1.002, -0.722, -0.206, 0.204, 0.541, -0.535, 0
2125758, -0.539, -1.206, -0.309, 0.237, 0.607, -0.587, 0
2125778, -0.074, -1.805, -0.394, 0.13, 0.414, -0.65, 0
2125798, -0.286, -2.327, -0.871, -0.102, 0.121, -0.741, 0
2125818, -0.985, -1.747, -1.434, -0.117, 0.15, -0.755, 0
2125838, -0.908, -1.07, -1.621, 0.074, 0.45, -0.737, 0
2125858, -1.302, -1.716, -1.673, 0.077, 0.487, -0.814, 0
2125878, -2.737, -1.572, -1.734, -0.076, 0.434, -0.828, 0
2125898, -3.536, -1.093, -1.497, -0.294, 0.267, -0.82, 0
2125918, -4.558, -0.901, -1.305, -0.481, 0.061, -0.794, 0
2125938, -5.759, 0.039, -0.826, -0.444, 0.171, -0.733, 0
2125958, -6.093, 0.847, -0.067, -0.201, 0.386, -0.605, 0
2125978, -5.424, 0.733, 0.713, -0.064, 0.37, -0.488, 0
2125998, -4.759, 0.532, 1.237, -0.288, 0.023, -0.364, 0
2126018, -4.449, 0.773, 1.354, -0.256, -0.152, -0.164, 0
2126038, -4.043, 0.019, 0.349, -0.171, -0.227, -0.116, 0
2126058, -2.64, -0.697, 0.171, -0.034, -0.158, -0.111, 0
2126078, -2.13, -1.076, -0.269, 0.0, -0.186, -0.122, 0
2126098, -1.956, -1.124, -0.548, -0.13, -0.182, -0.102, 0
2126118, -1.621, -0.182, 0.007, -0.227, -0.105, -0.045, 0
2126138, -0.627, -0.142, 0.349, -0.089, -0.037, 0.006, 0
2126158, -0.573, -0.47, 0.02, 0.029, -0.026, 0.017, 0
2126178, -0.469, -0.648, -0.122, 0.116, 0.087, 0.023, 0
2126198, -0.072, -0.647, -0.131, 0.114, 0.111, 0.021, 0
2126218, 0.102, -0.424, -0.164, 0.006, 0.071, 0.014, 0
2126238, -0.023, -0.596, -0.47, -0.014, 0.038, -0.031, 1
2126258, 0.13, -0.422, -0.634, -0.092, 0.063, -0.051, 1
2126278, -0.385, -0.328, -0.729, -0.21, 0.186, -0.053, 1
2126298, -0.381, -0.103, -0.575, -0.287, 0.356, -0.076, 1
2126318, -0.644, 0.065, -0.472, -0.223, 0.346, -0.139, 1
2126338, -0.321, 0.153, -0.28, -0.079, 0.309, -0.026, 1
2126358, -0.424, -0.215, -0.403, 0.1, 0.391, 0.016, 1
2126378, -0.295, -0.468, -0.38, 0.067, 0.421, 0.013, 1
2126398, -0.374, -0.836, -0.407, -0.091, 0.307, -0.011, 1
2126418, -0.552, -0.353, -0.18, -0.324, 0.15, -0.025, 1
2126438, -0.846, -0.168, -0.081, -0.302, 0.093, -0.044, 1
2126458, -1.273, 0.0, -0.226, -0.23, 0.075, -0.018, 1
2126478, -1.579, 0.004, -0.383, -0.227, 0.106, 0.032, 1
2126498, -1.979, -0.067, -0.55, -0.238, 0.128, 0.073, 1
2126518, -2.588, 0.122, -0.622, -0.227, 0.227, 0.16, 1
2126538, -3.119, 0.35, -0.421, -0.263, 0.267, 0.248, 1
2126558, -3.64, 0.723, -0.007, -0.293, 0.282, 0.387, 1
2126578, -3.648, 1.19, 0.503, -0.232, 0.277, 0.543, 1
2126598, -3.348, 1.178, 0.869, -0.177, 0.263, 0.781, 1
2126618, -2.427, 0.634, 1.208, -0.115, 0.142, 0.918, 1
2126638, -1.59, -0.245, 0.978, -0.082, -0.061, 0.977, 1
2126658, -0.758, -1.329, 0.341, -0.227, -0.366, 0.928, 1
2126678, -1.065, -1.79, -0.133, -0.439, -0.557, 0.95, 1
2126698, -0.669, -1.039, 0.229, -0.532, -0.516, 0.951, 1
2126718, -0.167, -0.206, 0.59, -0.33, -0.511, 1.01, 1
2126738, 0.676, -0.541, 0.489, -0.07, -0.613, 0.902, 1
2126758, 0.963, -0.883, 0.157, 0.061, -0.708, 0.759, 1
2126778, 0.81, -0.808, -0.124, 0.114, -0.813, 0.969, 1
2126798, 1.856, -0.818, -0.375, -0.031, -0.968, 0.951, 1
2126818, 1.484, -0.983, -1.015, -0.28, -1.051, 0.935, 1
2126838, 1.598, -0.688, -1.376, -0.364, -0.957, 0.904, 1
2126858, 2.055, -0.519, -1.41, -0.239, -0.775, 0.779, 1
2126878, 2.18, -0.554, -1.509, -0.083, -0.62, 0.769, 1
2126898, 2.366, -0.848, -1.447, -0.027, -0.477, 0.786, 1
2126918, 2.632, -1.217, -1.426, -0.14, -0.354, 0.716, 1
2126938, 3.133, -1.123, -1.213, -0.245, -0.302, 0.592, 1
2126958, 3.132, -0.534, -0.92, -0.159, -0.299, 0.494, 1
2126978, 2.491, -0.285, -0.821, -0.025, -0.268, 0.672, 1
2126998, 2.211, -0.69, -0.74, -0.082, -0.072, 0.557, 1
2127018, 2.337, -0.558, -0.052, -0.061, 0.215, 0.481, 1
2127038, 2.251, -0.212, 0.135, 0.028, 0.24, 0.423, 1
2127058, 2.074, -0.434, 0.157, 0.084, 0.114, 0.397, 1
2127078, 1.525, -0.477, 0.099, 0.007, 0.029, 0.303, 1
2127098, 1.072, -0.121, 0.153, -0.073, 0.083, 0.253, 1
2127118, 0.648, 0.086, 0.272, -0.077, 0.137, 0.259, 1
2127138, 0.589, -0.038, 0.304, -0.046, 0.12, 0.276, 1
2127158, 0.503, -0.187, 0.135, 0.0, -0.017, 0.231, 1
2127178, 0.345, -0.293, -0.34, 0.004, -0.086, 0.218, 0
2127198, -0.15, -0.079, -0.292, -0.021, 0.045, 0.2, 0
2127218, 0.004, -0.228, -0.216, 0.01, 0.09, 0.139, 0
2127238, -0.089, -0.081, -0.169, -0.001, 0.053, 0.08, 0
2127258, -0.239, -0.063, -0.301, -0.075, 0.014, 0.075, 0
2127278, -0.607, 0.071, -0.479, -0.176, 0.111, 0.054, 0
2127298, -0.381, 0.14, -0.309, -0.205, 0.258, 0.054, 0
2127318, -0.065, 0.028, -0.181, -0.149, 0.235, 0.034, 0
2127338, 0.035, -0.007, -0.178, -0.116, 0.099, 0.003, 0
2127358, 0.116, -0.078, -0.334, -0.073, 0.004, 0.0, 0
2127378, 0.044, -0.014, -0.458, -0.125, -0.035, -0.003, 0
2127398, 0.176, 0.044, -0.42, -0.171, 0.007, 0.012, 0
2127418, 0.637, 0.035, -0.312, -0.13, 0.0, 0.026, 0
2127438, 1.107, -0.156, -0.29, -0.094, -0.035, -0.006, 0
2127458, 1.496, -0.392, -0.413, -0.102, -0.054, -0.082, 0
2127478, 1.62, -0.56, -0.538, -0.131, -0.025, -0.171, 0
2127498, 1.962, -0.435, -0.581, -0.181, 0.155, -0.19, 0
2127518, 3.16, -0.52, -0.725, -0.226, 0.155, -0.216, 0
2127538, 3.861, -1.247, -1.2, -0.308, 0.003, -0.202, 0
2127558, 3.542, -2.306, -1.742, -0.431, -0.029, -0.324, 0
2127578, 2.522, -1.709, -1.475, -0.333, 0.208, -0.428, 0
2127598, 2.159, -0.745, -0.722, -0.063, 0.453, -0.342, 0
2127618, 1.719, -1.331, -0.533, -0.174, 0.582, -0.542, 0
2127638, 0.718, -1.255, -0.005, -0.424, 0.558, -0.816, 0
2127658, -0.235, -0.375, 0.856, -0.453, 0.468, -0.99, 0
2127678, -1.241, 0.013, 1.048, -0.186, 0.489, -1.057, 0
2127698, -1.814, 0.033, 0.691, 0.076, 0.507, -1.067, 0
2127718, -2.482, 0.413, 0.329, 0.221, 0.47, -0.974, 0
2127738, -3.089, 0.99, 0.254, 0.286, 0.407, -0.799, 0
2127758, -3.284, 0.501, 0.056, 0.204, 0.303, -0.653, 0
2127778, -3.205, -0.546, -0.415, 0.15, 0.086, -0.62, 0
2127798, -3.357, -0.615, -0.707, 0.272, 0.062, -0.614, 0
2127818, -3.477, -0.835, -0.901, 0.372, 0.182, -0.563, 0
2127838, -3.427, -1.379, -1.207, 0.247, 0.186, -0.478, 0
2127858, -3.806, -1.969, -1.843, -0.027, 0.141, -0.456, 0
2127878, -3.983, -1.736, -1.789, -0.208, 0.128, -0.46, 0
2127898, -3.476, -1.41, -1.273, -0.169, 0.109, -0.525, 0
2127918, -3.192, -1.24, -0.774, -0.101, 0.102, -0.558, 0
2127938, -3.259, -1.147, -0.651, -0.143, 0.15, -0.525, 0
2127958, -3.296, -1.011, -0.609, -0.215, 0.138, -0.48, 0
2127978, -3.523, -0.596, -0.515, -0.312, 0.205, -0.342, 0
2127998, -3.24, -0.462, 0.488, -0.318, 0.245, -0.283, 0
2128018, -2.387, -0.171, 1.218, -0.279, 0.142, -0.223, 0
2128038, -2.113, -0.165, 1.121, -0.186, -0.026, -0.166, 0
2128058, -1.828, -0.23, 0.811, -0.138, -0.092, -0.087, 0
2128078, -1.328, -0.343, 0.474, -0.094, -0.104, -0.034, 0
2128098, -1.068, -0.532, 0.141, -0.072, -0.114, 0.003, 0
2128118, -0.606, -0.731, 0.065, -0.061, -0.056, 0.048, 0
2128138, -0.257, -0.866, 0.04, -0.014, -0.028, 0.043, 0
2128158, 0.285, -0.646, 0.089, 0.018, 0.007, 0.042, 0
2128178, 0.127, -0.65, -0.261, -0.001, -0.008, 0.025, 0
2128198, -0.077, -0.516, -0.466, -0.05, 0.006, 0.032, 0
2128218, -0.085, -0.432, -0.436, -0.043, 0.018, 0.016, 0
2128238, 0.0, -0.246, -0.359, -0.072, 0.073, 0.018, 0
2128258, -0.015, -0.136, -0.304, -0.082, 0.111, 0.021, 0
2128278, -0.115, -0.24, -0.425, -0.115, 0.113, 0.009, 0
2128298, -0.358, -0.301, -0.599, -0.221, 0.127, -0.01, 1
2128318, -0.972, -0.084, -0.548, -0.379, 0.273, 0.02, 1
2128338, -0.441, -0.209, -0.49, -0.496, 0.447, 0.038, 1
2128358, 0.077, -0.071, 0.225, -0.514, 0.45, 0.01, 1
2128378, 0.273, -0.205, 0.291, -0.332, 0.043, -0.08, 1
2128398, -0.617, -0.569, -0.396, -0.204, -0.194, -0.125, 1
2128418, -1.031, -0.599, -0.722, -0.158, -0.089, -0.087, 1
2128438, -1.277, -0.451, -0.808, -0.19, 0.034, -0.061, 1
2128458, -1.585, -0.208, -0.674, -0.276, 0.062, -0.01, 1
2128478, -1.787, 0.013, -0.445, -0.274, 0.072, 0.051, 1
2128498, -2.188, -0.078, -0.351, -0.193, 0.123, 0.087, 1
2128518, -2.424, -0.188, -0.147, -0.143, 0.177, 0.115, 1
2128538, -2.693, -0.238, 0.085, -0.135, 0.189, 0.149, 1
2128558, -2.971, -0.36, 0.131, -0.168, 0.164, 0.232, 1
2128578, -2.751, -0.124, 0.35, -0.214, 0.113, 0.326, 1
2128598, -2.35, -0.036, 0.51, -0.19, -0.015, 0.341, 1
2128618, -2.298, -0.063, 0.485, -0.183, -0.105, 0.413, 1
2128638, -2.006, -0.353, 0.468, -0.227, -0.18, 0.435, 1
2128658, -1.534, -0.148, 0.488, -0.204, -0.273, 0.538, 1
2128678, -1.311, -0.204, 0.618, -0.138, -0.317, 0.618, 1
2128698, -0.954, -0.235, 0.867, -0.053, -0.308, 0.63, 1
2128718, -0.541, -0.482, 1.132, -0.021, -0.212, 0.605, 1
2128738, 0.204, 0.182, 1.316, 0.104, -0.24, 0.804, 1
2128758, 1.36, 0.133, 0.822, 0.286, -0.61, 1.052, 1
2128778, 1.93, -0.766, -0.257, 0.21, -0.986, 0.976, 1
2128798, 1.422, -1.233, -1.106, 0.042, -0.985, 0.913, 1
2128818, 1.422, -1.225, -1.491, 0.018, -0.592, 0.807, 1
2128838, 2.019, -0.631, -1.314, 0.125, -0.312, 0.802, 1
2128858, 2.08, -0.392, -1.231, 0.273, -0.326, 1.004, 1
2128878, 2.361, -1.047, -1.278, 0.183, -0.456, 0.97, 1
2128898, 2.185, -1.382, -1.36, 0.01, -0.527, 0.859, 1
2128918, 2.044, -1.346, -1.277, -0.061, -0.367, 0.646, 1
2128938, 1.809, -0.851, -0.963, 0.02, -0.1, 0.596, 1
2128958, 1.474, -0.256, -0.734, 0.222, 0.039, 0.866, 1
2128978, 1.986, -0.702, -0.949, 0.098, 0.01, 0.74, 1
2128998, 1.804, -0.671, -0.936, -0.086, 0.016, 0.641, 1
2129018, 1.763, -0.476, -0.731, -0.213, 0.162, 0.463, 1
2129038, 1.489, 0.135, -0.276, -0.15, 0.282, 0.459, 1
2129058, 1.68, -0.296, -0.167, 0.018, 0.245, 0.639, 1
2129078, 1.504, -0.561, -0.225, -0.009, 0.141, 0.571, 1
2129098, 1.257, -0.576, -0.217, -0.109, 0.08, 0.439, 1
2129118, 0.909, -0.405, -0.123, -0.147, 0.119, 0.279, 1
2129138, 0.738, -0.253, 0.046, -0.101, 0.152, 0.285, 1
2129158, 0.644, -0.32, 0.161, -0.066, 0.065, 0.332, 1
2129178, 0.392, -0.44, 0.202, -0.059, -0.039, 0.277, 1
2129198, 0.206, -0.415, 0.297, -0.026, -0.083, 0.235, 1
2129218, 0.049, -0.373, 0.298, 0.036, -0.081, 0.106, 1
2129238, -0.151, -0.321, 0.106, 0.075, -0.111, 0.032, 1
2129258, -0.393, -0.285, 0.002, 0.06, -0.155, 0.053, 1
2129278, -0.327, -0.248, 0.081, 0.01, -0.134, 0.075, 1
2129298, -0.388, -0.038, 0.098, 0.033, -0.16, 0.074, 1
2129318, -0.442, 0.014, -0.041, 0.108, -0.147, 0.128, 1
2129338, -0.258, 0.001, 0.055, 0.188, -0.174, 0.099, 0
2129358, -0.481, -0.196, -0.013, 0.178, -0.266, 0.124, 0
2129378, -0.35, -0.145, -0.215, 0.005, -0.224, 0.162, 0
2129398, -0.35, 0.06, -0.297, -0.136, -0.086, 0.209, 0
2129418, -0.031, -0.066, -0.442, -0.144, 0.006, 0.144, 0
2129438, 0.041, -0.171, -0.537, -0.178, 0.108, 0.025, 0
2129458, 0.281, -0.059, -0.382, -0.152, 0.144, 0.01, 0
2129478, 0.336, -0.182, -0.482, -0.205, 0.128, -0.034, 0
2129498, 0.303, -0.067, -0.487, -0.24, 0.147, -0.079, 0
2129518, 0.783, 0.133, -0.288, -0.149, 0.072, -0.147, 0
2129538, 1.033, 0.184, -0.226, -0.065, 0.009, -0.222, 0
2129558, 1.276, 0.024, -0.348, -0.05, -0.011, -0.249, 0
2129578, 1.29, -0.36, -0.588, -0.112, 0.029, -0.284, 0
2129598, 1.504, -0.227, -0.479, -0.166, 0.097, -0.303, 0
2129618, 2.114, -0.006, -0.334, -0.196, 0.145, -0.35, 0
2129638, 2.696, -0.153, -0.601, -0.185, 0.143, -0.4, 0
2129658, 2.798, -0.859, -1.379, -0.236, 0.169, -0.436, 0
2129678, 2.576, -0.816, -1.363, -0.255, 0.188, -0.55, 0
2129698, 1.982, -0.006, -0.785, -0.152, 0.372, -0.651, 0
2129718, 1.789, 0.521, -0.006, 0.052, 0.568, -0.718, 0
2129738, 1.46, -0.039, 0.25, 0.028, 0.556, -0.807, 0
2129758, 0.569, -1.022, -0.286, -0.246, 0.411, -0.919, 0
2129778, -0.306, -1.307, -0.55, -0.43, 0.348, -0.916, 0
2129798, -0.529, -1.436, -0.45, -0.416, 0.366, -0.959, 0
2129818, -0.889, -1.224, -0.257, -0.156, 0.461, -1.014, 0
2129838, -1.7, -1.408, -0.619, 0.093, 0.533, -1.047, 0
2129858, -2.064, -2.044, -1.047, 0.11, 0.478, -1.004, 0
2129878, -2.372, -2.304, -1.318, -0.07, 0.338, -1.006, 0
2129898, -2.686, -1.987, -1.547, -0.301, 0.35, -0.956, 0
2129918, -3.069, -1.205, -1.088, -0.246, 0.35, -0.94, 0
2129938, -3.885, -0.993, -0.875, -0.12, 0.465, -0.836, 0
2129958, -3.769, -0.702, -0.594, -0.213, 0.351, -0.717, 0
2129978, -4.146, -0.091, -0.392, -0.339, 0.202, -0.617, 0
2129998, -4.491, 0.41, 0.004, -0.266, 0.218, -0.503, 0
2130018, -4.643, 0.159, 0.228, -0.091, 0.321, -0.386, 0
2130038, -4.257, -0.68, 0.132, -0.029, 0.332, -0.354, 0
2130058, -4.063, -0.937, 0.204, -0.136, 0.197, -0.334, 0
2130078, -3.922, -0.768, 0.425, -0.204, 0.026, -0.367, 0
2130098, -4.126, -0.668, 0.481, -0.141, -0.018, -0.379, 0
2130118, -3.587, -0.464, 0.479, -0.055, 0.0, -0.351, 0
2130138, -3.394, -0.303, 0.185, -0.025, -0.043, -0.302, 0
2130158, -3.035, -0.41, 0.064, -0.078, -0.007, -0.174, 0
2130178, -2.007, -0.073, 0.439, -0.122, 0.015, -0.05, 0
2130198, -1.105, -0.315, 0.466, -0.059, -0.016, 0.022, 0
2130218, -0.302, -0.789, 0.177, -0.033, -0.064, 0.076, 0
2130238, -0.176, -1.033, -0.299, -0.086, -0.135, 0.086, 0
2130258, -0.28, -1.005, -0.641, -0.138, -0.116, 0.075, 0
2130278, -0.189, -0.701, -0.573, -0.128, 0.037, 0.062, 0
2130298, 0.085, -0.547, -0.321, -0.1, 0.128, 0.062, 0
2130318, -0.168, -0.407, -0.333, -0.092, 0.124, 0.05, 0
2130338, -0.418, -0.188, -0.259, -0.102, 0.118, 0.043, 0
2130358, -0.48, 0.048, -0.171, -0.108, 0.094, 0.062, 0
2130378, -0.301, -0.074, -0.15, -0.125, 0.095, 0.083, 0
2130398, -0.531, -0.251, -0.331, -0.127, 0.061, 0.07, 0
2130418, -0.636, -0.543, -0.783, -0.317, 0.153, 0.148, 1
2130438, -0.714, -0.603, -0.789, -0.435, 0.411, 0.175, 1
2130458, -0.643, -0.512, -0.394, -0.443, 0.428, 0.125, 1
2130478, -0.297, -0.182, 0.054, -0.241, 0.309, 0.064, 1
2130498, -0.524, -0.294, 0.03, -0.064, 0.243, 0.046, 1
2130518, -0.686, -0.447, -0.13, -0.053, 0.238, 0.08, 1
2130538, -1.01, -0.559, -0.244, -0.124, 0.183, 0.091, 1
2130558, -1.907, -0.352, -0.649, -0.233, 0.238, 0.15, 1
2130578, -2.144, -0.138, -0.172, -0.194, 0.223, 0.222, 1
2130598, -2.452, -0.109, -0.047, -0.128, 0.216, 0.329, 1
2130618, -2.705, -0.126, 0.168, -0.065, 0.213, 0.425, 1
2130638, -2.795, -0.468, 0.306, -0.065, 0.178, 0.454, 1
2130658, -2.988, -0.729, 0.325, -0.181, 0.036, 0.5, 1
2130678, -3.289, -0.533, 0.506, -0.318, -0.191, 0.624, 1
2130698, -2.669, -0.005, 0.788, -0.394, -0.457, 0.734, 1
2130718, -2.235, 0.463, 0.913, -0.257, -0.596, 0.791, 1
2130738, -1.599, -0.016, 0.434, -0.109, -0.663, 0.834, 1
2130758, -1.068, -0.536, -0.187, -0.084, -0.69, 0.999, 1
2130778, -0.183, -0.622, -0.399, -0.036, -0.685, 1.117, 1
2130798, 0.913, -1.006, -0.571, 0.001, -0.791, 1.078, 1
2130818, 1.668, -1.328, -0.922, 0.008, -0.82, 0.952, 1
2130838, 1.655, -1.642, -1.33, -0.02, -0.671, 0.938, 1
2130858, 1.454, -1.158, -1.038, 0.037, -0.408, 1.106, 1
2130878, 1.8, -0.808, -0.612, 0.191, -0.209, 1.178, 1
2130898, 2.567, -0.652, -0.491, 0.263, -0.174, 1.201, 1
2130918, 3.045, -1.239, -0.759, 0.004, -0.248, 0.998, 1
2130938, 2.81, -1.012, -0.68, -0.133, -0.31, 0.897, 1
2130958, 2.454, -0.776, -0.455, -0.18, -0.197, 0.901, 1
2130978, 2.461, -0.266, -0.043, -0.152, 0.084, 0.923, 1
2130998, 3.104, -0.262, 0.156, 0.008, 0.2, 0.917, 1
2131018, 3.098, -0.37, 0.064, 0.113, 0.145, 0.689, 1
2131038, 2.295, -0.167, -0.157, 0.097, 0.061, 0.616, 1
2131058, 1.843, -0.075, -0.196, 0.032, 0.091, 0.797, 1
2131078, 1.866, -0.111, -0.042, -0.028, 0.126, 0.82, 1
2131098, 1.548, -0.146, 0.04, -0.081, 0.126, 0.695, 1
2131118, 1.47, -0.136, 0.218, -0.099, 0.174, 0.561, 1
2131138, 1.286, -0.068, 0.144, 0.003, 0.133, 0.419, 1
2131158, 1.092, -0.33, -0.078, 0.161, -0.045, 0.394, 1
2131178, 0.71, -0.529, -0.255, 0.144, -0.143, 0.301, 1
2131198, 0.362, -0.403, -0.288, 0.051, -0.089, 0.26, 1
2131218, 0.331, -0.243, -0.12, 0.003, -0.013, 0.166, 1
2131238, 0.35, -0.185, -0.06, 0.036, -0.094, 0.082, 1
2131258, 0.14, -0.291, -0.115, 0.075, -0.279, 0.086, 1
2131278, -0.271, -0.252, -0.393, 0.048, -0.312, 0.058, 1
2131298, -0.398, -0.083, -0.402, 0.004, -0.235, 0.07, 1
2131318, -0.553, 0.019, -0.405, 0.006, -0.129, 0.072, 1
2131338, -0.344, 0.061, -0.401, -0.016, -0.042, 0.138, 1
2131358, 0.04, -0.064, -0.356, -0.02, -0.062, 0.183, 0
2131378, -0.041, -0.144, -0.496, -0.084, -0.176, 0.215, 0
2131398, -0.604, -0.263, -0.92, -0.418, 0.017, 0.225, 0
2131418, 0.148, 0.01, -0.534, -0.425, 0.373, 0.21, 0
2131438, 0.58, -0.072, -0.322, -0.301, 0.302, 0.032, 0
2131458, 0.453, -0.089, -0.433, -0.208, 0.315, -0.04, 0
2131478, 0.735, -0.213, -0.426, -0.182, 0.296, -0.102, 0
2131498, 0.87, -0.341, -0.469, -0.23, 0.212, -0.163, 0
2131518, 0.762, -0.294, -0.551, -0.238, 0.163, -0.207, 0
2131538, 0.913, 0.103, -0.382, -0.142, 0.167, -0.244, 0
2131558, 1.262, 0.049, -0.309, -0.076, 0.118, -0.279, 0
2131578, 1.272, -0.219, -0.646, -0.097, 0.116, -0.379, 0
2131598, 1.187, -0.32, -0.89, -0.172, 0.223, -0.463, 0
2131618, 1.43, -0.194, -0.869, -0.234, 0.349, -0.521, 0
2131638, 1.927, -0.289, -0.909, -0.239, 0.378, -0.576, 0
2131658, 2.318, -0.916, -1.332, -0.322, 0.371, -0.711, 0
2131678, 2.101, -1.028, -1.533, -0.392, 0.409, -0.846, 0
2131698, 1.632, -0.632, -1.132, -0.335, 0.502, -0.934, 0
2131718, 1.132, 0.112, -0.597, -0.224, 0.633, -0.864, 0
2131738, 0.721, 0.25, -0.247, -0.143, 0.735, -0.847, 0
2131758, 0.057, -0.859, -0.837, -0.274, 0.701, -0.967, 0
2131778, -0.81, -1.602, -1.537, -0.488, 0.742, -0.98, 0
2131798, -1.152, -1.295, -1.214, -0.454, 0.895, -0.998, 0
2131818, -1.647, -0.919, -0.549, -0.089, 1.16, -0.957, 0
2131838, -1.442, -1.399, 0.18, 0.264, 1.064, -0.967, 0
2131858, -1.832, -1.461, 0.691, 0.31, 0.647, -0.953, 0
2131878, -2.467, -1.349, 0.94, 0.113, 0.299, -0.862, 0
2131898, -3.435, -0.906, 0.541, -0.111, 0.144, -0.683, 0
2131918, -4.193, -0.091, 0.575, -0.029, 0.094, -0.503, 0
2131938, -3.647, -0.268, 0.549, 0.194, 0.125, -0.345, 0
2131958, -3.817, -1.457, -0.257, 0.379, 0.034, -0.308, 0
2131978, -4.391, -2.282, -1.318, 0.29, -0.041, -0.312, 0
2131998, -4.58, -2.326, -1.604, 0.059, -0.046, -0.302, 0
2132018, -4.366, -1.437, -1.106, -0.121, 0.023, -0.299, 0
2132038, -4.24, -0.647, -0.543, -0.066, 0.089, -0.268, 0
2132058, -4.324, -0.844, -0.397, 0.121, 0.145, -0.209, 0
2132078, -3.849, -1.418, -0.407, 0.124, 0.123, -0.17, 0
2132098, -3.263, -1.028, -0.328, 0.012, 0.017, -0.194, 0
2132118, -2.838, -0.85, -0.485, -0.012, -0.009, -0.214, 0
2132138, -2.354, -0.421, -0.427, -0.044, -0.048, -0.215, 0
2132158, -2.064, 0.096, -0.442, -0.067, -0.058, -0.177, 0
2132178, -1.62, 0.073, -0.613, -0.049, -0.058, -0.102, 0
2132198, -1.441, -0.143, -0.676, -0.059, -0.073, -0.029, 0
2132218, -0.84, -0.244, -0.453, -0.038, -0.051, 0.009, 0
2132238, -0.262, -0.3, -0.307, -0.007, -0.04, 0.017, 0
2132258, -0.054, -0.371, -0.409, -0.026, -0.057, 0.018, 0
2132278, -0.085, -0.423, -0.659, -0.071, -0.06, 0.023, 0
2132298, -0.232, -0.476, -0.754, -0.102, -0.004, 0.028, 0
2132318, -0.331, -0.367, -0.567, -0.122, 0.062, 0.026, 0
2132338, -0.121, -0.241, -0.214, -0.078, 0.101, 0.032, 0
2132358, 0.036, -0.366, -0.082, -0.068, 0.098, 0.028, 0
2132378, 0.03, -0.425, -0.172, -0.08, -0.011, -0.039, 0
2132398, -0.44, -0.444, -0.564, -0.155, 0.035, -0.051, 0
2132418, -0.782, -0.594, -0.898, -0.346, 0.21, 0.007, 1
2132438, -0.76, -0.352, -0.652, -0.522, 0.346, 0.069, 1
2132458, -0.816, -0.011, -0.51, -0.51, 0.368, 0.106, 1
2132478, -0.844, 0.065, -0.085, -0.259, 0.274, 0.08, 1
2132498, -0.978, -0.221, -0.063, -0.102, 0.257, 0.089, 1
2132518, -1.055, -0.323, -0.224, -0.052, 0.25, 0.111, 1
2132538, -1.359, -0.308, -0.415, -0.084, 0.17, 0.113, 1
2132558, -2.152, -0.155, -0.471, -0.172, 0.111, 0.161, 1
2132578, -2.661, -0.263, -0.447, -0.172, 0.051, 0.242, 1
2132598, -3.116, -0.384, -0.404, -0.154, 0.059, 0.312, 1
2132618, -3.166, -0.221, -0.058, -0.136, 0.079, 0.402, 1
2132638, -2.78, 0.108, 0.327, -0.09, 0.042, 0.491, 1
2132658, -2.607, 0.186, 0.204, -0.08, -0.036, 0.599, 1
2132678, -2.481, -0.25, 0.054, -0.125, -0.169, 0.684, 1
2132698, -2.395, -0.868, -0.232, -0.193, -0.241, 0.743, 1
2132718, -1.925, -1.021, 0.0, -0.218, -0.223, 0.795, 1
2132738, -1.373, -0.672, 0.391, -0.085, -0.248, 0.888, 1
2132758, -0.643, -0.188, 0.737, 0.109, -0.29, 0.924, 1
2132778, -0.285, -0.311, 0.719, 0.296, -0.373, 0.872, 1
2132798, 0.094, -0.976, 0.349, 0.292, -0.471, 0.775, 1
2132818, 0.579, -0.8, -0.037, 0.18, -0.54, 0.891, 1
2132838, 1.096, -0.584, -0.264, 0.111, -0.658, 1.081, 1
2132858, 1.701, -1.025, -0.534, -0.089, -0.78, 1.001, 1
2132878, 1.962, -0.656, -0.532, -0.072, -0.751, 0.846, 1
2132898, 2.192, -0.174, -0.605, 0.152, -0.55, 0.764, 1
2132918, 2.596, -0.113, -0.686, 0.317, -0.441, 0.864, 1
2132938, 2.739, -0.431, -0.875, 0.289, -0.455, 0.912, 1
2132958, 2.566, -0.404, -0.696, 0.101, -0.377, 0.841, 1
2132978, 2.238, -0.507, -0.657, -0.078, -0.142, 0.871, 1
2132998, 2.493, -0.69, -0.425, -0.21, 0.068, 1.229, 1
2133018, 2.847, -0.907, -0.225, -0.309, 0.067, 1.207, 1
2133038, 2.642, -0.591, -0.076, -0.311, -0.026, 1.014, 1
2133058, 2.365, -0.498, -0.063, -0.241, 0.005, 0.779, 1
2133078, 2.168, -0.412, -0.119, -0.166, 0.058, 0.63, 1
2133098, 2.078, -0.532, -0.134, -0.058, 0.013, 0.679, 1
2133118, 2.033, -0.802, -0.244, -0.078, -0.091, 0.629, 1
2133138, 1.654, -0.612, -0.249, -0.158, -0.133, 0.472, 1
2133158, 1.484, -0.553, -0.293, -0.173, -0.132, 0.309, 1
2133178, 0.726, -0.267, -0.406, -0.168, -0.079, 0.263, 1
2133198, 0.78, -0.389, -0.304, -0.139, -0.004, 0.314, 1
2133218, 0.57, -0.204, -0.114, -0.122, -0.078, 0.274, 1
2133238, 0.32, -0.138, -0.086, -0.06, -0.194, 0.182, 1
2133258, -0.222, 0.014, -0.133, 0.02, -0.171, 0.06, 1
2133278, -0.402, -0.022, -0.172, 0.108, -0.006, 0.034, 1
2133298, -0.176, -0.112, -0.152, 0.07, 0.034, 0.083, 1
2133318, -0.126, 0.015, -0.126, 0.0, -0.068, 0.128, 1
2133338, -0.316, 0.136, -0.179, -0.011, -0.125, 0.086, 0
2133358, -0.421, 0.061, -0.3, 0.037, -0.082, 0.056, 0
2133378, -0.569, 0.196, -0.159, 0.047, -0.02, 0.078, 0
2133398, -0.428, -0.037, -0.232, 0.004, 0.009, 0.064, 0
2133418, -0.23, -0.124, -0.335, -0.037, 0.011, 0.075, 0
2133438, -0.205, -0.28, -0.547, -0.155, 0.047, 0.073, 0
2133458, -0.183, -0.182, -0.604, -0.222, 0.144, 0.08, 0
2133478, 0.074, -0.101, -0.332, -0.18, 0.179, 0.044, 0
2133498, 0.37, -0.165, -0.209, -0.127, 0.128, 0.008, 0
2133518, 0.767, -0.213, -0.156, -0.095, 0.091, -0.039, 0
2133538, 1.04, -0.354, -0.25, -0.135, 0.041, -0.096, 0
2133558, 1.381, -0.219, -0.287, -0.162, -0.015, -0.153, 0
2133578, 1.914, 0.078, -0.208, -0.146, 0.006, -0.164, 0
2133598, 2.692, 0.069, -0.277, -0.118, 0.072, -0.164, 0
2133618, 3.328, -0.555, -0.523, -0.166, 0.059, -0.263, 0
2133638, 3.62, -1.218, -1.096, -0.363, 0.092, -0.378, 0
2133658, 3.973, -1.191, -1.235, -0.514, 0.2, -0.481, 0
2133678, 3.994, -1.36, -1.25, -0.502, 0.312, -0.598, 0
2133698, 3.406, -1.262, -1.149, -0.422, 0.39, -0.751, 0
2133718, 2.287, -0.596, -0.749, -0.29, 0.509, -0.949, 0
2133738, 0.89, 0.402, -0.238, -0.122, 0.55, -0.862, 0
2133758, 0.084, 0.301, 0.248, -0.146, 0.376, -0.712, 0
2133778, -0.392, -0.406, 0.455, -0.221, 0.252, -0.669, 0
2133798, -1.08, -0.475, 0.467, -0.108, 0.324, -0.657, 0
2133818, -2.501, -0.633, 0.04, 0.021, 0.628, -0.563, 0
2133838, -2.112, -0.706, 0.085, 0.119, 0.686, -0.532, 0
2133858, -1.734, -2.286, -1.203, 0.106, 0.417, -0.631, 0
2133878, -2.101, -2.965, -1.78, 0.018, 0.414, -0.742, 0
2133898, -2.409, -2.599, -1.56, -0.137, 0.525, -0.894, 0
2133918, -2.514, -1.951, -0.935, -0.196, 0.439, -0.952, 0
2133938, -3.062, -0.69, -0.163, -0.207, 0.376, -0.965, 0
2133958, -2.837, -0.442, 0.22, -0.058, 0.328, -0.888, 0
2133978, -2.82, -0.419, 0.189, -0.023, 0.182, -0.82, 0
2133998, -3.619, -0.566, -0.327, -0.123, -0.022, -0.767, 0
2134018, -4.39, -0.12, -0.39, -0.284, -0.094, -0.63, 0
2134038, -3.856, 0.188, 0.074, -0.275, -0.054, -0.493, 0
2134058, -3.744, -0.45, 0.053, -0.137, -0.059, -0.445, 0
2134078, -3.791, -0.765, -0.217, -0.036, -0.072, -0.369, 0
2134098, -3.831, -1.017, -0.46, -0.107, -0.123, -0.282, 0
2134118, -3.423, -0.706, -0.015, -0.22, -0.023, -0.147, 0
2134138, -2.736, -0.467, 0.476, -0.172, 0.11, -0.091, 0
2134158, -2.219, -0.265, 0.792, -0.081, 0.125, -0.075, 0
2134178, -1.103, -0.184, 1.13, -0.015, 0.109, 0.011, 0
2134198, -0.397, -0.519, 0.773, 0.01, -0.057, 0.043, 0
2134218, -0.196, -0.845, -0.22, -0.045, -0.183, 0.076, 0
2134238, -0.59, -1.007, -1.12, -0.121, -0.157, 0.078, 0
2134258, 0.042, -0.532, -0.925, -0.119, 0.057, 0.117, 0
2134278, 0.462, -0.436, -0.706, -0.023, 0.146, 0.105, 0
2134298, 0.195, -0.271, -0.819, -0.018, 0.161, 0.078, 0
2134318, 0.04, -0.263, -0.862, -0.037, 0.224, 0.083, 0
2134338, 0.177, -0.174, -0.652, -0.208, 0.227, 0.099, 0
2134358, -0.004, -0.177, -0.538, -0.277, 0.281, 0.092, 1
2134378, 0.06, -0.154, -0.342, -0.297, 0.291, 0.058, 1
2134398, -0.241, -0.027, -0.272, -0.301, 0.349, 0.062, 1
2134418, 0.001, -0.095, -0.278, -0.212, 0.514, 0.035, 1
2134438, 0.226, -0.239, -0.146, -0.059, 0.469, -0.043, 1
2134458, 0.138, -0.346, -0.05, 0.025, 0.243, -0.086, 1
2134478, -0.344, -0.358, -0.345, -0.076, 0.133, -0.036, 1
2134498, -0.703, -0.232, -0.411, -0.084, 0.297, 0.021, 1
2134518, -0.606, -0.207, -0.35, -0.065, 0.361, 0.045, 1
2134538, -0.449, -0.22, -0.24, -0.092, 0.337, 0.037, 1
2134558, -0.483, -0.204, -0.159, -0.156, 0.227, 0.024, 1
2134578, -0.867, -0.09, -0.184, -0.198, 0.092, 0.017, 1
2134598, -1.499, -0.028, -0.386, -0.2, 0.061, 0.051, 1
2134618, -1.798, 0.175, -0.471, -0.187, 0.053, 0.109, 1
2134638, -2.214, 0.07, -0.547, -0.202, 0.042, 0.176, 1
2134658, -2.675, -0.118, -0.674, -0.27, 0.107, 0.261, 1
2134678, -2.674, -0.18, -0.49, -0.277, 0.143, 0.307, 1
2134698, -2.684, -0.479, -0.4, -0.277, 0.043, 0.309, 1
2134718, -3.021, -0.486, -0.459, -0.342, -0.053, 0.361, 1
2134738, -3.346, -0.567, -0.383, -0.422, -0.083, 0.477, 1
2134758, -2.912, -0.069, 0.326, -0.411, -0.027, 0.611, 1
2134778, -1.981, -0.04, 0.791, -0.334, -0.077, 0.719, 1
2134798, -0.806, -0.431, 1.098, -0.291, -0.288, 0.709, 1
2134818, -0.555, -0.845, 0.975, -0.2, -0.66, 0.742, 1
2134838, 0.036, -0.52, 0.541, -0.095, -0.849, 0.737, 1
2134858, 0.967, -0.188, 0.225, 0.029, -0.958, 0.899, 1
2134878, 1.142, -0.414, -0.233, 0.1, -0.981, 0.966, 1
2134898, 1.268, -0.826, -0.496, 0.078, -0.875, 0.985, 1
2134918, 1.52, -0.962, -0.526, 0.012, -0.639, 0.826, 1
2134938, 1.923, 0.339, -0.16, 0.184, -0.457, 1.033, 1
2134958, 2.913, -0.164, -0.276, 0.335, -0.453, 1.136, 1
2134978, 2.991, -0.739, -0.648, 0.241, -0.667, 1.029, 1
2134998, 2.932, -0.877, -0.79, 0.063, -0.843, 0.883, 1
2135018, 2.369, -0.258, -0.709, 0.04, -0.72, 0.689, 1
2135038, 2.135, -0.074, -0.635, 0.152, -0.45, 0.764, 1
2135058, 2.312, -0.072, -0.455, 0.135, -0.252, 0.855, 1
2135078, 2.293, 0.225, -0.12, 0.094, -0.186, 0.767, 1
2135098, 2.254, 0.333, 0.057, 0.145, -0.108, 0.612, 1
2135118, 2.435, 0.067, 0.091, 0.288, -0.054, 0.343, 1
2135138, 2.092, 0.051, 0.002, 0.457, -0.106, 0.113, 1
2135158, 1.813, -0.494, -0.367, 0.572, -0.282, 0.355, 1
2135178, 1.687, -1.148, -1.025, 0.293, -0.406, 0.476, 1
2135198, 1.197, -0.894, -1.21, -0.182, -0.342, 0.489, 1
2135218, 1.021, -0.417, -0.97, -0.392, -0.104, 0.467, 1
2135238, 0.814, -0.109, -0.517, -0.288, 0.08, 0.337, 1
2135258, 0.596, -0.117, -0.218, -0.081, 0.155, 0.195, 1
2135278, 0.376, -0.203, -0.004, 0.019, 0.064, 0.128, 1
2135298, 0.078, -0.503, -0.214, -0.076, -0.117, 0.093, 1
2135318, -0.6, -0.14, -0.232, -0.28, -0.064, 0.185, 1
2135338, -0.376, 0.062, 0.071, -0.167, 0.016, 0.149, 1
2135358, -0.361, 0.205, 0.18, 0.078, 0.056, 0.076, 1
2135378, -0.332, -0.046, 0.128, 0.217, 0.065, 0.098, 1
2135398, -0.454, -0.83, -0.513, -0.005, 0.197, 0.071, 0
2135418, -0.626, -0.55, -0.808, -0.254, 0.398, 0.148, 0
2135438, -0.011, 0.071, -0.111, -0.104, 0.248, 0.069, 0
2135458, -0.056, 0.046, -0.042, 0.113, 0.124, -0.065, 0
2135478, -0.617, 0.139, -0.197, 0.139, 0.249, 0.019, 0
2135498, -0.425, -0.226, -0.451, -0.122, 0.346, 0.114, 0
2135518, -0.329, -0.365, -0.563, -0.505, 0.357, 0.2, 0
2135538, 0.05, 0.077, -0.09, -0.497, 0.146, 0.153, 0
2135558, 0.289, -0.057, 0.005, -0.368, -0.014, 0.073, 0
2135578, 0.566, -0.148, 0.096, -0.186, -0.056, 0.007, 0
2135598, 0.575, -0.402, -0.129, -0.08, -0.07, 0.003, 0
2135618, 0.974, -0.632, -0.191, -0.186, -0.065, -0.012, 0
2135638, 1.497, -0.275, 0.035, -0.238, -0.098, -0.064, 0
2135658, 2.026, -0.26, 0.017, -0.203, -0.116, -0.153, 0
2135678, 2.457, -0.881, -0.291, -0.223, -0.183, -0.269, 0
2135698, 2.513, -1.012, -0.51, -0.233, -0.246, -0.425, 0
2135718, 2.297, -0.63, -0.744, -0.217, -0.057, -0.515, 0
2135738, 2.595, -0.348, -1.005, -0.207, 0.226, -0.609, 0
2135758, 2.439, -0.643, -1.291, -0.279, 0.373, -0.731, 0
2135778, 2.033, -0.827, -1.336, -0.343, 0.48, -0.805, 0
2135798, 1.744, -1.225, -1.287, -0.363, 0.62, -1.041, 0
2135818, 0.712, -0.188, -0.427, -0.239, 0.806, -1.122, 0
2135838, 0.347, -0.18, -0.153, -0.117, 0.969, -1.117, 0
2135858, -0.309, -0.513, -0.04, -0.196, 0.893, -1.095, 0
2135878, -0.578, -0.303, -0.009, -0.319, 0.65, -1.039, 0
2135898, -1.161, 0.197, 0.046, -0.299, 0.58, -1.003, 0
2135918, -1.227, -0.63, -0.235, -0.122, 0.568, -0.945, 0
2135938, -2.012, -1.571, -0.959, -0.035, 0.441, -0.938, 0
2135958, -2.253, -1.488, -1.224, -0.058, 0.472, -0.868, 0
2135978, -1.895, -1.515, -1.052, -0.108, 0.535, -0.78, 0
2135998, -2.95, -1.533, -0.855, -0.316, 0.465, -0.711, 0
2136018, -4.22, -1.107, -0.55, -0.334, 0.384, -0.638, 0
2136038, -4.366, -1.527, -0.567, -0.106, 0.318, -0.537, 0
2136058, -4.44, -2.195, -0.833, -0.02, 0.275, -0.511, 0
2136078, -5.01, -2.143, -0.929, -0.079, 0.364, -0.491, 0
2136098, -4.933, -1.412, -0.51, -0.085, 0.47, -0.422, 0
2136118, -4.49, -1.137, 0.037, -0.111, 0.398, -0.342, 0
2136138, -4.487, -0.983, 0.199, -0.176, 0.125, -0.32, 0
2136158, -4.291, -0.619, 0.236, -0.134, 0.09, -0.291, 0
2136178, -3.604, -0.84, 0.157, -0.007, 0.184, -0.249, 0
2136198, -2.752, -0.688, 0.091, -0.03, 0.087, -0.205, 0
2136218, -2.526, -0.216, -0.258, -0.054, -0.034, -0.136, 0
2136238, -1.645, 0.019, -0.509, -0.008, -0.039, -0.041, 0
2136258, -1.481, -0.211, -0.924, 0.031, -0.012, 0.023, 0
2136278, -1.77, -0.421, -1.059, 0.041, 0.18, 0.116, 0
2136298, -1.053, -0.226, -0.279, 0.125, 0.506, 0.169, 0
2136318, 0.037, -0.179, 0.639, 0.166, 0.4, 0.197, 0
2136338, 0.64, -0.926, 0.646, -0.06, 0.072, 0.145, 0
2136358, 0.317, -0.977, 0.257, -0.3, -0.175, 0.084, 0
2136378, -0.308, -0.765, -0.086, -0.343, -0.115, 0.087, 1
2136398, -0.747, -0.665, -0.359, -0.409, 0.061, 0.147, 1
2136418, -0.2, -0.646, -0.383, -0.493, 0.117, 0.178, 1
2136438, 0.001, -0.327, -0.14, -0.372, 0.089, 0.183, 1
2136458, 0.267, -0.182, -0.06, -0.123, -0.009, 0.108, 1
2136478, -0.041, -0.435, -0.506, -0.013, 0.007, 0.026, 1
2136498, -0.543, -0.425, -0.815, -0.05, 0.045, 0.06, 1
2136518, -0.47, -0.194, -0.736, -0.104, 0.109, 0.065, 1
2136538, -0.479, -0.226, -0.68, -0.153, 0.116, 0.094, 1
2136558, -0.533, -0.361, -0.542, -0.116, 0.072, 0.089, 1
2136578, -0.866, -0.312, -0.551, -0.061, 0.095, 0.082, 1
2136598, -0.764, -0.436, -0.411, -0.043, 0.05, 0.087, 1
2136618, -1.004, -0.557, -0.504, -0.069, -0.048, 0.064, 1
2136638, -1.708, -0.414, -0.601, -0.089, -0.043, 0.083, 1
2136658, -2.286, -0.384, -0.604, -0.087, 0.059, 0.147, 1
2136678, -2.638, -0.417, -0.58, -0.119, 0.147, 0.265, 1
2136698, -2.422, -0.128, -0.244, -0.129, 0.144, 0.309, 1
2136718, -2.606, -0.15, -0.231, -0.129, 0.075, 0.373, 1
2136738, -2.971, -0.511, -0.248, -0.199, 0.025, 0.452, 1
2136758, -2.992, -0.788, -0.148, -0.264, -0.004, 0.553, 1
2136778, -2.888, -1.208, 0.01, -0.303, -0.079, 0.684, 1
2136798, -1.806, -0.38, 0.878, -0.185, -0.204, 0.752, 1
2136818, -1.361, -0.266, 0.945, -0.106, -0.365, 0.814, 1
2136838, -0.94, -0.365, 0.827, -0.094, -0.52, 0.896, 1
2136858, -0.504, -0.303, 0.553, -0.058, -0.626, 0.96, 1
2136878, -0.01, -0.328, 0.274, -0.006, -0.648, 1.129, 1
2136898, 0.585, -0.064, 0.199, 0.034, -0.686, 1.226, 1
2136918, 1.168, -0.318, -0.106, 0.105, -0.766, 1.317, 1
2136938, 1.643, -0.5, -0.539, 0.106, -0.794, 1.281, 1
2136958, 1.674, -0.33, -1.051, 0.128, -0.735, 1.324, 1
2136978, 2.211, -0.683, -1.26, 0.089, -0.616, 1.456, 1
2136998, 2.534, -0.911, -1.06, -0.026, -0.558, 1.428, 1
2137018, 2.928, -0.934, -0.743, -0.058, -0.558, 1.356, 1
2137038, 3.312, -0.337, -0.515, 0.034, -0.55, 1.194, 1
2137058, 3.105, -0.364, -0.627, 0.192, -0.518, 1.04, 1
2137078, 2.814, -0.638, -0.943, 0.187, -0.369, 1.011, 1
2137098, 2.625, -0.54, -0.911, 0.037, -0.091, 1.033, 1
2137118, 2.968, -0.47, -0.314, -0.029, 0.062, 0.981, 1
2137138, 2.983, -0.351, 0.196, 0.086, -0.05, 0.802, 1
2137158, 2.591, -0.569, 0.082, 0.175, -0.149, 0.661, 1
2137178, 2.172, -1.006, -0.445, 0.069, -0.08, 0.627, 1
2137198, 2.026, -1.142, -0.665, -0.172, 0.098, 0.566, 1
2137218, 1.769, -0.822, -0.438, -0.264, 0.157, 0.447, 1
2137238, 1.558, -0.67, -0.139, -0.102, 0.086, 0.302, 1
2137258, 0.838, -0.385, -0.015, 0.017, 0.039, 0.185, 1
2137278, 0.279, -0.538, -0.078, -0.141, 0.221, 0.267, 1
2137298, 0.445, -0.663, -0.09, -0.416, 0.239, 0.199, 0
2137318, 0.362, -0.171, 0.058, -0.431, 0.128, 0.1, 0
2137338, 0.402, 0.07, 0.232, -0.18, -0.126, -0.021, 0
2137358, -0.3, 0.063, 0.176, 0.097, -0.151, -0.036, 0
2137378, -0.491, -0.224, -0.204, 0.064, 0.02, -0.014, 0
2137398, -0.497, -0.396, -0.572, -0.208, 0.095, -0.005, 0
2137418, -0.522, -0.112, -0.75, -0.376, 0.16, -0.022, 0
2137438, -0.199, 0.152, -0.554, -0.324, 0.171, -0.024, 0
2137458, 0.155, 0.026, -0.395, -0.243, 0.137, -0.043, 0
2137478, 0.431, -0.135, -0.299, -0.181, 0.123, -0.066, 0
2137498, 0.565, -0.289, -0.211, -0.143, 0.085, -0.153, 0
2137518, 0.66, -0.314, -0.222, -0.118, 0.135, -0.216, 0
2137538, 1.141, -0.48, -0.225, -0.104, 0.179, -0.301, 0
2137558, 1.501, -0.418, -0.261, -0.076, 0.194, -0.4, 0
2137578, 1.585, -0.424, -0.492, -0.064, 0.16, -0.469, 0
2137598, 1.616, -0.431, -0.756, -0.105, 0.2, -0.549, 0
2137618, 1.862, -0.435, -0.938, -0.155, 0.315, -0.64, 0
2137638, 2.472, -0.521, -1.078, -0.178, 0.437, -0.734, 0
2137658, 2.646, -0.626, -1.284, -0.2, 0.536, -0.849, 0
2137678, 2.353, -0.166, -1.03, -0.159, 0.686, -0.936, 0
2137698, 1.906, 0.303, -0.512, -0.065, 0.845, -0.956, 0
2137718, 1.635, 0.385, -0.253, -0.028, 0.831, -0.983, 0
2137738, 1.012, -0.161, -0.758, -0.075, 0.759, -1.004, 0
2137758, 0.228, -0.402, -0.725, -0.032, 0.701, -0.977, 0
2137778, -0.755, -0.896, -0.74, 0.084, 0.72, -0.975, 0
2137798, -1.251, -1.417, -0.865, 0.138, 0.778, -0.943, 0
2137818, -1.446, -2.311, -1.231, 0.095, 0.648, -0.954, 0
2137838, -2.44, -2.567, -1.406, -0.069, 0.52, -0.93, 0
2137858, -3.078, -2.386, -1.332, -0.155, 0.428, -0.907, 0
2137878, -4.285, -2.366, -1.289, -0.187, 0.301, -0.9, 0
2137898, -4.731, -2.133, -0.882, -0.147, 0.28, -0.833, 0
2137918, -5.036, -2.097, -0.706, -0.061, 0.252, -0.794, 0
2137938, -5.077, -2.024, -0.547, -0.084, 0.205, -0.751, 0
2137958, -5.644, -1.802, -0.616, -0.221, 0.132, -0.707, 0
2137978, -5.784, -1.208, -0.373, -0.274, 0.097, -0.604, 0
2137998, -5.302, -0.997, -0.119, -0.209, 0.11, -0.455, 0
2138018, -4.845, -0.898, 0.099, -0.156, 0.073, -0.372, 0
2138038, -4.395, -0.719, 0.053, -0.156, 0.05, -0.308, 0
2138058, -3.434, -0.322, 0.174, -0.137, 0.04, -0.239, 0
2138078, -2.894, -0.148, 0.052, -0.123, -0.02, -0.21, 0
2138098, -2.595, -0.1, -0.069, -0.123, -0.056, -0.166, 0
2138118, -1.893, -0.048, 0.022, -0.118, -0.029, -0.068, 0
2138138, -1.098, -0.116, -0.109, -0.07, -0.017, -0.006, 0
2138158, -0.668, -0.436, -0.411, -0.04, -0.037, 0.034, 0
2138178, -0.747, -0.795, -0.691, -0.019, -0.043, 0.028, 0
2138198, -0.344, -0.646, -0.475, -0.028, 0.022, 0.054, 0
2138218, -0.01, -0.44, -0.283, -0.032, 0.026, 0.074, 0
2138238, -0.054, -0.412, -0.455, -0.082, 0.014, 0.092, 0
2138258, -0.082, -0.471, -0.537, -0.074, 0.0, 0.065, 0
2138278, -0.047, -0.633, -0.613, -0.106, 0.044, 0.04, 0
2138298, -0.01, -0.558, -0.556, -0.15, 0.072, 0.007, 1
2138318, -0.18, -0.357, -0.497, -0.18, 0.079, -0.002, 1
2138338, -0.244, -0.289, -0.459, -0.207, 0.087, 0.015, 1
2138358, -0.528, -0.282, -0.466, -0.24, 0.18, 0.042, 1
2138378, -0.215, -0.211, -0.305, -0.217, 0.181, 0.035, 1
2138398, -0.467, -0.346, -0.496, -0.208, 0.185, 0.039, 1
2138418, -0.88, -0.26, -0.683, -0.245, 0.26, 0.094, 1
2138438, -0.97, -0.087, -0.463, -0.227, 0.329, 0.139, 1
2138458, -0.966, -0.232, -0.228, -0.149, 0.332, 0.167, 1
2138478, -0.823, -0.299, 0.015, -0.028, 0.215, 0.128, 1
2138498, -1.156, -0.435, -0.128, -0.047, 0.094, 0.118, 1
2138518, -1.798, -0.59, -0.776, -0.152, 0.063, 0.145, 1
2138538, -2.326, -0.444, -0.542, -0.167, 0.043, 0.188, 1
2138558, -2.93, -0.456, -0.608, -0.224, 0.116, 0.288, 1
2138578, -3.186, -0.254, -0.363, -0.211, 0.174, 0.388, 1
2138598, -3.265, -0.321, -0.117, -0.196, 0.158, 0.459, 1
2138618, -3.064, -0.346, 0.101, -0.241, 0.013, 0.515, 1
2138638, -2.99, -0.531, 0.127, -0.338, -0.206, 0.567, 1
2138658, -2.77, -0.415, 0.21, -0.404, -0.372, 0.653, 1
2138678, -2.465, -0.248, 0.48, -0.416, -0.535, 0.751, 1
2138698, -1.494, -0.052, 0.691, -0.36, -0.753, 0.808, 1
2138718, -0.918, -0.141, 0.358, -0.248, -0.902, 0.845, 1
2138738, -0.795, -0.747, -0.34, -0.202, -0.947, 0.893, 1
2138758, -0.163, -0.797, -0.256, -0.174, -0.803, 1.092, 1
2138778, 1.217, -0.863, -0.185, -0.025, -0.74, 1.256, 1
2138798, 1.767, -0.997, -0.531, 0.112, -0.795, 1.2, 1
2138818, 1.955, -1.396, -0.884, 0.175, -0.801, 1.127, 1
2138838, 2.132, -1.428, -0.896, 0.171, -0.72, 1.032, 1
2138858, 2.363, -0.954, -0.59, 0.126, -0.588, 1.069, 1
2138878, 3.161, -0.686, -0.406, 0.103, -0.55, 1.139, 1
2138898, 3.224, -0.645, -0.567, 0.045, -0.696, 1.083, 1
2138918, 2.902, -0.672, -0.689, 0.04, -0.761, 0.966, 1
2138938, 2.59, -0.757, -0.691, 0.075, -0.634, 0.863, 1
2138958, 2.637, -0.508, -0.529, 0.069, -0.484, 0.974, 1
2138978, 3.081, -0.566, -0.397, 0.059, -0.354, 0.977, 1
2138998, 3.202, -0.533, -0.168, 0.037, -0.378, 0.828, 1
2139018, 2.714, -0.68, -0.319, 0.084, -0.444, 0.668, 1
2139038, 2.271, -0.678, -0.322, 0.122, -0.41, 0.592, 1
2139058, 1.599, -0.64, -0.57, 0.062, -0.265, 0.547, 1
2139078, 1.331, -0.334, -0.511, -0.021, -0.039, 0.516, 1
2139098, 1.321, -0.318, -0.385, -0.037, 0.113, 0.433, 1
2139118, 1.233, -0.302, -0.261, -0.037, 0.118, 0.321, 1
2139138, 0.868, -0.368, -0.261, -0.018, 0.016, 0.279, 1
2139158, 0.559, -0.349, -0.172, -0.036, -0.038, 0.224, 1
2139178, 0.169, -0.118, -0.151, -0.023, -0.012, 0.123, 1
2139198, -0.002, -0.096, -0.28, 0.025, 0.059, 0.056, 1
2139218, 0.013, 0.002, -0.253, 0.067, 0.014, 0.024, 1
2139238, -0.116, -0.047, -0.243, 0.031, -0.123, 0.041, 1
2139258, -0.465, 0.046, -0.228, -0.046, -0.138, 0.047, 1
2139278, -0.686, 0.29, -0.218, -0.021, -0.063, 0.113, 1
2139298, -0.523, 0.205, -0.196, 0.077, -0.014, 0.106, 1
2139318, -0.385, -0.061, -0.318, 0.037, 0.007, 0.111, 0
2139338, -0.089, -0.256, -0.488, -0.096, -0.034, 0.132, 0
2139358, -0.337, -0.151, -0.565, -0.187, -0.052, 0.113, 0
2139378, -0.472, -0.042, -0.538, -0.242, 0.066, 0.145, 0
2139398, -0.189, -0.07, -0.561, -0.291, 0.172, 0.136, 0
2139418, -0.061, -0.066, -0.533, -0.347, 0.237, 0.099, 0
2139438, 0.274, 0.106, -0.233, -0.308, 0.216, 0.092, 0
2139458, 0.719, -0.286, -0.386, -0.294, 0.109, 0.031, 0
2139478, 0.954, -0.114, -0.355, -0.217, 0.008, -0.046, 0
2139498, 0.837, -0.125, -0.626, -0.185, 0.021, -0.078, 0
2139518, 1.113, 0.037, -0.548, -0.16, 0.113, -0.131, 0
2139538, 1.706, 0.037, -0.539, -0.141, 0.158, -0.153, 0
2139558, 2.255, -0.272, -0.718, -0.215, 0.152, -0.238, 0
2139578, 2.238, -0.631, -1.163, -0.271, 0.164, -0.353, 0
2139598, 2.467, -0.599, -1.25, -0.3, 0.285, -0.46, 0
2139618, 2.665, -0.503, -1.117, -0.286, 0.444, -0.484, 0
2139638, 2.634, -0.922, -1.067, -0.347, 0.546, -0.54, 0
2139658, 2.284, -0.538, -0.504, -0.322, 0.587, -0.663, 0
2139678, 1.869, 0.055, 0.166, -0.095, 0.638, -0.791, 0
2139698, 1.943, 0.0, 0.696, 0.322, 0.729, -0.893, 0
2139718, 1.439, -1.918, -1.628, 0.255, 0.814, -1.024, 0
2139738, -0.074, -2.026, -2.093, -0.091, 0.624, -1.12, 0
2139758, -1.405, -1.131, -1.507, -0.276, 0.593, -1.136, 0
2139778, -1.574, -0.59, -0.245, -0.157, 0.888, -1.075, 0
2139798, -1.195, -0.441, 0.836, 0.099, 1.114, -1.073, 0
2139818, -1.252, -0.726, 1.109, 0.34, 0.981, -1.066, 0
2139838, -1.803, -1.221, 0.923, 0.218, 0.613, -1.023, 0
2139858, -3.243, -0.784, 0.974, -0.004, 0.39, -0.94, 0
2139878, -3.707, -0.391, 1.346, -0.002, 0.398, -0.774, 0
2139898, -3.857, -0.762, 1.3, 0.218, 0.314, -0.65, 0
2139918, -3.685, -1.518, 0.95, 0.388, 0.228, -0.563, 0
2139938, -3.553, -2.362, 0.2, 0.354, -0.063, -0.593, 0
2139958, -4.178, -2.118, -0.469, 0.081, -0.348, -0.588, 0
2139978, -4.042, -1.013, -0.598, -0.03, -0.309, -0.505, 0
2139998, -3.831, -0.993, -1.081, 0.122, -0.189, -0.462, 0
2140018, -3.826, -0.864, -1.545, 0.226, -0.141, -0.431, 0
2140038, -3.731, -0.691, -1.857, 0.149, -0.106, -0.373, 0
2140058, -3.617, -0.307, -1.756, -0.048, -0.053, -0.321, 0
2140078, -3.428, 0.256, -1.066, -0.12, 0.116, -0.266, 0
2140098, -2.712, 0.755, -0.359, 0.013, 0.258, -0.144, 0
2140118, -1.631, 0.523, -0.226, 0.138, 0.223, 0.003, 0
2140138, -1.169, -0.103, -0.44, 0.088, 0.074, 0.089, 0
2140158, -1.049, -0.457, -0.485, 0.009, -0.021, 0.115, 0
2140178, -0.603, -0.479, -0.19, -0.067, 0.061, 0.13, 0
2140198, -0.019, -0.546, 0.129, -0.041, 0.097, 0.121, 0
2140218, -0.056, -0.68, 0.019, -0.039, 0.051, 0.107, 0
2140238, 0.006, -0.7, -0.101, -0.06, 0.056, 0.117, 0
2140258, 0.061, -0.535, -0.087, -0.062, 0.064, 0.121, 0
2140278, -0.017, -0.277, -0.062, -0.022, 0.098, 0.122, 0
2140298, -0.136, -0.305, -0.144, -0.011, 0.138, 0.133, 0
2140318, -0.013, -0.337, -0.13, -0.009, 0.127, 0.109, 0
2140338, -0.068, -0.35, -0.164, 0.0, 0.1, 0.07, 1
2140358, -0.203, -0.422, -0.356, -0.075, 0.156, 0.072, 1
2140378, -0.305, -0.37, -0.482, -0.232, 0.224, 0.095, 1
2140398, -0.609, -0.217, -0.73, -0.351, 0.365, 0.147, 1
2140418, -0.525, -0.076, -0.478, -0.286, 0.343, 0.158, 1
2140438, -0.478, -0.257, -0.288, -0.167, 0.194, 0.14, 1
2140458, -0.375, -0.395, -0.147, -0.15, 0.18, 0.126, 1
2140478, -0.439, -0.492, -0.279, -0.192, 0.137, 0.097, 1
2140498, -0.728, -0.308, -0.401, -0.262, 0.031, 0.096, 1
2140518, -1.232, 0.08, -0.457, -0.296, 0.005, 0.121, 1
2140538, -1.759, 0.036, -0.535, -0.278, 0.121, 0.176, 1
2140558, -1.73, -0.24, -0.427, -0.282, 0.177, 0.207, 1
2140578, -1.748, -0.127, -0.241, -0.321, 0.116, 0.276, 1
2140598, -2.057, 0.014, -0.213, -0.341, 0.087, 0.347, 1
2140618, -2.289, -0.066, -0.226, -0.352, 0.128, 0.446, 1
2140638, -2.216, -0.024, -0.171, -0.325, 0.167, 0.524, 1
2140658, -1.881, -0.134, -0.272, -0.269, 0.187, 0.5, 1
2140678, -1.593, -0.392, -0.234, -0.237, 0.22, 0.404, 1
2140698, -1.33, -0.23, 0.346, -0.177, 0.004, 0.823, 1
2140718, -1.127, 0.337, 0.541, -0.165, -0.222, 0.844, 1
2140738, -0.875, -0.041, 0.51, 0.028, -0.412, 0.933, 1
2140758, -0.129, -0.191, 0.699, 0.091, -0.425, 0.85, 1
2140778, 0.38, -0.004, 0.88, 0.235, -0.384, 0.774, 1
2140798, 1.037, 0.405, 0.525, 0.453, -0.593, 1.077, 1
2140818, 1.615, -0.295, -0.176, 0.482, -0.821, 1.309, 1
2140838, 2.011, -1.267, -0.891, 0.231, -0.916, 1.356, 1
2140858, 2.532, -2.134, -1.399, -0.147, -0.854, 1.299, 1
2140878, 2.596, -1.617, -1.353, -0.436, -0.654, 1.083, 1
2140898, 2.385, -0.581, -0.984, -0.318, -0.359, 1.098, 1
2140918, 2.99, -0.737, -0.728, -0.004, -0.168, 1.167, 1
2140938, 3.432, -0.942, -0.616, 0.135, -0.21, 1.05, 1
2140958, 3.468, -1.029, -0.622, 0.124, -0.278, 0.946, 1
2140978, 3.343, -1.287, -0.747, 0.019, -0.285, 0.795, 1
2140998, 2.818, -1.056, -0.699, -0.178, -0.248, 0.755, 1
2141018, 2.928, -1.236, -0.447, -0.289, -0.188, 0.91, 1
2141038, 3.107, -1.335, -0.148, -0.379, -0.184, 0.861, 1
2141058, 2.866, -1.131, 0.004, -0.317, -0.144, 0.72, 1
2141078, 2.606, -1.139, -0.046, -0.122, -0.078, 0.586, 1
2141098, 1.939, -1.11, -0.37, -0.074, -0.032, 0.491, 1
2141118, 1.177, -0.799, -0.335, -0.211, 0.064, 0.476, 1
2141138, 0.986, -0.47, 0.164, -0.302, 0.209, 0.54, 1
2141158, 1.152, -0.527, 0.485, -0.256, 0.294, 0.465, 1
2141178, 1.165, -0.353, 0.789, -0.029, 0.224, 0.341, 1
2141198, 0.962, -0.296, 0.879, 0.086, 0.134, 0.193, 1
2141218, 0.433, -0.465, 0.441, -0.032, 0.134, 0.134, 1
2141238, 0.036, -0.383, 0.181, -0.177, 0.207, 0.158, 1
2141258, 0.166, -0.085, 0.266, -0.154, 0.1, 0.124, 1
2141278, 0.233, -0.01, 0.376, 0.004, -0.138, 0.069, 1
2141298, -0.007, -0.129, 0.002, 0.083, -0.313, 0.001, 1
2141318, -0.59, -0.344, -0.777, -0.085, -0.236, 0.049, 0
2141338, -0.622, -0.121, -1.044, -0.252, -0.015, 0.135, 0
2141358, -0.379, 0.454, -0.623, -0.145, 0.033, 0.137, 0
2141378, -0.176, 0.214, -0.474, -0.031, 0.01, 0.022, 0
2141398, -0.047, -0.157, -0.508, -0.068, 0.058, -0.025, 0
2141418, 0.067, -0.289, -0.487, -0.147, 0.08, -0.042, 0
2141438, 0.072, -0.263, -0.547, -0.237, 0.087, -0.048, 0
2141458, 0.103, -0.015, -0.353, -0.231, 0.066, -0.04, 0
2141478, 0.354, -0.119, -0.305, -0.183, 0.053, -0.096, 0
2141498, 0.151, -0.066, -0.354, -0.126, 0.117, -0.161, 0
2141518, 0.315, -0.01, -0.232, -0.086, 0.139, -0.183, 0
2141538, 0.681, -0.116, -0.177, -0.116, 0.058, -0.2, 0
2141558, 0.709, -0.182, -0.297, -0.154, -0.007, -0.187, 0
2141578, 1.097, -0.087, -0.272, -0.201, -0.048, -0.215, 0
2141598, 1.359, 0.339, -0.26, -0.177, 0.015, -0.224, 0
2141618, 1.782, -0.162, -0.693, -0.19, 0.147, -0.304, 0
2141638, 2.213, -0.954, -1.275, -0.334, 0.206, -0.395, 0
2141658, 2.898, -0.718, -1.222, -0.392, 0.158, -0.531, 0
2141678, 3.977, -0.442, -1.032, -0.364, 0.121, -0.594, 0
2141698, 2.939, -0.568, -1.034, -0.371, 0.216, -0.655, 0
2141718, 2.113, -0.774, -0.656, -0.345, 0.526, -0.775, 0
2141738, 2.049, -1.29, -0.135, -0.288, 0.641, -0.849, 0
2141758, 2.027, -1.501, 0.256, -0.308, 0.412, -0.998, 0
2141778, 1.369, -1.11, 0.241, -0.322, 0.106, -1.103, 0
2141798, 0.132, -0.733, -0.331, -0.162, 0.023, -1.206, 0
2141818, -1.233, -1.386, -0.676, 0.009, 0.274, -1.211, 0
2141838, -1.891, -2.425, -0.636, 0.118, 0.499, -1.2, 0
2141858, -2.509, -3.652, -1.278, 0.105, 0.37, -1.242, 0
2141878, -3.259, -3.503, -1.301, -0.05, 0.284, -1.251, 0
2141898, -3.582, -2.663, -0.867, -0.085, 0.36, -1.232, 0
2141918, -4.754, -2.109, -0.856, -0.02, 0.424, -1.194, 0
2141938, -5.833, -1.758, -1.067, -0.052, 0.49, -1.016, 0
2141958, -6.907, -2.038, -1.542, -0.205, 0.388, -0.89, 0
2141978, -7.241, -1.508, -1.118, -0.417, 0.459, -0.781, 0
2141998, -6.691, -0.652, -0.156, -0.372, 0.51, -0.717, 0
2142018, -6.514, -0.043, 0.364, -0.212, 0.352, -0.668, 0
2142038, -6.16, 0.467, 0.392, -0.171, 0.219, -0.529, 0
2142058, -5.942, 0.504, 0.317, -0.234, 0.025, -0.393, 0
2142078, -5.157, 0.134, 0.218, -0.218, -0.077, -0.254, 0
2142098, -3.784, -0.149, 0.193, -0.12, -0.08, -0.16, 0
2142118, -3.024, -0.449, -0.15, -0.07, -0.12, -0.103, 0
2142138, -2.791, -0.516, -0.231, -0.13, -0.128, 0.067, 0
2142158, -1.616, -0.216, 0.398, -0.124, -0.086, 0.168, 0
2142178, -0.898, -0.378, 0.533, -0.014, -0.042, 0.195, 0
2142198, -0.47, -0.834, 0.127, 0.067, -0.036, 0.152, 0
2142218, -0.429, -1.141, -0.38, 0.055, 0.004, 0.105, 0
2142238, -0.407, -1.193, -0.61, -0.048, 0.051, 0.117, 0
2142258, -0.177, -0.562, -0.379, -0.066, 0.029, 0.138, 0
2142278, -0.181, -0.386, -0.273, 0.0, 0.018, 0.124, 0
2142298, -0.427, -0.329, -0.323, 0.082, 0.07, 0.106, 0
2142318, -0.495, -0.634, -0.462, 0.083, 0.067, 0.068, 0
2142338, -0.556, -0.653, -0.583, 0.001, 0.056, 0.025, 0
2142358, -1.053, -0.683, -0.77, -0.127, 0.1, 0.047, 1
2142378, -1.572, -0.4, -0.818, -0.227, 0.215, 0.086, 1
2142398, -1.861, -0.327, -0.657, -0.27, 0.346, 0.135, 1
2142418, -1.664, -0.351, -0.483, -0.181, 0.362, 0.168, 1
2142438, -1.757, -0.348, -0.379, -0.085, 0.186, 0.155, 1
2142458, -2.275, -0.188, -0.529, -0.058, 0.097, 0.214, 1
2142478, -2.011, -0.173, -0.501, -0.05, 0.054, 0.265, 1
2142498, -2.448, -0.21, -0.546, -0.12, 0.113, 0.329, 1
2142518, -2.313, -0.293, -0.405, -0.172, 0.091, 0.379, 1
2142538, -2.077, -0.08, -0.381, -0.135, 0.025, 0.401, 1
2142558, -2.079, -0.259, -0.573, -0.172, -0.029, 0.464, 1
2142578, -2.252, -0.405, -0.639, -0.279, -0.079, 0.525, 1
2142598, -2.039, -0.578, -0.689, -0.404, -0.163, 0.576, 1
2142618, -1.89, -0.052, -0.401, -0.441, -0.189, 0.644, 1
2142638, -1.604, -0.014, -0.042, -0.359, -0.306, 0.731, 1
2142658, -0.74, -0.368, 0.304, -0.24, -0.355, 0.811, 1
2142678, -0.269, -0.729, 0.24, -0.139, -0.377, 0.878, 1
2142698, 0.614, -0.72, 0.394, -0.137, -0.429, 0.99, 1
2142718, 1.268, -0.8, 0.231, -0.164, -0.529, 1.012, 1
2142738, 1.518, -0.987, -0.049, -0.182, -0.618, 1.06, 1
2142758, 1.794, -1.263, -0.269, -0.194, -0.677, 1.009, 1
2142778, 1.839, -1.161, -0.344, -0.199, -0.688, 0.908, 1
2142798, 2.011, -0.594, -0.283, -0.122, -0.628, 0.892, 1
2142818, 2.242, -0.452, -0.406, -0.012, -0.536, 0.913, 1
2142838, 2.119, -0.687, -0.713, 0.015, -0.469, 0.953, 1
2142858, 2.104, -1.144, -0.816, -0.08, -0.428, 0.913, 1
2142878, 1.652, -1.009, -0.55, -0.218, -0.37, 0.79, 1
2142898, 1.439, -0.321, -0.017, -0.209, -0.224, 0.684, 1
2142918, 1.215, -0.026, 0.194, -0.033, -0.171, 0.653, 1
2142938, 0.983, -0.045, 0.195, 0.056, -0.222, 0.616, 1
2142958, 0.789, -0.016, 0.244, 0.06, -0.317, 0.596, 1
2142978, 0.648, 0.023, 0.178, 0.082, -0.381, 0.552, 1
2142998, 0.526, -0.095, -0.009, 0.156, -0.345, 0.475, 1
2143018, 0.711, -0.517, -0.122, 0.205, -0.312, 0.435, 1
2143038, 0.541, -0.776, -0.39, 0.149, -0.329, 0.372, 1
2143058, 0.419, -0.719, -0.612, 0.044, -0.282, 0.365, 1
2143078, 0.36, -0.433, -0.537, -0.05, -0.15, 0.329, 1
2143098, 0.285, -0.283, -0.417, -0.066, -0.037, 0.279, 1
2143118, 0.345, -0.093, -0.045, 0.036, -0.056, 0.191, 1
2143138, 0.033, 0.025, -0.004, 0.092, -0.153, 0.176, 1
2143158, -0.079, 0.023, -0.141, 0.099, -0.15, 0.152, 1
2143178, -0.232, -0.153, -0.386, 0.01, -0.036, 0.142, 1
2143198, -0.276, 0.041, -0.373, -0.009, 0.087, 0.125, 1
2143218, -0.088, 0.017, -0.377, 0.021, 0.089, 0.144, 1
2143238, -0.104, 0.029, -0.225, 0.072, 0.044, 0.175, 1
2143258, -0.092, -0.11, -0.178, 0.034, 0.062, 0.207, 1
2143278, -0.097, -0.15, -0.163, -0.04, 0.158, 0.194, 0
2143298, 0.058, -0.121, -0.028, -0.114, 0.202, 0.136, 0
2143318, 0.044, 0.043, 0.041, -0.007, 0.135, 0.029, 0
2143338, 0.012, 0.008, 0.017, 0.153, -0.024, -0.026, 0
2143358, -0.153, -0.33, -0.355, 0.076, 0.014, -0.043, 0
2143378, -0.514, -0.011, -0.698, -0.108, 0.233, 0.016, 0
2143398, -0.456, -0.202, -0.968, -0.39, 0.451, 0.046, 0
2143418, -0.073, 0.109, -0.567, -0.486, 0.457, 0.016, 0
2143438, 0.187, 0.144, -0.306, -0.361, 0.331, -0.036, 0
2143458, 0.422, -0.096, -0.33, -0.241, 0.227, -0.096, 0
2143478, 0.576, -0.165, -0.382, -0.194, 0.153, -0.151, 0
2143498, 0.761, -0.061, -0.358, -0.177, 0.14, -0.208, 0
2143518, 1.171, 0.092, -0.235, -0.095, 0.105, -0.269, 0
2143538, 1.604, -0.018, -0.169, -0.031, 0.047, -0.321, 0
2143558, 2.071, -0.389, -0.275, -0.059, -0.05, -0.422, 0
2143578, 2.208, -0.431, -0.473, -0.171, -0.056, -0.513, 0
2143598, 2.574, -0.31, -0.821, -0.207, -0.016, -0.557, 0
2143618, 3.004, -0.981, -1.719, -0.263, 0.051, -0.679, 0
2143638, 2.05, -0.827, -1.187, -0.163, 0.227, -0.749, 0
2143658, 2.049, -0.29, -0.805, 0.014, 0.555, -0.755, 0
2143678, 2.102, 0.44, -0.925, 0.035, 0.725, -0.636, 0
2143698, 0.689, -0.014, -1.364, -0.139, 0.706, -0.718, 0
2143718, 0.0, -0.53, -1.1, -0.413, 0.552, -0.758, 0
2143738, -0.7, -0.273, -0.477, -0.338, 0.538, -0.846, 0
2143758, -0.756, -1.852, -0.328, 0.166, 0.888, -0.907, 0
2143778, -0.661, -3.273, -0.134, 0.248, 0.912, -1.014, 0
2143798, -2.229, -2.814, -0.14, -0.08, 0.517, -1.126, 0
2143818, -3.822, -1.893, 0.057, -0.452, 0.138, -1.066, 0
2143838, -4.753, -0.682, 0.511, -0.441, 0.028, -0.945, 0
2143858, -5.243, -1.021, 0.4, -0.139, 0.169, -0.837, 0
2143878, -5.214, -1.957, -0.105, 0.071, 0.199, -0.764, 0
2143898, -5.545, -2.07, -0.5, 0.062, 0.126, -0.78, 0
2143918, -6.179, -1.453, -0.496, -0.129, -0.021, -0.779, 0
2143938, -6.956, -0.132, -0.225, -0.283, -0.056, -0.715, 0
2143958, -6.829, 0.713, 0.401, -0.236, 0.064, -0.57, 0
2143978, -6.48, 0.617, 0.38, -0.01, 0.07, -0.481, 0
2143998, -5.918, 0.398, 0.274, 0.078, 0.063, -0.347, 0
2144018, -4.963, 0.072, 0.309, 0.141, 0.054, -0.218, 0
2144038, -3.763, -0.357, 0.101, 0.084, -0.02, -0.058, 0
2144058, -2.871, -0.763, -0.196, -0.037, -0.09, 0.084, 0
2144078, -1.684, -0.94, -0.031, -0.024, -0.043, 0.194, 0
2144098, -0.138, -1.225, -0.06, 0.03, -0.122, 0.191, 0
2144118, 0.229, -1.285, -0.483, 0.026, -0.15, 0.136, 0
2144138, 0.165, -1.077, -0.781, 0.055, -0.062, 0.08, 0
2144158, 0.11, -0.985, -1.001, 0.07, 0.026, 0.028, 0
2144178, 0.225, -0.802, -0.972, -0.004, 0.023, -0.01, 0
2144198, -0.332, -0.335, -0.959, -0.042, 0.064, -0.025, 0
2144218, -0.679, -0.025, -0.807, -0.028, 0.204, 0.002, 0
2144238, -0.566, -0.035, -0.547, -0.059, 0.207, 0.025, 0
2144258, -0.478, 0.082, -0.3, -0.053, 0.184, 0.024, 0
2144278, -0.612, -0.078, -0.363, -0.04, 0.163, 0.016, 0
2144298, -0.763, -0.546, -0.66, -0.123, 0.133, 0.018, 1
2144318, -1.12, -0.662, -0.941, -0.204, 0.201, 0.026, 1
2144338, -1.14, -0.668, -0.855, -0.289, 0.339, 0.04, 1
2144358, -1.025, -0.422, -0.635, -0.262, 0.471, 0.045, 1
2144378, -0.901, -0.219, -0.324, -0.156, 0.457, -0.012, 1
2144398, -1.069, -0.079, -0.188, -0.057, 0.414, -0.025, 1
2144418, -0.894, -0.397, -0.152, 0.015, 0.32, -0.043, 1
2144438, -0.845, -0.566, -0.074, 0.023, 0.182, -0.051, 1
2144458, -1.198, -0.616, -0.171, -0.034, 0.056, -0.015, 1
2144478, -1.754, -0.46, -0.242, -0.11, 0.009, 0.043, 1
2144498, -2.139, -0.395, -0.22, -0.2, 0.037, 0.109, 1
2144518, -2.739, -0.208, -0.259, -0.197, 0.122, 0.216, 1
2144538, -2.933, -0.238, -0.142, -0.204, 0.134, 0.313, 1
2144558, -2.946, -0.393, 0.159, -0.266, 0.094, 0.406, 1
2144578, -2.825, -0.437, 0.321, -0.364, 0.043, 0.532, 1
2144598, -2.427, -0.42, 0.297, -0.405, -0.134, 0.587, 1
2144618, -2.333, -0.49, 0.216, -0.363, -0.254, 0.664, 1
2144638, -1.517, -0.167, 0.281, -0.313, -0.349, 0.764, 1
2144658, -1.012, -0.168, 0.19, -0.27, -0.43, 0.817, 1
2144678, -0.46, -0.424, 0.045, -0.242, -0.562, 0.892, 1
2144698, -0.387, -0.54, -0.196, -0.232, -0.677, 0.916, 1
2144718, 0.061, -0.56, -0.201, -0.225, -0.705, 1.012, 1
2144738, 0.725, -0.732, -0.296, -0.162, -0.725, 1.001, 1
2144758, 1.131, -0.926, -0.516, -0.04, -0.777, 0.915, 1
2144778, 0.894, -0.617, -0.577, 0.042, -0.702, 0.934, 1
2144798, 1.296, -0.937, -0.635, 0.106, -0.509, 1.231, 1
2144818, 1.835, -1.113, -0.551, -0.023, -0.332, 1.246, 1
2144838, 2.386, -1.269, -0.283, -0.105, -0.292, 1.211, 1
2144858, 2.865, -1.173, 0.012, -0.086, -0.369, 1.048, 1
2144878, 2.702, -1.054, -0.062, -0.018, -0.315, 0.871, 1
2144898, 2.782, -1.034, -0.137, -0.026, -0.054, 0.86, 1
2144918, 2.959, -0.744, 0.322, -0.107, 0.308, 0.79, 1
2144938, 3.639, -0.559, 0.899, -0.008, 0.373, 0.667, 1
2144958, 3.542, -0.366, 0.862, 0.147, 0.07, 0.362, 1
2144978, 2.594, -0.148, 0.556, 0.287, -0.226, 0.131, 1
2144998, 1.642, -0.231, -0.032, 0.291, -0.373, 0.255, 1
2145018, 1.259, -0.006, -0.384, 0.064, -0.285, 0.285, 1
2145038, 1.106, 0.233, -0.661, 0.01, -0.209, 0.321, 1
2145058, 0.822, 0.163, -1.093, 0.076, -0.238, 0.291, 1
2145078, 0.341, 0.283, -1.263, 0.095, -0.191, 0.308, 1
2145098, 0.28, 0.129, -1.184, 0.032, -0.196, 0.38, 1
2145118, 0.089, -0.118, -1.254, -0.092, -0.153, 0.37, 1
2145138, -0.019, 0.078, -1.074, -0.117, -0.017, 0.375, 1
2145158, 0.06, 0.058, -0.8, -0.038, 0.092, 0.333, 1
2145178, 0.278, -0.255, -0.67, -0.025, 0.075, 0.243, 1
2145198, 0.171, -0.268, -0.47, -0.081, -0.031, 0.216, 1
2145218, -0.081, -0.167, -0.386, -0.188, -0.069, 0.183, 1
2145238, -0.351, 0.127, -0.174, -0.256, -0.035, 0.166, 0
2145258, -0.01, 0.06, -0.048, -0.199, 0.002, 0.111, 0
2145278, -0.247, 0.093, 0.154, -0.055, 0.039, 0.056, 0
2145298, -0.25, -0.164, 0.092, -0.051, 0.03, 0.066, 0
2145318, -0.15, -0.371, -0.021, -0.21, 0.033, 0.086, 0
2145338, -0.109, -0.092, 0.144, -0.229, 0.041, 0.062, 0
2145358, -0.024, -0.053, 0.144, -0.098, 0.116, -0.025, 0
2145378, 0.281, -0.15, 0.143, 0.013, 0.192, -0.094, 0
2145398, 0.698, -0.509, -0.083, -0.05, 0.166, -0.125, 0
2145418, 0.847, -0.589, -0.253, -0.125, 0.127, -0.12, 0
2145438, 0.923, -0.379, -0.407, -0.127, 0.118, -0.155, 0
2145458, 1.359, 0.135, -0.349, -0.071, 0.159, -0.186, 0
2145478, 1.808, 0.108, -0.449, -0.047, 0.145, -0.215, 0
2145498, 2.033, -0.146, -0.588, -0.057, 0.156, -0.275, 0
2145518, 2.602, -0.11, -0.752, -0.101, 0.256, -0.305, 0
2145538, 2.884, -0.266, -1.175, -0.15, 0.381, -0.29, 0
2145558, 3.174, -0.499, -1.351, -0.287, 0.47, -0.468, 0
2145578, 3.045, -0.088, -0.553, -0.202, 0.589, -0.636, 0
2145598, 2.928, -0.808, -0.793, -0.125, 0.605, -0.762, 0
2145618, 2.044, -1.105, -1.083, -0.176, 0.619, -0.878, 0
2145638, 1.008, -1.363, -1.173, -0.246, 0.626, -0.924, 0
2145658, 0.725, -1.642, -0.823, -0.265, 0.653, -0.954, 0
2145678, 1.171, -2.132, -0.664, -0.391, 0.615, -1.021, 0
2145698, 0.203, -1.521, -0.755, -0.56, 0.538, -1.079, 0
2145718, -1.152, -1.603, -0.976, -0.38, 0.701, -1.098, 0
2145738, -1.695, -2.978, -1.37, -0.062, 0.797, -1.2, 0
2145758, -3.175, -3.82, -2.221, -0.01, 0.598, -1.375, 0
2145778, -5.222, -3.279, -2.315, -0.141, 0.472, -1.478, 0
2145798, -6.354, -1.938, -1.537, -0.232, 0.606, -1.435, 0
2145818, -6.461, -0.951, -0.677, -0.146, 0.736, -1.295, 0
2145838, -6.681, -0.348, -0.03, -0.123, 0.671, -1.064, 0
2145858, -6.48, -0.048, 0.43, -0.21, 0.383, -0.879, 0
2145878, -6.858, 0.016, 0.549, -0.326, 0.026, -0.715, 0
2145898, -6.913, -0.099, 0.427, -0.301, -0.043, -0.585, 0
2145918, -6.122, -0.084, 0.502, -0.164, 0.033, -0.447, 0
2145938, -5.061, -0.261, 0.549, -0.042, -0.063, -0.321, 0
2145958, -4.277, -0.683, 0.3, -0.007, -0.169, -0.229, 0
2145978, -2.781, -0.694, 0.094, 0.072, -0.173, -0.128, 0
2145998, -2.357, -1.162, -0.919, 0.2, -0.143, -0.133, 0
2146018, -2.234, -1.339, -1.387, 0.252, 0.023, -0.113, 0
2146038, -1.857, -1.045, -0.669, 0.202, 0.222, -0.02, 0
2146058, -0.56, -0.525, 0.592, 0.186, 0.34, 0.083, 0
2146078, -0.115, -0.574, 0.853, 0.234, 0.156, 0.046, 0
2146098, -0.362, -0.934, 0.316, 0.097, -0.023, 0.004, 0
2146118, -0.62, -0.559, 0.111, 0.012, -0.047, -0.008, 0
2146138, -0.553, -0.185, 0.01, 0.045, 0.02, 0.0, 0
2146158, -0.76, -0.251, -0.395, 0.024, 0.054, 0.037, 0
2146178, -0.827, -0.322, -0.686, -0.032, 0.082, 0.072, 0
2146198, -0.759, -0.326, -0.714, -0.057, 0.087, 0.086, 0
2146218, -0.537, -0.461, -0.783, -0.15, 0.094, 0.087, 0
2146238, -0.407, -0.389, -0.805, -0.204, 0.061, 0.069, 1
2146258, -0.816, -0.272, -0.995, -0.213, 0.08, 0.076, 1
2146278, -0.861, -0.372, -1.06, -0.244, 0.118, 0.082, 1
2146298, -0.732, -0.515, -1.06, -0.323, 0.185, 0.126, 1
2146318, -0.686, -0.534, -0.904, -0.357, 0.202, 0.121, 1
2146338, -0.76, -0.34, -0.698, -0.298, 0.204, 0.147, 1
2146358, -0.594, -0.258, -0.498, -0.219, 0.123, 0.192, 1
2146378, -0.346, -0.442, -0.222, -0.145, -0.041, 0.15, 1
2146398, -0.816, -0.627, -0.426, -0.203, -0.173, 0.164, 1
2146418, -1.654, -0.583, -0.751, -0.238, -0.19, 0.167, 1
2146438, -2.485, -0.558, -1.002, -0.244, -0.072, 0.22, 1
2146458, -2.785, -0.521, -0.886, -0.276, 0.063, 0.313, 1
2146478, -3.152, -0.184, -0.499, -0.295, 0.188, 0.43, 1
2146498, -3.093, -0.036, -0.232, -0.291, 0.195, 0.546, 1
2146518, -3.286, -0.012, -0.043, -0.28, 0.152, 0.668, 1
2146538, -3.427, -0.125, 0.215, -0.295, 0.094, 0.866, 1
2146558, -2.496, -0.305, 0.885, -0.307, 0.056, 0.977, 1
2146578, -1.332, -0.092, 1.269, -0.276, -0.009, 1.101, 1
2146598, -0.739, -0.435, 1.313, -0.16, -0.175, 1.145, 1
2146618, -0.346, -0.75, 1.152, -0.104, -0.406, 1.191, 1
2146638, 0.263, -0.765, 0.942, -0.096, -0.66, 1.213, 1
2146658, 0.678, -0.832, 0.623, -0.052, -0.872, 1.207, 1
2146678, 0.959, -0.987, 0.248, 0.012, -0.983, 1.192, 1
2146698, 1.533, -1.197, -0.041, 0.031, -1.051, 1.194, 1
2146718, 1.593, -1.248, -0.629, -0.057, -1.103, 1.115, 1
2146738, 1.679, -0.883, -0.958, -0.12, -1.039, 1.199, 1
2146758, 1.811, -0.788, -1.211, -0.108, -0.972, 1.171, 1
2146778, 1.975, -0.623, -1.238, -0.059, -0.946, 1.105, 1
2146798, 2.053, -0.49, -1.198, -0.032, -0.838, 0.932, 1
2146818, 1.908, -0.072, -0.981, 0.005, -0.727, 0.992, 1
2146838, 2.49, -0.232, -0.961, 0.006, -0.594, 1.126, 1
2146858, 2.425, -0.097, -0.951, -0.027, -0.474, 1.004, 1
2146878, 2.569, -0.764, -1.026, -0.013, -0.346, 0.847, 1
2146898, 2.533, -0.552, -0.728, -0.009, -0.18, 0.509, 1
2146918, 2.408, -0.458, -0.542, 0.191, -0.127, 0.527, 1
2146938, 2.448, -0.896, -0.51, 0.275, -0.113, 0.629, 1
2146958, 2.406, -1.031, -0.276, 0.145, -0.069, 0.549, 1
2146978, 2.166, -0.731, -0.037, 0.048, -0.051, 0.379, 1
2146998, 1.685, -0.463, -0.131, 0.102, -0.007, 0.242, 1
2147018, 1.437, -0.539, -0.175, 0.153, 0.109, 0.297, 1
2147038, 1.548, -0.61, -0.146, -0.011, 0.092, 0.2, 1
2147058, 1.198, -0.518, -0.228, -0.142, 0.01, 0.057, 1
2147078, 0.543, 0.051, -0.147, -0.061, 0.044, 0.004, 1
2147098, 0.23, 0.05, -0.182, 0.034, 0.061, 0.001, 1
2147118, 0.083, -0.198, -0.372, -0.023, 0.014, -0.029, 1
2147138, -0.426, -0.231, -0.603, -0.161, 0.095, -0.075, 1
2147158, -0.816, 0.109, -0.549, -0.212, 0.282, 0.009, 1
2147178, -0.319, 0.031, -0.256, -0.117, 0.246, 0.041, 1
2147198, -0.147, -0.003, -0.076, -0.002, 0.072, -0.019, 1
2147218, -0.441, -0.079, -0.13, -0.009, 0.036, -0.031, 1
2147238, -0.687, -0.132, -0.138, -0.094, 0.095, -0.022, 1
2147258, -0.727, -0.043, -0.1, -0.159, 0.147, 0.018, 0
2147278, -0.317, -0.06, 0.065, -0.16, 0.04, 0.007, 0
2147298, -0.179, 0.056, 0.181, -0.01, -0.1, -0.017, 0
2147318, -0.441, -0.141, 0.06, 0.073, -0.144, -0.003, 0
2147338, -0.713, -0.327, -0.26, -0.07, -0.012, 0.069, 0
2147358, -0.402, -0.252, -0.29, -0.223, 0.027, 0.151, 0
2147378, -0.256, -0.245, -0.39, -0.329, 0.062, 0.154, 0
2147398, -0.031, -0.039, -0.274, -0.271, 0.083, 0.105, 0
2147418, 0.099, -0.008, -0.102, -0.158, 0.07, 0.085, 0
2147438, 0.373, -0.147, -0.103, -0.138, 0.026, 0.06, 0
2147458, 0.618, -0.108, -0.078, -0.16, 0.006, 0.009, 0
2147478, 1.079, 0.047, 0.023, -0.125, 0.008, -0.017, 0
2147498, 1.811, -0.193, -0.078, -0.115, -0.062, -0.106, 0
2147518, 2.22, -0.27, -0.406, -0.136, -0.043, -0.216, 0
2147538, 3.653, -0.572, -1.157, -0.152, 0.017, -0.318, 0
2147558, 4.067, -1.07, -1.548, -0.226, 0.133, -0.398, 0
2147578, 4.049, -1.361, -1.483, -0.336, 0.264, -0.476, 0
2147598, 4.217, -0.754, -0.786, -0.432, 0.269, -0.594, 0
2147618, 3.795, 0.35, -0.23, -0.363, 0.261, -0.756, 0
2147638, 3.113, 0.315, 0.121, -0.154, 0.406, -0.815, 0
2147658, 2.322, -0.299, 0.317, -0.012, 0.567, -0.893, 0
2147678, 2.397, -0.92, 0.262, -0.015, 0.479, -0.939, 0
2147698, 1.229, -1.527, -0.664, -0.18, 0.139, -0.995, 0
2147718, -0.437, -1.048, -1.109, -0.184, 0.142, -0.99, 0
2147738, -1.55, -1.581, -1.123, 0.081, 0.518, -0.993, 0
2147758, -2.047, -1.725, -0.777, 0.128, 0.689, -0.894, 0
2147778, -2.8, -1.585, -0.533, -0.017, 0.622, -0.803, 0
2147798, -3.683, -1.799, -0.686, -0.163, 0.568, -0.667, 0
2147818, -3.919, -1.537, -0.471, -0.217, 0.667, -0.546, 0
2147838, -3.869, -1.575, 0.059, -0.102, 0.707, -0.508, 0
2147858, -4.505, -2.165, 0.002, 0.071, 0.535, -0.555, 0
2147878, -5.119, -2.594, -0.351, 0.136, 0.369, -0.618, 0
2147898, -5.181, -2.228, -0.313, 0.068, 0.268, -0.664, 0
2147918, -5.576, -1.718, -0.393, 0.0, 0.182, -0.735, 0
2147938, -6.018, -0.684, -0.179, -0.021, 0.087, -0.755, 0
2147958, -5.532, 0.146, 0.199, -0.009, 0.093, -0.668, 0
2147978, -4.768, 0.509, 0.459, -0.094, -0.041, -0.536, 0
