timestamp, accX, accY, accZ, gyroX, gyroY, gyroZ, button
2685978, 0.023, -0.083, -0.024, -0.354, 0.154, 0.073, 1
2685998, -0.123, -0.063, -0.04, -0.243, 0.075, 0.057, 1
2686018, -0.22, -0.021, -0.133, -0.143, 0.1, 0.07, 1
2686038, -0.001, -0.071, -0.107, -0.102, 0.169, 0.101, 1
2686058, 0.133, -0.053, 0.014, -0.127, 0.131, 0.107, 1
2686078, 0.08, -0.005, 0.078, -0.136, 0.029, 0.093, 1
2686098, -0.026, 0.035, 0.01, -0.089, -0.039, 0.076, 1
2686118, 0.0, -0.051, -0.116, -0.027, -0.064, 0.072, 1
2686138, 0.05, -0.042, -0.18, -0.007, -0.05, 0.079, 1
2686158, 0.028, -0.068, -0.184, -0.004, -0.013, 0.063, 1
2686178, 0.071, -0.041, -0.273, -0.04, 0.001, 0.048, 1
2686198, 0.034, -0.042, -0.239, -0.066, -0.004, 0.023, 1
2686218, 0.04, -0.095, -0.273, -0.054, -0.035, 0.017, 1
2686238, -0.001, -0.024, -0.235, -0.053, -0.036, 0.001, 1
2686258, -0.045, 0.033, -0.191, -0.058, 0.008, 0.01, 1
2686278, 0.09, 0.07, -0.103, 0.005, 0.004, -0.014, 1
2686298, 0.022, -0.015, -0.166, 0.018, -0.014, 0.004, 1
2686318, 0.006, -0.028, -0.305, -0.012, -0.008, 0.018, 1
2686338, 0.155, -0.068, -0.319, -0.077, -0.056, 0.03, 1
2686358, 0.029, -0.053, -0.41, -0.095, -0.066, 0.015, 1
2686378, -0.139, 0.018, -0.481, -0.069, 0.02, 0.003, 1
2686398, 0.093, -0.023, -0.415, -0.029, 0.009, -0.001, 1
2686418, -0.064, -0.111, -0.348, -0.051, 0.001, 0.009, 1
2686438, -0.105, -0.083, -0.274, -0.12, 0.059, 0.009, 1
2686458, -0.012, -0.017, -0.048, -0.109, 0.065, -0.006, 1
2686478, -0.009, -0.026, 0.067, -0.102, 0.039, 0.008, 1
2686498, -0.008, -0.019, 0.16, -0.084, 0.023, 0.019, 1
2686518, -0.052, -0.018, 0.193, -0.053, 0.01, 0.035, 1
2686538, 0.043, -0.071, 0.123, -0.038, -0.04, 0.057, 1
2686558, 0.002, -0.062, -0.096, -0.075, -0.036, 0.065, 1
2686578, -0.057, -0.045, -0.236, -0.094, 0.0, 0.067, 1
2686598, 0.071, -0.012, -0.125, -0.068, -0.018, 0.07, 1
2686618, 0.028, -0.008, -0.145, -0.054, -0.014, 0.084, 1
2686638, 0.09, -0.114, -0.283, -0.08, -0.013, 0.073, 1
2686658, 0.042, -0.018, -0.217, -0.087, -0.007, 0.051, 1
2686678, 0.022, -0.016, -0.194, -0.097, -0.015, 0.053, 1
2686698, -0.042, 0.043, -0.153, -0.118, 0.018, 0.061, 1
2686718, 0.0, -0.017, -0.124, -0.128, 0.056, 0.064, 1
2686738, 0.03, -0.075, -0.018, -0.127, 0.036, 0.065, 1
2686758, 0.1, -0.204, -0.088, -0.114, -0.012, 0.059, 1
2686778, -0.1, -0.113, -0.043, -0.116, 0.03, 0.051, 1
2686798, -0.025, -0.01, 0.073, -0.075, 0.074, 0.031, 1
2686818, 0.036, -0.01, 0.122, -0.053, 0.06, 0.047, 1
2686838, 0.073, -0.021, 0.007, -0.054, -0.015, 0.058, 1
2686858, -0.042, -0.085, -0.337, -0.061, -0.015, 0.042, 1
2686878, -0.151, -0.09, -0.457, -0.084, 0.03, 0.032, 1
2686898, -0.108, -0.075, -0.511, -0.122, 0.096, 0.031, 1
2686918, -0.039, -0.012, -0.284, -0.149, 0.118, 0.033, 1
2686938, -0.009, 0.017, -0.092, -0.127, 0.073, 0.044, 1
2686958, -0.017, -0.028, -0.089, -0.114, 0.04, 0.052, 1
2686978, -0.042, -0.061, -0.084, -0.12, 0.048, 0.062, 1
2686998, 0.083, -0.093, -0.099, -0.115, 0.051, 0.068, 1
2687018, 0.087, -0.061, -0.107, -0.142, 0.063, 0.069, 1
2687038, 0.039, -0.031, -0.132, -0.122, 0.027, 0.066, 1
2687058, 0.033, -0.054, -0.325, -0.1, 0.002, 0.064, 1
2687078, -0.069, -0.067, -0.387, -0.128, 0.023, 0.054, 1
2687098, -0.047, -0.096, -0.423, -0.182, 0.077, 0.067, 1
2687118, -0.163, -0.246, -0.469, -0.301, 0.138, 0.103, 1
2687138, -0.045, -0.442, -0.268, -0.461, 0.229, 0.183, 1
2687158, 0.814, -0.157, 0.468, -0.526, 0.166, 0.167, 1
2687178, -0.067, -0.121, 1.57, -0.489, 0.007, 0.08, 0
2687198, -0.485, 1.186, 3.956, -0.408, 0.165, 0.105, 0
2687218, 0.872, 1.268, 6.792, 0.127, 0.058, 0.102, 0
2687238, 0.25, 0.051, 7.782, 0.731, -0.268, -0.009, 0
2687258, -0.193, 0.06, 8.326, 0.962, -0.052, -0.142, 0
2687278, 0.078, -0.328, 8.672, 1.185, 0.045, -0.174, 0
2687298, 0.145, -0.116, 8.046, 1.323, -0.197, -0.153, 0
2687318, -0.295, -0.906, 6.837, 1.663, -0.533, -0.107, 0
2687338, 0.242, -2.129, 5.094, 1.612, -0.563, -0.182, 0
2687358, 0.495, -2.369, 3.481, 1.535, -0.379, -0.37, 0
2687378, 0.113, -2.449, 1.726, 1.45, -0.255, -0.539, 0
2687398, -0.36, -2.452, 0.337, 1.156, -0.373, -0.603, 0
2687418, -1.25, -1.157, 0.073, 1.048, -0.532, -0.442, 0
2687438, -1.256, -1.317, -0.277, 0.819, -0.571, -0.295, 0
2687458, -0.779, -1.277, -0.125, 0.796, -0.715, -0.375, 0
2687478, -2.384, -1.467, -1.913, 0.926, -0.431, -0.197, 0
2687498, -1.491, -1.319, -2.99, 1.105, -0.559, -0.014, 0
2687518, -0.246, -1.757, -3.883, 1.012, -0.954, 0.001, 0
2687538, -1.496, -2.041, -4.519, 0.948, -0.605, -0.017, 0
2687558, -2.112, -1.727, -4.573, 1.048, -0.058, 0.037, 0
2687578, -0.274, -2.078, -4.4, 0.934, -0.253, 0.042, 0
2687598, 1.46, -2.627, -4.196, 0.777, -1.093, -0.152, 0
2687618, 0.005, -2.211, -5.246, 0.645, -1.152, -0.421, 0
2687638, -1.312, -1.189, -5.741, 0.578, -0.614, -0.468, 0
2687658, -1.455, -0.801, -5.49, 0.426, -0.145, -0.353, 0
2687678, -0.52, -0.052, -4.098, 0.483, -0.047, -0.221, 0
2687698, -0.327, 0.103, -3.804, 0.466, -0.211, -0.197, 0
2687718, -1.179, 0.215, -3.75, 0.345, -0.142, -0.147, 0
2687738, -1.422, 0.446, -3.318, 0.186, 0.079, -0.08, 0
2687758, -0.859, 0.671, -2.384, 0.083, 0.114, 0.037, 0
2687778, -0.385, 0.814, -1.715, 0.083, -0.002, 0.101, 0
2687798, -0.486, 0.287, -1.948, -0.065, -0.01, 0.02, 0
2687818, -0.262, 0.541, -1.228, -0.277, 0.171, 0.1, 0
2687838, -0.065, -0.245, -1.103, -0.27, 0.123, 0.174, 0
2687858, -0.154, -0.553, -1.312, -0.254, 0.076, 0.249, 0
2687878, -0.088, -0.704, -1.548, -0.234, 0.083, 0.273, 0
2687898, 0.002, -1.03, -1.946, -0.274, 0.132, 0.299, 0
2687918, 0.123, -1.414, -2.69, -0.417, 0.247, 0.36, 0
2687938, 0.107, -1.363, -3.204, -0.623, 0.429, 0.401, 0
2687958, 0.066, -1.564, -3.741, -0.782, 0.51, 0.533, 1
2687978, 0.529, -1.555, -3.634, -0.858, 0.436, 0.649, 1
2687998, -0.085, -1.688, -3.918, -0.933, 0.472, 0.571, 1
2688018, -0.053, -1.922, -4.445, -1.008, 0.702, 0.375, 1
2688038, 0.331, -1.809, -4.332, -0.998, 0.676, 0.177, 1
2688058, -0.372, -1.876, -3.817, -1.001, 0.546, 0.063, 1
2688078, -0.14, -1.756, -2.917, -0.951, 0.51, 0.04, 1
2688098, -0.218, -1.892, -2.326, -0.894, 0.53, -0.05, 1
2688118, 0.063, -1.762, -1.837, -0.845, 0.497, -0.038, 1
2688138, -0.135, -1.479, -1.296, -0.704, 0.369, -0.053, 1
2688158, -0.524, -1.13, -0.414, -0.569, 0.271, -0.063, 1
2688178, -0.681, -1.232, -0.025, -0.51, 0.326, -0.131, 1
2688198, -0.271, -1.513, -0.333, -0.619, 0.415, -0.103, 1
2688218, -0.395, -1.761, -0.29, -0.797, 0.369, -0.074, 1
2688238, -0.815, -1.058, 0.571, -1.09, 0.447, -0.187, 1
2688258, -0.65, -1.016, 0.99, -1.251, 0.566, -0.172, 1
2688278, -0.604, -0.481, 1.656, -1.309, 0.487, -0.12, 1
2688298, -0.626, -0.345, 2.072, -1.274, 0.505, -0.101, 1
2688318, -0.463, -0.301, 2.174, -1.204, 0.521, -0.073, 1
2688338, -0.297, -0.429, 2.173, -1.204, 0.444, -0.062, 1
2688358, -0.436, -0.346, 2.203, -1.208, 0.383, -0.091, 1
2688378, -0.471, -0.201, 2.202, -1.122, 0.396, -0.081, 1
2688398, -0.455, -0.15, 2.231, -1.054, 0.337, -0.043, 1
2688418, -0.404, -0.06, 2.29, -0.927, 0.242, 0.0, 1
2688438, -0.318, -0.06, 2.178, -0.804, 0.177, 0.022, 1
2688458, -0.235, -0.132, 1.706, -0.698, 0.151, 0.064, 1
2688478, -0.337, 0.008, 1.599, -0.662, 0.252, 0.0, 1
2688498, -0.146, -0.131, 1.524, -0.606, 0.277, -0.027, 1
2688518, 0.081, -0.133, 1.624, -0.601, 0.147, -0.035, 1
2688538, -0.2, -0.148, 1.525, -0.598, 0.001, -0.014, 1
2688558, -0.392, 0.088, 1.572, -0.604, -0.024, 0.002, 1
2688578, -0.454, -0.049, 1.646, -0.643, 0.054, -0.017, 1
2688598, -0.435, 0.101, 1.971, -0.644, 0.179, -0.021, 1
2688618, -0.217, -0.093, 2.09, -0.539, 0.158, 0.025, 1
2688638, 0.003, -0.181, 2.224, -0.43, -0.04, 0.08, 1
2688658, 0.1, -0.333, 2.191, -0.331, -0.251, 0.092, 1
2688678, -0.249, -0.309, 1.927, -0.244, -0.265, 0.094, 1
2688698, -0.149, -0.559, 1.493, -0.172, -0.158, 0.111, 1
2688718, -0.03, -0.394, 1.389, -0.171, -0.048, 0.037, 1
2688738, -0.381, -0.011, 1.549, -0.05, 0.071, -0.004, 1
2688758, -0.3, -0.147, 1.294, 0.126, 0.019, 0.066, 1
2688778, -0.11, -0.338, 0.656, 0.195, -0.104, 0.113, 1
2688798, -0.317, -0.584, -0.264, 0.097, -0.158, 0.086, 1
2688818, -0.456, -0.456, -0.582, 0.07, -0.02, 0.061, 1
2688838, -0.289, -0.201, -0.725, 0.062, 0.042, 0.082, 1
2688858, -0.149, -0.224, -0.862, 0.026, 0.065, 0.089, 1
2688878, -0.127, -0.157, -0.794, -0.073, 0.045, 0.106, 1
2688898, -0.102, -0.037, -0.569, -0.114, -0.006, 0.08, 1
2688918, -0.131, -0.08, -0.562, -0.139, 0.011, 0.098, 1
2688938, -0.032, 0.005, -0.5, -0.183, 0.044, 0.106, 1
2688958, 0.0, 0.008, -0.204, -0.195, 0.077, 0.071, 1
2688978, -0.097, 0.074, 0.19, -0.138, 0.071, 0.023, 1
2688998, -0.103, -0.116, 0.436, -0.12, 0.168, 0.056, 1
2689018, -0.127, -0.158, 0.822, -0.164, 0.249, 0.085, 1
2689038, -0.214, -0.207, 1.386, -0.249, 0.28, 0.116, 1
2689058, -0.232, -0.296, 2.291, -0.287, 0.281, 0.125, 1
2689078, -0.527, -0.489, 3.379, -0.285, 0.278, 0.139, 1
2689098, 0.014, -0.497, 4.159, -0.151, 0.248, 0.09, 1
2689118, -0.606, -0.618, 4.506, -0.025, 0.089, -0.09, 1
2689138, -1.899, -0.697, 4.694, -0.237, 0.44, -0.319, 0
2689158, -1.159, 0.405, 6.837, -0.313, 1.01, -0.267, 0
2689178, 0.534, 0.029, 8.366, 0.222, 0.411, 0.048, 0
2689198, -0.702, -0.391, 7.33, 0.835, -0.43, 0.425, 0
2689218, -1.446, -1.284, 5.501, 1.387, -0.448, 0.507, 0
2689238, -0.512, -2.024, 4.012, 1.645, 0.193, 0.49, 0
2689258, 0.844, -3.076, 2.201, 1.699, 0.392, 0.447, 0
2689278, 1.34, -2.953, 0.479, 1.353, -0.021, 0.319, 0
2689298, 1.756, -3.219, -0.182, 1.081, -0.526, 0.106, 0
2689318, 0.317, -2.373, -0.893, 0.823, -0.526, -0.032, 0
2689338, -1.03, -0.982, -1.505, 0.72, -0.28, -0.1, 0
2689358, -1.007, -0.634, -1.65, 0.71, -0.218, -0.02, 0
2689378, 0.115, -0.911, -1.473, 0.656, -0.383, 0.036, 0
2689398, 0.28, -1.401, -1.829, 0.637, -0.524, -0.107, 0
2689418, 0.09, -1.472, -2.601, 0.661, -0.458, -0.241, 0
2689438, -0.72, -1.292, -3.088, 0.51, -0.079, -0.169, 0
2689458, 0.267, -0.789, -3.099, 0.569, -0.029, -0.021, 0
2689478, 0.572, -0.604, -3.204, 0.668, -0.3, -0.175, 0
2689498, 0.424, -0.848, -3.058, 0.648, -0.604, -0.383, 0
2689518, -0.716, 0.175, -2.798, 0.699, -0.624, -0.381, 0
2689538, -1.035, -0.156, -2.845, 0.756, -0.45, -0.138, 0
2689558, -0.095, -0.748, -3.08, 0.722, -0.522, -0.161, 0
2689578, 0.453, -1.005, -3.215, 0.464, -0.852, -0.408, 0
2689598, 0.048, -0.572, -2.912, 0.425, -1.016, -0.553, 0
2689618, -0.61, -0.137, -3.036, 0.584, -0.913, -0.467, 0
2689638, -0.805, -0.093, -3.285, 0.636, -0.717, -0.251, 0
2689658, 0.079, -0.182, -3.296, 0.676, -0.643, -0.159, 0
2689678, 0.773, -0.691, -3.523, 0.474, -0.82, -0.29, 0
2689698, -0.424, -0.353, -3.604, 0.284, -0.667, -0.37, 0
2689718, -1.469, 0.001, -3.263, 0.182, -0.252, -0.122, 0
2689738, -1.151, 0.292, -2.512, 0.167, 0.106, 0.155, 0
2689758, -0.389, -0.178, -1.904, 0.014, 0.215, 0.164, 0
2689778, 0.043, -0.572, -0.884, -0.154, 0.071, 0.002, 0
2689798, -0.251, -0.105, -0.619, -0.208, -0.047, -0.063, 0
2689818, -0.413, -0.11, -0.78, -0.188, -0.076, -0.003, 0
2689838, -0.164, -0.441, -1.405, -0.191, -0.042, 0.106, 0
2689858, 0.162, -0.77, -2.113, -0.296, 0.017, 0.205, 0
2689878, 0.232, -0.89, -2.68, -0.453, 0.16, 0.326, 0
2689898, 0.609, -1.433, -3.182, -0.706, 0.359, 0.51, 0
2689918, 0.877, -1.447, -3.629, -1.0, 0.491, 0.687, 1
2689938, 1.122, -1.334, -3.966, -1.106, 0.484, 0.696, 1
2689958, 0.623, -1.418, -4.004, -1.251, 0.578, 0.697, 1
2689978, 0.29, -1.696, -3.882, -1.223, 0.527, 0.419, 1
2689998, 0.039, -1.738, -3.924, -1.227, 0.701, 0.152, 1
2690018, 0.277, -1.661, -4.059, -1.231, 0.834, 0.008, 1
2690038, -0.202, -1.573, -3.424, -1.251, 0.844, -0.075, 1
2690058, -0.07, -0.869, -2.56, -1.198, 0.86, -0.109, 1
2690078, 0.085, -0.421, -2.003, -1.042, 0.74, -0.074, 1
2690098, 0.431, -0.774, -2.02, -0.768, 0.497, -0.069, 1
2690118, 0.089, -1.33, -1.833, -0.727, 0.27, -0.092, 1
2690138, -0.616, -1.856, -1.444, -0.981, 0.313, -0.127, 1
2690158, 0.005, -1.368, -0.821, -1.185, 0.568, -0.273, 1
2690178, -0.409, -1.089, -0.051, -1.116, 0.591, -0.326, 1
2690198, -1.3, -0.791, 0.993, -1.05, 0.68, -0.29, 1
2690218, -1.331, -0.677, 1.706, -0.992, 0.861, -0.167, 1
2690238, -0.169, -0.425, 1.784, -0.731, 0.919, -0.139, 1
2690258, -0.687, -0.637, 1.732, -0.508, 0.531, -0.153, 1
2690278, -1.245, -0.738, 1.965, -0.68, 0.621, -0.155, 1
2690298, -1.084, -0.475, 2.399, -0.735, 0.725, -0.108, 1
2690318, -0.106, -0.412, 2.564, -0.663, 0.321, -0.103, 1
2690338, 0.298, -0.787, 2.1, -0.513, -0.262, -0.048, 1
2690358, -0.263, -0.827, 1.793, -0.514, -0.462, -0.014, 1
2690378, -0.555, -1.128, 1.376, -0.609, -0.29, -0.06, 1
2690398, -0.909, -0.411, 1.314, -0.516, 0.062, -0.088, 1
2690418, -0.78, -0.095, 1.577, -0.304, 0.323, -0.058, 1
2690438, -0.38, -0.134, 1.921, -0.111, 0.337, -0.017, 1
2690458, 0.651, -0.783, 1.432, -0.105, -0.081, 0.064, 1
2690478, 0.733, -1.187, 0.68, -0.347, -0.555, -0.007, 1
2690498, -0.497, -0.782, 0.671, -0.679, -0.452, -0.139, 1
2690518, -1.048, 0.035, 1.473, -0.743, -0.011, -0.202, 1
2690538, -1.267, 0.682, 2.375, -0.501, 0.325, -0.141, 1
2690558, -0.367, 0.205, 2.364, -0.177, 0.158, 0.007, 1
2690578, 0.386, -0.426, 1.784, -0.004, -0.288, 0.097, 1
2690598, 0.162, -0.789, 1.058, -0.143, -0.533, 0.075, 1
2690618, -0.396, -0.781, 0.537, -0.366, -0.376, 0.041, 1
2690638, -0.435, -0.399, 0.683, -0.457, -0.145, 0.012, 1
2690658, -0.432, -0.122, 0.838, -0.406, -0.007, 0.018, 1
2690678, -0.24, -0.098, 1.113, -0.248, -0.001, 0.109, 1
2690698, -0.203, -0.137, 1.127, -0.106, 0.001, 0.156, 1
2690718, -0.182, -0.167, 1.094, -0.112, 0.107, 0.13, 1
2690738, -0.493, -0.184, 1.221, -0.247, 0.319, 0.175, 1
2690758, 0.725, -0.506, 1.513, -0.249, 0.169, 0.228, 1
2690778, 0.432, -0.462, 1.015, -0.124, -0.106, 0.238, 1
2690798, 0.007, -0.47, 0.248, 0.036, -0.152, 0.23, 1
2690818, -0.041, -0.434, -0.217, 0.073, 0.024, 0.196, 1
2690838, 0.184, -0.347, -0.371, 0.059, 0.143, 0.15, 1
2690858, 0.394, -0.386, -0.489, 0.003, 0.037, 0.145, 1
2690878, 0.067, -0.255, -0.719, -0.075, -0.156, 0.142, 1
2690898, -0.198, -0.122, -0.789, -0.124, -0.194, 0.171, 1
2690918, -0.122, 0.104, -0.749, -0.152, -0.153, 0.149, 1
2690938, -0.44, 0.189, -0.625, -0.139, -0.075, 0.122, 1
2690958, -0.124, 0.011, -0.478, -0.076, -0.031, 0.141, 1
2690978, -0.053, -0.107, -0.221, -0.081, -0.064, 0.13, 1
2690998, 0.038, -0.368, 0.058, -0.183, -0.08, 0.174, 1
2691018, -0.002, -0.2, 0.527, -0.284, -0.084, 0.177, 1
2691038, -0.096, -0.094, 1.069, -0.288, -0.084, 0.188, 1
2691058, -0.059, -0.084, 1.72, -0.153, -0.098, 0.172, 1
2691078, 0.004, -0.251, 2.129, 0.016, 0.012, 0.183, 1
2691098, 0.227, -0.6, 2.457, 0.097, 0.072, 0.18, 1
2691118, 0.581, -1.007, 3.226, -0.02, -0.014, 0.118, 1
2691138, 0.626, -0.632, 4.441, -0.094, -0.111, 0.045, 0
2691158, -0.74, 0.58, 5.35, 0.183, -0.082, 0.125, 0
2691178, -0.974, 0.348, 5.8, 0.722, 0.029, 0.171, 0
2691198, -1.308, 0.395, 5.815, 0.916, 0.084, 0.279, 0
2691218, -1.427, 0.154, 6.322, 0.986, 0.092, 0.286, 0
2691238, -0.698, -0.16, 5.865, 1.368, -0.059, 0.475, 0
2691258, -0.42, -1.719, 2.981, 1.502, -0.172, 0.571, 0
2691278, -0.06, -2.679, 0.383, 1.143, -0.1, 0.366, 0
2691298, 0.04, -2.608, -0.234, 0.534, 0.034, 0.174, 0
2691318, 0.056, -1.792, 0.752, 0.199, 0.036, 0.05, 0
2691338, -0.431, -0.101, 0.85, 0.824, 0.102, 0.084, 0
2691358, -0.507, -1.29, -0.715, 1.155, 0.4, 0.276, 0
2691378, 0.393, -2.439, -1.752, 0.675, 0.554, 0.109, 0
2691398, 0.243, -1.341, -1.477, 0.223, 0.206, -0.199, 0
2691418, -0.567, 0.426, -0.405, 0.378, -0.405, -0.122, 0
2691438, -1.45, 0.073, -1.313, 0.879, -0.385, 0.265, 0
2691458, -0.293, -2.305, -2.768, 0.623, 0.012, 0.197, 0
2691478, 0.794, -2.335, -2.949, 0.139, -0.117, -0.147, 0
2691498, -0.044, -0.987, -2.535, 0.083, -0.569, -0.291, 0
2691518, -0.899, 0.221, -1.784, 0.594, -0.481, 0.008, 0
2691538, -0.287, -1.027, -2.352, 0.782, -0.249, 0.13, 0
2691558, 0.278, -1.374, -2.505, 0.602, -0.2, 0.05, 0
2691578, 0.287, -1.126, -2.538, 0.355, -0.406, -0.189, 0
2691598, 0.114, -0.694, -2.11, 0.301, -0.618, -0.332, 0
2691618, 0.211, -0.414, -1.893, 0.53, -0.485, -0.246, 0
2691638, 0.979, -0.984, -2.435, 0.637, -0.554, -0.335, 0
2691658, 0.188, -1.095, -3.486, 0.434, -0.592, -0.46, 0
2691678, -0.572, -0.41, -3.419, 0.185, -0.411, -0.507, 0
2691698, -0.285, 0.057, -2.405, 0.171, -0.402, -0.434, 0
2691718, -0.754, 0.667, -1.552, 0.364, -0.328, -0.198, 0
2691738, -0.92, 0.149, -2.31, 0.299, -0.164, -0.07, 0
2691758, -0.523, 0.355, -2.16, 0.119, -0.137, -0.037, 0
2691778, -0.454, 0.344, -1.746, 0.111, -0.159, -0.004, 0
2691798, -0.17, 0.05, -1.432, 0.125, -0.131, 0.054, 0
2691818, 0.005, -0.365, -1.553, 0.07, -0.149, 0.033, 0
2691838, -0.089, -0.377, -1.765, -0.033, -0.141, -0.051, 0
2691858, -0.397, 0.111, -1.588, -0.112, -0.06, 0.005, 0
2691878, -0.025, -0.345, -1.441, -0.023, 0.056, 0.182, 0
2691898, 0.369, -0.755, -1.608, -0.03, 0.036, 0.232, 0
2691918, 0.18, -0.67, -1.85, -0.104, -0.036, 0.226, 0
2691938, 0.008, -0.697, -2.062, -0.231, 0.001, 0.216, 0
2691958, 0.071, -0.852, -2.184, -0.423, 0.108, 0.288, 0
2691978, 0.16, -0.903, -2.778, -0.713, 0.265, 0.507, 1
2691998, 0.388, -0.639, -3.043, -0.866, 0.354, 0.722, 1
2692018, 0.307, -0.52, -3.095, -0.905, 0.44, 0.768, 1
2692038, 0.214, -1.115, -3.414, -0.787, 0.327, 0.579, 1
2692058, -0.278, -1.323, -3.866, -0.841, 0.492, 0.34, 1
2692078, -0.023, -0.962, -3.643, -0.941, 0.634, 0.235, 1
2692098, 0.13, -0.718, -3.066, -0.925, 0.669, 0.131, 1
2692118, 0.506, -0.342, -2.328, -0.775, 0.541, 0.131, 1
2692138, 0.193, -0.252, -2.273, -0.443, 0.149, 0.113, 1
2692158, -0.747, -0.325, -2.439, -0.131, -0.099, 0.072, 1
2692178, -1.109, -1.051, -2.674, 0.0, -0.049, 0.097, 1
2692198, -1.266, -1.567, -2.173, -0.257, 0.265, 0.152, 1
2692218, -0.308, -1.093, -1.35, -0.521, 0.439, 0.145, 1
2692238, 0.412, -0.609, -0.642, -0.509, -0.001, 0.188, 1
2692258, -0.227, -1.008, -0.486, -0.571, -0.221, 0.235, 1
2692278, -0.725, -1.609, -0.611, -0.82, 0.045, 0.129, 1
2692298, -0.27, -1.801, -0.445, -1.025, 0.298, 0.023, 1
2692318, -0.029, -1.322, -0.147, -1.015, 0.424, 0.082, 1
2692338, -0.23, -1.198, 0.343, -0.928, 0.488, 0.164, 1
2692358, -0.148, -0.994, 1.092, -0.783, 0.575, 0.175, 1
2692378, 0.337, -1.391, 1.179, -0.751, 0.587, 0.102, 1
2692398, 0.366, -1.75, 1.023, -0.904, 0.481, -0.004, 1
2692418, 0.495, -1.804, 1.025, -1.085, 0.351, -0.028, 1
2692438, 0.368, -1.429, 1.418, -1.183, 0.28, -0.069, 1
2692458, 0.17, -1.197, 1.867, -1.203, 0.237, -0.15, 1
2692478, -0.095, -1.113, 1.815, -1.036, 0.266, -0.162, 1
2692498, -0.932, -0.378, 1.925, -0.886, 0.5, -0.178, 1
2692518, -0.943, -0.24, 1.977, -0.722, 0.706, -0.157, 1
2692538, -0.742, -0.044, 2.479, -0.615, 0.744, -0.164, 1
2692558, 0.074, -0.721, 2.556, -0.612, 0.375, -0.047, 1
2692578, -0.036, -0.551, 2.714, -0.686, -0.098, -0.021, 1
2692598, -0.219, -0.727, 2.467, -0.714, -0.324, 0.048, 1
2692618, -0.821, -0.254, 2.327, -0.649, -0.23, 0.031, 1
2692638, -0.7, -0.243, 2.371, -0.518, 0.009, 0.031, 1
2692658, -0.828, 0.022, 2.348, -0.302, 0.223, 0.007, 1
2692678, -0.66, 0.019, 2.32, -0.097, 0.332, 0.011, 1
2692698, -0.262, -0.291, 1.841, -0.016, 0.086, 0.078, 1
2692718, 0.139, -0.805, 0.625, -0.124, -0.194, 0.1, 1
2692738, -0.379, -0.352, 0.563, -0.254, -0.212, 0.037, 1
2692758, -0.767, 0.315, 0.879, -0.282, 0.076, -0.017, 1
2692778, -0.715, 0.528, 1.156, -0.113, 0.31, -0.018, 1
2692798, -0.154, -0.123, 1.002, 0.051, 0.306, 0.076, 1
2692818, -0.045, -0.367, 0.639, 0.121, 0.021, 0.142, 1
2692838, 0.014, -0.515, 0.223, 0.027, -0.113, 0.145, 1
2692858, -0.403, -0.314, 0.081, -0.106, -0.034, 0.105, 1
2692878, -0.208, -0.162, 0.157, -0.116, 0.129, 0.084, 1
2692898, -0.044, -0.086, 0.259, -0.047, 0.116, 0.087, 1
2692918, -0.073, -0.103, -0.009, 0.042, -0.013, 0.128, 1
2692938, -0.116, -0.188, -0.341, 0.1, -0.076, 0.161, 1
2692958, 0.061, -0.376, -0.602, 0.039, -0.077, 0.131, 1
2692978, -0.044, -0.307, -0.571, -0.113, -0.018, 0.098, 1
2692998, 0.131, -0.139, -0.445, -0.153, 0.024, 0.074, 1
2693018, 0.016, -0.004, -0.437, -0.135, 0.0, 0.092, 1
2693038, -0.278, 0.217, -0.433, -0.089, 0.025, 0.083, 1
2693058, -0.101, 0.11, -0.47, -0.012, 0.117, 0.076, 1
2693078, 0.043, -0.062, -0.455, -0.014, 0.098, 0.092, 1
2693098, 0.169, -0.103, -0.237, -0.097, 0.053, 0.08, 1
2693118, 0.116, -0.158, 0.203, -0.197, -0.012, 0.106, 1
2693138, -0.047, -0.092, 0.517, -0.215, -0.108, 0.107, 1
2693158, -0.166, -0.066, 0.773, -0.184, -0.103, 0.103, 1
2693178, -0.272, -0.253, 1.066, -0.157, -0.021, 0.07, 1
2693198, 0.19, -0.474, 1.798, -0.335, -0.091, 0.083, 1
2693218, -0.062, -0.38, 2.834, -0.384, -0.323, 0.173, 1
2693238, -0.129, -0.541, 3.633, -0.503, -0.378, 0.161, 1
2693258, -0.442, -0.734, 4.916, -0.612, -0.067, -0.017, 0
2693278, -0.658, 0.387, 7.143, -0.21, 0.259, -0.077, 0
2693298, -1.233, 0.946, 8.086, 0.621, 0.248, 0.06, 0
2693318, -1.696, 0.802, 7.149, 1.258, 0.142, 0.221, 0
2693338, -1.447, -0.359, 6.316, 1.373, 0.12, 0.26, 0
2693358, -0.391, -1.294, 5.767, 1.189, 0.037, 0.279, 0
2693378, -0.632, -1.69, 4.072, 0.993, -0.081, 0.194, 0
2693398, -0.848, -1.393, 2.503, 1.178, -0.065, 0.194, 0
2693418, -0.212, -2.45, 0.904, 1.063, -0.141, 0.226, 0
2693438, 0.07, -3.165, -0.897, 0.497, -0.123, 0.064, 0
2693458, -0.219, -1.386, -1.472, 0.48, -0.092, 0.019, 0
2693478, -0.797, -0.942, -2.582, 0.723, 0.113, 0.175, 0
2693498, 0.221, -1.145, -2.915, 0.69, -0.024, 0.192, 0
2693518, 1.133, -1.53, -2.577, 0.477, -0.397, -0.026, 0
2693538, 0.359, -0.963, -2.882, 0.387, -0.366, -0.169, 0
2693558, -0.575, -0.217, -3.179, 0.467, -0.155, -0.006, 0
2693578, -0.688, 0.155, -2.836, 0.604, -0.031, 0.166, 0
2693598, 0.29, -0.228, -2.418, 0.81, -0.011, 0.204, 0
2693618, 0.796, -1.06, -2.845, 0.744, -0.171, 0.098, 0
2693638, 0.798, -1.05, -2.805, 0.565, -0.347, -0.051, 0
2693658, 0.563, -0.467, -2.537, 0.582, -0.494, -0.182, 0
2693678, -0.272, 0.23, -2.624, 0.698, -0.543, -0.1, 0
2693698, -1.154, -0.116, -3.458, 0.613, -0.177, 0.042, 0
2693718, 0.323, -0.641, -2.941, 0.475, -0.115, 0.015, 0
2693738, 0.368, -0.409, -1.951, 0.417, -0.455, -0.188, 0
2693758, -0.618, -0.035, -2.44, 0.478, -0.62, -0.291, 0
2693778, -1.705, -0.096, -2.963, 0.43, -0.507, -0.221, 0
2693798, -1.296, 0.218, -2.424, 0.304, -0.215, -0.095, 0
2693818, -0.433, 0.08, -1.696, 0.295, -0.161, 0.017, 0
2693838, -0.063, 0.005, -1.546, 0.329, -0.373, -0.001, 0
2693858, -0.567, -0.265, -1.976, 0.331, -0.477, -0.016, 0
2693878, -0.468, -0.328, -2.107, 0.219, -0.252, 0.0, 0
2693898, -0.083, -0.437, -2.091, 0.125, -0.062, -0.015, 0
2693918, 0.137, -0.343, -1.871, -0.014, -0.044, -0.039, 0
2693938, -0.275, -0.236, -1.707, -0.092, -0.121, -0.046, 0
2693958, -0.372, -0.198, -1.886, -0.12, -0.007, 0.053, 0
2693978, -0.08, -0.549, -2.154, -0.182, 0.139, 0.153, 0
2693998, 0.134, -0.628, -2.119, -0.361, 0.199, 0.215, 0
2694018, 0.326, -0.797, -2.333, -0.59, 0.232, 0.331, 1
2694038, -0.252, -0.301, -2.777, -0.766, 0.273, 0.466, 1
2694058, 0.097, -0.423, -2.923, -0.747, 0.258, 0.502, 1
2694078, 0.17, -0.485, -3.315, -0.584, 0.191, 0.514, 1
2694098, 0.228, -1.479, -4.359, -0.613, 0.196, 0.554, 1
2694118, 0.35, -2.267, -4.671, -0.819, 0.342, 0.296, 1
2694138, -0.176, -1.226, -4.154, -1.055, 0.628, 0.039, 1
2694158, -0.006, -0.697, -3.535, -0.884, 0.811, 0.009, 1
2694178, 0.201, -0.706, -2.949, -0.678, 0.63, 0.072, 1
2694198, 0.344, -1.0, -2.649, -0.533, 0.399, 0.086, 1
2694218, 0.07, -1.476, -2.757, -0.576, 0.292, -0.029, 1
2694238, -0.228, -1.21, -2.361, -0.656, 0.293, -0.06, 1
2694258, -0.531, -1.217, -2.117, -0.799, 0.345, -0.014, 1
2694278, -0.672, -0.765, -1.301, -0.92, 0.361, 0.025, 1
2694298, -0.112, -0.421, -0.46, -0.734, 0.138, 0.003, 1
2694318, 0.036, -0.553, -0.174, -0.527, -0.014, 0.017, 1
2694338, -0.542, -0.805, -0.12, -0.56, 0.153, 0.095, 1
2694358, -0.694, -1.048, 0.045, -0.736, 0.549, 0.089, 1
2694378, -0.24, -0.928, 0.487, -0.794, 0.726, 0.02, 1
2694398, 0.358, -1.192, 0.8, -0.81, 0.48, 0.006, 1
2694418, 0.525, -0.972, 1.285, -0.794, 0.11, 0.022, 1
2694438, 0.43, -1.053, 1.629, -0.855, -0.126, 0.058, 1
2694458, -0.12, -0.984, 1.815, -0.946, 0.009, -0.001, 1
2694478, 0.139, -1.284, 1.866, -1.087, 0.185, -0.106, 1
2694498, 0.182, -1.206, 2.028, -1.081, 0.304, -0.141, 1
2694518, 0.082, -0.771, 2.554, -1.029, 0.34, -0.207, 1
2694538, -0.213, -0.342, 2.956, -0.844, 0.343, -0.257, 1
2694558, -0.715, 0.015, 3.043, -0.598, 0.405, -0.221, 1
2694578, -0.461, -0.252, 2.723, -0.422, 0.381, -0.161, 1
2694598, -0.259, -0.492, 2.192, -0.386, 0.214, -0.127, 1
2694618, -0.46, -0.322, 1.861, -0.429, 0.073, -0.108, 1
2694638, -0.677, -0.237, 1.648, -0.453, 0.091, -0.162, 1
2694658, -1.134, 0.196, 1.612, -0.315, 0.235, -0.098, 1
2694678, -0.35, -0.007, 1.591, -0.235, 0.186, -0.002, 1
2694698, -0.331, -0.275, 1.321, -0.241, 0.064, 0.05, 1
2694718, -0.199, -0.638, 1.021, -0.353, -0.074, 0.076, 1
2694738, -0.378, -0.389, 1.059, -0.502, -0.17, 0.073, 1
2694758, -0.503, 0.233, 1.439, -0.484, -0.098, 0.059, 1
2694778, -0.702, 0.38, 1.672, -0.271, 0.006, 0.08, 1
2694798, -0.352, -0.101, 1.648, -0.037, 0.135, 0.123, 1
2694818, -0.049, -0.525, 1.392, 0.059, 0.104, 0.124, 1
2694838, 0.124, -0.592, 1.256, 0.045, -0.023, 0.128, 1
2694858, 0.205, -0.491, 1.128, -0.007, -0.104, 0.149, 1
2694878, -0.174, -0.237, 0.956, -0.009, -0.128, 0.131, 1
2694898, -0.186, -0.174, 0.736, 0.048, -0.058, 0.127, 1
2694918, -0.047, -0.221, 0.319, 0.133, -0.061, 0.1, 1
2694938, -0.228, -0.183, -0.151, 0.141, -0.011, 0.083, 1
2694958, -0.06, -0.278, -0.374, 0.094, 0.061, 0.096, 1
2694978, -0.061, -0.116, -0.373, -0.007, 0.065, 0.1, 1
2694998, -0.144, -0.024, -0.501, -0.078, 0.056, 0.099, 1
2695018, 0.044, 0.016, -0.422, -0.113, 0.062, 0.111, 1
2695038, 0.106, -0.005, -0.194, -0.147, 0.031, 0.114, 1
2695058, -0.008, -0.024, 0.045, -0.152, 0.001, 0.095, 1
2695078, -0.002, -0.043, 0.042, -0.114, 0.023, 0.111, 1
2695098, 0.022, 0.013, 0.259, -0.051, 0.059, 0.081, 1
2695118, 0.019, -0.01, 0.612, 0.024, 0.087, 0.056, 1
2695138, -0.132, -0.111, 0.744, 0.084, 0.106, 0.01, 1
2695158, -0.279, -0.167, 0.886, 0.064, 0.012, 0.071, 1
2695178, -0.225, -0.317, 1.148, -0.068, -0.196, 0.132, 1
2695198, -0.428, -0.398, 1.764, -0.202, -0.237, 0.114, 1
2695218, -0.521, -0.301, 2.911, -0.109, -0.078, 0.127, 1
2695238, -0.329, -0.055, 3.855, 0.227, -0.1, 0.211, 1
2695258, -0.274, -0.1, 4.515, 0.46, -0.221, 0.28, 0
2695278, -0.569, -0.455, 3.841, 0.513, -0.124, 0.378, 0
2695298, -0.632, -0.155, 4.334, 0.63, 0.094, 0.372, 0
2695318, -0.759, 0.212, 4.458, 0.866, -0.037, 0.328, 0
2695338, -1.51, 0.553, 3.75, 1.15, -0.138, 0.421, 0
2695358, -2.114, 0.504, 2.424, 1.337, 0.191, 0.574, 0
2695378, -0.989, -0.422, 1.765, 1.075, 0.439, 0.614, 0
2695398, 0.004, -1.076, 2.142, 0.579, 0.263, 0.574, 0
2695418, -0.183, -0.741, 2.513, 0.405, 0.062, 0.582, 0
2695438, -0.466, -0.607, 2.162, 0.552, 0.236, 0.619, 0
2695458, 0.341, -1.364, 1.437, 0.529, 0.528, 0.458, 0
2695478, 0.92, -1.074, 0.782, 0.507, 0.094, 0.313, 0
2695498, -0.161, -1.059, 0.192, 0.379, -0.296, 0.249, 0
2695518, -0.961, -0.798, 0.336, 0.582, -0.166, 0.326, 0
2695538, -0.797, -1.09, -0.689, 0.875, 0.015, 0.412, 0
2695558, 0.414, -2.504, -1.788, 0.658, -0.12, 0.299, 0
2695578, 1.043, -2.371, -1.772, 0.436, -0.516, -0.018, 0
2695598, -0.802, -1.248, -2.083, 0.475, -0.64, 0.014, 0
2695618, -1.093, -1.024, -2.712, 0.656, -0.369, 0.185, 0
2695638, -0.492, -1.466, -3.825, 0.45, -0.259, 0.111, 0
2695658, 0.158, -1.049, -3.655, 0.39, -0.167, -0.06, 0
2695678, 0.304, -0.132, -2.646, 0.465, -0.105, -0.14, 0
2695698, 0.389, -0.591, -2.877, 0.59, -0.262, -0.173, 0
2695718, -0.258, -0.201, -2.751, 0.348, -0.428, -0.296, 0
2695738, -1.002, 0.245, -2.716, 0.144, -0.243, -0.366, 0
2695758, -0.307, 0.088, -2.546, 0.129, -0.04, -0.287, 0
2695778, 0.059, 0.529, -2.271, 0.236, -0.114, -0.156, 0
2695798, 0.323, -0.344, -2.559, 0.292, -0.283, -0.043, 0
2695818, -0.004, -0.364, -2.185, 0.154, -0.378, -0.139, 0
2695838, -0.369, -0.086, -2.202, 0.115, -0.24, -0.171, 0
2695858, -0.013, -0.241, -2.113, 0.156, -0.147, -0.056, 0
2695878, 0.176, -0.245, -2.096, 0.206, -0.145, 0.075, 0
2695898, 0.271, -0.547, -2.234, 0.246, -0.045, 0.157, 0
2695918, 0.228, -0.745, -2.485, 0.117, 0.047, 0.114, 0
2695938, 0.28, -0.493, -2.078, -0.037, -0.018, 0.027, 0
2695958, 0.079, -0.191, -1.577, -0.051, -0.064, 0.009, 0
2695978, 0.023, -0.328, -1.481, 0.014, -0.012, 0.063, 0
2695998, -0.186, -0.724, -1.94, -0.006, 0.013, 0.117, 0
2696018, 0.026, -0.618, -2.0, -0.2, 0.128, 0.117, 0
2696038, 0.147, -0.827, -1.943, -0.408, 0.167, 0.143, 0
2696058, 0.155, -0.671, -1.788, -0.714, 0.265, 0.274, 1
2696078, 0.08, -0.377, -1.744, -0.741, 0.322, 0.405, 1
2696098, 0.441, -0.834, -2.636, -0.626, 0.291, 0.381, 1
2696118, 0.582, -0.615, -2.881, -0.384, 0.158, 0.26, 1
2696138, 0.221, -1.044, -3.413, -0.339, 0.142, 0.201, 1
2696158, -0.14, -1.14, -3.475, -0.409, 0.29, 0.144, 1
2696178, 0.162, -0.801, -3.342, -0.367, 0.394, 0.136, 1
2696198, 0.37, -0.316, -2.982, -0.126, 0.386, 0.089, 1
2696218, 0.273, -0.61, -3.095, 0.035, 0.26, 0.01, 1
2696238, 0.16, -1.511, -3.285, -0.121, 0.23, -0.14, 1
2696258, 0.3, -2.196, -3.31, -0.609, 0.2, -0.312, 1
2696278, -0.101, -1.528, -2.691, -0.979, 0.252, -0.4, 1
2696298, -0.493, -0.571, -1.89, -1.016, 0.287, -0.306, 1
2696318, -0.417, -0.495, -1.293, -0.89, 0.219, -0.183, 1
2696338, -0.144, -0.708, -1.063, -0.813, 0.15, -0.139, 1
2696358, -0.091, -1.72, -1.385, -1.031, 0.267, -0.225, 1
2696378, -0.361, -1.304, -0.866, -1.184, 0.549, -0.26, 1
2696398, 0.022, -1.01, 0.181, -1.127, 0.565, -0.237, 1
2696418, 0.282, -1.165, 0.659, -0.998, 0.328, -0.102, 1
2696438, 0.231, -1.244, 1.049, -0.876, 0.183, -0.031, 1
2696458, 0.288, -1.439, 1.253, -0.951, 0.172, -0.129, 1
2696478, 0.196, -1.165, 1.483, -1.077, 0.202, -0.238, 1
2696498, 0.257, -1.172, 1.686, -1.061, 0.058, -0.177, 1
2696518, -0.377, -0.424, 2.122, -0.883, -0.031, -0.009, 1
2696538, -0.348, -0.277, 2.357, -0.73, -0.031, -0.006, 1
2696558, -0.237, -0.47, 2.253, -0.653, 0.035, -0.036, 1
2696578, -0.098, -0.799, 2.087, -0.642, 0.094, -0.051, 1
2696598, 0.089, -0.825, 2.137, -0.641, 0.026, -0.134, 1
2696618, 0.013, -0.434, 2.639, -0.507, -0.136, -0.115, 1
2696638, -0.456, -0.292, 2.553, -0.436, -0.072, -0.118, 1
2696658, -0.616, -0.17, 2.54, -0.477, 0.086, -0.156, 1
2696678, -0.534, -0.148, 2.449, -0.517, 0.229, -0.182, 1
2696698, -0.451, -0.101, 2.412, -0.512, 0.175, -0.154, 1
2696718, -0.383, 0.12, 2.388, -0.446, 0.046, -0.116, 1
2696738, -0.498, 0.1, 2.088, -0.312, -0.033, -0.062, 1
2696758, -0.852, 0.144, 1.614, -0.21, -0.059, -0.036, 1
2696778, -0.367, -0.089, 1.158, -0.125, 0.037, 0.037, 1
2696798, -0.214, -0.123, 0.891, -0.128, 0.172, 0.014, 1
2696818, -0.348, -0.071, 0.777, -0.155, 0.315, -0.03, 1
2696838, -0.19, -0.117, 0.653, -0.113, 0.315, 0.006, 1
2696858, 0.072, -0.103, 0.51, -0.042, 0.072, 0.084, 1
2696878, -0.076, -0.063, 0.39, -0.077, -0.107, 0.128, 1
2696898, -0.216, 0.017, 0.18, -0.163, -0.016, 0.13, 1
2696918, -0.331, 0.031, 0.001, -0.23, 0.178, 0.097, 1
2696938, 0.087, 0.009, 0.067, -0.232, 0.279, 0.108, 1
2696958, 0.301, -0.083, 0.161, -0.157, 0.155, 0.133, 1
2696978, 0.142, -0.302, -0.083, -0.017, -0.137, 0.163, 1
2696998, -0.047, -0.447, -0.534, 0.006, -0.181, 0.177, 1
2697018, 0.124, -0.476, -0.732, -0.067, 0.015, 0.15, 1
2697038, 0.196, -0.551, -0.572, -0.183, 0.199, 0.072, 1
2697058, 0.201, -0.35, -0.056, -0.196, 0.198, 0.02, 1
2697078, 0.092, -0.229, 0.287, -0.119, 0.042, 0.002, 1
2697098, -0.348, -0.144, 0.421, -0.018, -0.018, 0.015, 1
2697118, -0.342, -0.241, 0.627, -0.054, 0.096, 0.009, 1
2697138, -0.433, -0.222, 0.995, -0.131, 0.182, 0.009, 1
2697158, -0.325, -0.196, 1.659, -0.131, 0.065, 0.047, 1
2697178, -0.462, 0.037, 2.461, -0.032, -0.153, 0.116, 1
2697198, -0.546, -0.366, 3.15, -0.008, -0.231, 0.208, 1
2697218, -0.294, -1.138, 3.795, -0.254, -0.132, 0.191, 1
2697238, -0.186, -1.329, 4.868, -0.37, 0.063, -0.039, 1
2697258, -0.574, -0.445, 6.289, 0.057, 0.127, -0.221, 0
2697278, -0.829, 0.33, 6.858, 0.713, 0.024, -0.021, 0
2697298, -0.42, -0.063, 6.307, 1.165, -0.27, 0.118, 0
2697318, -0.841, -0.62, 4.543, 1.365, -0.259, -0.004, 0
2697338, -1.427, -0.729, 3.291, 1.347, -0.004, -0.065, 0
2697358, -1.001, -0.639, 2.641, 1.167, 0.057, 0.106, 0
2697378, -0.856, -0.445, 1.493, 1.081, -0.137, 0.222, 0
2697398, -1.363, -0.775, -0.347, 0.987, -0.082, 0.266, 0
2697418, -0.967, -1.097, -1.139, 0.679, 0.127, 0.186, 0
2697438, -0.432, -1.251, -1.238, 0.27, 0.182, 0.2, 0
2697458, -0.455, -0.491, -1.425, 0.091, -0.071, 0.262, 0
2697478, 0.164, -0.01, -0.654, 0.382, -0.339, 0.351, 0
2697498, 0.306, -0.706, -0.9, 0.657, -0.222, 0.332, 0
2697518, 0.82, -1.084, -1.861, 0.689, -0.201, 0.204, 0
2697538, 0.111, -0.986, -3.233, 0.488, -0.309, 0.158, 0
2697558, -0.488, -0.626, -3.555, 0.166, -0.246, 0.073, 0
2697578, 0.171, -0.093, -2.094, 0.331, -0.246, 0.05, 0
2697598, 0.509, -0.144, -1.613, 0.45, -0.491, -0.009, 0
2697618, -0.262, -0.523, -3.015, 0.415, -0.345, -0.028, 0
2697638, -0.096, -0.269, -3.306, 0.264, 0.062, -0.003, 0
2697658, 0.83, 0.251, -1.662, 0.292, 0.205, -0.038, 0
2697678, 0.962, 0.012, -0.883, 0.428, 0.035, 0.0, 0
2697698, -0.128, -0.311, -0.962, 0.531, -0.191, -0.012, 0
2697718, -0.783, -0.374, -1.837, 0.518, -0.173, 0.011, 0
2697738, -0.298, -0.215, -2.217, 0.458, -0.022, -0.012, 0
2697758, 0.077, -0.293, -2.134, 0.454, -0.15, 0.03, 0
2697778, -0.359, -0.328, -1.929, 0.469, -0.227, 0.081, 0
2697798, -0.449, -0.505, -1.63, 0.494, -0.084, 0.137, 0
2697818, -0.024, -0.283, -0.977, 0.538, 0.052, 0.16, 0
2697838, -0.219, -0.086, -0.932, 0.717, 0.04, 0.084, 0
2697858, -0.472, -0.259, -1.447, 0.811, -0.014, 0.038, 0
2697878, 0.039, -0.833, -2.093, 0.604, -0.204, 0.052, 0
2697898, 0.001, -0.6, -2.222, 0.268, -0.48, 0.037, 0
2697918, 0.145, -0.021, -2.053, 0.207, -0.566, -0.006, 0
2697938, 0.131, -0.146, -2.276, 0.32, -0.497, 0.045, 0
2697958, 0.052, -0.694, -2.924, 0.333, -0.307, 0.094, 0
2697978, 0.123, -1.002, -3.374, 0.066, -0.089, 0.086, 0
2697998, 0.299, -0.591, -3.141, -0.266, -0.039, 0.152, 0
2698018, 0.436, -0.507, -2.972, -0.414, 0.086, 0.237, 0
2698038, 0.845, -0.535, -3.321, -0.557, 0.224, 0.418, 1
2698058, 0.986, -1.163, -4.144, -0.712, 0.263, 0.576, 1
2698078, 0.4, -0.698, -4.092, -0.969, 0.414, 0.585, 1
2698098, 1.011, -0.684, -3.796, -0.861, 0.346, 0.478, 1
2698118, 0.98, -1.223, -3.751, -0.824, 0.25, 0.326, 1
2698138, 1.178, -1.17, -3.734, -0.695, 0.148, 0.216, 1
2698158, 0.52, -1.555, -4.243, -0.49, 0.164, 0.049, 1
2698178, -0.059, -1.257, -4.201, -0.431, 0.418, -0.035, 1
2698198, -0.057, -1.186, -3.696, -0.386, 0.601, -0.044, 1
2698218, 0.204, -1.086, -2.893, -0.337, 0.507, -0.146, 1
2698238, 0.458, -0.722, -2.074, -0.177, 0.296, -0.366, 1
2698258, 0.28, -1.241, -1.754, -0.123, 0.087, -0.633, 1
2698278, -0.242, -2.222, -1.911, -0.505, -0.095, -0.616, 1
2698298, -0.697, -2.155, -1.578, -0.918, -0.163, -0.377, 1
2698318, -0.551, -1.604, -1.047, -1.022, -0.171, -0.171, 1
2698338, -0.626, -1.255, -0.361, -1.037, -0.163, -0.12, 1
2698358, -1.0, -1.279, 0.027, -1.065, 0.078, -0.003, 1
2698378, -0.557, -1.829, 0.005, -1.144, 0.282, 0.094, 1
2698398, -0.254, -1.733, 0.314, -1.307, 0.357, -0.004, 1
2698418, -0.027, -1.819, 0.833, -1.421, 0.46, -0.105, 1
2698438, -0.158, -1.376, 1.658, -1.472, 0.618, -0.195, 1
2698458, -0.508, -1.034, 2.23, -1.43, 0.734, -0.2, 1
2698478, -0.253, -0.789, 2.675, -1.315, 0.675, -0.155, 1
2698498, 0.359, -1.029, 2.717, -1.271, 0.354, -0.18, 1
2698518, 0.335, -0.822, 2.791, -1.191, 0.069, -0.23, 1
2698538, 0.038, -0.85, 2.558, -1.126, -0.122, -0.204, 1
2698558, -0.333, -0.631, 2.526, -1.058, -0.177, -0.133, 1
2698578, -0.846, 0.017, 2.65, -0.956, -0.029, -0.136, 1
2698598, -0.412, -0.209, 2.547, -0.756, 0.108, -0.116, 1
2698618, -0.237, -0.474, 2.32, -0.599, 0.103, -0.121, 1
2698638, -0.3, -0.512, 2.212, -0.516, 0.01, -0.091, 1
2698658, -0.494, -0.376, 2.328, -0.531, -0.004, -0.092, 1
2698678, -0.682, -0.139, 2.567, -0.564, 0.063, -0.103, 1
2698698, -0.67, -0.025, 2.612, -0.488, 0.13, -0.109, 1
2698718, -0.521, -0.114, 2.374, -0.318, 0.121, -0.043, 1
2698738, -0.257, -0.353, 2.105, -0.151, 0.032, 0.015, 1
2698758, -0.285, -0.439, 1.96, -0.172, -0.047, -0.002, 1
2698778, -0.553, -0.328, 1.825, -0.19, -0.028, 0.01, 1
2698798, -0.504, -0.218, 1.552, -0.087, 0.033, 0.04, 1
2698818, -0.33, -0.241, 1.205, 0.037, 0.117, 0.054, 1
2698838, -0.069, -0.371, 0.869, 0.156, 0.164, 0.046, 1
2698858, -0.054, -0.403, 0.323, 0.165, 0.141, 0.032, 1
2698878, -0.169, -0.22, 0.177, 0.043, 0.169, 0.017, 1
2698898, -0.077, -0.128, 0.191, -0.045, 0.164, 0.016, 1
2698918, -0.156, 0.005, 0.297, -0.046, 0.068, 0.026, 1
2698938, -0.223, -0.112, 0.3, -0.003, 0.006, 0.077, 1
2698958, -0.083, -0.338, 0.164, -0.031, 0.029, 0.112, 1
2698978, -0.095, -0.306, 0.229, -0.106, 0.104, 0.119, 1
2698998, 0.008, -0.164, 0.557, -0.122, 0.116, 0.133, 1
2699018, -0.147, 0.024, 1.151, -0.015, 0.005, 0.111, 1
2699038, -0.17, -0.348, 1.578, 0.15, -0.034, 0.092, 1
2699058, 0.135, -0.651, 1.992, -0.115, -0.025, 0.275, 1
2699078, 0.139, -0.486, 2.405, -0.265, -0.293, 0.215, 1
2699098, -1.093, 0.194, 3.229, 0.012, -0.277, 0.347, 0
2699118, -1.083, 0.123, 4.163, 0.433, -0.075, 0.348, 0
2699138, -1.22, 0.322, 4.618, 0.673, 0.021, 0.311, 0
2699158, -0.814, -0.158, 4.96, 0.777, -0.018, 0.425, 0
2699178, -0.712, -0.167, 4.857, 0.949, 0.107, 0.37, 0
2699198, -1.003, -0.236, 3.939, 1.105, 0.313, 0.428, 0
2699218, -0.218, -1.038, 2.9, 0.891, 0.128, 0.498, 0
2699238, -0.102, -1.191, 2.696, 0.699, -0.138, 0.441, 0
2699258, -0.51, -0.754, 2.228, 0.91, -0.079, 0.306, 0
2699278, -0.573, -0.93, 0.793, 1.113, 0.204, 0.287, 0
2699298, 0.348, -1.67, -0.254, 0.828, 0.245, 0.265, 0
2699318, 0.873, -1.762, -0.209, 0.379, 0.031, 0.187, 0
2699338, -0.053, -0.869, 0.061, 0.235, -0.086, 0.042, 0
2699358, -0.149, -0.168, 0.508, 0.446, -0.114, -0.017, 0
2699378, -1.062, -0.344, -0.391, 0.514, -0.031, -0.007, 0
2699398, -0.815, -1.233, -0.718, 0.018, -0.111, -0.028, 0
2699418, -1.23, -0.555, -0.142, -0.264, -0.386, -0.092, 0
2699438, -1.654, 0.599, -0.282, 0.405, -0.415, 0.054, 0
2699458, -0.824, -1.274, -1.985, 0.836, -0.137, 0.199, 0
2699478, 0.938, -2.622, -2.945, 0.649, -0.056, 0.037, 0
2699498, 1.411, -1.678, -3.461, 0.391, -0.485, -0.311, 0
2699518, -0.516, -0.467, -3.113, 0.324, -0.702, -0.315, 0
2699538, -1.358, 0.102, -2.468, 0.836, 0.194, 0.072, 0
2699558, 2.558, -1.641, -2.675, 0.779, 0.27, 0.036, 0
2699578, 0.45, -0.534, -2.933, 0.496, -0.394, -0.314, 0
2699598, -1.658, 0.169, -2.712, 0.413, -0.461, -0.328, 0
2699618, -1.068, 0.541, -1.688, 0.516, -0.072, 0.018, 0
2699638, 0.348, -0.193, -1.72, 0.81, 0.027, 0.237, 0
2699658, 0.358, -0.631, -2.911, 0.77, -0.182, 0.105, 0
2699678, -0.44, -0.278, -3.249, 0.514, -0.359, 0.006, 0
2699698, -0.623, 0.149, -2.765, 0.355, -0.296, -0.013, 0
2699718, -0.195, 0.15, -1.859, 0.375, -0.288, 0.005, 0
2699738, 0.01, 0.011, -1.299, 0.408, -0.453, 0.017, 0
2699758, -0.644, -0.229, -1.877, 0.389, -0.562, -0.02, 0
2699778, -0.797, -0.092, -1.879, 0.254, -0.378, -0.012, 0
2699798, -0.152, -0.082, -1.729, 0.257, -0.188, 0.08, 0
2699818, 0.295, -0.458, -1.965, 0.28, -0.254, 0.14, 0
2699838, -0.268, -0.641, -2.829, 0.169, -0.33, 0.063, 0
2699858, -0.805, -0.47, -2.964, -0.061, -0.096, 0.057, 0
2699878, -0.155, -0.273, -2.374, -0.209, 0.205, 0.149, 0
2699898, 0.508, -0.561, -2.221, -0.21, 0.187, 0.175, 0
2699918, 0.526, -0.719, -2.463, -0.258, 0.099, 0.116, 0
2699938, 0.049, -0.893, -3.035, -0.369, 0.113, 0.053, 0
2699958, 0.031, -0.96, -3.09, -0.557, 0.246, 0.055, 0
2699978, 0.075, -1.028, -2.973, -0.788, 0.378, 0.166, 1
2699998, 0.673, -1.056, -2.707, -0.946, 0.453, 0.275, 1
2700018, 0.183, -0.527, -3.089, -0.948, 0.367, 0.254, 1
2700038, 0.121, -0.682, -3.139, -0.63, 0.339, 0.254, 1
2700058, 0.086, -1.257, -3.282, -0.651, 0.372, 0.206, 1
2700078, 0.19, -1.362, -3.462, -1.018, 0.324, 0.278, 1
2700098, -0.542, -1.268, -3.387, -1.161, 0.485, 0.061, 1
2700118, -0.455, -0.775, -2.757, -1.113, 0.692, -0.001, 1
2700138, 0.065, -0.699, -2.383, -0.961, 0.712, 0.029, 1
2700158, 0.202, -0.644, -2.032, -0.813, 0.5, 0.145, 1
2700178, 0.417, -0.874, -2.121, -0.761, 0.215, 0.117, 1
2700198, -0.382, -1.429, -2.335, -1.018, 0.238, -0.033, 1
2700218, -0.333, -1.317, -2.001, -1.229, 0.299, -0.002, 1
2700238, 0.079, -0.683, -1.368, -1.117, 0.205, 0.042, 1
2700258, -0.09, -0.623, -0.81, -0.912, 0.035, 0.095, 1
2700278, -0.474, -1.043, -0.403, -0.813, 0.119, 0.188, 1
2700298, -0.495, -1.838, -0.605, -0.946, 0.475, 0.105, 1
2700318, -0.299, -1.861, -0.323, -1.165, 0.66, 0.024, 1
2700338, 0.753, -1.835, 0.364, -1.216, 0.451, 0.017, 1
2700358, 0.907, -1.574, 1.136, -1.207, 0.075, -0.093, 1
2700378, 0.126, -1.484, 1.453, -1.161, -0.067, -0.1, 1
2700398, -0.145, -1.379, 1.66, -1.151, -0.001, -0.11, 1
2700418, -0.207, -1.48, 1.956, -1.197, 0.18, -0.111, 1
2700438, 0.327, -1.546, 1.997, -1.156, 0.238, -0.12, 1
2700458, 0.25, -1.319, 2.33, -1.124, 0.169, -0.188, 1
2700478, -0.064, -0.986, 2.703, -1.007, 0.114, -0.232, 1
2700498, -0.705, -0.577, 2.718, -0.884, 0.152, -0.259, 1
2700518, -0.79, -0.622, 2.591, -0.784, 0.323, -0.17, 1
2700538, -0.237, -0.615, 2.867, -0.75, 0.222, -0.172, 1
2700558, -0.512, -0.505, 2.863, -0.678, 0.051, -0.156, 1
2700578, -0.518, -0.628, 2.819, -0.526, -0.081, -0.13, 1
2700598, -0.861, -0.387, 2.811, -0.434, -0.1, -0.116, 1
2700618, -0.857, -0.266, 2.864, -0.346, 0.067, -0.082, 1
2700638, -0.878, -0.241, 2.79, -0.179, 0.2, -0.073, 1
2700658, -0.522, -0.55, 2.382, 0.016, 0.19, -0.037, 1
2700678, -0.407, -0.776, 1.855, 0.108, 0.088, -0.013, 1
2700698, -0.187, -0.736, 1.332, 0.045, 0.012, -0.004, 1
2700718, -0.546, -0.48, 1.042, -0.048, 0.062, -0.044, 1
2700738, -0.397, -0.176, 0.986, -0.053, 0.178, -0.032, 1
2700758, -0.393, 0.11, 1.057, 0.028, 0.209, -0.003, 1
2700778, -0.28, -0.083, 0.757, 0.18, 0.098, 0.072, 1
2700798, 0.114, -0.45, 0.194, 0.207, -0.072, 0.144, 1
2700818, -0.115, -0.448, -0.047, -0.005, -0.098, 0.099, 1
2700838, -0.243, -0.191, -0.017, -0.131, 0.033, 0.077, 1
2700858, -0.19, 0.037, 0.351, -0.036, 0.147, 0.077, 1
2700878, -0.145, -0.039, 0.758, 0.191, 0.167, 0.076, 1
2700898, -0.302, -0.325, 0.892, 0.299, 0.189, 0.108, 1
2700918, -0.388, -0.68, 1.116, 0.192, 0.287, 0.114, 1
2700938, -0.041, -0.943, 1.812, -0.14, 0.309, 0.252, 1
2700958, 0.197, -0.772, 3.266, -0.367, -0.073, 0.329, 1
2700978, -0.279, -0.107, 4.403, -0.171, -0.478, 0.384, 0
2700998, -1.283, -0.738, 4.644, 0.301, -0.336, 0.289, 0
2701018, -1.253, -0.679, 4.856, 0.902, 0.35, 0.258, 0
2701038, -0.973, -0.838, 4.991, 1.12, 0.304, 0.302, 0
2701058, -0.719, -0.929, 5.296, 1.082, -0.02, 0.494, 0
2701078, -0.55, -0.797, 5.332, 1.083, -0.142, 0.553, 0
2701098, -0.893, -0.572, 4.332, 1.191, 0.103, 0.51, 0
2701118, -0.609, -1.124, 3.28, 1.192, 0.316, 0.507, 0
2701138, 1.039, -1.992, 3.174, 1.025, -0.084, 0.539, 0
2701158, 1.288, -2.532, 2.359, 0.831, -0.445, 0.455, 0
2701178, -0.176, -1.844, 0.295, 1.018, -0.015, 0.39, 0
2701198, 0.443, -1.905, -0.949, 1.198, 0.304, 0.401, 0
2701218, 1.413, -1.973, -1.234, 0.932, -0.202, 0.314, 0
2701238, 0.445, -0.985, -0.895, 0.781, -0.833, 0.298, 0
2701258, -1.256, -0.295, -1.587, 0.929, -0.574, 0.36, 0
2701278, -1.314, -0.95, -1.787, 0.891, -0.017, 0.417, 0
2701298, 0.941, -1.708, -0.802, 0.534, -0.401, 0.356, 0
2701318, 0.494, -0.687, -0.813, 0.527, -1.058, 0.071, 0
2701338, -1.888, -0.255, -2.32, 0.94, -0.689, 0.235, 0
2701358, -2.286, -0.826, -3.418, 1.187, 0.373, 0.474, 0
2701378, 0.608, -1.662, -3.572, 1.063, 0.444, 0.527, 0
2701398, 1.853, -1.397, -3.774, 0.689, -0.651, 0.271, 0
2701418, -0.185, -0.601, -3.383, 0.436, -0.956, 0.084, 0
2701438, -1.376, 0.12, -2.673, 0.643, -0.326, 0.191, 0
2701458, -0.571, -0.087, -2.823, 0.852, 0.121, 0.359, 0
2701478, 1.054, -0.954, -3.164, 0.675, -0.109, 0.266, 0
2701498, 0.996, -0.779, -3.242, 0.314, -0.629, -0.033, 0
2701518, -1.201, 0.194, -2.784, 0.394, -0.306, 0.084, 0
2701538, -0.654, -0.315, -2.762, 0.495, 0.132, 0.255, 0
2701558, 0.801, -0.991, -2.845, 0.386, 0.132, 0.273, 0
2701578, 0.375, -0.717, -2.458, 0.115, -0.375, 0.078, 0
2701598, -0.675, -0.356, -2.395, 0.056, -0.466, 0.006, 0
2701618, -0.615, -0.314, -2.399, 0.16, -0.153, 0.084, 0
2701638, -0.386, -0.582, -2.492, 0.238, 0.089, 0.182, 0
2701658, 0.267, -0.966, -2.294, 0.135, 0.143, 0.197, 0
2701678, 0.291, -0.822, -1.884, -0.072, 0.037, 0.113, 0
2701698, -0.079, -0.62, -1.778, -0.16, 0.022, 0.047, 0
2701718, -0.317, -0.359, -1.802, -0.161, 0.172, 0.061, 0
2701738, -0.131, -0.675, -1.994, -0.165, 0.29, 0.152, 0
2701758, 0.064, -1.029, -2.257, -0.29, 0.325, 0.178, 0
2701778, 0.084, -0.867, -2.27, -0.522, 0.375, 0.152, 0
2701798, -0.115, -0.885, -2.63, -0.725, 0.464, 0.281, 1
2701818, 0.362, -0.798, -2.929, -0.75, 0.596, 0.39, 1
2701838, 0.436, -0.949, -3.146, -0.704, 0.588, 0.431, 1
2701858, 0.457, -0.893, -3.377, -0.578, 0.414, 0.377, 1
2701878, 0.142, -1.068, -3.571, -0.419, 0.274, 0.419, 1
2701898, 0.118, -1.842, -4.235, -0.318, 0.311, 0.425, 1
2701918, -0.175, -2.369, -4.901, -0.512, 0.546, 0.158, 1
2701938, 0.034, -2.079, -4.318, -0.883, 0.635, 0.014, 1
2701958, 0.091, -1.077, -3.013, -1.102, 0.541, 0.018, 1
2701978, -0.379, -0.881, -2.31, -0.875, 0.541, 0.03, 1
2701998, -0.391, -0.761, -1.737, -0.769, 0.695, 0.108, 1
2702018, 0.136, -1.106, -1.304, -0.785, 0.512, 0.084, 1
2702038, 0.15, -1.675, -0.777, -1.11, 0.314, -0.021, 1
2702058, -0.104, -1.462, -0.095, -1.354, 0.219, -0.144, 1
2702078, -0.132, -1.213, 0.388, -1.317, 0.108, -0.126, 1
2702098, -0.463, -0.975, 0.753, -1.204, 0.085, -0.059, 1
2702118, -0.612, -0.786, 1.232, -1.141, 0.166, -0.003, 1
2702138, -0.045, -0.981, 1.29, -1.142, 0.103, -0.003, 1
2702158, -0.162, -1.165, 1.206, -1.247, -0.038, 0.062, 1
2702178, -0.148, -0.873, 1.582, -1.283, -0.132, 0.161, 1
2702198, 0.207, -0.925, 1.796, -1.156, -0.229, 0.23, 1
2702218, 0.402, -0.783, 1.752, -1.073, -0.296, 0.37, 1
2702238, 0.363, -1.117, 2.014, -1.036, -0.394, 0.293, 1
2702258, -0.107, -0.838, 1.878, -1.134, -0.117, 0.063, 1
2702278, -0.328, -0.965, 2.064, -1.238, 0.282, -0.069, 1
2702298, -0.23, -0.595, 2.259, -1.208, 0.386, -0.071, 1
2702318, 0.113, -0.603, 2.4, -1.12, 0.208, -0.084, 1
2702338, -0.122, -0.462, 2.53, -0.992, 0.092, -0.117, 1
2702358, -0.403, -0.345, 2.474, -0.832, 0.064, -0.11, 1
2702378, -0.45, -0.328, 2.04, -0.736, 0.112, -0.128, 1
2702398, -0.338, -0.244, 1.783, -0.654, 0.186, -0.172, 1
2702418, -0.206, -0.074, 1.99, -0.572, 0.162, -0.227, 1
2702438, -0.529, -0.106, 1.837, -0.505, 0.125, -0.122, 1
2702458, -0.53, -0.219, 1.535, -0.492, 0.075, -0.045, 1
2702478, -0.491, -0.235, 1.465, -0.496, 0.072, -0.08, 1
2702498, -0.619, -0.341, 1.342, -0.466, 0.151, -0.087, 1
2702518, -0.326, -0.41, 1.317, -0.444, 0.172, -0.072, 1
2702538, -0.259, -0.129, 1.425, -0.366, 0.152, -0.054, 1
2702558, -0.398, -0.28, 1.294, -0.22, 0.089, -0.033, 1
2702578, -0.096, -0.385, 0.982, -0.089, 0.02, 0.025, 1
2702598, 0.021, -0.438, 0.667, -0.046, -0.041, 0.054, 1
2702618, -0.136, -0.267, 0.432, -0.102, 0.078, 0.036, 1
2702638, -0.238, -0.059, 0.523, -0.125, 0.199, 0.0, 1
2702658, -0.205, -0.008, 0.584, -0.058, 0.122, 0.015, 1
2702678, -0.19, -0.029, 0.568, 0.024, -0.01, 0.081, 1
2702698, -0.243, -0.359, 0.377, 0.082, -0.048, 0.108, 1
2702718, -0.314, -0.621, 0.161, -0.041, -0.01, 0.163, 1
2702738, -0.218, -0.754, 0.572, -0.211, 0.046, 0.136, 1
2702758, 0.022, -0.552, 1.637, -0.279, 0.106, 0.166, 1
2702778, 0.398, -0.419, 2.512, -0.045, -0.04, 0.234, 1
2702798, 0.028, -0.637, 2.829, 0.237, -0.182, 0.288, 1
2702818, -0.505, -1.098, 3.234, 0.338, -0.075, 0.302, 1
2702838, 0.054, -1.267, 4.021, 0.163, 0.002, 0.417, 1
2702858, -0.638, -0.412, 5.19, 0.187, -0.087, 0.369, 0
2702878, -1.475, 0.252, 5.35, 0.825, -0.224, 0.349, 0
2702898, -1.079, -0.564, 4.56, 1.556, -0.227, 0.307, 0
2702918, -0.652, -1.138, 3.797, 1.636, 0.06, 0.35, 0
2702938, -0.57, -1.074, 3.304, 1.425, 0.174, 0.34, 0
2702958, -0.641, -1.042, 2.957, 1.335, 0.112, 0.437, 0
2702978, -0.291, -1.439, 2.568, 1.348, 0.052, 0.409, 0
2702998, 0.612, -1.995, 1.927, 1.201, 0.042, 0.296, 0
2703018, 0.15, -1.494, 0.877, 1.065, 0.091, 0.204, 0
2703038, -0.966, -0.449, 0.283, 1.23, 0.061, 0.233, 0
2703058, -0.387, -0.956, -0.388, 1.328, -0.172, 0.372, 0
2703078, 0.097, -1.511, -1.202, 0.983, -0.292, 0.296, 0
2703098, -0.721, -1.197, -1.353, 0.66, -0.136, 0.268, 0
2703118, -0.963, -0.886, -1.325, 0.522, -0.047, 0.296, 0
2703138, 0.829, -1.389, -0.996, 0.596, -0.439, 0.307, 0
2703158, 0.493, -1.668, -1.713, 0.695, -0.778, 0.227, 0
2703178, -0.021, -1.651, -2.72, 0.562, -0.826, 0.01, 0
2703198, -0.222, -1.004, -2.646, 0.372, -0.872, -0.189, 0
2703218, -0.395, -0.592, -2.231, 0.42, -0.823, -0.261, 0
2703238, -0.675, -0.013, -2.148, 0.684, -0.697, -0.264, 0
2703258, -0.604, -0.512, -3.202, 0.673, -0.66, -0.231, 0
2703278, -1.693, -0.022, -3.863, 0.483, -0.342, -0.119, 0
2703298, -1.157, 0.637, -3.124, 0.419, 0.085, 0.027, 0
2703318, 0.241, 0.353, -2.135, 0.576, -0.003, 0.092, 0
2703338, 0.747, -0.531, -1.904, 0.413, -0.43, 0.048, 0
2703358, 0.376, -0.521, -1.611, 0.244, -0.571, -0.07, 0
2703378, -0.23, -0.18, -1.64, 0.223, -0.365, -0.053, 0
2703398, -0.904, 0.715, -1.864, 0.434, -0.123, 0.168, 0
2703418, -1.222, 0.392, -2.142, 0.62, 0.204, 0.541, 0
2703438, 0.733, -1.185, -2.261, 0.319, 0.007, 0.508, 0
2703458, 1.125, -1.035, -0.964, 0.216, -0.353, 0.277, 0
2703478, 0.261, -0.645, -1.394, 0.434, -0.286, 0.289, 0
2703498, 0.524, -1.067, -2.271, 0.57, -0.211, 0.341, 0
2703518, 0.638, -1.612, -3.231, 0.334, -0.214, 0.172, 0
2703538, 0.13, -0.748, -2.679, -0.028, -0.127, -0.05, 0
2703558, -0.118, -0.259, -2.054, -0.033, 0.091, -0.071, 0
2703578, -0.055, -0.06, -1.896, 0.057, 0.131, -0.008, 0
2703598, -0.092, -0.341, -2.22, 0.05, 0.086, 0.021, 0
2703618, -0.394, -0.581, -2.341, -0.16, 0.21, -0.057, 0
2703638, -0.133, -0.421, -1.769, -0.343, 0.359, -0.069, 0
2703658, -0.186, -0.417, -1.562, -0.383, 0.378, -0.051, 0
2703678, -0.178, -0.551, -1.847, -0.423, 0.426, 0.034, 1
2703698, -0.503, -0.612, -2.611, -0.534, 0.433, 0.126, 1
2703718, -0.247, -0.916, -2.762, -0.664, 0.456, 0.153, 1
2703738, 0.066, -0.777, -2.754, -0.609, 0.56, 0.164, 1
2703758, 0.25, -1.075, -3.388, -0.526, 0.572, 0.224, 1
2703778, 0.135, -1.514, -3.927, -0.494, 0.524, 0.197, 1
2703798, -0.29, -1.794, -4.143, -0.639, 0.616, 0.089, 1
2703818, 0.04, -1.602, -4.125, -0.784, 0.763, -0.048, 1
2703838, -0.214, -1.07, -3.467, -0.921, 0.718, -0.087, 1
2703858, -0.237, -0.751, -2.597, -0.842, 0.704, -0.011, 1
2703878, 0.151, -1.451, -2.362, -0.687, 0.614, 0.039, 1
2703898, 0.126, -2.083, -2.319, -0.767, 0.529, -0.09, 1
2703918, 0.235, -1.935, -1.867, -0.984, 0.456, -0.151, 1
2703938, -0.258, -1.323, -1.203, -1.051, 0.342, -0.145, 1
2703958, -0.209, -1.184, -0.524, -0.934, 0.248, -0.069, 1
2703978, 0.014, -1.385, -0.228, -0.815, 0.014, -0.047, 1
2703998, -0.379, -1.668, -0.213, -0.913, 0.055, -0.114, 1
2704018, -0.603, -2.001, -0.201, -1.154, 0.348, -0.189, 1
2704038, 0.032, -1.913, 0.237, -1.314, 0.41, -0.288, 1
2704058, 0.257, -1.559, 0.88, -1.273, 0.221, -0.379, 1
2704078, -0.053, -1.317, 1.222, -1.178, -0.014, -0.254, 1
2704098, -0.317, -1.042, 1.437, -1.061, -0.057, -0.259, 1
2704118, -0.332, -1.285, 1.332, -1.052, 0.113, -0.271, 1
2704138, -0.399, -1.111, 1.501, -1.068, 0.391, -0.29, 1
2704158, -0.104, -1.006, 1.807, -1.099, 0.488, -0.324, 1
2704178, 0.127, -0.821, 2.013, -1.102, 0.32, -0.331, 1
2704198, -0.148, -0.486, 1.986, -1.039, 0.109, -0.317, 1
2704218, -0.385, -0.287, 2.119, -0.968, 0.028, -0.222, 1
2704238, -0.36, -0.29, 2.147, -0.886, 0.007, -0.223, 1
2704258, -0.309, -0.418, 1.777, -0.781, -0.009, -0.19, 1
2704278, -0.268, -0.594, 1.612, -0.8, -0.012, -0.221, 1
2704298, -0.61, -0.408, 1.762, -0.913, 0.083, -0.227, 1
2704318, -0.665, -0.189, 2.361, -0.981, 0.151, -0.249, 1
2704338, -0.811, -0.027, 2.875, -0.888, 0.116, -0.229, 1
2704358, -0.985, 0.24, 3.167, -0.709, 0.039, -0.163, 1
2704378, -0.715, -0.178, 3.265, -0.564, -0.087, -0.073, 1
2704398, -0.734, -0.603, 3.121, -0.505, -0.136, -0.004, 1
2704418, -0.685, -0.324, 2.962, -0.315, -0.086, 0.147, 1
2704438, -0.368, -0.208, 1.977, 0.125, -0.127, 0.232, 1
2704458, 0.319, -1.021, 1.179, 0.24, -0.182, 0.239, 1
2704478, 0.221, -1.158, 0.38, 0.147, -0.188, 0.166, 1
2704498, 0.277, -0.689, 0.246, 0.032, -0.082, 0.092, 1
2704518, 0.299, -0.506, 0.253, 0.01, -0.02, 0.082, 1
2704538, 0.079, -0.273, 0.225, 0.046, -0.051, 0.084, 1
2704558, -0.154, -0.405, 0.008, 0.066, 0.003, 0.078, 1
2704578, 0.146, -0.484, -0.079, 0.021, 0.042, 0.075, 1
2704598, 0.054, -0.199, 0.186, -0.058, 0.024, 0.059, 1
2704618, -0.077, -0.07, 0.491, -0.021, 0.007, 0.029, 1
2704638, -0.552, 0.03, 0.684, 0.042, 0.025, 0.042, 1
2704658, -0.551, -0.02, 0.956, 0.119, 0.098, 0.043, 1
2704678, -0.51, -0.483, 1.452, 0.068, 0.13, 0.011, 1
2704698, -0.408, -0.498, 2.562, -0.046, 0.173, 0.06, 1
2704718, -0.153, -0.429, 3.553, -0.083, 0.032, 0.183, 1
2704738, -0.441, 0.013, 3.908, 0.154, -0.102, 0.232, 0
2704758, -0.951, -0.113, 3.494, 0.504, -0.064, 0.246, 0
2704778, -0.621, -0.132, 3.252, 0.692, 0.069, 0.277, 0
2704798, -0.356, -0.534, 3.366, 0.662, 0.015, 0.32, 0
2704818, -0.631, -0.418, 3.677, 0.543, -0.165, 0.372, 0
2704838, -0.588, -0.847, 3.356, 0.716, -0.102, 0.424, 0
2704858, 0.583, -2.008, 2.864, 0.882, 0.05, 0.414, 0
2704878, 0.613, -2.221, 2.334, 0.757, 0.061, 0.323, 0
2704898, -0.241, -0.912, 2.389, 0.692, 0.132, 0.213, 0
2704918, -0.565, 0.037, 2.385, 0.784, 0.318, 0.345, 0
2704938, 0.414, 0.216, 3.059, 0.759, 0.072, 0.357, 0
2704958, -0.672, 0.417, 2.694, 0.737, 0.017, 0.323, 0
2704978, -0.481, -0.203, 1.917, 1.039, 0.073, 0.408, 0
2704998, 0.003, -1.642, 0.637, 1.015, 0.071, 0.304, 0
2705018, 0.372, -1.405, -0.091, 0.802, -0.196, 0.087, 0
2705038, -1.203, -0.662, -0.957, 0.644, -0.366, 0.121, 0
2705058, -1.164, -0.325, -1.044, 0.825, -0.394, 0.288, 0
2705078, -0.522, -0.732, -1.828, 1.251, -0.219, 0.518, 0
2705098, 1.356, -2.437, -3.444, 1.165, -0.244, 0.452, 0
2705118, 1.277, -2.459, -4.069, 0.762, -0.431, 0.292, 0
2705138, 0.455, -1.623, -3.324, 0.58, -0.525, 0.163, 0
2705158, -0.062, -1.426, -2.78, 0.676, -0.516, 0.122, 0
2705178, -0.236, -1.415, -2.55, 0.753, -0.5, 0.091, 0
2705198, 0.442, -1.915, -2.523, 0.565, -0.764, 0.005, 0
2705218, 0.047, -1.803, -2.254, 0.389, -0.935, -0.128, 0
2705238, -0.174, -1.107, -2.022, 0.48, -0.892, -0.226, 0
2705258, -0.755, -0.731, -2.823, 0.624, -0.848, -0.176, 0
2705278, -0.931, -0.634, -3.285, 0.536, -0.755, -0.094, 0
2705298, -0.488, -0.512, -3.084, 0.375, -0.638, -0.073, 0
2705318, -0.187, -0.448, -2.494, 0.334, -0.547, -0.098, 0
2705338, 0.011, 0.024, -1.839, 0.461, -0.496, -0.089, 0
2705358, -0.52, 0.637, -2.313, 0.591, -0.391, -0.012, 0
2705378, -1.131, 0.092, -3.314, 0.389, -0.102, 0.127, 0
2705398, -0.315, 0.209, -2.794, 0.073, 0.031, 0.174, 0
2705418, 0.372, 0.659, -1.278, 0.141, -0.056, 0.164, 0
2705438, 0.218, 0.101, -1.663, 0.23, -0.093, 0.163, 0
2705458, 0.44, -0.145, -2.129, 0.094, -0.009, 0.157, 0
2705478, 0.269, -0.017, -1.886, -0.102, -0.095, 0.105, 0
2705498, 0.162, 0.359, -1.393, -0.134, -0.02, 0.145, 0
2705518, 0.604, -0.204, -1.371, 0.001, 0.042, 0.194, 0
2705538, 0.381, -0.715, -1.905, -0.055, 0.101, 0.147, 0
2705558, 0.348, -0.745, -1.85, -0.228, 0.178, 0.124, 0
2705578, 0.297, -0.572, -1.794, -0.32, 0.182, 0.125, 0
2705598, 0.167, -0.745, -2.172, -0.34, 0.195, 0.155, 0
2705618, 0.072, -1.08, -2.641, -0.415, 0.315, 0.218, 0
2705638, 0.013, -1.019, -2.81, -0.579, 0.483, 0.205, 1
2705658, 0.604, -1.175, -2.619, -0.607, 0.547, 0.215, 1
2705678, 0.104, -0.753, -2.565, -0.582, 0.511, 0.186, 1
2705698, 0.598, -0.728, -2.808, -0.295, 0.411, 0.227, 1
2705718, 0.415, -1.632, -3.907, -0.023, 0.187, 0.221, 1
2705738, -0.92, -3.166, -5.112, -0.197, 0.333, 0.003, 1
2705758, -0.908, -2.799, -4.857, -0.857, 0.919, -0.171, 1
2705778, -1.028, -1.391, -3.748, -1.124, 1.114, -0.324, 1
2705798, -0.507, -0.982, -2.56, -0.928, 1.126, -0.318, 1
2705818, -0.113, -1.324, -2.024, -0.681, 0.838, -0.306, 1
2705838, -0.136, -1.665, -2.076, -0.504, 0.442, -0.224, 1
2705858, -0.871, -2.1, -2.206, -0.525, 0.298, -0.182, 1
2705878, -0.836, -1.568, -1.547, -0.686, 0.361, -0.169, 1
2705898, -0.703, -1.232, -0.761, -0.633, 0.284, -0.225, 1
2705918, -0.472, -1.176, -0.261, -0.549, 0.065, -0.206, 1
2705938, -0.396, -1.567, -0.244, -0.607, -0.216, -0.034, 1
2705958, -0.56, -1.793, -0.404, -0.857, -0.312, -0.032, 1
2705978, -0.95, -1.934, -0.402, -1.241, 0.017, -0.178, 1
2705998, -1.0, -1.69, 0.232, -1.519, 0.43, -0.313, 1
2706018, -1.08, -1.117, 1.141, -1.56, 0.748, -0.296, 1
2706038, -0.169, -1.136, 1.709, -1.369, 0.689, -0.243, 1
2706058, 0.422, -1.336, 1.687, -1.28, 0.329, -0.255, 1
2706078, -0.229, -1.256, 1.424, -1.351, 0.258, -0.274, 1
2706098, -0.713, -1.05, 1.517, -1.554, 0.537, -0.386, 1
2706118, -0.658, -0.858, 2.115, -1.635, 0.758, -0.436, 1
2706138, -0.266, -0.901, 2.428, -1.515, 0.563, -0.379, 1
2706158, -0.068, -0.712, 2.506, -1.379, 0.197, -0.284, 1
2706178, -0.357, -0.503, 2.532, -1.269, 0.098, -0.219, 1
2706198, -0.68, -0.586, 2.287, -1.243, 0.3, -0.257, 1
2706218, -0.943, -0.7, 2.45, -1.229, 0.569, -0.299, 1
2706238, -0.627, -0.265, 2.985, -1.05, 0.486, -0.355, 1
2706258, -0.463, -0.526, 3.264, -0.879, 0.113, -0.21, 1
2706278, -0.619, -0.352, 3.175, -0.759, -0.135, -0.139, 1
2706298, -0.95, -0.249, 3.007, -0.659, -0.095, -0.149, 1
2706318, -1.364, -0.305, 2.979, -0.514, 0.158, -0.16, 1
2706338, -1.25, -0.145, 3.251, -0.27, 0.291, -0.159, 1
2706358, -0.638, -0.38, 3.185, -0.049, 0.071, -0.058, 1
2706378, -0.427, -0.695, 2.489, 0.038, -0.229, 0.133, 1
2706398, -0.837, -0.691, 1.225, -0.017, -0.26, 0.048, 1
2706418, -0.654, -0.392, 1.048, 0.023, -0.021, -0.005, 1
2706438, -0.298, -0.471, 0.869, 0.149, 0.02, 0.054, 1
2706458, -0.202, -0.505, 0.492, 0.207, -0.127, 0.148, 1
2706478, -0.357, -0.491, 0.096, 0.19, -0.147, 0.197, 1
2706498, -0.332, -0.54, -0.073, 0.111, -0.011, 0.117, 1
2706518, -0.129, -0.464, 0.223, 0.018, 0.153, 0.086, 1
2706538, -0.116, -0.153, 0.684, 0.029, 0.115, 0.077, 1
2706558, -0.259, -0.213, 0.946, 0.135, -0.01, 0.092, 1
2706578, -0.512, -0.746, 0.537, 0.046, -0.032, 0.123, 1
2706598, -0.99, -0.639, 1.281, -0.31, 0.229, 0.082, 1
2706618, -0.696, -0.571, 3.037, -0.327, 0.409, 0.015, 0
2706638, -0.044, 0.208, 4.812, -0.037, 0.228, 0.099, 0
2706658, 0.217, -0.133, 5.202, 0.497, -0.145, 0.21, 0
2706678, -0.457, -0.262, 4.159, 0.828, -0.311, 0.269, 0
2706698, -1.136, -0.493, 3.731, 0.851, -0.075, 0.201, 0
2706718, -0.731, -0.527, 4.273, 0.708, 0.128, 0.251, 0
2706738, -0.519, -0.705, 4.725, 0.711, -0.069, 0.373, 0
2706758, -0.73, -0.915, 3.968, 0.957, -0.21, 0.439, 0
2706778, -0.649, -1.394, 2.805, 1.126, -0.096, 0.401, 0
2706798, -0.194, -2.227, 2.186, 0.938, -0.101, 0.334, 0
2706818, -0.339, -0.993, 2.346, 0.667, -0.23, 0.337, 0
2706838, -0.694, -0.948, 1.773, 0.926, -0.47, 0.377, 0
2706858, -0.648, -1.669, 0.641, 1.158, -0.429, 0.405, 0
2706878, -0.299, -2.587, -0.593, 1.047, -0.07, 0.167, 0
2706898, 0.077, -3.606, -2.049, 0.417, 0.01, -0.02, 0
2706918, -0.353, -1.719, -1.358, 0.396, -0.224, -0.061, 0
2706938, 0.057, -1.286, -0.983, 0.851, -0.582, 0.082, 0
2706958, -0.564, -1.756, -2.056, 1.076, -0.28, 0.22, 0
2706978, -0.132, -2.601, -3.218, 0.795, 0.301, 0.078, 0
2706998, 1.741, -2.697, -3.336, 0.264, -0.059, -0.257, 0
2707018, 0.037, -0.031, -2.84, 0.479, -0.594, -0.25, 0
2707038, -1.171, 0.481, -3.576, 0.85, -0.491, 0.034, 0
2707058, -0.913, -0.23, -4.473, 0.756, -0.053, 0.202, 0
2707078, 0.476, -0.736, -4.079, 0.428, 0.015, 0.141, 0
2707098, 0.947, -0.773, -3.607, 0.065, -0.227, -0.164, 0
2707118, 0.0, 0.529, -2.784, 0.185, -0.435, -0.186, 0
2707138, -0.52, 0.296, -2.583, 0.425, -0.37, -0.034, 0
2707158, -0.287, -0.248, -2.578, 0.433, -0.155, 0.086, 0
2707178, 0.011, -0.475, -2.706, 0.386, -0.003, 0.084, 0
2707198, 0.298, -0.602, -2.649, 0.205, -0.115, 0.064, 0
2707218, 0.022, -0.128, -1.816, 0.196, -0.194, 0.1, 0
2707238, 0.056, -0.226, -1.125, 0.285, -0.153, 0.178, 0
2707258, 0.251, -0.375, -0.902, 0.329, -0.051, 0.16, 0
2707278, 0.138, -0.532, -1.473, 0.273, -0.01, 0.116, 0
2707298, 0.548, -0.534, -1.627, 0.163, -0.208, 0.05, 0
2707318, 0.15, -0.331, -1.588, 0.098, -0.372, 0.004, 0
2707338, -0.337, -0.325, -1.594, 0.087, -0.236, 0.021, 0
2707358, -0.619, -0.378, -1.784, -0.023, 0.045, 0.078, 0
2707378, 0.155, -0.388, -1.174, -0.07, 0.147, 0.085, 0
2707398, 0.069, -0.335, -1.065, -0.086, -0.04, 0.019, 0
2707418, -0.381, -0.247, -1.15, -0.133, -0.132, -0.01, 0
2707438, -0.608, -0.102, -1.328, -0.175, -0.028, 0.021, 0
2707458, -0.327, -0.404, -1.813, -0.202, 0.126, 0.17, 0
2707478, 0.292, -0.701, -2.139, -0.351, 0.248, 0.286, 1
2707498, 0.847, -0.548, -2.142, -0.414, 0.188, 0.267, 1
2707518, 0.29, -0.36, -2.272, -0.387, 0.053, 0.174, 1
2707538, 0.066, -0.116, -2.757, -0.204, -0.015, 0.222, 1
2707558, 0.19, -1.026, -4.273, 0.02, 0.051, 0.387, 1
2707578, 0.156, -1.457, -5.039, 0.001, 0.352, 0.302, 1
2707598, 0.267, -1.263, -5.148, -0.288, 0.559, 0.167, 1
2707618, 0.295, -1.065, -4.544, -0.561, 0.631, 0.042, 1
2707638, 0.33, -0.649, -3.338, -0.604, 0.565, -0.07, 1
2707658, 0.178, -0.601, -2.815, -0.408, 0.387, -0.069, 1
2707678, 0.068, -1.095, -2.695, -0.257, 0.244, 0.034, 1
2707698, -0.202, -1.288, -2.324, -0.294, 0.188, 0.09, 1
2707718, -0.15, -1.23, -1.669, -0.346, 0.197, 0.116, 1
2707738, 0.073, -1.62, -1.143, -0.346, 0.105, 0.122, 1
2707758, -0.115, -1.877, -1.012, -0.495, 0.067, -0.038, 1
2707778, -0.521, -1.938, -0.743, -0.82, 0.222, -0.187, 1
2707798, -0.48, -1.444, -0.055, -1.147, 0.354, -0.202, 1
2707818, -0.274, -1.347, 0.774, -1.189, 0.37, -0.183, 1
2707838, -0.491, -0.923, 1.493, -1.023, 0.311, -0.094, 1
2707858, -0.348, -0.814, 1.769, -0.834, 0.397, -0.111, 1
2707878, 0.214, -1.358, 1.674, -0.929, 0.244, -0.169, 1
2707898, -0.172, -1.005, 1.818, -1.013, 0.164, -0.265, 1
2707918, -0.36, -0.574, 2.247, -1.027, 0.151, -0.235, 1
2707938, -0.28, -0.206, 2.504, -0.964, 0.083, -0.212, 1
2707958, -0.15, -0.352, 2.291, -0.878, -0.053, -0.155, 1
2707978, -0.165, -0.417, 1.943, -0.852, -0.132, -0.135, 1
2707998, -0.026, -0.525, 1.692, -0.94, -0.135, -0.181, 1
2708018, -0.473, -0.118, 1.659, -0.927, -0.012, -0.251, 1
2708038, -0.754, 0.325, 1.628, -0.692, 0.072, -0.206, 1
2708058, -0.498, 0.08, 1.496, -0.472, 0.064, -0.12, 1
2708078, -0.139, -0.307, 1.151, -0.489, 0.037, -0.076, 1
2708098, -0.131, -0.348, 1.05, -0.61, 0.035, -0.15, 1
2708118, -0.131, -0.104, 1.39, -0.665, 0.031, -0.182, 1
2708138, -0.235, 0.058, 1.604, -0.653, 0.044, -0.142, 1
2708158, -0.495, -0.058, 1.511, -0.625, 0.053, -0.091, 1
2708178, -0.299, -0.289, 1.219, -0.611, -0.089, -0.028, 1
2708198, -0.387, -0.119, 1.021, -0.609, -0.154, 0.001, 1
2708218, -0.332, 0.118, 1.262, -0.544, -0.043, 0.007, 1
2708238, -0.171, 0.046, 1.613, -0.421, 0.01, 0.009, 1
2708258, -0.157, -0.072, 1.738, -0.323, 0.004, 0.061, 1
2708278, -0.17, -0.284, 1.442, -0.28, 0.012, 0.086, 1
2708298, -0.14, -0.36, 1.349, -0.282, 0.058, 0.084, 1
2708318, -0.023, -0.296, 1.564, -0.246, 0.059, 0.075, 1
2708338, -0.004, -0.344, 1.755, -0.163, -0.006, 0.083, 1
2708358, -0.177, -0.248, 1.653, -0.02, -0.084, 0.07, 1
2708378, -0.359, -0.304, 1.446, 0.135, -0.07, 0.076, 1
2708398, -0.394, -0.529, 1.309, 0.182, 0.06, 0.054, 1
2708418, -0.246, -0.474, 1.45, 0.16, 0.123, 0.069, 1
2708438, -0.13, -0.461, 1.686, 0.21, 0.043, 0.089, 1
2708458, -0.272, -0.51, 1.606, 0.257, -0.032, 0.097, 1
2708478, -0.692, -0.81, 1.365, 0.1, 0.06, 0.066, 1
2708498, -0.315, -0.868, 2.46, -0.199, 0.272, 0.087, 1
2708518, 0.95, -0.397, 4.047, -0.293, 0.111, 0.167, 0
2708538, -0.139, 0.741, 4.563, 0.132, -0.155, 0.154, 0
2708558, -0.776, 0.403, 3.824, 0.784, -0.153, 0.168, 0
2708578, -1.097, -0.134, 2.969, 1.006, 0.114, 0.116, 0
2708598, -0.994, -0.44, 2.788, 0.847, 0.39, 0.178, 0
2708618, -0.238, -0.683, 2.802, 0.549, 0.436, 0.313, 0
2708638, 0.573, -0.897, 3.331, 0.326, 0.188, 0.324, 0
2708658, -0.314, -0.673, 2.939, 0.365, 0.013, 0.208, 0
2708678, -1.03, -0.889, 1.621, 0.596, 0.133, 0.145, 0
2708698, -0.863, -1.659, 0.55, 0.521, 0.452, 0.132, 0
2708718, -0.266, -1.644, 0.882, 0.144, 0.572, 0.157, 0
2708738, -0.577, 0.003, 1.917, 0.301, 0.345, 0.139, 0
2708758, -0.064, -0.48, 1.727, 0.987, 0.125, 0.298, 0
2708778, 0.601, -1.849, 0.587, 1.101, 0.116, 0.266, 0
2708798, 1.031, -1.478, -0.223, 0.745, 0.175, 0.023, 0
2708818, 0.013, -0.587, -1.216, 0.63, -0.141, 0.029, 0
2708838, -0.383, -0.373, -1.704, 0.799, -0.467, 0.113, 0
2708858, -0.108, -1.417, -2.499, 0.682, -0.211, 0.036, 0
2708878, 0.461, -1.483, -3.204, 0.247, -0.072, -0.114, 0
2708898, 0.592, -0.452, -2.934, 0.036, -0.282, -0.295, 0
2708918, -0.087, 1.103, -1.662, 0.496, -0.549, -0.142, 0
2708938, -1.081, 0.436, -2.727, 0.848, -0.347, 0.006, 0
2708958, -0.537, -0.616, -3.717, 0.728, -0.023, 0.05, 0
2708978, 0.514, -1.219, -3.805, 0.31, -0.032, -0.155, 0
2708998, 0.389, 0.033, -2.899, 0.3, -0.392, -0.208, 0
2709018, -0.804, 0.497, -2.181, 0.579, -0.435, -0.059, 0
2709038, -0.873, -0.008, -2.016, 0.737, -0.008, 0.048, 0
2709058, -0.52, -0.696, -2.576, 0.687, 0.426, 0.119, 0
2709078, 1.595, -1.268, -3.06, 0.304, 0.089, -0.071, 0
2709098, 1.194, -0.33, -2.25, 0.086, -0.527, -0.251, 0
2709118, -0.49, 0.515, -1.824, 0.291, -0.483, -0.161, 0
2709138, -0.765, 0.326, -1.944, 0.43, -0.135, 0.036, 0
2709158, -0.628, 0.149, -2.138, 0.44, 0.131, 0.086, 0
2709178, 0.755, -0.517, -2.246, 0.161, -0.156, -0.009, 0
2709198, 0.272, -0.054, -1.808, 0.015, -0.485, -0.027, 0
2709218, -0.742, 0.351, -1.61, 0.161, -0.261, 0.102, 0
2709238, -0.571, 0.001, -1.648, 0.244, 0.023, 0.216, 0
2709258, 0.218, -0.656, -1.646, 0.098, 0.085, 0.174, 0
2709278, 0.768, -0.739, -1.395, -0.145, -0.101, 0.045, 0
2709298, -0.005, -0.345, -1.332, -0.201, -0.133, 0.045, 0
2709318, -0.439, -0.169, -1.259, -0.091, 0.127, 0.191, 0
2709338, 0.368, -0.749, -1.119, -0.082, 0.116, 0.24, 0
2709358, 0.404, -1.123, -1.638, -0.226, 0.016, 0.23, 0
2709378, 0.218, -0.91, -2.018, -0.47, 0.034, 0.342, 1
2709398, 0.672, -0.815, -2.111, -0.507, 0.186, 0.494, 1
2709418, 0.242, -0.562, -2.177, -0.47, 0.169, 0.566, 1
2709438, 0.126, -0.662, -2.455, -0.383, 0.105, 0.485, 1
2709458, -0.171, -0.814, -2.79, -0.368, 0.156, 0.419, 1
2709478, -0.023, -0.964, -2.435, -0.452, 0.379, 0.408, 1
2709498, 0.47, -0.496, -2.407, -0.492, 0.444, 0.201, 1
2709518, 0.666, -0.404, -2.697, -0.408, 0.327, 0.029, 1
2709538, 0.301, -0.468, -3.056, -0.294, 0.076, -0.037, 1
2709558, -0.087, -0.531, -3.123, -0.294, 0.08, 0.004, 1
2709578, -0.099, -0.695, -3.274, -0.341, 0.188, 0.009, 1
2709598, -0.271, -0.729, -3.207, -0.509, 0.317, -0.02, 1
2709618, 0.235, -0.778, -2.892, -0.581, 0.295, 0.0, 1
2709638, 0.217, -0.906, -2.409, -0.561, 0.148, 0.027, 1
2709658, -0.152, -0.885, -1.967, -0.558, 0.117, -0.058, 1
2709678, -0.16, -1.076, -1.684, -0.644, 0.155, -0.004, 1
2709698, -0.24, -1.384, -1.399, -0.753, 0.195, -0.012, 1
2709718, 0.127, -1.446, -0.86, -0.865, 0.207, -0.006, 1
2709738, 0.355, -1.714, -0.379, -0.901, 0.106, -0.025, 1
2709758, 0.341, -1.635, 0.113, -0.927, -0.016, -0.044, 1
2709778, 0.148, -1.821, 0.155, -0.983, -0.004, -0.056, 1
2709798, -0.034, -1.644, 0.55, -1.135, 0.065, -0.1, 1
2709818, 0.198, -1.701, 1.118, -1.21, 0.176, -0.121, 1
2709838, 0.394, -1.492, 1.495, -1.229, 0.139, -0.184, 1
2709858, -0.006, -1.486, 1.618, -1.193, 0.083, -0.151, 1
2709878, -0.105, -0.955, 1.787, -1.122, 0.05, -0.147, 1
2709898, -0.237, -0.676, 2.04, -1.111, 0.147, -0.153, 1
2709918, -0.223, -0.769, 2.111, -1.149, 0.265, -0.152, 1
2709938, -0.011, -0.748, 2.343, -1.112, 0.213, -0.142, 1
2709958, -0.022, -0.529, 2.592, -1.01, 0.095, -0.131, 1
2709978, -0.213, -0.219, 2.765, -0.879, 0.109, -0.174, 1
2709998, -0.616, -0.064, 2.594, -0.754, 0.235, -0.191, 1
2710018, -0.598, -0.168, 2.341, -0.681, 0.299, -0.19, 1
2710038, -0.358, -0.266, 2.125, -0.698, 0.2, -0.139, 1
2710058, -0.374, -0.129, 2.136, -0.695, 0.033, -0.091, 1
2710078, -0.553, -0.091, 2.096, -0.67, -0.07, -0.047, 1
2710098, -0.886, -0.033, 2.005, -0.661, 0.061, -0.028, 1
2710118, -0.811, -0.195, 1.834, -0.585, 0.168, -0.008, 1
2710138, -0.428, -0.346, 2.013, -0.458, 0.072, 0.017, 1
2710158, -0.289, -0.511, 1.965, -0.339, -0.008, 0.045, 1
2710178, -0.36, -0.548, 1.703, -0.274, 0.058, 0.051, 1
2710198, -0.288, -0.479, 1.664, -0.221, 0.138, 0.013, 1
2710218, -0.138, -0.329, 1.9, -0.113, 0.15, 0.016, 1
2710238, -0.132, -0.389, 2.015, -0.007, 0.075, 0.058, 1
2710258, -0.264, -0.583, 1.917, 0.034, 0.028, 0.133, 1
2710278, -0.162, -0.737, 1.92, 0.058, -0.04, 0.147, 1
2710298, 0.01, -0.678, 1.859, 0.139, -0.053, 0.087, 1
2710318, -0.582, -0.393, 1.561, 0.284, 0.047, 0.105, 1
2710338, -0.307, -0.735, 1.374, 0.318, -0.023, 0.129, 1
2710358, -0.761, -0.508, 1.917, 0.172, -0.039, 0.045, 1
2710378, -0.492, -0.649, 2.634, 0.25, 0.084, -0.024, 1
2710398, -0.404, -0.928, 2.97, 0.445, 0.086, 0.004, 1
2710418, 0.376, -1.807, 2.753, 0.445, 0.224, -0.032, 0
2710438, -0.041, -1.316, 2.719, 0.267, 0.415, -0.039, 0
2710458, -0.215, -0.363, 3.105, 0.284, 0.242, 0.103, 0
2710478, -0.273, -0.142, 3.563, 0.611, -0.027, 0.162, 0
2710498, -0.396, 0.054, 3.489, 0.901, -0.067, 0.175, 0
2710518, -0.871, 0.066, 2.798, 1.183, 0.151, 0.188, 0
2710538, -0.92, -0.667, 1.607, 1.262, 0.504, 0.263, 0
2710558, -0.17, -1.031, 1.601, 0.877, 0.689, 0.339, 0
2710578, -0.359, -0.635, 1.468, 0.678, 0.354, 0.35, 0
2710598, -0.554, -0.503, 0.794, 0.93, -0.014, 0.346, 0
2710618, -0.509, -0.754, -0.032, 1.014, 0.167, 0.383, 0
2710638, 0.46, -1.141, -0.036, 0.768, 0.466, 0.31, 0
2710658, 0.528, -0.338, -0.046, 0.473, 0.244, 0.183, 0
2710678, -1.028, 0.503, -0.184, 0.483, -0.199, 0.2, 0
2710698, -1.135, -0.444, -0.921, 0.71, -0.059, 0.291, 0
2710718, -0.332, -1.183, -1.526, 0.724, 0.342, 0.236, 0
2710738, 0.691, -1.112, -1.817, 0.533, 0.271, 0.138, 0
2710758, 0.209, -0.594, -1.965, 0.511, -0.339, 0.053, 0
2710778, -0.92, -0.846, -1.979, 0.4, -0.506, -0.003, 0
2710798, -0.495, -0.711, -1.663, 0.453, -0.125, 0.031, 0
2710818, -0.403, -0.157, -2.203, 0.701, -0.346, 0.062, 0
2710838, -1.011, -0.413, -3.07, 0.722, -0.435, 0.225, 0
2710858, -0.756, -0.419, -3.06, 0.648, -0.25, 0.315, 0
2710878, 0.174, -0.612, -2.383, 0.54, -0.237, 0.311, 0
2710898, 0.652, -0.343, -1.682, 0.516, -0.496, 0.209, 0
2710918, 0.409, -0.319, -1.092, 0.588, -0.725, 0.167, 0
2710938, 0.421, -0.584, -0.877, 0.682, -0.687, 0.116, 0
2710958, 0.63, -0.804, -1.953, 0.565, -0.604, -0.074, 0
2710978, 0.353, -0.446, -2.786, 0.401, -0.686, -0.054, 0
2710998, -0.161, 0.182, -3.019, 0.365, -0.656, -0.029, 0
2711018, -0.518, 0.426, -2.815, 0.479, -0.41, 0.114, 0
2711038, -0.05, -0.296, -3.093, 0.454, -0.197, 0.147, 0
2711058, 0.718, -0.48, -3.006, 0.28, -0.216, 0.117, 0
2711078, 0.55, -0.402, -2.788, 0.16, -0.291, 0.051, 0
2711098, 0.0, 0.111, -2.537, 0.175, -0.216, 0.069, 0
2711118, -0.37, -0.015, -2.545, 0.163, -0.028, 0.087, 0
2711138, -0.125, -0.178, -2.32, 0.038, 0.121, 0.111, 0
2711158, 0.136, -0.136, -2.158, -0.052, 0.161, 0.095, 0
2711178, 0.055, -0.39, -1.951, -0.196, 0.125, 0.084, 0
2711198, 0.058, -0.322, -1.558, -0.218, 0.074, 0.059, 0
2711218, -0.112, -0.589, -1.631, -0.289, 0.094, 0.071, 0
2711238, -0.048, -0.691, -1.665, -0.354, 0.162, 0.111, 0
2711258, 0.093, -0.832, -1.715, -0.417, 0.2, 0.131, 1
2711278, 0.236, -1.024, -1.639, -0.563, 0.273, 0.199, 1
2711298, -0.081, -0.306, -1.409, -0.562, 0.318, 0.414, 1
2711318, 0.091, -0.771, -1.994, -0.134, 0.217, 0.46, 1
2711338, -0.331, -1.948, -3.042, -0.068, 0.412, 0.29, 1
2711358, 0.075, -1.216, -3.14, -0.391, 0.707, 0.179, 1
2711378, 0.933, -0.801, -2.763, -0.389, 0.78, 0.038, 1
2711398, 0.256, -0.96, -2.725, -0.37, 0.446, -0.006, 1
2711418, 0.357, -0.868, -2.545, -0.346, 0.26, 0.002, 1
2711438, 0.383, -1.067, -2.634, -0.3, 0.154, -0.053, 1
2711458, -0.079, -1.656, -3.273, -0.459, 0.159, -0.183, 1
2711478, -0.333, -0.854, -2.649, -0.8, 0.23, -0.232, 1
2711498, -0.252, -0.403, -1.615, -0.921, 0.237, -0.152, 1
2711518, -0.045, -0.354, -0.878, -0.841, 0.161, -0.054, 1
2711538, 0.195, -0.579, -0.83, -0.642, -0.029, 0.01, 1
2711558, -0.567, -1.482, -1.417, -0.666, -0.095, -0.09, 1
2711578, -0.714, -1.075, -0.895, -1.045, 0.233, -0.122, 1
2711598, 0.082, -0.616, 0.004, -1.249, 0.443, -0.046, 1
2711618, 0.464, -0.664, 0.218, -1.22, 0.215, -0.038, 1
2711638, -0.04, -0.856, 0.293, -1.182, -0.149, 0.0, 1
2711658, -0.36, -1.099, 0.078, -1.247, -0.163, -0.067, 1
2711678, -0.308, -0.972, 0.283, -1.376, 0.204, -0.125, 1
2711698, 0.408, -1.065, 0.658, -1.399, 0.431, -0.096, 1
2711718, 0.596, -0.959, 1.232, -1.324, 0.362, -0.122, 1
2711738, 0.299, -0.741, 1.453, -1.166, 0.152, -0.142, 1
2711758, -0.05, -0.715, 1.273, -1.083, 0.118, -0.15, 1
2711778, 0.007, -0.872, 1.138, -1.15, 0.188, -0.191, 1
2711798, -0.06, -0.713, 1.275, -1.234, 0.16, -0.194, 1
2711818, 0.053, -0.694, 1.469, -1.252, -0.002, -0.19, 1
2711838, -0.289, -0.293, 1.97, -1.136, -0.087, -0.197, 1
2711858, -0.752, -0.038, 2.346, -0.99, 0.004, -0.224, 1
2711878, -1.123, 0.183, 2.486, -0.913, 0.156, -0.191, 1
2711898, -0.868, -0.058, 2.456, -0.834, 0.158, -0.156, 1
2711918, -0.641, -0.061, 2.54, -0.692, 0.033, -0.1, 1
2711938, -0.709, -0.176, 2.637, -0.57, 0.031, 0.009, 1
2711958, -0.596, -0.313, 2.597, -0.39, 0.081, 0.072, 1
2711978, -0.371, -0.353, 2.567, -0.232, 0.122, 0.045, 1
2711998, -0.442, -0.454, 2.424, -0.153, 0.175, 0.053, 1
2712018, -0.489, -0.467, 2.405, -0.104, 0.186, 0.083, 1
2712038, -0.336, -0.585, 2.313, -0.095, 0.123, 0.111, 1
2712058, -0.367, -0.638, 2.245, -0.093, 0.06, 0.135, 1
2712078, -0.292, -0.626, 2.118, -0.051, 0.009, 0.138, 1
2712098, -0.37, -0.57, 2.102, 0.004, 0.076, 0.098, 1
2712118, -0.284, -0.495, 2.207, 0.092, 0.125, 0.077, 1
2712138, -0.342, -0.424, 2.111, 0.262, 0.112, 0.098, 1
2712158, -0.198, -0.376, 2.061, 0.42, 0.013, 0.107, 1
2712178, -0.254, -0.693, 1.672, 0.431, -0.038, 0.099, 1
2712198, -0.6, -0.769, 1.161, 0.336, -0.032, 0.134, 1
2712218, -0.377, -0.428, 1.221, 0.306, -0.172, 0.196, 1
2712238, -0.563, -0.311, 2.125, 0.417, -0.35, 0.175, 0
2712258, -0.902, -0.176, 2.723, 0.696, -0.01, 0.105, 0
2712278, -1.357, 0.162, 3.254, 1.017, 0.207, 0.177, 0
2712298, -1.118, -0.058, 2.922, 1.23, 0.296, 0.312, 0
2712318, -0.8, -0.005, 2.658, 1.202, 0.35, 0.394, 0
2712338, -0.208, -0.218, 2.781, 1.034, 0.2, 0.456, 0
2712358, -0.52, 0.186, 2.652, 0.879, -0.067, 0.493, 0
2712378, -0.934, 0.234, 2.453, 0.971, 0.049, 0.47, 0
2712398, -0.334, -0.425, 2.381, 1.039, 0.337, 0.455, 0
2712418, 0.5, -0.964, 2.454, 0.901, 0.368, 0.431, 0
2712438, 0.19, -0.748, 1.734, 0.756, 0.065, 0.406, 0
2712458, -0.688, -0.151, 1.312, 0.751, -0.158, 0.443, 0
2712478, -0.812, -0.078, 1.213, 0.948, -0.108, 0.421, 0
2712498, 0.18, -1.154, 0.764, 0.814, -0.194, 0.443, 0
2712518, 0.295, -1.152, 0.032, 0.405, -0.734, 0.294, 0
2712538, -1.132, -0.681, -1.261, 0.448, -1.005, 0.16, 0
2712558, -1.312, -1.118, -2.465, 0.807, -0.573, 0.074, 0
2712578, -0.1, -1.525, -2.87, 0.932, -0.287, -0.005, 0
2712598, 0.267, -1.895, -3.194, 0.637, -0.551, 0.02, 0
2712618, -0.842, -0.732, -3.374, 0.32, -0.749, -0.042, 0
2712638, -1.136, -0.636, -3.613, 0.541, -0.407, 0.106, 0
2712658, 0.291, -0.871, -3.051, 0.72, 0.185, 0.217, 0
2712678, 1.977, -1.833, -2.834, 0.689, 0.333, 0.106, 0
2712698, 1.795, -1.477, -2.375, 0.244, -0.072, -0.122, 0
2712718, 0.358, 0.034, -1.388, 0.07, -0.489, -0.233, 0
2712738, -1.563, 0.476, -1.635, 0.514, -0.264, 0.012, 0
2712758, -0.733, -0.695, -1.753, 0.427, 0.1, 0.095, 0
2712778, 1.308, -1.17, -1.23, 0.161, -0.232, -0.084, 0
2712798, 0.96, 0.014, -1.333, 0.233, -0.806, -0.241, 0
2712818, -1.675, 0.596, -2.295, 0.419, -0.763, -0.069, 0
2712838, -2.385, 0.209, -2.898, 0.412, -0.097, 0.084, 0
2712858, -1.494, 0.059, -2.678, 0.29, 0.395, 0.197, 0
2712878, 0.341, 0.049, -2.165, 0.284, 0.115, 0.23, 0
2712898, 0.702, -0.155, -2.053, 0.228, -0.383, 0.129, 0
2712918, -0.753, 0.004, -2.621, 0.182, -0.381, 0.139, 0
2712938, -1.382, -0.271, -2.808, 0.065, 0.122, 0.159, 0
2712958, -0.281, -0.264, -2.15, 0.031, 0.309, 0.213, 0
2712978, 0.672, -0.455, -1.721, -0.021, 0.029, 0.182, 0
2712998, 0.474, -0.587, -1.556, -0.111, -0.147, 0.103, 0
2713018, -0.086, -0.548, -1.666, -0.19, -0.053, 0.075, 0
2713038, -0.217, -0.602, -1.612, -0.282, 0.167, 0.109, 0
2713058, 0.06, -0.618, -1.613, -0.351, 0.28, 0.152, 0
2713078, 0.129, -0.695, -1.724, -0.474, 0.306, 0.209, 1
2713098, 0.025, -0.618, -2.026, -0.566, 0.287, 0.299, 1
2713118, 0.311, -0.986, -2.182, -0.67, 0.381, 0.361, 1
2713138, -0.173, -0.672, -2.322, -0.658, 0.524, 0.321, 1
2713158, -0.027, -0.607, -2.379, -0.576, 0.539, 0.276, 1
2713178, 0.073, -0.857, -2.717, -0.491, 0.474, 0.208, 1
2713198, 0.364, -1.12, -3.127, -0.504, 0.349, 0.196, 1
2713218, 0.205, -1.24, -3.31, -0.526, 0.27, 0.171, 1
2713238, 0.429, -1.299, -3.01, -0.477, 0.417, 0.136, 1
2713258, 0.252, -1.959, -2.802, -0.472, 0.558, -0.003, 1
2713278, 0.802, -1.85, -2.523, -0.694, 0.409, -0.08, 1
2713298, 0.179, -1.49, -2.059, -0.86, 0.037, -0.15, 1
2713318, -0.37, -1.1, -1.801, -0.866, 0.032, -0.125, 1
2713338, -0.306, -0.939, -1.553, -0.814, 0.291, -0.115, 1
2713358, -0.219, -1.192, -1.404, -0.761, 0.365, -0.095, 1
2713378, -0.375, -0.936, -1.061, -0.805, 0.241, -0.083, 1
2713398, -0.167, -1.416, -1.037, -0.841, 0.192, -0.025, 1
2713418, -0.125, -1.413, -0.667, -0.929, 0.16, -0.03, 1
2713438, -0.183, -1.343, -0.501, -1.043, 0.185, -0.018, 1
2713458, -0.392, -1.243, -0.241, -1.169, 0.132, 0.037, 1
2713478, -0.341, -1.045, 0.359, -1.279, 0.167, -0.02, 1
2713498, -0.056, -0.794, 1.159, -1.316, 0.182, -0.056, 1
2713518, -0.338, -0.556, 1.508, -1.212, 0.128, -0.142, 1
2713538, -0.185, -0.698, 1.438, -1.119, 0.116, -0.065, 1
2713558, 0.003, -1.182, 1.267, -1.152, 0.116, -0.095, 1
2713578, 0.189, -1.117, 1.378, -1.22, 0.053, -0.139, 1
2713598, -0.113, -0.769, 1.734, -1.193, 0.01, -0.202, 1
2713618, -0.267, -0.342, 2.015, -1.127, 0.149, -0.238, 1
2713638, -0.3, -0.067, 2.391, -1.055, 0.291, -0.26, 1
2713658, -0.102, -0.18, 2.404, -0.995, 0.266, -0.243, 1
2713678, -0.405, -0.354, 2.398, -1.021, 0.136, -0.274, 1
2713698, -0.427, -0.333, 2.406, -1.044, 0.094, -0.251, 1
2713718, -0.574, -0.222, 2.548, -0.942, 0.193, -0.234, 1
2713738, -0.268, -0.191, 2.884, -0.786, 0.076, -0.219, 1
2713758, -0.574, -0.08, 3.014, -0.66, -0.036, -0.164, 1
2713778, -0.769, -0.242, 2.761, -0.561, -0.031, -0.109, 1
2713798, -0.877, -0.272, 2.578, -0.51, 0.036, -0.094, 1
2713818, -0.659, -0.143, 2.812, -0.466, 0.086, -0.065, 1
2713838, -0.764, 0.003, 2.935, -0.287, 0.083, 0.007, 1
2713858, -0.642, -0.181, 2.638, -0.057, -0.019, 0.1, 1
2713878, -0.366, -0.387, 2.363, 0.064, -0.136, 0.169, 1
2713898, -0.33, -0.491, 2.028, 0.108, -0.069, 0.114, 1
2713918, -0.667, -0.476, 1.652, 0.137, 0.134, 0.038, 1
2713938, -0.578, -0.452, 1.61, 0.155, 0.183, 0.081, 1
2713958, -0.267, -0.29, 1.858, 0.287, 0.021, 0.14, 1
2713978, -0.288, -0.685, 1.918, 0.339, -0.045, 0.211, 1
2713998, -0.175, -1.054, 1.86, 0.211, 0.015, 0.178, 1
2714018, -0.411, -1.35, 1.968, -0.009, 0.158, 0.1, 1
2714038, -0.518, -0.649, 3.068, 0.018, 0.242, 0.163, 1
2714058, -0.584, -0.343, 3.773, 0.395, 0.255, 0.346, 0
2714078, 0.489, -0.694, 4.219, 0.533, -0.006, 0.374, 0
2714098, 0.579, -0.968, 3.979, 0.487, -0.266, 0.259, 0
2714118, -0.835, -0.505, 3.04, 0.554, -0.033, 0.145, 0
2714138, -0.787, -0.561, 2.594, 0.75, 0.232, 0.13, 0
2714158, -0.239, -1.082, 2.518, 0.827, 0.193, 0.163, 0
2714178, -0.101, -1.168, 2.033, 0.886, -0.003, 0.145, 0
2714198, -0.326, -1.078, 1.211, 0.946, 0.024, 0.028, 0
2714218, 0.061, -1.12, 0.262, 0.838, 0.284, -0.029, 0
2714238, -0.13, -0.645, 0.175, 0.78, -0.018, -0.067, 0
2714258, -1.236, -0.49, -0.27, 0.88, -0.215, 0.131, 0
2714278, -0.525, -1.443, -0.195, 0.965, 0.116, 0.227, 0
2714298, 1.079, -1.565, 0.307, 0.868, 0.332, 0.153, 0
2714318, 0.431, -1.319, -0.54, 0.817, -0.07, -0.011, 0
2714338, -0.453, -0.991, -1.374, 0.924, -0.361, -0.028, 0
2714358, -0.225, -1.57, -1.686, 0.932, -0.163, 0.039, 0
2714378, 1.2, -1.681, -1.306, 0.769, -0.062, -0.053, 0
2714398, 0.457, -0.536, -1.832, 0.61, -0.423, -0.266, 0
2714418, -1.342, 0.025, -2.288, 0.707, -0.666, -0.219, 0
2714438, -1.25, -0.306, -2.761, 0.776, -0.353, -0.058, 0
2714458, -0.034, -0.611, -2.859, 0.791, -0.092, -0.056, 0
2714478, -0.187, -0.463, -3.414, 0.723, -0.249, -0.083, 0
2714498, -1.019, -0.023, -3.322, 0.586, -0.422, 0.014, 0
2714518, -0.936, 0.079, -2.861, 0.579, -0.297, 0.179, 0
2714538, 0.106, -0.544, -2.44, 0.682, -0.11, 0.297, 0
2714558, 1.366, -0.685, -2.296, 0.65, -0.214, 0.204, 0
2714578, 0.25, -0.331, -2.502, 0.513, -0.707, 0.043, 0
2714598, -1.085, 0.0, -2.439, 0.429, -0.707, 0.059, 0
2714618, -0.282, -0.104, -1.939, 0.486, -0.331, 0.197, 0
2714638, 0.946, -0.584, -1.888, 0.541, -0.197, 0.232, 0
2714658, 0.44, -0.511, -2.403, 0.452, -0.398, 0.131, 0
2714678, -0.445, -0.368, -2.622, 0.321, -0.315, 0.109, 0
2714698, -0.093, -0.222, -1.993, 0.168, 0.095, 0.137, 0
2714718, 0.517, -0.123, -1.353, 0.15, 0.01, 0.146, 0
2714738, 0.338, -0.239, -1.312, 0.141, -0.112, 0.141, 0
2714758, -0.067, -0.172, -1.631, 0.104, -0.073, 0.137, 0
2714778, -0.29, -0.451, -1.851, -0.058, 0.099, 0.12, 0
2714798, -0.058, -0.459, -1.714, -0.186, 0.168, 0.126, 0
2714818, 0.006, -0.601, -1.747, -0.223, 0.18, 0.153, 0
2714838, 0.25, -0.854, -1.837, -0.262, 0.158, 0.141, 0
2714858, 0.125, -0.955, -2.037, -0.335, 0.166, 0.083, 0
2714878, -0.032, -0.955, -2.276, -0.447, 0.215, 0.073, 0
2714898, -0.047, -0.869, -2.178, -0.56, 0.288, 0.122, 1
2714918, 0.097, -0.878, -2.252, -0.566, 0.345, 0.273, 1
2714938, 0.945, -0.906, -2.473, -0.554, 0.259, 0.429, 1
2714958, 0.708, -1.071, -3.017, -0.453, 0.131, 0.386, 1
2714978, 0.429, -1.795, -3.668, -0.539, 0.128, 0.272, 1
2714998, 0.13, -2.1, -4.241, -0.773, 0.351, 0.045, 1
2715018, -0.138, -2.306, -4.319, -1.097, 0.613, -0.105, 1
2715038, -0.085, -1.301, -3.567, -1.121, 0.717, -0.213, 1
2715058, -0.128, -0.841, -2.801, -1.043, 0.717, -0.166, 1
2715078, 0.109, -0.741, -2.243, -0.839, 0.587, -0.221, 1
2715098, 0.126, -0.721, -2.158, -0.645, 0.298, -0.234, 1
2715118, 0.194, -1.014, -2.143, -0.52, 0.045, -0.254, 1
2715138, -0.109, -1.409, -1.742, -0.576, 0.047, -0.158, 1
2715158, -0.687, -1.16, -1.21, -0.814, 0.177, -0.059, 1
2715178, -0.687, -1.061, -0.724, -1.034, 0.28, -0.071, 1
2715198, -0.215, -0.833, 0.403, -1.032, 0.089, 0.004, 1
2715218, -0.419, -0.959, 0.729, -0.971, -0.089, 0.084, 1
2715238, -0.355, -1.455, 0.689, -1.027, -0.026, 0.109, 1
2715258, -0.297, -1.519, 0.805, -1.221, 0.121, 0.008, 1
2715278, 0.607, -1.621, 1.28, -1.467, 0.157, -0.061, 1
2715298, 0.517, -1.188, 1.708, -1.66, -0.058, -0.07, 1
2715318, -0.167, -0.438, 2.112, -1.656, -0.086, -0.109, 1
2715338, -0.275, -0.189, 2.422, -1.448, 0.043, -0.11, 1
2715358, -0.221, -0.251, 2.042, -1.183, 0.066, -0.065, 1
2715378, 0.091, -0.691, 1.601, -1.03, 0.047, -0.029, 1
2715398, 0.145, -0.778, 1.627, -1.114, 0.102, -0.078, 1
2715418, -0.025, -0.478, 1.761, -1.226, 0.109, -0.13, 1
2715438, -0.228, -0.199, 2.082, -1.185, 0.114, -0.132, 1
2715458, -0.084, -0.286, 2.325, -1.062, 0.146, -0.11, 1
2715478, -0.073, -0.175, 2.447, -0.926, 0.15, -0.116, 1
2715498, -0.031, -0.534, 2.192, -0.786, 0.113, -0.125, 1
2715518, -0.333, -0.459, 2.043, -0.787, -0.009, -0.122, 1
2715538, -0.646, -0.223, 2.079, -0.734, 0.032, -0.139, 1
2715558, -0.711, -0.29, 2.047, -0.578, 0.169, -0.132, 1
2715578, -0.426, -0.484, 2.135, -0.409, 0.249, -0.098, 1
2715598, -0.099, -0.757, 2.064, -0.308, 0.161, -0.065, 1
2715618, -0.352, -0.605, 1.867, -0.331, 0.019, -0.061, 1
2715638, -0.808, -0.229, 1.703, -0.332, 0.034, -0.069, 1
2715658, -0.586, -0.079, 1.839, -0.238, 0.186, -0.059, 1
2715678, -0.497, 0.048, 1.986, 0.036, 0.164, -0.028, 1
2715698, -0.413, -0.307, 1.641, 0.175, 0.062, 0.065, 1
2715718, -0.161, -0.594, 1.256, 0.138, -0.072, 0.106, 1
2715738, -0.43, -0.456, 1.289, 0.115, -0.033, 0.089, 1
2715758, -0.637, -0.251, 1.225, 0.214, 0.128, 0.039, 1
2715778, -0.438, -0.334, 1.276, 0.296, 0.181, 0.051, 1
2715798, -0.2, -0.43, 1.565, 0.297, 0.135, 0.098, 1
2715818, -0.338, -0.435, 1.851, 0.31, 0.133, 0.124, 1
2715838, -0.347, -0.459, 2.017, 0.317, 0.158, 0.045, 1
2715858, -0.7, -0.103, 2.756, 0.426, 0.204, -0.02, 1
2715878, -0.434, -0.361, 3.59, 0.559, 0.163, 0.081, 0
2715898, -0.528, -0.177, 4.019, 0.719, 0.149, 0.101, 0
2715918, -0.187, -0.176, 4.194, 0.891, -0.003, 0.174, 0
2715938, -0.905, -0.127, 3.364, 1.028, 0.064, 0.277, 0
2715958, -1.229, -0.556, 2.56, 0.93, 0.282, 0.277, 0
2715978, -0.859, -1.147, 2.566, 0.789, 0.472, 0.29, 0
2715998, -0.336, -1.404, 2.466, 0.787, 0.339, 0.386, 0
2716018, -0.288, -1.481, 1.955, 0.778, 0.129, 0.455, 0
2716038, 0.132, -2.298, 1.68, 0.671, 0.14, 0.412, 0
2716058, 0.48, -2.729, 1.452, 0.533, 0.261, 0.257, 0
2716078, 0.073, -2.25, 0.7, 0.684, 0.122, 0.285, 0
2716098, 0.071, -1.671, 0.384, 0.869, -0.122, 0.361, 0
2716118, 0.209, -2.318, 0.123, 0.786, -0.183, 0.327, 0
2716138, 0.319, -2.175, -0.204, 0.635, -0.088, 0.232, 0
2716158, -0.258, -2.279, -1.141, 0.5, -0.018, 0.139, 0
2716178, 0.509, -1.66, -1.13, 0.632, -0.203, 0.147, 0
2716198, 0.203, -1.515, -1.84, 0.679, -0.376, 0.091, 0
2716218, -0.374, -1.578, -2.368, 0.478, -0.396, 0.1, 0
2716238, -0.157, -1.321, -1.646, 0.283, -0.244, 0.094, 0
2716258, 0.649, -0.338, -0.86, 0.478, -0.331, -0.01, 0
2716278, 0.089, -0.878, -2.289, 0.974, -0.712, 0.025, 0
2716298, -0.419, -1.588, -3.453, 0.915, -0.841, 0.102, 0
2716318, -0.371, -1.558, -3.369, 0.48, -0.541, 0.006, 0
2716338, 0.531, -0.292, -2.276, 0.249, -0.203, -0.07, 0
2716358, 0.275, 0.389, -2.279, 0.628, -0.367, -0.078, 0
2716378, -0.537, -0.293, -2.788, 0.81, -0.469, 0.086, 0
2716398, -0.029, -0.582, -2.747, 0.707, -0.343, 0.15, 0
2716418, 0.018, -0.376, -2.332, 0.448, -0.246, 0.09, 0
2716438, 0.002, 0.39, -1.407, 0.378, -0.298, 0.064, 0
2716458, 0.121, 0.316, -1.236, 0.549, -0.433, 0.108, 0
2716478, 0.114, 0.123, -1.602, 0.677, -0.586, 0.189, 0
2716498, -0.234, -0.631, -2.482, 0.646, -0.547, 0.23, 0
2716518, 0.038, -0.644, -2.587, 0.398, -0.324, 0.174, 0
2716538, 0.156, -0.335, -2.357, 0.242, -0.207, 0.155, 0
2716558, 0.155, -0.248, -2.05, 0.257, -0.21, 0.141, 0
2716578, 0.07, -0.57, -2.312, 0.279, -0.188, 0.147, 0
2716598, -0.082, -0.906, -2.924, 0.134, -0.095, 0.128, 0
2716618, -0.092, -0.68, -2.927, -0.137, 0.072, 0.118, 0
2716638, 0.104, -0.682, -2.501, -0.26, 0.154, 0.031, 0
2716658, 0.035, -0.654, -2.124, -0.361, 0.172, 0.022, 0
2716678, -0.027, -0.646, -1.996, -0.379, 0.197, 0.049, 0
2716698, 0.14, -0.929, -2.214, -0.472, 0.183, 0.065, 0
2716718, 0.115, -0.974, -2.429, -0.579, 0.196, 0.059, 0
2716738, 0.019, -0.717, -2.285, -0.587, 0.262, 0.229, 1
2716758, 0.281, -0.257, -1.62, -0.218, 0.178, 0.46, 1
2716778, 0.029, -0.568, -2.504, 0.212, 0.035, 0.489, 1
2716798, 0.156, -0.661, -2.762, 0.536, 0.007, 0.477, 1
2716818, -0.484, -2.459, -3.978, 0.183, 0.337, 0.251, 1
2716838, -0.04, -2.417, -3.945, -0.329, 0.536, 0.018, 1
2716858, 0.235, -1.382, -3.119, -0.496, 0.419, -0.091, 1
2716878, -0.003, -0.851, -2.273, -0.364, 0.145, 0.023, 1
2716898, -0.012, -1.026, -2.181, -0.214, -0.034, 0.113, 1
2716918, -0.303, -1.989, -2.708, -0.427, 0.138, 0.044, 1
2716938, -0.278, -2.333, -2.752, -0.944, 0.525, -0.218, 1
2716958, -0.354, -1.832, -1.923, -1.186, 0.621, -0.243, 1
2716978, 0.027, -1.05, -0.919, -1.025, 0.368, -0.127, 1
2716998, -0.178, -1.095, -0.632, -0.872, 0.11, -0.035, 1
2717018, -0.296, -1.412, -0.676, -0.947, 0.065, -0.054, 1
2717038, -0.705, -1.403, -0.381, -1.143, 0.278, -0.144, 1
2717058, -0.936, -1.237, 0.09, -1.263, 0.511, -0.185, 1
2717078, -0.702, -0.767, 1.054, -1.233, 0.629, -0.122, 1
2717098, -0.025, -0.954, 1.585, -1.1, 0.474, -0.064, 1
2717118, 0.173, -1.0, 1.692, -1.005, 0.254, -0.048, 1
2717138, 0.108, -1.255, 1.604, -1.164, 0.27, -0.181, 1
2717158, -0.034, -0.629, 2.05, -1.252, 0.402, -0.248, 1
2717178, -0.165, -0.395, 2.177, -1.195, 0.381, -0.264, 1
2717198, -0.089, -0.365, 2.173, -1.084, 0.262, -0.199, 1
2717218, -0.134, -0.43, 2.122, -1.018, 0.091, -0.163, 1
2717238, -0.342, -0.232, 1.984, -1.017, -0.01, -0.16, 1
2717258, -0.464, -0.179, 1.8, -1.021, 0.074, -0.172, 1
2717278, -0.52, -0.025, 1.91, -1.007, 0.239, -0.175, 1
2717298, -0.368, 0.227, 2.238, -0.929, 0.285, -0.171, 1
2717318, -0.261, -0.137, 2.169, -0.768, 0.1, -0.083, 1
2717338, -0.282, -0.125, 1.944, -0.657, -0.147, -0.008, 1
2717358, -0.323, -0.135, 1.788, -0.617, -0.111, 0.012, 1
2717378, -0.619, -0.146, 1.788, -0.626, 0.061, -0.051, 1
2717398, -0.484, -0.228, 1.964, -0.605, 0.268, -0.072, 1
2717418, -0.44, -0.275, 2.297, -0.574, 0.285, -0.045, 1
2717438, -0.273, -0.198, 2.538, -0.437, 0.118, 0.042, 1
2717458, -0.282, -0.403, 2.424, -0.299, -0.041, 0.107, 1
2717478, -0.329, -0.545, 2.199, -0.283, -0.036, 0.107, 1
2717498, -0.249, -0.388, 2.306, -0.271, 0.065, 0.066, 1
2717518, -0.224, -0.321, 2.402, -0.207, 0.122, 0.069, 1
2717538, -0.217, -0.227, 2.638, -0.1, 0.139, 0.075, 1
2717558, -0.404, -0.355, 2.728, 0.064, 0.023, 0.117, 1
2717578, -0.412, -0.643, 2.489, 0.227, -0.133, 0.178, 1
2717598, -0.537, -0.912, 2.217, 0.234, -0.141, 0.208, 1
2717618, -0.14, -1.428, 1.957, -0.15, -0.233, 0.139, 1
2717638, -0.51, -0.9, 2.117, -0.343, -0.252, 0.177, 1
2717658, -0.591, -0.146, 2.878, -0.018, -0.215, 0.137, 1
2717678, -0.561, -0.056, 3.036, 0.495, -0.106, 0.021, 0
2717698, -1.044, -0.389, 2.754, 0.726, 0.147, 0.061, 0
2717718, -0.43, -0.867, 3.455, 0.762, 0.043, 0.216, 0
2717738, -0.471, -0.509, 3.712, 0.873, -0.33, 0.362, 0
2717758, -0.91, -0.338, 3.115, 1.008, -0.195, 0.459, 0
2717778, -0.464, -0.609, 2.775, 1.073, 0.183, 0.4, 0
2717798, -0.163, -0.84, 2.331, 1.081, 0.257, 0.338, 0
2717818, -0.61, -1.122, 1.571, 0.971, 0.224, 0.335, 0
2717838, -0.268, -1.333, 1.097, 0.727, 0.178, 0.295, 0
2717858, 0.037, -1.126, 1.526, 0.668, 0.21, 0.245, 0
2717878, -0.808, -0.601, 1.073, 0.844, 0.311, 0.318, 0
2717898, -0.525, -1.175, 0.669, 0.809, 0.295, 0.458, 0
2717918, 0.139, -1.884, 0.485, 0.57, 0.316, 0.457, 0
2717938, 0.867, -1.745, 0.458, 0.605, 0.313, 0.296, 0
2717958, 0.904, -1.123, 0.087, 0.898, -0.003, 0.284, 0
2717978, 0.508, -1.059, -0.981, 1.145, -0.355, 0.364, 0
2717998, 0.238, -1.573, -2.436, 0.98, -0.437, 0.299, 0
2718018, 0.024, -1.943, -3.204, 0.461, -0.243, 0.071, 0
2718038, -0.033, -0.995, -3.398, 0.199, -0.285, -0.113, 0
2718058, -0.099, 0.205, -2.748, 0.494, -0.604, -0.02, 0
2718078, -0.681, -0.496, -3.096, 0.578, -0.494, 0.076, 0
2718098, 0.088, -0.959, -3.041, 0.38, -0.193, 0.035, 0
2718118, 1.019, -1.117, -2.896, -0.109, -0.401, -0.16, 0
2718138, -0.785, 1.261, -2.11, 0.169, -0.513, 0.009, 0
2718158, -0.483, -0.332, -2.674, 0.599, -0.295, 0.138, 0
2718178, 0.35, -0.943, -2.81, 0.488, 0.025, 0.188, 0
2718198, 1.365, -0.996, -2.869, 0.219, -0.105, 0.044, 0
2718218, -0.381, 0.265, -3.009, 0.015, -0.55, -0.132, 0
2718238, -1.626, 0.68, -2.636, 0.2, -0.43, 0.075, 0
2718258, -0.591, -0.124, -2.35, 0.397, 0.037, 0.313, 0
2718278, 0.557, -0.773, -2.088, 0.324, 0.232, 0.31, 0
2718298, 1.08, -0.94, -1.807, 0.152, 0.124, 0.166, 0
2718318, 0.825, -0.621, -1.253, 0.102, -0.245, -0.025, 0
2718338, -0.133, -0.281, -1.356, 0.169, -0.416, -0.077, 0
2718358, -0.829, -0.4, -1.789, 0.156, -0.247, -0.077, 0
2718378, -0.552, -0.284, -1.8, 0.035, 0.038, -0.012, 0
2718398, 0.022, -0.226, -1.533, -0.044, 0.089, 0.022, 0
2718418, -0.028, -0.211, -1.128, -0.103, -0.012, 0.004, 0
2718438, -0.239, -0.203, -1.258, -0.077, -0.062, 0.014, 0
2718458, -0.268, -0.473, -1.816, -0.097, -0.032, 0.046, 0
2718478, -0.209, -0.551, -2.091, -0.225, 0.039, 0.036, 0
2718498, -0.085, -0.641, -2.347, -0.318, 0.145, 0.081, 1
2718518, 0.462, -0.875, -2.424, -0.366, 0.236, 0.188, 1
2718538, 0.274, -0.663, -2.603, -0.451, 0.232, 0.235, 1
2718558, 0.427, -0.627, -3.032, -0.356, 0.141, 0.208, 1
2718578, 0.149, -0.941, -3.587, -0.273, 0.018, 0.212, 1
2718598, 0.092, -1.041, -3.88, -0.271, 0.087, 0.035, 1
2718618, 0.06, -0.95, -3.766, -0.342, 0.26, -0.056, 1
2718638, 0.131, -0.68, -3.62, -0.359, 0.149, -0.042, 1
2718658, 0.127, -0.785, -3.542, -0.297, -0.021, -0.023, 1
2718678, -0.15, -1.097, -3.58, -0.279, 0.047, 0.014, 1
2718698, -0.407, -1.323, -3.394, -0.313, 0.334, 0.045, 1
2718718, -0.46, -1.667, -3.334, -0.459, 0.543, 0.082, 1
2718738, -0.144, -1.65, -2.731, -0.612, 0.574, 0.033, 1
2718758, 0.296, -2.165, -2.194, -0.72, 0.444, -0.026, 1
2718778, 0.179, -1.996, -1.408, -0.831, 0.357, -0.083, 1
2718798, -0.371, -1.616, -0.482, -0.897, 0.406, -0.031, 1
2718818, -0.009, -1.438, 0.154, -0.895, 0.399, 0.002, 1
2718838, -0.135, -1.508, 0.596, -0.955, 0.403, -0.029, 1
2718858, 0.115, -1.596, 1.038, -1.032, 0.35, -0.08, 1
2718878, 0.181, -1.254, 1.58, -1.031, 0.105, -0.098, 1
2718898, 0.009, -1.032, 1.791, -1.009, -0.087, -0.019, 1
2718918, -0.051, -1.213, 1.776, -1.067, -0.067, 0.021, 1
2718938, 0.213, -1.265, 1.884, -1.138, 0.03, -0.02, 1
2718958, 0.32, -1.039, 2.048, -1.183, 0.059, -0.083, 1
2718978, 0.194, -0.965, 2.092, -1.166, 0.017, -0.106, 1
2718998, -0.05, -0.811, 1.92, -1.097, -0.041, -0.102, 1
2719018, -0.152, -0.693, 1.981, -1.039, 0.017, -0.073, 1
2719038, -0.02, -0.638, 2.015, -1.016, 0.108, -0.095, 1
2719058, -0.006, -0.637, 1.968, -0.985, 0.136, -0.109, 1
2719078, -0.021, -0.635, 1.909, -0.968, 0.136, -0.13, 1
2719098, 0.036, -0.502, 2.056, -0.838, -0.028, -0.122, 1
2719118, -0.222, -0.211, 1.743, -0.773, -0.111, -0.131, 1
2719138, -0.456, -0.056, 1.585, -0.772, -0.078, -0.144, 1
2719158, -0.751, 0.283, 1.585, -0.769, 0.039, -0.142, 1
2719178, -0.53, 0.213, 1.599, -0.66, 0.103, -0.089, 1
2719198, -0.269, -0.062, 1.646, -0.567, 0.078, -0.055, 1
2719218, -0.284, -0.24, 1.515, -0.556, 0.019, -0.042, 1
2719238, -0.587, -0.179, 1.463, -0.558, 0.013, -0.032, 1
2719258, -0.402, -0.083, 1.509, -0.52, 0.07, 0.007, 1
2719278, -0.43, -0.089, 1.631, -0.478, 0.138, 0.014, 1
2719298, -0.431, -0.234, 1.861, -0.417, 0.187, 0.021, 1
2719318, -0.291, -0.255, 2.31, -0.323, 0.174, 0.033, 1
2719338, -0.123, -0.291, 2.897, -0.191, 0.16, 0.056, 1
2719358, 0.118, -0.301, 3.266, -0.047, 0.172, 0.081, 1
2719378, -0.15, -0.503, 3.099, 0.085, 0.176, 0.07, 1
2719398, -0.116, -0.515, 3.123, 0.165, 0.15, 0.057, 1
2719418, -0.056, -0.44, 3.129, 0.308, -0.035, 0.083, 1
2719438, -0.522, -0.536, 2.73, 0.492, -0.204, 0.111, 1
2719458, -0.316, -0.867, 2.023, 0.575, -0.241, 0.179, 1
2719478, -0.441, -1.411, 1.2, 0.436, -0.241, 0.094, 1
2719498, -1.152, -1.15, 1.31, 0.167, 0.012, -0.026, 0
2719518, -0.685, -0.39, 1.985, 0.142, 0.309, 0.023, 0
2719538, 0.374, -0.557, 2.991, 0.536, 0.233, 0.184, 0
2719558, 0.345, -0.936, 2.528, 0.803, -0.032, 0.303, 0
2719578, -0.168, -1.127, 1.892, 0.747, -0.101, 0.28, 0
2719598, -0.87, -1.164, 1.69, 0.68, 0.141, 0.268, 0
2719618, -0.772, -1.342, 1.947, 0.627, 0.361, 0.281, 0
2719638, 0.186, -1.274, 2.477, 0.637, 0.27, 0.331, 0
2719658, 0.761, -1.13, 2.441, 0.651, -0.065, 0.315, 0
2719678, 0.029, -0.836, 1.671, 0.67, -0.084, 0.243, 0
2719698, -0.606, -0.71, 1.203, 0.695, 0.114, 0.203, 0
2719718, -0.718, -0.91, 1.126, 0.629, 0.342, 0.21, 0
2719738, -0.215, -0.63, 1.452, 0.723, 0.281, 0.287, 0
2719758, 0.102, -0.8, 1.106, 0.736, 0.148, 0.343, 0
2719778, 0.75, -1.374, 0.949, 0.547, -0.017, 0.206, 0
2719798, 0.317, -1.288, 0.286, 0.396, -0.076, 0.044, 0
2719818, -0.731, -0.713, -0.3, 0.598, -0.075, -0.004, 0
2719838, -0.595, -0.306, -0.382, 0.901, -0.197, 0.139, 0
2719858, -0.457, -0.915, -0.948, 0.857, -0.163, 0.135, 0
2719878, -0.98, -1.005, -2.056, 0.588, 0.017, 0.061, 0
2719898, -1.095, -0.708, -2.654, 0.367, 0.106, 0.169, 0
2719918, 0.02, -0.049, -1.986, 0.516, -0.277, 0.178, 0
2719938, 0.196, -0.354, -2.162, 0.628, -0.586, 0.201, 0
2719958, -0.593, -0.622, -3.044, 0.472, -0.357, 0.158, 0
2719978, -0.491, -0.567, -3.27, 0.233, -0.044, 0.198, 0
2719998, 0.17, -0.302, -2.779, 0.13, 0.025, 0.232, 0
2720018, 0.831, -0.041, -1.807, 0.337, -0.27, 0.27, 0
2720038, 0.891, -0.392, -1.937, 0.497, -0.578, 0.192, 0
2720058, -0.488, -0.47, -2.924, 0.425, -0.519, 0.334, 0
2720078, -1.089, -0.278, -2.992, 0.34, 0.102, 0.448, 0
2720098, 0.761, -0.577, -2.49, 0.446, 0.16, 0.523, 0
2720118, 1.228, -1.118, -2.254, 0.501, -0.145, 0.492, 0
2720138, 0.67, -1.313, -2.299, 0.34, -0.394, 0.331, 0
2720158, 0.024, -0.698, -2.535, 0.149, -0.338, 0.169, 0
2720178, -0.081, -0.276, -2.524, 0.171, -0.212, 0.174, 0
2720198, 0.053, -0.545, -2.384, 0.249, -0.1, 0.216, 0
2720218, 0.374, -0.884, -2.214, 0.186, -0.01, 0.144, 0
2720238, 0.241, -0.622, -2.012, 0.021, 0.029, 0.043, 0
2720258, 0.076, -0.448, -1.837, -0.049, 0.004, 0.005, 0
2720278, -0.075, -0.272, -1.707, -0.067, -0.016, -0.001, 0
2720298, -0.207, -0.414, -1.781, -0.084, 0.009, 0.042, 0
2720318, -0.269, -0.673, -2.048, -0.181, 0.155, 0.008, 0
2720338, -0.065, -0.562, -1.99, -0.336, 0.302, 0.008, 0
2720358, 0.196, -0.561, -1.727, -0.419, 0.306, -0.01, 0
2720378, 0.244, -0.481, -1.733, -0.455, 0.213, -0.025, 0
2720398, 0.16, -0.633, -2.207, -0.409, 0.129, -0.029, 1
2720418, -0.121, -0.753, -2.695, -0.441, 0.156, -0.017, 1
2720438, 0.255, -0.699, -2.781, -0.528, 0.229, 0.091, 1
2720458, 0.552, -0.873, -2.518, -0.536, 0.235, 0.229, 1
2720478, 0.664, -1.069, -2.61, -0.34, 0.147, 0.265, 1
2720498, 0.083, -1.843, -3.528, -0.244, 0.079, 0.167, 1
2720518, -0.404, -2.103, -3.758, -0.529, 0.331, -0.045, 1
2720538, 0.073, -1.618, -3.319, -0.828, 0.64, -0.187, 1
2720558, 0.543, -1.072, -2.88, -0.872, 0.516, -0.273, 1
2720578, 0.188, -0.911, -2.713, -0.689, 0.197, -0.21, 1
2720598, -0.465, -0.873, -2.657, -0.502, 0.141, -0.069, 1
2720618, -0.805, -1.532, -2.571, -0.587, 0.422, -0.057, 1
2720638, -0.614, -1.862, -2.318, -0.963, 0.753, -0.261, 1
2720658, -0.184, -1.738, -1.682, -1.239, 0.714, -0.313, 1
2720678, 0.098, -1.28, -0.885, -1.287, 0.367, -0.294, 1
2720698, -0.519, -1.017, -0.18, -1.176, 0.207, -0.175, 1
2720718, -0.562, -0.945, 0.275, -1.01, 0.172, -0.122, 1
2720738, -0.815, -0.89, 0.531, -0.955, 0.256, -0.082, 1
2720758, -0.594, -0.962, 0.828, -0.977, 0.353, -0.029, 1
2720778, -0.08, -1.038, 1.289, -0.984, 0.177, -0.042, 1
2720798, 0.024, -0.98, 1.832, -0.937, -0.048, -0.004, 1
2720818, -0.09, -0.814, 2.161, -0.84, -0.165, 0.003, 1
2720838, -0.34, -0.791, 2.078, -0.781, -0.094, -0.005, 1
2720858, -0.318, -0.919, 1.842, -0.849, 0.106, -0.074, 1
2720878, 0.12, -1.283, 1.577, -1.014, 0.235, -0.122, 1
2720898, 0.434, -1.207, 1.867, -1.139, 0.167, -0.221, 1
2720918, 0.465, -0.84, 2.207, -1.116, -0.069, -0.259, 1
2720938, -0.327, -0.277, 2.237, -0.957, -0.168, -0.185, 1
2720958, -0.439, -0.229, 1.944, -0.839, -0.092, -0.152, 1
2720978, -0.54, -0.449, 1.559, -0.795, 0.092, -0.144, 1
2720998, -0.448, -0.425, 1.482, -0.766, 0.237, -0.196, 1
2721018, -0.228, -0.479, 1.543, -0.696, 0.244, -0.201, 1
2721038, -0.152, -0.408, 1.571, -0.662, 0.086, -0.105, 1
2721058, -0.616, -0.288, 1.717, -0.779, 0.043, -0.111, 1
2721078, -0.99, 0.288, 1.869, -0.882, 0.293, -0.141, 1
2721098, -0.783, 0.391, 2.46, -0.916, 0.546, -0.133, 1
2721118, -0.242, 0.62, 3.153, -0.745, 0.498, -0.128, 1
2721138, -0.314, 0.486, 3.082, -0.415, 0.155, -0.003, 1
2721158, -0.604, 0.1, 2.53, -0.2, -0.015, 0.085, 1
2721178, -0.254, -0.223, 2.176, -0.158, 0.006, 0.072, 1
2721198, -0.289, -0.282, 1.929, -0.177, 0.023, 0.036, 1
2721218, -0.303, -0.294, 1.723, -0.13, 0.017, 0.043, 1
2721238, -0.275, -0.366, 1.507, 0.0, -0.042, 0.05, 1
2721258, -0.405, -0.371, 1.123, 0.142, -0.13, 0.057, 1
2721278, -0.318, -0.621, 0.783, 0.146, -0.116, 0.062, 1
2721298, -0.396, -0.561, 0.681, 0.067, -0.003, 0.05, 1
2721318, -0.262, -0.479, 0.972, 0.006, 0.07, 0.043, 1
2721338, -0.029, -0.336, 1.615, 0.057, -0.076, 0.087, 1
2721358, 0.161, -0.325, 1.721, 0.298, -0.31, 0.164, 0
2721378, -0.393, -0.588, 1.842, 0.522, -0.263, 0.109, 0
2721398, -0.599, -0.574, 2.158, 0.552, 0.004, 0.09, 0
2721418, 0.233, -0.462, 2.643, 0.53, 0.102, 0.087, 0
2721438, -0.059, -0.304, 2.675, 0.492, -0.087, 0.109, 0
2721458, -0.428, -0.392, 2.426, 0.518, -0.111, 0.108, 0
2721478, 0.059, -0.695, 2.886, 0.512, -0.002, 0.045, 0
2721498, 0.305, -0.937, 3.287, 0.504, -0.048, -0.026, 0
2721518, -0.695, -0.755, 2.775, 0.627, -0.12, -0.059, 0
2721538, -0.777, -0.609, 2.179, 0.83, 0.087, 0.001, 0
2721558, -0.345, -0.749, 2.11, 0.89, 0.1, 0.006, 0
2721578, -0.392, -0.59, 1.635, 1.006, -0.114, 0.028, 0
2721598, -0.843, -0.873, 1.144, 1.034, -0.246, 0.138, 0
2721618, -0.508, -1.096, 1.179, 0.943, -0.214, 0.127, 0
2721638, -0.109, -1.038, 0.946, 0.775, -0.141, 0.072, 0
2721658, -0.365, -0.591, 0.352, 0.764, -0.185, -0.018, 0
2721678, -0.973, -0.543, -0.228, 0.905, -0.324, 0.098, 0
2721698, -0.338, -1.189, -0.547, 0.868, -0.344, 0.101, 0
2721718, -0.092, -1.213, -0.631, 0.797, -0.237, -0.058, 0
2721738, -0.793, -0.868, -1.409, 0.769, -0.18, -0.039, 0
2721758, -0.718, 0.006, -1.104, 0.912, -0.349, 0.0, 0
2721778, -0.483, 0.052, -0.8, 1.16, -0.552, 0.13, 0
2721798, 0.01, -0.985, -1.363, 1.048, -0.524, 0.053, 0
2721818, -0.002, -0.961, -1.844, 0.788, -0.522, -0.069, 0
2721838, -0.527, -0.337, -1.961, 0.654, -0.557, -0.037, 0
2721858, -0.439, 0.196, -1.119, 0.768, -0.579, 0.003, 0
2721878, -0.157, 0.411, -1.041, 0.981, -0.724, 0.097, 0
2721898, -0.745, -0.023, -2.045, 0.951, -0.667, 0.158, 0
2721918, -1.168, -0.435, -2.763, 0.75, -0.287, 0.277, 0
2721938, -0.206, -0.594, -2.574, 0.546, -0.194, 0.287, 0
2721958, 0.69, -0.414, -1.784, 0.566, -0.518, 0.244, 0
2721978, 0.155, -0.561, -2.078, 0.585, -0.702, 0.204, 0
2721998, -0.709, -0.407, -2.753, 0.502, -0.456, 0.233, 0
2722018, -1.176, -0.356, -3.221, 0.413, 0.007, 0.434, 0
2722038, 0.577, -0.412, -2.006, 0.515, 0.213, 0.507, 0
2722058, 0.649, -0.679, -1.804, 0.631, 0.018, 0.496, 0
2722078, 0.084, -0.77, -2.248, 0.636, -0.181, 0.423, 0
2722098, -0.762, -0.763, -2.556, 0.463, -0.111, 0.39, 0
2722118, -0.458, -0.408, -1.977, 0.343, 0.091, 0.438, 0
2722138, -0.079, -0.538, -1.552, 0.439, 0.262, 0.459, 0
2722158, 0.262, -0.817, -1.476, 0.534, 0.324, 0.433, 0
2722178, 0.233, -1.055, -1.943, 0.428, 0.274, 0.309, 0
2722198, 0.099, -1.006, -2.227, 0.125, 0.203, 0.185, 0
2722218, 0.246, -0.71, -1.846, -0.174, 0.01, 0.097, 0
2722238, -0.078, -0.431, -1.576, -0.254, -0.097, 0.042, 0
2722258, -0.367, -0.523, -1.793, -0.16, 0.014, 0.057, 0
2722278, -0.133, -0.829, -2.09, -0.108, 0.23, 0.081, 0
2722298, -0.046, -1.058, -2.585, -0.177, 0.309, 0.087, 0
2722318, -0.104, -1.145, -2.634, -0.367, 0.358, 0.089, 1
2722338, -0.388, -0.959, -2.342, -0.532, 0.527, 0.104, 1
2722358, -0.104, -1.155, -2.47, -0.579, 0.63, 0.094, 1
2722378, 0.011, -1.147, -2.702, -0.54, 0.6, -0.001, 1
2722398, -0.094, -1.368, -3.187, -0.557, 0.508, -0.035, 1
2722418, -0.252, -1.386, -3.328, -0.66, 0.575, -0.083, 1
2722438, -0.229, -1.472, -3.402, -0.791, 0.729, -0.2, 1
2722458, -0.06, -1.331, -3.197, -0.902, 0.794, -0.241, 1
2722478, 0.017, -1.123, -2.784, -0.947, 0.676, -0.302, 1
2722498, -0.269, -0.968, -2.269, -0.933, 0.524, -0.312, 1
2722518, -0.141, -0.861, -2.031, -0.75, 0.268, -0.129, 1
2722538, -0.123, -1.08, -2.003, -0.657, 0.083, -0.007, 1
2722558, -0.138, -1.461, -1.812, -0.63, 0.026, 0.08, 1
2722578, -0.342, -1.609, -1.363, -0.732, 0.145, 0.026, 1
2722598, -0.146, -1.193, -0.766, -0.779, 0.147, 0.019, 1
2722618, -0.267, -1.175, -0.352, -0.798, 0.03, 0.145, 1
2722638, -0.416, -1.056, 0.013, -0.826, 0.043, 0.274, 1
2722658, 0.05, -1.162, 0.257, -0.85, 0.058, 0.243, 1
2722678, 0.227, -1.487, 0.222, -1.006, 0.062, 0.123, 1
2722698, 0.096, -1.644, 0.273, -1.252, 0.141, 0.025, 1
2722718, -0.056, -1.362, 0.775, -1.414, 0.265, -0.068, 1
2722738, -0.079, -0.957, 1.331, -1.386, 0.285, -0.097, 1
2722758, 0.049, -0.648, 1.682, -1.257, 0.264, -0.033, 1
2722778, 0.005, -0.725, 1.703, -1.177, 0.319, -0.048, 1
2722798, 0.069, -0.825, 1.621, -1.228, 0.425, -0.131, 1
2722818, -0.287, -0.702, 1.547, -1.309, 0.53, -0.196, 1
2722838, -0.289, -0.36, 1.957, -1.288, 0.516, -0.181, 1
2722858, 0.1, -0.415, 2.293, -1.239, 0.333, -0.135, 1
2722878, 0.043, -0.374, 2.341, -1.178, 0.199, -0.1, 1
2722898, -0.356, -0.273, 2.145, -1.169, 0.313, -0.11, 1
2722918, -0.401, -0.171, 2.094, -1.156, 0.464, -0.183, 1
2722938, -0.309, 0.034, 2.346, -1.047, 0.428, -0.196, 1
2722958, -0.315, 0.023, 2.392, -0.903, 0.246, -0.144, 1
2722978, -0.363, -0.026, 2.419, -0.791, 0.142, -0.098, 1
2722998, -0.509, -0.284, 2.312, -0.736, 0.15, -0.07, 1
2723018, -0.551, 0.34, 2.539, -0.598, 0.292, -0.054, 1
2723038, -0.803, 0.243, 2.686, -0.398, 0.263, -0.04, 1
2723058, -0.592, -0.052, 2.707, -0.208, 0.194, 0.026, 1
2723078, -0.512, -0.26, 2.437, -0.111, 0.122, 0.04, 1
2723098, -0.527, -0.263, 2.138, -0.125, 0.206, 0.042, 1
2723118, -0.387, -0.479, 2.238, -0.109, 0.282, 0.029, 1
2723138, -0.314, -0.486, 2.229, -0.044, 0.149, 0.02, 1
2723158, -0.49, -0.481, 2.098, 0.099, -0.041, 0.02, 1
2723178, -0.484, -0.445, 1.728, 0.237, -0.081, -0.014, 1
2723198, -0.585, -0.606, 1.266, 0.215, 0.006, -0.075, 1
2723218, -0.699, -0.471, 1.412, 0.11, 0.126, -0.097, 1
2723238, -0.429, -0.356, 1.913, 0.203, 0.026, -0.019, 1
2723258, -0.484, -0.532, 1.777, 0.401, -0.417, 0.169, 1
2723278, -0.773, -0.854, 1.357, 0.395, -0.495, 0.251, 0
2723298, -0.713, -0.614, 1.496, 0.359, -0.076, 0.204, 0
2723318, -0.393, -0.65, 1.983, 0.299, 0.054, 0.161, 0
2723338, -0.778, -0.19, 2.677, 0.31, -0.012, 0.175, 0
2723358, -0.77, -0.008, 2.856, 0.532, 0.088, 0.259, 0
2723378, -0.092, -0.426, 2.431, 0.709, 0.295, 0.265, 0
2723398, 0.191, -0.618, 2.285, 0.641, 0.328, 0.227, 0
2723418, 0.012, -0.636, 2.074, 0.51, 0.154, 0.177, 0
2723438, -0.615, -0.497, 1.918, 0.55, -0.099, 0.209, 0
2723458, -0.717, -0.546, 1.944, 0.684, -0.059, 0.26, 0
2723478, -0.274, -0.744, 1.566, 0.78, 0.163, 0.243, 0
2723498, -0.473, -0.54, 0.755, 0.814, 0.023, 0.254, 0
2723518, -0.449, -0.343, 0.565, 0.905, -0.194, 0.334, 0
2723538, -0.944, -0.866, 0.024, 0.921, -0.095, 0.324, 0
2723558, -0.714, -1.172, -0.648, 0.832, 0.069, 0.343, 0
2723578, -0.124, -1.141, -1.409, 0.631, -0.036, 0.279, 0
2723598, -0.283, -0.742, -1.666, 0.419, -0.188, 0.232, 0
2723618, -0.458, -0.487, -1.163, 0.365, -0.24, 0.26, 0
2723638, -0.787, -0.392, -1.179, 0.565, -0.152, 0.342, 0
2723658, -0.214, -0.596, -1.467, 0.722, -0.127, 0.452, 0
2723678, 0.467, -0.759, -1.708, 0.758, -0.108, 0.373, 0
2723698, 1.134, -1.602, -2.134, 0.467, -0.213, 0.196, 0
2723718, 1.372, -1.217, -1.871, 0.146, -0.497, -0.084, 0
2723738, -0.364, 0.344, -1.959, 0.258, -0.563, -0.049, 0
2723758, -0.713, 0.852, -1.821, 0.541, -0.298, 0.133, 0
2723778, 0.192, -0.148, -1.981, 0.51, -0.202, 0.141, 0
2723798, 0.545, -0.54, -2.662, 0.232, -0.418, -0.008, 0
2723818, -0.098, -0.134, -2.789, -0.033, -0.656, -0.067, 0
2723838, -1.176, 0.616, -2.15, 0.019, -0.499, 0.053, 0
2723858, -0.82, 0.519, -1.164, 0.278, -0.296, 0.276, 0
2723878, 0.201, -0.282, -0.846, 0.423, -0.317, 0.314, 0
2723898, 0.552, -0.934, -1.698, 0.264, -0.444, 0.15, 0
2723918, 0.026, -0.658, -1.995, 0.065, -0.427, 0.103, 0
2723938, -0.072, -0.37, -1.549, 0.046, -0.295, 0.128, 0
2723958, 0.329, -0.015, -0.993, 0.288, -0.307, 0.186, 0
2723978, -0.096, -0.176, -1.194, 0.419, -0.155, 0.261, 0
2723998, 0.334, -0.815, -1.553, 0.144, -0.109, 0.129, 0
2724018, 0.179, -0.093, -1.55, 0.091, -0.102, 0.042, 0
2724038, -0.119, -0.066, -1.786, 0.165, -0.07, 0.125, 0
2724058, 0.214, -0.363, -1.788, 0.189, 0.029, 0.172, 0
2724078, 0.251, -0.482, -1.853, 0.125, 0.144, 0.167, 0
2724098, 0.334, -0.501, -1.931, 0.003, 0.188, 0.103, 0
2724118, 0.022, -0.563, -2.208, -0.08, 0.186, 0.072, 0
2724138, 0.141, -0.533, -2.058, -0.153, 0.235, 0.066, 0
2724158, 0.19, -0.568, -1.982, -0.218, 0.266, 0.02, 0
2724178, 0.026, -0.581, -2.04, -0.322, 0.256, 0.003, 1
2724198, -0.211, -0.599, -2.368, -0.404, 0.276, 0.005, 1
2724218, 0.094, -0.735, -2.612, -0.481, 0.248, 0.037, 1
2724238, 0.134, -0.814, -2.373, -0.533, 0.243, -0.029, 1
2724258, 0.206, -0.702, -2.282, -0.46, 0.241, -0.062, 1
2724278, 0.218, -0.646, -2.548, -0.334, 0.119, -0.071, 1
2724298, -0.107, -0.777, -2.949, -0.209, -0.024, -0.043, 1
2724318, -0.663, -1.388, -3.677, -0.301, 0.062, -0.098, 1
2724338, -0.695, -1.15, -3.307, -0.579, 0.45, -0.215, 1
2724358, -0.203, -0.805, -2.838, -0.663, 0.635, -0.196, 1
2724378, 0.185, -0.926, -2.67, -0.696, 0.542, -0.151, 1
2724398, 0.075, -1.104, -2.357, -0.76, 0.32, -0.081, 1
2724418, -0.094, -1.058, -1.902, -0.831, 0.265, -0.114, 1
2724438, -0.136, -1.119, -1.677, -0.835, 0.385, -0.137, 1
2724458, 0.095, -1.287, -1.555, -0.799, 0.394, -0.204, 1
2724478, -0.436, -1.005, -0.853, -0.831, 0.224, -0.156, 1
2724498, 0.121, -0.792, -0.311, -0.907, 0.002, -0.062, 1
2724518, 0.134, -0.912, -0.274, -0.959, -0.202, -0.042, 1
2724538, -0.64, -1.048, -0.508, -1.036, 0.006, -0.071, 1
2724558, -0.753, -1.113, -0.151, -1.144, 0.379, -0.043, 1
2724578, 0.03, -1.053, 0.496, -1.139, 0.436, -0.041, 1
2724598, 0.315, -1.041, 0.987, -1.096, 0.226, 0.008, 1
2724618, 0.275, -1.195, 1.176, -1.064, 0.062, 0.051, 1
2724638, 0.363, -1.275, 1.292, -1.065, 0.087, 0.003, 1
2724658, 0.303, -1.246, 1.415, -1.101, 0.141, -0.098, 1
2724678, 0.432, -1.097, 1.544, -1.09, 0.111, -0.153, 1
2724698, -0.121, -0.765, 1.762, -1.02, 0.123, -0.155, 1
2724718, -0.195, -0.597, 1.92, -0.91, 0.124, -0.136, 1
2724738, -0.284, -0.616, 2.03, -0.877, 0.112, -0.121, 1
2724758, -0.358, -0.462, 2.226, -0.918, 0.152, -0.153, 1
2724778, -0.482, -0.373, 2.319, -0.943, 0.175, -0.207, 1
2724798, -0.406, -0.118, 2.475, -0.868, 0.085, -0.204, 1
2724818, -0.634, -0.052, 2.492, -0.72, 0.007, -0.154, 1
2724838, -0.667, 0.181, 2.544, -0.583, -0.003, -0.08, 1
2724858, -0.527, -0.075, 2.311, -0.502, 0.023, -0.051, 1
2724878, -0.552, -0.266, 2.099, -0.497, 0.103, -0.054, 1
2724898, -0.591, -0.192, 2.0, -0.503, 0.153, -0.047, 1
2724918, -0.301, -0.281, 2.117, -0.42, 0.019, 0.028, 1
2724938, -0.226, -0.292, 2.256, -0.339, -0.116, 0.057, 1
2724958, -0.395, -0.338, 2.234, -0.228, 0.044, 0.029, 1
2724978, -0.079, -0.203, 2.321, -0.147, 0.155, 0.004, 1
2724998, -0.165, -0.221, 2.39, -0.052, 0.19, 0.018, 1
2725018, -0.252, -0.298, 2.437, 0.061, 0.068, 0.048, 1
2725038, -0.301, -0.503, 2.223, 0.167, -0.107, 0.105, 1
2725058, -0.371, -0.531, 1.979, 0.172, -0.205, 0.191, 1
2725078, -0.236, -0.703, 1.672, 0.137, -0.145, 0.138, 1
2725098, -0.734, -0.739, 1.53, 0.075, -0.076, 0.055, 1
2725118, -0.68, -0.639, 1.784, 0.1, 0.08, 0.07, 1
2725138, -0.383, -0.791, 2.531, 0.188, 0.036, 0.208, 0
2725158, -0.674, -0.524, 2.644, 0.272, -0.105, 0.284, 0
2725178, -0.251, -0.8, 2.788, 0.397, -0.103, 0.309, 0
2725198, -0.367, -0.582, 2.996, 0.494, 0.036, 0.27, 0
2725218, -0.404, -0.781, 3.166, 0.682, 0.171, 0.206, 0
2725238, -0.718, -1.259, 2.696, 0.744, 0.315, 0.222, 0
2725258, -0.048, -1.779, 2.54, 0.581, 0.461, 0.259, 0
2725278, 0.425, -1.335, 2.895, 0.432, 0.329, 0.184, 0
2725298, 0.073, -0.49, 2.548, 0.805, -0.064, 0.185, 0
2725318, -0.328, -0.867, 1.252, 1.167, -0.165, 0.282, 0
2725338, -0.193, -1.43, 0.145, 1.175, 0.049, 0.266, 0
2725358, 0.056, -1.107, -0.28, 1.001, 0.178, 0.189, 0
2725378, 0.205, -0.172, 0.086, 1.014, 0.113, 0.222, 0
2725398, 0.422, -0.41, -0.119, 1.274, -0.115, 0.288, 0
2725418, -0.162, -0.124, -1.238, 1.287, -0.318, 0.233, 0
2725438, -0.679, 0.0, -1.99, 1.122, -0.36, 0.232, 0
2725458, -0.56, -0.419, -2.302, 0.672, -0.163, 0.102, 0
2725478, -0.104, -0.372, -2.343, 0.5, -0.214, -0.025, 0
2725498, -0.11, 0.11, -2.241, 0.647, -0.475, 0.032, 0
2725518, -0.461, -0.293, -2.668, 0.643, -0.431, 0.044, 0
2725538, -0.508, -0.735, -3.005, 0.415, 0.017, -0.04, 0
2725558, -0.285, -0.79, -3.148, 0.085, 0.275, -0.11, 0
2725578, 0.172, -0.108, -2.122, 0.028, -0.048, -0.058, 0
2725598, 0.075, 0.331, -1.118, 0.262, -0.432, 0.037, 0
2725618, -0.417, 0.139, -1.207, 0.444, -0.321, 0.146, 0
2725638, -0.339, -0.482, -1.877, 0.324, -0.092, 0.145, 0
2725658, -0.158, -0.471, -2.048, 0.149, -0.026, 0.121, 0
2725678, 0.33, -0.239, -1.415, 0.164, -0.259, 0.156, 0
2725698, 0.344, -0.038, -0.693, 0.396, -0.459, 0.21, 0
2725718, 0.277, -0.449, -0.726, 0.596, -0.434, 0.288, 0
2725738, 0.379, -1.187, -1.399, 0.533, -0.279, 0.19, 0
2725758, 0.455, -1.086, -1.985, 0.335, -0.252, 0.122, 0
2725778, 0.295, -0.665, -1.962, 0.205, -0.366, 0.072, 0
2725798, -0.133, -0.173, -1.547, 0.243, -0.334, 0.12, 0
2725818, -0.503, -0.061, -1.575, 0.367, -0.114, 0.24, 0
2725838, -0.154, -0.404, -1.93, 0.379, 0.109, 0.315, 0
2725858, 0.581, -0.753, -2.157, 0.247, 0.137, 0.237, 0
2725878, 0.926, -0.469, -1.988, 0.159, -0.065, 0.122, 0
2725898, 0.369, -0.439, -2.13, 0.119, -0.143, 0.068, 0
2725918, -0.054, -0.333, -2.358, 0.061, -0.021, 0.039, 0
2725938, -0.36, -0.388, -2.433, -0.132, 0.249, 0.056, 0
2725958, 0.263, -0.439, -1.803, -0.244, 0.227, 0.023, 0
2725978, 0.119, -0.293, -1.73, -0.3, 0.041, -0.042, 0
2725998, -0.087, -0.469, -2.268, -0.291, -0.001, -0.06, 1
2726018, -0.182, -0.672, -2.668, -0.266, 0.072, -0.018, 1
2726038, -0.212, -0.816, -3.337, -0.392, 0.18, -0.006, 1
2726058, 0.127, -0.757, -3.331, -0.529, 0.226, -0.006, 1
2726078, 0.06, -0.809, -3.307, -0.546, 0.16, -0.001, 1
2726098, -0.073, -0.929, -3.588, -0.449, 0.18, 0.048, 1
2726118, -0.065, -1.209, -3.842, -0.397, 0.279, 0.055, 1
2726138, 0.522, -1.549, -3.831, -0.459, 0.375, -0.039, 1
2726158, 0.562, -1.561, -3.531, -0.6, 0.266, -0.102, 1
2726178, 0.234, -1.296, -3.161, -0.643, 0.139, -0.133, 1
2726198, -0.141, -1.544, -2.81, -0.588, 0.133, -0.078, 1
2726218, -0.089, -1.617, -2.353, -0.569, 0.17, 0.027, 1
2726238, -0.096, -1.727, -1.889, -0.503, 0.161, 0.037, 1
2726258, -0.042, -1.903, -1.406, -0.498, 0.171, 0.08, 1
2726278, 0.429, -2.132, -0.855, -0.499, 0.09, 0.07, 1
2726298, 0.159, -2.109, -0.416, -0.573, -0.042, 0.034, 1
2726318, -0.054, -1.988, -0.01, -0.769, -0.034, 0.017, 1
2726338, -0.396, -1.512, 0.478, -0.955, 0.129, -0.069, 1
2726358, -0.316, -1.127, 0.895, -1.026, 0.308, -0.127, 1
2726378, -0.007, -1.04, 1.249, -0.996, 0.311, -0.135, 1
2726398, 0.186, -1.156, 1.505, -1.015, 0.192, -0.102, 1
2726418, 0.22, -1.249, 1.628, -1.24, 0.096, -0.146, 1
2726438, -0.17, -1.085, 1.78, -1.345, 0.127, -0.186, 1
2726458, 0.05, -0.904, 2.111, -1.335, 0.185, -0.195, 1
2726478, -0.039, -0.6, 2.269, -1.246, 0.237, -0.207, 1
2726498, -0.077, -0.25, 2.339, -1.13, 0.296, -0.237, 1
2726518, -0.444, -0.088, 2.273, -0.955, 0.328, -0.24, 1
2726538, -0.282, -0.312, 2.109, -0.847, 0.24, -0.19, 1
2726558, -0.188, -0.34, 1.854, -0.87, 0.161, -0.199, 1
2726578, -0.364, -0.196, 1.801, -0.932, 0.225, -0.189, 1
2726598, -0.252, -0.167, 1.808, -0.912, 0.246, -0.164, 1
2726618, -0.293, -0.339, 1.701, -0.891, 0.158, -0.124, 1
2726638, -0.308, -0.218, 1.783, -0.85, 0.029, -0.09, 1
2726658, -0.369, -0.118, 1.761, -0.794, 0.02, -0.089, 1
2726678, -0.634, -0.14, 1.644, -0.712, 0.152, -0.058, 1
2726698, -0.501, -0.037, 1.517, -0.614, 0.282, -0.042, 1
2726718, -0.478, -0.148, 1.577, -0.527, 0.317, -0.029, 1
2726738, -0.142, -0.228, 1.863, -0.421, 0.191, 0.007, 1
2726758, -0.338, -0.32, 1.825, -0.383, 0.117, 0.068, 1
2726778, -0.29, -0.419, 1.699, -0.385, 0.186, 0.066, 1
2726798, -0.287, -0.455, 1.917, -0.377, 0.335, 0.031, 1
2726818, -0.194, -0.52, 2.247, -0.288, 0.341, 0.062, 1
2726838, 0.022, -0.425, 2.497, -0.127, 0.243, 0.093, 1
2726858, -0.114, -0.493, 2.475, 0.023, 0.078, 0.143, 1
2726878, -0.114, -0.624, 2.436, 0.102, -0.031, 0.165, 1
2726898, -0.25, -0.77, 2.266, 0.092, -0.04, 0.141, 1
2726918, -0.315, -0.85, 2.153, 0.028, -0.047, 0.127, 1
2726938, -0.363, -0.667, 2.831, 0.176, -0.028, 0.17, 1
2726958, -0.261, -0.583, 2.911, 0.34, -0.159, 0.257, 1
2726978, -0.669, -0.656, 2.589, 0.442, -0.309, 0.278, 1
2726998, -0.514, -1.129, 2.473, 0.425, -0.211, 0.154, 0
2727018, -0.699, -0.696, 3.493, 0.479, 0.023, 0.12, 0
2727038, -0.77, -0.868, 4.177, 0.631, 0.029, 0.226, 0
2727058, -0.459, -1.266, 4.219, 0.786, 0.073, 0.263, 0
2727078, -0.502, -1.352, 4.184, 0.896, 0.037, 0.219, 0
2727098, -0.861, -1.105, 3.554, 1.007, 0.042, 0.235, 0
2727118, -1.031, -1.232, 2.583, 1.067, 0.135, 0.255, 0
2727138, -0.687, -1.436, 2.182, 0.999, 0.285, 0.239, 0
2727158, -0.559, -1.003, 1.862, 0.951, 0.238, 0.201, 0
2727178, -0.992, -0.812, 0.944, 1.09, 0.044, 0.226, 0
2727198, -0.837, -1.097, 0.129, 1.073, -0.074, 0.34, 0
2727218, -1.016, -1.059, -0.5, 0.793, -0.052, 0.27, 0
2727238, -1.21, -0.85, -1.219, 0.66, -0.007, 0.211, 0
2727258, -1.138, -0.82, -1.27, 0.831, 0.047, 0.292, 0
2727278, -0.389, -1.554, -1.572, 1.019, 0.152, 0.408, 0
2727298, 0.758, -1.812, -1.986, 0.847, -0.009, 0.354, 0
2727318, -0.432, -1.284, -3.081, 0.581, -0.39, 0.224, 0
2727338, -0.579, -0.473, -3.372, 0.544, -0.34, 0.189, 0
2727358, -0.452, -0.742, -3.059, 0.704, -0.065, 0.257, 0
2727378, 0.75, -1.183, -2.816, 0.665, 0.0, 0.315, 0
2727398, 0.34, -0.672, -2.961, 0.378, -0.497, 0.153, 0
2727418, -0.586, 0.061, -2.854, 0.403, -0.426, 0.188, 0
2727438, -0.896, -0.029, -2.484, 0.42, -0.144, 0.289, 0
2727458, -0.131, -0.53, -2.034, 0.444, 0.014, 0.346, 0
2727478, 0.991, -0.949, -2.083, 0.461, -0.187, 0.271, 0
2727498, 1.207, -0.918, -2.514, 0.461, -0.613, 0.155, 0
2727518, 0.105, -0.877, -3.32, 0.359, -0.587, 0.067, 0
2727538, -0.398, -0.538, -3.589, 0.254, -0.258, 0.098, 0
2727558, -0.142, -0.331, -3.148, 0.21, -0.069, 0.153, 0
2727578, -0.143, -0.041, -2.406, 0.253, 0.013, 0.196, 0
2727598, -0.146, -0.115, -1.922, 0.268, 0.072, 0.231, 0
2727618, 0.478, -0.436, -1.438, 0.188, -0.078, 0.163, 0
2727638, 0.201, -0.417, -1.337, 0.068, -0.182, 0.065, 0
2727658, -0.245, -0.205, -1.508, 0.029, -0.105, 0.081, 0
2727678, 0.01, 0.022, -1.231, 0.148, -0.063, 0.111, 0
2727698, 0.294, -0.515, -1.101, 0.149, -0.114, 0.091, 0
2727718, 0.292, -0.643, -1.484, 0.043, -0.186, 0.0, 0
2727738, -0.06, -0.471, -1.99, -0.094, -0.127, -0.023, 0
2727758, -0.408, -0.177, -2.159, -0.145, 0.036, 0.016, 0
2727778, -0.045, -0.384, -1.906, -0.176, 0.106, 0.054, 0
2727798, 0.152, -0.541, -1.776, -0.178, 0.068, 0.038, 0
2727818, 0.248, -0.594, -2.057, -0.179, -0.014, -0.001, 0
2727838, 0.06, -0.803, -2.731, -0.259, -0.029, -0.013, 0
2727858, -0.095, -0.626, -2.962, -0.346, 0.068, -0.016, 1
2727878, -0.523, -0.87, -3.589, -0.499, 0.3, -0.047, 1
2727898, 0.08, -0.941, -3.463, -0.661, 0.444, -0.081, 1
2727918, 0.591, -1.113, -3.565, -0.651, 0.35, -0.128, 1
2727938, 0.219, -1.038, -3.681, -0.668, 0.244, -0.155, 1
2727958, -0.175, -1.066, -3.524, -0.607, 0.24, -0.182, 1
2727978, 0.059, -1.095, -3.263, -0.56, 0.251, -0.078, 1
2727998, 0.063, -1.397, -2.771, -0.489, 0.203, 0.009, 1
2728018, 0.314, -1.482, -2.43, -0.381, 0.124, 0.05, 1
2728038, 0.111, -2.102, -2.549, -0.403, 0.117, 0.006, 1
2728058, -0.498, -2.165, -2.443, -0.629, 0.299, -0.109, 1
2728078, -0.1, -1.895, -1.62, -0.817, 0.464, -0.106, 1
2728098, 0.309, -1.597, -0.786, -0.926, 0.422, -0.054, 1
2728118, 0.2, -1.436, -0.489, -0.967, 0.237, -0.1, 1
2728138, 0.108, -1.242, -0.081, -0.952, 0.025, -0.095, 1
2728158, -0.216, -1.131, 0.399, -0.963, -0.077, -0.106, 1
2728178, -0.476, -0.82, 0.763, -0.961, -0.04, -0.082, 1
2728198, -0.528, -0.797, 0.966, -0.929, 0.064, -0.018, 1
2728218, -0.034, -0.96, 1.159, -0.877, 0.139, -0.028, 1
