timestamp, accX, accY, accZ, gyroX, gyroY, gyroZ, button
1293037, -0.009, 0.021, -0.028, -0.023, 0.051, 0.124, 1
1293057, 0.002, 0.033, -0.042, -0.021, 0.04, 0.125, 1
1293077, 0.004, 0.012, -0.013, -0.003, 0.051, 0.128, 1
1293097, -0.011, 0.039, 0.028, 0.02, 0.074, 0.134, 1
1293117, -0.074, 0.087, 0.121, 0.082, 0.133, 0.152, 1
1293137, -0.081, 0.113, 0.188, 0.189, 0.234, 0.196, 1
1293157, -0.077, 0.091, 0.129, 0.361, 0.375, 0.246, 1
1293177, 0.744, -0.771, -0.043, 0.432, 0.434, 0.189, 1
1293197, 1.098, -1.113, -0.175, 0.171, 0.135, 0.0, 1
1293217, 0.59, -0.539, -0.272, -0.071, -0.169, -0.214, 1
1293237, 0.086, -0.089, -0.337, -0.07, -0.223, -0.235, 1
1293257, -0.022, -0.005, -0.353, 0.016, -0.08, -0.169, 1
1293277, 0.193, -0.134, -0.401, 0.07, 0.023, -0.133, 1
1293297, 0.246, -0.266, -0.58, -0.056, -0.089, -0.2, 1
1293317, 0.082, -0.188, -0.659, -0.197, -0.143, -0.233, 1
1293337, -0.227, 0.131, -0.576, -0.219, -0.1, -0.161, 1
1293357, -0.431, 0.264, -0.402, -0.144, 0.042, -0.041, 1
1293377, -0.232, 0.06, -0.282, -0.102, 0.122, 0.028, 1
1293397, 0.098, -0.265, -0.213, -0.194, 0.05, 0.017, 1
1293417, 0.216, -0.341, -0.137, -0.324, -0.114, -0.037, 1
1293437, -0.006, -0.143, -0.103, -0.37, -0.186, -0.052, 1
1293457, -0.184, -0.096, -0.104, -0.345, -0.133, -0.016, 1
1293477, -0.014, -0.118, -0.046, -0.309, -0.109, 0.003, 1
1293497, 0.013, -0.116, -0.064, -0.26, -0.092, -0.008, 1
1293517, 0.036, -0.096, -0.027, -0.222, -0.08, -0.009, 1
1293537, 0.009, -0.09, -0.028, -0.185, -0.05, 0.012, 1
1293557, 0.106, -0.194, -0.093, -0.181, -0.064, 0.017, 1
1293577, 0.121, -0.154, -0.108, -0.205, -0.104, 0.007, 1
1293597, 0.062, -0.1, -0.16, -0.215, -0.111, -0.004, 1
1293617, 0.044, -0.049, -0.095, -0.212, -0.109, -0.004, 1
1293637, 0.0, -0.006, -0.159, -0.171, -0.083, 0.002, 1
1293657, -0.009, -0.049, -0.179, -0.145, -0.037, 0.025, 1
1293677, 0.022, -0.04, -0.145, -0.156, -0.01, 0.052, 1
1293697, 0.024, -0.03, -0.073, -0.154, -0.014, 0.079, 1
1293717, 0.028, -0.083, -0.115, -0.188, -0.034, 0.076, 1
1293737, 0.374, -0.276, -0.115, -0.305, -0.194, 0.029, 1
1293757, 0.454, -0.361, -0.148, -0.462, -0.39, -0.048, 1
1293777, 0.005, 0.043, -0.202, -0.389, -0.377, -0.031, 1
1293797, 0.712, -0.647, -0.405, -0.425, -0.312, -0.03, 1
1293817, 1.411, -1.202, -0.631, -0.868, -0.831, -0.078, 1
1293837, 0.458, -0.374, -0.793, -1.45, -1.541, 0.013, 1
1293857, -1.135, 0.906, -0.866, -1.566, -1.568, 0.263, 1
1293877, -1.28, 1.117, -0.756, -1.197, -0.923, 0.579, 1
1293897, -0.155, 0.325, -0.547, -0.857, -0.387, 0.704, 1
1293917, 0.113, 0.079, -0.265, -0.811, -0.344, 0.638, 1
1293937, -0.339, 0.421, -0.105, -0.71, -0.304, 0.491, 1
1293957, -0.503, 0.181, -0.159, -0.471, -0.043, 0.415, 1
1293977, -0.19, -0.012, -0.03, -0.3, 0.222, 0.37, 1
1293997, -0.014, -0.133, 0.161, -0.167, 0.35, 0.297, 1
1294017, -0.109, -0.199, 0.276, -0.074, 0.395, 0.23, 1
1294037, 0.154, -0.636, 0.304, -0.043, 0.403, 0.165, 1
1294057, 0.21, -0.652, 0.201, -0.142, 0.262, 0.009, 1
1294077, -0.09, -0.355, 0.195, -0.16, 0.167, -0.116, 1
1294097, -0.162, -0.26, 0.286, -0.092, 0.175, -0.135, 1
1294117, -0.075, -0.239, 0.379, -0.05, 0.188, -0.117, 1
1294137, 0.078, -0.291, 0.374, -0.019, 0.139, -0.163, 1
1294157, -0.015, -0.264, 0.25, -0.034, 0.017, -0.222, 1
1294177, -0.199, -0.038, 0.092, -0.046, -0.026, -0.248, 1
1294197, -0.159, 0.029, 0.16, 0.021, 0.017, -0.214, 1
1294217, -0.063, -0.029, 0.142, 0.103, 0.058, -0.174, 1
1294237, 0.186, -0.29, 0.01, 0.087, 0.026, -0.146, 1
1294257, 0.027, -0.043, -0.096, -0.045, -0.12, -0.142, 1
1294277, -0.236, 0.133, -0.197, -0.017, -0.056, -0.067, 1
1294297, -0.039, 0.016, -0.189, 0.027, 0.028, -0.024, 1
1294317, 0.05, -0.029, -0.195, 0.032, 0.031, -0.022, 1
1294337, 0.063, -0.089, -0.222, 0.011, 0.021, -0.025, 1
1294357, 0.007, -0.057, -0.269, -0.025, 0.01, -0.033, 1
1294377, -0.04, 0.0, -0.299, -0.028, 0.031, -0.023, 1
1294397, -0.045, 0.013, -0.203, -0.022, 0.058, 0.0, 1
1294417, 0.044, -0.072, -0.093, -0.04, 0.034, 0.0, 1
1294437, 0.012, -0.049, -0.102, -0.081, -0.02, -0.01, 1
1294457, -0.129, 0.1, -0.084, -0.042, 0.007, -0.003, 1
1294477, -0.024, -0.035, -0.162, -0.027, 0.02, 0.003, 1
1294497, -0.05, -0.016, -0.261, -0.026, 0.027, -0.001, 1
1294517, -0.107, 0.007, -0.194, -0.004, 0.083, 0.023, 1
1294537, 0.015, -0.102, -0.182, -0.026, 0.087, 0.047, 1
1294557, -0.003, -0.014, -0.073, -0.037, 0.063, 0.037, 1
1294577, -0.026, 0.002, -0.054, -0.022, 0.061, 0.046, 1
1294597, -0.005, -0.004, -0.044, -0.024, 0.04, 0.054, 1
1294617, -0.008, -0.025, -0.053, -0.026, 0.025, 0.059, 1
1294637, -0.029, 0.007, -0.054, -0.015, 0.042, 0.068, 1
1294657, -0.013, 0.017, -0.015, 0.024, 0.074, 0.085, 1
1294677, -0.015, 0.004, 0.045, 0.07, 0.098, 0.087, 1
1294697, -0.031, 0.042, 0.045, 0.137, 0.131, 0.091, 1
1294717, 0.105, -0.127, -0.06, 0.144, 0.113, 0.086, 1
1294737, 0.152, -0.279, -0.236, 0.039, 0.021, 0.053, 1
1294757, -0.028, 0.0, -0.324, 0.058, 0.057, 0.047, 1
1294777, -0.033, -0.039, -0.305, 0.091, 0.136, 0.074, 1
1294797, 0.131, -0.211, -0.296, 0.055, 0.132, 0.07, 1
1294817, 0.016, -0.084, -0.277, -0.055, 0.034, 0.036, 1
1294837, -0.177, 0.067, -0.237, -0.096, 0.021, 0.034, 1
1294857, -0.043, 0.003, -0.187, -0.07, 0.067, 0.062, 1
1294877, 0.017, -0.074, -0.188, -0.08, 0.045, 0.057, 1
1294897, -0.046, -0.029, -0.217, -0.105, 0.009, 0.046, 1
1294917, -0.046, -0.018, -0.227, -0.104, 0.022, 0.045, 1
1294937, -0.018, -0.046, -0.198, -0.106, 0.034, 0.048, 1
1294957, -0.016, -0.02, -0.13, -0.125, 0.019, 0.046, 1
1294977, -0.025, -0.002, -0.051, -0.121, 0.016, 0.052, 1
1294997, 0.017, -0.077, -0.07, -0.115, 0.015, 0.059, 1
1295017, 0.029, -0.052, -0.099, -0.14, -0.014, 0.058, 1
1295037, -0.005, -0.031, -0.129, -0.139, -0.033, 0.059, 1
1295057, 0.007, -0.078, -0.169, -0.136, -0.018, 0.069, 1
1295077, 0.002, -0.043, -0.178, -0.141, -0.015, 0.07, 1
1295097, -0.006, -0.053, -0.228, -0.134, -0.013, 0.058, 1
1295117, -0.011, -0.022, -0.218, -0.133, 0.006, 0.056, 1
1295137, -0.011, -0.011, -0.09, -0.12, 0.018, 0.063, 1
1295157, -0.098, 0.114, -0.062, -0.097, 0.004, 0.065, 1
1295177, -0.092, 0.134, -0.191, -0.079, -0.037, 0.073, 1
1295197, -0.167, 0.164, -0.401, -0.112, -0.1, 0.084, 1
1295217, -0.28, 0.238, -0.612, -0.145, -0.094, 0.127, 1
1295237, -0.282, 0.36, -0.706, -0.142, -0.071, 0.195, 1
1295257, -0.379, 0.367, -0.754, -0.203, -0.094, 0.262, 1
1295277, -0.346, 0.27, -0.686, -0.252, -0.097, 0.349, 1
1295297, -0.249, 0.118, -0.639, -0.28, -0.1, 0.417, 1
1295317, 0.013, -0.267, -0.787, -0.351, -0.148, 0.444, 1
1295337, 0.092, -0.594, -1.025, -0.463, -0.179, 0.441, 1
1295357, 0.023, -0.756, -0.988, -0.53, -0.079, 0.467, 1
1295377, 0.238, -0.829, -0.626, -0.558, 0.017, 0.491, 1
1295397, 0.566, -0.854, -0.341, -0.511, 0.0, 0.444, 1
1295417, 0.656, -1.155, -0.528, -0.502, -0.051, 0.368, 1
1295437, 0.533, -1.222, -0.736, -0.534, -0.025, 0.326, 1
1295457, 0.567, -1.348, -0.788, -0.588, -0.022, 0.304, 1
1295477, 0.118, -1.127, -0.612, -0.55, 0.139, 0.326, 1
1295497, 0.255, -1.176, -0.425, -0.519, 0.258, 0.326, 1
1295517, 0.326, -1.24, -0.308, -0.545, 0.281, 0.283, 1
1295537, 0.283, -1.092, -0.338, -0.515, 0.315, 0.236, 1
1295557, 0.116, -0.929, -0.406, -0.408, 0.358, 0.113, 1
1295577, -0.41, -0.491, -0.481, -0.252, 0.547, -0.015, 1
1295597, -0.313, -0.347, -0.291, -0.155, 0.638, 0.04, 1
1295617, -0.136, -0.356, -0.042, -0.177, 0.527, 0.148, 1
1295637, -0.271, -0.222, 0.173, -0.215, 0.443, 0.232, 1
1295657, -0.8, 0.074, 0.147, -0.171, 0.661, 0.296, 1
1295677, -1.315, 0.705, 0.092, 0.165, 1.175, 0.477, 1
1295697, -2.168, 2.105, 0.166, 1.09, 2.052, 0.765, 1
1295717, -3.577, 2.844, 0.32, 2.503, 3.636, 1.158, 1
1295737, -3.013, 2.917, 0.702, 4.491, 5.622, 1.572, 1
1295757, -1.729, 1.214, 2.634, 5.39, 6.636, 1.638, 1
1295777, -1.195, 1.408, 3.053, 5.907, 7.274, 1.604, 1
1295797, -2.702, 3.384, 3.1, 6.337, 7.574, 1.538, 1
1295817, -2.684, 3.088, 3.257, 7.036, 8.469, 1.723, 1
1295837, 1.092, 0.748, 2.734, 6.778, 8.713, 1.695, 1
1295857, 3.404, 0.351, 1.274, 5.274, 7.236, 0.824, 1
1295877, 0.968, 3.038, 0.213, 3.748, 5.274, -0.071, 1
1295897, -1.57, 4.605, 0.254, 3.66, 4.897, -0.369, 1
1295917, -0.421, 3.001, 0.495, 4.099, 5.302, -0.178, 1
1295937, 1.882, 0.377, 0.192, 3.707, 4.816, 0.001, 1
1295957, 2.523, -0.579, -0.004, 2.427, 3.403, -0.05, 1
1295977, 1.388, 0.267, 0.335, 1.15, 1.992, -0.131, 1
1295997, 0.349, 1.164, 0.718, 0.555, 1.208, -0.091, 1
1296017, 0.293, 1.256, 0.841, 0.519, 0.841, 0.018, 1
1296037, 0.782, 0.814, 0.608, 0.515, 0.505, 0.109, 1
1296057, 1.357, 0.61, 0.329, 0.299, 0.018, 0.124, 1
1296077, 1.555, 0.646, -0.086, -0.047, -0.639, 0.08, 1
1296097, 1.453, 0.965, -0.373, -0.439, -1.315, 0.021, 1
1296117, 1.383, 0.748, -0.324, -0.867, -1.899, 0.021, 1
1296137, 1.999, -0.132, -0.145, -1.6, -2.488, 0.031, 1
1296157, 2.506, -0.081, 0.389, -2.773, -3.304, -0.286, 1
1296177, 2.163, 0.598, 1.24, -4.008, -4.298, -0.71, 1
1296197, 1.551, 1.337, 2.373, -5.23, -5.304, -1.083, 1
1296217, 1.647, 1.002, 3.621, -6.816, -6.181, -1.519, 1
1296237, 1.829, 0.603, 4.998, -7.599, -7.465, -2.004, 1
1296257, 1.292, -0.471, 6.131, -7.837, -7.991, -2.547, 1
1296277, 1.069, -1.447, 6.905, -7.739, -8.363, -3.193, 1
1296297, -0.202, -0.874, 7.287, -7.147, -8.398, -3.71, 1
1296317, -2.809, 1.745, 6.288, -5.706, -7.522, -3.445, 1
1296337, -5.217, 4.457, 3.703, -3.502, -5.52, -2.214, 1
1296357, -5.239, 4.907, 1.574, -1.39, -3.218, -0.541, 1
1296377, -1.894, 2.124, 0.881, -0.236, -1.911, 0.121, 1
1296397, 1.49, -0.852, 0.829, -0.407, -2.134, -0.291, 1
1296417, 0.846, -0.458, 1.049, -0.898, -2.662, -0.557, 1
1296437, -2.157, 1.278, 0.985, -0.776, -2.003, -0.425, 1
1296457, -3.047, 1.983, 0.935, -0.357, -0.575, -0.034, 1
1296477, -0.998, 1.164, 1.16, -0.078, -0.028, 0.255, 1
1296497, 0.83, 0.123, 1.19, -0.117, -0.461, 0.103, 1
1296517, 0.516, 0.154, 0.629, -0.105, -0.974, -0.082, 1
1296537, -0.902, 0.756, 0.095, 0.185, -0.748, -0.063, 1
1296557, -1.162, 0.797, -0.021, 0.556, -0.183, 0.018, 1
1296577, -0.255, 0.024, -0.019, 0.59, 0.015, 0.049, 1
1296597, 0.301, -0.371, 0.169, 0.319, -0.21, -0.02, 1
1296617, 0.061, 0.239, 0.385, 0.26, -0.448, -0.09, 1
1296637, -0.361, 0.383, 0.092, 0.415, -0.503, -0.127, 1
1296657, -0.531, 0.014, -0.566, 0.373, -0.395, -0.069, 1
1296677, -0.499, -0.038, -0.586, 0.169, -0.255, 0.078, 1
1296697, 0.007, 0.075, -0.188, 0.067, -0.3, 0.133, 1
1296717, 0.177, 0.279, 0.223, 0.124, -0.546, 0.119, 1
1296737, -0.224, -0.001, -0.176, 0.198, -0.596, 0.104, 1
1296757, -0.101, -0.165, -0.371, 0.263, -0.503, 0.134, 1
1296777, 0.109, -0.253, -0.337, 0.295, -0.448, 0.13, 1
1296797, 0.085, -0.144, -0.336, 0.305, -0.486, 0.138, 1
1296817, -0.017, -0.074, -0.35, 0.344, -0.5, 0.163, 1
1296837, -0.023, -0.142, -0.451, 0.357, -0.411, 0.187, 1
1296857, 0.055, -0.138, -0.591, 0.336, -0.312, 0.215, 1
1296877, 0.196, -0.42, -0.79, 0.275, -0.285, 0.214, 1
1296897, 0.142, -0.281, -0.844, 0.136, -0.262, 0.188, 1
1296917, 0.057, 0.012, -0.614, 0.066, -0.18, 0.208, 1
1296937, 0.117, 0.096, -0.366, 0.063, -0.092, 0.255, 1
1296957, 0.045, 0.04, -0.322, 0.082, -0.09, 0.243, 1
1296977, -0.042, 0.037, -0.415, 0.075, -0.089, 0.238, 1
1296997, 0.003, 0.006, -0.448, 0.117, -0.061, 0.221, 1
1297017, -0.03, -0.06, -0.424, 0.097, -0.026, 0.215, 1
1297037, -0.023, 0.041, -0.266, 0.079, 0.007, 0.22, 1
1297057, 0.034, -0.015, -0.171, 0.103, -0.003, 0.215, 1
1297077, -0.026, -0.112, -0.296, 0.067, -0.043, 0.191, 1
1297097, -0.083, -0.031, -0.339, -0.01, -0.013, 0.204, 1
1297117, 0.07, -0.061, -0.234, -0.015, 0.022, 0.187, 1
1297137, -0.025, -0.041, -0.253, -0.044, -0.01, 0.153, 1
1297157, -0.08, 0.039, -0.23, -0.02, -0.006, 0.128, 1
1297177, -0.041, -0.121, -0.345, -0.015, 0.005, 0.107, 1
1297197, -0.155, 0.099, -0.263, -0.056, 0.051, 0.116, 1
1297217, -0.067, -0.022, -0.177, -0.064, 0.081, 0.121, 1
1297237, -0.062, 0.061, -0.092, -0.037, 0.093, 0.12, 1
1297257, -0.039, 0.025, -0.025, 0.055, 0.095, 0.092, 1
1297277, 0.053, -0.205, -0.136, 0.029, 0.039, 0.094, 1
1297297, -0.024, -0.209, -0.203, -0.086, -0.005, 0.114, 1
1297317, -0.174, 0.049, -0.161, -0.064, 0.055, 0.129, 1
1297337, -0.19, -0.144, -0.289, -0.06, 0.172, 0.149, 1
1297357, -0.014, -0.215, -0.252, -0.106, 0.198, 0.161, 1
1297377, -0.106, -0.08, -0.203, -0.182, 0.216, 0.205, 0
1297397, -0.107, -0.053, -0.307, -0.241, 0.331, 0.298, 0
1297417, 0.065, 0.141, 0.011, -0.164, 0.251, 0.266, 0
1297437, 0.071, 0.123, 0.16, -0.063, 0.124, 0.211, 0
1297457, 0.01, 0.036, 0.082, 0.009, 0.064, 0.162, 0
1297477, -0.042, -0.228, -0.227, -0.022, 0.076, 0.106, 0
1297497, -0.1, -0.299, -0.411, -0.134, 0.108, 0.09, 0
1297517, -0.097, -0.234, -0.448, -0.282, 0.143, 0.103, 0
1297537, -0.367, -0.415, -0.607, -0.52, 0.273, 0.125, 1
1297557, 0.319, 0.094, -0.389, -0.489, 0.285, 0.106, 1
1297577, -0.033, 0.516, 0.037, -0.194, 0.193, 0.084, 1
1297597, 0.029, 0.184, 0.219, 0.035, 0.054, 0.068, 1
1297617, -0.019, -0.187, -0.03, -0.006, -0.02, 0.081, 1
1297637, -0.034, -0.349, -0.107, -0.107, -0.078, 0.048, 1
1297657, -0.077, -0.045, -0.042, -0.097, -0.104, 0.025, 1
1297677, -0.093, 0.046, 0.028, 0.017, -0.092, 0.036, 1
1297697, -0.088, -0.136, -0.156, 0.003, -0.048, 0.057, 1
1297717, -0.12, -0.195, -0.205, -0.081, -0.009, 0.073, 1
1297737, -0.038, -0.057, -0.108, -0.087, 0.01, 0.081, 1
1297757, -0.002, -0.103, -0.104, -0.059, 0.012, 0.085, 1
1297777, -0.009, -0.082, -0.102, -0.053, 0.012, 0.078, 1
1297797, -0.026, -0.065, -0.149, -0.057, 0.017, 0.067, 1
1297817, -0.033, -0.066, -0.227, -0.092, 0.024, 0.063, 1
1297837, -0.008, 0.017, -0.216, -0.067, 0.028, 0.049, 1
1297857, -0.003, -0.138, -0.429, 0.047, 0.001, 0.029, 1
1297877, 0.022, -0.225, -0.543, 0.087, 0.018, -0.005, 1
1297897, 0.131, -0.149, -0.381, 0.075, 0.076, -0.021, 1
1297917, 0.275, -0.128, -0.376, 0.087, 0.072, -0.069, 1
1297937, 0.363, -0.165, -0.353, 0.127, 0.001, -0.167, 1
1297957, 0.403, -0.073, -0.194, 0.15, -0.132, -0.263, 1
1297977, 0.288, 0.009, -0.077, 0.205, -0.385, -0.308, 1
1297997, 0.092, -0.048, 0.011, 0.218, -0.655, -0.237, 1
1298017, -0.35, 0.072, 0.073, 0.176, -0.753, -0.219, 1
1298037, -0.59, -0.043, -0.16, 0.186, -0.595, -0.223, 1
1298057, -0.567, -0.293, -0.382, 0.111, -0.328, -0.204, 1
1298077, -0.298, -0.212, -0.334, -0.125, -0.1, -0.141, 1
1298097, -0.202, 0.106, 0.005, -0.244, 0.01, -0.102, 1
1298117, -0.198, 0.274, 0.251, -0.125, 0.145, -0.121, 1
1298137, -0.022, 0.026, 0.259, 0.043, 0.261, -0.141, 1
1298157, 0.095, -0.16, 0.16, 0.029, 0.265, -0.165, 1
1298177, -0.048, -0.154, 0.075, -0.245, 0.208, -0.164, 1
1298197, -0.251, 0.124, 0.195, -0.29, 0.283, -0.137, 1
1298217, -0.203, 0.195, 0.317, -0.23, 0.329, -0.135, 1
1298237, -0.153, 0.293, 0.476, -0.157, 0.26, -0.153, 1
1298257, -0.225, 0.38, 0.504, -0.079, 0.128, -0.153, 1
1298277, -0.367, 0.21, 0.36, -0.072, 0.065, -0.12, 1
1298297, -0.471, 0.103, 0.215, -0.143, 0.064, -0.07, 1
1298317, -0.452, 0.092, 0.04, -0.148, 0.083, -0.039, 1
1298337, -0.206, 0.032, -0.067, -0.102, 0.017, -0.003, 1
1298357, -0.128, -0.019, -0.273, -0.035, -0.05, -0.017, 1
1298377, -0.118, -0.008, -0.43, -0.014, -0.04, 0.017, 1
1298397, -0.11, 0.003, -0.497, -0.079, 0.0, 0.051, 1
1298417, -0.074, 0.004, -0.476, -0.156, 0.018, 0.111, 1
1298437, -0.026, -0.036, -0.529, -0.189, -0.021, 0.156, 1
1298457, -0.02, -0.101, -0.524, -0.205, -0.036, 0.194, 1
1298477, -0.03, -0.18, -0.55, -0.208, -0.017, 0.215, 1
1298497, -0.009, -0.221, -0.534, -0.171, 0.046, 0.229, 1
1298517, 0.148, -0.465, -0.565, -0.204, 0.096, 0.238, 1
1298537, 0.219, -0.485, -0.527, -0.248, 0.11, 0.213, 1
1298557, 0.219, -0.517, -0.569, -0.273, 0.08, 0.2, 1
1298577, 0.006, -0.342, -0.455, -0.256, 0.121, 0.194, 1
1298597, 0.014, -0.259, -0.203, -0.21, 0.182, 0.199, 1
1298617, 0.106, -0.401, -0.196, -0.211, 0.166, 0.166, 1
1298637, -0.023, -0.324, -0.162, -0.229, 0.169, 0.16, 1
1298657, -0.06, -0.25, -0.089, -0.186, 0.199, 0.142, 1
1298677, 0.132, -0.266, 0.123, -0.184, 0.194, 0.121, 1
1298697, 0.0, -0.134, 0.254, -0.193, 0.131, 0.086, 1
1298717, -0.033, -0.078, 0.234, -0.127, 0.11, 0.073, 1
1298737, -0.04, -0.141, 0.176, -0.068, 0.109, 0.053, 1
1298757, -0.065, -0.112, 0.078, -0.068, 0.119, 0.028, 1
1298777, -0.043, -0.022, 0.068, -0.075, 0.151, 0.024, 1
1298797, -0.005, -0.011, 0.083, -0.072, 0.153, 0.016, 1
1298817, -0.011, 0.038, 0.114, -0.053, 0.102, -0.003, 1
1298837, -0.061, -0.027, -0.074, -0.032, 0.061, -0.013, 1
1298857, -0.077, -0.03, -0.156, -0.019, 0.056, -0.034, 1
1298877, -0.176, -0.137, -0.295, -0.069, 0.121, -0.034, 1
1298897, -0.019, -0.013, -0.191, -0.189, 0.215, 0.01, 1
1298917, 0.087, 0.154, 0.106, -0.164, 0.159, 0.026, 1
1298937, -0.016, 0.009, 0.106, -0.045, 0.092, -0.017, 1
1298957, -0.049, -0.064, -0.02, -0.021, 0.095, 0.025, 0
1298977, 0.014, -0.102, 0.101, -0.089, 0.133, 0.053, 0
1298997, 0.073, -0.08, 0.242, -0.08, 0.126, 0.06, 0
1299017, -0.062, -0.176, 0.036, -0.045, 0.053, 0.02, 0
1299037, -0.119, -0.003, 0.053, -0.076, 0.086, 0.018, 0
1299057, -0.008, -0.027, 0.126, -0.069, 0.191, 0.025, 0
1299077, -0.003, -0.127, 0.266, -0.139, 0.228, 0.011, 0
1299097, -0.031, 0.016, 0.571, -0.224, 0.201, -0.004, 0
1299117, -0.033, 0.009, 0.825, -0.148, 0.164, -0.03, 0
1299137, -0.055, -0.089, 1.128, -0.133, 0.173, -0.035, 0
1299157, 0.046, 0.074, 2.188, -0.091, 0.246, -0.039, 0
1299177, 0.281, 0.296, 3.806, -0.007, 0.185, -0.036, 0
1299197, 0.347, 0.569, 5.522, 0.119, 0.056, -0.03, 0
1299217, 0.608, 0.459, 6.473, 0.271, -0.237, -0.054, 0
1299237, 0.743, 0.161, 6.551, 0.368, -0.648, -0.146, 0
1299257, 0.165, -0.118, 5.837, 0.444, -0.805, -0.171, 0
1299277, -0.027, -0.353, 5.03, 0.518, -0.838, -0.14, 0
1299297, 0.112, -0.548, 4.255, 0.607, -0.954, -0.155, 0
1299317, -0.274, -1.143, 3.194, 0.514, -1.084, -0.178, 0
1299337, -0.79, -1.084, 2.268, 0.535, -1.121, -0.233, 0
1299357, -0.778, -1.191, 1.095, 0.734, -1.361, -0.33, 0
1299377, -2.041, -1.389, -0.966, 0.937, -1.322, -0.264, 0
1299397, -2.745, -1.838, -3.366, 1.11, -1.029, -0.091, 0
1299417, -2.726, -2.15, -5.5, 0.95, -0.643, 0.058, 0
1299437, -1.552, -1.659, -6.609, 0.777, -0.729, 0.009, 0
1299457, -2.016, -1.083, -7.902, 0.655, -0.566, 0.098, 0
1299477, -1.43, -0.645, -8.381, 0.651, -0.172, 0.368, 0
1299497, -0.655, -1.153, -8.103, 0.393, 0.276, 0.412, 0
1299517, 0.057, -0.891, -6.871, 0.018, 0.484, 0.334, 0
1299537, 0.269, -0.615, -5.214, -0.289, 0.57, 0.191, 0
1299557, 0.184, -0.194, -3.226, -0.466, 0.687, 0.114, 0
1299577, 0.18, -0.064, -1.448, -0.521, 0.709, 0.047, 0
1299597, 0.133, 0.123, -0.151, -0.499, 0.579, 0.0, 0
1299617, -0.056, 0.095, 0.397, -0.42, 0.426, -0.003, 0
1299637, 0.047, 0.079, 0.82, -0.309, 0.243, 0.014, 0
1299657, -0.276, -0.479, 0.734, -0.214, 0.078, 0.072, 0
1299677, -0.403, -0.879, 0.298, -0.287, 0.07, 0.073, 0
1299697, -0.253, -0.632, 0.421, -0.345, 0.06, 0.062, 0
1299717, -0.294, -0.658, 0.453, -0.328, -0.007, 0.049, 0
1299737, 0.05, -0.688, 0.299, -0.258, -0.104, 0.026, 0
1299757, -0.329, -0.596, -0.104, -0.227, -0.32, 0.026, 1
1299777, -1.008, -0.844, -0.077, -0.067, -0.403, 0.033, 1
1299797, -1.052, -1.032, -0.796, -0.007, -0.13, 0.003, 1
1299817, -0.01, -0.079, -1.088, 0.048, 0.207, 0.008, 1
1299837, -0.12, -0.94, -1.662, 0.005, 0.227, 0.053, 1
1299857, 0.044, -0.634, -1.803, -0.185, 0.167, 0.026, 1
1299877, -0.131, -0.39, -2.105, -0.233, 0.16, 0.032, 1
1299897, 0.162, -0.573, -2.637, -0.095, 0.145, 0.027, 1
1299917, -0.043, -1.338, -3.611, 0.066, 0.022, -0.048, 1
1299937, -0.788, -1.6, -4.26, -0.162, 0.178, -0.169, 1
1299957, -1.169, -0.818, -3.966, -0.39, 0.441, -0.164, 1
1299977, -0.871, -0.561, -4.03, -0.364, 0.569, -0.1, 1
1299997, -1.156, -0.773, -3.967, -0.306, 0.403, -0.1, 1
1300017, -1.975, -0.852, -3.434, -0.312, 0.298, -0.072, 1
1300037, -2.305, -1.324, -3.223, -0.422, 0.637, 0.004, 1
1300057, -1.348, -1.316, -2.92, -0.647, 1.042, 0.058, 1
1300077, -1.041, -1.543, -2.32, -0.809, 1.064, 0.015, 1
1300097, -1.158, -1.325, -1.249, -1.086, 1.053, -0.011, 1
1300117, -1.122, -0.793, -0.14, -1.289, 1.165, -0.004, 1
1300137, -0.839, -0.643, 0.432, -1.163, 1.292, -0.015, 1
1300157, -0.825, -0.819, 1.784, -1.323, 1.366, -0.014, 1
1300177, -0.425, -0.458, 3.059, -1.52, 1.369, -0.008, 1
1300197, -0.115, -0.096, 4.102, -1.527, 1.265, -0.043, 1
1300217, -0.236, 0.036, 5.176, -1.415, 1.105, -0.047, 1
1300237, -0.027, 0.458, 6.122, -1.189, 0.888, -0.037, 1
1300257, 0.47, 0.875, 6.013, -0.703, 0.474, -0.132, 1
1300277, 0.208, 0.43, 4.963, -0.265, 0.153, -0.244, 1
1300297, -0.081, -0.223, 3.962, -0.219, 0.071, -0.197, 1
1300317, 0.11, -0.491, 3.425, -0.304, -0.036, -0.188, 1
1300337, -0.122, -0.111, 2.73, -0.159, -0.067, -0.164, 1
1300357, -0.128, -0.256, 2.13, 0.042, -0.075, -0.125, 1
1300377, 0.091, -0.404, 1.464, 0.103, -0.178, -0.118, 1
1300397, -0.149, -0.686, 0.678, 0.05, -0.219, -0.113, 1
1300417, -0.634, -0.661, 0.0, -0.097, 0.006, -0.041, 1
1300437, -0.465, -0.184, -0.132, -0.072, 0.236, 0.066, 1
1300457, 0.0, -0.218, -0.242, 0.01, 0.226, 0.09, 1
1300477, 0.146, -0.466, -0.547, 0.001, 0.058, 0.076, 1
1300497, -0.257, -0.373, -0.812, -0.004, 0.102, 0.073, 1
1300517, -0.471, -0.539, -0.827, -0.116, 0.312, 0.133, 1
1300537, -0.25, -0.265, -0.494, -0.215, 0.382, 0.181, 0
1300557, 0.059, 0.053, 0.153, -0.138, 0.263, 0.167, 0
1300577, -0.056, 0.11, 0.192, 0.043, 0.117, 0.183, 0
1300597, -0.222, -0.213, 0.019, 0.072, 0.031, 0.149, 0
1300617, -0.391, -0.248, -0.169, -0.058, 0.109, 0.169, 0
1300637, -0.23, -0.446, -0.595, -0.16, 0.136, 0.145, 0
1300657, -0.059, -0.161, -0.357, -0.186, 0.14, 0.116, 0
1300677, -0.01, -0.139, -0.148, -0.13, 0.139, 0.084, 0
1300697, -0.031, -0.09, 0.099, -0.12, 0.088, 0.102, 0
1300717, -0.042, -0.069, 0.315, -0.107, 0.054, 0.12, 0
1300737, -0.144, -0.008, 0.545, -0.109, 0.058, 0.163, 0
1300757, -0.098, -0.097, 0.86, -0.097, 0.093, 0.194, 0
1300777, -0.018, -0.099, 1.218, -0.061, 0.108, 0.208, 0
1300797, 0.116, -0.31, 1.43, 0.0, 0.031, 0.185, 0
1300817, -0.127, -0.2, 1.987, -0.027, -0.047, 0.178, 0
1300837, -0.205, 0.226, 3.475, -0.013, -0.02, 0.202, 0
1300857, -0.183, 0.499, 5.279, 0.009, -0.056, 0.263, 0
1300877, -0.225, 0.524, 6.628, 0.068, -0.239, 0.3, 0
1300897, -0.071, 0.428, 7.371, 0.215, -0.56, 0.313, 0
1300917, -0.336, -0.08, 7.243, 0.414, -1.036, 0.274, 0
1300937, -0.727, -0.538, 6.616, 0.555, -1.281, 0.216, 0
1300957, -0.291, -0.882, 6.003, 0.612, -1.379, 0.265, 0
1300977, -0.329, -1.0, 5.222, 0.647, -1.594, 0.233, 0
1300997, -0.787, -1.568, 3.739, 0.833, -1.836, 0.17, 0
1301017, -1.646, -2.299, 1.655, 0.964, -1.894, 0.147, 0
1301037, -1.836, -2.43, -0.438, 1.008, -1.824, 0.155, 0
1301057, -2.389, -2.327, -3.063, 1.301, -1.773, 0.125, 0
1301077, -2.583, -3.407, -5.91, 1.571, -1.585, 0.208, 0
1301097, -2.218, -3.612, -7.67, 1.397, -1.417, 0.233, 0
1301117, -2.015, -3.312, -8.643, 0.982, -1.209, 0.339, 0
1301137, -1.913, -2.854, -9.076, 0.883, -0.751, 0.417, 0
1301157, -1.124, -2.842, -9.052, 0.69, -0.274, 0.396, 0
1301177, -0.417, -2.799, -8.298, 0.217, 0.087, 0.216, 0
1301197, -0.644, -1.371, -6.167, -0.117, 0.455, 0.148, 0
1301217, -0.127, -0.813, -3.652, -0.32, 0.594, 0.094, 0
1301237, -0.235, -0.306, -1.794, -0.399, 0.592, 0.05, 0
1301257, -0.325, -0.028, -0.584, -0.347, 0.608, 0.086, 0
1301277, -0.143, -0.061, 0.0, -0.35, 0.514, 0.089, 0
1301297, -0.301, 0.174, 0.341, -0.32, 0.502, 0.161, 0
1301317, 0.029, -0.003, 0.55, -0.273, 0.424, 0.186, 0
1301337, 0.067, -0.234, 0.725, -0.244, 0.287, 0.15, 0
1301357, -0.057, -0.247, 0.76, -0.151, 0.183, 0.13, 0
1301377, -0.13, -0.681, 0.431, -0.139, 0.07, 0.067, 0
1301397, -0.368, -0.7, 0.177, -0.199, 0.047, 0.037, 0
1301417, -0.286, -0.698, -0.014, -0.312, 0.02, 0.029, 0
1301437, -0.456, -0.575, -0.157, -0.474, 0.02, 0.073, 1
1301457, -0.191, 0.053, 0.185, -0.387, 0.102, 0.122, 1
1301477, -0.046, -0.041, 0.261, -0.158, 0.035, 0.126, 1
1301497, 0.124, 0.174, 0.573, 0.238, -0.057, 0.053, 1
1301517, 0.115, -0.729, 0.083, 0.293, -0.197, 0.051, 1
1301537, -0.426, -1.167, -0.756, 0.076, -0.061, 0.023, 1
1301557, -0.298, -1.012, -1.509, -0.113, 0.148, 0.005, 1
1301577, 0.124, -0.639, -1.823, -0.173, 0.187, -0.009, 1
1301597, 0.405, -0.841, -2.347, -0.159, 0.073, -0.139, 1
1301617, -0.251, -1.112, -3.974, -0.149, 0.106, -0.174, 1
1301637, -0.207, -0.735, -4.529, -0.144, 0.247, -0.188, 1
1301657, -0.574, -1.256, -5.068, -0.011, 0.329, -0.237, 1
1301677, -1.146, -1.182, -4.595, -0.089, 0.431, -0.315, 1
1301697, -1.888, -1.451, -4.35, -0.253, 0.611, -0.28, 1
1301717, -1.855, -1.109, -4.004, -0.39, 0.931, -0.172, 1
1301737, -1.657, -1.234, -3.083, -0.526, 1.108, -0.117, 1
1301757, -1.207, -1.036, -2.445, -0.754, 1.055, -0.113, 1
1301777, -1.348, -0.682, -1.653, -0.826, 0.943, -0.123, 1
1301797, -1.356, -0.792, -1.03, -0.789, 1.052, -0.054, 1
1301817, -0.907, -1.285, -0.515, -0.902, 1.169, -0.026, 1
1301837, -0.893, -0.979, 0.783, -1.188, 1.238, -0.083, 1
1301857, -0.691, -0.365, 2.176, -1.47, 1.348, -0.024, 1
1301877, -0.316, 0.114, 3.452, -1.544, 1.371, -0.008, 1
1301897, 0.139, 0.182, 3.768, -1.283, 1.135, -0.01, 1
1301917, -0.109, -0.05, 4.368, -0.976, 0.799, -0.066, 1
1301937, -0.227, -0.176, 4.468, -0.951, 0.687, -0.079, 1
1301957, -0.327, -0.204, 4.345, -0.94, 0.628, -0.095, 1
1301977, -0.46, -0.048, 4.12, -0.799, 0.59, -0.106, 1
1301997, 0.29, 0.041, 4.299, -0.554, 0.477, -0.088, 1
1302017, 0.515, -0.265, 3.903, -0.294, 0.135, -0.149, 1
1302037, -0.075, -0.578, 2.956, -0.119, -0.186, -0.228, 1
1302057, -0.726, -0.758, 1.92, -0.08, -0.087, -0.233, 1
1302077, -0.253, -0.656, 1.591, -0.14, 0.176, -0.105, 1
1302097, 0.085, -0.463, 1.208, -0.088, 0.077, -0.093, 1
1302117, -0.165, -0.248, 0.903, -0.037, 0.023, -0.073, 1
1302137, -0.326, -0.287, 0.443, -0.02, 0.067, -0.027, 1
1302157, -0.394, -0.377, 0.136, -0.119, 0.124, 0.052, 1
1302177, -0.168, -0.01, 0.117, -0.075, 0.078, 0.084, 0
1302197, -0.006, -0.004, -0.203, 0.124, 0.023, 0.097, 0
1302217, -0.171, -0.52, -0.591, 0.091, 0.004, 0.119, 0
1302237, -0.231, -0.708, -0.82, -0.141, 0.064, 0.19, 0
1302257, 0.02, -0.337, -0.864, -0.201, 0.04, 0.173, 0
1302277, -0.152, -0.284, -0.879, -0.169, 0.107, 0.128, 0
1302297, -0.12, -0.161, -0.484, -0.175, 0.227, 0.108, 0
1302317, -0.015, -0.179, -0.299, -0.204, 0.245, 0.097, 0
1302337, -0.032, -0.073, 0.029, -0.245, 0.173, 0.098, 0
1302357, -0.169, 0.065, 0.186, -0.225, 0.145, 0.098, 0
1302377, -0.047, -0.024, 0.168, -0.145, 0.093, 0.094, 0
1302397, -0.085, -0.132, 0.125, -0.119, 0.072, 0.072, 0
1302417, -0.031, -0.127, 0.332, -0.105, 0.099, 0.083, 0
1302437, 0.024, -0.234, 0.556, -0.153, 0.055, 0.087, 0
1302457, -0.101, -0.067, 0.695, -0.109, 0.084, 0.102, 0
1302477, 0.115, -0.252, 0.652, -0.086, 0.037, 0.101, 0
1302497, 0.014, -0.12, 0.792, -0.051, -0.029, 0.081, 0
1302517, -0.107, -0.119, 1.041, -0.02, -0.007, 0.095, 0
1302537, -0.115, -0.016, 1.842, -0.014, -0.015, 0.121, 0
1302557, -0.182, 0.007, 2.889, -0.068, -0.104, 0.178, 0
1302577, -0.22, 0.414, 5.161, 0.003, -0.389, 0.206, 0
1302597, -0.61, 0.406, 5.774, 0.145, -0.544, 0.244, 0
1302617, -0.315, -0.279, 5.872, 0.237, -0.803, 0.285, 0
1302637, -0.652, -0.471, 5.538, 0.219, -1.109, 0.264, 0
1302657, -0.328, -0.583, 5.201, 0.307, -1.208, 0.291, 0
1302677, -0.06, -0.847, 4.748, 0.452, -1.379, 0.243, 0
1302697, -0.356, -1.476, 3.747, 0.563, -1.528, 0.174, 0
1302717, -0.52, -1.835, 2.692, 0.586, -1.544, 0.062, 0
1302737, -1.268, -2.106, 1.377, 0.877, -1.664, -0.047, 0
1302757, -1.322, -2.857, -1.01, 1.073, -1.621, -0.058, 0
1302777, -1.571, -2.622, -3.485, 1.131, -1.593, -0.069, 0
1302797, -1.218, -3.398, -5.792, 1.138, -1.383, -0.056, 0
1302817, -1.427, -3.152, -6.988, 0.621, -1.502, -0.296, 0
1302837, -2.708, -1.05, -7.207, 0.367, -1.277, -0.303, 0
1302857, -1.804, -1.419, -7.224, 0.592, -0.702, -0.017, 0
1302877, -1.16, -0.959, -6.805, 0.572, -0.31, 0.171, 0
1302897, -0.541, -1.289, -6.71, 0.467, -0.006, 0.223, 0
1302917, -0.358, -0.895, -5.981, 0.059, 0.131, 0.187, 0
1302937, -0.486, -0.006, -4.292, -0.186, 0.366, 0.124, 0
1302957, -0.162, 0.129, -2.615, -0.258, 0.569, 0.111, 0
1302977, -0.181, 0.283, -1.424, -0.36, 0.583, 0.064, 0
1302997, -0.413, 0.225, -0.684, -0.394, 0.548, 0.098, 0
1303017, -0.203, 0.035, -0.143, -0.395, 0.539, 0.128, 0
1303037, -0.076, -0.12, 0.387, -0.346, 0.469, 0.152, 0
1303057, -0.13, -0.356, 0.713, -0.27, 0.286, 0.15, 0
1303077, -0.115, -0.601, 0.861, -0.252, 0.175, 0.12, 0
1303097, -0.179, -0.458, 0.932, -0.182, 0.064, 0.111, 0
1303117, -0.576, -0.98, 0.494, -0.178, 0.086, 0.105, 0
1303137, -0.286, -0.843, 0.352, -0.211, 0.067, 0.077, 0
1303157, -0.243, -0.924, 0.044, -0.242, 0.027, 0.068, 0
1303177, -0.253, -0.659, -0.311, -0.275, 0.058, 0.096, 1
1303197, -0.352, -0.194, -0.437, -0.142, 0.129, 0.097, 1
1303217, -0.285, -0.137, -0.703, 0.028, 0.257, 0.099, 1
1303237, 0.243, 0.464, -0.242, 0.376, 0.266, 0.046, 1
1303257, 0.078, -0.666, -0.31, 0.306, 0.147, 0.051, 1
1303277, 0.059, -0.963, -0.806, 0.004, 0.141, 0.035, 1
1303297, 0.152, -0.554, -1.287, -0.052, 0.116, 0.02, 1
1303317, -0.087, -0.596, -1.896, -0.084, 0.16, 0.0, 1
1303337, -0.173, -0.426, -2.188, -0.089, 0.166, -0.007, 1
1303357, -0.347, -0.264, -2.607, 0.017, 0.191, -0.023, 1
1303377, -0.382, -0.467, -3.59, 0.092, 0.186, -0.064, 1
1303397, -1.26, -0.739, -4.395, -0.037, 0.416, -0.02, 1
1303417, -1.285, -0.019, -4.645, 0.051, 0.684, 0.05, 1
1303437, -0.718, -0.443, -5.186, 0.233, 0.678, 0.029, 1
1303457, -0.555, -1.271, -4.872, 0.117, 0.447, -0.153, 1
1303477, -0.797, -1.642, -3.845, -0.152, 0.206, -0.306, 1
1303497, -2.011, -1.255, -2.856, -0.429, 0.463, -0.24, 1
1303517, -1.978, -0.749, -1.933, -0.569, 0.963, -0.063, 1
1303537, -0.965, -0.662, -0.477, -0.776, 1.176, -0.047, 1
1303557, -0.279, -0.724, 1.882, -1.342, 0.937, -0.066, 1
1303577, -0.521, 0.499, 2.504, -1.257, 0.892, -0.04, 1
1303597, -0.375, 0.102, 2.919, -1.172, 1.126, 0.039, 1
1303617, 0.143, -0.156, 3.314, -1.295, 1.222, 0.139, 1
1303637, 0.109, 0.251, 4.318, -1.375, 1.072, 0.12, 1
1303657, 0.075, 0.692, 4.467, -1.185, 0.899, 0.109, 1
1303677, 0.465, 0.043, 3.43, -0.651, 0.573, 0.045, 1
1303697, -0.001, -0.724, 2.55, -0.408, 0.199, -0.059, 1
1303717, -0.704, -0.795, 2.065, -0.531, 0.226, -0.071, 1
1303737, -0.305, -0.342, 2.392, -0.627, 0.543, 0.034, 1
1303757, 0.288, 0.024, 2.79, -0.489, 0.513, 0.036, 1
1303777, 0.287, 0.013, 2.153, -0.174, 0.091, -0.062, 1
1303797, -0.491, -0.247, 1.162, 0.137, -0.299, -0.098, 1
1303817, -1.038, -0.749, 0.494, 0.121, -0.186, -0.014, 1
1303837, -0.428, -0.294, 0.851, -0.143, 0.113, 0.133, 1
1303857, 0.142, -0.146, 1.135, -0.073, 0.039, 0.138, 1
1303877, 0.012, -0.422, 0.749, 0.116, -0.238, 0.049, 1
1303897, -0.511, -0.684, 0.171, 0.203, -0.288, 0.011, 1
1303917, -0.779, -1.138, -0.483, 0.05, -0.017, 0.021, 1
1303937, -0.183, -0.374, -0.149, -0.26, 0.257, 0.104, 0
1303957, 0.078, 0.178, 0.214, -0.232, 0.181, 0.093, 0
1303977, -0.163, 0.111, 0.173, 0.0, 0.007, 0.043, 0
1303997, -0.419, -0.472, -0.401, 0.124, 0.0, 0.036, 0
1304017, -0.205, -0.455, -0.777, -0.026, 0.153, 0.073, 0
1304037, -0.188, -0.304, -0.874, -0.218, 0.291, 0.094, 0
1304057, -0.03, -0.07, -0.563, -0.257, 0.301, 0.084, 0
1304077, -0.023, -0.064, -0.283, -0.273, 0.255, 0.072, 0
1304097, -0.04, -0.056, -0.027, -0.293, 0.214, 0.073, 0
1304117, -0.15, 0.179, 0.389, -0.226, 0.175, 0.082, 0
1304137, -0.087, 0.116, 0.526, -0.045, 0.081, 0.064, 0
1304157, -0.168, -0.154, 0.436, 0.0, 0.064, 0.084, 0
1304177, -0.033, -0.209, 0.648, -0.006, 0.035, 0.083, 0
1304197, -0.045, -0.251, 0.781, -0.057, 0.001, 0.075, 0
1304217, -0.073, -0.119, 0.955, -0.032, 0.003, 0.07, 0
1304237, -0.108, -0.168, 1.401, -0.032, 0.01, 0.079, 0
1304257, -0.183, 0.136, 2.439, -0.006, 0.066, 0.118, 0
1304277, 0.001, 0.102, 3.78, -0.054, -0.014, 0.144, 0
1304297, -0.127, 0.25, 4.887, -0.102, -0.191, 0.161, 0
1304317, -0.347, 0.494, 5.718, 0.031, -0.356, 0.208, 0
1304337, -0.296, 0.064, 6.054, 0.154, -0.565, 0.207, 0
1304357, -0.507, -0.759, 5.518, 0.06, -0.711, 0.251, 0
1304377, -0.885, -1.531, 4.473, -0.159, -0.713, 0.293, 0
1304397, -0.354, -0.881, 4.273, 0.014, -0.896, 0.218, 0
1304417, -0.528, -1.061, 3.489, 0.405, -1.153, 0.121, 0
1304437, -1.203, -1.586, 2.044, 0.655, -1.152, 0.085, 0
1304457, -1.143, -2.088, 0.129, 0.665, -1.116, 0.074, 0
1304477, -1.1, -1.957, -1.785, 0.627, -1.051, 0.092, 0
1304497, -1.071, -1.118, -3.196, 0.857, -0.947, 0.141, 0
1304517, -0.651, -2.662, -5.126, 0.133, -0.912, -0.033, 0
1304537, -0.813, -1.667, -5.101, 0.113, -0.621, -0.078, 0
1304557, -1.118, -0.403, -5.079, 0.592, -0.471, 0.178, 0
1304577, -0.33, -1.123, -5.111, 0.702, -0.196, 0.359, 0
1304597, -0.351, -0.925, -4.898, 0.446, -0.141, 0.357, 0
1304617, -0.279, -0.764, -4.512, 0.229, 0.033, 0.266, 0
1304637, 0.494, -0.089, -3.505, 0.027, 0.174, 0.138, 0
1304657, 0.285, -0.002, -3.079, 0.018, 0.142, 0.142, 0
1304677, 0.678, -0.27, -2.614, -0.114, 0.165, 0.074, 0
1304697, 0.088, -0.124, -2.15, -0.217, 0.141, -0.043, 0
1304717, 0.13, -0.021, -1.498, -0.253, 0.279, -0.047, 0
1304737, -0.078, 0.125, -0.852, -0.253, 0.26, -0.033, 0
1304757, -0.1, -0.022, -0.35, -0.182, 0.23, 0.054, 0
1304777, -0.003, -0.067, 0.036, -0.156, 0.117, 0.091, 0
1304797, -0.419, -0.579, -0.076, -0.124, -0.039, 0.103, 0
1304817, -0.469, -0.649, -0.098, -0.225, 0.132, 0.07, 0
1304837, -0.471, -0.361, 0.134, -0.26, 0.136, 0.047, 0
1304857, -0.487, -0.525, 0.092, -0.177, 0.154, 0.028, 0
1304877, -0.445, -0.404, 0.03, -0.147, 0.13, 0.065, 1
1304897, -0.161, -0.376, -0.098, -0.082, 0.13, 0.05, 1
1304917, -0.352, -0.352, -0.554, -0.125, 0.083, 0.051, 1
1304937, -0.268, 0.024, -0.479, -0.107, 0.139, 0.05, 1
1304957, 0.183, 0.077, -0.214, 0.11, 0.14, -0.013, 1
1304977, -0.963, -1.113, -0.63, 0.02, 0.089, 0.019, 1
1304997, -0.259, -0.24, -0.052, -0.179, 0.285, 0.095, 1
1305017, -0.009, -0.067, 0.197, -0.13, 0.196, 0.099, 1
1305037, 0.01, -0.09, -0.103, -0.088, 0.081, 0.102, 1
1305057, -0.047, -0.522, -0.761, -0.095, 0.067, 0.076, 1
1305077, -0.332, -0.709, -1.025, -0.228, 0.271, 0.067, 1
1305097, 0.067, -0.274, -0.703, -0.25, 0.298, 0.057, 1
1305117, 0.166, -0.17, -0.764, -0.166, 0.15, -0.009, 1
1305137, -0.052, -0.158, -1.587, -0.138, 0.028, -0.04, 1
1305157, -0.172, -0.083, -2.809, -0.02, 0.101, 0.012, 1
1305177, -0.194, -0.295, -3.936, 0.069, 0.259, 0.017, 1
1305197, 0.064, -0.297, -4.855, 0.061, 0.272, -0.067, 1
1305217, 0.241, -0.217, -5.754, 0.02, 0.014, -0.144, 1
1305237, -0.579, -0.125, -6.208, 0.145, -0.062, -0.152, 1
1305257, -1.687, -0.57, -6.428, 0.201, 0.237, -0.081, 1
1305277, -1.554, -1.187, -5.882, 0.128, 0.445, -0.022, 1
1305297, -1.401, -1.799, -4.363, -0.141, 0.458, -0.135, 1
1305317, -1.523, -1.594, -2.851, -0.285, 0.39, -0.173, 1
1305337, -2.418, -1.317, -0.421, -0.618, 0.751, -0.113, 1
1305357, -1.898, -0.97, 1.904, -1.101, 1.106, 0.067, 1
1305377, -0.565, -0.748, 2.891, -1.401, 1.025, 0.004, 1
1305397, -0.633, -0.372, 3.695, -1.43, 0.921, -0.029, 1
1305417, -0.542, 0.117, 4.919, -1.301, 0.946, -0.026, 1
1305437, -0.209, 0.219, 5.738, -1.094, 0.861, -0.006, 1
1305457, 0.236, -0.04, 5.806, -0.926, 0.587, -0.027, 1
1305477, 0.43, -0.12, 5.037, -0.644, 0.099, -0.167, 1
1305497, -0.53, -0.309, 4.378, -0.543, 0.186, -0.148, 1
1305517, -0.449, -0.334, 3.084, -0.588, 0.411, -0.046, 1
1305537, 0.113, -0.19, 2.277, -0.444, 0.363, -0.034, 1
1305557, 0.224, -0.208, 1.465, -0.2, 0.008, -0.081, 1
1305577, -0.456, -0.46, 0.501, -0.012, -0.214, -0.14, 1
1305597, -0.937, -0.865, -0.351, -0.075, 0.057, -0.086, 1
1305617, -0.562, -0.339, 0.003, -0.362, 0.521, 0.08, 1
1305637, 0.336, 0.177, 0.955, -0.379, 0.542, 0.158, 1
1305657, 0.017, 0.261, 1.002, -0.05, 0.196, 0.05, 1
1305677, -0.64, -0.592, 0.362, 0.131, 0.122, 0.064, 1
1305697, -0.672, -1.0, -0.379, -0.125, 0.353, 0.155, 0
1305717, -0.2, -0.37, -0.428, -0.359, 0.552, 0.228, 0
1305737, 0.262, -0.012, -0.182, -0.186, 0.424, 0.206, 0
1305757, -0.16, -0.216, 0.001, -0.011, 0.252, 0.158, 0
1305777, -0.17, -0.212, 0.175, 0.006, 0.249, 0.156, 0
1305797, -0.478, -0.482, -0.083, -0.122, 0.22, 0.14, 0
1305817, -0.522, 0.016, -0.04, -0.262, 0.237, 0.144, 0
1305837, -0.254, -0.2, -0.232, -0.194, 0.204, 0.138, 0
1305857, -0.337, -0.077, -0.24, -0.208, 0.123, 0.119, 0
1305877, -0.247, -0.066, 0.133, -0.12, 0.171, 0.145, 0
1305897, -0.151, -0.237, 0.512, -0.087, 0.16, 0.146, 0
1305917, -0.09, -0.146, 0.884, -0.092, 0.13, 0.148, 0
1305937, -0.092, -0.194, 1.211, -0.038, 0.045, 0.145, 0
1305957, -0.225, -0.172, 1.707, 0.02, -0.034, 0.14, 0
1305977, -0.329, -0.247, 2.518, 0.073, -0.058, 0.171, 0
1305997, -0.468, -0.242, 3.607, 0.078, -0.114, 0.207, 0
1306017, -0.511, -0.245, 4.68, 0.058, -0.289, 0.25, 0
1306037, -0.756, -0.025, 5.629, 0.185, -0.482, 0.293, 0
1306057, -0.516, -0.279, 6.204, 0.295, -0.755, 0.304, 0
1306077, -0.812, -0.681, 6.197, 0.265, -0.981, 0.315, 0
1306097, -0.94, -0.625, 6.248, 0.388, -1.154, 0.312, 0
1306117, -0.867, -0.876, 5.695, 0.616, -1.377, 0.318, 0
1306137, -0.845, -1.374, 4.468, 0.756, -1.58, 0.299, 0
1306157, -1.057, -1.704, 2.503, 0.876, -1.574, 0.307, 0
1306177, -1.237, -2.0, -0.12, 1.089, -1.433, 0.421, 0
1306197, -0.923, -2.982, -2.6, 1.144, -1.323, 0.271, 0
1306217, -1.104, -2.913, -5.034, 1.09, -1.144, 0.16, 0
1306237, -1.577, -2.195, -6.824, 1.252, -0.62, 0.195, 0
1306257, -0.936, -2.799, -7.551, 1.156, -0.111, 0.359, 0
1306277, 0.524, -3.247, -7.279, 0.677, -0.089, 0.284, 0
1306297, 0.316, -2.199, -6.464, 0.303, -0.359, 0.237, 0
1306317, -1.143, -0.893, -5.849, 0.37, -0.029, 0.457, 0
1306337, 0.077, -1.581, -5.495, 0.255, 0.151, 0.472, 0
1306357, 0.339, -1.805, -4.449, -0.16, 0.172, 0.189, 0
1306377, 0.216, -0.653, -2.935, -0.342, 0.199, -0.025, 0
1306397, -0.287, -0.07, -1.865, -0.331, 0.269, -0.067, 0
1306417, -0.328, 0.141, -1.141, -0.235, 0.309, 0.034, 0
1306437, -0.14, -0.235, -0.735, -0.237, 0.307, 0.074, 0
1306457, 0.208, -0.634, -0.416, -0.286, 0.19, -0.004, 0
1306477, -0.075, -0.275, -0.238, -0.205, 0.175, 0.048, 0
1306497, 0.191, -0.549, -0.216, -0.145, 0.176, 0.119, 0
1306517, 0.044, -0.65, -0.138, -0.156, 0.102, 0.065, 0
1306537, -0.048, -0.549, -0.032, -0.184, 0.092, 0.051, 0
1306557, -0.264, -0.464, 0.042, -0.21, 0.103, 0.064, 0
1306577, -0.225, -0.433, 0.207, -0.282, 0.098, 0.114, 0
1306597, -0.091, -0.417, 0.275, -0.392, 0.03, 0.132, 1
1306617, -0.175, 0.035, 0.607, -0.34, -0.094, 0.079, 1
1306637, -0.241, -0.145, 0.42, -0.105, -0.214, -0.014, 1
1306657, -0.782, -0.353, 0.034, 0.111, -0.139, -0.053, 1
1306677, -0.636, -0.491, -0.044, 0.222, 0.142, -0.07, 1
1306697, -0.118, -0.292, -0.139, 0.122, 0.142, -0.02, 1
1306717, -0.004, -0.145, -0.298, 0.014, 0.082, 0.021, 1
1306737, 0.068, -0.124, -0.587, -0.036, 0.058, 0.034, 1
1306757, 0.097, -0.149, -0.905, -0.07, 0.008, 0.01, 1
1306777, -0.042, -0.222, -1.375, -0.084, -0.01, -0.014, 1
1306797, 0.068, -0.266, -2.095, -0.089, 0.019, -0.039, 1
1306817, 0.055, -0.495, -2.925, -0.081, 0.092, -0.055, 1
1306837, -0.236, -0.639, -3.7, -0.197, 0.235, -0.091, 1
1306857, 0.022, -0.149, -4.231, -0.34, 0.414, -0.09, 1
1306877, 0.171, -0.35, -5.385, -0.282, 0.437, -0.09, 1
1306897, 0.014, -0.946, -5.659, -0.217, 0.481, -0.084, 1
1306917, 0.081, -0.942, -5.012, -0.228, 0.373, -0.166, 1
1306937, -0.743, -1.351, -5.067, -0.001, 0.171, -0.297, 1
1306957, -1.681, -1.865, -4.826, -0.037, 0.397, -0.372, 1
1306977, -1.258, -2.008, -3.569, -0.394, 0.54, -0.381, 1
1306997, -1.02, -1.417, -2.14, -0.679, 0.265, -0.44, 1
1307017, -1.762, -0.951, -0.716, -0.782, 0.261, -0.416, 1
1307037, -1.823, -0.438, 0.687, -0.905, 0.584, -0.255, 1
1307057, -0.997, -0.518, 1.686, -1.126, 0.745, -0.194, 1
1307077, -0.741, -0.535, 2.28, -1.3, 0.673, -0.189, 1
1307097, -0.818, -0.294, 3.183, -1.458, 0.639, -0.159, 1
1307117, -1.258, 0.246, 4.622, -1.579, 0.881, 0.0, 1
1307137, -0.833, 0.529, 5.425, -1.498, 1.026, 0.105, 1
1307157, -0.36, 1.053, 5.875, -1.12, 0.91, 0.105, 1
1307177, 0.132, 0.775, 5.195, -0.577, 0.547, 0.038, 1
1307197, 0.059, 0.129, 4.287, -0.307, 0.274, -0.062, 1
1307217, -0.36, -0.513, 3.135, -0.287, 0.27, -0.07, 1
1307237, -0.433, -0.605, 2.234, -0.407, 0.43, -0.028, 1
1307257, -0.01, -0.155, 2.123, -0.291, 0.359, -0.021, 1
1307277, -0.172, 0.076, 2.003, -0.023, 0.24, -0.025, 1
1307297, -0.681, -0.659, 0.955, -0.161, 0.326, 0.047, 1
1307317, -0.889, -0.645, -0.028, -0.424, 0.557, 0.213, 1
1307337, -0.257, -0.085, 0.015, -0.437, 0.625, 0.302, 0
1307357, 0.189, -0.169, 0.245, -0.31, 0.453, 0.262, 0
1307377, -0.218, -0.06, 0.213, -0.095, 0.497, 0.248, 0
1307397, 0.144, -0.651, 0.165, 0.011, 0.51, 0.227, 0
1307417, 0.384, -1.203, -0.16, -0.202, 0.37, 0.136, 0
1307437, 0.232, -0.805, -0.609, -0.273, 0.235, 0.091, 0
1307457, -0.218, -0.374, -0.606, -0.177, 0.247, 0.106, 0
1307477, -0.025, -0.099, -0.053, -0.038, 0.162, 0.071, 0
1307497, -0.06, -0.118, -0.118, -0.008, 0.063, 0.022, 0
1307517, -0.217, -0.054, -0.161, 0.004, -0.001, -0.001, 0
1307537, -0.189, -0.187, -0.175, -0.01, 0.02, 0.018, 0
1307557, -0.156, -0.034, -0.028, -0.075, 0.016, 0.034, 0
1307577, -0.025, -0.063, 0.055, -0.081, 0.017, 0.059, 0
1307597, -0.124, -0.072, 0.132, -0.088, 0.004, 0.054, 0
1307617, -0.06, -0.077, 0.453, -0.037, 0.01, 0.061, 0
1307637, -0.111, -0.178, 0.64, -0.009, -0.04, 0.061, 0
1307657, -0.158, -0.136, 0.912, 0.026, -0.032, 0.08, 0
1307677, -0.039, -0.425, 1.317, 0.029, -0.028, 0.091, 0
1307697, -0.19, -0.134, 2.31, -0.051, -0.07, 0.07, 0
1307717, -0.46, 0.169, 3.719, -0.041, -0.114, 0.092, 0
1307737, -0.629, 0.414, 5.076, 0.028, -0.182, 0.166, 0
1307757, -0.769, 0.134, 5.96, 0.132, -0.343, 0.222, 0
1307777, -0.878, -0.163, 6.303, 0.136, -0.592, 0.251, 0
1307797, -0.911, -0.231, 6.457, 0.108, -0.841, 0.255, 0
1307817, -1.016, -0.485, 6.365, 0.196, -1.101, 0.262, 0
1307837, -1.211, -0.896, 5.707, 0.433, -1.293, 0.213, 0
1307857, -1.872, -1.531, 4.023, 0.665, -1.345, 0.201, 0
1307877, -1.633, -2.522, 1.713, 0.725, -1.142, 0.248, 0
1307897, -1.048, -2.929, -0.255, 0.654, -1.138, 0.291, 0
1307917, -0.974, -2.434, -2.304, 0.662, -1.103, 0.163, 0
1307937, -0.466, -2.597, -4.21, 0.835, -1.033, 0.072, 0
1307957, -0.584, -2.722, -5.649, 0.728, -1.097, 0.07, 0
1307977, -0.487, -1.858, -6.524, 0.869, -0.921, 0.196, 0
1307997, -0.207, -1.411, -7.089, 1.064, -0.693, 0.386, 0
1308017, 0.209, -2.026, -7.706, 0.92, -0.519, 0.317, 0
1308037, 0.511, -1.918, -7.647, 0.362, -0.516, 0.005, 0
1308057, -0.749, -0.129, -6.356, 0.219, -0.023, 0.155, 0
1308077, -0.063, -0.008, -4.441, 0.137, 0.252, 0.265, 0
1308097, 0.326, -0.018, -2.849, -0.03, 0.238, 0.162, 0
1308117, 0.323, -0.041, -1.779, -0.171, 0.187, 0.086, 0
1308137, 0.163, 0.115, -0.957, -0.183, 0.109, 0.051, 0
1308157, -0.187, -0.064, -0.597, -0.136, 0.141, 0.111, 0
1308177, 0.024, -0.388, -0.349, -0.127, 0.136, 0.103, 0
1308197, 0.065, -0.696, -0.426, -0.21, 0.116, 0.04, 0
1308217, -0.024, -0.496, -0.347, -0.225, 0.091, 0.001, 0
1308237, -0.175, -0.4, -0.27, -0.183, 0.15, 0.053, 0
1308257, -0.073, -0.409, -0.026, -0.136, 0.129, 0.081, 0
1308277, -0.175, -0.508, 0.098, -0.129, 0.094, 0.095, 0
1308297, -0.057, -0.559, 0.223, -0.152, 0.003, 0.067, 0
1308317, -0.325, -0.882, 0.014, -0.317, -0.036, 0.037, 0
1308337, -0.416, -0.325, 0.012, -0.409, 0.006, 0.099, 1
1308357, -0.382, 0.013, 0.215, -0.255, 0.026, 0.149, 1
1308377, -0.23, -0.247, 0.091, -0.103, 0.007, 0.1, 1
1308397, -0.085, -0.342, -0.138, 0.027, 0.026, 0.019, 1
1308417, -0.327, -0.398, -0.32, 0.03, 0.156, -0.018, 1
1308437, 0.166, -0.235, -0.386, -0.043, 0.051, -0.058, 1
1308457, -0.125, -0.049, -0.653, -0.078, 0.039, -0.032, 1
1308477, 0.065, -0.158, -0.883, -0.075, 0.109, 0.026, 1
1308497, 0.117, -0.122, -1.082, -0.113, 0.082, 0.043, 1
1308517, 0.217, -0.181, -1.772, -0.101, 0.072, 0.001, 1
1308537, -0.004, -0.426, -2.752, -0.051, 0.144, -0.01, 1
1308557, -0.109, -0.498, -3.232, -0.059, 0.364, 0.015, 1
1308577, 0.282, -0.406, -3.442, -0.127, 0.526, -0.012, 1
1308597, 0.222, -0.215, -3.769, -0.191, 0.437, -0.054, 1
1308617, -0.295, -0.233, -4.316, -0.084, 0.302, -0.111, 1
1308637, -0.653, -0.923, -4.642, -0.061, 0.281, -0.124, 1
1308657, -1.454, -0.906, -4.719, -0.265, 0.398, -0.133, 1
1308677, -1.539, -0.962, -4.127, -0.492, 0.747, -0.066, 1
1308697, -1.001, -0.397, -2.855, -0.762, 0.959, -0.015, 1
1308717, -0.747, 0.002, -2.085, -0.806, 0.874, -0.036, 1
1308737, -0.807, -0.372, -1.839, -0.576, 0.686, -0.04, 1
1308757, -0.621, -0.969, -1.419, -0.572, 0.622, -0.07, 1
1308777, -0.974, -1.607, -1.0, -0.833, 0.609, -0.147, 1
1308797, -1.575, -1.28, -0.233, -1.207, 0.888, -0.215, 1
1308817, -1.217, -0.545, 1.061, -1.399, 1.32, -0.065, 1
1308837, -0.42, -0.694, 2.817, -1.434, 1.455, 0.013, 1
1308857, 0.152, -0.391, 3.541, -1.511, 1.116, -0.042, 1
1308877, 0.039, -0.342, 3.156, -1.31, 0.654, -0.179, 1
1308897, -1.018, -0.558, 3.15, -1.08, 0.517, -0.238, 1
1308917, -1.269, -0.701, 3.861, -1.182, 1.036, -0.034, 1
1308937, -0.47, -0.084, 5.194, -1.01, 0.949, -0.003, 1
1308957, 0.145, 0.438, 5.252, -0.378, 0.409, -0.117, 1
1308977, 0.078, -0.202, 4.148, 0.067, -0.076, -0.241, 1
1308997, -0.779, -0.927, 2.928, 0.032, -0.084, -0.273, 1
1309017, -0.875, -0.511, 2.014, -0.004, 0.149, -0.141, 1
1309037, -0.404, -0.305, 1.684, 0.088, 0.257, -0.072, 1
1309057, 0.0, -0.1, 1.668, 0.276, 0.117, -0.084, 1
1309077, -0.003, -0.098, 1.824, 0.391, -0.106, -0.072, 0
1309097, -0.241, -0.351, 1.38, 0.275, -0.173, -0.054, 0
1309117, -0.715, -0.21, 0.635, 0.218, -0.121, 0.031, 0
1309137, -0.311, -0.334, -0.241, 0.243, -0.167, 0.023, 0
1309157, -0.346, -0.563, -0.995, 0.158, -0.12, 0.047, 0
1309177, -0.275, -0.556, -1.28, 0.044, 0.022, 0.087, 0
1309197, -0.182, -0.37, -0.886, -0.036, 0.155, 0.109, 0
1309217, 0.034, -0.229, -0.364, -0.115, 0.173, 0.12, 0
1309237, 0.058, -0.114, -0.209, -0.138, 0.109, 0.082, 0
1309257, 0.028, -0.015, -0.16, -0.103, 0.067, 0.037, 0
1309277, -0.107, -0.056, -0.21, -0.116, 0.053, 0.049, 0
1309297, -0.173, -0.013, -0.013, -0.156, 0.071, 0.062, 0
1309317, -0.288, 0.125, 0.513, -0.139, 0.136, 0.12, 0
1309337, -0.12, 0.091, 1.197, -0.056, 0.072, 0.154, 0
1309357, 0.085, -0.092, 1.467, 0.014, -0.15, 0.12, 0
1309377, -0.231, -0.261, 1.335, 0.084, -0.216, 0.128, 0
1309397, -0.356, -0.356, 1.582, 0.095, -0.117, 0.203, 0
1309417, -0.258, -0.198, 3.848, 0.139, -0.105, 0.224, 0
1309437, -0.286, -0.223, 4.993, 0.182, -0.274, 0.245, 0
1309457, -0.713, -0.266, 5.797, 0.189, -0.56, 0.265, 0
1309477, -1.011, -0.377, 6.247, 0.236, -0.754, 0.309, 0
1309497, -0.828, -0.655, 6.439, 0.345, -0.944, 0.346, 0
1309517, -0.77, -0.769, 6.218, 0.464, -1.169, 0.321, 0
1309537, -0.495, -1.424, 5.38, 0.66, -1.447, 0.284, 0
1309557, -0.364, -2.393, 4.179, 0.758, -1.695, 0.16, 0
1309577, -0.077, -2.547, 2.826, 0.831, -1.866, -0.128, 0
1309597, -1.122, -1.163, 0.278, 1.242, -2.059, -0.353, 0
1309617, -2.259, -1.933, -3.36, 2.025, -2.039, -0.27, 0
1309637, -1.168, -3.607, -6.196, 1.971, -1.795, -0.082, 0
1309657, -0.905, -3.115, -7.415, 0.964, -1.941, -0.255, 0
1309677, -2.549, -1.031, -6.739, 0.461, -1.68, -0.232, 0
1309697, -1.026, -1.544, -5.931, 0.643, -1.057, 0.136, 0
1309717, -0.244, -2.384, -6.17, 0.593, -1.022, 0.258, 0
1309737, -0.634, -1.914, -6.05, 0.492, -0.645, 0.289, 0
1309757, 0.038, -2.238, -5.256, 0.466, -0.135, 0.369, 0
1309777, 0.643, -1.839, -4.15, 0.241, 0.047, 0.237, 0
1309797, 0.565, -1.296, -3.305, 0.015, 0.032, 0.081, 0
1309817, 0.544, -0.909, -2.353, -0.131, 0.12, -0.051, 0
1309837, 0.097, -0.311, -1.453, -0.226, 0.161, -0.164, 0
1309857, -0.227, 0.024, -0.778, -0.227, 0.294, -0.128, 0
1309877, -0.234, 0.058, -0.201, -0.188, 0.279, -0.025, 0
1309897, -0.4, 0.164, 0.007, -0.149, 0.259, 0.07, 0
1309917, -0.166, 0.074, 0.037, -0.071, 0.237, 0.125, 0
1309937, -0.086, -0.291, -0.147, -0.094, 0.161, 0.1, 0
1309957, -0.309, -0.178, -0.186, -0.093, 0.164, 0.1, 0
1309977, -0.447, -0.453, -0.163, -0.14, 0.156, 0.097, 0
1309997, -0.214, -0.256, 0.035, -0.161, 0.146, 0.1, 0
1310017, -0.138, -0.289, 0.144, -0.121, 0.08, 0.084, 0
1310037, -0.171, -0.417, 0.027, -0.122, 0.05, 0.086, 0
1310057, -0.099, -0.339, -0.01, -0.124, 0.021, 0.106, 0
1310077, 0.009, -0.464, -0.083, -0.116, 0.012, 0.117, 0
1310097, 0.232, -0.566, -0.206, -0.202, -0.018, 0.097, 0
1310117, 0.217, -0.612, -0.415, -0.315, -0.025, 0.073, 1
1310137, 0.111, -0.158, -0.358, -0.262, 0.026, 0.064, 1
1310157, -0.001, 0.055, -0.211, -0.074, 0.08, 0.056, 1
1310177, 0.116, -0.139, -0.356, -0.003, 0.087, 0.056, 1
1310197, 0.1, -0.023, -0.302, 0.065, 0.096, 0.039, 1
1310217, 0.027, -0.382, -0.468, 0.014, 0.117, 0.016, 1
1310237, -0.153, -0.607, -0.594, -0.196, 0.164, 0.033, 1
1310257, -0.06, 0.003, -0.637, -0.219, 0.182, 0.069, 1
1310277, -0.092, -0.174, -0.737, -0.087, 0.141, 0.055, 1
1310297, -0.387, -0.293, -1.215, -0.037, 0.21, 0.065, 1
1310317, -0.195, -0.349, -1.579, -0.027, 0.248, 0.058, 1
1310337, -0.526, -0.65, -1.973, -0.103, 0.324, 0.049, 1
1310357, -0.468, -0.691, -2.436, -0.184, 0.447, 0.049, 1
1310377, -0.478, -0.638, -2.786, -0.24, 0.512, 0.003, 1
1310397, -0.322, -0.344, -3.567, -0.217, 0.54, -0.032, 1
1310417, -0.692, -0.542, -4.341, 0.005, 0.478, -0.045, 1
1310437, -1.457, -0.51, -3.861, 0.117, 0.546, -0.043, 1
1310457, -1.794, -0.709, -2.532, -0.049, 0.664, 0.017, 1
1310477, -1.799, -0.212, -1.003, -0.397, 0.742, 0.102, 1
1310497, -0.734, 0.1, -0.6, -0.411, 0.711, 0.174, 1
1310517, -0.191, -0.794, -0.744, -0.245, 0.429, 0.168, 1
1310537, -0.579, -1.491, -0.973, -0.468, 0.354, 0.039, 1
1310557, -1.005, -1.066, -0.857, -0.859, 0.664, 0.052, 1
1310577, -0.675, -0.997, -0.496, -1.175, 1.098, 0.18, 1
1310597, 0.104, -0.786, -0.036, -1.435, 1.275, 0.248, 1
1310617, 0.049, -0.24, 0.707, -1.43, 1.072, 0.137, 1
1310637, -0.254, -0.013, 1.076, -1.162, 0.896, 0.029, 1
1310657, -0.483, -0.34, 1.23, -0.963, 0.955, 0.009, 1
1310677, -0.511, -0.247, 2.016, -1.073, 1.13, 0.07, 1
1310697, -0.005, -0.157, 3.027, -1.142, 1.158, 0.108, 1
1310717, 0.303, 0.479, 3.999, -1.109, 0.923, 0.039, 1
1310737, 0.413, 0.311, 2.76, -0.687, 0.461, -0.06, 1
1310757, -0.442, -0.342, 2.113, -0.362, 0.127, -0.185, 1
1310777, -1.143, -0.257, 2.345, -0.55, 0.383, -0.122, 1
1310797, -0.291, 0.269, 3.173, -0.676, 0.723, 0.029, 1
1310817, 0.425, 0.275, 3.504, -0.51, 0.48, 0.023, 1
1310837, -0.142, 0.221, 2.756, -0.244, -0.019, -0.031, 1
1310857, -0.406, -0.223, 1.596, 0.092, -0.244, -0.026, 1
1310877, -0.753, -0.857, 0.575, 0.075, -0.027, 0.023, 1
1310897, -0.496, -0.738, 0.583, -0.087, 0.171, 0.129, 0
1310917, -0.045, -0.362, 0.975, -0.123, 0.069, 0.158, 0
1310937, -0.137, -0.115, 1.196, 0.051, -0.1, 0.169, 0
1310957, -0.186, -0.546, 0.433, 0.115, -0.21, 0.169, 0
1310977, -0.568, -0.761, -0.443, 0.014, -0.047, 0.196, 0
1310997, -0.373, -0.646, -0.817, -0.023, 0.17, 0.222, 0
1311017, 0.076, -0.723, -0.872, -0.054, 0.186, 0.171, 0
1311037, 0.013, -0.396, -0.642, -0.085, 0.138, 0.13, 0
1311057, -0.168, -0.265, -0.461, -0.153, 0.176, 0.13, 0
1311077, -0.085, -0.103, -0.254, -0.189, 0.222, 0.141, 0
1311097, 0.008, -0.039, -0.1, -0.193, 0.177, 0.105, 0
1311117, -0.037, -0.02, -0.149, -0.153, 0.092, 0.062, 0
1311137, -0.062, 0.021, -0.108, -0.067, 0.061, 0.038, 0
1311157, -0.103, -0.1, 0.075, -0.039, 0.095, 0.025, 0
1311177, -0.065, -0.13, 0.429, -0.081, 0.122, 0.043, 0
1311197, 0.07, -0.111, 0.681, -0.113, 0.03, 0.042, 0
1311217, -0.131, -0.097, 0.713, -0.083, -0.004, 0.048, 0
1311237, -0.077, -0.126, 0.764, -0.03, -0.021, 0.045, 0
1311257, -0.065, -0.145, 0.841, -0.038, -0.02, 0.055, 0
1311277, -0.152, -0.164, 1.379, -0.064, 0.016, 0.056, 0
1311297, -0.1, 0.026, 2.332, -0.109, 0.052, 0.079, 0
1311317, -0.155, 0.198, 3.749, -0.094, -0.017, 0.105, 0
1311337, -0.253, 0.216, 4.963, -0.092, -0.142, 0.131, 0
1311357, -0.303, -0.109, 5.711, -0.182, -0.433, 0.174, 0
1311377, -0.383, -0.01, 6.307, 0.015, -0.76, 0.1, 0
1311397, -0.46, -0.734, 5.639, 0.224, -1.111, 0.059, 0
1311417, -0.933, -0.816, 4.49, 0.319, -1.436, -0.02, 0
1311437, -1.56, -0.95, 3.078, 0.468, -1.352, 0.017, 0
1311457, -1.082, -1.514, 1.866, 0.718, -1.156, 0.114, 0
1311477, -0.788, -1.814, 0.177, 0.916, -1.284, 0.056, 0
1311497, -1.298, -2.181, -2.145, 1.045, -1.45, -0.018, 0
1311517, -1.648, -2.319, -4.161, 1.007, -1.362, -0.057, 0
1311537, -2.058, -2.314, -4.945, 0.9, -1.192, -0.056, 0
1311557, -1.716, -2.168, -5.197, 0.689, -1.004, -0.083, 0
1311577, -1.826, -1.374, -5.448, 0.531, -0.939, -0.116, 0
1311597, -1.775, -0.637, -5.524, 0.693, -0.635, 0.014, 0
1311617, -0.499, -1.442, -5.863, 0.884, -0.425, 0.16, 0
1311637, -0.113, -2.011, -6.251, 0.419, -0.574, -0.092, 0
1311657, -0.611, -0.27, -5.012, -0.138, -0.594, -0.292, 0
1311677, -0.243, 0.262, -3.334, -0.197, -0.395, -0.252, 0
1311697, -0.017, 0.37, -2.138, -0.109, -0.37, -0.183, 0
1311717, -0.29, -0.09, -1.697, -0.041, -0.315, -0.059, 0
1311737, -0.249, -0.424, -1.459, -0.193, -0.155, 0.021, 0
1311757, -0.306, -0.136, -0.745, -0.274, 0.005, 0.107, 0
1311777, 0.015, -0.341, -0.177, -0.184, 0.156, 0.182, 0
1311797, 0.161, -0.428, 0.223, -0.086, 0.181, 0.169, 0
1311817, -0.018, -0.581, 0.126, -0.009, 0.174, 0.132, 0
1311837, 0.076, -0.74, -0.096, -0.036, 0.152, 0.092, 0
1311857, -0.297, -0.322, -0.232, -0.128, 0.099, 0.112, 0
1311877, -0.247, -0.272, -0.347, -0.155, 0.117, 0.155, 0
1311897, -0.259, -0.01, -0.431, -0.074, 0.142, 0.193, 0
1311917, -0.199, -0.143, -0.712, -0.021, 0.213, 0.225, 0
1311937, 0.043, -0.833, -1.063, -0.252, 0.221, 0.162, 1
1311957, -0.551, -0.202, -0.953, -0.297, 0.331, 0.107, 1
1311977, -0.399, -0.008, -0.969, -0.14, 0.456, 0.087, 1
1311997, 0.145, 0.347, -1.16, 0.193, 0.41, 0.08, 1
1312017, 0.052, -0.302, -1.628, 0.227, 0.265, 0.108, 1
1312037, -0.176, -0.656, -1.576, 0.125, 0.273, 0.084, 1
1312057, -0.076, -0.395, -1.362, 0.078, 0.326, 0.027, 1
1312077, 0.297, -0.578, -1.648, 0.082, 0.222, -0.062, 1
1312097, -0.104, -0.877, -2.049, -0.017, 0.248, -0.158, 1
1312117, -0.543, -0.398, -1.724, -0.199, 0.392, -0.163, 1
1312137, -0.731, 0.5, -1.44, -0.232, 0.475, -0.049, 1
1312157, -0.923, 0.36, -1.279, -0.242, 0.502, 0.11, 1
1312177, -0.473, -0.087, -1.386, -0.254, 0.467, 0.16, 1
1312197, 0.085, -0.564, -2.044, -0.139, 0.276, 0.062, 1
1312217, -0.512, -1.201, -2.605, -0.089, 0.271, -0.034, 1
1312237, -1.217, -1.305, -2.148, -0.277, 0.601, 0.007, 1
1312257, -0.464, -1.076, -1.863, -0.371, 0.691, 0.004, 1
1312277, 0.068, -1.178, -2.002, -0.456, 0.35, -0.092, 1
1312297, -0.49, -1.304, -1.93, -0.58, 0.054, -0.184, 1
1312317, -1.656, -0.771, -0.861, -0.772, 0.31, -0.083, 1
1312337, -1.276, -0.485, 0.295, -0.984, 0.853, 0.105, 1
1312357, -0.08, -0.104, 1.327, -1.078, 0.836, 0.075, 1
1312377, -0.191, -0.191, 1.324, -1.009, 0.616, 0.04, 1
1312397, -0.556, 0.081, 2.034, -0.945, 0.576, 0.039, 1
1312417, -0.069, 0.075, 2.564, -0.889, 0.698, 0.106, 1
1312437, 0.305, 0.082, 2.5, -0.768, 0.679, 0.079, 1
1312457, 0.472, -0.089, 2.06, -0.541, 0.409, 0.009, 1
1312477, -0.101, -0.146, 2.08, -0.431, 0.167, -0.079, 1
1312497, -0.266, -0.134, 2.432, -0.458, 0.258, -0.048, 1
1312517, 0.062, -0.202, 2.376, -0.524, 0.359, 0.012, 1
1312537, 0.405, -0.265, 1.617, -0.433, 0.207, -0.004, 1
1312557, -0.054, -0.173, 0.99, -0.197, -0.064, -0.09, 1
1312577, -0.538, -0.192, 0.922, -0.098, 0.062, -0.076, 1
1312597, -0.216, -0.262, 0.922, -0.199, 0.402, 0.038, 1
1312617, 0.362, -0.304, 0.93, -0.321, 0.509, 0.111, 1
1312637, 0.267, 0.028, 1.076, -0.39, 0.198, 0.059, 1
1312657, -0.325, 0.269, 1.033, -0.229, 0.022, 0.022, 1
1312677, -0.334, -0.169, 0.909, -0.034, 0.105, 0.064, 1
1312697, -0.263, -0.564, 0.699, -0.12, 0.224, 0.1, 1
1312717, -0.121, -0.314, 0.747, -0.265, 0.268, 0.153, 1
1312737, 0.077, 0.039, 0.817, -0.196, 0.128, 0.161, 1
1312757, -0.051, -0.364, 0.115, 0.062, -0.055, 0.116, 1
1312777, -0.111, -0.971, -0.684, 0.112, -0.095, 0.081, 1
1312797, -0.156, -0.739, -0.89, -0.054, -0.081, 0.073, 0
1312817, -0.4, -0.534, -0.669, -0.182, 0.103, 0.163, 0
1312837, 0.186, -0.151, -0.036, -0.144, 0.161, 0.161, 0
1312857, -0.111, -0.152, -0.149, -0.105, 0.103, 0.131, 0
1312877, -0.243, -0.247, -0.42, -0.175, 0.164, 0.153, 0
1312897, -0.116, -0.086, -0.38, -0.213, 0.236, 0.15, 0
1312917, 0.025, -0.145, -0.284, -0.186, 0.235, 0.139, 0
1312937, -0.008, -0.041, -0.122, -0.185, 0.172, 0.147, 0
1312957, -0.068, 0.008, -0.002, -0.181, 0.122, 0.15, 0
1312977, -0.178, -0.07, 0.037, -0.181, 0.139, 0.146, 0
1312997, -0.059, -0.146, 0.058, -0.207, 0.155, 0.149, 0
1313017, 0.069, 0.017, 0.221, -0.11, 0.077, 0.104, 0
1313037, 0.051, -0.19, 0.332, -0.073, 0.009, 0.087, 0
1313057, -0.061, -0.015, 0.619, -0.05, -0.012, 0.08, 0
1313077, -0.085, -0.089, 0.844, 0.022, 0.028, 0.082, 0
1313097, -0.03, -0.254, 1.131, -0.03, 0.029, 0.103, 0
1313117, 0.003, -0.113, 1.883, -0.092, 0.006, 0.109, 0
1313137, -0.021, 0.099, 3.104, -0.12, -0.014, 0.134, 0
1313157, -0.078, 0.358, 4.504, -0.083, -0.101, 0.168, 0
1313177, -0.166, 0.28, 5.526, -0.007, -0.232, 0.178, 0
1313197, -0.409, -0.189, 5.92, -0.044, -0.342, 0.205, 0
1313217, -0.633, -1.047, 5.643, -0.296, -0.389, 0.226, 0
1313237, -0.977, -0.91, 5.269, -0.317, -0.342, 0.204, 0
1313257, -1.066, -0.23, 4.785, 0.212, -0.27, 0.278, 0
1313277, -0.147, -0.559, 3.713, 0.708, -0.433, 0.326, 0
1313297, 0.236, -2.149, 1.655, 0.645, -0.682, 0.229, 0
1313317, -0.336, -2.766, -0.378, 0.166, -0.621, 0.021, 0
1313337, -0.736, -1.664, -2.493, 0.25, -0.549, -0.07, 0
1313357, -1.31, -0.68, -2.433, 0.485, -0.504, -0.056, 0
1313377, -0.933, -1.248, -2.476, 0.807, -0.271, -0.03, 0
1313397, -0.751, -1.293, -3.52, 0.704, -0.607, -0.1, 0
1313417, -1.247, -1.115, -5.103, 0.733, -0.725, -0.149, 0
1313437, -1.046, -0.957, -5.641, 0.764, -0.563, 0.027, 0
1313457, -0.474, -1.135, -6.191, 0.854, -0.448, 0.183, 0
1313477, 0.453, -2.008, -6.603, 0.539, -0.357, -0.02, 0
1313497, -0.204, -0.509, -5.801, 0.097, -0.233, -0.279, 0
1313517, 0.316, -0.253, -4.637, 0.028, 0.053, -0.133, 0
1313537, -0.115, 0.095, -3.263, -0.106, 0.194, -0.02, 0
1313557, 0.101, 0.343, -1.721, -0.149, 0.387, 0.204, 0
1313577, 0.017, 0.314, -0.516, -0.112, 0.368, 0.345, 0
1313597, -0.23, 0.043, -0.035, -0.037, 0.327, 0.39, 0
1313617, 0.377, -0.208, 0.186, -0.079, 0.306, 0.409, 0
1313637, 0.073, -0.139, 0.187, -0.125, 0.092, 0.29, 0
1313657, -0.188, -0.266, -0.02, -0.113, 0.113, 0.234, 0
1313677, -0.193, -0.299, 0.183, -0.098, 0.13, 0.178, 0
1313697, -0.22, -0.373, 0.416, -0.067, 0.092, 0.128, 0
1313717, -0.388, -0.483, 0.314, -0.116, -0.034, 0.043, 0
1313737, -0.555, -0.184, 0.27, -0.089, -0.064, 0.069, 0
1313757, -0.474, -0.475, 0.087, -0.005, -0.027, 0.152, 0
1313777, -0.164, -0.542, 0.053, -0.017, -0.006, 0.166, 0
1313797, -0.035, -0.539, -0.049, -0.075, -0.07, 0.105, 0
1313817, 0.043, -0.371, -0.192, -0.034, -0.091, 0.09, 0
1313837, 0.047, -0.162, -0.217, 0.059, -0.076, 0.087, 0
1313857, 0.083, 0.127, -0.067, 0.202, -0.084, 0.087, 1
1313877, 0.396, -0.14, -0.17, 0.315, -0.046, 0.053, 1
1313897, -0.594, -0.588, -0.59, 0.125, 0.219, 0.009, 1
1313917, 0.31, -0.045, -0.284, 0.161, 0.199, -0.065, 1
1313937, -0.08, -0.209, -0.263, 0.036, 0.049, -0.025, 1
1313957, -0.244, 0.007, -0.188, 0.041, 0.07, 0.029, 1
1313977, -0.1, -0.097, -0.392, 0.054, 0.1, 0.069, 1
1313997, -0.081, -0.154, -0.761, -0.007, 0.147, 0.066, 1
1314017, 0.073, -0.078, -1.086, -0.043, 0.145, 0.072, 1
1314037, 0.369, -0.274, -1.692, -0.051, 0.014, 0.026, 1
1314057, -0.203, -0.454, -2.404, -0.097, 0.142, 0.0, 1
1314077, -0.19, -0.465, -2.729, -0.183, 0.344, 0.042, 1
1314097, 0.082, -0.298, -2.767, -0.18, 0.37, 0.034, 1
1314117, -0.085, -0.308, -3.032, -0.149, 0.374, 0.004, 1
1314137, 0.515, -0.124, -3.429, -0.053, 0.179, -0.037, 1
1314157, 0.272, -0.468, -4.119, 0.086, 0.02, -0.098, 1
1314177, -0.947, -1.461, -4.18, -0.199, 0.277, -0.162, 1
1314197, -0.841, -0.937, -4.019, -0.42, 0.701, -0.154, 1
1314217, -0.29, -1.01, -3.074, -0.639, 0.668, -0.198, 1
1314237, -0.27, -0.816, -1.908, -0.902, 0.378, -0.238, 1
1314257, -0.48, 0.081, -0.979, -0.797, 0.175, -0.237, 1
1314277, -1.512, 0.044, -0.392, -0.632, 0.453, -0.056, 1
1314297, -0.771, -0.317, 0.759, -0.679, 0.595, -0.056, 1
1314317, -0.132, -0.522, 1.358, -0.882, 0.395, -0.197, 1
1314337, -0.595, -0.318, 1.646, -0.994, 0.376, -0.248, 1
1314357, -0.19, -0.285, 1.547, -0.959, 0.409, -0.172, 1
1314377, -0.327, -0.313, 2.114, -1.021, 0.396, -0.19, 1
1314397, -0.459, 0.169, 2.468, -1.04, 0.437, -0.158, 1
1314417, -0.251, 0.039, 2.352, -0.859, 0.447, -0.16, 1
1314437, -0.148, -0.221, 1.9, -0.673, 0.304, -0.212, 1
1314457, -0.549, -0.326, 1.873, -0.613, 0.156, -0.211, 1
1314477, -0.678, -0.024, 1.916, -0.656, 0.262, -0.113, 1
1314497, -0.296, -0.079, 1.716, -0.53, 0.346, -0.032, 1
1314517, -0.25, -0.133, 1.605, -0.426, 0.304, -0.052, 1
1314537, -0.072, -0.114, 1.852, -0.376, 0.169, -0.061, 1
1314557, -0.305, -0.16, 1.843, -0.313, 0.081, -0.07, 1
1314577, -0.449, -0.352, 1.456, -0.268, 0.172, -0.048, 1
1314597, -0.191, -0.471, 1.013, -0.293, 0.28, 0.043, 1
1314617, 0.202, -0.39, 0.832, -0.321, 0.252, 0.048, 1
1314637, -0.131, -0.185, 0.854, -0.302, 0.14, 0.021, 1
1314657, -0.214, -0.307, 1.047, -0.232, 0.22, 0.05, 1
1314677, 0.048, -0.316, 0.966, -0.194, 0.263, 0.092, 1
1314697, 0.063, -0.386, 0.595, -0.124, 0.116, 0.069, 1
1314717, -0.044, -0.301, 0.408, -0.068, 0.026, 0.083, 1
1314737, 0.018, -0.336, 0.34, 0.004, 0.032, 0.103, 0
1314757, -0.23, -0.497, 0.168, 0.023, 0.051, 0.098, 0
1314777, 0.069, -0.381, -0.114, 0.058, 0.081, 0.125, 0
1314797, 0.183, -0.343, -0.32, 0.075, 0.015, 0.113, 0
1314817, 0.05, -0.136, -0.349, 0.038, 0.027, 0.127, 0
1314837, 0.026, -0.319, -0.489, -0.077, 0.073, 0.124, 0
1314857, -0.292, -0.058, -0.613, -0.099, 0.214, 0.098, 0
1314877, 0.03, -0.022, -0.487, -0.109, 0.224, 0.117, 0
1314897, 0.132, 0.089, -0.212, -0.104, 0.111, 0.101, 0
1314917, -0.017, -0.045, 0.112, -0.119, 0.064, 0.127, 0
1314937, -0.154, -0.067, 0.395, -0.139, 0.129, 0.163, 0
1314957, 0.005, -0.103, 0.71, -0.104, 0.111, 0.153, 0
1314977, -0.088, -0.187, 0.769, -0.069, 0.043, 0.116, 0
1314997, -0.021, -0.158, 0.85, -0.025, -0.04, 0.097, 0
1315017, -0.179, -0.08, 1.169, 0.024, -0.069, 0.098, 0
1315037, -0.263, -0.124, 1.788, 0.047, -0.012, 0.128, 0
1315057, -0.375, -0.05, 2.806, 0.056, 0.015, 0.175, 0
1315077, -0.269, 0.062, 4.151, 0.1, -0.119, 0.207, 0
1315097, -0.695, 0.024, 5.092, 0.147, -0.277, 0.239, 0
1315117, -0.718, 0.421, 6.024, 0.332, -0.404, 0.314, 0
1315137, -0.493, 0.077, 6.43, 0.443, -0.505, 0.354, 0
1315157, -0.528, -0.372, 6.423, 0.411, -0.555, 0.381, 0
1315177, -1.073, -0.322, 6.485, 0.538, -0.51, 0.402, 0
1315197, -1.099, -0.387, 6.521, 0.962, -0.503, 0.329, 0
1315217, -0.324, -2.0, 5.051, 0.961, -0.937, 0.2, 0
1315237, -1.15, -3.116, 2.513, 0.737, -1.477, 0.135, 0
1315257, -2.515, -1.811, -0.519, 1.549, -1.276, 0.45, 0
1315277, -0.18, -2.609, -6.998, 1.584, -1.358, 0.226, 0
1315297, -1.615, -4.173, -8.194, 0.898, -1.593, -0.339, 0
1315317, -2.188, -2.324, -7.541, 0.759, -1.386, -0.085, 0
1315337, -1.757, -2.09, -6.984, 0.914, -0.987, 0.114, 0
1315357, -2.064, -1.275, -6.411, 0.937, -0.617, 0.296, 0
1315377, -1.309, -1.073, -5.379, 1.052, 0.064, 0.426, 0
1315397, 0.361, -1.035, -3.931, 0.987, 0.284, 0.41, 0
1315417, 0.858, -0.848, -3.112, 0.817, 0.105, 0.309, 0
1315437, 0.158, -0.194, -2.512, 0.54, -0.093, 0.42, 0
1315457, 1.023, -1.082, -2.139, 0.29, -0.05, 0.283, 0
1315477, 0.752, -1.296, -1.77, -0.202, -0.312, -0.126, 0
1315497, -0.192, -0.153, -1.254, -0.483, -0.2, -0.27, 0
1315517, 0.004, -0.208, -0.973, -0.31, 0.061, -0.046, 0
1315537, -0.116, -0.679, -0.897, -0.193, 0.161, 0.067, 0
1315557, -0.325, -1.03, -0.763, -0.162, 0.267, 0.11, 0
1315577, -0.118, -1.148, -0.379, -0.228, 0.368, 0.122, 0
1315597, -0.269, -0.91, 0.053, -0.313, 0.321, 0.072, 0
1315617, -0.5, -0.385, 0.446, -0.277, 0.295, 0.055, 0
1315637, -0.643, -0.329, 0.503, -0.153, 0.293, 0.13, 0
1315657, -0.568, -0.621, 0.37, -0.124, 0.253, 0.198, 0
1315677, -0.385, -0.44, 0.413, -0.169, 0.193, 0.164, 0
1315697, -0.256, -0.529, 0.269, -0.153, 0.129, 0.125, 0
1315717, -0.099, -0.554, 0.005, -0.164, 0.02, 0.039, 0
1315737, -0.208, -0.364, -0.251, -0.128, -0.048, -0.042, 0
1315757, -0.169, -0.201, -0.391, -0.088, -0.067, -0.025, 1
1315777, -0.626, -0.222, -0.526, -0.081, 0.026, 0.049, 1
1315797, -0.838, 0.146, -0.448, 0.007, 0.193, 0.158, 1
1315817, -0.501, 0.358, -0.291, 0.283, 0.34, 0.306, 1
1315837, 0.187, 0.675, -0.184, 0.711, 0.4, 0.346, 1
1315857, 0.416, -0.68, -1.186, 0.852, 0.315, 0.266, 1
1315877, 0.459, -2.178, -2.031, 0.527, 0.241, 0.0, 1
1315897, 0.023, -2.34, -2.666, -0.061, 0.309, -0.199, 1
1315917, -0.359, -1.063, -2.447, -0.337, 0.518, -0.175, 1
1315937, -0.292, -0.588, -2.144, -0.26, 0.642, -0.097, 1
1315957, 0.108, -0.872, -2.21, -0.16, 0.607, -0.087, 1
1315977, 0.543, -1.754, -2.253, -0.381, 0.363, -0.297, 1
1315997, 0.228, -1.239, -2.236, -0.484, 0.158, -0.461, 1
1316017, -0.481, -1.43, -3.118, -0.576, 0.271, -0.516, 1
1316037, -0.342, -1.468, -3.897, -0.72, 0.455, -0.494, 1
1316057, -0.114, -2.229, -3.723, -1.287, 0.332, -0.347, 1
1316077, -0.339, -1.478, -2.427, -1.755, 0.249, -0.375, 1
1316097, -0.956, -0.093, -1.393, -1.618, 0.437, -0.431, 1
1316117, -1.373, 0.232, -1.086, -1.217, 0.709, -0.263, 1
1316137, -0.682, -0.119, -0.94, -0.975, 0.745, -0.117, 1
1316157, -0.031, -1.037, -1.012, -1.026, 0.497, -0.213, 1
1316177, -0.74, -1.202, -0.561, -1.302, 0.535, -0.273, 1
1316197, -1.048, -0.313, 0.66, -1.442, 0.915, -0.146, 1
1316217, -0.404, 0.05, 1.466, -1.337, 1.079, -0.021, 1
1316237, -0.245, -0.168, 2.478, -1.251, 0.973, -0.065, 1
1316257, -0.299, 0.373, 3.708, -1.186, 0.741, -0.062, 1
1316277, -0.439, 0.152, 3.989, -1.119, 0.656, -0.058, 1
1316297, -0.597, 0.159, 4.27, -1.109, 0.648, -0.064, 1
1316317, -0.172, 0.413, 4.151, -0.994, 0.609, -0.036, 1
1316337, 0.034, 0.201, 3.322, -0.599, 0.26, -0.075, 1
1316357, -0.411, -0.113, 2.142, -0.296, -0.019, -0.148, 1
1316377, -0.592, -0.561, 1.376, -0.216, 0.005, -0.086, 1
1316397, -0.437, -0.782, 0.874, -0.359, 0.183, -0.006, 1
1316417, -0.368, -0.504, 1.049, -0.502, 0.312, 0.038, 1
1316437, -0.211, -0.367, 1.401, -0.564, 0.275, 0.094, 1
1316457, -0.32, -0.122, 1.339, -0.398, 0.063, 0.066, 1
1316477, -0.506, -0.44, 0.716, -0.113, -0.055, 0.074, 1
1316497, -0.381, -1.203, -0.098, -0.078, -0.045, 0.107, 1
1316517, -0.465, -1.026, -0.483, -0.271, 0.014, 0.125, 1
1316537, -0.126, -0.343, -0.156, -0.274, 0.129, 0.153, 1
1316557, 0.26, -0.427, -0.027, -0.067, 0.07, 0.157, 1
1316577, 0.106, -0.532, -0.001, 0.023, -0.07, 0.125, 1
1316597, -0.084, -0.547, -0.216, -0.014, -0.113, 0.088, 1
1316617, -0.078, -0.175, -0.328, -0.061, -0.011, 0.096, 1
1316637, 0.065, -0.092, -0.274, -0.014, 0.1, 0.115, 1
1316657, 0.194, -0.025, 0.007, 0.054, 0.088, 0.103, 1
1316677, -0.014, -0.139, -0.041, 0.133, -0.028, 0.08, 1
1316697, -0.246, -0.126, -0.12, 0.116, 0.025, 0.106, 0
1316717, -0.078, -0.041, -0.13, 0.059, 0.178, 0.213, 0
1316737, 0.364, -0.011, -0.07, 0.141, 0.031, 0.147, 0
1316757, 0.17, -0.066, -0.179, 0.136, -0.14, 0.13, 0
1316777, -0.042, 0.001, -0.237, 0.116, -0.138, 0.124, 0
1316797, -0.268, -0.32, -0.468, -0.048, 0.029, 0.153, 0
1316817, 0.139, -0.275, -0.516, -0.211, 0.032, 0.124, 0
1316837, 0.064, 0.021, -0.424, -0.193, 0.004, 0.076, 0
1316857, -0.072, 0.084, -0.201, -0.097, 0.056, 0.059, 0
1316877, 0.029, -0.075, -0.027, -0.073, 0.069, 0.057, 0
1316897, -0.02, -0.097, 0.217, -0.087, 0.041, 0.045, 0
1316917, -0.136, -0.074, 0.367, -0.12, 0.022, 0.062, 0
1316937, -0.114, 0.054, 0.786, -0.061, -0.02, 0.067, 0
1316957, -0.244, 0.033, 1.122, 0.0, -0.025, 0.086, 0
1316977, -0.198, -0.097, 1.6, 0.045, -0.04, 0.128, 0
1316997, -0.244, -0.146, 2.45, 0.042, -0.1, 0.147, 0
1317017, -0.496, -0.145, 3.413, 0.017, -0.163, 0.181, 0
1317037, -0.635, 0.025, 4.507, 0.066, -0.253, 0.223, 0
1317057, -0.444, 0.151, 5.345, 0.199, -0.415, 0.237, 0
1317077, -0.394, -0.291, 5.658, 0.238, -0.613, 0.24, 0
1317097, -0.523, -0.405, 5.742, 0.292, -0.789, 0.26, 0
1317117, -0.278, -0.868, 5.618, 0.363, -1.045, 0.196, 0
1317137, -0.59, -0.919, 5.117, 0.459, -1.186, 0.147, 0
1317157, -0.617, -1.225, 4.218, 0.679, -1.307, 0.138, 0
1317177, -1.137, -1.76, 2.694, 0.862, -1.33, 0.08, 0
1317197, -1.042, -2.548, 1.028, 0.885, -1.36, -0.111, 0
1317217, -1.865, -1.981, -0.506, 1.353, -1.136, -0.119, 0
1317237, -2.035, -2.349, -4.187, 1.724, -1.242, 0.445, 0
1317257, -0.994, -3.841, -6.204, 1.587, -1.398, 0.406, 0
1317277, -1.48, -2.502, -6.992, 0.978, -1.583, 0.241, 0
1317297, -1.202, -1.744, -7.257, 0.959, -1.271, 0.328, 0
1317317, 0.003, -2.792, -7.395, 0.988, -0.831, 0.388, 0
1317337, 1.107, -2.806, -6.826, 0.54, -0.698, 0.091, 0
1317357, 0.55, -1.705, -5.799, 0.054, -0.515, -0.268, 0
1317377, 0.364, -0.622, -4.142, -0.156, -0.166, -0.318, 0
1317397, -0.006, -0.215, -2.483, -0.177, 0.099, -0.289, 0
1317417, -0.193, -0.013, -1.187, -0.171, 0.239, -0.171, 0
1317437, -0.276, 0.006, -0.341, -0.158, 0.28, -0.027, 0
1317457, -0.123, -0.169, 0.082, -0.136, 0.325, 0.138, 0
1317477, 0.087, -0.338, 0.402, -0.115, 0.26, 0.185, 0
1317497, -0.152, -0.373, 0.379, -0.072, 0.238, 0.209, 0
1317517, 0.002, -0.626, 0.291, -0.003, 0.274, 0.25, 0
1317537, 0.162, -0.696, 0.203, -0.018, 0.205, 0.174, 0
1317557, -0.385, -0.468, -0.031, -0.037, 0.143, 0.133, 0
1317577, -0.234, -0.326, 0.048, -0.002, 0.196, 0.166, 0
1317597, -0.321, -0.413, 0.047, 0.0, 0.137, 0.166, 0
1317617, -0.354, -0.538, -0.16, -0.015, 0.08, 0.111, 0
1317637, -0.32, -0.366, -0.348, -0.084, 0.072, 0.071, 0
1317657, -0.299, -0.295, -0.663, -0.123, 0.067, 0.061, 0
1317677, -0.17, -0.234, -0.736, -0.19, 0.09, 0.07, 1
1317697, -0.187, -0.197, -0.797, -0.285, 0.097, 0.059, 1
1317717, -0.093, 0.115, -0.64, -0.186, 0.082, 0.045, 1
1317737, -0.258, 0.253, -0.713, 0.124, 0.129, 0.042, 1
1317757, 0.213, 0.758, -0.668, 0.53, 0.18, -0.045, 1
1317777, -0.396, -0.571, -1.6, 0.575, 0.314, -0.064, 1
1317797, -0.099, -0.96, -2.53, 0.428, 0.443, -0.057, 1
1317817, -0.586, -1.828, -3.33, -0.107, 0.591, -0.017, 1
1317837, -0.165, -1.156, -3.365, -0.42, 0.712, -0.037, 1
1317857, 0.165, -1.145, -3.652, -0.507, 0.655, -0.166, 1
1317877, -0.394, -1.591, -3.614, -0.682, 0.614, -0.235, 1
1317897, -0.72, -1.231, -2.87, -0.766, 0.646, -0.254, 1
1317917, -0.087, -0.679, -2.363, -0.653, 0.412, -0.24, 1
1317937, -0.145, -1.542, -2.813, -0.711, 0.18, -0.369, 1
1317957, -1.585, -2.04, -2.956, -1.138, 0.518, -0.406, 1
1317977, -1.943, -0.8, -1.953, -1.352, 1.152, -0.199, 1
1317997, -0.867, -0.139, -0.554, -1.317, 1.353, -0.023, 1
1318017, -0.195, -0.198, 0.781, -1.279, 1.025, -0.039, 1
1318037, 0.15, -0.006, 0.705, -1.105, 0.56, -0.116, 1
1318057, -0.436, -0.109, 0.127, -0.852, 0.474, -0.142, 1
1318077, -1.183, -0.5, 0.416, -0.91, 0.787, -0.031, 1
1318097, -0.522, -0.296, 0.65, -0.94, 0.999, 0.045, 1
1318117, 0.292, -0.827, 0.542, -1.011, 0.762, -0.066, 1
1318137, -0.338, -0.542, 1.153, -1.128, 0.632, -0.136, 1
1318157, -0.964, -0.197, 1.982, -1.136, 0.739, -0.061, 1
1318177, -0.517, 0.051, 2.657, -0.988, 0.761, 0.017, 1
1318197, -0.091, -0.269, 2.711, -0.798, 0.473, -0.062, 1
1318217, -0.666, -0.197, 3.19, -0.753, 0.485, -0.001, 1
1318237, -0.149, -0.141, 2.953, -0.691, 0.404, 0.028, 1
1318257, -0.203, -0.04, 2.51, -0.519, 0.149, -0.01, 1
1318277, -0.491, -0.095, 1.921, -0.277, 0.02, -0.042, 1
1318297, -0.418, -0.471, 1.527, -0.141, 0.075, 0.014, 1
1318317, -0.095, -0.586, 0.961, -0.149, 0.117, 0.037, 1
1318337, 0.041, -0.558, 0.197, -0.181, 0.117, 0.019, 1
1318357, -0.06, -0.449, -0.332, -0.159, 0.051, -0.009, 1
1318377, -0.533, -0.339, -0.101, -0.18, 0.138, 0.027, 1
1318397, -0.323, -0.109, 0.714, -0.246, 0.318, 0.129, 1
1318417, -0.309, -0.177, 1.302, -0.252, 0.282, 0.158, 1
1318437, -0.366, -0.152, 1.502, -0.233, 0.159, 0.17, 1
1318457, -0.415, -0.192, 1.473, -0.109, -0.014, 0.166, 1
1318477, -0.335, -0.402, 0.996, 0.051, -0.128, 0.152, 1
1318497, -0.337, -0.931, 0.134, 0.122, -0.198, 0.14, 1
1318517, -0.186, -0.846, -0.52, 0.038, -0.101, 0.148, 1
1318537, 0.275, -0.619, -0.693, 0.009, 0.007, 0.19, 0
1318557, 0.053, -0.698, -0.639, -0.009, 0.012, 0.15, 0
1318577, 0.358, -0.523, -0.39, -0.065, 0.029, 0.135, 0
1318597, 0.343, -0.399, -0.544, -0.12, 0.007, 0.099, 0
1318617, 0.106, -0.256, -0.716, -0.204, 0.033, 0.102, 0
1318637, 0.254, 0.087, -0.418, -0.226, 0.062, 0.11, 0
1318657, 0.048, 0.05, -0.232, -0.12, 0.026, 0.103, 0
1318677, -0.059, -0.217, -0.23, -0.067, 0.053, 0.115, 0
1318697, 0.014, -0.245, -0.211, -0.116, 0.025, 0.104, 0
1318717, -0.168, -0.169, -0.221, -0.116, 0.079, 0.11, 0
1318737, -0.031, -0.018, -0.053, -0.051, 0.117, 0.118, 0
1318757, 0.154, -0.268, -0.002, -0.05, 0.032, 0.083, 0
1318777, -0.13, -0.171, -0.107, -0.073, 0.024, 0.075, 0
1318797, -0.119, -0.132, -0.125, -0.051, 0.069, 0.085, 0
1318817, -0.075, -0.138, -0.057, -0.068, 0.083, 0.069, 0
1318837, -0.026, -0.014, 0.184, -0.019, 0.058, 0.053, 0
1318857, -0.044, -0.083, 0.382, 0.003, 0.04, 0.053, 0
1318877, -0.077, -0.092, 0.588, 0.011, -0.006, 0.04, 0
1318897, -0.152, -0.165, 0.764, 0.004, -0.02, 0.051, 0
1318917, -0.188, -0.071, 1.193, 0.005, -0.001, 0.076, 0
1318937, -0.273, 0.198, 2.218, 0.048, 0.02, 0.118, 0
1318957, -0.407, 0.374, 3.785, 0.094, -0.004, 0.172, 0
1318977, -0.471, 0.397, 5.457, 0.128, -0.151, 0.21, 0
1318997, -0.355, 0.02, 6.615, 0.094, -0.429, 0.196, 0
1319017, -0.299, 0.03, 7.148, 0.197, -0.719, 0.172, 0
1319037, -0.348, -0.337, 7.065, 0.403, -0.943, 0.109, 0
1319057, -0.676, -0.939, 6.515, 0.546, -0.979, 0.077, 0
1319077, -0.521, -1.331, 5.91, 0.711, -1.132, 0.107, 0
1319097, -0.179, -2.4, 4.563, 0.704, -1.544, -0.089, 0
1319117, -0.986, -2.205, 2.705, 0.864, -1.826, -0.196, 0
1319137, -1.83, -1.693, 0.013, 1.498, -1.767, -0.089, 0
1319157, -2.081, -2.328, -2.806, 1.957, -1.444, 0.026, 0
1319177, -1.004, -3.842, -5.499, 1.334, -1.51, -0.219, 0
1319197, -2.46, -1.973, -7.405, 1.163, -1.234, -0.03, 0
1319217, -1.845, -1.945, -7.4, 1.314, -0.714, 0.266, 0
1319237, -0.842, -2.525, -7.34, 1.412, -0.162, 0.499, 0
1319257, 1.186, -3.528, -7.234, 1.039, -0.079, 0.492, 0
1319277, 0.391, -2.3, -6.378, 0.246, -0.386, 0.073, 0
1319297, -0.531, -0.378, -4.564, -0.086, -0.15, -0.216, 0
1319317, -0.202, -0.199, -2.652, -0.054, 0.196, -0.106, 0
1319337, 0.27, -0.278, -1.233, -0.157, 0.208, -0.125, 0
1319357, -0.115, -0.022, -0.495, -0.305, 0.094, -0.139, 0
1319377, -0.034, -0.125, -0.022, -0.284, 0.116, -0.098, 0
1319397, -0.032, -0.149, 0.338, -0.246, 0.127, -0.057, 0
1319417, -0.014, -0.221, 0.297, -0.159, 0.131, -0.005, 0
1319437, 0.076, -0.754, 0.0, -0.103, 0.132, 0.05, 0
1319457, 0.031, -0.619, 0.047, -0.161, 0.092, 0.024, 0
1319477, -0.208, -0.505, 0.05, -0.138, 0.07, 0.015, 0
1319497, -0.314, -0.526, -0.105, -0.098, 0.084, 0.054, 0
1319517, -0.409, -0.434, -0.221, -0.119, 0.114, 0.1, 0
1319537, -0.377, -0.435, -0.218, -0.145, 0.155, 0.13, 0
1319557, -0.1, -0.401, -0.203, -0.16, 0.104, 0.122, 0
1319577, -0.064, -0.112, -0.223, -0.121, -0.04, 0.104, 1
1319597, -0.398, -0.309, -0.611, -0.027, -0.059, 0.095, 1
1319617, -0.425, -0.627, -0.967, -0.056, 0.044, 0.103, 1
1319637, -0.146, -0.121, -0.682, -0.098, 0.175, -0.011, 1
1319657, -0.06, -0.021, -0.274, 0.086, 0.087, -0.056, 1
1319677, -0.317, -0.557, -0.523, -0.001, 0.065, -0.043, 1
1319697, -0.577, -0.756, -0.741, -0.246, 0.243, -0.043, 1
1319717, -0.132, -0.395, -0.868, -0.382, 0.274, -0.059, 1
1319737, -0.206, -0.24, -0.942, -0.426, 0.295, -0.018, 1
1319757, -0.019, -0.138, -1.365, -0.371, 0.23, 0.026, 1
1319777, -0.245, -0.363, -2.035, -0.317, 0.191, 0.011, 1
1319797, -0.276, -0.645, -3.019, -0.307, 0.213, -0.029, 1
1319817, -0.18, -1.141, -4.146, -0.414, 0.252, -0.053, 1
1319837, -0.324, -0.965, -4.664, -0.394, 0.367, -0.037, 1
1319857, -0.544, -0.85, -4.462, -0.353, 0.469, -0.013, 1
1319877, -0.098, -1.172, -4.102, -0.405, 0.244, -0.108, 1
1319897, -0.602, -1.115, -3.553, -0.45, -0.028, -0.185, 1
1319917, -1.851, -1.179, -3.331, -0.485, 0.16, -0.164, 1
1319937, -2.364, -1.768, -3.234, -0.756, 0.75, -0.062, 1
1319957, -1.665, -1.682, -1.949, -1.219, 1.186, 0.02, 1
1319977, -0.855, -0.783, 0.048, -1.467, 1.244, 0.051, 1
1319997, -0.223, -0.17, 1.372, -1.376, 0.954, 0.056, 1
1320017, -0.187, -0.079, 2.029, -1.182, 0.773, 0.001, 1
1320037, -0.222, -0.196, 2.569, -1.128, 0.758, 0.019, 1
1320057, 0.046, -0.119, 2.905, -1.078, 0.735, -0.009, 1
1320077, -0.085, -0.267, 3.211, -1.082, 0.66, -0.062, 1
1320097, -0.275, -0.007, 4.106, -1.076, 0.631, -0.027, 1
1320117, -0.063, 0.71, 4.626, -0.764, 0.532, -0.021, 1
1320137, 0.575, 0.557, 3.679, -0.173, 0.113, -0.174, 1
1320157, 0.109, -0.201, 1.771, 0.01, -0.145, -0.187, 1
1320177, -0.773, -0.333, 1.403, -0.375, 0.246, -0.061, 1
1320197, -0.174, -0.051, 1.44, -0.527, 0.451, 0.063, 1
1320217, -0.034, 0.145, 1.663, -0.421, 0.301, 0.035, 1
1320237, -0.357, 0.14, 1.529, -0.215, 0.064, -0.008, 1
1320257, -0.55, -0.143, 1.237, -0.025, 0.063, 0.021, 1
1320277, -0.342, -0.572, 0.953, -0.018, 0.208, 0.056, 1
1320297, -0.04, -0.618, 0.768, -0.169, 0.186, 0.099, 1
1320317, -0.234, -0.253, 0.674, -0.221, 0.025, 0.081, 1
1320337, -0.446, -0.058, 0.704, -0.084, 0.045, 0.059, 1
1320357, -0.07, -0.213, 0.868, 0.077, 0.12, 0.095, 1
1320377, 0.266, -0.499, 0.671, 0.133, -0.018, 0.048, 1
1320397, -0.039, -0.501, 0.269, 0.115, -0.287, -0.025, 1
1320417, -0.614, -0.379, -0.143, 0.071, -0.332, -0.029, 1
1320437, -0.483, -0.456, -0.454, 0.033, -0.089, 0.021, 1
1320457, -0.098, -0.345, -0.414, 0.045, 0.037, 0.052, 1
1320477, -0.082, -0.24, -0.325, 0.031, -0.006, 0.048, 1
1320497, -0.162, -0.272, -0.384, 0.007, -0.001, 0.059, 1
1320517, -0.217, -0.305, -0.555, -0.092, 0.082, 0.126, 1
1320537, 0.026, -0.081, -0.467, -0.173, 0.18, 0.189, 1
1320557, 0.136, 0.043, -0.205, -0.152, 0.167, 0.176, 0
1320577, 0.093, 0.085, -0.138, -0.046, 0.077, 0.145, 0
1320597, -0.077, -0.163, -0.226, 0.089, 0.012, 0.127, 0
1320617, -0.103, -0.205, -0.384, 0.086, 0.08, 0.105, 0
1320637, 0.053, -0.245, -0.302, -0.028, 0.125, 0.034, 0
1320657, -0.083, -0.128, -0.269, -0.134, 0.103, 0.015, 0
1320677, -0.083, 0.006, -0.094, -0.179, 0.088, 0.067, 0
1320697, -0.009, -0.018, 0.171, -0.174, 0.027, 0.074, 0
1320717, -0.134, -0.005, 0.325, -0.172, 0.028, 0.117, 0
1320737, -0.08, 0.126, 0.729, -0.05, 0.012, 0.119, 0
1320757, -0.076, -0.101, 0.868, -0.009, 0.01, 0.133, 0
1320777, 0.042, -0.149, 1.101, 0.009, -0.056, 0.112, 0
1320797, -0.086, -0.135, 1.335, 0.003, -0.061, 0.111, 0
1320817, -0.255, 0.017, 2.025, -0.009, 0.036, 0.158, 0
1320837, -0.153, 0.329, 3.241, 0.018, 0.048, 0.217, 0
1320857, 0.036, 0.263, 4.214, 0.049, -0.155, 0.264, 0
1320877, -0.173, 0.257, 4.829, 0.075, -0.382, 0.279, 0
1320897, -0.583, 0.205, 5.133, 0.123, -0.394, 0.342, 0
1320917, -0.293, -0.22, 5.337, 0.094, -0.466, 0.403, 0
1320937, -0.161, -0.501, 5.372, 0.036, -0.671, 0.396, 0
1320957, -0.372, -0.389, 5.112, 0.208, -0.835, 0.397, 0
1320977, -0.331, -0.553, 4.394, 0.528, -0.935, 0.388, 0
1320997, -0.458, -1.464, 2.957, 0.715, -0.974, 0.386, 0
1321017, -0.45, -1.338, 1.674, 1.056, -0.96, 0.379, 0
1321037, -0.224, -2.777, 0.124, 1.148, -1.129, 0.313, 0
1321057, -0.483, -3.422, -1.805, 0.94, -1.228, 0.097, 0
1321077, -1.371, -2.374, -2.902, 1.085, -0.968, 0.015, 0
1321097, -2.221, -1.699, -2.981, 1.666, -0.408, 0.163, 0
1321117, -1.954, -2.361, -2.897, 2.208, -0.011, 0.171, 0
1321137, 0.772, -4.226, -5.178, 1.845, -0.454, -0.199, 0
1321157, 0.273, -4.171, -6.511, 1.255, -1.178, -0.239, 0
1321177, -0.364, -3.02, -7.575, 0.648, -1.286, -0.38, 0
1321197, -0.83, -0.882, -7.024, 0.223, -0.777, -0.435, 0
1321217, -0.523, -0.176, -5.531, 0.153, -0.032, -0.05, 0
1321237, 0.62, -0.946, -3.859, 0.097, 0.478, 0.142, 0
1321257, 0.889, -0.998, -2.203, -0.241, 0.395, 0.081, 0
1321277, 0.064, -0.497, -0.916, -0.421, 0.268, -0.053, 0
1321297, -0.151, -0.243, -0.068, -0.369, 0.298, 0.0, 0
1321317, -0.05, -0.315, 0.482, -0.25, 0.303, 0.055, 0
1321337, -0.156, -0.541, 0.587, -0.219, 0.214, 0.061, 0
1321357, -0.12, -0.701, 0.446, -0.249, 0.143, 0.042, 0
1321377, -0.178, -0.508, 0.393, -0.34, 0.037, 0.004, 0
1321397, -0.681, -0.191, 0.312, -0.29, 0.045, 0.042, 0
1321417, -0.485, -0.19, 0.297, -0.139, 0.194, 0.186, 0
1321437, -0.195, -0.611, 0.17, -0.08, 0.183, 0.277, 0
1321457, -0.045, -0.582, -0.033, -0.158, 0.045, 0.278, 0
1321477, -0.005, -0.773, -0.51, -0.237, -0.053, 0.266, 0
1321497, -0.102, -0.643, -0.887, -0.305, -0.047, 0.229, 0
1321517, -0.198, -0.683, -1.015, -0.328, 0.087, 0.204, 0
1321537, 0.274, -0.833, -0.949, -0.442, 0.172, 0.172, 1
1321557, 0.017, -0.659, -0.961, -0.658, 0.049, 0.1, 1
1321577, -0.484, -0.199, -0.998, -0.722, 0.035, 0.079, 1
1321597, -0.331, -0.151, -1.371, -0.523, 0.239, 0.146, 1
1321617, -0.264, -0.482, -2.137, -0.177, 0.52, 0.174, 1
1321637, -0.298, -0.866, -2.45, -0.051, 0.77, 0.116, 1
1321657, 0.397, -1.435, -2.436, -0.1, 0.795, -0.104, 1
1321677, 0.691, -1.488, -2.445, -0.271, 0.477, -0.342, 1
1321697, 0.393, -1.204, -2.674, -0.329, 0.12, -0.484, 1
1321717, -0.15, -1.098, -2.91, -0.39, -0.048, -0.519, 1
1321737, -0.691, -1.244, -3.222, -0.444, 0.065, -0.476, 1
1321757, -0.987, -1.297, -3.152, -0.563, 0.388, -0.386, 1
1321777, -0.64, -1.536, -2.694, -0.806, 0.538, -0.279, 1
1321797, -0.194, -1.313, -1.798, -1.078, 0.394, -0.287, 1
1321817, -0.482, -0.755, -1.228, -1.1, 0.221, -0.293, 1
1321837, -1.088, -0.328, -0.494, -0.918, 0.262, -0.189, 1
1321857, -0.854, 0.15, 0.473, -0.694, 0.444, -0.014, 1
1321877, -0.075, -0.21, 0.608, -0.607, 0.491, -0.001, 1
1321897, 0.196, -0.376, 0.695, -0.652, 0.403, -0.097, 1
1321917, -0.18, 0.0, 1.09, -0.733, 0.379, -0.098, 1
1321937, -0.428, 0.074, 1.442, -0.773, 0.435, -0.025, 1
1321957, -0.525, 0.126, 2.007, -0.82, 0.511, 0.053, 1
1321977, -0.407, 0.233, 2.559, -0.819, 0.483, 0.116, 1
1321997, -0.09, 0.3, 2.792, -0.71, 0.374, 0.08, 1
1322017, -0.065, 0.526, 2.894, -0.547, 0.285, 0.065, 1
1322037, -0.162, 0.342, 2.347, -0.346, 0.182, 0.039, 1
1322057, -0.272, -0.118, 1.939, -0.35, 0.136, 0.041, 1
1322077, -0.49, -0.202, 2.009, -0.538, 0.301, 0.132, 1
1322097, -0.116, 0.033, 2.033, -0.506, 0.425, 0.23, 1
1322117, 0.285, -0.294, 1.047, -0.36, 0.081, 0.125, 1
1322137, 0.102, -0.271, 0.927, -0.282, 0.064, 0.106, 1
1322157, -0.082, -0.395, 0.928, -0.294, 0.175, 0.13, 1
1322177, -0.014, -0.378, 1.169, -0.394, 0.38, 0.161, 1
1322197, 0.389, -0.277, 1.469, -0.425, 0.33, 0.183, 1
1322217, 0.145, -0.152, 1.318, -0.325, 0.058, 0.121, 1
1322237, -0.333, -0.293, 0.773, -0.158, -0.043, 0.1, 1
1322257, -0.389, -0.694, 0.054, -0.097, 0.059, 0.135, 1
1322277, -0.151, -0.734, -0.188, -0.201, 0.183, 0.186, 1
1322297, 0.001, -0.323, -0.207, -0.24, 0.169, 0.221, 1
1322317, 0.047, -0.237, -0.156, -0.128, 0.137, 0.195, 1
1322337, 0.142, -0.407, -0.025, -0.092, 0.059, 0.177, 1
1322357, -0.244, -0.569, -0.355, -0.237, 0.026, 0.131, 1
1322377, -0.397, -0.242, -0.545, -0.431, 0.254, 0.168, 1
1322397, 0.088, -0.008, -0.338, -0.346, 0.393, 0.181, 1
1322417, 0.32, -0.372, -0.385, -0.253, 0.24, 0.152, 0
1322437, -0.091, -0.014, -0.213, -0.3, 0.141, 0.16, 0
1322457, -0.246, -0.118, -0.223, -0.277, 0.167, 0.182, 0
1322477, -0.06, -0.028, -0.156, -0.321, 0.238, 0.208, 0
1322497, 0.032, -0.045, -0.217, -0.261, 0.174, 0.162, 0
1322517, -0.07, -0.069, -0.224, -0.186, 0.141, 0.114, 0
1322537, 0.028, -0.163, -0.136, -0.174, 0.14, 0.098, 0
1322557, -0.061, -0.169, -0.036, -0.207, 0.112, 0.086, 0
1322577, -0.054, -0.077, 0.117, -0.26, 0.127, 0.077, 0
1322597, 0.048, 0.064, 0.434, -0.142, 0.029, 0.045, 0
1322617, -0.067, -0.056, 0.621, -0.087, -0.006, 0.048, 0
1322637, -0.071, -0.131, 0.862, -0.057, -0.013, 0.052, 0
1322657, -0.016, -0.154, 1.022, -0.01, -0.019, 0.045, 0
1322677, -0.006, -0.233, 1.022, -0.019, -0.023, 0.042, 0
1322697, -0.085, -0.176, 1.547, -0.048, -0.01, 0.061, 0
1322717, -0.119, 0.026, 2.551, -0.059, 0.011, 0.092, 0
1322737, -0.106, 0.21, 3.812, -0.018, -0.034, 0.101, 0
1322757, -0.292, 0.162, 4.82, 0.0, -0.079, 0.134, 0
1322777, -0.273, 0.138, 5.666, 0.047, -0.206, 0.188, 0
1322797, -0.116, -0.202, 6.185, 0.086, -0.481, 0.158, 0
1322817, -0.303, -0.555, 6.122, 0.112, -0.766, 0.114, 0
1322837, -0.68, -0.642, 5.826, 0.266, -0.915, 0.127, 0
1322857, -1.042, -1.102, 5.118, 0.414, -0.925, 0.162, 0
1322877, -1.161, -2.137, 3.532, 0.343, -0.953, 0.135, 0
1322897, -1.604, -2.088, 2.244, 0.414, -0.943, 0.043, 0
1322917, -1.835, -2.137, 0.257, 0.617, -0.976, 0.042, 0
1322937, -1.336, -2.298, -1.959, 0.839, -1.108, -0.026, 0
1322957, -1.511, -2.35, -3.972, 0.934, -1.263, -0.164, 0
1322977, -1.917, -2.286, -5.685, 0.932, -1.178, -0.119, 0
1322997, -1.462, -1.894, -6.352, 0.919, -1.16, -0.162, 0
1323017, -1.157, -1.638, -6.97, 0.888, -1.164, -0.167, 0
1323037, -1.202, -0.867, -7.606, 0.872, -0.992, -0.087, 0
1323057, -1.019, -0.292, -7.521, 0.797, -0.616, 0.029, 0
1323077, -0.49, -0.918, -6.938, 0.146, -0.046, -0.1, 0
1323097, 0.185, 0.577, -3.037, -0.105, 0.084, -0.119, 0
1323117, 0.264, 0.328, -1.655, -0.086, 0.196, 0.005, 0
1323137, 0.163, 0.046, -0.786, -0.116, 0.116, 0.029, 0
1323157, -0.18, -0.367, -0.445, -0.093, 0.102, 0.057, 0
1323177, -0.123, -0.834, -0.18, -0.121, 0.144, 0.078, 0
1323197, -0.186, -0.793, 0.192, -0.178, 0.155, 0.022, 0
1323217, -0.316, -0.71, 0.493, -0.144, 0.134, -0.009, 0
1323237, -0.523, -0.514, 0.613, -0.126, 0.089, -0.032, 0
1323257, -0.672, -0.368, 0.681, -0.047, 0.054, 0.022, 0
1323277, -0.747, -0.579, 0.483, -0.005, 0.045, 0.1, 0
1323297, -0.536, -0.522, 0.216, -0.023, 0.014, 0.119, 0
1323317, -0.581, -0.354, -0.05, -0.037, 0.019, 0.141, 0
1323337, -0.314, -0.222, -0.171, -0.006, 0.054, 0.169, 0
1323357, -0.23, -0.144, -0.311, -0.018, 0.04, 0.168, 0
1323377, -0.148, -0.105, -0.488, -0.024, 0.031, 0.175, 0
1323397, -0.104, -0.138, -0.768, -0.029, 0.043, 0.194, 0
1323417, -0.101, -0.204, -1.093, -0.025, 0.096, 0.193, 0
1323437, -0.036, -0.209, -1.313, -0.053, 0.161, 0.172, 1
1323457, 0.679, -0.292, -1.59, -0.045, 0.185, 0.168, 1
1323477, -0.156, -0.447, -1.9, -0.036, 0.122, 0.155, 1
1323497, -0.526, -0.413, -1.945, -0.048, 0.262, 0.173, 1
1323517, -0.071, 0.028, -1.911, 0.008, 0.426, 0.171, 1
1323537, -0.463, -0.618, -2.37, 0.031, 0.509, 0.146, 1
1323557, -0.645, -0.859, -2.444, -0.081, 0.595, 0.161, 1
1323577, -0.48, -0.376, -2.023, -0.25, 0.706, 0.177, 1
1323597, 0.186, -0.191, -2.02, -0.186, 0.546, 0.067, 1
1323617, -0.1, -0.625, -2.17, -0.263, 0.337, -0.044, 1
1323637, -0.283, -0.136, -2.07, -0.211, 0.241, 0.02, 1
1323657, 0.289, -0.773, -2.637, -0.119, 0.084, -0.045, 1
1323677, 0.12, -1.783, -2.568, -0.451, -0.14, -0.199, 1
1323697, -1.294, -1.173, -1.776, -0.786, 0.062, -0.161, 1
1323717, -2.096, -0.247, -0.983, -0.868, 0.644, 0.099, 1
1323737, -1.055, 0.008, 0.407, -0.852, 0.817, 0.348, 1
1323757, -0.228, -0.036, 1.223, -0.799, 0.615, 0.327, 1
1323777, -0.202, 0.353, 1.309, -0.59, 0.389, 0.235, 1
1323797, -0.332, -0.009, 0.279, -0.241, 0.353, 0.145, 1
1323817, -0.949, -0.77, -0.01, -0.379, 0.654, 0.139, 1
1323837, -0.67, -0.824, 0.848, -0.782, 0.876, 0.252, 1
1323857, 0.062, -0.111, 1.822, -0.836, 0.763, 0.213, 1
1323877, 0.173, 0.311, 1.906, -0.492, 0.442, 0.124, 1
1323897, -0.215, 0.058, 1.852, -0.279, 0.368, 0.059, 1
1323917, -0.26, -0.23, 1.743, -0.3, 0.417, 0.036, 1
1323937, -0.124, -0.452, 1.282, -0.361, 0.363, 0.001, 1
1323957, -0.089, -0.478, 0.732, -0.367, 0.299, -0.013, 1
1323977, -0.08, -0.175, 0.916, -0.371, 0.293, -0.045, 1
1323997, -0.081, -0.116, 1.358, -0.405, 0.323, -0.001, 1
1324017, 0.112, -0.045, 1.679, -0.381, 0.279, -0.001, 1
1324037, 0.28, -0.357, 0.752, -0.314, 0.083, -0.063, 1
1324057, 0.038, -0.451, -0.198, -0.312, 0.017, -0.105, 1
1324077, -0.348, -0.118, 0.422, -0.409, 0.349, 0.012, 1
1324097, 0.106, -0.092, 1.135, -0.563, 0.521, 0.11, 1
1324117, 0.131, -0.009, 1.41, -0.624, 0.365, 0.081, 1
1324137, -0.019, 0.199, 1.266, -0.506, 0.166, 0.081, 1
1324157, -0.254, -0.052, 0.904, -0.263, 0.048, 0.013, 1
1324177, -0.684, -0.502, 0.466, -0.202, 0.169, 0.025, 1
1324197, -0.411, -0.589, 0.697, -0.323, 0.454, 0.108, 1
1324217, 0.275, -0.309, 1.104, -0.385, 0.444, 0.124, 1
1324237, 0.128, -0.184, 1.115, -0.216, 0.111, 0.054, 1
1324257, -0.437, -0.241, 0.829, -0.084, -0.01, 0.014, 1
1324277, -0.39, -0.56, 0.31, 0.003, 0.119, 0.034, 1
1324297, -0.098, -0.963, -0.184, -0.1, 0.188, 0.049, 1
1324317, -0.196, -0.287, -0.052, -0.203, 0.119, 0.0, 1
1324337, -0.205, -0.113, -0.054, -0.066, 0.069, -0.014, 1
1324357, -0.271, -0.203, 0.044, 0.012, 0.081, 0.018, 0
1324377, -0.204, -0.289, 0.012, -0.054, 0.152, 0.071, 0
1324397, -0.009, -0.059, -0.112, -0.097, 0.109, 0.073, 0
1324417, -0.182, -0.052, -0.389, -0.053, 0.016, 0.056, 0
1324437, -0.057, -0.079, -0.467, 0.021, 0.046, 0.072, 0
1324457, -0.007, -0.119, -0.351, 0.001, 0.058, 0.059, 0
1324477, -0.05, -0.161, -0.375, -0.106, 0.091, 0.061, 0
1324497, 0.044, -0.11, -0.474, -0.224, 0.1, 0.081, 0
1324517, -0.12, 0.136, -0.393, -0.229, 0.102, 0.067, 0
1324537, -0.009, 0.075, -0.191, -0.115, 0.17, 0.065, 0
1324557, 0.203, -0.103, -0.052, -0.105, 0.104, 0.028, 0
1324577, -0.081, -0.06, -0.069, -0.157, 0.073, 0.048, 0
1324597, -0.081, -0.044, -0.009, -0.163, 0.09, 0.059, 0
1324617, -0.071, -0.016, 0.199, -0.141, 0.098, 0.076, 0
1324637, -0.032, -0.039, 0.479, -0.098, 0.093, 0.093, 0
1324657, 0.065, -0.128, 0.792, -0.093, 0.024, 0.078, 0
1324677, -0.053, -0.097, 1.033, -0.067, -0.004, 0.092, 0
1324697, -0.155, -0.228, 1.435, -0.103, 0.025, 0.109, 0
1324717, -0.245, 0.195, 2.702, -0.113, 0.099, 0.161, 0
1324737, -0.011, 0.403, 4.373, -0.064, -0.018, 0.211, 0
1324757, 0.089, 0.379, 5.612, 0.02, -0.308, 0.185, 0
1324777, -0.066, 0.232, 6.223, 0.146, -0.576, 0.16, 0
1324797, -0.135, -0.357, 6.259, 0.198, -0.758, 0.16, 0
1324817, -0.283, -0.741, 6.049, 0.182, -0.871, 0.147, 0
1324837, -0.255, -0.991, 5.634, 0.191, -1.03, 0.127, 0
1324857, -0.532, -0.888, 5.202, 0.437, -1.236, 0.097, 0
1324877, -0.765, -1.705, 3.844, 0.635, -1.388, 0.024, 0
1324897, -1.06, -1.976, 2.086, 0.811, -1.378, -0.01, 0
1324917, -1.201, -2.474, 0.315, 0.938, -1.444, -0.073, 0
1324937, -1.41, -2.583, -1.901, 1.09, -1.499, -0.224, 0
1324957, -1.396, -2.578, -4.312, 1.246, -1.538, -0.152, 0
1324977, -2.523, -1.943, -5.728, 1.524, -0.987, 0.044, 0
1324997, -1.81, -2.15, -5.971, 1.652, -0.61, 0.233, 0
1325017, -0.675, -3.191, -6.293, 1.252, -0.739, 0.081, 0
1325037, -0.881, -2.484, -5.529, 0.791, -0.664, 0.279, 0
1325057, -0.38, -1.694, -4.702, 0.701, -0.324, 0.287, 0
1325077, -0.132, -1.376, -4.181, 0.521, -0.222, 0.174, 0
1325097, -0.012, -0.862, -3.332, 0.266, -0.117, 0.007, 0
1325117, -0.11, -0.318, -2.207, 0.033, -0.113, -0.09, 0
1325137, -0.205, 0.061, -1.333, -0.059, -0.072, -0.106, 0
1325157, -0.217, -0.138, -1.06, -0.015, -0.008, -0.037, 0
1325177, -0.136, -0.301, -1.021, -0.068, 0.025, 0.023, 0
1325197, -0.152, -0.275, -0.958, -0.137, 0.087, 0.05, 0
1325217, -0.261, -0.385, -0.864, -0.131, 0.144, 0.103, 0
1325237, -0.022, -0.48, -0.729, -0.114, 0.235, 0.119, 0
1325257, -0.106, -0.484, -0.891, -0.182, 0.172, 0.088, 0
1325277, -0.496, -0.301, -1.111, -0.209, 0.214, 0.116, 0
1325297, -0.446, -0.533, -1.265, -0.206, 0.384, 0.213, 0
1325317, -0.246, -0.643, -1.454, -0.29, 0.464, 0.238, 0
1325337, -0.373, -0.429, -1.81, -0.334, 0.457, 0.218, 0
1325357, -0.636, -0.598, -2.125, -0.319, 0.544, 0.22, 0
1325377, -0.482, -0.725, -2.108, -0.455, 0.602, 0.214, 1
1325397, -0.268, -0.519, -2.032, -0.467, 0.59, 0.158, 1
1325417, -0.554, -0.642, -2.384, -0.396, 0.585, 0.122, 1
1325437, -0.282, -0.958, -3.305, -0.203, 0.565, 0.065, 1
1325457, -0.923, -1.958, -4.253, -0.286, 0.466, -0.124, 1
1325477, -2.998, -1.222, -3.895, -0.833, 0.645, -0.158, 1
1325497, -2.002, -0.162, -1.901, -1.153, 1.241, 0.114, 1
1325517, -0.442, 0.081, -0.407, -0.922, 1.043, 0.186, 1
1325537, -0.241, -0.339, -0.131, -0.743, 0.747, 0.032, 1
1325557, -0.64, -0.478, 0.18, -0.685, 0.665, -0.018, 1
1325577, -0.879, -0.983, 0.632, -0.965, 0.737, 0.015, 1
1325597, -0.244, -0.356, 1.218, -0.977, 0.634, 0.003, 1
1325617, 0.179, 0.147, 1.185, -0.751, 0.424, -0.06, 1
1325637, -0.035, -0.157, 0.47, -0.575, 0.265, -0.103, 1
1325657, -0.519, -0.56, -0.078, -0.63, 0.304, -0.075, 1
1325677, -0.921, -0.55, -0.04, -0.816, 0.561, 0.026, 1
1325697, -0.251, -0.155, 0.377, -0.846, 0.678, 0.114, 1
1325717, 0.004, -0.055, 0.513, -0.714, 0.603, 0.084, 1
1325737, -0.139, -0.184, 0.719, -0.666, 0.576, 0.06, 1
1325757, -0.088, -0.198, 0.774, -0.618, 0.581, 0.023, 1
1325777, -0.21, -0.183, 0.83, -0.585, 0.646, 0.015, 1
1325797, -0.202, -0.247, 0.999, -0.654, 0.682, 0.037, 1
1325817, -0.222, -0.265, 1.373, -0.742, 0.644, 0.034, 1
1325837, -0.325, 0.18, 2.16, -0.671, 0.631, 0.029, 1
1325857, 0.146, 0.325, 2.497, -0.436, 0.481, 0.012, 1
1325877, 0.265, -0.089, 2.07, -0.23, 0.204, -0.084, 1
1325897, -0.146, -0.365, 1.292, -0.203, 0.105, -0.139, 1
1325917, -0.74, -0.311, 1.196, -0.342, 0.331, -0.111, 1
1325937, -0.434, 0.043, 1.304, -0.321, 0.494, -0.039, 1
1325957, 0.023, -0.076, 1.082, -0.254, 0.326, -0.078, 1
1325977, 0.077, -0.195, 0.506, -0.177, 0.089, -0.138, 1
1325997, -0.354, -0.128, 0.293, -0.158, 0.133, -0.104, 1
1326017, -0.625, -0.123, 0.735, -0.196, 0.373, -0.045, 1
1326037, -0.264, -0.124, 0.83, -0.212, 0.332, 0.004, 1
1326057, -0.218, -0.075, 0.494, -0.236, 0.103, 0.0, 1
1326077, -0.462, -0.088, 0.128, -0.134, -0.031, 0.004, 1
1326097, -0.42, -0.422, -0.161, -0.065, 0.052, 0.015, 1
1326117, -0.172, -0.509, -0.24, -0.1, 0.149, 0.054, 1
1326137, 0.007, -0.511, -0.147, -0.145, 0.163, 0.039, 1
1326157, 0.111, -0.412, -0.292, -0.218, 0.044, 0.018, 1
1326177, -0.192, -0.088, -0.315, -0.221, -0.015, 0.007, 1
1326197, -0.246, -0.091, -0.153, -0.125, 0.116, 0.023, 1
1326217, 0.073, -0.225, 0.153, -0.109, 0.223, 0.058, 1
1326237, 0.043, -0.236, 0.418, -0.181, 0.111, 0.036, 1
1326257, -0.242, -0.003, 0.306, -0.188, -0.018, 0.023, 1
1326277, -0.199, -0.128, 0.083, -0.074, -0.009, 0.035, 1
1326297, -0.096, -0.359, -0.069, -0.032, 0.018, 0.041, 1
1326317, -0.033, -0.315, -0.029, -0.094, 0.016, 0.039, 1
1326337, -0.033, -0.1, 0.206, -0.13, 0.041, 0.063, 1
1326357, -0.03, -0.089, 0.442, -0.09, 0.035, 0.064, 1
1326377, -0.123, -0.185, 0.61, 0.0, 0.007, 0.032, 1
1326397, -0.028, -0.285, 0.542, 0.0, -0.032, 0.055, 1
1326417, -0.035, -0.119, 0.438, -0.047, -0.094, 0.06, 1
1326437, -0.259, -0.04, 0.361, 0.004, -0.108, 0.046, 1
1326457, -0.161, 0.07, 0.599, 0.053, 0.037, 0.115, 1
1326477, 0.072, 0.029, 1.319, 0.146, 0.095, 0.161, 0
1326497, -0.081, -0.109, 1.758, 0.131, -0.042, 0.174, 0
1326517, -0.458, -0.269, 1.061, 0.117, -0.067, 0.207, 0
1326537, -0.071, -0.492, -0.375, 0.16, -0.127, 0.216, 0
1326557, -0.182, -0.711, -1.125, -0.011, 0.009, 0.235, 0
1326577, 0.036, -0.561, -0.829, -0.207, 0.166, 0.258, 0
1326597, 0.226, -0.236, -0.23, -0.248, 0.081, 0.205, 0
1326617, -0.047, 0.015, 0.245, -0.135, 0.016, 0.165, 0
1326637, -0.124, 0.048, 0.668, 0.013, -0.05, 0.175, 0
1326657, -0.196, -0.15, 1.163, 0.076, -0.113, 0.194, 0
1326677, -0.193, -0.281, 1.764, 0.068, -0.221, 0.217, 0
1326697, -0.315, -0.252, 2.22, 0.104, -0.361, 0.228, 0
1326717, -0.452, -0.151, 2.895, 0.196, -0.406, 0.249, 0
1326737, -0.236, -0.185, 3.655, 0.27, -0.501, 0.264, 0
1326757, -0.213, -0.048, 4.202, 0.332, -0.525, 0.304, 0
1326777, 0.293, -0.174, 4.683, 0.334, -0.624, 0.292, 0
1326797, 0.201, -0.561, 4.745, 0.275, -0.841, 0.255, 0
1326817, -0.136, -0.701, 4.748, 0.337, -0.966, 0.181, 0
1326837, -0.194, -0.794, 4.825, 0.518, -1.064, 0.116, 0
1326857, -0.287, -0.99, 4.363, 0.771, -1.194, 0.006, 0
1326877, -0.653, -1.611, 2.778, 0.996, -1.361, 0.065, 0
1326897, -1.475, -1.901, 0.55, 1.226, -1.474, 0.064, 0
1326917, -1.426, -2.538, -1.978, 1.422, -1.527, 0.069, 0
1326937, -2.14, -2.616, -3.833, 1.581, -1.402, 0.044, 0
1326957, -1.739, -3.627, -5.452, 1.472, -1.325, 0.012, 0
1326977, -1.35, -4.273, -6.599, 0.749, -1.486, -0.121, 0
1326997, -1.53, -2.65, -6.775, 0.862, -1.014, -0.05, 0
1327017, -1.004, -2.427, -6.846, 0.808, -0.675, -0.058, 0
1327037, -0.325, -1.972, -6.152, 0.538, -0.316, -0.103, 0
1327057, -0.196, -1.204, -4.737, 0.207, -0.189, -0.084, 0
1327077, -0.144, -0.571, -3.165, -0.106, 0.018, -0.175, 0
1327097, -0.095, 0.059, -1.608, -0.232, 0.205, -0.135, 0
1327117, -0.079, -0.098, -0.712, -0.197, 0.266, -0.04, 0
1327137, -0.104, -0.063, -0.216, -0.215, 0.257, 0.038, 0
1327157, -0.221, -0.225, 0.066, -0.171, 0.303, 0.126, 0
1327177, 0.043, -0.439, 0.26, -0.153, 0.351, 0.187, 0
1327197, 0.046, -0.46, 0.255, -0.124, 0.293, 0.148, 0
1327217, -0.087, -0.716, -0.07, -0.085, 0.208, 0.12, 0
1327237, -0.3, -0.608, -0.34, -0.118, 0.183, 0.071, 0
1327257, -0.472, -0.564, -0.629, -0.143, 0.211, 0.062, 0
1327277, -0.838, -0.401, -0.728, -0.244, 0.251, 0.103, 0
1327297, -0.555, -0.186, -0.764, -0.266, 0.329, 0.195, 0
1327317, -0.057, -0.696, -1.363, -0.229, 0.287, 0.223, 0
1327337, 0.095, -1.262, -2.081, -0.337, 0.174, 0.109, 1
1327357, -0.246, -0.701, -1.964, -0.524, 0.175, 0.012, 1
1327377, -0.579, -0.479, -1.574, -0.575, 0.291, -0.022, 1
1327397, -0.594, -0.059, -1.071, -0.467, 0.342, -0.042, 1
1327417, -0.265, 0.199, -1.045, -0.156, 0.3, -0.042, 1
1327437, -0.489, -1.115, -1.975, 0.15, 0.211, -0.051, 1
1327457, -0.633, -1.847, -2.084, -0.128, 0.251, -0.092, 1
1327477, -0.696, -1.284, -1.669, -0.715, 0.411, -0.163, 1
1327497, -0.231, -0.391, -1.233, -0.669, 0.389, -0.132, 1
1327517, -0.173, -0.428, -1.305, -0.481, 0.21, -0.177, 1
1327537, -0.302, -0.459, -1.318, -0.361, 0.037, -0.15, 1
1327557, -0.835, -0.941, -1.927, -0.414, 0.12, -0.073, 1
1327577, -0.567, -0.887, -2.245, -0.541, 0.306, 0.007, 1
1327597, -0.756, -0.927, -2.182, -0.732, 0.589, -0.023, 1
1327617, -0.71, -0.69, -1.478, -0.867, 0.808, 0.036, 1
1327637, -0.42, -0.763, -0.942, -0.897, 0.763, 0.013, 1
1327657, -0.427, -0.285, -0.264, -0.852, 0.709, 0.0, 1
1327677, -0.526, 0.025, 0.118, -0.707, 0.721, 0.016, 1
1327697, -0.41, -0.248, 0.222, -0.617, 0.718, -0.028, 1
1327717, -0.789, -0.466, 0.698, -0.739, 0.839, 0.025, 1
1327737, -0.722, -0.081, 1.732, -0.879, 1.058, 0.148, 1
1327757, -0.024, 0.255, 2.788, -0.886, 1.006, 0.186, 1
1327777, 0.478, 0.341, 2.837, -0.682, 0.652, 0.106, 1
1327797, 0.18, 0.439, 2.638, -0.43, 0.406, 0.021, 1
1327817, -0.191, 0.045, 2.448, -0.324, 0.372, 0.027, 1
1327837, -0.138, -0.365, 2.374, -0.442, 0.406, 0.034, 1
1327857, -0.069, -0.263, 2.323, -0.553, 0.378, 0.046, 1
1327877, -0.01, 0.155, 2.3, -0.441, 0.307, 0.07, 1
1327897, 0.335, 0.059, 2.086, -0.248, 0.069, 0.026, 1
1327917, 0.172, -0.278, 1.415, -0.116, -0.089, -0.048, 1
1327937, -0.174, -0.309, 0.706, -0.109, 0.012, -0.023, 1
1327957, -0.288, -0.349, 0.361, -0.29, 0.308, 0.092, 1
1327977, 0.092, -0.248, 0.678, -0.387, 0.301, 0.114, 1
1327997, -0.103, -0.089, 0.735, -0.408, 0.131, 0.121, 1
1328017, -0.319, 0.156, 0.956, -0.226, 0.052, 0.11, 1
1328037, -0.298, -0.404, 0.74, -0.018, 0.136, 0.153, 1
1328057, -0.055, -0.718, 0.552, -0.046, 0.126, 0.142, 1
1328077, -0.048, -0.39, 0.243, -0.161, 0.061, 0.12, 1
1328097, -0.003, -0.271, -0.121, -0.077, 0.017, 0.132, 1
1328117, -0.047, -0.397, -0.414, 0.021, 0.023, 0.14, 1
1328137, -0.055, -0.515, -0.581, 0.004, 0.039, 0.119, 1
1328157, -0.244, -0.386, -0.494, -0.027, 0.108, 0.086, 1
1328177, -0.114, -0.303, -0.243, -0.048, 0.192, 0.087, 1
1328197, 0.027, -0.113, -0.246, -0.152, 0.197, 0.094, 0
1328217, -0.149, 0.101, -0.184, -0.221, 0.124, 0.118, 0
1328237, 0.04, 0.153, -0.072, -0.124, 0.109, 0.136, 0
1328257, -0.017, -0.105, -0.162, -0.005, 0.057, 0.104, 0
1328277, -0.028, -0.316, -0.273, -0.057, 0.05, 0.092, 0
1328297, -0.032, -0.196, -0.249, -0.194, 0.05, 0.095, 0
1328317, -0.077, 0.095, -0.131, -0.206, 0.075, 0.076, 0
1328337, 0.1, -0.046, -0.1, -0.095, 0.098, 0.069, 0
1328357, 0.0, -0.039, -0.203, -0.059, 0.048, 0.036, 0
1328377, -0.041, -0.095, -0.196, -0.075, 0.064, 0.046, 0
1328397, -0.014, -0.071, -0.009, -0.134, 0.083, 0.045, 0
1328417, -0.1, 0.009, 0.142, -0.171, 0.094, 0.054, 0
1328437, -0.03, -0.025, 0.354, -0.143, 0.083, 0.067, 0
1328457, -0.132, 0.016, 0.555, -0.049, 0.061, 0.067, 0
1328477, -0.022, -0.093, 0.772, -0.005, 0.029, 0.067, 0
1328497, -0.044, -0.134, 0.819, 0.01, 0.014, 0.059, 0
1328517, 0.117, -0.187, 0.998, -0.011, -0.007, 0.038, 0
1328537, -0.007, 0.014, 1.72, -0.012, -0.015, 0.051, 0
1328557, -0.153, 0.526, 3.133, 0.081, -0.007, 0.067, 0
1328577, -0.258, 0.552, 4.361, 0.138, -0.021, 0.119, 0
1328597, -0.13, 0.466, 5.426, 0.178, -0.171, 0.117, 0
1328617, 0.09, 0.121, 5.979, 0.157, -0.521, 0.083, 0
1328637, -0.422, 0.346, 6.219, 0.288, -0.764, 0.032, 0
1328657, -0.787, 0.365, 6.185, 0.59, -0.826, 0.053, 0
1328677, -1.076, -0.343, 5.447, 0.817, -0.834, 0.094, 0
1328697, -1.185, -1.037, 4.271, 0.937, -0.885, 0.119, 0
1328717, -1.302, -1.842, 2.507, 0.987, -1.02, 0.031, 0
1328737, -1.557, -2.437, 1.084, 0.945, -1.23, -0.099, 0
1328757, -1.634, -2.958, -0.062, 0.868, -1.557, -0.13, 0
1328777, -2.352, -1.845, -1.566, 1.271, -1.802, 0.002, 0
1328797, -3.451, -2.363, -3.98, 1.708, -1.358, 0.45, 0
1328817, -2.28, -3.464, -5.966, 1.615, -1.032, 0.644, 0
1328837, -0.338, -4.018, -7.391, 1.114, -1.199, 0.315, 0
1328857, -0.456, -3.312, -7.979, 0.522, -1.209, 0.197, 0
1328877, -1.022, -1.785, -7.163, 0.445, -0.551, 0.315, 0
1328897, -0.276, -1.667, -5.83, 0.438, -0.022, 0.361, 0
1328917, 0.836, -1.422, -4.63, 0.231, 0.051, 0.217, 0
1328937, 0.842, -0.73, -3.71, -0.055, 0.085, -0.004, 0
1328957, 0.22, -0.177, -1.711, -0.227, 0.194, -0.141, 0
1328977, -0.013, 0.116, -0.649, -0.311, 0.245, -0.152, 0
1328997, -0.017, 0.086, -0.21, -0.266, 0.257, -0.128, 0
1329017, -0.073, -0.051, -0.141, -0.249, 0.183, -0.101, 0
1329037, -0.164, -0.281, -0.017, -0.291, 0.089, -0.078, 0
1329057, -0.464, -0.323, 0.094, -0.336, 0.054, -0.059, 0
1329077, -0.411, -0.43, 0.216, -0.282, 0.103, 0.016, 0
1329097, -0.327, -0.76, 0.201, -0.244, 0.08, 0.034, 0
1329117, -0.42, -0.746, 0.095, -0.315, -0.024, 0.041, 1
1329137, -0.85, -0.393, 0.067, -0.344, -0.045, 0.072, 1
1329157, -0.443, -0.38, -0.032, -0.268, -0.061, 0.087, 1
1329177, -0.43, -0.493, -0.35, -0.13, -0.017, 0.076, 1
1329197, -0.325, -0.381, -0.488, -0.012, 0.122, 0.086, 1
1329217, -0.377, -0.936, -0.855, -0.005, 0.248, 0.098, 1
1329237, -0.044, -0.253, -0.966, -0.126, 0.211, 0.085, 1
1329257, -0.267, -0.21, -1.354, -0.133, 0.234, 0.106, 1
1329277, 0.081, -0.392, -1.744, -0.153, 0.289, 0.175, 1
1329297, -0.073, -0.605, -2.27, -0.145, 0.271, 0.179, 1
1329317, 0.051, -0.764, -2.754, -0.158, 0.361, 0.103, 1
1329337, 0.087, -1.07, -3.641, -0.197, 0.423, 0.032, 1
1329357, -0.014, -1.76, -4.421, -0.367, 0.464, -0.094, 1
1329377, -0.658, -1.393, -3.912, -0.796, 0.533, -0.257, 1
1329397, -0.809, -0.316, -3.083, -0.948, 0.67, -0.205, 1
1329417, -0.775, -0.498, -2.998, -0.637, 0.713, -0.144, 1
1329437, -0.778, -1.081, -3.084, -0.623, 0.66, -0.161, 1
1329457, -1.362, -1.535, -3.009, -0.86, 0.839, -0.144, 1
1329477, -1.536, -1.324, -2.155, -1.123, 1.147, -0.08, 1
1329497, -0.87, -0.956, -0.904, -1.217, 1.129, -0.058, 1
1329517, -0.467, -0.566, -0.151, -1.114, 0.9, -0.144, 1
1329537, -0.666, -0.703, 0.322, -1.074, 0.701, -0.198, 1
1329557, -0.889, -0.453, 0.686, -1.052, 0.718, -0.182, 1
1329577, -0.846, -0.494, 0.868, -1.01, 0.852, -0.131, 1
1329597, -0.506, -0.7, 1.225, -1.02, 0.802, -0.133, 1
1329617, -0.417, -0.387, 2.303, -1.049, 0.706, -0.147, 1
1329637, -0.382, -0.244, 2.836, -0.969, 0.563, -0.114, 1
1329657, -0.228, -0.126, 3.194, -0.797, 0.42, -0.118, 1
1329677, 0.177, -0.316, 3.043, -0.665, 0.126, -0.127, 1
1329697, 0.482, -0.417, 2.624, -0.592, -0.229, -0.218, 1
1329717, -0.165, -0.219, 2.399, -0.531, -0.322, -0.168, 1
1329737, -0.895, 0.086, 2.215, -0.43, 0.062, -0.042, 1
1329757, -0.537, -0.09, 2.17, -0.427, 0.456, 0.081, 1
1329777, 0.328, -0.366, 2.228, -0.513, 0.348, 0.056, 1
1329797, 0.162, -0.191, 2.009, -0.442, 0.113, -0.012, 1
1329817, -0.159, 0.0, 1.747, -0.233, 0.069, 0.001, 1
1329837, -0.227, -0.36, 1.439, -0.162, 0.17, 0.026, 1
1329857, -0.187, -0.4, 1.204, -0.208, 0.285, 0.083, 1
1329877, 0.038, -0.381, 1.124, -0.216, 0.253, 0.093, 1
1329897, 0.115, -0.329, 1.141, -0.146, 0.119, 0.075, 1
1329917, 0.001, -0.334, 0.649, -0.038, 0.076, 0.05, 1
1329937, -0.229, -0.494, -0.018, -0.069, 0.244, 0.108, 1
1329957, -0.037, -0.455, 0.067, -0.078, 0.237, 0.113, 1
1329977, -0.053, -0.141, 0.238, -0.077, 0.157, 0.113, 1
1329997, -0.065, -0.117, 0.335, -0.002, 0.071, 0.125, 1
1330017, -0.096, -0.379, 0.184, 0.045, 0.009, 0.122, 1
1330037, -0.092, -0.424, -0.24, -0.006, -0.042, 0.111, 1
1330057, -0.204, -0.046, -0.394, 0.015, -0.02, 0.108, 0
1330077, -0.111, -0.26, -0.388, 0.108, 0.091, 0.118, 0
1330097, 0.384, -0.282, -0.236, 0.114, 0.062, 0.112, 0
1330117, -0.064, -0.16, -0.347, 0.091, -0.02, 0.071, 0
1330137, -0.188, -0.195, -0.639, 0.025, 0.056, 0.103, 0
1330157, -0.054, -0.079, -0.662, -0.106, 0.139, 0.125, 0
1330177, -0.083, 0.201, -0.353, -0.128, 0.2, 0.108, 0
1330197, 0.011, -0.022, -0.211, -0.09, 0.219, 0.1, 0
1330217, -0.033, -0.025, -0.086, -0.13, 0.169, 0.085, 0
1330237, -0.045, -0.049, 0.045, -0.183, 0.159, 0.098, 0
1330257, -0.091, -0.001, 0.292, -0.227, 0.142, 0.113, 0
1330277, -0.046, -0.034, 0.447, -0.183, 0.116, 0.114, 0
1330297, -0.04, -0.098, 0.539, -0.075, 0.072, 0.097, 0
1330317, 0.01, -0.208, 0.639, 0.0, 0.022, 0.081, 0
1330337, -0.058, -0.235, 0.794, 0.023, -0.02, 0.051, 0
1330357, -0.125, -0.194, 1.242, -0.001, 0.004, 0.056, 0
1330377, -0.194, -0.039, 2.147, -0.032, 0.04, 0.084, 0
1330397, -0.11, 0.169, 3.325, -0.003, 0.047, 0.135, 0
1330417, -0.237, 0.201, 4.383, 0.043, -0.108, 0.162, 0
1330437, -0.319, 0.316, 5.243, 0.154, -0.268, 0.18, 0
1330457, -0.529, 0.291, 5.882, 0.343, -0.476, 0.196, 0
1330477, -0.788, 0.036, 6.041, 0.521, -0.608, 0.245, 0
1330497, -0.981, -0.117, 6.07, 0.67, -0.649, 0.335, 0
1330517, -0.66, -1.0, 5.667, 0.624, -0.863, 0.385, 0
1330537, -0.617, -1.227, 4.834, 0.656, -1.242, 0.321, 0
1330557, -1.336, -0.813, 3.437, 1.105, -1.33, 0.382, 0
1330577, -1.962, -0.992, 1.711, 1.654, -1.028, 0.535, 0
1330597, -0.987, -2.792, -0.042, 1.718, -1.067, 0.48, 0
1330617, -0.052, -3.982, -2.041, 1.097, -1.745, -0.022, 0
1330637, -2.486, -1.859, -3.723, 1.273, -1.711, 0.07, 0
1330657, -3.372, -0.733, -4.294, 2.123, -1.111, 0.613, 0
1330677, -2.134, -1.781, -5.117, 2.643, -0.996, 1.017, 0
1330697, -0.123, -4.244, -6.849, 2.136, -1.649, 0.861, 0
1330717, -0.552, -4.243, -7.98, 1.277, -1.835, 0.274, 0
1330737, -1.671, -2.319, -7.914, 0.855, -1.091, 0.166, 0
1330757, -0.627, -1.14, -6.718, 0.678, -0.451, 0.228, 0
1330777, 0.239, -1.451, -5.4, 0.343, -0.116, 0.161, 0
1330797, 0.888, -1.635, -3.768, -0.023, 0.048, 0.04, 0
1330817, 1.493, -1.832, -2.118, -0.322, 0.03, -0.227, 0
1330837, 0.813, -1.103, -0.896, -0.467, 0.025, -0.367, 0
1330857, 0.197, -0.357, -0.14, -0.393, 0.113, -0.274, 0
1330877, 0.041, -0.221, 0.23, -0.323, 0.177, -0.158, 0
1330897, -0.027, -0.234, 0.368, -0.217, 0.277, -0.052, 0
1330917, -0.141, -0.264, 0.297, -0.17, 0.313, -0.003, 0
1330937, -0.37, -0.093, 0.157, -0.13, 0.343, 0.017, 0
1330957, -0.361, 0.043, 0.139, -0.094, 0.327, 0.061, 0
1330977, -0.291, -0.025, 0.025, -0.08, 0.247, 0.067, 0
1330997, -0.623, -0.109, -0.164, -0.17, 0.149, 0.072, 1
1331017, -0.781, -0.189, -0.321, -0.254, 0.16, 0.054, 1
1331037, -0.594, 0.102, -0.397, -0.254, 0.207, -0.015, 1
1331057, -0.491, 0.289, -0.218, -0.108, 0.23, -0.066, 1
1331077, -0.222, -0.102, -0.213, 0.015, 0.241, -0.049, 1
1331097, 0.07, -0.168, -0.29, 0.013, 0.044, 0.036, 1
1331117, 0.162, -0.409, -0.661, -0.001, -0.15, 0.015, 1
1331137, -0.154, -0.589, -1.203, -0.018, -0.221, -0.038, 1
1331157, -0.499, -0.61, -1.596, -0.126, -0.028, -0.034, 1
1331177, -0.187, -0.407, -1.677, -0.205, 0.262, 0.054, 1
1331197, 0.32, -0.694, -1.762, -0.194, 0.387, 0.092, 1
1331217, 0.618, -1.077, -2.01, -0.275, 0.282, -0.042, 1
1331237, 0.253, -0.999, -2.387, -0.407, 0.062, -0.195, 1
1331257, -0.547, -0.669, -2.672, -0.41, 0.004, -0.216, 1
1331277, -0.902, -1.013, -2.968, -0.259, 0.257, -0.178, 1
1331297, -0.66, -1.776, -3.317, -0.282, 0.566, -0.128, 1
1331317, -0.068, -2.36, -3.354, -0.545, 0.607, -0.173, 1
1331337, -0.194, -2.409, -2.936, -0.937, 0.324, -0.373, 1
1331357, -1.339, -1.201, -2.083, -1.247, 0.141, -0.456, 1
1331377, -1.738, -0.45, -1.464, -0.899, 0.644, -0.249, 1
1331397, -1.126, -0.969, -1.236, -0.747, 0.888, -0.147, 1
1331417, -0.586, -1.589, -1.024, -0.963, 0.855, -0.242, 1
1331437, -0.277, -1.786, -0.787, -1.376, 0.602, -0.299, 1
1331457, -0.745, -0.928, -0.004, -1.58, 0.536, -0.251, 1
1331477, -0.891, 0.089, 0.834, -1.3, 0.772, -0.127, 1
1331497, -0.553, 0.06, 1.833, -1.105, 1.07, -0.018, 1
1331517, -0.055, -0.038, 2.777, -1.12, 1.138, 0.051, 1
1331537, 0.337, 0.24, 3.352, -1.116, 0.95, 0.07, 1
1331557, 0.744, 0.018, 2.971, -1.037, 0.436, -0.024, 1
1331577, 0.135, 0.161, 2.387, -0.91, 0.192, -0.096, 1
1331597, -0.474, 0.27, 2.376, -0.873, 0.397, 0.0, 1
1331617, -0.455, 0.362, 2.632, -0.911, 0.748, 0.132, 1
1331637, 0.165, 0.326, 2.508, -0.734, 0.693, 0.16, 1
1331657, 0.388, -0.215, 1.578, -0.519, 0.323, 0.014, 1
1331677, -0.529, -0.042, 1.491, -0.516, 0.363, 0.049, 1
1331697, -0.362, -0.181, 1.537, -0.544, 0.496, 0.155, 1
1331717, -0.028, -0.347, 1.319, -0.524, 0.447, 0.156, 1
1331737, 0.015, -0.251, 0.992, -0.435, 0.252, 0.112, 1
1331757, -0.146, -0.181, 0.927, -0.31, 0.159, 0.108, 1
1331777, -0.203, -0.053, 1.203, -0.147, 0.16, 0.123, 1
1331797, -0.104, -0.229, 1.298, -0.032, 0.105, 0.117, 1
1331817, -0.14, -0.571, 1.104, -0.067, 0.001, 0.11, 1
1331837, -0.219, -0.65, 0.773, -0.122, -0.102, 0.116, 1
1331857, -0.549, -0.579, 0.33, -0.166, -0.063, 0.169, 1
1331877, -0.242, -0.475, -0.178, -0.075, 0.073, 0.167, 1
1331897, -0.126, -0.795, -0.188, -0.08, 0.088, 0.185, 1
1331917, -0.121, -0.5, -0.044, -0.182, 0.032, 0.194, 1
1331937, -0.109, -0.318, -0.017, -0.178, -0.01, 0.187, 1
1331957, -0.176, -0.367, -0.175, -0.102, 0.035, 0.156, 1
1331977, -0.216, -0.489, -0.186, -0.088, 0.081, 0.163, 0
1331997, 0.342, -0.502, -0.261, -0.115, -0.031, 0.175, 0
1332017, -0.167, -0.208, -0.242, -0.125, -0.114, 0.132, 0
1332037, -0.059, -0.213, -0.224, -0.129, -0.042, 0.154, 0
1332057, 0.001, -0.29, -0.405, -0.174, 0.003, 0.139, 0
1332077, 0.077, -0.221, -0.305, -0.207, 0.009, 0.089, 0
1332097, -0.114, -0.034, -0.236, -0.211, 0.051, 0.068, 0
1332117, -0.032, -0.046, -0.099, -0.16, 0.155, 0.067, 0
1332137, 0.143, -0.248, 0.016, -0.124, 0.161, 0.05, 0
1332157, -0.024, -0.065, 0.173, -0.241, 0.082, 0.046, 0
1332177, -0.119, 0.144, 0.491, -0.251, 0.078, 0.071, 0
1332197, -0.064, 0.129, 0.836, -0.143, 0.087, 0.093, 0
1332217, -0.054, -0.101, 1.175, -0.03, 0.094, 0.095, 0
1332237, 0.072, -0.304, 1.764, -0.053, 0.045, 0.085, 0
1332257, -0.255, 0.076, 2.737, -0.175, -0.036, 0.087, 0
1332277, -0.387, 0.177, 3.739, -0.16, -0.029, 0.128, 0
1332297, -0.245, 0.199, 4.725, -0.089, -0.122, 0.181, 0
1332317, -0.156, -0.078, 5.225, 0.015, -0.304, 0.197, 0
1332337, -0.204, -0.417, 5.346, 0.012, -0.516, 0.193, 0
1332357, -0.396, -0.797, 5.211, -0.088, -0.671, 0.178, 0
1332377, -0.291, -0.879, 5.226, -0.01, -0.852, 0.11, 0
1332397, -0.579, -0.754, 5.037, 0.373, -1.024, 0.037, 0
1332417, -0.708, -1.539, 4.065, 0.594, -1.131, 0.012, 0
1332437, -0.672, -2.136, 2.73, 0.575, -1.32, 0.005, 0
1332457, -1.645, -2.302, 1.14, 0.728, -1.256, -0.003, 0
1332477, -1.736, -2.057, -0.005, 1.182, -1.156, 0.072, 0
1332497, -1.104, -2.634, -1.497, 1.463, -1.346, -0.015, 0
1332517, -1.468, -2.605, -3.278, 1.587, -1.461, -0.073, 0
1332537, -2.111, -2.977, -5.627, 1.432, -1.296, -0.028, 0
1332557, -1.495, -2.953, -7.181, 1.128, -1.123, 0.055, 0
1332577, -0.934, -2.541, -7.72, 0.678, -1.11, -0.061, 0
1332597, -1.507, -0.902, -7.605, 0.551, -0.81, 0.023, 0
1332617, -1.24, -0.59, -7.142, 0.531, -0.299, 0.222, 0
1332637, -0.556, -0.595, -5.978, 0.35, 0.135, 0.328, 0
1332657, 0.3, -0.914, -4.764, 0.03, 0.302, 0.203, 0
1332677, 0.32, -0.597, -3.281, -0.219, 0.343, 0.067, 0
1332697, 0.106, -0.268, -1.983, -0.264, 0.388, 0.043, 0
1332717, 0.04, -0.202, -0.917, -0.217, 0.36, 0.056, 0
1332737, -0.074, -0.207, -0.325, -0.214, 0.313, 0.06, 0
1332757, -0.295, -0.218, -0.002, -0.24, 0.293, 0.073, 0
1332777, -0.283, -0.236, 0.32, -0.232, 0.302, 0.116, 0
1332797, -0.106, -0.383, 0.576, -0.205, 0.246, 0.113, 0
1332817, -0.233, -0.368, 0.65, -0.134, 0.185, 0.088, 0
1332837, -0.225, -0.616, 0.577, -0.135, 0.116, 0.009, 0
1332857, -0.43, -0.298, 0.282, -0.106, 0.071, 0.008, 0
1332877, -0.274, -0.262, 0.016, -0.059, 0.072, 0.027, 0
1332897, -0.255, -0.17, -0.27, -0.036, 0.054, 0.034, 0
1332917, -0.072, -0.31, -0.666, 0.01, 0.024, 0.035, 0
1332937, 0.005, -0.224, -0.664, -0.007, -0.024, 0.017, 1
1332957, -0.333, -0.31, -0.709, -0.051, -0.029, 0.009, 1
1332977, -0.161, 0.013, -0.587, -0.092, 0.017, 0.036, 1
1332997, -0.348, 0.138, -0.631, 0.04, 0.044, -0.032, 1
1333017, -0.832, -0.413, -1.417, -0.004, 0.164, 0.032, 1
1333037, -0.165, -0.385, -1.573, -0.084, 0.406, 0.128, 1
1333057, 0.049, -0.49, -1.628, -0.176, 0.406, 0.081, 1
1333077, -0.282, -0.357, -1.496, -0.244, 0.389, 0.029, 1
1333097, -0.245, -0.123, -1.363, -0.252, 0.405, 0.023, 1
1333117, -0.351, -0.198, -1.992, -0.155, 0.385, 0.014, 1
1333137, -0.627, -0.863, -3.078, -0.128, 0.398, 0.017, 1
1333157, -0.567, -0.795, -3.311, -0.343, 0.571, 0.021, 1
1333177, -0.123, -0.567, -3.049, -0.492, 0.653, 0.026, 1
1333197, -0.161, -0.554, -2.921, -0.563, 0.496, -0.06, 1
1333217, -0.579, -0.241, -2.87, -0.652, 0.324, -0.116, 1
1333237, -1.242, -0.153, -3.057, -0.624, 0.42, -0.064, 1
1333257, -1.167, -0.618, -3.176, -0.526, 0.734, 0.036, 1
1333277, -0.847, -0.963, -2.644, -0.587, 0.945, 0.074, 1
1333297, -0.521, -0.772, -1.456, -0.789, 0.959, 0.053, 1
1333317, -0.259, -0.288, -0.291, -0.878, 0.873, 0.011, 1
1333337, -0.112, -0.038, -0.06, -0.526, 0.583, -0.128, 1
1333357, -0.531, -0.466, -0.03, -0.306, 0.431, -0.229, 1
1333377, -0.992, -1.044, 0.215, -0.435, 0.471, -0.199, 1
1333397, -1.073, -0.987, 1.147, -0.821, 0.712, -0.118, 1
1333417, -0.805, -0.631, 2.173, -1.094, 0.88, -0.045, 1
1333437, -0.214, -0.301, 2.451, -1.018, 0.772, -0.087, 1
1333457, -0.131, -0.074, 2.632, -0.753, 0.575, -0.166, 1
1333477, 0.04, -0.171, 2.264, -0.488, 0.384, -0.184, 1
1333497, -0.184, -0.565, 2.053, -0.482, 0.348, -0.229, 1
1333517, -0.436, -0.394, 2.336, -0.648, 0.602, -0.164, 1
1333537, -0.201, -0.359, 2.793, -0.806, 0.707, -0.12, 1
1333557, -0.014, -0.026, 3.049, -0.709, 0.547, -0.135, 1
1333577, 0.123, 0.309, 2.981, -0.43, 0.237, -0.16, 1
1333597, 0.042, 0.138, 2.238, -0.144, -0.069, -0.202, 1
1333617, -0.345, -0.097, 1.436, 0.014, -0.116, -0.204, 1
1333637, -0.563, -0.285, 0.933, 0.004, 0.106, -0.136, 1
1333657, -0.159, -0.331, 0.947, -0.091, 0.27, -0.089, 1
1333677, -0.113, -0.258, 1.351, -0.2, 0.268, -0.023, 1
1333697, 0.062, -0.044, 1.933, -0.25, 0.103, -0.001, 1
1333717, -0.014, 0.093, 2.013, -0.176, -0.18, -0.021, 1
1333737, -0.448, -0.011, 1.426, -0.05, -0.276, -0.021, 1
1333757, -0.731, -0.467, 0.507, -0.05, -0.163, 0.008, 1
1333777, -0.591, -0.61, -0.003, -0.155, -0.001, 0.07, 1
1333797, -0.188, -0.525, -0.347, -0.136, 0.051, 0.135, 1
1333817, 0.136, -0.483, -0.474, -0.07, -0.034, 0.065, 1
1333837, -0.059, -0.545, -0.484, -0.106, 0.04, 0.092, 1
1333857, -0.06, -0.33, -0.358, -0.121, 0.073, 0.054, 1
1333877, -0.135, -0.123, -0.302, -0.101, 0.115, 0.065, 1
1333897, -0.076, -0.159, -0.187, -0.066, 0.153, 0.087, 1
1333917, -0.121, -0.243, -0.188, -0.069, 0.116, 0.092, 1
1333937, -0.053, -0.079, -0.075, -0.117, 0.092, 0.129, 0
1333957, -0.123, -0.073, -0.238, -0.159, 0.078, 0.175, 0
1333977, 0.002, -0.065, -0.228, -0.16, 0.124, 0.223, 0
1333997, 0.203, -0.22, -0.259, -0.189, 0.047, 0.186, 0
1334017, -0.041, -0.09, -0.403, -0.294, -0.049, 0.172, 0
1334037, -0.015, 0.041, -0.308, -0.282, -0.006, 0.169, 0
1334057, -0.026, -0.055, -0.2, -0.226, 0.103, 0.136, 0
1334077, 0.091, -0.055, -0.095, -0.225, 0.13, 0.128, 0
1334097, 0.069, 0.053, 0.111, -0.16, 0.06, 0.102, 0
1334117, -0.023, -0.066, 0.294, -0.077, -0.015, 0.081, 0
1334137, -0.118, -0.037, 0.582, -0.05, 0.001, 0.083, 0
1334157, -0.031, -0.178, 0.844, -0.029, 0.037, 0.104, 0
1334177, -0.118, -0.07, 1.298, -0.076, 0.045, 0.133, 0
1334197, -0.088, 0.099, 2.181, -0.065, 0.072, 0.169, 0
1334217, -0.11, 0.218, 3.379, -0.047, 0.03, 0.197, 0
1334237, -0.364, 0.264, 4.473, -0.019, -0.073, 0.229, 0
1334257, -0.379, 0.179, 5.316, 0.047, -0.174, 0.29, 0
1334277, -0.339, -0.306, 5.527, 0.098, -0.401, 0.341, 0
1334297, -0.344, -0.559, 5.065, 0.097, -0.645, 0.373, 0
1334317, -0.48, -0.929, 4.553, 0.28, -0.824, 0.355, 0
1334337, -0.36, -1.149, 4.382, 0.318, -0.805, 0.351, 0
1334357, -0.402, -1.097, 4.095, 0.483, -0.787, 0.315, 0
1334377, -0.288, -1.393, 3.416, 0.631, -0.888, 0.27, 0
1334397, -0.703, -1.431, 2.38, 0.847, -1.001, 0.215, 0
1334417, -0.955, -1.976, 1.121, 0.997, -1.039, 0.095, 0
1334437, -0.63, -2.334, -0.757, 1.105, -1.245, -0.021, 0
1334457, -1.866, -2.156, -2.62, 1.243, -1.031, 0.026, 0
1334477, -0.941, -2.799, -3.894, 1.241, -0.94, 0.07, 0
1334497, -0.136, -3.043, -5.412, 1.093, -1.195, -0.104, 0
1334517, -1.576, -2.013, -6.478, 1.167, -0.84, 0.029, 0
1334537, -1.35, -1.154, -6.345, 1.291, -0.373, 0.321, 0
1334557, 0.13, -2.749, -6.674, 0.78, -0.37, 0.139, 0
1334577, 0.568, -2.399, -6.298, 0.025, -0.577, -0.234, 0
1334597, -0.469, -0.387, -5.314, -0.025, -0.318, -0.178, 0
1334617, -0.326, -0.049, -4.181, 0.131, 0.076, -0.066, 0
1334637, 0.043, -0.128, -3.171, 0.028, 0.196, -0.098, 0
1334657, -0.153, -0.001, -2.246, -0.166, 0.235, -0.087, 0
1334677, -0.206, 0.138, -1.178, -0.224, 0.276, -0.036, 0
1334697, -0.077, 0.051, -0.398, -0.167, 0.212, 0.009, 0
1334717, -0.147, -0.165, -0.059, -0.081, 0.163, 0.034, 0
1334737, -0.238, -0.365, 0.082, -0.061, 0.163, 0.04, 0
1334757, -0.268, -0.611, 0.039, -0.128, 0.146, 0.012, 0
1334777, -0.371, -0.472, 0.151, -0.16, 0.119, 0.022, 0
1334797, -0.404, -0.298, 0.289, -0.088, 0.091, 0.086, 0
1334817, -0.28, -0.423, -0.091, -0.075, 0.075, 0.103, 0
1334837, -0.245, -0.503, -0.226, -0.065, 0.072, 0.102, 0
1334857, -0.167, -0.384, -0.223, -0.116, 0.076, 0.097, 0
1334877, -0.141, -0.379, -0.228, -0.193, 0.073, 0.124, 1
1334897, -0.08, -0.339, -0.249, -0.224, 0.073, 0.136, 1
1334917, 0.177, -0.108, -0.187, -0.204, 0.042, 0.064, 1
1334937, 0.362, 0.231, -0.182, -0.023, 0.032, -0.051, 1
1334957, -0.193, -0.588, -0.097, 0.119, 0.021, -0.081, 1
1334977, -0.423, -0.636, -0.305, 0.006, 0.062, -0.018, 1
1334997, -0.191, -0.192, -0.175, -0.14, 0.123, 0.017, 1
1335017, -0.067, -0.17, -0.179, -0.154, 0.104, 0.061, 1
1335037, 0.067, -0.241, -0.274, -0.12, 0.061, 0.072, 1
1335057, -0.061, -0.307, -0.399, -0.074, 0.045, 0.059, 1
1335077, -0.105, -0.201, -0.668, -0.057, 0.119, 0.04, 1
1335097, -0.106, -0.319, -1.33, -0.096, 0.13, 0.028, 1
1335117, -0.239, -0.335, -1.745, -0.254, 0.115, 0.029, 1
1335137, -0.277, -0.034, -1.918, -0.392, 0.126, 0.082, 1
1335157, -0.327, 0.117, -2.642, -0.329, 0.202, 0.122, 1
1335177, -0.211, -0.508, -3.802, -0.199, 0.278, 0.16, 1
1335197, -0.18, -1.373, -4.696, -0.352, 0.289, 0.153, 1
1335217, -0.381, -1.18, -4.849, -0.578, 0.424, 0.095, 1
1335237, -0.537, -0.961, -5.07, -0.654, 0.544, -0.032, 1
1335257, -0.007, -1.699, -5.476, -0.731, 0.455, -0.227, 1
