timestamp, accX, accY, accZ, gyroX, gyroY, gyroZ, button
962077, -0.055, 0.01, -0.146, -0.048, -0.012, 0.006, 1
962097, -0.048, 0.002, -0.19, -0.039, -0.003, 0.027, 1
962117, -0.03, -0.022, -0.209, -0.029, 0.018, 0.046, 1
962137, 0.059, -0.087, -0.253, -0.045, 0.024, 0.061, 1
962157, -0.017, -0.035, -0.34, -0.068, -0.02, 0.05, 1
962177, -0.048, -0.024, -0.352, -0.065, 0.004, 0.069, 1
962197, 0.03, -0.062, -0.268, -0.075, 0.034, 0.084, 1
962217, 0.012, -0.052, -0.235, -0.074, 0.027, 0.08, 1
962237, -0.003, -0.038, -0.164, -0.064, 0.029, 0.08, 1
962257, -0.029, -0.027, -0.097, -0.075, 0.028, 0.081, 1
962277, -0.006, -0.037, -0.135, -0.083, 0.02, 0.074, 1
962297, -0.015, -0.024, -0.163, -0.078, 0.021, 0.067, 1
962317, -0.062, -0.042, -0.244, -0.073, 0.059, 0.081, 1
962337, 0.033, -0.035, -0.219, -0.078, 0.065, 0.08, 1
962357, 0.006, -0.067, -0.198, -0.105, 0.027, 0.063, 1
962377, -0.046, -0.037, -0.219, -0.126, 0.036, 0.058, 1
962397, -0.05, -0.013, -0.201, -0.107, 0.07, 0.065, 1
962417, -0.024, -0.049, -0.219, -0.102, 0.077, 0.067, 1
962437, -0.003, -0.119, -0.168, -0.135, 0.056, 0.049, 1
962457, -0.057, -0.025, -0.18, -0.133, 0.069, 0.048, 1
962477, -0.036, -0.041, -0.092, -0.134, 0.075, 0.054, 1
962497, -0.041, -0.03, 0.003, -0.135, 0.068, 0.058, 1
962517, -0.038, -0.018, -0.027, -0.1, 0.082, 0.069, 1
962537, 0.046, -0.108, 0.014, -0.089, 0.067, 0.063, 1
962557, -0.012, -0.069, -0.072, -0.086, 0.056, 0.04, 1
962577, -0.029, -0.037, -0.151, -0.087, 0.065, 0.036, 1
962597, -0.033, -0.02, -0.093, -0.086, 0.052, 0.029, 1
962617, -0.031, -0.027, -0.153, -0.075, 0.047, 0.025, 1
962637, -0.032, -0.032, -0.193, -0.09, 0.042, 0.026, 1
962657, -0.068, 0.025, -0.106, -0.074, 0.062, 0.037, 1
962677, -0.034, -0.021, -0.116, -0.069, 0.075, 0.042, 1
962697, 0.005, -0.047, -0.123, -0.107, 0.045, 0.032, 1
962717, -0.034, -0.017, -0.134, -0.11, 0.032, 0.037, 1
962737, -0.022, -0.024, -0.134, -0.084, 0.043, 0.054, 1
962757, 0.006, -0.071, -0.19, -0.098, 0.035, 0.055, 1
962777, -0.032, -0.048, -0.23, -0.105, 0.039, 0.053, 1
962797, -0.035, -0.035, -0.221, -0.111, 0.052, 0.056, 1
962817, -0.012, -0.04, -0.218, -0.118, 0.039, 0.054, 1
962837, -0.089, 0.007, -0.182, -0.131, 0.033, 0.056, 1
962857, -0.034, -0.013, -0.025, -0.125, 0.07, 0.084, 1
962877, 0.023, -0.05, 0.075, -0.108, 0.054, 0.094, 1
962897, 0.004, -0.024, 0.047, -0.118, 0.004, 0.086, 1
962917, -0.031, -0.052, -0.023, -0.103, -0.012, 0.103, 1
962937, 0.01, -0.076, -0.14, -0.095, 0.005, 0.097, 1
962957, 0.043, -0.105, -0.177, -0.116, -0.012, 0.091, 1
962977, -0.012, -0.041, -0.218, -0.144, -0.05, 0.064, 1
962997, -0.058, -0.021, -0.31, -0.13, -0.063, 0.054, 1
963017, -0.034, -0.043, -0.342, -0.123, -0.038, 0.067, 1
963037, -0.052, -0.037, -0.297, -0.131, -0.009, 0.073, 1
963057, -0.035, -0.034, -0.192, -0.15, 0.004, 0.094, 1
963077, -0.038, -0.011, -0.077, -0.174, 0.008, 0.109, 1
963097, -0.036, -0.039, -0.09, -0.158, 0.035, 0.122, 1
963117, 0.048, -0.09, -0.123, -0.152, 0.055, 0.133, 1
963137, 0.04, -0.132, -0.169, -0.142, 0.043, 0.139, 1
963157, -0.003, -0.091, -0.205, -0.155, 0.048, 0.135, 1
963177, -0.006, -0.041, -0.163, -0.16, 0.041, 0.147, 1
963197, -0.024, -0.032, -0.019, -0.179, 0.001, 0.162, 1
963217, -0.079, -0.032, -0.044, -0.172, -0.029, 0.167, 1
963237, -0.046, -0.049, -0.027, -0.107, 0.042, 0.161, 1
963257, 0.067, -0.143, -0.082, -0.105, 0.054, 0.13, 1
963277, 0.029, -0.127, -0.147, -0.119, 0.032, 0.097, 1
963297, -0.047, -0.068, -0.197, -0.145, 0.052, 0.098, 1
963317, -0.126, 0.022, -0.151, -0.108, 0.117, 0.102, 1
963337, -0.021, 0.007, -0.03, -0.055, 0.142, 0.089, 1
963357, 0.006, -0.03, 0.003, -0.01, 0.105, 0.067, 1
963377, -0.014, -0.081, -0.053, -0.031, 0.074, 0.058, 0
963397, -0.154, -0.163, -0.124, -0.102, 0.106, 0.108, 0
963417, -0.204, -0.055, -0.194, -0.149, 0.221, 0.175, 0
963437, 0.233, 0.0, 0.0, -0.115, 0.199, 0.145, 0
963457, 0.211, -0.075, 0.161, -0.116, 0.1, 0.117, 0
963477, -0.033, -0.008, 0.367, -0.062, 0.141, 0.1, 0
963497, -0.258, -0.079, 0.435, -0.028, 0.314, 0.125, 0
963517, -0.151, -0.054, 0.613, -0.019, 0.461, 0.16, 0
963537, 0.263, -0.222, 0.933, -0.081, 0.376, 0.114, 0
963557, -0.066, 0.007, 1.034, -0.083, 0.459, 0.091, 0
963577, -0.532, -0.054, 0.546, -0.012, 0.965, 0.207, 0
963597, -0.961, 0.837, 0.283, 0.505, 1.848, 0.488, 0
963617, -1.786, 1.576, 0.02, 1.521, 3.307, 0.983, 0
963637, -0.142, 0.652, 0.365, 2.433, 4.411, 1.19, 0
963657, 1.011, -0.455, -0.017, 2.966, 5.197, 0.99, 0
963677, 0.175, 0.032, -0.784, 3.711, 6.74, 1.137, 0
963697, 1.381, 0.085, -0.605, 4.533, 8.181, 1.453, 0
963717, 3.851, -0.293, -0.042, 4.852, 8.376, 1.337, 0
963737, 8.126, -1.884, 0.465, 4.128, 7.199, 0.796, 0
963757, 7.151, -0.835, 0.235, 3.442, 6.55, 0.271, 0
963777, 7.266, 0.842, 1.028, 3.332, 6.296, -0.108, 0
963797, 7.304, 1.02, 0.98, 3.417, 5.778, -0.472, 0
963817, 6.354, 1.391, 0.272, 3.276, 4.952, -0.846, 0
963837, 3.833, 2.415, -0.708, 3.271, 4.392, -1.175, 0
963857, 2.556, 2.162, -1.444, 3.461, 4.564, -1.061, 0
963877, 2.429, 0.428, -2.09, 3.575, 4.501, -0.937, 0
963897, 0.653, 0.119, -2.286, 3.514, 4.434, -0.842, 0
963917, 1.082, -1.337, -2.623, 3.654, 4.508, -0.596, 0
963937, -0.093, -1.461, -3.181, 3.637, 4.192, -0.578, 0
963957, -0.834, -2.283, -3.61, 3.558, 4.021, -0.5, 0
963977, 0.859, -2.148, -3.483, 3.263, 3.523, -0.51, 0
963997, 0.157, -2.483, -4.215, 2.943, 2.561, -0.836, 0
964017, -1.501, -1.685, -5.005, 2.696, 1.889, -0.892, 0
964037, -2.274, -1.529, -5.512, 2.336, 1.66, -0.822, 0
964057, -2.436, -1.052, -5.282, 1.896, 1.602, -0.625, 0
964077, -2.576, -0.828, -4.905, 1.485, 1.447, -0.546, 0
964097, -2.688, -0.943, -4.675, 1.201, 1.178, -0.493, 0
964117, -2.665, -0.298, -4.085, 0.838, 0.955, -0.387, 0
964137, -1.896, -0.342, -3.666, 0.489, 0.74, -0.21, 0
964157, -1.665, 0.446, -3.446, 0.07, 0.515, -0.081, 0
964177, -1.026, 0.634, -2.895, 0.006, 0.475, -0.041, 0
964197, -0.337, 0.6, -2.214, -0.042, 0.45, 0.053, 0
964217, -0.052, 0.789, -1.514, -0.021, 0.196, 0.125, 0
964237, 0.068, 0.413, -1.059, -0.081, 0.007, 0.136, 0
964257, -0.545, 0.607, -0.757, -0.115, 0.081, 0.188, 0
964277, -0.319, 0.073, -0.528, -0.196, 0.204, 0.317, 0
964297, 0.025, 0.339, 0.012, -0.264, 0.22, 0.376, 0
964317, 0.39, -0.223, 0.157, -0.211, 0.111, 0.327, 1
964337, 0.787, -0.032, 0.267, -0.381, -0.089, 0.202, 1
964357, -0.942, -0.624, -0.113, -0.39, -0.015, 0.288, 1
964377, -0.121, 0.273, 0.12, -0.252, -0.054, 0.305, 1
964397, -0.095, 0.145, -0.203, -0.239, -0.157, 0.199, 1
964417, -0.015, 0.333, -0.288, -0.19, -0.127, 0.164, 1
964437, -0.002, 0.133, -0.446, -0.252, -0.161, 0.138, 1
964457, -0.026, 0.125, -0.521, -0.329, -0.191, 0.152, 1
964477, 0.204, 0.134, -0.777, -0.431, -0.448, 0.102, 1
964497, -0.206, 0.144, -1.13, -0.542, -0.77, 0.041, 1
964517, -1.037, 0.433, -1.419, -0.539, -1.063, -0.001, 1
964537, -1.693, 0.05, -1.836, -0.609, -1.041, 0.086, 1
964557, -0.612, -0.475, -1.447, -1.098, -1.58, 0.012, 1
964577, 0.278, -0.607, -1.132, -1.821, -2.861, -0.179, 1
964597, 0.141, -0.237, -1.019, -2.643, -4.552, -0.546, 1
964617, -3.004, 2.214, -1.469, -2.728, -5.254, -0.632, 1
964637, -4.941, 3.673, -2.051, -2.397, -4.993, 0.025, 1
964657, -5.726, 2.798, -3.1, -2.279, -4.217, 0.999, 1
964677, -3.068, 2.673, -2.774, -2.588, -4.245, 1.384, 1
964697, -1.859, 3.816, -1.727, -3.028, -4.741, 1.533, 1
964717, -4.326, 5.534, -2.226, -2.511, -4.008, 2.034, 1
964737, -2.855, 5.06, -2.231, -2.034, -3.137, 2.202, 1
964757, -0.538, 3.018, -1.929, -2.251, -3.092, 1.841, 1
964777, 1.472, 2.407, -0.755, -3.24, -4.044, 1.343, 1
964797, 0.044, 3.917, 0.255, -3.948, -5.208, 1.643, 1
964817, -1.268, 5.008, -0.031, -3.118, -4.998, 2.285, 1
964837, 0.477, 2.18, -1.225, -1.78, -4.288, 2.448, 1
964857, 2.96, -2.858, -2.414, -1.993, -4.226, 1.942, 1
964877, 5.26, -3.499, -1.38, -3.567, -5.142, 1.251, 1
964897, 4.126, -1.339, -0.21, -4.505, -6.346, 0.491, 1
964917, 3.131, -0.128, 0.394, -4.134, -6.734, -0.268, 1
964937, 3.15, 0.019, 0.573, -3.134, -7.076, -0.354, 1
964957, 0.617, -2.184, -1.839, -2.567, -7.078, -0.279, 1
964977, 0.484, -2.204, -3.839, -2.808, -5.701, -0.336, 1
964997, 2.94, -0.623, -3.561, -2.9, -4.525, -0.018, 1
965017, 3.562, 0.86, -2.978, -2.296, -4.166, 0.072, 1
965037, 2.109, 1.428, -2.962, -1.098, -3.639, 0.394, 1
965057, 1.918, -1.051, -3.714, -0.101, -2.513, 0.763, 1
965077, 3.22, -2.922, -4.134, -0.372, -1.568, 0.668, 1
965097, 3.663, -1.69, -3.174, -1.185, -1.28, 0.366, 1
965117, 2.58, 0.05, -1.713, -1.337, -1.185, 0.205, 1
965137, 1.75, 0.759, -0.564, -0.869, -0.813, 0.326, 1
965157, 2.355, 0.157, -0.18, -0.273, -0.414, 0.449, 1
965177, 2.8, -1.156, -0.749, -0.35, -0.64, 0.219, 1
965197, 1.689, -0.88, -1.302, -0.703, -0.51, 0.155, 1
965217, 1.527, -0.373, -1.138, -0.757, -0.263, 0.228, 1
965237, 1.585, -0.414, -0.54, -0.624, -0.178, 0.205, 1
965257, 1.55, -0.638, -0.248, -0.507, -0.193, 0.094, 1
965277, 0.916, -0.465, -0.296, -0.357, -0.079, 0.063, 1
965297, 0.462, -0.448, -0.305, -0.211, 0.162, 0.142, 1
965317, 0.634, -0.663, -0.117, -0.182, 0.236, 0.164, 1
965337, 0.724, -0.664, 0.037, -0.194, 0.145, 0.09, 1
965357, 0.312, -0.461, 0.097, -0.175, 0.075, 0.037, 1
965377, -0.183, -0.298, 0.03, -0.116, 0.202, 0.066, 1
965397, -0.029, -0.44, -0.084, -0.15, 0.275, 0.119, 1
965417, 0.199, -0.597, -0.034, -0.251, 0.172, 0.084, 1
965437, -0.138, -0.275, 0.094, -0.208, 0.186, 0.078, 1
965457, -0.191, -0.151, 0.297, -0.087, 0.233, 0.077, 1
965477, -0.162, -0.215, 0.432, 0.064, 0.202, 0.037, 1
965497, -0.143, -0.52, 0.15, 0.049, 0.188, 0.0, 1
965517, -0.105, -0.73, -0.052, -0.127, 0.138, -0.018, 1
965537, -0.561, -0.352, -0.094, -0.202, 0.254, -0.045, 0
965557, -0.544, 0.264, 0.232, -0.005, 0.42, 0.037, 0
965577, 0.109, 0.218, 0.454, 0.276, 0.327, 0.072, 0
965597, 0.235, -0.334, 0.227, 0.305, 0.165, 0.075, 0
965617, 0.219, -0.514, -0.101, 0.135, 0.111, 0.11, 0
965637, 0.105, -0.116, -0.102, 0.066, 0.113, 0.138, 0
965657, 0.061, -0.227, -0.35, -0.004, 0.166, 0.164, 0
965677, 0.274, -0.159, -0.632, -0.094, 0.153, 0.121, 0
965697, 0.522, -0.192, -0.962, -0.038, 0.211, 0.039, 0
965717, 0.894, -0.406, -1.477, -0.05, 0.428, -0.031, 0
965737, 1.105, -0.067, -1.775, -0.062, 0.529, -0.076, 0
965757, 0.639, 0.081, -2.418, 0.036, 0.789, -0.075, 0
965777, -0.213, 0.145, -3.348, 0.159, 1.557, 0.039, 0
965797, -0.47, 0.812, -4.073, 0.433, 2.885, 0.405, 0
965817, 0.61, 1.311, -3.554, 1.017, 4.312, 0.921, 0
965837, 0.951, 1.241, -2.48, 1.786, 5.422, 1.137, 0
965857, 0.317, 0.655, -1.615, 2.877, 6.889, 0.934, 0
965877, 0.789, -0.376, -0.301, 3.938, 8.694, 0.836, 0
965897, 1.604, 0.123, 0.977, 4.641, 9.988, 0.843, 0
965917, 1.339, 1.291, 1.937, 5.231, 10.721, 0.918, 0
965937, 2.24, 2.257, 2.321, 5.765, 10.935, 1.056, 0
965957, 2.245, 1.973, 1.5, 5.671, 10.555, 1.166, 0
965977, 2.271, 1.3, 1.12, 5.287, 9.862, 1.255, 0
965997, 4.325, -1.47, 0.4, 4.96, 8.902, 1.205, 0
966017, 6.979, -3.108, -0.33, 4.348, 7.121, 0.666, 0
966037, 5.551, -3.2, -1.63, 3.768, 4.553, -0.311, 0
966057, 2.311, -2.922, -2.608, 3.457, 3.136, -0.836, 0
966077, 1.853, -3.416, -3.293, 3.372, 2.703, -0.69, 0
966097, 2.306, -3.845, -3.394, 3.055, 2.259, -0.627, 0
966117, 2.01, -3.534, -3.232, 2.809, 1.674, -0.721, 0
966137, 1.389, -3.618, -3.558, 2.735, 1.273, -0.692, 0
966157, 1.272, -3.627, -4.007, 2.576, 0.922, -0.797, 0
966177, 0.582, -3.35, -4.722, 2.266, 0.695, -0.85, 0
966197, -0.219, -2.758, -5.382, 1.924, 0.53, -0.917, 0
966217, -0.555, -1.912, -5.246, 1.737, 0.566, -0.742, 0
966237, -0.783, -1.683, -5.186, 1.544, 0.551, -0.692, 0
966257, -1.21, -1.474, -5.135, 1.229, 0.47, -0.653, 0
966277, -1.649, -1.047, -5.003, 0.891, 0.471, -0.536, 0
966297, -1.851, -0.47, -4.584, 0.552, 0.392, -0.384, 0
966317, -1.653, -0.741, -4.262, 0.266, 0.28, -0.244, 0
966337, -1.62, -0.252, -3.799, 0.087, 0.196, -0.145, 0
966357, -1.483, 0.128, -3.326, 0.007, 0.256, 0.025, 0
966377, -0.996, 0.31, -2.662, -0.072, 0.342, 0.197, 0
966397, -0.309, 0.238, -2.025, -0.189, 0.301, 0.24, 0
966417, -0.018, 0.072, -1.41, -0.291, 0.215, 0.188, 0
966437, -0.332, -0.081, -0.988, -0.379, 0.267, 0.206, 0
966457, 0.01, 0.064, -0.409, -0.412, 0.239, 0.211, 0
966477, 0.081, -0.096, -0.231, -0.378, 0.213, 0.246, 0
966497, 0.125, 0.01, 0.16, -0.33, 0.17, 0.319, 0
966517, 0.45, -0.28, 0.228, -0.387, 0.064, 0.299, 0
966537, 0.139, -0.505, -0.026, -0.437, 0.015, 0.256, 1
966557, 0.053, 0.064, 0.216, -0.364, 0.062, 0.356, 1
966577, 0.259, 0.068, 0.428, -0.142, 0.061, 0.44, 1
966597, 0.209, -0.346, 0.298, 0.044, 0.045, 0.426, 1
966617, 0.277, -1.357, -0.112, -0.134, -0.141, 0.234, 1
966637, -0.086, 0.012, -0.347, -0.2, -0.184, 0.216, 1
966657, -0.28, 0.619, -1.242, -0.225, -0.165, 0.232, 1
966677, -0.631, 0.342, -1.624, -0.27, -0.224, 0.25, 1
966697, -0.52, -0.045, -1.894, -0.412, -0.285, 0.21, 1
966717, -0.973, 0.144, -2.131, -0.623, -0.379, 0.205, 1
966737, -1.039, 0.059, -2.493, -0.787, -0.468, 0.307, 1
966757, -0.793, 0.429, -2.821, -0.918, -0.695, 0.379, 1
966777, 0.096, 0.973, -2.879, -1.1, -1.364, 0.361, 1
966797, 0.102, 1.499, -3.102, -1.364, -2.698, 0.203, 1
966817, -1.922, 0.841, -4.16, -1.761, -4.038, 0.156, 1
966837, -4.058, 0.769, -4.604, -2.442, -4.509, 0.414, 1
966857, -3.096, 1.797, -3.814, -3.109, -4.349, 0.96, 1
966877, -1.794, 3.349, -2.237, -3.548, -4.602, 1.175, 1
966897, -1.659, 4.654, -0.683, -3.798, -5.271, 1.147, 1
966917, -2.832, 4.971, -0.389, -3.955, -5.607, 1.579, 1
966937, -3.81, 3.927, -0.814, -4.013, -5.103, 1.96, 1
966957, -1.839, 4.171, -0.276, -3.919, -3.902, 2.225, 1
966977, 1.195, 4.08, 0.708, -3.514, -3.318, 2.332, 1
966997, 3.081, 2.319, 1.093, -3.183, -3.778, 2.23, 1
967017, 3.442, -0.258, 1.061, -3.183, -4.791, 1.968, 1
967037, 2.26, -2.906, 0.279, -3.633, -5.2, 1.545, 1
967057, 3.636, -2.126, 0.534, -4.117, -4.805, 0.894, 1
967077, 4.644, -0.668, 1.035, -3.944, -4.776, 0.872, 1
967097, 4.923, -0.525, 0.937, -3.238, -4.956, 0.985, 1
967117, 4.373, -2.514, -0.07, -2.623, -5.221, 0.754, 1
967137, 3.745, -4.507, -1.722, -3.112, -4.407, -0.328, 1
967157, 5.334, -3.512, -1.208, -3.545, -4.513, -0.723, 1
967177, 5.367, -1.954, -0.65, -3.264, -4.818, -1.11, 1
967197, 4.986, -0.773, -0.11, -2.621, -5.205, -1.199, 1
967217, 4.103, -0.739, 0.078, -1.931, -5.362, -1.186, 1
967237, 1.371, -1.171, -1.574, -1.657, -4.373, -0.968, 1
967257, 0.531, -0.759, -2.955, -1.616, -2.788, -0.503, 1
967277, 2.298, 0.229, -2.937, -1.376, -1.93, -0.17, 1
967297, 2.851, 0.625, -2.248, -0.986, -1.728, -0.126, 1
967317, 2.256, 0.347, -1.538, -0.684, -1.585, -0.012, 1
967337, 1.453, 0.353, -0.72, -0.472, -1.356, 0.097, 1
967357, 0.923, -0.501, -0.735, -0.499, -0.973, 0.123, 1
967377, 1.333, -0.7, -0.624, -0.653, -0.768, 0.097, 1
967397, 1.208, -0.513, -0.412, -0.678, -0.696, -0.012, 1
967417, 0.483, 0.083, -0.074, -0.408, -0.458, 0.018, 1
967437, 0.54, -0.274, 0.055, -0.182, -0.275, 0.063, 1
967457, 0.461, -0.656, -0.069, -0.215, -0.179, 0.05, 1
967477, 0.074, -0.289, -0.225, -0.179, 0.036, 0.124, 1
967497, 0.575, -0.556, -0.191, -0.226, 0.004, 0.145, 1
967517, 0.346, -0.304, -0.033, -0.221, -0.078, 0.109, 1
967537, 0.072, -0.208, -0.027, -0.169, -0.017, 0.112, 1
967557, 0.085, -0.216, -0.112, -0.119, 0.078, 0.098, 1
967577, 0.158, -0.208, -0.106, -0.094, 0.108, 0.079, 1
967597, 0.187, -0.275, -0.056, -0.128, 0.018, 0.03, 1
967617, -0.123, -0.117, -0.171, -0.144, 0.039, 0.048, 1
967637, -0.051, -0.187, -0.176, -0.166, 0.091, 0.057, 1
967657, -0.06, -0.04, -0.019, -0.228, 0.037, 0.026, 1
967677, -0.267, 0.08, 0.085, -0.196, 0.056, 0.048, 1
967697, 0.023, -0.134, 0.12, -0.167, 0.055, 0.081, 1
967717, -0.147, -0.087, 0.024, -0.183, -0.025, 0.058, 1
967737, -0.135, -0.048, -0.058, -0.126, 0.045, 0.062, 1
967757, 0.042, -0.235, -0.125, -0.082, 0.091, 0.081, 1
967777, 0.177, -0.219, -0.141, -0.108, 0.04, 0.042, 1
967797, -0.138, -0.01, -0.138, -0.124, -0.025, 0.015, 1
967817, -0.202, -0.158, -0.176, -0.099, 0.079, 0.025, 1
967837, 0.006, 0.01, 0.066, -0.089, 0.186, 0.034, 1
967857, 0.178, -0.063, 0.197, 0.044, 0.216, 0.021, 1
967877, 0.408, -0.35, 0.222, 0.059, 0.104, -0.014, 1
967897, -0.236, -0.233, -0.005, 0.03, -0.007, -0.034, 1
967917, -0.329, -0.158, -0.575, -0.056, 0.291, 0.009, 0
967937, 0.359, 0.443, -0.232, 0.044, 0.665, 0.11, 0
967957, 0.597, -0.024, -0.297, 0.218, 0.571, 0.148, 0
967977, 0.345, -0.097, -0.505, 0.216, 0.526, 0.145, 0
967997, 0.052, -0.05, -0.871, 0.206, 0.653, 0.207, 0
968017, -0.592, 0.324, -1.593, 0.318, 1.125, 0.36, 0
968037, -0.742, 0.794, -2.147, 0.822, 2.059, 0.77, 0
968057, -0.008, 0.45, -2.301, 1.535, 3.188, 1.24, 0
968077, 0.867, -0.066, -1.959, 2.068, 4.074, 1.513, 0
968097, 1.79, -0.494, -1.559, 2.424, 4.763, 0.806, 0
968117, 0.214, 0.331, -1.896, 3.191, 6.543, 0.587, 0
968137, 0.147, 0.759, -1.087, 4.111, 8.085, 1.058, 0
968157, 1.221, -0.482, -0.38, 4.591, 9.283, 1.238, 0
968177, 3.053, 0.085, 0.587, 5.012, 9.663, 1.106, 0
968197, 4.405, 0.196, 0.918, 5.312, 9.5, 1.016, 0
968217, 4.482, -0.159, 0.505, 5.084, 9.117, 0.773, 0
968237, 4.452, 0.43, 0.384, 4.782, 8.343, 0.51, 0
968257, 3.194, 0.143, -0.197, 4.663, 7.739, 0.507, 0
968277, 2.899, -0.203, -0.071, 4.905, 7.242, 0.664, 0
968297, 4.155, -2.097, -0.433, 4.79, 6.21, 0.458, 0
968317, 4.816, -4.72, -1.719, 3.941, 4.69, -0.208, 0
968337, 3.278, -3.283, -1.836, 3.663, 3.211, -0.425, 0
968357, 1.856, -2.717, -1.94, 3.676, 2.389, -0.49, 0
968377, 1.866, -3.425, -2.532, 3.392, 1.646, -0.598, 0
968397, 1.143, -3.214, -3.059, 3.09, 1.037, -0.692, 0
968417, -0.073, -2.571, -3.634, 2.886, 0.9, -0.604, 0
968437, 0.423, -2.112, -4.106, 2.748, 0.593, -0.678, 0
968457, -0.165, -1.941, -4.668, 2.55, 0.403, -0.709, 0
968477, -0.357, -2.122, -5.127, 2.102, 0.127, -0.771, 0
968497, -1.073, -1.305, -5.552, 1.77, -0.011, -0.754, 0
968517, -1.967, -0.988, -6.096, 1.458, 0.126, -0.557, 0
968537, -1.672, -0.618, -5.942, 0.988, 0.236, -0.436, 0
968557, -1.513, -0.223, -5.129, 0.55, 0.256, -0.331, 0
968577, -1.235, -0.397, -4.382, 0.287, 0.135, -0.282, 0
968597, -1.781, -0.23, -3.887, 0.069, 0.29, -0.096, 0
968617, -1.159, 0.136, -2.425, 0.083, 0.431, 0.166, 0
968637, -0.653, -0.997, -2.715, 0.072, 0.386, 0.235, 0
968657, -0.759, -0.016, -2.141, -0.299, 0.302, 0.116, 0
968677, -0.451, 0.228, -1.329, -0.482, 0.346, 0.14, 0
968697, -0.505, 0.384, -0.748, -0.476, 0.315, 0.215, 1
968717, -0.679, 0.706, -0.21, -0.215, 0.381, 0.361, 1
968737, 0.005, -0.525, -0.116, -0.006, 0.464, 0.494, 1
968757, 0.429, -0.324, 0.2, -0.31, 0.29, 0.242, 1
968777, 0.145, 0.371, 0.528, -0.328, 0.197, 0.197, 1
968797, 0.192, 0.392, 0.449, -0.226, 0.13, 0.237, 1
968817, 0.19, 0.605, 0.501, 0.023, 0.094, 0.296, 1
968837, 0.449, -0.281, 0.285, 0.321, 0.032, 0.346, 1
968857, 0.343, -0.688, -0.1, 0.229, -0.108, 0.215, 1
968877, 0.233, 0.004, 0.09, 0.05, -0.127, 0.122, 1
968897, 0.095, 0.124, -0.064, 0.094, -0.235, 0.124, 1
968917, -0.055, 0.492, -0.521, 0.106, -0.285, 0.094, 1
968937, -0.517, 0.166, -0.934, 0.122, -0.312, 0.125, 1
968957, -0.244, -0.411, -1.378, -0.053, -0.387, 0.075, 1
968977, -0.5, 0.249, -1.694, -0.275, -0.585, -0.097, 1
968997, -1.233, 0.235, -2.518, -0.324, -0.755, -0.091, 1
969017, -1.246, 0.469, -2.86, -0.451, -0.824, 0.019, 1
969037, -0.976, 0.731, -2.563, -0.763, -1.123, 0.172, 1
969057, -1.006, 0.899, -2.494, -1.082, -1.723, 0.452, 1
969077, -0.841, 0.47, -2.823, -1.684, -2.592, 0.475, 1
969097, -0.453, 0.604, -2.767, -2.199, -4.387, 0.169, 1
969117, -0.976, 1.311, -1.73, -2.713, -5.796, -0.126, 1
969137, -2.081, 2.107, -0.4, -3.347, -6.91, -0.265, 1
969157, -4.231, 2.482, 0.323, -4.182, -6.976, -0.116, 1
969177, -3.332, 5.153, 1.151, -4.647, -6.708, 0.159, 1
969197, -2.158, 6.875, 1.667, -4.501, -6.585, 0.415, 1
969217, -1.744, 6.678, 2.196, -3.961, -6.388, 1.116, 1
969237, -2.353, 6.021, 1.508, -3.091, -5.308, 2.024, 1
969257, -2.148, 4.69, 0.159, -2.23, -3.673, 2.279, 1
969277, 0.548, 2.979, -0.343, -1.75, -2.778, 1.97, 1
969297, 2.939, 1.224, -0.4, -1.817, -3.064, 1.693, 1
969317, 3.991, -0.159, 0.266, -2.195, -3.934, 1.544, 1
969337, 3.755, -0.954, 0.706, -2.484, -4.542, 1.133, 1
969357, 2.885, -1.256, 0.827, -2.604, -4.524, 0.37, 1
969377, 2.691, -1.379, 0.6, -2.623, -4.372, -0.242, 1
969397, 2.969, -0.913, 0.657, -2.461, -4.488, -0.183, 1
969417, 2.602, 0.26, -0.116, -1.688, -4.233, 0.427, 1
969437, 1.993, 0.372, -0.933, -0.794, -3.425, 0.835, 1
969457, 2.743, -0.783, -1.517, -0.505, -2.957, 0.901, 1
969477, 4.544, -2.406, -1.845, -1.0, -3.276, 0.544, 1
969497, 5.039, -2.443, -1.579, -1.62, -3.937, -0.054, 1
969517, 3.126, -0.927, -1.395, -1.684, -4.007, -0.343, 1
969537, 1.367, 0.335, -1.376, -1.24, -3.351, -0.168, 1
969557, 2.036, -0.568, -1.503, -1.096, -2.932, 0.029, 1
969577, 2.692, -0.908, -0.964, -1.101, -3.018, -0.178, 1
969597, 0.313, 0.569, -1.288, -0.592, -2.456, -0.04, 1
969617, 1.232, -0.613, -1.516, -0.285, -1.906, 0.192, 1
969637, 1.496, -1.198, -1.526, -0.569, -1.886, 0.131, 1
969657, 0.368, -0.386, -1.518, -0.886, -1.762, 0.002, 1
969677, 0.246, 0.196, -1.207, -0.775, -1.246, 0.146, 1
969697, 1.146, -0.14, -0.786, -0.526, -0.942, 0.224, 1
969717, 0.782, -0.334, -0.753, -0.377, -0.979, 0.175, 1
969737, 0.197, -0.501, -1.001, -0.291, -0.702, 0.153, 1
969757, 0.579, -0.501, -0.939, -0.292, -0.283, 0.23, 1
969777, 0.906, -0.468, -0.585, -0.329, -0.125, 0.186, 1
969797, 0.561, -0.331, -0.281, -0.286, -0.133, 0.13, 1
969817, 0.256, -0.259, -0.075, -0.195, -0.078, 0.128, 1
969837, 0.114, -0.402, -0.097, -0.109, 0.029, 0.155, 1
969857, 0.288, -0.502, 0.012, -0.155, 0.059, 0.166, 1
969877, -0.026, -0.212, 0.096, -0.217, -0.02, 0.15, 1
969897, -0.144, -0.119, 0.014, -0.16, 0.019, 0.165, 1
969917, -0.061, -0.268, -0.022, -0.067, 0.111, 0.183, 1
969937, 0.112, -0.515, -0.08, -0.054, 0.142, 0.163, 1
969957, 0.082, -0.656, -0.327, -0.185, 0.094, 0.098, 1
969977, -0.169, -0.2, -0.361, -0.317, 0.044, 0.059, 1
969997, -0.322, 0.038, -0.261, -0.287, 0.136, 0.08, 1
970017, -0.041, -0.246, -0.218, -0.245, 0.214, 0.098, 1
970037, 0.042, -0.379, -0.256, -0.376, 0.12, 0.031, 1
970057, -0.265, 0.021, -0.149, -0.455, 0.061, 0.015, 1
970077, -0.289, 0.116, 0.058, -0.317, 0.138, 0.042, 1
970097, -0.031, -0.052, 0.197, -0.263, 0.127, 0.029, 1
970117, 0.006, -0.078, 0.163, -0.222, 0.095, 0.014, 1
970137, -0.159, -0.073, -0.014, -0.188, 0.107, -0.003, 1
970157, -0.301, -0.08, -0.071, -0.133, 0.207, -0.02, 1
970177, -0.351, -0.012, -0.111, -0.087, 0.402, 0.018, 1
970197, -0.094, -0.036, -0.006, -0.031, 0.48, 0.083, 1
970217, 0.16, -0.294, -0.074, -0.073, 0.451, 0.087, 0
970237, 0.139, -0.247, -0.221, -0.126, 0.472, 0.095, 0
970257, -0.215, 0.136, 0.018, 0.022, 0.61, 0.168, 0
970277, -0.391, -0.029, -0.327, 0.123, 0.872, 0.268, 0
970297, -0.279, -0.022, -0.617, 0.166, 1.162, 0.403, 0
970317, -0.091, 0.342, -0.977, 0.335, 1.464, 0.616, 0
970337, -0.496, 0.801, -1.441, 0.808, 2.172, 0.959, 0
970357, -0.657, 0.38, -1.934, 1.246, 3.109, 1.287, 0
970377, 0.347, -0.062, -2.328, 1.508, 4.018, 1.37, 0
970397, 1.184, 0.16, -2.213, 1.864, 4.804, 0.992, 0
970417, 0.304, 0.956, -1.752, 2.641, 6.067, 0.924, 0
970437, 0.218, 1.049, -0.918, 3.448, 7.28, 1.232, 0
970457, 0.182, 0.128, -0.406, 3.954, 8.551, 1.544, 0
970477, 2.542, -0.141, 0.547, 4.139, 8.881, 1.48, 0
970497, 2.884, 1.205, 1.02, 4.523, 8.751, 1.219, 0
970517, 3.007, 1.518, 0.583, 4.826, 8.881, 0.983, 0
970537, 4.078, 0.786, -0.109, 4.618, 8.496, 0.357, 0
970557, 2.643, 0.866, 0.517, 3.945, 7.045, 0.274, 0
970577, 1.926, 1.549, 0.316, 3.977, 6.623, 0.457, 0
970597, 3.247, -0.22, -0.316, 3.904, 5.993, 0.503, 0
970617, 2.151, -0.974, -1.039, 3.618, 4.959, 0.298, 0
970637, 1.728, -1.968, -1.39, 3.623, 4.513, 0.463, 0
970657, 3.292, -2.195, -1.348, 3.424, 3.833, 0.356, 0
970677, 2.48, -2.328, -2.297, 3.195, 2.66, -0.167, 0
970697, 0.781, -1.693, -3.126, 2.986, 1.874, -0.503, 0
970717, 0.425, -1.905, -3.386, 2.874, 1.754, -0.351, 0
970737, 0.979, -1.764, -3.022, 2.689, 1.51, -0.27, 0
970757, 0.579, -1.816, -3.556, 2.56, 1.064, -0.424, 0
970777, 0.224, -1.651, -4.176, 2.282, 0.652, -0.606, 0
970797, -0.696, -1.386, -4.362, 1.943, 0.347, -0.744, 0
970817, -0.811, -1.062, -3.936, 1.688, 0.383, -0.623, 0
970837, -0.903, -0.869, -3.954, 1.477, 0.343, -0.524, 0
970857, -0.756, -0.24, -3.939, 1.142, 0.268, -0.575, 0
970877, -1.278, -0.083, -4.042, 0.9, 0.141, -0.564, 0
970897, -1.678, 0.142, -3.633, 0.645, 0.117, -0.532, 0
970917, -1.989, 0.169, -3.23, 0.469, 0.129, -0.423, 0
970937, -1.863, 0.418, -2.736, 0.304, 0.202, -0.25, 0
970957, -1.463, 0.062, -2.639, 0.209, 0.205, -0.114, 0
970977, -1.038, 0.15, -2.362, 0.088, 0.199, -0.058, 0
970997, -1.037, 0.209, -2.056, -0.123, 0.16, -0.05, 0
971017, -0.756, 0.322, -1.617, -0.241, 0.205, 0.054, 0
971037, -0.713, 0.61, -1.056, -0.268, 0.215, 0.147, 0
971057, -0.506, 0.105, -0.653, -0.216, 0.241, 0.238, 0
971077, -0.041, -0.54, -0.335, -0.375, 0.161, 0.164, 0
971097, -0.185, -0.166, 0.004, -0.403, 0.165, 0.166, 0
971117, 0.163, 0.067, 0.284, -0.365, 0.125, 0.186, 0
971137, 0.167, 0.176, 0.238, -0.188, 0.051, 0.206, 0
971157, 0.107, 0.135, 0.049, 0.053, 0.0, 0.268, 0
971177, 0.321, -0.184, -0.189, 0.165, -0.162, 0.288, 0
971197, 0.487, -1.773, -1.156, -0.406, -0.314, 0.131, 1
971217, 0.262, 0.094, -1.109, -0.664, -0.26, 0.259, 1
971237, 0.102, 0.302, -1.165, -0.576, -0.185, 0.302, 1
971257, 0.215, 0.893, -1.035, -0.395, -0.455, 0.282, 1
971277, 0.546, 0.532, -0.862, -0.26, -1.085, 0.211, 1
971297, 1.02, -1.626, -1.702, -1.124, -2.156, -0.278, 1
971317, 0.002, -1.082, -1.503, -2.314, -3.392, -0.766, 1
971337, -2.243, 1.159, -1.372, -2.524, -3.781, -1.06, 1
971357, -4.915, 2.563, -2.04, -2.265, -3.359, -0.39, 1
971377, -5.415, 3.026, -2.751, -1.913, -2.405, 0.725, 1
971397, -3.067, 3.365, -2.498, -1.45, -1.893, 1.428, 1
971417, -1.479, 0.908, -2.547, -1.751, -2.078, 1.483, 1
971437, 0.752, 0.43, -2.026, -2.675, -2.977, 0.747, 1
971457, 0.685, 1.357, -0.856, -3.576, -4.282, 0.033, 1
971477, -1.338, 3.942, 0.068, -3.867, -4.779, -0.129, 1
971497, -2.712, 6.063, 0.917, -3.477, -4.646, 0.418, 1
971517, -2.176, 7.329, 1.375, -2.643, -4.409, 1.247, 1
971537, 0.245, 3.896, -0.64, -2.861, -4.548, 1.066, 1
971557, 0.204, 3.566, -0.382, -3.502, -5.019, 0.881, 1
971577, -0.517, 4.113, 0.13, -3.515, -5.072, 1.154, 1
971597, 0.106, 4.614, 0.402, -2.532, -4.452, 1.801, 1
971617, 1.569, 2.212, 0.062, -1.455, -4.26, 1.9, 1
971637, 1.811, -1.463, -0.953, -1.551, -4.638, 1.541, 1
971657, 1.189, -3.41, -1.629, -2.717, -4.796, 1.091, 1
971677, 2.063, -0.848, -1.021, -3.387, -4.09, 0.592, 1
971697, 3.303, 0.128, -0.04, -2.882, -3.725, 0.227, 1
971717, 3.029, 0.094, 0.554, -2.333, -4.084, 0.119, 1
971737, 2.377, -0.514, 0.489, -1.832, -4.631, 0.144, 1
971757, 0.546, -2.134, -1.179, -1.532, -4.478, 0.015, 1
971777, 1.465, -2.614, -2.157, -1.67, -3.357, -0.081, 1
971797, 3.562, -1.76, -1.68, -1.864, -2.805, -0.088, 1
971817, 3.876, -1.32, -1.09, -1.897, -3.073, -0.469, 1
971837, 2.257, 0.394, -0.841, -1.621, -3.278, -0.584, 1
971857, 1.557, 0.127, -1.217, -0.889, -2.973, -0.306, 1
971877, 1.034, -1.185, -2.182, -0.568, -2.359, -0.086, 1
971897, 2.817, -1.892, -2.319, -0.955, -1.763, -0.116, 1
971917, 3.178, -1.035, -1.73, -1.552, -1.992, -0.442, 1
971937, 1.47, 0.732, -1.247, -1.532, -2.05, -0.561, 1
971957, 0.993, 0.931, -0.925, -0.892, -1.527, -0.248, 1
971977, 2.122, -1.235, -1.093, -0.56, -1.171, -0.138, 1
971997, 1.98, -1.5, -1.231, -1.096, -1.337, -0.395, 1
972017, 0.403, 0.712, -0.93, -1.103, -1.028, -0.318, 1
972037, -0.1, 1.005, -0.673, -0.438, -0.333, 0.006, 1
972057, 0.92, -0.523, -0.43, -0.264, -0.151, 0.029, 1
972077, 1.061, -0.865, -0.401, -0.452, -0.288, -0.08, 1
972097, 0.183, -0.13, -0.532, -0.392, -0.119, -0.013, 1
972117, 0.018, 0.019, -0.431, -0.197, 0.129, 0.119, 1
972137, 0.36, -0.463, -0.18, -0.131, 0.136, 0.101, 1
972157, 0.307, -0.671, -0.112, -0.21, 0.04, 0.011, 1
972177, -0.11, -0.41, -0.109, -0.213, 0.097, -0.011, 1
972197, -0.168, -0.151, -0.12, -0.128, 0.177, 0.026, 1
972217, -0.002, -0.384, -0.111, -0.128, 0.149, 0.0, 1
972237, -0.179, -0.319, -0.19, -0.188, 0.103, -0.01, 1
972257, -0.439, 0.084, -0.07, -0.109, 0.202, 0.069, 1
972277, -0.22, -0.054, -0.032, -0.008, 0.294, 0.127, 1
972297, 0.244, -0.531, -0.096, -0.068, 0.184, 0.052, 1
972317, 0.17, -0.564, -0.178, -0.245, 0.033, -0.045, 1
972337, -0.274, -0.121, -0.158, -0.266, 0.089, -0.018, 1
972357, -0.194, 0.04, 0.039, -0.14, 0.188, 0.051, 1
972377, -0.089, -0.01, 0.095, -0.017, 0.223, 0.097, 1
972397, 0.173, -0.236, 0.1, 0.02, 0.171, 0.069, 1
972417, 0.051, -0.326, -0.017, -0.028, 0.126, 0.022, 1
972437, -0.063, -0.171, 0.035, -0.027, 0.152, 0.015, 1
972457, 0.031, -0.046, 0.211, 0.011, 0.114, 0.0, 1
972477, -0.238, 0.017, 0.234, 0.09, 0.17, 0.017, 1
972497, -0.062, -0.016, 0.303, 0.2, 0.241, 0.065, 1
972517, -0.319, -0.16, 0.158, 0.233, 0.372, 0.123, 1
972537, -0.083, -0.16, -0.132, 0.288, 0.717, 0.252, 0
972557, 0.189, -0.032, -0.003, 0.362, 1.012, 0.401, 0
972577, -0.388, 0.382, 0.053, 0.568, 1.167, 0.543, 0
972597, -0.172, 0.699, 0.26, 1.022, 1.609, 0.892, 0
972617, -0.078, 0.123, 0.06, 1.514, 1.969, 1.244, 0
972637, -0.347, -0.128, -0.496, 1.816, 2.489, 1.488, 0
972657, -0.765, 0.534, -0.48, 2.389, 3.5, 1.732, 0
972677, 0.546, -0.224, 0.013, 3.478, 5.196, 1.76, 0
972697, 2.137, -1.553, 0.304, 4.379, 6.341, 1.684, 0
972717, 2.349, -1.872, 0.697, 4.754, 7.086, 1.606, 0
972737, 2.998, -1.18, 1.339, 4.938, 7.73, 1.135, 0
972757, 3.232, -0.105, 1.638, 5.095, 7.854, 0.765, 0
972777, 3.643, -0.267, 1.296, 5.09, 7.787, 0.89, 0
972797, 4.868, -0.655, 1.204, 4.876, 7.628, 0.965, 0
972817, 6.082, -0.992, 1.133, 4.599, 6.999, 0.737, 0
972837, 4.12, -0.236, 0.713, 4.298, 6.284, 0.431, 0
972857, 4.346, -1.07, 0.713, 4.374, 6.065, 0.565, 0
972877, 5.355, -2.658, 0.528, 4.277, 5.352, 0.621, 0
972897, 5.453, -3.522, 0.662, 3.927, 4.335, 0.051, 0
972917, 5.877, -3.594, 0.563, 3.759, 3.043, -0.489, 0
972937, 3.597, -2.971, -0.585, 3.777, 1.674, -1.091, 0
972957, 2.185, -2.749, -1.594, 3.69, 1.278, -1.199, 0
972977, 2.034, -2.735, -2.292, 3.535, 1.092, -1.296, 0
972997, 1.436, -2.124, -2.638, 3.133, 0.818, -1.351, 0
973017, 1.139, -1.495, -2.85, 3.083, 0.653, -1.346, 0
973037, 1.033, -1.963, -3.574, 2.853, 0.352, -1.472, 0
973057, -0.141, -1.709, -4.128, 2.509, 0.241, -1.481, 0
973077, -0.815, -1.45, -4.438, 2.183, 0.282, -1.453, 0
973097, -1.373, -1.139, -4.311, 2.018, 0.414, -1.317, 0
973117, -1.353, -1.465, -4.189, 1.768, 0.337, -1.253, 0
973137, -2.011, -1.318, -4.035, 1.51, 0.274, -1.193, 0
973157, -2.499, -1.651, -4.002, 1.149, 0.26, -1.061, 0
973177, -2.594, -1.05, -3.814, 0.952, 0.239, -0.908, 0
973197, -2.686, -0.577, -3.89, 0.756, 0.302, -0.72, 0
973217, -2.646, -0.549, -3.844, 0.481, 0.375, -0.547, 0
973237, -2.394, -0.177, -3.305, 0.339, 0.466, -0.335, 0
973257, -1.549, -0.248, -2.79, 0.202, 0.292, -0.286, 0
973277, -1.754, 0.166, -2.491, 0.164, 0.236, -0.19, 0
973297, -1.478, -0.186, -2.441, 0.066, 0.254, -0.074, 0
973317, -1.336, 0.159, -2.077, -0.035, 0.322, 0.08, 0
973337, -0.7, 0.124, -1.648, -0.111, 0.329, 0.175, 0
973357, -0.307, 0.552, -1.126, -0.079, 0.248, 0.205, 0
973377, -0.221, 0.357, -1.054, -0.113, 0.18, 0.222, 0
973397, -0.276, 0.461, -0.845, -0.2, 0.183, 0.277, 0
973417, 0.175, 0.333, -0.562, -0.299, 0.155, 0.296, 0
973437, 0.223, 0.581, -0.36, -0.291, 0.126, 0.287, 0
973457, 0.068, 0.232, -0.49, -0.302, 0.162, 0.346, 0
973477, 0.128, 0.137, -0.307, -0.271, 0.194, 0.403, 0
973497, 0.258, 0.038, -0.214, -0.177, 0.088, 0.372, 1
973517, -0.018, 0.075, -0.261, 0.0, 0.025, 0.379, 1
973537, -0.106, -0.558, -0.608, 0.169, 0.017, 0.41, 1
973557, 0.116, -1.06, -1.164, -0.1, -0.039, 0.254, 1
973577, -0.694, 0.21, -1.086, -0.414, -0.098, 0.222, 1
973597, -0.506, -0.009, -1.239, -0.434, -0.11, 0.298, 1
973617, -0.668, 0.264, -1.428, -0.49, -0.326, 0.288, 1
973637, -1.382, -0.093, -1.968, -0.434, -0.48, 0.342, 1
973657, -0.956, -0.377, -2.513, -0.604, -0.558, 0.371, 1
973677, -0.998, -0.082, -2.913, -0.903, -0.723, 0.371, 1
973697, -0.394, 0.016, -3.022, -1.24, -0.953, 0.42, 1
973717, -0.567, 0.252, -3.19, -1.593, -1.54, 0.451, 1
973737, -0.436, 0.898, -3.165, -1.759, -2.251, 0.558, 1
973757, -0.671, 0.685, -2.674, -1.987, -3.225, 0.624, 1
973777, -0.633, 1.083, -1.716, -2.593, -4.276, 0.512, 1
973797, -1.121, 1.843, -0.579, -3.272, -5.549, 0.359, 1
973817, -1.99, 2.23, 0.666, -3.87, -6.861, 0.315, 1
973837, -1.83, 4.296, 2.7, -4.588, -7.978, 0.66, 1
973857, -1.77, 5.874, 3.759, -5.043, -8.609, 1.129, 1
973877, -0.593, 5.51, 3.91, -4.844, -8.561, 1.396, 1
973897, 0.411, 4.074, 3.3, -4.019, -8.272, 1.258, 1
973917, 0.67, 1.931, 2.388, -3.085, -8.004, 0.84, 1
973937, 0.862, -0.692, 1.062, -2.563, -7.642, 0.487, 1
973957, 1.272, -1.932, -0.121, -2.803, -7.048, 0.108, 1
973977, 1.823, -0.592, -0.462, -2.64, -5.919, -0.02, 1
973997, 2.191, 0.405, -0.651, -2.052, -5.316, -0.2, 1
974017, 1.7, 0.926, -0.913, -1.329, -4.763, -0.14, 1
974037, 0.477, 0.348, -2.204, -0.817, -3.844, 0.246, 1
974057, 0.138, 0.621, -2.939, -0.377, -2.613, 0.669, 1
974077, 1.325, 0.432, -2.913, -0.005, -1.871, 0.96, 1
974097, 3.061, -0.315, -2.503, 0.067, -1.941, 0.908, 1
974117, 3.019, -0.345, -1.78, -0.04, -2.367, 0.636, 1
974137, 0.826, -0.149, -1.461, -0.09, -2.192, 0.508, 1
974157, -0.268, 0.479, -1.558, 0.09, -1.427, 0.722, 1
974177, 1.313, 0.003, -1.469, 0.295, -1.234, 0.952, 1
974197, 2.847, -1.053, -1.488, 0.163, -1.791, 0.797, 1
974217, 2.848, -1.485, -1.515, -0.272, -2.432, 0.445, 1
974237, 0.395, -0.667, -1.993, -0.499, -2.103, 0.402, 1
974257, -0.226, 0.127, -2.002, -0.423, -1.271, 0.661, 1
974277, 1.041, -0.03, -1.895, -0.258, -0.968, 0.755, 1
974297, 1.483, -0.612, -1.816, -0.243, -1.027, 0.711, 1
974317, 1.452, -0.596, -1.601, -0.246, -1.028, 0.679, 1
974337, 1.429, -0.83, -1.407, -0.291, -0.955, 0.609, 1
974357, 1.034, -1.068, -1.487, -0.394, -0.681, 0.5, 1
974377, 1.284, -1.019, -1.28, -0.552, -0.491, 0.456, 1
974397, 1.52, -0.95, -1.033, -0.646, -0.494, 0.341, 1
974417, 1.024, -0.542, -0.673, -0.555, -0.376, 0.254, 1
974437, 0.717, -0.437, -0.348, -0.408, -0.168, 0.295, 1
974457, 0.83, -0.729, 0.027, -0.389, -0.058, 0.238, 1
974477, 0.7, -0.442, 0.118, -0.395, -0.112, 0.2, 1
974497, 0.371, -0.265, 0.05, -0.266, -0.076, 0.189, 1
974517, 0.344, -0.43, -0.036, -0.138, 0.047, 0.222, 1
974537, 0.406, -0.579, -0.093, -0.125, 0.1, 0.219, 1
974557, 0.268, -0.385, -0.04, -0.171, 0.117, 0.178, 1
974577, 0.29, -0.418, -0.058, -0.188, 0.098, 0.173, 1
974597, 0.062, -0.338, -0.083, -0.186, 0.051, 0.147, 1
974617, -0.137, -0.262, -0.185, -0.171, 0.091, 0.133, 1
974637, -0.087, -0.202, -0.23, -0.15, 0.196, 0.133, 1
974657, -0.069, -0.296, -0.262, -0.15, 0.251, 0.084, 1
974677, -0.075, -0.287, -0.207, -0.236, 0.213, 0.059, 1
974697, -0.306, -0.06, -0.151, -0.328, 0.17, 0.02, 1
974717, -0.367, -0.011, -0.122, -0.317, 0.203, 0.059, 1
974737, -0.478, 0.01, -0.15, -0.295, 0.313, 0.07, 1
974757, -0.169, -0.065, -0.068, -0.274, 0.379, 0.107, 1
974777, -0.251, 0.036, 0.123, -0.255, 0.39, 0.117, 1
974797, -0.049, -0.015, 0.302, -0.194, 0.422, 0.154, 1
974817, -0.165, 0.036, 0.507, -0.083, 0.328, 0.171, 1
974837, -0.566, 0.37, 0.637, 0.142, 0.401, 0.216, 1
974857, -0.512, -0.24, 0.436, 0.497, 0.662, 0.358, 1
974877, -0.891, -0.675, 0.031, 0.425, 1.036, 0.505, 1
974897, -0.645, -0.201, 0.292, 0.26, 1.499, 0.692, 1
974917, -0.125, 0.509, 1.108, 0.459, 1.806, 0.841, 0
974937, 0.318, -0.028, 1.111, 1.066, 1.941, 1.04, 0
974957, 0.61, -0.78, 0.761, 1.113, 1.941, 1.103, 0
974977, 1.482, -1.873, 0.094, 0.739, 1.729, 0.846, 0
974997, 2.324, -1.817, -0.398, 0.395, 1.383, 0.405, 0
975017, 1.84, -1.275, -0.907, 0.299, 1.227, 0.084, 0
975037, -0.11, 0.715, -1.098, 0.96, 1.962, 0.364, 0
975057, -0.917, 1.043, -1.144, 2.029, 3.418, 0.747, 0
975077, 0.585, -0.716, -1.514, 2.564, 4.518, 0.501, 0
975097, 2.027, -1.018, -1.937, 2.56, 4.855, 0.321, 0
975117, 1.724, -0.405, -2.192, 2.66, 5.233, 0.418, 0
975137, 1.618, 0.813, -1.734, 3.149, 5.845, 0.693, 0
975157, 1.547, 0.764, -1.505, 3.802, 6.781, 1.059, 0
975177, 3.718, -0.221, -1.073, 4.102, 7.195, 1.185, 0
975197, 5.722, -0.953, -1.158, 3.843, 6.89, 0.725, 0
975217, 6.068, 0.226, -0.8, 3.652, 6.199, 0.256, 0
975237, 3.914, 1.547, -0.592, 3.951, 6.062, 0.26, 0
975257, 4.04, 0.639, -0.8, 4.184, 5.889, 0.131, 0
975277, 4.253, -0.525, -1.302, 4.021, 5.302, -0.235, 0
975297, 2.479, -0.083, -1.525, 4.083, 5.098, -0.182, 0
975317, 2.918, -0.757, -1.52, 4.143, 4.688, -0.082, 0
975337, 3.061, -1.792, -1.962, 3.958, 3.861, -0.41, 0
975357, 3.049, -2.457, -2.314, 3.648, 2.899, -0.841, 0
975377, 1.397, -1.899, -2.909, 3.488, 2.23, -1.056, 0
975397, 0.552, -1.859, -3.473, 3.288, 1.864, -1.03, 0
975417, 0.333, -2.411, -3.979, 2.876, 1.533, -0.97, 0
975437, -1.151, -1.848, -4.022, 2.576, 1.245, -0.813, 0
975457, -1.258, -1.477, -3.87, 2.346, 1.175, -0.687, 0
975477, -0.967, -1.952, -3.83, 2.081, 1.108, -0.669, 0
975497, -1.421, -1.43, -4.031, 1.693, 0.829, -0.678, 0
975517, -2.108, -0.949, -3.927, 1.3, 0.713, -0.689, 0
975537, -1.854, -0.606, -3.567, 1.133, 0.788, -0.467, 0
975557, -1.383, -0.268, -3.365, 1.027, 0.714, -0.411, 0
975577, -1.848, -0.381, -3.41, 0.861, 0.669, -0.336, 0
975597, -1.058, 0.046, -2.933, 0.598, 0.619, -0.292, 0
975617, -1.141, 0.462, -2.649, 0.414, 0.445, -0.258, 0
975637, -1.097, 0.406, -2.541, 0.306, 0.372, -0.192, 0
975657, -1.127, 0.577, -2.268, 0.217, 0.41, -0.094, 0
975677, -0.562, 0.49, -1.843, 0.177, 0.469, 0.025, 0
975697, -0.267, 0.556, -1.53, 0.151, 0.345, 0.067, 0
975717, -0.05, 0.827, -1.31, 0.128, 0.16, 0.058, 0
975737, -0.1, 0.647, -1.343, 0.05, 0.059, 0.042, 0
975757, -0.096, 0.599, -0.976, -0.035, 0.155, 0.106, 0
975777, 0.23, 0.276, -0.486, -0.058, 0.208, 0.169, 0
975797, 0.104, -0.007, -0.319, -0.07, 0.142, 0.128, 0
975817, 0.019, -0.168, -0.184, -0.141, 0.071, 0.064, 0
975837, -0.056, -0.01, -0.066, -0.15, -0.004, 0.053, 0
975857, -0.157, 0.066, -0.255, -0.108, -0.081, 0.069, 0
975877, -0.334, 0.014, -0.569, -0.119, -0.108, 0.061, 0
975897, -0.373, 0.277, -0.656, -0.172, -0.104, 0.036, 0
975917, -0.398, 0.15, -0.889, -0.229, -0.181, 0.079, 0
975937, -0.449, 0.271, -1.064, -0.279, -0.292, 0.149, 0
975957, -0.61, 0.352, -1.122, -0.275, -0.455, 0.276, 1
975977, -0.877, 0.196, -0.903, -0.127, -0.694, 0.393, 1
975997, -0.133, -0.907, -0.973, -0.375, -1.116, 0.169, 1
976017, -0.871, -1.457, -1.73, -1.352, -1.368, 0.024, 1
976037, -0.98, 0.363, -1.6, -2.053, -1.579, 0.248, 1
976057, -1.406, 1.098, -1.686, -2.214, -1.761, 0.22, 1
976077, -1.105, 1.838, -1.391, -2.02, -2.015, 0.009, 1
976097, -1.179, 1.527, -1.054, -1.926, -2.481, -0.101, 1
976117, -2.978, 2.01, -1.211, -1.673, -2.183, 0.004, 1
976137, -1.958, 1.639, -1.217, -1.667, -1.941, 0.364, 1
976157, -1.449, 1.655, -1.158, -1.911, -1.954, 0.747, 1
976177, -0.976, 2.06, -1.001, -2.221, -2.158, 1.042, 1
976197, -1.225, 2.811, -0.718, -2.342, -2.423, 0.943, 1
976217, -2.338, 3.811, -0.796, -2.129, -2.054, 0.579, 1
976237, -1.603, 3.871, -0.475, -2.133, -1.922, 0.742, 1
976257, -1.637, 4.209, -0.292, -2.273, -1.909, 1.195, 1
976277, -0.395, 4.482, 0.041, -2.514, -2.168, 1.359, 1
976297, 0.881, 4.009, 0.598, -2.833, -2.988, 1.193, 1
976317, 0.47, 3.676, 1.079, -3.068, -3.732, 1.004, 1
976337, -0.334, 4.09, 1.288, -3.043, -3.902, 0.789, 1
976357, -0.403, 4.071, 1.127, -2.833, -3.766, 0.511, 1
976377, 1.144, 3.023, 0.958, -2.908, -4.146, 0.179, 1
976397, 2.227, 1.377, 1.08, -3.463, -5.012, 0.42, 1
976417, -1.043, 2.738, 0.183, -3.04, -5.329, 0.992, 1
976437, 0.201, 1.922, -0.51, -2.158, -4.078, 1.147, 1
976457, 2.712, 0.131, -0.833, -1.71, -3.54, 1.079, 1
976477, 3.635, -1.033, -0.925, -2.023, -4.099, 0.999, 1
976497, 2.554, -1.24, -1.106, -2.243, -4.5, 0.647, 1
976517, 2.312, -1.548, -1.227, -2.037, -4.07, -0.006, 1
976537, 1.965, -1.785, -1.472, -2.025, -3.526, -0.378, 1
976557, 2.524, -1.336, -1.081, -2.213, -3.218, -0.497, 1
976577, 2.312, -0.425, -0.606, -2.246, -3.298, -0.521, 1
976597, 1.781, 0.119, -0.565, -1.894, -3.226, -0.638, 1
976617, 1.375, 0.051, -0.522, -1.361, -2.989, -0.486, 1
976637, 1.166, -0.335, -0.63, -1.059, -2.668, -0.287, 1
976657, 1.265, -0.753, -0.887, -1.083, -2.305, -0.284, 1
976677, 1.542, -0.165, -0.685, -1.243, -2.156, -0.313, 1
976697, 1.294, 0.372, -0.527, -1.171, -2.145, -0.213, 1
976717, 0.937, 0.788, -0.161, -0.879, -2.039, -0.107, 1
976737, 0.512, 0.839, -0.052, -0.405, -1.816, 0.122, 1
976757, 1.536, -1.151, -0.5, -0.199, -1.616, 0.186, 1
976777, 1.246, -1.131, -0.842, -0.734, -1.798, -0.02, 1
976797, 0.507, 0.167, -0.632, -1.065, -1.734, -0.087, 1
976817, 0.626, 0.541, -0.425, -0.853, -1.401, 0.069, 1
976837, 0.95, -0.182, -0.541, -0.545, -1.145, 0.202, 1
976857, 1.179, -0.891, -0.928, -0.423, -0.994, 0.189, 1
976877, 1.23, -1.082, -1.216, -0.568, -0.951, -0.008, 1
976897, 0.699, -0.6, -1.174, -0.737, -0.805, -0.009, 1
976917, 0.191, -0.176, -0.944, -0.513, -0.419, 0.078, 1
976937, 0.478, -0.398, -0.79, -0.295, -0.153, 0.105, 1
976957, 0.773, -0.867, -0.765, -0.3, -0.147, 0.053, 1
976977, 0.31, -0.61, -0.729, -0.292, -0.039, 0.031, 1
976997, 0.011, -0.291, -0.476, -0.201, 0.152, 0.085, 1
977017, 0.254, -0.625, -0.173, -0.245, 0.121, 0.046, 1
977037, -0.005, -0.357, 0.042, -0.279, 0.064, 0.006, 1
977057, -0.228, -0.17, 0.124, -0.257, 0.069, 0.0, 1
977077, -0.448, -0.035, 0.148, -0.172, 0.171, 0.018, 1
977097, -0.391, -0.08, 0.203, -0.102, 0.249, 0.059, 1
977117, -0.051, -0.252, 0.213, -0.106, 0.178, 0.059, 1
977137, -0.098, -0.159, 0.128, -0.149, 0.053, 0.025, 1
977157, -0.195, -0.218, -0.017, -0.199, 0.011, -0.02, 1
977177, -0.323, -0.109, -0.115, -0.232, 0.034, 0.004, 1
977197, -0.352, 0.111, -0.032, -0.152, 0.113, 0.054, 1
977217, -0.182, -0.086, -0.059, -0.118, 0.13, 0.083, 1
977237, 0.0, -0.253, -0.075, -0.178, 0.095, 0.014, 1
977257, -0.138, -0.3, -0.254, -0.238, 0.091, -0.049, 1
977277, -0.143, 0.098, 0.109, -0.037, 0.211, -0.084, 1
977297, -0.036, 0.074, 0.254, 0.166, 0.304, -0.003, 1
977317, 0.107, -0.099, 0.099, 0.245, 0.312, -0.017, 1
977337, -0.224, -0.477, -0.365, 0.121, 0.489, -0.025, 0
977357, 0.298, -0.298, -0.46, -0.068, 0.549, -0.025, 0
977377, 0.481, 0.317, 0.166, 0.169, 0.429, 0.007, 0
977397, 0.167, 0.141, 0.104, 0.36, 0.618, 0.18, 0
977417, 0.377, -0.239, -0.341, 0.445, 0.66, 0.238, 0
977437, -0.293, -0.029, -1.028, 0.406, 0.86, 0.226, 0
977457, -0.128, 0.601, -0.939, 0.618, 1.394, 0.42, 0
977477, -0.974, 1.336, -0.846, 1.285, 2.105, 0.814, 0
977497, -0.539, 0.438, -0.656, 2.288, 3.368, 1.161, 0
977517, 1.035, -1.043, -1.13, 2.855, 4.504, 0.898, 0
977537, 0.441, -0.397, -1.614, 2.949, 5.178, 0.703, 0
977557, 0.788, 0.113, -0.966, 3.45, 6.258, 0.999, 0
977577, 1.617, -0.588, -0.213, 4.135, 7.194, 1.177, 0
977597, 3.263, -1.029, 0.325, 4.607, 7.835, 0.968, 0
977617, 4.683, -1.783, 0.127, 4.758, 8.047, 0.637, 0
977637, 5.977, -1.646, -0.38, 4.33, 7.814, 0.167, 0
977657, 5.181, 0.252, -0.363, 3.797, 7.144, -0.282, 0
977677, 4.453, 1.162, -0.117, 3.85, 6.754, -0.392, 0
977697, 5.065, -0.036, -0.217, 4.023, 6.404, -0.517, 0
977717, 4.115, -0.31, -0.916, 3.764, 5.52, -0.842, 0
977737, 2.267, -0.012, -1.315, 3.61, 4.799, -0.861, 0
977757, 1.619, -0.616, -1.547, 3.69, 4.475, -0.616, 0
977777, 3.087, -2.125, -1.893, 3.661, 3.908, -0.626, 0
977797, 2.112, -2.173, -2.582, 3.379, 2.825, -0.944, 0
977817, 0.17, -2.164, -3.119, 3.189, 2.249, -0.922, 0
977837, 0.564, -2.714, -2.894, 3.044, 2.094, -0.642, 0
977857, 1.051, -2.516, -2.684, 2.778, 1.469, -0.539, 0
977877, -0.146, -2.578, -3.141, 2.392, 0.403, -0.531, 0
977897, -1.331, -2.187, -3.981, 2.27, 0.396, -0.835, 0
977917, -1.42, -1.993, -4.427, 2.007, 0.443, -0.868, 0
977937, -1.539, -1.277, -4.663, 1.725, 0.447, -0.813, 0
977957, -2.099, -0.68, -4.867, 1.489, 0.652, -0.607, 0
977977, -1.558, -0.317, -4.402, 1.301, 0.775, -0.404, 0
977997, -1.64, -0.666, -4.261, 1.129, 0.902, -0.313, 0
978017, -0.873, -0.59, -3.716, 0.975, 0.811, -0.322, 0
978037, -1.115, -0.542, -3.577, 0.814, 0.682, -0.379, 0
978057, -1.047, -0.182, -3.414, 0.582, 0.536, -0.403, 0
978077, -1.292, 0.156, -3.112, 0.394, 0.533, -0.342, 0
978097, -1.128, 0.257, -2.734, 0.252, 0.529, -0.227, 0
978117, -1.039, 0.341, -2.323, 0.139, 0.506, -0.081, 0
978137, -0.671, 0.348, -1.886, 0.032, 0.396, 0.08, 0
978157, -0.641, 0.429, -1.784, 0.025, 0.279, 0.092, 0
978177, -0.65, 0.476, -1.695, -0.01, 0.183, 0.131, 0
978197, -0.545, 0.24, -1.573, -0.149, 0.148, 0.132, 0
978217, -0.428, 0.351, -1.266, -0.285, 0.105, 0.142, 0
978237, -0.479, 0.624, -0.871, -0.302, 0.171, 0.255, 0
978257, -0.093, 0.491, -0.194, -0.189, 0.183, 0.327, 0
978277, -0.038, -0.065, -0.066, -0.218, 0.169, 0.34, 0
978297, 0.373, -0.861, -0.105, -0.478, 0.135, 0.229, 1
978317, 0.198, 0.063, 0.268, -0.36, 0.143, 0.25, 1
978337, 0.48, 0.169, 0.352, -0.131, 0.078, 0.204, 1
978357, -0.127, 0.058, 0.119, 0.145, 0.108, 0.218, 1
978377, 0.102, -0.093, -0.18, -0.091, 0.038, 0.108, 1
978397, 0.1, 0.305, -0.084, -0.2, 0.015, 0.119, 1
978417, -0.031, 0.41, -0.189, -0.197, -0.042, 0.141, 1
978437, 0.057, 0.308, -0.325, -0.149, -0.127, 0.102, 1
978457, -0.134, 0.123, -0.695, -0.216, -0.333, 0.053, 1
978477, -0.317, 0.251, -1.056, -0.403, -0.581, 0.0, 1
978497, -0.622, 0.472, -1.401, -0.623, -0.893, 0.011, 1
978517, -1.246, 1.085, -1.851, -0.807, -1.075, -0.024, 1
978537, -0.525, 0.841, -2.145, -0.864, -1.201, -0.076, 1
978557, -0.267, 0.619, -2.403, -1.189, -1.756, -0.167, 1
978577, -1.752, 1.032, -2.583, -1.659, -2.389, -0.073, 1
978597, -3.079, 1.813, -2.492, -1.974, -2.571, 0.464, 1
978617, -3.035, 1.932, -2.464, -1.901, -2.345, 0.925, 1
978637, -3.547, 1.336, -2.725, -1.86, -2.034, 1.043, 1
978657, -2.839, 1.539, -2.602, -2.004, -1.61, 1.234, 1
978677, -1.872, 1.117, -2.277, -2.359, -1.472, 1.408, 1
978697, -0.405, 1.626, -1.484, -2.769, -1.865, 1.333, 1
978717, -1.174, 3.293, -0.397, -3.114, -2.644, 1.288, 1
978737, -2.332, 4.875, -0.201, -2.865, -2.883, 1.817, 1
978757, -2.242, 3.586, -0.985, -2.449, -2.755, 2.597, 1
978777, -0.622, 1.605, -1.327, -2.762, -2.599, 2.781, 1
978797, 1.174, 1.173, -0.295, -3.523, -2.961, 2.484, 1
978817, 1.875, 1.691, 0.988, -3.945, -3.616, 1.803, 1
978837, 1.457, 2.056, 1.461, -3.444, -4.105, 1.343, 1
978857, 1.26, 0.736, 1.07, -3.142, -4.52, 1.38, 1
978877, 1.02, -1.282, 0.221, -3.564, -4.257, 1.111, 1
978897, 2.415, -1.922, 0.371, -4.077, -4.246, 0.555, 1
978917, 4.092, -1.784, 1.384, -4.186, -4.893, -0.036, 1
978937, 3.551, -0.975, 1.894, -3.783, -5.371, -0.459, 1
978957, 2.239, -0.282, 1.672, -2.896, -5.29, -0.335, 1
978977, 0.725, -1.302, 0.081, -2.279, -4.389, -0.218, 1
978997, 1.237, -1.726, -0.993, -2.175, -3.515, -0.012, 1
979017, 2.395, -1.076, -0.978, -2.017, -3.156, -0.02, 1
979037, 2.866, -0.438, -0.823, -1.665, -3.068, -0.065, 1
979057, 2.724, -0.294, -0.889, -1.299, -3.04, 0.004, 1
979077, 2.047, -0.754, -1.299, -1.076, -2.736, 0.029, 1
979097, 1.743, -1.252, -1.69, -1.086, -2.238, 0.048, 1
979117, 2.409, -1.645, -1.813, -1.296, -1.964, -0.047, 1
979137, 3.141, -1.628, -1.568, -1.548, -2.111, -0.275, 1
979157, 2.892, -1.317, -1.281, -1.76, -2.316, -0.482, 1
979177, 1.708, -0.32, -1.1, -1.659, -2.119, -0.486, 1
979197, 1.66, -0.301, -1.015, -1.469, -1.811, -0.456, 1
979217, 2.159, -1.295, -1.249, -1.701, -1.786, -0.587, 1
979237, 2.056, -1.004, -1.137, -1.936, -1.826, -0.723, 1
979257, 1.233, -0.046, -0.94, -1.798, -1.643, -0.644, 1
979277, 0.384, 0.43, -0.846, -1.383, -1.124, -0.403, 1
979297, 0.573, 0.202, -0.428, -1.004, -0.689, -0.203, 1
979317, 0.743, -0.074, -0.167, -0.737, -0.457, -0.07, 1
979337, 0.646, -0.173, -0.11, -0.461, -0.239, 0.003, 1
979357, 0.579, -0.516, -0.082, -0.379, -0.07, 0.039, 1
979377, 0.42, -0.407, 0.044, -0.348, -0.033, 0.03, 1
979397, 0.049, -0.099, 0.149, -0.259, 0.052, 0.05, 1
979417, 0.285, -0.323, 0.268, -0.12, 0.144, 0.077, 1
979437, 0.274, -0.576, 0.213, -0.15, 0.042, 0.004, 1
979457, -0.185, -0.206, 0.124, -0.231, -0.064, -0.042, 1
979477, -0.46, 0.086, 0.165, -0.164, 0.038, 0.008, 1
979497, -0.288, -0.033, 0.197, -0.006, 0.164, 0.095, 1
979517, -0.112, -0.351, 0.089, 0.058, 0.191, 0.116, 1
979537, 0.084, -0.476, -0.016, -0.019, 0.108, 0.069, 1
979557, -0.022, -0.368, -0.107, -0.146, -0.011, -0.003, 1
979577, -0.335, -0.038, -0.117, -0.18, -0.015, -0.024, 1
979597, -0.314, 0.09, -0.074, -0.085, 0.107, 0.029, 1
979617, 0.04, -0.326, -0.089, -0.045, 0.136, 0.055, 1
979637, 0.03, -0.218, -0.067, -0.16, 0.041, 0.024, 1
979657, -0.048, -0.07, -0.016, -0.216, -0.014, 0.004, 1
979677, -0.281, -0.041, -0.065, -0.209, 0.026, 0.008, 1
979697, 0.05, 0.185, 0.297, -0.078, 0.101, 0.025, 1
979717, 0.06, -0.218, 0.101, 0.119, 0.055, 0.026, 1
979737, 0.054, -0.542, -0.184, 0.053, 0.056, 0.003, 1
979757, -0.181, -0.241, -0.248, -0.084, 0.117, -0.052, 1
979777, -0.285, -0.043, -0.22, -0.128, 0.315, -0.053, 1
979797, 0.397, 0.373, 0.245, -0.065, 0.381, 0.0, 0
979817, -0.178, 0.156, 0.146, 0.182, 0.246, 0.047, 0
979837, -0.084, 0.015, -0.156, 0.268, 0.414, 0.131, 0
979857, 0.296, -0.561, -0.615, 0.178, 0.509, 0.1, 0
979877, 0.979, -0.525, -0.895, -0.013, 0.354, -0.032, 0
979897, 0.561, -0.077, -1.106, -0.015, 0.288, -0.07, 0
979917, 0.305, 0.175, -1.317, 0.11, 0.464, -0.015, 0
979937, 0.105, -0.062, -1.864, 0.196, 0.761, 0.065, 0
979957, 0.076, -0.207, -2.495, 0.276, 1.24, 0.167, 0
979977, 0.074, 0.182, -2.803, 0.516, 1.781, 0.268, 0
979997, -0.362, 0.548, -3.337, 0.974, 2.609, 0.445, 0
980017, -1.019, 0.755, -3.602, 1.623, 3.966, 0.675, 0
980037, -1.448, 1.217, -3.14, 2.53, 5.897, 0.714, 0
980057, -1.988, 0.753, -2.421, 3.384, 8.063, 0.865, 0
980077, -0.844, 1.189, -0.461, 4.201, 9.409, 1.092, 0
980097, -0.445, 1.554, 0.745, 5.064, 10.359, 1.007, 0
980117, 1.31, 2.319, 1.687, 5.754, 10.71, 1.172, 0
980137, 3.832, 1.159, 1.845, 5.682, 9.984, 1.02, 0
980157, 5.347, -0.178, 0.755, 4.806, 8.518, 0.377, 0
980177, 5.512, 0.663, 0.174, 4.182, 6.665, -0.112, 0
980197, 3.081, 0.99, -0.627, 3.973, 5.626, -0.349, 0
980217, 2.493, 0.517, -1.024, 3.795, 4.938, -0.32, 0
980237, 1.685, -0.65, -1.914, 3.497, 4.438, -0.375, 0
980257, 1.493, -1.331, -2.32, 3.152, 3.817, -0.424, 0
980277, 1.468, -1.526, -2.112, 3.018, 3.169, -0.499, 0
980297, 1.496, -2.259, -2.16, 2.739, 2.382, -0.711, 0
980317, -0.1, -2.887, -2.957, 2.576, 1.618, -0.883, 0
980337, -1.212, -1.798, -3.3, 2.408, 1.415, -0.786, 0
980357, -0.752, -1.445, -3.019, 2.251, 1.386, -0.488, 0
980377, 0.092, -2.135, -3.167, 2.105, 1.162, -0.468, 0
980397, -0.275, -1.642, -3.201, 1.862, 0.758, -0.58, 0
980417, -0.866, -1.416, -3.617, 1.778, 0.494, -0.549, 0
980437, -1.31, -0.675, -3.508, 1.573, 0.48, -0.497, 0
980457, -1.118, -0.617, -3.297, 1.316, 0.481, -0.35, 0
980477, -0.858, -0.596, -2.935, 1.12, 0.426, -0.283, 0
980497, -0.419, -0.432, -2.598, 0.958, 0.205, -0.329, 0
980517, -0.539, 0.001, -2.395, 0.767, -0.057, -0.462, 0
980537, -1.497, 0.346, -2.648, 0.621, -0.147, -0.412, 0
980557, -1.611, 0.788, -2.57, 0.467, 0.098, -0.161, 0
980577, -0.73, 0.434, -2.295, 0.4, 0.193, -0.008, 0
980597, -0.819, 0.345, -2.174, 0.322, 0.069, -0.012, 0
980617, -0.572, 0.308, -2.12, 0.221, 0.003, -0.012, 0
980637, -0.926, 0.42, -2.021, 0.071, -0.064, -0.007, 0
980657, -0.785, 0.67, -1.552, -0.036, 0.047, 0.15, 0
980677, -0.313, 0.117, -1.262, -0.12, 0.083, 0.207, 0
980697, -0.475, 0.025, -0.965, -0.312, 0.06, 0.165, 0
980717, -0.442, -0.024, -0.684, -0.364, 0.098, 0.184, 0
980737, -0.231, -0.055, -0.218, -0.397, 0.189, 0.217, 0
980757, 0.055, 0.145, 0.285, -0.356, 0.186, 0.25, 0
980777, 0.099, -0.025, 0.229, -0.209, 0.101, 0.248, 1
980797, -0.132, -0.21, -0.039, -0.151, 0.007, 0.18, 1
980817, 0.102, -0.211, -0.257, -0.356, -0.026, 0.107, 1
980837, -0.049, 0.316, -0.198, -0.387, 0.028, 0.158, 1
980857, -0.244, 0.412, -0.381, -0.321, 0.193, 0.298, 1
980877, -0.132, 0.443, -0.206, -0.178, 0.304, 0.382, 1
980897, 0.305, 0.247, -0.112, -0.118, 0.173, 0.361, 1
980917, 0.116, -0.086, -0.712, -0.216, -0.006, 0.22, 1
980937, -0.412, 0.305, -1.097, -0.38, -0.084, 0.175, 1
980957, -0.532, 0.527, -1.191, -0.533, -0.133, 0.196, 1
980977, -0.816, 0.643, -1.299, -0.656, -0.15, 0.219, 1
980997, -0.696, 0.639, -1.288, -0.703, -0.211, 0.232, 1
981017, -0.304, 0.527, -1.446, -0.762, -0.532, 0.161, 1
981037, -0.378, 0.622, -1.812, -0.903, -0.95, 0.083, 1
981057, 0.017, 0.467, -2.109, -1.28, -1.632, -0.05, 1
981077, -1.537, 1.274, -2.567, -1.617, -1.975, 0.018, 1
981097, -2.581, 1.3, -2.888, -1.969, -1.846, 0.348, 1
981117, -2.019, 1.48, -2.447, -2.344, -1.897, 0.642, 1
981137, -1.436, 1.124, -1.917, -2.717, -2.344, 0.612, 1
981157, -0.469, 1.671, -0.915, -2.999, -3.191, 0.023, 1
981177, -1.816, 1.353, -0.244, -3.483, -3.768, -0.568, 1
981197, -3.989, 4.206, 0.407, -3.486, -3.422, 0.048, 1
981217, -4.617, 5.924, 0.102, -2.877, -2.343, 1.451, 1
981237, -1.589, 5.631, 0.101, -2.399, -2.011, 2.387, 1
981257, 0.662, 4.443, 0.349, -2.358, -2.586, 2.292, 1
981277, 0.372, 1.572, -0.329, -3.386, -2.852, 0.489, 1
981297, -0.845, 5.107, 0.611, -3.172, -2.566, 0.797, 1
981317, 0.167, 5.127, 0.553, -2.117, -2.061, 1.473, 1
981337, 1.354, 1.998, -0.315, -1.514, -2.189, 1.807, 1
981357, 2.057, -0.791, -1.026, -2.335, -2.262, 1.218, 1
981377, 3.406, 0.83, 0.407, -3.324, -2.656, 0.319, 1
981397, 1.504, 3.075, 0.833, -3.17, -3.077, 0.363, 1
981417, 1.298, 2.403, 0.186, -2.186, -2.671, 0.877, 1
981437, 2.387, -0.586, -0.472, -1.929, -2.529, 1.152, 1
981457, 3.842, -2.322, -0.318, -2.582, -2.803, 0.94, 1
981477, 3.918, -1.469, 0.331, -3.166, -3.289, 0.323, 1
981497, 2.801, -0.274, 0.516, -2.878, -3.321, -0.218, 1
981517, 3.073, -0.509, 0.202, -2.307, -3.134, -0.294, 1
981537, 2.725, -1.562, -0.583, -2.048, -3.2, 0.022, 1
981557, 2.731, -2.238, -1.341, -2.155, -2.836, -0.098, 1
981577, 3.584, -1.874, -1.096, -2.311, -2.487, -0.438, 1
981597, 3.683, -1.872, -0.853, -2.275, -2.389, -0.74, 1
981617, 4.016, -2.11, -0.432, -2.272, -2.433, -1.069, 1
981637, 3.087, -2.176, -0.452, -2.274, -2.516, -1.422, 1
981657, 2.572, -2.202, -0.4, -2.393, -2.412, -1.569, 1
981677, 2.757, -2.036, 0.232, -2.648, -2.458, -1.762, 1
981697, 1.102, -0.265, 0.832, -2.542, -2.484, -1.852, 1
981717, -0.064, 0.45, 0.993, -1.872, -2.029, -1.451, 1
981737, 0.78, -0.702, 0.889, -1.23, -1.47, -0.949, 1
981757, 1.485, -1.939, 0.905, -1.158, -1.443, -0.929, 1
981777, 0.556, -0.801, 1.03, -1.301, -1.457, -0.875, 1
981797, -0.578, 0.664, 1.269, -0.75, -0.926, -0.488, 1
981817, -0.196, 0.546, 1.518, -0.145, -0.498, -0.15, 1
981837, 0.565, -0.653, 1.437, -0.034, -0.524, -0.144, 1
981857, 0.181, -1.207, 0.806, -0.35, -0.48, -0.293, 1
981877, 0.033, -0.252, 0.701, -0.487, -0.353, -0.31, 1
981897, -0.282, 0.634, 0.843, -0.188, -0.143, -0.167, 1
981917, -0.343, 0.424, 0.782, 0.112, 0.026, 0.019, 1
981937, -0.03, -0.053, 0.554, 0.213, 0.028, 0.071, 1
981957, 0.164, -0.406, 0.089, 0.127, -0.075, 0.01, 1
981977, 0.051, -0.319, -0.345, 0.007, -0.129, 0.017, 1
981997, 0.028, -0.356, -0.615, -0.075, -0.107, 0.004, 1
982017, -0.095, 0.004, -0.533, -0.015, -0.028, 0.06, 1
982037, -0.079, 0.053, -0.363, 0.126, 0.076, 0.149, 1
982057, 0.352, -0.29, -0.283, 0.114, 0.009, 0.123, 1
982077, 0.485, -0.579, -0.42, -0.094, -0.164, -0.006, 1
982097, 0.035, -0.036, -0.29, -0.144, -0.157, -0.009, 1
982117, -0.158, 0.316, 0.002, -0.002, -0.028, 0.083, 1
982137, -0.018, 0.034, 0.159, 0.094, 0.015, 0.152, 1
982157, 0.313, -0.363, 0.239, 0.017, -0.098, 0.096, 1
982177, 0.334, -0.426, 0.143, -0.096, -0.241, 0.025, 1
982197, 0.06, -0.102, 0.243, -0.103, -0.243, 0.063, 1
982217, -0.016, 0.135, 0.635, 0.063, -0.183, 0.116, 1
982237, -0.026, 0.027, 0.727, 0.279, -0.116, 0.177, 1
982257, 0.48, -0.366, 0.7, 0.275, -0.237, 0.077, 1
982277, 0.006, 0.028, 0.134, 0.275, -0.12, 0.051, 1
982297, -0.275, 0.158, -0.266, 0.534, 0.164, 0.16, 1
982317, -0.506, 0.763, -0.269, 0.913, 0.791, 0.498, 1
982337, -0.194, 0.847, -0.16, 1.519, 1.437, 1.004, 1
982357, 0.172, 0.231, -0.763, 2.096, 2.012, 1.45, 1
982377, 1.223, -0.46, -1.55, 2.47, 2.494, 1.701, 0
982397, 0.935, -0.638, -1.989, 2.864, 3.173, 1.856, 0
982417, 2.044, -1.679, -1.654, 3.221, 4.072, 1.841, 0
982437, 3.416, -2.197, -1.097, 3.158, 4.353, 1.416, 0
982457, 2.756, -1.968, -1.164, 2.889, 4.188, 1.007, 0
982477, 3.109, -1.775, -1.323, 2.806, 4.503, 0.489, 0
982497, 2.543, -1.289, -1.781, 2.773, 4.897, 0.245, 0
982517, 2.014, -0.028, -1.224, 3.064, 5.557, 0.264, 0
982537, 0.931, 0.941, -0.362, 3.657, 6.598, 0.55, 0
982557, 3.861, -0.313, 0.802, 4.48, 7.501, 0.756, 0
982577, 5.217, -1.731, 0.528, 4.601, 7.261, 0.494, 0
982597, 4.943, -0.961, 0.479, 4.543, 6.723, -0.034, 0
982617, 3.069, -0.719, -0.11, 4.462, 6.089, -0.453, 0
982637, 2.483, -0.337, -0.21, 4.308, 5.666, -0.332, 0
982657, 1.694, -1.064, -0.491, 4.37, 5.159, -0.175, 0
982677, 2.864, -2.402, -0.811, 4.338, 4.812, -0.194, 0
982697, 3.267, -3.819, -1.612, 4.022, 3.73, -0.538, 0
982717, 2.422, -2.664, -2.108, 3.639, 2.431, -1.017, 0
982737, 0.2, -2.181, -3.431, 3.482, 1.48, -1.076, 0
982757, 0.037, -2.318, -4.544, 3.018, 0.952, -1.119, 0
982777, -0.416, -1.141, -5.067, 2.643, 0.559, -1.078, 0
982797, -1.268, -0.975, -5.699, 2.361, 0.525, -0.907, 0
982817, -1.229, -0.685, -5.504, 2.009, 0.406, -0.764, 0
982837, -1.143, -0.506, -5.138, 1.682, 0.205, -0.68, 0
982857, -1.564, -0.606, -5.068, 1.308, -0.004, -0.651, 0
982877, -2.094, -0.462, -4.691, 1.031, -0.078, -0.616, 0
982897, -2.138, -0.259, -4.334, 0.668, -0.08, -0.461, 0
982917, -2.189, 0.435, -3.651, 0.396, 0.13, -0.238, 0
982937, -1.497, 0.151, -2.877, 0.289, 0.204, -0.092, 0
982957, -1.017, 0.328, -2.26, 0.283, 0.117, -0.131, 0
982977, -1.058, 0.53, -1.938, 0.339, 0.102, -0.086, 0
982997, -1.05, 0.296, -1.793, 0.251, 0.204, -0.003, 0
983017, -0.717, 0.266, -1.4, 0.108, 0.281, 0.05, 0
983037, -0.187, 0.315, -0.947, -0.056, 0.186, 0.05, 0
983057, -0.289, 0.517, -0.851, -0.092, 0.092, 0.08, 0
983077, -0.317, 1.027, -0.674, 0.016, 0.104, 0.139, 0
983097, -0.055, 0.646, -0.585, 0.025, 0.129, 0.178, 0
983117, 0.263, 0.21, -0.468, -0.081, 0.071, 0.116, 0
983137, 0.132, 0.19, -0.341, -0.152, 0.061, 0.095, 0
983157, 0.21, 0.21, -0.19, -0.222, 0.019, 0.096, 0
983177, 0.082, 0.289, -0.079, -0.135, 0.038, 0.138, 0
983197, 0.144, 0.09, -0.086, -0.02, 0.05, 0.12, 0
983217, 0.06, -0.21, -0.306, -0.134, 0.01, 0.027, 0
983237, -0.24, -0.173, -0.255, -0.344, 0.102, 0.04, 0
983257, 0.098, 0.22, 0.161, -0.368, 0.097, -0.001, 1
983277, -0.372, 0.546, 0.14, -0.297, -0.048, -0.063, 1
983297, -0.53, 0.412, -0.154, -0.122, -0.087, 0.0, 1
983317, -0.426, -0.323, -0.647, -0.139, -0.026, 0.044, 1
983337, -0.576, 0.461, -0.564, -0.229, 0.042, 0.043, 1
983357, -0.497, 0.164, -0.808, -0.161, 0.125, 0.133, 1
983377, -0.314, 0.445, -0.701, -0.304, 0.082, 0.089, 1
983397, -0.652, 0.41, -0.836, -0.335, 0.015, 0.111, 1
983417, -0.745, 0.205, -0.962, -0.384, -0.006, 0.185, 1
983437, -0.779, 0.231, -1.144, -0.49, -0.021, 0.213, 1
983457, -0.528, 0.518, -1.095, -0.572, -0.1, 0.219, 1
983477, -0.623, 0.785, -1.387, -0.647, -0.335, 0.17, 1
983497, -1.161, 1.089, -1.937, -0.683, -0.557, 0.139, 1
983517, -1.098, 0.939, -2.473, -0.747, -0.712, 0.177, 1
983537, -1.427, 0.515, -2.933, -1.005, -0.971, 0.191, 1
983557, -1.526, 1.291, -2.668, -1.356, -1.001, 0.188, 1
983577, -0.942, 1.404, -2.265, -1.591, -1.081, 0.288, 1
983597, -0.804, 1.481, -2.055, -1.725, -1.403, 0.3, 1
983617, -0.278, 0.91, -2.124, -1.767, -1.798, 0.265, 1
983637, -0.026, -0.137, -1.923, -2.167, -2.533, 0.06, 1
983657, -0.788, 0.561, -0.721, -2.852, -3.251, -0.292, 1
983677, -0.736, 2.289, 0.523, -3.304, -3.649, -0.34, 1
983697, -0.231, 3.208, 0.969, -3.362, -3.993, -0.159, 1
983717, 0.103, 3.765, 1.113, -3.179, -4.608, -0.194, 1
983737, -0.982, 4.784, 0.925, -2.963, -4.511, -0.058, 1
983757, -0.577, 5.136, 0.973, -2.807, -4.244, 0.331, 1
983777, 1.223, 5.037, 1.417, -2.852, -4.649, 0.541, 1
983797, 1.852, 3.825, 1.558, -3.003, -5.293, 0.27, 1
983817, 0.922, 3.306, 1.581, -2.93, -5.517, -0.136, 1
983837, -0.925, 3.672, 0.956, -2.329, -4.733, -0.014, 1
983857, -1.643, 2.68, -0.201, -1.706, -3.364, 0.468, 1
983877, 0.539, 1.887, -0.553, -1.445, -2.525, 0.931, 1
983897, 2.84, 1.17, -0.035, -1.565, -2.976, 1.157, 1
983917, 2.978, 0.897, 0.446, -1.62, -3.665, 0.949, 1
983937, 1.885, 0.451, 0.435, -1.447, -3.767, 0.574, 1
983957, 0.645, -0.649, -0.561, -1.45, -3.089, 0.345, 1
983977, 1.685, -0.114, -0.498, -1.373, -2.66, 0.459, 1
983997, 2.744, 0.381, -0.139, -1.243, -2.953, 0.613, 1
984017, 2.545, 0.546, 0.054, -1.038, -3.315, 0.627, 1
984037, 1.97, 0.45, -0.129, -0.711, -3.404, 0.526, 1
984057, 1.118, -0.564, -1.033, -0.619, -2.922, 0.436, 1
984077, 1.505, -0.831, -1.445, -0.82, -2.425, 0.538, 1
984097, 2.594, -0.473, -1.178, -0.932, -2.423, 0.532, 1
984117, 3.775, -0.914, -0.887, -1.087, -2.883, 0.185, 1
984137, 2.675, -0.208, -0.673, -1.042, -3.11, -0.013, 1
984157, 0.616, 0.098, -1.121, -0.791, -2.455, 0.171, 1
984177, 0.796, -0.319, -1.573, -0.739, -1.618, 0.474, 1
984197, 3.524, -1.335, -1.265, -1.111, -1.841, -0.096, 1
984217, 3.268, -0.92, -0.585, -1.401, -2.263, -0.204, 1
984237, -0.332, 1.753, -0.542, -0.659, -1.602, 0.259, 1
984257, 0.702, 0.071, -0.782, -0.07, -0.698, 0.675, 1
984277, 2.828, -1.251, -0.968, -0.16, -0.459, 0.626, 1
984297, 2.919, -1.195, -0.957, -0.638, -0.916, 0.204, 1
984317, 1.166, 0.182, -0.78, -0.877, -1.095, -0.01, 1
984337, 0.49, 0.416, -0.667, -0.534, -0.568, 0.131, 1
984357, 1.124, -0.382, -0.426, -0.155, -0.036, 0.266, 1
984377, 1.521, -1.006, -0.454, -0.075, 0.054, 0.158, 1
984397, 1.432, -1.171, -0.47, -0.33, -0.174, -0.048, 1
984417, 0.356, -0.286, -0.246, -0.568, -0.334, -0.152, 1
984437, -0.182, 0.127, 0.075, -0.426, -0.135, -0.049, 1
984457, -0.087, 0.0, 0.38, -0.152, 0.148, 0.088, 1
984477, 0.457, -0.688, 0.339, 0.014, 0.215, 0.1, 1
984497, 0.393, -0.827, 0.131, -0.171, -0.053, -0.041, 1
984517, -0.346, -0.208, 0.02, -0.306, -0.172, -0.124, 1
984537, -0.442, -0.037, 0.038, -0.185, 0.03, -0.031, 1
984557, -0.147, -0.147, 0.131, -0.018, 0.182, 0.046, 1
984577, -0.008, -0.373, 0.085, 0.054, 0.172, 0.041, 1
984597, 0.099, -0.533, -0.134, -0.05, 0.056, 0.011, 1
984617, -0.065, -0.192, -0.219, -0.171, -0.032, -0.037, 1
984637, -0.242, 0.048, -0.138, -0.176, 0.004, -0.02, 1
984657, -0.038, -0.02, -0.06, -0.071, 0.081, 0.031, 1
984677, 0.127, -0.257, -0.111, -0.085, 0.042, 0.024, 1
984697, 0.219, -0.318, -0.1, -0.326, -0.209, -0.012, 1
984717, -0.107, -0.033, -0.168, -0.327, -0.24, 0.023, 1
984737, -0.365, 0.286, 0.018, -0.163, -0.124, 0.094, 1
984757, -0.362, 0.137, 0.034, -0.009, 0.016, 0.136, 1
984777, 0.046, -0.372, -0.048, -0.084, 0.006, 0.071, 1
984797, 0.071, 0.063, 0.105, 0.004, -0.015, -0.031, 1
984817, -0.25, 0.252, 0.015, 0.226, 0.128, -0.001, 1
984837, 0.023, -0.051, -0.425, 0.36, 0.315, 0.075, 1
984857, 0.051, -0.406, -1.074, 0.282, 0.544, 0.108, 0
984877, 0.327, -0.958, -1.852, -0.052, 0.9, 0.061, 0
984897, 0.741, 0.401, -1.578, 0.127, 1.121, 0.106, 0
984917, 0.328, 0.71, -1.555, 0.583, 1.461, 0.329, 0
984937, 0.157, 0.558, -1.519, 0.945, 1.871, 0.62, 0
984957, 0.814, -0.143, -1.669, 1.042, 2.094, 0.676, 0
984977, 1.102, -0.958, -2.347, 0.789, 2.247, 0.49, 0
984997, 0.268, 0.21, -2.759, 1.189, 3.097, 0.535, 0
985017, -0.151, 0.603, -2.317, 2.258, 4.586, 0.502, 0
985037, 1.247, -1.099, -1.848, 2.853, 5.483, 0.385, 0
985057, 3.06, -2.365, -1.65, 2.605, 5.281, -0.1, 0
985077, 1.467, -1.333, -2.262, 2.519, 5.47, -0.369, 0
985097, -0.376, 1.502, -1.761, 3.392, 6.745, 0.023, 0
985117, 0.238, 1.791, -0.677, 4.53, 8.113, 0.336, 0
985137, 3.354, 0.99, 0.259, 4.827, 7.888, 0.076, 0
985157, 3.36, 0.823, -0.515, 4.391, 6.897, -0.356, 0
985177, 1.926, 1.815, -1.361, 4.133, 6.359, -0.943, 0
985197, 0.268, 2.395, -0.472, 4.266, 6.136, -0.489, 0
985217, 1.42, 1.126, -1.152, 4.188, 5.653, -0.161, 0
985237, 1.567, 0.31, -1.893, 3.946, 4.831, -0.392, 0
985257, 0.154, 0.001, -2.715, 3.53, 4.0, -0.323, 0
985277, 0.173, -0.683, -2.569, 3.321, 3.731, -0.26, 0
985297, 2.058, -1.362, -1.903, 2.958, 3.315, -0.238, 0
985317, 2.437, -1.709, -2.232, 2.676, 2.086, -0.439, 0
985337, 0.458, -0.951, -3.352, 2.442, 1.167, -0.922, 0
985357, -1.032, -0.935, -4.053, 2.196, 0.929, -0.871, 0
985377, -0.903, -0.058, -3.811, 1.854, 1.04, -0.616, 0
985397, -0.677, -0.835, -3.769, 1.662, 1.039, -0.463, 0
985417, -0.334, -0.624, -3.308, 1.385, 0.808, -0.506, 0
985437, -0.834, -0.422, -3.068, 1.185, 0.432, -0.664, 0
985457, -1.636, -0.017, -3.011, 1.001, 0.269, -0.679, 0
985477, -1.951, 0.11, -2.857, 0.826, 0.338, -0.54, 0
985497, -1.631, 0.09, -2.495, 0.632, 0.39, -0.376, 0
985517, -1.497, 0.275, -2.255, 0.412, 0.376, -0.279, 0
985537, -1.104, 0.475, -1.829, 0.286, 0.37, -0.192, 0
985557, -1.027, 0.392, -1.662, 0.248, 0.299, -0.143, 0
985577, -0.984, 0.381, -1.559, 0.233, 0.222, -0.124, 0
985597, -0.906, 0.412, -1.675, 0.215, 0.139, -0.104, 0
985617, -0.813, 0.205, -1.863, 0.061, 0.076, -0.135, 0
985637, -1.127, 0.684, -1.655, -0.132, 0.071, -0.08, 0
985657, -0.804, 0.864, -1.156, -0.163, 0.162, 0.059, 0
985677, -0.638, 0.424, -0.778, -0.069, 0.17, 0.2, 0
985697, -0.259, -0.18, -0.629, -0.191, 0.059, 0.136, 0
985717, -0.306, 0.149, -0.425, -0.354, -0.014, 0.087, 0
985737, -0.55, 0.369, -0.293, -0.34, 0.117, 0.184, 0
985757, -0.033, 0.452, -0.104, -0.337, 0.154, 0.254, 0
985777, 0.048, 0.118, -0.207, -0.419, 0.127, 0.213, 0
985797, -0.049, 0.3, -0.18, -0.401, 0.087, 0.169, 0
985817, -0.109, 0.284, -0.276, -0.43, 0.153, 0.183, 1
985837, -0.194, 0.291, -0.398, -0.342, 0.298, 0.277, 1
985857, -0.034, 0.376, -0.444, -0.287, 0.324, 0.349, 1
985877, -0.012, 0.223, -0.608, -0.302, 0.272, 0.343, 1
985897, -0.153, 0.096, -0.567, -0.478, 0.207, 0.243, 1
985917, -0.2, 0.308, -0.345, -0.577, 0.137, 0.243, 1
985937, -0.12, 0.553, -0.275, -0.56, 0.03, 0.243, 1
985957, -0.219, 0.586, -0.509, -0.482, -0.067, 0.205, 1
985977, -0.31, 0.524, -0.838, -0.489, -0.169, 0.15, 1
985997, -0.119, 0.499, -1.07, -0.633, -0.428, 0.029, 1
986017, -0.519, 0.53, -1.45, -0.828, -0.693, -0.098, 1
986037, -0.238, 0.769, -1.517, -1.047, -1.167, -0.218, 1
986057, 0.06, 0.759, -1.374, -1.399, -2.052, -0.397, 1
986077, -0.78, 1.37, -1.109, -1.74, -2.959, -0.442, 1
986097, -2.212, 2.307, -0.947, -1.826, -3.42, -0.294, 1
986117, -4.228, 2.308, -1.285, -1.893, -3.248, 0.214, 1
986137, -3.906, 2.05, -1.68, -2.181, -2.795, 0.725, 1
986157, -2.539, 2.489, -1.179, -2.726, -2.991, 1.09, 1
986177, -1.658, 4.019, -0.549, -2.793, -3.401, 0.984, 1
986197, -3.019, 4.727, -0.689, -2.555, -3.337, 0.95, 1
986217, -2.658, 4.56, -1.098, -2.214, -2.725, 1.033, 1
986237, -1.774, 3.867, -1.267, -2.188, -2.294, 1.347, 1
986257, 0.334, 3.672, -0.738, -2.607, -2.23, 1.671, 1
986277, 1.538, 3.783, 0.073, -3.078, -2.831, 1.674, 1
986297, 0.509, 4.173, 0.407, -3.042, -3.21, 1.021, 1
986317, 0.204, 3.435, -0.037, -2.535, -2.832, 0.37, 1
986337, 1.03, 2.163, -0.167, -2.414, -2.663, 0.727, 1
986357, 1.868, 1.891, 0.45, -2.738, -3.07, 1.28, 1
986377, 2.373, 0.793, 0.83, -3.113, -3.657, 1.214, 1
986397, 2.571, 0.445, 0.977, -3.183, -4.061, 0.753, 1
986417, 2.956, -0.237, 0.968, -2.922, -4.342, 0.303, 1
986437, 3.103, -1.017, 0.598, -2.721, -4.71, 0.312, 1
986457, 2.801, -1.138, 0.654, -2.706, -5.076, 0.268, 1
986477, 2.865, -0.963, 0.496, -2.502, -5.252, -0.071, 1
986497, 2.426, -1.124, -0.057, -2.138, -5.302, -0.337, 1
986517, 2.345, -1.864, -0.786, -1.803, -5.046, -0.44, 1
986537, 1.531, -1.203, -1.242, -1.765, -4.569, -0.445, 1
986557, 1.639, -0.396, -1.125, -1.533, -3.905, -0.361, 1
986577, 1.695, -0.081, -0.85, -1.113, -3.442, -0.188, 1
986597, 2.039, -0.303, -0.795, -0.689, -3.064, -0.104, 1
986617, 1.44, -0.802, -1.21, -0.455, -2.841, -0.045, 1
986637, 1.077, -0.889, -1.738, -0.485, -2.249, 0.036, 1
986657, 1.606, -0.587, -1.487, -0.672, -1.632, 0.092, 1
986677, 1.557, -0.167, -0.965, -0.6, -1.425, 0.097, 1
986697, 1.404, 0.236, -0.522, -0.337, -1.241, 0.199, 1
986717, 1.348, 0.02, -0.376, -0.116, -1.097, 0.242, 1
986737, 1.086, -0.724, -0.917, -0.217, -0.868, 0.177, 1
986757, 1.18, -0.756, -1.092, -0.41, -0.697, 0.128, 1
986777, 1.611, -0.852, -0.897, -0.614, -0.761, -0.039, 1
986797, 1.014, -0.214, -0.62, -0.593, -0.74, -0.08, 1
986817, 0.398, 0.154, -0.391, -0.323, -0.522, 0.003, 1
986837, 0.229, -0.094, -0.512, -0.078, -0.253, 0.04, 1
986857, 0.42, -0.462, -0.709, -0.082, -0.189, 0.092, 1
986877, 0.406, -0.665, -0.778, -0.211, -0.216, 0.048, 1
986897, 0.347, -0.597, -0.619, -0.348, -0.277, 0.012, 1
986917, -0.034, -0.224, -0.374, -0.338, -0.248, 0.007, 1
986937, -0.499, 0.119, -0.219, -0.146, 0.0, 0.089, 1
986957, -0.299, -0.001, -0.129, 0.05, 0.21, 0.166, 1
986977, 0.211, -0.572, -0.171, -0.038, 0.092, 0.135, 1
986997, -0.076, -0.383, -0.17, -0.171, 0.01, 0.099, 1
987017, -0.238, -0.085, -0.121, -0.128, 0.078, 0.132, 1
987037, -0.135, -0.142, -0.105, -0.054, 0.146, 0.176, 1
987057, -0.058, -0.026, -0.024, 0.003, 0.2, 0.168, 1
987077, 0.277, -0.401, -0.071, -0.106, 0.055, 0.08, 1
987097, -0.006, -0.258, -0.212, -0.254, -0.037, 0.021, 1
987117, -0.305, 0.222, -0.18, -0.207, 0.058, 0.068, 1
987137, -0.149, 0.123, -0.101, -0.091, 0.106, 0.139, 1
987157, 0.066, -0.258, -0.064, -0.146, 0.018, 0.103, 1
987177, -0.077, -0.143, -0.105, -0.169, 0.023, 0.078, 1
987197, 0.074, -0.106, 0.008, -0.164, 0.047, 0.1, 1
987217, 0.108, -0.094, 0.078, -0.102, 0.001, 0.083, 1
987237, 0.109, -0.355, -0.2, -0.124, -0.026, 0.05, 1
987257, 0.029, -0.138, -0.142, -0.21, -0.072, 0.031, 1
987277, -0.288, -0.184, -0.414, -0.234, 0.036, 0.006, 1
987297, -0.011, -0.096, -0.375, -0.218, 0.291, 0.057, 1
987317, 0.321, -0.409, -0.383, -0.249, 0.342, 0.029, 1
987337, 0.435, 0.098, -0.123, -0.254, 0.362, -0.038, 1
987357, -0.124, -0.107, -0.477, -0.01, 0.387, -0.11, 1
987377, -0.676, 0.122, -0.953, 0.162, 0.85, -0.041, 1
987397, -0.584, 1.006, -0.949, 0.503, 1.562, 0.296, 1
987417, 0.163, 0.484, -0.936, 1.102, 2.164, 0.627, 1
987437, 1.125, -0.634, -1.321, 1.361, 2.436, 0.787, 0
987457, 1.298, -1.125, -1.511, 1.348, 2.556, 0.667, 0
987477, 0.686, -0.763, -1.687, 1.315, 2.914, 0.315, 0
987497, 0.493, -0.265, -1.592, 1.542, 3.602, 0.149, 0
987517, 1.8, -0.526, -1.36, 1.771, 3.903, 0.217, 0
987537, 1.014, -0.553, -1.838, 1.707, 3.617, 0.372, 0
987557, -0.098, 0.307, -2.133, 1.784, 4.095, 0.402, 0
987577, 0.68, -0.107, -1.83, 2.357, 4.995, 0.769, 0
987597, 1.358, -0.984, -1.787, 2.789, 5.501, 0.63, 0
987617, 1.598, -0.143, -1.452, 3.445, 6.002, 0.073, 0
987637, 2.297, -0.469, -1.468, 3.867, 6.558, -0.383, 0
987657, 3.274, -0.113, -1.416, 3.849, 6.284, -0.766, 0
987677, 1.985, 0.144, -1.918, 3.64, 5.976, -0.708, 0
987697, 1.957, 1.393, -1.653, 3.715, 5.88, -0.676, 0
987717, 2.143, 0.862, -1.576, 3.849, 5.481, -0.734, 0
987737, 2.775, -0.124, -1.702, 3.594, 4.685, -1.01, 0
987757, 1.812, -0.318, -1.998, 3.438, 3.983, -1.284, 0
987777, 0.975, -0.25, -2.548, 3.396, 3.598, -1.338, 0
987797, 0.282, 0.158, -2.974, 3.451, 3.27, -1.248, 0
987817, -0.046, -0.801, -3.749, 3.349, 2.974, -1.179, 0
987837, 0.561, -0.855, -4.045, 2.935, 2.378, -1.135, 0
987857, -0.172, -0.834, -4.436, 2.579, 1.809, -1.183, 0
987877, -1.125, -0.332, -4.685, 2.34, 1.531, -1.096, 0
987897, -1.847, -0.32, -5.054, 2.012, 1.519, -0.896, 0
987917, -1.691, -0.85, -4.85, 1.572, 1.339, -0.733, 0
987937, -1.53, 0.132, -3.956, 1.289, 1.046, -0.69, 0
987957, -2.07, 0.127, -3.693, 1.076, 0.866, -0.541, 0
987977, -2.575, 0.014, -3.48, 0.883, 0.934, -0.345, 0
987997, -1.713, 0.265, -3.017, 0.702, 0.814, -0.194, 0
988017, -1.336, 0.182, -2.622, 0.494, 0.567, -0.216, 0
988037, -1.116, 0.512, -2.107, 0.383, 0.387, -0.208, 0
988057, -0.971, 0.488, -1.867, 0.312, 0.238, -0.205, 0
988077, -1.213, 0.468, -1.775, 0.339, 0.28, -0.086, 0
988097, -1.104, 0.462, -1.698, 0.303, 0.366, 0.043, 0
988117, -0.416, 0.265, -1.496, 0.027, 0.212, -0.007, 0
988137, -0.333, 0.922, -0.966, 0.008, 0.1, -0.02, 0
988157, -0.689, 0.894, -0.889, 0.032, 0.082, 0.04, 0
988177, -0.265, 0.455, -0.615, 0.056, 0.152, 0.177, 0
988197, -0.046, 0.36, -0.441, -0.133, 0.096, 0.126, 0
988217, -0.245, 0.299, -0.16, -0.216, 0.061, 0.15, 0
988237, 0.078, 0.317, 0.171, -0.186, 0.116, 0.241, 0
988257, 0.355, 0.202, 0.371, -0.104, 0.079, 0.232, 0
988277, 0.312, 0.124, 0.022, 0.027, -0.048, 0.188, 0
988297, 0.149, 0.411, -0.29, 0.014, -0.145, 0.098, 0
988317, -0.3, 0.448, -0.627, -0.007, -0.14, 0.11, 0
988337, -0.198, 0.362, -0.884, -0.115, -0.036, 0.193, 0
988357, -0.201, 0.349, -1.039, -0.327, -0.032, 0.178, 1
988377, 0.073, 0.705, -0.971, -0.45, -0.001, 0.165, 1
988397, -0.236, 0.975, -0.91, -0.496, -0.042, 0.154, 1
988417, -0.546, 1.132, -0.921, -0.39, -0.114, 0.157, 1
988437, -0.971, 0.47, -1.058, -0.282, -0.147, 0.222, 1
988457, -0.748, 0.078, -0.906, -0.535, -0.158, 0.153, 1
988477, -0.946, 0.981, -0.64, -0.783, -0.287, 0.14, 1
988497, -0.826, 1.06, -0.934, -0.75, -0.347, 0.202, 1
988517, -0.572, 1.288, -1.192, -0.711, -0.595, 0.176, 1
988537, -0.83, 1.468, -1.218, -0.725, -1.051, 0.12, 1
988557, -1.786, 0.284, -1.815, -0.974, -1.397, 0.072, 1
988577, -1.914, 1.087, -1.47, -1.527, -1.384, 0.032, 1
988597, -2.185, 1.889, -1.261, -1.692, -1.155, 0.589, 1
988617, -1.291, 2.032, -1.05, -1.657, -1.097, 0.975, 1
988637, 0.024, 2.085, -0.667, -1.825, -1.632, 1.077, 1
988657, 0.27, 1.479, -0.683, -2.302, -2.486, 0.772, 1
988677, -0.14, 1.217, -0.714, -3.08, -3.175, 0.052, 1
988697, -1.359, 2.824, 0.142, -3.444, -3.482, -0.104, 1
988717, -2.725, 5.027, 0.575, -3.059, -3.155, 0.386, 1
988737, -2.653, 6.532, 0.731, -2.285, -2.654, 0.955, 1
988757, -1.486, 6.874, 0.729, -1.65, -2.634, 1.34, 1
988777, -0.258, 6.237, 0.263, -1.448, -3.282, 1.321, 1
988797, -0.27, 3.628, -0.452, -1.959, -3.958, 1.188, 1
988817, -1.081, 1.229, -0.965, -2.954, -3.822, 1.196, 1
988837, -0.697, 2.539, -0.053, -3.151, -3.162, 1.182, 1
988857, 0.322, 4.086, 0.805, -2.379, -2.593, 1.024, 1
988877, 1.345, 3.336, 0.719, -1.685, -2.565, 0.902, 1
988897, 1.785, 1.971, 0.426, -1.492, -2.921, 0.927, 1
988917, 1.313, -0.699, -0.403, -1.902, -3.059, 0.825, 1
988937, 1.46, -1.195, -0.456, -2.418, -2.715, 0.56, 1
988957, 2.374, 0.063, 0.284, -2.31, -2.506, 0.538, 1
988977, 3.106, 0.55, 0.403, -1.827, -2.516, 0.547, 1
988997, 3.465, 0.122, 0.23, -1.648, -2.844, 0.53, 1
989017, 3.344, -0.503, 0.071, -1.759, -3.264, 0.423, 1
989037, 2.5, -1.095, -0.109, -1.89, -3.33, 0.114, 1
989057, 2.449, -1.416, -0.312, -1.966, -3.188, -0.094, 1
989077, 3.051, -1.274, -0.342, -1.85, -3.17, -0.049, 1
989097, 3.177, -0.667, 0.035, -1.211, -3.239, -0.07, 1
989117, 1.423, 0.254, 0.346, -0.696, -3.182, -0.123, 1
989137, 0.412, -0.625, -0.207, -0.345, -2.9, -0.096, 1
989157, -0.103, -1.478, -1.11, -0.488, -2.212, 0.041, 1
989177, 1.085, -0.942, -1.214, -0.882, -1.49, 0.324, 1
989197, 2.779, -1.109, -0.885, -1.084, -1.374, 0.385, 1
989217, 2.801, -1.144, -0.528, -1.337, -1.857, 0.037, 1
989237, 0.996, -0.207, -0.306, -1.462, -2.083, -0.212, 1
989257, 0.447, -0.123, -0.356, -1.341, -1.737, -0.18, 1
989277, 1.001, -0.171, -0.45, -1.13, -1.368, -0.004, 1
989297, 1.895, -0.965, -0.46, -1.061, -1.389, -0.047, 1
989317, 1.6, -1.507, -0.618, -1.345, -1.677, -0.325, 1
989337, 0.34, 0.016, -0.531, -1.635, -1.743, -0.392, 1
989357, -0.187, 1.005, -0.603, -1.219, -1.246, -0.12, 1
989377, 0.361, 0.136, -0.711, -0.631, -0.67, 0.183, 1
989397, 0.869, -0.658, -0.717, -0.38, -0.452, 0.296, 1
989417, 1.071, -1.222, -0.834, -0.427, -0.438, 0.258, 1
989437, 0.957, -1.059, -0.818, -0.631, -0.471, 0.058, 1
989457, 0.382, -0.424, -0.601, -0.722, -0.419, -0.056, 1
989477, 0.041, -0.108, -0.234, -0.544, -0.19, -0.036, 1
989497, 0.092, -0.17, 0.045, -0.299, 0.013, 0.033, 1
989517, 0.249, -0.55, 0.065, -0.135, 0.081, 0.087, 1
989537, 0.249, -0.638, -0.052, -0.162, 0.04, 0.036, 1
989557, 0.061, -0.423, -0.143, -0.243, -0.029, 0.004, 1
989577, -0.197, -0.135, -0.078, -0.249, 0.025, 0.012, 1
989597, -0.201, -0.037, 0.007, -0.163, 0.111, 0.076, 1
989617, -0.062, -0.081, 0.119, -0.081, 0.12, 0.095, 1
989637, -0.04, -0.144, 0.054, -0.084, 0.102, 0.088, 1
989657, 0.137, -0.492, -0.005, -0.199, 0.023, 0.035, 1
989677, 0.056, -0.286, 0.011, -0.284, -0.072, -0.003, 1
989697, -0.129, -0.089, 0.035, -0.241, -0.052, 0.0, 1
989717, -0.228, 0.092, -0.003, -0.095, 0.054, 0.049, 1
989737, -0.066, -0.131, -0.06, -0.047, 0.088, 0.065, 1
989757, -0.03, -0.192, -0.125, -0.084, 0.058, 0.058, 1
989777, 0.14, -0.292, -0.124, -0.194, -0.028, 0.008, 1
989797, 0.002, 0.019, -0.017, -0.191, -0.08, -0.011, 1
989817, -0.328, 0.196, -0.143, -0.108, 0.006, 0.053, 1
989837, -0.213, 0.145, -0.016, -0.007, 0.084, 0.125, 1
989857, 0.032, -0.231, -0.039, -0.041, 0.058, 0.093, 1
989877, 0.233, -0.311, -0.009, -0.161, -0.069, 0.035, 1
989897, -0.229, -0.055, -0.103, -0.17, 0.001, 0.043, 1
989917, -0.351, 0.444, 0.147, 0.032, 0.233, 0.133, 1
989937, -0.214, -0.015, -0.008, 0.254, 0.366, 0.166, 1
989957, -0.132, -0.281, -0.325, 0.28, 0.54, 0.18, 1
989977, -0.004, -0.087, -0.377, 0.301, 0.678, 0.29, 1
989997, -0.387, 0.004, -0.629, 0.385, 1.04, 0.452, 1
990017, -0.121, 0.705, -0.414, 0.767, 1.424, 0.661, 0
990037, -0.23, 0.636, -0.439, 1.276, 1.75, 0.902, 0
990057, -0.043, 0.176, -1.089, 1.87, 2.315, 1.334, 0
990077, 1.7, -0.915, -1.202, 2.149, 3.048, 1.449, 0
990097, 1.362, -0.728, -1.38, 2.366, 3.43, 1.331, 0
990117, 1.793, -1.002, -1.013, 2.888, 4.393, 1.019, 0
990137, 3.115, -2.256, -0.821, 3.474, 5.332, 0.66, 0
990157, 3.927, -3.045, -0.431, 3.743, 5.772, 0.43, 0
990177, 3.839, -2.508, 0.234, 3.995, 6.029, 0.081, 0
990197, 4.449, -2.498, 0.697, 4.369, 6.31, -0.172, 0
990217, 4.162, -2.315, 0.466, 4.477, 6.28, -0.565, 0
990237, 4.115, -1.069, 0.464, 4.462, 6.23, -1.1, 0
990257, 3.014, 0.065, 0.2, 4.42, 5.987, -1.004, 0
990277, 2.349, 0.708, -0.159, 4.304, 5.716, -0.836, 0
990297, 2.148, 0.607, -0.474, 4.258, 5.354, -0.946, 0
990317, 1.233, -0.207, -0.898, 4.285, 5.032, -0.894, 0
990337, 1.985, -1.021, -1.303, 4.192, 4.574, -0.765, 0
990357, 1.539, -0.902, -1.972, 3.976, 3.825, -0.954, 0
990377, 0.294, -1.503, -2.786, 3.81, 3.205, -0.988, 0
990397, 0.567, -1.622, -3.193, 3.464, 2.653, -0.811, 0
990417, 0.41, -1.292, -3.528, 3.17, 2.037, -0.833, 0
990437, -0.23, -1.592, -4.147, 2.959, 1.431, -0.853, 0
990457, -1.18, -1.114, -4.634, 2.626, 1.014, -0.822, 0
990477, -1.242, -0.894, -4.473, 2.34, 1.07, -0.661, 0
990497, -0.815, -0.439, -4.14, 2.052, 0.959, -0.406, 0
990517, -0.619, -0.7, -4.091, 1.774, 0.718, -0.422, 0
990537, -0.836, -0.414, -3.988, 1.468, 0.409, -0.451, 0
990557, -1.138, 0.082, -3.806, 1.16, 0.27, -0.398, 0
990577, -1.371, 0.093, -3.588, 0.947, 0.299, -0.313, 0
990597, -1.269, 0.173, -3.118, 0.648, 0.311, -0.267, 0
990617, -0.869, 0.019, -2.728, 0.396, 0.206, -0.275, 0
990637, -0.885, 0.324, -2.519, 0.274, 0.096, -0.33, 0
990657, -1.27, 0.404, -2.33, 0.171, 0.122, -0.268, 0
990677, -1.373, 0.476, -1.967, 0.177, 0.263, -0.111, 0
990697, -0.712, 0.391, -1.502, 0.226, 0.209, -0.055, 0
990717, -0.494, 0.0, -1.604, 0.073, 0.095, -0.143, 0
990737, -0.47, 0.216, -1.441, -0.101, -0.043, -0.193, 0
990757, -0.927, 0.868, -1.343, -0.124, 0.001, -0.089, 0
990777, -0.899, 0.71, -1.131, -0.142, 0.111, 0.047, 0
990797, -0.693, 0.363, -0.679, -0.197, 0.149, 0.109, 0
990817, -0.388, 0.104, -0.448, -0.276, 0.114, 0.087, 0
990837, -0.141, 0.225, -0.063, -0.342, 0.029, 0.083, 0
990857, -0.186, 0.445, 0.083, -0.257, 0.035, 0.104, 0
990877, 0.126, 0.264, 0.215, -0.15, 0.031, 0.138, 0
990897, 0.101, 0.16, 0.077, -0.092, 0.006, 0.122, 0
990917, 0.076, 0.183, -0.206, -0.109, 0.001, 0.124, 0
990937, -0.105, 0.51, -0.428, -0.074, 0.015, 0.166, 1
990957, -0.251, 0.849, -0.307, 0.097, -0.013, 0.222, 1
990977, -0.076, 0.205, -0.689, 0.023, -0.1, 0.152, 1
990997, -0.286, -0.191, -0.97, -0.251, -0.184, 0.065, 1
991017, -0.592, 0.506, -0.842, -0.404, -0.173, 0.098, 1
991037, -0.7, 0.426, -0.775, -0.36, -0.252, 0.174, 1
991057, 0.391, 0.216, -0.991, -0.376, -0.708, 0.007, 1
991077, 0.208, -0.082, -1.29, -0.596, -1.42, -0.331, 1
991097, -1.775, 0.617, -1.758, -0.994, -1.814, -0.48, 1
991117, -2.427, 1.09, -2.1, -1.183, -1.46, -0.066, 1
991137, -1.16, 0.869, -2.066, -1.315, -1.22, 0.406, 1
991157, -0.304, 0.726, -2.112, -1.524, -1.707, 0.495, 1
991177, -0.268, 1.255, -1.827, -1.798, -2.692, 0.237, 1
991197, -2.449, 1.779, -1.46, -2.193, -3.576, 0.022, 1
991217, -5.058, 2.728, -1.76, -2.535, -3.409, 0.252, 1
991237, -4.292, 3.606, -1.683, -2.622, -2.263, 0.846, 1
991257, -1.952, 3.977, -1.32, -2.516, -1.676, 1.302, 1
991277, 0.011, 3.984, -0.646, -2.579, -2.284, 1.412, 1
991297, 0.995, 4.073, 0.735, -2.952, -3.883, 1.183, 1
991317, -1.461, 4.404, 1.616, -3.572, -5.402, 0.831, 1
991337, -3.91, 5.855, 1.214, -3.653, -5.235, 0.825, 1
991357, -2.438, 4.917, 0.69, -3.119, -4.018, 1.171, 1
991377, 0.903, 2.981, 1.037, -2.767, -3.602, 1.428, 1
991397, 2.35, 1.079, 1.202, -2.835, -4.338, 1.477, 1
991417, 0.036, 1.1, 0.801, -2.968, -4.798, 1.295, 1
991437, -0.279, 1.878, 0.018, -2.368, -3.619, 1.381, 1
991457, 2.44, 0.75, -0.293, -1.601, -2.534, 1.584, 1
991477, 4.281, -0.888, -0.633, -1.493, -2.75, 1.625, 1
991497, 4.367, -2.21, -1.008, -1.982, -3.55, 1.204, 1
991517, 3.503, -2.408, -0.837, -2.693, -4.13, 0.251, 1
991537, 2.681, -1.113, -0.616, -2.841, -4.025, -0.093, 1
991557, 2.691, -0.38, -0.561, -2.466, -3.867, -0.138, 1
991577, 2.418, 0.062, -0.341, -2.088, -3.94, 0.004, 1
991597, 2.136, 0.127, -0.392, -1.687, -3.963, 0.102, 1
991617, 1.242, -0.623, -1.256, -1.437, -3.52, 0.193, 1
991637, 1.406, -0.891, -1.604, -1.445, -2.907, 0.334, 1
991657, 2.519, -0.891, -1.258, -1.478, -2.692, 0.167, 1
991677, 2.839, -0.634, -0.732, -1.496, -2.827, -0.043, 1
991697, 1.379, 0.287, -0.558, -1.274, -2.641, 0.028, 1
991717, -0.045, 0.973, -0.913, -0.793, -1.789, 0.372, 1
991737, 1.31, 0.223, -0.929, -0.501, -1.348, 0.591, 1
991757, 2.865, -1.389, -1.211, -0.816, -1.668, 0.329, 1
991777, 2.109, -0.825, -1.203, -1.029, -1.791, 0.184, 1
991797, 0.567, 0.098, -1.259, -0.726, -1.162, 0.346, 1
991817, 1.302, -0.474, -1.131, -0.496, -0.7, 0.452, 1
991837, 2.36, -1.344, -0.96, -0.633, -0.885, 0.269, 1
991857, 1.389, -0.5, -1.142, -0.562, -0.836, 0.192, 1
991877, 0.782, -0.387, -1.306, -0.375, -0.422, 0.293, 1
991897, 1.31, -0.896, -1.084, -0.391, -0.273, 0.261, 1
991917, 1.349, -0.887, -0.717, -0.425, -0.29, 0.147, 1
991937, 0.777, -0.525, -0.552, -0.366, -0.182, 0.141, 1
991957, 0.639, -0.458, -0.494, -0.222, -0.026, 0.166, 1
991977, 0.674, -0.73, -0.368, -0.183, 0.036, 0.154, 1
991997, 0.599, -0.761, -0.302, -0.238, 0.021, 0.102, 1
992017, 0.315, -0.484, -0.285, -0.234, 0.042, 0.031, 1
992037, -0.05, -0.29, -0.207, -0.3, 0.03, 0.013, 1
992057, -0.097, -0.281, -0.189, -0.282, 0.072, 0.031, 1
992077, -0.192, -0.139, -0.028, -0.262, 0.076, 0.059, 1
992097, -0.213, -0.156, 0.015, -0.199, 0.135, 0.087, 1
992117, -0.042, -0.275, -0.033, -0.184, 0.135, 0.094, 1
992137, -0.25, -0.187, -0.195, -0.184, 0.13, 0.069, 1
992157, -0.198, -0.079, -0.13, -0.161, 0.201, 0.072, 1
992177, -0.1, -0.101, -0.053, -0.117, 0.215, 0.077, 1
992197, -0.02, -0.213, 0.017, -0.1, 0.2, 0.039, 1
992217, -0.325, 0.018, 0.003, -0.117, 0.144, -0.01, 1
992237, -0.38, 0.162, 0.052, -0.04, 0.238, 0.004, 1
992257, -0.069, 0.012, 0.075, 0.099, 0.334, 0.021, 1
992277, -0.277, -0.428, -0.289, 0.07, 0.346, -0.022, 1
992297, -0.154, -0.042, -0.338, -0.093, 0.463, -0.01, 0
992317, -0.144, 0.014, -0.346, -0.075, 0.572, 0.039, 0
992337, 0.296, 0.514, 0.232, 0.117, 0.621, 0.109, 0
992357, -0.623, 0.437, -0.185, 0.527, 0.729, 0.235, 0
992377, -0.374, 0.9, -0.255, 1.012, 1.349, 0.612, 0
992397, -0.101, 0.236, -0.938, 1.723, 1.974, 1.142, 0
992417, 0.579, -0.053, -1.715, 2.173, 2.745, 1.468, 0
992437, 1.302, -0.835, -2.21, 2.708, 3.69, 1.599, 0
992457, 2.318, -1.217, -1.853, 2.971, 4.64, 1.2, 0
992477, 1.547, -0.313, -1.458, 3.262, 5.624, 0.803, 0
992497, 1.593, -0.422, -0.38, 4.391, 6.908, 1.562, 0
992517, 2.998, -1.455, 0.404, 4.851, 8.377, 1.446, 0
992537, 3.908, -1.13, 1.276, 5.385, 8.9, 1.236, 0
992557, 5.066, -1.747, 1.918, 5.651, 8.77, 0.897, 0
992577, 4.786, -1.818, 1.583, 5.244, 8.089, 0.418, 0
992597, 3.45, -1.159, 1.197, 4.977, 7.368, 0.252, 0
992617, 2.005, -0.671, 0.883, 5.099, 7.068, 0.541, 0
992637, 3.501, -1.553, 0.623, 5.244, 6.162, 0.536, 0
992657, 4.487, -3.438, -0.695, 4.733, 4.536, -0.018, 0
992677, 2.667, -3.717, -1.991, 4.043, 3.271, -0.463, 0
992697, 1.004, -2.598, -2.303, 3.88, 2.698, -0.415, 0
992717, 1.311, -3.355, -2.789, 3.585, 2.089, -0.406, 0
992737, 1.589, -2.926, -3.034, 3.212, 1.299, -0.685, 0
992757, 0.24, -2.413, -3.283, 3.116, 0.784, -0.728, 0
992777, -0.909, -2.37, -3.803, 2.995, 0.765, -0.536, 0
992797, 0.013, -1.949, -3.526, 2.692, 0.445, -0.601, 0
992817, -0.723, -1.79, -3.814, 2.334, 0.152, -0.706, 0
992837, -1.219, -0.661, -4.072, 2.054, 0.069, -0.671, 0
992857, -1.317, 0.095, -4.127, 1.883, 0.038, -0.577, 0
992877, -1.304, -0.301, -4.465, 1.613, -0.091, -0.588, 0
992897, -1.839, 0.008, -4.478, 1.266, -0.114, -0.549, 0
992917, -2.072, 0.427, -3.904, 0.945, -0.061, -0.475, 0
992937, -1.881, 0.857, -3.201, 0.676, -0.089, -0.352, 0
992957, -1.906, 0.683, -2.993, 0.509, -0.032, -0.286, 0
992977, -1.531, 0.484, -2.732, 0.401, -0.018, -0.197, 0
992997, -1.406, 0.697, -2.06, 0.315, -0.014, -0.069, 0
993017, -0.919, 0.159, -1.875, 0.222, -0.025, -0.009, 0
993037, -0.982, 0.271, -1.606, -0.004, -0.084, -0.039, 0
993057, -0.804, 0.23, -1.257, -0.144, 0.006, 0.027, 0
993077, -0.47, 0.376, -0.654, -0.106, 0.046, 0.083, 0
993097, -0.655, 0.191, -0.51, 0.032, -0.029, 0.131, 0
993117, -0.413, -0.466, -0.549, -0.043, -0.018, 0.139, 0
993137, -0.37, 0.086, -0.336, -0.186, -0.073, 0.086, 0
993157, -0.23, 0.311, -0.238, -0.217, -0.051, 0.101, 0
993177, -0.067, 0.298, -0.147, -0.173, -0.069, 0.106, 0
993197, -0.15, 0.365, -0.136, -0.122, -0.089, 0.124, 0
993217, 0.023, 0.128, -0.111, -0.066, -0.092, 0.14, 0
993237, -0.097, 0.147, -0.193, -0.064, -0.164, 0.11, 0
993257, -0.088, 0.078, -0.44, -0.082, -0.268, 0.102, 0
993277, -0.389, 0.519, -0.578, -0.108, -0.39, 0.078, 1
993297, -0.326, 0.319, -0.796, 0.009, -0.417, 0.14, 1
993317, -0.381, -0.253, -1.126, -0.135, -0.529, 0.082, 1
993337, -0.685, 0.492, -1.182, -0.394, -0.843, -0.088, 1
993357, -1.303, 0.426, -1.348, -0.453, -1.095, -0.036, 1
993377, -1.104, 0.384, -1.129, -0.599, -1.447, 0.093, 1
993397, -0.728, 0.345, -0.866, -0.733, -2.09, 0.095, 1
993417, -1.627, -0.161, -1.143, -0.971, -3.063, 0.061, 1
993437, -3.396, -0.434, -1.858, -1.475, -3.369, 0.001, 1
993457, -3.978, 1.563, -1.865, -1.925, -3.108, 0.074, 1
993477, -4.192, 2.763, -2.079, -1.828, -2.139, 1.186, 1
993497, -2.251, 2.832, -1.747, -1.844, -2.112, 1.632, 1
993517, -0.841, 1.94, -1.306, -2.282, -2.819, 1.638, 1
993537, -0.886, 1.28, -0.693, -3.075, -3.497, 1.313, 1
993557, -1.031, 3.164, 0.33, -3.507, -3.834, 0.732, 1
993577, -0.337, 5.391, 1.195, -3.45, -4.225, 0.248, 1
993597, 0.284, 6.205, 1.671, -3.4, -5.02, 0.176, 1
993617, -0.42, 5.889, 1.657, -3.383, -5.618, 0.707, 1
993637, -0.934, 4.183, 1.397, -3.42, -5.729, 0.827, 1
993657, -1.064, 2.51, 1.022, -3.571, -5.232, 0.468, 1
993677, 0.047, 2.809, 1.401, -3.361, -4.864, 0.408, 1
993697, 1.311, 2.97, 1.723, -2.759, -5.059, 0.681, 1
993717, 1.567, 2.011, 1.652, -2.218, -5.496, 0.723, 1
993737, 1.047, -0.164, 0.915, -2.16, -5.724, 0.415, 1
993757, -0.066, -2.357, -0.643, -2.649, -5.067, -0.052, 1
993777, 2.052, -1.531, -0.736, -2.815, -4.607, -0.187, 1
993797, 2.638, 0.073, -0.132, -2.299, -4.581, -0.352, 1
993817, 1.685, 0.329, -0.25, -1.676, -4.437, -0.28, 1
993837, 1.176, -0.415, -1.218, -1.245, -4.009, -0.007, 1
993857, 0.913, -0.985, -2.502, -1.083, -3.195, 0.104, 1
993877, 1.833, -0.562, -2.889, -0.897, -2.555, 0.301, 1
993897, 1.993, 0.103, -2.451, -0.624, -2.218, 0.425, 1
993917, 1.901, -0.036, -2.332, -0.407, -1.945, 0.496, 1
993937, 1.458, -0.324, -2.295, -0.401, -1.602, 0.576, 1
993957, 1.101, -0.411, -2.07, -0.478, -1.23, 0.644, 1
993977, 0.657, 0.138, -0.709, -0.284, -0.598, 0.699, 1
993997, 1.49, -0.141, -0.857, 0.041, -0.447, 0.762, 1
994017, 2.067, -1.061, -1.074, -0.07, -0.741, 0.734, 1
994037, 1.567, -0.765, -1.229, -0.399, -1.042, 0.48, 1
994057, 0.667, 0.179, -1.185, -0.491, -1.006, 0.467, 1
994077, 0.545, 0.215, -1.006, -0.261, -0.671, 0.618, 1
994097, 1.27, -0.634, -1.047, -0.124, -0.53, 0.702, 1
994117, 1.443, -1.047, -1.344, -0.302, -0.69, 0.561, 1
994137, 1.043, -0.793, -1.307, -0.555, -0.788, 0.44, 1
994157, 0.702, -0.37, -0.848, -0.648, -0.727, 0.4, 1
994177, 0.331, -0.044, -0.387, -0.469, -0.519, 0.444, 1
994197, 0.531, -0.382, -0.446, -0.159, -0.294, 0.503, 1
994217, 0.713, -0.891, -0.7, -0.07, -0.182, 0.47, 1
994237, 0.794, -0.908, -0.748, -0.201, -0.18, 0.377, 1
994257, 0.61, -0.668, -0.453, -0.343, -0.243, 0.233, 1
994277, 0.066, -0.299, -0.121, -0.332, -0.189, 0.199, 1
994297, 0.045, -0.097, 0.153, -0.18, -0.031, 0.215, 1
994317, 0.036, -0.225, 0.066, -0.013, 0.067, 0.246, 1
994337, 0.097, -0.382, -0.119, -0.011, 0.073, 0.204, 1
994357, -0.017, -0.245, -0.14, -0.08, 0.037, 0.16, 1
994377, -0.121, -0.15, -0.027, -0.13, -0.001, 0.152, 1
994397, -0.087, -0.151, 0.066, -0.109, -0.011, 0.144, 1
994417, -0.116, -0.091, 0.06, -0.081, -0.033, 0.134, 1
994437, -0.21, -0.118, -0.152, -0.021, 0.02, 0.128, 1
994457, -0.092, -0.111, -0.176, -0.019, 0.085, 0.115, 1
994477, 0.0, -0.224, -0.09, -0.105, 0.001, 0.082, 1
994497, -0.186, 0.028, 0.072, -0.073, 0.029, 0.084, 1
994517, -0.115, 0.043, 0.146, 0.028, 0.088, 0.09, 1
994537, -0.132, -0.008, 0.101, 0.091, 0.138, 0.086, 1
994557, 0.015, -0.055, -0.083, 0.059, 0.102, 0.054, 1
994577, 0.053, -0.075, -0.169, -0.06, -0.046, 0.007, 1
994597, -0.196, 0.187, -0.151, -0.069, -0.061, 0.041, 1
994617, -0.27, 0.223, -0.065, 0.004, 0.02, 0.094, 1
994637, -0.444, 0.273, 0.009, 0.172, 0.141, 0.131, 1
994657, -0.992, -0.116, -0.218, 0.307, 0.496, 0.188, 1
994677, -1.154, 0.395, -0.366, 0.456, 1.083, 0.461, 1
994697, -1.471, 1.38, 0.076, 0.989, 1.631, 1.015, 1
994717, -1.302, 1.84, 0.628, 1.717, 2.128, 1.642, 0
994737, -0.952, 0.75, 0.359, 2.169, 2.444, 2.018, 0
994757, -0.43, 0.042, -0.124, 2.348, 2.913, 2.172, 0
994777, -0.185, -0.07, -0.271, 2.669, 3.727, 2.016, 0
994797, 0.834, -0.884, 0.027, 3.048, 4.578, 1.335, 0
994817, 2.826, -2.461, 0.086, 2.825, 4.456, 0.772, 0
994837, 2.666, -2.293, 0.127, 2.445, 4.108, 0.454, 0
994857, 1.323, -0.854, 0.234, 2.598, 4.363, 0.583, 0
994877, 0.853, 0.452, 0.068, 3.29, 5.173, 0.869, 0
994897, 1.959, -0.212, -0.321, 3.752, 5.765, 1.048, 0
994917, 3.103, -1.023, -0.589, 3.703, 5.924, 1.08, 0
994937, 3.953, -1.063, -0.263, 3.483, 5.902, 0.853, 0
994957, 3.739, -0.292, 1.719, 3.512, 5.746, 0.884, 0
994977, 3.803, -0.921, 1.609, 3.768, 5.403, 0.817, 0
994997, 2.964, -1.153, 1.1, 3.767, 5.034, 0.711, 0
995017, 3.57, -1.533, 0.7, 3.803, 4.633, 0.379, 0
995037, 2.672, -1.512, 0.119, 3.675, 3.914, 0.103, 0
995057, 1.902, -1.576, -0.085, 3.727, 3.488, -0.039, 0
995077, 2.566, -2.039, -0.414, 3.724, 2.864, -0.206, 0
995097, 2.175, -1.711, -0.968, 3.504, 1.964, -0.513, 0
995117, 1.009, -1.838, -1.784, 3.316, 1.503, -0.671, 0
995137, 1.194, -1.447, -1.864, 3.174, 1.274, -0.785, 0
995157, 0.629, -0.908, -2.094, 3.079, 0.986, -0.813, 0
995177, 0.558, -1.317, -2.467, 2.96, 0.928, -0.747, 0
995197, 1.017, -1.05, -2.549, 2.869, 0.723, -0.849, 0
995217, -0.091, -0.968, -2.857, 2.657, 0.436, -1.067, 0
995237, -0.391, -0.888, -3.223, 2.601, 0.296, -0.98, 0
995257, -1.1, -0.756, -3.639, 2.353, 0.141, -1.072, 0
995277, -1.359, 0.247, -3.723, 2.067, 0.141, -0.975, 0
995297, -1.631, -0.015, -4.159, 1.915, 0.039, -0.885, 0
995317, -2.303, 0.377, -4.136, 1.592, -0.026, -0.842, 0
995337, -2.397, 0.367, -3.887, 1.345, -0.005, -0.692, 0
995357, -2.467, 0.598, -3.496, 1.012, 0.01, -0.599, 0
995377, -2.374, 0.838, -3.167, 0.767, 0.034, -0.423, 0
995397, -1.954, 0.689, -3.08, 0.646, 0.018, -0.332, 0
995417, -1.956, 0.853, -2.934, 0.437, -0.087, -0.329, 0
995437, -1.941, 0.878, -2.678, 0.189, -0.012, -0.144, 0
995457, -1.679, 1.113, -2.271, 0.054, 0.138, 0.058, 0
995477, -1.041, 0.715, -1.775, -0.058, 0.139, 0.101, 0
995497, -0.838, 0.639, -1.326, -0.044, 0.053, 0.072, 0
995517, -0.696, 0.624, -1.093, -0.075, -0.023, 0.039, 0
995537, -0.965, 0.43, -1.106, -0.22, 0.065, 0.102, 0
995557, -0.733, 0.498, -0.706, -0.288, 0.22, 0.242, 0
995577, 0.073, 0.484, -0.178, -0.247, 0.161, 0.257, 0
995597, -0.021, 0.624, -0.271, -0.125, 0.109, 0.233, 0
995617, -0.156, 0.032, -0.649, -0.193, 0.105, 0.186, 0
995637, -0.185, 0.31, -0.616, -0.362, 0.134, 0.135, 0
995657, -0.158, 0.15, -0.709, -0.509, 0.161, 0.101, 1
995677, -0.385, 0.534, -0.759, -0.511, 0.247, 0.095, 1
995697, -0.322, 0.555, -0.802, -0.428, 0.171, 0.177, 1
995717, -0.454, 0.559, -0.652, -0.337, 0.117, 0.251, 1
995737, -0.671, -0.467, -0.97, -0.51, 0.066, 0.197, 1
995757, -0.604, 0.29, -0.791, -0.632, -0.031, 0.189, 1
995777, -0.529, 0.497, -0.817, -0.662, -0.158, 0.2, 1
995797, -0.275, 0.725, -0.96, -0.786, -0.494, 0.119, 1
995817, -0.86, 1.007, -1.241, -0.867, -0.685, 0.025, 1
995837, -0.918, 0.904, -1.233, -0.992, -0.761, 0.057, 1
995857, -0.917, 0.868, -1.25, -1.133, -0.897, 0.092, 1
995877, -0.813, 1.171, -1.29, -1.246, -1.158, 0.164, 1
995897, -1.153, 1.402, -1.407, -1.41, -1.472, 0.214, 1
995917, -1.13, 1.723, -1.218, -1.852, -1.944, 0.199, 1
995937, 0.042, 1.111, -0.362, -2.355, -2.429, 0.255, 1
995957, 0.322, 2.025, 0.375, -2.802, -3.305, 0.302, 1
995977, -0.821, 3.204, 0.533, -2.959, -4.192, 0.27, 1
995997, -1.579, 2.947, 0.259, -2.992, -4.571, 0.031, 1
996017, -1.759, 3.916, 0.648, -3.308, -4.673, -0.194, 1
996037, -2.158, 6.018, 1.173, -3.506, -4.479, 0.047, 1
996057, -1.219, 6.932, 1.287, -3.244, -4.036, 0.664, 1
996077, 0.022, 6.404, 1.305, -2.822, -3.931, 1.135, 1
996097, 0.242, 4.258, 0.8, -2.579, -4.169, 1.111, 1
996117, -0.582, 2.755, 0.479, -2.663, -4.153, 0.736, 1
996137, -2.062, 3.166, 0.248, -2.603, -3.395, 0.788, 1
996157, -0.946, 3.715, 0.787, -1.95, -2.098, 1.194, 1
996177, 0.704, 2.685, 0.747, -1.243, -1.483, 1.367, 1
996197, 1.609, 1.088, 0.273, -1.227, -1.667, 1.193, 1
996217, 1.435, -0.286, -0.171, -1.784, -2.033, 0.823, 1
996237, 1.26, 0.985, 0.147, -2.108, -2.016, 0.513, 1
996257, 0.932, 1.508, 0.214, -1.682, -1.651, 0.408, 1
996277, 1.248, 0.667, 0.019, -1.293, -1.408, 0.747, 1
996297, 2.113, -0.362, -0.163, -1.269, -1.477, 0.995, 1
996317, 3.0, -1.359, -0.402, -1.514, -1.877, 1.114, 1
996337, 3.325, -1.836, -0.273, -1.857, -2.393, 0.992, 1
996357, 3.845, -1.73, -0.148, -1.999, -2.734, 0.472, 1
996377, 3.988, -1.807, 0.105, -2.142, -3.271, 0.052, 1
996397, 3.19, -1.611, 0.017, -2.29, -3.819, -0.28, 1
996417, 2.72, -1.471, -0.385, -2.177, -3.915, -0.454, 1
996437, 2.672, -1.262, -0.746, -2.01, -3.737, -0.623, 1
996457, 2.254, -0.629, -0.796, -1.681, -3.379, -0.743, 1
996477, 0.834, -0.261, -1.182, -1.247, -2.618, -0.47, 1
996497, 0.435, -0.012, -1.541, -0.857, -1.607, 0.029, 1
996517, 1.305, -0.131, -1.393, -0.527, -0.999, 0.273, 1
996537, 2.214, -0.964, -1.04, -0.572, -0.943, 0.114, 1
996557, 3.542, -2.238, -0.287, -1.122, -1.57, -0.381, 1
996577, 1.004, -0.906, -0.131, -1.265, -1.503, -0.535, 1
996597, 0.115, 0.481, 0.065, -0.824, -0.831, -0.19, 1
996617, 1.35, -0.099, 0.117, -0.511, -0.696, 0.001, 1
996637, 1.528, -0.923, -0.007, -0.589, -0.864, -0.125, 1
996657, 1.486, -1.138, -0.1, -0.867, -1.033, -0.333, 1
996677, 0.456, 0.064, 0.031, -0.696, -0.794, -0.199, 1
996697, 0.215, 0.346, 0.028, -0.247, -0.357, 0.057, 1
996717, 0.965, -0.612, -0.129, -0.105, -0.259, 0.054, 1
996737, 0.961, -1.083, -0.365, -0.243, -0.293, -0.114, 1
996757, 0.84, -0.887, -0.452, -0.385, -0.326, -0.211, 1
996777, 0.308, -0.498, -0.433, -0.351, -0.21, -0.166, 1
996797, 0.138, -0.214, -0.15, -0.21, -0.064, -0.073, 1
996817, 0.001, -0.097, -0.064, -0.083, 0.029, 0.015, 1
996837, 0.014, -0.275, -0.088, -0.052, 0.056, 0.023, 1
996857, 0.076, -0.431, -0.091, -0.135, 0.009, -0.026, 1
996877, -0.2, -0.197, -0.052, -0.154, 0.05, -0.026, 1
996897, -0.284, -0.03, 0.025, -0.001, 0.169, 0.095, 1
996917, -0.023, -0.361, 0.077, 0.062, 0.171, 0.126, 1
996937, 0.01, -0.371, 0.091, -0.045, 0.056, 0.047, 1
996957, -0.08, -0.079, 0.199, -0.133, -0.059, -0.007, 1
996977, -0.418, 0.099, 0.094, -0.087, -0.047, 0.019, 1
996997, -0.25, 0.005, 0.132, 0.047, 0.083, 0.106, 1
997017, -0.073, -0.03, 0.183, 0.174, 0.144, 0.19, 1
997037, 0.214, -0.198, 0.144, 0.199, 0.092, 0.213, 1
997057, -0.352, -0.25, -0.215, 0.11, -0.021, 0.125, 1
997077, 0.065, 0.105, 0.022, 0.156, 0.015, 0.119, 1
997097, -0.271, 0.194, -0.284, 0.312, 0.112, 0.207, 1
997117, -0.403, 0.572, -0.288, 0.503, 0.35, 0.495, 1
997137, -0.111, -0.29, -0.591, 0.755, 0.66, 0.735, 1
997157, 0.476, -0.823, -0.878, 0.657, 0.933, 0.737, 1
997177, 0.798, -0.661, -0.94, 0.436, 1.054, 0.671, 0
997197, -0.058, 1.289, -0.662, 0.623, 1.376, 0.771, 0
997217, -0.907, 1.397, -0.612, 1.754, 2.469, 1.353, 0
997237, 1.291, -1.158, -0.872, 2.608, 3.676, 1.695, 0
997257, 2.484, -1.728, -1.162, 2.277, 3.61, 1.57, 0
997277, 1.681, -0.272, -1.113, 2.0, 3.654, 1.058, 0
997297, 0.36, 0.466, -0.78, 2.594, 4.599, 1.021, 0
997317, 2.347, -0.627, 0.097, 3.452, 5.714, 1.331, 0
997337, 3.505, -2.548, 0.107, 3.829, 6.053, 1.4, 0
997357, 4.387, -1.822, 0.389, 3.778, 6.021, 1.084, 0
997377, 2.934, -0.764, 0.364, 4.186, 6.024, 0.815, 0
997397, 2.632, -0.743, 0.796, 4.618, 6.775, 1.137, 0
997417, 4.165, -1.832, 1.494, 4.731, 6.613, 1.18, 0
997437, 5.525, -2.641, 1.526, 4.62, 5.627, 0.685, 0
997457, 3.377, -2.893, 0.378, 4.619, 4.971, 0.042, 0
997477, 3.231, -2.777, 0.21, 4.75, 4.47, -0.139, 0
997497, 3.837, -3.688, -0.22, 4.448, 3.321, -0.569, 0
997517, 2.62, -3.003, -1.079, 4.133, 2.242, -1.205, 0
997537, 0.53, -2.221, -2.282, 4.112, 1.844, -1.287, 0
997557, 0.244, -3.015, -3.439, 3.806, 1.618, -1.236, 0
997577, 0.714, -2.186, -3.503, 3.542, 1.142, -1.251, 0
997597, -0.274, -1.662, -3.863, 3.407, 0.791, -1.265, 0
997617, -0.563, -1.683, -4.53, 3.134, 0.514, -1.271, 0
997637, -1.425, -0.729, -4.65, 2.84, 0.349, -1.145, 0
997657, -1.802, -0.443, -4.929, 2.545, 0.287, -0.998, 0
997677, -2.081, -0.523, -5.018, 2.113, 0.142, -0.94, 0
997697, -2.17, 0.178, -4.551, 1.85, -0.013, -0.832, 0
997717, -2.342, 0.108, -4.509, 1.486, -0.141, -0.795, 0
997737, -2.827, 0.409, -4.498, 1.163, -0.154, -0.649, 0
997757, -3.261, 0.651, -4.168, 0.849, 0.04, -0.324, 0
997777, -2.561, 0.427, -3.697, 0.546, 0.105, -0.189, 0
997797, -2.282, 0.564, -3.211, 0.351, 0.039, -0.184, 0
997817, -2.056, 0.882, -2.605, 0.221, 0.0, -0.127, 0
997837, -1.838, 0.827, -2.201, 0.194, -0.001, 0.029, 0
997857, -1.544, 0.554, -1.986, 0.222, 0.147, 0.182, 0
997877, -1.022, -0.066, -0.969, -0.095, 0.208, 0.178, 0
997897, -0.422, 0.522, -0.736, -0.143, 0.128, 0.184, 0
997917, -0.751, 0.785, -0.899, -0.064, 0.004, 0.164, 0
997937, -0.689, 0.473, -1.094, 0.029, 0.039, 0.312, 0
997957, 0.003, 0.21, -1.058, -0.238, -0.018, 0.262, 0
997977, -0.532, 0.728, -1.089, -0.573, -0.152, 0.196, 0
997997, -0.478, 1.013, -0.898, -0.703, -0.048, 0.286, 1
998017, -0.183, 0.917, -0.593, -0.589, 0.006, 0.414, 1
998037, -0.275, 0.378, -0.414, -0.285, -0.033, 0.533, 1
998057, 0.01, -1.137, -0.907, -0.323, -0.232, 0.372, 1
998077, -0.776, 0.177, -1.039, -0.78, -0.504, 0.136, 1
998097, -1.366, 1.056, -1.286, -0.906, -0.445, 0.215, 1
998117, -0.614, 1.055, -1.384, -0.991, -0.428, 0.359, 1
998137, -0.499, 1.347, -1.338, -1.159, -0.877, 0.331, 1
998157, -1.788, 1.261, -1.421, -1.323, -1.399, 0.431, 1
998177, -1.864, 0.953, -1.319, -1.492, -1.574, 0.496, 1
998197, -2.358, 1.542, -1.104, -1.884, -1.608, 0.67, 1
998217, -1.274, 2.252, -0.662, -2.243, -1.599, 0.983, 1
998237, 0.675, 2.611, -0.313, -2.414, -2.142, 1.04, 1
998257, 1.027, 2.819, 0.074, -2.559, -3.461, 0.646, 1
998277, -1.235, 4.115, 0.478, -2.665, -4.723, 0.289, 1
998297, -4.915, 4.828, -0.576, -2.667, -4.64, 0.745, 1
998317, -3.524, 5.52, -0.653, -2.824, -3.45, 1.609, 1
998337, 0.253, 4.511, -0.15, -3.048, -3.057, 2.189, 1
998357, 2.474, 3.755, 1.385, -3.701, -4.918, 1.117, 1
998377, -1.298, 4.034, 1.479, -3.466, -5.148, 0.863, 1
998397, -4.888, 4.271, 0.264, -2.685, -3.368, 1.429, 1
998417, -1.893, 2.907, -0.046, -2.136, -2.001, 1.778, 1
998437, 2.044, 0.359, 0.249, -2.432, -2.412, 1.415, 1
998457, 2.365, -0.305, 0.71, -2.941, -3.329, 0.938, 1
998477, -0.742, 1.74, 0.771, -2.395, -2.919, 1.324, 1
998497, -1.028, 1.757, 0.4, -1.289, -1.755, 1.791, 1
998517, 2.209, -0.686, 0.289, -1.0, -1.622, 1.591, 1
998537, 3.71, -2.951, -0.02, -1.834, -2.42, 0.792, 1
998557, 3.091, -2.349, 0.188, -2.696, -3.132, 0.048, 1
998577, 0.374, 0.473, 0.266, -2.334, -2.762, 0.374, 1
998597, 0.591, 1.259, -0.069, -1.293, -1.904, 0.944, 1
998617, 3.085, -0.935, -0.445, -1.104, -2.039, 0.977, 1
998637, 3.785, -2.86, -0.732, -1.924, -2.671, 0.343, 1
998657, 3.612, -2.713, -0.608, -2.79, -3.21, -0.34, 1
998677, 2.929, -1.523, -0.474, -2.907, -3.431, -0.621, 1
998697, 2.04, -0.895, -0.585, -2.535, -3.225, -0.671, 1
998717, 2.699, -1.5, -0.723, -2.353, -3.24, -0.73, 1
998737, 2.623, -1.732, -0.956, -2.391, -3.37, -0.86, 1
998757, 2.297, -1.102, -1.214, -2.276, -3.209, -0.892, 1
998777, 1.913, 0.365, -1.176, -1.611, -2.849, -0.653, 1
998797, 1.936, 0.696, -0.86, -0.729, -2.536, -0.299, 1
998817, 2.107, -0.162, -0.566, -0.084, -2.431, -0.183, 1
998837, 1.012, -2.577, -1.758, -0.41, -2.103, -0.423, 1
998857, 0.831, -3.019, -1.547, -1.565, -1.332, -0.387, 1
998877, 0.402, 1.31, -0.816, -1.032, -0.837, -0.168, 1
998897, 0.937, 0.228, -0.515, -0.422, -0.441, 0.085, 1
998917, 1.376, -0.721, -0.527, -0.353, -0.498, 0.073, 1
998937, 0.629, -0.485, -0.822, -0.635, -0.56, -0.074, 1
998957, 0.453, 0.231, -0.645, -0.649, -0.307, 0.053, 1
998977, 0.876, -0.41, -0.455, -0.421, -0.073, 0.136, 1
998997, 0.848, -0.709, -0.396, -0.434, -0.074, 0.11, 1
999017, 0.555, -0.295, -0.279, -0.546, -0.173, 0.061, 1
999037, -0.026, -0.099, -0.237, -0.431, -0.081, 0.125, 1
999057, 0.031, -0.173, -0.011, -0.296, 0.128, 0.213, 1
999077, 0.108, -0.15, 0.247, -0.192, 0.218, 0.241, 1
999097, 0.452, -0.666, 0.102, -0.073, 0.218, 0.183, 1
999117, 0.218, -0.767, -0.089, -0.183, 0.065, 0.094, 1
999137, -0.207, -0.399, -0.112, -0.277, 0.047, 0.054, 1
999157, -0.247, -0.144, 0.058, -0.21, 0.157, 0.097, 1
999177, -0.243, -0.097, 0.221, -0.047, 0.247, 0.145, 1
999197, -0.026, -0.308, 0.205, 0.048, 0.249, 0.164, 1
999217, 0.006, -0.535, 0.02, 0.01, 0.157, 0.11, 1
999237, -0.231, -0.27, -0.102, -0.111, 0.103, 0.069, 1
999257, -0.179, -0.126, -0.049, -0.137, 0.144, 0.084, 1
999277, -0.237, -0.073, 0.042, -0.08, 0.177, 0.124, 1
999297, -0.096, -0.105, -0.083, 0.007, 0.267, 0.177, 1
999317, 0.073, -0.22, -0.162, 0.029, 0.276, 0.176, 1
999337, -0.046, -0.226, -0.247, -0.088, 0.202, 0.134, 1
999357, -0.143, 0.149, -0.124, -0.06, 0.181, 0.229, 1
999377, -0.026, 0.264, 0.058, 0.108, 0.133, 0.354, 1
999397, 0.162, -0.118, -0.075, 0.208, 0.069, 0.346, 1
999417, 0.267, -0.615, -0.292, 0.084, 0.001, 0.207, 1
999437, -0.046, -0.273, -0.386, 0.018, 0.039, 0.145, 1
999457, -0.493, 0.237, -0.436, 0.188, 0.281, 0.17, 1
999477, -0.143, 0.187, -0.155, 0.362, 0.401, 0.238, 1
999497, 0.018, -0.196, -0.126, 0.36, 0.385, 0.163, 1
999517, 0.02, -0.453, -0.246, 0.213, 0.395, 0.053, 1
999537, 0.005, -0.469, -0.335, -0.015, 0.373, -0.01, 1
999557, -0.533, -0.172, -0.243, -0.105, 0.576, -0.038, 0
999577, -0.896, 0.399, -0.066, 0.07, 0.866, 0.049, 0
999597, -0.125, 0.375, -0.073, 0.359, 1.02, 0.186, 0
999617, -0.14, 0.133, -0.354, 0.497, 1.167, 0.339, 0
999637, -0.117, 0.25, -0.696, 0.691, 1.435, 0.552, 0
999657, -0.441, 0.541, -1.199, 1.178, 2.018, 0.881, 0
999677, -0.361, 0.835, -1.809, 1.926, 2.871, 1.322, 0
999697, -0.588, 0.602, -2.2, 2.728, 3.995, 1.736, 0
999717, -0.474, 0.579, -1.956, 3.616, 5.481, 1.919, 0
999737, 1.353, -0.413, -1.261, 4.378, 6.633, 1.609, 0
999757, 3.173, -2.508, -1.222, 4.279, 6.805, 1.238, 0
999777, 4.796, -3.234, -1.32, 3.772, 6.385, 0.518, 0
999797, 2.524, -1.001, -1.264, 4.086, 6.826, 0.247, 0
999817, 1.526, 1.05, -0.198, 5.378, 7.925, 0.072, 0
999837, 5.122, -1.978, 1.597, 5.255, 7.642, -0.219, 0
999857, 4.612, -0.702, 0.993, 4.44, 6.189, -0.729, 0
999877, 2.088, 0.861, 0.375, 3.998, 4.915, -0.941, 0
999897, 1.261, 0.776, -0.199, 4.235, 4.637, -0.979, 0
999917, 0.937, -1.012, -0.859, 4.313, 4.274, -0.841, 0
999937, 1.403, -1.483, -1.229, 3.969, 3.653, -0.82, 0
999957, 1.417, -0.484, -1.4, 3.473, 2.605, -0.934, 0
999977, -0.722, -0.79, -2.294, 3.311, 1.855, -1.141, 0
999997, -0.962, -1.146, -2.633, 3.235, 1.591, -1.059, 0
1000017, -0.979, -1.73, -3.046, 2.929, 1.136, -0.918, 0
1000037, -2.058, -0.36, -3.132, 2.508, 0.763, -0.913, 0
1000057, -1.954, -0.107, -3.269, 2.533, 0.802, -0.726, 0
1000077, -1.967, -1.025, -3.724, 2.318, 0.576, -0.597, 0
1000097, -2.016, -0.267, -3.661, 1.937, 0.314, -0.645, 0
1000117, -2.4, 0.178, -3.824, 1.704, 0.164, -0.572, 0
1000137, -1.932, 0.496, -3.86, 1.471, 0.128, -0.511, 0
1000157, -2.631, 0.52, -3.89, 1.243, 0.017, -0.468, 0
1000177, -2.436, 0.536, -3.545, 0.955, 0.092, -0.298, 0
1000197, -2.079, 0.592, -3.159, 0.673, 0.058, -0.249, 0
1000217, -2.511, 0.752, -2.969, 0.372, 0.068, -0.186, 0
1000237, -1.936, 0.749, -2.365, 0.297, 0.263, 0.021, 0
1000257, -1.189, 0.759, -1.88, 0.26, 0.272, 0.176, 0
1000277, -0.938, 0.5, -1.703, 0.23, 0.188, 0.255, 0
1000297, -0.674, 0.367, -1.698, 0.122, 0.051, 0.202, 0
1000317, -0.864, 0.459, -1.856, -0.216, -0.037, 0.069, 0
1000337, -1.164, 1.197, -1.772, -0.318, 0.087, 0.212, 0
1000357, -0.813, 1.15, -1.552, -0.399, 0.153, 0.364, 0
1000377, -0.593, 0.996, -1.199, -0.511, 0.129, 0.397, 1
1000397, -0.659, 0.954, -0.716, -0.464, 0.056, 0.409, 1
1000417, -0.979, 0.147, -0.638, -0.483, 0.109, 0.405, 1
1000437, -0.726, -0.109, -0.361, -0.534, 0.133, 0.402, 1
1000457, -0.582, 0.231, -0.306, -0.497, 0.064, 0.355, 1
1000477, -0.463, 0.472, -0.613, -0.633, -0.179, 0.27, 1
1000497, -0.448, 0.932, -0.77, -0.808, -0.55, 0.138, 1
1000517, -0.875, 1.381, -1.121, -0.981, -0.904, 0.007, 1
1000537, -2.334, 1.611, -1.566, -1.139, -0.81, 0.154, 1
1000557, -2.364, 1.598, -1.545, -1.378, -0.497, 0.476, 1
1000577, -1.152, 1.622, -1.089, -1.535, -0.615, 0.605, 1
1000597, 0.121, 1.646, -0.83, -1.777, -1.326, 0.445, 1
1000617, 0.385, 1.384, -0.61, -2.227, -2.386, 0.163, 1
1000637, -1.725, 1.89, -0.553, -2.551, -2.622, -0.166, 1
1000657, -2.305, 2.961, -0.705, -2.619, -2.145, -0.028, 1
1000677, -1.682, 3.781, -0.429, -2.516, -1.796, 0.54, 1
1000697, -0.511, 3.941, -0.185, -2.492, -1.916, 0.916, 1
1000717, 0.788, 3.6, 0.241, -2.738, -2.603, 0.841, 1
1000737, 1.058, 3.622, 1.053, -3.141, -3.482, 0.489, 1
1000757, -0.937, 3.125, 1.323, -3.51, -3.572, 0.231, 1
1000777, -0.565, 4.601, 1.505, -3.379, -3.031, 0.017, 1
1000797, 1.682, 4.867, 1.985, -3.185, -4.04, -0.272, 1
1000817, 1.716, 3.609, 1.81, -3.582, -5.393, -0.654, 1
1000837, -0.747, 2.896, 1.924, -3.841, -6.133, -0.858, 1
1000857, -1.729, 2.358, 1.244, -3.609, -5.586, -0.842, 1
1000877, -0.064, 2.145, 1.138, -3.038, -4.649, -0.847, 1
1000897, 0.993, 1.379, 1.378, -2.524, -4.646, -0.713, 1
1000917, 0.674, 0.682, 1.345, -2.239, -5.137, -0.496, 1
1000937, -0.278, -0.43, 0.394, -1.986, -5.123, -0.377, 1
1000957, 0.284, -0.296, -0.093, -1.648, -4.337, -0.312, 1
1000977, 1.29, -0.285, -0.615, -1.22, -3.649, -0.267, 1
1000997, 2.462, -0.842, -0.518, -0.993, -3.433, -0.311, 1
1001017, 2.644, -0.892, -0.393, -0.993, -3.813, -0.478, 1
1001037, 1.171, -0.437, -0.881, -0.907, -3.957, -0.581, 1
1001057, 0.066, 0.067, -1.366, -0.613, -3.387, -0.397, 1
1001077, 0.387, 0.265, -1.751, -0.261, -2.511, 0.116, 1
1001097, 1.708, -0.412, -1.85, -0.053, -1.943, 0.482, 1
1001117, 2.458, -1.005, -1.838, -0.186, -1.951, 0.469, 1
1001137, 2.024, -0.537, -1.621, -0.482, -2.12, 0.296, 1
1001157, 1.423, 0.405, -1.536, -0.511, -2.05, 0.264, 1
1001177, 1.106, 0.446, -1.703, -0.275, -1.704, 0.441, 1
1001197, 1.511, -0.604, -2.021, -0.156, -1.306, 0.558, 1
1001217, 2.136, -0.973, -1.778, -0.502, -1.229, 0.42, 1
1001237, 1.598, 0.052, -1.364, -0.77, -1.289, 0.282, 1
1001257, 1.244, 0.552, -1.131, -0.645, -1.11, 0.4, 1
1001277, 1.261, 0.235, -1.008, -0.397, -0.848, 0.516, 1
1001297, 1.451, -0.336, -1.04, -0.332, -0.649, 0.48, 1
1001317, 1.277, -0.389, -1.071, -0.406, -0.543, 0.438, 1
1001337, 1.453, -0.498, -0.857, -0.466, -0.527, 0.359, 1
1001357, 1.305, -0.511, -0.692, -0.504, -0.525, 0.263, 1
1001377, 0.818, -0.158, -0.466, -0.41, -0.412, 0.247, 1
1001397, 0.654, -0.193, -0.493, -0.268, -0.251, 0.302, 1
1001417, 0.543, -0.434, -0.567, -0.216, -0.112, 0.291, 1
1001437, 0.777, -0.793, -0.554, -0.321, -0.137, 0.218, 1
1001457, 0.519, -0.631, -0.375, -0.399, -0.161, 0.133, 1
1001477, 0.108, -0.299, -0.196, -0.332, -0.079, 0.146, 1
1001497, 0.006, -0.205, -0.097, -0.213, 0.01, 0.194, 1
1001517, 0.041, -0.396, -0.084, -0.141, 0.097, 0.187, 1
1001537, 0.211, -0.506, -0.06, -0.153, 0.058, 0.142, 1
1001557, 0.069, -0.44, -0.058, -0.145, 0.042, 0.08, 1
1001577, -0.025, -0.487, -0.116, -0.18, 0.036, 0.042, 1
1001597, -0.203, -0.34, -0.1, -0.24, 0.019, 0.017, 1
1001617, -0.247, -0.082, 0.04, -0.204, 0.056, 0.026, 1
1001637, -0.245, -0.061, 0.162, -0.141, 0.072, 0.056, 1
1001657, -0.124, -0.084, 0.205, -0.091, 0.064, 0.045, 1
1001677, -0.071, -0.242, 0.075, -0.126, 0.037, 0.018, 1
1001697, -0.348, -0.13, -0.086, -0.151, 0.136, 0.041, 1
1001717, -0.277, -0.079, -0.167, -0.167, 0.266, 0.073, 1
1001737, -0.059, 0.025, 0.082, -0.121, 0.257, 0.056, 1
1001757, -0.071, 0.026, 0.219, 0.054, 0.24, -0.009, 1
1001777, -0.451, -0.185, -0.087, 0.152, 0.667, 0.16, 1
1001797, -0.286, 0.562, -0.264, 0.406, 1.061, 0.425, 0
1001817, -0.049, 0.12, -0.663, 0.657, 1.44, 0.682, 0
1001837, 0.832, 0.323, -0.695, 0.959, 1.695, 0.825, 0
1001857, 1.954, -0.934, -1.134, 1.108, 1.724, 0.764, 0
1001877, 1.276, -0.71, -1.471, 0.828, 1.555, 0.499, 0
1001897, 0.736, 0.252, -1.458, 0.655, 1.68, 0.447, 0
1001917, 0.424, 0.598, -1.545, 0.9, 2.197, 0.662, 0
1001937, 1.389, 0.203, -1.351, 1.503, 2.946, 0.867, 0
1001957, 2.235, -1.088, -1.673, 1.957, 3.55, 0.533, 0
1001977, 2.498, -1.45, -2.384, 1.888, 3.94, 0.166, 0
1001997, 2.038, -0.693, -2.196, 1.877, 4.337, 0.163, 0
1002017, 2.287, -0.315, -1.335, 2.321, 4.919, 0.386, 0
1002037, 2.98, -1.091, -1.024, 2.696, 5.098, 0.52, 0
1002057, 2.417, -0.404, -1.244, 2.943, 5.224, 0.31, 0
1002077, 1.558, 0.756, -0.893, 3.55, 5.812, 0.194, 0
1002097, 1.706, 0.778, -0.439, 4.264, 6.539, 0.489, 0
1002117, 1.922, 1.372, 0.031, 4.651, 6.758, 0.571, 0
1002137, 1.87, 0.977, -0.128, 5.016, 6.606, 0.488, 0
1002157, 1.747, -0.019, -0.582, 5.098, 6.171, 0.43, 0
1002177, 1.578, 0.156, -1.208, 5.108, 5.643, 0.1, 0
1002197, 1.194, -0.834, -2.435, 4.992, 5.17, -0.011, 0
1002217, 0.807, -1.528, -3.558, 4.637, 4.613, 0.107, 0
1002237, 1.376, -2.374, -3.989, 4.21, 4.126, 0.011, 0
1002257, 1.662, -2.173, -4.032, 3.58, 3.222, -0.273, 0
1002277, 1.447, -2.136, -4.333, 3.272, 1.782, -0.569, 0
1002297, 0.344, -2.449, -4.638, 2.775, 1.23, -0.639, 0
1002317, -0.401, -1.649, -4.587, 2.456, 1.056, -0.64, 0
1002337, -0.249, -1.477, -4.364, 2.199, 0.84, -0.505, 0
1002357, -0.33, -0.768, -3.992, 2.077, 0.659, -0.437, 0
1002377, -0.398, -0.852, -3.795, 1.821, 0.479, -0.456, 0
1002397, -1.235, -0.747, -3.767, 1.571, 0.43, -0.379, 0
1002417, -0.884, -0.287, -3.329, 1.411, 0.321, -0.291, 0
1002437, -0.974, -0.462, -3.229, 1.172, 0.167, -0.331, 0
1002457, -1.267, 0.098, -2.829, 0.998, 0.126, -0.285, 0
1002477, -1.141, -0.026, -2.661, 0.825, 0.139, -0.207, 0
1002497, -1.044, 0.092, -2.582, 0.648, 0.102, -0.168, 0
1002517, -0.926, 0.385, -2.268, 0.555, 0.09, -0.095, 0
1002537, -0.755, 0.367, -2.084, 0.521, 0.034, -0.032, 0
1002557, -0.84, 0.291, -2.291, 0.415, -0.017, -0.031, 0
1002577, -0.722, 0.183, -2.23, 0.209, -0.026, -0.017, 0
1002597, -0.601, 0.217, -2.132, -0.032, -0.081, -0.036, 0
1002617, -0.874, 0.639, -1.96, -0.13, -0.058, 0.03, 0
1002637, -0.728, 0.67, -1.703, -0.202, -0.033, 0.109, 0
1002657, -0.751, 0.293, -1.564, -0.308, -0.026, 0.159, 0
1002677, -0.376, -0.189, -1.529, -0.587, -0.125, 0.042, 0
1002697, -0.706, 0.221, -1.169, -0.754, -0.163, 0.07, 0
1002717, -0.714, 0.291, -0.925, -0.81, -0.127, 0.093, 0
1002737, -0.457, 0.376, -0.596, -0.778, -0.119, 0.054, 0
1002757, -0.247, 0.468, -0.833, -0.823, -0.421, -0.054, 0
1002777, 0.168, 0.355, -1.194, -0.966, -0.842, -0.171, 0
1002797, -1.414, -0.33, -2.397, -1.408, -1.273, -0.241, 0
1002817, -1.918, 1.232, -2.075, -1.94, -1.118, -0.071, 0
1002837, -1.149, 1.33, -1.304, -2.12, -0.94, 0.143, 1
1002857, -0.903, 1.628, -0.949, -2.16, -1.099, 0.159, 1
1002877, 0.09, 1.702, -0.978, -2.178, -1.6, -0.018, 1
1002897, -0.968, 1.792, -0.87, -2.291, -2.474, -0.119, 1
1002917, -2.335, 2.544, -0.761, -2.366, -2.965, 0.259, 1
1002937, -2.592, 1.335, -0.991, -2.817, -2.864, 0.537, 1
1002957, -1.271, 3.332, 0.273, -3.506, -2.668, 0.391, 1
1002977, -1.209, 4.82, 0.779, -3.451, -2.622, 0.436, 1
1002997, -1.378, 5.624, 0.656, -2.957, -2.65, 0.594, 1
1003017, -2.416, 5.412, 0.213, -2.316, -2.398, 1.046, 1
1003037, -2.126, 3.242, -0.4, -2.01, -1.831, 1.646, 1
1003057, 0.496, 2.32, 0.155, -2.442, -1.486, 1.624, 1
1003077, 2.371, 2.475, 1.106, -3.01, -2.034, 1.199, 1
1003097, 2.616, 2.528, 1.726, -3.354, -3.059, 0.486, 1
1003117, 1.452, 2.603, 2.051, -3.411, -3.963, -0.232, 1
1003137, -0.191, 2.542, 1.923, -3.199, -4.31, -0.424, 1
1003157, -0.252, 2.274, 1.743, -3.032, -4.175, 0.076, 1
1003177, 1.018, 1.949, 1.698, -2.97, -4.112, 0.649, 1
1003197, 1.58, 0.955, 1.124, -2.822, -4.207, 0.601, 1
1003217, 1.807, -0.114, 0.375, -2.684, -4.031, 0.125, 1
1003237, 2.256, -0.363, 0.133, -2.45, -3.765, -0.216, 1
1003257, 2.217, -0.376, 0.103, -2.357, -3.681, -0.375, 1
1003277, 2.565, -0.762, 0.326, -2.454, -3.908, -0.46, 1
1003297, 2.548, -0.528, 0.396, -2.393, -4.101, -0.602, 1
1003317, 1.836, -0.42, -0.339, -1.979, -3.773, -0.655, 1
1003337, 1.415, -0.201, -0.95, -1.497, -3.094, -0.509, 1
1003357, 1.006, -0.415, -1.139, -1.257, -2.521, -0.251, 1
1003377, 1.438, -0.659, -0.988, -1.203, -2.199, -0.17, 1
1003397, 2.359, -0.886, -0.719, -1.23, -2.329, -0.294, 1
1003417, 1.608, 0.116, -0.566, -0.978, -2.392, -0.285, 1
1003437, 0.824, 0.989, -0.55, -0.331, -2.103, 0.015, 1
1003457, 0.141, -0.85, -1.471, -0.267, -1.627, 0.152, 1
1003477, 1.385, -2.056, -1.823, -0.877, -1.395, -0.044, 1
1003497, 2.097, -0.849, -1.123, -1.236, -1.689, -0.245, 1
1003517, 0.732, 0.692, -0.57, -0.913, -1.566, -0.15, 1
1003537, 0.105, 1.428, -0.171, -0.204, -1.121, 0.244, 1
1003557, 0.758, -0.25, -0.389, 0.04, -0.939, 0.34, 1
1003577, 1.864, -2.091, -1.029, -0.584, -1.144, 0.062, 1
1003597, 1.751, -1.11, -0.868, -1.055, -1.425, -0.21, 1
1003617, 0.299, 0.815, -0.538, -0.687, -1.104, -0.047, 1
1003637, 0.171, 0.461, -0.469, -0.148, -0.581, 0.174, 1
1003657, 1.6, -1.798, -0.652, -0.374, -0.649, -0.052, 1
1003677, 1.943, -2.393, -1.014, -1.028, -0.993, -0.447, 1
1003697, 0.719, -0.898, -1.163, -1.222, -0.868, -0.496, 1
1003717, -0.109, 0.306, -0.832, -0.732, -0.268, -0.183, 1
1003737, 0.959, -0.496, -0.404, -0.373, 0.002, -0.14, 1
1003757, 0.375, -0.504, -0.372, -0.4, -0.067, -0.145, 1
1003777, 0.149, -0.632, -0.271, -0.394, 0.039, -0.11, 1
1003797, -0.119, -0.101, 0.078, -0.426, 0.086, -0.058, 1
1003817, -0.227, -0.011, 0.223, -0.266, 0.168, 0.051, 1
1003837, 0.068, -0.23, 0.285, -0.115, 0.226, 0.15, 1
1003857, 0.182, -0.545, 0.099, -0.106, 0.118, 0.139, 1
1003877, -0.152, -0.383, 0.002, -0.176, 0.039, 0.105, 1
1003897, -0.307, -0.183, 0.074, -0.181, 0.089, 0.127, 1
1003917, -0.168, -0.126, 0.182, -0.048, 0.192, 0.171, 1
1003937, 0.094, -0.389, 0.039, 0.061, 0.221, 0.177, 1
1003957, 0.13, -0.444, -0.165, 0.017, 0.117, 0.094, 1
1003977, -0.025, -0.38, -0.269, -0.11, -0.008, 0.021, 1
1003997, -0.4, -0.031, -0.212, -0.177, -0.047, 0.004, 1
1004017, -0.239, 0.034, -0.074, -0.102, 0.1, 0.069, 1
1004037, 0.047, -0.077, 0.044, -0.013, 0.141, 0.119, 1
1004057, 0.18, -0.336, -0.171, 0.01, 0.065, 0.089, 1
1004077, -0.045, -0.27, -0.335, -0.092, -0.036, 0.04, 1
1004097, -0.164, -0.028, -0.295, -0.146, 0.015, 0.048, 1
1004117, -0.033, -0.034, -0.056, -0.1, 0.106, 0.111, 1
1004137, 0.022, 0.009, 0.357, -0.014, 0.138, 0.149, 1
1004157, 0.106, -0.427, 0.112, 0.017, 0.149, 0.152, 1
1004177, -0.258, -0.755, -0.138, -0.104, 0.168, 0.076, 1
1004197, -0.948, -0.482, -0.584, -0.261, 0.657, 0.089, 1
1004217, -0.29, 1.007, 0.051, 0.231, 1.291, 0.525, 1
1004237, 0.332, 1.373, 0.378, 1.06, 1.468, 0.8, 0
1004257, 0.246, -0.098, -0.756, 1.346, 1.834, 0.946, 0
1004277, 0.42, -0.844, -1.728, 1.247, 2.387, 0.849, 0
1004297, 1.394, -0.469, -1.998, 1.152, 2.664, 0.602, 0
1004317, 0.973, 0.481, -1.822, 1.457, 3.208, 0.504, 0
1004337, 0.407, 1.592, -1.511, 2.295, 4.135, 0.811, 0
1004357, -0.275, 1.245, -1.703, 3.356, 5.553, 1.657, 0
1004377, 2.613, -0.667, -1.542, 3.746, 6.192, 1.995, 0
1004397, 4.31, -2.104, -1.764, 3.48, 6.012, 1.69, 0
1004417, 4.269, -1.06, -1.565, 3.317, 5.766, 1.113, 0
1004437, 1.112, 0.946, -1.296, 3.965, 6.626, 0.889, 0
1004457, 1.107, 2.507, -0.053, 4.945, 7.674, 0.926, 0
1004477, 2.286, 1.306, -0.027, 5.267, 7.746, 0.924, 0
1004497, 3.73, 0.504, -0.619, 4.781, 7.005, 0.7, 0
1004517, 2.49, 0.997, -1.096, 4.614, 6.389, 0.456, 0
1004537, 1.388, 0.204, -1.49, 4.717, 6.249, 0.479, 0
1004557, 2.625, -0.696, -1.522, 4.753, 5.563, 0.366, 0
1004577, 2.474, -1.821, -2.269, 4.335, 4.794, 0.286, 0
1004597, 2.679, -2.679, -2.459, 3.82, 3.833, 0.161, 0
1004617, 2.602, -3.286, -2.576, 3.384, 2.742, -0.163, 0
1004637, 2.308, -2.794, -2.588, 3.26, 1.793, -0.368, 0
1004657, 1.539, -2.748, -3.292, 3.119, 1.137, -0.53, 0
1004677, 0.494, -2.354, -3.754, 2.861, 0.823, -0.623, 0
1004697, -0.091, -1.754, -3.933, 2.461, 0.805, -0.529, 0
1004717, -0.339, -0.985, -3.569, 2.299, 0.63, -0.496, 0
1004737, -0.346, -0.771, -3.186, 2.16, 0.465, -0.412, 0
1004757, -0.347, -1.072, -3.336, 1.952, 0.203, -0.505, 0
1004777, -1.875, -0.338, -3.906, 1.645, -0.002, -0.524, 0
1004797, -1.324, 0.03, -3.795, 1.44, 0.198, -0.384, 0
1004817, -1.319, 0.091, -3.593, 1.276, 0.274, -0.233, 0
1004837, -0.94, -0.201, -3.313, 1.045, 0.252, -0.136, 0
1004857, -0.956, 0.476, -2.802, 0.773, 0.119, -0.121, 0
1004877, -0.837, 0.223, -2.724, 0.64, 0.01, -0.117, 0
1004897, -1.063, 0.63, -2.53, 0.455, -0.058, -0.112, 0
1004917, -1.151, 0.376, -2.336, 0.389, 0.046, 0.021, 0
1004937, -0.437, 0.379, -1.822, 0.274, 0.164, 0.131, 0
1004957, -0.157, 0.238, -1.656, 0.241, 0.067, 0.113, 0
1004977, -0.248, 0.379, -1.703, 0.079, -0.065, 0.026, 0
1004997, -0.768, 0.046, -1.735, -0.048, -0.078, 0.084, 0
1005017, -0.222, 0.23, -1.069, -0.211, 0.052, 0.191, 0
1005037, -0.196, 0.161, -0.667, -0.208, 0.04, 0.187, 0
1005057, -0.101, -0.332, -0.726, -0.2, -0.02, 0.128, 0
1005077, -0.275, 0.05, -0.346, -0.287, -0.095, 0.028, 0
1005097, -0.378, 0.101, -0.514, -0.303, -0.076, 0.054, 0
1005117, -0.471, 0.304, -0.545, -0.375, -0.029, 0.091, 0
1005137, -0.403, 0.24, -0.606, -0.356, -0.004, 0.142, 0
1005157, -0.403, 0.073, -0.711, -0.43, -0.006, 0.115, 0
1005177, -0.482, 0.08, -0.822, -0.597, -0.061, 0.053, 0
