timestamp, accX, accY, accZ, gyroX, gyroY, gyroZ, button
10140, -0.07448107448107448, -0.08424908424908426, -0.3711843711843712, 0.09375, -0.03125, 0.03125, 0.0
10141, 0.019536019536019536, -0.05128205128205128, -0.16727716727716727, 0.0, -0.03125, 0.03125, 0.0
10142, 0.07081807081807082, -0.07203907203907203, -0.12576312576312576, 0.0, -0.0625, 0.03125, 0.0
1, -0.10134310134310134, -0.07081807081807082, -0.18437118437118438, 0.0, -0.0625, 0.0, 0.0
2, 0.12942612942612944, 0.01098901098901099, -0.3235653235653236, -0.0625, -0.09375, 0.0, 0.0
3, 0.1330891330891331, 0.05128205128205128, 0.2490842490842491, -0.15625, -0.1875, -0.03125, 0.0
4, -0.1746031746031746, 0.3162393162393162, 0.15384615384615385, 0.0, -0.125, 0.0, 0.0
5, 0.10744810744810745, -0.12698412698412698, -0.221001221001221, 0.0625, -0.0625, 0.0, 0.0
6, 0.10012210012210013, -0.15018315018315018, -0.28083028083028083, 0.0, -0.03125, 0.0, 0.0
7, 0.1343101343101343, 0.0695970695970696, 0.0231990231990232, -0.0625, -0.0625, 0.0, 0.0
8, -0.008547008547008548, 0.03296703296703297, -0.07081807081807082, -0.03125, -0.0625, 0.0, 0.0
9, 0.02442002442002442, -0.0231990231990232, -0.04151404151404151, 0.0, -0.0625, 0.0, 0.0
10, -0.05860805860805861, 0.031746031746031744, -0.15995115995115994, 0.0, -0.03125, -0.03125, 0.0
11, 0.01098901098901099, -0.06227106227106227, -0.22954822954822954, 0.0, -0.03125, -0.03125, 0.0
12, 0.028083028083028084, 0.03296703296703297, -0.09523809523809523, -0.03125, 0.0, -0.03125, 0.0
13, 0.0463980463980464, -0.15018315018315018, -0.08913308913308914, -0.03125, 0.0, -0.03125, 0.0
14, 0.006105006105006105, 0.02564102564102564, -0.47619047619047616, -0.125, 0.21875, 0.0, 0.0
15, 0.02564102564102564, -0.5848595848595849, -0.4188034188034188, -0.40625, 0.0, 0.0, 0.0
16, 0.028083028083028084, 0.48595848595848595, 0.7118437118437119, -0.15625, 0.0, -0.0625, 0.0
17, 0.1684981684981685, -0.18681318681318682, -0.18192918192918192, -0.09375, -0.03125, -0.09375, 0.0
18, -0.031746031746031744, -0.2515262515262515, -1.0573870573870574, -0.34375, 0.03125, -0.125, 0.0
19, 0.05860805860805861, -0.3907203907203907, -0.9743589743589743, -0.625, 0.15625, -0.21875, 0.0
20, 0.3052503052503053, -0.24786324786324787, -0.001221001221001221, -0.65625, 0.15625, -0.25, 0.0
21, 0.10866910866910867, 0.1623931623931624, 0.5873015873015873, -0.4375, 0.0, -0.28125, 0.0
22, -0.26495726495726496, -0.35653235653235654, -0.8864468864468864, -0.34375, -0.09375, -0.15625, 0.0
23, -0.1978021978021978, -0.2857142857142857, -0.9951159951159951, -0.59375, 0.03125, -0.1875, 0.0
24, 0.06837606837606838, -0.3028083028083028, 0.015873015873015872, -0.71875, 0.25, -0.3125, 0.0
25, -0.6007326007326007, -1.1294261294261294, -1.9975579975579976, -0.5, 0.53125, -0.15625, 0.0
26, -1.1111111111111112, -1.017094017094017, -2.4285714285714284, -0.78125, 0.875, -0.375, 0.0
27, 1.0231990231990231, -2.0, -1.5714285714285714, -1.1875, 1.1875, -0.4375, 0.0
28, 2.1538461538461537, -0.8278388278388278, -2.9633699633699635, -0.78125, 1.375, -0.25, 0.0
29, 2.258852258852259, -1.4517704517704517, -3.5873015873015874, -0.59375, 1.75, -0.4375, 0.0
30, 1.032967032967033, -1.4297924297924298, -3.15018315018315, -0.75, 1.875, -0.34375, 0.0
31, 0.3724053724053724, -1.0268620268620268, -2.0317460317460316, -0.625, 2.40625, 0.0625, 0.0
32, 0.7435897435897436, -1.4627594627594627, -1.1562881562881564, -0.1875, 2.8125, 0.28125, 0.0
33, 1.061050061050061, -1.6935286935286935, -0.231990231990232, 0.375, 2.75, 0.03125, 0.0
34, 1.5115995115995116, -1.4554334554334554, 0.7313797313797313, 0.625, 1.4375, -0.0625, 0.0
35, -0.5860805860805861, -0.6605616605616605, 1.1965811965811965, 1.15625, 1.21875, -0.09375, 0.0
36, -0.927960927960928, 0.01221001221001221, 1.5238095238095237, 1.71875, 1.40625, -0.15625, 0.0
37, -0.7606837606837606, 0.6190476190476191, 2.039072039072039, 2.25, 1.40625, -0.28125, 0.0
38, -0.4163614163614164, 1.0036630036630036, 2.457875457875458, 2.78125, 1.1875, -0.5, 0.0
39, -0.09401709401709402, 0.5470085470085471, 1.5213675213675213, 2.90625, 0.53125, -0.5625, 0.0
40, -1.5567765567765568, -0.6141636141636142, 0.18315018315018314, 2.15625, -0.09375, -0.625, 0.0
41, -3.733821733821734, -0.568986568986569, -0.6117216117216118, 1.25, 0.125, -0.84375, 0.0
42, -3.700854700854701, 0.358974358974359, 0.5409035409035409, 0.8125, 0.5625, -0.84375, 0.0
43, -2.6227106227106227, 1.4212454212454213, 1.9120879120879122, 0.8125, 0.5625, -0.78125, 0.0
44, -2.821733821733822, 1.1477411477411477, 2.2918192918192917, 0.90625, 0.4375, -0.59375, 0.0
45, -3.7496947496947497, 0.36752136752136755, 1.3601953601953602, 0.59375, 0.15625, -0.09375, 0.0
46, -3.871794871794872, -1.1367521367521367, 1.9328449328449329, 0.375, 0.5, 0.4375, 0.0
47, -2.758241758241758, -1.7557997557997558, 2.796092796092796, 0.3125, 0.75, 0.875, 0.0
48, -1.8656898656898657, -0.4371184371184371, 2.9694749694749696, 0.46875, 0.78125, 1.28125, 0.0
49, 0.14285714285714285, 0.3308913308913309, 1.8095238095238095, 1.0, 0.5, 1.09375, 0.0
50, 1.934065934065934, 2.885225885225885, -0.8253968253968254, 1.5, -0.21875, 0.65625, 0.0
51, 2.0488400488400487, 4.065934065934066, -3.330891330891331, 1.84375, -0.59375, 0.1875, 0.0
52, 0.05982905982905983, 2.0793650793650795, -4.1098901098901095, 2.03125, -0.46875, -0.25, 0.0
53, -1.7655677655677655, -0.5763125763125763, -3.4224664224664223, 1.71875, 0.0, -0.53125, 0.0
54, -1.8058608058608059, -1.8192918192918193, -1.9181929181929183, 0.9375, 0.3125, -0.59375, 0.0
55, -1.4517704517704517, -0.757020757020757, -0.4554334554334554, 0.46875, 0.15625, -0.34375, 0.0
56, -1.652014652014652, -0.8986568986568987, 0.3308913308913309, 0.375, -0.125, -0.0625, 0.0
57, -1.7960927960927962, -0.6910866910866911, 0.5995115995115995, 0.5, -0.0625, 0.28125, 0.0
58, -1.398046398046398, 0.12087912087912088, 0.47863247863247865, 0.8125, 0.125, 0.5625, 0.0
59, -0.0695970695970696, -0.042735042735042736, -0.057387057387057384, 1.0625, 0.09375, 0.6875, 0.0
60, 1.794871794871795, -0.7533577533577533, -1.006105006105006, 0.84375, -0.34375, 0.53125, 0.0
61, 1.7167277167277166, 0.231990231990232, -2.015873015873016, 0.5625, -0.5625, 0.25, 0.0
62, 1.2246642246642248, 1.4822954822954824, -2.47985347985348, 0.5, -0.34375, 0.09375, 0.0
63, 0.017094017094017096, 0.17582417582417584, -0.18315018315018314, -0.0625, 0.125, 0.59375, 0.0
64, 0.11355311355311355, 0.15018315018315018, -0.1807081807081807, -0.0625, 0.09375, 0.5625, 0.0
65, 0.07448107448107448, 0.08302808302808302, -0.18315018315018314, -0.0625, 0.03125, 0.59375, 0.0
66, 0.054945054945054944, 0.08180708180708181, -0.14896214896214896, -0.09375, 0.0, 0.625, 0.0
67, 0.3064713064713065, 0.047619047619047616, -0.2454212454212454, -0.0625, -0.03125, 0.5625, 0.0
68, 0.31013431013431014, -0.045177045177045176, -0.3772893772893773, -0.0625, -0.0625, 0.53125, 0.0
69, 0.18192918192918192, -0.018315018315018316, -0.3516483516483517, -0.125, -0.03125, 0.5, 0.0
70, 0.13553113553113552, 0.03785103785103785, -0.24297924297924298, -0.125, 0.0, 0.53125, 0.0
71, 0.22466422466422467, -0.02564102564102564, -0.1575091575091575, -0.125, 0.0, 0.5625, 0.0
72, 0.25274725274725274, -0.07203907203907203, -0.10256410256410256, -0.09375, 0.0625, 0.53125, 0.0
73, 0.31135531135531136, -0.14407814407814407, -0.115995115995116, -0.09375, 0.0625, 0.5, 0.0
74, 0.32967032967032966, -0.12332112332112333, -0.07326007326007326, -0.125, 0.0625, 0.4375, 0.0
75, 0.23809523809523808, -0.03296703296703297, 0.02442002442002442, -0.125, 0.0625, 0.40625, 0.0
76, 0.16361416361416362, -0.01098901098901099, 0.13064713064713065, -0.09375, 0.0625, 0.375, 0.0
77, 0.09768009768009768, -0.026862026862026864, 0.17826617826617827, -0.09375, 0.09375, 0.34375, 0.0
78, 0.18925518925518925, -0.07326007326007326, 0.1855921855921856, -0.0625, 0.09375, 0.3125, 0.0
79, 0.14652014652014653, -0.054945054945054944, 0.17216117216117216, -0.0625, 0.0625, 0.28125, 0.0
80, 0.10500610500610501, 0.004884004884004884, 0.14896214896214896, -0.03125, 0.0625, 0.21875, 0.0
81, -0.017094017094017096, -0.013431013431013432, 0.16605616605616605, 0.0, 0.09375, 0.15625, 0.0
82, -0.047619047619047616, -0.013431013431013432, 0.13064713064713065, 0.03125, 0.09375, 0.125, 0.0
83, -0.0695970695970696, 0.009768009768009768, 0.12942612942612944, 0.09375, 0.125, 0.09375, 0.0
84, 0.015873015873015872, 0.01098901098901099, -0.07081807081807082, 0.15625, 0.09375, 0.03125, 0.0
85, -0.009768009768009768, -0.006105006105006105, -0.13186813186813187, 0.125, 0.03125, 0.0, 0.0
86, -0.27594627594627597, -0.04395604395604396, -0.37362637362637363, 0.125, 0.03125, -0.03125, 0.0
87, -0.4432234432234432, 0.15262515262515264, -0.3162393162393162, 0.125, 0.09375, -0.03125, 0.0
88, -0.42124542124542125, 0.1855921855921856, -0.4188034188034188, 0.125, 0.125, 0.0, 0.0
89, -0.2698412698412698, 0.10622710622710622, -0.40293040293040294, 0.09375, 0.09375, 0.0, 0.0
90, -0.19047619047619047, 0.06349206349206349, -0.49206349206349204, 0.0625, 0.0625, 0.0, 0.0
91, -0.3321123321123321, 0.08424908424908426, -0.463980463980464, 0.0625, 0.0625, 0.0, 0.0
92, -0.409035409035409, 0.054945054945054944, -0.3968253968253968, 0.03125, 0.0625, 0.0, 0.0
93, -0.4261294261294261, 0.0927960927960928, -0.28205128205128205, 0.0, 0.0625, 0.03125, 0.0
94, -0.358974358974359, 0.14652014652014653, -0.1684981684981685, 0.0, 0.0625, 0.03125, 0.0
95, -0.27228327228327226, 0.05982905982905983, -0.09401709401709402, 0.0, 0.0625, 0.0625, 0.0
96, -0.06349206349206349, -0.004884004884004884, -0.1391941391941392, 0.0, 0.0625, 0.0625, 0.0
97, 0.008547008547008548, -0.04395604395604396, -0.17582417582417584, 0.0, 0.03125, 0.0625, 0.0
98, 0.04884004884004884, -0.006105006105006105, -0.1343101343101343, 0.0, 0.03125, 0.03125, 0.0
99, 0.06349206349206349, -0.004884004884004884, -0.14774114774114774, 0.0, 0.03125, 0.03125, 0.0
100, 0.0757020757020757, -0.01221001221001221, -0.16483516483516483, 0.0, 0.0, 0.03125, 0.0
101, 0.042735042735042736, 0.007326007326007326, -0.14652014652014653, 0.0, 0.0, 0.03125, 0.0
102, 0.0, 0.02197802197802198, -0.10134310134310134, 0.09375, 0.09375, 0.09375, 0.0
103, 0.06837606837606838, 0.001221001221001221, -0.15506715506715507, 0.125, 0.15625, 0.09375, 0.0
104, 0.08547008547008547, 0.01098901098901099, -0.23687423687423687, 0.125, 0.15625, 0.09375, 0.0
105, 0.09768009768009768, 0.0231990231990232, -0.29181929181929184, 0.09375, 0.125, 0.09375, 0.0
106, 0.06837606837606838, 0.0, -0.2612942612942613, 0.0625, 0.125, 0.0625, 0.0
107, 0.031746031746031744, 0.02442002442002442, -0.1111111111111111, 0.03125, 0.125, 0.0625, 0.0
108, 0.01221001221001221, 0.026862026862026864, -0.045177045177045176, 0.03125, 0.09375, 0.0625, 0.0
109, -0.0231990231990232, 0.014652014652014652, 0.1330891330891331, 0.03125, 0.03125, 0.0625, 0.0
110, 0.08791208791208792, -0.02442002442002442, 0.045177045177045176, 0.0, -0.03125, 0.03125, 0.0
111, 0.08058608058608059, -0.08547008547008547, -0.05372405372405373, -0.03125, -0.125, 0.0, 0.0
112, -0.02197802197802198, -0.006105006105006105, -0.20146520146520147, -0.03125, -0.125, 0.0, 0.0
113, -0.1343101343101343, 0.045177045177045176, -0.14041514041514042, -0.03125, 0.0, 0.09375, 0.0
114, 0.16727716727716727, -0.01098901098901099, 0.014652014652014652, -0.03125, 0.0625, 0.125, 0.0
115, 0.07203907203907203, 0.019536019536019536, 0.06593406593406594, -0.03125, 0.03125, 0.125, 0.0
116, -0.006105006105006105, 0.003663003663003663, 0.06349206349206349, -0.03125, 0.0, 0.09375, 0.0
117, -0.006105006105006105, 0.0, -0.03540903540903541, 0.0, 0.0, 0.09375, 0.0
118, 0.004884004884004884, -0.014652014652014652, -0.10012210012210013, 0.0, 0.0, 0.09375, 0.0
119, -0.001221001221001221, 0.002442002442002442, -0.05982905982905983, 0.0, 0.03125, 0.09375, 0.0
120, -0.08302808302808302, 0.03785103785103785, 0.05860805860805861, 0.0, 0.0625, 0.09375, 0.0
121, -0.14041514041514042, 0.0989010989010989, 0.1575091575091575, 0.0, 0.0625, 0.125, 0.0
122, -0.10500610500610501, 0.08302808302808302, 0.2576312576312576, 0.0, 0.0625, 0.15625, 0.0
123, -0.09401709401709402, 0.05128205128205128, 0.28815628815628813, 0.0, 0.03125, 0.1875, 0.0
124, -0.10134310134310134, 0.0463980463980464, 0.2844932844932845, 0.03125, 0.0, 0.21875, 0.0
125, -0.2258852258852259, 0.040293040293040296, 0.22344322344322345, 0.0, 0.03125, 0.25, 0.0
126, -0.21733821733821734, 0.12942612942612944, 0.25518925518925517, 0.0, 0.03125, 0.28125, 0.0
127, -0.03296703296703297, 0.052503052503052504, 0.14652014652014653, 0.03125, 0.0, 0.3125, 0.0
128, 0.013431013431013432, 0.009768009768009768, 0.06105006105006105, 0.03125, 0.0, 0.3125, 0.0
129, 0.1514041514041514, -0.115995115995116, -0.2148962148962149, 0.0, -0.03125, 0.3125, 0.0
130, 0.10500610500610501, -0.01098901098901099, -0.27472527472527475, 0.0, -0.03125, 0.34375, 0.0
131, 0.07814407814407814, -0.07936507936507936, -0.41025641025641024, -0.03125, 0.0, 0.34375, 0.0
132, -0.0989010989010989, 0.018315018315018316, -0.1794871794871795, -0.0625, 0.0625, 0.375, 0.0
133, -0.4371184371184371, 0.1514041514041514, -0.01221001221001221, -0.0625, 0.15625, 0.5, 0.0
134, -0.8107448107448108, 0.221001221001221, 0.3882783882783883, -0.03125, 0.375, 0.625, 0.0
135, -1.404151404151404, 0.34554334554334554, 0.7704517704517705, 0.0, 0.71875, 0.8125, 0.0
136, -2.36996336996337, 0.8144078144078144, 1.1636141636141637, 0.1875, 1.3125, 1.1875, 0.0
137, -3.2735042735042734, 0.7130647130647131, 1.822954822954823, 0.53125, 2.65625, 1.9375, 0.0
138, -2.553113553113553, 0.5067155067155067, 2.1074481074481075, 0.71875, 3.25, 2.375, 0.0
139, -1.5836385836385836, 0.1282051282051282, 2.0842490842490844, 0.78125, 3.3125, 2.625, 0.0
140, -0.7191697191697192, -0.2454212454212454, 1.7582417582417582, 0.71875, 2.90625, 2.6875, 0.0
141, 0.08058608058608059, -0.34065934065934067, 1.531135531135531, 0.46875, 2.15625, 2.5625, 0.0
142, -0.38705738705738707, 0.09157509157509157, 1.4273504273504274, 0.3125, 1.4375, 2.4375, 0.0
143, -1.2039072039072038, 0.33577533577533575, 1.3553113553113554, 0.34375, 1.25, 2.4375, 0.0
144, -0.6568986568986569, -0.33943833943833945, 1.0952380952380953, 0.53125, 1.53125, 2.625, 0.0
145, 2.8485958485958487, -1.525030525030525, 1.474969474969475, 0.40625, 1.15625, 2.4375, 0.0
146, 3.255189255189255, -1.2442002442002442, 2.086691086691087, 0.03125, -0.34375, 1.84375, 0.0
147, 2.092796092796093, -0.2698412698412698, 2.5775335775335777, 0.0625, -1.84375, 1.21875, 0.0
148, 0.11721611721611722, 0.06471306471306472, 2.4945054945054945, 0.625, -2.78125, 0.84375, 0.0
149, -0.13064713064713065, -1.0537240537240538, 2.0097680097680097, 0.84375, -2.96875, 0.78125, 0.0
150, -0.21855921855921856, -1.6935286935286935, 1.4273504273504274, 0.78125, -3.0625, 0.71875, 0.0
151, -0.4249084249084249, -1.7973137973137974, 0.8229548229548229, 0.65625, -2.9375, 0.625, 0.0
152, -0.4175824175824176, -1.2808302808302807, 0.43956043956043955, 0.75, -2.375, 0.84375, 0.0
153, 0.7326007326007326, -1.3137973137973138, -0.1391941391941392, 0.96875, -1.8125, 0.96875, 0.0
154, 1.5360195360195361, -1.551892551892552, -0.557997557997558, 1.125, -1.5, 0.90625, 0.0
155, 2.0537240537240535, -1.6459096459096458, -0.8925518925518926, 1.21875, -1.34375, 0.71875, 0.0
156, 2.5946275946275947, -1.6336996336996337, -0.9633699633699634, 1.1875, -1.34375, 0.5, 0.0
157, 2.5238095238095237, -1.2112332112332111, -1.1172161172161172, 1.15625, -1.46875, 0.28125, 0.0
158, 2.838827838827839, -1.0915750915750915, -1.15995115995116, 1.1875, -1.59375, 0.09375, 0.0
159, 2.595848595848596, -0.536019536019536, -1.4603174603174602, 1.21875, -1.71875, -0.0625, 0.0
160, 0.49694749694749696, -0.3443223443223443, -2.509157509157509, 0.78125, -1.3125, -0.4375, 0.0
161, -0.031746031746031744, 0.18437118437118438, -2.573870573870574, 0.5, -0.75, -0.34375, 0.0
162, -0.029304029304029304, 0.7619047619047619, -2.416361416361416, 0.34375, -0.21875, -0.15625, 0.0
163, 0.13553113553113552, 0.8278388278388278, -2.2283272283272284, 0.3125, 0.15625, 0.03125, 0.0
164, 0.3540903540903541, 0.8986568986568987, -1.927960927960928, 0.25, 0.34375, 0.125, 0.0
165, 0.4139194139194139, 0.796092796092796, -1.7301587301587302, 0.1875, 0.4375, 0.125, 0.0
166, 0.4590964590964591, 0.7118437118437119, -1.6385836385836385, 0.09375, 0.46875, 0.125, 0.0
167, 0.8412698412698413, 0.43223443223443225, -1.5628815628815629, 0.0, 0.4375, 0.0625, 0.0
168, 0.6984126984126984, 0.3772893772893773, -1.2796092796092795, -0.21875, 0.21875, 0.03125, 0.0
169, 0.3992673992673993, 0.4713064713064713, -0.9633699633699634, -0.375, 0.125, 0.0, 0.0
170, 0.054945054945054944, 0.5482295482295483, -0.7203907203907204, -0.40625, 0.15625, 0.0, 0.0
171, 0.014652014652014652, 0.4346764346764347, -0.5763125763125763, -0.375, 0.3125, 0.0, 0.0
172, 0.32112332112332115, 0.057387057387057384, -0.6117216117216118, -0.34375, 0.40625, 0.03125, 0.0
173, 1.1587301587301588, -0.8815628815628815, -0.5787545787545788, -0.5625, 0.15625, -0.09375, 0.0
174, 1.6398046398046398, -0.8693528693528694, -0.13064713064713065, -0.90625, -0.46875, -0.3125, 0.0
175, 0.5726495726495726, -0.3333333333333333, 0.2503052503052503, -0.96875, -0.71875, -0.4375, 0.0
176, 0.06471306471306472, -0.2857142857142857, 0.08547008547008547, -0.90625, -0.65625, -0.4375, 0.0
177, -0.23076923076923078, -0.4835164835164835, -0.11477411477411477, -0.90625, -0.4375, -0.40625, 0.0
178, 0.5286935286935287, -1.0036630036630036, -0.10744810744810745, -1.125, -0.65625, -0.34375, 0.0
179, 0.017094017094017096, -0.6312576312576312, 0.13186813186813187, -1.28125, -0.8125, -0.28125, 0.0
180, -0.46642246642246643, -0.16117216117216118, 0.5177045177045178, -1.1875, -0.65625, -0.34375, 0.0
181, -1.006105006105006, 0.17704517704517705, 0.4932844932844933, -0.875, -0.1875, -0.34375, 0.0
182, -1.15018315018315, 0.42002442002442003, 0.5592185592185592, -0.5625, 0.25, -0.1875, 0.0
183, -1.010989010989011, 0.1684981684981685, 0.3418803418803419, -0.375, 0.5625, 0.125, 0.0
184, -0.5726495726495726, -0.030525030525030524, 0.10256410256410256, -0.40625, 0.59375, 0.21875, 0.0
185, -0.5665445665445665, 0.12087912087912088, 0.2600732600732601, -0.40625, 0.65625, 0.25, 0.0
186, -0.32844932844932845, 0.09035409035409035, 0.3247863247863248, -0.34375, 0.71875, 0.28125, 0.0
187, 0.14285714285714285, -0.17338217338217338, 0.16361416361416362, -0.34375, 0.65625, 0.28125, 0.0
188, 0.5225885225885226, -0.46642246642246643, 0.1343101343101343, -0.53125, 0.1875, 0.25, 0.0
189, 0.22466422466422467, -0.20024420024420025, 0.09645909645909646, -0.75, -0.21875, 0.125, 0.0
190, -0.4297924297924298, 0.2600732600732601, 0.09401709401709402, -0.8125, -0.40625, 0.03125, 0.0
191, -0.9597069597069597, 0.49206349206349204, 0.06227106227106227, -0.6875, -0.25, 0.03125, 0.0
192, -0.8693528693528694, 0.2661782661782662, -0.16117216117216118, -0.5, 0.0, 0.1875, 0.0
193, -0.724053724053724, -0.16483516483516483, -0.9072039072039072, -0.40625, 0.1875, 0.34375, 0.0
194, 0.22466422466422467, -0.7838827838827839, -1.1855921855921856, -0.625, -0.09375, 0.34375, 0.0
195, -1.0085470085470085, -0.16483516483516483, -0.945054945054945, -1.09375, -0.46875, 0.25, 0.0
196, -2.012210012210012, 0.6495726495726496, -0.5115995115995116, -0.875, 0.03125, 0.40625, 0.0
197, -1.6800976800976801, 0.6691086691086691, -0.115995115995116, -0.5625, 0.53125, 0.6875, 0.0
198, -0.9597069597069597, 0.3443223443223443, 0.09035409035409035, -0.34375, 0.78125, 0.875, 0.0
199, 0.8485958485958486, -0.7313797313797313, -0.3785103785103785, -0.40625, 0.46875, 0.8125, 0.0
200, 2.78998778998779, -1.5177045177045176, -0.23809523809523808, -0.9375, -0.53125, 0.375, 0.0
201, 1.2551892551892552, -0.6800976800976801, -0.16605616605616605, -1.0625, -0.8125, 0.0, 0.0
202, -0.0757020757020757, 0.33577533577533575, -0.05982905982905983, -0.78125, -0.3125, -0.03125, 0.0
203, -0.05372405372405373, 0.3235653235653236, 0.2148962148962149, -0.40625, 0.25, 0.125, 0.0
204, 1.2246642246642248, -0.27594627594627597, 0.050061050061050064, -0.34375, 0.25, 0.21875, 0.0
205, 1.0402930402930404, -0.09523809523809523, -0.3528693528693529, -0.40625, 0.125, 0.21875, 0.0
206, 1.4004884004884004, 0.10989010989010989, -0.9230769230769231, -0.53125, 0.03125, 0.09375, 0.0
207, 1.7240537240537241, -0.13553113553113552, -1.293040293040293, -0.65625, -0.15625, -0.09375, 0.0
208, 1.5934065934065933, -0.5103785103785103, -1.4566544566544566, -0.78125, -0.25, -0.28125, 0.0
209, 0.518925518925519, -0.1684981684981685, -1.6617826617826619, -1.0, -0.40625, -0.34375, 0.0
210, -0.3137973137973138, 0.1330891330891331, -1.708180708180708, -1.09375, -0.34375, -0.34375, 0.0
211, -1.0732600732600732, -0.029304029304029304, -1.6105006105006106, -1.125, -0.125, -0.25, 0.0
212, -1.1746031746031746, -0.17338217338217338, -1.043956043956044, -1.09375, 0.25, -0.0625, 0.0
213, -1.2026862026862026, -0.3247863247863248, -0.054945054945054944, -1.09375, 0.59375, 0.1875, 0.0
214, -1.0744810744810744, -0.28327228327228327, 1.0305250305250304, -0.96875, 0.96875, 0.40625, 0.0
215, -0.7973137973137974, -0.23687423687423687, 2.045177045177045, -0.71875, 1.25, 0.59375, 0.0
216, -1.1257631257631258, -0.08058608058608059, 2.9621489621489623, -0.375, 1.59375, 0.78125, 0.0
217, -1.2222222222222223, -0.17338217338217338, 3.656898656898657, 0.09375, 2.0625, 1.03125, 0.0
218, -1.684981684981685, -0.26495726495726496, 4.347985347985348, 0.78125, 2.9375, 1.59375, 0.0
219, -1.474969474969475, -0.9413919413919414, 5.25030525030525, 1.1875, 3.5, 2.0625, 0.0
220, -1.63003663003663, -0.5995115995115995, 5.99023199023199, 1.8125, 4.09375, 2.65625, 0.0
221, -1.9377289377289377, -0.2893772893772894, 6.330891330891331, 2.65625, 4.8125, 3.375, 0.0
222, -2.128205128205128, -0.42857142857142855, 6.358974358974359, 3.65625, 5.71875, 4.09375, 0.0
223, -1.8156288156288156, -1.137973137973138, 6.261294261294261, 4.40625, 6.53125, 4.625, 0.0
224, -0.8290598290598291, -1.8888888888888888, 5.754578754578755, 4.96875, 7.1875, 4.75, 0.0
225, 1.7448107448107448, -2.244200244200244, 5.372405372405372, 5.15625, 7.21875, 4.34375, 0.0
226, 3.086691086691087, -2.2161172161172162, 4.8217338217338215, 5.15625, 7.0, 3.78125, 0.0
227, 2.960927960927961, -2.242979242979243, 4.180708180708181, 5.0625, 6.90625, 3.3125, 0.0
228, 4.4493284493284495, -2.9694749694749696, 3.286935286935287, 4.8125, 6.5, 2.8125, 0.0
229, 5.405372405372406, -3.601953601953602, 2.5457875457875456, 4.3125, 5.71875, 2.3125, 0.0
230, 4.880341880341881, -3.542124542124542, 3.557997557997558, 3.53125, 4.90625, 1.5, 0.0
231, 4.824175824175824, -3.855921855921856, 4.087912087912088, 3.25, 4.5, 1.15625, 0.0
232, 4.608058608058608, -4.214896214896215, 4.687423687423688, 3.09375, 3.96875, 0.65625, 0.0
233, 3.9157509157509156, -4.518925518925519, 4.752136752136752, 2.96875, 3.40625, 0.21875, 0.0
234, 3.855921855921856, -3.6312576312576312, 4.584859584859585, 2.9375, 2.71875, -0.125, 0.0
235, 2.608058608058608, -3.9255189255189253, 4.141636141636142, 3.0625, 1.90625, -0.1875, 0.0
236, 1.4908424908424909, -4.2905982905982905, 3.5396825396825395, 3.15625, 1.34375, -0.21875, 0.0
237, 0.4346764346764347, -4.9352869352869355, 2.9218559218559217, 3.15625, 1.0, -0.25, 0.0
238, -0.6043956043956044, -5.113553113553113, 2.94993894993895, 3.03125, 0.9375, -0.3125, 0.0
239, -1.2063492063492063, -5.48962148962149, 3.509157509157509, 2.96875, 1.0, -0.375, 0.0
240, -0.7753357753357754, -5.224664224664225, 4.192918192918193, 3.0, 1.03125, -0.28125, 0.0
241, 0.27350427350427353, -4.967032967032967, 4.394383394383395, 3.4375, -0.09375, -0.21875, 0.0
242, -0.7362637362637363, -5.543345543345543, 3.94993894993895, 3.84375, -1.09375, 0.0, 0.0
243, -0.5323565323565324, -4.927960927960928, 2.1452991452991452, 4.4375, -1.75, -0.1875, 0.0
244, -0.336996336996337, -5.597069597069597, -1.2173382173382172, 4.6875, -2.25, -0.625, 0.0
245, -0.7008547008547008, -5.601953601953602, -4.769230769230769, 4.46875, -2.46875, -1.125, 0.0
246, -1.592185592185592, -4.672771672771673, -7.020757020757021, 4.1875, -2.4375, -1.1875, 0.0
247, -2.965811965811966, -3.0024420024420024, -9.212454212454212, 3.96875, -2.03125, -1.03125, 0.0
248, -3.1636141636141635, -2.413919413919414, -11.094017094017094, 3.5625, -1.6875, -0.78125, 0.0
249, -3.5763125763125765, -2.838827838827839, -12.665445665445665, 2.75, -1.53125, -0.625, 0.0
250, -4.51037851037851, -2.641025641025641, -13.158730158730158, 1.625, -1.375, -0.5625, 0.0
251, -5.4945054945054945, -1.492063492063492, -12.732600732600732, 0.6875, -1.09375, -0.1875, 0.0
252, -5.537240537240537, -1.0598290598290598, -11.725274725274724, -0.0625, -0.84375, 0.25, 0.0
253, -4.191697191697192, -0.21855921855921856, -8.46031746031746, -0.875, -0.34375, 0.65625, 0.0
254, -2.7094017094017095, -0.29304029304029305, -6.405372405372406, -1.3125, -0.25, 0.90625, 0.0
255, -1.5811965811965811, -0.21733821733821734, -4.1501831501831505, -1.6875, -0.46875, 1.15625, 0.0
256, -1.0415140415140416, -0.7557997557997558, -1.8388278388278387, -1.96875, -0.625, 1.5625, 0.0
257, 0.47619047619047616, -0.9523809523809523, 0.336996336996337, -2.1875, -0.625, 1.8125, 0.0
258, 2.0183150183150182, -1.0866910866910866, 1.7960927960927962, -2.375, -1.09375, 1.75, 0.0
259, 3.1172161172161172, -0.811965811965812, 2.5750915750915753, -2.46875, -2.09375, 1.5, 0.0
260, 2.399267399267399, 0.15995115995115994, 2.531135531135531, -2.40625, -3.375, 0.9375, 0.0
261, 0.9938949938949939, 0.6923076923076923, 2.155067155067155, -2.1875, -4.3125, 0.1875, 0.0
262, -0.5702075702075702, 1.4053724053724053, 1.3968253968253967, -2.03125, -4.75, -0.375, 0.0
263, -0.9145299145299145, 0.9560439560439561, 1.2026862026862026, -2.0625, -4.90625, -0.71875, 0.0
264, -0.23321123321123322, 1.6642246642246643, 2.1172161172161172, -2.53125, -5.53125, -1.125, 0.0
265, -1.47985347985348, 4.095238095238095, 3.1697191697191696, -3.125, -6.59375, -1.25, 0.0
266, -2.3028083028083026, 7.450549450549451, 3.797313797313797, -3.0, -6.90625, -1.21875, 0.0
267, -4.09035409035409, 8.067155067155067, 3.7936507936507935, -2.71875, -6.5, -0.6875, 0.0
268, -3.4896214896214897, 5.31990231990232, 3.5763125763125765, -2.5625, -5.78125, -0.28125, 0.0
269, -1.6800976800976801, 3.614163614163614, 3.750915750915751, -2.375, -5.5, -0.09375, 0.0
270, -0.30158730158730157, 2.1538461538461537, 3.8461538461538463, -2.25, -5.65625, -0.46875, 0.0
271, 0.29181929181929184, 1.1843711843711844, 4.172161172161172, -2.09375, -6.0625, -0.9375, 0.0
272, -1.3247863247863247, 1.2075702075702075, 4.0085470085470085, -1.625, -5.84375, -0.6875, 0.0
273, -1.0317460317460319, 0.612942612942613, 3.1514041514041513, -1.125, -5.28125, -0.1875, 0.0
274, -0.6068376068376068, 0.6105006105006106, 1.910866910866911, -0.6875, -4.78125, 0.0, 0.0
275, 1.8046398046398047, -0.9816849816849816, 1.9206349206349207, -0.96875, -5.25, -0.5, 0.0
276, -0.06349206349206349, 0.5177045177045178, 2.2515262515262515, -0.84375, -5.625, -0.96875, 0.0
277, -1.9206349206349207, 0.8217338217338217, 0.7387057387057387, -0.5, -5.375, -0.5625, 0.0
278, -2.7423687423687424, 0.6996336996336996, -0.20634920634920634, -0.15625, -4.96875, -0.15625, 0.0
279, -2.3284493284493286, 0.6227106227106227, -0.6117216117216118, 0.0625, -4.28125, -0.15625, 0.0
280, -1.7692307692307692, 1.2026862026862026, -1.84981684981685, 0.34375, -3.8125, -0.0625, 0.0
281, -2.5274725274725274, 1.2271062271062272, -2.8046398046398044, 0.59375, -3.5, 0.28125, 0.0
282, -2.6153846153846154, 1.1465201465201464, -3.6507936507936507, 0.71875, -2.84375, 0.5625, 0.0
283, -1.7142857142857142, 0.4725274725274725, -4.061050061050061, 0.75, -2.21875, 0.90625, 0.0
284, 0.15873015873015872, 0.4004884004884005, -4.039072039072039, 0.59375, -2.0, 1.125, 0.0
285, 0.01098901098901099, 0.3540903540903541, -3.8376068376068377, 0.59375, -1.78125, 1.375, 0.0
286, 0.9181929181929182, 0.21123321123321123, -3.7838827838827838, 0.8125, -1.28125, 1.46875, 0.0
287, 1.5372405372405373, -1.078144078144078, -3.9523809523809526, 0.875, -0.90625, 1.5625, 0.0
288, 2.554334554334554, -1.6275946275946276, -3.288156288156288, 0.25, -0.53125, 1.375, 0.0
289, 2.641025641025641, -0.6862026862026862, -1.9951159951159951, 0.0, -0.375, 1.34375, 0.0
290, 2.862026862026862, -0.06105006105006105, -0.8168498168498168, 0.15625, -0.28125, 1.25, 0.0
291, 3.421245421245421, 0.3785103785103785, -0.3894993894993895, 0.46875, -0.34375, 1.15625, 0.0
292, 3.382173382173382, -0.452991452991453, -0.7838827838827839, 0.625, -0.40625, 1.0, 0.0
293, 3.6849816849816848, -0.8168498168498168, -0.894993894993895, 0.4375, -0.5, 0.78125, 0.0
294, 2.595848595848596, -0.18925518925518925, -0.7203907203907204, 0.375, -0.21875, 0.6875, 0.0
295, 2.120879120879121, 0.4481074481074481, -0.4932844932844933, 0.625, 0.1875, 0.78125, 0.0
296, 1.3858363858363858, 0.9975579975579976, -0.2661782661782662, 1.03125, 0.8125, 1.0625, 0.0
297, 0.7655677655677655, 0.9487179487179487, -0.6544566544566545, 1.53125, 1.6875, 1.46875, 0.0
298, 0.41025641025641024, 0.873015873015873, -1.2295482295482296, 2.03125, 2.84375, 1.9375, 0.0
299, 0.33821733821733824, 0.315018315018315, -1.6263736263736264, 2.71875, 4.46875, 2.84375, 0.0
300, 4.339438339438339, -2.4713064713064714, 0.16483516483516483, 2.875, 6.53125, 3.03125, 0.0
301, 5.087912087912088, -2.663003663003663, 1.442002442002442, 3.09375, 7.21875, 2.9375, 0.0
302, 3.501831501831502, -1.236874236874237, 2.457875457875458, 3.53125, 7.71875, 2.71875, 0.0
303, 1.967032967032967, -0.8888888888888888, 3.757020757020757, 4.46875, 8.8125, 2.8125, 0.0
304, 3.6446886446886446, -2.431013431013431, 4.896214896214897, 5.21875, 9.84375, 2.875, 0.0
305, 4.04029304029304, -1.8266178266178266, 5.4774114774114775, 5.46875, 9.96875, 2.71875, 0.0
306, 6.023199023199023, -1.5164835164835164, 4.744810744810745, 5.5625, 9.28125, 2.21875, 0.0
307, 6.617826617826617, -1.8925518925518925, 3.139194139194139, 5.4375, 7.5625, 1.59375, 0.0
308, 4.349206349206349, -1.9023199023199022, 1.9694749694749696, 5.21875, 6.03125, 1.21875, 0.0
309, 2.8058608058608057, -3.0720390720390722, 1.6275946275946276, 5.15625, 5.4375, 1.0625, 0.0
310, 2.833943833943834, -3.562881562881563, 1.4151404151404152, 5.15625, 5.28125, 1.0, 0.0
311, 4.26007326007326, -4.245421245421245, 0.8620268620268621, 4.84375, 4.34375, 0.8125, 0.0
312, 4.181929181929182, -5.584859584859585, 0.9108669108669109, 4.1875, 3.40625, 0.71875, 0.0
313, 2.965811965811966, -7.236874236874237, 1.4945054945054945, 3.75, 2.875, 0.34375, 0.0
314, 3.531135531135531, -6.805860805860806, 1.9206349206349207, 3.65625, 2.03125, -0.0625, 0.0
315, 4.162393162393163, -5.924297924297925, 1.6813186813186813, 3.8125, 0.71875, -0.5, 0.0
316, 2.241758241758242, -5.3760683760683765, 0.7350427350427351, 4.09375, -0.28125, -0.6875, 0.0
317, 1.0134310134310134, -4.605616605616605, -0.9328449328449329, 4.34375, -0.875, -0.78125, 0.0
318, 0.2771672771672772, -3.4774114774114775, -3.3064713064713063, 4.4375, -1.15625, -0.9375, 0.0
319, -0.2564102564102564, -2.8913308913308913, -5.412698412698413, 4.25, -1.4375, -0.96875, 0.0
320, -0.43956043956043955, -2.2905982905982905, -7.222222222222222, 3.84375, -1.75, -1.0625, 0.0
321, -1.6581196581196582, -1.8461538461538463, -8.84859584859585, 3.15625, -1.96875, -1.15625, 0.0
322, -3.1758241758241756, -1.459096459096459, -10.081807081807082, 2.34375, -1.78125, -1.1875, 0.0
323, -4.202686202686203, -0.326007326007326, -10.518925518925519, 0.9375, -1.28125, -0.84375, 0.0
324, -4.435897435897436, -0.04884004884004884, -9.407814407814408, 0.15625, -0.9375, -0.5625, 0.0
325, -3.6373626373626373, 0.09768009768009768, -7.498168498168498, -0.46875, -0.71875, -0.28125, 0.0
326, -1.7545787545787546, -0.3321123321123321, -5.1953601953601956, -1.0625, -1.0625, -0.125, 0.0
327, -0.9340659340659341, -1.0451770451770452, -2.9255189255189253, -1.625, -2.0625, -0.28125, 0.0
328, -0.938949938949939, -1.0476190476190477, -0.9096459096459096, -2.15625, -3.125, -0.53125, 0.0
329, -1.89010989010989, -0.43101343101343104, 0.45054945054945056, -2.40625, -3.90625, -0.6875, 0.0
330, -3.3675213675213675, 1.0024420024420024, 0.9523809523809523, -2.3125, -4.09375, -0.53125, 0.0
331, -3.7484737484737485, 1.3821733821733821, 1.3076923076923077, -1.78125, -3.15625, -0.21875, 0.0
332, -2.404151404151404, 0.6275946275946276, 0.9804639804639804, -1.34375, -2.25, -0.1875, 0.0
333, -0.7814407814407814, 0.6837606837606838, 1.1367521367521367, -1.1875, -1.71875, 0.0625, 0.0
334, 0.14407814407814407, 1.0793650793650793, 1.3235653235653235, -1.1875, -2.0625, 0.1875, 0.0
335, 1.7387057387057387, 1.4432234432234432, 1.4102564102564104, -1.46875, -3.0625, -0.03125, 0.0
336, 1.7496947496947497, 2.2905982905982905, 1.9072039072039073, -2.0, -4.59375, -0.25, 0.0
337, -1.0, 4.236874236874237, 2.137973137973138, -2.46875, -5.09375, -0.03125, 0.0
338, -0.7680097680097681, 5.796092796092796, 2.58974358974359, -2.75, -5.03125, 0.125, 0.0
339, 0.3064713064713065, 7.661782661782662, 3.0537240537240535, -2.78125, -5.3125, -0.125, 0.0
340, 2.346764346764347, 6.042735042735043, 3.885225885225885, -2.8125, -6.34375, -1.125, 0.0
341, 0.7838827838827839, 2.843711843711844, 4.960927960927961, -2.84375, -7.375, -2.15625, 0.0
342, -2.230769230769231, 1.4505494505494505, 5.08058608058608, -2.46875, -7.21875, -2.09375, 0.0
343, -3.5396825396825395, 1.9230769230769231, 4.057387057387057, -1.65625, -5.90625, -1.15625, 0.0
344, -2.0, 0.4126984126984127, 2.4896214896214897, -1.0, -4.5625, -0.5, 0.0
345, 0.3724053724053724, -0.03663003663003663, 2.032967032967033, -0.84375, -4.34375, -0.40625, 0.0
346, -1.3748473748473748, -0.006105006105006105, 2.0793650793650795, -0.84375, -4.5625, -0.8125, 0.0
347, -1.5213675213675213, 0.9035409035409036, 2.0598290598290596, -0.65625, -4.625, -0.8125, 0.0
348, 0.5873015873015873, 0.12576312576312576, 1.3540903540903542, -0.3125, -4.71875, -0.40625, 0.0
349, 1.6288156288156288, -0.7680097680097681, 0.8412698412698413, -0.1875, -4.9375, -0.1875, 0.0
350, 0.0695970695970696, 0.06349206349206349, 0.8241758241758241, -0.28125, -5.0, -0.375, 0.0
351, -1.7851037851037852, 0.3907203907203907, 0.7643467643467643, -0.1875, -4.25, -0.46875, 0.0
352, -2.9316239316239314, 0.7814407814407814, 0.9499389499389499, 0.03125, -2.9375, -0.28125, 0.0
353, -2.871794871794872, 1.010989010989011, 1.3736263736263736, 0.46875, -1.625, 0.15625, 0.0
354, -1.6776556776556777, 0.663003663003663, 1.8144078144078144, 0.96875, -0.78125, 0.84375, 0.0
355, 0.7387057387057387, -1.0293040293040292, 1.967032967032967, 1.1875, -0.625, 1.1875, 0.0
356, 0.6324786324786325, -0.8522588522588522, 1.6666666666666667, 1.03125, -1.25, 1.0, 0.0
357, -0.3052503052503053, -0.5897435897435898, 1.1257631257631258, 1.15625, -1.4375, 0.875, 0.0
358, -1.1965811965811965, -0.38705738705738707, 0.2857142857142857, 1.53125, -1.03125, 1.125, 0.0
359, -1.5738705738705738, -0.5482295482295483, -0.03296703296703297, 1.75, -0.53125, 1.4375, 0.0
360, 0.20634920634920634, -1.612942612942613, -0.7435897435897436, 1.78125, -0.5625, 1.5, 0.0
361, 0.938949938949939, -1.291819291819292, -1.468864468864469, 1.65625, -0.90625, 1.46875, 0.0
362, 0.38095238095238093, -1.0805860805860805, -2.2637362637362637, 1.65625, -0.84375, 1.46875, 0.0
363, 0.34554334554334554, -0.7496947496947497, -2.8205128205128207, 1.71875, -0.5, 1.59375, 0.0
364, 1.9609279609279608, -1.4554334554334554, -3.415140415140415, 1.65625, -0.3125, 1.625, 0.0
365, 3.3601953601953602, -1.6862026862026862, -3.884004884004884, 1.40625, -0.59375, 1.40625, 0.0
366, 3.183150183150183, -1.4322344322344323, -4.1892551892551895, 1.0625, -0.71875, 1.03125, 0.0
367, 2.473748473748474, -0.6056166056166056, -4.2625152625152625, 0.9375, -0.59375, 0.65625, 0.0
368, 2.0805860805860807, -0.1562881562881563, -4.258852258852259, 0.78125, -0.40625, 0.53125, 0.0
369, 2.0, -0.46153846153846156, -4.222222222222222, 0.1875, -0.375, 0.46875, 0.0
370, 2.3663003663003663, 0.2844932844932845, -3.098901098901099, -0.1875, -0.625, 0.28125, 0.0
371, 1.2442002442002442, 0.8962148962148963, -2.4761904761904763, -0.21875, -0.5625, 0.34375, 0.0
372, 0.9340659340659341, 0.8131868131868132, -2.172161172161172, -0.1875, -0.03125, 0.4375, 0.0
373, 1.5665445665445665, 0.4346764346764347, -1.9816849816849818, -0.21875, 0.34375, 0.5625, 0.0
374, 1.722832722832723, 0.28815628815628813, -1.6837606837606838, -0.4375, 0.34375, 0.59375, 0.0
375, 1.5274725274725274, 0.32234432234432236, -1.192918192918193, -0.625, 0.21875, 0.5625, 0.0
376, 0.9816849816849816, 0.4932844932844933, -0.8693528693528694, -0.75, 0.1875, 0.5, 0.0
377, 0.4249084249084249, 0.6996336996336996, -0.3504273504273504, -0.75, 0.34375, 0.5, 0.0
378, 0.6862026862026862, 0.6239316239316239, -0.2771672771672772, -0.59375, 0.53125, 0.46875, 0.0
379, 0.9169719169719169, -0.45787545787545786, -0.2564102564102564, -0.59375, 0.46875, 0.5, 0.0
380, 0.8974358974358975, -0.3076923076923077, -0.13797313797313798, -0.8125, 0.125, 0.40625, 0.0
381, 0.2954822954822955, -0.031746031746031744, -0.05860805860805861, -0.9375, 0.0, 0.25, 0.0
382, 0.1575091575091575, 0.18803418803418803, -0.13186813186813187, -0.78125, 0.0625, 0.21875, 0.0
383, 0.16117216117216118, -0.3528693528693529, -0.3492063492063492, -0.71875, 0.15625, 0.21875, 0.0
384, 0.3516483516483517, -0.78998778998779, -0.5177045177045178, -0.84375, 0.125, 0.15625, 0.0
385, 0.5286935286935287, -0.5372405372405372, -0.48595848595848595, -0.9375, 0.0, 0.0625, 0.0
386, 0.4932844932844933, -0.612942612942613, -0.47496947496947495, -1.0, -0.15625, -0.09375, 0.0
387, -0.16971916971916973, -0.31013431013431014, -0.2588522588522589, -0.90625, -0.09375, -0.25, 0.0
388, -0.2588522588522589, -0.0927960927960928, 0.12942612942612944, -0.75, 0.03125, -0.25, 0.0
389, -0.10989010989010989, -0.31746031746031744, 0.3614163614163614, -0.65625, 0.125, -0.25, 0.0
390, -0.10622710622710622, -0.23809523809523808, 0.5128205128205128, -0.59375, 0.1875, -0.09375, 0.0
391, 0.07448107448107448, -0.23687423687423687, 0.663003663003663, -0.5, 0.21875, -0.09375, 0.0
392, 0.4481074481074481, -0.20024420024420025, 0.7826617826617827, -0.375, 0.15625, -0.1875, 0.0
393, -0.2673992673992674, -0.47374847374847373, 0.6324786324786325, -0.125, 0.1875, -0.25, 0.0
394, -0.21611721611721613, -0.5653235653235653, 0.8608058608058609, -0.09375, 0.4375, -0.125, 0.0
395, 0.5641025641025641, -0.16483516483516483, 0.9694749694749695, 0.0, 0.5, -0.15625, 0.0
396, 0.7936507936507936, -0.7777777777777778, 0.6092796092796092, 0.15625, 0.40625, -0.21875, 0.0
397, 1.0622710622710623, -1.1941391941391941, 0.42002442002442003, 0.03125, 0.15625, -0.375, 0.0
398, 0.5824175824175825, -0.7509157509157509, 0.5421245421245421, -0.09375, -0.09375, -0.59375, 0.0
399, 0.007326007326007326, -0.03907203907203907, 0.6825396825396826, 0.0, -0.15625, -0.75, 0.0
400, -0.5201465201465202, 0.33455433455433453, 0.5506715506715507, 0.1875, -0.0625, -0.71875, 0.0
401, -1.017094017094017, 0.7155067155067155, 0.4713064713064713, 0.375, 0.15625, -0.53125, 0.0
402, -1.1147741147741148, 0.47619047619047616, 0.3772893772893773, 0.40625, 0.21875, -0.34375, 0.0
403, -1.4004884004884004, 0.6764346764346765, 0.39316239316239315, 0.375, 0.25, -0.1875, 0.0
404, -1.221001221001221, 0.7692307692307693, 0.4371184371184371, 0.375, 0.3125, -0.09375, 0.0
405, -0.5958485958485958, 0.7228327228327228, 0.2515262515262515, 0.34375, 0.0625, -0.09375, 0.0
406, -0.6776556776556777, 0.5103785103785103, -0.15506715506715507, 0.28125, -0.21875, -0.1875, 0.0
407, -0.938949938949939, 0.7631257631257631, -0.5335775335775336, 0.28125, -0.28125, -0.21875, 0.0
408, -1.3394383394383393, 0.7741147741147741, -0.894993894993895, 0.25, -0.1875, -0.1875, 0.0
409, -1.0634920634920635, 0.8864468864468864, -1.0671550671550671, 0.1875, -0.1875, -0.09375, 0.0
410, -0.612942612942613, 0.5824175824175825, -1.4725274725274726, 0.03125, -0.3125, -0.09375, 0.0
411, -0.4810744810744811, 0.5054945054945055, -1.5592185592185592, -0.125, -0.4375, -0.09375, 0.0
412, -0.7264957264957265, 0.6471306471306472, -1.5115995115995116, -0.15625, -0.3125, -0.0625, 0.0
413, -0.8522588522588522, 0.7851037851037851, -1.2515262515262515, 0.0, -0.0625, -0.03125, 0.0
414, -0.20634920634920634, 0.4163614163614164, -1.0, 0.03125, 0.125, 0.0625, 0.0
415, 0.32967032967032966, 0.21611721611721613, -0.73992673992674, 0.09375, 0.21875, 0.09375, 0.0
416, 1.155067155067155, -0.4261294261294261, -0.4004884004884005, 0.125, 0.40625, 0.0625, 0.0
417, 1.4371184371184371, -0.6605616605616605, -0.10378510378510379, 0.125, 0.46875, -0.03125, 0.0
418, 2.1465201465201464, -1.0805860805860805, -0.09523809523809523, 0.125, 0.4375, -0.1875, 0.0
419, 2.2844932844932844, -1.15018315018315, -0.2490842490842491, -0.03125, 0.15625, -0.28125, 0.0
420, 1.7814407814407816, -1.0, -0.16361416361416362, -0.1875, 0.0, -0.375, 0.0
421, 1.514041514041514, -0.8095238095238095, -0.0989010989010989, -0.15625, 0.03125, -0.5, 0.0
422, 1.1721611721611722, -0.6837606837606838, -0.19658119658119658, -0.09375, 0.21875, -0.5, 0.0
423, 1.2881562881562882, -0.5860805860805861, -0.1343101343101343, -0.03125, 0.46875, -0.5, 0.0
424, 1.2075702075702075, -0.6153846153846154, -0.047619047619047616, -0.0625, 0.59375, -0.5, 0.0
425, 1.225885225885226, -0.4884004884004884, 0.14285714285714285, -0.09375, 0.625, -0.53125, 0.0
426, 0.9694749694749695, -0.27106227106227104, 0.14774114774114774, -0.125, 0.5625, -0.59375, 0.0
427, 0.10134310134310134, 0.20024420024420025, 0.014652014652014652, -0.0625, 0.4375, -0.71875, 0.0
428, -1.0341880341880343, 0.2967032967032967, 0.11233211233211234, -0.125, 0.53125, -0.59375, 0.0
429, -1.1404151404151404, 0.518925518925519, 0.28327228327228327, -0.125, 0.65625, -0.4375, 0.0
430, -0.7264957264957265, 0.4444444444444444, 0.5641025641025641, -0.09375, 0.53125, -0.40625, 0.0
431, -0.9633699633699634, 0.28815628815628813, 0.36874236874236876, 0.0, 0.375, -0.4375, 0.0
432, -1.407814407814408, 0.17338217338217338, 0.19536019536019536, 0.03125, 0.3125, -0.375, 0.0
433, -1.862026862026862, 0.08058608058608059, 0.14407814407814407, 0.03125, 0.4375, -0.25, 0.0
434, -1.7374847374847375, 0.050061050061050064, 0.14774114774114774, 0.125, 0.5, -0.15625, 0.0
435, -1.448107448107448, 0.11355311355311355, 0.4163614163614164, 0.25, 0.4375, -0.125, 0.0
436, -1.0134310134310134, -0.20024420024420025, 0.33577533577533575, 0.25, 0.21875, -0.09375, 0.0
437, -0.7289377289377289, -0.3907203907203907, 0.27106227106227104, 0.21875, 0.0, -0.125, 0.0
438, -0.9804639804639804, -0.4444444444444444, 0.15018315018315018, 0.15625, 0.0, -0.125, 0.0
439, -0.5238095238095238, -0.22832722832722832, 0.1807081807081807, 0.1875, 0.03125, 0.0, 0.0
440, -0.14163614163614163, -0.2686202686202686, 0.2087912087912088, 0.25, 0.0, 0.0, 0.0
441, 0.1391941391941392, -0.2979242979242979, 0.14041514041514042, 0.3125, -0.0625, -0.0625, 0.0
442, 0.2698412698412698, 0.09768009768009768, -0.001221001221001221, 0.28125, -0.125, -0.15625, 0.0
443, 0.2588522588522589, 0.48717948717948717, 0.02442002442002442, 0.3125, -0.125, -0.21875, 0.0
444, 0.5384615384615384, 0.32234432234432236, -0.06715506715506715, 0.3125, -0.0625, -0.25, 0.0
445, 0.5457875457875457, 0.358974358974359, 0.04395604395604396, 0.3125, -0.03125, -0.34375, 0.0
446, 0.5543345543345544, 0.5372405372405372, -0.014652014652014652, 0.28125, -0.03125, -0.40625, 0.0
447, 0.8473748473748474, 0.5714285714285714, 0.14652014652014653, 0.375, -0.09375, -0.5, 0.0
448, 0.9462759462759462, 0.38705738705738707, -0.13675213675213677, 0.3125, -0.25, -0.5625, 0.0
449, 0.35775335775335776, 0.30158730158730157, -0.33577533577533575, 0.28125, -0.375, -0.625, 0.0
450, 0.15873015873015872, 0.4004884004884005, -0.48473748473748474, 0.25, -0.34375, -0.71875, 0.0
451, 0.05616605616605617, 0.2661782661782662, -0.5177045177045178, 0.1875, -0.1875, -0.5625, 0.0
452, 0.001221001221001221, 0.06349206349206349, -0.7948717948717948, 0.15625, -0.15625, -0.5, 0.0
453, -0.006105006105006105, -0.2026862026862027, -0.9633699633699634, 0.0625, -0.28125, -0.46875, 0.0
454, -0.4822954822954823, -0.17338217338217338, -0.938949938949939, -0.03125, -0.28125, -0.4375, 0.0
455, -0.796092796092796, -0.08791208791208792, -0.9181929181929182, -0.0625, -0.1875, -0.28125, 0.0
456, -0.945054945054945, -0.03418803418803419, -0.7350427350427351, -0.0625, -0.0625, -0.125, 0.0
457, -0.800976800976801, -0.03785103785103785, -0.7032967032967034, -0.03125, 0.0, 0.0, 0.0
458, -0.7692307692307693, -0.28327228327228327, -0.6825396825396826, -0.09375, 0.0, 0.09375, 0.0
459, -0.5225885225885226, -0.4835164835164835, -0.5641025641025641, -0.1875, -0.09375, 0.09375, 0.0
460, -0.5152625152625152, -0.4139194139194139, -0.29426129426129427, -0.28125, -0.15625, 0.09375, 0.0
461, -0.2869352869352869, -0.3418803418803419, -0.018315018315018316, -0.28125, -0.125, 0.15625, 0.0
462, -0.5238095238095238, -0.2148962148962149, 0.1807081807081807, -0.0625, 0.03125, 0.1875, 0.0
463, 0.3528693528693529, -0.7582417582417582, 0.2783882783882784, -0.09375, 0.03125, 0.21875, 0.0
464, 0.3089133089133089, -0.6910866910866911, 0.2503052503052503, -0.125, 0.0, 0.1875, 0.0
465, 0.23321123321123322, -0.5555555555555556, 0.1916971916971917, -0.0625, -0.03125, 0.09375, 0.0
466, 0.057387057387057384, -0.48473748473748474, 0.2026862026862027, -0.09375, -0.03125, 0.03125, 0.0
467, -0.07081807081807082, -0.38705738705738707, 0.14041514041514042, -0.125, -0.03125, -0.03125, 0.0
468, -0.2954822954822955, -0.1623931623931624, 0.24786324786324787, -0.15625, -0.1875, -0.125, 0.0
469, -0.7619047619047619, 0.15262515262515264, 0.2869352869352869, -0.21875, -0.25, -0.1875, 0.0
470, -1.0647130647130647, 0.568986568986569, 0.3968253968253968, -0.25, -0.28125, -0.21875, 0.0
471, -0.9365079365079365, 0.652014652014652, 0.336996336996337, -0.21875, -0.28125, -0.125, 0.0
472, -0.7912087912087912, 0.717948717948718, 0.10744810744810745, -0.1875, -0.375, -0.09375, 0.0
473, -0.5628815628815629, 0.5042735042735043, -0.2588522588522589, -0.15625, -0.5, -0.0625, 0.0
474, -0.5115995115995116, 0.5824175824175825, -0.49206349206349204, -0.1875, -0.53125, 0.03125, 0.0
475, 0.017094017094017096, 0.5860805860805861, -0.6398046398046398, -0.125, -0.4375, 0.09375, 0.0
476, 0.3089133089133089, 0.18925518925518925, -1.0451770451770452, -0.125, -0.3125, 0.09375, 0.0
477, 1.0097680097680097, -0.1684981684981685, -1.1697191697191698, -0.1875, -0.25, -0.03125, 0.0
478, 1.465201465201465, -0.2625152625152625, -0.960927960927961, -0.25, -0.3125, -0.15625, 0.0
479, 1.4114774114774116, -0.3724053724053724, -0.6837606837606838, -0.3125, -0.3125, -0.28125, 0.0
480, 1.3540903540903542, -0.30036630036630035, -0.3956043956043956, -0.3125, -0.3125, -0.3125, 0.0
481, 1.5262515262515262, -0.5665445665445665, -0.5311355311355311, -0.3125, -0.46875, -0.4375, 0.0
482, 0.7887667887667887, -0.46153846153846156, -0.7155067155067155, -0.34375, -0.5625, -0.40625, 0.0
483, -0.07326007326007326, -0.19291819291819293, -0.9316239316239316, -0.3125, -0.3125, -0.21875, 0.0
484, -0.7045177045177046, 0.1282051282051282, -0.2625152625152625, -0.21875, 0.125, 0.0, 0.0
485, 0.006105006105006105, -0.8803418803418803, 0.5628815628815629, -0.53125, 0.4375, 0.28125, 1.0
486, 1.1538461538461537, -0.18437118437118438, 2.744810744810745, -0.6875, 0.25, 0.15625, 1.0
487, 0.1452991452991453, -0.030525030525030524, 2.960927960927961, -0.28125, 0.15625, 0.34375, 1.0
488, -1.0427350427350428, 0.7057387057387058, 3.4114774114774113, 0.25, 0.5, 0.84375, 1.0
489, -1.5372405372405373, -0.8559218559218559, 2.956043956043956, 1.0, 1.28125, 1.5625, 1.0
490, -0.6239316239316239, -0.9768009768009768, 2.888888888888889, 1.0625, 2.53125, 2.28125, 1.0
491, 1.4017094017094016, -0.14041514041514042, 3.6153846153846154, 1.21875, 2.84375, 2.78125, 1.0
492, -0.9853479853479854, 0.8571428571428571, 2.976800976800977, 1.84375, 3.25, 3.59375, 1.0
493, -1.2735042735042734, -0.21001221001221002, 4.076923076923077, 3.25, 5.21875, 4.96875, 1.0
494, 1.2967032967032968, -1.9926739926739927, 7.006105006105006, 4.71875, 7.53125, 6.0, 1.0
495, 2.8473748473748475, -2.299145299145299, 8.792429792429793, 6.0625, 8.6875, 6.3125, 1.0
496, 6.058608058608058, -4.2234432234432235, 8.012210012210012, 6.875, 8.65625, 6.125, 1.0
497, 6.670329670329671, -5.253968253968254, 5.7313797313797314, 6.25, 8.09375, 4.40625, 1.0
498, 7.283272283272283, -6.65934065934066, 4.111111111111111, 5.125, 7.53125, 3.0625, 1.0
499, 6.235653235653236, -6.4041514041514045, 4.097680097680097, 4.375, 7.0625, 2.4375, 1.0
500, 5.619047619047619, -5.385836385836386, 5.487179487179487, 4.5, 6.875, 2.34375, 1.0
501, 7.482295482295482, -6.074481074481074, 6.152625152625153, 4.78125, 6.125, 2.03125, 1.0
502, 7.42979242979243, -6.982905982905983, 5.693528693528694, 4.84375, 5.0625, 1.3125, 1.0
503, 7.021978021978022, -7.277167277167277, 4.876678876678877, 4.65625, 3.71875, 0.53125, 1.0
504, 5.816849816849817, -7.5787545787545785, 3.7191697191697193, 4.3125, 2.5625, -0.03125, 1.0
505, 4.256410256410256, -6.864468864468864, 2.4652014652014653, 3.90625, 1.75, -0.5, 1.0
506, 3.3833943833943834, -5.31013431013431, 1.6886446886446886, 3.84375, 1.28125, -0.78125, 1.0
507, 2.8034188034188032, -4.783882783882784, 1.0598290598290598, 3.90625, 0.875, -0.90625, 1.0
508, 1.5946275946275947, -5.846153846153846, 0.5787545787545788, 3.71875, 0.75, -1.0, 1.0
509, 2.557997557997558, -3.5323565323565322, 0.2576312576312576, 3.625, 0.125, -1.21875, 1.0
510, -0.1746031746031746, -4.339438339438339, -1.507936507936508, 3.65625, -0.5, -1.40625, 1.0
511, -0.4346764346764347, -2.8485958485958487, -2.1526251526251525, 3.46875, -0.375, -1.53125, 1.0
512, -0.6935286935286935, -1.763125763125763, -2.492063492063492, 3.3125, -0.375, -1.59375, 1.0
513, -2.0, -2.1855921855921854, -3.4493284493284495, 3.25, -0.59375, -1.5625, 1.0
514, -1.9365079365079365, -1.531135531135531, -4.267399267399267, 3.15625, -0.75, -1.5, 1.0
515, -2.525030525030525, -2.399267399267399, -5.481074481074481, 2.90625, -1.0625, -1.4375, 1.0
516, -2.901098901098901, -1.2954822954822955, -6.531135531135531, 2.5, -1.25, -1.5, 1.0
517, -4.031746031746032, -1.122100122100122, -8.518925518925519, 2.21875, -1.375, -1.4375, 1.0
518, -5.542124542124542, -1.2588522588522588, -10.194139194139193, 1.78125, -1.0625, -1.375, 1.0
519, -6.123321123321123, -0.336996336996337, -10.238095238095237, 1.1875, -0.59375, -1.125, 1.0
520, -6.766788766788767, 0.29304029304029305, -9.6007326007326, 0.3125, -0.25, -0.34375, 1.0
521, -5.82051282051282, 1.0903540903540903, -7.622710622710622, -0.15625, -0.09375, 0.0625, 1.0
522, -4.713064713064713, 1.7643467643467643, -5.327228327228327, -0.21875, -0.09375, 0.28125, 1.0
523, -3.573870573870574, 1.1196581196581197, -3.659340659340659, -0.1875, 0.0, 0.40625, 1.0
524, -2.0537240537240535, 0.4981684981684982, -2.501831501831502, -0.40625, 0.09375, 0.46875, 1.0
525, -1.1343101343101343, 0.6971916971916972, -1.3504273504273505, -0.53125, 0.15625, 0.34375, 1.0
526, -0.8888888888888888, 0.6654456654456654, -0.3333333333333333, -0.53125, 0.15625, 0.28125, 1.0
527, -0.8461538461538461, 0.7863247863247863, 0.46764346764346765, -0.40625, 0.25, 0.3125, 1.0
528, 0.07203907203907203, 0.6190476190476191, 0.8608058608058609, -0.34375, 0.1875, 0.28125, 1.0
529, 0.04884004884004884, 0.4481074481074481, 0.8547008547008547, -0.34375, 0.125, 0.1875, 1.0
530, 0.3956043956043956, 0.29304029304029305, 0.8376068376068376, -0.34375, 0.09375, 0.15625, 1.0
531, 0.7655677655677655, 0.29304029304029305, 0.9914529914529915, -0.25, 0.0, 0.0625, 1.0
532, -0.5921855921855922, 0.15262515262515264, 0.3516483516483517, -0.1875, -0.09375, 0.0, 1.0
533, -0.22954822954822954, 0.18192918192918192, 0.43223443223443225, -0.15625, 0.0, 0.09375, 1.0
534, -0.06105006105006105, 0.003663003663003663, 0.27228327228327226, -0.15625, -0.15625, 0.15625, 1.0
535, -0.01221001221001221, -0.06837606837606838, -0.34798534798534797, -0.3125, -0.53125, 0.15625, 1.0
536, -0.0231990231990232, 0.12576312576312576, -1.1575091575091576, -0.5625, -1.25, 0.0625, 0.0
537, -1.1721611721611722, 0.49694749694749696, -2.0964590964590966, -0.78125, -2.34375, -0.21875, 0.0
538, -2.2918192918192917, 0.1282051282051282, -2.4432234432234434, -0.84375, -3.5625, -0.375, 0.0
539, -4.2686202686202686, 0.2222222222222222, -2.258852258852259, -0.96875, -4.1875, -0.25, 0.0
540, -3.934065934065934, 0.905982905982906, -1.927960927960928, -1.21875, -4.4375, 0.0625, 0.0
541, -1.7667887667887667, 1.332112332112332, -1.1587301587301588, -1.53125, -5.03125, 0.28125, 0.0
542, -1.0097680097680097, 1.2881562881562882, -0.4810744810744811, -1.90625, -6.25, 0.15625, 0.0
543, -2.3321123321123323, 2.0195360195360195, 0.7545787545787546, -2.25, -7.53125, -0.3125, 0.0
544, -5.067155067155067, 3.838827838827839, 1.2417582417582418, -2.375, -7.59375, -0.5, 0.0
545, -6.0476190476190474, 6.998778998778999, 1.321123321123321, -2.03125, -6.5625, -0.03125, 0.0
546, -3.982905982905983, 8.61050061050061, 1.3492063492063493, -1.5625, -5.96875, 0.125, 0.0
547, -0.39316239316239315, 6.046398046398046, 1.7142857142857142, -1.375, -6.75, -0.25, 0.0
548, -1.7496947496947497, 3.374847374847375, 2.31013431013431, -1.3125, -7.625, -0.46875, 0.0
549, -4.291819291819292, 1.7032967032967032, 1.8485958485958487, -1.03125, -7.0625, -0.0625, 0.0
550, -3.7081807081807083, 0.6923076923076923, 0.6581196581196581, -0.71875, -5.75, 0.5, 0.0
551, 0.3162393162393162, 0.5616605616605617, 0.8681318681318682, -0.6875, -5.8125, 0.4375, 0.0
552, -0.3028083028083028, 0.8791208791208791, 1.3748473748473748, -0.625, -6.15625, -0.0625, 0.0
553, -0.8913308913308914, 1.623931623931624, 1.6654456654456655, -0.1875, -6.375, -0.28125, 0.0
554, -0.6446886446886447, 0.9352869352869353, -0.14774114774114774, 0.3125, -6.09375, 0.21875, 0.0
555, -0.231990231990232, 0.5738705738705738, -1.3272283272283272, 0.625, -5.4375, 0.3125, 0.0
556, -2.0976800976800978, 0.673992673992674, -3.724053724053724, 0.78125, -4.59375, 0.21875, 0.0
557, -1.2905982905982907, 1.0915750915750915, -4.0195360195360195, 0.78125, -4.15625, 0.5, 0.0
558, -1.774114774114774, 1.5897435897435896, -4.6642246642246645, 1.0625, -3.53125, 0.9375, 0.0
559, -0.7912087912087912, 0.6105006105006106, -5.929181929181929, 1.40625, -2.625, 1.09375, 0.0
560, 0.1855921855921856, -0.21123321123321123, -6.357753357753357, 1.1875, -2.09375, 1.0625, 0.0
561, 0.5628815628815629, -0.4884004884004884, -6.224664224664225, 0.6875, -1.6875, 1.0625, 0.0
562, 1.0268620268620268, 0.26495726495726496, -5.258852258852259, 0.21875, -1.5, 1.0625, 0.0
563, 0.796092796092796, 0.8363858363858364, -4.5396825396825395, 0.1875, -1.28125, 1.03125, 0.0
564, 1.568986568986569, 0.5115995115995116, -4.021978021978022, 0.21875, -1.125, 0.96875, 0.0
565, 1.3137973137973138, 0.2869352869352869, -3.7875457875457874, 0.1875, -1.0, 1.03125, 0.0
566, 1.8815628815628815, 0.1282051282051282, -3.1953601953601956, 0.0, -1.03125, 1.0, 0.0
567, 1.192918192918193, 0.6422466422466423, -2.553113553113553, -0.125, -0.90625, 0.96875, 0.0
568, 0.967032967032967, 0.7313797313797313, -2.264957264957265, 0.0, -0.5, 0.96875, 0.0
569, 0.6471306471306472, 0.358974358974359, -2.255189255189255, 0.09375, 0.0, 1.0, 0.0
570, 1.4835164835164836, -0.18192918192918192, -1.9291819291819292, -0.03125, 0.28125, 1.0, 0.0
571, 2.2796092796092795, -0.2857142857142857, -1.3345543345543345, -0.21875, 0.25, 0.90625, 0.0
572, 2.427350427350427, -0.16117216117216118, -0.7191697191697192, -0.34375, 0.15625, 0.78125, 0.0
573, 2.1709401709401708, -0.13064713064713065, -0.3125763125763126, -0.34375, 0.125, 0.65625, 0.0
574, 1.7191697191697193, 0.1746031746031746, 0.09035409035409035, -0.28125, 0.15625, 0.5625, 0.0
575, 1.496947496947497, 0.17338217338217338, 0.43101343101343104, -0.1875, 0.15625, 0.46875, 0.0
576, 1.2796092796092795, 0.2576312576312576, 0.6410256410256411, -0.125, 0.125, 0.4375, 0.0
577, 0.8363858363858364, 0.14285714285714285, 0.5518925518925519, -0.125, 0.09375, 0.40625, 0.0
578, 0.57997557997558, -0.20024420024420025, 0.5921855921855922, -0.25, -0.03125, 0.3125, 0.0
579, -0.5995115995115995, 0.5286935286935287, 1.6202686202686203, -0.15625, -0.03125, 0.3125, 0.0
580, -0.5787545787545788, 0.18315018315018314, 1.768009768009768, 0.09375, 0.25, 0.46875, 0.0
581, -0.05616605616605617, -0.14285714285714285, 1.8241758241758241, 0.21875, 0.40625, 0.5625, 0.0
582, 0.43833943833943834, -0.2271062271062271, 2.0463980463980462, 0.25, 0.25, 0.4375, 0.0
583, 0.10989010989010989, 0.10134310134310134, 2.1855921855921854, 0.25, 0.0, 0.34375, 0.0
584, -0.32844932844932845, 0.41025641025641024, 2.1477411477411477, 0.59375, 0.03125, 0.34375, 0.0
585, -0.3504273504273504, 0.32722832722832723, 1.3394383394383393, 1.03125, 0.28125, 0.46875, 1.0
586, -1.2661782661782661, 0.2796092796092796, 0.12332112332112333, 1.53125, 0.96875, 0.71875, 1.0
587, -1.6935286935286935, 0.32844932844932845, -0.4126984126984127, 2.09375, 2.65625, 1.1875, 1.0
588, 2.2918192918192917, -0.2783882783882784, -0.8559218559218559, 2.71875, 4.25, 1.875, 1.0
589, 4.04029304029304, -1.6117216117216118, -1.9816849816849818, 2.96875, 4.71875, 2.1875, 1.0
590, 5.017094017094017, -2.772893772893773, -2.6446886446886446, 3.0625, 5.21875, 1.75, 1.0
591, 4.437118437118437, -3.0146520146520146, -2.6764346764346763, 3.09375, 6.09375, 1.34375, 1.0
592, 3.2466422466422467, -1.6581196581196582, -1.8205128205128205, 3.6875, 7.71875, 1.0625, 1.0
593, 3.716727716727717, -1.9267399267399268, -0.6727716727716728, 4.40625, 9.03125, 1.03125, 1.0
594, 5.863247863247863, -2.092796092796093, 0.4432234432234432, 4.71875, 9.0625, 0.8125, 1.0
595, 6.431013431013431, -1.8742368742368742, 1.2026862026862026, 4.9375, 8.59375, 0.4375, 1.0
596, 5.989010989010989, -1.1660561660561661, 1.2002442002442002, 5.3125, 8.28125, 0.15625, 1.0
597, 5.065934065934066, -1.1697191697191698, 0.8571428571428571, 5.65625, 8.125, 0.0625, 1.0
598, 5.061050061050061, -2.161172161172161, 0.6117216117216118, 5.71875, 7.75, 0.125, 1.0
599, 4.903540903540904, -3.4224664224664223, 0.27228327228327226, 5.46875, 7.0625, 0.21875, 1.0
600, 5.253968253968254, -3.503052503052503, 0.09645909645909646, 5.1875, 5.90625, 0.09375, 1.0
601, 4.968253968253968, -4.56043956043956, -0.0463980463980464, 4.875, 4.9375, 0.09375, 1.0
602, 6.018315018315018, -4.329670329670329, -0.30158730158730157, 4.40625, 3.15625, -0.34375, 1.0
603, 5.555555555555555, -5.942612942612943, -2.192918192918193, 3.78125, 1.625, -1.0, 1.0
604, 2.9853479853479854, -5.112332112332112, -3.1807081807081805, 2.84375, 0.75, -2.0, 1.0
605, 0.49572649572649574, -2.4505494505494507, -3.056166056166056, 2.3125, 0.65625, -2.625, 1.0
606, -0.3528693528693529, -1.7167277167277166, -2.8424908424908426, 2.40625, 1.0625, -2.15625, 1.0
607, 1.1147741147741148, -2.5103785103785103, -3.5177045177045176, 2.5625, 1.03125, -1.625, 1.0
608, 0.5445665445665445, -2.2344322344322345, -3.8547008547008548, 2.40625, 0.46875, -1.96875, 1.0
609, -2.0207570207570207, -1.3162393162393162, -4.130647130647131, 2.46875, 0.1875, -1.96875, 1.0
610, -2.409035409035409, -2.4432234432234434, -4.9633699633699635, 2.5625, 0.28125, -1.5, 1.0
611, -1.8461538461538463, -3.0146520146520146, -5.185592185592186, 2.1875, 0.28125, -1.25, 1.0
612, -2.4822954822954824, -2.304029304029304, -5.1098901098901095, 1.84375, 0.0, -1.15625, 1.0
613, -2.5775335775335777, -1.6422466422466422, -5.5054945054945055, 1.75, -0.25, -1.0, 1.0
614, -3.3028083028083026, -1.7435897435897436, -6.482295482295482, 1.53125, -0.5625, -0.9375, 1.0
615, -4.108669108669108, -1.4444444444444444, -7.411477411477412, 1.0625, -0.40625, -0.75, 1.0
616, -4.245421245421245, -0.5567765567765568, -7.4664224664224665, 0.53125, -0.15625, -0.3125, 1.0
617, -3.4822954822954824, 0.14896214896214896, -6.577533577533577, 0.1875, 0.0625, 0.0, 1.0
618, -2.4603174603174605, 0.8925518925518926, -4.862026862026862, 0.03125, 0.0, 0.125, 1.0
619, -1.376068376068376, 1.1123321123321124, -3.501831501831502, 0.03125, -0.1875, 0.21875, 1.0
620, -1.6764346764346765, -0.4188034188034188, -3.761904761904762, -0.25, 0.0, 0.09375, 1.0
621, -1.1343101343101343, -0.1282051282051282, -2.3333333333333335, -0.53125, 0.28125, 0.15625, 1.0
622, -0.36996336996337, 0.2857142857142857, -0.6239316239316239, -0.4375, 0.375, 0.25, 1.0
623, 0.38583638583638585, 0.199023199023199, 0.5079365079365079, -0.25, 0.28125, 0.15625, 1.0
624, 0.4700854700854701, -0.2893772893772894, 0.45665445665445664, -0.1875, 0.0, 0.0625, 1.0
625, 0.03785103785103785, -0.3052503052503053, 0.07692307692307693, -0.25, 0.0, 0.09375, 1.0
626, -0.014652014652014652, -0.006105006105006105, -0.03785103785103785, -0.21875, 0.0, 0.125, 1.0
627, -0.18437118437118438, 0.0, -0.42246642246642246, -0.15625, -0.0625, 0.125, 1.0
628, -0.29426129426129427, -0.3064713064713065, -1.137973137973138, -0.125, -0.1875, 0.125, 1.0
629, -0.5641025641025641, -0.3247863247863248, -1.7912087912087913, -0.25, -0.375, 0.15625, 1.0
630, -1.0976800976800978, -0.028083028083028084, -2.1868131868131866, -0.46875, -0.4375, 0.21875, 1.0
631, -1.0805860805860805, 0.03418803418803419, -2.347985347985348, -0.75, -0.28125, 0.5, 1.0
632, -0.5824175824175825, 0.5885225885225885, -2.2967032967032965, -1.03125, -0.25, 0.8125, 0.0
633, -0.7680097680097681, 0.6532356532356532, -2.462759462759463, -1.0, -0.53125, 0.90625, 0.0
634, -1.592185592185592, 0.5616605616605617, -2.978021978021978, -1.0, -1.03125, 0.9375, 0.0
635, -2.9365079365079363, 0.33577533577533575, -3.203907203907204, -0.84375, -1.03125, 1.0, 0.0
636, -2.5934065934065935, -0.7203907203907204, -3.275946275946276, -0.90625, -0.875, 0.9375, 0.0
637, -0.9658119658119658, -1.3724053724053724, -2.5873015873015874, -1.71875, -1.4375, 0.8125, 0.0
638, 0.8559218559218559, -0.2612942612942613, -1.7692307692307692, -2.21875, -2.6875, 0.46875, 0.0
639, -0.3137973137973138, 0.7326007326007326, -1.1037851037851039, -2.40625, -3.84375, 0.25, 0.0
640, -3.416361416361416, 1.4786324786324787, -0.8583638583638583, -2.4375, -3.9375, 0.4375, 0.0
641, -2.7875457875457874, 1.8644688644688645, -0.5201465201465202, -2.375, -3.875, 0.65625, 0.0
642, 1.1965811965811965, 2.4603174603174605, 0.05982905982905983, -2.375, -5.0, 0.40625, 0.0
643, 1.9926739926739927, 3.1636141636141635, 1.0695970695970696, -2.40625, -6.6875, -0.125, 0.0
644, -2.873015873015873, 3.6495726495726495, 1.2295482295482296, -2.375, -6.6875, -0.03125, 0.0
645, -3.7435897435897436, 5.199023199023199, 0.6666666666666666, -2.09375, -5.75, 0.3125, 0.0
646, -0.9108669108669109, 6.186813186813187, 0.7716727716727717, -1.875, -5.59375, 0.34375, 0.0
647, 1.291819291819292, 5.880341880341881, 1.5042735042735043, -1.84375, -6.5625, -0.09375, 0.0
648, -0.8290598290598291, 4.151404151404152, 1.8522588522588523, -1.65625, -6.59375, 0.875, 0.0
649, 1.1904761904761905, 0.7557997557997558, -2.0952380952380953, -1.53125, -5.4375, 1.3125, 0.0
650, 4.285714285714286, 0.7228327228327228, -1.2735042735042734, -1.875, -5.5, 0.875, 0.0
651, 2.4957264957264957, 1.4493284493284493, -0.16971916971916973, -2.15625, -6.34375, -0.21875, 0.0
652, -0.06837606837606838, 1.0732600732600732, -0.5457875457875457, -1.875, -6.46875, -0.78125, 0.0
653, -0.9511599511599511, 1.017094017094017, -1.5177045177045176, -1.28125, -5.75, -0.28125, 0.0
654, 0.7435897435897436, -0.13186813186813187, -1.7326007326007327, -0.875, -5.21875, 0.15625, 0.0
655, 1.0708180708180708, -0.6092796092796092, -1.4004884004884004, -1.0, -5.1875, 0.0, 0.0
656, 0.2869352869352869, -0.03418803418803419, -0.9218559218559218, -1.15625, -5.28125, -0.40625, 0.0
657, 0.2967032967032967, 0.042735042735042736, -1.2503052503052503, -0.96875, -5.125, -0.3125, 0.0
658, -0.38095238095238093, 0.4981684981684982, -1.606837606837607, -0.625, -4.625, -0.09375, 0.0
659, -1.3003663003663004, 1.0647130647130647, -2.2173382173382175, -0.1875, -3.6875, 0.21875, 0.0
660, -0.6959706959706959, -0.30036630036630035, -3.1868131868131866, 0.125, -1.96875, 0.6875, 0.0
661, 0.6776556776556777, -0.2783882783882784, -3.061050061050061, 0.0, -1.5, 0.8125, 0.0
662, 2.7032967032967035, -0.7374847374847375, -3.0842490842490844, -0.1875, -1.71875, 0.75, 0.0
663, 2.3028083028083026, -0.31135531135531136, -2.688644688644689, -0.375, -2.0, 0.59375, 0.0
664, 0.8437118437118437, 0.4163614163614164, -2.271062271062271, -0.25, -1.53125, 0.59375, 0.0
665, 0.778998778998779, 0.13186813186813187, -2.0256410256410255, -0.03125, -0.90625, 0.75, 0.0
666, 1.2942612942612943, -0.002442002442002442, -1.4896214896214897, 0.0, -0.53125, 0.875, 0.0
667, 2.271062271062271, -0.34554334554334554, -1.1721611721611722, 0.03125, -0.46875, 0.6875, 0.0
668, 3.051282051282051, -0.34554334554334554, -0.8815628815628815, 0.0, -0.75, 0.46875, 0.0
669, 2.3894993894993894, -0.23809523809523808, -0.9145299145299145, -0.0625, -0.75, 0.375, 0.0
670, 2.0207570207570207, -0.1794871794871795, -0.7228327228327228, -0.0625, -0.5625, 0.3125, 0.0
671, 1.6715506715506716, 0.10378510378510379, -0.6398046398046398, 0.0, -0.3125, 0.28125, 0.0
672, 1.4774114774114775, 0.08424908424908426, -0.7106227106227107, 0.03125, -0.1875, 0.28125, 0.0
673, 1.4346764346764347, -0.06471306471306472, -0.7228327228327228, 0.0, -0.21875, 0.1875, 0.0
674, 1.0354090354090355, -0.03663003663003663, -0.5836385836385837, -0.09375, -0.21875, 0.15625, 0.0
675, 0.47741147741147744, 0.17338217338217338, -0.29181929181929184, -0.125, -0.15625, 0.125, 0.0
676, 0.08424908424908426, 0.20146520146520147, -0.02564102564102564, -0.03125, 0.03125, 0.1875, 0.0
677, 0.03663003663003663, 0.0989010989010989, 0.23321123321123322, 0.09375, 0.1875, 0.28125, 0.0
678, 0.007326007326007326, -0.009768009768009768, 0.23687423687423687, 0.21875, 0.3125, 0.3125, 0.0
679, 0.34554334554334554, -0.4554334554334554, 0.2271062271062271, 0.21875, 0.34375, 0.3125, 0.0
680, 0.03907203907203907, -0.08302808302808302, 0.2271062271062271, 0.15625, 0.25, 0.25, 0.0
681, -0.4481074481074481, 0.07203907203907203, 0.2039072039072039, 0.25, 0.34375, 0.28125, 0.0
682, -1.192918192918193, 0.2271062271062271, 0.09768009768009768, 0.5, 0.75, 0.40625, 0.0
683, -2.6056166056166057, 0.9548229548229549, 0.4371184371184371, 1.3125, 2.46875, 1.09375, 0.0
684, -2.094017094017094, 1.4236874236874237, 1.3943833943833943, 2.15625, 3.84375, 1.625, 1.0
685, -0.7667887667887668, 1.1343101343101343, 1.706959706959707, 2.875, 4.875, 2.3125, 1.0
686, 1.0451770451770452, -1.0879120879120878, 0.536019536019536, 3.3125, 5.75, 2.375, 1.0
687, 2.126984126984127, -2.437118437118437, -0.9047619047619048, 3.3125, 6.59375, 1.9375, 1.0
688, 3.578754578754579, -1.9377289377289377, -0.9242979242979243, 3.34375, 7.25, 1.40625, 1.0
689, 4.898656898656899, -1.7264957264957266, -0.9242979242979243, 3.5, 7.5625, 1.03125, 1.0
690, 4.518925518925519, -1.993894993894994, -1.1257631257631258, 3.6875, 7.875, 0.8125, 1.0
691, 4.2625152625152625, -2.7203907203907205, -0.47863247863247865, 3.875, 8.46875, 0.75, 1.0
692, 4.409035409035409, -1.63003663003663, 0.8803418803418803, 4.40625, 9.25, 0.625, 1.0
693, 4.951159951159951, -1.2087912087912087, 2.023199023199023, 5.125, 9.5, 0.53125, 1.0
694, 5.175824175824176, -1.8754578754578755, 2.669108669108669, 5.78125, 9.4375, 0.5, 1.0
695, 6.302808302808303, -3.4065934065934065, 2.58974358974359, 5.8125, 8.15625, 0.5, 1.0
696, 5.971916971916972, -4.338217338217338, 1.413919413919414, 5.5, 6.5625, 0.09375, 1.0
697, 5.960927960927961, -4.0476190476190474, 0.5592185592185592, 5.125, 5.09375, -0.28125, 1.0
698, 4.395604395604396, -4.921855921855922, -0.8388278388278388, 4.75, 3.65625, -0.5625, 1.0
699, 3.515262515262515, -4.450549450549451, -2.056166056166056, 4.125, 2.46875, -0.9375, 1.0
700, 2.358974358974359, -3.1636141636141635, -1.8876678876678876, 3.65625, 1.71875, -1.4375, 1.0
701, 0.7081807081807082, -4.128205128205129, -2.7753357753357752, 3.625, 1.15625, -1.59375, 1.0
702, 0.5811965811965812, -3.6214896214896215, -3.41025641025641, 3.25, 1.0625, -1.5625, 1.0
703, 0.15873015873015872, -3.0842490842490844, -3.039072039072039, 2.96875, 0.84375, -1.53125, 1.0
704, -0.5531135531135531, -2.954822954822955, -3.584859584859585, 3.03125, 0.46875, -1.40625, 1.0
705, -1.3785103785103785, -3.5885225885225887, -4.705738705738706, 3.03125, 0.28125, -1.46875, 1.0
706, -1.3833943833943834, -3.103785103785104, -5.031746031746032, 2.5625, 0.25, -1.46875, 1.0
707, -1.9206349206349207, -2.083028083028083, -5.267399267399267, 2.21875, -0.28125, -1.15625, 1.0
708, -2.9572649572649574, -1.5482295482295483, -6.032967032967033, 1.96875, -0.28125, -0.875, 1.0
709, -2.7191697191697193, -0.9096459096459096, -6.451770451770452, 1.75, -0.4375, -0.71875, 1.0
710, -3.1868131868131866, -1.0317460317460319, -7.216117216117216, 1.28125, -0.625, -0.625, 1.0
711, -3.6153846153846154, -0.5946275946275946, -7.256410256410256, 0.75, -0.65625, -0.46875, 1.0
712, -4.065934065934066, -0.16727716727716727, -6.666666666666667, 0.3125, -0.4375, -0.09375, 1.0
713, -3.568986568986569, 0.36996336996337, -5.452991452991453, 0.0625, -0.15625, 0.1875, 1.0
714, -2.5054945054945055, 0.27594627594627597, -4.1098901098901095, 0.0, -0.15625, 0.28125, 1.0
715, -1.7936507936507937, 0.054945054945054944, -3.1343101343101343, -0.125, -0.3125, 0.34375, 1.0
716, -1.678876678876679, -0.6385836385836385, -2.970695970695971, -0.375, -0.21875, 0.21875, 1.0
717, -1.84004884004884, -0.18803418803418803, -2.012210012210012, -0.5, 0.125, 0.15625, 1.0
718, -1.0427350427350428, -0.045177045177045176, -0.020757020757020756, -0.46875, 0.4375, 0.28125, 1.0
719, 0.28083028083028083, -0.1562881562881563, 0.43101343101343104, -0.4375, 0.28125, 0.1875, 1.0
720, 0.1391941391941392, -0.4261294261294261, 0.518925518925519, -0.375, 0.125, 0.125, 1.0
721, 0.31868131868131866, -0.07081807081807082, 0.78998778998779, -0.34375, 0.15625, 0.0625, 1.0
722, 0.3907203907203907, 0.06715506715506715, 0.9304029304029304, -0.25, 0.15625, 0.03125, 1.0
723, 0.24053724053724054, -0.02197802197802198, 0.503052503052503, -0.1875, 0.03125, 0.0, 1.0
724, -0.27106227106227104, 0.017094017094017096, -0.2222222222222222, -0.1875, -0.09375, 0.0, 1.0
725, -0.7423687423687424, -0.1221001221001221, -1.1953601953601953, -0.21875, -0.21875, 0.0625, 1.0
726, -0.8461538461538461, 0.014652014652014652, -2.012210012210012, -0.40625, -0.25, 0.25, 1.0
727, -0.4432234432234432, 0.0927960927960928, -2.6788766788766787, -0.71875, -0.375, 0.375, 0.0
728, -0.2442002442002442, 0.45787545787545786, -2.960927960927961, -1.0, -0.8125, 0.34375, 0.0
729, -0.5433455433455433, 0.21978021978021978, -3.0354090354090353, -1.1875, -1.6875, 0.21875, 0.0
730, -2.114774114774115, 0.30158730158730157, -2.8644688644688645, -1.21875, -2.6875, 0.15625, 0.0
731, -2.2698412698412698, 0.0695970695970696, -2.7045177045177047, -1.46875, -3.21875, 0.375, 0.0
732, -1.7545787545787546, 0.2857142857142857, -2.2515262515262515, -1.90625, -3.84375, 0.53125, 0.0
733, 0.46642246642246643, 0.6410256410256411, -1.2344322344322345, -2.5, -5.1875, 0.15625, 0.0
734, -0.7203907203907204, 1.691086691086691, 0.19413919413919414, -2.9375, -6.5, -0.28125, 0.0
735, -3.326007326007326, 3.062271062271062, 0.8644688644688645, -3.0, -6.75, -0.375, 0.0
736, -5.058608058608058, 3.8241758241758244, 0.6385836385836385, -2.84375, -5.90625, 0.0, 0.0
737, -2.264957264957265, 5.0256410256410255, 1.0305250305250304, -2.6875, -5.5625, 0.03125, 0.0
738, 0.2771672771672772, 5.82051282051282, 2.0683760683760686, -2.8125, -6.09375, -0.4375, 0.0
739, 0.7973137973137974, 6.201465201465202, 3.573870573870574, -2.875, -7.28125, -1.09375, 0.0
740, -1.3443223443223444, 4.979242979242979, 4.452991452991453, -2.46875, -7.71875, -0.875, 0.0
741, -3.4786324786324787, 4.942612942612943, 3.0586080586080584, -0.75, -5.625, 0.625, 0.0
742, 0.22466422466422467, 1.8266178266178266, -0.48595848595848595, 0.0, -4.59375, 0.6875, 0.0
743, 2.3553113553113554, 0.8070818070818071, -0.2588522588522589, -0.375, -4.9375, 0.0, 0.0
744, 1.3736263736263736, 0.8962148962148963, -0.001221001221001221, -0.71875, -5.84375, -0.15625, 0.0
745, -0.673992673992674, 1.8107448107448108, -0.9487179487179487, -0.46875, -5.53125, 0.375, 0.0
746, 0.16361416361416362, 1.0402930402930404, -1.6971916971916972, 0.21875, -4.34375, 0.71875, 0.0
747, 2.2979242979242978, -0.07081807081807082, -1.78998778998779, 0.21875, -4.09375, 0.4375, 0.0
748, 2.081807081807082, -0.6691086691086691, -1.9059829059829059, -0.25, -4.625, -0.09375, 0.0
749, 0.9413919413919414, 0.3614163614163614, -1.6764346764346765, -0.75, -5.0625, -0.46875, 0.0
750, 0.5787545787545788, 0.5067155067155067, -1.5164835164835164, -0.8125, -5.0, -0.65625, 0.0
751, -0.9706959706959707, 1.2478632478632479, -1.1794871794871795, -0.6875, -4.71875, -0.59375, 0.0
752, -1.978021978021978, 2.017094017094017, -1.164835164835165, -0.3125, -3.90625, -0.28125, 0.0
753, -1.2283272283272284, 1.2698412698412698, -1.7423687423687424, 0.375, -2.65625, 0.625, 0.0
754, 0.20634920634920634, 0.2148962148962149, -2.3064713064713063, 0.46875, -2.34375, 0.9375, 0.0
755, 0.44078144078144077, -0.358974358974359, -2.7875457875457874, 0.375, -1.875, 0.8125, 0.0
756, 1.1404151404151404, -0.5641025641025641, -2.7545787545787546, 0.1875, -1.59375, 0.6875, 0.0
757, 0.8815628815628815, 0.115995115995116, -2.3321123321123323, 0.15625, -1.375, 0.65625, 0.0
758, 0.452991452991453, 0.5873015873015873, -1.7643467643467643, 0.3125, -1.09375, 0.71875, 0.0
759, 0.884004884004884, 0.6385836385836385, -1.7313797313797314, 0.46875, -0.90625, 0.8125, 0.0
760, 1.9462759462759462, 0.11721611721611722, -1.9706959706959708, 0.40625, -1.0, 0.78125, 0.0
761, 2.1172161172161172, -0.27106227106227104, -2.264957264957265, 0.1875, -1.0625, 0.625, 0.0
762, 1.7484737484737485, 0.05860805860805861, -2.1452991452991452, 0.0625, -0.84375, 0.53125, 0.0
763, 1.5177045177045176, 0.3504273504273504, -1.7191697191697193, 0.09375, -0.53125, 0.46875, 0.0
764, 1.5665445665445665, 0.4932844932844933, -1.1282051282051282, 0.15625, -0.25, 0.46875, 0.0
765, 2.0073260073260073, 0.1746031746031746, -0.5897435897435898, 0.125, -0.28125, 0.46875, 0.0
766, 1.5238095238095237, 0.42002442002442003, -0.19658119658119658, 0.1875, -0.25, 0.46875, 0.0
767, 0.905982905982906, 0.47374847374847373, 0.11233211233211234, 0.375, 0.03125, 0.5, 0.0
768, 1.028083028083028, 0.33455433455433453, 0.38705738705738707, 0.5625, 0.46875, 0.625, 0.0
769, 0.9133089133089133, 0.3052503052503053, 0.4481074481074481, 0.75, 0.71875, 0.6875, 0.0
770, 0.06837606837606838, 0.17582417582417584, 0.21001221001221002, 0.96875, 1.0, 0.71875, 0.0
771, -1.0683760683760684, 1.072039072039072, 0.4371184371184371, 1.28125, 1.8125, 0.90625, 0.0
772, -0.9719169719169719, 0.9255189255189256, 0.4346764346764347, 2.0, 3.03125, 1.3125, 1.0
773, -0.8803418803418803, 0.4590964590964591, 0.3064713064713065, 2.6875, 4.46875, 1.65625, 1.0
774, -0.20757020757020758, -0.7655677655677655, 0.15384615384615385, 3.21875, 5.9375, 2.0625, 1.0
775, 1.9987789987789988, -1.492063492063492, 0.5421245421245421, 3.5, 7.0, 2.15625, 1.0
776, 3.183150183150183, -1.8485958485958487, 0.9120879120879121, 3.65625, 7.46875, 1.53125, 1.0
777, 5.293040293040293, -1.9426129426129426, 1.1233211233211233, 3.46875, 6.9375, 0.875, 1.0
778, 4.989010989010989, -1.3650793650793651, 0.3907203907203907, 3.1875, 6.34375, 0.34375, 1.0
779, 3.114774114774115, -1.5702075702075702, 0.1562881562881563, 3.1875, 6.5625, 0.1875, 1.0
780, 2.78998778998779, -0.7802197802197802, 0.7277167277167277, 3.46875, 7.09375, 0.0, 1.0
781, 3.1343101343101343, -0.19658119658119658, 1.6544566544566544, 3.9375, 7.28125, 0.0, 1.0
782, 3.426129426129426, -0.6275946275946276, 1.8888888888888888, 4.375, 7.25, 0.0, 1.0
783, 3.3235653235653237, -1.5128205128205128, 2.0793650793650795, 4.65625, 7.28125, 0.03125, 1.0
784, 2.923076923076923, -1.592185592185592, 2.0854700854700856, 5.03125, 7.40625, 0.03125, 1.0
785, 2.7643467643467643, -2.045177045177045, 1.5616605616605617, 5.28125, 7.34375, 0.1875, 1.0
786, 3.663003663003663, -3.5824175824175826, 1.1782661782661783, 5.25, 6.96875, 0.4375, 1.0
787, 5.218559218559219, -4.468864468864469, 0.9133089133089133, 4.78125, 5.78125, 0.40625, 1.0
788, 4.525030525030525, -4.504273504273504, 0.8901098901098901, 3.625, 2.28125, -0.4375, 1.0
789, 1.4542124542124542, -3.249084249084249, 0.6068376068376068, 3.125, 1.0625, -0.84375, 1.0
790, 0.4945054945054945, -2.492063492063492, -0.4517704517704518, 3.09375, 0.65625, -0.875, 1.0
791, 0.2271062271062271, -3.5238095238095237, -1.7863247863247864, 3.09375, 0.46875, -0.9375, 1.0
792, -0.6568986568986569, -3.5885225885225887, -2.336996336996337, 2.6875, 0.5, -1.125, 1.0
793, 0.1562881562881563, -1.0488400488400489, -1.413919413919414, 2.34375, 0.625, -1.21875, 1.0
794, -0.6446886446886447, -1.0525030525030525, -1.2380952380952381, 2.59375, 0.34375, -0.90625, 1.0
795, 0.3199023199023199, -2.070818070818071, -2.7155067155067156, 2.78125, 0.15625, -0.6875, 1.0
796, -0.20024420024420025, -2.9023199023199022, -4.42002442002442, 2.46875, -0.25, -0.90625, 1.0
797, -2.0183150183150182, -1.3186813186813187, -4.504273504273504, 2.0, -0.40625, -1.1875, 1.0
798, -1.6727716727716728, -0.0757020757020757, -4.836385836385836, 2.0, -0.1875, -0.875, 1.0
799, -1.0940170940170941, -0.9133089133089133, -5.837606837606837, 2.09375, -0.25, -0.59375, 1.0
800, -1.8693528693528694, -1.3443223443223444, -6.8669108669108665, 1.5, -0.4375, -0.6875, 1.0
801, -2.7191697191697193, -0.6837606837606838, -6.951159951159951, 1.03125, -0.25, -0.59375, 1.0
802, -2.7374847374847375, 0.029304029304029304, -6.285714285714286, 0.78125, -0.15625, -0.28125, 1.0
803, -2.3394383394383396, 0.020757020757020756, -5.783882783882784, 0.53125, -0.21875, 0.0, 1.0
804, -2.514041514041514, -0.2979242979242979, -5.1208791208791204, 0.25, -0.21875, 0.21875, 1.0
805, -2.0378510378510377, -0.5091575091575091, -4.500610500610501, -0.0625, -0.125, 0.28125, 1.0
806, -1.4566544566544566, -0.3956043956043956, -3.5616605616605614, -0.375, -0.09375, 0.21875, 1.0
807, -1.1367521367521367, 0.12087912087912088, -2.4053724053724053, -0.46875, -0.0625, 0.1875, 1.0
808, -0.8315018315018315, -0.12698412698412698, -1.6935286935286935, -0.5, -0.03125, 0.1875, 1.0
809, -0.7863247863247863, -0.3907203907203907, -1.0744810744810744, -0.5625, 0.0, 0.1875, 1.0
810, -0.5128205128205128, -0.23321123321123322, -0.34554334554334554, -0.59375, 0.125, 0.125, 1.0
811, -0.46642246642246643, 0.040293040293040296, 0.8925518925518926, -0.4375, 0.15625, 0.125, 1.0
812, -0.019536019536019536, 0.045177045177045176, 0.9169719169719169, -0.3125, 0.03125, 0.125, 1.0
813, -0.03296703296703297, 0.040293040293040296, 0.5421245421245421, -0.21875, -0.09375, 0.125, 1.0
814, -0.26373626373626374, 0.026862026862026864, -0.0757020757020757, -0.1875, -0.21875, 0.21875, 1.0
815, -0.21367521367521367, -0.28205128205128205, -0.8620268620268621, -0.28125, -0.25, 0.375, 1.0
816, -0.2857142857142857, -0.3089133089133089, -2.0549450549450547, -0.625, -0.4375, 0.5625, 0.0
817, -0.7472527472527473, 0.2661782661782662, -2.8974358974358974, -0.90625, -0.75, 0.6875, 0.0
818, -0.5042735042735043, 0.24297924297924298, -3.3382173382173383, -0.90625, -1.125, 0.6875, 0.0
819, -1.465201465201465, 0.8302808302808303, -3.8595848595848596, -1.09375, -1.53125, 0.8125, 0.0
820, -1.010989010989011, 0.6178266178266179, -4.073260073260073, -1.1875, -1.84375, 0.6875, 0.0
821, -0.6813186813186813, 0.3540903540903541, -4.074481074481074, -1.53125, -2.34375, 0.59375, 0.0
822, -0.045177045177045176, -0.3418803418803419, -3.3894993894993894, -2.0625, -3.125, 0.375, 0.0
823, -1.0915750915750915, -0.3333333333333333, -2.2808302808302807, -3.125, -4.5625, -0.0625, 0.0
824, -2.995115995115995, 0.8632478632478633, -0.8962148962148963, -3.46875, -4.8125, -0.125, 0.0
825, -3.3565323565323566, 2.553113553113553, -0.2039072039072039, -3.4375, -4.5625, 0.21875, 0.0
826, -2.214896214896215, 3.304029304029304, 0.4358974358974359, -3.28125, -4.5625, 0.40625, 0.0
827, -0.568986568986569, 3.9157509157509156, 0.9926739926739927, -3.1875, -5.125, 0.4375, 0.0
828, -1.4871794871794872, 4.003663003663004, 1.8815628815628815, -3.09375, -5.40625, 0.6875, 0.0
829, -2.2796092796092795, 4.266178266178266, 2.1807081807081805, -2.84375, -4.78125, 1.15625, 0.0
830, 0.1855921855921856, 3.9816849816849818, 2.4725274725274726, -2.46875, -4.375, 1.375, 0.0
831, 4.256410256410256, 4.321123321123321, 2.5995115995115996, -2.125, -5.25, 0.6875, 0.0
832, 3.597069597069597, 3.8119658119658117, 2.857142857142857, -1.875, -6.53125, -0.125, 0.0
833, 0.15506715506715507, 1.5738705738705738, 1.459096459096459, -1.875, -6.34375, -0.21875, 0.0
834, -1.0390720390720392, 1.7887667887667889, 0.3663003663003663, -1.78125, -5.1875, -0.03125, 0.0
835, 1.3076923076923077, 2.2063492063492065, -0.3785103785103785, -1.9375, -5.03125, -0.0625, 0.0
836, 1.5592185592185592, 1.3443223443223444, 0.7032967032967034, -2.125, -5.78125, -0.5625, 0.0
837, 0.3797313797313797, 0.13186813186813187, 0.5543345543345544, -2.03125, -6.4375, -0.5625, 0.0
838, -0.33577533577533575, 0.4346764346764347, -0.3894993894993895, -1.65625, -6.03125, -0.25, 0.0
839, -0.5885225885225885, 0.4175824175824176, -0.7130647130647131, -1.125, -5.28125, -0.28125, 0.0
840, -1.4212454212454213, 0.6422466422466423, -1.0195360195360195, -0.84375, -4.4375, -0.21875, 0.0
841, -0.36752136752136755, 0.2979242979242979, -1.216117216117216, -0.59375, -3.78125, 0.03125, 0.0
842, -0.6837606837606838, 0.31135531135531136, -1.291819291819292, -0.5, -3.5625, 0.40625, 0.0
843, -1.0744810744810744, 0.5726495726495726, -1.3968253968253967, -0.28125, -3.0625, 0.59375, 0.0
844, -0.44078144078144077, 0.20146520146520147, -1.7863247863247864, 0.0625, -2.4375, 0.625, 0.0
845, -0.41147741147741146, -0.13064713064713065, -2.133089133089133, 0.15625, -1.90625, 0.84375, 0.0
846, 0.7863247863247863, -0.536019536019536, -2.2332112332112333, 0.09375, -1.28125, 1.09375, 0.0
847, 1.916971916971917, -0.4236874236874237, -2.2673992673992673, 0.09375, -1.21875, 1.0, 0.0
848, 2.015873015873016, -0.3028083028083028, -2.230769230769231, 0.21875, -1.1875, 0.875, 0.0
849, 2.1953601953601956, -0.4554334554334554, -1.9951159951159951, 0.21875, -1.1875, 0.78125, 0.0
850, 1.8571428571428572, -0.24297924297924298, -1.7667887667887667, 0.21875, -1.0625, 0.71875, 0.0
851, 1.7374847374847375, -0.05860805860805861, -1.551892551892552, 0.15625, -0.90625, 0.6875, 0.0
852, 1.6862026862026862, 0.41025641025641024, -1.3516483516483517, 0.21875, -0.71875, 0.71875, 0.0
853, 1.7179487179487178, 0.518925518925519, -1.2991452991452992, 0.34375, -0.53125, 0.71875, 0.0
854, 1.7484737484737485, 0.5177045177045178, -1.122100122100122, 0.5, -0.3125, 0.75, 0.0
855, 2.2454212454212454, 0.029304029304029304, -1.1941391941391941, 0.5, -0.21875, 0.6875, 0.0
856, 2.656898656898657, -0.23687423687423687, -1.2405372405372406, 0.3125, -0.34375, 0.53125, 0.0
857, 2.2295482295482296, 0.06715506715506715, -1.0805860805860805, 0.1875, -0.28125, 0.40625, 0.0
858, 1.5567765567765568, 0.1855921855921856, -1.10989010989011, 0.375, 0.15625, 0.40625, 0.0
859, 2.075702075702076, -0.19047619047619047, -1.0085470085470085, 0.4375, 0.34375, 0.375, 0.0
860, 1.9694749694749696, -0.40415140415140416, -0.8498168498168498, 0.375, 0.28125, 0.28125, 0.0
861, 1.0573870573870574, -0.2576312576312576, -0.9597069597069597, 0.3125, 0.375, 0.15625, 0.0
862, 0.20512820512820512, 0.4713064713064713, -0.8095238095238095, 0.3125, 0.875, 0.15625, 0.0
863, -0.08669108669108669, 0.6715506715506715, -0.4468864468864469, 0.65625, 1.59375, 0.375, 0.0
864, -0.4297924297924298, 0.7496947496947497, -0.3064713064713065, 1.125, 2.3125, 0.65625, 0.0
865, 0.1623931623931624, 0.18437118437118438, -0.3882783882783883, 1.59375, 2.96875, 0.84375, 1.0
866, 0.336996336996337, -0.23687423687423687, -1.0244200244200243, 1.84375, 3.40625, 0.9375, 1.0
867, 1.0537240537240538, -0.5115995115995116, -1.1587301587301588, 2.0625, 3.96875, 1.0, 1.0
868, 1.028083028083028, -0.7997557997557998, -1.4273504273504274, 2.375, 4.6875, 1.0, 1.0
869, 1.678876678876679, -1.3137973137973138, -1.0647130647130647, 2.96875, 5.90625, 0.53125, 1.0
870, 2.3504273504273505, -1.4334554334554335, -0.8461538461538461, 3.1875, 6.40625, 0.3125, 1.0
871, 2.3015873015873014, -1.3492063492063493, -0.7973137973137974, 3.59375, 7.03125, 0.25, 1.0
872, 2.0146520146520146, -0.8815628815628815, -0.4444444444444444, 4.28125, 7.78125, 0.09375, 1.0
873, 3.167277167277167, -0.5299145299145299, 0.6910866910866911, 5.125, 8.25, -0.1875, 1.0
874, 3.4835164835164836, -1.2820512820512822, 1.021978021978022, 5.5625, 8.375, -0.5, 1.0
875, 4.006105006105006, -2.0976800976800978, 0.5897435897435898, 5.5625, 8.21875, -0.65625, 1.0
876, 2.772893772893773, -2.064713064713065, 0.3492063492063492, 5.59375, 8.15625, -0.5625, 1.0
877, 3.6666666666666665, -2.601953601953602, 0.49572649572649574, 5.84375, 7.75, -0.5, 1.0
878, 4.061050061050061, -3.995115995115995, 0.13186813186813187, 5.8125, 7.0, -0.375, 1.0
879, 4.798534798534798, -5.410256410256411, -0.19658119658119658, 5.34375, 5.65625, -0.375, 1.0
880, 5.184371184371185, -6.087912087912088, -0.49694749694749696, 4.53125, 3.875, -0.5625, 1.0
881, 2.7216117216117217, -3.965811965811966, -0.7631257631257631, 3.625, 1.59375, -1.25, 1.0
882, 1.4236874236874237, -3.3724053724053724, -1.3894993894993894, 3.5625, 0.59375, -1.46875, 1.0
883, -0.46886446886446886, -4.297924297924298, -2.5665445665445668, 3.46875, 0.0, -1.3125, 1.0
884, -0.32722832722832723, -3.6483516483516483, -3.4249084249084247, 3.03125, 0.0625, -1.3125, 1.0
885, -0.608058608058608, -3.1684981684981683, -3.5457875457875456, 2.65625, 0.03125, -1.3125, 1.0
886, -0.9242979242979243, -2.7216117216117217, -3.3565323565323566, 2.46875, 0.125, -1.375, 1.0
887, -0.4358974358974359, -3.557997557997558, -3.2002442002442004, 2.34375, 0.21875, -1.3125, 1.0
888, -0.029304029304029304, -2.578754578754579, -2.796092796092796, 2.0, -0.03125, -1.34375, 1.0
889, -0.9242979242979243, -1.586080586080586, -3.128205128205128, 1.90625, -0.3125, -1.34375, 1.0
890, -2.3736263736263736, -2.763125763125763, -4.185592185592186, 2.03125, -0.375, -1.21875, 1.0
891, -2.2283272283272284, -2.4713064713064714, -4.482295482295482, 2.0, -0.125, -1.0625, 1.0
892, -1.3919413919413919, -2.2673992673992673, -5.115995115995116, 1.8125, -0.1875, -0.78125, 1.0
893, -2.1123321123321124, -1.7216117216117217, -5.9914529914529915, 1.34375, -0.6875, -0.78125, 1.0
894, -3.115995115995116, -1.1831501831501832, -6.545787545787546, 1.0625, -0.625, -0.5, 1.0
895, -3.203907203907204, -1.1575091575091576, -6.7484737484737485, 0.6875, -0.375, -0.09375, 1.0
896, -2.5665445665445668, -1.2967032967032968, -6.478632478632479, 0.1875, -0.15625, 0.125, 1.0
897, -2.166056166056166, -0.9706959706959707, -5.286935286935287, -0.21875, 0.0, 0.1875, 1.0
898, -1.231990231990232, -0.36874236874236876, -3.586080586080586, -0.34375, 0.0625, 0.1875, 1.0
899, -0.43345543345543347, -0.0695970695970696, -2.178266178266178, -0.3125, 0.0, 0.1875, 1.0
900, -0.5115995115995116, -0.8571428571428571, -1.7606837606837606, -0.34375, 0.0, 0.125, 1.0
901, -0.6007326007326007, -1.0244200244200243, -1.363858363858364, -0.5, 0.03125, 0.0625, 1.0
902, -0.7973137973137974, -0.8156288156288156, -0.9438339438339438, -0.59375, 0.25, 0.0625, 1.0
903, -0.2905982905982906, -0.5396825396825397, -0.37484737484737485, -0.5625, 0.3125, 0.0625, 1.0
904, -0.054945054945054944, -0.4053724053724054, -0.38461538461538464, -0.5, 0.0, 0.0, 1.0
905, -0.9719169719169719, -0.5494505494505495, -2.1257631257631258, -0.53125, -0.125, 0.0625, 1.0
906, -1.2503052503052503, -0.9963369963369964, -2.987789987789988, -0.75, -0.125, 0.21875, 1.0
907, -1.2503052503052503, -0.7777777777777778, -3.076923076923077, -1.25, -0.03125, 0.46875, 0.0
908, -0.48595848595848595, -0.2979242979242979, -2.877899877899878, -1.5, -0.0625, 0.5625, 0.0
909, -0.08180708180708181, 0.33943833943833945, -2.7264957264957266, -1.53125, -0.5, 0.46875, 0.0
910, -0.8144078144078144, 0.20634920634920634, -3.032967032967033, -1.375, -0.90625, 0.46875, 0.0
911, -1.3406593406593406, -0.48473748473748474, -3.31990231990232, -1.40625, -1.0625, 0.53125, 0.0
912, -1.7875457875457876, -1.2393162393162394, -3.06959706959707, -1.78125, -1.125, 0.59375, 0.0
913, -1.7557997557997558, -1.2234432234432235, -2.1697191697191696, -2.3125, -1.3125, 0.5625, 0.0
914, -0.6532356532356532, -0.8217338217338217, -1.1245421245421245, -2.75, -1.8125, 0.5, 0.0
915, 0.6288156288156288, 0.34065934065934067, -0.398046398046398, -3.03125, -3.03125, 0.3125, 0.0
916, -0.9267399267399268, 0.7521367521367521, 0.009768009768009768, -3.28125, -5.21875, 0.125, 0.0
917, -2.636141636141636, 1.032967032967033, 0.30036630036630035, -3.46875, -5.59375, 0.375, 0.0
918, -3.5567765567765566, 1.1196581196581197, 0.9658119658119658, -3.625, -5.3125, 0.96875, 0.0
919, -1.713064713064713, 2.203907203907204, 1.901098901098901, -3.625, -4.96875, 1.375, 0.0
920, 2.0024420024420024, 3.9572649572649574, 2.8363858363858365, -3.375, -5.78125, 1.0625, 0.0
921, 1.6605616605616607, 4.942612942612943, 3.675213675213675, -3.0, -6.75, 0.59375, 0.0
922, -1.9523809523809523, 4.186813186813187, 2.8485958485958487, -2.5, -6.125, 0.71875, 0.0
923, -2.3015873015873014, 4.236874236874237, 1.3882783882783882, -1.75, -4.625, 0.96875, 0.0
924, 1.5384615384615385, 3.347985347985348, 0.42124542124542125, -1.375, -4.34375, 0.71875, 0.0
925, 3.0256410256410255, 2.5604395604395602, 0.6251526251526252, -1.5625, -5.3125, 0.15625, 0.0
926, 1.5531135531135531, 1.5897435897435896, 1.1892551892551892, -1.8125, -6.1875, -0.0625, 0.0
927, -0.5470085470085471, 0.6178266178266179, 0.7985347985347986, -1.40625, -5.65625, 0.90625, 0.0
928, 1.612942612942613, 0.28327228327228327, -1.3125763125763126, -1.1875, -4.09375, 1.25, 0.0
929, 2.081807081807082, 0.7655677655677655, -1.0793650793650793, -0.96875, -3.9375, 0.96875, 0.0
930, 1.358974358974359, 0.2967032967032967, -1.0476190476190477, -0.8125, -4.0, 0.34375, 0.0
931, 0.9487179487179487, -0.40293040293040294, -1.3247863247863247, -0.84375, -4.09375, 0.15625, 0.0
932, 0.326007326007326, -0.525030525030525, -1.3223443223443223, -1.0625, -4.0, 0.28125, 0.0
933, 1.0207570207570207, -0.336996336996337, -1.0146520146520146, -1.28125, -3.6875, 0.28125, 0.0
934, 0.8522588522588522, 0.22344322344322345, -0.452991452991453, -1.34375, -3.625, 0.15625, 0.0
935, 0.358974358974359, 0.7472527472527473, 0.19047619047619047, -1.09375, -3.5, 0.15625, 0.0
936, -0.07692307692307693, 0.6544566544566545, 0.02564102564102564, -0.65625, -3.1875, 0.15625, 0.0
937, 0.7741147741147741, 0.028083028083028084, -0.4835164835164835, -0.375, -2.875, 0.21875, 0.0
938, 1.3199023199023199, -0.29914529914529914, -0.960927960927961, -0.21875, -2.8125, 0.3125, 0.0
939, 0.7936507936507936, 0.17094017094017094, -1.242979242979243, 0.03125, -2.375, 0.40625, 0.0
940, 0.6837606837606838, -0.015873015873015872, -1.9841269841269842, 0.3125, -1.71875, 0.53125, 0.0
941, 1.5299145299145298, -0.6483516483516484, -2.663003663003663, 0.34375, -1.34375, 0.65625, 0.0
942, 2.2295482295482296, -0.7753357753357754, -2.821733821733822, 0.1875, -1.15625, 0.625, 0.0
943, 2.1587301587301586, -0.4139194139194139, -2.597069597069597, 0.125, -0.9375, 0.53125, 0.0
944, 2.6617826617826617, -0.46153846153846156, -2.241758241758242, 0.09375, -0.75, 0.40625, 0.0
945, 2.376068376068376, -0.23321123321123322, -1.9975579975579976, 0.09375, -0.65625, 0.3125, 0.0
946, 2.167277167277167, -0.015873015873015872, -1.5604395604395604, 0.0625, -0.46875, 0.21875, 0.0
947, 1.8058608058608059, 0.19536019536019536, -1.216117216117216, 0.09375, -0.3125, 0.21875, 0.0
948, 1.3821733821733821, 0.5592185592185592, -0.8021978021978022, 0.25, -0.03125, 0.25, 0.0
949, 1.3076923076923077, 0.43345543345543347, -0.9206349206349206, 0.40625, 0.25, 0.3125, 0.0
950, 1.3943833943833943, -0.020757020757020756, -1.0805860805860805, 0.40625, 0.40625, 0.3125, 0.0
951, 0.6935286935286935, -0.047619047619047616, -1.1037851037851039, 0.46875, 0.59375, 0.15625, 0.0
952, 0.5006105006105006, 0.21245421245421245, -1.0940170940170941, 0.59375, 1.09375, 0.15625, 0.0
953, 0.1623931623931624, 0.6507936507936508, -0.78998778998779, 0.84375, 1.71875, 0.34375, 1.0
954, -0.10012210012210013, 0.24664224664224665, -0.7948717948717948, 1.4375, 2.625, 0.625, 1.0
955, -0.1855921855921856, -0.590964590964591, -1.2442002442002442, 1.90625, 4.0625, 1.1875, 1.0
956, 1.1111111111111112, -1.7313797313797314, -1.398046398046398, 2.15625, 5.3125, 1.46875, 1.0
957, 1.6642246642246643, -1.4761904761904763, -0.5067155067155067, 2.4375, 6.34375, 1.25, 1.0
958, 1.967032967032967, -1.253968253968254, 0.6068376068376068, 2.9375, 7.34375, 0.90625, 1.0
959, 3.713064713064713, -1.540903540903541, 0.9853479853479854, 3.5, 7.9375, 0.5625, 1.0
960, 3.192918192918193, -2.155067155067155, 1.1684981684981686, 4.03125, 8.03125, 0.3125, 1.0
961, 1.4432234432234432, -1.0842490842490842, 1.5213675213675213, 4.40625, 8.4375, 0.0625, 1.0
962, 1.5616605616605617, -0.9877899877899878, 1.9462759462759462, 5.21875, 9.625, 0.0, 1.0
963, 2.2051282051282053, -1.1489621489621489, 2.305250305250305, 5.53125, 9.6875, 0.03125, 1.0
964, 4.034188034188034, -2.1965811965811968, 2.275946275946276, 5.625, 8.96875, -0.03125, 1.0
965, 4.616605616605616, -3.253968253968254, 1.595848595848596, 5.4375, 7.8125, 0.03125, 1.0
966, 4.753357753357753, -4.700854700854701, 1.2307692307692308, 5.0625, 6.46875, 0.09375, 1.0
967, 5.09035409035409, -4.321123321123321, 0.6373626373626373, 4.875, 4.9375, -0.125, 1.0
968, 4.807081807081807, -4.869352869352869, -0.2979242979242979, 4.5625, 3.25, -0.40625, 1.0
969, 4.15995115995116, -4.979242979242979, -1.253968253968254, 4.1875, 1.65625, -0.65625, 1.0
970, 1.728937728937729, -5.559218559218559, -1.8937728937728937, 3.6875, 0.84375, -0.84375, 1.0
971, 0.3724053724053724, -4.463980463980464, -1.9865689865689866, 3.375, 0.71875, -0.9375, 1.0
972, 0.46764346764346765, -4.0085470085470085, -2.0256410256410255, 3.28125, 0.5625, -0.96875, 1.0
973, 0.4713064713064713, -3.9975579975579976, -2.1343101343101343, 3.0625, 0.34375, -1.125, 1.0
974, -1.8095238095238095, -4.00976800976801, -2.6056166056166057, 2.5625, 0.40625, -1.21875, 1.0
975, -0.6092796092796092, -1.547008547008547, -1.9096459096459097, 2.4375, 0.5625, -1.28125, 1.0
976, 0.04395604395604396, -1.2722832722832722, -2.3675213675213675, 2.71875, 0.09375, -1.09375, 1.0
977, -1.1978021978021978, -2.695970695970696, -3.7887667887667886, 2.65625, -0.53125, -1.0, 1.0
978, -3.2051282051282053, -3.442002442002442, -4.238095238095238, 2.1875, -0.625, -1.0, 1.0
979, -3.1013431013431014, -2.0415140415140414, -3.3736263736263736, 1.8125, -0.03125, -0.75, 1.0
980, -1.155067155067155, -1.3663003663003663, -2.866910866910867, 1.8125, 0.21875, -0.53125, 1.0
981, -0.9706959706959707, -1.2393162393162394, -3.3687423687423688, 1.90625, -0.28125, -0.46875, 1.0
982, -1.5836385836385836, -1.514041514041514, -4.837606837606837, 1.78125, -0.78125, -0.4375, 1.0
983, -2.468864468864469, -1.4395604395604396, -5.9072039072039075, 1.4375, -0.84375, -0.375, 1.0
984, -3.5128205128205128, -1.5616605616605617, -6.118437118437118, 0.9375, -0.4375, -0.1875, 1.0
985, -1.5323565323565325, -0.6898656898656899, -4.997557997557998, 0.53125, 0.15625, 0.0, 1.0
986, -0.9487179487179487, -0.6239316239316239, -4.517704517704518, 0.34375, -0.1875, -0.03125, 1.0
987, -1.424908424908425, -0.8315018315018315, -4.758241758241758, 0.09375, -0.40625, 0.0, 1.0
988, -1.9731379731379732, -0.8815628815628815, -4.485958485958486, -0.21875, -0.28125, 0.09375, 1.0
989, -1.728937728937729, -0.7313797313797313, -3.4664224664224665, -0.46875, 0.09375, 0.15625, 1.0
990, -1.0207570207570207, -0.4517704517704518, -2.1697191697191696, -0.53125, 0.34375, 0.09375, 1.0
991, -0.32234432234432236, -0.5323565323565324, -0.9938949938949939, -0.46875, 0.28125, 0.03125, 1.0
992, -0.2503052503052503, -0.6642246642246642, -0.4810744810744811, -0.4375, 0.15625, 0.0, 1.0
993, -0.43345543345543347, -0.8278388278388278, 0.02197802197802198, -0.5, 0.15625, 0.0, 1.0
994, -0.5433455433455433, -0.6691086691086691, 0.304029304029304, -0.5625, 0.21875, -0.03125, 1.0
995, -0.40293040293040294, -0.24175824175824176, 0.45665445665445664, -0.46875, 0.15625, 0.0, 1.0
996, -0.2442002442002442, -0.17704517704517705, 0.017094017094017096, -0.34375, 0.03125, 0.0, 1.0
997, -0.32722832722832723, -0.4236874236874237, -0.7777777777777778, -0.375, -0.25, 0.0, 1.0
998, -1.0757020757020757, -0.8205128205128205, -2.9536019536019538, -0.59375, -0.40625, 0.0625, 1.0
999, -1.8095238095238095, -0.6532356532356532, -3.8547008547008548, -0.9375, -0.25, 0.28125, 0.0
1000, -1.3516483516483517, -0.2148962148962149, -3.9572649572649574, -1.28125, -0.03125, 0.53125, 0.0
1001, 0.2954822954822955, -0.1343101343101343, -3.597069597069597, -1.40625, -0.21875, 0.5625, 0.0
1002, 0.5836385836385837, -0.2796092796092796, -3.4652014652014653, -1.53125, -1.0, 0.53125, 0.0
1003, 0.41025641025641024, -0.3626373626373626, -3.7765567765567765, -1.78125, -2.0625, 0.4375, 0.0
1004, -1.0879120879120878, -0.5604395604395604, -3.9511599511599513, -2.21875, -3.0625, 0.4375, 0.0
1005, -2.3797313797313797, -0.525030525030525, -3.5128205128205128, -2.75, -3.5625, 0.53125, 0.0
1006, -2.225885225885226, -0.19047619047619047, -2.612942612942613, -3.25, -3.78125, 0.625, 0.0
1007, 0.7338217338217338, 0.5445665445665445, -1.1294261294261294, -3.65625, -4.5, 0.5, 0.0
1008, 0.42857142857142855, 0.8559218559218559, 0.6605616605616605, -4.125, -6.1875, 0.1875, 0.0
1009, -2.954822954822955, 2.264957264957265, 1.956043956043956, -4.53125, -7.4375, 0.3125, 0.0
1010, -4.457875457875458, 4.644688644688645, 2.178266178266178, -4.125, -6.625, 1.0625, 0.0
1011, -3.515262515262515, 5.753357753357753, 1.9609279609279608, -3.375, -5.5, 1.75, 0.0
1012, -2.305250305250305, 5.478632478632479, 1.6080586080586081, -2.53125, -4.53125, 2.0625, 0.0
1013, -0.2783882783882784, 3.6837606837606836, 1.291819291819292, -2.0625, -3.96875, 2.09375, 0.0
1014, 0.7594627594627594, 1.3455433455433456, 1.0561660561660562, -2.0, -3.5, 1.96875, 0.0
1015, 2.695970695970696, 1.0622710622710623, 1.0879120879120878, -2.03125, -3.59375, 1.5, 0.0
1016, 5.188034188034188, 1.3601953601953602, 1.2039072039072038, -1.96875, -4.65625, 0.875, 0.0
1017, 3.808302808302808, 1.7411477411477412, 1.2124542124542124, -1.71875, -5.71875, 0.375, 0.0
1018, 0.7521367521367521, 1.0402930402930404, -0.003663003663003663, -1.375, -5.375, 0.4375, 0.0
1019, 0.9120879120879121, -0.9023199023199023, -1.4517704517704517, -1.375, -4.34375, 0.65625, 0.0
1020, 3.2283272283272284, -0.7545787545787546, -1.4017094017094016, -1.75, -4.3125, 0.1875, 0.0
1021, 0.7301587301587301, 2.034188034188034, -0.8376068376068376, -1.6875, -5.0625, -0.28125, 0.0
1022, -0.8876678876678876, 1.4725274725274726, -1.2442002442002442, -1.15625, -5.0, -0.1875, 0.0
1023, -0.9755799755799756, 0.46642246642246643, -1.9755799755799757, -0.84375, -4.3125, 0.21875, 0.0
1024, 0.5616605616605617, -0.42246642246642246, -2.202686202686203, -0.78125, -3.78125, 0.4375, 0.0
1025, 0.6385836385836385, -0.23321123321123322, -1.702075702075702, -0.84375, -3.6875, 0.375, 0.0
1026, -0.1623931623931624, 0.4468864468864469, -1.2246642246642248, -0.71875, -3.5, 0.28125, 0.0
1027, -0.34554334554334554, 0.2905982905982906, -1.507936507936508, -0.3125, -2.875, 0.5, 0.0
1028, 0.6654456654456654, -0.5567765567765568, -2.043956043956044, -0.03125, -2.28125, 0.78125, 0.0
1029, 1.4151404151404152, -0.9316239316239316, -2.3797313797313797, 0.0, -1.875, 0.78125, 0.0
1030, 1.5384615384615385, -0.5201465201465202, -2.133089133089133, -0.09375, -1.6875, 0.6875, 0.0
1031, 1.6153846153846154, -0.04151404151404151, -1.8998778998778998, -0.03125, -1.46875, 0.65625, 0.0
1032, 1.84981684981685, -0.30036630036630035, -2.1062271062271063, 0.15625, -1.0, 0.75, 0.0
1033, 2.4615384615384617, -0.6031746031746031, -2.3003663003663, 0.125, -0.78125, 0.71875, 0.0
1034, 2.601953601953602, -0.7496947496947497, -2.236874236874237, 0.0, -0.5625, 0.59375, 0.0
1035, 2.3028083028083026, -0.2954822954822955, -1.7264957264957266, 0.0, -0.1875, 0.5625, 0.0
1036, 2.4383394383394386, -0.0757020757020757, -1.336996336996337, 0.15625, 0.1875, 0.5625, 0.0
1037, 2.752136752136752, -0.24786324786324787, -1.0818070818070817, 0.25, 0.46875, 0.4375, 0.0
1038, 2.89010989010989, -0.5702075702075702, -0.9987789987789988, 0.28125, 0.59375, 0.25, 0.0
1039, 2.5811965811965814, -0.3894993894993895, -0.9181929181929182, 0.3125, 0.65625, 0.0625, 0.0
1040, 1.8522588522588523, 0.03785103785103785, -0.6336996336996337, 0.34375, 0.875, 0.0, 0.0
1041, 0.8534798534798534, 0.43956043956043955, -0.590964590964591, 0.5, 1.34375, 0.125, 1.0
1042, 0.27106227106227104, 0.8620268620268621, -0.45787545787545786, 1.0625, 2.125, 0.28125, 1.0
1043, -0.8620268620268621, 1.1001221001221002, -0.6190476190476191, 1.65625, 3.3125, 0.5625, 1.0
1044, 0.673992673992674, -1.6507936507936507, -0.0989010989010989, 2.1875, 4.90625, 1.1875, 1.0
1045, 1.94993894993895, -1.1245421245421245, 0.16483516483516483, 2.3125, 5.78125, 1.125, 1.0
1046, 2.440781440781441, -1.0256410256410255, 0.6959706959706959, 2.71875, 6.46875, 0.875, 1.0
1047, 2.744810744810745, -1.037851037851038, 0.9328449328449329, 3.28125, 7.125, 0.46875, 1.0
1048, 3.583638583638584, -1.9731379731379732, 0.7777777777777778, 3.6875, 7.46875, 0.125, 1.0
1049, 4.405372405372406, -2.2857142857142856, 0.7350427350427351, 3.71875, 7.375, -0.125, 1.0
1050, 2.5518925518925517, -1.2661782661782661, 1.0207570207570207, 3.71875, 7.0625, -0.3125, 1.0
1051, 1.9853479853479854, -0.6910866910866911, 1.6654456654456655, 4.21875, 7.5, -0.34375, 1.0
1052, 1.7484737484737485, -0.8595848595848596, 1.8681318681318682, 4.84375, 8.0, -0.21875, 1.0
1053, 2.63003663003663, -1.5445665445665446, 1.6336996336996337, 5.3125, 8.0625, -0.0625, 1.0
1054, 2.894993894993895, -2.601953601953602, 0.9255189255189256, 5.4375, 7.53125, 0.0625, 1.0
1055, 3.3235653235653237, -3.111111111111111, 0.057387057387057384, 5.1875, 6.34375, 0.25, 1.0
1056, 3.923076923076923, -4.704517704517705, -0.5653235653235653, 4.625, 5.1875, 0.09375, 1.0
1057, 4.503052503052503, -4.521367521367521, -0.47496947496947495, 4.125, 3.625, -0.21875, 1.0
1058, 3.717948717948718, -4.380952380952381, -0.7338217338217338, 3.75, 2.15625, -0.5, 1.0
1059, 2.26007326007326, -3.9853479853479854, -1.2673992673992673, 3.4375, 1.15625, -0.75, 1.0
1060, 0.4163614163614164, -4.111111111111111, -1.7887667887667889, 3.03125, 0.875, -0.90625, 1.0
1061, 0.20634920634920634, -3.7094017094017095, -2.2686202686202686, 2.625, 0.90625, -0.9375, 1.0
1062, 0.6239316239316239, -2.763125763125763, -2.064713064713065, 2.4375, 0.71875, -0.84375, 1.0
1063, 0.36874236874236876, -2.7667887667887667, -2.15018315018315, 2.34375, 0.53125, -0.90625, 1.0
1064, 0.6752136752136753, -2.288156288156288, -2.340659340659341, 2.3125, 0.15625, -1.1875, 1.0
1065, 0.6617826617826618, -1.3272283272283272, -2.8913308913308913, 2.40625, -0.34375, -1.1875, 1.0
1066, -0.8534798534798534, -2.2454212454212454, -4.523809523809524, 2.09375, -0.46875, -1.125, 1.0
1067, -2.347985347985348, -1.7387057387057387, -4.4664224664224665, 1.625, -0.03125, -0.84375, 1.0
1068, -0.9023199023199023, -0.9474969474969475, -4.286935286935287, 1.5, 0.03125, -0.5625, 1.0
1069, -0.645909645909646, -0.43223443223443225, -4.670329670329671, 1.34375, -0.5, -0.65625, 1.0
1070, -2.294261294261294, -0.21733821733821734, -5.621489621489621, 1.1875, -1.0, -0.71875, 1.0
1071, -3.2905982905982905, -0.2967032967032967, -6.592185592185592, 0.96875, -0.8125, -0.46875, 1.0
1072, -2.8095238095238093, -0.5079365079365079, -6.427350427350428, 0.5, -0.34375, -0.21875, 1.0
1073, -2.3626373626373627, -0.054945054945054944, -5.42979242979243, 0.09375, -0.125, -0.09375, 1.0
1074, -2.012210012210012, -0.10989010989010989, -4.431013431013431, -0.09375, -0.125, 0.0, 1.0
1075, -1.6654456654456655, 0.1221001221001221, -3.641025641025641, -0.1875, -0.1875, 0.0625, 1.0
1076, -1.4786324786324787, -0.6166056166056166, -3.514041514041514, -0.28125, -0.25, 0.125, 1.0
1077, -1.7057387057387057, -0.8131868131868132, -2.94993894993895, -0.59375, -0.09375, 0.0625, 1.0
1078, -1.9157509157509158, -0.34798534798534797, -1.7814407814407816, -0.875, 0.21875, 0.15625, 1.0
1079, -1.199023199023199, -0.12576312576312576, -0.6935286935286935, -0.8125, 0.4375, 0.1875, 1.0
1080, -0.7509157509157509, -0.19536019536019536, -0.1746031746031746, -0.78125, 0.28125, 0.1875, 1.0
1081, -0.5897435897435898, -0.045177045177045176, -0.12454212454212454, -0.78125, 0.03125, 0.1875, 1.0
1082, -0.8205128205128205, -0.08669108669108669, -0.7045177045177046, -0.875, 0.0, 0.375, 1.0
1083, -0.73992673992674, 0.0, -1.2637362637362637, -1.0625, 0.15625, 0.625, 0.0
1084, -0.4078144078144078, 0.18192918192918192, -1.9157509157509158, -1.15625, 0.15625, 0.8125, 0.0
1085, 0.20146520146520147, 0.5152625152625152, -2.05006105006105, -1.09375, -0.0625, 0.75, 0.0
1086, -0.08669108669108669, 0.21001221001221002, -2.4945054945054945, -1.0625, -0.40625, 0.65625, 0.0
1087, 0.8485958485958486, 0.12454212454212454, -2.7387057387057387, -1.21875, -1.09375, 0.46875, 0.0
1088, 1.413919413919414, -0.336996336996337, -3.1123321123321124, -1.65625, -2.25, 0.125, 0.0
1089, 0.32234432234432236, -0.398046398046398, -3.115995115995116, -2.3125, -3.40625, -0.125, 0.0
1090, -1.7887667887667889, 0.2796092796092796, -2.6336996336996337, -3.0625, -3.71875, 0.1875, 0.0
1091, 0.07692307692307693, 0.29304029304029305, -1.2796092796092795, -3.3125, -3.5625, 0.5, 0.0
1092, 2.1416361416361416, 0.22344322344322345, -0.09035409035409035, -3.5625, -4.40625, 0.25, 0.0
1093, 1.2857142857142858, 0.4432234432234432, 1.404151404151404, -3.90625, -5.90625, -0.40625, 0.0
1094, -0.9206349206349206, 2.1855921855921854, 2.126984126984127, -4.0625, -6.78125, -0.6875, 0.0
1095, -1.5274725274725274, 4.278388278388278, 2.0256410256410255, -3.78125, -6.84375, -0.5625, 0.0
1096, -0.4884004884004884, 5.078144078144078, 1.7191697191697193, -3.21875, -6.875, -0.46875, 0.0
1097, -0.5103785103785103, 4.2625152625152625, 1.9120879120879122, -2.9375, -7.28125, -0.65625, 0.0
1098, -1.9157509157509158, 3.0195360195360195, 1.8656898656898657, -2.875, -7.375, -0.59375, 0.0
1099, -1.8583638583638584, 2.768009768009768, 1.5543345543345544, -2.59375, -6.75, -0.3125, 0.0
1100, 0.03296703296703297, 1.7960927960927962, 1.2637362637362637, -2.1875, -6.21875, -0.3125, 0.0
1101, 0.030525030525030524, 1.606837606837607, 0.9597069597069597, -1.71875, -6.0, -0.25, 0.0
1102, -0.3626373626373626, 1.225885225885226, 0.21733821733821734, -0.8125, -5.21875, 0.0, 0.0
1103, 0.6593406593406593, -0.47863247863247865, -0.9865689865689866, -0.65625, -4.78125, 0.375, 0.0
1104, 2.3394383394383396, -1.2442002442002442, -1.525030525030525, -0.90625, -4.71875, 0.71875, 0.0
1105, 2.554334554334554, -0.6068376068376068, -1.4175824175824177, -1.0, -4.625, 0.46875, 0.0
1106, 1.7203907203907205, 0.01221001221001221, -1.2783882783882783, -0.78125, -4.40625, -0.0625, 0.0
1107, 1.0647130647130647, 0.015873015873015872, -1.2808302808302807, -0.65625, -4.21875, -0.375, 0.0
1108, 1.3858363858363858, -0.6556776556776557, -0.9169719169719169, -0.84375, -4.375, -0.40625, 0.0
1109, 0.07814407814407814, 0.8156288156288156, -0.5409035409035409, -0.6875, -4.125, -0.1875, 0.0
1110, -0.8559218559218559, 1.1465201465201464, -1.1257631257631258, -0.1875, -3.25, 0.125, 0.0
1111, -0.22954822954822954, 0.5421245421245421, -1.5726495726495726, 0.09375, -2.5625, 0.375, 0.0
1112, 0.31746031746031744, 0.3553113553113553, -2.380952380952381, 0.34375, -1.875, 0.5, 0.0
1113, 2.3614163614163615, -0.568986568986569, -2.8058608058608057, 0.3125, -1.71875, 0.34375, 0.0
1114, 2.0964590964590966, 0.28083028083028083, -2.7643467643467643, 0.03125, -1.84375, 0.28125, 0.0
1115, 1.1965811965811965, 0.757020757020757, -2.7496947496947497, 0.125, -1.34375, 0.25, 0.0
1116, 1.6800976800976801, 0.4456654456654457, -2.4346764346764345, 0.34375, -0.625, 0.34375, 0.0
1117, 2.8656898656898657, 0.07326007326007326, -2.1697191697191696, 0.3125, -0.21875, 0.34375, 0.0
1118, 3.6971916971916974, 0.026862026862026864, -1.5262515262515262, 0.0, -0.53125, 0.1875, 0.0
1119, 2.4053724053724053, 0.8717948717948718, -1.0207570207570207, -0.15625, -0.8125, 0.0, 0.0
1120, 1.1855921855921856, 1.3577533577533578, -0.884004884004884, 0.0, -0.5, 0.0, 0.0
1121, 0.18192918192918192, 1.3333333333333333, -0.8241758241758241, 0.3125, 0.15625, 0.125, 0.0
1122, 0.2148962148962149, 1.2332112332112333, -0.6813186813186813, 0.71875, 0.96875, 0.34375, 0.0
1123, 0.4603174603174603, 0.6263736263736264, -0.9474969474969475, 0.9375, 1.53125, 0.75, 0.0
1124, 2.641025641025641, -0.31868131868131866, -0.9975579975579976, 0.875, 1.75, 0.875, 0.0
1125, 3.0317460317460316, -0.0927960927960928, -0.8913308913308914, 0.6875, 1.09375, 0.1875, 1.0
1126, 0.6837606837606838, 0.9829059829059829, -0.6959706959706959, 0.96875, 1.71875, 0.25, 1.0
1127, -1.9255189255189256, 1.728937728937729, -0.9951159951159951, 1.75, 3.59375, 0.96875, 1.0
1128, -0.6361416361416361, 0.46886446886446886, -1.133089133089133, 2.40625, 5.5, 1.46875, 1.0
1129, 1.982905982905983, -1.0183150183150182, -1.0451770451770452, 2.59375, 6.40625, 1.25, 1.0
1130, 2.768009768009768, -1.3687423687423688, -0.9194139194139194, 2.6875, 6.875, 0.875, 1.0
1131, 2.2954822954822953, -1.5763125763125763, -0.9792429792429792, 2.71875, 7.53125, 0.78125, 1.0
1132, 1.7216117216117217, -0.8778998778998779, -0.5494505494505495, 3.03125, 8.375, 0.96875, 1.0
1133, 0.8376068376068376, -0.2258852258852259, 0.5103785103785103, 3.625, 9.4375, 1.1875, 1.0
1134, 2.045177045177045, 0.09645909645909646, 2.061050061050061, 4.53125, 10.09375, 1.15625, 1.0
1135, 3.311355311355311, -0.7142857142857143, 2.8205128205128207, 5.09375, 9.84375, 1.0, 1.0
1136, 4.045177045177045, -1.3833943833943834, 2.385836385836386, 5.3125, 9.125, 0.75, 1.0
1137, 3.2283272283272284, -2.3785103785103785, 2.0634920634920637, 5.5, 7.96875, 0.78125, 1.0
1138, 4.556776556776557, -3.294261294261294, 0.7130647130647131, 5.25, 6.84375, 0.71875, 1.0
1139, 5.0476190476190474, -4.9181929181929185, -0.16117216117216118, 4.625, 5.09375, 0.28125, 1.0
1140, 4.294261294261294, -4.145299145299146, -0.612942612942613, 3.8125, 3.21875, -0.3125, 1.0
1141, 2.5067155067155067, -3.2808302808302807, -1.4383394383394383, 3.3125, 1.625, -0.65625, 1.0
1142, 0.28815628815628813, -2.4432234432234434, -2.2295482295482296, 3.09375, 0.8125, -0.71875, 1.0
1143, -0.8852258852258852, -2.9511599511599513, -2.612942612942613, 3.0, 0.71875, -0.65625, 1.0
1144, -0.6507936507936508, -3.2124542124542126, -2.31013431013431, 2.75, 0.96875, -0.5625, 1.0
1145, 0.8217338217338217, -2.3015873015873014, -1.722832722832723, 2.625, 1.0, -0.65625, 1.0
1146, 0.3247863247863248, -2.1257631257631258, -1.6617826617826619, 2.59375, 0.5625, -0.8125, 1.0
1147, -0.2893772893772894, -2.393162393162393, -2.1306471306471306, 2.5, 0.15625, -0.75, 1.0
1148, -0.8205128205128205, -2.155067155067155, -2.31013431013431, 2.375, -0.125, -0.65625, 1.0
1149, -0.9645909645909646, -1.6691086691086692, -2.6398046398046398, 2.34375, -0.125, -0.625, 1.0
1150, -1.52014652014652, -2.3235653235653237, -2.8754578754578755, 2.15625, 0.0, -0.65625, 1.0
1151, -0.6691086691086691, -1.778998778998779, -2.7435897435897436, 2.0, -0.21875, -0.6875, 1.0
1152, -0.5714285714285714, -1.4224664224664225, -3.0842490842490844, 1.96875, -0.71875, -0.75, 1.0
1153, -1.7472527472527473, -1.2039072039072038, -4.211233211233211, 1.78125, -0.84375, -0.71875, 1.0
1154, -2.935286935286935, -1.0708180708180708, -5.113553113553113, 1.46875, -0.59375, -0.59375, 1.0
1155, -3.0036630036630036, -0.4261294261294261, -5.186813186813187, 1.21875, -0.28125, -0.3125, 1.0
1156, -2.2295482295482296, -0.3162393162393162, -4.94993894993895, 0.90625, -0.21875, -0.25, 1.0
1157, -2.4346764346764345, -0.2905982905982906, -4.826617826617826, 0.625, -0.3125, -0.21875, 1.0
1158, -2.514041514041514, 0.10744810744810745, -4.553113553113553, 0.375, -0.3125, -0.125, 1.0
1159, -2.4078144078144077, 0.3968253968253968, -4.47008547008547, 0.1875, -0.28125, -0.03125, 1.0
1160, -2.0463980463980462, 0.29426129426129427, -4.401709401709402, -0.09375, 0.0, 0.09375, 1.0
1161, -1.7484737484737485, -0.026862026862026864, -3.8461538461538463, -0.4375, 0.09375, 0.15625, 1.0
1162, -1.343101343101343, 0.07692307692307693, -2.984126984126984, -0.6875, 0.15625, 0.1875, 1.0
1163, -1.2551892551892552, -0.11965811965811966, -2.1953601953601956, -0.8125, 0.15625, 0.21875, 1.0
1164, -1.1697191697191698, -0.29914529914529914, -1.5286935286935286, -0.90625, 0.1875, 0.25, 1.0
1165, -0.6898656898656899, -0.2442002442002442, -1.0268620268620268, -1.03125, 0.21875, 0.375, 1.0
1166, -0.3247863247863248, -0.045177045177045176, -0.9096459096459096, -1.1875, 0.21875, 0.53125, 0.0
1167, 0.06471306471306472, 0.1746031746031746, -0.6813186813186813, -1.25, 0.09375, 0.625, 0.0
1168, 0.5238095238095238, 0.3064713064713065, -0.47863247863247865, -1.1875, -0.28125, 0.59375, 0.0
1169, -0.326007326007326, -0.17704517704517705, -1.3467643467643469, -1.15625, -0.96875, 0.59375, 0.0
1170, -0.08913308913308914, -0.9645909645909646, -2.31013431013431, -1.28125, -1.5625, 0.4375, 0.0
1171, 0.5372405372405372, -0.8327228327228328, -2.750915750915751, -1.65625, -2.1875, 0.0625, 0.0
1172, 0.06715506715506715, -0.3601953601953602, -2.5409035409035408, -2.53125, -3.53125, -0.4375, 0.0
1173, -1.1037851037851039, 0.9731379731379731, -1.7582417582417582, -2.96875, -4.28125, -0.46875, 0.0
1174, -3.462759462759463, 1.6178266178266179, -1.1758241758241759, -3.1875, -4.25, -0.0625, 0.0
1175, -1.6556776556776556, 2.786324786324786, -0.36752136752136755, -3.15625, -4.625, 0.21875, 0.0
1176, 0.4725274725274725, 3.0634920634920637, 0.5921855921855922, -3.40625, -6.0625, 0.0, 0.0
1177, -0.7741147741147741, 3.3785103785103785, 1.8998778998778998, -3.90625, -7.4375, -0.1875, 0.0
1178, -4.5958485958485955, 4.327228327228327, 2.5921855921855923, -4.0625, -6.875, 0.40625, 0.0
1179, -3.68986568986569, 4.644688644688645, 2.299145299145299, -3.65625, -5.40625, 1.0625, 0.0
1180, 0.4896214896214896, 4.174603174603175, 1.9755799755799757, -3.25, -5.0625, 1.03125, 0.0
1181, 2.4505494505494507, 4.106227106227106, 2.653235653235653, -2.78125, -5.71875, 0.40625, 0.0
1182, 0.4371184371184371, 2.888888888888889, 2.431013431013431, -2.28125, -5.90625, 0.09375, 0.0
1183, -1.5677655677655677, 2.184371184371184, 1.2954822954822955, -1.375, -4.21875, 0.71875, 0.0
1184, 2.231990231990232, 1.15995115995116, -0.6654456654456654, -1.1875, -3.875, 0.6875, 0.0
1185, 1.7997557997557998, 1.0708180708180708, -0.18192918192918192, -1.25, -4.4375, 0.28125, 0.0
1186, 0.37606837606837606, 0.503052503052503, -0.43956043956043955, -1.125, -4.78125, 0.125, 0.0
1187, 0.2673992673992674, -0.3052503052503053, -1.5225885225885225, -0.96875, -4.3125, 0.59375, 0.0
1188, 2.374847374847375, -1.2307692307692308, -2.137973137973138, -0.90625, -3.46875, 1.25, 0.0
1189, 3.8632478632478633, -0.833943833943834, -1.7008547008547008, -1.0, -3.1875, 1.1875, 0.0
1190, 3.2185592185592187, -0.06593406593406594, -1.2148962148962148, -0.9375, -3.3125, 0.5, 0.0
1191, 1.9316239316239316, -0.13064713064713065, -0.9242979242979243, -0.78125, -3.53125, -0.0625, 0.0
1192, 0.7582417582417582, -0.03296703296703297, -0.5225885225885226, -0.84375, -3.65625, -0.09375, 0.0
1193, 0.28815628815628813, 0.5824175824175825, -0.18803418803418803, -0.9375, -3.625, 0.0, 0.0
1194, 0.2857142857142857, 0.7167277167277167, -0.115995115995116, -0.75, -3.25, 0.1875, 0.0
1195, 0.8253968253968254, 0.1684981684981685, -0.23931623931623933, -0.4375, -2.78125, 0.3125, 0.0
1196, 0.020757020757020756, 0.5897435897435898, -0.38095238095238093, -0.09375, -2.21875, 0.40625, 0.0
1197, 0.5738705738705738, 0.3540903540903541, -0.8998778998778999, 0.1875, -1.71875, 0.625, 0.0
1198, 1.9267399267399268, -0.5409035409035409, -1.4810744810744811, 0.0625, -1.71875, 0.75, 0.0
1199, 1.916971916971917, -0.14896214896214896, -1.5006105006105006, 0.0, -1.65625, 0.65625, 0.0
1200, 1.5567765567765568, 0.06837606837606838, -1.5067155067155067, 0.1875, -1.28125, 0.625, 0.0
1201, 1.7387057387057387, -0.04151404151404151, -1.4932844932844933, 0.40625, -0.90625, 0.59375, 0.0
1202, 2.5396825396825395, -0.32844932844932845, -1.3174603174603174, 0.375, -0.90625, 0.5, 0.0
1203, 2.746031746031746, -0.7167277167277167, -1.1697191697191698, 0.21875, -0.96875, 0.375, 0.0
1204, 1.971916971916972, -0.27106227106227104, -1.188034188034188, 0.1875, -0.84375, 0.28125, 0.0
1205, 1.6080586080586081, 0.24053724053724054, -1.363858363858364, 0.3125, -0.46875, 0.3125, 0.0
1206, 2.1086691086691087, -0.3614163614163614, -1.9035409035409034, 0.375, -0.25, 0.125, 0.0
1207, 1.8632478632478633, 0.05982905982905983, -1.4835164835164836, 0.0625, -0.46875, -0.03125, 0.0
1208, 0.7863247863247863, 0.3308913308913309, -1.4896214896214897, 0.21875, -0.15625, -0.125, 0.0
1209, -0.10134310134310134, 0.4713064713064713, -1.4273504273504274, 0.4375, 0.5, -0.09375, 0.0
1210, -0.11843711843711843, 1.0036630036630036, -1.0512820512820513, 0.6875, 1.1875, 0.21875, 1.0
1211, 0.673992673992674, 0.42124542124542125, -0.568986568986569, 1.1875, 1.8125, 0.375, 1.0
1212, 0.4468864468864469, 0.28815628815628813, -0.5042735042735043, 1.3125, 2.34375, 0.625, 1.0
1213, -0.115995115995116, 0.9951159951159951, -0.3785103785103785, 1.53125, 2.96875, 0.8125, 1.0
1214, 0.21855921855921856, 0.2442002442002442, -0.8437118437118437, 2.125, 4.0, 1.15625, 1.0
1215, 0.8742368742368742, -0.7594627594627594, -1.3455433455433456, 2.6875, 5.1875, 1.34375, 1.0
1216, 1.7545787545787546, -1.9584859584859584, -1.2148962148962148, 3.1875, 6.6875, 1.125, 1.0
1217, 3.548229548229548, -2.4175824175824174, -0.6373626373626373, 3.46875, 7.96875, 0.4375, 1.0
1218, 3.9365079365079363, -2.0952380952380953, 0.11355311355311355, 3.6875, 8.59375, -0.40625, 1.0
1219, 4.083028083028083, -1.7545787545787546, 0.34676434676434675, 3.65625, 8.375, -0.6875, 1.0
1220, 4.4945054945054945, -1.5299145299145298, 0.557997557997558, 3.53125, 7.6875, -0.875, 1.0
1221, 3.9975579975579976, -0.49694749694749696, 0.4371184371184371, 3.46875, 6.71875, -1.0625, 1.0
1222, 2.029304029304029, 0.43956043956043955, 0.5714285714285714, 3.8125, 6.375, -1.09375, 1.0
1223, 0.9108669108669109, -0.06715506715506715, 0.3833943833943834, 4.25, 6.4375, -0.90625, 1.0
1224, 1.120879120879121, -0.24175824175824176, 0.20024420024420025, 4.71875, 6.3125, -0.71875, 1.0
1225, 0.4249084249084249, -1.2454212454212454, -0.4188034188034188, 4.9375, 6.25, -0.53125, 1.0
1226, 0.6996336996336996, -3.0268620268620268, -1.0964590964590966, 4.75, 6.15625, -0.3125, 1.0
1227, 1.2307692307692308, -3.816849816849817, -1.2576312576312576, 4.375, 5.78125, -0.15625, 1.0
1228, 2.456654456654457, -4.205128205128205, -0.8937728937728938, 3.96875, 4.71875, -0.15625, 1.0
1229, 4.124542124542124, -4.373626373626373, -0.8522588522588522, 3.5625, 2.71875, -0.375, 1.0
1230, -0.22954822954822954, -3.6227106227106227, -1.6971916971916972, 3.25, 0.3125, -0.6875, 1.0
1231, -1.818070818070818, -3.9804639804639805, -2.4542124542124544, 3.0625, 0.25, -0.59375, 1.0
1232, -0.6923076923076923, -3.184371184371184, -2.7924297924297923, 2.8125, 0.65625, -0.625, 1.0
1233, -0.09645909645909646, -3.1684981684981683, -2.8058608058608057, 2.59375, 0.75, -0.71875, 1.0
1234, 0.002442002442002442, -2.9023199023199022, -2.547008547008547, 2.28125, 0.53125, -0.65625, 1.0
1235, -0.12576312576312576, -2.128205128205128, -2.3846153846153846, 2.125, 0.21875, -0.5625, 1.0
1236, 0.35775335775335776, -1.6031746031746033, -3.236874236874237, 2.15625, 0.0, -0.65625, 1.0
1237, -0.5115995115995116, -1.6715506715506716, -4.167277167277168, 2.03125, -0.1875, -0.75, 1.0
1238, -1.0134310134310134, -1.0, -4.501831501831502, 1.75, -0.21875, -0.5625, 1.0
1239, -0.9975579975579976, -0.9572649572649573, -4.3760683760683765, 1.53125, -0.03125, -0.34375, 1.0
1240, -0.4835164835164835, -1.1147741147741148, -4.095238095238095, 1.40625, -0.03125, -0.34375, 1.0
1241, -0.7521367521367521, -0.8424908424908425, -4.043956043956044, 1.1875, -0.25, -0.34375, 1.0
1242, -1.2515262515262515, -0.6398046398046398, -4.467643467643468, 0.96875, -0.5, -0.34375, 1.0
1243, -1.7692307692307692, -0.5286935286935287, -4.926739926739927, 0.65625, -0.53125, -0.28125, 1.0
1244, -2.272283272283272, -0.12332112332112333, -4.871794871794871, 0.40625, -0.375, -0.125, 1.0
1245, -1.9511599511599511, -0.3785103785103785, -4.721611721611722, 0.125, -0.21875, 0.0, 1.0
1246, -1.8571428571428572, -0.5299145299145299, -4.38949938949939, -0.1875, -0.09375, 0.0, 1.0
1247, -1.7704517704517704, -0.31746031746031744, -3.6727716727716726, -0.40625, -0.03125, 0.0, 1.0
1248, -1.4126984126984128, -0.05372405372405373, -3.029304029304029, -0.5, 0.0, 0.0, 1.0
