timestamp, accX, accY, accZ, gyroX, gyroY, gyroZ, button
638, 0.36752136752136755, -0.1282051282051282, -0.4652014652014652, 0.15625, -0.03125, -0.375, 0.0
639, 0.29181929181929184, -0.10256410256410256, -0.6153846153846154, 0.15625, -0.09375, -0.4375, 0.0
640, 0.4896214896214896, -0.17704517704517705, -0.6874236874236874, 0.09375, -0.15625, -0.53125, 0.0
641, 0.231990231990232, -0.05128205128205128, -0.5384615384615384, 0.0625, -0.3125, -0.625, 0.0
1, -0.1855921855921856, 0.03663003663003663, -0.4810744810744811, 0.125, -0.3125, -0.625, 0.0
2, -0.16117216117216118, -0.08058608058608059, -0.4371184371184371, 0.1875, -0.125, -0.5625, 0.0
3, 0.10500610500610501, -0.38461538461538464, -0.4908424908424908, 0.15625, -0.03125, -0.5625, 0.0
4, 0.315018315018315, -0.4481074481074481, -0.38461538461538464, 0.0625, -0.03125, -0.625, 0.0
5, 0.08669108669108669, -0.14163614163614163, -0.11965811965811966, 0.0625, -0.0625, -0.625, 0.0
6, 0.12942612942612944, -0.2222222222222222, -0.15262515262515264, 0.03125, -0.15625, -0.625, 0.0
7, -0.003663003663003663, -0.14285714285714285, -0.14285714285714285, 0.0, -0.28125, -0.625, 0.0
8, -0.37484737484737485, -0.03418803418803419, -0.14774114774114774, 0.0, -0.1875, -0.5625, 0.0
9, -0.5274725274725275, -0.028083028083028084, -0.07326007326007326, 0.0, 0.0, -0.4375, 0.0
10, -0.03785103785103785, 0.002442002442002442, 0.03418803418803419, 0.0625, 0.09375, -0.375, 0.0
11, 0.14407814407814407, -0.06105006105006105, 0.04151404151404151, 0.0625, 0.03125, -0.375, 0.0
12, 0.34065934065934067, -0.20146520146520147, -0.08547008547008547, 0.0, -0.09375, -0.40625, 0.0
13, 0.20512820512820512, -0.17826617826617827, -0.3235653235653236, -0.03125, -0.15625, -0.4375, 0.0
14, -0.15506715506715507, 0.001221001221001221, -0.1855921855921856, -0.0625, -0.03125, -0.40625, 0.0
15, -0.16727716727716727, 0.23931623931623933, -0.052503052503052504, 0.0, 0.09375, -0.3125, 0.0
16, 0.11233211233211234, 0.04884004884004884, -0.03540903540903541, 0.0625, 0.09375, -0.28125, 0.0
17, 0.41147741147741146, -0.1794871794871795, -0.04151404151404151, 0.0, -0.03125, -0.34375, 0.0
18, 0.43345543345543347, 0.002442002442002442, 0.0231990231990232, -0.03125, -0.21875, -0.4375, 0.0
19, 0.2893772893772894, 0.16971916971916973, 0.199023199023199, 0.0, -0.3125, -0.5, 0.0
20, 0.231990231990232, 0.33943833943833945, 0.23687423687423687, 0.125, -0.3125, -0.5, 0.0
21, 0.17704517704517705, 0.19291819291819293, -0.10989010989010989, 0.28125, -0.28125, -0.5, 0.0
22, 0.3711843711843712, -0.030525030525030524, -0.5653235653235653, 0.28125, -0.3125, -0.5, 0.0
23, 0.4297924297924298, 0.018315018315018316, -0.7326007326007326, 0.3125, -0.40625, -0.53125, 0.0
24, 0.16605616605616605, 0.3601953601953602, -0.6727716727716728, 0.40625, -0.4375, -0.53125, 0.0
25, -0.1746031746031746, 0.7081807081807082, -0.6532356532356532, 0.5625, -0.4375, -0.40625, 0.0
26, -0.46642246642246643, 0.8913308913308914, -0.5164835164835165, 0.875, -0.375, -0.125, 0.0
27, -0.7228327228327228, 0.11965811965811966, -0.5238095238095238, 1.0, -0.1875, -0.03125, 0.0
28, -0.21978021978021978, -0.12087912087912088, -0.43101343101343104, 1.0625, 0.0, 0.09375, 0.0
29, 0.47863247863247865, -0.48595848595848595, -0.19413919413919414, 1.09375, 0.03125, 0.1875, 0.0
30, 0.5543345543345544, -0.6532356532356532, 0.07326007326007326, 1.0, -0.1875, 0.1875, 0.0
31, 0.3492063492063492, -0.5946275946275946, 0.39194139194139194, 0.84375, -0.4375, 0.15625, 0.0
32, -0.1514041514041514, -1.1025641025641026, 0.1807081807081807, 0.625, -0.53125, 0.0625, 0.0
33, -0.7057387057387058, -0.7997557997557998, 0.21978021978021978, 0.1875, -0.15625, -0.1875, 0.0
34, -0.6654456654456654, -0.304029304029304, 0.5702075702075702, -0.21875, 0.21875, -0.03125, 0.0
35, -0.10989010989010989, 0.030525030525030524, 1.0354090354090355, -0.34375, 0.3125, 0.0, 0.0
36, -0.001221001221001221, 0.08669108669108669, 1.0866910866910866, -0.21875, 0.0625, 0.0, 0.0
37, -0.23076923076923078, -0.06593406593406594, 0.6874236874236874, -0.1875, -0.125, 0.0, 0.0
38, -0.3882783882783883, -0.21123321123321123, 0.17826617826617827, -0.21875, -0.0625, 0.0, 0.0
39, -0.20634920634920634, -0.2503052503052503, -0.15018315018315018, -0.3125, 0.1875, -0.09375, 0.0
40, -0.07936507936507936, 0.16361416361416362, 0.06593406593406594, -0.4375, 0.4375, -0.09375, 0.0
41, 0.12698412698412698, 0.31135531135531136, 0.24664224664224665, -0.40625, 0.4375, 0.0, 0.0
42, 0.19413919413919414, 0.3882783882783883, 0.30158730158730157, -0.34375, 0.1875, 0.0, 0.0
43, -0.18192918192918192, 0.5860805860805861, 0.25396825396825395, -0.1875, 0.0, 0.0, 0.0
44, -0.39438339438339437, 0.463980463980464, 0.11965811965811966, 0.0, -0.03125, 0.0625, 0.0
45, -0.11965811965811966, 0.18315018315018314, -0.13797313797313798, 0.0625, -0.03125, 0.09375, 0.0
46, 0.16727716727716727, -0.02442002442002442, -0.3992673992673993, 0.0, -0.09375, 0.125, 0.0
47, 0.1221001221001221, 0.05982905982905983, -0.304029304029304, -0.09375, -0.09375, 0.125, 0.0
48, 0.13064713064713065, 0.08180708180708181, -0.22954822954822954, -0.09375, -0.03125, 0.125, 0.0
49, 0.14285714285714285, 0.08058608058608059, -0.2271062271062271, -0.03125, -0.03125, 0.125, 0.0
50, 0.04395604395604396, 0.042735042735042736, -0.29304029304029305, 0.0, 0.03125, 0.125, 0.0
51, 0.03907203907203907, 0.04151404151404151, -0.25274725274725274, -0.09375, 0.09375, 0.09375, 0.0
52, 0.02197802197802198, 0.12576312576312576, -0.10744810744810745, -0.125, 0.0625, 0.125, 0.0
53, 0.10134310134310134, 0.06837606837606838, -0.10744810744810745, -0.15625, 0.0, 0.125, 0.0
54, 0.09401709401709402, 0.06227106227106227, -0.15506715506715507, -0.125, -0.09375, 0.125, 0.0
55, -0.054945054945054944, 0.0927960927960928, -0.29914529914529914, -0.09375, -0.03125, 0.125, 0.0
56, 0.07692307692307693, -0.1343101343101343, -0.5286935286935287, -0.0625, 0.03125, 0.15625, 0.0
57, 0.23687423687423687, -0.3089133089133089, -0.6532356532356532, -0.1875, 0.125, 0.09375, 0.0
58, 0.20757020757020758, -0.12942612942612944, -0.5323565323565324, -0.25, 0.125, 0.09375, 0.0
59, 0.15018315018315018, 0.04395604395604396, -0.22954822954822954, -0.21875, 0.125, 0.09375, 0.0
60, 0.21978021978021978, -0.029304029304029304, -0.2686202686202686, -0.1875, 0.0625, 0.09375, 0.0
61, 0.31013431013431014, -0.06837606837606838, -1.192918192918193, -0.125, 0.0, -0.0625, 0.0
62, 0.4517704517704518, -0.0927960927960928, -1.1233211233211233, -0.15625, 0.09375, -0.0625, 0.0
63, 0.6678876678876678, -0.115995115995116, -1.2246642246642248, -0.0625, 0.0, -0.125, 0.0
64, 1.2234432234432235, -0.6324786324786325, -1.84004884004884, 0.0, -0.125, -0.1875, 0.0
65, 0.7924297924297924, -0.34676434676434675, -1.9120879120879122, 0.03125, -0.0625, -0.28125, 0.0
66, 0.5396825396825397, -0.28083028083028083, -1.7606837606837606, 0.03125, 0.0625, -0.34375, 0.0
67, 0.518925518925519, -0.3235653235653236, -1.6214896214896215, 0.0, 0.15625, -0.40625, 0.0
68, 0.45054945054945056, -0.21367521367521367, -1.3894993894993894, -0.09375, 0.125, -0.4375, 0.0
69, 0.047619047619047616, 0.07081807081807082, -1.0036630036630036, -0.09375, 0.09375, -0.46875, 0.0
70, -0.28205128205128205, 0.10378510378510379, -0.6691086691086691, -0.125, 0.125, -0.4375, 0.0
71, -0.3504273504273504, 0.13064713064713065, -0.18803418803418803, -0.1875, 0.15625, -0.375, 0.0
72, -0.09768009768009768, -0.006105006105006105, 0.004884004884004884, -0.21875, 0.0625, -0.34375, 0.0
73, 0.03418803418803419, -0.12942612942612944, 0.2039072039072039, -0.28125, -0.0625, -0.34375, 0.0
74, -0.15262515262515264, -0.020757020757020756, 0.37484737484737485, -0.3125, -0.09375, -0.375, 0.0
75, -0.28815628815628813, -0.03418803418803419, 0.42124542124542125, -0.375, 0.0, -0.40625, 0.0
76, -0.4004884004884005, 0.11355311355311355, 0.6227106227106227, -0.375, 0.09375, -0.40625, 0.0
77, -0.42002442002442003, 0.1562881562881563, 0.8034188034188035, -0.375, 0.1875, -0.34375, 0.0
78, -0.2576312576312576, 0.06715506715506715, 0.8888888888888888, -0.34375, 0.125, -0.28125, 0.0
79, 0.057387057387057384, -0.07203907203907203, 0.6764346764346765, -0.3125, -0.0625, -0.28125, 0.0
80, 0.12942612942612944, -0.06593406593406594, 0.398046398046398, -0.21875, -0.28125, -0.28125, 0.0
81, -0.1746031746031746, 0.030525030525030524, 0.25396825396825395, -0.09375, -0.28125, -0.3125, 0.0
82, -0.2588522588522589, 0.1343101343101343, 0.17704517704517705, 0.0, -0.125, -0.28125, 0.0
83, -0.015873015873015872, 0.042735042735042736, 0.10134310134310134, 0.09375, -0.0625, -0.28125, 0.0
84, 0.38095238095238093, -0.1575091575091575, -0.004884004884004884, 0.03125, -0.21875, -0.28125, 0.0
85, 0.2564102564102564, -0.03663003663003663, 0.013431013431013432, 0.0, -0.40625, -0.28125, 0.0
86, -0.08669108669108669, 0.12576312576312576, 0.1794871794871795, -0.0625, -0.4375, -0.25, 0.0
87, -0.29914529914529914, 0.21611721611721613, 0.409035409035409, -0.09375, -0.375, -0.15625, 0.0
88, 0.09035409035409035, 0.0, 0.5775335775335775, 0.0, -0.40625, -0.09375, 0.0
89, 0.17216117216117216, -0.1343101343101343, 0.5604395604395604, 0.03125, -0.5625, -0.09375, 0.0
90, -0.1575091575091575, -0.031746031746031744, 0.43101343101343104, -0.03125, -0.53125, -0.21875, 0.0
91, -0.47374847374847373, 0.2087912087912088, 0.5567765567765568, -0.1875, -0.28125, -0.21875, 0.0
92, -0.14774114774114774, -0.01221001221001221, 0.6935286935286935, -0.34375, -0.0625, -0.125, 0.0
93, -0.221001221001221, 0.11721611721611722, 0.9560439560439561, -0.4375, -0.0625, -0.125, 0.0
94, -0.2612942612942613, 0.06105006105006105, 1.061050061050061, -0.375, -0.1875, -0.0625, 0.0
95, -0.3540903540903541, -0.008547008547008548, 0.8852258852258852, -0.1875, -0.25, -0.0625, 0.0
96, -0.4456654456654457, -0.03540903540903541, 0.7155067155067155, -0.09375, -0.1875, 0.0, 0.0
97, -0.10256410256410256, -0.14652014652014653, 0.7301587301587301, -0.0625, 0.0, 0.0, 0.0
98, 0.31135531135531136, -0.2783882783882784, 0.8131868131868132, -0.125, -0.03125, 0.0625, 0.0
99, 0.3137973137973138, -0.3601953601953602, 0.6837606837606838, -0.15625, -0.25, 0.0625, 0.0
100, -0.2686202686202686, -0.028083028083028084, 0.6336996336996337, -0.125, -0.25, 0.0, 0.0
101, -0.44932844932844934, 0.07326007326007326, 0.7252747252747253, -0.0625, 0.03125, 0.0, 0.0
102, 0.30036630036630035, -0.315018315018315, 0.7692307692307693, 0.0, 0.1875, 0.03125, 0.0
103, 0.5409035409035409, -0.6092796092796092, 0.47985347985347987, 0.03125, 0.0, 0.0, 0.0
104, -0.13064713064713065, -0.20024420024420025, 0.3064713064713065, 0.03125, -0.15625, 0.0, 0.0
105, -0.5641025641025641, 0.03907203907203907, 0.32234432234432236, 0.03125, 0.0, 0.0, 0.0
106, -0.14896214896214896, -0.1746031746031746, 0.3968253968253968, 0.0, 0.25, 0.03125, 0.0
107, 0.004884004884004884, -0.06715506715506715, 0.6727716727716728, -0.0625, 0.21875, 0.0625, 0.0
108, -0.12332112332112333, 0.002442002442002442, 0.8156288156288156, -0.0625, 0.125, 0.09375, 0.0
109, 0.27350427350427353, -0.38095238095238093, 0.7142857142857143, -0.03125, 0.09375, 0.125, 0.0
110, 0.002442002442002442, -0.18192918192918192, 0.8437118437118437, -0.0625, 0.0, 0.09375, 0.0
111, -0.9426129426129426, 0.4603174603174603, 1.2246642246642248, -0.15625, 0.21875, 0.0, 0.0
112, -1.6080586080586081, 0.9096459096459096, 1.7496947496947497, -0.15625, 0.78125, 0.09375, 0.0
113, -1.1428571428571428, 0.48717948717948717, 2.0671550671550674, -0.125, 0.75, 0.25, 0.0
114, 0.054945054945054944, -0.38705738705738707, 1.8144078144078144, -0.125, 0.15625, 0.375, 0.0
115, -0.35775335775335776, -0.13675213675213677, 1.652014652014652, -0.03125, -0.25, 0.34375, 0.0
116, -1.9609279609279608, 0.5995115995115995, 1.9035409035409034, 0.09375, 0.09375, 0.4375, 0.0
117, -2.9279609279609278, 0.818070818070818, 2.3565323565323566, 0.0625, 0.84375, 0.96875, 0.0
118, -1.1367521367521367, -0.5518925518925519, 2.2637362637362637, -0.21875, 0.96875, 1.4375, 0.0
119, 0.8302808302808303, -1.8754578754578755, 1.4725274725274726, -0.59375, 0.25, 1.25, 0.0
120, -0.8144078144078144, -0.7374847374847375, 1.321123321123321, -0.8125, 0.0, 1.03125, 0.0
121, -2.6776556776556775, 0.12454212454212454, 1.5177045177045176, -0.9375, 0.40625, 1.34375, 0.0
122, -2.786324786324786, 0.09157509157509157, 1.8412698412698412, -0.9375, 0.84375, 1.4375, 0.0
123, -0.09645909645909646, -0.5531135531135531, 0.7912087912087912, -0.53125, 0.34375, 1.5625, 0.0
124, 0.8205128205128205, -0.8901098901098901, 0.02197802197802198, -0.125, -0.3125, 1.125, 0.0
125, -0.8876678876678876, -0.6886446886446886, -0.3431013431013431, -0.09375, -0.25, 0.90625, 0.0
126, -2.68986568986569, -0.7863247863247863, -0.45054945054945056, -0.65625, 0.5, 1.1875, 0.0
127, -1.0085470085470085, -0.6532356532356532, -0.4456654456654457, -0.90625, 0.71875, 1.3125, 0.0
128, 3.2075702075702077, -0.5262515262515263, -1.8339438339438339, -0.28125, -0.375, 1.0, 0.0
129, 1.7203907203907205, -0.717948717948718, -2.2747252747252746, 0.03125, -1.0, 0.375, 0.0
130, -1.3272283272283272, -0.6324786324786325, -2.4395604395604398, -0.34375, -0.40625, 0.40625, 0.0
131, -1.5543345543345544, 0.6349206349206349, -1.7765567765567765, -0.53125, 0.40625, 0.71875, 0.0
132, 0.7619047619047619, 0.14896214896214896, -1.702075702075702, -0.40625, 0.40625, 0.875, 0.0
133, 2.214896214896215, -0.23809523809523808, -1.514041514041514, -0.28125, -0.15625, 0.59375, 0.0
134, 1.6642246642246643, -0.9804639804639804, -1.9914529914529915, -0.40625, -0.4375, 0.375, 0.0
135, 0.4713064713064713, -0.6141636141636142, -1.4053724053724053, -0.5625, -0.0625, 0.375, 0.0
136, 0.43223443223443225, -0.05860805860805861, -0.003663003663003663, -0.4375, 0.03125, 0.25, 0.0
137, 0.02442002442002442, 0.43345543345543347, 0.7448107448107448, -0.125, -0.3125, 0.03125, 0.0
138, -0.5982905982905983, -0.27228327228327226, -0.5238095238095238, -0.03125, -0.5625, 0.0625, 0.0
139, -1.0048840048840049, -0.24053724053724054, -0.7667887667887668, -0.1875, -0.34375, 0.1875, 0.0
140, -0.4700854700854701, 0.11355311355311355, -0.19047619047619047, -0.25, -0.09375, 0.28125, 0.0
141, -0.3833943833943834, 0.17582417582417584, 0.35775335775335776, -0.125, -0.21875, 0.3125, 0.0
142, -0.43956043956043955, -0.1282051282051282, 0.2258852258852259, 0.0625, -0.40625, 0.375, 0.0
143, 0.673992673992674, -0.48717948717948717, -0.8424908424908425, 0.28125, -0.5, 0.4375, 0.0
144, 1.1978021978021978, -1.0390720390720392, -2.1257631257631258, 0.40625, -0.625, 0.46875, 0.0
145, 1.0402930402930404, -0.8449328449328449, -2.5518925518925517, 0.3125, -0.5, 0.375, 0.0
146, 0.8754578754578755, -0.3516483516483517, -2.36996336996337, 0.1875, -0.375, 0.34375, 0.0
147, 1.0598290598290598, -0.2026862026862027, -2.1233211233211233, 0.09375, -0.25, 0.25, 0.0
148, 0.9548229548229549, 0.017094017094017096, -1.8583638583638584, 0.0, -0.3125, 0.25, 0.0
149, 0.5518925518925519, 0.10622710622710622, -1.5433455433455434, 0.0, -0.3125, 0.28125, 0.0
150, 0.5335775335775336, 0.1562881562881563, -1.1086691086691087, 0.0, -0.1875, 0.3125, 0.0
151, 0.684981684981685, 0.10134310134310134, -0.7155067155067155, 0.0, -0.125, 0.28125, 0.0
152, 0.8376068376068376, 0.07448107448107448, -0.39316239316239315, 0.0625, -0.125, 0.15625, 0.0
153, 0.4444444444444444, 0.47863247863247865, -0.4163614163614164, 0.09375, -0.21875, 0.03125, 0.0
154, 0.06227106227106227, 0.5091575091575091, -0.6642246642246642, 0.15625, -0.25, 0.03125, 0.0
155, -0.2039072039072039, -0.03296703296703297, -1.0671550671550671, 0.15625, -0.15625, 0.09375, 0.0
156, -0.06471306471306472, 0.09645909645909646, -0.8363858363858364, 0.0, 0.0, 0.125, 0.0
157, 0.09523809523809523, 0.29181929181929184, -0.4700854700854701, -0.0625, 0.0625, 0.3125, 0.0
158, 0.31135531135531136, 0.05982905982905983, -0.358974358974359, -0.0625, 0.09375, 0.46875, 0.0
159, 0.5811965811965812, -0.1855921855921856, -0.29181929181929184, -0.03125, 0.0625, 0.46875, 0.0
160, 0.5738705738705738, -0.2673992673992674, -0.3089133089133089, 0.0, 0.0, 0.25, 0.0
161, 0.10500610500610501, -0.06593406593406594, -0.2576312576312576, 0.0, -0.03125, 0.1875, 0.0
162, -0.10866910866910867, -0.31013431013431014, -0.452991452991453, 0.0, 0.0625, 0.125, 0.0
163, 0.17826617826617827, -0.08180708180708181, -0.46153846153846156, -0.03125, 0.03125, 0.0625, 0.0
164, 0.07203907203907203, 0.02197802197802198, -0.5396825396825397, 0.0, 0.03125, 0.03125, 0.0
165, -0.11355311355311355, -0.24297924297924298, -0.6141636141636142, -0.03125, 0.09375, 0.09375, 0.0
166, 0.04395604395604396, -0.2905982905982906, -0.46764346764346765, -0.03125, 0.15625, 0.03125, 0.0
167, 0.4139194139194139, -0.09523809523809523, -0.3443223443223443, 0.0, 0.125, -0.09375, 0.0
168, 0.2796092796092796, -0.047619047619047616, -0.4993894993894994, 0.0625, 0.125, -0.25, 0.0
169, 0.2271062271062271, 0.06593406593406594, -0.5225885225885226, 0.09375, 0.0625, -0.25, 0.0
170, 0.11843711843711843, 0.10622710622710622, -0.8669108669108669, 0.125, 0.03125, -0.1875, 0.0
171, 0.0231990231990232, -0.20634920634920634, -1.0463980463980465, 0.09375, 0.1875, -0.15625, 0.0
172, 0.14285714285714285, -0.1807081807081807, -0.8644688644688645, 0.03125, 0.21875, -0.125, 0.0
173, 0.24297924297924298, 0.14652014652014653, -0.47985347985347987, 0.15625, 0.09375, -0.09375, 0.0
174, 0.38095238095238093, 0.6923076923076923, 0.10500610500610501, 0.5625, -0.0625, 0.0, 0.0
175, 0.08547008547008547, 0.09645909645909646, -0.32112332112332115, 0.9375, -0.125, -0.03125, 0.0
176, -0.6813186813186813, -1.9084249084249085, -1.702075702075702, 0.65625, 0.34375, -0.4375, 0.0
177, 0.21245421245421245, -1.5677655677655677, -1.8534798534798536, 0.0625, 0.59375, -0.65625, 0.0
178, 0.4554334554334554, -0.46642246642246643, -1.4664224664224663, -0.15625, 0.375, -0.5, 0.0
179, -0.08791208791208792, 0.04151404151404151, -1.1428571428571428, -0.03125, 0.25, -0.4375, 0.0
180, -0.2869352869352869, 0.4468864468864469, -0.6239316239316239, 0.1875, 0.125, -0.1875, 0.0
181, -0.4126984126984127, 0.47619047619047616, -0.37606837606837606, 0.65625, 0.0, 0.03125, 0.0
182, -0.07936507936507936, -0.5347985347985348, -0.8681318681318682, 0.875, 0.0, -0.03125, 0.0
183, 0.47374847374847373, -0.48595848595848595, -1.1257631257631258, 0.9375, -0.09375, -0.21875, 0.0
184, 0.42002442002442003, 0.18803418803418803, -0.702075702075702, 1.28125, -0.3125, -0.28125, 0.0
185, 0.3492063492063492, 0.36752136752136755, -0.3614163614163614, 2.125, -0.71875, -0.28125, 0.0
186, 0.5018315018315018, -2.808302808302808, -2.6446886446886446, 2.3125, -0.71875, -0.4375, 0.0
187, 0.01098901098901099, -3.087912087912088, -3.583638583638584, 1.71875, -0.3125, -0.78125, 0.0
188, -0.020757020757020756, -2.3882783882783882, -3.3089133089133087, 0.8125, 0.15625, -0.96875, 0.0
189, -0.16483516483516483, -1.6459096459096458, -2.294261294261294, 0.0, 0.125, -0.9375, 0.0
190, -0.7264957264957265, -0.8522588522588522, -1.170940170940171, -0.34375, -0.15625, -0.9375, 0.0
191, -0.9572649572649573, -0.42002442002442003, -0.43833943833943834, -0.3125, -0.40625, -0.8125, 0.0
192, -0.9035409035409036, -0.9511599511599511, -0.5616605616605617, -0.09375, -0.53125, -0.71875, 0.0
193, -1.177045177045177, -0.9523809523809523, -0.5811965811965812, -0.1875, -0.28125, -1.0625, 0.0
194, -1.1001221001221002, -0.8498168498168498, -0.5177045177045178, -0.4375, 0.0, -1.0625, 0.0
195, -0.5311355311355311, -0.8717948717948718, -0.14652014652014653, -0.625, 0.0625, -0.78125, 0.0
196, -0.6324786324786325, -0.4884004884004884, 0.525030525030525, -0.78125, 0.0, -0.75, 0.0
197, -0.645909645909646, -0.15506715506715507, 0.9169719169719169, -0.90625, -0.0625, -0.6875, 0.0
198, -0.3235653235653236, -0.05982905982905983, 0.9963369963369964, -0.75, -0.1875, -0.5625, 0.0
199, 0.18803418803418803, -0.38705738705738707, 0.8424908424908425, -0.375, -0.375, -0.4375, 0.0
200, -0.21978021978021978, 0.020757020757020756, 1.120879120879121, -0.125, -0.5625, -0.4375, 0.0
201, -0.46886446886446886, -0.003663003663003663, 1.1025641025641026, 0.0, -0.625, -0.46875, 0.0
202, -0.1807081807081807, -0.503052503052503, 0.6312576312576312, -0.09375, -0.5625, -0.40625, 0.0
203, 0.42246642246642246, -0.7826617826617827, 0.4017094017094017, -0.21875, -0.5, -0.375, 0.0
204, 0.4945054945054945, -0.5433455433455433, 0.6105006105006106, -0.28125, -0.59375, -0.46875, 0.0
205, -0.2026862026862027, 0.15873015873015872, 1.0122100122100122, -0.25, -0.625, -0.5625, 0.0
206, -0.5482295482295483, 0.38705738705738707, 1.122100122100122, -0.21875, -0.40625, -0.5625, 0.0
207, 0.1916971916971917, -0.18803418803418803, 1.181929181929182, -0.28125, -0.28125, -0.34375, 0.0
208, 0.6971916971916972, -0.5604395604395604, 1.0305250305250304, -0.53125, -0.625, -0.1875, 0.0
209, 0.4065934065934066, -0.25274725274725274, 1.0293040293040292, -0.59375, -0.96875, -0.28125, 0.0
210, -0.5079365079365079, 0.4065934065934066, 1.0952380952380953, -0.34375, -0.90625, -0.40625, 0.0
211, -0.884004884004884, 0.518925518925519, 0.8290598290598291, -0.125, -0.3125, -0.5, 0.0
212, -0.8021978021978022, 0.4810744810744811, 0.6837606837606838, -0.03125, 0.25, -0.5, 0.0
213, 0.028083028083028084, -0.2661782661782662, 0.27106227106227104, -0.34375, 0.28125, -0.375, 0.0
214, 0.6862026862026862, -0.5824175824175825, 0.37362637362637363, -0.9375, -0.1875, -0.28125, 0.0
215, 0.4371184371184371, -0.14774114774114774, 0.894993894993895, -1.28125, -0.625, -0.25, 0.0
216, -0.5921855921855922, 0.8315018315018315, 1.5738705738705738, -1.09375, -0.46875, -0.25, 0.0
217, -0.9230769230769231, 0.9084249084249084, 1.6727716727716728, -0.6875, 0.0, -0.21875, 0.0
218, -0.03540903540903541, 0.2515262515262515, 1.575091575091575, -0.40625, 0.09375, -0.25, 0.0
219, 0.3724053724053724, -0.23443223443223443, 1.065934065934066, -0.40625, -0.0625, -0.375, 0.0
220, -0.04151404151404151, -0.045177045177045176, 0.575091575091575, -0.625, -0.125, -0.40625, 0.0
221, -0.2515262515262515, 0.02197802197802198, 0.409035409035409, -0.6875, -0.03125, -0.25, 0.0
222, 0.3492063492063492, -0.42124542124542125, 0.5299145299145299, -0.59375, -0.0625, -0.1875, 0.0
223, 0.6434676434676435, -0.32234432234432236, 0.7264957264957265, -0.28125, -0.21875, -0.3125, 0.0
224, -0.0231990231990232, 0.16727716727716727, 0.7667887667887668, 0.09375, -0.09375, -0.40625, 0.0
225, -0.27594627594627597, -0.13553113553113552, 0.15018315018315018, 0.21875, 0.15625, -0.4375, 0.0
226, 0.15018315018315018, -0.4236874236874237, -0.41514041514041516, 0.0, 0.1875, -0.625, 0.0
227, -0.47741147741147744, -0.13064713064713065, -0.5604395604395604, -0.3125, 0.1875, -0.65625, 0.0
228, -0.6703296703296703, 0.0989010989010989, -0.3663003663003663, -0.5625, 0.25, -0.40625, 0.0
229, -0.031746031746031744, -0.36385836385836384, -0.21855921855921856, -0.75, 0.0, -0.25, 0.0
230, 0.04884004884004884, -0.17582417582417584, 0.12087912087912088, -0.71875, -0.34375, -0.1875, 0.0
231, -0.5787545787545788, 0.18803418803418803, 0.08669108669108669, -0.625, -0.28125, -0.15625, 0.0
232, -0.9438339438339438, 0.5567765567765568, 0.25518925518925517, -0.5, 0.0625, -0.15625, 0.0
233, -0.6336996336996337, 0.6642246642246642, 0.9474969474969475, -0.25, 0.25, -0.03125, 0.0
234, -0.18925518925518925, 0.6105006105006106, 1.404151404151404, -0.0625, -0.125, 0.0625, 0.0
235, 0.22954822954822954, -0.2967032967032967, 0.8192918192918193, -0.15625, -0.4375, 0.15625, 0.0
236, -0.24786324786324787, -0.057387057387057384, 0.41025641025641024, -0.3125, -0.46875, 0.125, 0.0
237, -0.1343101343101343, 0.07203907203907203, 0.6532356532356532, -0.25, -0.1875, 0.15625, 0.0
238, 0.01221001221001221, 0.008547008547008548, 0.7094017094017094, -0.03125, 0.0, 0.0625, 0.0
239, 0.5433455433455433, -0.5653235653235653, 0.3882783882783883, 0.0625, 0.15625, 0.03125, 0.0
240, 1.3333333333333333, -1.2503052503052503, -0.026862026862026864, -0.0625, 0.0, 0.09375, 0.0
241, 0.7521367521367521, -0.7802197802197802, -0.10500610500610501, -0.28125, -0.28125, 0.0625, 0.0
242, 0.03907203907203907, -0.13064713064713065, 0.10378510378510379, -0.25, -0.21875, 0.0, 0.0
243, -0.19658119658119658, 0.10256410256410256, 0.3614163614163614, -0.03125, 0.09375, -0.0625, 0.0
244, -0.18681318681318682, 0.19291819291819293, 0.663003663003663, 0.1875, 0.40625, -0.125, 0.0
245, 0.702075702075702, -0.4981684981684982, 0.5811965811965812, 0.46875, 0.3125, -0.09375, 0.0
246, 0.9474969474969475, -1.7191697191697193, -0.7387057387057387, 0.4375, -0.125, -0.3125, 0.0
247, -1.249084249084249, -0.5714285714285714, -1.5091575091575091, -0.0625, 0.03125, -0.5625, 1.0
248, -0.7557997557997558, 0.3956043956043956, -0.1794871794871795, -0.3125, 0.875, -0.21875, 1.0
249, 0.7277167277167277, -0.28327228327228327, 0.8376068376068376, -0.125, 0.6875, 0.0, 1.0
250, -0.16483516483516483, 0.06715506715506715, 0.6422466422466423, -0.15625, -0.125, 0.21875, 1.0
251, -1.0451770451770452, 0.514041514041514, 0.9023199023199023, -0.28125, -0.28125, 0.3125, 1.0
252, -0.590964590964591, 0.43833943833943834, 1.575091575091575, -0.34375, 0.03125, 0.34375, 1.0
253, 0.33455433455433453, 0.3626373626373626, 3.1636141636141635, -0.1875, 0.21875, 0.28125, 1.0
254, 0.019536019536019536, 0.16483516483516483, 3.31990231990232, 0.1875, 0.125, 0.1875, 1.0
255, 0.3308913308913309, -0.6031746031746031, 2.833943833943834, 0.34375, 0.0, 0.28125, 1.0
256, -0.2600732600732601, -0.3797313797313797, 2.757020757020757, 0.03125, -0.15625, 0.375, 1.0
257, -0.6178266178266179, -0.03907203907203907, 3.586080586080586, 0.0, 0.0, 0.3125, 1.0
258, -0.5396825396825397, 0.21367521367521367, 4.249084249084249, 0.40625, 0.6875, 0.1875, 1.0
259, 0.7228327228327228, -0.12942612942612944, 4.605616605616605, 0.71875, 0.40625, 0.28125, 1.0
260, 0.3785103785103785, -0.7521367521367521, 3.083028083028083, 0.28125, 0.28125, 0.4375, 1.0
261, -0.26373626373626374, -1.4383394383394383, 1.8656898656898657, -1.125, 0.5625, 0.53125, 1.0
262, -0.3626373626373626, 0.9462759462759462, 4.8559218559218555, -1.25, 0.53125, 0.5625, 1.0
263, -1.6446886446886446, 1.6373626373626373, 5.698412698412699, -0.21875, 0.21875, 0.625, 1.0
264, -3.299145299145299, -0.8376068376068376, 3.1868131868131866, -0.78125, 0.9375, 0.875, 1.0
265, -3.0537240537240535, -2.26007326007326, 2.6324786324786325, -2.25, 1.28125, 1.25, 1.0
266, -1.032967032967033, -1.435897435897436, 4.395604395604396, -2.65625, 0.4375, 1.15625, 1.0
267, -0.07081807081807082, 2.191697191697192, 5.6752136752136755, -0.59375, -0.78125, 1.03125, 1.0
268, -3.5494505494505493, -0.7118437118437119, 2.2844932844932844, 0.40625, 0.0, 1.3125, 1.0
269, -0.6336996336996337, -5.102564102564102, -1.5006105006105006, -0.96875, 0.53125, 1.34375, 1.0
270, 2.844932844932845, -1.2063492063492063, 1.5396825396825398, -1.03125, -0.71875, 0.375, 1.0
271, -1.4285714285714286, 0.5177045177045178, 2.0781440781440783, 0.5625, -1.28125, 0.3125, 1.0
272, -2.89010989010989, -3.3382173382173383, -2.970695970695971, 0.6875, -0.25, 1.0625, 1.0
273, 2.468864468864469, -4.1611721611721615, -5.255189255189255, -0.25, -0.71875, 0.59375, 1.0
274, 0.5592185592185592, -1.3907203907203907, -4.153846153846154, -0.25, -0.71875, -0.03125, 1.0
275, -0.4346764346764347, 0.3089133089133089, -2.5921855921855923, 0.59375, -0.1875, 0.46875, 1.0
276, 1.713064713064713, -2.3833943833943834, -3.275946275946276, 0.625, -0.40625, 0.46875, 1.0
277, 1.9792429792429793, -2.6263736263736264, -4.5958485958485955, 0.15625, -0.75, -0.1875, 1.0
278, -0.10256410256410256, -0.8107448107448108, -4.7936507936507935, 0.28125, -0.625, -0.125, 1.0
279, 0.39316239316239315, 0.3968253968253968, -4.753357753357753, 0.84375, -0.53125, 0.34375, 1.0
280, 1.7802197802197801, -2.4932844932844933, -7.608058608058608, 0.46875, -0.46875, 0.28125, 1.0
281, 2.750915750915751, -0.746031746031746, -7.763125763125763, -0.03125, -0.5625, 0.0, 1.0
282, 0.8363858363858364, 1.4639804639804639, -6.73992673992674, 0.15625, -0.15625, -0.0625, 1.0
283, -0.05372405372405373, 0.778998778998779, -3.227106227106227, -0.09375, 0.1875, -0.09375, 1.0
284, -0.645909645909646, 0.7802197802197802, -2.2735042735042734, -0.21875, 0.15625, -0.28125, 1.0
285, -0.2967032967032967, 1.5384615384615385, -0.32234432234432236, -0.34375, 0.125, -0.28125, 1.0
286, -0.5982905982905983, 0.5018315018315018, -0.20146520146520147, -0.125, 0.0, -0.28125, 1.0
287, -0.6483516483516484, 0.3431013431013431, -0.818070818070818, -0.1875, -0.03125, -0.125, 1.0
288, -0.11965811965811966, 1.1941391941391941, -0.41025641025641024, -0.34375, 0.03125, 0.0, 1.0
289, 0.6361416361416361, 0.04884004884004884, -0.16117216117216118, -0.09375, 0.0, 0.15625, 1.0
290, 0.8205128205128205, -0.833943833943834, -0.3052503052503053, 0.125, -0.1875, 0.03125, 1.0
291, -0.3785103785103785, -1.9426129426129426, -1.1843711843711844, -0.03125, -0.03125, -0.1875, 1.0
292, -0.590964590964591, -0.7631257631257631, -0.2612942612942613, -0.125, 0.15625, -0.15625, 1.0
293, 0.3235653235653236, -0.8571428571428571, 0.03907203907203907, -0.03125, 0.21875, -0.03125, 1.0
294, 0.44932844932844934, -0.48717948717948717, 0.4188034188034188, 0.125, 0.0, -0.0625, 1.0
295, -0.41514041514041516, -1.818070818070818, -0.989010989010989, 0.3125, -0.125, -0.0625, 1.0
296, -0.45787545787545786, -1.9365079365079365, -2.05006105006105, -0.0625, 0.21875, -0.0625, 1.0
297, 0.1684981684981685, -0.07081807081807082, -1.4993894993894994, -0.40625, 0.8125, -0.15625, 1.0
298, 1.6752136752136753, -0.8888888888888888, -2.462759462759463, -0.3125, 0.75, -0.34375, 1.0
299, -0.5347985347985348, 1.877899877899878, -1.7545787545787546, -0.34375, 0.375, -0.03125, 0.0
300, -0.23076923076923078, 2.84981684981685, -0.8974358974358975, 0.53125, 0.3125, 0.6875, 0.0
301, -0.054945054945054944, 0.9084249084249084, -1.9206349206349207, 1.34375, -0.09375, 1.375, 0.0
302, 0.07326007326007326, -0.15506715506715507, -3.1404151404151404, 1.8125, -0.28125, 1.4375, 0.0
303, -1.586080586080586, -3.8693528693528694, -6.37973137973138, 1.5625, 0.3125, 0.65625, 0.0
304, 1.5421245421245422, -2.9536019536019538, -6.09035409035409, 0.53125, 1.28125, -0.46875, 0.0
305, -1.4700854700854702, 0.4346764346764347, -4.8791208791208796, -0.34375, 0.59375, -0.15625, 0.0
306, -1.8876678876678876, 1.0964590964590966, -3.496947496947497, 0.0, 0.5625, 0.40625, 0.0
307, 0.6825396825396826, 0.3431013431013431, -2.8461538461538463, 1.34375, 0.15625, 1.0625, 0.0
308, 1.9633699633699633, -2.3516483516483517, -3.3211233211233213, 1.78125, -0.4375, 0.5, 0.0
309, 0.6507936507936508, -4.333333333333333, -4.034188034188034, 1.25, -0.125, -0.9375, 0.0
310, -0.568986568986569, -3.282051282051282, -3.343101343101343, 0.46875, 0.1875, -1.5, 0.0
311, -2.374847374847375, -1.0854700854700854, -1.564102564102564, 0.25, 0.34375, -0.59375, 0.0
312, -1.3284493284493284, -0.18437118437118438, -0.4810744810744811, 0.875, 0.46875, -0.125, 0.0
313, 0.6092796092796092, -1.3455433455433456, 0.1391941391941392, 1.28125, 0.0, -0.1875, 0.0
314, 0.19658119658119658, -1.8974358974358974, 0.4053724053724054, 0.875, -0.375, -0.53125, 0.0
315, -0.8534798534798534, -1.4090354090354091, 0.4835164835164835, 0.25, -0.28125, -0.9375, 0.0
316, -0.5238095238095238, -1.0085470085470085, 1.3772893772893773, 0.0, -0.3125, -0.9375, 0.0
317, 0.4945054945054945, -1.5164835164835164, 1.989010989010989, 0.0625, -0.71875, -0.8125, 0.0
318, -0.42246642246642246, -0.7521367521367521, 2.0488400488400487, 0.3125, -0.78125, -0.6875, 0.0
319, -1.308913308913309, 0.13797313797313798, 2.4053724053724053, 0.53125, -0.1875, -0.71875, 0.0
320, -1.376068376068376, -0.031746031746031744, 2.1196581196581197, 0.34375, 0.625, -1.15625, 0.0
321, -1.3113553113553114, -1.5885225885225884, 0.518925518925519, -0.34375, 1.0, -1.125, 0.0
322, 1.021978021978022, -2.3028083028083026, 0.7435897435897436, -1.21875, 0.125, -0.5, 0.0
323, 2.045177045177045, -0.7741147741147741, 2.313797313797314, -1.6875, -0.78125, -0.46875, 0.0
324, 1.0207570207570207, 0.1916971916971917, 2.6166056166056166, -1.71875, -0.9375, -0.34375, 0.0
325, 1.1758241758241759, -0.18681318681318682, 2.293040293040293, -1.65625, -0.90625, -0.125, 0.0
326, 2.010989010989011, -0.6886446886446886, 3.015873015873016, -1.4375, -1.09375, -0.21875, 0.0
327, 1.8021978021978022, -0.3711843711843712, 3.5115995115995116, -1.0625, -1.09375, -0.4375, 0.0
328, 0.231990231990232, 0.44932844932844934, 2.851037851037851, -0.78125, -0.71875, -0.4375, 0.0
329, -0.7704517704517705, 1.1684981684981686, 2.382173382173382, -0.625, -0.375, -0.375, 0.0
330, -0.6190476190476191, 0.46764346764346765, 2.017094017094017, -0.625, -0.5, -0.4375, 0.0
331, -1.242979242979243, -0.17094017094017094, 1.0390720390720392, -0.90625, -0.5, -0.28125, 0.0
332, -0.36385836385836384, -0.3528693528693529, 1.7985347985347986, -0.75, -0.21875, -0.28125, 0.0
333, -0.7667887667887668, 0.4188034188034188, 1.735042735042735, -0.4375, -0.0625, -0.375, 0.0
334, -1.3516483516483517, 0.9731379731379731, 1.7728937728937728, -0.28125, 0.15625, -0.4375, 0.0
335, -0.8644688644688645, 0.7057387057387058, 2.0476190476190474, -0.46875, 0.09375, -0.1875, 0.0
336, -0.14163614163614163, 0.007326007326007326, 2.111111111111111, -0.75, -0.5, 0.125, 0.0
337, -0.2954822954822955, 0.1343101343101343, 2.10989010989011, -0.9375, -1.0, 0.34375, 0.0
338, -0.3492063492063492, 0.5970695970695971, 2.518925518925519, -0.75, -0.84375, 0.375, 0.0
339, -0.018315018315018316, 0.3076923076923077, 2.6312576312576312, -0.28125, -0.34375, 0.15625, 0.0
340, 1.2405372405372406, -1.3064713064713065, 1.7216117216117217, -0.0625, -0.09375, 0.125, 0.0
341, 1.9328449328449329, -2.1746031746031744, 1.083028083028083, -0.15625, -0.4375, 0.15625, 0.0
342, 1.507936507936508, -1.678876678876679, 0.7765567765567766, -0.15625, -0.8125, 0.1875, 0.0
343, 0.050061050061050064, -1.0097680097680097, -0.09157509157509157, -0.0625, -0.625, 0.0, 0.0
344, -0.8815628815628815, -0.4053724053724054, -0.3772893772893773, 0.0625, 0.09375, -0.1875, 0.0
345, -0.06349206349206349, -0.6813186813186813, -0.115995115995116, 0.21875, 0.59375, -0.1875, 0.0
346, 0.6495726495726496, -0.6923076923076923, 0.33821733821733824, 0.0, 0.40625, -0.0625, 0.0
347, 1.0317460317460319, -0.5604395604395604, 0.8315018315018315, -0.28125, 0.0, 0.09375, 0.0
348, 0.3247863247863248, -0.27350427350427353, 0.6752136752136753, -0.40625, -0.28125, 0.09375, 0.0
349, -0.409035409035409, -0.16117216117216118, 0.32844932844932845, -0.375, -0.03125, -0.03125, 0.0
350, -0.16971916971916973, -0.5555555555555556, 0.14407814407814407, -0.25, 0.375, -0.09375, 0.0
351, 0.673992673992674, -1.061050061050061, -0.19536019536019536, -0.09375, 0.40625, -0.09375, 0.0
352, 0.4432234432234432, -1.1391941391941391, -0.9597069597069597, -0.21875, 0.15625, -0.28125, 0.0
353, -0.9914529914529915, -0.3553113553113553, -1.1172161172161172, -0.5, 0.375, -0.59375, 1.0
354, -0.4542124542124542, 0.17338217338217338, 0.5970695970695971, -0.53125, 1.09375, -0.5625, 1.0
355, 0.9877899877899878, 0.1343101343101343, 2.3235653235653237, -0.4375, 1.09375, -0.28125, 1.0
356, 1.0537240537240538, -0.21611721611721613, 2.8363858363858365, -0.71875, -0.03125, 0.0625, 1.0
357, -0.16483516483516483, 0.21245421245421245, 3.4236874236874235, -0.78125, -0.21875, 0.03125, 1.0
358, -1.4346764346764347, 0.43956043956043955, 3.7826617826617825, -0.6875, 0.375, -0.0625, 1.0
359, -0.9658119658119658, 0.525030525030525, 4.9181929181929185, -0.4375, 0.84375, -0.125, 1.0
360, -0.4126984126984127, 1.0048840048840049, 6.604395604395604, 0.1875, 0.65625, 0.0, 1.0
361, -0.3601953601953602, -0.4175824175824176, 6.034188034188034, 0.28125, 0.4375, 0.28125, 1.0
362, -0.5518925518925519, -1.4188034188034189, 4.9523809523809526, -0.3125, 0.71875, 0.3125, 1.0
363, -1.0537240537240538, -0.7973137973137974, 5.3699633699633695, -0.4375, 1.1875, 0.3125, 1.0
364, -0.7741147741147741, 0.5787545787545788, 7.188034188034188, 0.34375, 1.28125, 0.4375, 1.0
365, -0.8144078144078144, 0.5042735042735043, 7.910866910866911, 1.34375, 0.875, 0.71875, 1.0
366, -1.3736263736263736, -0.8693528693528694, 5.700854700854701, 1.3125, 0.53125, 0.96875, 1.0
367, -2.658119658119658, -2.2625152625152625, 3.061050061050061, 0.34375, 0.65625, 1.0, 1.0
368, -2.6105006105006106, -2.177045177045177, 2.584859584859585, -0.4375, 0.875, 1.1875, 1.0
369, -1.0354090354090355, -2.509157509157509, 3.0720390720390722, -0.84375, 0.53125, 1.28125, 1.0
370, 0.894993894993895, -2.942612942612943, 1.0256410256410255, -1.0, -0.3125, 1.40625, 1.0
371, 0.8644688644688645, -2.628815628815629, -1.1477411477411477, -0.59375, -0.40625, 1.28125, 1.0
372, 0.8205128205128205, -2.5128205128205128, -2.636141636141636, -0.15625, 0.125, 1.0, 1.0
373, 2.6996336996337, -0.833943833943834, -1.5152625152625152, 0.5625, -0.5625, 0.8125, 1.0
374, 0.5628815628815629, -1.122100122100122, -1.877899877899878, 1.09375, -1.09375, 0.71875, 1.0
375, -1.249084249084249, -2.9023199023199022, -5.559218559218559, 0.75, -0.46875, 0.84375, 1.0
376, 0.7277167277167277, -2.7704517704517704, -6.454212454212454, 0.21875, -0.0625, 0.4375, 1.0
377, 1.2722832722832722, -0.811965811965812, -4.08058608058608, 0.1875, -0.46875, 0.0625, 1.0
378, -1.4004884004884004, -1.2185592185592184, -2.954822954822955, 0.4375, -0.21875, 0.40625, 1.0
379, 0.007326007326007326, -3.4481074481074483, -4.273504273504273, 0.03125, -0.0625, 0.65625, 1.0
380, 0.9963369963369964, -2.537240537240537, -5.312576312576312, 0.03125, -0.34375, -0.03125, 1.0
381, -0.12942612942612944, -1.221001221001221, -5.653235653235654, 0.28125, -0.25, 0.3125, 1.0
382, 1.164835164835165, -0.41025641025641024, -5.526251526251526, 0.25, -0.03125, 0.5, 1.0
383, 1.205128205128205, -0.11233211233211234, -5.888888888888889, 0.21875, -0.15625, 0.53125, 1.0
384, 1.800976800976801, -0.7533577533577533, -5.805860805860806, 0.1875, -0.03125, 0.28125, 1.0
385, 1.1953601953601953, -0.21855921855921856, -4.588522588522588, -0.0625, -0.03125, -0.375, 1.0
386, -1.8217338217338217, 1.2442002442002442, -3.277167277167277, -0.5, -0.03125, -0.78125, 1.0
387, -2.4932844932844933, 1.9426129426129426, -1.435897435897436, -0.46875, 0.15625, -0.40625, 1.0
388, -1.0012210012210012, 0.9401709401709402, -0.27228327228327226, -0.34375, 0.0625, 0.0, 1.0
389, -0.8327228327228328, 0.6153846153846154, -0.08791208791208792, -0.125, -0.1875, -0.0625, 1.0
390, -1.3553113553113554, -0.47619047619047616, -1.3418803418803418, -0.09375, -0.09375, -0.125, 1.0
391, 0.05616605616605617, -0.25396825396825395, -0.9597069597069597, -0.40625, 0.125, 0.03125, 1.0
392, 0.37362637362637363, -0.10012210012210013, 0.17338217338217338, -0.3125, -0.03125, 0.03125, 1.0
393, 0.06593406593406594, 0.018315018315018316, 0.5433455433455433, -0.03125, -0.21875, 0.1875, 1.0
394, -0.004884004884004884, -1.8424908424908424, -0.800976800976801, 0.125, -0.15625, 0.21875, 1.0
395, 0.7045177045177046, -1.4945054945054945, -0.8791208791208791, -0.09375, 0.0625, 0.03125, 1.0
396, 0.7435897435897436, -1.8217338217338217, -1.73992673992674, -0.375, 0.15625, -0.125, 1.0
397, 0.42124542124542125, -0.3968253968253968, -2.4615384615384617, -0.65625, 0.15625, -0.125, 0.0
398, 0.6678876678876678, 1.1062271062271063, -2.4126984126984126, -0.34375, 0.21875, 0.03125, 0.0
399, 0.63003663003663, 1.927960927960928, -1.9230769230769231, 0.53125, 0.21875, 0.28125, 0.0
400, -0.39438339438339437, 0.8278388278388278, -2.457875457875458, 1.25, 0.0, 0.65625, 0.0
401, -1.5604395604395604, -2.451770451770452, -5.461538461538462, 1.34375, -0.03125, 0.8125, 0.0
402, -1.2234432234432235, -2.2796092796092795, -6.0476190476190474, 0.5, 0.9375, 0.21875, 0.0
403, 0.30036630036630035, -0.3894993894993895, -4.650793650793651, 0.25, 1.5625, -0.125, 0.0
404, 1.0293040293040292, -1.1843711843711844, -4.710622710622711, 0.46875, 1.09375, -0.03125, 0.0
405, -0.4468864468864469, -0.8717948717948718, -4.572649572649572, 0.21875, -0.09375, 0.5, 0.0
406, -1.5299145299145298, -0.8070818070818071, -4.863247863247863, 0.125, -0.09375, 0.71875, 0.0
407, -1.1562881562881564, -0.5433455433455433, -4.746031746031746, 0.53125, 0.125, 0.90625, 0.0
408, 0.16605616605616605, -2.0683760683760686, -4.2625152625152625, 0.9375, 0.34375, 0.59375, 0.0
409, 0.8632478632478633, -3.294261294261294, -3.2124542124542126, 0.78125, 0.5, -0.46875, 0.0
410, 0.7936507936507936, -2.393162393162393, -1.3968253968253967, 0.53125, 0.34375, -1.21875, 0.0
411, -0.07448107448107448, -2.4884004884004884, -0.702075702075702, 0.3125, 0.0, -1.0, 0.0
412, -0.8302808302808303, -2.0793650793650795, -0.017094017094017096, 0.0625, -0.09375, -0.40625, 0.0
413, -0.7667887667887668, -1.0207570207570207, 1.4151404151404152, 0.0625, 0.03125, -0.4375, 0.0
414, -0.6495726495726496, -0.18192918192918192, 2.960927960927961, 0.21875, 0.03125, -0.6875, 0.0
415, -0.3797313797313797, -0.37362637362637363, 2.9157509157509156, 0.46875, -0.28125, -0.75, 0.0
416, -0.442002442002442, -1.0695970695970696, 2.120879120879121, 0.25, -0.65625, -0.46875, 0.0
417, -0.08302808302808302, -0.6910866910866911, 2.1941391941391943, -0.3125, -0.78125, -0.5, 0.0
418, -0.4236874236874237, -0.031746031746031744, 2.525030525030525, -0.78125, -0.625, -0.6875, 0.0
419, 0.2893772893772894, 0.34065934065934067, 3.086691086691087, -0.59375, -0.59375, -0.4375, 0.0
420, 1.1404151404151404, 0.1807081807081807, 3.15995115995116, -0.375, -0.96875, -0.28125, 0.0
421, 1.205128205128205, 0.2698412698412698, 2.6617826617826617, -0.09375, -1.5, -0.34375, 0.0
422, 0.663003663003663, -0.6153846153846154, 0.4713064713064713, -0.09375, -1.8125, -0.8125, 0.0
423, -2.8705738705738706, 0.3064713064713065, -0.7448107448107448, -0.40625, -0.75, -0.9375, 0.0
424, -2.6117216117216118, 0.3089133089133089, -0.4481074481074481, -0.84375, 0.53125, -0.3125, 0.0
425, 0.8327228327228328, -1.4175824175824177, 0.9487179487179487, -1.34375, 0.46875, -0.09375, 0.0
426, 2.0891330891330893, -1.0805860805860805, 2.7887667887667886, -1.46875, -0.4375, -0.1875, 0.0
427, 0.10378510378510379, 0.652014652014652, 3.31990231990232, -1.0, -0.625, -0.125, 0.0
428, -1.304029304029304, 1.4700854700854702, 3.103785103785104, -0.40625, -0.09375, -0.0625, 0.0
429, -0.9230769230769231, 0.9841269841269841, 2.7985347985347984, -0.3125, 0.21875, -0.03125, 0.0
430, 0.018315018315018316, 0.018315018315018316, 1.855921855921856, -0.6875, -0.09375, 0.09375, 0.0
431, 0.8962148962148963, -0.47985347985347987, 1.6031746031746033, -1.40625, -0.53125, 0.28125, 0.0
432, 1.7008547008547008, 0.03296703296703297, 3.271062271062271, -1.90625, -0.78125, 0.34375, 0.0
433, 1.3235653235653235, 0.978021978021978, 4.865689865689865, -1.75, -0.78125, 0.21875, 0.0
434, 0.18925518925518925, 1.1452991452991452, 4.863247863247863, -0.84375, -0.5, -0.09375, 0.0
435, -0.4713064713064713, 0.031746031746031744, 2.7301587301587302, 0.03125, 0.0, -0.59375, 0.0
436, -1.6654456654456655, -0.3076923076923077, 0.49206349206349204, 0.25, 0.5, -0.90625, 0.0
437, -1.4554334554334554, -0.8363858363858364, -0.7277167277167277, 0.125, 0.59375, -0.625, 0.0
438, -0.6642246642246642, -0.6691086691086691, -0.19536019536019536, -0.34375, 0.09375, -0.1875, 0.0
439, -0.9157509157509157, 0.06715506715506715, 0.7130647130647131, -0.78125, -0.25, -0.03125, 0.0
440, -1.5567765567765568, 0.5299145299145299, 1.2551892551892552, -0.75, -0.15625, 0.0, 0.0
441, -0.42246642246642246, -0.02442002442002442, 1.7826617826617828, -0.34375, 0.125, 0.03125, 0.0
442, 0.5970695970695971, -0.2515262515262515, 1.9267399267399268, -0.09375, 0.09375, 0.0, 0.0
443, -0.26495726495726496, 0.20634920634920634, 1.326007326007326, -0.0625, 0.09375, -0.15625, 0.0
444, -0.8046398046398047, 0.304029304029304, 1.037851037851038, -0.03125, 0.4375, -0.25, 0.0
445, -0.41025641025641024, -0.21001221001221002, 0.8876678876678876, -0.09375, 0.65625, -0.28125, 0.0
446, -0.04151404151404151, -0.4993894993894994, 0.7863247863247863, -0.09375, 0.4375, -0.1875, 0.0
447, -0.07081807081807082, -0.5091575091575091, 0.2698412698412698, 0.09375, 0.0625, -0.03125, 0.0
448, -1.0390720390720392, -0.7374847374847375, -0.8424908424908425, 0.125, 0.03125, -0.09375, 1.0
449, -1.647130647130647, -0.30158730158730157, -1.0537240537240538, -0.125, 0.78125, -0.1875, 1.0
450, -0.5824175824175825, 0.06227106227106227, 0.4175824175824176, -0.5, 1.28125, 0.0, 1.0
451, 1.5848595848595848, -0.5457875457875457, 2.087912087912088, -0.34375, 0.40625, 0.3125, 1.0
452, 0.6092796092796092, -0.6593406593406593, 1.7435897435897436, -0.28125, -0.78125, 0.5, 1.0
453, -0.8888888888888888, -0.7411477411477412, 0.5372405372405372, -0.46875, -0.40625, 0.0, 1.0
454, 0.12698412698412698, 0.525030525030525, 2.045177045177045, -0.46875, 1.03125, 0.0, 1.0
455, 0.7716727716727717, 0.796092796092796, 3.976800976800977, -0.0625, 0.46875, 0.0, 1.0
456, -0.7313797313797313, 0.724053724053724, 3.8461538461538463, 0.125, 0.03125, 0.25, 1.0
457, -0.9255189255189256, -0.4481074481074481, 3.312576312576313, -0.3125, -0.0625, 0.53125, 1.0
458, -0.7484737484737485, -0.27594627594627597, 4.374847374847374, -0.625, -0.0625, 0.53125, 1.0
459, -1.807081807081807, 0.7973137973137974, 5.880341880341881, 0.0, 0.21875, 0.625, 1.0
460, -2.0354090354090353, -0.42124542124542125, 5.7765567765567765, 0.21875, 0.8125, 0.75, 1.0
461, -1.1575091575091576, -2.4542124542124544, 4.65934065934066, -0.6875, 1.0, 0.875, 1.0
462, -0.27228327228327226, -1.7142857142857142, 4.978021978021978, -1.1875, 0.375, 1.0, 1.0
463, -0.38461538461538464, -0.23565323565323565, 5.864468864468864, -0.5, -0.03125, 0.96875, 1.0
464, -0.17094017094017094, -1.1257631257631258, 4.415140415140415, 0.25, -0.15625, 1.03125, 1.0
465, 0.08180708180708181, -3.617826617826618, 0.8302808302808303, -0.03125, 0.0, 0.9375, 1.0
466, -0.3772893772893773, -2.1452991452991452, 0.32234432234432236, -0.0625, 0.4375, 0.75, 1.0
467, 0.16361416361416362, -0.851037851037851, 0.22344322344322345, 0.625, 0.625, 1.0, 1.0
468, 1.6459096459096458, -2.5750915750915753, -0.5970695970695971, 0.5625, 0.28125, 0.90625, 1.0
469, 1.4737484737484738, -3.2857142857142856, -1.6862026862026862, -0.09375, -0.3125, 0.46875, 1.0
470, -0.6275946275946276, -0.5494505494505495, -1.2783882783882783, 0.0625, -0.25, 0.25, 1.0
471, 0.17704517704517705, -0.503052503052503, -2.122100122100122, 0.5625, -0.28125, 0.71875, 1.0
472, 2.1868131868131866, -4.728937728937729, -5.951159951159951, -0.25, -0.28125, 0.84375, 1.0
473, 3.0305250305250304, -2.543345543345543, -4.853479853479853, -0.65625, -0.25, 0.125, 1.0
474, 0.7692307692307693, 0.6434676434676435, -1.564102564102564, 0.375, -0.03125, 0.0625, 1.0
475, -0.49206349206349204, -2.380952380952381, -2.8583638583638584, 0.65625, 0.125, 0.34375, 1.0
476, 1.2307692307692308, -3.7765567765567765, -5.2002442002442, -0.03125, -0.09375, -0.03125, 1.0
477, 0.6214896214896215, -1.5506715506715507, -4.986568986568987, -0.25, -0.4375, -0.53125, 1.0
478, -1.1697191697191698, 1.3833943833943834, -3.4615384615384617, 1.0625, -0.25, 0.34375, 1.0
479, 0.4346764346764347, -1.2356532356532357, -6.573870573870574, 0.71875, -0.0625, 0.6875, 1.0
480, 1.0231990231990231, 0.2844932844932845, -6.155067155067155, 0.03125, -0.125, 0.4375, 1.0
481, 0.4371184371184371, 1.15018315018315, -4.590964590964591, 0.25, -0.03125, 0.0, 1.0
482, -0.7948717948717948, -0.3882783882783883, -4.158730158730159, 0.0625, -0.03125, -0.1875, 1.0
483, -1.032967032967033, 0.9645909645909646, -1.927960927960928, -0.3125, -0.03125, -0.46875, 1.0
484, -1.9914529914529915, 1.4151404151404152, -1.0073260073260073, -0.40625, -0.25, -0.34375, 1.0
485, -0.5152625152625152, 0.5164835164835165, -0.05372405372405373, -0.125, -0.1875, -0.125, 1.0
486, -0.06349206349206349, -0.054945054945054944, -0.06227106227106227, -0.03125, -0.21875, -0.28125, 1.0
487, -0.47496947496947495, 0.3321123321123321, -0.33577533577533575, -0.03125, -0.25, -0.1875, 1.0
488, 0.1575091575091575, 0.4078144078144078, -0.568986568986569, -0.0625, -0.1875, 0.15625, 1.0
489, 0.8559218559218559, -0.47741147741147744, -0.4725274725274725, 0.0, -0.21875, 0.25, 1.0
490, 0.4627594627594628, -0.8400488400488401, -0.4822954822954823, 0.0625, -0.1875, 0.125, 1.0
491, 0.07081807081807082, -1.3785103785103785, -1.0134310134310134, 0.0, -0.03125, 0.0625, 1.0
492, 0.28815628815628813, -0.5958485958485958, -0.3028083028083028, -0.0625, 0.09375, 0.15625, 1.0
493, 0.608058608058608, -0.6984126984126984, 0.02197802197802198, -0.03125, 0.0625, 0.25, 1.0
494, 0.5775335775335775, -0.7887667887667887, -0.2490842490842491, 0.03125, 0.03125, 0.15625, 1.0
495, 0.9328449328449329, 0.045177045177045176, -1.0427350427350428, 0.125, 0.0, 0.09375, 1.0
496, 0.9438339438339438, 0.32844932844932845, -2.184371184371184, 0.28125, -0.21875, 0.3125, 0.0
497, -0.6263736263736264, -0.4444444444444444, -4.365079365079365, 0.40625, -0.21875, 0.6875, 0.0
498, -0.199023199023199, -1.8266178266178266, -5.4664224664224665, 0.1875, 0.84375, 0.53125, 0.0
499, 1.1245421245421245, -0.09035409035409035, -5.301587301587301, -0.375, 1.59375, 0.25, 0.0
500, 1.181929181929182, 0.7496947496947497, -5.6642246642246645, -0.375, 1.8125, -0.0625, 0.0
501, 1.6581196581196582, 0.7252747252747253, -5.82051282051282, 0.0, 1.53125, -0.21875, 0.0
502, 0.6617826617826618, 0.818070818070818, -5.3003663003663, 0.3125, 1.0, 0.5, 0.0
503, 1.122100122100122, -0.21001221001221002, -4.976800976800977, 0.96875, 0.1875, 0.875, 0.0
504, -0.1221001221001221, -1.1855921855921856, -5.411477411477412, 1.46875, 0.09375, 0.71875, 0.0
505, -0.4810744810744811, -1.713064713064713, -4.584859584859585, 1.78125, 0.09375, 0.5, 0.0
506, -0.38461538461538464, -3.2698412698412698, -4.216117216117216, 1.46875, 0.0, 0.28125, 0.0
507, 0.13553113553113552, -4.380952380952381, -3.5384615384615383, 0.40625, -0.1875, -0.125, 0.0
508, -0.30036630036630035, -2.9206349206349205, -1.8827838827838828, -0.3125, -0.25, -0.34375, 0.0
509, -1.5970695970695972, -0.9768009768009768, 0.2148962148962149, -0.25, -0.09375, -0.4375, 0.0
510, -1.4676434676434675, -0.41025641025641024, 1.249084249084249, 0.28125, 0.0, -0.21875, 0.0
511, -1.1294261294261294, -0.7301587301587301, 1.652014652014652, 0.5625, -0.03125, -0.1875, 0.0
512, -0.463980463980464, -1.8034188034188035, 1.315018315018315, 0.4375, -0.0625, -0.59375, 0.0
513, -0.3711843711843712, -0.9645909645909646, 1.7326007326007327, 0.21875, -0.125, -0.6875, 0.0
514, -0.19658119658119658, -0.27106227106227104, 2.554334554334554, 0.40625, -0.28125, -0.625, 0.0
515, -1.3174603174603174, 1.3650793650793651, 2.7472527472527473, 0.9375, -0.40625, -0.78125, 0.0
516, -2.1794871794871793, 1.6117216117216118, 1.7094017094017093, 1.40625, -0.28125, -0.78125, 0.0
517, -1.2075702075702075, -0.045177045177045176, 0.702075702075702, 1.0625, -0.1875, -0.5, 0.0
518, 0.7301587301587301, -1.7582417582417582, 0.5604395604395604, -0.03125, -0.53125, 0.03125, 0.0
519, 2.1880341880341883, -1.73992673992674, 1.8461538461538463, -1.125, -0.96875, 0.40625, 0.0
520, 2.062271062271062, -0.6825396825396826, 3.131868131868132, -1.65625, -1.125, 0.53125, 0.0
521, 0.5103785103785103, 0.4444444444444444, 3.6312576312576312, -1.46875, -0.65625, 0.5625, 0.0
522, 0.10378510378510379, 0.3772893772893773, 3.757020757020757, -1.125, 0.0, 0.375, 0.0
523, 1.0695970695970696, -0.6874236874236874, 3.6788766788766787, -1.125, 0.15625, 0.03125, 0.0
524, 1.1074481074481075, -0.7216117216117216, 3.5665445665445668, -1.3125, 0.09375, -0.28125, 0.0
525, 0.3492063492063492, 0.06837606837606838, 3.6544566544566544, -1.28125, 0.09375, -0.375, 0.0
526, -0.29914529914529914, 0.7948717948717948, 3.8192918192918195, -0.90625, 0.09375, -0.4375, 0.0
527, -0.6507936507936508, 0.8437118437118437, 3.442002442002442, -0.375, -0.03125, -0.25, 0.0
528, -0.018315018315018316, 0.43956043956043955, 2.086691086691087, -0.4375, -0.28125, -0.15625, 0.0
529, -0.15384615384615385, 0.36996336996337, 1.8437118437118436, -0.71875, -0.59375, -0.09375, 0.0
530, -0.6727716727716728, 0.5262515262515263, 1.8205128205128205, -0.75, -0.75, -0.03125, 0.0
531, -1.0903540903540903, 0.5824175824175825, 1.7557997557997558, -0.5, -0.71875, 0.0, 0.0
532, -0.3333333333333333, 0.02564102564102564, 1.5897435897435896, -0.25, -0.5625, 0.0625, 0.0
533, 0.03663003663003663, -0.6471306471306472, 1.065934065934066, -0.1875, -0.5625, 0.03125, 0.0
534, -0.17582417582417584, -1.0757020757020757, 0.17094017094017094, -0.34375, -0.5625, -0.15625, 0.0
535, -0.6776556776556777, -0.6691086691086691, -0.02442002442002442, -0.5, -0.21875, -0.28125, 0.0
536, -0.6752136752136753, -0.2588522588522589, 0.19658119658119658, -0.4375, 0.09375, -0.21875, 0.0
537, -0.2844932844932845, -0.4932844932844933, 0.43101343101343104, -0.34375, 0.25, -0.21875, 0.0
538, 0.46764346764346765, -1.4468864468864469, -0.11965811965811966, -0.3125, 0.0625, -0.09375, 0.0
539, 0.19658119658119658, -1.496947496947497, -0.8522588522588522, -0.59375, -0.1875, -0.0625, 0.0
540, -0.6117216117216118, -0.5958485958485958, -0.8925518925518926, -0.90625, -0.0625, -0.03125, 0.0
541, -0.45665445665445664, 0.06837606837606838, -0.045177045177045176, -1.03125, 0.40625, -0.03125, 0.0
542, -0.17094017094017094, -0.018315018315018316, 0.818070818070818, -1.0, 0.6875, -0.0625, 0.0
543, 0.5824175824175825, -0.3992673992673993, 1.3247863247863247, -0.6875, 0.46875, 0.0, 0.0
544, 0.9804639804639804, -0.6935286935286935, 0.9755799755799756, -0.40625, 0.0, -0.03125, 0.0
545, -0.21245421245421245, 0.05128205128205128, 0.7387057387057387, -0.4375, -0.09375, -0.21875, 0.0
546, -0.23931623931623933, 0.018315018315018316, 0.7191697191697192, -0.40625, 0.34375, -0.21875, 0.0
547, -0.001221001221001221, -0.31013431013431014, 0.7435897435897436, -0.375, 0.625, -0.25, 0.0
548, 0.5409035409035409, -1.5177045177045176, -0.2490842490842491, -0.4375, 0.46875, -0.3125, 0.0
549, 0.45787545787545786, -1.1721611721611722, -0.6764346764346765, -0.78125, 0.21875, -0.21875, 0.0
550, 0.29914529914529914, -0.5567765567765568, -0.12576312576312576, -0.625, -0.03125, -0.03125, 0.0
551, -0.6678876678876678, -0.10012210012210013, -0.5506715506715507, -0.1875, -0.03125, -0.125, 0.0
552, -0.7387057387057387, -0.1794871794871795, -1.1404151404151404, -0.09375, 0.4375, -0.0625, 0.0
553, 0.0463980463980464, -0.5738705738705738, -1.1526251526251525, -0.1875, 0.28125, -0.09375, 0.0
554, 0.40293040293040294, -0.7545787545787546, -0.8315018315018315, -0.3125, 0.0, 0.0, 0.0
555, 0.42246642246642246, -0.5335775335775336, -0.5970695970695971, -0.46875, -0.25, 0.0625, 0.0
556, 0.01098901098901099, -0.003663003663003663, -0.2026862026862027, -0.3125, -0.28125, 0.0625, 0.0
557, 0.003663003663003663, -0.10989010989010989, 0.013431013431013432, -0.03125, -0.21875, 0.03125, 0.0
558, -0.21978021978021978, -0.09768009768009768, -0.17338217338217338, -0.03125, 0.0, -0.03125, 0.0
559, -0.2039072039072039, 0.14407814407814407, 0.24175824175824176, -0.03125, 0.1875, -0.0625, 0.0
560, 0.36507936507936506, 0.01221001221001221, 1.0744810744810744, 0.0, 0.09375, 0.0, 0.0
561, 0.8388278388278388, -0.6544566544566545, 1.0525030525030525, 0.09375, -0.34375, 0.09375, 0.0
562, 0.3162393162393162, -0.73992673992674, 0.3724053724053724, 0.09375, -0.5625, 0.0, 0.0
563, -0.7228327228327228, -0.652014652014652, -0.3711843711843712, 0.0, -0.0625, -0.21875, 0.0
564, -0.9975579975579976, 0.199023199023199, 0.1562881562881563, 0.125, 0.5, -0.21875, 1.0
565, -0.18315018315018314, -0.04884004884004884, 0.6581196581196581, 0.40625, 0.59375, -0.34375, 1.0
566, -0.24053724053724054, -0.10622710622710622, 0.07936507936507936, 0.28125, 0.59375, -0.3125, 1.0
567, -0.2796092796092796, -0.7411477411477412, -0.6446886446886447, -0.34375, 0.625, -0.125, 1.0
568, 0.14163614163614163, -1.0634920634920635, -0.44078144078144077, -1.1875, 0.4375, 0.0625, 1.0
569, 0.27228327228327226, 0.14652014652014653, 1.531135531135531, -1.03125, 0.0, 0.21875, 1.0
570, -0.4603174603174603, 0.37484737484737485, 2.2234432234432235, -0.46875, 0.0, 0.28125, 1.0
571, -0.24175824175824176, 0.21245421245421245, 2.5067155067155067, -0.03125, 0.3125, 0.25, 1.0
572, 0.30158730158730157, -0.1916971916971917, 2.8290598290598292, 0.03125, 0.34375, 0.25, 1.0
573, 0.5958485958485958, -0.32722832722832723, 3.462759462759463, 0.0, 0.0625, 0.28125, 1.0
574, -0.14407814407814407, -0.031746031746031744, 4.573870573870574, 0.0625, 0.09375, 0.25, 1.0
575, -0.7606837606837606, 0.6349206349206349, 6.075702075702075, 0.375, 0.46875, 0.25, 1.0
576, -1.2222222222222223, 0.746031746031746, 6.893772893772894, 0.46875, 0.78125, 0.46875, 1.0
577, -1.3858363858363858, -0.0231990231990232, 6.594627594627594, 0.03125, 0.625, 0.65625, 1.0
578, -2.432234432234432, 0.9633699633699634, 6.993894993894994, -0.25, 0.34375, 1.0, 1.0
579, -3.05006105006105, 0.6568986568986569, 7.101343101343101, 0.09375, 0.15625, 1.21875, 1.0
580, -3.4481074481074483, -1.0366300366300367, 5.146520146520147, 0.3125, 0.4375, 1.40625, 1.0
581, -1.3846153846153846, -3.791208791208791, 1.6666666666666667, 0.0, 0.40625, 1.5625, 1.0
582, -0.7985347985347986, -5.085470085470085, -0.536019536019536, -1.3125, 0.0, 1.625, 1.0
583, -0.5604395604395604, -3.010989010989011, 0.8046398046398047, -2.25, 0.0, 1.375, 1.0
584, -0.48595848595848595, -0.7484737484737485, 2.659340659340659, -1.40625, -0.03125, 1.03125, 1.0
585, -0.9621489621489622, -1.9877899877899878, 0.7985347985347986, 0.03125, -0.0625, 0.84375, 1.0
586, -0.9413919413919414, -5.763125763125763, -3.2979242979242978, 0.125, 0.09375, 0.9375, 1.0
587, 0.5006105006105006, -3.045177045177045, -3.8119658119658117, -0.78125, 0.28125, 0.59375, 1.0
588, -0.15018315018315018, 0.40293040293040294, -1.2026862026862026, -0.4375, -0.0625, 0.25, 1.0
589, -0.8424908424908425, -2.0598290598290596, -2.5873015873015874, 0.5, -0.34375, 0.40625, 1.0
590, -0.13553113553113552, -4.594627594627594, -5.407814407814408, 0.0, 0.0, 0.40625, 1.0
591, 0.8021978021978022, -1.0647130647130647, -4.0476190476190474, -1.0, -0.1875, 0.0, 1.0
592, -0.25396825396825395, 0.9755799755799756, -3.2515262515262515, 0.5625, -1.0, -0.3125, 1.0
593, -1.6507936507936507, -2.4432234432234434, -7.608058608058608, 1.625, -0.78125, 0.46875, 1.0
594, 2.583638583638584, -1.6764346764346765, -8.227106227106226, 1.09375, -0.125, 1.03125, 1.0
595, 3.4774114774114775, -0.25274725274725274, -7.481074481074481, 0.5625, -0.5, 0.6875, 1.0
596, 2.2515262515262515, 0.7387057387057387, -6.6007326007326, 0.625, -0.46875, 0.625, 1.0
597, 2.658119658119658, 0.18925518925518925, -6.628815628815629, 1.03125, -0.09375, 0.75, 1.0
598, 1.9987789987789988, -0.02442002442002442, -6.442002442002442, 0.71875, -0.21875, 0.4375, 1.0
599, 0.12332112332112333, 0.39316239316239315, -5.566544566544566, 0.0, 0.03125, 0.0625, 1.0
600, 0.5555555555555556, 2.2295482295482296, -2.087912087912088, -0.0625, 0.09375, -0.25, 1.0
601, -0.6886446886446886, 1.684981684981685, -0.9133089133089133, 0.0625, 0.0, -0.15625, 1.0
602, -0.9829059829059829, 0.9267399267399268, -0.6837606837606838, -0.03125, -0.09375, 0.0, 1.0
603, -0.6935286935286935, 0.6312576312576312, -0.927960927960928, -0.28125, 0.0, -0.03125, 1.0
604, 0.17338217338217338, 0.4810744810744811, -0.8681318681318682, -0.28125, 0.125, 0.0, 1.0
605, 0.9975579975579976, 0.10012210012210013, -0.12087912087912088, 0.0, 0.09375, -0.0625, 1.0
606, 0.3785103785103785, -1.612942612942613, -1.0305250305250304, -0.25, 0.15625, -0.3125, 1.0
607, -0.4078144078144078, -0.7814407814407814, -0.7362637362637363, -0.5625, 0.1875, -0.21875, 1.0
608, -0.9084249084249084, 0.03418803418803419, 0.2515262515262515, -0.375, 0.3125, 0.03125, 1.0
609, 0.01221001221001221, -0.43101343101343104, 1.0122100122100122, -0.03125, 0.21875, 0.09375, 1.0
610, 0.07814407814407814, -0.9487179487179487, 0.47863247863247865, 0.15625, 0.125, -0.0625, 1.0
611, 0.019536019536019536, -1.3492063492063493, -1.083028083028083, 0.0, 0.15625, -0.1875, 1.0
612, -0.5238095238095238, -0.4078144078144078, -2.010989010989011, -0.28125, 0.21875, -0.03125, 1.0
613, -0.43833943833943834, -0.1343101343101343, -2.004884004884005, -0.40625, 0.4375, 0.25, 1.0
614, 0.16361416361416362, 0.06349206349206349, -2.012210012210012, -0.15625, 0.46875, 0.375, 0.0
615, 0.3626373626373626, -0.33821733821733824, -3.0525030525030523, -0.03125, 0.40625, 0.34375, 0.0
616, -0.2490842490842491, -0.5311355311355311, -4.2002442002442, -0.0625, 0.59375, 0.375, 0.0
617, 0.11843711843711843, -0.2967032967032967, -4.700854700854701, -0.125, 0.78125, 0.46875, 0.0
618, 0.42124542124542125, -0.08424908424908426, -4.48962148962149, -0.0625, 0.875, 0.375, 0.0
619, 0.7557997557997558, 0.017094017094017096, -4.037851037851038, 0.09375, 0.75, 0.21875, 0.0
620, 0.3772893772893773, -0.8290598290598291, -4.528693528693529, -0.1875, 0.46875, 0.21875, 0.0
621, -0.9413919413919414, 0.6092796092796092, -4.192918192918193, -0.21875, 0.5, 0.375, 0.0
622, -0.8473748473748474, 0.5714285714285714, -4.3418803418803416, -0.03125, 0.78125, 0.5, 0.0
623, 0.6800976800976801, 0.409035409035409, -3.543345543345543, 0.0625, 0.78125, 0.40625, 0.0
624, 2.062271062271062, 0.25518925518925517, -2.2747252747252746, 0.5625, 0.28125, -0.21875, 0.0
625, 1.595848595848596, -0.5921855921855922, -1.8485958485958487, 0.90625, -0.21875, -0.5, 0.0
626, -0.44932844932844934, -1.3516483516483517, -1.7814407814407816, 0.75, -0.5625, -0.125, 0.0
627, -0.8913308913308914, -0.967032967032967, -0.7338217338217338, 0.65625, -0.59375, 0.21875, 0.0
628, -0.49206349206349204, -1.0390720390720392, 0.2686202686202686, 1.03125, -0.5, 0.25, 0.0
629, 0.3968253968253968, -2.4822954822954824, 0.5372405372405372, 1.375, -0.46875, 0.15625, 0.0
630, 1.2344322344322345, -3.1001221001221, 1.3125763125763126, 1.15625, -0.5625, -0.1875, 0.0
631, 1.6715506715506716, -2.705738705738706, 2.7362637362637363, 0.6875, -0.90625, -0.6875, 0.0
632, 1.9755799755799757, -3.398046398046398, 2.934065934065934, 0.21875, -1.40625, -0.75, 0.0
633, 0.5054945054945055, -2.341880341880342, 2.2979242979242978, -0.53125, -1.34375, -1.09375, 0.0
634, 0.008547008547008548, -1.1965811965811965, 2.4957264957264957, -1.25, -0.78125, -1.3125, 0.0
635, 0.18437118437118438, 0.06471306471306472, 3.94993894993895, -1.5, -0.5625, -1.09375, 0.0
636, -0.3076923076923077, 0.6605616605616605, 4.134310134310135, -1.25, -0.6875, -0.9375, 0.0
637, -1.1062271062271063, 1.1404151404151404, 3.525030525030525, -0.84375, -0.65625, -0.71875, 0.0
638, -0.7191697191697192, 0.38461538461538464, 2.440781440781441, -0.3125, -0.46875, -0.4375, 0.0
639, -0.40415140415140416, 0.04395604395604396, 1.4444444444444444, 0.03125, -0.28125, -0.40625, 0.0
640, 0.3443223443223443, -0.3992673992673993, 1.0256410256410255, 0.34375, -0.21875, -0.40625, 0.0
641, 0.7851037851037851, -0.7081807081807082, 0.8559218559218559, 0.1875, -0.375, -0.28125, 0.0
642, 0.5787545787545788, -0.5384615384615384, 0.960927960927961, -0.125, -0.71875, -0.1875, 0.0
643, 0.11721611721611722, -0.34676434676434675, 1.1123321123321124, -0.28125, -0.96875, -0.1875, 0.0
644, -0.663003663003663, -0.3504273504273504, 0.724053724053724, -0.1875, -0.8125, -0.3125, 0.0
645, -0.8901098901098901, -0.2612942612942613, 0.23076923076923078, -0.15625, -0.25, -0.375, 0.0
646, -0.29914529914529914, -0.18925518925518925, 0.43833943833943834, -0.21875, 0.125, -0.375, 0.0
647, -0.042735042735042736, 0.08913308913308914, 1.089133089133089, -0.21875, 0.125, -0.375, 0.0
648, 0.08058608058608059, -0.09157509157509157, 1.1367521367521367, -0.21875, 0.0, -0.28125, 0.0
649, 0.0463980463980464, -0.2490842490842491, 0.6495726495726496, -0.6875, -0.15625, -0.21875, 0.0
650, -0.17582417582417584, -0.15384615384615385, 0.7484737484737485, -1.0, -0.09375, -0.1875, 0.0
651, -0.5018315018315018, 0.12576312576312576, 1.1452991452991452, -1.125, 0.0, -0.09375, 0.0
652, -0.6019536019536019, 0.5054945054945055, 1.6312576312576312, -0.96875, 0.09375, 0.0, 0.0
653, -0.10866910866910867, 0.22832722832722832, 2.1709401709401708, -0.6875, 0.0625, 0.03125, 0.0
654, 0.5177045177045178, -0.37484737484737485, 2.115995115995116, -0.53125, -0.0625, 0.03125, 0.0
655, 0.7826617826617827, -0.8864468864468864, 1.3455433455433456, -0.59375, -0.125, -0.09375, 0.0
656, -0.10012210012210013, -0.5470085470085471, 0.9768009768009768, -0.6875, 0.1875, -0.0625, 0.0
657, 0.1111111111111111, -0.4053724053724054, 1.2967032967032968, -0.59375, 0.59375, 0.0, 0.0
658, 0.778998778998779, -0.4432234432234432, 1.7912087912087913, -0.34375, 0.4375, -0.0625, 0.0
659, 1.15995115995116, -1.0097680097680097, 1.492063492063492, -0.1875, 0.0, 0.0, 0.0
660, 0.989010989010989, -1.3101343101343101, 0.7777777777777778, -0.21875, -0.3125, 0.03125, 0.0
661, 0.13797313797313798, -1.006105006105006, 0.1855921855921856, -0.28125, -0.28125, -0.0625, 0.0
662, -0.6813186813186813, -0.5555555555555556, -0.16361416361416362, -0.25, 0.0625, -0.1875, 0.0
663, -0.7191697191697192, -0.14041514041514042, 0.020757020757020756, -0.0625, 0.375, -0.1875, 0.0
664, -0.3894993894993895, -0.01221001221001221, 0.5286935286935287, 0.03125, 0.5, -0.21875, 0.0
665, -0.16483516483516483, -0.1623931623931624, 0.3626373626373626, 0.0, 0.46875, -0.15625, 0.0
666, 0.2796092796092796, -0.3614163614163614, 0.17582417582417584, -0.25, 0.28125, -0.09375, 0.0
667, 0.5934065934065934, -0.43345543345543347, 0.4053724053724054, -0.3125, -0.09375, 0.03125, 0.0
668, 0.11965811965811966, -0.21855921855921856, 0.21245421245421245, -0.21875, -0.28125, 0.0, 0.0
669, -0.39194139194139194, -0.12942612942612944, -0.2612942612942613, -0.1875, -0.0625, -0.1875, 0.0
670, -1.514041514041514, 0.6837606837606838, -0.32844932844932845, -0.1875, 0.5, -0.34375, 0.0
671, -1.3565323565323566, 0.746031746031746, 0.07081807081807082, -0.03125, 0.75, -0.28125, 1.0
672, -0.15018315018315018, -0.1343101343101343, 0.38705738705738707, 0.0, 0.3125, -0.375, 1.0
673, 0.04395604395604396, -0.05616605616605617, 0.7594627594627594, 0.03125, -0.25, 0.0, 1.0
674, -0.08424908424908426, -1.4554334554334554, -0.5470085470085471, -0.96875, 0.0625, 0.09375, 1.0
675, 0.29426129426129427, -0.02564102564102564, 1.3833943833943834, -1.53125, 0.46875, 0.125, 1.0
676, 0.1330891330891331, 0.5518925518925519, 3.199023199023199, -1.1875, 0.3125, 0.09375, 1.0
677, -0.14407814407814407, 0.29304029304029305, 3.584859584859585, -0.5625, 0.0, 0.15625, 1.0
678, -0.6898656898656899, 0.2783882783882784, 3.948717948717949, -0.21875, -0.09375, 0.15625, 1.0
679, -1.017094017094017, 0.19291819291819293, 4.57020757020757, 0.0625, 0.0, 0.1875, 1.0
680, -0.9206349206349206, -0.4126984126984127, 5.078144078144078, 0.1875, 0.375, 0.15625, 1.0
681, -0.20512820512820512, -0.6666666666666666, 5.971916971916972, 0.03125, 0.84375, 0.1875, 1.0
682, 0.11843711843711843, -0.6446886446886447, 7.05006105006105, 0.0, 0.78125, 0.1875, 1.0
683, -0.9352869352869353, -0.40293040293040294, 7.194139194139194, 0.46875, 0.46875, 0.21875, 1.0
684, -2.5995115995115996, -0.6446886446886447, 5.763125763125763, 1.0625, 0.5625, 0.46875, 1.0
685, -2.5347985347985347, -0.9938949938949939, 5.212454212454213, 1.21875, 0.8125, 0.90625, 1.0
686, -2.31990231990232, -1.5738705738705738, 4.7997557997558, 0.625, 0.96875, 1.25, 1.0
687, -1.2454212454212454, -0.9194139194139194, 6.192918192918193, -0.0625, 1.125, 1.5, 1.0
688, -1.6202686202686203, -1.6800976800976801, 5.627594627594628, 0.03125, 0.90625, 1.625, 1.0
689, -1.8473748473748475, -3.7838827838827838, 2.658119658119658, -0.15625, 0.96875, 1.65625, 1.0
690, -1.1465201465201464, -3.5946275946275947, 1.065934065934066, -1.34375, 1.09375, 1.71875, 1.0
691, 0.6239316239316239, -2.9572649572649574, 2.347985347985348, -1.90625, 0.03125, 1.4375, 1.0
692, -0.78998778998779, -0.9621489621489622, 1.3736263736263736, -1.375, -1.3125, 0.84375, 1.0
693, -2.717948717948718, -2.3235653235653237, -3.4664224664224665, 0.125, -1.15625, 0.78125, 1.0
694, -1.3565323565323566, -4.588522588522588, -8.047619047619047, 0.28125, -0.0625, 1.0, 1.0
695, -0.22832722832722832, -1.916971916971917, -7.224664224664225, -0.4375, 0.1875, 0.71875, 1.0
696, -0.3540903540903541, 0.5238095238095238, -4.744810744810745, -0.5625, -0.03125, 0.375, 1.0
697, -0.29304029304029305, -0.10134310134310134, -3.774114774114774, 0.21875, -0.21875, 0.5, 1.0
698, 1.1074481074481075, -4.09035409035409, -6.446886446886447, 0.15625, -0.21875, 0.5, 1.0
699, 2.5506715506715505, -1.393162393162393, -6.086691086691086, 0.21875, -0.46875, 0.09375, 1.0
700, 2.264957264957265, 1.0952380952380953, -4.884004884004884, 1.21875, -0.75, 0.25, 1.0
701, 1.5152625152625152, -2.126984126984127, -7.240537240537241, 1.09375, -0.46875, 0.34375, 1.0
702, 3.283272283272283, -2.1892551892551895, -7.87057387057387, 0.375, -0.5, -0.03125, 1.0
703, 2.601953601953602, 0.39438339438339437, -6.916971916971917, 0.125, -0.65625, -0.53125, 1.0
704, 0.31746031746031744, 1.8034188034188035, -5.401709401709402, 0.40625, -0.40625, -0.40625, 1.0
705, 0.11843711843711843, 0.8070818070818071, -4.228327228327228, 0.0, -0.125, -0.15625, 1.0
706, 0.002442002442002442, 0.9816849816849816, -2.440781440781441, -0.09375, -0.21875, -0.1875, 1.0
707, -1.0390720390720392, 2.2356532356532357, -1.5824175824175823, 0.0625, -0.25, 0.03125, 1.0
708, -0.8168498168498168, 1.0073260073260073, -1.4102564102564104, 0.125, -0.1875, 0.34375, 1.0
709, 0.015873015873015872, -0.14041514041514042, -1.4371184371184371, -0.09375, -0.0625, 0.21875, 1.0
710, -0.36752136752136755, 0.23931623931623933, -1.3540903540903542, -0.3125, 0.03125, 0.21875, 1.0
711, -0.37362637362637363, 0.9902319902319903, -0.16361416361416362, -0.125, 0.125, 0.375, 1.0
712, 0.4481074481074481, -0.6446886446886447, -0.0695970695970696, 0.03125, 0.0625, 0.1875, 1.0
713, 0.3601953601953602, -0.8449328449328449, -0.47496947496947495, -0.09375, 0.0, 0.03125, 1.0
714, 0.21245421245421245, -0.7875457875457875, -0.6227106227106227, -0.1875, 0.03125, 0.03125, 1.0
715, 0.6703296703296703, -0.6251526251526252, -0.06227106227106227, -0.125, 0.0, 0.0, 1.0
716, 0.4432234432234432, -0.8901098901098901, -0.4932844932844933, -0.09375, -0.0625, -0.03125, 1.0
717, -0.22344322344322345, -0.7203907203907204, -1.4810744810744811, -0.34375, 0.09375, 0.0, 1.0
718, 0.1111111111111111, -0.10989010989010989, -1.4065934065934067, -0.40625, 0.25, 0.15625, 0.0
719, 0.5421245421245421, 0.07203907203907203, -1.277167277167277, -0.125, 0.34375, 0.15625, 0.0
720, 0.7228327228327228, -0.2661782661782662, -1.6581196581196582, 0.25, 0.5, 0.0, 0.0
721, 0.894993894993895, -0.6434676434676435, -3.244200244200244, 0.3125, 0.5625, -0.125, 0.0
722, 0.09401709401709402, 0.851037851037851, -3.537240537240537, 0.53125, 0.46875, 0.34375, 0.0
723, 0.18925518925518925, 0.7777777777777778, -3.31013431013431, 1.0625, 0.65625, 0.65625, 0.0
724, 0.4700854700854701, 1.181929181929182, -3.3797313797313797, 1.78125, 0.625, 0.78125, 0.0
725, 1.7008547008547008, -0.9902319902319903, -4.726495726495727, 2.6875, 0.46875, 0.5, 0.0
726, 0.24786324786324787, -3.5384615384615383, -6.644688644688645, 2.34375, -0.3125, 0.15625, 0.0
727, -1.7057387057387057, -2.3443223443223444, -6.78021978021978, 1.15625, -0.1875, -0.125, 0.0
728, -1.5604395604395604, -0.9902319902319903, -5.274725274725275, 0.625, 0.34375, 0.03125, 0.0
729, 0.047619047619047616, -1.2747252747252746, -3.7814407814407813, 0.78125, 0.78125, 0.15625, 0.0
730, 0.5482295482295483, -1.6398046398046398, -2.868131868131868, 1.0, 0.5, 0.0, 0.0
731, 0.02197802197802198, -2.365079365079365, -2.4126984126984126, 1.0625, -0.0625, -0.25, 0.0
732, -0.6056166056166056, -2.8632478632478633, -2.3687423687423688, 0.3125, -0.40625, -0.375, 0.0
733, -0.8901098901098901, -2.006105006105006, -1.1672771672771673, -0.625, -0.3125, -0.59375, 0.0
734, -1.0940170940170941, -1.126984126984127, 0.16483516483516483, -0.96875, 0.03125, -0.53125, 0.0
735, -1.0927960927960927, -0.5604395604395604, 1.0818070818070817, -0.65625, 0.34375, -0.28125, 0.0
736, 0.3601953601953602, -1.0268620268620268, 1.8522588522588523, -0.1875, 0.46875, -0.25, 0.0
737, 1.332112332112332, -1.2612942612942613, 2.826617826617827, -0.25, -0.03125, -0.28125, 0.0
738, -0.008547008547008548, -0.05372405372405373, 3.4542124542124544, -0.53125, -0.5625, -0.5, 0.0
739, -0.6117216117216118, 0.5457875457875457, 4.083028083028083, -0.34375, -0.625, -0.5, 0.0
740, 0.21733821733821734, -0.199023199023199, 4.03052503052503, 0.0625, -0.5, -0.3125, 0.0
741, 1.407814407814408, -0.7997557997557998, 3.3675213675213675, 0.28125, -0.4375, -0.40625, 0.0
742, 1.1001221001221002, -0.8864468864468864, 2.2246642246642248, 0.0, -0.59375, -0.65625, 0.0
743, 0.3431013431013431, -0.6495726495726496, 1.3907203907203907, -0.5, -0.65625, -0.875, 0.0
744, -1.017094017094017, 0.12942612942612944, 1.4713064713064714, -0.75, -0.5, -0.90625, 0.0
745, -0.6141636141636142, 0.1391941391941392, 1.4542124542124542, -0.75, -0.21875, -0.59375, 0.0
746, 0.26495726495726496, -0.5824175824175825, 1.2087912087912087, -1.0, -0.25, -0.53125, 0.0
747, -0.10378510378510379, -0.3785103785103785, 1.3382173382173381, -1.65625, -0.4375, -0.59375, 0.0
748, -1.5628815628815629, 1.0183150183150182, 1.8974358974358974, -1.40625, -0.21875, -0.5, 0.0
749, -1.431013431013431, 1.1941391941391941, 2.1355311355311355, -0.90625, -0.09375, -0.40625, 0.0
750, -0.778998778998779, 0.7777777777777778, 2.061050061050061, -0.8125, -0.15625, -0.53125, 0.0
751, -1.1636141636141637, 0.6910866910866911, 1.7545787545787546, -0.90625, 0.0, -0.5, 0.0
752, -1.0231990231990231, 0.47985347985347987, 1.586080586080586, -1.0625, 0.0625, -0.28125, 0.0
753, -0.3052503052503053, -0.15018315018315018, 1.6422466422466422, -1.1875, -0.125, -0.15625, 0.0
754, -0.29181929181929184, 0.39194139194139194, 2.2173382173382175, -0.96875, -0.34375, -0.0625, 0.0
755, -0.398046398046398, 0.7887667887667887, 2.547008547008547, -0.59375, -0.40625, -0.0625, 0.0
756, -0.3235653235653236, 0.27472527472527475, 2.0671550671550674, -0.40625, -0.28125, -0.03125, 0.0
757, 0.37362637362637363, -0.42124542124542125, 1.8376068376068375, -0.4375, -0.375, 0.0, 0.0
758, 0.525030525030525, -0.5873015873015873, 1.5164835164835164, -0.5, -0.59375, 0.09375, 0.0
759, 0.07936507936507936, -0.3968253968253968, 1.0866910866910866, -0.5, -0.6875, 0.15625, 0.0
760, -0.41514041514041516, -0.1221001221001221, 0.9621489621489622, -0.3125, -0.53125, 0.0, 0.0
761, -0.9181929181929182, 0.042735042735042736, 0.927960927960928, -0.125, -0.125, -0.03125, 0.0
762, -0.34676434676434675, -0.6752136752136753, 0.6105006105006106, -0.09375, 0.03125, 0.0, 0.0
763, 0.1514041514041514, -1.0476190476190477, 0.35775335775335776, -0.25, -0.0625, 0.0625, 0.0
764, 0.13675213675213677, -0.8632478632478633, 0.30158730158730157, -0.3125, -0.1875, 0.09375, 0.0
765, -0.21611721611721613, -0.4700854700854701, 0.21733821733821734, -0.28125, 0.0, 0.0625, 0.0
766, -0.05860805860805861, -0.46642246642246643, 0.2869352869352869, -0.15625, 0.125, 0.0625, 0.0
767, 0.12698412698412698, -0.6336996336996337, 0.09645909645909646, -0.25, 0.21875, 0.03125, 0.0
768, 0.5702075702075702, -0.5482295482295483, 0.3797313797313797, -0.375, 0.1875, 0.0, 0.0
769, 0.5470085470085471, -0.17582417582417584, 0.8168498168498168, -0.3125, 0.0625, 0.0, 0.0
770, 0.398046398046398, -0.15506715506715507, 0.8778998778998779, -0.125, -0.0625, 0.0, 0.0
771, -0.054945054945054944, -0.11477411477411477, 0.43833943833943834, -0.125, 0.0, -0.15625, 0.0
772, -0.1452991452991453, -0.03663003663003663, 0.3443223443223443, -0.0625, 0.375, -0.21875, 0.0
773, -0.24175824175824176, -0.23443223443223443, 0.10989010989010989, -0.125, 0.3125, -0.25, 0.0
774, -0.0989010989010989, -0.10378510378510379, 0.590964590964591, 0.0, 0.15625, -0.125, 1.0
775, -0.2600732600732601, -0.4139194139194139, -0.23931623931623933, 0.09375, 0.0, -0.21875, 1.0
776, -0.5470085470085471, -0.18315018315018314, -0.24664224664224665, 0.0, 0.28125, -0.375, 1.0
777, -0.17338217338217338, -0.10134310134310134, 0.4078144078144078, -0.3125, 0.6875, -0.25, 1.0
778, 0.31135531135531136, 0.5470085470085471, 2.184371184371184, -0.28125, 0.46875, -0.15625, 1.0
779, -0.23076923076923078, 0.4652014652014652, 2.7643467643467643, 0.0, 0.0, 0.03125, 1.0
780, -0.10500610500610501, 0.004884004884004884, 2.8144078144078146, 0.15625, -0.03125, 0.15625, 1.0
781, -0.019536019536019536, -0.19291819291819293, 3.3235653235653237, 0.125, 0.0, 0.09375, 1.0
782, -0.6043956043956044, -0.05128205128205128, 3.826617826617827, 0.0, 0.25, 0.03125, 1.0
783, -0.43956043956043955, -0.05982905982905983, 4.8669108669108665, 0.0, 0.75, 0.0625, 1.0
784, 0.23565323565323565, -0.22344322344322345, 5.2625152625152625, -0.03125, 0.78125, 0.125, 1.0
785, -0.04151404151404151, -0.14896214896214896, 5.233211233211233, 0.125, 0.15625, 0.21875, 1.0
786, -1.393162393162393, -0.03540903540903541, 4.362637362637362, 0.28125, -0.25, 0.40625, 1.0
787, -2.4444444444444446, 0.4065934065934066, 4.095238095238095, 0.40625, 0.3125, 0.375, 1.0
788, -2.614163614163614, 0.6837606837606838, 4.484737484737485, 0.53125, 1.25, 0.34375, 1.0
789, -1.1733821733821734, 0.040293040293040296, 5.085470085470085, 0.78125, 1.5625, 0.5625, 1.0
790, -0.4981684981684982, -1.7875457875457876, 3.498168498168498, 0.75, 0.71875, 0.84375, 1.0
791, -1.7545787545787546, -3.043956043956044, 1.15995115995116, 0.0, 0.09375, 0.875, 1.0
792, -2.0598290598290596, -2.5982905982905984, 0.9536019536019537, -1.03125, 0.625, 0.9375, 1.0
793, -0.4835164835164835, -0.5860805860805861, 2.7032967032967035, -1.0, 1.09375, 1.09375, 1.0
794, -1.1758241758241759, -1.7851037851037852, 1.7777777777777777, -0.34375, 0.90625, 1.15625, 1.0
795, -1.2002442002442002, -3.347985347985348, 0.006105006105006105, -0.875, 0.6875, 1.125, 1.0
796, -0.5396825396825397, -2.6031746031746033, 0.20512820512820512, -2.25, -0.1875, 0.8125, 1.0
797, -0.9462759462759462, 0.8156288156288156, 2.346764346764347, -1.0625, -0.6875, 0.5625, 1.0
798, -2.8461538461538463, 0.11965811965811966, 1.8131868131868132, 0.15625, -0.28125, 0.84375, 1.0
799, -1.5604395604395604, -2.614163614163614, -1.5726495726495726, 0.09375, 0.0625, 0.90625, 1.0
800, -0.21001221001221002, -2.4078144078144077, -2.8376068376068377, -0.25, -0.125, 0.5, 1.0
801, 0.17704517704517705, -0.6324786324786325, -2.335775335775336, 0.28125, -0.625, 0.21875, 1.0
802, -1.4371184371184371, -1.601953601953602, -3.1892551892551895, 0.5625, -0.5625, 0.34375, 1.0
803, -0.5067155067155067, -2.9450549450549453, -4.68009768009768, 0.40625, -0.21875, 0.71875, 1.0
804, 0.39438339438339437, -2.7142857142857144, -5.191697191697192, 0.15625, -0.3125, 0.6875, 1.0
805, 1.4456654456654456, -0.19047619047619047, -4.851037851037851, 1.0, -0.71875, 0.53125, 1.0
806, 1.1074481074481075, -1.84004884004884, -6.518925518925519, 1.28125, -0.9375, 0.625, 1.0
807, 1.192918192918193, -2.3150183150183152, -8.677655677655677, 0.8125, -0.625, 0.75, 1.0
808, 2.8632478632478633, -0.8363858363858364, -9.072039072039072, 0.34375, -0.46875, 0.59375, 1.0
809, 3.656898656898657, 2.208791208791209, -7.108669108669108, 0.65625, -0.4375, 0.34375, 1.0
810, 3.3675213675213675, 0.5518925518925519, -6.797313797313797, 0.34375, -0.0625, -0.15625, 1.0
811, 2.8046398046398044, 1.3162393162393162, -4.9743589743589745, -0.28125, 0.03125, -0.6875, 1.0
812, 0.6373626373626373, 2.8351648351648353, -2.4590964590964592, -0.4375, 0.15625, -0.65625, 1.0
813, -0.23931623931623933, 3.2625152625152625, -0.5775335775335775, -0.03125, 0.1875, -0.25, 1.0
814, -0.4725274725274725, 1.8095238095238095, -0.49572649572649574, 0.0, 0.09375, 0.0, 1.0
815, -0.3321123321123321, 0.2905982905982906, -1.393162393162393, -0.25, 0.28125, -0.03125, 1.0
816, 0.3492063492063492, 0.6373626373626373, -0.8131868131868132, -0.28125, 0.15625, -0.09375, 1.0
817, -0.08058608058608059, 0.7716727716727717, -0.3137973137973138, 0.0, 0.09375, 0.0, 1.0
818, -0.47496947496947495, 0.020757020757020756, -0.42124542124542125, 0.1875, 0.125, 0.21875, 1.0
819, -0.47496947496947495, -2.343101343101343, -1.9548229548229548, -0.375, 0.4375, -0.03125, 1.0
820, -0.05616605616605617, -0.9914529914529915, -0.6910866910866911, -0.4375, 0.3125, -0.21875, 1.0
821, -0.5067155067155067, -0.42124542124542125, -0.3724053724053724, -0.375, 0.21875, -0.21875, 1.0
822, -0.463980463980464, -0.1514041514041514, -0.7936507936507936, -0.375, 0.125, -0.0625, 1.0
823, 0.0927960927960928, 0.05860805860805861, -1.4029304029304028, -0.28125, 0.09375, 0.0, 1.0
824, 0.16727716727716727, 0.5531135531135531, -1.7191697191697193, -0.03125, 0.125, -0.03125, 0.0
825, 0.10134310134310134, 0.8266178266178266, -2.0903540903540905, 0.34375, 0.34375, 0.0, 0.0
826, -0.1343101343101343, -0.3528693528693529, -3.2246642246642248, 0.53125, 0.46875, 0.03125, 0.0
827, 1.1855921855921856, 0.1391941391941392, -3.1746031746031744, 0.5, 0.4375, 0.21875, 0.0
828, 1.3247863247863247, 1.3296703296703296, -2.9401709401709404, 1.03125, 0.15625, 0.71875, 0.0
829, 2.094017094017094, -0.10012210012210013, -4.7203907203907205, 1.8125, 0.125, 0.875, 0.0
830, 1.221001221001221, -1.3345543345543345, -5.614163614163614, 1.875, -0.125, 0.5625, 0.0
831, -0.3052503052503053, -1.1868131868131868, -5.471306471306471, 1.53125, -0.28125, 0.1875, 0.0
832, -1.054945054945055, -1.4871794871794872, -4.622710622710622, 1.25, -0.15625, 0.125, 0.0
833, -1.2039072039072038, -2.0781440781440783, -4.846153846153846, 0.96875, 0.125, 0.1875, 0.0
834, -0.3418803418803419, -2.52014652014652, -5.122100122100122, 0.53125, 0.5625, 0.1875, 0.0
835, -0.08791208791208792, -2.0805860805860807, -4.235653235653236, 0.0, 0.75, 0.15625, 0.0
836, 0.17826617826617827, -1.098901098901099, -2.391941391941392, -0.1875, 0.6875, -0.09375, 0.0
837, 0.6117216117216118, -1.0146520146520146, -1.0073260073260073, -0.03125, 0.09375, -0.21875, 0.0
838, 0.46153846153846156, -1.663003663003663, -0.22344322344322345, 0.28125, -0.65625, -0.28125, 0.0
839, 0.4700854700854701, -2.36996336996337, -0.003663003663003663, 0.5, -1.0625, -0.4375, 0.0
840, -0.10500610500610501, -2.4542124542124544, 0.14041514041514042, 0.625, -0.9375, -0.46875, 0.0
841, -0.05128205128205128, -2.324786324786325, 0.12087912087912088, 0.5625, -0.34375, -0.53125, 0.0
842, 0.04884004884004884, -1.2612942612942613, 0.8913308913308914, 0.3125, 0.0, -0.53125, 0.0
843, 0.7655677655677655, -1.6324786324786325, 1.9291819291819292, 0.25, -0.25, -0.46875, 0.0
844, 0.5873015873015873, -1.7411477411477412, 1.877899877899878, 0.03125, -0.875, -0.5625, 0.0
845, -0.09523809523809523, -1.1831501831501832, 2.1074481074481075, -0.1875, -1.1875, -0.875, 0.0
846, -1.9658119658119657, 0.3028083028083028, 2.1697191697191696, -0.21875, -0.625, -0.96875, 0.0
847, -1.037851037851038, -0.746031746031746, 1.6385836385836385, -0.46875, -0.0625, -0.625, 0.0
848, 0.9719169719169719, -1.5238095238095237, 1.9120879120879122, -1.34375, -0.3125, -0.53125, 0.0
849, 0.41147741147741146, -0.5079365079365079, 2.2796092796092795, -2.125, -0.34375, -0.53125, 0.0
850, -0.5873015873015873, 1.1721611721611722, 3.6056166056166057, -2.25, -0.03125, -0.34375, 0.0
851, -0.1916971916971917, 1.3504273504273505, 4.672771672771673, -1.9375, 0.0625, -0.21875, 0.0
852, 0.14774114774114774, 1.1452991452991452, 4.759462759462759, -1.59375, 0.0, -0.25, 0.0
853, 0.20024420024420025, 0.8437118437118437, 4.442002442002442, -1.3125, -0.21875, -0.25, 0.0
854, -0.045177045177045176, 0.568986568986569, 3.741147741147741, -1.25, -0.40625, -0.28125, 0.0
855, -0.4993894993894994, 1.2686202686202686, 3.5067155067155067, -1.09375, -0.28125, -0.25, 0.0
856, -0.6507936507936508, 1.6556776556776556, 3.57997557997558, -0.75, -0.0625, -0.21875, 0.0
857, -0.442002442002442, 1.1526251526251525, 3.3162393162393164, -0.40625, -0.09375, -0.25, 0.0
858, -0.17704517704517705, 0.1330891330891331, 2.7643467643467643, -0.1875, -0.28125, -0.21875, 0.0
859, 0.2771672771672772, -0.6471306471306472, 1.728937728937729, -0.375, -0.4375, -0.40625, 0.0
860, -0.978021978021978, 0.221001221001221, 1.5360195360195361, -0.4375, -0.15625, -0.40625, 0.0
861, -1.5604395604395604, 0.811965811965812, 1.7655677655677655, -0.09375, 0.03125, -0.3125, 0.0
862, -1.4932844932844933, 0.0, 1.3394383394383393, 0.1875, -0.03125, -0.1875, 0.0
863, -0.8608058608058609, -1.0488400488400489, 0.5152625152625152, 0.09375, -0.25, 0.09375, 0.0
864, 0.6043956043956044, -2.3443223443223444, -0.590964590964591, -0.53125, -0.53125, 0.0, 0.0
865, -0.8693528693528694, -1.5335775335775337, -1.188034188034188, -1.0, -0.0625, -0.03125, 0.0
866, -1.315018315018315, -0.7643467643467643, -0.6935286935286935, -0.9375, 0.53125, 0.0, 0.0
867, -0.5946275946275946, -0.5115995115995116, 0.5702075702075702, -0.53125, 0.53125, -0.0625, 0.0
868, -0.05982905982905983, -0.6434676434676435, 0.7680097680097681, -0.28125, 0.28125, 0.0, 0.0
869, 0.35653235653235654, -1.0927960927960927, 0.18681318681318682, -0.5, -0.125, 0.25, 0.0
870, -0.008547008547008548, -0.43345543345543347, -0.03907203907203907, -0.78125, -0.125, 0.25, 0.0
871, 0.04884004884004884, 0.09035409035409035, 1.05006105006105, -0.71875, 0.03125, 0.15625, 0.0
872, -0.057387057387057384, 0.36385836385836384, 1.4322344322344323, -0.3125, 0.03125, 0.03125, 0.0
873, 0.21855921855921856, -0.5543345543345544, 0.29426129426129427, 0.0, 0.0625, -0.125, 0.0
874, -0.645909645909646, -0.39438339438339437, -0.4139194139194139, -0.34375, 0.28125, -0.40625, 0.0
875, -0.24175824175824176, -0.0989010989010989, 0.43833943833943834, -0.625, 0.65625, -0.21875, 0.0
876, 0.42246642246642246, -0.2967032967032967, 1.3748473748473748, -0.40625, 0.3125, -0.03125, 1.0
877, -0.8571428571428571, -0.6031746031746031, 0.36996336996337, -0.25, -0.21875, -0.03125, 1.0
878, -0.8412698412698413, -1.1562881562881564, -0.9572649572649573, -0.4375, -0.03125, 0.0625, 1.0
879, -1.2246642246642248, -0.5995115995115995, -0.040293040293040296, -0.875, 0.375, 0.0, 1.0
880, -0.7692307692307693, -0.2576312576312576, 1.3663003663003663, -0.8125, 0.6875, 0.09375, 1.0
881, -0.5177045177045178, -0.46764346764346765, 2.681318681318681, -0.46875, 0.59375, 0.15625, 1.0
882, -0.34676434676434675, -0.47496947496947495, 4.073260073260073, -0.0625, 0.4375, 0.21875, 1.0
883, 0.3528693528693529, -0.7716727716727717, 5.054945054945055, 0.0, 0.28125, 0.4375, 1.0
884, -0.026862026862026864, -0.49694749694749696, 5.905982905982906, -0.15625, -0.09375, 0.59375, 1.0
885, -1.496947496947497, -0.19291819291819293, 5.304029304029304, -0.125, -0.09375, 0.5, 1.0
886, -2.36996336996337, 0.2661782661782662, 5.006105006105006, 0.09375, 0.59375, 0.40625, 1.0
887, -0.9975579975579976, 0.2893772893772894, 6.097680097680097, 0.5625, 0.96875, 0.625, 1.0
888, -0.326007326007326, -0.09768009768009768, 6.383394383394384, 0.90625, 0.53125, 0.8125, 1.0
889, -1.0732600732600732, -0.5225885225885226, 5.31013431013431, 0.8125, 0.03125, 0.96875, 1.0
890, -2.1465201465201464, -0.1855921855921856, 5.101343101343101, 0.625, 0.1875, 0.8125, 1.0
891, -2.7191697191697193, -0.22344322344322345, 5.084249084249084, 0.96875, 0.75, 0.75, 1.0
892, -2.2295482295482296, -1.0964590964590966, 4.256410256410256, 1.1875, 1.0625, 1.09375, 1.0
893, -1.2087912087912087, -2.7594627594627594, 3.0463980463980462, 0.5625, 0.875, 1.40625, 1.0
894, 0.30036630036630035, -4.64957264957265, 2.1868131868131866, -0.25, -0.09375, 1.3125, 1.0
895, -0.221001221001221, -3.8998778998779, 1.164835164835165, -0.53125, -0.03125, 1.09375, 1.0
896, -1.2503052503052503, -3.6837606837606836, -0.02442002442002442, -0.78125, 0.5, 1.21875, 1.0
897, 0.10256410256410256, -4.761904761904762, -0.6349206349206349, -1.5625, 0.3125, 0.9375, 1.0
898, 1.6153846153846154, -3.884004884004884, 0.11843711843711843, -1.53125, -0.78125, 0.5625, 1.0
899, -0.2796092796092796, -1.7997557997557998, -1.910866910866911, -0.15625, -0.53125, 0.4375, 1.0
900, -1.3894993894993894, -2.9865689865689866, -4.590964590964591, 0.375, 0.65625, 0.5625, 1.0
901, 0.2905982905982906, -3.877899877899878, -5.6007326007326, -0.59375, 0.78125, 0.34375, 1.0
902, 1.4835164835164836, -0.7912087912087912, -2.9096459096459095, -0.53125, -0.21875, 0.0, 1.0
903, -0.40293040293040294, -0.2686202686202686, -2.1184371184371185, 0.21875, -0.71875, 0.0, 1.0
904, -2.0378510378510377, -3.0891330891330893, -4.175824175824176, -0.03125, -0.1875, 0.34375, 1.0
905, 0.10256410256410256, -3.797313797313797, -4.8388278388278385, -0.65625, -0.15625, 0.15625, 1.0
906, 0.6923076923076923, 0.796092796092796, -2.761904761904762, 0.34375, -0.75, -0.03125, 1.0
907, -1.844932844932845, -1.4896214896214897, -4.727716727716728, 1.15625, -0.5, 0.75, 1.0
908, 1.3907203907203907, -2.249084249084249, -6.857142857142857, 0.75, -0.5, 1.09375, 1.0
909, 3.2979242979242978, -0.9401709401709402, -7.401709401709402, 0.34375, -1.09375, 0.65625, 1.0
910, 1.7411477411477412, 1.1526251526251525, -7.13919413919414, 0.53125, -0.9375, 0.4375, 1.0
911, 1.3540903540903542, 0.5555555555555556, -6.528693528693529, 0.53125, -0.59375, 0.21875, 1.0
912, -0.0927960927960928, -0.08547008547008547, -5.203907203907204, -0.15625, -0.375, -0.03125, 1.0
913, -1.5897435897435896, 2.8754578754578755, -2.056166056166056, -0.15625, -0.28125, 0.0625, 1.0
914, -1.8608058608058609, 1.8547008547008548, -1.2991452991452992, 0.0625, -0.3125, 0.53125, 1.0
915, 0.3308913308913309, 1.1562881562881564, -1.0036630036630036, 0.125, -0.40625, 0.65625, 1.0
916, 1.380952380952381, -0.6092796092796092, -1.9853479853479854, -0.03125, -0.28125, 0.15625, 1.0
917, 1.0634920634920635, -0.14407814407814407, -1.910866910866911, -0.21875, 0.0, -0.0625, 1.0
918, 1.0634920634920635, 0.03540903540903541, -1.3137973137973138, -0.15625, 0.1875, 0.0625, 1.0
919, 0.9804639804639804, -1.137973137973138, -1.551892551892552, -0.21875, 0.15625, 0.09375, 1.0
920, 0.8107448107448108, -1.404151404151404, -1.3601953601953602, -0.375, 0.1875, 0.0625, 1.0
921, 0.10866910866910867, -1.3162393162393162, -1.216117216117216, -0.5, 0.34375, 0.0, 1.0
922, -0.057387057387057384, -0.5079365079365079, -0.5982905982905983, -0.5625, 0.53125, 0.03125, 1.0
923, 0.9755799755799756, -0.9816849816849816, -0.9536019536019537, -0.40625, 0.46875, 0.03125, 0.0
924, 0.115995115995116, 0.054945054945054944, -1.1660561660561661, -0.34375, -0.0625, 0.125, 0.0
925, -0.09768009768009768, 0.08547008547008547, -1.7704517704517704, -0.03125, -0.1875, 0.28125, 0.0
926, -0.8803418803418803, -0.4652014652014652, -2.816849816849817, 0.125, 0.0625, 0.34375, 0.0
927, -0.5262515262515263, 0.17704517704517705, -2.6605616605616604, 0.21875, 0.65625, 0.28125, 0.0
928, 1.2551892551892552, -0.5409035409035409, -2.687423687423687, 0.65625, 1.03125, 0.03125, 0.0
929, 0.8241758241758241, -1.1391941391941391, -3.5213675213675213, 0.5625, 0.5625, -0.15625, 0.0
930, -0.6043956043956044, 0.21123321123321123, -3.5750915750915753, 0.34375, 0.25, -0.0625, 0.0
931, -0.17582417582417584, 0.5177045177045178, -3.816849816849817, 0.59375, 0.40625, 0.25, 0.0
932, 0.004884004884004884, 0.15995115995115994, -4.0647130647130645, 0.9375, 0.46875, 0.5, 0.0
933, 0.08547008547008547, -0.4346764346764347, -4.277167277167277, 1.28125, 0.4375, 0.375, 0.0
934, 0.16483516483516483, -1.6593406593406594, -4.5396825396825395, 1.375, 0.4375, 0.03125, 0.0
935, 0.5811965811965812, -2.57997557997558, -4.671550671550672, 0.96875, 0.4375, -0.375, 0.0
936, -0.33577533577533575, -1.8986568986568986, -4.156288156288157, 0.0625, 0.0, -0.125, 0.0
937, -0.9474969474969475, -0.8437118437118437, -2.9279609279609278, -0.25, 0.03125, 0.0, 0.0
938, -0.2454212454212454, -1.1672771672771673, -2.515262515262515, 0.03125, 0.25, 0.0, 0.0
939, 0.11233211233211234, -1.768009768009768, -1.6324786324786325, 0.46875, 0.28125, 0.0, 0.0
940, 0.7338217338217338, -2.318681318681319, -0.5286935286935287, 0.75, 0.15625, -0.1875, 0.0
941, 1.3382173382173381, -3.012210012210012, 0.2087912087912088, 0.84375, -0.125, -0.46875, 0.0
942, 1.1135531135531136, -3.231990231990232, 0.46764346764346765, 0.75, -0.71875, -0.5, 0.0
943, 0.5506715506715507, -2.802197802197802, 1.2808302808302807, 0.5625, -1.125, -0.625, 0.0
944, -0.028083028083028084, -2.1025641025641026, 2.5067155067155067, 0.125, -0.78125, -0.71875, 0.0
945, 0.17338217338217338, -1.177045177045177, 3.57997557997558, -0.03125, -0.53125, -0.84375, 0.0
946, 1.0183150183150182, -1.2039072039072038, 4.3638583638583635, 0.0625, -0.8125, -0.9375, 0.0
947, 1.4090354090354091, -1.2747252747252746, 4.170940170940171, 0.34375, -1.3125, -1.03125, 0.0
948, 0.5225885225885226, -0.1514041514041514, 3.7387057387057387, 0.59375, -1.5, -1.28125, 0.0
949, -1.0488400488400489, 0.57997557997558, 2.47008547008547, 0.46875, -1.125, -1.5, 0.0
950, -1.1196581196581197, 0.17582417582417584, 1.332112332112332, -0.03125, -0.6875, -1.46875, 0.0
951, -1.0695970695970696, -0.36507936507936506, 0.5518925518925519, -0.875, -0.5, -1.53125, 0.0
952, -1.927960927960928, 0.5372405372405372, 1.1611721611721613, -1.25, -0.09375, -1.09375, 0.0
953, -0.9438339438339438, 0.3540903540903541, 1.4725274725274726, -1.65625, -0.03125, -0.6875, 0.0
954, -0.8278388278388278, 0.4554334554334554, 1.8571428571428572, -1.875, -0.125, -0.5625, 0.0
955, -0.8217338217338217, 0.9645909645909646, 2.68986568986569, -1.5, -0.21875, -0.34375, 0.0
956, -0.518925518925519, 1.2124542124542124, 3.3724053724053724, -0.84375, -0.46875, -0.21875, 0.0
957, -0.2905982905982906, 1.1086691086691087, 2.9255189255189253, -0.34375, -0.59375, -0.0625, 0.0
958, 0.2515262515262515, 0.5323565323565324, 2.1245421245421245, -0.34375, -0.53125, 0.0, 0.0
959, 0.8864468864468864, 0.3626373626373626, 1.9743589743589745, -0.59375, -0.34375, -0.03125, 0.0
960, 0.7228327228327228, 0.6239316239316239, 2.340659340659341, -0.6875, -0.15625, -0.15625, 0.0
961, 0.14652014652014653, 0.20512820512820512, 1.94993894993895, -0.5, -0.1875, -0.1875, 0.0
962, -0.1452991452991453, -0.32112332112332115, 1.2991452991452992, -0.34375, -0.28125, -0.1875, 0.0
963, -0.1746031746031746, -0.6288156288156288, 0.5396825396825397, -0.46875, -0.25, -0.15625, 0.0
964, 0.2661782661782662, -1.5934065934065933, -0.5409035409035409, -1.03125, 0.0, -0.1875, 0.0
965, 0.2905982905982906, -1.63003663003663, -0.6410256410256411, -1.53125, 0.375, -0.15625, 0.0
966, -0.15995115995115994, -0.5482295482295483, 0.5982905982905983, -1.25, 0.5, -0.0625, 0.0
967, 0.08913308913308914, 0.1330891330891331, 1.4847374847374848, -0.375, 0.15625, -0.1875, 0.0
968, -1.5421245421245422, 0.3614163614163614, 0.49206349206349204, -0.125, 0.25, -0.28125, 0.0
969, -1.293040293040293, 0.20512820512820512, 0.3162393162393162, -0.3125, 0.53125, -0.09375, 0.0
970, -0.3553113553113553, -0.08180708180708181, 1.2844932844932846, -0.5625, 0.59375, 0.09375, 0.0
971, 0.29304029304029305, -0.22954822954822954, 1.9511599511599511, -0.65625, 0.28125, 0.3125, 0.0
972, 0.32234432234432236, -0.6214896214896215, 1.7057387057387057, -0.5, -0.15625, 0.375, 0.0
973, -0.1807081807081807, -0.7423687423687424, 0.8388278388278388, -0.46875, -0.28125, 0.3125, 0.0
974, -0.1452991452991453, -0.8791208791208791, 0.6471306471306472, -0.5, 0.09375, 0.25, 0.0
975, 0.8376068376068376, -1.393162393162393, 0.6178266178266179, -0.5, 0.34375, 0.25, 0.0
976, 1.0085470085470085, -1.3443223443223444, 0.5433455433455433, -0.40625, 0.15625, 0.21875, 0.0
977, 0.33577533577533575, -1.0402930402930404, 0.2893772893772894, -0.21875, -0.03125, 0.125, 0.0
978, 0.028083028083028084, -1.0293040293040292, -0.20512820512820512, -0.09375, 0.03125, 0.0, 0.0
979, -0.46764346764346765, -0.4932844932844933, -0.3894993894993895, -0.125, 0.28125, -0.0625, 0.0
980, -0.04151404151404151, -0.221001221001221, 0.23443223443223443, -0.0625, 0.46875, 0.0, 0.0
981, 0.0927960927960928, -0.029304029304029304, 0.6703296703296703, 0.0, 0.3125, 0.0, 1.0
982, 0.5970695970695971, -0.8766788766788767, 0.4175824175824176, 0.1875, 0.03125, 0.0, 1.0
983, 0.029304029304029304, -0.34065934065934067, 0.3199023199023199, 0.125, -0.09375, -0.25, 1.0
984, -0.5335775335775336, -0.3247863247863248, -0.11965811965811966, -0.03125, 0.09375, -0.125, 1.0
985, -0.28815628815628813, -0.4908424908424908, 0.1111111111111111, -0.59375, 0.40625, 0.0625, 1.0
986, -0.013431013431013432, -0.2148962148962149, 1.575091575091575, -1.09375, 0.4375, 0.28125, 1.0
987, 0.37362637362637363, 0.34676434676434675, 3.6849816849816848, -0.9375, 0.1875, 0.34375, 1.0
988, -0.3418803418803419, -0.014652014652014652, 4.233211233211233, -0.125, -0.25, 0.21875, 1.0
989, -1.0598290598290598, -0.2967032967032967, 4.0927960927960925, 0.21875, 0.0, 0.0, 1.0
990, -1.343101343101343, 0.018315018315018316, 4.981684981684982, 0.40625, 0.71875, -0.0625, 1.0
991, 0.08058608058608059, -0.14163614163614163, 6.108669108669108, 0.25, 0.6875, 0.46875, 1.0
992, -0.48717948717948717, 0.8156288156288156, 6.645909645909646, 0.4375, 0.0, 0.625, 1.0
993, -2.9267399267399266, 1.5384615384615385, 5.989010989010989, 1.0625, 0.375, 0.6875, 1.0
994, -3.4346764346764345, 1.3687423687423688, 5.94017094017094, 1.625, 1.375, 0.75, 1.0
995, -1.3052503052503053, 0.08302808302808302, 6.542124542124542, 1.5625, 1.5625, 0.96875, 1.0
996, 0.7887667887667887, -1.1721611721611722, 5.382173382173383, 1.0, 0.5, 1.03125, 1.0
997, -1.3186813186813187, -0.2612942612942613, 3.312576312576313, 0.625, -0.0625, 1.03125, 1.0
998, -4.028083028083028, -0.4517704517704518, 1.3992673992673992, 0.25, 0.71875, 1.0, 1.0
999, -3.1086691086691087, -1.4407814407814408, 1.2747252747252746, -0.03125, 1.46875, 1.3125, 1.0
1000, 2.0, -3.8547008547008548, 1.6007326007326008, -0.46875, 0.0625, 1.59375, 1.0
1001, 1.2173382173382172, -2.901098901098901, 1.1697191697191698, -0.5625, -1.15625, 1.03125, 1.0
1002, -3.758241758241758, -2.7643467643467643, -1.021978021978022, -0.875, -0.125, 1.0625, 1.0
1003, -3.547008547008547, -2.786324786324786, -1.6324786324786325, -1.46875, 1.0625, 1.375, 1.0
1004, 2.086691086691087, -2.3272283272283274, -0.5091575091575091, -1.21875, 0.0, 1.0625, 1.0
1005, 3.590964590964591, -2.5982905982905984, -1.2722832722832722, -0.375, -1.53125, 0.0, 1.0
1006, -1.8461538461538463, -3.4444444444444446, -4.700854700854701, -0.75, -0.625, -0.09375, 1.0
1007, -1.844932844932845, -2.3492063492063493, -4.968253968253968, -1.46875, 0.46875, 0.15625, 1.0
1008, 0.4713064713064713, 0.18925518925518925, -2.2954822954822953, -1.375, 0.0, -0.125, 1.0
1009, 0.23809523809523808, 1.2393162393162394, -1.028083028083028, -0.03125, -0.75, 0.09375, 1.0
1010, -0.4835164835164835, -2.778998778998779, -4.565323565323565, 0.15625, -0.09375, 0.375, 1.0
1011, 1.6312576312576312, -3.94993894993895, -5.286935286935287, -0.90625, 0.125, 0.21875, 1.0
1012, 1.2124542124542124, 1.0073260073260073, -2.741147741147741, -0.65625, -0.5, -0.21875, 1.0
1013, 0.05982905982905983, 0.7326007326007326, -1.5897435897435896, 0.84375, -0.75, 0.09375, 1.0
1014, 0.03540903540903541, -2.3956043956043955, -4.7313797313797314, 0.9375, -0.46875, 0.5625, 1.0
1015, 2.484737484737485, -2.5213675213675213, -5.897435897435898, 0.53125, -0.84375, 0.03125, 1.0
1016, 1.2625152625152625, -0.7680097680097681, -6.511599511599512, 0.65625, -0.5625, 0.09375, 1.0
1017, 2.114774114774115, -0.575091575091575, -6.094017094017094, 0.59375, -0.15625, -0.0625, 1.0
1018, 0.08424908424908426, 0.43345543345543347, -4.857142857142857, 0.09375, -0.15625, -0.59375, 1.0
1019, -1.8205128205128205, 2.238095238095238, -2.9963369963369964, -0.3125, 0.09375, -0.40625, 1.0
1020, -0.8901098901098901, 1.9096459096459097, -0.9426129426129426, -0.15625, 0.28125, -0.09375, 1.0
1021, -0.8278388278388278, 0.9328449328449329, -0.5347985347985348, 0.0, 0.09375, 0.0, 1.0
1022, -1.431013431013431, -0.09523809523809523, -1.413919413919414, 0.03125, 0.0, 0.15625, 1.0
1023, -0.06227106227106227, -0.26373626373626374, -1.2637362637362637, -0.28125, 0.1875, 0.125, 1.0
1024, -0.0927960927960928, 0.3052503052503053, -0.3235653235653236, -0.4375, 0.03125, 0.125, 1.0
1025, 0.40293040293040294, -0.6117216117216118, -0.13553113553113552, -0.0625, 0.03125, 0.1875, 1.0
1026, 0.3833943833943834, -1.0903540903540903, -0.4981684981684982, 0.0625, 0.0, 0.15625, 1.0
1027, 0.3528693528693529, -1.514041514041514, -1.2246642246642248, 0.0625, 0.0, 0.0, 1.0
1028, 0.10500610500610501, -0.7094017094017094, -2.1648351648351647, -0.125, 0.09375, -0.125, 1.0
1029, 0.9352869352869353, -0.6568986568986569, -2.8290598290598292, -0.1875, 0.46875, -0.03125, 0.0
1030, 1.376068376068376, -0.7814407814407814, -3.098901098901099, -0.375, 0.5, -0.0625, 0.0
1031, 0.7326007326007326, 0.10744810744810745, -3.076923076923077, -0.375, 0.3125, 0.0, 0.0
1032, -0.24664224664224665, 0.652014652014652, -3.4481074481074483, -0.0625, 0.28125, 0.21875, 0.0
1033, -0.33943833943833945, 1.1452991452991452, -3.9474969474969477, 0.4375, 0.3125, 0.5, 0.0
1034, -0.612942612942613, 0.7680097680097681, -4.663003663003663, 1.125, 0.40625, 0.96875, 0.0
1035, 0.05372405372405373, -1.921855921855922, -6.256410256410256, 1.4375, 0.75, 1.0625, 0.0
1036, 1.5262515262515262, -2.010989010989011, -6.465201465201465, 0.78125, 0.78125, 0.59375, 0.0
1037, 0.3028083028083028, -0.6898656898656899, -5.258852258852259, 0.34375, 0.40625, 0.25, 0.0
1038, -0.3968253968253968, 0.27594627594627597, -3.815628815628816, 0.65625, 0.34375, 0.125, 0.0
1039, -0.2869352869352869, -1.2075702075702075, -3.1135531135531136, 1.5625, 0.5, 0.0625, 0.0
1040, 0.3797313797313797, -3.744810744810745, -3.757020757020757, 1.1875, 1.15625, -0.625, 0.0
1041, 1.26007326007326, -3.442002442002442, -3.346764346764347, 0.125, 0.90625, -0.90625, 0.0
1042, 0.4468864468864469, -1.9731379731379732, -1.8632478632478633, -0.53125, 0.375, -1.03125, 0.0
1043, -0.5433455433455433, -1.1135531135531136, -0.8070818070818071, -0.5625, 0.0, -0.875, 0.0
1044, -0.9560439560439561, -0.525030525030525, 0.14041514041514042, -0.15625, -0.09375, -0.6875, 0.0
1045, -1.347985347985348, -0.6031746031746031, 0.9157509157509157, 0.0625, 0.0, -0.4375, 0.0
1046, -0.3089133089133089, -1.2478632478632479, 1.1489621489621489, 0.28125, -0.125, -0.25, 0.0
1047, 0.23565323565323565, -1.5653235653235653, 1.8888888888888888, 0.40625, -0.40625, -0.40625, 0.0
1048, 0.4993894993894994, -1.9645909645909645, 2.227106227106227, 0.21875, -0.71875, -0.46875, 0.0
1049, 0.16117216117216118, -1.304029304029304, 2.7374847374847375, 0.15625, -0.8125, -0.5625, 0.0
1050, 0.06471306471306472, -1.1037851037851039, 2.832722832722833, 0.1875, -0.8125, -0.53125, 0.0
1051, 1.1733821733821734, -1.9145299145299146, 2.717948717948718, 0.0, -1.03125, -0.59375, 0.0
1052, 1.188034188034188, -1.4188034188034189, 2.590964590964591, -0.40625, -1.15625, -0.96875, 0.0
1053, -0.0927960927960928, -0.05372405372405373, 3.1355311355311355, -0.3125, -0.75, -1.0, 0.0
1054, -0.24664224664224665, 0.16483516483516483, 2.912087912087912, -0.0625, -0.25, -0.875, 0.0
1055, 0.31868131868131866, -0.23321123321123322, 2.5409035409035408, -0.28125, -0.0625, -0.71875, 0.0
1056, 0.4725274725274725, -0.22954822954822954, 2.15995115995116, -0.65625, -0.21875, -0.75, 0.0
1057, 0.27350427350427353, -0.4590964590964591, 1.9792429792429793, -0.9375, -0.5625, -0.71875, 0.0
1058, 0.10866910866910867, -0.27350427350427353, 2.120879120879121, -1.125, -0.75, -0.53125, 0.0
1059, -0.05860805860805861, 0.21001221001221002, 2.340659340659341, -1.25, -0.65625, -0.4375, 0.0
1060, -0.5543345543345544, 0.8424908424908425, 2.6117216117216118, -1.21875, -0.5, -0.53125, 0.0
1061, -1.5164835164835164, 1.6398046398046398, 2.7252747252747254, -0.84375, -0.15625, -0.71875, 0.0
1062, -1.8363858363858363, 1.7338217338217339, 2.778998778998779, -0.40625, 0.15625, -0.6875, 0.0
1063, -1.4029304029304028, 1.2722832722832722, 2.63003663003663, -0.1875, 0.21875, -0.46875, 0.0
1064, -0.6654456654456654, 0.39316239316239315, 2.0634920634920637, -0.53125, -0.15625, -0.28125, 0.0
1065, -1.9267399267399268, 0.1855921855921856, 1.3894993894993894, -0.78125, -0.3125, -0.21875, 0.0
1066, -1.7875457875457876, 0.8217338217338217, 1.6349206349206349, -0.625, 0.0625, -0.0625, 0.0
1067, -0.31013431013431014, -0.2698412698412698, 1.7094017094017093, -0.375, 0.0625, 0.0625, 0.0
1068, 0.02564102564102564, -0.398046398046398, 1.534798534798535, -0.34375, -0.34375, 0.25, 0.0
1069, -0.08180708180708181, -0.37362637362637363, 1.0634920634920635, -0.40625, -0.5625, 0.375, 0.0
1070, -0.5042735042735043, -0.23565323565323565, 0.7802197802197802, -0.53125, -0.4375, 0.375, 0.0
1071, -0.4432234432234432, -0.26373626373626374, 0.7997557997557998, -0.46875, -0.125, 0.34375, 0.0
1072, -0.1562881562881563, -0.4432234432234432, 0.9743589743589743, -0.3125, 0.09375, 0.1875, 0.0
1073, 0.7411477411477412, -1.3601953601953602, 0.4236874236874237, -0.3125, 0.125, 0.1875, 0.0
1074, 0.7411477411477412, -1.4932844932844933, -0.1623931623931624, -0.59375, -0.03125, 0.15625, 0.0
1075, 0.4896214896214896, -0.8888888888888888, 0.1794871794871795, -0.71875, -0.09375, 0.1875, 0.0
1076, -0.09645909645909646, -0.17216117216117216, 0.7680097680097681, -0.53125, -0.0625, 0.15625, 0.0
1077, -0.31746031746031744, 0.1794871794871795, 0.8913308913308914, -0.09375, 0.0625, 0.03125, 0.0
1078, -0.3308913308913309, -0.3907203907203907, -0.16727716727716727, 0.125, 0.1875, -0.125, 0.0
1079, -0.4981684981684982, -0.4297924297924298, -0.7838827838827839, -0.0625, 0.34375, -0.1875, 0.0
1080, 0.40415140415140416, -0.8168498168498168, -0.3052503052503053, -0.375, 0.40625, -0.21875, 1.0
1081, -0.29426129426129427, -1.0024420024420024, -0.6398046398046398, -0.78125, 0.21875, -0.6875, 1.0
1082, -0.6446886446886447, 0.13797313797313798, 0.7851037851037851, -0.8125, 0.5625, -0.53125, 1.0
1083, 0.5042735042735043, -1.0231990231990231, 0.5921855921855922, -0.6875, 0.15625, 0.0, 1.0
1084, -0.7142857142857143, 0.38461538461538464, 1.5238095238095237, -0.96875, -0.03125, 0.125, 1.0
1085, -0.8327228327228328, 0.5641025641025641, 2.6825396825396823, -0.6875, 0.15625, 0.3125, 1.0
1086, -0.17338217338217338, 0.663003663003663, 4.163614163614164, -0.34375, 0.1875, 0.3125, 1.0
1087, -0.4884004884004884, 0.18192918192918192, 4.285714285714286, -0.03125, -0.09375, 0.25, 1.0
1088, -0.8547008547008547, 0.3663003663003663, 4.437118437118437, 0.0, 0.0, 0.21875, 1.0
1089, -1.0476190476190477, 0.057387057387057384, 4.1892551892551895, -0.0625, 0.15625, 0.4375, 1.0
1090, -1.4786324786324787, 0.4249084249084249, 4.652014652014652, 0.21875, 0.625, 0.4375, 1.0
1091, -0.8754578754578755, -0.38461538461538464, 5.239316239316239, 0.65625, 0.65625, 0.46875, 1.0
1092, -0.6556776556776557, -1.0305250305250304, 4.6129426129426125, 0.6875, 0.46875, 0.6875, 1.0
1093, -0.6642246642246642, -0.7326007326007326, 4.496947496947497, 0.625, 0.1875, 0.875, 1.0
1094, -1.332112332112332, 0.042735042735042736, 4.9072039072039075, 0.84375, 0.4375, 0.8125, 1.0
1095, -2.282051282051282, 0.15262515262515264, 3.6666666666666665, 1.0625, 1.0625, 0.75, 1.0
1096, -2.365079365079365, -0.10622710622710622, 2.6764346764346763, 1.15625, 1.1875, 0.90625, 1.0
1097, -1.94993894993895, -0.8693528693528694, 2.1245421245421245, 0.65625, 0.9375, 1.21875, 1.0
1098, -1.4493284493284493, -1.702075702075702, 1.1697191697191698, -0.09375, 0.71875, 1.4375, 1.0
1099, -1.5934065934065933, -2.0805860805860807, 0.23076923076923078, -0.71875, 0.8125, 1.40625, 1.0
1100, -0.8522588522588522, -0.8937728937728938, 1.1538461538461537, -0.40625, 0.53125, 1.375, 1.0
1101, 0.23076923076923078, -1.8461538461538463, 1.3272283272283272, -0.1875, -0.0625, 1.25, 1.0
1102, 0.6312576312576312, -4.238095238095238, 0.1575091575091575, -0.96875, -0.34375, 1.125, 1.0
1103, 1.807081807081807, -5.295482295482295, -1.404151404151404, -1.65625, -0.375, 0.75, 1.0
1104, 1.4065934065934067, -2.330891330891331, -0.4163614163614164, -1.0625, -0.25, 0.3125, 1.0
1105, -0.11233211233211234, -1.0048840048840049, 0.10989010989010989, -0.1875, 0.21875, 0.0, 1.0
1106, -0.7985347985347986, -2.9096459096459095, -0.557997557997558, -0.46875, 0.28125, -0.09375, 1.0
1107, -0.8901098901098901, -4.478632478632479, -1.9523809523809523, -1.75, 0.0625, -0.3125, 1.0
1108, -0.315018315018315, 0.9194139194139194, 0.3711843711843712, -0.78125, -0.4375, -0.59375, 1.0
1109, -2.8205128205128207, 0.8241758241758241, 0.018315018315018316, 0.75, -0.40625, -0.1875, 1.0
1110, -3.31013431013431, -2.7387057387057387, -2.8547008547008548, 0.375, 0.0625, 0.25, 1.0
1111, 0.05616605616605617, -3.2332112332112333, -4.153846153846154, -0.5, -0.28125, 0.0625, 1.0
1112, 1.1916971916971917, 0.14285714285714285, -6.652014652014652, -0.09375, -0.84375, -0.09375, 1.0
1113, 0.48473748473748474, -1.0451770451770452, -7.581196581196581, 0.125, 0.0, 0.28125, 1.0
1114, 2.862026862026862, -0.5286935286935287, -5.063492063492063, -0.09375, -0.03125, 0.125, 1.0
1115, 1.321123321123321, 0.9499389499389499, -4.042735042735043, 0.28125, -0.34375, -0.125, 1.0
1116, 0.9633699633699634, -0.17338217338217338, -4.614163614163614, 0.625, -0.3125, -0.0625, 1.0
1117, 1.0805860805860805, 0.19047619047619047, -4.355311355311355, 0.5625, -0.34375, -0.09375, 1.0
1118, 0.47985347985347987, 0.3199023199023199, -4.2344322344322345, 0.4375, -0.375, -0.1875, 1.0
1119, -0.2612942612942613, 1.216117216117216, -3.081807081807082, 0.46875, -0.34375, -0.34375, 1.0
1120, -1.7118437118437118, 0.7313797313797313, -3.0586080586080584, 0.46875, -0.25, -0.34375, 1.0
1121, -0.9328449328449329, 0.8644688644688645, -1.6666666666666667, 0.21875, -0.0625, -0.1875, 1.0
1122, -0.5286935286935287, 0.23565323565323565, -1.1123321123321124, 0.0625, -0.21875, 0.0, 1.0
1123, -0.49572649572649574, 0.04884004884004884, -1.0915750915750915, 0.03125, -0.375, 0.0, 1.0
1124, -0.4627594627594628, -0.09768009768009768, -1.3907203907203907, 0.0, -0.28125, 0.125, 1.0
1125, 0.2698412698412698, -0.6178266178266179, -1.5653235653235653, -0.125, 0.0, 0.125, 1.0
1126, 1.1355311355311355, -0.28327228327228327, -0.8302808302808303, -0.3125, 0.125, 0.125, 1.0
1127, 1.398046398046398, -0.3956043956043956, -0.6923076923076923, -0.21875, 0.0625, 0.03125, 1.0
1128, 0.9621489621489622, -0.11477411477411477, -1.4151404151404152, -0.125, 0.03125, -0.0625, 1.0
1129, 0.5128205128205128, -0.06349206349206349, -2.4432234432234434, -0.0625, 0.15625, 0.0, 0.0
1130, 0.8449328449328449, -0.40415140415140416, -3.363858363858364, -0.1875, 0.71875, 0.0, 0.0
1131, 2.208791208791209, -0.5457875457875457, -3.857142857142857, -0.28125, 1.125, -0.28125, 0.0
1132, 1.1184371184371185, 0.05128205128205128, -4.083028083028083, -0.375, 1.03125, -0.59375, 0.0
1133, 0.17338217338217338, 0.8656898656898657, -4.576312576312576, -0.28125, 0.9375, -0.59375, 0.0
1134, -1.1233211233211233, 0.23565323565323565, -6.095238095238095, -0.28125, 0.8125, 0.125, 0.0
1135, -0.17582417582417584, -0.4542124542124542, -5.760683760683761, -0.53125, 1.34375, 0.6875, 0.0
1136, 1.3748473748473748, -0.1916971916971917, -4.390720390720391, -0.8125, 1.53125, 0.65625, 0.0
1137, 0.7875457875457875, 0.9694749694749695, -3.199023199023199, -0.65625, 1.125, 0.25, 0.0
1138, 0.47985347985347987, 1.6459096459096458, -2.761904761904762, 0.59375, 0.625, 0.03125, 0.0
1139, 1.2014652014652014, 1.2967032967032968, -2.3907203907203907, 1.6875, 0.1875, 0.0625, 0.0
1140, 1.6752136752136753, 0.047619047619047616, -2.062271062271062, 2.46875, -0.3125, 0.0, 0.0
1141, 1.1343101343101343, -3.0256410256410255, -2.862026862026862, 2.53125, -0.34375, -0.78125, 0.0
1142, 1.0366300366300367, -2.802197802197802, -2.184371184371184, 2.25, -0.375, -1.21875, 0.0
1143, -0.6532356532356532, -1.1672771672771673, -1.1965811965811965, 2.03125, -0.5625, -0.4375, 0.0
1144, -1.0036630036630036, -1.1391941391941391, 0.07081807081807082, 1.8125, -0.65625, 0.125, 0.0
1145, 0.409035409035409, -1.9755799755799757, 0.8547008547008547, 1.4375, -0.96875, 0.15625, 0.0
1146, 0.8083028083028083, -2.822954822954823, 0.5982905982905983, 0.75, -1.21875, -0.28125, 0.0
1147, -0.358974358974359, -1.9377289377289377, 0.6141636141636142, 0.0, -0.96875, -0.5, 0.0
1148, -1.2527472527472527, -0.29181929181929184, 1.6923076923076923, -0.25, -0.375, -0.125, 0.0
1149, -0.5897435897435898, -0.08302808302808302, 2.1196581196581197, -0.1875, -0.03125, 0.03125, 0.0
1150, 1.1343101343101343, -1.507936507936508, 1.2905982905982907, -0.53125, -0.28125, -0.34375, 0.0
1151, 0.7973137973137974, -2.192918192918193, 0.4884004884004884, -1.625, -0.46875, -0.8125, 0.0
1152, 0.10500610500610501, -1.3772893772893773, 1.0805860805860805, -2.4375, -0.375, -0.75, 0.0
1153, -0.08302808302808302, -0.3199023199023199, 2.614163614163614, -2.25, -0.40625, -0.59375, 0.0
1154, 0.4249084249084249, 0.2612942612942613, 3.4932844932844933, -1.34375, -0.78125, -0.34375, 0.0
1155, 0.2857142857142857, 0.14407814407814407, 3.2124542124542126, -0.59375, -1.09375, -0.1875, 0.0
1156, -0.06227106227106227, -0.6398046398046398, 2.0744810744810747, -0.53125, -0.75, -0.46875, 0.0
1157, -0.9975579975579976, -0.10622710622710622, 1.5836385836385836, -0.75, -0.125, -0.625, 0.0
1158, -0.9291819291819292, 0.5152625152625152, 2.399267399267399, -0.59375, 0.21875, -0.46875, 0.0
1159, -0.013431013431013432, 0.28815628815628813, 2.9731379731379732, -0.21875, 0.0, -0.34375, 0.0
1160, -0.536019536019536, 0.003663003663003663, 2.4078144078144077, 0.03125, -0.15625, -0.4375, 0.0
1161, -1.2759462759462759, -0.0757020757020757, 1.3919413919413919, 0.125, 0.03125, -0.4375, 0.0
1162, -1.0964590964590966, -0.5873015873015873, 0.5372405372405372, -0.3125, 0.375, -0.6875, 0.0
1163, -1.1538461538461537, -0.009768009768009768, 1.205128205128205, -0.4375, 0.53125, -0.65625, 0.0
1164, -0.6398046398046398, -0.3443223443223443, 1.0390720390720392, -0.40625, 0.5, -0.34375, 0.0
1165, 0.02564102564102564, -0.5335775335775336, 1.249084249084249, -0.625, 0.21875, -0.0625, 0.0
1166, 0.0463980463980464, 0.17338217338217338, 2.2673992673992673, -0.9375, 0.09375, -0.03125, 0.0
1167, -0.17216117216117216, 1.3858363858363858, 3.6275946275946276, -0.90625, 0.34375, -0.0625, 0.0
1168, 0.18192918192918192, 1.308913308913309, 4.225885225885226, -0.40625, 0.5, -0.0625, 0.0
1169, 0.6019536019536019, 0.4065934065934066, 3.608058608058608, 0.1875, 0.25, 0.03125, 0.0
1170, 0.7777777777777778, -0.8278388278388278, 1.5763125763125763, 0.375, -0.28125, 0.09375, 0.0
1171, -0.2588522588522589, -0.5445665445665445, 0.18192918192918192, 0.0, -0.59375, 0.125, 0.0
1172, -0.15506715506715507, -0.8620268620268621, -0.3321123321123321, -0.375, -0.53125, 0.34375, 0.0
1173, 0.11721611721611722, -0.5848595848595849, 0.48473748473748474, -0.65625, -0.5, 0.3125, 0.0
1174, 0.03418803418803419, -0.23321123321123322, 1.4566544566544566, -0.53125, -0.375, 0.1875, 0.0
1175, 0.1330891330891331, -0.4126984126984127, 1.221001221001221, -0.34375, -0.1875, 0.0, 0.0
1176, -0.13553113553113552, -0.2844932844932845, 0.6788766788766789, -0.25, -0.09375, -0.125, 0.0
1177, -0.8241758241758241, 0.04884004884004884, 0.3772893772893773, -0.03125, -0.125, -0.21875, 0.0
1178, -1.1062271062271063, 0.12942612942612944, -0.13797313797313798, 0.125, -0.03125, -0.1875, 0.0
1179, -0.9536019536019537, -0.315018315018315, -0.8608058608058609, 0.09375, 0.125, -0.21875, 0.0
1180, -0.4908424908424908, -0.8315018315018315, -1.0952380952380953, -0.09375, 0.28125, -0.21875, 0.0
1181, 0.07692307692307693, -0.7008547008547008, -0.6043956043956044, -0.375, 0.21875, -0.09375, 0.0
1182, 0.21245421245421245, -0.39438339438339437, 0.07814407814407814, -0.5625, 0.09375, -0.15625, 0.0
1183, -0.17582417582417584, -0.0927960927960928, 0.18925518925518925, -0.4375, 0.0, -0.3125, 0.0
1184, -0.5946275946275946, -0.6361416361416361, -0.6153846153846154, -0.3125, 0.0625, -0.40625, 1.0
1185, -1.5238095238095237, 0.09645909645909646, -0.42002442002442003, -0.8125, 0.375, -0.4375, 1.0
1186, -0.42002442002442003, -0.22832722832722832, 0.47863247863247865, -1.125, 0.625, 0.125, 1.0
1187, 0.12087912087912088, -0.4175824175824176, 1.363858363858364, -1.5, -0.125, 0.28125, 1.0
1188, -1.078144078144078, 0.24297924297924298, 2.2808302808302807, -1.3125, -0.28125, 0.46875, 1.0
1189, -1.1037851037851039, 0.9010989010989011, 4.045177045177045, -0.5625, -0.1875, 0.53125, 1.0
1190, -1.26007326007326, 0.724053724053724, 4.796092796092796, 0.25, 0.03125, 0.4375, 1.0
1191, -1.3577533577533578, 0.050061050061050064, 3.978021978021978, 0.53125, 0.40625, 0.21875, 1.0
1192, -1.1343101343101343, -0.15506715506715507, 4.199023199023199, 0.65625, 0.59375, 0.15625, 1.0
1193, -0.5628815628815629, -0.11477411477411477, 4.5787545787545785, 0.59375, 0.5, 0.15625, 1.0
1194, -1.137973137973138, 0.014652014652014652, 4.208791208791209, 0.46875, 0.40625, 0.375, 1.0
1195, -1.6202686202686203, -0.33455433455433453, 3.387057387057387, 0.34375, 0.375, 0.5625, 1.0
1196, -1.8852258852258852, -0.007326007326007326, 3.7362637362637363, 0.65625, 0.28125, 0.84375, 1.0
1197, -1.9768009768009769, -0.35775335775335776, 4.069597069597069, 0.84375, 0.4375, 0.96875, 1.0
1198, -1.5848595848595848, -0.5494505494505495, 4.38949938949939, 0.625, 0.6875, 1.09375, 1.0
1199, -1.2393162393162394, -1.0818070818070817, 4.803418803418803, 0.15625, 0.8125, 1.125, 1.0
1200, -1.2661782661782661, -1.3907203907203907, 5.446886446886447, -0.3125, 0.90625, 1.1875, 1.0
1201, -0.4078144078144078, -0.9206349206349206, 6.64957264957265, 0.1875, 0.53125, 1.3125, 1.0
1202, -1.2197802197802199, -1.9597069597069596, 4.797313797313797, 0.78125, 0.40625, 1.5, 1.0
1203, -0.463980463980464, -4.227106227106227, 1.5396825396825398, 0.21875, 0.5, 1.625, 1.0
1204, -0.4993894993894994, -4.992673992673993, -0.08547008547008547, -1.15625, 0.59375, 1.25, 1.0
1205, 0.6971916971916972, -3.9645909645909647, 0.41025641025641024, -1.65625, 0.15625, 1.09375, 1.0
1206, 0.938949938949939, -3.722832722832723, -0.1330891330891331, -1.75, -0.46875, 0.84375, 1.0
1207, -1.1807081807081807, -2.452991452991453, -1.3821733821733821, -1.65625, -0.5, 0.75, 1.0
1208, -1.4554334554334554, -0.5006105006105006, -2.6605616605616604, -0.9375, -0.125, 0.9375, 1.0
1209, 1.037851037851038, 0.5641025641025641, -2.9157509157509156, 0.34375, -0.125, 1.0625, 1.0
1210, 2.1819291819291817, -2.4224664224664223, -3.7887667887667886, 0.46875, -0.4375, 0.65625, 1.0
1211, 0.8131868131868132, -2.2002442002442004, -3.8693528693528694, -0.125, -0.1875, 0.09375, 1.0
1212, 3.231990231990232, -1.5946275946275947, -6.697191697191697, 0.0, -0.34375, 0.1875, 1.0
1213, 2.4444444444444446, -1.2014652014652014, -6.641025641025641, -0.03125, -0.53125, 0.15625, 1.0
1214, 1.3076923076923077, -0.5628815628815629, -5.284493284493284, -0.15625, -0.1875, 0.0, 1.0
1215, 0.568986568986569, 0.11965811965811966, -3.8876678876678876, -0.09375, 0.0, 0.0625, 1.0
1216, 1.0036630036630036, 0.673992673992674, -3.2075702075702077, 0.15625, -0.1875, 0.125, 1.0
1217, 0.08180708180708181, -0.8095238095238095, -4.084249084249084, 0.5, -0.53125, 0.0, 1.0
1218, -0.6190476190476191, -0.13797313797313798, -4.05982905982906, 0.28125, -0.4375, 0.09375, 1.0
1219, 0.03418803418803419, -0.07203907203907203, -3.293040293040293, 0.34375, -0.09375, 0.1875, 1.0
1220, 0.9120879120879121, 0.4249084249084249, -3.133089133089133, 0.4375, -0.21875, 0.0625, 1.0
1221, -0.0757020757020757, 0.1343101343101343, -3.7887667887667886, 0.4375, -0.46875, -0.21875, 1.0
1222, -1.043956043956044, 0.2026862026862027, -3.6495726495726495, 0.1875, -0.375, -0.3125, 1.0
1223, -0.5763125763125763, 0.5714285714285714, -2.380952380952381, 0.0, -0.125, -0.28125, 1.0
1224, -1.4835164835164836, 1.4383394383394383, -1.3919413919413919, 0.0, -0.09375, -0.21875, 1.0
1225, -1.4151404151404152, 0.9206349206349206, -0.8351648351648352, 0.09375, -0.0625, 0.15625, 1.0
1226, -0.16971916971916973, -0.11355311355311355, -0.4981684981684982, 0.0625, -0.125, 0.4375, 1.0
1227, 0.2954822954822955, -0.6019536019536019, -0.8901098901098901, 0.0, -0.21875, 0.25, 1.0
1228, 0.5995115995115995, -0.48595848595848595, -1.1782661782661783, -0.15625, -0.09375, 0.0, 1.0
1229, 0.9865689865689866, 0.3125763125763126, -0.36752136752136755, -0.0625, -0.0625, 0.0, 1.0
1230, 0.9145299145299145, -0.12332112332112333, -0.6813186813186813, 0.0625, -0.09375, 0.21875, 1.0
1231, 1.010989010989011, -0.46642246642246643, -1.407814407814408, 0.03125, -0.03125, 0.375, 1.0
1232, 1.0732600732600732, -0.03907203907203907, -1.271062271062271, -0.0625, 0.03125, 0.375, 1.0
1233, 1.4383394383394383, 0.5006105006105006, -1.2112332112332111, 0.03125, 0.0, 0.5, 1.0
1234, 1.3919413919413919, 0.10744810744810745, -1.9975579975579976, 0.375, 0.03125, 0.53125, 0.0
1235, 0.8473748473748474, -1.9328449328449329, -4.467643467643468, 0.5, 0.375, -0.28125, 0.0
1236, 0.9938949938949939, -2.083028083028083, -5.442002442002442, -0.46875, 1.03125, -0.625, 0.0
1237, 0.42735042735042733, -0.17826617826617827, -5.278388278388278, -0.9375, 0.75, -0.03125, 0.0
1238, -0.503052503052503, 1.7802197802197801, -5.201465201465202, -0.46875, 1.09375, 0.59375, 0.0
1239, -0.026862026862026864, 1.910866910866911, -4.886446886446887, 0.3125, 1.3125, 1.28125, 0.0
1240, 1.3650793650793651, 0.3528693528693529, -4.424908424908425, 0.8125, 0.96875, 1.3125, 0.0
1241, 1.8913308913308913, -1.656898656898657, -4.174603174603175, 0.625, 0.21875, 0.6875, 0.0
