timestamp, accX, accY, gyroZ, button
926, 0.10134310134310134, -0.2954822954822955, 0.03125, 0.0
927, 0.05616605616605617, -0.2515262515262515, 0.0, 0.0
928, -0.06715506715506715, -0.2222222222222222, 0.0, 0.0
929, -0.07081807081807082, -0.08424908424908426, 0.0, 0.0
1, -0.07081807081807082, -0.05616605616605617, 0.03125, 0.0
2, -0.013431013431013432, -0.018315018315018316, 0.0, 0.0
3, -0.0231990231990232, -0.02442002442002442, 0.0, 0.0
4, 0.07203907203907203, -0.12698412698412698, 0.03125, 0.0
5, 0.05128205128205128, -0.11477411477411477, 0.0, 0.0
6, -0.12942612942612944, 0.03540903540903541, 0.0, 0.0
7, -0.03785103785103785, -0.014652014652014652, 0.0, 0.0
8, 0.007326007326007326, -0.030525030525030524, 0.0, 0.0
9, -0.12576312576312576, 0.015873015873015872, 0.0, 0.0
10, -0.1282051282051282, -0.03785103785103785, 0.03125, 0.0
11, -0.054945054945054944, -0.07081807081807082, 0.03125, 0.0
12, -0.1221001221001221, -0.002442002442002442, 0.03125, 0.0
13, -0.014652014652014652, -0.03663003663003663, 0.0625, 0.0
14, 0.014652014652014652, -0.03663003663003663, 0.0625, 0.0
15, 0.08424908424908426, -0.14896214896214896, 0.0625, 0.0
16, 0.11965811965811966, -0.12332112332112333, 0.03125, 0.0
17, 0.0, -0.047619047619047616, 0.03125, 0.0
18, -0.018315018315018316, -0.026862026862026864, 0.03125, 0.0
19, -0.03540903540903541, 0.017094017094017096, 0.03125, 0.0
20, -0.008547008547008548, -0.028083028083028084, 0.03125, 0.0
21, -0.006105006105006105, -0.03785103785103785, 0.03125, 0.0
22, 0.17704517704517705, -0.07081807081807082, 0.03125, 0.0
23, 0.3626373626373626, -0.05128205128205128, 0.0, 0.0
24, -0.2625152625152625, 0.09523809523809523, 0.0, 0.0
25, -0.1391941391941392, -0.052503052503052504, 0.0, 0.0
26, -0.14896214896214896, -0.05128205128205128, 0.0, 0.0
27, -0.1794871794871795, -0.09401709401709402, 0.03125, 0.0
28, 0.06349206349206349, -0.2686202686202686, 0.03125, 0.0
29, 0.0695970695970696, -0.18192918192918192, 0.03125, 0.0
30, -0.10866910866910867, -0.07448107448107448, 0.03125, 0.0
31, -0.02442002442002442, -0.05616605616605617, 0.0625, 0.0
32, 0.04395604395604396, -0.04151404151404151, 0.0625, 0.0
33, 0.0463980463980464, -0.015873015873015872, 0.0625, 0.0
34, -0.02564102564102564, -0.02197802197802198, 0.0625, 0.0
35, -0.026862026862026864, -0.026862026862026864, 0.0625, 0.0
36, 0.007326007326007326, -0.047619047619047616, 0.03125, 0.0
37, 0.030525030525030524, -0.06593406593406594, 0.03125, 0.0
38, -0.002442002442002442, -0.05128205128205128, 0.03125, 0.0
39, -0.1514041514041514, 0.04884004884004884, 0.03125, 0.0
40, -0.10989010989010989, 0.013431013431013432, 0.03125, 0.0
41, -0.001221001221001221, -0.052503052503052504, 0.0625, 0.0
42, 0.02197802197802198, -0.03663003663003663, 0.0625, 0.0
43, 0.015873015873015872, -0.03663003663003663, 0.0625, 0.0
44, -0.08791208791208792, 0.05372405372405373, 0.0625, 0.0
45, -0.14407814407814407, -0.015873015873015872, 0.0625, 0.0
46, -0.028083028083028084, -0.1111111111111111, 0.0625, 0.0
47, 0.02442002442002442, -0.1330891330891331, 0.09375, 0.0
48, 0.0695970695970696, -0.11233211233211234, 0.0625, 0.0
49, 0.08302808302808302, -0.12454212454212454, 0.03125, 0.0
50, -0.009768009768009768, -0.05372405372405373, 0.03125, 0.0
51, -0.02442002442002442, -0.01221001221001221, 0.03125, 0.0
52, -0.08302808302808302, 0.003663003663003663, 0.03125, 0.0
53, -0.028083028083028084, -0.05128205128205128, 0.0625, 0.0
54, -0.01098901098901099, -0.030525030525030524, 0.0625, 0.0
55, 0.0, -0.026862026862026864, 0.0625, 0.0
56, 0.04151404151404151, -0.057387057387057384, 0.0625, 0.0
57, 0.09035409035409035, -0.10378510378510379, 0.03125, 0.0
58, 0.0, -0.026862026862026864, 0.03125, 0.0
59, -0.013431013431013432, -0.004884004884004884, 0.03125, 0.0
60, -0.14652014652014653, -0.003663003663003663, 0.03125, 0.0
61, -0.03785103785103785, -0.042735042735042736, 0.03125, 0.0
62, -2.086691086691087, -1.0757020757020757, -1.53125, 0.0
63, -2.6324786324786325, -0.9194139194139194, -1.4375, 0.0
64, -3.0964590964590966, -0.6813186813186813, -1.375, 0.0
65, -3.326007326007326, -0.5653235653235653, -1.25, 0.0
66, -3.2515262515262515, -0.47374847374847373, -1.1875, 0.0
67, -3.733821733821734, -0.030525030525030524, -1.09375, 0.0
68, -3.935286935286935, 0.29181929181929184, -0.90625, 0.0
69, -4.068376068376068, 0.33577533577533575, -0.6875, 0.0
70, -3.987789987789988, 0.29914529914529914, -0.46875, 0.0
71, -3.822954822954823, 0.40293040293040294, -0.21875, 0.0
72, -3.8632478632478633, 0.9816849816849816, 0.0, 0.0
73, -3.5347985347985347, 1.485958485958486, 0.28125, 0.0
74, -3.2283272283272284, 1.5115995115995116, 0.53125, 0.0
75, -3.0146520146520146, 1.5836385836385836, 0.75, 0.0
76, -2.5054945054945055, 1.6178266178266179, 0.9375, 0.0
77, -1.8534798534798536, 1.5152625152625152, 1.0625, 0.0
78, -0.38705738705738707, 0.7032967032967034, 1.1875, 0.0
79, 0.5518925518925519, 0.2039072039072039, 1.1875, 0.0
80, 0.9572649572649573, -0.23565323565323565, 1.15625, 0.0
81, 1.120879120879121, -0.221001221001221, 0.96875, 0.0
82, 1.0903540903540903, -0.30158730158730157, 0.84375, 0.0
83, 1.2893772893772895, -0.6764346764346765, 0.75, 0.0
84, 1.713064713064713, -1.216117216117216, 0.65625, 0.0
85, 1.293040293040293, -1.1001221001221002, 0.5, 0.0
86, 1.1135531135531136, -1.2686202686202686, 0.4375, 0.0
87, 0.7448107448107448, -1.1404151404151404, 0.5, 0.0
88, 0.5006105006105006, -1.0757020757020757, 0.71875, 0.0
89, 0.14774114774114774, -0.7216117216117216, 0.71875, 0.0
90, 0.06349206349206349, -0.7411477411477412, 0.90625, 0.0
91, 0.7643467643467643, -1.3284493284493284, 0.96875, 0.0
92, 1.0256410256410255, -1.551892551892552, 0.6875, 0.0
93, 0.3797313797313797, -1.1282051282051282, 0.28125, 0.0
94, -0.15506715506715507, -0.6727716727716728, 0.03125, 0.0
95, -0.4053724053724054, -0.3711843711843712, -0.09375, 0.0
96, -0.78998778998779, -0.25396825396825395, -0.21875, 0.0
97, -1.216117216117216, -0.11233211233211234, -0.34375, 0.0
98, -1.326007326007326, 0.015873015873015872, -0.4375, 0.0
99, -1.1758241758241759, 0.06837606837606838, -0.40625, 0.0
100, -0.9572649572649573, -0.2271062271062271, -0.4375, 0.0
101, -0.7582417582417582, -0.31746031746031744, -0.40625, 0.0
102, -0.47985347985347987, -0.2564102564102564, -0.34375, 0.0
103, -0.8705738705738706, -0.07814407814407814, -0.375, 0.0
104, -1.592185592185592, 0.03907203907203907, -0.375, 0.0
105, -1.6043956043956045, -0.11843711843711843, -0.3125, 0.0
106, -1.4163614163614164, -0.1794871794871795, -0.15625, 0.0
107, -1.5128205128205128, 0.11721611721611722, -0.0625, 0.0
108, -1.36996336996337, 0.2857142857142857, 0.0, 0.0
109, -0.8888888888888888, -0.11965811965811966, 0.0, 0.0
110, -0.8485958485958486, -0.1684981684981685, 0.0, 0.0
111, -0.5372405372405372, -0.2905982905982906, 0.03125, 0.0
112, -0.4554334554334554, -0.21245421245421245, 0.0, 0.0
113, -0.28815628815628813, -0.20512820512820512, 0.0625, 0.0
114, -0.042735042735042736, -0.21123321123321123, 0.0625, 0.0
115, 0.1391941391941392, -0.315018315018315, 0.03125, 0.0
116, 0.09401709401709402, -0.08180708180708181, 0.0, 0.0
117, 0.14163614163614163, -0.018315018315018316, 0.0, 0.0
118, 0.08180708180708181, 0.001221001221001221, 0.0, 0.0
119, 0.009768009768009768, -0.01221001221001221, 0.0, 0.0
120, -0.0231990231990232, -0.05616605616605617, 0.03125, 0.0
121, 0.047619047619047616, -0.221001221001221, 0.03125, 0.0
122, -0.01098901098901099, -0.0989010989010989, 0.03125, 0.0
123, -0.03540903540903541, -0.026862026862026864, 0.0625, 0.0
124, 0.18315018315018314, -0.1794871794871795, 0.0625, 0.0
125, -0.06227106227106227, -0.05372405372405373, 0.09375, 0.0
126, -0.38583638583638585, 0.10134310134310134, 0.0625, 0.0
127, -0.34065934065934067, 0.04151404151404151, 0.03125, 0.0
128, 0.15506715506715507, -0.06715506715506715, 0.03125, 0.0
129, 0.24786324786324787, -0.05982905982905983, 0.03125, 0.0
130, -0.10378510378510379, 0.030525030525030524, 0.03125, 0.0
131, -0.12454212454212454, 0.015873015873015872, 0.03125, 0.0
132, -0.006105006105006105, 0.006105006105006105, 0.0625, 0.0
133, 0.09645909645909646, -0.08547008547008547, 0.0625, 0.0
134, 0.1562881562881563, -0.16361416361416362, 0.0625, 0.0
135, -0.03296703296703297, -0.001221001221001221, 0.0625, 0.0
136, 0.003663003663003663, -0.029304029304029304, 0.03125, 0.0
137, 0.1282051282051282, -0.16727716727716727, 0.03125, 0.0
138, 0.07326007326007326, -0.0989010989010989, 0.03125, 0.0
139, -0.01098901098901099, -0.02197802197802198, 0.0, 0.0
140, -0.015873015873015872, -0.15873015873015872, -0.03125, 0.0
141, 0.09768009768009768, -0.1111111111111111, 0.0, 0.0
142, -0.030525030525030524, 0.02442002442002442, 0.0, 0.0
143, -0.24297924297924298, 0.11843711843711843, 0.0, 0.0
144, -0.06349206349206349, 0.031746031746031744, 0.03125, 0.0
145, -0.02442002442002442, -0.02564102564102564, 0.0625, 0.0
146, -0.007326007326007326, -0.0231990231990232, 0.03125, 0.0
147, -0.001221001221001221, -0.004884004884004884, 0.03125, 0.0
148, -0.019536019536019536, -0.006105006105006105, 0.03125, 0.0
149, 0.017094017094017096, -0.09035409035409035, 0.0625, 0.0
150, -0.026862026862026864, -0.10866910866910867, 0.0625, 0.0
151, 0.020757020757020756, -0.08180708180708181, 0.0625, 0.0
152, 0.07203907203907203, -0.052503052503052504, 0.03125, 0.0
153, -0.007326007326007326, -0.09157509157509157, 0.03125, 0.0
154, -0.014652014652014652, -0.06593406593406594, 0.03125, 0.0
155, 0.015873015873015872, -0.02442002442002442, 0.03125, 0.0
156, -0.004884004884004884, -0.017094017094017096, 0.0, 0.0
157, -0.004884004884004884, -0.01221001221001221, 0.0, 0.0
158, -0.030525030525030524, -0.03663003663003663, 0.0, 0.0
159, -0.10622710622710622, 0.052503052503052504, 0.03125, 0.0
160, -0.040293040293040296, -0.03540903540903541, 0.03125, 0.0
161, -0.01098901098901099, -0.04884004884004884, 0.03125, 0.0
162, 0.003663003663003663, -0.050061050061050064, 0.03125, 0.0
163, -0.006105006105006105, -0.054945054945054944, 0.03125, 0.0
164, -0.02564102564102564, -0.040293040293040296, 0.03125, 0.0
165, 0.0, -0.03418803418803419, 0.03125, 0.0
166, 0.0, -0.026862026862026864, 0.03125, 0.0
167, -0.01098901098901099, -0.007326007326007326, 0.03125, 0.0
168, -0.0231990231990232, -0.03785103785103785, 0.03125, 0.0
169, -0.0231990231990232, -0.052503052503052504, 0.0625, 0.0
170, -0.12332112332112333, -0.19658119658119658, 0.0625, 0.0
171, -0.16727716727716727, -0.1855921855921856, 0.09375, 0.0
172, -0.08669108669108669, 0.08180708180708181, 0.0625, 0.0
173, 0.08669108669108669, 0.03418803418803419, 0.0625, 0.0
174, 0.16727716727716727, -0.13553113553113552, 0.0625, 0.0
175, 0.13553113553113552, -0.04395604395604396, 0.0625, 0.0
176, -0.06471306471306472, 0.06715506715506715, 0.0625, 0.0
177, -0.06593406593406594, 0.013431013431013432, 0.0625, 0.0
178, 0.017094017094017096, -0.08547008547008547, 0.0625, 0.0
179, -0.006105006105006105, -0.06471306471306472, 0.0625, 0.0
180, 0.07692307692307693, -0.10012210012210013, 0.0625, 0.0
181, 0.0989010989010989, -0.15873015873015872, 0.03125, 0.0
182, -0.042735042735042736, -0.030525030525030524, 0.03125, 0.0
183, -0.07081807081807082, 0.008547008547008548, 0.03125, 0.0
184, -0.01098901098901099, -0.054945054945054944, 0.03125, 0.0
185, 0.09035409035409035, -0.1746031746031746, 0.03125, 0.0
186, 0.001221001221001221, -0.05372405372405373, 0.0, 0.0
187, -0.08669108669108669, 0.03663003663003663, 0.0, 0.0
188, -0.04151404151404151, -0.006105006105006105, 0.03125, 0.0
189, -0.028083028083028084, -0.08302808302808302, 0.03125, 0.0
190, 0.026862026862026864, -0.03296703296703297, 0.03125, 0.0
191, -0.04395604395604396, 0.009768009768009768, 0.03125, 0.0
192, 0.002442002442002442, -0.08302808302808302, 0.0625, 0.0
193, 0.07692307692307693, -0.10744810744810745, 0.0625, 0.0
194, 0.02197802197802198, -0.12454212454212454, 0.03125, 0.0
195, -0.003663003663003663, -0.030525030525030524, 0.0, 0.0
196, -0.12576312576312576, -0.015873015873015872, -0.03125, 0.0
197, -0.17826617826617827, -0.5128205128205128, -0.125, 1.0
198, -0.40293040293040294, -0.3772893772893773, -0.15625, 1.0
199, 0.020757020757020756, -0.1807081807081807, -0.03125, 1.0
200, -0.07326007326007326, 0.18437118437118438, 0.03125, 1.0
201, -0.10256410256410256, 0.5457875457875457, 0.09375, 1.0
202, -0.7264957264957265, -0.04884004884004884, 0.0625, 1.0
203, -0.40293040293040294, -0.1794871794871795, 0.03125, 1.0
204, -1.2393162393162394, 0.02442002442002442, 0.0, 1.0
205, -0.8901098901098901, 0.020757020757020756, 0.09375, 1.0
206, -0.7289377289377289, 0.04151404151404151, 0.125, 1.0
207, -0.5506715506715507, -0.0757020757020757, 0.15625, 1.0
208, -0.6764346764346765, -0.3137973137973138, 0.1875, 1.0
209, -0.4236874236874237, -0.5482295482295483, 0.1875, 1.0
210, -0.33821733821733824, -0.6410256410256411, 0.25, 1.0
211, -0.6031746031746031, -0.19047619047619047, 0.25, 1.0
212, -1.15018315018315, -0.32722832722832723, 0.28125, 1.0
213, -1.3614163614163615, -0.15018315018315018, 0.3125, 1.0
214, -1.862026862026862, -0.7985347985347986, 0.40625, 1.0
215, -1.9572649572649572, -0.6581196581196581, 0.5, 1.0
216, -1.8937728937728937, -0.042735042735042736, 0.65625, 1.0
217, -1.5115995115995116, -0.33943833943833945, 0.78125, 1.0
218, -0.978021978021978, -0.8168498168498168, 0.8125, 1.0
219, -0.8070818070818071, -1.021978021978022, 0.875, 1.0
220, -0.42735042735042733, -1.0451770451770452, 0.96875, 1.0
221, -0.3162393162393162, -1.0183150183150182, 1.0, 1.0
222, -0.409035409035409, -0.8901098901098901, 0.9375, 1.0
223, 0.06105006105006105, -1.037851037851038, 0.8125, 1.0
224, 0.3553113553113553, -1.0122100122100122, 0.78125, 1.0
225, 0.14285714285714285, -0.5995115995115995, 0.96875, 1.0
226, 0.1916971916971917, -0.7936507936507936, 0.96875, 1.0
227, 0.29304029304029305, -0.9841269841269841, 0.75, 1.0
228, 0.2796092796092796, -0.7814407814407814, 0.5625, 1.0
229, 0.7545787545787546, -0.23931623931623933, 0.46875, 1.0
230, 0.5274725274725275, 0.14285714285714285, 1.3125, 1.0
231, 1.3492063492063493, -0.7680097680097681, 1.3125, 1.0
232, 1.1526251526251525, -0.6422466422466423, 1.09375, 1.0
233, 1.2136752136752136, -0.06715506715506715, 0.9375, 1.0
234, 1.1733821733821734, 0.040293040293040296, 0.8125, 1.0
235, 1.2588522588522588, -0.16971916971916973, 0.90625, 1.0
236, 0.8998778998778999, -0.24786324786324787, 0.90625, 1.0
237, 1.4102564102564104, -0.5152625152625152, 1.09375, 1.0
238, 1.6837606837606838, -0.8937728937728938, 1.09375, 1.0
239, 1.9059829059829059, -0.6263736263736264, 1.15625, 1.0
240, 1.757020757020757, -0.40293040293040294, 0.96875, 1.0
241, 1.9242979242979243, -0.4261294261294261, 0.84375, 1.0
242, 1.6715506715506716, -0.4078144078144078, 0.65625, 1.0
243, 1.6398046398046398, -0.3956043956043956, 0.625, 1.0
244, 1.656898656898657, -0.18192918192918192, 0.53125, 1.0
245, 1.7032967032967032, -0.08791208791208792, 0.4375, 1.0
246, 1.2063492063492063, 0.11721611721611722, 0.46875, 1.0
247, 1.083028083028083, 0.1562881562881563, 0.46875, 1.0
248, 1.4175824175824177, -0.40293040293040294, 0.4375, 1.0
249, 1.028083028083028, -0.7411477411477412, 0.34375, 1.0
250, 0.36996336996337, 0.19536019536019536, 0.25, 1.0
251, 1.3797313797313797, -0.02197802197802198, 0.3125, 1.0
252, 0.5543345543345544, -0.03785103785103785, 0.25, 1.0
253, 0.15506715506715507, -0.08791208791208792, 0.1875, 1.0
254, 0.2686202686202686, -0.6324786324786325, 0.0625, 1.0
255, 0.045177045177045176, 0.19658119658119658, 0.125, 1.0
256, -0.4371184371184371, 0.12698412698412698, 0.3125, 1.0
257, -0.463980463980464, -0.08180708180708181, 0.28125, 1.0
258, -0.5555555555555556, -0.14896214896214896, 0.21875, 1.0
259, -0.18803418803418803, -0.13186813186813187, 0.21875, 1.0
260, 0.14041514041514042, -0.17582417582417584, 0.21875, 1.0
261, 0.3076923076923077, -0.11233211233211234, 0.21875, 1.0
262, 1.2148962148962148, -0.6239316239316239, 0.0625, 1.0
263, 1.564102564102564, -0.5982905982905983, -0.0625, 0.0
264, 1.297924297924298, -0.3443223443223443, -0.15625, 0.0
265, 0.8363858363858364, 0.11233211233211234, -0.21875, 0.0
266, 1.2246642246642248, -0.5811965811965812, -0.1875, 0.0
267, 1.1196581196581197, -0.5409035409035409, -0.125, 0.0
268, 1.0256410256410255, -1.3064713064713065, -0.375, 0.0
269, 1.2124542124542124, -0.5457875457875457, -0.5, 0.0
270, 1.9035409035409034, -0.8998778998778999, -0.53125, 0.0
271, 1.663003663003663, -0.8986568986568987, -0.6875, 0.0
272, 1.3614163614163615, -0.5457875457875457, -0.71875, 0.0
273, 1.3223443223443223, -0.49206349206349204, -0.78125, 0.0
274, 0.778998778998779, -0.9743589743589743, -0.9375, 0.0
275, -0.3333333333333333, -0.6996336996336996, -1.03125, 0.0
276, -0.23687423687423687, -0.6043956043956044, -0.96875, 0.0
277, -0.1514041514041514, -0.6324786324786325, -0.90625, 0.0
278, -0.42857142857142855, -0.46153846153846156, -0.625, 0.0
279, -0.503052503052503, -0.811965811965812, -0.53125, 0.0
280, -0.9487179487179487, -1.2417582417582418, -0.625, 0.0
281, -1.757020757020757, -0.6947496947496947, -0.875, 0.0
282, -2.0683760683760686, -0.5018315018315018, -1.03125, 0.0
283, -2.070818070818071, -0.2796092796092796, -1.03125, 0.0
284, -2.735042735042735, -0.3443223443223443, -1.0625, 0.0
285, -3.452991452991453, -0.4163614163614164, -1.1875, 0.0
286, -3.5445665445665444, -0.29181929181929184, -0.9375, 0.0
287, -3.1404151404151404, -0.221001221001221, -0.75, 0.0
288, -2.7484737484737485, 0.10378510378510379, -0.84375, 0.0
289, -3.070818070818071, 0.5811965811965812, -0.84375, 0.0
290, -2.94993894993895, 0.5091575091575091, -0.53125, 0.0
291, -1.7619047619047619, -0.8473748473748474, -0.59375, 0.0
292, -2.3565323565323566, -0.4017094017094017, -0.90625, 0.0
293, -2.346764346764347, -0.398046398046398, -0.65625, 0.0
294, -1.5103785103785103, -0.9804639804639804, -0.40625, 0.0
295, -1.199023199023199, -1.3235653235653235, -0.40625, 0.0
296, -1.728937728937729, -0.8192918192918193, -0.53125, 0.0
297, -2.0085470085470085, -0.9096459096459096, -0.59375, 0.0
298, -2.463980463980464, -0.6910866910866911, -0.625, 0.0
299, -3.0720390720390722, -0.014652014652014652, -0.46875, 0.0
300, -2.6837606837606836, -0.21123321123321123, -0.34375, 0.0
301, -2.6556776556776556, -0.42124542124542125, -0.34375, 0.0
302, -2.9536019536019538, -0.5128205128205128, -0.28125, 0.0
303, -2.3882783882783882, -0.6043956043956044, -0.1875, 0.0
304, -1.5592185592185592, -0.63003663003663, -0.09375, 0.0
305, -1.1111111111111112, -0.4432234432234432, -0.03125, 0.0
306, -0.967032967032967, -0.4188034188034188, 0.0, 0.0
307, -0.8449328449328449, -0.5811965811965812, -0.0625, 0.0
308, -0.6898656898656899, -0.7155067155067155, -0.0625, 0.0
309, -0.6446886446886447, -0.6031746031746031, 0.0, 0.0
310, -0.3076923076923077, -0.5323565323565324, 0.03125, 0.0
311, -0.0757020757020757, -0.4884004884004884, 0.0, 0.0
312, 0.02197802197802198, -0.16361416361416362, 0.03125, 0.0
313, 0.34798534798534797, -0.26495726495726496, 0.0, 0.0
314, 0.2576312576312576, -0.17826617826617827, 0.0, 0.0
315, -0.12087912087912088, -0.009768009768009768, 0.0, 0.0
316, -0.03540903540903541, 0.001221001221001221, 0.03125, 0.0
317, 0.054945054945054944, -0.018315018315018316, 0.03125, 0.0
318, 0.020757020757020756, -0.2869352869352869, 0.0, 0.0
319, -0.04884004884004884, -0.10134310134310134, 0.0, 0.0
320, 0.05616605616605617, -0.019536019536019536, -0.03125, 1.0
321, -0.017094017094017096, -0.38583638583638585, -0.09375, 1.0
322, -0.009768009768009768, 0.014652014652014652, 0.0, 1.0
323, -0.1562881562881563, 0.014652014652014652, 0.0625, 1.0
324, -0.5836385836385837, -0.057387057387057384, 0.0625, 1.0
325, -0.9768009768009768, -0.028083028083028084, 0.03125, 1.0
326, -1.0866910866910866, -0.34676434676434675, 0.0, 1.0
327, -1.1562881562881564, -0.2869352869352869, -0.03125, 1.0
328, -1.9987789987789988, -0.03663003663003663, 0.0625, 1.0
329, -2.21978021978022, -0.08180708180708181, 0.21875, 1.0
330, -2.32967032967033, -0.46642246642246643, 0.25, 1.0
331, -2.3553113553113554, -0.3833943833943834, 0.28125, 1.0
332, -2.2063492063492065, -0.47619047619047616, 0.3125, 1.0
333, -2.2454212454212454, -0.5201465201465202, 0.3125, 1.0
334, -1.910866910866911, -0.702075702075702, 0.5, 1.0
335, -1.3894993894993894, -1.2503052503052503, 0.71875, 1.0
336, -1.1391941391941391, -1.3785103785103785, 0.875, 1.0
337, -0.5067155067155067, -1.8888888888888888, 0.84375, 1.0
338, 0.08669108669108669, -1.8253968253968254, 0.65625, 1.0
339, 0.18681318681318682, -1.424908424908425, 0.71875, 1.0
340, 0.10744810744810745, -1.336996336996337, 1.0, 1.0
341, 0.20512820512820512, -0.8669108669108669, 1.09375, 1.0
342, 0.23931623931623933, -0.5653235653235653, 1.0625, 1.0
343, 0.3308913308913309, -0.1916971916971917, 0.8125, 1.0
344, 0.10012210012210013, 0.3052503052503053, 0.71875, 1.0
345, 0.19536019536019536, -0.0463980463980464, 1.0, 1.0
346, 0.29914529914529914, -0.01221001221001221, 1.09375, 1.0
347, 0.2258852258852259, 0.15995115995115994, 1.03125, 1.0
348, 0.24175824175824176, -0.115995115995116, 0.9375, 1.0
349, 0.42857142857142855, -0.3894993894993895, 0.8125, 1.0
350, 0.1807081807081807, -0.46153846153846156, 0.6875, 1.0
351, 0.10622710622710622, -0.33455433455433453, 0.71875, 1.0
352, 0.8534798534798534, -0.706959706959707, 1.03125, 1.0
353, 0.8095238095238095, -0.4981684981684982, 0.96875, 1.0
354, 0.43101343101343104, -0.21001221001221002, 0.84375, 1.0
355, 0.6715506715506715, -0.6275946275946276, 0.625, 1.0
356, 0.8656898656898657, -0.5372405372405372, 0.6875, 1.0
357, 0.7948717948717948, -0.5946275946275946, 0.84375, 1.0
358, 0.6166056166056166, -0.6153846153846154, 0.875, 1.0
359, 0.8754578754578755, -0.9853479853479854, 0.8125, 1.0
360, 0.7045177045177046, -0.8766788766788767, 0.84375, 1.0
361, 0.8778998778998779, -0.7045177045177046, 0.9375, 1.0
362, 1.601953601953602, -0.37362637362637363, 1.0625, 1.0
363, 1.7435897435897436, -0.5567765567765568, 1.03125, 1.0
364, 1.4774114774114775, -0.9792429792429792, 0.84375, 1.0
365, 0.9438339438339438, -0.16605616605616605, 0.6875, 1.0
366, 1.192918192918193, 0.04151404151404151, 0.65625, 1.0
367, 1.347985347985348, 0.15506715506715507, 0.59375, 1.0
368, 1.1782661782661783, 0.03296703296703297, 0.46875, 1.0
369, 1.1489621489621489, 0.12332112332112333, 0.28125, 1.0
370, 1.0366300366300367, 0.12698412698412698, 0.1875, 1.0
371, 0.557997557997558, 0.08547008547008547, 0.1875, 1.0
372, 0.2673992673992674, 0.32722832722832723, 0.21875, 1.0
373, 0.4163614163614164, 0.09645909645909646, 0.1875, 1.0
374, 0.014652014652014652, 0.050061050061050064, 0.125, 1.0
375, -0.5543345543345544, 0.3418803418803419, 0.125, 1.0
376, 0.04884004884004884, 0.004884004884004884, 0.125, 1.0
377, 0.7594627594627594, -0.43345543345543347, 0.0, 0.0
378, 1.7338217338217339, -0.8485958485958486, -0.15625, 0.0
379, 1.5592185592185592, -0.8070818070818071, -0.3125, 0.0
380, 1.3003663003663004, -0.6556776556776557, -0.46875, 0.0
381, 1.231990231990232, -0.5152625152625152, -0.53125, 0.0
382, 0.6483516483516484, -0.5897435897435898, -0.59375, 0.0
383, 0.5384615384615384, -0.5824175824175825, -0.59375, 0.0
384, 0.5421245421245421, -0.7338217338217338, -0.71875, 0.0
385, 0.21123321123321123, -0.590964590964591, -0.71875, 0.0
386, -0.10866910866910867, -0.4981684981684982, -0.75, 0.0
387, -0.08913308913308914, -0.452991452991453, -0.78125, 0.0
388, -0.28083028083028083, -0.5702075702075702, -0.6875, 0.0
389, -0.42002442002442003, -0.5897435897435898, -0.53125, 0.0
390, -0.8302808302808303, -0.48473748473748474, -0.59375, 0.0
391, -0.9682539682539683, -0.398046398046398, -0.625, 0.0
392, -0.8632478632478633, -0.6874236874236874, -0.46875, 0.0
393, -0.5946275946275946, -0.7191697191697192, -0.4375, 0.0
394, -1.120879120879121, -0.31746031746031744, -0.71875, 0.0
395, -1.6178266178266179, -0.31746031746031744, -0.75, 0.0
396, -1.8046398046398047, -0.5311355311355311, -0.65625, 0.0
397, -1.2820512820512822, -0.8656898656898657, -0.90625, 0.0
398, -1.4578754578754578, -0.7667887667887668, -1.09375, 0.0
399, -1.641025641025641, -0.5885225885225885, -1.125, 0.0
400, -2.2625152625152625, -0.3333333333333333, -1.125, 0.0
401, -2.111111111111111, -0.4603174603174603, -1.0625, 0.0
402, -2.144078144078144, -0.3125763125763126, -1.09375, 0.0
403, -2.4822954822954824, -0.057387057387057384, -0.9375, 0.0
404, -2.600732600732601, -0.29181929181929184, -0.90625, 0.0
405, -2.995115995115995, -0.28327228327228327, -0.78125, 0.0
406, -2.437118437118437, -0.6837606837606838, -0.625, 0.0
407, -1.9511599511599511, -0.8681318681318682, -0.6875, 0.0
408, -1.9413919413919414, -0.8888888888888888, -0.6875, 0.0
409, -2.313797313797314, -0.7582417582417582, -0.625, 0.0
410, -2.8144078144078146, -0.4590964590964591, -0.625, 0.0
411, -2.733821733821734, -0.3663003663003663, -0.5, 0.0
412, -2.236874236874237, -0.34554334554334554, -0.375, 0.0
413, -2.061050061050061, -0.4017094017094017, -0.3125, 0.0
414, -1.8656898656898657, -0.6678876678876678, -0.25, 0.0
415, -1.7277167277167278, -0.6398046398046398, -0.1875, 0.0
416, -1.5152625152625152, -0.38095238095238093, -0.15625, 0.0
417, -1.2417582417582418, -0.38095238095238093, -0.125, 0.0
418, -1.424908424908425, -0.27350427350427353, -0.03125, 0.0
419, -1.5616605616605617, -0.07814407814407814, 0.0, 0.0
420, -0.8156288156288156, -0.19047619047619047, 0.03125, 0.0
421, -0.20634920634920634, -0.5006105006105006, 0.03125, 0.0
422, -0.21245421245421245, -0.3553113553113553, 0.03125, 0.0
423, -0.02564102564102564, -0.28327228327228327, 0.0, 0.0
424, 0.13186813186813187, -0.5396825396825397, -0.09375, 0.0
425, 0.36752136752136755, -0.26495726495726496, -0.15625, 1.0
426, 0.3833943833943834, -0.304029304029304, -0.21875, 1.0
427, -0.03907203907203907, -0.17094017094017094, -0.125, 1.0
428, -0.4188034188034188, -0.1978021978021978, -0.09375, 1.0
429, -0.746031746031746, -0.07692307692307693, 0.0, 1.0
430, -0.8449328449328449, 0.07936507936507936, 0.09375, 1.0
431, -1.3943833943833943, 0.14407814407814407, 0.0625, 1.0
432, -1.6666666666666667, -0.1391941391941392, 0.09375, 1.0
433, -1.9352869352869353, -0.1807081807081807, 0.15625, 1.0
434, -2.056166056166056, -0.3663003663003663, 0.21875, 1.0
435, -2.3956043956043955, -0.326007326007326, 0.15625, 1.0
436, -2.122100122100122, -0.05372405372405373, 0.1875, 1.0
437, -1.84004884004884, -0.030525030525030524, 0.28125, 1.0
438, -1.3137973137973138, -0.42246642246642246, 0.5625, 1.0
439, -1.1587301587301588, -0.6886446886446886, 0.5, 1.0
440, -0.873015873015873, -0.7887667887667887, 0.5625, 1.0
441, -0.2796092796092796, -0.8046398046398047, 0.59375, 1.0
442, -0.2087912087912088, -0.8266178266178266, 0.78125, 1.0
443, -0.5726495726495726, -0.706959706959707, 0.78125, 1.0
444, -0.2771672771672772, -0.8266178266178266, 0.875, 1.0
445, -0.040293040293040296, -0.7277167277167277, 0.71875, 1.0
446, 0.4078144078144078, -0.7802197802197802, 0.90625, 1.0
447, 0.7032967032967034, -0.7533577533577533, 0.96875, 1.0
448, 0.7081807081807082, -0.5286935286935287, 1.0, 1.0
449, 0.7863247863247863, -0.27594627594627597, 0.90625, 1.0
450, 1.126984126984127, -0.34798534798534797, 0.6875, 1.0
451, 0.873015873015873, -0.20634920634920634, 0.5625, 1.0
452, 0.63003663003663, -0.5152625152625152, 0.625, 1.0
453, 0.6593406593406593, -0.47496947496947495, 0.65625, 1.0
454, 0.6031746031746031, -0.2442002442002442, 0.75, 1.0
455, 0.06593406593406594, -0.01221001221001221, 0.9375, 1.0
456, 0.08669108669108669, -0.11965811965811966, 1.03125, 1.0
457, 1.1343101343101343, -0.7924297924297924, 1.15625, 1.0
458, 2.034188034188034, -1.3748473748473748, 1.1875, 1.0
459, 1.8913308913308913, -1.2698412698412698, 1.15625, 1.0
460, 1.5189255189255189, -1.0952380952380953, 1.0625, 1.0
461, 1.3992673992673992, -0.8717948717948718, 0.9375, 1.0
462, 1.083028083028083, -0.398046398046398, 0.90625, 1.0
463, 0.9755799755799756, -0.34554334554334554, 0.96875, 1.0
464, 0.7594627594627594, -0.34798534798534797, 0.90625, 1.0
465, 0.29181929181929184, -0.10989010989010989, 0.90625, 1.0
466, 0.4078144078144078, -0.6703296703296703, 0.8125, 1.0
467, 0.5335775335775336, -0.304029304029304, 0.8125, 1.0
468, 1.2942612942612943, -0.28205128205128205, 0.90625, 1.0
469, 1.492063492063492, -0.5775335775335775, 0.84375, 1.0
470, 1.8937728937728937, -0.4945054945054945, 0.75, 1.0
471, 2.142857142857143, -0.02197802197802198, 0.65625, 1.0
472, 1.8693528693528694, 0.1452991452991453, 0.5, 1.0
473, 1.5787545787545787, 0.4627594627594628, 0.4375, 1.0
474, 1.3846153846153846, 0.3076923076923077, 0.375, 1.0
475, 1.065934065934066, 0.24175824175824176, 0.3125, 1.0
476, 0.8388278388278388, -0.14774114774114774, 0.15625, 1.0
477, 0.9413919413919414, -0.1562881562881563, 0.0625, 1.0
478, 0.6996336996336996, 0.0, 0.0, 1.0
479, 0.3833943833943834, 0.1794871794871795, -0.0625, 0.0
480, 0.5653235653235653, 0.057387057387057384, -0.09375, 0.0
481, 1.2673992673992673, -0.2087912087912088, -0.09375, 0.0
482, 1.9035409035409034, -0.8632478632478633, -0.1875, 0.0
483, 1.547008547008547, -0.8168498168498168, -0.4375, 0.0
484, 0.8144078144078144, -0.48717948717948717, -0.53125, 0.0
485, 0.6361416361416361, -0.463980463980464, -0.5625, 0.0
486, 1.0183150183150182, -0.5518925518925519, -0.5625, 0.0
487, 0.7313797313797313, -0.645909645909646, -0.59375, 0.0
488, 0.17338217338217338, -0.851037851037851, -0.65625, 0.0
489, -0.47374847374847373, -0.6056166056166056, -0.78125, 0.0
490, -0.4188034188034188, -0.5164835164835165, -0.75, 0.0
491, -0.49572649572649574, -0.4053724053724054, -0.75, 0.0
492, -0.1514041514041514, -0.5641025641025641, -0.625, 0.0
493, 0.0695970695970696, -0.9145299145299145, -0.5, 0.0
494, -0.41147741147741146, -0.6153846153846154, -0.5, 0.0
495, -1.1013431013431014, -0.12332112332112333, -0.46875, 0.0
496, -1.6446886446886446, -0.13553113553113552, -0.46875, 0.0
497, -1.8888888888888888, -0.6007326007326007, -0.53125, 0.0
498, -1.9768009768009769, -0.4908424908424908, -0.5625, 0.0
499, -1.1575091575091576, -0.4261294261294261, -0.5, 0.0
500, -1.1941391941391941, -0.2515262515262515, -0.75, 0.0
501, -1.6312576312576312, -0.18681318681318682, -0.8125, 0.0
502, -1.7411477411477412, -0.020757020757020756, -0.6875, 0.0
503, -1.115995115995116, -0.1282051282051282, -0.75, 0.0
504, -0.47985347985347987, -0.8058608058608059, -1.0, 0.0
505, -1.0744810744810744, -0.684981684981685, -1.125, 0.0
506, -1.7960927960927962, -0.47496947496947495, -1.03125, 0.0
507, -2.0207570207570207, -0.2905982905982906, -0.90625, 0.0
508, -1.8278388278388278, -0.35775335775335776, -0.8125, 0.0
509, -1.3772893772893773, -0.5958485958485958, -0.9375, 0.0
510, -1.1025641025641026, -0.557997557997558, -0.875, 0.0
511, -1.1978021978021978, -0.5811965811965812, -0.78125, 0.0
512, -1.8962148962148961, -0.221001221001221, -0.78125, 0.0
513, -2.2454212454212454, -0.03418803418803419, -0.625, 0.0
514, -1.564102564102564, -0.6092796092796092, -0.46875, 0.0
515, -1.380952380952381, -1.0769230769230769, -0.5, 0.0
516, -2.2466422466422467, -0.2796092796092796, -0.5, 0.0
517, -2.4493284493284495, 0.08791208791208792, -0.40625, 0.0
518, -1.702075702075702, -0.3894993894993895, -0.28125, 0.0
519, -0.9120879120879121, -0.8937728937728938, -0.3125, 0.0
520, -1.4346764346764347, -0.652014652014652, -0.28125, 0.0
521, -1.9047619047619047, -0.3528693528693529, -0.25, 0.0
522, -2.0805860805860807, -0.33455433455433453, -0.21875, 0.0
523, -1.7594627594627594, -0.6947496947496947, -0.09375, 0.0
524, -2.0244200244200243, -0.8901098901098901, -0.125, 0.0
525, -1.5396825396825398, -0.21123321123321123, -0.03125, 0.0
526, -0.800976800976801, -0.41147741147741146, 0.0, 0.0
527, -0.6190476190476191, -0.645909645909646, -0.03125, 0.0
528, -0.778998778998779, -0.57997557997558, 0.0, 0.0
529, -0.5958485958485958, -0.2771672771672772, 0.03125, 0.0
530, -0.11355311355311355, -0.03907203907203907, 0.0625, 0.0
531, 0.01098901098901099, -0.1746031746031746, 0.09375, 0.0
532, -0.06227106227106227, -0.14774114774114774, 0.03125, 1.0
533, -0.2612942612942613, 0.1330891330891331, 0.0, 1.0
534, -0.10500610500610501, -0.1282051282051282, 0.0, 1.0
535, -0.30036630036630035, -0.4981684981684982, 0.0, 1.0
536, -0.27106227106227104, -0.6373626373626373, 0.1875, 1.0
537, -0.4822954822954823, 0.07326007326007326, 0.25, 1.0
538, -1.1465201465201464, 0.3956043956043956, 0.28125, 1.0
539, -1.0732600732600732, -0.017094017094017096, 0.34375, 1.0
540, -0.7557997557997558, -0.2857142857142857, 0.28125, 1.0
541, -0.7667887667887668, -0.2857142857142857, 0.25, 1.0
542, -0.5396825396825397, -0.37606837606837606, 0.375, 1.0
543, -0.1623931623931624, -0.23565323565323565, 0.5, 1.0
544, -0.054945054945054944, -0.09157509157509157, 0.53125, 1.0
545, -0.21978021978021978, -0.15506715506715507, 0.5, 1.0
546, -0.026862026862026864, -0.34554334554334554, 0.40625, 1.0
547, -0.03785103785103785, -0.37362637362637363, 0.5, 1.0
548, 0.05616605616605617, -0.5811965811965812, 0.65625, 1.0
549, 0.04395604395604396, -0.2576312576312576, 0.5625, 1.0
550, 0.5054945054945055, -0.20146520146520147, 0.25, 1.0
551, 0.2686202686202686, -0.12087912087912088, 0.1875, 1.0
552, 0.21001221001221002, -0.38095238095238093, 0.78125, 1.0
553, 0.6703296703296703, -1.0231990231990231, 0.8125, 1.0
554, 0.4017094017094017, -0.6495726495726496, 0.71875, 1.0
555, 0.40293040293040294, -0.19536019536019536, 0.59375, 1.0
556, 0.221001221001221, -0.44078144078144077, 0.59375, 1.0
557, 0.38583638583638585, -0.7008547008547008, 0.75, 1.0
558, 0.43223443223443225, -0.5421245421245421, 0.75, 1.0
559, 0.38461538461538464, 0.007326007326007326, 0.6875, 1.0
560, -0.050061050061050064, -0.10866910866910867, 0.8125, 1.0
561, 0.09645909645909646, -0.3125763125763126, 1.15625, 1.0
562, 0.07081807081807082, -0.1916971916971917, 1.0625, 1.0
563, -0.2771672771672772, 0.23321123321123322, 1.03125, 1.0
564, -0.12087912087912088, -0.13797313797313798, 0.84375, 1.0
565, -0.1330891330891331, -0.20757020757020758, 0.65625, 1.0
566, 0.02564102564102564, -0.03663003663003663, 0.65625, 1.0
567, 0.8095238095238095, -0.7655677655677655, 0.78125, 1.0
568, 0.7814407814407814, -0.7875457875457875, 0.75, 1.0
569, 0.16117216117216118, -0.48595848595848595, 0.65625, 1.0
570, 0.008547008547008548, -0.38461538461538464, 0.5625, 1.0
571, 0.9560439560439561, -0.6275946275946276, 0.75, 1.0
572, 1.2844932844932846, -0.6141636141636142, 0.9375, 1.0
573, 0.6507936507936508, -0.5946275946275946, 0.875, 1.0
574, 1.1733821733821734, -0.3137973137973138, 0.90625, 1.0
575, 1.7692307692307692, -0.4261294261294261, 1.0, 1.0
576, 1.6886446886446886, -0.6446886446886447, 1.0625, 1.0
577, 1.6092796092796093, -0.26373626373626374, 1.125, 1.0
578, 2.515262515262515, -0.5054945054945055, 1.09375, 1.0
579, 2.989010989010989, -0.1807081807081807, 0.78125, 1.0
580, 2.95970695970696, -0.08302808302808302, 0.65625, 1.0
581, 1.5677655677655677, 0.22344322344322345, 0.5625, 1.0
582, 0.8998778998778999, 0.2954822954822955, 0.53125, 1.0
583, 1.2967032967032968, -0.06593406593406594, 0.4375, 1.0
584, 1.242979242979243, -0.02564102564102564, 0.28125, 1.0
585, 0.8766788766788767, -0.05860805860805861, 0.21875, 1.0
586, 1.133089133089133, -0.4249084249084249, 0.1875, 1.0
587, 1.122100122100122, -0.29914529914529914, 0.0625, 0.0
588, 0.9755799755799756, 0.14285714285714285, 0.0, 0.0
589, 1.3467643467643469, 0.08913308913308914, -0.09375, 0.0
590, 1.448107448107448, -0.19536019536019536, -0.15625, 0.0
591, 1.3101343101343101, -0.3833943833943834, -0.25, 0.0
592, 0.8766788766788767, -0.5067155067155067, -0.46875, 0.0
593, 0.7130647130647131, -0.2503052503052503, -0.5625, 0.0
594, 0.7521367521367521, -0.3528693528693529, -0.5625, 0.0
595, 0.8925518925518926, -0.2503052503052503, -0.59375, 0.0
596, 1.1843711843711844, -0.3052503052503053, -0.625, 0.0
597, 1.144078144078144, -0.8534798534798534, -0.84375, 0.0
598, 0.4297924297924298, -0.6275946275946276, -0.875, 0.0
599, -0.07203907203907203, -0.5543345543345544, -0.8125, 0.0
600, -0.21611721611721613, -0.5396825396825397, -0.71875, 0.0
601, -0.1807081807081807, -0.398046398046398, -0.59375, 0.0
602, -0.3516483516483517, -0.42002442002442003, -0.46875, 0.0
603, -0.8156288156288156, -0.6935286935286935, -0.53125, 0.0
604, -1.3748473748473748, -1.2783882783882783, -0.65625, 0.0
605, -1.7387057387057387, -0.7997557997557998, -0.5625, 0.0
606, -1.7448107448107448, -0.24786324786324787, -0.5, 0.0
607, -1.2796092796092795, -0.19291819291819293, -0.4375, 0.0
608, -1.5225885225885225, -0.21001221001221002, -0.625, 0.0
609, -2.1452991452991452, -0.6275946275946276, -0.90625, 0.0
610, -2.2673992673992673, -0.34065934065934067, -0.9375, 0.0
611, -1.6446886446886446, -0.2564102564102564, -0.75, 0.0
612, -1.5323565323565325, -0.07326007326007326, -0.96875, 0.0
613, -2.4542124542124544, 0.33455433455433453, -1.0625, 0.0
614, -3.056166056166056, 0.20024420024420025, -0.8125, 0.0
615, -1.5848595848595848, -0.8815628815628815, -0.84375, 0.0
616, -1.0158730158730158, -0.9157509157509157, -1.0, 0.0
617, -1.7851037851037852, -0.25518925518925517, -1.0, 0.0
618, -2.3150183150183152, 0.019536019536019536, -0.875, 0.0
619, -2.103785103785104, -0.31135531135531136, -0.6875, 0.0
620, -1.0879120879120878, -0.9841269841269841, -0.71875, 0.0
621, -1.4322344322344323, -1.0415140415140416, -0.65625, 0.0
622, -1.1172161172161172, -1.028083028083028, -0.625, 0.0
623, -1.7472527472527473, -0.5421245421245421, -0.65625, 0.0
624, -2.15018315018315, -0.5372405372405372, -0.59375, 0.0
625, -1.9474969474969475, -0.8595848595848596, -0.53125, 0.0
626, -2.0305250305250304, -0.590964590964591, -0.46875, 0.0
627, -2.1794871794871793, -0.46764346764346765, -0.40625, 0.0
628, -2.1892551892551895, -0.22832722832722832, -0.375, 0.0
629, -2.075702075702076, -0.11477411477411477, -0.3125, 0.0
630, -2.0952380952380953, -0.10500610500610501, -0.28125, 0.0
631, -1.9328449328449329, -0.21978021978021978, -0.1875, 0.0
632, -1.9474969474969475, -0.14896214896214896, -0.125, 0.0
633, -1.8412698412698412, -0.14774114774114774, -0.0625, 0.0
634, -1.2503052503052503, -0.3907203907203907, 0.0, 0.0
635, -0.7252747252747253, -0.5286935286935287, 0.0, 0.0
636, -0.706959706959707, -0.5311355311355311, -0.0625, 0.0
637, -0.3064713064713065, -0.4065934065934066, 0.0, 0.0
638, -0.17094017094017094, -0.32722832722832723, -0.03125, 0.0
639, -0.2148962148962149, -0.3956043956043956, -0.0625, 1.0
640, -0.20146520146520147, -0.31746031746031744, 0.0, 1.0
641, 0.09035409035409035, -0.15995115995115994, 0.0, 1.0
642, -0.6935286935286935, -0.42124542124542125, -0.03125, 1.0
643, -0.73992673992674, -0.6605616605616605, 0.09375, 1.0
644, -0.4432234432234432, 0.06349206349206349, 0.15625, 1.0
645, -1.4065934065934067, 0.49206349206349204, 0.1875, 1.0
646, -1.304029304029304, 0.15018315018315018, 0.125, 1.0
647, -1.2014652014652014, -0.28083028083028083, 0.09375, 1.0
648, -1.1684981684981686, -0.5409035409035409, 0.1875, 1.0
649, -0.6971916971916972, -0.4810744810744811, 0.25, 1.0
650, -0.6935286935286935, -0.19658119658119658, 0.3125, 1.0
651, -0.9560439560439561, -0.11965811965811966, 0.46875, 1.0
652, -0.463980463980464, -0.3125763125763126, 0.4375, 1.0
653, -0.4139194139194139, -0.4078144078144078, 0.4375, 1.0
654, -0.08669108669108669, -0.1623931623931624, 0.59375, 1.0
655, -0.007326007326007326, -0.199023199023199, 0.71875, 1.0
656, -0.115995115995116, -0.2771672771672772, 0.8125, 1.0
657, -0.2600732600732601, -0.29426129426129427, 0.71875, 1.0
658, -0.06227106227106227, 0.015873015873015872, 0.59375, 1.0
659, 0.28815628815628813, -0.1807081807081807, 0.46875, 1.0
660, -0.020757020757020756, -0.36385836385836384, 0.8125, 1.0
661, 0.09157509157509157, -0.7912087912087912, 1.15625, 1.0
662, 0.7057387057387058, -1.2222222222222223, 1.15625, 1.0
663, 0.7704517704517705, -0.6288156288156288, 1.0, 1.0
664, 0.5433455433455433, -0.5702075702075702, 0.8125, 1.0
665, 0.4346764346764347, -0.7277167277167277, 0.71875, 1.0
666, 1.0073260073260073, -0.7032967032967034, 0.8125, 1.0
667, 1.0, -0.5958485958485958, 0.6875, 1.0
668, -0.013431013431013432, -0.24664224664224665, 0.5625, 1.0
669, -0.4456654456654457, -0.2673992673992674, 0.46875, 1.0
670, -0.4542124542124542, 0.08180708180708181, 0.5, 1.0
671, 0.7557997557997558, 0.2796092796092796, 0.59375, 1.0
672, 1.2808302808302807, -0.12454212454212454, 0.6875, 1.0
673, 1.862026862026862, -0.7338217338217338, 0.90625, 1.0
674, 3.0488400488400487, -1.9352869352869353, 1.28125, 1.0
675, 3.4615384615384617, -2.094017094017094, 1.25, 1.0
676, 3.340659340659341, -1.6288156288156288, 1.03125, 1.0
677, 3.1758241758241756, -1.032967032967033, 0.875, 1.0
678, 2.937728937728938, -0.612942612942613, 0.84375, 1.0
679, 2.15995115995116, -0.47619047619047616, 0.84375, 1.0
680, 1.7484737484737485, -0.5238095238095238, 0.78125, 1.0
681, 1.8278388278388278, -0.30158730158730157, 0.75, 1.0
682, 1.606837606837607, -0.2490842490842491, 0.75, 1.0
683, 1.5274725274725274, -0.3089133089133089, 0.75, 1.0
684, 1.9511599511599511, -0.4371184371184371, 0.6875, 1.0
685, 1.8327228327228327, -0.21611721611721613, 0.59375, 1.0
686, 2.0952380952380953, -0.39194139194139194, 0.59375, 1.0
687, 2.1904761904761907, -0.19536019536019536, 0.46875, 1.0
688, 2.1855921855921854, -0.4163614163614164, 0.40625, 1.0
689, 1.9975579975579976, -0.3968253968253968, 0.28125, 1.0
690, 2.275946275946276, -0.6483516483516484, 0.15625, 1.0
691, 2.675213675213675, -0.6422466422466423, 0.0, 0.0
692, 2.3943833943833943, 0.326007326007326, -0.09375, 0.0
693, 2.9474969474969477, -0.3833943833943834, -0.15625, 0.0
694, 2.8058608058608057, -0.4297924297924298, -0.28125, 0.0
695, 2.4993894993894994, -0.6984126984126984, -0.40625, 0.0
696, 2.1904761904761907, -0.851037851037851, -0.53125, 0.0
697, 2.0732600732600734, -0.800976800976801, -0.65625, 0.0
698, 1.7704517704517704, -1.0488400488400489, -0.78125, 0.0
699, 0.8913308913308914, -0.7448107448107448, -0.84375, 0.0
700, 0.7741147741147741, -0.7887667887667887, -0.84375, 0.0
701, 0.8998778998778999, -0.8803418803418803, -0.78125, 0.0
702, 0.8583638583638583, -0.9169719169719169, -0.625, 0.0
703, 0.49694749694749696, -0.905982905982906, -0.5625, 0.0
704, -0.4126984126984127, -0.6312576312576312, -0.4375, 0.0
705, -0.8656898656898657, -1.1611721611721613, -0.59375, 0.0
706, -1.1855921855921856, -1.2564102564102564, -0.78125, 0.0
707, -1.1904761904761905, -0.7411477411477412, -0.71875, 0.0
708, -1.0231990231990231, -0.5824175824175825, -0.5625, 0.0
709, -1.3382173382173381, -0.3028083028083028, -0.59375, 0.0
710, -1.8046398046398047, -0.3553113553113553, -0.71875, 0.0
711, -2.335775335775336, -0.27350427350427353, -0.65625, 0.0
712, -1.9572649572649572, -0.43833943833943834, -0.5, 0.0
713, -1.5445665445665446, -0.24297924297924298, -0.625, 0.0
714, -1.3516483516483517, -0.23076923076923078, -0.71875, 0.0
715, -1.5775335775335775, -0.5470085470085471, -0.875, 0.0
716, -1.656898656898657, -0.8986568986568987, -1.0, 0.0
717, -1.6056166056166057, -0.7228327228327228, -0.9375, 0.0
718, -1.8058608058608059, -0.4017094017094017, -0.71875, 0.0
719, -1.9474969474969475, 0.08669108669108669, -0.6875, 0.0
720, -1.84981684981685, -0.5836385836385837, -0.71875, 0.0
721, -2.32967032967033, -0.5995115995115995, -0.6875, 0.0
722, -1.4884004884004884, -0.43833943833943834, -0.5625, 0.0
723, -1.1660561660561661, -0.6202686202686203, -0.5, 0.0
724, -1.9865689865689866, -0.45787545787545786, -0.375, 0.0
725, -2.3076923076923075, -0.3894993894993895, -0.46875, 0.0
726, -1.6935286935286935, -0.49206349206349204, -0.4375, 0.0
727, -1.531135531135531, -0.6434676434676435, -0.34375, 0.0
728, -1.4444444444444444, -0.29914529914529914, -0.21875, 0.0
729, -0.9987789987789988, -0.25518925518925517, -0.1875, 0.0
730, -1.0744810744810744, -0.3833943833943834, -0.15625, 0.0
731, -1.177045177045177, -0.4188034188034188, -0.0625, 0.0
732, -0.7826617826617827, -0.46886446886446886, -0.0625, 0.0
733, -0.4346764346764347, -0.3089133089133089, -0.0625, 0.0
734, -0.7203907203907204, -0.09401709401709402, 0.0, 0.0
735, -0.8962148962148963, -0.23565323565323565, -0.03125, 0.0
736, -0.8241758241758241, -0.38461538461538464, -0.15625, 0.0
737, -0.5128205128205128, -0.3028083028083028, -0.125, 0.0
738, 0.013431013431013432, -0.452991452991453, 0.03125, 0.0
739, 0.14285714285714285, -0.568986568986569, 0.03125, 0.0
740, -0.21367521367521367, -0.07203907203907203, -0.03125, 0.0
741, -0.013431013431013432, 0.18925518925518925, -0.09375, 1.0
742, 0.07448107448107448, -0.3089133089133089, -0.1875, 1.0
743, -0.10989010989010989, -0.47619047619047616, -0.0625, 1.0
744, -0.31746031746031744, -0.29914529914529914, 0.03125, 1.0
745, -0.33943833943833945, -0.11843711843711843, 0.125, 1.0
746, -0.3614163614163614, -0.3308913308913309, 0.125, 1.0
747, -0.4981684981684982, -0.199023199023199, 0.0625, 1.0
748, -0.7985347985347986, -0.27228327228327226, 0.09375, 1.0
749, -0.9157509157509157, -0.27106227106227104, 0.21875, 1.0
750, -0.6068376068376068, -0.15384615384615385, 0.25, 1.0
751, -0.8778998778998779, -0.20757020757020758, 0.375, 1.0
752, -0.5921855921855922, -0.36874236874236876, 0.40625, 1.0
753, -0.525030525030525, 0.054945054945054944, 0.4375, 1.0
754, -0.3516483516483517, -0.0463980463980464, 0.59375, 1.0
755, 0.03540903540903541, -0.6666666666666666, 0.5625, 1.0
756, -0.06349206349206349, -0.7594627594627594, 0.5625, 1.0
757, -0.11355311355311355, -0.39438339438339437, 0.75, 1.0
758, 0.15873015873015872, -0.47496947496947495, 0.78125, 1.0
759, 0.4163614163614164, -0.36507936507936506, 0.8125, 1.0
760, 0.1978021978021978, -0.26495726495726496, 0.8125, 1.0
761, 0.054945054945054944, -0.14407814407814407, 0.875, 1.0
762, 0.16605616605616605, -0.23443223443223443, 0.9375, 1.0
763, 0.22466422466422467, -0.36874236874236876, 0.9375, 1.0
764, 0.5115995115995116, -0.4725274725274725, 0.9375, 1.0
765, 0.7692307692307693, -0.4713064713064713, 0.875, 1.0
766, 0.3431013431013431, -0.398046398046398, 0.9375, 1.0
767, 0.6581196581196581, -0.31746031746031744, 0.875, 1.0
768, 0.7130647130647131, -0.045177045177045176, 0.65625, 1.0
769, 0.5665445665445665, -0.10989010989010989, 0.4375, 1.0
770, 0.6984126984126984, -0.03296703296703297, 0.4375, 1.0
771, 1.1391941391941391, -0.14896214896214896, 0.53125, 1.0
772, 0.8412698412698413, -0.3797313797313797, 0.46875, 1.0
773, 0.7130647130647131, -0.4017094017094017, 0.46875, 1.0
774, 1.6813186813186813, -0.6361416361416361, 0.625, 1.0
775, 1.695970695970696, -0.63003663003663, 0.71875, 1.0
776, 1.5335775335775337, -0.4981684981684982, 0.84375, 1.0
777, 1.89010989010989, -0.590964590964591, 0.9375, 1.0
778, 2.5506715506715505, -1.2271062271062272, 0.96875, 1.0
779, 2.1416361416361416, -0.6910866910866911, 0.875, 1.0
780, 1.9096459096459097, -0.4908424908424908, 0.875, 1.0
781, 1.8131868131868132, -0.336996336996337, 0.75, 1.0
782, 1.4468864468864469, 0.03907203907203907, 0.75, 1.0
783, 1.592185592185592, 0.09768009768009768, 0.84375, 1.0
784, 1.938949938949939, -0.29426129426129427, 0.84375, 1.0
785, 1.866910866910867, -0.16483516483516483, 0.71875, 1.0
786, 1.9304029304029304, -0.2686202686202686, 0.625, 1.0
787, 2.241758241758242, -0.3907203907203907, 0.46875, 1.0
788, 2.311355311355311, -0.21611721611721613, 0.3125, 1.0
789, 2.0366300366300365, -0.01098901098901099, 0.1875, 1.0
790, 2.0317460317460316, -0.2454212454212454, 0.1875, 1.0
791, 2.122100122100122, -0.4835164835164835, 0.0, 0.0
792, 1.3357753357753357, 0.06471306471306472, -0.15625, 0.0
793, 1.3125763125763126, -0.10622710622710622, -0.3125, 0.0
794, 1.514041514041514, -0.1452991452991453, -0.28125, 0.0
795, 1.8144078144078144, -0.46886446886446886, -0.40625, 0.0
796, 1.3956043956043955, -0.38461538461538464, -0.46875, 0.0
797, 1.0793650793650793, -0.5457875457875457, -0.53125, 0.0
798, 0.7191697191697192, -0.3052503052503053, -0.53125, 0.0
799, 0.7851037851037851, -0.3516483516483517, -0.4375, 0.0
800, 0.8131868131868132, -0.568986568986569, -0.46875, 0.0
801, 0.3663003663003663, -0.5225885225885226, -0.5625, 0.0
802, -0.04395604395604396, -0.38095238095238093, -0.5625, 0.0
803, -0.3235653235653236, -0.6324786324786325, -0.46875, 0.0
804, -0.5128205128205128, -0.8363858363858364, -0.46875, 0.0
805, -0.8974358974358975, -0.7081807081807082, -0.5, 0.0
806, -0.967032967032967, -0.6666666666666666, -0.5, 0.0
807, -1.1672771672771673, -0.37606837606837606, -0.5625, 0.0
808, -1.3614163614163615, -0.2454212454212454, -0.5, 0.0
809, -1.164835164835165, -0.3199023199023199, -0.625, 0.0
810, -1.170940170940171, -0.3528693528693529, -0.65625, 0.0
811, -1.5726495726495726, -0.4713064713064713, -0.59375, 0.0
812, -1.623931623931624, -0.568986568986569, -0.6875, 0.0
813, -1.3919413919413919, -0.6043956043956044, -0.8125, 0.0
814, -1.2551892551892552, -0.4175824175824176, -0.8125, 0.0
815, -1.2661782661782661, -0.28083028083028083, -0.84375, 0.0
816, -1.0695970695970696, -0.19536019536019536, -0.78125, 0.0
817, -0.5836385836385837, -0.7057387057387058, -0.9375, 0.0
818, -1.028083028083028, -0.7716727716727717, -1.09375, 0.0
819, -1.2039072039072038, -0.7142857142857143, -1.03125, 0.0
820, -1.0134310134310134, -0.7924297924297924, -1.03125, 0.0
821, -1.0451770451770452, -0.4945054945054945, -0.96875, 0.0
822, -1.4615384615384615, -0.06105006105006105, -0.9375, 0.0
823, -2.012210012210012, -0.05982905982905983, -0.9375, 0.0
824, -2.5946275946275947, 0.07814407814407814, -1.03125, 0.0
825, -2.1965811965811968, -0.008547008547008548, -0.875, 0.0
826, -1.3113553113553114, -0.05982905982905983, -0.6875, 0.0
827, -1.4774114774114775, 0.10378510378510379, -0.6875, 0.0
828, -2.341880341880342, 0.1221001221001221, -0.65625, 0.0
829, -2.2796092796092795, -0.39316239316239315, -0.5625, 0.0
830, -1.6971916971916972, -0.663003663003663, -0.4375, 0.0
831, -1.5787545787545787, -0.5103785103785103, -0.34375, 0.0
832, -1.4664224664224663, -0.2673992673992674, -0.21875, 0.0
833, -1.5567765567765568, -0.05616605616605617, -0.21875, 0.0
834, -1.3382173382173381, -0.20512820512820512, -0.09375, 0.0
835, -0.702075702075702, -0.5482295482295483, -0.0625, 0.0
836, -0.6312576312576312, -0.3907203907203907, -0.03125, 0.0
837, -0.8620268620268621, -0.1391941391941392, 0.0, 0.0
838, -0.7008547008547008, -0.21978021978021978, 0.0, 0.0
839, -0.3052503052503053, -0.5543345543345544, 0.0, 0.0
840, 0.19413919413919414, -0.7814407814407814, -0.03125, 0.0
841, 0.2612942612942613, -0.37484737484737485, -0.15625, 1.0
842, 0.14041514041514042, -0.36996336996337, -0.15625, 1.0
843, -0.23443223443223443, -0.3772893772893773, -0.125, 1.0
844, -0.5677655677655677, -0.3540903540903541, 0.0, 1.0
845, -0.4468864468864469, -0.1746031746031746, 0.125, 1.0
846, -0.15384615384615385, -0.08791208791208792, 0.1875, 1.0
847, -0.2039072039072039, 0.057387057387057384, 0.15625, 1.0
848, -0.28205128205128205, -0.11721611721611722, 0.0, 1.0
849, -0.5995115995115995, -0.17338217338217338, 0.0, 1.0
850, -0.7338217338217338, -0.3247863247863248, 0.09375, 1.0
851, -0.7655677655677655, -0.21001221001221002, 0.21875, 1.0
852, -0.8424908424908425, 0.017094017094017096, 0.25, 1.0
853, -0.6776556776556777, 0.13064713064713065, 0.25, 1.0
854, -0.17704517704517705, -0.2490842490842491, 0.15625, 1.0
855, -0.31013431013431014, -0.3833943833943834, 0.46875, 1.0
856, -0.019536019536019536, -0.6336996336996337, 0.5625, 1.0
857, -0.2271062271062271, -0.221001221001221, 0.59375, 1.0
858, -0.115995115995116, -0.19658119658119658, 0.59375, 1.0
859, 0.315018315018315, -0.2954822954822955, 0.46875, 1.0
860, 0.06715506715506715, -0.19536019536019536, 0.65625, 1.0
861, 0.2600732600732601, -0.452991452991453, 0.84375, 1.0
862, 0.3052503052503053, -0.4078144078144078, 0.84375, 1.0
863, 0.04395604395604396, -0.442002442002442, 0.78125, 1.0
864, 0.12087912087912088, -0.3553113553113553, 0.5625, 1.0
865, 0.10744810744810745, -0.16605616605616605, 0.5625, 1.0
866, 0.231990231990232, -0.057387057387057384, 0.78125, 1.0
867, 0.38705738705738707, 0.009768009768009768, 0.8125, 1.0
868, 0.326007326007326, 0.05128205128205128, 0.71875, 1.0
869, 0.6874236874236874, -0.5518925518925519, 0.59375, 1.0
870, 0.9560439560439561, -0.6605616605616605, 0.5625, 1.0
871, 0.989010989010989, -0.6227106227106227, 0.59375, 1.0
872, 0.8693528693528694, -0.6837606837606838, 0.5625, 1.0
873, 0.23931623931623933, -0.2954822954822955, 0.375, 1.0
874, 0.5494505494505495, -0.21123321123321123, 0.3125, 1.0
875, 1.5946275946275947, -0.3711843711843712, 0.4375, 1.0
876, 2.326007326007326, -0.6727716727716728, 0.5625, 1.0
877, 1.835164835164835, -0.4468864468864469, 0.6875, 1.0
878, 1.1758241758241759, -0.2039072039072039, 0.8125, 1.0
879, 1.1562881562881564, -0.27228327228327226, 0.84375, 1.0
880, 0.5946275946275946, 0.19658119658119658, 0.78125, 1.0
881, 0.5128205128205128, 0.31013431013431014, 0.9375, 1.0
882, 0.7509157509157509, -0.09768009768009768, 1.09375, 1.0
883, 0.6642246642246642, -0.5384615384615384, 1.0625, 1.0
884, 0.3772893772893773, -0.21123321123321123, 1.0, 1.0
885, 0.6715506715506715, 0.03418803418803419, 1.0, 1.0
886, 0.9438339438339438, 0.14774114774114774, 1.03125, 1.0
887, 1.514041514041514, -0.5543345543345544, 1.0625, 1.0
888, 1.4810744810744811, -0.6434676434676435, 0.90625, 1.0
889, 1.4822954822954824, -0.30158730158730157, 0.71875, 1.0
890, 1.6483516483516483, -0.23565323565323565, 0.5625, 1.0
891, 1.4945054945054945, -0.18192918192918192, 0.5, 1.0
892, 1.5262515262515262, -0.13553113553113552, 0.40625, 1.0
893, 1.3003663003663004, -0.21611721611721613, 0.25, 1.0
894, 1.1184371184371185, -0.05982905982905983, 0.25, 1.0
895, 1.0305250305250304, -0.18437118437118438, 0.15625, 1.0
896, 1.0671550671550671, -0.27472527472527475, 0.0625, 1.0
897, 1.1978021978021978, -0.41025641025641024, -0.03125, 1.0
898, 0.8229548229548229, 0.008547008547008548, -0.125, 0.0
899, 0.3663003663003663, 0.3199023199023199, -0.1875, 0.0
900, 0.9304029304029304, -0.13064713064713065, -0.25, 0.0
901, 1.0940170940170941, -0.3125763125763126, -0.34375, 0.0
902, 1.0085470085470085, -0.4456654456654457, -0.4375, 0.0
903, 0.5787545787545788, -0.054945054945054944, -0.5, 0.0
904, 0.4822954822954823, -0.17094017094017094, -0.5, 0.0
905, 0.31746031746031744, -0.514041514041514, -0.625, 0.0
906, -0.5787545787545788, -0.5067155067155067, -0.75, 0.0
907, -1.083028083028083, -0.45054945054945056, -0.71875, 0.0
908, -0.9023199023199023, -0.4078144078144078, -0.6875, 0.0
909, -0.4810744810744811, -0.4981684981684982, -0.65625, 0.0
910, -0.19291819291819293, -0.5824175824175825, -0.5625, 0.0
911, -0.590964590964591, -0.6617826617826618, -0.34375, 0.0
912, -0.8791208791208791, -0.5946275946275946, -0.28125, 0.0
913, -0.7643467643467643, -0.6996336996336996, -0.375, 0.0
914, -0.884004884004884, -0.4078144078144078, -0.40625, 0.0
915, -0.8803418803418803, -0.5726495726495726, -0.28125, 0.0
916, -0.7777777777777778, -0.7252747252747253, -0.375, 0.0
917, -0.9462759462759462, -0.4078144078144078, -0.625, 0.0
918, -0.9768009768009768, -0.2698412698412698, -0.59375, 0.0
919, -0.6776556776556777, -0.3418803418803419, -0.5625, 0.0
920, -0.796092796092796, -0.4932844932844933, -0.65625, 0.0
921, -1.5836385836385836, -0.36752136752136755, -0.75, 0.0
922, -1.9694749694749696, -0.09401709401709402, -0.65625, 0.0
923, -1.5567765567765568, -0.1452991452991453, -0.6875, 0.0
924, -1.424908424908425, -0.13797313797313798, -0.78125, 0.0
925, -1.945054945054945, 0.199023199023199, -0.8125, 0.0
926, -2.6715506715506714, 0.4371184371184371, -0.6875, 0.0
927, -2.139194139194139, -0.44078144078144077, -0.65625, 0.0
928, -1.993894993894994, -0.409035409035409, -0.78125, 0.0
929, -1.7362637362637363, -0.06837606837606838, -0.59375, 0.0
930, -1.0354090354090355, -0.23565323565323565, -0.40625, 0.0
931, -0.746031746031746, -0.3626373626373626, -0.40625, 0.0
932, -1.1111111111111112, -0.4590964590964591, -0.4375, 0.0
933, -1.5274725274725274, -0.5958485958485958, -0.40625, 0.0
934, -0.9230769230769231, -0.6166056166056166, -0.34375, 0.0
935, -0.33821733821733824, -0.7130647130647131, -0.34375, 0.0
936, -1.0463980463980465, -0.4163614163614164, -0.3125, 0.0
937, -1.4212454212454213, -0.5274725274725275, -0.25, 0.0
938, -1.0415140415140416, -0.7765567765567766, -0.375, 0.0
939, -1.017094017094017, -0.6117216117216118, -0.3125, 0.0
940, -0.8608058608058609, -0.3553113553113553, -0.1875, 0.0
941, -0.7680097680097681, -0.15995115995115994, -0.21875, 0.0
942, -1.1013431013431014, -0.11843711843711843, -0.25, 0.0
943, -1.6507936507936507, 0.2258852258852259, -0.1875, 0.0
944, -1.1941391941391941, 0.13553113553113552, -0.15625, 0.0
945, -0.6727716727716728, -0.05128205128205128, -0.1875, 0.0
946, -0.6324786324786325, -0.001221001221001221, -0.25, 0.0
947, -1.05006105006105, -0.13186813186813187, -0.09375, 0.0
948, -0.7704517704517705, -0.6776556776556777, -0.09375, 0.0
949, -0.38217338217338215, -0.6923076923076923, -0.15625, 0.0
950, -0.37606837606837606, -0.2954822954822955, -0.1875, 1.0
951, -0.09157509157509157, -0.5726495726495726, -0.1875, 1.0
952, -0.019536019536019536, -0.5152625152625152, -0.03125, 1.0
953, 0.08302808302808302, -0.4432234432234432, 0.03125, 1.0
954, -0.33943833943833945, -0.20512820512820512, 0.15625, 1.0
955, -0.46764346764346765, -0.04151404151404151, 0.28125, 1.0
956, -0.6544566544566545, 0.05982905982905983, 0.34375, 1.0
957, -0.663003663003663, -0.03418803418803419, 0.375, 1.0
958, -0.6275946275946276, -0.2148962148962149, 0.375, 1.0
959, -0.45787545787545786, -0.3797313797313797, 0.34375, 1.0
960, -0.47985347985347987, -0.2576312576312576, 0.3125, 1.0
961, -0.115995115995116, -0.2612942612942613, 0.375, 1.0
962, 0.24786324786324787, -0.31135531135531136, 0.46875, 1.0
963, -0.41147741147741146, -0.19413919413919414, 0.5, 1.0
964, -0.08058608058608059, -0.17826617826617827, 0.59375, 1.0
965, 0.08547008547008547, -0.17826617826617827, 0.59375, 1.0
966, 0.1623931623931624, -0.11965811965811966, 0.59375, 1.0
967, 0.017094017094017096, 0.5225885225885226, 0.46875, 1.0
968, -0.5982905982905983, 0.7277167277167277, 0.5625, 1.0
969, 0.115995115995116, -0.10378510378510379, 0.96875, 1.0
970, 0.5702075702075702, -0.4542124542124542, 0.96875, 1.0
971, 0.7802197802197802, -0.7753357753357754, 0.96875, 1.0
972, 0.7484737484737485, -0.8424908424908425, 0.78125, 1.0
973, 0.31746031746031744, -0.2625152625152625, 0.53125, 1.0
974, -0.18315018315018314, 0.015873015873015872, 0.4375, 1.0
975, -0.21611721611721613, -0.1746031746031746, 0.53125, 1.0
976, -0.003663003663003663, -0.5079365079365079, 0.5, 1.0
977, -0.463980463980464, -0.28083028083028083, 0.46875, 1.0
978, -0.7973137973137974, 0.13675213675213677, 0.59375, 1.0
979, -0.568986568986569, 0.013431013431013432, 0.71875, 1.0
980, 0.7619047619047619, -0.8644688644688645, 0.9375, 1.0
981, 1.884004884004884, -1.6507936507936507, 1.09375, 1.0
982, 2.4175824175824174, -1.6336996336996337, 1.09375, 1.0
983, 2.227106227106227, -1.2307692307692308, 1.03125, 1.0
984, 2.5763125763125765, -1.1306471306471306, 1.0625, 1.0
985, 3.3272283272283274, -1.21001221001221, 1.125, 1.0
986, 3.0915750915750917, -1.0598290598290598, 1.0, 1.0
987, 2.8754578754578755, -0.7448107448107448, 0.96875, 1.0
988, 2.7936507936507935, -0.4554334554334554, 0.96875, 1.0
989, 2.656898656898657, -0.34065934065934067, 1.03125, 1.0
990, 2.8998778998779, -0.5445665445665445, 1.0, 1.0
991, 2.5396825396825395, -0.7545787545787546, 0.71875, 1.0
992, 2.3736263736263736, -0.5848595848595849, 0.53125, 1.0
993, 2.728937728937729, -0.4627594627594628, 0.46875, 1.0
994, 2.2796092796092795, -0.2490842490842491, 0.4375, 1.0
995, 1.6776556776556777, 0.008547008547008548, 0.40625, 1.0
996, 1.380952380952381, -0.1562881562881563, 0.34375, 1.0
997, 1.0671550671550671, -0.2442002442002442, 0.28125, 1.0
998, 1.2344322344322345, -0.4236874236874237, 0.1875, 1.0
999, 1.4468864468864469, -0.6923076923076923, 0.0625, 0.0
1000, 1.122100122100122, -0.4261294261294261, 0.0, 0.0
1001, 0.8937728937728938, -0.2087912087912088, 0.0, 0.0
1002, 1.0207570207570207, -0.21001221001221002, -0.03125, 0.0
1003, 1.1111111111111112, -0.5006105006105006, -0.125, 0.0
1004, 0.7802197802197802, -0.6959706959706959, -0.25, 0.0
1005, 0.6068376068376068, -0.6715506715506715, -0.3125, 0.0
1006, 0.8388278388278388, -0.5641025641025641, -0.3125, 0.0
1007, 0.8192918192918193, -0.6495726495726496, -0.34375, 0.0
1008, 0.1514041514041514, -0.6092796092796092, -0.3125, 0.0
1009, -0.09401709401709402, -0.3711843711843712, -0.28125, 0.0
1010, 0.6959706959706959, -0.2905982905982906, -0.125, 0.0
1011, 1.8510378510378511, -0.23565323565323565, -0.21875, 0.0
1012, 0.8583638583638583, -0.398046398046398, -0.5, 0.0
1013, 0.3882783882783883, -0.3992673992673993, -0.625, 0.0
1014, 0.1978021978021978, -0.19413919413919414, -0.59375, 0.0
1015, 0.12332112332112333, -0.21001221001221002, -0.5625, 0.0
1016, -0.018315018315018316, -0.22344322344322345, -0.53125, 0.0
1017, -0.3028083028083028, -0.1452991452991453, -0.5, 0.0
1018, -0.3663003663003663, -0.3064713064713065, -0.46875, 0.0
1019, -0.28083028083028083, -0.3626373626373626, -0.375, 0.0
1020, 0.1514041514041514, -0.23687423687423687, -0.3125, 0.0
1021, -0.6654456654456654, 0.2869352869352869, -0.53125, 0.0
1022, -1.2722832722832722, 0.18437118437118438, -0.625, 0.0
1023, -1.1184371184371185, -0.3064713064713065, -0.5, 0.0
1024, -0.8827838827838828, -0.5177045177045178, -0.71875, 0.0
1025, -1.8107448107448108, 0.031746031746031744, -1.03125, 0.0
1026, -1.7374847374847375, -0.06593406593406594, -0.90625, 0.0
1027, -1.0415140415140416, -0.4346764346764347, -0.875, 0.0
1028, -0.9584859584859585, -0.43345543345543347, -0.90625, 0.0
1029, -1.3455433455433456, -0.231990231990232, -1.03125, 0.0
1030, -1.7851037851037852, -0.33821733821733824, -1.0, 0.0
1031, -1.7863247863247864, -0.5433455433455433, -0.875, 0.0
1032, -1.5091575091575091, -0.46764346764346765, -0.78125, 0.0
1033, -1.5091575091575091, 0.02564102564102564, -0.78125, 0.0
1034, -1.5018315018315018, -0.008547008547008548, -0.78125, 0.0
1035, -1.7301587301587302, -0.3601953601953602, -0.5625, 0.0
1036, -1.7826617826617828, -0.63003663003663, -0.59375, 0.0
1037, -2.192918192918193, -0.4542124542124542, -0.5, 0.0
1038, -2.0073260073260073, -0.6886446886446886, -0.375, 0.0
1039, -1.8315018315018314, -0.7142857142857143, -0.28125, 0.0
1040, -2.148962148962149, -0.4884004884004884, -0.3125, 0.0
1041, -2.4774114774114775, -0.5531135531135531, -0.3125, 0.0
1042, -1.877899877899878, -0.8400488400488401, -0.125, 0.0
1043, -0.8888888888888888, -0.9096459096459096, -0.0625, 0.0
1044, -0.8290598290598291, -0.5018315018315018, -0.125, 0.0
1045, -1.2087912087912087, 0.06471306471306472, -0.0625, 0.0
1046, -0.7545787545787546, -0.24053724053724054, -0.03125, 0.0
1047, -0.5543345543345544, -0.6361416361416361, -0.09375, 0.0
1048, -0.3785103785103785, -0.304029304029304, -0.125, 0.0
1049, -0.45787545787545786, 0.08547008547008547, -0.09375, 0.0
1050, -0.4053724053724054, -0.2258852258852259, -0.09375, 0.0
1051, -0.14285714285714285, -0.3516483516483517, -0.125, 1.0
1052, 0.03296703296703297, -0.6385836385836385, -0.09375, 1.0
1053, 0.07081807081807082, -0.14896214896214896, -0.0625, 1.0
1054, -0.09768009768009768, -0.0927960927960928, -0.0625, 1.0
1055, -0.34065934065934067, -0.2442002442002442, 0.03125, 1.0
1056, -0.38583638583638585, -0.5897435897435898, 0.125, 1.0
1057, -0.3321123321123321, -0.5714285714285714, 0.125, 1.0
1058, -0.6959706959706959, 0.028083028083028084, 0.15625, 1.0
1059, -1.0879120879120878, 0.115995115995116, 0.15625, 1.0
1060, -0.63003663003663, -0.24297924297924298, 0.21875, 1.0
1061, -0.684981684981685, -0.08180708180708181, 0.34375, 1.0
1062, -0.5995115995115995, 0.2258852258852259, 0.40625, 1.0
1063, -0.06715506715506715, -0.08547008547008547, 0.5, 1.0
1064, 0.10622710622710622, -0.34554334554334554, 0.625, 1.0
1065, 0.18315018315018314, -0.4590964590964591, 0.71875, 1.0
1066, 0.07326007326007326, -0.21245421245421245, 0.71875, 1.0
1067, 0.1514041514041514, -0.46886446886446886, 0.59375, 1.0
1068, -0.013431013431013432, -0.10134310134310134, 0.53125, 1.0
1069, -0.08180708180708181, 0.0989010989010989, 0.6875, 1.0
1070, -0.02197802197802198, 0.05128205128205128, 0.71875, 1.0
1071, -0.05982905982905983, -0.07448107448107448, 0.6875, 1.0
1072, -0.07692307692307693, -0.1514041514041514, 0.6875, 1.0
1073, 0.1575091575091575, -0.2857142857142857, 0.9375, 1.0
1074, 0.6105006105006106, -0.5372405372405372, 1.03125, 1.0
1075, 0.6336996336996337, -0.7057387057387058, 1.0, 1.0
1076, 0.48717948717948717, -0.6678876678876678, 0.78125, 1.0
1077, 0.1575091575091575, -0.20634920634920634, 0.625, 1.0
1078, 0.10378510378510379, -0.1746031746031746, 0.75, 1.0
1079, 0.7326007326007326, -0.7435897435897436, 0.90625, 1.0
1080, 1.6544566544566544, -1.286935286935287, 1.1875, 1.0
1081, 1.7008547008547008, -1.6984126984126984, 1.125, 1.0
1082, 0.7680097680097681, -1.1538461538461537, 0.875, 1.0
1083, 0.6178266178266179, -0.42246642246642246, 0.875, 1.0
1084, 0.2844932844932845, 0.06105006105006105, 0.78125, 1.0
1085, 0.001221001221001221, 0.05616605616605617, 0.6875, 1.0
1086, 0.09401709401709402, -0.2039072039072039, 0.625, 1.0
1087, 0.221001221001221, -0.17338217338217338, 0.46875, 1.0
1088, -0.08302808302808302, -0.14285714285714285, 0.5625, 1.0
1089, 0.8571428571428571, -1.0134310134310134, 0.6875, 1.0
1090, 2.0354090354090353, -1.4578754578754578, 0.75, 1.0
1091, 2.1172161172161172, -1.3382173382173381, 0.6875, 1.0
1092, 1.3394383394383393, -0.724053724053724, 0.6875, 1.0
1093, 1.271062271062271, -0.4725274725274725, 0.78125, 1.0
1094, 2.3626373626373627, -0.9377289377289377, 0.84375, 1.0
1095, 2.358974358974359, -0.884004884004884, 0.75, 1.0
1096, 1.956043956043956, -1.0097680097680097, 0.625, 1.0
1097, 1.5653235653235653, -0.5433455433455433, 0.53125, 1.0
1098, 1.7472527472527473, 0.06105006105006105, 0.5625, 1.0
1099, 2.2466422466422467, -0.2979242979242979, 0.53125, 1.0
1100, 2.2051282051282053, -0.3724053724053724, 0.375, 1.0
1101, 1.6031746031746033, -0.19536019536019536, 0.1875, 1.0
1102, 1.072039072039072, -0.20146520146520147, 0.15625, 1.0
1103, 1.0293040293040292, -0.38461538461538464, 0.15625, 1.0
1104, 0.6471306471306472, -0.4896214896214896, 0.125, 1.0
1105, 0.6593406593406593, -0.5457875457875457, 0.09375, 1.0
1106, 1.188034188034188, -0.8717948717948718, 0.0, 0.0
1107, 0.978021978021978, -0.08913308913308914, -0.0625, 0.0
1108, 0.38461538461538464, 0.33455433455433453, -0.0625, 0.0
1109, 0.557997557997558, -0.14407814407814407, -0.09375, 0.0
1110, 0.9938949938949939, -0.5433455433455433, -0.21875, 0.0
1111, 1.0012210012210012, -0.746031746031746, -0.40625, 0.0
1112, 0.9352869352869353, -0.7277167277167277, -0.46875, 0.0
1113, 0.7582417582417582, -0.5445665445665445, -0.5625, 0.0
1114, 0.8046398046398047, -0.6410256410256411, -0.65625, 0.0
1115, 0.6361416361416361, -0.5238095238095238, -0.71875, 0.0
1116, 0.6984126984126984, -0.6703296703296703, -0.75, 0.0
1117, 0.34554334554334554, -0.7057387057387058, -0.84375, 0.0
1118, -0.08302808302808302, -0.28205128205128205, -0.9375, 0.0
1119, 0.06471306471306472, -0.3614163614163614, -0.9375, 0.0
1120, -0.2979242979242979, -0.612942612942613, -0.90625, 0.0
1121, -0.9181929181929182, -0.6190476190476191, -0.78125, 0.0
1122, -1.253968253968254, -0.5726495726495726, -0.5625, 0.0
1123, -1.2735042735042734, -0.5445665445665445, -0.40625, 0.0
1124, -1.9084249084249085, -0.25396825396825395, -0.34375, 0.0
1125, -2.249084249084249, -0.17704517704517705, -0.375, 0.0
1126, -1.807081807081807, -0.41514041514041516, -0.375, 0.0
1127, -1.6092796092796093, -0.6471306471306472, -0.4375, 0.0
1128, -1.3015873015873016, -0.6227106227106227, -0.40625, 0.0
1129, -1.236874236874237, -0.5787545787545788, -0.53125, 0.0
1130, -1.4981684981684982, -0.5958485958485958, -0.65625, 0.0
1131, -0.8315018315018315, -0.7301587301587301, -0.78125, 0.0
1132, -0.8717948717948718, -0.717948717948718, -1.15625, 0.0
1133, -2.081807081807082, -0.09768009768009768, -1.1875, 0.0
1134, -3.288156288156288, 0.1746031746031746, -1.15625, 0.0
1135, -3.5653235653235655, 0.12698412698412698, -0.96875, 0.0
1136, -3.045177045177045, -0.12332112332112333, -0.75, 0.0
1137, -2.3443223443223444, -0.6202686202686203, -0.6875, 0.0
1138, -2.4126984126984126, -0.6385836385836385, -0.5625, 0.0
1139, -2.1416361416361416, -0.4371184371184371, -0.5, 0.0
1140, -2.0586080586080584, -0.25274725274725274, -0.4375, 0.0
1141, -2.155067155067155, -0.4261294261294261, -0.34375, 0.0
1142, -1.5274725274725274, -0.818070818070818, -0.34375, 0.0
1143, -1.2185592185592184, -0.833943833943834, -0.3125, 0.0
1144, -1.326007326007326, -0.6642246642246642, -0.21875, 0.0
1145, -1.4810744810744811, -0.6275946275946276, -0.25, 0.0
1146, -1.2222222222222223, -0.5531135531135531, -0.25, 0.0
1147, -1.3382173382173381, -0.4139194139194139, -0.15625, 0.0
1148, -1.2087912087912087, -0.48595848595848595, -0.09375, 0.0
1149, -1.0366300366300367, -0.40293040293040294, -0.09375, 0.0
1150, -0.8376068376068376, -0.3162393162393162, -0.09375, 0.0
1151, -0.6398046398046398, -0.1978021978021978, -0.03125, 0.0
1152, -0.6434676434676435, -0.1746031746031746, -0.03125, 0.0
1153, -0.5457875457875457, -0.1391941391941392, -0.0625, 0.0
1154, -0.358974358974359, -0.1452991452991453, -0.125, 0.0
1155, -0.13553113553113552, -0.36996336996337, -0.0625, 0.0
1156, -0.2039072039072039, -0.5054945054945055, -0.125, 0.0
1157, -0.15873015873015872, -0.13186813186813187, -0.1875, 0.0
1158, -0.4993894993894994, -0.5006105006105006, -0.25, 1.0
1159, -0.568986568986569, -0.36874236874236876, -0.0625, 1.0
1160, -0.15506715506715507, -0.09035409035409035, 0.0, 1.0
1161, -0.7680097680097681, 0.11355311355311355, 0.03125, 1.0
1162, -0.5177045177045178, 0.054945054945054944, 0.0625, 1.0
1163, -0.5775335775335775, -0.21367521367521367, 0.0625, 1.0
1164, -1.0390720390720392, -0.315018315018315, 0.1875, 1.0
1165, -1.0940170940170941, -0.18315018315018314, 0.25, 1.0
1166, -0.9877899877899878, -0.03907203907203907, 0.28125, 1.0
1167, -0.5897435897435898, -0.1391941391941392, 0.25, 1.0
1168, -0.9487179487179487, -0.10744810744810745, 0.09375, 1.0
1169, -1.3504273504273505, 0.2771672771672772, 0.25, 1.0
1170, -1.0854700854700854, 0.20634920634920634, 0.4375, 1.0
1171, -0.7753357753357754, 0.15018315018315018, 0.53125, 1.0
1172, -0.0695970695970696, -0.5616605616605617, 0.5625, 1.0
1173, -0.27594627594627597, -0.7557997557997558, 0.375, 1.0
1174, 0.06105006105006105, -0.8168498168498168, 0.90625, 1.0
1175, 0.6043956043956044, -1.3162393162393162, 1.03125, 1.0
1176, 0.8791208791208791, -1.0695970695970696, 1.0625, 1.0
1177, 1.061050061050061, -1.0488400488400489, 0.90625, 1.0
1178, 0.6556776556776557, -0.608058608058608, 0.65625, 1.0
1179, 0.6898656898656899, -0.4725274725274725, 0.8125, 1.0
1180, 1.304029304029304, -0.818070818070818, 1.1875, 1.0
1181, 1.1233211233211233, -0.6031746031746031, 1.25, 1.0
1182, 0.9694749694749695, -0.5103785103785103, 1.15625, 1.0
1183, 0.8107448107448108, -0.45054945054945056, 1.03125, 1.0
1184, 0.7667887667887668, -0.14652014652014653, 0.96875, 1.0
1185, 0.452991452991453, -0.03418803418803419, 1.03125, 1.0
1186, 0.12454212454212454, -0.08913308913308914, 0.90625, 1.0
1187, 0.3137973137973138, -0.42857142857142855, 0.8125, 1.0
1188, 0.9352869352869353, -0.7997557997557998, 0.625, 1.0
1189, 0.9426129426129426, -0.6556776556776557, 0.625, 1.0
1190, 0.6874236874236874, -0.6361416361416361, 0.59375, 1.0
1191, 0.38095238095238093, -0.08058608058608059, 0.46875, 1.0
1192, 0.0757020757020757, -0.11843711843711843, 0.375, 1.0
1193, 0.8424908424908425, -0.5811965811965812, 0.375, 1.0
1194, 1.3284493284493284, -0.5982905982905983, 0.4375, 1.0
1195, 0.8253968253968254, -0.16483516483516483, 0.5, 1.0
1196, 0.5372405372405372, -0.3663003663003663, 0.625, 1.0
1197, 0.11233211233211234, -0.08547008547008547, 0.78125, 1.0
1198, 0.6446886446886447, -0.5665445665445665, 0.90625, 1.0
1199, 1.0708180708180708, -0.7704517704517705, 0.8125, 1.0
1200, 0.6678876678876678, -0.33455433455433453, 0.8125, 1.0
1201, 0.2954822954822955, -0.22344322344322345, 0.75, 1.0
1202, 0.8778998778998779, -0.3894993894993895, 0.71875, 1.0
1203, 1.3516483516483517, -0.36385836385836384, 0.6875, 1.0
1204, 1.1611721611721613, -0.4139194139194139, 0.5625, 1.0
1205, 1.0683760683760684, -0.03907203907203907, 0.4375, 1.0
1206, 1.0757020757020757, 0.052503052503052504, 0.4375, 1.0
1207, 0.8681318681318682, -0.045177045177045176, 0.40625, 1.0
1208, 0.29181929181929184, -0.05860805860805861, 0.34375, 1.0
1209, 0.33455433455433453, -0.06349206349206349, 0.21875, 1.0
1210, 0.41514041514041516, -0.026862026862026864, 0.15625, 1.0
1211, 0.8632478632478633, -0.27228327228327226, 0.09375, 0.0
1212, 0.08180708180708181, 0.41025641025641024, 0.03125, 0.0
1213, 0.57997557997558, 0.11477411477411477, 0.03125, 0.0
1214, 0.7448107448107448, -0.042735042735042736, -0.03125, 0.0
1215, 0.6361416361416361, -0.1221001221001221, -0.125, 0.0
1216, 0.6910866910866911, -0.23931623931623933, -0.25, 0.0
1217, 0.5921855921855922, -0.26495726495726496, -0.3125, 0.0
1218, 0.7667887667887668, -0.43101343101343104, -0.375, 0.0
1219, 0.4432234432234432, -0.304029304029304, -0.4375, 0.0
1220, 0.6471306471306472, -0.5763125763125763, -0.46875, 0.0
1221, 0.8852258852258852, -0.663003663003663, -0.59375, 0.0
1222, 0.9438339438339438, -0.3772893772893773, -0.6875, 0.0
1223, 0.63003663003663, -0.5128205128205128, -0.6875, 0.0
1224, -0.23687423687423687, -0.36874236874236876, -0.78125, 0.0
1225, -1.0732600732600732, -0.16361416361416362, -0.71875, 0.0
1226, -0.8559218559218559, -0.452991452991453, -0.59375, 0.0
1227, -0.38583638583638585, -0.8278388278388278, -0.5625, 0.0
1228, -0.5238095238095238, -0.6166056166056166, -0.5625, 0.0
1229, -1.2234432234432235, -0.5054945054945055, -0.59375, 0.0
1230, -1.750915750915751, -0.19658119658119658, -0.46875, 0.0
1231, -1.623931623931624, 0.0927960927960928, -0.21875, 0.0
1232, -1.1758241758241759, -0.21123321123321123, -0.125, 0.0
1233, -1.3247863247863247, -0.5592185592185592, -0.3125, 0.0
1234, -1.7142857142857142, -0.28327228327228327, -0.40625, 0.0
1235, -2.717948717948718, 0.04395604395604396, -0.375, 0.0
1236, -3.2283272283272284, 0.1978021978021978, -0.4375, 0.0
1237, -2.3797313797313797, -0.43101343101343104, -0.625, 0.0
1238, -1.807081807081807, -0.8681318681318682, -0.8125, 0.0
1239, -2.4383394383394386, -0.8571428571428571, -0.8125, 0.0
1240, -2.111111111111111, -0.9304029304029304, -0.71875, 0.0
1241, -1.8315018315018314, -0.7643467643467643, -0.8125, 0.0
1242, -2.029304029304029, -0.31746031746031744, -0.90625, 0.0
1243, -2.5054945054945055, -0.17338217338217338, -0.84375, 0.0
1244, -2.3064713064713063, -0.5482295482295483, -0.65625, 0.0
1245, -1.9145299145299146, -0.8168498168498168, -0.75, 0.0
1246, -1.9768009768009769, -0.33821733821733824, -0.71875, 0.0
1247, -2.4188034188034186, -0.18803418803418803, -0.5625, 0.0
1248, -2.2466422466422467, -0.442002442002442, -0.46875, 0.0
1249, -1.663003663003663, -0.8681318681318682, -0.53125, 0.0
1250, -1.6581196581196582, -0.8925518925518926, -0.40625, 0.0
1251, -1.7521367521367521, -0.6166056166056166, -0.34375, 0.0
1252, -1.728937728937729, -0.38583638583638585, -0.25, 0.0
1253, -1.2783882783882783, -0.5225885225885226, -0.1875, 0.0
1254, -1.1111111111111112, -0.7692307692307693, -0.375, 0.0
1255, -1.9291819291819292, -0.336996336996337, -0.28125, 0.0
1256, -1.695970695970696, -0.3663003663003663, -0.125, 0.0
1257, -1.4468864468864469, -0.21733821733821734, -0.09375, 0.0
1258, -1.177045177045177, -0.12332112332112333, -0.125, 0.0
1259, -1.2283272283272284, -0.1343101343101343, -0.125, 0.0
1260, -0.7728937728937729, -0.34554334554334554, -0.15625, 0.0
1261, -0.9206349206349206, -0.5433455433455433, -0.15625, 0.0
1262, -0.6373626373626373, -0.8131868131868132, -0.09375, 0.0
1263, -0.3626373626373626, -0.46642246642246643, -0.15625, 1.0
1264, -0.6691086691086691, -0.42246642246642246, -0.125, 1.0
1265, -0.7374847374847375, -0.5128205128205128, -0.0625, 1.0
1266, -0.46642246642246643, -0.5262515262515263, 0.0625, 1.0
1267, -0.3199023199023199, -0.12332112332112333, 0.15625, 1.0
1268, -0.6886446886446886, 0.18437118437118438, 0.15625, 1.0
1269, -0.503052503052503, -0.14774114774114774, 0.125, 1.0
1270, -0.4517704517704518, -0.2796092796092796, 0.0625, 1.0
1271, -0.8827838827838828, -0.06837606837606838, 0.0625, 1.0
1272, -1.1733821733821734, -0.031746031746031744, 0.21875, 1.0
1273, -0.8669108669108669, -0.17704517704517705, 0.34375, 1.0
1274, -0.9194139194139194, -0.1575091575091575, 0.34375, 1.0
1275, -0.8388278388278388, -0.17704517704517705, 0.34375, 1.0
1276, -0.4725274725274725, -0.23443223443223443, 0.375, 1.0
1277, -0.6825396825396826, -0.30036630036630035, 0.40625, 1.0
1278, -0.49694749694749696, -0.36874236874236876, 0.71875, 1.0
1279, -0.221001221001221, -0.32234432234432236, 0.78125, 1.0
1280, 0.03296703296703297, -0.24175824175824176, 0.78125, 1.0
1281, 0.4713064713064713, -0.47985347985347987, 0.5, 1.0
1282, 0.17094017094017094, -0.4822954822954823, 0.5625, 1.0
1283, 0.2271062271062271, -0.6593406593406593, 0.6875, 1.0
1284, 0.19536019536019536, -0.3797313797313797, 0.75, 1.0
1285, 0.12087912087912088, -0.0757020757020757, 0.71875, 1.0
1286, 0.38095238095238093, -0.4358974358974359, 0.59375, 1.0
1287, 0.24664224664224665, -0.7362637362637363, 0.71875, 1.0
1288, 0.7350427350427351, -0.7423687423687424, 0.84375, 1.0
1289, 1.3272283272283272, -0.5482295482295483, 0.59375, 1.0
1290, 1.2881562881562882, -0.39438339438339437, 0.4375, 1.0
1291, 0.8778998778998779, -0.5164835164835165, 0.375, 1.0
1292, 0.6495726495726496, -0.5775335775335775, 0.75, 1.0
1293, 0.6275946275946276, -0.4822954822954823, 0.8125, 1.0
1294, 0.40293040293040294, -0.040293040293040296, 0.78125, 1.0
1295, 0.3968253968253968, -0.2515262515262515, 0.6875, 1.0
1296, 0.4542124542124542, -0.336996336996337, 0.625, 1.0
1297, 0.6788766788766789, -0.35775335775335776, 0.59375, 1.0
1298, 0.873015873015873, -0.336996336996337, 0.53125, 1.0
1299, 0.9340659340659341, -0.1282051282051282, 0.59375, 1.0
1300, 1.0183150183150182, -0.4627594627594628, 0.875, 1.0
1301, 1.0866910866910866, -0.8693528693528694, 0.875, 1.0
1302, 1.1257631257631258, -0.39438339438339437, 0.84375, 1.0
1303, 1.0366300366300367, -0.1807081807081807, 0.84375, 1.0
1304, 0.14652014652014653, 0.06593406593406594, 0.96875, 1.0
1305, 0.6581196581196581, -0.32722832722832723, 1.0, 1.0
1306, 0.6666666666666666, -0.1623931623931624, 0.90625, 1.0
1307, 0.5958485958485958, -0.02442002442002442, 0.875, 1.0
1308, 0.7252747252747253, -0.2857142857142857, 0.96875, 1.0
1309, 1.3821733821733821, -0.5726495726495726, 0.9375, 1.0
1310, 1.9584859584859584, -0.2490842490842491, 0.78125, 1.0
1311, 2.277167277167277, -0.07081807081807082, 0.6875, 1.0
1312, 2.0744810744810747, -0.1746031746031746, 0.625, 1.0
1313, 1.8424908424908424, -0.2954822954822955, 0.5625, 1.0
1314, 2.0854700854700856, -0.39316239316239315, 0.40625, 1.0
1315, 2.440781440781441, -0.4236874236874237, 0.21875, 1.0
1316, 2.484737484737485, -0.5628815628815629, 0.0625, 1.0
1317, 2.1013431013431014, -0.10989010989010989, -0.09375, 0.0
1318, 1.36996336996337, -0.05372405372405373, -0.21875, 0.0
1319, 1.1868131868131868, -0.057387057387057384, -0.28125, 0.0
1320, 1.393162393162393, -0.3528693528693529, -0.34375, 0.0
1321, 0.9291819291819292, -0.3992673992673993, -0.4375, 0.0
1322, 0.4627594627594628, -0.2271062271062271, -0.4375, 0.0
1323, 0.5946275946275946, -0.11965811965811966, -0.5625, 0.0
1324, 0.9316239316239316, -0.4261294261294261, -0.59375, 0.0
1325, 0.7545787545787546, -0.3528693528693529, -0.75, 0.0
1326, 0.0989010989010989, -0.3162393162393162, -0.78125, 0.0
1327, -0.6105006105006106, -0.1916971916971917, -0.75, 0.0
1328, -0.673992673992674, -0.13797313797313798, -0.53125, 0.0
1329, -0.43345543345543347, -0.6043956043956044, -0.46875, 0.0
1330, -1.017094017094017, -0.8644688644688645, -0.5625, 0.0
1331, -1.7594627594627594, -0.6568986568986569, -0.59375, 0.0
1332, -1.5457875457875458, -0.6202686202686203, -0.53125, 0.0
1333, -0.6312576312576312, -0.8266178266178266, -0.46875, 0.0
1334, -0.590964590964591, -0.7203907203907204, -0.46875, 0.0
1335, -1.2332112332112333, -0.31868131868131866, -0.59375, 0.0
1336, -1.873015873015873, -0.22832722832722832, -0.5625, 0.0
1337, -2.2515262515262515, -0.5775335775335775, -0.59375, 0.0
1338, -2.249084249084249, -0.8302808302808303, -0.71875, 0.0
1339, -2.3443223443223444, -0.47741147741147744, -0.6875, 0.0
1340, -2.115995115995116, -0.2625152625152625, -0.625, 0.0
1341, -1.7277167277167278, -0.32967032967032966, -0.71875, 0.0
1342, -2.0036630036630036, -0.41025641025641024, -0.8125, 0.0
1343, -2.341880341880342, -0.4945054945054945, -0.75, 0.0
1344, -1.94993894993895, -0.4517704517704518, -0.8125, 0.0
1345, -1.3736263736263736, -0.3772893772893773, -0.71875, 0.0
1346, -1.3418803418803418, -0.38583638583638585, -0.6875, 0.0
1347, -1.4102564102564104, -0.4017094017094017, -0.71875, 0.0
1348, -1.352869352869353, -0.4603174603174603, -0.78125, 0.0
1349, -1.47985347985348, -0.4078144078144078, -0.65625, 0.0
1350, -1.807081807081807, -0.23443223443223443, -0.65625, 0.0
1351, -1.7338217338217339, -0.47619047619047616, -0.6875, 0.0
1352, -1.7619047619047619, -0.7130647130647131, -0.5625, 0.0
1353, -1.1843711843711844, -0.4981684981684982, -0.46875, 0.0
1354, -0.7142857142857143, -0.5335775335775336, -0.46875, 0.0
1355, -1.1941391941391941, -0.4810744810744811, -0.53125, 0.0
1356, -2.1184371184371185, -0.24175824175824176, -0.5, 0.0
1357, -2.3736263736263736, -0.1391941391941392, -0.46875, 0.0
1358, -2.1086691086691087, -0.1916971916971917, -0.375, 0.0
1359, -1.7545787545787546, -0.2967032967032967, -0.25, 0.0
1360, -1.927960927960928, -0.15873015873015872, -0.21875, 0.0
1361, -2.1892551892551895, -0.009768009768009768, -0.21875, 0.0
1362, -1.6800976800976801, -0.39438339438339437, -0.15625, 0.0
1363, -0.9755799755799756, -0.6214896214896215, -0.125, 0.0
1364, -0.3321123321123321, -0.4004884004884005, -0.09375, 0.0
1365, -0.2771672771672772, -0.47619047619047616, -0.03125, 0.0
1366, -0.38095238095238093, -0.5152625152625152, 0.0, 0.0
1367, -0.017094017094017096, -0.5604395604395604, 0.0, 1.0
1368, -0.08791208791208792, -0.1343101343101343, -0.03125, 1.0
1369, -0.30158730158730157, -0.2258852258852259, 0.0, 1.0
1370, -0.11965811965811966, -0.24786324786324787, 0.03125, 1.0
1371, -0.32722832722832723, -0.22466422466422467, 0.09375, 1.0
1372, -0.663003663003663, -0.1514041514041514, 0.15625, 1.0
1373, -0.5409035409035409, 0.20146520146520147, 0.15625, 1.0
1374, -0.8986568986568987, 0.13797313797313798, 0.15625, 1.0
1375, -1.028083028083028, -0.03785103785103785, 0.21875, 1.0
1376, -1.225885225885226, -0.13186813186813187, 0.28125, 1.0
1377, -0.9963369963369964, -0.33943833943833945, 0.4375, 1.0
1378, -0.557997557997558, -0.2039072039072039, 0.46875, 1.0
1379, -0.5836385836385837, -0.14163614163614163, 0.46875, 1.0
1380, -0.49572649572649574, -0.09401709401709402, 0.53125, 1.0
1381, -0.358974358974359, -0.2625152625152625, 0.53125, 1.0
1382, -0.2893772893772894, -0.38583638583638585, 0.53125, 1.0
1383, -0.11233211233211234, -0.46764346764346765, 0.4375, 1.0
1384, 0.07936507936507936, -0.3321123321123321, 0.53125, 1.0
1385, 0.17704517704517705, -0.42002442002442003, 1.0, 1.0
1386, 0.3968253968253968, -0.6886446886446886, 1.0, 1.0
1387, 0.3333333333333333, -0.5006105006105006, 0.96875, 1.0
1388, 0.5042735042735043, -0.46764346764346765, 0.8125, 1.0
1389, 0.4517704517704518, -0.3443223443223443, 0.625, 1.0
1390, 0.5921855921855922, -0.4590964590964591, 0.65625, 1.0
1391, 0.5323565323565324, -0.47496947496947495, 0.8125, 1.0
1392, 0.8095238095238095, -0.7619047619047619, 0.84375, 1.0
1393, 0.6617826617826618, -0.6190476190476191, 0.71875, 1.0
1394, 0.5665445665445665, -0.16605616605616605, 0.75, 1.0
1395, 0.7887667887667887, -0.22832722832722832, 0.75, 1.0
1396, 0.7753357753357754, -0.42857142857142855, 0.625, 1.0
1397, 0.42735042735042733, -0.5677655677655677, 0.65625, 1.0
1398, 0.409035409035409, -0.6068376068376068, 0.625, 1.0
1399, 1.606837606837607, -0.6666666666666666, 0.625, 1.0
1400, 1.2735042735042734, -0.5177045177045178, 0.53125, 1.0
1401, 0.16971916971916973, -0.06837606837606838, 0.71875, 1.0
1402, 1.4493284493284493, -0.442002442002442, 0.9375, 1.0
1403, 2.2173382173382175, -0.8034188034188035, 1.03125, 1.0
1404, 1.652014652014652, -0.4517704517704518, 1.03125, 1.0
1405, 1.2185592185592184, -0.10866910866910867, 0.9375, 1.0
1406, 1.8388278388278387, -0.07692307692307693, 0.90625, 1.0
1407, 2.029304029304029, -0.12942612942612944, 0.8125, 1.0
1408, 0.9010989010989011, -0.09523809523809523, 0.75, 1.0
1409, 0.45787545787545786, -0.03540903540903541, 0.8125, 1.0
1410, 1.5262515262515262, -0.6190476190476191, 0.84375, 1.0
1411, 1.6349206349206349, -0.5238095238095238, 0.6875, 1.0
1412, 1.2442002442002442, -0.11477411477411477, 0.59375, 1.0
1413, 1.072039072039072, 0.10866910866910867, 0.5625, 1.0
1414, 0.9694749694749695, 0.030525030525030524, 0.5625, 1.0
1415, 1.249084249084249, -0.326007326007326, 0.5625, 1.0
1416, 1.2185592185592184, -0.42002442002442003, 0.4375, 1.0
1417, 1.0695970695970696, -0.2698412698412698, 0.3125, 1.0
1418, 1.2246642246642248, -0.15018315018315018, 0.25, 0.0
1419, 1.3565323565323566, 0.21611721611721613, 0.125, 0.0
1420, 1.7448107448107448, -0.12454212454212454, 0.0, 0.0
1421, 1.6251526251526252, -0.1855921855921856, -0.125, 0.0
1422, 1.264957264957265, -0.16117216117216118, -0.25, 0.0
1423, 1.5702075702075702, -0.2503052503052503, -0.375, 0.0
1424, 1.043956043956044, -0.4884004884004884, -0.53125, 0.0
1425, 0.29426129426129427, -0.1807081807081807, -0.5625, 0.0
1426, 0.34676434676434675, -0.13675213675213677, -0.5625, 0.0
1427, 0.32844932844932845, -0.31868131868131866, -0.65625, 0.0
1428, 0.3162393162393162, -0.4053724053724054, -0.65625, 0.0
1429, 0.1623931623931624, -0.3614163614163614, -0.65625, 0.0
1430, 0.17338217338217338, -0.4884004884004884, -0.59375, 0.0
1431, -0.2222222222222222, -0.409035409035409, -0.625, 0.0
1432, -0.6398046398046398, -0.326007326007326, -0.5, 0.0
1433, -0.6153846153846154, -0.1978021978021978, -0.375, 0.0
1434, -0.10500610500610501, -0.2576312576312576, -0.3125, 0.0
1435, -0.36385836385836384, -0.3076923076923077, -0.40625, 0.0
1436, -0.8766788766788767, -0.6068376068376068, -0.53125, 0.0
1437, -1.4884004884004884, -0.31013431013431014, -0.5, 0.0
1438, -1.1697191697191698, -0.42124542124542125, -0.5, 0.0
1439, -1.205128205128205, -0.5177045177045178, -0.59375, 0.0
1440, -1.647130647130647, -0.23076923076923078, -0.5625, 0.0
1441, -1.568986568986569, -0.1562881562881563, -0.5625, 0.0
1442, -1.0366300366300367, -0.4554334554334554, -0.75, 0.0
1443, -1.2905982905982907, -0.6532356532356532, -0.9375, 0.0
1444, -1.7557997557997558, -0.3772893772893773, -0.8125, 0.0
1445, -1.73992673992674, -0.2222222222222222, -0.90625, 0.0
1446, -1.7533577533577533, -0.09523809523809523, -1.03125, 0.0
1447, -2.1575091575091574, 0.009768009768009768, -0.9375, 0.0
1448, -1.8998778998778998, -0.22466422466422467, -0.875, 0.0
1449, -1.5323565323565325, -0.4945054945054945, -0.875, 0.0
1450, -2.5238095238095237, -0.1221001221001221, -0.78125, 0.0
1451, -1.9902319902319903, -0.2588522588522589, -0.65625, 0.0
1452, -1.352869352869353, -0.452991452991453, -0.59375, 0.0
1453, -1.7997557997557998, -0.36507936507936506, -0.5625, 0.0
1454, -2.741147741147741, -0.27228327228327226, -0.5625, 0.0
1455, -2.6556776556776556, -0.525030525030525, -0.5, 0.0
1456, -1.9194139194139195, -0.9340659340659341, -0.375, 0.0
1457, -1.531135531135531, -0.9816849816849816, -0.28125, 0.0
1458, -1.8888888888888888, -0.6190476190476191, -0.375, 0.0
1459, -1.7912087912087913, -0.36752136752136755, -0.375, 0.0
1460, -1.2380952380952381, -0.27106227106227104, -0.34375, 0.0
1461, -1.1843711843711844, -0.3076923076923077, -0.375, 0.0
1462, -1.352869352869353, -0.054945054945054944, -0.46875, 0.0
1463, -1.3003663003663004, -0.28815628815628813, -0.4375, 0.0
1464, -1.2881562881562882, -0.7948717948717948, -0.375, 1.0
1465, -0.9719169719169719, -0.4017094017094017, -0.1875, 1.0
1466, -0.7472527472527473, -0.34554334554334554, -0.03125, 1.0
1467, -1.065934065934066, -0.45665445665445664, 0.0, 1.0
1468, -0.8522588522588522, -0.4432234432234432, 0.0625, 1.0
1469, -0.8937728937728938, -0.3772893772893773, 0.03125, 1.0
1470, -0.8473748473748474, -0.4004884004884005, 0.0625, 1.0
1471, -0.6971916971916972, -0.26373626373626374, 0.09375, 1.0
1472, -0.8913308913308914, -0.17216117216117216, 0.09375, 1.0
1473, -0.7094017094017094, -0.24786324786324787, 0.28125, 1.0
1474, -0.41147741147741146, -0.42857142857142855, 0.3125, 1.0
1475, -0.48473748473748474, -0.43956043956043955, 0.4375, 1.0
1476, -0.17582417582417584, -0.5531135531135531, 0.4375, 1.0
1477, -0.14896214896214896, -0.42124542124542125, 0.4375, 1.0
1478, -0.18925518925518925, -0.21245421245421245, 0.46875, 1.0
1479, -0.21123321123321123, -0.12576312576312576, 0.4375, 1.0
1480, -0.15018315018315018, -0.13675213675213677, 0.5, 1.0
1481, 0.04151404151404151, -0.24175824175824176, 0.5625, 1.0
1482, 0.017094017094017096, -0.05860805860805861, 0.5625, 1.0
1483, -0.08424908424908426, 0.3235653235653236, 0.59375, 1.0
1484, 0.028083028083028084, -0.052503052503052504, 0.71875, 1.0
1485, 0.3711843711843712, -0.5921855921855922, 0.875, 1.0
1486, 0.6422466422466423, -1.0671550671550671, 0.90625, 1.0
1487, 0.9731379731379731, -0.8046398046398047, 0.875, 1.0
1488, 1.032967032967033, -0.5225885225885226, 0.75, 1.0
1489, 0.967032967032967, -0.6691086691086691, 0.6875, 1.0
1490, 0.6910866910866911, -0.7130647130647131, 0.65625, 1.0
1491, 0.5421245421245421, -0.5323565323565324, 0.625, 1.0
1492, 0.32967032967032966, -0.1221001221001221, 0.5625, 1.0
1493, 0.32234432234432236, -0.21245421245421245, 0.5625, 1.0
1494, 0.40415140415140416, -0.6984126984126984, 0.625, 1.0
1495, 0.2954822954822955, -0.6581196581196581, 0.96875, 1.0
1496, 0.4713064713064713, -0.6495726495726496, 0.96875, 1.0
1497, 0.3516483516483517, -0.5738705738705738, 0.78125, 1.0
1498, 1.122100122100122, -0.5018315018315018, 0.5625, 1.0
1499, 1.199023199023199, -0.7851037851037851, 0.34375, 1.0
1500, 0.39194139194139194, -0.10134310134310134, 0.1875, 1.0
1501, -0.43345543345543347, 0.5970695970695971, 0.21875, 1.0
1502, -0.07081807081807082, -0.03663003663003663, 0.4375, 1.0
1503, 0.6324786324786325, -0.7130647130647131, 0.53125, 1.0
1504, 0.1855921855921856, -0.503052503052503, 0.65625, 1.0
1505, -0.057387057387057384, -0.3028083028083028, 0.8125, 1.0
1506, 0.3492063492063492, -0.3553113553113553, 0.96875, 1.0
1507, 1.1477411477411477, -0.9181929181929182, 1.0625, 1.0
1508, 1.4004884004884004, -0.8192918192918193, 1.0625, 1.0
1509, 1.1916971916971917, -0.3125763125763126, 1.0625, 1.0
1510, 0.8168498168498168, -0.08424908424908426, 1.15625, 1.0
1511, 1.7301587301587302, -1.126984126984127, 1.21875, 1.0
1512, 3.111111111111111, -1.231990231990232, 1.09375, 1.0
1513, 2.935286935286935, -0.7863247863247863, 0.875, 1.0
1514, 2.051282051282051, -0.4481074481074481, 0.71875, 1.0
1515, 2.1575091575091574, -0.4078144078144078, 0.71875, 1.0
1516, 2.3284493284493286, -0.5702075702075702, 0.5625, 1.0
1517, 1.7704517704517704, 0.11965811965811966, 0.375, 1.0
1518, 1.6605616605616607, 0.12698412698412698, 0.3125, 1.0
1519, 1.6666666666666667, -0.4065934065934066, 0.25, 1.0
1520, 1.5067155067155067, -0.21733821733821734, 0.125, 0.0
1521, 1.4456654456654456, 0.03418803418803419, 0.0, 0.0
1522, 1.855921855921856, -0.17704517704517705, -0.125, 0.0
1523, 1.9059829059829059, -0.1514041514041514, -0.25, 0.0
1524, 1.6727716727716728, -0.20146520146520147, -0.375, 0.0
1525, 1.647130647130647, -0.45665445665445664, -0.59375, 0.0
1526, 1.5360195360195361, -0.3894993894993895, -0.6875, 0.0
1527, 1.2881562881562882, -0.645909645909646, -0.75, 0.0
1528, 0.45665445665445664, -0.3308913308913309, -0.84375, 0.0
1529, 0.2442002442002442, -0.2783882783882784, -0.8125, 0.0
1530, 0.568986568986569, -0.33943833943833945, -0.78125, 0.0
1531, 0.9291819291819292, -0.43223443223443225, -0.75, 0.0
1532, 0.2673992673992674, -0.5396825396825397, -0.71875, 0.0
1533, -0.757020757020757, -0.663003663003663, -0.6875, 0.0
1534, -1.0879120879120878, -0.8608058608058609, -0.625, 0.0
1535, -1.0915750915750915, -0.833943833943834, -0.53125, 0.0
1536, -0.6935286935286935, -0.6288156288156288, -0.5, 0.0
1537, -0.8888888888888888, -0.4188034188034188, -0.5625, 0.0
1538, -1.3724053724053724, -0.5213675213675214, -0.625, 0.0
1539, -1.6251526251526252, -0.6324786324786325, -0.59375, 0.0
1540, -1.6385836385836385, -0.6349206349206349, -0.65625, 0.0
1541, -1.57997557997558, -0.5970695970695971, -0.5625, 0.0
1542, -1.8021978021978022, -0.3614163614163614, -0.40625, 0.0
1543, -1.8974358974358974, -0.10012210012210013, -0.3125, 0.0
1544, -0.9401709401709402, -0.6239316239316239, -0.3125, 0.0
1545, -1.1233211233211233, -0.9474969474969475, -0.625, 0.0
1546, -2.0683760683760686, -0.30036630036630035, -0.53125, 0.0
1547, -1.6031746031746033, -0.6361416361416361, -0.65625, 0.0
1548, -1.6422466422466422, -0.8021978021978022, -0.75, 0.0
1549, -2.0805860805860807, -0.5934065934065934, -0.875, 0.0
1550, -2.199023199023199, -0.6581196581196581, -0.84375, 0.0
1551, -1.9902319902319903, -0.8644688644688645, -0.78125, 0.0
1552, -2.1001221001221, -0.8021978021978022, -0.75, 0.0
1553, -2.045177045177045, -0.78998778998779, -0.71875, 0.0
1554, -2.2905982905982905, -0.9133089133089133, -0.71875, 0.0
1555, -2.0915750915750917, -1.006105006105006, -0.53125, 0.0
1556, -1.783882783882784, -0.9841269841269841, -0.53125, 0.0
1557, -1.993894993894994, -0.6056166056166056, -0.59375, 0.0
1558, -2.0036630036630036, -0.46153846153846156, -0.53125, 0.0
1559, -1.5848595848595848, -0.536019536019536, -0.4375, 0.0
1560, -1.702075702075702, -0.36752136752136755, -0.4375, 0.0
1561, -1.8266178266178266, -0.36507936507936506, -0.40625, 0.0
1562, -1.8583638583638584, -0.2905982905982906, -0.34375, 0.0
1563, -1.4578754578754578, -0.4126984126984127, -0.25, 0.0
1564, -1.5457875457875458, -0.12942612942612944, -0.25, 0.0
1565, -1.006105006105006, 0.1282051282051282, -0.1875, 0.0
1566, -0.8559218559218559, -0.21611721611721613, -0.1875, 0.0
1567, -0.938949938949939, -0.6862026862026862, -0.15625, 0.0
1568, -0.6385836385836385, -0.48717948717948717, -0.0625, 1.0
1569, -0.4884004884004884, -0.02197802197802198, 0.0, 1.0
1570, -0.6422466422466423, -0.2698412698412698, 0.0, 1.0
1571, -0.7045177045177046, -0.442002442002442, 0.0625, 1.0
1572, -0.5067155067155067, -0.5860805860805861, 0.09375, 1.0
1573, -0.4444444444444444, -0.32722832722832723, 0.0625, 1.0
1574, -0.9572649572649573, -0.1916971916971917, 0.09375, 1.0
1575, -0.8778998778998779, -0.06593406593406594, 0.21875, 1.0
1576, -0.8302808302808303, -0.2796092796092796, 0.28125, 1.0
1577, -0.6361416361416361, -0.20634920634920634, 0.375, 1.0
1578, -0.8046398046398047, -0.09768009768009768, 0.40625, 1.0
1579, -0.9157509157509157, -0.326007326007326, 0.5625, 1.0
1580, -0.398046398046398, -0.4627594627594628, 0.65625, 1.0
1581, -0.4590964590964591, -0.2258852258852259, 0.65625, 1.0
1582, -0.30036630036630035, -0.2893772893772894, 0.625, 1.0
1583, -0.1221001221001221, -0.42002442002442003, 0.59375, 1.0
1584, 0.15384615384615385, -0.43223443223443225, 0.75, 1.0
1585, 0.4993894993894994, -0.3528693528693529, 0.84375, 1.0
1586, 0.4432234432234432, -0.4004884004884005, 0.84375, 1.0
1587, 0.41147741147741146, -0.6483516483516484, 0.75, 1.0
1588, 0.4468864468864469, -0.5482295482295483, 0.8125, 1.0
1589, 0.5470085470085471, -0.2686202686202686, 0.875, 1.0
1590, 0.12332112332112333, -0.1623931623931624, 0.9375, 1.0
1591, 0.21855921855921856, -0.4908424908424908, 0.875, 1.0
1592, 0.49572649572649574, -0.5164835164835165, 0.75, 1.0
1593, 0.590964590964591, -0.23321123321123322, 0.84375, 1.0
1594, 0.9218559218559218, -0.7118437118437119, 0.75, 1.0
1595, 0.42735042735042733, -0.7155067155067155, 0.78125, 1.0
1596, 0.22466422466422467, -0.06349206349206349, 0.625, 1.0
1597, 0.17582417582417584, 0.09768009768009768, 0.5625, 1.0
1598, 0.6385836385836385, -0.746031746031746, 0.59375, 1.0
1599, 1.0708180708180708, -1.1794871794871795, 0.5625, 1.0
1600, 0.9926739926739927, -0.6752136752136753, 0.40625, 1.0
1601, 0.6007326007326007, -0.23687423687423687, 0.1875, 1.0
1602, -0.19658119658119658, 0.21978021978021978, 0.21875, 1.0
1603, -0.3711843711843712, 0.3724053724053724, 0.3125, 1.0
1604, -0.26373626373626374, 0.02197802197802198, 0.40625, 1.0
1605, 0.4188034188034188, -0.6752136752136753, 0.46875, 1.0
1606, 1.2222222222222223, -0.7728937728937729, 0.5, 1.0
1607, 0.7155067155067155, 0.06349206349206349, 0.59375, 1.0
1608, 0.49572649572649574, 0.20634920634920634, 0.78125, 1.0
1609, 0.8705738705738706, -0.6056166056166056, 1.03125, 1.0
1610, 1.3601953601953602, -1.0915750915750915, 1.0625, 1.0
1611, 2.445665445665446, -1.7191697191697193, 1.03125, 1.0
1612, 2.2673992673992673, -1.0586080586080586, 0.875, 1.0
1613, 1.376068376068376, -0.4700854700854701, 0.90625, 1.0
1614, 1.8742368742368742, -0.7094017094017094, 0.8125, 1.0
1615, 1.8131868131868132, -0.452991452991453, 0.75, 1.0
1616, 2.1965811965811968, -0.6898656898656899, 0.71875, 1.0
1617, 2.5164835164835164, -0.6837606837606838, 0.5625, 1.0
1618, 1.7191697191697193, -0.3247863247863248, 0.40625, 1.0
1619, 1.343101343101343, -0.05372405372405373, 0.25, 1.0
1620, 1.4017094017094016, 0.02564102564102564, 0.21875, 1.0
1621, 1.253968253968254, -0.2039072039072039, 0.15625, 1.0
1622, 1.5189255189255189, -0.645909645909646, 0.03125, 1.0
1623, 1.6593406593406594, -0.5067155067155067, -0.0625, 1.0
1624, 1.5274725274725274, -0.2258852258852259, -0.15625, 0.0
1625, 0.6153846153846154, 0.3956043956043956, -0.1875, 0.0
1626, 1.0085470085470085, -0.5286935286935287, -0.25, 0.0
1627, 1.2808302808302807, -0.9487179487179487, -0.40625, 0.0
1628, 1.271062271062271, -0.8253968253968254, -0.5, 0.0
1629, 1.534798534798535, -0.6324786324786325, -0.6875, 0.0
1630, 1.5653235653235653, -0.8827838827838828, -0.75, 0.0
1631, 0.5702075702075702, -0.6544566544566545, -0.84375, 0.0
1632, -0.12087912087912088, -0.4456654456654457, -0.8125, 0.0
1633, -0.4700854700854701, -0.40415140415140416, -0.71875, 0.0
1634, 0.006105006105006105, -0.5665445665445665, -0.5, 0.0
1635, 0.07203907203907203, -0.6874236874236874, -0.5625, 0.0
1636, -0.2954822954822955, -0.7521367521367521, -0.5625, 0.0
1637, -0.9853479853479854, -0.6410256410256411, -0.5, 0.0
1638, -1.2857142857142858, -0.41147741147741146, -0.53125, 0.0
1639, -0.8449328449328449, -0.3992673992673993, -0.53125, 0.0
1640, -0.6984126984126984, -0.3894993894993895, -0.46875, 0.0
1641, -0.9474969474969475, -0.4481074481074481, -0.5, 0.0
1642, -1.0805860805860805, -0.49694749694749696, -0.625, 0.0
1643, -1.4505494505494505, -0.31868131868131866, -0.625, 0.0
1644, -1.4566544566544566, -0.13675213675213677, -0.90625, 0.0
1645, -0.2564102564102564, -0.8656898656898657, -1.125, 0.0
1646, -0.24297924297924298, -1.5873015873015872, -1.3125, 0.0
1647, -2.065934065934066, -0.9877899877899878, -1.4375, 0.0
1648, -3.039072039072039, -0.31868131868131866, -1.21875, 0.0
1649, -2.943833943833944, -0.221001221001221, -1.09375, 0.0
1650, -2.5995115995115996, -0.5677655677655677, -0.9375, 0.0
1651, -1.7912087912087913, -0.7619047619047619, -0.78125, 0.0
1652, -1.2747252747252746, -0.5653235653235653, -0.75, 0.0
1653, -1.3626373626373627, -0.27472527472527475, -0.75, 0.0
1654, -2.051282051282051, -0.2503052503052503, -0.78125, 0.0
1655, -2.3028083028083026, -0.37606837606837606, -0.75, 0.0
1656, -1.9731379731379732, -0.5763125763125763, -0.6875, 0.0
1657, -1.1489621489621489, -0.7521367521367521, -0.625, 0.0
1658, -0.7753357753357754, -0.6446886446886447, -0.53125, 0.0
1659, -2.3724053724053724, -0.46153846153846156, -0.59375, 0.0
1660, -3.183150183150183, -0.673992673992674, -0.625, 0.0
1661, -2.1196581196581197, -0.800976800976801, -0.53125, 0.0
1662, -1.3064713064713065, -0.7496947496947497, -0.4375, 0.0
1663, -1.586080586080586, -0.6544566544566545, -0.3125, 0.0
1664, -1.9511599511599511, -0.48595848595848595, -0.28125, 0.0
1665, -1.4065934065934067, -0.6288156288156288, -0.1875, 0.0
1666, -0.9951159951159951, -0.5213675213675214, -0.125, 0.0
1667, -0.8498168498168498, -0.3711843711843712, -0.0625, 0.0
1668, -0.7631257631257631, -0.20512820512820512, -0.03125, 0.0
1669, -0.6800976800976801, -0.14407814407814407, -0.03125, 0.0
1670, -0.4993894993894994, -0.3797313797313797, -0.03125, 0.0
1671, -0.21245421245421245, -0.22954822954822954, -0.03125, 0.0
1672, -0.08180708180708181, -0.1684981684981685, -0.03125, 0.0
1673, -0.2576312576312576, -0.1807081807081807, 0.0, 1.0
1674, -0.18803418803418803, -0.49694749694749696, 0.0625, 1.0
1675, -0.4481074481074481, -0.1514041514041514, 0.125, 1.0
1676, -0.4004884004884005, -0.17704517704517705, 0.15625, 1.0
1677, -0.37606837606837606, -0.14041514041514042, 0.21875, 1.0
1678, -0.1794871794871795, -0.21245421245421245, 0.21875, 1.0
1679, -0.3418803418803419, -0.2600732600732601, 0.28125, 1.0
1680, -0.5592185592185592, -0.1562881562881563, 0.3125, 1.0
1681, -0.4835164835164835, -0.1391941391941392, 0.25, 1.0
1682, -0.4053724053724054, -0.4603174603174603, 0.21875, 1.0
1683, -0.4371184371184371, -0.5482295482295483, 0.46875, 1.0
1684, -0.36874236874236876, -0.4139194139194139, 0.59375, 1.0
1685, -0.5982905982905983, -0.09157509157509157, 0.6875, 1.0
1686, -0.3833943833943834, -0.23809523809523808, 0.6875, 1.0
1687, -0.38095238095238093, -0.32844932844932845, 0.6875, 1.0
1688, -0.21367521367521367, -0.35653235653235654, 0.84375, 1.0
1689, 0.25518925518925517, -0.4945054945054945, 0.90625, 1.0
1690, 0.37362637362637363, -0.34065934065934067, 0.875, 1.0
1691, 0.32112332112332115, -0.2148962148962149, 0.84375, 1.0
1692, 0.31013431013431014, -0.2893772893772894, 0.84375, 1.0
1693, 0.08913308913308914, -0.20757020757020758, 0.84375, 1.0
1694, 0.315018315018315, -0.15262515262515264, 0.9375, 1.0
1695, 0.37362637362637363, -0.32967032967032966, 0.875, 1.0
1696, 0.5604395604395604, -0.6251526251526252, 0.84375, 1.0
1697, 0.7716727716727717, -0.452991452991453, 0.96875, 1.0
1698, 0.7765567765567766, -0.22466422466422467, 1.03125, 1.0
1699, 0.5347985347985348, -0.06471306471306472, 1.0, 1.0
1700, 0.7106227106227107, -0.3785103785103785, 0.84375, 1.0
1701, 0.4835164835164835, -0.38461538461538464, 0.71875, 1.0
1702, 0.0989010989010989, -0.11355311355311355, 0.6875, 1.0
1703, -0.12332112332112333, 0.17704517704517705, 0.71875, 1.0
1704, -0.13064713064713065, 0.45665445665445664, 0.75, 1.0
1705, -0.3235653235653236, 0.10866910866910867, 0.90625, 1.0
1706, 0.4249084249084249, -0.7594627594627594, 1.0625, 1.0
1707, 1.2515262515262515, -1.0647130647130647, 1.09375, 1.0
1708, 1.5164835164835164, -0.800976800976801, 1.0625, 1.0
1709, 1.927960927960928, -0.7448107448107448, 1.125, 1.0
1710, 2.264957264957265, -1.393162393162393, 1.09375, 1.0
1711, 1.8095238095238095, -0.894993894993895, 0.96875, 1.0
1712, 1.8595848595848596, -0.9120879120879121, 0.9375, 1.0
1713, 2.029304029304029, -0.8192918192918193, 0.84375, 1.0
1714, 2.0793650793650795, -0.7423687423687424, 0.84375, 1.0
1715, 2.006105006105006, -0.36874236874236876, 0.78125, 1.0
1716, 2.0671550671550674, -0.5128205128205128, 0.84375, 1.0
1717, 1.8681318681318682, -0.6263736263736264, 0.6875, 1.0
1718, 1.5384615384615385, -0.20757020757020758, 0.5625, 1.0
1719, 1.2527472527472527, -0.06837606837606838, 0.53125, 1.0
1720, 1.3199023199023199, 0.030525030525030524, 0.53125, 1.0
1721, 1.5042735042735043, -0.15506715506715507, 0.53125, 1.0
1722, 1.42002442002442, -0.41514041514041516, 0.4375, 1.0
1723, 1.2197802197802199, -0.41025641025641024, 0.375, 1.0
1724, 1.73992673992674, -0.6532356532356532, 0.28125, 1.0
1725, 1.9181929181929183, -0.6312576312576312, 0.21875, 1.0
1726, 1.8424908424908424, -0.7472527472527473, 0.03125, 0.0
1727, 1.1062271062271063, 0.003663003663003663, -0.09375, 0.0
1728, 1.0940170940170941, -0.07814407814407814, -0.1875, 0.0
1729, 1.465201465201465, -0.4590964590964591, -0.28125, 0.0
1730, 1.7594627594627594, -0.7728937728937729, -0.375, 0.0
1731, 1.6642246642246643, -0.8168498168498168, -0.4375, 0.0
1732, 1.4603174603174602, -0.978021978021978, -0.625, 0.0
1733, 1.0525030525030525, -0.8046398046398047, -0.71875, 0.0
1734, 0.7008547008547008, -0.6703296703296703, -0.75, 0.0
1735, 0.47741147741147744, -0.4554334554334554, -0.71875, 0.0
1736, 0.7533577533577533, -0.6898656898656899, -0.625, 0.0
1737, 0.3431013431013431, -0.7667887667887668, -0.625, 0.0
1738, -0.10744810744810745, -0.8058608058608059, -0.71875, 0.0
1739, -0.7167277167277167, -0.5811965811965812, -0.71875, 0.0
1740, -1.120879120879121, -0.33821733821733824, -0.65625, 0.0
1741, -1.352869352869353, -0.16361416361416362, -0.6875, 0.0
1742, -0.9743589743589743, -0.5457875457875457, -0.75, 0.0
1743, -1.061050061050061, -0.6251526251526252, -0.71875, 0.0
1744, -1.6996336996336996, -0.25274725274725274, -0.6875, 0.0
1745, -2.1648351648351647, 0.12087912087912088, -0.625, 0.0
1746, -1.7362637362637363, -0.3785103785103785, -0.59375, 0.0
1747, -1.3540903540903542, -0.702075702075702, -0.625, 0.0
1748, -1.6227106227106227, -0.3968253968253968, -0.71875, 0.0
1749, -2.015873015873016, -0.24297924297924298, -0.84375, 0.0
1750, -2.1233211233211233, -0.4358974358974359, -0.90625, 0.0
1751, -1.6043956043956045, -0.8485958485958486, -1.0, 0.0
1752, -1.3663003663003663, -0.8253968253968254, -1.03125, 0.0
1753, -1.2991452991452992, -0.757020757020757, -1.0, 0.0
1754, -1.407814407814408, -0.7264957264957265, -1.0, 0.0
1755, -1.3516483516483517, -0.9010989010989011, -1.0, 0.0
1756, -1.9072039072039073, -1.0048840048840049, -1.125, 0.0
1757, -2.385836385836386, -0.6813186813186813, -1.0, 0.0
1758, -2.10989010989011, -0.6141636141636142, -0.84375, 0.0
1759, -2.0537240537240535, -0.4065934065934066, -0.78125, 0.0
1760, -2.3907203907203907, -0.4163614163614164, -0.75, 0.0
1761, -2.5115995115995116, -0.2503052503052503, -0.65625, 0.0
1762, -1.9426129426129426, -0.1391941391941392, -0.5, 0.0
1763, -1.8693528693528694, -0.21978021978021978, -0.40625, 0.0
1764, -2.2124542124542126, -0.3614163614163614, -0.3125, 0.0
1765, -2.120879120879121, -0.5396825396825397, -0.28125, 0.0
1766, -2.0671550671550674, -0.4884004884004884, -0.1875, 0.0
1767, -1.3174603174603174, -0.6092796092796092, -0.15625, 0.0
1768, -1.098901098901099, -0.6483516483516484, -0.1875, 0.0
1769, -1.1391941391941391, -0.6800976800976801, -0.125, 0.0
1770, -1.0268620268620268, -0.43345543345543347, -0.09375, 0.0
1771, -0.663003663003663, -0.13675213675213677, -0.0625, 0.0
1772, -0.44078144078144077, -0.20146520146520147, -0.0625, 0.0
1773, -0.326007326007326, -0.3553113553113553, -0.125, 0.0
1774, -0.3162393162393162, -0.2515262515262515, -0.125, 1.0
1775, -0.608058608058608, -0.36752136752136755, -0.0625, 1.0
1776, -0.020757020757020756, 0.026862026862026864, -0.03125, 1.0
1777, -0.32844932844932845, -0.19536019536019536, 0.0, 1.0
1778, -0.4627594627594628, -0.409035409035409, 0.125, 1.0
1779, -0.2905982905982906, -0.315018315018315, 0.15625, 1.0
1780, -0.2454212454212454, 0.09523809523809523, 0.1875, 1.0
1781, -0.30158730158730157, -0.24053724053724054, 0.1875, 1.0
1782, -0.27594627594627597, -0.3968253968253968, 0.21875, 1.0
1783, -0.4053724053724054, -0.34676434676434675, 0.21875, 1.0
1784, -0.6471306471306472, -0.10866910866910867, 0.3125, 1.0
1785, -0.5347985347985348, -0.0989010989010989, 0.375, 1.0
1786, -0.4432234432234432, -0.08424908424908426, 0.4375, 1.0
1787, -0.3956043956043956, 0.06837606837606838, 0.46875, 1.0
1788, -0.44078144078144077, 0.07448107448107448, 0.5625, 1.0
1789, -0.16361416361416362, -0.030525030525030524, 0.65625, 1.0
1790, 0.07814407814407814, -0.10622710622710622, 0.53125, 1.0
1791, -0.017094017094017096, -0.2600732600732601, 0.4375, 1.0
1792, -0.05860805860805861, -0.5201465201465202, 0.6875, 1.0
1793, 0.41514041514041516, -0.7643467643467643, 0.875, 1.0
1794, 0.3492063492063492, -0.5067155067155067, 0.84375, 1.0
1795, 0.21978021978021978, -0.27350427350427353, 0.71875, 1.0
1796, -0.27350427350427353, -0.15995115995115994, 0.71875, 1.0
1797, 0.3907203907203907, -0.8534798534798534, 1.21875, 1.0
1798, 0.8424908424908425, -1.0415140415140416, 1.28125, 1.0
1799, 0.5592185592185592, -0.6898656898656899, 1.1875, 1.0
1800, 0.4078144078144078, -0.5811965811965812, 1.125, 1.0
1801, 0.5628815628815629, -0.42124542124542125, 1.03125, 1.0
1802, 0.5311355311355311, -0.5702075702075702, 0.875, 1.0
1803, -0.22954822954822954, 0.1794871794871795, 0.75, 1.0
1804, 0.02442002442002442, -0.030525030525030524, 1.21875, 1.0
1805, 0.20512820512820512, -0.19291819291819293, 1.375, 1.0
1806, 0.5982905982905983, -0.6752136752136753, 1.375, 1.0
1807, 0.9499389499389499, -1.0573870573870574, 1.0625, 1.0
1808, 0.9133089133089133, -0.8192918192918193, 0.78125, 1.0
1809, 1.0769230769230769, -0.7936507936507936, 0.90625, 1.0
1810, 1.8424908424908424, -1.3846153846153846, 1.0, 1.0
1811, 1.7875457875457876, -1.1746031746031746, 0.90625, 1.0
1812, 1.9352869352869353, -1.1074481074481075, 0.78125, 1.0
1813, 2.3553113553113554, -1.0231990231990231, 0.59375, 1.0
1814, 2.4114774114774113, -0.9877899877899878, 0.46875, 1.0
1815, 2.4358974358974357, -1.0256410256410255, 0.40625, 1.0
1816, 1.9511599511599511, -0.8717948717948718, 0.28125, 1.0
1817, 1.225885225885226, -0.4078144078144078, 0.3125, 1.0
1818, 1.1721611721611722, -0.38705738705738707, 0.40625, 1.0
1819, 1.5323565323565325, -0.4188034188034188, 0.40625, 1.0
1820, 1.9145299145299146, -0.5665445665445665, 0.375, 1.0
1821, 1.656898656898657, -0.37484737484737485, 0.34375, 1.0
1822, 1.6031746031746033, -0.11355311355311355, 0.375, 1.0
1823, 1.5946275946275947, 0.07692307692307693, 0.34375, 1.0
1824, 1.5164835164835164, 0.10989010989010989, 0.34375, 1.0
1825, 1.5726495726495726, -0.3614163614163614, 0.28125, 1.0
1826, 1.5811965811965811, -0.5604395604395604, 0.15625, 1.0
1827, 1.5323565323565325, -0.5213675213675214, 0.0625, 0.0
1828, 1.4468864468864469, -0.3418803418803419, 0.0, 0.0
1829, 1.1233211233211233, 0.02442002442002442, -0.0625, 0.0
1830, 0.9682539682539683, -0.08180708180708181, -0.09375, 0.0
1831, 1.122100122100122, -0.34554334554334554, -0.125, 0.0
1832, 1.4957264957264957, -0.6068376068376068, -0.21875, 0.0
1833, 1.4957264957264957, -0.8192918192918193, -0.40625, 0.0
1834, 1.2197802197802199, -0.5201465201465202, -0.4375, 0.0
1835, 1.1111111111111112, -0.37606837606837606, -0.53125, 0.0
1836, 0.9194139194139194, -0.4627594627594628, -0.59375, 0.0
1837, 0.7435897435897436, -0.6593406593406593, -0.65625, 0.0
1838, 0.37362637362637363, -0.6984126984126984, -0.6875, 0.0
1839, -0.2271062271062271, -0.6605616605616605, -0.6875, 0.0
1840, -0.3199023199023199, -0.2869352869352869, -0.71875, 0.0
1841, -0.04151404151404151, -0.3089133089133089, -0.65625, 0.0
1842, 0.4297924297924298, -1.0695970695970696, -0.4375, 0.0
1843, -0.25274725274725274, -1.3174603174603174, -0.21875, 0.0
1844, -1.8876678876678876, -0.5494505494505495, -0.34375, 0.0
1845, -1.9206349206349207, -0.115995115995116, -0.40625, 0.0
1846, -0.6837606837606838, -0.3553113553113553, -0.46875, 0.0
1847, -0.4175824175824176, -0.463980463980464, -0.53125, 0.0
1848, -1.3846153846153846, -0.17216117216117216, -0.46875, 0.0
1849, -2.166056166056166, -0.4627594627594628, -0.59375, 0.0
1850, -3.098901098901099, -0.08180708180708181, -0.875, 0.0
1851, -2.8583638583638584, -0.02564102564102564, -0.71875, 0.0
1852, -1.5995115995115996, -0.44078144078144077, -0.65625, 0.0
1853, -1.6446886446886446, -0.4945054945054945, -0.78125, 0.0
1854, -2.225885225885226, -0.17704517704517705, -0.78125, 0.0
1855, -1.94993894993895, -0.42002442002442003, -0.625, 0.0
1856, -1.216117216117216, -1.0048840048840049, -0.5, 0.0
1857, -1.1575091575091576, -0.8498168498168498, -0.59375, 0.0
1858, -1.4053724053724053, -0.6153846153846154, -0.5625, 0.0
1859, -1.84981684981685, -0.3968253968253968, -0.625, 0.0
1860, -1.6043956043956045, -0.7191697191697192, -0.5, 0.0
1861, -1.557997557997558, -0.7057387057387058, -0.5625, 0.0
1862, -1.4053724053724053, -0.7203907203907204, -0.53125, 0.0
1863, -1.7704517704517704, -0.63003663003663, -0.59375, 0.0
1864, -2.567765567765568, -0.3711843711843712, -0.53125, 0.0
1865, -2.363858363858364, -0.3772893772893773, -0.5, 0.0
1866, -1.6581196581196582, -0.45665445665445664, -0.4375, 0.0
1867, -1.652014652014652, -0.5836385836385837, -0.34375, 0.0
1868, -1.641025641025641, -0.6007326007326007, -0.3125, 0.0
1869, -1.1697191697191698, -0.6398046398046398, -0.28125, 0.0
1870, -0.9743589743589743, -0.3492063492063492, -0.25, 0.0
1871, -0.8400488400488401, -0.03907203907203907, -0.21875, 0.0
1872, -0.8986568986568987, 0.06715506715506715, -0.28125, 0.0
1873, -1.061050061050061, -0.1111111111111111, -0.3125, 0.0
1874, -1.181929181929182, -0.2222222222222222, -0.15625, 0.0
1875, -0.8315018315018315, 0.0695970695970696, -0.03125, 0.0
1876, -0.6617826617826618, 0.27228327228327226, -0.0625, 0.0
1877, -0.5787545787545788, -0.10378510378510379, -0.15625, 0.0
1878, -0.37484737484737485, -0.7264957264957265, -0.1875, 1.0
1879, -0.2258852258852259, -0.4603174603174603, -0.15625, 1.0
1880, -0.27228327228327226, -0.14285714285714285, 0.0, 1.0
1881, -0.2979242979242979, -0.12087912087912088, 0.03125, 1.0
1882, -0.33821733821733824, -0.115995115995116, 0.09375, 1.0
1883, -0.45054945054945056, -0.5531135531135531, 0.09375, 1.0
1884, -0.6788766788766789, -0.6349206349206349, 0.15625, 1.0
1885, -0.6251526251526252, -0.28327228327228327, 0.21875, 1.0
1886, -0.684981684981685, 0.18803418803418803, 0.21875, 1.0
1887, -0.9072039072039072, -0.01221001221001221, 0.25, 1.0
1888, -0.38217338217338215, -0.31135531135531136, 0.28125, 1.0
1889, -0.20757020757020758, -0.39194139194139194, 0.40625, 1.0
1890, -0.2796092796092796, -0.40293040293040294, 0.4375, 1.0
1891, -0.2967032967032967, -0.5457875457875457, 0.53125, 1.0
1892, -0.05128205128205128, -0.5763125763125763, 0.4375, 1.0
1893, -0.3064713064713065, -0.08913308913308914, 0.4375, 1.0
1894, 0.015873015873015872, -0.08669108669108669, 0.53125, 1.0
1895, 0.16117216117216118, -0.014652014652014652, 0.65625, 1.0
1896, 0.24297924297924298, -0.36874236874236876, 0.875, 1.0
1897, 0.36507936507936506, -0.5201465201465202, 0.96875, 1.0
1898, 0.5763125763125763, -0.7643467643467643, 0.9375, 1.0
1899, 0.6214896214896215, -0.5726495726495726, 0.84375, 1.0
1900, 0.38217338217338215, -0.26373626373626374, 0.71875, 1.0
1901, 0.326007326007326, -0.1514041514041514, 0.84375, 1.0
1902, 0.4932844932844933, -0.5604395604395604, 0.8125, 1.0
1903, 0.36507936507936506, -0.20512820512820512, 0.65625, 1.0
1904, 0.4627594627594628, 0.015873015873015872, 0.4375, 1.0
1905, 0.608058608058608, -0.35653235653235654, 0.34375, 1.0
1906, 0.7557997557997558, -0.6617826617826618, 0.46875, 1.0
1907, 0.6178266178266179, -0.7814407814407814, 0.53125, 1.0
1908, 0.3797313797313797, -0.590964590964591, 0.53125, 1.0
1909, 0.6581196581196581, -0.5372405372405372, 0.5625, 1.0
1910, 1.1123321123321124, -0.4725274725274725, 0.625, 1.0
1911, 1.3577533577533578, -0.7203907203907204, 0.625, 1.0
1912, 0.8693528693528694, -0.4065934065934066, 0.6875, 1.0
1913, 1.0024420024420024, -0.5213675213675214, 0.875, 1.0
1914, 1.3443223443223444, -0.6910866910866911, 0.90625, 1.0
1915, 1.3663003663003663, -0.6764346764346765, 0.875, 1.0
1916, 1.78998778998779, -0.6398046398046398, 0.71875, 1.0
1917, 1.2588522588522588, -0.2698412698412698, 0.71875, 1.0
1918, 0.18437118437118438, 0.5091575091575091, 0.90625, 1.0
1919, 0.9438339438339438, -0.0695970695970696, 1.03125, 1.0
1920, 1.7155067155067154, -0.8876678876678876, 0.71875, 1.0
1921, 0.7448107448107448, 0.054945054945054944, 0.6875, 1.0
1922, 0.9597069597069597, 0.33577533577533575, 0.875, 1.0
1923, 1.9743589743589745, -0.3907203907203907, 0.875, 1.0
1924, 2.202686202686203, -0.9047619047619048, 0.59375, 1.0
1925, 1.5555555555555556, -0.2771672771672772, 0.4375, 1.0
1926, 1.2857142857142858, 0.2258852258852259, 0.40625, 1.0
1927, 1.3357753357753357, 0.017094017094017096, 0.375, 1.0
1928, 1.231990231990232, -0.19536019536019536, 0.3125, 1.0
1929, 1.2087912087912087, -0.442002442002442, 0.15625, 1.0
1930, 1.3601953601953602, -0.5616605616605617, 0.03125, 1.0
1931, 1.6776556776556777, -0.6996336996336996, -0.0625, 0.0
1932, 1.1001221001221002, -0.2271062271062271, -0.21875, 0.0
1933, 0.9023199023199023, 0.0, -0.3125, 0.0
1934, 0.9658119658119658, -0.2490842490842491, -0.34375, 0.0
1935, 0.7863247863247863, -0.3492063492063492, -0.40625, 0.0
1936, 0.5470085470085471, -0.3528693528693529, -0.46875, 0.0
1937, 0.7142857142857143, -0.43345543345543347, -0.5625, 0.0
1938, 0.63003663003663, -0.6398046398046398, -0.53125, 0.0
1939, -0.08180708180708181, -0.4078144078144078, -0.59375, 0.0
1940, -0.1562881562881563, -0.37484737484737485, -0.5625, 0.0
1941, 0.01098901098901099, -0.706959706959707, -0.65625, 0.0
1942, -0.46642246642246643, -0.4346764346764347, -0.6875, 0.0
1943, -0.6214896214896215, -0.22466422466422467, -0.5625, 0.0
1944, -0.5848595848595849, -0.14652014652014653, -0.40625, 0.0
1945, -0.41147741147741146, -0.5286935286935287, -0.375, 0.0
1946, -0.7924297924297924, -0.7264957264957265, -0.625, 0.0
1947, -1.1367521367521367, -0.6666666666666666, -0.75, 0.0
1948, -1.0732600732600732, -0.6190476190476191, -0.5625, 0.0
1949, -1.4212454212454213, -0.007326007326007326, -0.6875, 0.0
1950, -1.3748473748473748, -0.018315018315018316, -0.28125, 0.0
1951, -1.3724053724053724, -0.43956043956043955, -0.28125, 0.0
1952, -0.7582417582417582, -1.2222222222222223, -0.5, 0.0
1953, -1.557997557997558, -0.7545787545787546, -0.875, 0.0
1954, -2.1746031746031744, -0.05860805860805861, -0.84375, 0.0
1955, -2.203907203907204, -0.08791208791208792, -0.71875, 0.0
1956, -1.9487179487179487, -0.326007326007326, -0.78125, 0.0
1957, -1.2442002442002442, -0.7973137973137974, -0.78125, 0.0
1958, -1.4004884004884004, -0.5811965811965812, -0.90625, 0.0
1959, -1.63003663003663, -0.5274725274725275, -0.875, 0.0
1960, -1.9743589743589745, -0.4053724053724054, -0.8125, 0.0
1961, -2.312576312576313, -0.12454212454212454, -0.71875, 0.0
1962, -1.9841269841269842, -0.3516483516483517, -0.5625, 0.0
1963, -1.6483516483516483, -0.4517704517704518, -0.46875, 0.0
1964, -1.8412698412698412, -0.2148962148962149, -0.375, 0.0
1965, -1.291819291819292, -0.24297924297924298, -0.34375, 0.0
1966, -1.0415140415140416, -0.23443223443223443, -0.28125, 0.0
1967, -1.534798534798535, 0.1916971916971917, -0.40625, 0.0
1968, -2.0781440781440783, 0.10378510378510379, -0.40625, 0.0
1969, -1.6080586080586081, -0.663003663003663, -0.28125, 0.0
1970, -0.6312576312576312, -1.083028083028083, -0.25, 0.0
1971, -0.5079365079365079, -0.73992673992674, -0.21875, 0.0
1972, -0.9816849816849816, -0.37484737484737485, -0.25, 0.0
1973, -1.032967032967033, -0.36996336996337, -0.3125, 0.0
1974, -0.9914529914529915, -0.47619047619047616, -0.3125, 0.0
1975, -0.746031746031746, -0.5054945054945055, -0.1875, 0.0
1976, -0.34554334554334554, -0.4627594627594628, -0.09375, 0.0
1977, -0.36752136752136755, -0.19413919413919414, -0.0625, 0.0
1978, -0.6312576312576312, 0.007326007326007326, -0.125, 0.0
1979, -0.8363858363858364, 0.045177045177045176, -0.09375, 0.0
1980, -0.4163614163614164, -0.13064713064713065, 0.0, 0.0
1981, -0.37606837606837606, -0.02564102564102564, 0.0, 0.0
1982, -0.18437118437118438, 0.07203907203907203, 0.09375, 0.0
1983, 0.20512820512820512, -0.07448107448107448, 0.0625, 1.0
1984, 0.37484737484737485, -0.4908424908424908, -0.0625, 1.0
1985, 0.04151404151404151, -0.46153846153846156, 0.0, 1.0
1986, -0.12698412698412698, -0.4896214896214896, 0.0625, 1.0
1987, -0.25396825396825395, -0.3162393162393162, 0.125, 1.0
1988, -0.5921855921855922, 0.057387057387057384, 0.0625, 1.0
1989, -1.0683760683760684, 0.23809523809523808, 0.0, 1.0
1990, -1.2332112332112333, -0.040293040293040296, 0.125, 1.0
1991, -0.8473748473748474, -0.4884004884004884, 0.21875, 1.0
1992, -0.7032967032967034, -0.13553113553113552, 0.34375, 1.0
1993, -0.2454212454212454, -0.12576312576312576, 0.375, 1.0
1994, -0.3199023199023199, -0.28815628815628813, 0.34375, 1.0
1995, -0.22466422466422467, -0.5238095238095238, 0.3125, 1.0
1996, 0.003663003663003663, -0.894993894993895, 0.25, 1.0
1997, 0.15506715506715507, -0.6593406593406593, 0.53125, 1.0
1998, 0.11355311355311355, -0.3308913308913309, 0.65625, 1.0
1999, -0.21245421245421245, 0.03540903540903541, 0.6875, 1.0
2000, -0.12332112332112333, -0.15384615384615385, 0.65625, 1.0
2001, 0.001221001221001221, -0.2625152625152625, 0.71875, 1.0
2002, 0.3516483516483517, -0.2258852258852259, 0.90625, 1.0
