timestamp, accX, accY, gyroZ, button
1220, -0.014652014652014652, -0.029304029304029304, 0.03125, 0.0
1221, 0.009768009768009768, -0.017094017094017096, 0.03125, 0.0
1222, -0.004884004884004884, -0.050061050061050064, 0.03125, 0.0
1, -0.028083028083028084, -0.03296703296703297, 0.03125, 0.0
2, -0.01098901098901099, -0.02442002442002442, 0.03125, 0.0
3, -0.001221001221001221, -0.018315018315018316, 0.03125, 0.0
4, 0.003663003663003663, -0.047619047619047616, 0.03125, 0.0
5, 0.008547008547008548, -0.04395604395604396, 0.03125, 0.0
6, -0.02197802197802198, -0.02442002442002442, 0.03125, 0.0
7, -0.04151404151404151, -0.013431013431013432, 0.03125, 0.0
8, -0.017094017094017096, -0.0231990231990232, 0.03125, 0.0
9, 0.014652014652014652, -0.018315018315018316, 0.03125, 0.0
10, 0.008547008547008548, -0.05860805860805861, 0.03125, 0.0
11, -0.014652014652014652, -0.047619047619047616, 0.03125, 0.0
12, -0.02564102564102564, -0.047619047619047616, 0.03125, 0.0
13, -0.006105006105006105, -0.040293040293040296, 0.03125, 0.0
14, -0.013431013431013432, -0.02442002442002442, 0.03125, 0.0
15, -0.007326007326007326, -0.02197802197802198, 0.03125, 0.0
16, -0.006105006105006105, -0.0231990231990232, 0.03125, 0.0
17, 0.0, -0.02564102564102564, 0.03125, 0.0
18, -0.002442002442002442, -0.02197802197802198, 0.03125, 0.0
19, 0.0, -0.019536019536019536, 0.03125, 0.0
20, -0.030525030525030524, -0.03418803418803419, 0.03125, 0.0
21, -0.03418803418803419, -0.03785103785103785, 0.03125, 0.0
22, -0.01221001221001221, -0.050061050061050064, 0.03125, 0.0
23, 0.007326007326007326, -0.031746031746031744, 0.03125, 0.0
24, -0.002442002442002442, -0.02197802197802198, 0.03125, 0.0
25, 0.001221001221001221, -0.028083028083028084, 0.03125, 0.0
26, -0.02197802197802198, -0.018315018315018316, 0.03125, 0.0
27, -0.009768009768009768, -0.02564102564102564, 0.03125, 0.0
28, -0.001221001221001221, -0.030525030525030524, 0.03125, 0.0
29, -0.001221001221001221, -0.02564102564102564, 0.03125, 0.0
30, -0.001221001221001221, -0.028083028083028084, 0.03125, 0.0
31, -0.007326007326007326, -0.018315018315018316, 0.03125, 0.0
32, -0.009768009768009768, -0.02564102564102564, 0.0625, 0.0
33, -0.015873015873015872, -0.026862026862026864, 0.0625, 0.0
34, -0.002442002442002442, -0.03540903540903541, 0.03125, 0.0
35, 0.006105006105006105, -0.057387057387057384, 0.03125, 0.0
36, 0.0, -0.026862026862026864, 0.03125, 0.0
37, -0.03907203907203907, -0.020757020757020756, 0.03125, 0.0
38, -0.01221001221001221, -0.013431013431013432, 0.03125, 0.0
39, -0.002442002442002442, -0.029304029304029304, 0.03125, 0.0
40, 0.003663003663003663, -0.050061050061050064, 0.03125, 0.0
41, 0.006105006105006105, -0.02442002442002442, 0.03125, 0.0
42, -0.006105006105006105, -0.0231990231990232, 0.03125, 0.0
43, -0.02564102564102564, -0.009768009768009768, 0.03125, 0.0
44, -0.0231990231990232, -0.026862026862026864, 0.03125, 0.0
45, -0.001221001221001221, -0.05128205128205128, 0.03125, 0.0
46, 0.030525030525030524, -0.06227106227106227, 0.03125, 0.0
47, -0.001221001221001221, -0.03785103785103785, 0.03125, 0.0
48, -0.009768009768009768, -0.014652014652014652, 0.03125, 0.0
49, -0.0231990231990232, -0.018315018315018316, 0.03125, 0.0
50, -0.015873015873015872, -0.02442002442002442, 0.03125, 0.0
51, 0.0231990231990232, -0.050061050061050064, 0.03125, 0.0
52, 0.0, -0.028083028083028084, 0.03125, 0.0
53, -0.01098901098901099, -0.020757020757020756, 0.03125, 0.0
54, -0.026862026862026864, -0.028083028083028084, 0.03125, 0.0
55, -0.009768009768009768, -0.030525030525030524, 0.03125, 0.0
56, 0.006105006105006105, -0.03418803418803419, 0.03125, 0.0
57, 0.01221001221001221, -0.042735042735042736, 0.03125, 0.0
58, 0.004884004884004884, -0.031746031746031744, 0.03125, 0.0
59, -0.026862026862026864, -0.018315018315018316, 0.03125, 0.0
60, -0.029304029304029304, -0.006105006105006105, 0.03125, 0.0
61, -0.002442002442002442, -0.026862026862026864, 0.0625, 0.0
62, 0.03540903540903541, -0.045177045177045176, 0.03125, 0.0
63, 0.03907203907203907, -0.06715506715506715, 0.03125, 0.0
64, -0.040293040293040296, -0.031746031746031744, 0.03125, 0.0
65, -0.06715506715506715, -0.020757020757020756, 0.03125, 0.0
66, 0.013431013431013432, -0.0695970695970696, 0.0625, 0.0
67, 0.029304029304029304, -0.05128205128205128, 0.03125, 0.0
68, 0.0, -0.028083028083028084, 0.03125, 0.0
69, -0.07814407814407814, -0.01098901098901099, 0.03125, 0.0
70, -0.03907203907203907, -0.004884004884004884, 0.03125, 0.0
71, 0.008547008547008548, -0.02442002442002442, 0.03125, 0.0
72, 0.004884004884004884, -0.03663003663003663, 0.03125, 0.0
73, -0.013431013431013432, -0.026862026862026864, 0.03125, 0.0
74, -0.031746031746031744, -0.03418803418803419, 0.03125, 0.0
75, -0.019536019536019536, -0.03418803418803419, 0.03125, 0.0
76, -0.004884004884004884, -0.026862026862026864, 0.03125, 0.0
77, 0.013431013431013432, -0.03540903540903541, 0.0625, 0.0
78, 0.004884004884004884, -0.03540903540903541, 0.03125, 0.0
79, -0.007326007326007326, -0.02442002442002442, 0.03125, 0.0
80, -0.026862026862026864, -0.01098901098901099, 0.03125, 0.0
81, -0.014652014652014652, -0.026862026862026864, 0.03125, 0.0
82, -0.002442002442002442, -0.028083028083028084, 0.03125, 0.0
83, 0.001221001221001221, -0.03296703296703297, 0.03125, 0.0
84, -0.017094017094017096, -0.029304029304029304, 0.03125, 0.0
85, -0.017094017094017096, -0.031746031746031744, 0.03125, 0.0
86, -0.001221001221001221, -0.040293040293040296, 0.03125, 0.0
87, 0.017094017094017096, -0.11721611721611722, 0.03125, 0.0
88, 0.03663003663003663, 0.001221001221001221, 0.03125, 0.0
89, -0.030525030525030524, 0.12942612942612944, 0.03125, 0.0
90, -0.10989010989010989, 0.11233211233211234, 0.0625, 0.0
91, 0.006105006105006105, -0.003663003663003663, 0.09375, 0.0
92, 0.1343101343101343, -0.2698412698412698, 0.0625, 0.0
93, 0.07936507936507936, -0.16117216117216118, 0.0625, 0.0
94, -0.003663003663003663, 0.002442002442002442, 0.03125, 0.0
95, -0.1391941391941392, -0.03785103785103785, 0.0, 0.0
96, -0.3601953601953602, -0.09768009768009768, -0.03125, 0.0
97, -0.47863247863247865, -0.13553113553113552, 0.0, 0.0
98, -0.15995115995115994, -0.17704517704517705, 0.03125, 0.0
99, -0.03418803418803419, -0.017094017094017096, 0.0625, 0.0
100, 0.1514041514041514, -0.2222222222222222, 0.1875, 0.0
101, 0.050061050061050064, -0.10256410256410256, 0.125, 0.0
102, 0.0231990231990232, -0.10744810744810745, 0.125, 0.0
103, -0.15262515262515264, 0.14652014652014653, 0.15625, 0.0
104, -0.19291819291819293, 0.16971916971916973, 0.15625, 0.0
105, -0.10622710622710622, 0.042735042735042736, 0.21875, 0.0
106, 0.0989010989010989, -0.15506715506715507, 0.1875, 0.0
107, 0.20512820512820512, -0.19658119658119658, 0.125, 0.0
108, -0.017094017094017096, -0.20146520146520147, 0.0625, 0.0
109, -0.2490842490842491, 0.02564102564102564, 0.09375, 0.0
110, -0.22832722832722832, 0.24786324786324787, 0.15625, 0.0
111, -0.02197802197802198, -0.03418803418803419, 0.125, 0.0
112, 0.10744810744810745, -0.20512820512820512, 0.09375, 0.0
113, 0.06593406593406594, -0.12454212454212454, 0.09375, 0.0
114, 0.009768009768009768, -0.05860805860805861, 0.125, 0.0
115, 0.15384615384615385, -0.23321123321123322, 0.15625, 0.0
116, 0.22344322344322345, -0.23931623931623933, 0.125, 0.0
117, 0.27106227106227104, -0.43345543345543347, 0.0625, 0.0
118, 0.09768009768009768, -0.36874236874236876, -0.0625, 0.0
119, 0.09157509157509157, -0.2698412698412698, -0.03125, 0.0
120, 0.1623931623931624, -0.2600732600732601, -0.0625, 0.0
121, 0.02197802197802198, -0.013431013431013432, -0.125, 0.0
122, -0.2503052503052503, 0.32234432234432236, -0.15625, 0.0
123, -0.11355311355311355, 0.21611721611721613, -0.21875, 0.0
124, -0.5103785103785103, -0.4432234432234432, -0.34375, 0.0
125, -0.6923076923076923, -1.105006105006105, -0.375, 0.0
126, -0.48473748473748474, -0.9682539682539683, -0.3125, 0.0
127, -0.23443223443223443, -0.5311355311355311, 0.0, 0.0
128, 0.07448107448107448, -0.3553113553113553, 0.40625, 0.0
129, 0.026862026862026864, -0.08791208791208792, 0.375, 0.0
130, -0.05372405372405373, 0.2454212454212454, 0.3125, 0.0
131, 0.0463980463980464, 0.18803418803418803, 0.40625, 0.0
132, 0.1514041514041514, -0.10866910866910867, 0.375, 0.0
133, 0.4175824175824176, -0.33455433455433453, 0.40625, 0.0
134, 0.29914529914529914, -0.4908424908424908, 0.34375, 0.0
135, -0.10134310134310134, -0.48595848595848595, 0.3125, 0.0
136, 0.06349206349206349, -1.0231990231990231, 0.5, 0.0
137, 0.9316239316239316, -1.3308913308913308, 0.59375, 0.0
138, 1.0818070818070817, -1.1660561660561661, 0.4375, 0.0
139, 0.36385836385836384, -1.0097680097680097, 0.34375, 0.0
140, 0.16483516483516483, -1.452991452991453, 0.3125, 0.0
141, 1.2405372405372406, -1.8327228327228327, 0.1875, 0.0
142, 1.15995115995116, -1.4065934065934067, -0.0625, 0.0
143, 0.12576312576312576, -0.7277167277167277, -0.125, 0.0
144, -0.12698412698412698, -0.4444444444444444, -0.15625, 0.0
145, 0.2222222222222222, -0.6532356532356532, -0.21875, 0.0
146, 0.042735042735042736, -0.43956043956043955, -0.21875, 0.0
147, -0.41147741147741146, 0.0695970695970696, -0.21875, 0.0
148, -0.5518925518925519, 0.3321123321123321, -0.1875, 0.0
149, -0.3247863247863248, 0.2258852258852259, -0.1875, 0.0
150, -0.6996336996336996, 0.5067155067155067, -0.1875, 0.0
151, -1.0537240537240538, 0.5213675213675214, -0.15625, 0.0
152, -0.938949938949939, 0.2857142857142857, -0.15625, 0.0
153, -1.0256410256410255, 0.19413919413919414, -0.0625, 0.0
154, -0.78998778998779, 0.10378510378510379, 0.0, 0.0
155, -0.43101343101343104, 0.0695970695970696, 0.03125, 0.0
156, -0.5726495726495726, 0.2039072039072039, 0.03125, 0.0
157, -0.7362637362637363, 0.29304029304029305, 0.0625, 0.0
158, -0.4444444444444444, 0.28083028083028083, 0.09375, 0.0
159, -0.003663003663003663, 0.018315018315018316, 0.09375, 0.0
160, -0.04395604395604396, 0.0231990231990232, 0.125, 0.0
161, -0.1111111111111111, 0.06349206349206349, 0.15625, 0.0
162, -0.008547008547008548, -0.07814407814407814, 0.15625, 0.0
163, 0.442002442002442, -0.5238095238095238, 0.15625, 0.0
164, 0.5054945054945055, -0.5653235653235653, 0.1875, 0.0
165, 0.42002442002442003, -0.5995115995115995, 0.15625, 0.0
166, 0.2625152625152625, -0.4932844932844933, 0.15625, 0.0
167, 0.3137973137973138, -0.33821733821733824, 0.15625, 0.0
168, 0.4078144078144078, -0.2954822954822955, 0.15625, 0.0
169, 0.33577533577533575, -0.1684981684981685, 0.15625, 0.0
170, 0.13064713064713065, -0.09645909645909646, 0.125, 0.0
171, -0.007326007326007326, -0.18803418803418803, 0.09375, 0.0
172, -0.026862026862026864, -0.3064713064713065, 0.0625, 0.0
173, 0.05616605616605617, -0.30036630036630035, 0.0625, 0.0
174, 0.10256410256410256, -0.17338217338217338, 0.0625, 0.0
175, -0.11721611721611722, 0.03418803418803419, 0.03125, 0.0
176, -0.33821733821733824, 0.040293040293040296, 0.03125, 0.0
177, -0.47496947496947495, -0.1111111111111111, 0.03125, 0.0
178, -0.4835164835164835, -0.1330891330891331, 0.0625, 0.0
179, -0.2893772893772894, -0.16971916971916973, 0.125, 0.0
180, -0.1282051282051282, -0.08302808302808302, 0.15625, 0.0
181, -0.019536019536019536, -0.06349206349206349, 0.15625, 0.0
182, 0.05860805860805861, -0.13553113553113552, 0.15625, 0.0
183, 0.10744810744810745, -0.2039072039072039, 0.15625, 0.0
184, -0.07326007326007326, -0.16483516483516483, 0.21875, 0.0
185, -0.08302808302808302, -0.18437118437118438, 0.25, 0.0
186, 0.05128205128205128, -0.3321123321123321, 0.21875, 0.0
187, 0.03296703296703297, -0.29914529914529914, 0.21875, 0.0
188, 0.08669108669108669, -0.09523809523809523, 0.1875, 0.0
189, 0.001221001221001221, 0.0927960927960928, 0.15625, 0.0
190, -0.08180708180708181, 0.04151404151404151, 0.09375, 0.0
191, -0.030525030525030524, -0.08913308913308914, 0.03125, 0.0
192, 0.0, -0.06349206349206349, 0.0, 0.0
193, -0.221001221001221, -0.018315018315018316, 0.0, 0.0
194, -0.2515262515262515, 0.007326007326007326, 0.03125, 0.0
195, -0.11721611721611722, -0.0231990231990232, 0.0625, 0.0
196, 0.06471306471306472, -0.231990231990232, 0.09375, 0.0
197, 0.1111111111111111, -0.21367521367521367, 0.09375, 0.0
198, -0.008547008547008548, -0.006105006105006105, 0.0625, 0.0
199, -0.0927960927960928, 0.10012210012210013, 0.0, 0.0
200, 0.07203907203907203, -0.047619047619047616, -0.0625, 0.0
201, -0.029304029304029304, -0.09401709401709402, -0.0625, 0.0
202, -0.07081807081807082, -0.007326007326007326, -0.0625, 0.0
203, -0.09157509157509157, -0.12576312576312576, -0.03125, 0.0
204, -0.009768009768009768, -0.03540903540903541, 0.0, 0.0
205, -0.0989010989010989, 0.04395604395604396, 0.03125, 0.0
206, -0.18803418803418803, 0.006105006105006105, 0.09375, 0.0
207, -0.004884004884004884, -0.020757020757020756, 0.09375, 0.0
208, 0.04151404151404151, -0.03418803418803419, 0.09375, 0.0
209, -0.01098901098901099, -0.030525030525030524, 0.03125, 0.0
210, 0.02442002442002442, -0.15018315018315018, 0.0, 0.0
211, -0.1514041514041514, -0.29426129426129427, 0.0, 0.0
212, -0.28327228327228327, 0.1794871794871795, 0.03125, 0.0
213, -0.14163614163614163, 0.03785103785103785, 0.0625, 0.0
214, -0.13797313797313798, 0.009768009768009768, 0.0, 0.0
215, 0.32112332112332115, -0.26373626373626374, 0.125, 0.0
216, 0.21001221001221002, -0.10378510378510379, 0.09375, 1.0
217, 0.26373626373626374, -0.4725274725274725, 0.125, 1.0
218, 0.10866910866910867, -0.10744810744810745, 0.1875, 1.0
219, -0.047619047619047616, 0.017094017094017096, 0.1875, 1.0
220, 0.6043956043956044, -0.1978021978021978, 0.25, 1.0
221, 0.7032967032967034, -0.2515262515262515, 0.25, 1.0
222, 0.8144078144078144, 0.37484737484737485, 0.1875, 1.0
223, 0.4810744810744811, 0.2673992673992674, 0.09375, 1.0
224, 0.8205128205128205, -0.1282051282051282, 0.03125, 1.0
225, 1.376068376068376, -0.4249084249084249, -0.125, 1.0
226, 1.0879120879120878, -0.7057387057387058, -0.125, 1.0
227, 1.3894993894993894, -0.5897435897435898, -0.0625, 1.0
228, 1.4126984126984128, -0.5152625152625152, -0.15625, 1.0
229, 1.5653235653235653, -0.3540903540903541, -0.25, 1.0
230, 1.4603174603174602, -0.7411477411477412, -0.34375, 1.0
231, 1.21001221001221, -0.9206349206349206, -0.40625, 1.0
232, 1.0476190476190477, -0.6654456654456654, -0.5625, 1.0
233, 0.6752136752136753, -0.4432234432234432, -0.59375, 1.0
234, 0.3333333333333333, -0.30158730158730157, -0.625, 1.0
235, 0.33821733821733824, 0.015873015873015872, -0.71875, 1.0
236, 0.14652014652014653, -0.2686202686202686, -0.84375, 1.0
237, -0.0463980463980464, -0.6434676434676435, -0.8125, 1.0
238, -0.16605616605616605, -0.7716727716727717, -0.8125, 1.0
239, -0.5103785103785103, -0.09768009768009768, -0.8125, 1.0
240, -0.6251526251526252, -0.36752136752136755, -0.8125, 1.0
241, -0.23809523809523808, -1.2075702075702075, -0.875, 1.0
242, -0.46153846153846156, -1.1978021978021978, -0.96875, 1.0
243, -0.8656898656898657, -0.9743589743589743, -1.03125, 1.0
244, -1.0390720390720392, -0.9963369963369964, -1.03125, 1.0
245, -1.0903540903540903, -0.8095238095238095, -1.09375, 1.0
246, -1.9084249084249085, -0.7704517704517705, -1.15625, 1.0
247, -2.173382173382173, -1.115995115995116, -1.125, 1.0
248, -2.3394383394383396, -0.8547008547008547, -1.125, 1.0
249, -2.9743589743589745, -0.34065934065934067, -1.0625, 1.0
250, -2.7435897435897436, -0.10622710622710622, -0.90625, 1.0
251, -2.3076923076923075, -0.24786324786324787, -0.78125, 1.0
252, -2.970695970695971, -0.16361416361416362, -0.6875, 1.0
253, -2.5702075702075704, -0.02442002442002442, -0.625, 1.0
254, -1.8962148962148961, -0.3235653235653236, -0.5625, 1.0
255, -1.1575091575091576, -0.4017094017094017, -0.5, 1.0
256, -1.297924297924298, -0.49694749694749696, -0.46875, 1.0
257, -2.128205128205128, -1.0463980463980465, -0.5, 1.0
258, -2.52014652014652, -0.43833943833943834, -0.5, 1.0
259, -2.774114774114774, -0.18315018315018314, -0.28125, 1.0
260, -2.3882783882783882, 0.25274725274725274, -0.15625, 1.0
261, -2.062271062271062, 0.12576312576312576, -0.0625, 1.0
262, -1.722832722832723, -0.16483516483516483, 0.0, 1.0
263, -1.5763125763125763, -0.4713064713064713, 0.0625, 0.0
264, -1.2283272283272284, -1.0952380952380953, 0.15625, 0.0
265, -1.043956043956044, -0.41147741147741146, 0.21875, 0.0
266, -0.7521367521367521, -0.07692307692307693, 0.21875, 0.0
267, -0.41147741147741146, -0.536019536019536, 0.09375, 0.0
268, -0.6764346764346765, -0.9365079365079365, 0.0, 0.0
269, -1.115995115995116, -1.0512820512820513, 0.15625, 0.0
270, -0.8327228327228328, -0.6923076923076923, 0.40625, 0.0
271, -1.216117216117216, -0.5421245421245421, 0.40625, 0.0
272, -1.5262515262515262, -0.3833943833943834, 0.375, 0.0
273, -1.4822954822954824, -0.20024420024420025, 0.46875, 0.0
274, -1.3394383394383393, -0.5604395604395604, 0.59375, 0.0
275, -0.63003663003663, -0.3199023199023199, 0.75, 0.0
276, -0.10622710622710622, 0.3968253968253968, 0.8125, 0.0
277, -1.5323565323565325, 1.0598290598290598, 0.40625, 0.0
278, -4.885225885225886, 0.7667887667887668, 0.71875, 0.0
279, -2.6043956043956045, 0.09401709401709402, 1.65625, 0.0
280, -0.47619047619047616, -1.5421245421245422, 1.65625, 0.0
281, -0.07814407814407814, -1.7985347985347986, 1.59375, 0.0
282, 0.23687423687423687, -0.5860805860805861, 1.15625, 0.0
283, -1.0976800976800978, -0.34065934065934067, 1.5625, 0.0
284, 0.3333333333333333, -0.8925518925518926, 1.5625, 0.0
285, 1.5115995115995116, -0.32234432234432236, 1.46875, 0.0
286, 1.4908424908424909, -0.7875457875457875, 1.34375, 0.0
287, 1.3308913308913308, -2.2979242979242978, 1.21875, 0.0
288, 1.7448107448107448, -1.4065934065934067, 1.5625, 0.0
289, 2.536019536019536, -0.5921855921855922, 1.46875, 0.0
290, 2.8595848595848596, -0.8876678876678876, 1.375, 0.0
291, 3.3333333333333335, -1.6862026862026862, 1.09375, 0.0
292, 2.9096459096459095, -1.4188034188034189, 0.90625, 0.0
293, 2.0671550671550674, -1.5592185592185592, 1.125, 0.0
294, 1.989010989010989, -1.7594627594627594, 1.0625, 0.0
295, 2.1807081807081805, -1.3137973137973138, 0.96875, 0.0
296, 2.029304029304029, -0.73992673992674, 0.8125, 0.0
297, 2.0427350427350426, -0.9218559218559218, 0.8125, 0.0
298, 2.437118437118437, -1.2026862026862026, 0.71875, 0.0
299, 2.5494505494505493, -0.652014652014652, 0.59375, 0.0
300, 2.1697191697191696, -0.5531135531135531, 0.5, 0.0
301, 1.9242979242979243, -0.746031746031746, 0.375, 0.0
302, 1.6507936507936507, -0.9633699633699634, 0.25, 0.0
303, 1.083028083028083, -0.724053724053724, 0.1875, 0.0
304, 0.5726495726495726, -0.873015873015873, 0.1875, 0.0
305, 0.6202686202686203, -0.8302808302808303, 0.15625, 0.0
306, 0.4371184371184371, -0.22344322344322345, 0.03125, 1.0
307, 0.16361416361416362, -0.13064713064713065, 0.0, 1.0
308, 0.4175824175824176, -0.6837606837606838, 0.0, 1.0
309, 1.0488400488400489, -0.73992673992674, 0.0625, 1.0
310, 0.9914529914529915, -0.5506715506715507, 0.03125, 1.0
311, 0.7191697191697192, -0.5177045177045178, -0.03125, 1.0
312, 0.9816849816849816, -0.5628815628815629, -0.125, 1.0
313, 1.1916971916971917, -0.927960927960928, -0.25, 1.0
314, 1.2466422466422467, -0.9877899877899878, -0.40625, 1.0
315, 0.8229548229548229, -0.6056166056166056, -0.5, 1.0
316, 0.13797313797313798, -0.09523809523809523, -0.59375, 1.0
317, 0.20634920634920634, -0.1575091575091575, -0.625, 1.0
318, 0.4908424908424908, -0.6373626373626373, -0.6875, 1.0
319, 0.01098901098901099, -0.6251526251526252, -0.78125, 1.0
320, -0.29181929181929184, -0.5335775335775336, -0.8125, 1.0
321, -0.3492063492063492, -0.10744810744810745, -0.90625, 1.0
322, 0.001221001221001221, -0.39194139194139194, -0.8125, 1.0
323, -0.0463980463980464, -0.8327228327228328, -0.8125, 1.0
324, -0.03663003663003663, -0.7619047619047619, -0.84375, 1.0
325, -0.9194139194139194, -0.5067155067155067, -0.96875, 1.0
326, -0.9719169719169719, -0.536019536019536, -0.9375, 1.0
327, -1.028083028083028, -0.927960927960928, -1.15625, 1.0
328, -0.4603174603174603, -1.188034188034188, -1.15625, 1.0
329, -0.08058608058608059, -1.2063492063492063, -1.15625, 1.0
330, -1.6617826617826619, -0.16483516483516483, -1.1875, 1.0
331, -2.9621489621489623, 0.44078144078144077, -1.21875, 1.0
332, -2.7374847374847375, -0.6642246642246642, -1.1875, 1.0
333, -2.9975579975579976, -0.5152625152625152, -1.125, 1.0
334, -2.9145299145299144, -0.3663003663003663, -0.9375, 1.0
335, -3.0073260073260073, -0.3785103785103785, -0.8125, 1.0
336, -3.076923076923077, -0.01221001221001221, -0.65625, 1.0
337, -3.514041514041514, 0.22832722832722832, -0.5625, 1.0
338, -2.8107448107448105, -0.21978021978021978, -0.46875, 1.0
339, -2.2967032967032965, -0.5543345543345544, -0.375, 1.0
340, -1.9267399267399268, -0.4713064713064713, -0.34375, 1.0
341, -1.7057387057387057, -0.4542124542124542, -0.4375, 1.0
342, -2.1172161172161172, 0.08424908424908426, -0.5, 1.0
343, -2.4932844932844933, 0.01098901098901099, -0.375, 1.0
344, -2.995115995115995, -0.23321123321123322, -0.25, 1.0
345, -3.0915750915750917, 0.0, -0.1875, 1.0
346, -2.800976800976801, -0.03418803418803419, -0.09375, 1.0
347, -2.1477411477411477, -0.06593406593406594, -0.0625, 1.0
348, -1.9609279609279608, 0.2625152625152625, 0.0, 1.0
349, -1.9474969474969475, 0.08180708180708181, 0.15625, 0.0
350, -1.8815628815628815, -0.3125763125763126, 0.28125, 0.0
351, -1.2967032967032968, -0.6910866910866911, 0.34375, 0.0
352, -0.9706959706959707, -0.8412698412698413, 0.25, 0.0
353, -1.468864468864469, -0.6910866910866911, 0.3125, 0.0
354, -1.6996336996336996, -0.8070818070818071, 0.4375, 0.0
355, -1.592185592185592, -0.9316239316239316, 0.46875, 0.0
356, -1.4212454212454213, -0.7594627594627594, 0.5, 0.0
357, -1.7423687423687424, -0.18192918192918192, 0.375, 0.0
358, -2.241758241758242, 0.1623931623931624, 0.78125, 0.0
359, -1.6288156288156288, -0.9181929181929182, 1.0, 0.0
360, -1.3565323565323566, -0.3553113553113553, 1.09375, 0.0
361, -0.9951159951159951, 0.09035409035409035, 1.03125, 0.0
362, -1.3443223443223444, -0.13186813186813187, 0.8125, 0.0
363, -0.5433455433455433, -0.2039072039072039, 1.34375, 0.0
364, 0.11843711843711843, -0.19658119658119658, 1.46875, 0.0
365, -0.17826617826617827, -0.6141636141636142, 1.46875, 0.0
366, 0.5897435897435898, -1.3907203907203907, 1.375, 0.0
367, 0.1794871794871795, -0.6178266178266179, 1.25, 0.0
368, 0.22466422466422467, -0.2612942612942613, 1.5625, 0.0
369, 0.5873015873015873, -0.7582417582417582, 1.5, 0.0
370, 1.4945054945054945, -1.363858363858364, 1.5, 0.0
371, 2.1013431013431014, -1.9951159951159951, 1.15625, 0.0
372, 1.2295482295482296, -1.7411477411477412, 1.0, 0.0
373, 1.6117216117216118, -1.164835164835165, 1.34375, 0.0
374, 2.172161172161172, -1.4493284493284493, 1.28125, 0.0
375, 2.496947496947497, -1.5531135531135531, 1.125, 0.0
376, 2.7155067155067156, -1.3724053724053724, 0.71875, 0.0
377, 1.4285714285714286, -0.7374847374847375, 0.46875, 0.0
378, 1.6813186813186813, -0.6776556776556777, 0.90625, 0.0
379, 2.0549450549450547, -0.8827838827838828, 0.875, 0.0
380, 1.6935286935286935, -0.6776556776556777, 0.84375, 0.0
381, 1.6825396825396826, -0.29914529914529914, 0.59375, 0.0
382, 1.474969474969475, -0.43101343101343104, 0.6875, 0.0
383, 2.0244200244200243, -0.9706959706959707, 0.75, 0.0
384, 1.9804639804639805, -0.8266178266178266, 0.625, 0.0
385, 1.9328449328449329, -0.7851037851037851, 0.5, 0.0
386, 1.8156288156288156, -0.6239316239316239, 0.375, 0.0
387, 1.641025641025641, -0.503052503052503, 0.25, 0.0
388, 1.3577533577533578, -0.6031746031746031, 0.125, 0.0
389, 1.188034188034188, -0.24053724053724054, 0.125, 1.0
390, 1.0879120879120878, -1.1037851037851039, 0.125, 1.0
391, 1.3076923076923077, -0.6581196581196581, 0.03125, 1.0
392, 1.3308913308913308, -0.08058608058608059, -0.09375, 1.0
393, 1.1135531135531136, -0.6495726495726496, -0.25, 1.0
394, 0.9743589743589743, -0.9926739926739927, -0.3125, 1.0
395, 0.7838827838827839, -0.27228327228327226, -0.34375, 1.0
396, 0.4700854700854701, -0.01221001221001221, -0.375, 1.0
397, 0.575091575091575, -0.2686202686202686, -0.40625, 1.0
398, 0.9938949938949939, -0.7802197802197802, -0.46875, 1.0
399, 1.2344322344322345, -1.177045177045177, -0.59375, 1.0
400, 0.7692307692307693, -1.164835164835165, -0.71875, 1.0
401, 0.052503052503052504, -0.5323565323565324, -0.78125, 1.0
402, -0.4236874236874237, -0.27472527472527475, -0.8125, 1.0
403, -0.8107448107448108, -0.5128205128205128, -0.8125, 1.0
404, -0.5995115995115995, -0.9584859584859585, -0.875, 1.0
405, -0.2600732600732601, -1.017094017094017, -0.9375, 1.0
406, -0.8693528693528694, -0.6336996336996337, -0.96875, 1.0
407, -0.8241758241758241, -0.8522588522588522, -1.0, 1.0
408, -1.5274725274725274, -0.612942612942613, -1.0, 1.0
409, -1.7472527472527473, -0.3076923076923077, -0.9375, 1.0
410, -1.5262515262515262, -0.6862026862026862, -0.90625, 1.0
411, -1.9633699633699633, -0.8717948717948718, -0.96875, 1.0
412, -1.7252747252747254, -0.8632478632478633, -1.0625, 1.0
413, -0.9731379731379731, -0.6434676434676435, -1.0, 1.0
414, -1.221001221001221, -0.0989010989010989, -1.03125, 1.0
415, -1.8253968253968254, -0.32967032967032966, -1.0, 1.0
416, -1.7118437118437118, -0.6764346764346765, -0.96875, 1.0
417, -2.15018315018315, -0.8998778998778999, -1.0, 1.0
418, -3.5164835164835164, -0.15995115995115994, -0.96875, 1.0
419, -3.9365079365079363, 0.20512820512820512, -0.75, 1.0
420, -3.2612942612942613, -0.10622710622710622, -0.59375, 1.0
421, -2.9206349206349205, -0.09035409035409035, -0.5, 1.0
422, -2.2783882783882783, -0.08058608058608059, -0.46875, 1.0
423, -2.52014652014652, 0.028083028083028084, -0.46875, 1.0
424, -3.335775335775336, 0.32112332112332115, -0.4375, 1.0
425, -2.9902319902319903, 0.050061050061050064, -0.28125, 1.0
426, -2.595848595848596, -0.2490842490842491, -0.25, 1.0
427, -2.8351648351648353, -0.09768009768009768, -0.21875, 1.0
428, -2.515262515262515, -0.29914529914529914, -0.15625, 1.0
429, -2.7094017094017095, -0.17094017094017094, -0.0625, 0.0
430, -2.2979242979242978, 0.3199023199023199, 0.125, 0.0
431, -2.0488400488400487, 0.3162393162393162, 0.25, 0.0
432, -1.3162393162393162, 0.19658119658119658, 0.21875, 0.0
433, -1.6532356532356531, -0.3504273504273504, 0.09375, 0.0
434, -1.8864468864468864, -0.818070818070818, 0.40625, 0.0
435, -1.2466422466422467, -1.0854700854700854, 0.5, 0.0
436, -1.164835164835165, -1.083028083028083, 0.46875, 0.0
437, -1.877899877899878, -1.137973137973138, 0.28125, 0.0
438, -2.625152625152625, -0.6495726495726496, 0.4375, 0.0
439, -1.9023199023199022, -0.2698412698412698, 0.71875, 0.0
440, -1.3943833943833943, -0.326007326007326, 0.8125, 0.0
441, -1.2905982905982907, -0.3553113553113553, 0.90625, 0.0
442, -1.0024420024420024, -0.4517704517704518, 0.96875, 0.0
443, -0.6788766788766789, -0.3443223443223443, 0.9375, 0.0
444, -0.557997557997558, -0.2954822954822955, 1.25, 0.0
445, 0.0231990231990232, -0.8656898656898657, 1.21875, 0.0
446, 0.23687423687423687, -0.9963369963369964, 1.1875, 0.0
447, 0.568986568986569, -1.105006105006105, 0.90625, 0.0
448, 0.4981684981684982, -0.6996336996336996, 0.78125, 0.0
449, 0.5641025641025641, -0.43833943833943834, 1.34375, 0.0
450, 1.1135531135531136, -1.2967032967032968, 1.28125, 0.0
451, 0.7704517704517705, -1.321123321123321, 1.25, 0.0
452, 0.8461538461538461, -0.6874236874236874, 1.0625, 0.0
453, 0.7301587301587301, -0.08424908424908426, 0.75, 0.0
454, 0.34676434676434675, 0.4078144078144078, 1.125, 0.0
455, 1.794871794871795, -0.5103785103785103, 1.25, 0.0
456, 1.7973137973137974, -1.2625152625152625, 1.125, 0.0
457, 1.4774114774114775, -0.9841269841269841, 0.96875, 0.0
458, 1.4993894993894994, -1.3797313797313797, 0.84375, 0.0
459, 2.017094017094017, -1.4505494505494505, 0.9375, 0.0
460, 2.0244200244200243, -0.7667887667887668, 0.90625, 0.0
461, 1.2271062271062272, -0.057387057387057384, 0.8125, 0.0
462, 0.8253968253968254, -0.15384615384615385, 0.71875, 0.0
463, 0.9377289377289377, -0.21367521367521367, 0.71875, 0.0
464, 1.3492063492063493, -0.3418803418803419, 0.78125, 0.0
465, 1.3064713064713065, -0.37484737484737485, 0.6875, 0.0
466, 1.5555555555555556, -0.5262515262515263, 0.625, 0.0
467, 1.9072039072039073, -1.0427350427350428, 0.5, 0.0
468, 1.5531135531135531, -0.9242979242979243, 0.40625, 0.0
469, 1.2551892551892552, -0.6776556776556777, 0.28125, 0.0
470, 0.8424908424908425, -0.3235653235653236, 0.15625, 0.0
471, 0.6703296703296703, -0.13064713064713065, 0.09375, 0.0
472, 0.15873015873015872, -0.14896214896214896, 0.0625, 0.0
473, 0.1514041514041514, -0.30036630036630035, 0.0625, 1.0
474, 0.7606837606837606, -0.7557997557997558, 0.0, 1.0
475, 0.7667887667887668, -0.221001221001221, -0.0625, 1.0
476, 0.48595848595848595, -0.36874236874236876, -0.125, 1.0
477, 0.3626373626373626, -0.4652014652014652, -0.1875, 1.0
478, -0.14285714285714285, -0.32967032967032966, -0.25, 1.0
479, 0.06349206349206349, -0.07081807081807082, -0.21875, 1.0
480, 0.2686202686202686, 0.09401709401709402, -0.34375, 1.0
481, 0.03907203907203907, -0.017094017094017096, -0.4375, 1.0
482, 0.3492063492063492, -0.5665445665445665, -0.53125, 1.0
483, 1.0390720390720392, -0.9340659340659341, -0.5625, 1.0
484, 0.5482295482295483, -0.7387057387057387, -0.71875, 1.0
485, -0.5372405372405372, -0.05860805860805861, -0.71875, 1.0
486, -0.5091575091575091, -0.06471306471306472, -0.75, 1.0
487, -0.19413919413919414, -0.2625152625152625, -0.71875, 1.0
488, -0.27594627594627597, -0.4517704517704518, -0.75, 1.0
489, -0.231990231990232, -0.4945054945054945, -0.8125, 1.0
490, -0.06837606837606838, -0.6178266178266179, -0.875, 1.0
491, -0.4590964590964591, -0.7863247863247863, -0.90625, 1.0
492, -1.1623931623931625, -0.21123321123321123, -0.875, 1.0
493, -1.3540903540903542, 0.04395604395604396, -0.875, 1.0
494, -1.2002442002442002, -0.21611721611721613, -0.8125, 1.0
495, -0.3882783882783883, -0.6275946275946276, -0.78125, 1.0
496, -0.14652014652014653, -0.5299145299145299, -0.78125, 1.0
497, -0.315018315018315, -0.5225885225885226, -0.84375, 1.0
498, -1.199023199023199, -1.0390720390720392, -1.0625, 1.0
499, -2.148962148962149, -0.8852258852258852, -1.03125, 1.0
500, -1.4444444444444444, -0.9108669108669109, -1.0, 1.0
501, -1.120879120879121, -0.6837606837606838, -1.0, 1.0
502, -2.032967032967033, -0.4017094017094017, -1.0, 1.0
503, -2.8376068376068377, 0.0463980463980464, -0.9375, 1.0
504, -2.7045177045177047, 0.007326007326007326, -0.84375, 1.0
505, -3.336996336996337, 0.5409035409035409, -0.75, 1.0
506, -2.894993894993895, 0.36996336996337, -0.65625, 1.0
507, -2.7887667887667886, 0.5103785103785103, -0.65625, 1.0
508, -4.0366300366300365, 1.05006105006105, -0.625, 1.0
509, -3.78021978021978, 0.42735042735042733, -0.40625, 1.0
510, -3.5604395604395602, 0.12332112332112333, -0.21875, 1.0
511, -2.9853479853479854, 0.17094017094017094, -0.09375, 1.0
512, -2.688644688644689, 0.1330891330891331, 0.0, 1.0
513, -2.8376068376068377, -0.199023199023199, 0.09375, 0.0
514, -2.9035409035409034, 0.27228327228327226, 0.15625, 0.0
515, -2.324786324786325, -0.26373626373626374, 0.28125, 0.0
516, -1.652014652014652, -0.6959706959706959, 0.34375, 0.0
517, -1.1355311355311355, -0.7765567765567766, 0.34375, 0.0
518, -1.5213675213675213, -0.7582417582417582, 0.25, 0.0
519, -1.5946275946275947, -0.5763125763125763, 0.1875, 0.0
520, -1.5189255189255189, -0.525030525030525, 0.1875, 0.0
521, -1.5299145299145298, -0.8437118437118437, 0.46875, 0.0
522, -1.5225885225885225, -0.7619047619047619, 0.59375, 0.0
523, -1.8766788766788767, -0.18925518925518925, 0.5625, 0.0
524, -1.8083028083028083, 0.78998778998779, 0.5625, 0.0
525, -1.8571428571428572, 0.5958485958485958, 0.71875, 0.0
526, -1.1538461538461537, -0.575091575091575, 1.0625, 0.0
527, -0.811965811965812, -1.0012210012210012, 1.15625, 0.0
528, -0.8669108669108669, -0.019536019536019536, 1.09375, 0.0
529, -0.8400488400488401, 0.5054945054945055, 0.96875, 0.0
530, -0.7264957264957265, -0.23687423687423687, 1.09375, 0.0
531, -0.231990231990232, -1.3113553113553114, 1.3125, 0.0
532, 0.326007326007326, -1.054945054945055, 1.46875, 0.0
533, 0.6141636141636142, -0.4053724053724054, 1.4375, 0.0
534, 1.3223443223443223, -0.6410256410256411, 1.15625, 0.0
535, 1.4163614163614164, -1.2222222222222223, 0.84375, 0.0
536, 1.3101343101343101, -1.5628815628815629, 1.1875, 0.0
537, 1.6105006105006106, -1.308913308913309, 1.40625, 0.0
538, 1.7362637362637363, -0.6031746031746031, 1.46875, 0.0
539, 1.6544566544566544, -0.41025641025641024, 1.375, 0.0
540, 2.156288156288156, -1.122100122100122, 1.1875, 0.0
541, 2.8351648351648353, -2.0463980463980462, 0.875, 0.0
542, 2.750915750915751, -1.713064713064713, 0.84375, 0.0
543, 2.636141636141636, -0.989010989010989, 0.875, 0.0
544, 2.7472527472527473, -1.0366300366300367, 0.59375, 0.0
545, 2.340659340659341, -1.1623931623931625, 0.375, 0.0
546, 1.7362637362637363, -0.7777777777777778, 0.3125, 0.0
547, 1.3736263736263736, -0.3089133089133089, 0.59375, 0.0
548, 1.7557997557997558, -0.5457875457875457, 0.53125, 0.0
549, 1.6605616605616607, -0.5885225885225885, 0.4375, 0.0
550, 1.4810744810744811, -0.49206349206349204, 0.34375, 0.0
551, 1.3553113553113554, -0.49572649572649574, 0.375, 0.0
552, 1.5982905982905984, -0.6141636141636142, 0.28125, 0.0
553, 1.3650793650793651, -0.15506715506715507, 0.125, 0.0
554, 0.9096459096459096, -0.21245421245421245, 0.0625, 0.0
555, 0.673992673992674, -0.4236874236874237, 0.0, 0.0
556, 0.8107448107448108, -0.24786324786324787, 0.0, 0.0
557, 0.5567765567765568, -0.14407814407814407, -0.09375, 0.0
558, 0.08547008547008547, -0.2698412698412698, -0.09375, 1.0
559, 0.1623931623931624, 0.13064713064713065, -0.09375, 1.0
560, -0.06227106227106227, -0.047619047619047616, -0.15625, 1.0
561, -0.14652014652014653, -0.14407814407814407, -0.1875, 1.0
562, -0.14407814407814407, -0.21733821733821734, -0.25, 1.0
563, -0.3125763125763126, -0.21245421245421245, -0.21875, 1.0
564, -0.10744810744810745, -0.1916971916971917, -0.21875, 1.0
565, 0.12942612942612944, -0.21001221001221002, -0.25, 1.0
566, 0.28205128205128205, -0.21367521367521367, -0.25, 1.0
567, 0.5103785103785103, -0.4261294261294261, -0.25, 1.0
568, 0.3137973137973138, -0.5323565323565324, -0.375, 1.0
569, 0.04395604395604396, -0.17704517704517705, -0.375, 1.0
570, 0.2783882783882784, -0.14041514041514042, -0.375, 1.0
571, 0.6227106227106227, -0.21245421245421245, -0.40625, 1.0
572, 0.5470085470085471, -0.3235653235653236, -0.46875, 1.0
573, 0.115995115995116, -0.5677655677655677, -0.5625, 1.0
574, 0.1562881562881563, -0.8669108669108669, -0.6875, 1.0
575, -0.054945054945054944, -0.612942612942613, -0.8125, 1.0
576, -0.5702075702075702, -0.38461538461538464, -0.8125, 1.0
577, -0.9987789987789988, -0.36874236874236876, -0.875, 1.0
578, -1.15995115995116, -0.4725274725274725, -0.875, 1.0
579, -1.3577533577533578, -0.26373626373626374, -0.8125, 1.0
580, -0.5970695970695971, -0.35653235653235654, -0.8125, 1.0
581, 0.2258852258852259, -0.7081807081807082, -0.875, 1.0
582, -0.38583638583638585, -0.4981684981684982, -0.9375, 1.0
583, -1.1684981684981686, -0.03663003663003663, -1.09375, 1.0
584, -1.7411477411477412, 0.2979242979242979, -1.03125, 1.0
585, -1.619047619047619, -0.19291819291819293, -0.9375, 1.0
586, -1.6422466422466422, -0.4163614163614164, -0.9375, 1.0
587, -1.4517704517704517, -0.6410256410256411, -0.9375, 1.0
588, -1.3711843711843712, -0.7350427350427351, -0.96875, 1.0
589, -1.7692307692307692, -0.5970695970695971, -0.84375, 1.0
590, -1.6605616605616607, -0.7704517704517705, -0.8125, 1.0
591, -1.503052503052503, -0.8046398046398047, -0.875, 1.0
592, -2.568986568986569, -0.08669108669108669, -0.84375, 1.0
593, -3.5213675213675213, 0.4175824175824176, -0.8125, 1.0
594, -3.5665445665445668, 0.5335775335775336, -0.59375, 1.0
595, -3.1794871794871793, 0.6678876678876678, -0.40625, 1.0
596, -3.3492063492063493, 0.6410256410256411, -0.34375, 1.0
597, -3.0549450549450547, 0.19413919413919414, -0.25, 1.0
598, -2.4395604395604398, -0.40415140415140416, -0.1875, 1.0
599, -2.4676434676434678, -0.35653235653235654, -0.0625, 1.0
600, -2.7765567765567765, 0.21123321123321123, 0.0, 1.0
601, -2.501831501831502, 0.14774114774114774, 0.09375, 1.0
602, -1.5592185592185592, -0.9584859584859585, 0.125, 0.0
603, -1.3406593406593406, -0.5177045177045178, 0.1875, 0.0
604, -1.7142857142857142, -0.07814407814407814, 0.28125, 0.0
605, -1.5164835164835164, -0.4603174603174603, 0.28125, 0.0
606, -1.2405372405372406, -0.8095238095238095, 0.21875, 0.0
607, -1.4053724053724053, -0.9096459096459096, 0.03125, 0.0
608, -2.2857142857142856, -0.7631257631257631, -0.09375, 0.0
609, -2.2283272283272284, -0.14774114774114774, 0.40625, 0.0
610, -1.6886446886446886, -0.3089133089133089, 0.75, 0.0
611, -1.921855921855922, -0.23565323565323565, 0.84375, 0.0
612, -1.3711843711843712, -0.1978021978021978, 0.9375, 0.0
613, -0.8070818070818071, -0.3663003663003663, 0.875, 0.0
614, -1.1855921855921856, -0.4139194139194139, 0.78125, 0.0
615, -0.8791208791208791, -0.45054945054945056, 1.0, 0.0
616, -0.3711843711843712, -0.21855921855921856, 1.125, 0.0
617, -0.050061050061050064, -0.11965811965811966, 1.15625, 0.0
618, 0.14163614163614163, -0.514041514041514, 1.0625, 0.0
619, 0.27106227106227104, -0.7716727716727717, 1.0, 0.0
620, 0.3553113553113553, -0.3162393162393162, 1.25, 0.0
621, 0.8815628815628815, -0.6984126984126984, 1.375, 0.0
622, 1.1868131868131868, -1.3015873015873016, 1.34375, 0.0
623, 1.387057387057387, -0.9755799755799756, 1.25, 0.0
624, 1.5775335775335775, -0.7838827838827839, 1.0625, 0.0
625, 1.2356532356532357, -0.7448107448107448, 1.15625, 0.0
626, 1.4444444444444444, -0.6923076923076923, 1.25, 0.0
627, 1.6092796092796093, -0.717948717948718, 1.15625, 0.0
628, 1.7167277167277166, -0.7667887667887668, 1.0, 0.0
629, 2.0073260073260073, -0.7374847374847375, 0.75, 0.0
630, 1.7387057387057387, -0.5347985347985348, 0.8125, 0.0
631, 1.708180708180708, -0.645909645909646, 0.9375, 0.0
632, 2.028083028083028, -0.7997557997557998, 0.90625, 0.0
633, 2.178266178266178, -0.9194139194139194, 0.78125, 0.0
634, 1.9548229548229548, -0.8498168498168498, 0.65625, 0.0
635, 1.4603174603174602, -0.41025641025641024, 0.71875, 0.0
636, 1.7057387057387057, -0.5775335775335775, 0.6875, 0.0
637, 1.9206349206349207, -0.9084249084249084, 0.625, 0.0
638, 1.9072039072039073, -0.6471306471306472, 0.5, 0.0
639, 1.7155067155067154, -0.22344322344322345, 0.4375, 0.0
640, 1.6153846153846154, -0.14896214896214896, 0.34375, 0.0
641, 1.7802197802197801, -0.42124542124542125, 0.28125, 0.0
642, 1.5604395604395604, -0.8400488400488401, 0.09375, 0.0
643, 1.5128205128205128, -0.5811965811965812, 0.09375, 1.0
644, 1.2637362637362637, -0.19658119658119658, 0.03125, 1.0
645, 0.8876678876678876, -0.21733821733821734, 0.0, 1.0
646, 1.0036630036630036, -0.8827838827838828, -0.125, 1.0
647, 0.9682539682539683, -0.36996336996337, -0.25, 1.0
648, 0.2271062271062271, 0.03418803418803419, -0.28125, 1.0
649, -0.18437118437118438, -0.10744810744810745, -0.34375, 1.0
650, 0.029304029304029304, -0.2612942612942613, -0.3125, 1.0
651, 0.3724053724053724, -0.4236874236874237, -0.3125, 1.0
652, 0.5396825396825397, -0.29304029304029305, -0.40625, 1.0
653, 0.34798534798534797, -0.2967032967032967, -0.46875, 1.0
654, 0.2625152625152625, -0.09645909645909646, -0.53125, 1.0
655, 0.17338217338217338, -0.47374847374847373, -0.5625, 1.0
656, -0.14896214896214896, -0.3601953601953602, -0.59375, 1.0
657, -0.3711843711843712, -0.1916971916971917, -0.625, 1.0
658, -0.3431013431013431, -0.33943833943833945, -0.65625, 1.0
659, -0.14407814407814407, -0.8424908424908425, -0.65625, 1.0
660, -0.7667887667887668, -0.40293040293040294, -0.71875, 1.0
661, -0.5042735042735043, -0.24053724053724054, -0.75, 1.0
662, -0.10622710622710622, -0.3028083028083028, -0.78125, 1.0
663, -1.0146520146520146, -0.002442002442002442, -0.75, 1.0
664, -2.5128205128205128, 0.7741147741147741, -0.8125, 1.0
665, -2.1086691086691087, 0.6202686202686203, -0.8125, 1.0
666, -0.8278388278388278, -0.19413919413919414, -0.6875, 1.0
667, -0.5848595848595849, 0.026862026862026864, -0.5625, 1.0
668, 0.052503052503052504, -0.08669108669108669, -0.5, 1.0
669, 0.36752136752136755, -0.8595848595848596, -0.5, 1.0
670, -0.15873015873015872, -2.0256410256410255, -0.65625, 1.0
671, -2.4383394383394386, -1.0634920634920635, -1.09375, 1.0
672, -2.4713064713064714, -0.8644688644688645, -1.0625, 1.0
673, -2.065934065934066, -0.9072039072039072, -1.03125, 1.0
674, -2.1623931623931623, -0.7277167277167277, -0.875, 1.0
675, -2.1709401709401708, -0.08547008547008547, -0.84375, 1.0
676, -2.4896214896214897, 0.08913308913308914, -0.875, 1.0
677, -3.1904761904761907, 0.1111111111111111, -0.8125, 1.0
678, -3.7765567765567765, 0.14285714285714285, -0.625, 1.0
679, -3.5103785103785103, -0.25274725274725274, -0.4375, 1.0
680, -3.2112332112332114, -0.4078144078144078, -0.40625, 1.0
681, -3.4822954822954824, -0.15506715506715507, -0.34375, 1.0
682, -3.2002442002442004, -0.4981684981684982, -0.21875, 1.0
683, -3.0024420024420024, -0.3663003663003663, -0.09375, 1.0
684, -3.3089133089133087, -0.11477411477411477, -0.03125, 1.0
685, -3.103785103785104, -0.44932844932844934, 0.03125, 0.0
686, -2.976800976800977, -0.6874236874236874, 0.09375, 0.0
687, -2.913308913308913, -0.40415140415140416, 0.21875, 0.0
688, -2.2234432234432235, -0.5677655677655677, 0.28125, 0.0
689, -1.989010989010989, -0.2600732600732601, 0.3125, 0.0
690, -1.6825396825396826, -0.6043956043956044, 0.3125, 0.0
691, -1.3687423687423688, -1.120879120879121, 0.28125, 0.0
692, -1.5970695970695972, -0.9511599511599511, 0.28125, 0.0
693, -1.800976800976801, -0.5543345543345544, 0.375, 0.0
694, -1.4932844932844933, 0.1452991452991453, 0.5625, 0.0
695, -1.1001221001221002, -0.04884004884004884, 0.65625, 0.0
696, -1.1367521367521367, -0.702075702075702, 0.65625, 0.0
697, -1.083028083028083, -0.8388278388278388, 0.59375, 0.0
698, -0.7863247863247863, -0.18192918192918192, 0.65625, 0.0
699, -0.5396825396825397, -0.31013431013431014, 0.75, 0.0
700, 0.001221001221001221, -0.36385836385836384, 0.90625, 0.0
701, -0.18192918192918192, -0.42124542124542125, 0.875, 0.0
702, -0.3785103785103785, -0.4261294261294261, 0.9375, 0.0
703, -0.1794871794871795, 0.03540903540903541, 0.96875, 0.0
704, 0.115995115995116, 0.006105006105006105, 0.96875, 0.0
705, 0.5946275946275946, -0.6532356532356532, 0.96875, 0.0
706, 0.9426129426129426, -1.3076923076923077, 0.78125, 0.0
707, 0.39438339438339437, -1.144078144078144, 0.6875, 0.0
708, 0.8473748473748474, -0.8351648351648352, 1.125, 0.0
709, 1.5286935286935286, -0.9682539682539683, 1.125, 0.0
710, 1.1831501831501832, -1.0854700854700854, 1.03125, 0.0
711, 1.0879120879120878, -1.1868131868131868, 1.0, 0.0
712, 1.4957264957264957, -0.927960927960928, 0.84375, 0.0
713, 1.4676434676434675, -0.5543345543345544, 0.8125, 0.0
714, 1.0525030525030525, -0.3956043956043956, 0.78125, 0.0
715, 0.8962148962148963, -0.45054945054945056, 0.90625, 0.0
716, 1.47985347985348, -0.6935286935286935, 0.96875, 0.0
717, 1.6373626373626373, -0.5299145299145299, 0.90625, 0.0
718, 1.84004884004884, -0.673992673992674, 0.90625, 0.0
719, 1.778998778998779, -0.7582417582417582, 0.71875, 0.0
720, 1.5665445665445665, -0.5457875457875457, 0.59375, 0.0
721, 1.8656898656898657, -0.6043956043956044, 0.5625, 0.0
722, 2.203907203907204, -0.7606837606837606, 0.625, 0.0
723, 2.4554334554334556, -0.7802197802197802, 0.46875, 0.0
724, 2.0549450549450547, -0.5457875457875457, 0.34375, 0.0
725, 1.332112332112332, -0.2954822954822955, 0.28125, 0.0
726, 1.2014652014652014, -0.32844932844932845, 0.21875, 0.0
727, 1.0048840048840049, -0.4371184371184371, 0.09375, 0.0
728, 0.9560439560439561, -0.15262515262515264, 0.125, 1.0
729, 1.0586080586080586, -0.8302808302808303, 0.03125, 1.0
730, 0.8852258852258852, -0.4627594627594628, 0.0, 1.0
731, 0.818070818070818, -0.31868131868131866, -0.03125, 1.0
732, 0.4896214896214896, -0.41514041514041516, -0.09375, 1.0
733, 0.5482295482295483, -0.37606837606837606, -0.1875, 1.0
734, 0.1330891330891331, -0.001221001221001221, -0.3125, 1.0
735, -0.21001221001221002, -0.052503052503052504, -0.34375, 1.0
736, 0.01221001221001221, -0.07936507936507936, -0.40625, 1.0
737, 0.3601953601953602, -0.47374847374847373, -0.40625, 1.0
738, 0.5885225885225885, -0.7667887667887668, -0.375, 1.0
739, 0.6825396825396826, -0.7167277167277167, -0.46875, 1.0
740, 0.43223443223443225, -0.39316239316239315, -0.53125, 1.0
741, 0.42857142857142855, -0.38217338217338215, -0.5625, 1.0
742, 0.2673992673992674, -0.47496947496947495, -0.75, 1.0
743, -0.5433455433455433, -0.24175824175824176, -0.75, 1.0
744, -0.8290598290598291, -0.37484737484737485, -0.8125, 1.0
745, -0.6715506715506715, -0.5836385836385837, -0.8125, 1.0
746, -0.2612942612942613, -0.7472527472527473, -0.875, 1.0
747, -0.5177045177045178, -0.3443223443223443, -0.875, 1.0
748, -0.5274725274725275, -0.5946275946275946, -0.875, 1.0
749, -1.1245421245421245, -0.4236874236874237, -0.9375, 1.0
750, -1.0976800976800978, -0.1330891330891331, -0.90625, 1.0
751, -0.48595848595848595, -0.9743589743589743, -0.90625, 1.0
752, -1.1916971916971917, -1.115995115995116, -1.03125, 1.0
753, -1.343101343101343, -0.6581196581196581, -1.09375, 1.0
754, -1.192918192918193, -0.6678876678876678, -1.125, 1.0
755, -1.7753357753357752, -0.3626373626373626, -1.09375, 1.0
756, -2.645909645909646, -0.16605616605616605, -1.03125, 1.0
757, -2.028083028083028, -0.48595848595848595, -0.875, 1.0
758, -1.7887667887667889, -1.010989010989011, -0.84375, 1.0
759, -2.8595848595848596, 0.001221001221001221, -0.875, 1.0
760, -2.8351648351648353, 0.23076923076923078, -0.78125, 1.0
761, -2.282051282051282, -0.33943833943833945, -0.75, 1.0
762, -2.7106227106227108, -0.4810744810744811, -0.75, 1.0
763, -3.0085470085470085, -0.17094017094017094, -0.6875, 1.0
764, -3.0268620268620268, 0.1575091575091575, -0.65625, 1.0
765, -3.7606837606837606, 0.08424908424908426, -0.625, 1.0
766, -4.358974358974359, -0.10622710622710622, -0.46875, 1.0
767, -4.339438339438339, 0.15262515262515264, -0.3125, 1.0
768, -3.8253968253968256, -0.07326007326007326, -0.1875, 1.0
769, -3.0598290598290596, -0.05860805860805861, -0.125, 0.0
770, -2.57997557997558, -0.49694749694749696, -0.0625, 0.0
771, -2.326007326007326, -1.6935286935286935, 0.0, 0.0
772, -2.3724053724053724, -0.9474969474969475, 0.09375, 0.0
773, -1.9853479853479854, -0.2564102564102564, 0.15625, 0.0
774, -1.763125763125763, -0.6178266178266179, 0.09375, 0.0
775, -1.6764346764346765, -1.0744810744810744, 0.1875, 0.0
776, -1.8095238095238095, -1.2283272283272284, 0.28125, 0.0
777, -2.114774114774115, -0.4945054945054945, 0.375, 0.0
778, -2.1404151404151404, 0.2698412698412698, 0.53125, 0.0
779, -1.9230769230769231, 0.07448107448107448, 0.53125, 0.0
780, -1.304029304029304, -0.231990231990232, 0.46875, 0.0
781, -1.221001221001221, -0.1282051282051282, 0.59375, 0.0
782, -1.155067155067155, -0.34065934065934067, 0.90625, 0.0
783, -0.673992673992674, -0.6446886446886447, 0.96875, 0.0
784, -0.29914529914529914, -0.15262515262515264, 0.96875, 0.0
785, -0.23321123321123322, -0.15506715506715507, 0.8125, 0.0
786, -0.652014652014652, -0.5384615384615384, 0.65625, 0.0
787, -0.6764346764346765, 0.1855921855921856, 1.1875, 0.0
788, 0.14163614163614163, -0.49572649572649574, 1.28125, 0.0
789, -0.2271062271062271, -1.1941391941391941, 1.25, 0.0
790, -0.4139194139194139, -0.9120879120879121, 1.15625, 0.0
791, -0.020757020757020756, -0.04395604395604396, 1.0625, 0.0
792, 0.10500610500610501, -0.2454212454212454, 1.46875, 0.0
793, 1.2246642246642248, -1.6776556776556777, 1.5, 0.0
794, 1.6263736263736264, -2.0891330891330893, 1.40625, 0.0
795, 1.5238095238095237, -1.1404151404151404, 1.28125, 0.0
796, 1.6446886446886446, -0.49572649572649574, 1.15625, 0.0
797, 2.3553113553113554, -1.5677655677655677, 1.15625, 0.0
798, 2.4175824175824174, -1.4737484737484738, 1.1875, 0.0
799, 2.304029304029304, -0.9352869352869353, 1.125, 0.0
800, 2.155067155067155, -0.32234432234432236, 1.0, 0.0
801, 2.1355311355311355, -0.5067155067155067, 0.78125, 0.0
802, 1.993894993894994, -0.960927960927961, 0.59375, 0.0
803, 1.8632478632478633, -0.8278388278388278, 0.90625, 0.0
804, 2.1416361416361416, -0.7118437118437119, 0.96875, 0.0
805, 1.894993894993895, -0.6117216117216118, 0.84375, 0.0
806, 2.10989010989011, -0.8803418803418803, 0.75, 0.0
807, 2.1452991452991452, -0.7411477411477412, 0.625, 0.0
808, 2.043956043956044, -0.6385836385836385, 0.59375, 0.0
809, 2.0915750915750917, -0.6153846153846154, 0.53125, 0.0
810, 2.3492063492063493, -0.6324786324786325, 0.40625, 0.0
811, 2.0195360195360195, -0.833943833943834, 0.25, 0.0
812, 1.3797313797313797, -0.6666666666666666, 0.0625, 0.0
813, 0.9645909645909646, -0.4945054945054945, 0.0, 1.0
814, 0.5616605616605617, -1.1782661782661783, -0.09375, 1.0
815, 0.5787545787545788, -0.3711843711843712, -0.125, 1.0
816, 0.5934065934065934, -0.28815628815628813, -0.125, 1.0
817, 0.5982905982905983, -0.7484737484737485, -0.1875, 1.0
818, 0.5665445665445665, -0.7655677655677655, -0.1875, 1.0
819, 0.8742368742368742, -0.16483516483516483, -0.21875, 1.0
820, 0.46886446886446886, -0.1562881562881563, -0.3125, 1.0
821, 0.3443223443223443, -0.28205128205128205, -0.34375, 1.0
822, 0.5592185592185592, -0.4188034188034188, -0.40625, 1.0
823, 0.43833943833943834, -0.43956043956043955, -0.4375, 1.0
824, 0.6324786324786325, -0.3711843711843712, -0.46875, 1.0
825, 0.7289377289377289, -0.2698412698412698, -0.53125, 1.0
826, 0.3431013431013431, -0.3162393162393162, -0.5625, 1.0
827, -0.05128205128205128, -0.24297924297924298, -0.5625, 1.0
828, -0.06349206349206349, -0.6288156288156288, -0.75, 1.0
829, -0.18925518925518925, -0.32967032967032966, -0.65625, 1.0
830, -0.26495726495726496, -0.26373626373626374, -0.6875, 1.0
831, -0.19658119658119658, -0.4249084249084249, -0.71875, 1.0
832, -0.33455433455433453, -0.4700854700854701, -0.71875, 1.0
833, -0.7289377289377289, -0.43345543345543347, -0.78125, 1.0
834, -0.7130647130647131, -0.24786324786324787, -0.8125, 1.0
835, -0.21367521367521367, -0.7863247863247863, -0.75, 1.0
836, -1.021978021978022, -0.4371184371184371, -0.84375, 1.0
837, -1.5946275946275947, 0.3772893772893773, -0.75, 1.0
838, -0.9438339438339438, -0.15384615384615385, -0.84375, 1.0
839, -1.0366300366300367, -0.7875457875457875, -0.90625, 1.0
840, -1.424908424908425, -0.6043956043956044, -0.9375, 1.0
841, -1.1367521367521367, -0.25396825396825395, -0.90625, 1.0
842, -1.7435897435897436, -1.6654456654456655, -0.9375, 1.0
843, -4.083028083028083, -0.8864468864468864, -0.875, 1.0
844, -3.481074481074481, 0.2258852258852259, -0.8125, 1.0
845, -2.0976800976800978, -0.4810744810744811, -0.6875, 1.0
846, -2.543345543345543, 0.050061050061050064, -0.65625, 1.0
847, -3.481074481074481, 0.42857142857142855, -0.75, 1.0
848, -4.434676434676435, 0.4175824175824176, -0.84375, 1.0
849, -4.3247863247863245, -0.11843711843711843, -0.71875, 1.0
850, -4.365079365079365, -0.16117216117216118, -0.5, 1.0
851, -4.921855921855922, 0.463980463980464, -0.375, 1.0
852, -4.202686202686203, 0.7851037851037851, -0.1875, 0.0
853, -3.0256410256410255, 0.2442002442002442, -0.03125, 0.0
854, -2.3443223443223444, -0.9047619047619048, 0.15625, 0.0
855, -1.9609279609279608, -0.6019536019536019, 0.21875, 0.0
856, -2.1819291819291817, -0.34676434676434675, 0.15625, 0.0
857, -1.7484737484737485, -0.11721611721611722, 0.21875, 0.0
858, -0.9365079365079365, -0.8217338217338217, 0.25, 0.0
859, -0.8803418803418803, -1.0793650793650793, 0.3125, 0.0
860, -1.4175824175824177, -0.9755799755799756, 0.28125, 0.0
861, -2.028083028083028, -0.5042735042735043, 0.25, 0.0
862, -2.1880341880341883, 0.14652014652014653, 0.3125, 0.0
863, -1.835164835164835, 0.23687423687423687, 0.4375, 0.0
864, -1.8083028083028083, -0.18681318681318682, 0.59375, 0.0
865, -1.6532356532356531, -0.33943833943833945, 0.65625, 0.0
866, -1.9304029304029304, -0.08302808302808302, 0.65625, 0.0
867, -1.73992673992674, -0.1562881562881563, 0.9375, 0.0
868, -1.0415140415140416, -0.18803418803418803, 1.09375, 0.0
869, -1.1245421245421245, -0.05128205128205128, 1.3125, 0.0
870, -0.4432234432234432, -0.16605616605616605, 1.34375, 0.0
871, 0.23931623931623933, -0.3308913308913309, 1.28125, 0.0
872, 0.43101343101343104, -0.9572649572649573, 1.3125, 0.0
873, 0.8351648351648352, -1.7826617826617828, 1.34375, 0.0
874, 0.8315018315018315, -1.5885225885225884, 1.3125, 0.0
875, 1.0207570207570207, -1.0390720390720392, 1.34375, 0.0
876, 0.9902319902319903, -0.5445665445665445, 1.21875, 0.0
877, 0.7619047619047619, -0.6263736263736264, 1.34375, 0.0
878, 1.4004884004884004, -1.3687423687423688, 1.3125, 0.0
879, 1.667887667887668, -1.5103785103785103, 1.3125, 0.0
880, 1.6251526251526252, -1.0354090354090355, 1.21875, 0.0
881, 1.8766788766788767, -0.44078144078144077, 1.09375, 0.0
882, 2.0207570207570207, -0.3199023199023199, 0.9375, 0.0
883, 2.017094017094017, -1.1172161172161172, 0.90625, 0.0
884, 2.3772893772893773, -1.5128205128205128, 0.75, 0.0
885, 2.286935286935287, -1.2783882783882783, 0.75, 0.0
886, 2.0915750915750917, -0.9536019536019537, 0.75, 0.0
887, 2.1526251526251525, -0.7985347985347986, 0.6875, 0.0
888, 2.0586080586080584, -0.746031746031746, 0.5625, 0.0
889, 1.7326007326007327, -0.7277167277167277, 0.46875, 0.0
890, 1.641025641025641, -0.4725274725274725, 0.4375, 0.0
891, 1.8021978021978022, -0.3089133089133089, 0.375, 0.0
892, 1.6776556776556777, -0.28327228327228327, 0.375, 0.0
893, 1.8717948717948718, -0.5897435897435898, 0.28125, 0.0
894, 1.7997557997557998, -0.8107448107448108, 0.09375, 0.0
895, 0.8742368742368742, -0.17338217338217338, 0.03125, 0.0
896, 0.5885225885225885, -0.015873015873015872, 0.0, 0.0
897, 0.25518925518925517, -0.08180708180708181, -0.03125, 1.0
898, 0.11843711843711843, 0.13675213675213677, 0.0, 1.0
899, -0.015873015873015872, -0.5457875457875457, -0.03125, 1.0
900, -0.13553113553113552, -0.2503052503052503, -0.125, 1.0
901, -0.030525030525030524, -0.08669108669108669, -0.15625, 1.0
902, 0.3516483516483517, -0.36752136752136755, -0.1875, 1.0
903, 0.47619047619047616, -0.38461538461538464, -0.28125, 1.0
904, 0.5238095238095238, -0.4163614163614164, -0.3125, 1.0
905, 0.28205128205128205, -0.2625152625152625, -0.40625, 1.0
906, 0.27228327228327226, -0.221001221001221, -0.40625, 1.0
907, 0.16971916971916973, -0.06593406593406594, -0.4375, 1.0
908, 0.37484737484737485, -0.2625152625152625, -0.5, 1.0
909, 0.7313797313797313, -0.5067155067155067, -0.5, 1.0
910, 1.1489621489621489, -0.757020757020757, -0.5625, 1.0
911, 0.46153846153846156, -0.46764346764346765, -0.75, 1.0
912, -0.3431013431013431, -0.1514041514041514, -0.78125, 1.0
913, -0.7692307692307693, 0.0, -0.84375, 1.0
914, -0.3968253968253968, -0.26373626373626374, -0.78125, 1.0
915, -0.28205128205128205, -0.4932844932844933, -0.8125, 1.0
916, -1.0451770451770452, -0.33821733821733824, -0.875, 1.0
917, -1.249084249084249, -0.33943833943833945, -0.78125, 1.0
918, -0.33943833943833945, -0.35775335775335776, -0.65625, 1.0
919, -1.0744810744810744, -0.21978021978021978, -0.78125, 1.0
920, -1.4505494505494505, -0.21367521367521367, -0.6875, 1.0
921, -0.7411477411477412, -0.23076923076923078, -0.625, 1.0
922, -0.6959706959706959, -0.34676434676434675, -0.6875, 1.0
923, -0.41025641025641024, -0.7326007326007326, -0.71875, 1.0
924, -0.0989010989010989, -1.120879120879121, -0.875, 1.0
925, -1.3894993894993894, -0.6153846153846154, -1.03125, 1.0
926, -2.578754578754579, 0.02442002442002442, -0.9375, 1.0
927, -2.4334554334554332, -0.12698412698412698, -0.8125, 1.0
928, -1.706959706959707, -0.6715506715506715, -0.75, 1.0
929, -1.435897435897436, -0.8754578754578755, -0.84375, 1.0
930, -1.4236874236874237, -0.5262515262515263, -0.84375, 1.0
931, -1.9914529914529915, -0.41514041514041516, -0.75, 1.0
932, -3.056166056166056, -0.11233211233211234, -0.71875, 1.0
933, -3.236874236874237, -0.3308913308913309, -0.71875, 1.0
934, -2.9279609279609278, -0.15384615384615385, -0.65625, 1.0
935, -3.4652014652014653, 0.4236874236874237, -0.5625, 1.0
936, -4.048840048840049, 0.684981684981685, -0.375, 1.0
937, -3.387057387057387, 0.34676434676434675, -0.25, 1.0
938, -3.1953601953601956, 0.1514041514041514, -0.125, 1.0
939, -2.9792429792429793, 0.20024420024420025, -0.03125, 1.0
940, -2.8656898656898657, 0.16605616605616605, 0.0, 0.0
941, -2.6971916971916974, -0.23565323565323565, 0.03125, 0.0
942, -1.8852258852258852, -0.8559218559218559, 0.15625, 0.0
943, -2.029304029304029, -0.6349206349206349, 0.25, 0.0
944, -1.967032967032967, -0.4175824175824176, 0.25, 0.0
945, -1.5763125763125763, -0.2844932844932845, 0.25, 0.0
946, -1.1013431013431014, -0.5470085470085471, 0.21875, 0.0
947, -1.155067155067155, -0.6984126984126984, 0.34375, 0.0
948, -1.3394383394383393, -0.4468864468864469, 0.46875, 0.0
949, -1.7106227106227105, -0.002442002442002442, 0.5, 0.0
950, -1.3968253968253967, 0.15262515262515264, 0.5625, 0.0
951, -0.811965811965812, -0.047619047619047616, 0.59375, 0.0
952, -0.7692307692307693, -0.42857142857142855, 0.59375, 0.0
953, -0.5860805860805861, -0.4945054945054945, 0.78125, 0.0
954, -0.1623931623931624, -0.25518925518925517, 0.9375, 0.0
955, -0.6251526251526252, 0.01098901098901099, 0.9375, 0.0
956, -0.2869352869352869, -0.14774114774114774, 1.0, 0.0
957, 0.054945054945054944, -0.24175824175824176, 0.9375, 0.0
958, -0.05372405372405373, -0.32234432234432236, 1.0, 0.0
959, 0.46886446886446886, -0.5555555555555556, 1.25, 0.0
960, 0.20757020757020758, -0.2905982905982906, 1.21875, 0.0
961, 0.20634920634920634, -0.21123321123321123, 1.25, 0.0
962, 0.4908424908424908, -0.6800976800976801, 1.09375, 0.0
963, 0.5677655677655677, -0.6483516483516484, 1.03125, 0.0
964, 1.4236874236874237, -0.7094017094017094, 1.3125, 0.0
965, 1.2844932844932846, -0.4481074481074481, 1.3125, 0.0
966, 0.8571428571428571, -0.5567765567765568, 1.53125, 0.0
967, 1.2942612942612943, -1.4407814407814408, 1.34375, 0.0
968, 1.9609279609279608, -1.3846153846153846, 1.25, 0.0
969, 2.5457875457875456, -1.1135531135531136, 1.125, 0.0
970, 2.253968253968254, -0.6483516483516484, 1.0, 0.0
971, 1.7435897435897436, -0.4065934065934066, 0.90625, 0.0
972, 2.1868131868131866, -0.9352869352869353, 0.78125, 0.0
973, 2.4761904761904763, -1.0683760683760684, 0.6875, 0.0
974, 2.606837606837607, -0.9242979242979243, 0.625, 0.0
975, 2.421245421245421, -0.612942612942613, 0.5, 0.0
976, 2.0476190476190474, -0.5738705738705738, 0.53125, 0.0
977, 2.1965811965811968, -0.9829059829059829, 0.5625, 0.0
978, 2.5567765567765566, -0.9975579975579976, 0.5625, 0.0
979, 2.208791208791209, -0.7716727716727717, 0.375, 0.0
980, 1.6202686202686203, -0.6862026862026862, 0.21875, 0.0
981, 1.2002442002442002, -0.35775335775335776, 0.15625, 0.0
982, 0.9474969474969475, -0.2271062271062271, 0.125, 1.0
983, 0.8437118437118437, 0.10134310134310134, 0.125, 1.0
984, 0.3882783882783883, -0.2576312576312576, 0.0, 1.0
985, 0.8876678876678876, -0.07814407814407814, -0.0625, 1.0
986, 1.0366300366300367, -0.5347985347985348, -0.125, 1.0
987, 0.7008547008547008, -0.7252747252747253, -0.125, 1.0
988, 0.6666666666666666, -0.31135531135531136, -0.21875, 1.0
989, 0.3601953601953602, 0.08669108669108669, -0.28125, 1.0
990, 0.03663003663003663, -0.08302808302808302, -0.34375, 1.0
991, 0.17216117216117216, -0.42735042735042733, -0.40625, 1.0
992, 0.24297924297924298, -0.5970695970695971, -0.375, 1.0
993, 0.3833943833943834, -0.38461538461538464, -0.4375, 1.0
994, 0.5067155067155067, -0.41514041514041516, -0.40625, 1.0
995, 0.31746031746031744, -0.35653235653235654, -0.46875, 1.0
996, -0.006105006105006105, -0.3443223443223443, -0.625, 1.0
997, -0.43345543345543347, -0.21855921855921856, -0.71875, 1.0
998, -0.4652014652014652, -0.1794871794871795, -0.75, 1.0
999, -0.08791208791208792, -0.18192918192918192, -0.71875, 1.0
1000, -0.04151404151404151, -0.17094017094017094, -0.75, 1.0
1001, -0.17704517704517705, -0.5054945054945055, -0.84375, 1.0
1002, -0.031746031746031744, -0.6568986568986569, -0.9375, 1.0
1003, -0.5714285714285714, -0.43223443223443225, -1.03125, 1.0
1004, -1.1343101343101343, -0.3052503052503053, -1.0625, 1.0
1005, -1.3748473748473748, -0.30158730158730157, -1.125, 1.0
1006, -0.7643467643467643, -0.557997557997558, -1.0, 1.0
1007, -0.6043956043956044, -0.6959706959706959, -1.03125, 1.0
1008, -0.7997557997557998, -0.5860805860805861, -1.0625, 1.0
1009, -1.0927960927960927, -0.5152625152625152, -1.09375, 1.0
1010, -2.15018315018315, -0.22466422466422467, -1.0625, 1.0
1011, -2.0476190476190474, -0.1794871794871795, -0.875, 1.0
1012, -1.8376068376068375, -0.42246642246642246, -0.9375, 1.0
1013, -2.2686202686202686, -0.33455433455433453, -0.90625, 1.0
1014, -1.7521367521367521, -0.6666666666666666, -0.84375, 1.0
1015, -1.2283272283272284, -0.7924297924297924, -0.90625, 1.0
1016, -2.191697191697192, -0.34554334554334554, -0.875, 1.0
1017, -3.2612942612942613, -0.09645909645909646, -0.875, 1.0
1018, -3.324786324786325, -0.2796092796092796, -0.8125, 1.0
1019, -2.7216117216117217, -0.3797313797313797, -0.78125, 1.0
1020, -4.087912087912088, 0.5238095238095238, -0.65625, 1.0
1021, -5.63980463980464, 1.0927960927960927, -0.53125, 1.0
1022, -5.326007326007326, 0.5995115995115995, -0.40625, 1.0
1023, -4.142857142857143, 0.44932844932844934, -0.25, 1.0
1024, -3.249084249084249, 0.3504273504273504, -0.0625, 0.0
1025, -2.8547008547008548, 0.16117216117216118, 0.0625, 0.0
1026, -2.6764346764346763, -0.6373626373626373, 0.1875, 0.0
1027, -2.559218559218559, -0.18192918192918192, 0.3125, 0.0
1028, -1.8339438339438339, -0.09523809523809523, 0.40625, 0.0
1029, -1.1355311355311355, -0.6678876678876678, 0.40625, 0.0
1030, -0.778998778998779, -0.9401709401709402, 0.34375, 0.0
1031, -0.7411477411477412, -1.177045177045177, 0.28125, 0.0
1032, -1.006105006105006, -0.8485958485958486, 0.34375, 0.0
1033, -1.216117216117216, -0.3968253968253968, 0.34375, 0.0
1034, -1.5152625152625152, 0.2661782661782662, 0.40625, 0.0
1035, -1.4786324786324787, 0.6410256410256411, 0.5, 0.0
1036, -1.1941391941391941, 0.23076923076923078, 0.625, 0.0
1037, -1.1037851037851039, -0.231990231990232, 0.78125, 0.0
1038, -0.8766788766788767, -0.31868131868131866, 0.84375, 0.0
1039, -0.4004884004884005, -0.08058608058608059, 0.84375, 0.0
1040, -0.017094017094017096, -0.31746031746031744, 0.84375, 0.0
1041, -0.28205128205128205, -0.7606837606837606, 1.03125, 0.0
1042, -0.16971916971916973, -0.35653235653235654, 1.03125, 0.0
1043, -0.20512820512820512, -0.40293040293040294, 1.03125, 0.0
1044, 0.047619047619047616, -0.5164835164835165, 0.9375, 0.0
1045, 0.5543345543345544, -0.6642246642246642, 0.90625, 0.0
1046, 0.49572649572649574, -0.5921855921855922, 1.125, 0.0
1047, 0.6202686202686203, -0.46153846153846156, 1.28125, 0.0
1048, 0.3553113553113553, -0.32844932844932845, 1.28125, 0.0
1049, 0.5970695970695971, -0.6251526251526252, 1.28125, 0.0
1050, 1.225885225885226, -0.9584859584859585, 1.25, 0.0
1051, 1.3724053724053724, -0.9047619047619048, 1.28125, 0.0
1052, 1.1233211233211233, -0.6214896214896215, 1.3125, 0.0
1053, 1.5152625152625152, -0.7509157509157509, 1.40625, 0.0
1054, 1.6752136752136753, -0.8253968253968254, 1.34375, 0.0
1055, 1.424908424908425, -0.3663003663003663, 1.21875, 0.0
1056, 1.4725274725274726, -0.463980463980464, 1.09375, 0.0
1057, 2.021978021978022, -0.7875457875457875, 0.9375, 0.0
1058, 2.304029304029304, -0.7875457875457875, 0.78125, 0.0
1059, 2.1514041514041513, -0.4261294261294261, 0.5625, 0.0
1060, 1.6117216117216118, -0.35775335775335776, 0.4375, 0.0
1061, 1.8852258852258852, -0.46764346764346765, 0.625, 0.0
1062, 2.034188034188034, -0.5555555555555556, 0.59375, 0.0
1063, 1.2967032967032968, -0.21611721611721613, 0.40625, 0.0
1064, 1.225885225885226, -0.0989010989010989, 0.34375, 0.0
1065, 1.1721611721611722, -0.1916971916971917, 0.21875, 0.0
1066, 0.9206349206349206, -0.14407814407814407, 0.25, 0.0
1067, 0.8351648351648352, -0.06715506715506715, 0.15625, 0.0
1068, 1.0048840048840049, -0.11721611721611722, 0.125, 0.0
1069, 0.8522588522588522, -0.18315018315018314, -0.03125, 0.0
1070, 0.16361416361416362, 0.003663003663003663, -0.03125, 1.0
1071, 0.1514041514041514, -0.06715506715506715, 0.0, 1.0
1072, 0.5836385836385837, -0.03296703296703297, 0.0, 1.0
1073, 0.48717948717948717, -0.6898656898656899, -0.03125, 1.0
1074, 0.4725274725274725, -0.3614163614163614, -0.125, 1.0
1075, 0.4053724053724054, -0.1855921855921856, -0.1875, 1.0
1076, 0.18437118437118438, -0.14896214896214896, -0.21875, 1.0
1077, 0.2698412698412698, -0.24664224664224665, -0.34375, 1.0
1078, 0.21367521367521367, -0.18315018315018314, -0.4375, 1.0
1079, 0.019536019536019536, -0.16605616605616605, -0.375, 1.0
1080, 0.30158730158730157, -0.3540903540903541, -0.40625, 1.0
1081, 0.63003663003663, -0.4896214896214896, -0.5625, 1.0
1082, 0.8192918192918193, -0.5677655677655677, -0.625, 1.0
1083, 0.7838827838827839, -0.5641025641025641, -0.75, 1.0
1084, 0.02197802197802198, -0.20146520146520147, -0.8125, 1.0
1085, -0.5286935286935287, -0.042735042735042736, -0.875, 1.0
1086, -0.557997557997558, -0.02442002442002442, -0.90625, 1.0
1087, -0.8632478632478633, -0.08913308913308914, -0.9375, 1.0
1088, -0.9975579975579976, -0.39316239316239315, -0.96875, 1.0
1089, -0.9157509157509157, -0.2783882783882784, -0.96875, 1.0
1090, -1.358974358974359, -0.029304029304029304, -0.9375, 1.0
1091, -1.0940170940170941, 0.0989010989010989, -0.90625, 1.0
1092, -0.4126984126984127, -0.031746031746031744, -0.84375, 1.0
1093, -0.8400488400488401, -0.4835164835164835, -0.90625, 1.0
1094, -1.6031746031746033, -0.9365079365079365, -1.03125, 1.0
1095, -1.3907203907203907, -0.9206349206349206, -1.03125, 1.0
1096, -1.3992673992673992, -0.6532356532356532, -1.03125, 1.0
1097, -2.183150183150183, -0.21245421245421245, -1.0, 1.0
1098, -2.0366300366300365, -0.7985347985347986, -0.90625, 1.0
1099, -1.7179487179487178, -1.4261294261294262, -0.875, 1.0
1100, -1.525030525030525, -1.2796092796092795, -0.8125, 1.0
1101, -1.971916971916972, -0.9511599511599511, -0.875, 1.0
1102, -2.293040293040293, -0.2490842490842491, -0.875, 1.0
1103, -2.8754578754578755, 0.17704517704517705, -0.8125, 1.0
1104, -3.114774114774115, -0.16361416361416362, -0.75, 1.0
1105, -3.4652014652014653, -0.36874236874236876, -0.75, 1.0
1106, -4.113553113553113, 0.2148962148962149, -0.75, 1.0
1107, -4.327228327228327, 0.27594627594627597, -0.5, 1.0
1108, -3.36996336996337, -0.13186813186813187, -0.34375, 1.0
1109, -3.3443223443223444, 0.21733821733821734, -0.25, 1.0
1110, -3.404151404151404, 0.09523809523809523, -0.15625, 1.0
1111, -3.402930402930403, -0.6581196581196581, -0.09375, 1.0
1112, -2.8913308913308913, -1.3308913308913308, -0.0625, 0.0
1113, -2.5494505494505493, -0.6886446886446886, -0.03125, 0.0
1114, -2.409035409035409, -0.3785103785103785, 0.0625, 0.0
1115, -1.989010989010989, -0.03907203907203907, 0.15625, 0.0
1116, -1.4322344322344323, -0.34798534798534797, 0.21875, 0.0
1117, -1.656898656898657, -0.8693528693528694, 0.25, 0.0
1118, -2.0244200244200243, -0.7814407814407814, 0.25, 0.0
1119, -2.0024420024420024, -0.30036630036630035, 0.28125, 0.0
1120, -1.9536019536019535, -0.2893772893772894, 0.28125, 0.0
1121, -1.9633699633699633, -0.10989010989010989, 0.5, 0.0
1122, -1.6532356532356531, -0.336996336996337, 0.65625, 0.0
1123, -1.5555555555555556, -0.33577533577533575, 0.71875, 0.0
1124, -1.5604395604395604, -0.36385836385836384, 0.84375, 0.0
1125, -1.0866910866910866, 0.6544566544566545, 1.0, 0.0
1126, -0.9645909645909646, 0.5103785103785103, 1.03125, 0.0
1127, -0.6617826617826618, -0.25518925518925517, 1.09375, 0.0
1128, 0.23809523809523808, -1.225885225885226, 1.1875, 0.0
1129, 0.706959706959707, -1.4847374847374848, 1.09375, 0.0
1130, 0.4249084249084249, -0.9047619047619048, 0.9375, 0.0
1131, 0.21123321123321123, -0.7643467643467643, 0.96875, 0.0
1132, 0.3968253968253968, -0.833943833943834, 1.21875, 0.0
1133, 0.7411477411477412, -0.938949938949939, 1.25, 0.0
1134, 0.7741147741147741, -0.7582417582417582, 1.1875, 0.0
1135, 0.9426129426129426, -0.41514041514041516, 0.9375, 0.0
1136, 0.9316239316239316, -0.12698412698412698, 0.625, 0.0
1137, 1.0903540903540903, -0.6532356532356532, 0.625, 0.0
1138, 1.4786324786324787, -1.3333333333333333, 1.1875, 0.0
1139, 1.862026862026862, -1.2478632478632479, 1.15625, 0.0
1140, 1.3956043956043955, -0.47863247863247865, 1.0, 0.0
1141, 1.321123321123321, -0.612942612942613, 1.0, 0.0
1142, 2.2356532356532357, -1.4017094017094016, 1.0, 0.0
1143, 2.343101343101343, -1.3687423687423688, 0.9375, 0.0
1144, 2.061050061050061, -1.0488400488400489, 0.8125, 0.0
1145, 1.7814407814407816, -0.9230769230769231, 0.71875, 0.0
1146, 1.8083028083028083, -0.884004884004884, 0.6875, 0.0
1147, 1.8327228327228327, -0.7973137973137974, 0.59375, 0.0
1148, 1.9951159951159951, -0.9987789987789988, 0.5625, 0.0
1149, 1.551892551892552, -0.7631257631257631, 0.5, 0.0
1150, 1.2466422466422467, -0.7765567765567766, 0.40625, 0.0
1151, 1.5177045177045176, -0.4835164835164835, 0.3125, 0.0
1152, 1.4407814407814408, -0.32722832722832723, 0.15625, 0.0
1153, 0.8559218559218559, -0.1111111111111111, 0.0, 0.0
1154, 0.2844932844932845, -0.008547008547008548, -0.03125, 0.0
1155, 0.03418803418803419, 0.03907203907203907, -0.09375, 0.0
1156, -0.1575091575091575, 0.11477411477411477, -0.09375, 0.0
1157, -0.36874236874236876, 0.24297924297924298, -0.09375, 1.0
1158, -0.30036630036630035, -0.01221001221001221, -0.125, 1.0
1159, 0.14041514041514042, -0.9658119658119658, -0.15625, 1.0
1160, 0.02197802197802198, -0.49572649572649574, -0.1875, 1.0
1161, 0.0989010989010989, -0.31746031746031744, -0.15625, 1.0
1162, 0.31135531135531136, -0.2771672771672772, -0.25, 1.0
1163, 0.15873015873015872, -0.042735042735042736, -0.21875, 1.0
1164, 0.29426129426129427, -0.231990231990232, -0.1875, 1.0
1165, 0.8754578754578755, -0.7252747252747253, -0.25, 1.0
1166, 0.9462759462759462, -0.6642246642246642, -0.34375, 1.0
1167, 0.6068376068376068, -0.32844932844932845, -0.375, 1.0
1168, 0.6336996336996337, -0.221001221001221, -0.40625, 1.0
1169, 0.960927960927961, -0.4700854700854701, -0.40625, 1.0
1170, 1.3467643467643469, -1.0744810744810744, -0.59375, 1.0
1171, 0.746031746031746, -1.0866910866910866, -0.75, 1.0
1172, 0.14163614163614163, -0.6288156288156288, -0.84375, 1.0
1173, -0.38583638583638585, -0.3308913308913309, -0.84375, 1.0
1174, -0.22466422466422467, -0.47496947496947495, -0.875, 1.0
1175, -0.19291819291819293, -1.1428571428571428, -1.03125, 1.0
1176, -0.7277167277167277, -0.8058608058608059, -1.03125, 1.0
1177, -0.8925518925518926, -0.3540903540903541, -1.0625, 1.0
1178, -1.8315018315018314, -0.44078144078144077, -1.0625, 1.0
1179, -2.253968253968254, -0.7655677655677655, -1.0625, 1.0
1180, -1.503052503052503, -0.11843711843711843, -1.03125, 1.0
1181, -1.0976800976800978, -0.452991452991453, -0.96875, 1.0
1182, -1.7582417582417582, -0.7680097680097681, -1.0, 1.0
1183, -2.722832722832723, -0.07326007326007326, -0.9375, 1.0
1184, -2.498168498168498, -0.3992673992673993, -1.0, 1.0
1185, -2.7594627594627594, -0.06227106227106227, -0.9375, 1.0
1186, -1.4603174603174602, -0.796092796092796, -0.84375, 1.0
1187, 0.07692307692307693, -2.52014652014652, -1.0, 1.0
1188, -3.272283272283272, 0.42857142857142855, -1.0625, 1.0
1189, -2.382173382173382, -0.19536019536019536, -1.0, 1.0
1190, -3.0586080586080584, -0.6007326007326007, -0.96875, 1.0
1191, -4.536019536019536, 0.46886446886446886, -0.84375, 1.0
1192, -4.385836385836386, 0.7655677655677655, -0.6875, 1.0
1193, -3.7997557997557996, 0.3894993894993895, -0.53125, 1.0
1194, -2.5238095238095237, -0.6214896214896215, -0.34375, 1.0
1195, -2.6996336996337, -0.945054945054945, -0.34375, 1.0
1196, -3.312576312576313, -0.8217338217338217, -0.3125, 1.0
1197, -3.6117216117216118, -0.40415140415140416, -0.3125, 0.0
1198, -3.3150183150183152, -0.4810744810744811, -0.125, 0.0
1199, -3.1367521367521367, -1.2405372405372406, 0.03125, 0.0
1200, -2.9328449328449326, -0.6007326007326007, 0.1875, 0.0
1201, -3.017094017094017, 0.18803418803418803, 0.21875, 0.0
1202, -2.5995115995115996, -0.23687423687423687, 0.28125, 0.0
1203, -2.3785103785103785, -0.6691086691086691, 0.28125, 0.0
1204, -1.8278388278388278, -1.0805860805860805, 0.4375, 0.0
1205, -2.0976800976800978, -0.8815628815628815, 0.53125, 0.0
1206, -2.688644688644689, -0.48717948717948717, 0.625, 0.0
1207, -2.3003663003663, 0.019536019536019536, 0.65625, 0.0
1208, -1.7057387057387057, -0.21001221001221002, 0.625, 0.0
1209, -1.315018315018315, -0.5592185592185592, 0.59375, 0.0
1210, -1.0732600732600732, -0.663003663003663, 0.65625, 0.0
1211, -1.1794871794871795, -0.6984126984126984, 0.96875, 0.0
1212, -1.3345543345543345, -0.35653235653235654, 1.03125, 0.0
1213, -1.3357753357753357, -0.07081807081807082, 1.1875, 0.0
1214, -0.6581196581196581, -0.4065934065934066, 1.28125, 0.0
1215, -0.02442002442002442, -0.8144078144078144, 1.25, 0.0
1216, 0.4139194139194139, -1.017094017094017, 1.21875, 0.0
1217, 0.9865689865689866, -0.9523809523809523, 1.09375, 0.0
1218, 0.7692307692307693, -0.6752136752136753, 1.28125, 0.0
1219, 0.7741147741147741, -1.1123321123321124, 1.4375, 0.0
1220, 1.4493284493284493, -1.4774114774114775, 1.375, 0.0
1221, 2.0305250305250304, -1.531135531135531, 1.3125, 0.0
1222, 1.9975579975579976, -0.9023199023199023, 1.46875, 0.0
1223, 1.4786324786324787, -0.9157509157509157, 1.4375, 0.0
1224, 1.2356532356532357, -1.2454212454212454, 1.34375, 0.0
1225, 1.673992673992674, -0.8547008547008547, 1.15625, 0.0
1226, 1.8266178266178266, -0.8595848595848596, 1.03125, 0.0
1227, 1.9291819291819292, -1.1477411477411477, 0.875, 0.0
1228, 1.636141636141636, -0.945054945054945, 0.75, 0.0
1229, 1.3992673992673992, -0.6312576312576312, 0.625, 0.0
1230, 0.9792429792429792, -0.13675213675213677, 0.625, 0.0
1231, 0.684981684981685, 0.003663003663003663, 0.53125, 0.0
1232, 0.5714285714285714, -0.32112332112332115, 0.53125, 0.0
1233, 1.2625152625152625, -0.6703296703296703, 0.53125, 0.0
1234, 1.2722832722832722, -0.6568986568986569, 0.6875, 0.0
1235, 1.2857142857142858, -0.5982905982905983, 0.59375, 0.0
1236, 0.9157509157509157, -0.3076923076923077, 0.59375, 0.0
1237, 1.2185592185592184, -0.6007326007326007, 0.5625, 0.0
1238, 0.9365079365079365, -0.3992673992673993, 0.5, 0.0
1239, 0.7338217338217338, -0.16605616605616605, 0.40625, 0.0
1240, 0.7252747252747253, -0.18681318681318682, 0.3125, 0.0
1241, 0.6117216117216118, -0.25396825396825395, 0.21875, 0.0
1242, 0.43101343101343104, -0.3052503052503053, 0.09375, 0.0
1243, 0.42735042735042733, -0.23809523809523808, 0.0, 0.0
1244, 0.10012210012210013, -0.007326007326007326, -0.03125, 0.0
1245, -0.442002442002442, 0.2893772893772894, -0.09375, 1.0
1246, -0.9536019536019537, 0.45054945054945056, -0.125, 1.0
1247, -0.6263736263736264, -0.6471306471306472, -0.15625, 1.0
1248, -0.16117216117216118, -0.3504273504273504, -0.1875, 1.0
1249, 0.1746031746031746, -0.3724053724053724, -0.125, 1.0
1250, 0.2661782661782662, -0.47496947496947495, -0.21875, 1.0
1251, 0.06837606837606838, -0.3247863247863248, -0.3125, 1.0
1252, -0.031746031746031744, -0.23809523809523808, -0.34375, 1.0
1253, 0.28205128205128205, -0.3162393162393162, -0.34375, 1.0
1254, 0.5311355311355311, -0.4993894993894994, -0.375, 1.0
1255, 0.32234432234432236, -0.4053724053724054, -0.4375, 1.0
1256, 0.1794871794871795, -0.4371184371184371, -0.46875, 1.0
1257, 0.2771672771672772, -0.3553113553113553, -0.5, 1.0
1258, -0.06105006105006105, -0.33455433455433453, -0.625, 1.0
1259, -0.10744810744810745, -0.20024420024420025, -0.6875, 1.0
1260, -0.2442002442002442, -0.14407814407814407, -0.78125, 1.0
1261, -0.1684981684981685, -0.21733821733821734, -0.84375, 1.0
1262, -0.14041514041514042, 0.006105006105006105, -0.90625, 1.0
1263, 0.028083028083028084, -0.07081807081807082, -0.90625, 1.0
1264, 0.03663003663003663, -0.34065934065934067, -1.0, 1.0
1265, -0.2515262515262515, -0.3443223443223443, -1.0625, 1.0
1266, -0.5897435897435898, -0.3125763125763126, -1.09375, 1.0
1267, -0.9010989010989011, -0.29426129426129427, -1.03125, 1.0
1268, -0.9499389499389499, -0.13186813186813187, -1.0, 1.0
1269, -1.2197802197802199, 0.09523809523809523, -1.09375, 1.0
1270, -1.9255189255189256, 0.4590964590964591, -1.0, 1.0
1271, -1.5702075702075702, 0.0231990231990232, -0.9375, 1.0
1272, -1.0744810744810744, -0.47741147741147744, -0.90625, 1.0
1273, -0.9438339438339438, -0.757020757020757, -0.9375, 1.0
1274, -1.5628815628815629, -0.3125763125763126, -1.0, 1.0
1275, -2.733821733821734, 0.05616605616605617, -0.9375, 1.0
1276, -3.1758241758241756, -0.34676434676434675, -0.78125, 1.0
1277, -3.750915750915751, -0.2258852258852259, -0.6875, 1.0
1278, -3.0036630036630036, -0.684981684981685, -0.625, 1.0
1279, -2.4896214896214897, -0.5201465201465202, -0.625, 1.0
1280, -2.5006105006105006, -0.1623931623931624, -0.5, 1.0
1281, -2.7997557997557996, 0.3528693528693529, -0.46875, 1.0
1282, -3.255189255189255, 0.1343101343101343, -0.34375, 1.0
1283, -2.960927960927961, -0.052503052503052504, -0.28125, 1.0
1284, -2.929181929181929, -0.19413919413919414, -0.25, 0.0
1285, -3.399267399267399, -0.115995115995116, -0.15625, 0.0
1286, -3.1001221001221, -0.2588522588522589, 0.0, 0.0
1287, -2.6984126984126986, 0.19413919413919414, 0.03125, 0.0
1288, -2.746031746031746, 0.6214896214896215, 0.15625, 0.0
1289, -2.663003663003663, 0.04884004884004884, 0.15625, 0.0
1290, -2.324786324786325, -0.30036630036630035, 0.25, 0.0
1291, -2.0805860805860807, -0.5934065934065934, 0.3125, 0.0
1292, -1.945054945054945, -0.4627594627594628, 0.3125, 0.0
1293, -1.6654456654456655, -0.31746031746031744, 0.375, 0.0
1294, -1.5213675213675213, -0.442002442002442, 0.34375, 0.0
1295, -1.8962148962148961, -0.32112332112332115, 0.28125, 0.0
1296, -1.8253968253968254, -0.06837606837606838, 0.59375, 0.0
1297, -1.3113553113553114, -0.25274725274725274, 0.78125, 0.0
1298, -1.2393162393162394, -0.19536019536019536, 0.84375, 0.0
1299, -1.0024420024420024, -0.06349206349206349, 0.875, 0.0
1300, -1.054945054945055, -0.09401709401709402, 0.875, 0.0
1301, -0.9914529914529915, -0.28815628815628813, 1.09375, 0.0
1302, -0.49694749694749696, -0.36507936507936506, 1.3125, 0.0
1303, -0.1746031746031746, -0.2698412698412698, 1.375, 0.0
1304, 0.4004884004884005, -0.6874236874236874, 1.375, 0.0
1305, 0.8095238095238095, -1.4737484737484738, 1.21875, 0.0
1306, 1.0415140415140416, -1.844932844932845, 1.28125, 0.0
1307, 1.6153846153846154, -1.4163614163614164, 1.21875, 0.0
1308, 2.021978021978022, -1.0134310134310134, 1.125, 0.0
1309, 1.8742368742368742, -1.0427350427350428, 0.6875, 0.0
1310, 1.3015873015873016, -1.514041514041514, 0.8125, 0.0
1311, 1.413919413919414, -1.6825396825396826, 0.78125, 0.0
1312, 1.8693528693528694, -0.8278388278388278, 0.875, 0.0
1313, 2.4615384615384617, -0.39194139194139194, 0.78125, 0.0
1314, 2.0976800976800978, -0.40415140415140416, 0.59375, 0.0
1315, 1.6776556776556777, -1.028083028083028, 0.9375, 0.0
1316, 2.6031746031746033, -1.326007326007326, 0.9375, 0.0
1317, 2.7155067155067156, -0.9938949938949939, 0.84375, 0.0
1318, 2.1965811965811968, -0.5958485958485958, 0.78125, 0.0
1319, 2.0, -0.7997557997557998, 0.65625, 0.0
1320, 1.6373626373626373, -0.7326007326007326, 0.625, 0.0
1321, 1.4334554334554335, -0.4981684981684982, 0.59375, 0.0
1322, 1.6691086691086692, -0.43833943833943834, 0.53125, 0.0
1323, 1.8925518925518925, -0.6947496947496947, 0.375, 0.0
1324, 1.3821733821733821, -0.8778998778998779, 0.3125, 0.0
1325, 1.144078144078144, -0.7313797313797313, 0.28125, 0.0
1326, 1.1233211233211233, -0.5616605616605617, 0.1875, 0.0
1327, 0.989010989010989, -0.3418803418803419, 0.09375, 0.0
1328, 0.3956043956043956, -0.10866910866910867, 0.0, 0.0
1329, -0.03296703296703297, -0.09157509157509157, 0.0, 0.0
1330, -0.002442002442002442, -0.09401709401709402, 0.0, 0.0
1331, 0.002442002442002442, -0.03418803418803419, -0.0625, 1.0
1332, -0.014652014652014652, -0.19536019536019536, -0.09375, 1.0
1333, -0.09523809523809523, -0.17338217338217338, -0.03125, 1.0
1334, 0.19536019536019536, -0.4163614163614164, -0.03125, 1.0
1335, 0.13064713064713065, -0.004884004884004884, -0.0625, 1.0
1336, 0.18681318681318682, -0.04395604395604396, -0.125, 1.0
1337, 0.20634920634920634, 0.009768009768009768, -0.1875, 1.0
1338, 0.2087912087912088, -0.33943833943833945, -0.1875, 1.0
1339, 0.3052503052503053, -0.3626373626373626, -0.25, 1.0
1340, 0.08547008547008547, -0.003663003663003663, -0.3125, 1.0
1341, 0.04395604395604396, 0.01098901098901099, -0.3125, 1.0
1342, 0.24175824175824176, -0.19413919413919414, -0.25, 1.0
1343, 0.17338217338217338, -0.42735042735042733, -0.3125, 1.0
1344, -0.03296703296703297, -0.10866910866910867, -0.5, 1.0
1345, 0.05616605616605617, -0.17582417582417584, -0.53125, 1.0
1346, 0.39194139194139194, -0.3504273504273504, -0.53125, 1.0
1347, 0.33577533577533575, -0.21978021978021978, -0.59375, 1.0
1348, 0.13064713064713065, -0.13553113553113552, -0.625, 1.0
1349, -0.10256410256410256, -0.26373626373626374, -0.65625, 1.0
1350, -0.18803418803418803, -0.6251526251526252, -0.75, 1.0
1351, -0.27350427350427353, -0.4725274725274725, -0.875, 1.0
1352, -0.40293040293040294, -0.5372405372405372, -0.84375, 1.0
1353, -0.4236874236874237, -0.5177045177045178, -0.84375, 1.0
1354, -0.45665445665445664, -0.2698412698412698, -0.9375, 1.0
1355, -0.8131868131868132, -0.1855921855921856, -0.9375, 1.0
1356, -0.8266178266178266, -0.2661782661782662, -0.9375, 1.0
1357, -1.404151404151404, -0.4456654456654457, -1.03125, 1.0
1358, -2.0195360195360195, 0.12087912087912088, -1.09375, 1.0
1359, -1.7155067155067154, 0.2857142857142857, -1.0, 1.0
1360, -1.6507936507936507, -0.16117216117216118, -0.90625, 1.0
1361, -1.3858363858363858, -0.5775335775335775, -0.875, 1.0
1362, -1.9352869352869353, -0.26495726495726496, -0.9375, 1.0
1363, -2.4664224664224665, 0.2490842490842491, -0.84375, 1.0
1364, -2.1758241758241756, -0.2442002442002442, -0.78125, 1.0
1365, -1.5482295482295483, -1.0488400488400489, -0.78125, 1.0
1366, -1.713064713064713, -0.8705738705738706, -0.84375, 1.0
1367, -1.9853479853479854, -0.11721611721611722, -0.8125, 1.0
1368, -3.105006105006105, 0.06715506715506715, -0.75, 1.0
1369, -4.032967032967033, 0.15995115995115994, -0.59375, 1.0
1370, -3.956043956043956, 0.18437118437118438, -0.4375, 1.0
1371, -3.7594627594627594, 0.33821733821733824, -0.375, 1.0
1372, -4.3357753357753355, 0.5824175824175825, -0.375, 1.0
1373, -4.735042735042735, 0.49694749694749696, -0.21875, 0.0
1374, -3.785103785103785, -0.12698412698412698, -0.03125, 0.0
1375, -2.7252747252747254, -1.170940170940171, 0.09375, 0.0
1376, -2.8119658119658117, -0.1391941391941392, 0.1875, 0.0
1377, -2.821733821733822, 0.4297924297924298, 0.21875, 0.0
1378, -2.358974358974359, -0.030525030525030524, 0.21875, 0.0
1379, -2.2185592185592187, -0.46153846153846156, 0.34375, 0.0
1380, -1.778998778998779, -0.9768009768009768, 0.5, 0.0
1381, -1.901098901098901, -0.78998778998779, 0.5625, 0.0
1382, -1.8217338217338217, -0.31746031746031744, 0.5625, 0.0
1383, -1.1978021978021978, -0.21367521367521367, 0.5, 0.0
1384, -1.4713064713064714, -0.3418803418803419, 0.53125, 0.0
1385, -1.0940170940170941, -0.3418803418803419, 0.78125, 0.0
1386, -0.9645909645909646, -0.1391941391941392, 0.875, 0.0
1387, -1.2466422466422467, -0.07814407814407814, 0.9375, 0.0
1388, -1.1355311355311355, -0.3137973137973138, 0.84375, 0.0
1389, -0.4139194139194139, -0.8083028083028083, 1.03125, 0.0
1390, 0.2686202686202686, -0.967032967032967, 1.28125, 0.0
1391, -0.3907203907203907, -0.11721611721611722, 1.25, 0.0
1392, -0.09523809523809523, -0.10134310134310134, 1.21875, 0.0
1393, 0.9133089133089133, -0.8021978021978022, 0.9375, 0.0
1394, 1.0085470085470085, -0.9829059829059829, 0.6875, 0.0
1395, 1.10989010989011, -1.098901098901099, 1.09375, 0.0
1396, 1.8107448107448108, -0.960927960927961, 1.4375, 0.0
1397, 1.879120879120879, -0.960927960927961, 1.40625, 0.0
1398, 1.6544566544566544, -1.2942612942612943, 1.28125, 0.0
1399, 1.7545787545787546, -1.0671550671550671, 1.0625, 0.0
1400, 1.6312576312576312, -0.6153846153846154, 0.96875, 0.0
1401, 1.9877899877899878, -0.7948717948717948, 1.21875, 0.0
1402, 2.452991452991453, -1.0634920634920635, 1.15625, 0.0
1403, 2.6666666666666665, -1.0024420024420024, 1.03125, 0.0
1404, 1.9914529914529915, -0.8791208791208791, 0.8125, 0.0
1405, 1.967032967032967, -0.9865689865689866, 0.90625, 0.0
1406, 2.4884004884004884, -1.0634920634920635, 0.875, 0.0
1407, 2.241758241758242, -0.9865689865689866, 0.59375, 0.0
1408, 1.94993894993895, -0.8058608058608059, 0.5, 0.0
1409, 1.6813186813186813, -0.8046398046398047, 0.5, 0.0
1410, 1.557997557997558, -0.702075702075702, 0.375, 0.0
1411, 1.221001221001221, -0.4542124542124542, 0.28125, 0.0
1412, 1.0586080586080586, -0.2588522588522589, 0.21875, 0.0
1413, 1.1746031746031746, -0.4346764346764347, 0.21875, 0.0
1414, 1.1965811965811965, -0.5860805860805861, 0.125, 0.0
1415, 0.8302808302808303, -0.46642246642246643, 0.03125, 0.0
1416, 0.38583638583638585, -0.2515262515262515, 0.0, 0.0
1417, 0.2783882783882784, -0.1330891330891331, -0.09375, 0.0
1418, 0.3724053724053724, -0.28327228327228327, -0.125, 0.0
1419, 0.47985347985347987, -0.029304029304029304, -0.09375, 1.0
1420, 0.09035409035409035, 0.04395604395604396, -0.1875, 1.0
1421, 0.031746031746031744, 0.11477411477411477, -0.1875, 1.0
1422, -0.03540903540903541, -0.5653235653235653, -0.25, 1.0
1423, -0.17826617826617827, -0.6385836385836385, -0.25, 1.0
1424, 0.029304029304029304, -0.336996336996337, -0.21875, 1.0
1425, 0.1623931623931624, -0.23443223443223443, -0.21875, 1.0
1426, 0.028083028083028084, -0.030525030525030524, -0.3125, 1.0
1427, -0.17582417582417584, -0.004884004884004884, -0.34375, 1.0
1428, 0.0927960927960928, -0.21001221001221002, -0.3125, 1.0
1429, 0.6959706959706959, -0.2564102564102564, -0.40625, 1.0
1430, 0.8083028083028083, -0.4810744810744811, -0.46875, 1.0
1431, 0.8144078144078144, -0.7411477411477412, -0.5625, 1.0
1432, 0.46764346764346765, -0.3199023199023199, -0.65625, 1.0
1433, -0.05372405372405373, -0.22832722832722832, -0.65625, 1.0
1434, -0.2673992673992674, -0.5091575091575091, -0.75, 1.0
1435, -0.18437118437118438, -0.5286935286935287, -0.90625, 1.0
1436, -0.1684981684981685, -0.6825396825396826, -0.90625, 1.0
1437, -0.15873015873015872, -0.6691086691086691, -0.875, 1.0
1438, -0.5457875457875457, -0.3968253968253968, -0.96875, 1.0
1439, -0.873015873015873, -0.16483516483516483, -0.96875, 1.0
1440, -0.894993894993895, -0.23321123321123322, -0.9375, 1.0
1441, -1.2124542124542124, -0.35775335775335776, -0.96875, 1.0
1442, -1.4774114774114775, -0.15384615384615385, -0.96875, 1.0
1443, -1.0647130647130647, -0.5848595848595849, -0.875, 1.0
1444, -0.7252747252747253, -0.9658119658119658, -0.84375, 1.0
1445, -1.017094017094017, -0.702075702075702, -0.9375, 1.0
1446, -1.6874236874236874, -0.1221001221001221, -1.0625, 1.0
1447, -2.156288156288156, -0.01098901098901099, -1.09375, 1.0
1448, -2.664224664224664, 0.002442002442002442, -1.0, 1.0
1449, -2.8424908424908426, -0.03907203907203907, -0.875, 1.0
1450, -2.625152625152625, 0.0927960927960928, -0.8125, 1.0
1451, -2.912087912087912, -0.2954822954822955, -0.8125, 1.0
1452, -3.548229548229548, -0.0231990231990232, -0.65625, 1.0
1453, -3.275946275946276, -0.4004884004884005, -0.5, 1.0
1454, -2.8656898656898657, -0.5787545787545788, -0.34375, 1.0
1455, -2.5995115995115996, -0.5311355311355311, -0.40625, 1.0
1456, -3.0634920634920637, 0.1452991452991453, -0.375, 1.0
1457, -3.6715506715506714, 0.38705738705738707, -0.34375, 1.0
1458, -3.9108669108669107, 0.5115995115995116, -0.21875, 1.0
1459, -3.4932844932844933, 0.326007326007326, -0.0625, 0.0
1460, -2.923076923076923, -0.15873015873015872, 0.125, 0.0
1461, -2.7203907203907205, -0.3601953601953602, 0.15625, 0.0
1462, -2.8180708180708183, -0.050061050061050064, 0.1875, 0.0
1463, -2.6434676434676434, -0.0463980463980464, 0.25, 0.0
1464, -1.7435897435897436, -0.7655677655677655, 0.3125, 0.0
1465, -1.4810744810744811, -0.8864468864468864, 0.40625, 0.0
1466, -1.6874236874236874, -0.7130647130647131, 0.4375, 0.0
1467, -1.7594627594627594, -0.4346764346764347, 0.5, 0.0
1468, -1.5177045177045176, -0.2490842490842491, 0.5, 0.0
1469, -1.695970695970696, 0.21245421245421245, 0.5, 0.0
1470, -1.5067155067155067, 0.115995115995116, 0.5625, 0.0
1471, -1.0598290598290598, 0.0, 0.78125, 0.0
1472, -0.7484737484737485, -0.29181929181929184, 0.84375, 0.0
1473, -0.8595848595848596, -0.35775335775335776, 1.0, 0.0
1474, -0.26495726495726496, -0.6361416361416361, 1.0625, 0.0
1475, -0.047619047619047616, -0.41147741147741146, 1.09375, 0.0
1476, -0.014652014652014652, -0.32234432234432236, 1.21875, 0.0
1477, -0.04884004884004884, -0.5384615384615384, 1.21875, 0.0
1478, 0.09401709401709402, -0.6581196581196581, 1.125, 0.0
1479, 0.6214896214896215, -0.7875457875457875, 0.9375, 0.0
1480, 0.8290598290598291, -0.8583638583638583, 1.15625, 0.0
1481, 1.0915750915750915, -0.6349206349206349, 1.21875, 0.0
1482, 0.6239316239316239, -0.3443223443223443, 1.125, 0.0
1483, 0.9291819291819292, -0.3443223443223443, 1.03125, 0.0
1484, 1.6703296703296704, -0.9499389499389499, 0.9375, 0.0
1485, 1.9194139194139195, -1.2148962148962148, 1.1875, 0.0
1486, 1.6666666666666667, -1.0976800976800978, 1.1875, 0.0
1487, 1.358974358974359, -0.894993894993895, 1.0625, 0.0
1488, 1.8608058608058609, -1.0805860805860805, 0.78125, 0.0
1489, 2.1062271062271063, -0.9169719169719169, 0.625, 0.0
1490, 1.8656898656898657, -0.3724053724053724, 0.75, 0.0
1491, 1.835164835164835, -0.42246642246642246, 0.90625, 0.0
1492, 1.7032967032967032, -0.6068376068376068, 0.84375, 0.0
1493, 1.9548229548229548, -0.7655677655677655, 0.6875, 0.0
1494, 2.1794871794871793, -0.6813186813186813, 0.46875, 0.0
1495, 2.199023199023199, -0.6141636141636142, 0.40625, 0.0
1496, 2.1697191697191696, -0.7716727716727717, 0.4375, 0.0
1497, 1.8766788766788767, -0.7484737484737485, 0.375, 0.0
1498, 1.4212454212454213, -0.49694749694749696, 0.25, 0.0
1499, 1.2466422466422467, -0.3028083028083028, 0.21875, 0.0
1500, 1.1416361416361416, -0.2979242979242979, 0.15625, 0.0
1501, 0.8315018315018315, -0.13675213675213677, 0.0625, 0.0
1502, 0.3443223443223443, 0.04395604395604396, 0.0, 0.0
1503, 0.1282051282051282, 0.03540903540903541, 0.0, 0.0
1504, 0.27594627594627597, -0.115995115995116, 0.03125, 0.0
1505, 0.4468864468864469, -0.14163614163614163, 0.03125, 0.0
1506, 0.409035409035409, -0.31868131868131866, 0.0, 1.0
1507, 0.3076923076923077, -0.38461538461538464, -0.15625, 1.0
1508, 0.0927960927960928, 0.6166056166056166, -0.125, 1.0
1509, -0.24664224664224665, -0.09401709401709402, -0.1875, 1.0
1510, -0.2222222222222222, -0.08669108669108669, -0.15625, 1.0
1511, -0.05616605616605617, -0.3711843711843712, -0.21875, 1.0
1512, 0.028083028083028084, -0.4004884004884005, -0.28125, 1.0
1513, 0.15506715506715507, -0.36385836385836384, -0.3125, 1.0
1514, 0.34065934065934067, -0.31013431013431014, -0.375, 1.0
1515, 0.042735042735042736, -0.08424908424908426, -0.375, 1.0
1516, -0.15873015873015872, -0.08180708180708181, -0.34375, 1.0
1517, -0.1452991452991453, -0.3028083028083028, -0.46875, 1.0
1518, 0.006105006105006105, -0.22466422466422467, -0.5, 1.0
1519, 0.2771672771672772, -0.18681318681318682, -0.5, 1.0
1520, 0.2771672771672772, -0.19047619047619047, -0.5, 1.0
1521, 0.15873015873015872, -0.3089133089133089, -0.625, 1.0
1522, -0.29914529914529914, -0.34554334554334554, -0.75, 1.0
1523, -0.2222222222222222, -0.17338217338217338, -0.78125, 1.0
1524, -0.008547008547008548, -0.231990231990232, -0.875, 1.0
1525, -0.5641025641025641, -0.19658119658119658, -0.84375, 1.0
1526, -0.9206349206349206, -0.3052503052503053, -0.875, 1.0
1527, -0.9133089133089133, -0.15506715506715507, -0.90625, 1.0
1528, -0.724053724053724, -0.054945054945054944, -0.875, 1.0
1529, -0.8669108669108669, -0.14285714285714285, -0.84375, 1.0
1530, -1.564102564102564, 0.026862026862026864, -0.84375, 1.0
1531, -0.9938949938949939, -0.4249084249084249, -0.8125, 1.0
1532, -0.315018315018315, -0.8986568986568987, -0.84375, 1.0
1533, -0.9816849816849816, -0.5457875457875457, -0.9375, 1.0
1534, -2.0842490842490844, 0.03418803418803419, -0.96875, 1.0
1535, -1.7582417582417582, -0.12942612942612944, -0.90625, 1.0
1536, -1.4212454212454213, -0.4590964590964591, -0.90625, 1.0
1537, -1.459096459096459, -0.49206349206349204, -0.8125, 1.0
1538, -1.3540903540903542, -0.684981684981685, -0.75, 1.0
1539, -1.4945054945054945, -0.5372405372405372, -0.78125, 1.0
1540, -2.1684981684981683, -0.17094017094017094, -0.875, 1.0
1541, -2.076923076923077, 0.21855921855921856, -0.71875, 1.0
1542, -1.4554334554334554, -0.27594627594627597, -0.625, 1.0
1543, -1.277167277167277, -0.3614163614163614, -0.5625, 1.0
1544, -1.9413919413919414, -0.08424908424908426, -0.59375, 1.0
1545, -2.6910866910866913, 0.3333333333333333, -0.625, 1.0
1546, -3.358974358974359, 0.2869352869352869, -0.5, 1.0
1547, -3.3174603174603177, -0.2625152625152625, -0.375, 1.0
1548, -3.68009768009768, -0.42002442002442003, -0.25, 0.0
1549, -4.097680097680097, -0.10500610500610501, -0.125, 0.0
1550, -3.763125763125763, -0.33821733821733824, -0.0625, 0.0
1551, -3.2283272283272284, 0.13186813186813187, 0.0, 0.0
1552, -2.241758241758242, -0.08180708180708181, 0.15625, 0.0
1553, -1.9181929181929183, -0.2588522588522589, 0.28125, 0.0
1554, -1.9230769230769231, -0.2564102564102564, 0.375, 0.0
1555, -1.6825396825396826, -0.3907203907203907, 0.40625, 0.0
1556, -1.1782661782661783, -0.645909645909646, 0.4375, 0.0
1557, -0.9194139194139194, -0.6605616605616605, 0.4375, 0.0
1558, -0.7912087912087912, -0.5177045177045178, 0.46875, 0.0
1559, -0.8400488400488401, -0.39194139194139194, 0.59375, 0.0
1560, -1.0317460317460319, -0.37606837606837606, 0.75, 0.0
1561, -0.9047619047619048, -0.3516483516483517, 0.8125, 0.0
1562, -0.6251526251526252, -0.21001221001221002, 0.84375, 0.0
1563, -0.34798534798534797, -0.21733821733821734, 0.84375, 0.0
1564, 0.030525030525030524, -0.21611721611721613, 0.84375, 0.0
1565, 0.12454212454212454, -0.1684981684981685, 0.90625, 0.0
1566, 0.13797313797313798, -0.3626373626373626, 1.0, 0.0
1567, 0.33821733821733824, -0.5006105006105006, 1.0, 0.0
1568, 0.46764346764346765, -0.47985347985347987, 0.96875, 0.0
1569, 0.04151404151404151, -0.358974358974359, 1.0, 0.0
1570, 0.463980463980464, -0.5128205128205128, 1.15625, 0.0
1571, 0.9877899877899878, -0.7228327228327228, 1.21875, 0.0
1572, 0.6190476190476191, -0.6092796092796092, 1.125, 0.0
1573, 0.2893772893772894, -0.4700854700854701, 1.03125, 0.0
1574, 0.5531135531135531, -0.37606837606837606, 0.96875, 0.0
1575, 1.144078144078144, -0.5018315018315018, 1.1875, 0.0
1576, 1.5531135531135531, -0.5934065934065934, 1.15625, 0.0
1577, 1.1892551892551892, -0.33943833943833945, 1.28125, 0.0
1578, 1.503052503052503, -0.5506715506715507, 1.09375, 0.0
1579, 1.6251526251526252, -0.3992673992673993, 1.0625, 0.0
1580, 1.6422466422466422, -0.6800976800976801, 1.03125, 0.0
1581, 1.6654456654456655, -0.9487179487179487, 1.0, 0.0
1582, 2.0634920634920637, -0.9365079365079365, 0.875, 0.0
1583, 2.0183150183150182, -0.6813186813186813, 0.6875, 0.0
1584, 1.4615384615384615, -0.2515262515262515, 0.5625, 0.0
1585, 1.376068376068376, -0.05860805860805861, 0.59375, 0.0
1586, 1.6947496947496947, -0.503052503052503, 0.53125, 0.0
1587, 1.7765567765567765, -0.5836385836385837, 0.40625, 0.0
1588, 1.3076923076923077, -0.30158730158730157, 0.28125, 0.0
1589, 0.9694749694749695, -0.14407814407814407, 0.3125, 0.0
1590, 1.078144078144078, -0.2588522588522589, 0.28125, 0.0
1591, 1.0915750915750915, -0.33821733821733824, 0.21875, 0.0
1592, 0.8485958485958486, -0.12454212454212454, 0.125, 0.0
1593, 0.6947496947496947, -0.09035409035409035, 0.03125, 0.0
1594, 0.5714285714285714, -0.10622710622710622, 0.0, 0.0
1595, 0.49572649572649574, -0.28083028083028083, 0.03125, 0.0
1596, 0.18437118437118438, -0.14652014652014653, -0.0625, 1.0
1597, 0.07203907203907203, 0.23565323565323565, -0.125, 1.0
1598, 0.39194139194139194, -0.4554334554334554, -0.125, 1.0
1599, 0.3797313797313797, -0.39438339438339437, -0.21875, 1.0
1600, 0.02564102564102564, 0.05860805860805861, -0.25, 1.0
1601, 0.08547008547008547, 0.05372405372405373, -0.25, 1.0
1602, 0.25274725274725274, -0.20757020757020758, -0.3125, 1.0
1603, 0.1330891330891331, -0.5018315018315018, -0.375, 1.0
1604, 0.12942612942612944, -0.3772893772893773, -0.40625, 1.0
1605, 0.5628815628815629, -0.575091575091575, -0.46875, 1.0
1606, 0.3553113553113553, -0.6642246642246642, -0.625, 1.0
1607, -0.2148962148962149, -0.45665445665445664, -0.625, 1.0
1608, -0.6288156288156288, 0.06593406593406594, -0.5625, 1.0
1609, -0.49206349206349204, 0.20146520146520147, -0.5, 1.0
1610, -0.5848595848595849, -0.04884004884004884, -0.53125, 1.0
1611, -0.10256410256410256, -0.4896214896214896, -0.5, 1.0
1612, 0.7057387057387058, -0.9511599511599511, -0.5, 1.0
1613, 0.7741147741147741, -0.8986568986568987, -0.65625, 1.0
1614, 0.013431013431013432, -0.663003663003663, -0.6875, 1.0
1615, -0.6275946275946276, -0.40293040293040294, -0.78125, 1.0
1616, -1.1294261294261294, -0.3797313797313797, -0.75, 1.0
1617, -0.6874236874236874, -0.7985347985347986, -0.75, 1.0
1618, -0.17094017094017094, -1.0097680097680097, -0.90625, 1.0
1619, -0.8888888888888888, -0.6141636141636142, -0.9375, 1.0
1620, -1.1697191697191698, -0.315018315018315, -0.875, 1.0
1621, -0.9768009768009768, -0.2979242979242979, -1.0, 1.0
1622, -0.9951159951159951, -0.48595848595848595, -1.0625, 1.0
1623, -0.7557997557997558, -0.6642246642246642, -1.09375, 1.0
1624, -0.945054945054945, -0.8412698412698413, -1.21875, 1.0
1625, -1.1746031746031746, -0.5006105006105006, -1.21875, 1.0
1626, -2.341880341880342, 0.1978021978021978, -1.03125, 1.0
1627, -1.5177045177045176, 0.0, -0.96875, 1.0
1628, -2.1880341880341883, -0.8705738705738706, -1.0625, 1.0
1629, -3.583638583638584, -0.03296703296703297, -1.0625, 1.0
1630, -4.013431013431013, 0.3443223443223443, -0.96875, 1.0
1631, -3.5238095238095237, -0.3516483516483517, -0.78125, 1.0
1632, -3.7155067155067156, -0.115995115995116, -0.71875, 1.0
1633, -4.278388278388278, 0.5824175824175825, -0.65625, 1.0
1634, -4.0927960927960925, 0.15873015873015872, -0.5625, 1.0
1635, -4.431013431013431, 0.031746031746031744, -0.4375, 1.0
1636, -4.015873015873016, -0.21733821733821734, -0.15625, 1.0
1637, -3.617826617826618, -0.19291819291819293, -0.03125, 0.0
1638, -2.9865689865689866, -0.052503052503052504, 0.0625, 0.0
1639, -2.2063492063492065, -0.57997557997558, 0.03125, 0.0
1640, -2.3504273504273505, -0.5091575091575091, -0.03125, 0.0
1641, -2.2063492063492065, -0.3235653235653236, 0.1875, 0.0
1642, -1.6935286935286935, -0.7887667887667887, 0.28125, 0.0
1643, -1.304029304029304, -0.6971916971916972, 0.40625, 0.0
1644, -1.2124542124542124, -0.6398046398046398, 0.40625, 0.0
1645, -1.3797313797313797, -0.6507936507936508, 0.3125, 0.0
1646, -1.702075702075702, -0.304029304029304, 0.34375, 0.0
1647, -1.575091575091575, -0.33455433455433453, 0.5, 0.0
1648, -1.5946275946275947, -0.3785103785103785, 0.59375, 0.0
1649, -1.5677655677655677, -0.0927960927960928, 0.75, 0.0
1650, -1.231990231990232, -0.050061050061050064, 0.8125, 0.0
1651, -0.9365079365079365, -0.2576312576312576, 0.84375, 0.0
1652, -0.8253968253968254, -0.22466422466422467, 1.03125, 0.0
1653, -0.37484737484737485, -0.3235653235653236, 1.21875, 0.0
1654, 0.22832722832722832, -0.4163614163614164, 1.3125, 0.0
1655, 0.08547008547008547, -0.24297924297924298, 1.34375, 0.0
1656, 0.22954822954822954, -0.41147741147741146, 1.375, 0.0
1657, 0.5873015873015873, -1.037851037851038, 1.3125, 0.0
1658, 0.8803418803418803, -1.3076923076923077, 1.375, 0.0
1659, 1.0952380952380953, -0.9474969474969475, 1.3125, 0.0
1660, 1.2173382173382172, -0.5128205128205128, 1.3125, 0.0
1661, 1.4224664224664225, -0.5006105006105006, 1.21875, 0.0
1662, 1.534798534798535, -0.8632478632478633, 0.96875, 0.0
1663, 1.5677655677655677, -0.8681318681318682, 0.90625, 0.0
1664, 1.8302808302808302, -0.8803418803418803, 0.9375, 0.0
1665, 1.7643467643467643, -0.7753357753357754, 1.0, 0.0
1666, 1.8547008547008548, -0.9413919413919414, 0.875, 0.0
1667, 1.641025641025641, -0.9731379731379731, 0.71875, 0.0
1668, 1.1355311355311355, -0.6935286935286935, 0.71875, 0.0
1669, 0.9084249084249084, -0.4358974358974359, 0.8125, 0.0
1670, 1.4017094017094016, -0.7619047619047619, 0.78125, 0.0
1671, 1.844932844932845, -1.0366300366300367, 0.65625, 0.0
1672, 1.73992673992674, -1.0183150183150182, 0.40625, 0.0
1673, 1.2698412698412698, -0.6312576312576312, 0.34375, 0.0
1674, 0.8217338217338217, -0.18192918192918192, 0.5, 0.0
1675, 1.2148962148962148, -0.3504273504273504, 0.4375, 0.0
1676, 1.884004884004884, -0.778998778998779, 0.3125, 0.0
1677, 1.15995115995116, -0.5824175824175825, 0.09375, 0.0
1678, 0.6764346764346765, -0.3052503052503053, 0.03125, 0.0
1679, 0.2564102564102564, -0.0231990231990232, 0.03125, 0.0
1680, -0.06471306471306472, 0.08669108669108669, 0.0, 0.0
1681, 0.006105006105006105, 0.03296703296703297, 0.0, 0.0
1682, -0.05860805860805861, -0.5543345543345544, -0.0625, 1.0
1683, 0.12454212454212454, -0.7142857142857143, -0.09375, 1.0
1684, 0.10134310134310134, -0.2979242979242979, -0.0625, 1.0
1685, 0.004884004884004884, -0.08791208791208792, -0.03125, 1.0
1686, 0.08791208791208792, 0.09401709401709402, -0.09375, 1.0
1687, 0.0, 0.0, -0.125, 1.0
1688, 0.2148962148962149, -0.16727716727716727, -0.15625, 1.0
1689, 0.2857142857142857, -0.26373626373626374, -0.28125, 1.0
1690, 0.04151404151404151, -0.2148962148962149, -0.25, 1.0
1691, 0.0989010989010989, -0.0463980463980464, -0.25, 1.0
1692, 0.1282051282051282, 0.08547008547008547, -0.28125, 1.0
1693, 0.6202686202686203, -0.6019536019536019, -0.3125, 1.0
1694, 0.9291819291819292, -0.8876678876678876, -0.40625, 1.0
1695, 0.9731379731379731, -0.717948717948718, -0.46875, 1.0
1696, 0.1562881562881563, -0.0989010989010989, -0.59375, 1.0
1697, -0.22832722832722832, -0.06471306471306472, -0.5625, 1.0
1698, 0.001221001221001221, -0.38217338217338215, -0.5625, 1.0
1699, -0.017094017094017096, -0.5152625152625152, -0.65625, 1.0
1700, -0.21611721611721613, -0.11721611721611722, -0.53125, 1.0
1701, -0.14041514041514042, -0.3199023199023199, -0.625, 1.0
1702, -0.05372405372405373, -0.38583638583638585, -0.65625, 1.0
1703, -0.15018315018315018, -0.4297924297924298, -0.71875, 1.0
1704, -0.33821733821733824, -0.43223443223443225, -0.71875, 1.0
1705, -0.37484737484737485, -0.5067155067155067, -0.8125, 1.0
1706, -0.42246642246642246, -0.6202686202686203, -1.03125, 1.0
1707, -0.7851037851037851, -0.5518925518925519, -1.09375, 1.0
1708, -0.7802197802197802, -0.4346764346764347, -1.09375, 1.0
1709, -0.796092796092796, -0.1794871794871795, -1.15625, 1.0
1710, -1.9145299145299146, 0.36996336996337, -1.21875, 1.0
1711, -2.628815628815629, 0.7142857142857143, -1.25, 1.0
1712, -2.7094017094017095, 0.05982905982905983, -1.0625, 1.0
1713, -1.8815628815628815, -0.6446886446886447, -0.84375, 1.0
1714, -1.0647130647130647, -0.7728937728937729, -0.8125, 1.0
1715, -1.5372405372405373, -0.16727716727716727, -0.84375, 1.0
1716, -3.253968253968254, 0.5824175824175825, -0.8125, 1.0
1717, -3.0427350427350426, 0.040293040293040296, -0.6875, 1.0
1718, -1.94993894993895, -0.6984126984126984, -0.6875, 1.0
1719, -3.525030525030525, -0.15018315018315018, -0.625, 1.0
1720, -4.264957264957265, 0.4065934065934066, -0.4375, 1.0
1721, -2.5641025641025643, 0.05372405372405373, -0.40625, 1.0
1722, -2.3833943833943834, -0.07692307692307693, -0.40625, 1.0
1723, -2.8522588522588523, -0.1330891330891331, -0.34375, 1.0
1724, -2.9084249084249083, -0.6202686202686203, -0.34375, 0.0
1725, -3.227106227106227, -0.4261294261294261, -0.1875, 0.0
1726, -2.543345543345543, -0.21367521367521367, -0.0625, 0.0
1727, -2.659340659340659, 0.007326007326007326, 0.0625, 0.0
1728, -2.7142857142857144, -0.015873015873015872, 0.1875, 0.0
1729, -2.5653235653235655, -0.20024420024420025, 0.28125, 0.0
1730, -1.6617826617826619, -0.7350427350427351, 0.375, 0.0
1731, -1.52014652014652, -1.1660561660561661, 0.375, 0.0
1732, -1.7411477411477412, -0.684981684981685, 0.375, 0.0
1733, -1.673992673992674, -0.07814407814407814, 0.4375, 0.0
1734, -1.7777777777777777, 0.13553113553113552, 0.5, 0.0
1735, -1.4383394383394383, -0.1684981684981685, 0.59375, 0.0
1736, -1.2234432234432235, -0.2979242979242979, 0.71875, 0.0
1737, -1.5628815628815629, -0.2844932844932845, 0.90625, 0.0
1738, -1.623931623931624, -0.08547008547008547, 0.96875, 0.0
1739, -1.126984126984127, -0.040293040293040296, 1.0625, 0.0
1740, -0.28205128205128205, -0.11721611721611722, 1.09375, 0.0
1741, 0.3137973137973138, -0.43833943833943834, 1.1875, 0.0
1742, 0.221001221001221, -0.6727716727716728, 1.125, 0.0
1743, -0.21123321123321123, -0.45787545787545786, 1.1875, 0.0
1744, 0.0989010989010989, -0.2442002442002442, 1.28125, 0.0
1745, 0.778998778998779, -0.7216117216117216, 1.34375, 0.0
1746, 1.4346764346764347, -1.3992673992673992, 1.28125, 0.0
1747, 1.9133089133089134, -1.485958485958486, 1.15625, 0.0
1748, 1.5396825396825398, -0.7936507936507936, 1.125, 0.0
1749, 1.6178266178266179, -0.9206349206349206, 1.25, 0.0
1750, 1.9255189255189256, -1.15995115995116, 1.25, 0.0
1751, 2.230769230769231, -1.164835164835165, 1.15625, 0.0
1752, 2.341880341880342, -0.5006105006105006, 0.9375, 0.0
1753, 2.2454212454212454, -0.34676434676434675, 0.8125, 0.0
1754, 2.0634920634920637, -0.5152625152625152, 0.65625, 0.0
1755, 1.7118437118437118, -0.8021978021978022, 0.65625, 0.0
1756, 1.6422466422466422, -0.8205128205128205, 0.71875, 0.0
1757, 2.06959706959707, -0.938949938949939, 0.625, 0.0
1758, 2.017094017094017, -1.0231990231990231, 0.625, 0.0
1759, 1.9181929181929183, -0.7216117216117216, 0.53125, 0.0
1760, 1.448107448107448, -0.42124542124542125, 0.46875, 0.0
1761, 0.9255189255189256, -0.43833943833943834, 0.375, 0.0
1762, 1.0451770451770452, -0.6385836385836385, 0.28125, 0.0
1763, 0.9133089133089133, -0.47619047619047616, 0.3125, 0.0
1764, 0.8901098901098901, -0.25274725274725274, 0.28125, 0.0
1765, 0.6483516483516484, -0.24664224664224665, 0.21875, 0.0
1766, 0.4627594627594628, -0.3528693528693529, 0.09375, 0.0
1767, 0.35775335775335776, -0.3089133089133089, 0.03125, 0.0
1768, 0.06105006105006105, -0.07692307692307693, 0.0625, 0.0
1769, -0.1343101343101343, 0.2271062271062271, 0.03125, 0.0
1770, -0.17582417582417584, 0.21001221001221002, 0.0, 0.0
1771, -0.2686202686202686, -0.05860805860805861, -0.09375, 1.0
1772, -0.14896214896214896, -0.36752136752136755, -0.09375, 1.0
1773, 0.28815628815628813, 0.06105006105006105, -0.125, 1.0
1774, -0.1562881562881563, -0.21123321123321123, -0.1875, 1.0
1775, -0.2087912087912088, -0.2271062271062271, -0.21875, 1.0
1776, 0.06593406593406594, -0.1111111111111111, -0.21875, 1.0
1777, 0.231990231990232, -0.054945054945054944, -0.15625, 1.0
1778, 0.0, -0.04884004884004884, -0.1875, 1.0
1779, 0.199023199023199, -0.31746031746031744, -0.1875, 1.0
1780, 0.6837606837606838, -0.13064713064713065, -0.25, 1.0
1781, 0.4004884004884005, -0.21855921855921856, -0.3125, 1.0
1782, 0.1575091575091575, -0.13675213675213677, -0.375, 1.0
1783, 0.12332112332112333, -0.11721611721611722, -0.40625, 1.0
1784, -0.10500610500610501, -0.09401709401709402, -0.46875, 1.0
1785, 0.09645909645909646, -0.1221001221001221, -0.40625, 1.0
1786, 0.29181929181929184, -0.2600732600732601, -0.40625, 1.0
1787, 0.08547008547008547, -0.21611721611721613, -0.46875, 1.0
1788, -0.22344322344322345, -0.3663003663003663, -0.5625, 1.0
1789, -0.10256410256410256, -0.5531135531135531, -0.59375, 1.0
1790, 0.2588522588522589, -0.7338217338217338, -0.65625, 1.0
1791, 0.09523809523809523, -0.48717948717948717, -0.78125, 1.0
1792, -0.4554334554334554, -0.15506715506715507, -0.8125, 1.0
1793, -0.2661782661782662, -0.4346764346764347, -0.78125, 1.0
1794, -0.33943833943833945, -0.5714285714285714, -0.9375, 1.0
1795, -0.4188034188034188, -0.44932844932844934, -0.96875, 1.0
1796, -0.6678876678876678, -0.4004884004884005, -0.9375, 1.0
1797, -0.6800976800976801, -0.5958485958485958, -1.0, 1.0
1798, -0.6776556776556777, -0.5054945054945055, -1.0, 1.0
1799, -1.1233211233211233, -0.37606837606837606, -0.90625, 1.0
1800, -1.380952380952381, -0.7509157509157509, -0.78125, 1.0
1801, -1.0390720390720392, -1.231990231990232, -0.8125, 1.0
1802, -1.9242979242979243, -0.8376068376068376, -0.96875, 1.0
1803, -2.7838827838827838, 0.43956043956043955, -0.90625, 1.0
1804, -1.667887667887668, 0.057387057387057384, -0.84375, 1.0
1805, -1.1672771672771673, 0.06471306471306472, -0.84375, 1.0
1806, -1.844932844932845, 0.5103785103785103, -0.90625, 1.0
1807, -2.998778998778999, 0.6788766788766789, -1.03125, 1.0
1808, -3.7704517704517704, 0.4444444444444444, -1.0, 1.0
1809, -3.658119658119658, 0.33943833943833945, -0.65625, 1.0
1810, -2.111111111111111, -0.25518925518925517, -0.53125, 1.0
1811, -2.8547008547008548, 0.5042735042735043, -0.53125, 1.0
1812, -3.5811965811965814, 0.7619047619047619, -0.46875, 1.0
1813, -3.4078144078144077, 0.6056166056166056, -0.40625, 1.0
1814, -3.426129426129426, 0.14163614163614163, -0.28125, 1.0
1815, -2.9743589743589745, -0.9487179487179487, -0.15625, 0.0
1816, -2.6654456654456653, -1.2136752136752136, -0.09375, 0.0
1817, -3.06959706959707, -1.2075702075702075, -0.0625, 0.0
1818, -3.5396825396825395, -0.16361416361416362, 0.0, 0.0
1819, -2.4358974358974357, 0.6996336996336996, 0.125, 0.0
1820, -1.8058608058608059, -0.042735042735042736, 0.09375, 0.0
1821, -1.6727716727716728, -0.6727716727716728, 0.125, 0.0
1822, -0.9401709401709402, -0.8583638583638583, 0.21875, 0.0
1823, -1.407814407814408, 0.221001221001221, 0.3125, 0.0
1824, -2.3687423687423688, 0.38217338217338215, 0.375, 0.0
1825, -2.4652014652014653, 0.8571428571428571, 0.4375, 0.0
1826, -1.783882783882784, 1.0769230769230769, 0.5, 0.0
1827, -0.9902319902319903, 0.7948717948717948, 0.84375, 0.0
1828, -0.12942612942612944, 0.0, 1.09375, 0.0
1829, -0.6971916971916972, -0.3028083028083028, 1.0625, 0.0
1830, -0.811965811965812, -0.3492063492063492, 1.0625, 0.0
1831, -0.2661782661782662, -0.5384615384615384, 0.90625, 0.0
1832, 0.18192918192918192, -1.1123321123321124, 1.21875, 0.0
1833, -0.01221001221001221, -0.9426129426129426, 1.375, 0.0
1834, -0.7606837606837606, -0.7191697191697192, 1.375, 0.0
1835, 0.927960927960928, -1.5152625152625152, 1.4375, 0.0
1836, 2.3394383394383396, -1.8534798534798536, 1.125, 0.0
1837, 1.706959706959707, -1.1001221001221002, 0.6875, 0.0
1838, 0.8644688644688645, -0.4065934065934066, 0.4375, 0.0
1839, 0.31746031746031744, -0.5262515262515263, 0.6875, 0.0
1840, 0.9938949938949939, -1.4322344322344323, 1.3125, 0.0
1841, 0.48717948717948717, -1.1111111111111112, 1.1875, 0.0
1842, 0.24053724053724054, -0.3540903540903541, 1.21875, 0.0
1843, 1.3724053724053724, -0.43956043956043955, 1.1875, 0.0
1844, 1.6691086691086692, -1.05006105006105, 1.0, 0.0
1845, 1.84004884004884, -1.652014652014652, 1.0625, 0.0
1846, 2.221001221001221, -1.7692307692307692, 1.0, 0.0
1847, 2.393162393162393, -1.3028083028083028, 0.875, 0.0
1848, 2.2673992673992673, -0.9072039072039072, 0.65625, 0.0
1849, 1.9682539682539681, -0.5164835164835165, 0.625, 0.0
1850, 1.8754578754578755, -0.684981684981685, 0.75, 0.0
1851, 1.7423687423687424, -0.8266178266178266, 0.6875, 0.0
1852, 1.6251526251526252, -0.7301587301587301, 0.5625, 0.0
1853, 2.001221001221001, -0.5018315018315018, 0.5, 0.0
1854, 1.8974358974358974, -0.41147741147741146, 0.40625, 0.0
1855, 1.3443223443223444, -0.398046398046398, 0.375, 0.0
1856, 1.0427350427350428, -0.3308913308913309, 0.25, 0.0
1857, 1.0158730158730158, -0.16605616605616605, 0.1875, 0.0
1858, 1.0097680097680097, -0.1343101343101343, 0.09375, 0.0
1859, 0.39194139194139194, -0.11721611721611722, 0.03125, 0.0
1860, -0.09157509157509157, -0.11477411477411477, 0.0, 0.0
1861, -0.02197802197802198, -0.1916971916971917, 0.03125, 1.0
1862, 0.029304029304029304, -0.015873015873015872, 0.0, 1.0
1863, 0.045177045177045176, 0.22466422466422467, 0.0, 1.0
1864, 0.398046398046398, -0.36874236874236876, 0.0, 1.0
1865, 0.5543345543345544, -0.9047619047619048, -0.0625, 1.0
1866, 0.0695970695970696, -0.5934065934065934, -0.1875, 1.0
1867, -0.29426129426129427, -0.07448107448107448, -0.25, 1.0
1868, -0.06227106227106227, 0.002442002442002442, -0.15625, 1.0
1869, 0.724053724053724, -0.12087912087912088, -0.15625, 1.0
1870, 0.6984126984126984, -0.2625152625152625, -0.3125, 1.0
1871, -0.14163614163614163, -0.10866910866910867, -0.34375, 1.0
1872, 1.1416361416361416, -0.7728937728937729, -0.28125, 1.0
1873, 1.4676434676434675, -0.9499389499389499, -0.34375, 1.0
1874, 0.4065934065934066, -0.28327228327228327, -0.46875, 1.0
1875, -0.3418803418803419, 0.2844932844932845, -0.5, 1.0
1876, 0.24664224664224665, -0.29304029304029305, -0.53125, 1.0
1877, 0.7106227106227107, -1.1147741147741148, -0.65625, 1.0
1878, 0.25396825396825395, -0.8315018315018315, -0.71875, 1.0
1879, -0.4468864468864469, -0.42246642246642246, -0.78125, 1.0
1880, -0.42857142857142855, -0.4346764346764347, -0.75, 1.0
1881, -0.08302808302808302, -0.7350427350427351, -0.75, 1.0
1882, 0.16605616605616605, -0.8791208791208791, -0.8125, 1.0
1883, -0.3528693528693529, -0.8669108669108669, -0.90625, 1.0
1884, -0.73992673992674, -0.7948717948717948, -0.90625, 1.0
1885, -1.4407814407814408, -0.24053724053724054, -1.0, 1.0
1886, -1.5262515262515262, 0.15873015873015872, -1.0, 1.0
1887, -1.4493284493284493, -0.25274725274725274, -1.0625, 1.0
1888, -1.4932844932844933, -0.6141636141636142, -1.0625, 1.0
1889, -1.9645909645909645, -0.3064713064713065, -1.03125, 1.0
1890, -2.421245421245421, -0.22466422466422467, -1.0, 1.0
1891, -2.744810744810745, -0.2979242979242979, -0.9375, 1.0
1892, -2.509157509157509, -0.5873015873015873, -0.8125, 1.0
1893, -2.1257631257631258, -0.6959706959706959, -0.71875, 1.0
1894, -2.4334554334554332, -0.5054945054945055, -0.75, 1.0
1895, -2.363858363858364, -0.02442002442002442, -0.625, 1.0
1896, -3.2234432234432235, 0.5531135531135531, -0.5625, 1.0
1897, -2.6117216117216118, -0.3064713064713065, -0.5, 1.0
1898, -2.1648351648351647, -0.8070818070818071, -0.53125, 1.0
1899, -3.029304029304029, -0.26495726495726496, -0.46875, 1.0
1900, -3.501831501831502, 0.019536019536019536, -0.4375, 1.0
1901, -3.6776556776556775, -0.25518925518925517, -0.3125, 1.0
1902, -3.542124542124542, -0.6068376068376068, -0.1875, 0.0
1903, -3.688644688644689, -0.5982905982905983, -0.0625, 0.0
1904, -3.3443223443223444, -1.0402930402930404, 0.0, 0.0
1905, -2.398046398046398, -0.442002442002442, 0.0625, 0.0
1906, -2.7032967032967035, 0.22466422466422467, 0.0625, 0.0
1907, -3.2564102564102564, 0.38095238095238093, 0.125, 0.0
1908, -2.6043956043956045, -0.21367521367521367, 0.28125, 0.0
1909, -1.8876678876678876, -0.575091575091575, 0.375, 0.0
1910, -1.8656898656898657, -0.5433455433455433, 0.46875, 0.0
1911, -1.9804639804639805, -0.6727716727716728, 0.34375, 0.0
1912, -2.064713064713065, -0.5396825396825397, 0.40625, 0.0
1913, -1.5494505494505495, -0.45787545787545786, 0.59375, 0.0
1914, -1.1721611721611722, -0.7765567765567766, 0.65625, 0.0
1915, -0.796092796092796, -0.9768009768009768, 0.625, 0.0
1916, -0.7948717948717948, -1.010989010989011, 0.46875, 0.0
1917, -1.4542124542124542, -0.19291819291819293, 0.65625, 0.0
1918, -0.9255189255189256, 0.13675213675213677, 1.03125, 0.0
1919, -0.15506715506715507, -0.12698412698412698, 1.09375, 0.0
1920, 0.4652014652014652, -0.6923076923076923, 1.0625, 0.0
1921, 0.514041514041514, -0.9755799755799756, 1.0, 0.0
1922, 0.6336996336996337, -0.5848595848595849, 1.25, 0.0
1923, 0.568986568986569, -0.5518925518925519, 1.28125, 0.0
1924, 0.29426129426129427, -0.5555555555555556, 1.28125, 0.0
1925, -0.03663003663003663, -0.46764346764346765, 1.28125, 0.0
1926, 0.5836385836385837, -0.7350427350427351, 1.53125, 0.0
1927, 1.6398046398046398, -1.1367521367521367, 1.5, 0.0
1928, 1.7521367521367521, -1.1257631257631258, 1.5, 0.0
1929, 1.956043956043956, -0.8754578754578755, 1.34375, 0.0
1930, 2.0671550671550674, -0.6935286935286935, 1.125, 0.0
1931, 1.7704517704517704, -0.5115995115995116, 0.9375, 0.0
1932, 1.7826617826617828, -0.7802197802197802, 0.875, 0.0
1933, 1.9706959706959708, -0.8754578754578755, 0.78125, 0.0
1934, 1.503052503052503, -0.967032967032967, 0.59375, 0.0
1935, 1.4993894993894994, -0.9413919413919414, 0.53125, 0.0
1936, 1.855921855921856, -0.9206349206349206, 0.40625, 0.0
1937, 2.1587301587301586, -0.7338217338217338, 0.25, 0.0
1938, 2.0415140415140414, -0.4725274725274725, 0.1875, 0.0
1939, 1.431013431013431, -0.2454212454212454, 0.25, 0.0
1940, 1.6764346764346765, -0.4297924297924298, 0.3125, 0.0
1941, 1.7045177045177045, -0.41514041514041516, 0.21875, 0.0
1942, 1.6446886446886446, -0.39316239316239315, 0.1875, 0.0
1943, 1.3186813186813187, -0.1575091575091575, 0.09375, 0.0
1944, 1.2515262515262515, -0.3894993894993895, 0.15625, 0.0
1945, 0.7948717948717948, -0.33577533577533575, 0.0625, 0.0
1946, 0.3089133089133089, -0.13064713064713065, 0.0, 0.0
1947, 0.11477411477411477, -0.045177045177045176, 0.0, 0.0
1948, 0.3418803418803419, -0.05372405372405373, 0.0, 1.0
1949, 0.5335775335775336, -0.4188034188034188, -0.03125, 1.0
1950, 0.26373626373626374, -0.13553113553113552, -0.03125, 1.0
1951, 0.33577533577533575, -0.16483516483516483, -0.1875, 1.0
1952, 0.02197802197802198, -0.03907203907203907, -0.34375, 1.0
1953, -0.4053724053724054, 0.21245421245421245, -0.375, 1.0
1954, -0.28083028083028083, -0.08058608058608059, -0.3125, 1.0
1955, 0.10012210012210013, -0.2686202686202686, -0.3125, 1.0
1956, 0.18925518925518925, -0.30036630036630035, -0.375, 1.0
1957, 0.07203907203907203, -0.12087912087912088, -0.4375, 1.0
1958, 0.26495726495726496, -0.22954822954822954, -0.4375, 1.0
1959, 0.5592185592185592, -0.40415140415140416, -0.4375, 1.0
1960, 0.4468864468864469, -0.536019536019536, -0.59375, 1.0
1961, 0.19536019536019536, -0.47863247863247865, -0.59375, 1.0
1962, 0.045177045177045176, -0.13553113553113552, -0.65625, 1.0
1963, -0.16971916971916973, 0.08424908424908426, -0.6875, 1.0
1964, -0.07326007326007326, -0.2844932844932845, -0.71875, 1.0
1965, -0.3028083028083028, -0.3418803418803419, -0.75, 1.0
1966, -0.6166056166056166, -0.27472527472527475, -0.84375, 1.0
1967, -0.5335775335775336, -0.2564102564102564, -0.875, 1.0
1968, -0.6385836385836385, -0.23321123321123322, -0.84375, 1.0
1969, -0.7704517704517705, -0.3492063492063492, -0.90625, 1.0
1970, -1.2515262515262515, -0.7142857142857143, -1.0625, 1.0
1971, -1.4493284493284493, -0.442002442002442, -1.03125, 1.0
1972, -0.978021978021978, -0.5152625152625152, -0.9375, 1.0
1973, -1.1452991452991452, -0.39438339438339437, -1.03125, 1.0
1974, -1.6214896214896215, -0.34798534798534797, -1.03125, 1.0
1975, -2.242979242979243, -0.38217338217338215, -0.96875, 1.0
1976, -2.590964590964591, -0.1623931623931624, -0.96875, 1.0
1977, -1.706959706959707, -0.6813186813186813, -0.78125, 1.0
1978, -1.1855921855921856, -1.216117216117216, -0.71875, 1.0
1979, -1.612942612942613, -0.7802197802197802, -0.75, 1.0
1980, -2.5775335775335777, 0.0, -0.78125, 1.0
1981, -3.0134310134310134, -0.013431013431013432, -0.71875, 1.0
1982, -3.4615384615384617, -0.22954822954822954, -0.59375, 1.0
1983, -3.5164835164835164, -0.05128205128205128, -0.5625, 1.0
1984, -3.525030525030525, 0.2661782661782662, -0.53125, 1.0
1985, -3.8461538461538463, 0.442002442002442, -0.46875, 1.0
1986, -3.6727716727716726, 0.34065934065934067, -0.34375, 1.0
1987, -3.3382173382173383, -0.2588522588522589, -0.25, 1.0
1988, -3.3492063492063493, -0.5848595848595849, -0.1875, 0.0
1989, -3.8302808302808304, -0.49206349206349204, -0.125, 0.0
1990, -3.2625152625152625, -1.0354090354090355, 0.0625, 0.0
1991, -2.354090354090354, -0.2967032967032967, 0.1875, 0.0
1992, -2.3162393162393164, 0.14652014652014653, 0.34375, 0.0
1993, -2.103785103785104, -0.057387057387057384, 0.40625, 0.0
1994, -2.0415140415140414, -0.14407814407814407, 0.40625, 0.0
1995, -1.6971916971916972, -0.4896214896214896, 0.4375, 0.0
1996, -1.3919413919413919, -0.32112332112332115, 0.5, 0.0
1997, -1.1807081807081807, -0.3321123321123321, 0.71875, 0.0
1998, -0.7692307692307693, -0.568986568986569, 0.8125, 0.0
1999, -0.8046398046398047, -0.6275946275946276, 0.8125, 0.0
2000, -0.5763125763125763, -0.32967032967032966, 0.78125, 0.0
2001, -0.16971916971916973, 0.12576312576312576, 0.65625, 0.0
2002, -0.5848595848595849, 0.01221001221001221, 0.75, 0.0
2003, -0.5470085470085471, -0.6947496947496947, 1.0625, 0.0
2004, 0.10378510378510379, -1.249084249084249, 1.15625, 0.0
2005, 0.2771672771672772, -0.6910866910866911, 1.125, 0.0
