timestamp, accX, accY, accZ, gyroX, gyroY, gyroZ, button
824757, 0.323, -0.169, 0.055, 0.119, 0.299, 0.02, 1
824777, 0.046, -0.082, -0.003, 0.113, 0.266, 0.004, 1
824797, -0.027, 0.044, 0.066, 0.158, 0.317, -0.02, 1
824817, -0.081, 0.228, 0.155, 0.285, 0.429, -0.054, 1
824837, -0.106, 0.46, 0.312, 0.556, 0.631, -0.219, 1
824857, -0.301, 0.527, 0.455, 0.94, 0.985, -0.632, 1
824877, 0.457, 0.315, 0.215, 1.295, 1.078, -1.076, 1
824897, 0.612, -0.308, -0.407, 1.247, 0.691, -1.232, 1
824917, 0.019, -0.345, -0.971, 1.025, 0.257, -1.104, 1
824937, -0.855, 0.219, -1.04, 0.857, 0.125, -0.833, 1
824957, -1.169, 0.194, -1.276, 0.808, 0.182, -0.667, 1
824977, -1.206, 0.065, -1.262, 0.645, 0.237, -0.504, 1
824997, -1.232, 0.112, -1.072, 0.451, 0.276, -0.275, 1
825017, -0.929, -0.012, -0.917, 0.189, 0.163, -0.045, 1
825037, -0.593, 0.051, -0.727, -0.006, -0.043, 0.095, 1
825057, -0.362, 0.022, -0.493, -0.152, -0.238, 0.128, 1
825077, -0.195, -0.017, -0.427, -0.232, -0.45, 0.091, 1
825097, -0.55, -0.01, -0.249, -0.29, -0.458, 0.106, 1
825117, -0.459, -0.069, -0.215, -0.316, -0.315, 0.156, 1
825137, -0.311, -0.154, -0.195, -0.312, -0.153, 0.184, 1
825157, -0.02, -0.094, -0.122, -0.254, -0.069, 0.223, 1
825177, 0.173, -0.382, -0.286, -0.227, -0.108, 0.196, 1
825197, 0.088, -0.313, -0.353, -0.275, -0.179, 0.108, 1
825217, -0.085, -0.251, -0.403, -0.371, -0.277, 0.179, 1
825237, -0.432, -0.109, -0.194, -0.474, -0.229, 0.298, 1
825257, 0.038, -0.177, -0.115, -0.435, 0.029, 0.326, 1
825277, 0.325, -0.157, 0.002, -0.45, 0.083, 0.381, 1
825297, 0.304, -0.05, 0.068, -0.45, -0.011, 0.41, 1
825317, 0.3, -0.15, -0.014, -0.411, -0.058, 0.386, 1
825337, 0.257, -0.421, -0.238, -0.422, -0.131, 0.3, 1
825357, -0.017, -0.219, -0.218, -0.534, -0.142, 0.278, 1
825377, 0.001, 0.06, 0.058, -0.502, -0.004, 0.301, 1
825397, 0.332, -0.058, 0.127, -0.372, 0.109, 0.316, 1
825417, 0.47, -0.254, 0.169, -0.302, 0.044, 0.325, 1
825437, 0.48, -0.438, -0.024, -0.307, -0.063, 0.262, 1
825457, 0.175, -0.252, -0.053, -0.338, -0.136, 0.197, 1
825477, 0.09, -0.034, 0.055, -0.272, -0.076, 0.146, 1
825497, 0.175, -0.102, 0.073, -0.196, -0.032, 0.122, 1
825517, 0.185, -0.173, 0.085, -0.163, -0.075, 0.126, 1
825537, 0.169, -0.27, -0.052, -0.167, -0.104, 0.112, 1
825557, 0.047, -0.391, -0.173, -0.228, -0.103, 0.006, 1
825577, -0.028, -0.091, -0.09, -0.265, -0.07, -0.018, 1
825597, -0.003, 0.059, 0.093, -0.191, -0.082, -0.004, 1
825617, 0.093, 0.069, 0.022, -0.104, -0.185, -0.025, 1
825637, 0.062, -0.125, -0.193, -0.153, -0.284, -0.053, 1
825657, -0.242, -0.182, -0.488, -0.248, -0.237, -0.1, 1
825677, -0.3, -0.05, -0.487, -0.332, -0.168, -0.069, 1
825697, -0.36, 0.081, -0.39, -0.316, -0.133, -0.019, 1
825717, -0.302, -0.003, -0.324, -0.254, -0.142, 0.011, 1
825737, -0.329, -0.363, -0.5, -0.293, -0.128, 0.02, 1
825757, -0.353, -0.322, -0.583, -0.386, -0.04, 0.034, 1
825777, -0.034, -0.243, -0.451, -0.461, -0.084, 0.076, 1
825797, 0.018, -0.129, -0.231, -0.441, -0.166, 0.053, 1
825817, -0.041, -0.208, -0.234, -0.411, -0.24, 0.059, 1
825837, -0.002, -0.495, -0.369, -0.488, -0.329, 0.095, 1
825857, -0.028, -0.413, -0.455, -0.568, -0.343, 0.07, 1
825877, -0.137, -0.268, -0.346, -0.58, -0.226, 0.048, 1
825897, 0.052, -0.177, -0.131, -0.532, -0.219, 0.13, 1
825917, 0.203, -0.356, 0.014, -0.569, -0.285, 0.181, 1
825937, 0.346, -0.351, 0.061, -0.608, -0.332, 0.2, 1
825957, 0.185, -0.155, 0.031, -0.536, -0.321, 0.215, 1
825977, 0.103, -0.349, -0.011, -0.484, -0.232, 0.253, 1
825997, 0.205, -0.431, -0.138, -0.453, -0.103, 0.255, 1
826017, 0.414, -0.379, -0.06, -0.454, -0.054, 0.279, 1
826037, 0.419, -0.307, 0.131, -0.41, -0.058, 0.276, 1
826057, 0.464, -0.313, 0.161, -0.36, -0.129, 0.244, 1
826077, 0.342, -0.532, 0.033, -0.446, -0.19, 0.215, 1
826097, 0.202, -0.2, 0.241, -0.471, -0.189, 0.176, 1
826117, 0.121, -0.108, 0.283, -0.38, -0.189, 0.167, 1
826137, 0.157, -0.267, 0.23, -0.324, -0.18, 0.176, 1
826157, 0.188, -0.239, 0.286, -0.307, -0.192, 0.176, 1
826177, 0.189, -0.357, 0.199, -0.257, -0.211, 0.138, 1
826197, 0.174, -0.428, 0.186, -0.33, -0.175, 0.105, 1
826217, 0.147, -0.37, 0.279, -0.435, -0.164, 0.061, 1
826237, -0.023, 0.155, 0.571, -0.239, -0.118, 0.032, 1
826257, 0.01, -0.346, 0.746, 0.038, -0.008, 0.023, 1
826277, 0.151, -0.863, 0.525, -0.026, 0.149, 0.054, 0
826297, -0.223, -0.201, 0.216, -0.24, 0.309, -0.028, 0
826317, -0.295, 0.704, 1.484, 0.073, 0.507, -0.171, 0
826337, -0.182, 0.599, 2.423, 0.461, 0.803, 0.096, 0
826357, 0.828, -0.543, 2.171, 0.756, 1.211, 0.626, 0
826377, 2.877, -1.223, 1.586, 0.647, 1.121, 0.947, 0
826397, 2.34, 0.507, 0.976, 0.47, 0.801, 0.85, 0
826417, 2.123, 1.401, -2.096, 1.255, 1.784, 1.734, 0
826437, 5.958, -2.309, -4.694, 2.502, 4.392, 2.425, 0
826457, 8.37, -4.068, -1.95, 2.923, 6.239, 1.795, 0
826477, 7.275, -1.875, 0.199, 3.567, 6.866, 0.88, 0
826497, 3.679, -0.52, 0.754, 4.506, 7.579, 0.569, 0
826517, 4.081, -4.835, -1.102, 5.29, 9.274, 0.789, 0
826537, 5.778, -3.129, 0.72, 5.202, 10.52, 0.293, 0
826557, 7.971, -3.398, 1.485, 5.413, 9.977, -0.061, 0
826577, 7.48, -3.992, 0.804, 5.637, 8.963, -0.352, 0
826597, 6.822, -4.992, 0.473, 5.737, 8.073, -0.418, 0
826617, 5.334, -5.077, -0.712, 5.772, 7.163, -0.221, 0
826637, 5.66, -6.136, -1.188, 5.651, 5.888, -0.048, 0
826657, 3.958, -6.304, -1.486, 5.569, 4.991, 0.062, 0
826677, 4.228, -7.054, -1.58, 5.433, 4.118, 0.093, 0
826697, 4.824, -7.43, -2.543, 4.965, 2.515, -0.048, 0
826717, 2.938, -6.298, -3.41, 4.569, 1.304, -0.073, 0
826737, 1.03, -4.554, -4.425, 4.489, 0.937, 0.05, 0
826757, 0.509, -4.955, -5.759, 4.322, 0.863, 0.097, 0
826777, 1.094, -4.86, -6.797, 3.69, 0.725, -0.119, 0
826797, 1.8, -3.761, -7.851, 2.81, 0.071, -0.337, 0
826817, 0.474, -1.575, -8.869, 2.285, -0.536, -0.51, 0
826837, -1.091, -1.177, -8.946, 1.982, -0.561, -0.436, 0
826857, -1.683, -2.15, -8.909, 1.309, -0.301, -0.345, 0
826877, -1.136, -1.457, -7.709, 0.53, 0.018, -0.375, 0
826897, -0.933, 0.072, -5.853, 0.218, 0.175, -0.384, 0
826917, -0.969, 0.139, -4.498, 0.139, 0.074, -0.206, 0
826937, -0.872, -0.159, -3.656, 0.009, -0.002, -0.086, 0
826957, -1.204, -0.141, -2.967, -0.235, 0.096, 0.037, 0
826977, -0.923, 0.008, -2.319, -0.744, 0.439, 0.212, 0
826997, -0.62, 0.837, -1.837, -1.087, 0.541, 0.295, 0
827017, 0.082, 1.85, -0.356, -0.657, 0.217, 0.068, 0
827037, -0.159, 1.112, 0.532, -0.069, 0.017, 0.06, 0
827057, -0.706, 0.025, 0.465, 0.028, 0.044, 0.21, 1
827077, -0.481, -0.087, 0.145, -0.132, 0.197, 0.448, 1
827097, -0.359, 0.489, -0.016, -0.257, 0.376, 0.571, 1
827117, 0.227, 0.816, 0.116, -0.12, 0.467, 0.489, 1
827137, 0.671, 0.154, -0.116, 0.058, 0.362, 0.447, 1
827157, 0.516, 0.603, -0.648, 0.119, 0.137, 0.27, 1
827177, -0.093, 0.155, -1.236, 0.0, -0.194, 0.331, 1
827197, -0.612, 0.041, -1.044, -0.033, -0.005, 0.359, 1
827217, 0.121, -0.023, -0.704, -0.078, 0.446, 0.315, 1
827237, 0.795, -0.013, -0.491, -0.105, 0.44, 0.197, 1
827257, 0.782, -0.389, -0.654, -0.2, 0.194, 0.076, 1
827277, 0.27, -0.153, -0.935, -0.452, -0.063, -0.054, 1
827297, -0.341, 0.662, -1.029, -0.54, -0.189, -0.125, 1
827317, -0.81, 0.827, -1.475, -0.395, -0.095, -0.018, 1
827337, 0.031, 0.492, -2.287, -0.297, -0.028, 0.124, 1
827357, 0.986, 0.29, -3.488, -0.346, -0.469, 0.178, 1
827377, 1.818, -0.294, -4.865, -0.623, -1.43, 0.021, 1
827397, 1.528, -0.868, -5.725, -1.243, -2.914, -0.322, 1
827417, -0.921, -1.206, -5.204, -2.089, -4.293, -0.606, 1
827437, -2.372, -0.309, -4.118, -2.85, -4.965, -0.622, 1
827457, -3.07, 0.535, -3.099, -3.232, -5.511, -0.446, 1
827477, -3.278, 1.42, -2.472, -3.385, -6.004, 0.034, 1
827497, -4.095, 1.812, -1.619, -3.461, -6.541, 0.56, 1
827517, -5.019, 2.394, -0.564, -3.553, -6.657, 1.579, 1
827537, -3.74, 2.568, 0.517, -3.36, -5.921, 1.878, 1
827557, -2.66, 3.528, 1.069, -2.963, -5.382, 2.43, 1
827577, -0.873, 3.539, 0.903, -2.576, -5.038, 2.867, 1
827597, 0.273, 2.197, -0.149, -2.543, -4.596, 3.024, 1
827617, 2.782, 0.647, -0.313, -2.884, -4.877, 2.405, 1
827637, 3.69, 0.659, 0.595, -3.046, -5.753, 1.913, 1
827657, 3.39, 0.402, 0.823, -2.657, -5.847, 2.1, 1
827677, 2.657, 0.526, -0.219, -1.925, -5.055, 2.186, 1
827697, 3.769, -1.575, -2.045, -1.717, -4.344, 1.867, 1
827717, 4.614, -2.155, -2.094, -2.223, -4.698, 1.288, 1
827737, 3.299, -0.86, -0.926, -2.51, -5.149, 0.819, 1
827757, 1.657, 0.141, -0.106, -2.159, -5.098, 0.519, 1
827777, 0.865, 0.147, -0.363, -1.598, -4.872, 0.552, 1
827797, 0.57, -0.392, -0.508, -1.221, -4.604, 0.836, 1
827817, 0.777, -1.264, -0.885, -0.995, -4.159, 0.903, 1
827837, 0.759, -0.917, -1.102, -0.634, -3.591, 0.954, 1
827857, 1.962, -1.217, -1.78, -0.315, -3.345, 1.162, 1
827877, 1.898, -1.508, -2.909, -0.012, -2.871, 1.344, 1
827897, 1.834, -1.535, -3.378, 0.155, -2.081, 1.279, 1
827917, 2.781, -2.032, -3.884, 0.116, -1.387, 1.274, 1
827937, 3.677, -1.682, -3.733, 0.012, -1.05, 1.237, 1
827957, 3.924, -1.507, -3.438, -0.034, -0.745, 1.028, 1
827977, 4.118, -1.53, -2.901, -0.142, -0.51, 0.795, 1
827997, 4.13, -1.055, -2.241, -0.192, -0.307, 0.477, 1
828017, 3.782, -0.608, -1.657, -0.142, 0.032, 0.383, 1
828037, 3.188, -0.612, -1.311, -0.167, 0.205, 0.263, 1
828057, 2.9, -0.519, -0.798, -0.285, 0.219, 0.113, 1
828077, 2.202, -0.314, -0.346, -0.403, 0.206, 0.007, 1
828097, 1.564, -0.154, 0.0, -0.463, 0.172, -0.036, 1
828117, 0.629, 0.063, 0.528, -0.466, 0.106, -0.116, 1
828137, 0.251, 0.365, 0.978, -0.393, 0.155, -0.039, 1
828157, 0.435, 0.237, 0.893, -0.21, 0.195, 0.139, 1
828177, 0.346, -0.128, 0.693, -0.088, 0.146, 0.234, 1
828197, 0.217, -0.314, 0.38, -0.075, 0.135, 0.302, 1
828217, 0.241, -0.454, 0.046, -0.112, 0.156, 0.329, 1
828237, 0.132, -0.21, 0.121, -0.15, 0.071, 0.277, 1
828257, -0.016, -0.231, 0.128, -0.122, 0.099, 0.231, 1
828277, 0.083, -0.246, 0.082, -0.13, 0.106, 0.262, 1
828297, -0.005, -0.094, -0.014, -0.142, 0.15, 0.285, 1
828317, 0.081, -0.098, 0.007, -0.095, 0.172, 0.226, 1
828337, 0.361, -0.343, -0.093, -0.079, 0.094, 0.175, 1
828357, 0.15, -0.073, -0.113, -0.158, -0.061, 0.158, 1
828377, 0.016, 0.052, 0.06, -0.088, -0.14, -0.028, 1
828397, 0.003, 0.05, 0.159, -0.058, -0.098, -0.017, 1
828417, 0.165, -0.127, -0.025, -0.151, -0.018, 0.083, 1
828437, 0.171, -0.108, -0.265, -0.331, 0.032, 0.163, 1
828457, 0.43, 0.266, 0.179, -0.172, -0.117, -0.063, 1
828477, 0.216, 0.052, 0.183, 0.148, -0.252, -0.251, 1
828497, 0.024, -0.597, -0.157, 0.012, -0.002, -0.102, 1
828517, 0.161, -0.047, -0.123, 0.047, 0.199, -0.117, 1
828537, 0.476, 0.254, 0.377, 0.347, 0.302, -0.094, 1
828557, 0.969, -0.189, 0.688, 0.501, 0.423, -0.114, 0
828577, 1.709, 1.68, -0.64, 0.441, 0.742, -0.13, 0
828597, -0.291, -0.279, -0.564, 0.257, 1.591, 0.258, 0
828617, -1.075, 0.974, -0.895, 0.959, 3.126, 0.863, 0
828637, 2.071, -0.716, -1.328, 1.379, 3.786, 1.138, 0
828657, 3.689, -1.719, -1.374, 1.266, 3.704, 0.885, 0
828677, 0.8, -0.846, -1.123, 1.469, 4.724, 1.029, 0
828697, -0.302, -0.638, -0.563, 2.502, 6.868, 1.374, 0
828717, 2.552, -0.937, 0.464, 3.693, 8.225, 1.091, 0
828737, 4.289, -1.984, 0.728, 4.53, 8.512, 0.664, 0
828757, 4.599, -3.458, 0.179, 4.844, 8.506, 0.304, 0
828777, 5.386, -4.285, -0.259, 4.908, 8.176, -0.148, 0
828797, 4.617, -3.997, -0.063, 4.989, 7.896, -0.549, 0
828817, 3.202, -3.791, 0.394, 5.282, 7.825, -0.52, 0
828837, 4.553, -4.628, -0.252, 5.45, 7.175, -0.373, 0
828857, 5.054, -5.742, -0.914, 5.264, 5.914, -0.276, 0
828877, 4.084, -4.85, -1.685, 5.149, 4.605, -0.398, 0
828897, 2.531, -5.298, -1.777, 5.091, 3.948, -0.277, 0
828917, 2.235, -5.54, -1.589, 5.246, 3.553, -0.073, 0
828937, 3.275, -6.425, -2.257, 5.049, 2.678, -0.066, 0
828957, 2.966, -6.875, -3.045, 4.563, 1.689, -0.328, 0
828977, 2.137, -5.578, -2.842, 4.263, 1.008, -0.503, 0
828997, 0.643, -4.828, -3.917, 4.176, 0.662, -0.226, 0
829017, 0.926, -4.712, -4.747, 3.95, 0.521, -0.208, 0
829037, 0.548, -4.646, -5.413, 3.34, 0.35, -0.412, 0
829057, 0.476, -2.573, -5.308, 2.822, 0.27, -0.593, 0
829077, 0.329, -2.115, -5.634, 2.741, 0.158, -0.496, 0
829097, 0.248, -2.595, -6.391, 2.648, -0.037, -0.362, 0
829117, -0.18, -3.005, -6.907, 2.045, -0.198, -0.215, 0
829137, -0.62, -2.258, -6.251, 1.296, -0.221, -0.237, 0
829157, -0.798, -1.326, -5.359, 0.875, -0.072, -0.305, 0
829177, -0.655, -1.149, -4.631, 0.696, 0.091, -0.282, 0
829197, -0.439, -1.092, -4.28, 0.473, 0.106, -0.223, 0
829217, -0.487, -0.857, -3.718, 0.108, 0.015, -0.166, 0
829237, -0.85, -0.401, -3.047, -0.126, -0.042, -0.215, 0
829257, -0.995, -0.269, -2.16, -0.219, 0.059, -0.188, 0
829277, -0.402, -0.049, -1.42, -0.24, 0.19, -0.158, 0
829297, -0.224, 0.014, -1.254, -0.294, 0.147, -0.113, 0
829317, -0.148, -0.015, -0.904, -0.375, 0.0, -0.105, 0
829337, -0.329, 0.236, -0.743, -0.47, -0.108, -0.062, 0
829357, -0.293, 0.438, -0.56, -0.471, -0.094, 0.001, 0
829377, -0.025, 0.281, -0.473, -0.39, -0.087, -0.008, 0
829397, 0.036, 0.055, -0.541, -0.384, -0.029, -0.054, 0
829417, -0.022, 0.084, -0.502, -0.426, -0.03, -0.053, 0
829437, -0.107, -0.015, -0.474, -0.476, -0.016, 0.013, 0
829457, -0.153, -0.067, -0.368, -0.502, 0.006, 0.05, 0
829477, 0.212, 0.201, -0.386, -0.446, -0.025, -0.006, 0
829497, 0.297, -0.201, -0.645, -0.442, -0.175, -0.067, 0
829517, -0.067, -0.333, -1.054, -0.516, -0.271, -0.108, 0
829537, -0.4, 0.001, -1.29, -0.626, -0.188, -0.054, 0
829557, -0.697, 0.04, -0.839, -0.692, 0.021, 0.001, 0
829577, -0.093, 0.121, -0.516, -0.775, 0.076, 0.089, 0
829597, 0.224, 0.165, -0.409, -0.862, -0.053, 0.13, 0
829617, 0.41, -0.075, -0.632, -1.056, -0.277, 0.186, 1
829637, -0.276, -0.742, -0.863, -1.605, -0.218, 0.474, 1
829657, -1.14, 0.324, -0.096, -1.864, 0.239, 0.719, 1
829677, 0.098, 1.14, 0.097, -1.47, 0.279, 0.621, 1
829697, 1.149, 1.093, -0.208, -1.073, -0.185, 0.406, 1
829717, 1.275, 0.374, -0.851, -0.893, -0.691, 0.103, 1
829737, 0.353, 0.341, -0.626, -1.046, -1.328, 0.021, 1
829757, -0.962, 0.726, -0.844, -1.117, -1.457, -0.023, 1
829777, -1.325, 1.148, -1.277, -0.998, -1.26, 0.047, 1
829797, 0.256, 1.118, -1.987, -0.927, -1.761, -0.073, 1
829817, 2.341, 0.994, -2.919, -1.194, -3.618, -0.499, 1
829837, 1.279, -0.126, -2.844, -2.007, -5.918, -0.916, 1
829857, -3.259, -0.212, -1.425, -3.054, -6.724, -0.613, 1
829877, -5.472, 2.194, -0.273, -3.511, -6.324, 0.059, 1
829897, -4.71, 3.888, -0.244, -3.319, -5.636, 0.635, 1
829917, -2.46, 5.071, -0.133, -3.062, -5.904, 0.774, 1
829937, -1.798, 4.832, 0.237, -3.23, -6.888, 0.651, 1
829957, -3.335, 4.284, 0.974, -3.518, -6.984, 1.29, 1
829977, -1.962, 4.671, -0.507, -3.063, -5.454, 1.706, 1
829997, -0.48, 4.102, -0.282, -2.475, -4.977, 1.724, 1
830017, -1.439, 2.693, -0.169, -2.05, -4.985, 1.815, 1
830037, -0.499, -0.499, -1.502, -1.612, -4.137, 2.609, 1
830057, 2.147, -1.52, -2.098, -1.359, -3.007, 3.054, 1
830077, 5.493, -1.961, -1.631, -1.571, -3.067, 2.548, 1
830097, 4.628, -0.701, -0.215, -1.944, -4.27, 1.678, 1
830117, 1.96, -0.072, 0.543, -1.802, -5.064, 0.717, 1
830137, 0.425, -0.362, 0.199, -1.373, -5.171, 0.42, 1
830157, 1.076, -1.316, -0.46, -0.997, -4.973, 0.734, 1
830177, 1.361, -1.108, -1.017, -0.744, -4.7, 0.992, 1
830197, 1.799, -1.58, -2.052, -0.408, -4.158, 0.939, 1
830217, 1.351, -1.363, -2.429, -0.214, -3.555, 0.861, 1
830237, 1.578, -1.395, -2.593, -0.06, -2.948, 0.908, 1
830257, 2.174, -1.338, -2.662, -0.034, -2.512, 1.007, 1
830277, 2.594, -1.214, -2.627, -0.089, -2.349, 0.997, 1
830297, 2.74, -1.268, -2.886, -0.111, -2.189, 0.894, 1
830317, 2.459, -0.793, -2.791, -0.135, -1.944, 0.814, 1
830337, 2.23, -0.607, -2.784, -0.033, -1.35, 0.893, 1
830357, 3.223, -0.988, -2.785, 0.04, -0.748, 0.971, 1
830377, 3.75, -1.092, -2.642, -0.071, -0.532, 0.899, 1
830397, 3.76, -0.797, -2.227, -0.199, -0.462, 0.573, 1
830417, 3.219, -0.246, -1.83, -0.261, -0.407, 0.262, 1
830437, 2.451, 0.042, -1.492, -0.28, -0.29, 0.132, 1
830457, 1.858, -0.119, -1.186, -0.391, -0.092, 0.134, 1
830477, 1.023, 0.285, -0.528, -0.387, 0.042, 0.12, 1
830497, 0.939, 0.244, -0.192, -0.321, 0.119, 0.15, 1
830517, 0.826, 0.185, 0.017, -0.303, 0.114, 0.184, 1
830537, 0.312, 0.028, 0.166, -0.323, 0.125, 0.21, 1
830557, 0.171, -0.123, 0.222, -0.317, 0.057, 0.212, 1
830577, 0.046, -0.108, 0.551, -0.316, 0.066, 0.198, 1
830597, 0.181, 0.076, 0.573, -0.216, 0.106, 0.244, 1
830617, 0.323, -0.115, 0.424, -0.176, 0.126, 0.256, 1
830637, 0.159, -0.258, 0.148, -0.2, 0.216, 0.28, 1
830657, 0.378, -0.095, 0.157, -0.095, 0.219, 0.209, 1
830677, 0.562, -0.045, 0.267, 0.051, 0.125, 0.114, 1
830697, 0.509, -0.368, 0.011, 0.081, 0.115, 0.003, 1
830717, 0.111, -0.93, -0.349, -0.206, 0.43, 0.003, 1
830737, 0.098, -0.137, -0.472, -0.209, 0.828, -0.009, 1
830757, 0.006, 1.096, 0.275, 0.439, 1.112, -0.125, 1
830777, 0.483, 0.044, 0.301, 0.786, 1.389, 0.241, 0
830797, 0.277, -1.457, -0.814, 0.403, 1.951, 0.485, 0
830817, 0.638, -0.719, -0.784, 0.29, 2.619, 0.664, 0
830837, 1.426, 0.87, -0.535, 0.839, 3.218, 0.801, 0
830857, 2.332, -0.46, -0.34, 1.496, 3.734, 0.792, 0
830877, 2.151, -1.184, -0.353, 1.855, 4.34, 0.682, 0
830897, 1.224, -0.775, -0.833, 2.371, 5.559, 0.734, 0
830917, 1.473, -1.346, -1.437, 3.134, 7.003, 0.64, 0
830937, 2.584, -1.1, -0.591, 4.244, 7.444, 0.183, 0
830957, 4.23, -2.957, 0.568, 4.558, 7.239, -0.083, 0
830977, 3.367, -3.597, -0.703, 4.117, 6.753, -0.544, 0
830997, 2.327, -1.785, -0.452, 3.666, 6.582, -0.865, 0
831017, 0.994, -1.021, 0.14, 3.931, 6.585, -0.957, 0
831037, 1.693, -1.349, 0.198, 4.427, 6.783, -0.742, 0
831057, 1.458, -2.714, -0.123, 4.728, 6.481, -0.378, 0
831077, 1.973, -4.035, -0.191, 4.687, 6.178, -0.07, 0
831097, 2.806, -4.133, -0.322, 4.682, 5.621, -0.152, 0
831117, 3.113, -4.62, -0.68, 4.725, 4.775, -0.318, 0
831137, 3.169, -5.737, -1.369, 4.591, 3.726, -0.485, 0
831157, 2.65, -5.656, -2.005, 4.032, 2.658, -0.613, 0
831177, 1.703, -3.624, -2.451, 3.437, 1.833, -0.864, 0
831197, -0.137, -3.213, -1.693, 3.428, 1.474, -0.621, 0
831217, 1.229, -2.996, -2.262, 3.692, 1.354, -0.27, 0
831237, 2.158, -3.859, -3.513, 3.535, 0.811, -0.147, 0
831257, 1.005, -3.333, -4.023, 3.003, 0.121, -0.439, 0
831277, -0.88, -3.042, -3.695, 2.514, 0.079, -0.452, 0
831297, -0.214, -1.724, -2.728, 2.279, 0.442, -0.317, 0
831317, 1.679, -0.928, -3.037, 2.47, 0.241, -0.315, 0
831337, 0.654, -2.12, -4.739, 2.471, -0.523, -0.301, 0
831357, -1.461, -2.314, -5.404, 1.985, -0.838, -0.302, 0
831377, -1.491, -1.015, -5.001, 1.504, -0.38, -0.206, 0
831397, -0.2, -0.404, -4.419, 1.345, 0.097, -0.114, 0
831417, 0.497, -0.501, -4.501, 1.248, -0.045, -0.263, 0
831437, -0.625, -0.931, -4.432, 0.761, -0.518, -0.204, 0
831457, -1.625, -0.889, -4.126, 0.361, -0.287, -0.036, 0
831477, -1.308, -0.241, -3.492, 0.146, -0.018, 0.056, 0
831497, -0.719, -0.025, -2.697, 0.15, 0.081, -0.006, 0
831517, -0.514, -0.311, -2.213, 0.084, 0.0, -0.003, 0
831537, -0.356, -0.229, -1.599, -0.032, -0.076, 0.036, 0
831557, -0.344, -0.223, -1.733, -0.15, -0.087, 0.033, 0
831577, -0.529, 0.162, -1.458, -0.204, 0.003, 0.007, 0
831597, -0.332, -0.036, -0.854, -0.256, 0.178, 0.011, 0
831617, -0.045, 0.019, -0.312, -0.296, 0.28, 0.061, 0
831637, 0.221, 0.203, -0.053, -0.299, 0.185, 0.094, 0
831657, 0.26, 0.063, 0.122, -0.258, 0.073, 0.056, 0
831677, 0.111, 0.257, 0.208, -0.19, 0.037, -0.002, 0
831697, 0.235, 0.254, 0.145, -0.113, 0.036, 0.011, 0
831717, 0.002, -0.096, -0.287, -0.181, 0.04, 0.071, 0
831737, 0.027, -0.063, -0.329, -0.326, 0.022, 0.168, 0
831757, -0.155, -0.185, -0.376, -0.588, 0.089, 0.364, 1
831777, 0.209, 0.105, -0.273, -0.712, -0.017, 0.456, 1
831797, -0.282, 0.234, -0.579, -0.657, -0.067, 0.464, 1
831817, -0.572, 0.332, -0.581, -0.433, 0.034, 0.456, 1
831837, -0.551, 0.132, -0.791, -0.236, 0.09, 0.51, 1
831857, 0.023, 0.246, -1.673, -0.097, -0.039, 0.517, 1
831877, -0.246, 0.122, -2.382, -0.101, -0.463, 0.406, 1
831897, -0.22, -0.031, -3.699, -0.241, -0.943, 0.413, 1
831917, -1.028, -0.745, -4.725, -1.008, -1.35, 0.359, 1
831937, -0.367, -1.181, -4.791, -1.719, -1.761, 0.207, 1
831957, 0.042, -0.615, -4.37, -2.354, -2.59, 0.132, 1
831977, -1.334, 0.355, -4.121, -2.689, -3.464, 0.198, 1
831997, -2.81, 0.027, -4.018, -2.79, -3.749, 0.345, 1
832017, -4.204, -0.788, -3.33, -3.171, -3.453, 0.717, 1
832037, -2.938, -0.636, -2.184, -3.626, -2.748, 1.197, 1
832057, 0.564, -0.077, -1.012, -4.005, -2.864, 1.251, 1
832077, 2.385, 1.071, 0.159, -4.248, -4.525, 0.666, 1
832097, 0.099, 1.72, 1.412, -4.291, -6.79, 0.06, 1
832117, -4.412, 2.21, 2.783, -4.445, -7.457, 0.778, 1
832137, -3.073, 2.486, 1.953, -4.087, -5.754, 2.15, 1
832157, 1.736, 1.705, 1.042, -3.571, -4.051, 2.818, 1
832177, 4.907, 1.949, 0.953, -3.414, -4.339, 2.458, 1
832197, 3.532, 1.922, 1.338, -3.28, -5.717, 1.448, 1
832217, 1.566, 1.123, 1.61, -2.932, -6.376, 0.614, 1
832237, 1.102, 0.291, 0.665, -2.323, -6.001, 0.624, 1
832257, 2.107, -0.267, 0.035, -1.892, -5.509, 0.875, 1
832277, 1.845, -0.263, -0.136, -1.704, -5.407, 0.957, 1
832297, 0.796, -0.208, -0.134, -1.574, -5.226, 0.737, 1
832317, 1.492, -0.901, -0.751, -1.224, -4.766, 0.631, 1
832337, 1.96, -1.391, -1.813, -0.871, -4.344, 0.963, 1
832357, 2.839, -1.879, -2.209, -0.738, -3.863, 1.053, 1
832377, 2.465, -1.375, -1.961, -0.708, -3.448, 0.868, 1
832397, 1.94, -1.164, -1.907, -0.394, -2.901, 0.765, 1
832417, 1.916, -1.218, -1.698, -0.356, -2.324, 0.804, 1
832437, 1.407, -0.596, -1.248, -0.286, -2.021, 0.919, 1
832457, 1.31, -0.329, -1.148, -0.087, -1.651, 1.003, 1
832477, 1.381, -0.631, -1.432, 0.09, -1.257, 1.028, 1
832497, 1.998, -1.141, -1.651, 0.113, -1.045, 1.058, 1
832517, 2.628, -1.234, -1.663, -0.027, -1.111, 1.081, 1
832537, 2.373, -1.123, -1.566, -0.15, -1.048, 0.973, 1
832557, 2.081, -0.979, -1.506, -0.097, -0.71, 0.891, 1
832577, 2.461, -0.962, -1.512, 0.037, -0.375, 0.798, 1
832597, 2.808, -0.984, -1.48, 0.094, -0.196, 0.667, 1
832617, 3.216, -1.092, -1.551, 0.024, -0.257, 0.494, 1
832637, 2.597, -1.135, -1.417, -0.156, -0.215, 0.3, 1
832657, 2.19, -0.98, -1.185, -0.314, -0.062, 0.216, 1
832677, 1.946, -0.678, -0.88, -0.412, 0.037, 0.164, 1
832697, 1.503, -0.43, -0.382, -0.408, 0.061, 0.08, 1
832717, 0.661, -0.165, 0.065, -0.358, 0.043, 0.067, 1
832737, 0.209, -0.141, 0.473, -0.359, 0.036, 0.13, 1
832757, -0.115, 0.219, 0.832, -0.27, 0.076, 0.17, 1
832777, -0.116, 0.194, 0.842, -0.128, 0.147, 0.259, 1
832797, 0.127, -0.172, 0.752, -0.122, 0.118, 0.373, 1
832817, 0.389, -0.347, 0.574, -0.171, 0.004, 0.34, 1
832837, 0.274, -0.252, 0.523, -0.126, -0.077, 0.198, 1
832857, 0.017, -0.143, 0.317, -0.016, -0.062, 0.121, 1
832877, -0.172, -0.272, 0.209, 0.021, 0.011, 0.163, 1
832897, 0.077, -0.427, 0.016, -0.102, -0.026, 0.249, 1
832917, 0.356, -0.45, 0.146, -0.155, -0.194, 0.153, 1
832937, 0.145, -0.061, 0.22, -0.144, -0.217, 0.117, 1
832957, 0.242, 0.124, 0.203, 0.026, -0.144, 0.087, 1
832977, 0.424, -0.272, 0.109, 0.176, -0.185, 0.026, 1
832997, 0.175, -0.526, -0.127, -0.006, -0.307, 0.037, 1
833017, -0.016, 0.036, -0.047, -0.194, -0.268, 0.076, 1
833037, 0.055, 0.229, 0.26, 0.002, -0.163, 0.0, 1
833057, 0.529, 0.1, 0.343, 0.243, -0.032, -0.084, 1
833077, 0.475, -0.127, -0.019, 0.359, -0.046, -0.087, 1
833097, 0.41, -0.636, -0.74, 0.335, 0.024, -0.165, 1
833117, 0.767, -0.178, -0.932, 0.276, 0.313, -0.279, 1
833137, 1.463, -0.176, -0.966, 0.348, 0.596, -0.145, 0
833157, 1.376, -0.686, -1.757, 0.546, 0.97, -0.032, 0
833177, 1.722, -2.266, -3.85, 0.635, 1.888, 0.061, 0
833197, 0.896, -2.628, -4.701, 0.353, 3.625, 0.125, 0
833217, 1.614, -1.979, -2.851, 0.669, 5.473, -0.101, 0
833237, 1.33, -1.109, -1.716, 1.095, 6.739, 0.007, 0
833257, 0.223, -0.716, -1.14, 1.783, 7.788, 0.364, 0
833277, 1.127, -0.508, -0.456, 2.503, 8.769, 0.698, 0
833297, 2.717, -0.966, 0.297, 3.075, 9.307, 0.954, 0
833317, 5.114, -1.008, 1.186, 3.824, 8.969, 0.589, 0
833337, 3.668, -1.778, 0.849, 4.208, 8.507, 0.083, 0
833357, 2.882, -2.437, 0.482, 4.433, 8.257, -0.295, 0
833377, 2.425, -2.466, 0.09, 4.613, 8.127, -0.068, 0
833397, 3.081, -3.004, -0.11, 4.739, 6.793, 0.169, 0
833417, 3.041, -3.331, -0.152, 4.957, 5.705, 0.08, 0
833437, 3.247, -4.089, -0.892, 5.051, 4.608, -0.081, 0
833457, 2.706, -4.902, -2.298, 4.846, 3.704, -0.138, 0
833477, 1.976, -5.28, -2.733, 4.511, 2.943, -0.183, 0
833497, 1.682, -4.708, -2.9, 4.305, 2.387, -0.263, 0
833517, 1.903, -5.003, -3.18, 4.147, 1.809, -0.452, 0
833537, 2.019, -4.374, -3.077, 4.076, 1.162, -0.788, 0
833557, 1.714, -4.251, -4.015, 3.77, 0.607, -0.786, 0
833577, -0.264, -5.052, -4.551, 3.174, 0.633, -0.763, 0
833597, -0.455, -3.745, -3.634, 2.886, 0.977, -0.645, 0
833617, 0.739, -2.284, -3.504, 2.86, 0.722, -0.593, 0
833637, 0.663, -2.72, -4.389, 2.691, 0.098, -0.564, 0
833657, 0.034, -2.761, -5.299, 2.329, -0.429, -0.568, 0
833677, -1.417, -2.899, -5.503, 1.698, -0.426, -0.477, 0
833697, -2.173, -1.546, -4.684, 1.387, -0.073, -0.275, 0
833717, -1.158, -1.053, -4.336, 1.272, -0.011, -0.12, 0
833737, -0.77, -1.019, -3.959, 1.122, -0.296, -0.086, 0
833757, -1.351, -0.917, -3.992, 0.824, -0.335, 0.092, 0
833777, -1.273, -0.619, -3.462, 0.459, -0.2, 0.15, 0
833797, -1.079, -0.164, -2.858, 0.34, -0.056, 0.187, 0
833817, -0.382, 0.03, -2.65, 0.272, -0.073, 0.205, 0
833837, -0.053, 0.161, -2.616, 0.144, -0.143, 0.147, 0
833857, -0.31, 0.073, -2.289, 0.001, -0.041, 0.138, 0
833877, 0.041, 0.145, -1.611, -0.109, 0.178, 0.118, 0
833897, 0.558, 0.234, -1.341, -0.175, 0.063, 0.05, 0
833917, 0.298, 0.115, -0.961, -0.243, -0.009, -0.015, 0
833937, 0.119, 0.298, -0.773, -0.273, 0.037, -0.047, 0
833957, -0.043, 0.173, -0.642, -0.257, 0.136, -0.053, 0
833977, 0.092, 0.073, -0.303, -0.252, 0.177, -0.069, 0
833997, 0.057, -0.095, -0.194, -0.259, 0.117, -0.065, 0
834017, 0.054, 0.016, -0.249, -0.309, 0.025, -0.045, 0
834037, -0.12, 0.084, -0.226, -0.309, 0.0, -0.097, 0
834057, -0.24, -0.017, -0.07, -0.29, 0.008, -0.094, 0
834077, 0.045, -0.083, 0.122, -0.274, 0.044, -0.05, 0
834097, 0.101, 0.01, 0.146, -0.288, -0.004, -0.039, 0
834117, 0.034, -0.016, -0.025, -0.297, -0.054, -0.009, 0
834137, -0.021, 0.003, -0.066, -0.352, -0.014, 0.016, 0
834157, 0.274, 0.045, -0.17, -0.406, -0.021, 0.048, 0
834177, 0.077, -0.31, -0.831, -0.64, -0.144, 0.185, 1
834197, 0.08, 0.028, -1.794, -0.926, -0.202, 0.363, 1
834217, -0.49, 0.46, -2.715, -1.064, -0.272, 0.344, 1
834237, -0.979, 0.162, -2.74, -1.073, -0.31, 0.265, 1
834257, -1.386, -0.622, -2.276, -1.127, -0.29, 0.274, 1
834277, -1.018, -0.258, -2.09, -1.299, -0.484, 0.197, 1
834297, -1.028, 0.221, -2.202, -1.287, -0.598, 0.227, 1
834317, -1.167, 0.735, -2.888, -1.225, -0.72, 0.285, 1
834337, -0.976, 0.828, -3.972, -1.178, -0.904, 0.466, 1
834357, -1.664, 0.192, -4.548, -1.641, -1.26, 0.784, 1
834377, -2.225, -0.431, -4.037, -2.208, -1.082, 1.014, 1
834397, -1.369, -0.395, -2.735, -2.657, -1.072, 0.946, 1
834417, 1.718, 0.288, -1.738, -2.78, -2.041, 0.224, 1
834437, 2.713, 0.98, -1.417, -2.855, -3.979, -0.374, 1
834457, -2.459, 1.956, -1.164, -2.831, -4.567, -0.04, 1
834477, -5.951, 1.569, -1.409, -2.803, -3.24, 1.087, 1
834497, -4.586, 1.12, -1.541, -2.867, -1.577, 2.09, 1
834517, 1.846, 1.029, -0.815, -3.109, -2.059, 1.987, 1
834537, 5.118, 1.808, 0.06, -3.453, -4.585, 1.199, 1
834557, 2.96, 2.406, 1.026, -3.651, -6.848, 0.364, 1
834577, -1.279, 1.0, 1.867, -3.971, -7.301, 0.26, 1
834597, -3.558, 1.646, 1.665, -3.81, -5.649, 1.158, 1
834617, -0.351, 1.973, 0.641, -3.291, -4.271, 1.596, 1
834637, 4.347, 1.462, 0.991, -3.177, -5.166, 1.279, 1
834657, 3.842, 1.25, 1.896, -2.938, -6.662, 0.418, 1
834677, 2.476, -0.38, 2.094, -2.659, -7.54, -0.088, 1
834697, 1.382, -0.927, 1.58, -2.247, -7.521, 0.521, 1
834717, 0.554, -0.899, 0.469, -1.796, -6.439, 0.985, 1
834737, 0.692, -0.672, -0.326, -1.233, -5.245, 1.11, 1
834757, 0.855, -0.934, -1.135, -0.649, -4.263, 1.32, 1
834777, 1.48, -1.945, -2.228, -0.423, -3.693, 1.447, 1
834797, 2.485, -1.919, -2.272, -0.48, -3.601, 1.523, 1
834817, 2.525, -1.473, -2.129, -0.387, -3.329, 1.549, 1
834837, 2.565, -1.591, -2.589, -0.13, -2.767, 1.507, 1
834857, 3.458, -2.354, -3.274, -0.044, -2.083, 1.42, 1
834877, 3.974, -1.655, -3.192, 0.016, -1.695, 1.309, 1
834897, 4.37, -1.623, -3.168, 0.019, -1.353, 1.164, 1
834917, 4.792, -1.602, -3.083, -0.052, -1.056, 0.947, 1
834937, 5.007, -1.425, -2.972, -0.139, -0.824, 0.652, 1
834957, 4.928, -0.998, -2.529, -0.263, -0.743, 0.349, 1
834977, 4.174, -0.531, -2.151, -0.328, -0.633, 0.081, 1
834997, 3.395, -0.49, -1.727, -0.434, -0.479, -0.109, 1
835017, 2.132, -0.515, -1.211, -0.608, -0.328, -0.193, 1
835037, 0.837, 0.226, -0.03, -0.879, -0.307, -0.169, 1
835057, 0.265, 1.093, 0.949, -0.81, -0.16, -0.013, 1
835077, 0.911, 0.796, 1.044, -0.378, -0.036, 0.071, 1
835097, 1.3, -0.124, 0.731, -0.209, -0.117, 0.167, 1
835117, 1.336, -0.295, 0.406, -0.291, -0.219, 0.121, 1
835137, 1.078, -0.321, 0.099, -0.344, -0.239, 0.109, 1
835157, 0.893, -0.263, -0.217, -0.343, -0.156, 0.131, 1
835177, 0.946, -0.293, -0.188, -0.23, 0.0, 0.106, 1
835197, 0.929, -0.751, -0.272, -0.204, 0.045, 0.092, 1
835217, 0.795, -0.676, 0.04, -0.254, -0.067, 0.04, 1
835237, 0.633, -0.234, 0.308, -0.251, 0.0, 0.027, 1
835257, 0.571, -0.344, 0.205, -0.176, 0.07, 0.014, 1
835277, 0.232, -0.215, 0.128, -0.083, 0.19, 0.016, 1
835297, 0.211, -0.313, -0.09, 0.12, 0.401, -0.039, 1
835317, 1.033, -0.741, -0.281, 0.348, 0.572, -0.243, 1
835337, 1.17, -0.697, 0.1, 0.159, 0.592, -0.215, 0
835357, 0.819, -0.013, 0.116, 0.303, 0.763, -0.205, 0
835377, -0.026, -0.499, -0.598, 0.459, 1.479, -0.01, 0
835397, -0.267, -0.392, -0.726, 0.764, 2.483, 0.26, 0
835417, 0.907, -0.356, -0.425, 1.054, 3.268, 0.334, 0
835437, 0.49, -0.234, -0.11, 1.452, 4.137, 0.557, 0
835457, -0.605, -0.618, -0.53, 2.166, 5.864, 0.882, 0
835477, 1.397, -1.524, -0.369, 2.937, 7.214, 0.848, 0
835497, 3.662, -1.624, -0.017, 3.49, 7.385, 0.364, 0
835517, 4.09, -2.893, -1.164, 3.367, 7.009, -0.203, 0
835537, 2.891, -2.084, -2.02, 3.026, 6.856, -0.574, 0
835557, 1.306, -0.873, -1.412, 3.086, 7.179, -0.654, 0
835577, 2.102, -0.932, -1.116, 3.447, 7.359, -0.644, 0
835597, 2.53, -0.884, -0.359, 3.958, 7.162, -0.561, 0
835617, 2.287, -1.778, -0.488, 4.248, 7.144, -0.271, 0
835637, 3.007, -2.247, -0.789, 4.388, 6.436, -0.249, 0
835657, 2.799, -3.046, -1.232, 4.453, 5.663, -0.237, 0
835677, 1.786, -3.612, -1.292, 4.571, 5.241, -0.177, 0
835697, 2.741, -4.524, -1.214, 4.448, 4.664, -0.059, 0
835717, 4.216, -4.463, -1.748, 4.209, 3.417, -0.139, 0
835737, 3.113, -5.65, -2.298, 3.629, 2.114, -0.304, 0
835757, 0.596, -4.548, -1.659, 3.498, 1.815, -0.379, 0
835777, 0.588, -4.252, -1.872, 3.599, 1.774, -0.238, 0
835797, 1.887, -4.659, -2.18, 3.481, 1.115, -0.352, 0
835817, 1.136, -4.57, -2.687, 2.89, 0.351, -0.388, 0
835837, -0.679, -3.301, -2.19, 2.698, 0.454, -0.197, 0
835857, 0.825, -2.258, -2.745, 2.786, 0.396, -0.187, 0
835877, 0.867, -2.11, -3.902, 2.725, -0.146, -0.171, 0
835897, -0.198, -2.589, -4.969, 2.42, -0.572, -0.189, 0
835917, -1.377, -2.65, -5.263, 1.866, -0.634, -0.306, 0
835937, -0.859, -0.755, -4.591, 1.361, -0.14, -0.357, 0
835957, 0.489, -0.006, -4.172, 1.33, 0.002, -0.226, 0
835977, 0.006, -0.72, -4.719, 1.318, -0.422, -0.028, 0
835997, -1.2, -0.936, -4.698, 0.981, -0.456, -0.098, 0
836017, -1.005, 0.069, -3.692, 0.554, -0.105, -0.032, 0
836037, -0.523, 0.115, -2.987, 0.438, 0.059, 0.04, 0
836057, -0.315, -0.188, -2.689, 0.373, 0.061, -0.013, 0
836077, -0.218, 0.056, -2.266, 0.286, -0.081, -0.022, 0
836097, -0.745, -0.325, -2.448, 0.181, -0.232, 0.097, 0
836117, -1.293, -0.348, -1.646, -0.095, -0.032, 0.185, 0
836137, -0.188, 0.191, -0.232, -0.159, 0.313, 0.165, 0
836157, 1.002, 0.395, -0.243, 0.066, 0.273, 0.063, 0
836177, 0.984, 0.147, -1.083, 0.163, -0.142, 0.01, 0
836197, -0.021, -0.149, -1.754, 0.017, -0.398, -0.051, 0
836217, -0.52, 0.046, -1.517, -0.172, -0.142, -0.016, 0
836237, -0.086, 0.068, -0.916, -0.262, 0.211, 0.017, 0
836257, 0.328, 0.095, -0.364, -0.275, 0.265, -0.02, 0
836277, 0.309, -0.07, -0.386, -0.215, 0.007, -0.057, 0
836297, -0.233, -0.026, -0.61, -0.261, -0.167, -0.04, 0
836317, -0.454, -0.161, -0.661, -0.393, 0.001, -0.01, 0
836337, -0.273, -0.013, -0.347, -0.435, 0.124, 0.058, 0
836357, 0.08, 0.149, -0.245, -0.389, 0.025, 0.067, 0
836377, 0.128, 0.101, -0.357, -0.315, -0.13, 0.043, 0
836397, -0.344, -0.021, -0.658, -0.325, -0.175, 0.103, 0
836417, -0.322, 0.069, -0.974, -0.367, -0.093, 0.212, 0
836437, -0.41, -0.029, -1.568, -0.535, 0.034, 0.323, 1
836457, -0.324, 0.413, -2.349, -0.742, -0.027, 0.474, 1
836477, -0.285, 0.437, -3.644, -0.959, -0.217, 0.571, 1
836497, -1.068, 0.024, -4.161, -1.154, -0.192, 0.521, 1
836517, -1.58, -0.051, -3.909, -1.467, 0.086, 0.471, 1
836537, -0.118, 0.031, -3.723, -1.748, -0.254, 0.36, 1
836557, 1.605, 0.215, -3.928, -2.048, -1.606, 0.076, 1
836577, 1.961, 0.209, -4.345, -2.515, -3.557, -0.286, 1
836597, -2.326, -1.035, -3.435, -3.316, -4.55, -0.259, 1
836617, -5.742, 0.072, -2.135, -3.778, -3.634, 0.092, 1
836637, -4.863, 0.224, -1.544, -3.982, -2.382, 0.55, 1
836657, -0.556, 0.975, -0.717, -4.064, -2.517, 0.751, 1
836677, 2.744, 2.008, -0.01, -4.115, -4.588, 0.348, 1
836697, -0.38, 1.625, 1.098, -4.307, -6.199, 0.243, 1
836717, -4.958, 2.224, 1.952, -4.107, -5.083, 1.149, 1
836737, -3.766, 2.157, 1.353, -3.529, -2.93, 1.758, 1
836757, 2.427, 2.009, 1.257, -3.169, -2.86, 1.624, 1
836777, 4.231, 2.588, 1.936, -2.966, -4.453, 0.987, 1
836797, 2.406, 1.165, 2.086, -2.685, -5.753, 0.62, 1
836817, 0.555, 0.03, 0.276, -2.491, -5.169, 0.835, 1
836837, 2.24, 0.385, 0.032, -2.31, -4.36, 1.036, 1
836857, 2.935, 0.577, -0.039, -2.11, -4.262, 0.83, 1
836877, 2.625, 0.082, -0.091, -1.901, -4.754, 0.605, 1
836897, 1.612, -0.281, -0.027, -1.813, -5.352, 0.536, 1
836917, 1.237, -1.029, -0.203, -1.86, -5.383, 0.364, 1
836937, 0.585, -0.402, 0.339, -1.949, -5.288, 0.361, 1
836957, 0.326, 0.01, 0.361, -1.674, -4.812, 0.436, 1
836977, 2.047, -1.113, -0.83, -1.047, -4.223, 0.662, 1
836997, 2.879, -1.449, -1.558, -0.609, -4.031, 0.899, 1
837017, 2.747, -1.966, -2.259, -0.408, -3.516, 0.733, 1
837037, 3.06, -2.04, -2.503, -0.462, -2.889, 0.477, 1
837057, 2.857, -1.501, -2.246, -0.617, -2.53, 0.392, 1
837077, 2.116, -0.574, -1.624, -0.696, -2.26, 0.398, 1
837097, 1.526, 0.25, -1.287, -0.488, -1.738, 0.429, 1
837117, 2.713, -0.385, -1.315, -0.185, -1.357, 0.468, 1
837137, 2.96, -0.641, -1.102, -0.279, -1.587, 0.403, 1
837157, 1.633, -0.182, -0.869, -0.447, -1.549, 0.311, 1
837177, 1.231, 0.142, -0.874, -0.359, -1.02, 0.334, 1
837197, 1.654, -0.004, -0.862, -0.171, -0.532, 0.466, 1
837217, 1.821, -0.253, -0.609, -0.093, -0.425, 0.478, 1
837237, 1.762, -0.494, -0.445, -0.07, -0.472, 0.373, 1
837257, 1.29, -0.51, -0.491, -0.16, -0.542, 0.347, 1
837277, 0.857, -0.339, -0.431, -0.177, -0.387, 0.313, 1
837297, 0.942, -0.515, -0.41, -0.116, -0.005, 0.333, 1
837317, 1.155, -0.607, -0.355, -0.144, 0.095, 0.302, 1
837337, 1.024, -0.467, -0.131, -0.086, 0.085, 0.16, 1
837357, 1.031, -0.367, 0.138, -0.02, -0.032, 0.045, 1
837377, 0.784, -0.388, 0.137, -0.038, -0.124, 0.052, 1
837397, 0.356, -0.507, -0.085, -0.171, -0.1, 0.095, 1
837417, -0.017, -0.253, -0.178, -0.214, 0.046, 0.127, 1
837437, -0.076, 0.012, 0.021, -0.131, 0.138, 0.136, 1
837457, 0.082, -0.065, 0.237, -0.097, 0.17, 0.223, 1
837477, 0.347, -0.368, 0.139, -0.185, 0.138, 0.277, 1
837497, 0.592, -0.32, -0.004, -0.198, 0.064, 0.136, 1
837517, 0.209, -0.32, -0.163, -0.216, 0.096, 0.02, 1
837537, -0.081, -0.47, -0.188, -0.268, 0.258, 0.091, 1
837557, -0.076, 0.191, 0.171, -0.128, 0.46, 0.165, 1
837577, 0.383, -0.039, 0.207, 0.026, 0.381, 0.092, 1
837597, 0.721, -0.548, -0.311, 0.026, 0.189, -0.106, 1
837617, 0.561, -0.3, -0.109, -0.112, 0.152, -0.305, 0
837637, 0.299, 0.167, 0.284, -0.118, 0.358, -0.29, 0
837657, 0.241, 0.424, 0.088, 0.192, 0.676, -0.071, 0
837677, -0.04, 0.179, -0.291, 0.409, 1.254, 0.264, 0
837697, 0.569, -0.775, -1.439, 0.516, 1.811, 0.426, 0
837717, 0.807, -0.546, -1.597, 0.435, 2.256, 0.547, 0
837737, 0.569, -0.563, -1.939, 0.588, 3.01, 0.77, 0
837757, -0.093, -0.909, -2.296, 0.956, 4.253, 0.981, 0
837777, 0.396, -0.428, -2.11, 1.907, 5.75, 0.713, 0
837797, 1.102, -1.342, -0.268, 2.617, 6.448, 0.514, 0
837817, 0.878, -1.424, -0.092, 3.039, 7.034, 0.457, 0
837837, 0.351, -1.228, 0.072, 3.246, 7.633, 0.486, 0
837857, 1.393, -0.463, 0.153, 3.466, 8.161, 0.479, 0
837877, 2.356, -0.374, 0.057, 3.764, 7.889, 0.315, 0
837897, 1.712, -0.559, 0.071, 4.006, 7.128, 0.114, 0
837917, 1.782, -1.181, -0.597, 4.074, 6.695, 0.083, 0
837937, 2.117, -1.567, -1.035, 4.029, 6.086, -0.013, 0
837957, 0.82, -1.39, -1.446, 4.028, 5.464, 0.029, 0
837977, 0.917, -2.173, -2.096, 4.122, 5.082, 0.051, 0
837997, 0.42, -2.837, -2.171, 3.893, 4.695, 0.219, 0
838017, 0.632, -2.678, -1.601, 3.648, 4.528, 0.362, 0
838037, 1.972, -2.883, -1.474, 3.574, 4.269, 0.416, 0
838057, 3.293, -3.654, -1.469, 3.519, 3.373, 0.308, 0
838077, 2.277, -4.364, -2.195, 3.187, 1.922, 0.057, 0
838097, 1.0, -2.829, -2.414, 2.762, 0.956, -0.142, 0
838117, -0.108, -3.008, -2.977, 2.63, 0.536, -0.256, 0
838137, -0.25, -2.786, -2.934, 2.39, 0.522, -0.224, 0
838157, -0.266, -3.357, -2.839, 2.149, 0.489, -0.23, 0
838177, 0.295, -1.613, -2.128, 1.897, 0.522, -0.237, 0
838197, 0.433, -1.374, -2.287, 1.956, 0.387, -0.219, 0
838217, 0.394, -1.247, -3.349, 1.869, 0.025, -0.196, 0
838237, -0.389, -0.825, -3.851, 1.484, -0.162, -0.235, 0
838257, -0.506, -0.358, -3.985, 1.237, -0.15, -0.224, 0
838277, -0.53, -0.047, -3.694, 1.113, -0.006, -0.195, 0
838297, -0.118, -0.061, -3.706, 0.976, -0.053, -0.157, 0
838317, -0.738, -0.508, -3.404, 0.758, 0.011, -0.144, 0
838337, -0.78, -0.169, -2.694, 0.594, 0.072, -0.08, 0
838357, -0.229, 0.27, -2.172, 0.595, -0.058, -0.053, 0
838377, -0.002, 0.313, -2.462, 0.583, -0.318, -0.077, 0
838397, -0.744, 0.348, -2.797, 0.411, -0.307, -0.071, 0
838417, -0.984, 0.25, -2.804, 0.091, -0.085, -0.02, 0
838437, -0.577, 0.474, -2.031, -0.121, 0.123, 0.094, 0
838457, -0.071, 0.502, -1.26, -0.134, 0.207, 0.147, 0
838477, 0.388, 0.485, -0.779, -0.082, 0.063, 0.125, 0
838497, 0.209, 0.285, -0.556, -0.105, -0.025, 0.111, 0
838517, 0.064, 0.263, -0.694, -0.193, 0.009, 0.087, 0
838537, -0.037, 0.489, -0.475, -0.188, 0.11, 0.065, 0
838557, 0.303, 0.504, -0.246, -0.127, 0.094, 0.039, 0
838577, 0.404, 0.426, -0.269, -0.158, -0.026, 0.059, 0
838597, 0.276, 0.268, -0.313, -0.219, -0.057, 0.048, 0
838617, 0.156, 0.245, -0.375, -0.257, -0.058, 0.01, 0
838637, 0.01, 0.372, -0.367, -0.257, -0.006, -0.006, 0
838657, 0.056, 0.273, -0.597, -0.281, -0.013, -0.011, 0
838677, -0.251, 0.226, -0.905, -0.392, -0.053, 0.033, 0
838697, -0.425, 0.353, -1.181, -0.586, 0.035, 0.172, 1
838717, -0.519, 0.32, -1.472, -0.888, 0.158, 0.436, 1
838737, -0.372, 0.67, -1.398, -1.041, 0.268, 0.607, 1
838757, -0.087, 0.773, -1.661, -0.912, 0.017, 0.439, 1
838777, 2.006, 0.551, -3.624, -0.935, -0.756, 0.136, 1
838797, 2.25, -0.045, -4.702, -1.339, -1.985, -0.302, 1
838817, -0.52, -0.692, -4.504, -2.078, -3.287, -0.757, 1
838837, -3.836, -0.691, -3.558, -3.073, -3.65, -0.587, 1
838857, -3.213, 0.37, -2.45, -3.753, -3.202, -0.078, 1
838877, 0.445, 1.002, -1.318, -4.167, -3.404, 0.118, 1
838897, 1.985, 1.721, 0.263, -4.464, -5.117, -0.428, 1
838917, -3.271, 2.459, 1.971, -4.571, -6.673, -0.781, 1
838937, -5.965, 3.777, 2.133, -4.078, -5.928, -0.111, 1
838957, -3.964, 3.599, 0.92, -3.232, -4.2, 0.777, 1
838977, 0.866, 3.154, 0.606, -2.634, -3.523, 1.128, 1
838997, 1.469, 2.511, 0.777, -2.466, -4.265, 0.845, 1
839017, -0.568, 1.359, 1.021, -2.47, -4.659, 0.744, 1
839037, -0.185, 0.743, 0.769, -2.384, -4.023, 1.003, 1
839057, 2.619, 0.809, 0.785, -2.337, -3.748, 0.933, 1
839077, 3.137, 1.368, 1.377, -2.243, -4.491, 0.544, 1
839097, 1.732, 0.603, 1.323, -1.933, -5.195, 0.304, 1
839117, 0.589, -0.594, 0.247, -1.532, -4.828, 0.496, 1
839137, 2.189, -1.613, -0.784, -1.249, -3.71, 0.753, 1
839157, 3.721, -1.151, -0.76, -1.349, -3.267, 0.762, 1
839177, 3.477, -0.395, -0.142, -1.472, -3.585, 0.481, 1
839197, 1.936, 0.108, 0.185, -1.356, -3.875, 0.111, 1
839217, 1.355, -0.529, -0.324, -1.043, -3.654, 0.135, 1
839237, 1.94, -1.088, -0.742, -0.984, -3.294, 0.353, 1
839257, 2.796, -1.509, -0.852, -1.243, -3.381, 0.394, 1
839277, 1.891, -0.513, -0.542, -1.238, -3.353, 0.241, 1
839297, 0.593, 0.13, -0.353, -0.931, -2.855, 0.212, 1
839317, 0.185, 0.135, -0.594, -0.588, -2.211, 0.401, 1
839337, 0.825, -0.404, -0.713, -0.5, -1.908, 0.581, 1
839357, 1.427, -0.73, -0.652, -0.541, -1.919, 0.614, 1
839377, 1.52, -0.707, -0.686, -0.56, -1.921, 0.616, 1
839397, 1.08, -0.529, -0.761, -0.467, -1.701, 0.673, 1
839417, 0.943, -0.719, -1.035, -0.28, -1.214, 0.81, 1
839437, 1.212, -0.784, -1.008, -0.122, -0.773, 0.932, 1
839457, 2.007, -1.179, -1.182, -0.054, -0.566, 0.923, 1
839477, 2.849, -1.364, -1.253, -0.152, -0.723, 0.724, 1
839497, 2.63, -1.293, -1.176, -0.284, -0.781, 0.507, 1
839517, 2.117, -0.858, -1.016, -0.246, -0.557, 0.407, 1
839537, 1.926, -0.721, -1.035, -0.118, -0.243, 0.338, 1
839557, 2.295, -1.027, -1.054, -0.125, -0.152, 0.191, 1
839577, 2.169, -0.932, -0.871, -0.21, -0.204, 0.026, 1
839597, 1.691, -1.035, -0.681, -0.439, -0.188, -0.056, 1
839617, 1.15, -0.288, -0.175, -0.492, -0.132, -0.071, 1
839637, 0.521, 0.124, 0.198, -0.34, -0.045, -0.042, 1
839657, 0.184, 0.14, 0.588, -0.186, -0.003, 0.025, 1
839677, 0.212, 0.015, 0.638, -0.113, -0.058, 0.065, 1
839697, 0.12, -0.395, 0.309, -0.188, -0.014, 0.11, 1
839717, 0.038, -0.031, 0.144, -0.218, 0.069, 0.148, 1
839737, 0.293, -0.081, 0.487, -0.117, 0.056, 0.136, 1
839757, -0.153, -0.342, 0.178, 0.009, 0.059, 0.102, 1
839777, 0.206, -0.543, -0.018, 0.032, 0.091, 0.083, 1
839797, 0.344, -0.547, -0.163, -0.014, 0.174, -0.045, 1
839817, 0.386, 0.0, 0.277, -0.114, 0.259, -0.058, 0
839837, 0.33, 0.388, 0.356, 0.021, 0.313, -0.049, 0
839857, 0.014, -0.6, 0.063, 0.272, 0.288, -0.027, 0
839877, -0.127, -0.218, -0.483, 0.236, 0.616, 0.042, 0
839897, -0.016, -0.103, -0.385, 0.266, 1.052, 0.149, 0
839917, -0.859, 0.627, -0.815, 0.396, 1.7, 0.633, 0
839937, -0.859, 0.374, -1.815, 0.968, 3.27, 1.452, 0
839957, 1.704, -1.283, -1.969, 1.565, 4.898, 1.81, 0
839977, 2.665, -1.094, -0.631, 1.902, 5.735, 1.353, 0
839997, 2.259, -0.869, 0.009, 2.326, 6.216, 0.941, 0
840017, 2.151, -2.095, 0.012, 2.783, 6.709, 0.954, 0
840037, 2.438, -1.619, 0.171, 2.865, 6.969, 0.733, 0
840057, 2.341, -0.99, -0.235, 2.934, 6.897, 0.471, 0
840077, 1.744, -0.589, 0.241, 3.216, 6.577, 0.178, 0
840097, 1.729, -0.279, 0.399, 3.506, 6.51, 0.183, 0
840117, 1.112, -0.633, 0.344, 3.8, 6.381, 0.194, 0
840137, 1.588, -1.209, -0.336, 3.934, 6.202, 0.304, 0
840157, 1.646, -1.173, -0.823, 4.018, 5.584, 0.302, 0
840177, 1.717, -1.542, -1.168, 4.131, 4.828, 0.097, 0
840197, 0.461, -2.08, -1.472, 4.185, 4.443, 0.109, 0
840217, 0.678, -2.343, -1.756, 4.133, 4.239, 0.263, 0
840237, 0.952, -2.883, -1.991, 3.943, 4.001, 0.372, 0
840257, 1.067, -2.905, -1.552, 3.892, 3.916, 0.338, 0
840277, 3.093, -3.07, -1.59, 3.869, 3.156, 0.177, 0
840297, 3.34, -3.917, -2.034, 3.411, 1.734, 0.075, 0
840317, 1.31, -3.367, -2.669, 2.905, 0.949, -0.045, 0
840337, 0.357, -2.534, -2.795, 2.598, 0.762, -0.109, 0
840357, -0.069, -2.664, -2.487, 2.36, 0.663, -0.108, 0
840377, 0.497, -1.841, -2.417, 2.278, 0.337, -0.127, 0
840397, 0.446, -1.839, -3.125, 2.045, -0.044, -0.137, 0
840417, -1.08, -2.719, -3.255, 1.619, 0.008, -0.155, 0
840437, -0.725, -1.162, -2.549, 1.534, 0.199, -0.105, 0
840457, -0.325, -0.798, -2.47, 1.585, 0.089, -0.014, 0
840477, -0.022, -0.56, -3.022, 1.536, -0.244, -0.02, 0
840497, -0.062, -0.541, -3.83, 1.281, -0.47, -0.067, 0
840517, -1.199, -0.658, -4.077, 0.806, -0.191, -0.061, 0
840537, -0.7, 0.082, -3.707, 0.554, 0.001, -0.026, 0
840557, -0.169, 0.513, -3.133, 0.476, -0.038, -0.003, 0
840577, -0.19, 0.339, -3.089, 0.346, -0.1, 0.009, 0
840597, -0.451, 0.301, -2.807, 0.141, -0.147, -0.003, 0
840617, -0.438, 0.513, -2.371, -0.018, -0.161, 0.011, 0
840637, -0.675, 0.565, -1.791, -0.131, -0.007, 0.035, 0
840657, -0.44, 0.542, -1.355, -0.167, 0.163, 0.061, 0
840677, -0.111, 0.549, -0.86, -0.202, 0.145, 0.025, 0
840697, 0.13, 0.836, -0.523, -0.17, -0.037, 0.001, 0
840717, -0.196, 0.554, -0.358, -0.144, -0.039, 0.034, 0
840737, -0.067, 0.476, -0.478, -0.171, 0.004, 0.071, 0
840757, -0.008, 0.509, -0.373, -0.25, 0.068, 0.043, 0
840777, 0.206, 0.705, -0.241, -0.253, 0.031, 0.021, 0
840797, 0.144, 0.516, -0.377, -0.194, -0.025, 0.023, 0
840817, -0.179, 0.224, -0.377, -0.193, 0.026, 0.015, 0
840837, -0.035, 0.145, -0.198, -0.244, 0.133, 0.028, 0
840857, 0.181, 0.218, -0.188, -0.275, 0.121, 0.014, 0
840877, 0.168, 0.239, -0.516, -0.334, -0.004, 0.035, 0
840897, 0.116, 0.225, -1.239, -0.456, -0.161, 0.065, 0
840917, -0.828, 0.378, -2.064, -0.665, -0.221, 0.166, 0
840937, -0.731, 0.552, -2.486, -0.814, 0.019, 0.238, 1
840957, -0.665, 0.864, -2.744, -1.009, 0.085, 0.304, 1
840977, 0.436, 0.477, -3.182, -1.386, -0.204, 0.335, 1
840997, 1.394, 0.644, -3.765, -1.91, -0.977, 0.199, 1
841017, -0.339, 0.602, -3.593, -2.472, -2.139, -0.127, 1
841037, -2.89, 1.479, -3.064, -2.819, -2.388, -0.085, 1
841057, -2.153, 1.484, -2.765, -2.921, -2.017, 0.156, 1
841077, 0.979, 0.877, -2.276, -3.224, -2.237, 0.21, 1
841097, 3.899, 0.881, -1.461, -3.911, -4.005, -0.346, 1
841117, 1.862, 0.571, 0.601, -4.692, -6.679, -1.239, 1
841137, -3.696, 1.861, 3.067, -5.337, -8.215, -1.514, 1
841157, -5.942, 3.807, 3.217, -5.131, -7.553, -0.568, 1
841177, -2.867, 4.824, 1.975, -4.171, -5.892, 0.443, 1
841197, 0.703, 3.532, 1.376, -3.028, -5.565, 0.2, 1
841217, -0.177, 1.12, 1.315, -2.828, -5.667, 0.144, 1
841237, -0.838, 0.211, 1.151, -2.485, -4.867, 0.81, 1
841257, 0.36, -0.477, -0.077, -1.986, -3.597, 1.28, 1
841277, 3.37, -0.573, -0.283, -1.746, -3.256, 1.111, 1
841297, 3.659, -0.445, 0.062, -1.565, -3.484, 0.722, 1
841317, 2.688, -0.595, -0.056, -1.217, -3.272, 0.671, 1
841337, 2.23, -0.881, -0.637, -0.941, -2.86, 0.533, 1
841357, 3.558, -1.499, -0.881, -1.094, -3.079, 0.342, 1
841377, 3.687, -0.777, -0.071, -1.342, -3.836, 0.069, 1
841397, 2.474, -0.49, 0.148, -1.404, -4.331, -0.254, 1
841417, 1.473, -0.887, -0.342, -1.523, -4.547, -0.432, 1
841437, 1.181, -0.843, 0.115, -1.72, -4.766, -0.384, 1
841457, -0.158, 0.34, 0.479, -1.348, -4.288, -0.212, 1
841477, -0.018, 0.06, -0.205, -0.777, -3.511, -0.002, 1
841497, 0.147, -0.167, -0.853, -0.39, -2.858, 0.353, 1
841517, 1.59, -1.356, -1.595, -0.331, -2.59, 0.489, 1
841537, 1.357, -0.815, -1.908, -0.357, -2.373, 0.482, 1
841557, 1.106, -0.383, -1.995, -0.175, -1.808, 0.566, 1
841577, 1.268, -0.261, -2.41, 0.088, -1.184, 0.767, 1
841597, 2.405, -0.822, -2.476, 0.037, -0.974, 0.842, 1
841617, 2.536, -0.807, -2.333, -0.091, -0.86, 0.783, 1
841637, 2.482, -0.874, -2.131, -0.234, -0.594, 0.661, 1
841657, 2.531, -0.625, -1.928, -0.366, -0.362, 0.599, 1
841677, 2.471, -0.026, -1.286, -0.249, -0.226, 0.405, 1
841697, 1.419, -0.04, -0.361, -0.212, -0.064, 0.384, 1
841717, 1.58, 0.032, 0.099, -0.196, -0.001, 0.367, 1
841737, 1.77, -0.243, 0.057, -0.129, -0.064, 0.345, 1
841757, 1.459, -0.232, -0.081, -0.167, -0.117, 0.345, 1
841777, 0.919, -0.191, -0.101, -0.169, -0.049, 0.326, 1
841797, 0.978, -0.235, -0.122, -0.107, 0.083, 0.27, 1
841817, 0.989, -0.377, 0.009, -0.029, 0.102, 0.14, 1
841837, 0.937, -0.389, 0.237, -0.07, 0.06, 0.096, 1
841857, 0.808, -0.488, 0.161, -0.146, -0.007, 0.139, 1
841877, 0.424, -0.272, 0.123, -0.171, -0.058, 0.138, 1
841897, 0.368, -0.305, 0.208, -0.089, -0.06, 0.052, 1
841917, 0.222, -0.311, 0.195, -0.04, -0.03, 0.037, 1
841937, 0.274, -0.296, 0.125, -0.001, 0.0, 0.023, 1
841957, 0.322, -0.441, -0.056, 0.047, -0.013, -0.028, 1
841977, 0.06, -0.348, -0.046, -0.021, 0.0, -0.043, 1
841997, -0.018, -0.297, -0.041, -0.094, 0.069, -0.006, 1
842017, 0.121, 0.049, 0.06, -0.042, 0.124, -0.048, 1
842037, 0.09, 0.137, 0.374, 0.183, 0.121, -0.223, 1
842057, 0.215, -0.356, -0.051, 0.224, 0.126, -0.227, 1
842077, 0.07, -0.684, -0.683, 0.106, 0.207, -0.259, 1
842097, 0.059, 0.049, -0.535, -0.029, 0.467, -0.41, 0
842117, 0.065, 0.923, 0.014, 0.13, 0.726, -0.231, 0
842137, -0.546, 0.804, -0.418, 0.524, 0.969, 0.13, 0
842157, -0.588, -0.369, -1.534, 0.819, 1.64, 0.423, 0
842177, 0.22, -1.353, -2.213, 0.674, 2.837, 0.585, 0
842197, 0.397, -0.583, -1.766, 0.722, 3.764, 0.745, 0
842217, -0.312, -0.594, -1.843, 1.252, 5.359, 1.205, 0
842237, 0.367, -0.918, -1.622, 2.062, 6.925, 1.433, 0
842257, 1.458, -0.965, -0.571, 2.827, 7.687, 1.378, 0
842277, 1.771, -0.417, -0.053, 3.634, 7.899, 1.018, 0
842297, 2.137, -0.339, 0.079, 4.302, 7.976, 0.689, 0
842317, 2.141, -1.723, -0.319, 4.444, 8.106, 0.461, 0
842337, 1.839, -2.404, -0.961, 4.203, 8.194, 0.411, 0
842357, 2.704, -1.839, -0.709, 4.117, 7.856, 0.355, 0
842377, 3.034, -1.434, -0.659, 4.427, 7.002, 0.237, 0
842397, 3.277, -2.181, -0.396, 4.854, 5.995, -0.015, 0
842417, 1.837, -2.744, -1.066, 4.955, 5.324, -0.026, 0
842437, 1.678, -4.405, -2.368, 4.617, 4.88, 0.091, 0
842457, 1.973, -4.411, -2.36, 4.195, 4.325, 0.132, 0
842477, 2.746, -4.632, -1.892, 4.07, 3.343, 0.055, 0
842497, 3.076, -4.688, -1.962, 3.877, 2.141, -0.171, 0
842517, 2.079, -5.329, -2.254, 3.582, 1.15, -0.386, 0
842537, 0.369, -5.047, -2.924, 3.271, 0.741, -0.418, 0
842557, -0.561, -4.226, -3.367, 3.109, 0.726, -0.413, 0
842577, 0.089, -3.349, -3.355, 3.007, 0.624, -0.314, 0
842597, 0.138, -3.668, -3.441, 2.755, 0.235, -0.212, 0
842617, 0.308, -2.667, -3.594, 2.557, -0.174, -0.208, 0
842637, -0.29, -2.811, -4.104, 2.293, -0.361, -0.189, 0
842657, -0.355, -1.644, -4.424, 2.028, -0.335, -0.176, 0
842677, 0.149, -0.888, -5.501, 1.738, -0.395, -0.16, 0
842697, -0.488, -0.79, -6.026, 1.293, -0.649, -0.21, 0
842717, -1.445, -0.195, -5.641, 0.845, -0.571, -0.2, 0
842737, -1.839, -0.194, -4.717, 0.494, -0.185, -0.028, 0
842757, -1.247, -0.121, -3.194, 0.342, 0.258, -0.007, 0
842777, -0.639, -0.174, -2.008, 0.278, 0.452, 0.026, 0
842797, 0.091, 0.071, -1.629, 0.191, 0.233, 0.124, 0
842817, 0.177, 0.202, -1.897, 0.112, -0.218, 0.084, 0
842837, -0.932, 0.005, -2.259, -0.017, -0.369, 0.081, 0
842857, -1.038, -0.062, -1.54, -0.167, 0.036, 0.089, 0
842877, -0.093, 0.147, -0.498, -0.221, 0.384, 0.119, 0
842897, 0.616, 0.393, -0.178, -0.159, 0.258, 0.084, 0
842917, 0.236, 0.295, -0.601, -0.084, -0.101, 0.005, 0
842937, -0.461, 0.277, -1.003, -0.156, -0.149, 0.032, 0
842957, -0.365, 0.258, -0.827, -0.282, 0.185, 0.1, 0
842977, 0.431, 0.514, -0.193, -0.287, 0.349, 0.051, 0
842997, 0.609, 0.308, 0.025, -0.206, 0.16, 0.006, 0
843017, 0.329, 0.227, -0.446, -0.2, -0.026, 0.021, 0
843037, -0.047, 0.253, -0.907, -0.276, -0.023, 0.054, 0
843057, 0.042, 0.297, -1.396, -0.431, 0.053, 0.111, 0
843077, -0.366, 0.249, -1.46, -0.601, 0.068, 0.128, 0
843097, -0.382, 0.409, -1.364, -0.734, 0.147, 0.161, 1
843117, -0.354, 0.362, -1.427, -0.871, 0.113, 0.231, 1
843137, 0.164, 0.293, -1.773, -1.01, -0.015, 0.382, 1
843157, -0.096, 0.877, -2.574, -1.387, -0.405, 0.4, 1
843177, -0.778, 1.13, -3.339, -1.573, -0.587, 0.497, 1
843197, -1.67, 1.019, -3.561, -1.847, -0.573, 0.571, 1
843217, -1.264, 0.954, -3.41, -2.203, -0.765, 0.523, 1
843237, -0.314, 0.812, -2.905, -2.715, -1.402, 0.276, 1
843257, 1.462, 1.325, -2.489, -3.23, -2.82, -0.229, 1
843277, 2.237, 1.843, -1.974, -3.85, -4.888, -0.877, 1
843297, -2.551, 1.199, -0.178, -4.476, -5.839, -0.783, 1
843317, -5.975, 1.701, 1.096, -4.626, -4.756, 0.093, 1
843337, -4.19, 1.988, 1.408, -4.407, -3.294, 0.812, 1
843357, 1.6, 2.7, 2.075, -4.056, -3.527, 0.539, 1
843377, 4.044, 3.373, 2.666, -3.759, -5.381, -0.401, 1
843397, 0.559, 2.475, 2.78, -3.572, -6.47, -0.701, 1
843417, -2.384, 2.013, 2.624, -3.235, -5.983, -0.131, 1
843437, -2.269, 2.47, 1.631, -2.646, -4.904, 0.335, 1
843457, 0.443, 1.687, 1.219, -2.325, -4.64, 0.435, 1
843477, 0.532, 1.553, 1.274, -2.053, -4.786, 0.507, 1
843497, -0.014, 0.362, 0.668, -1.798, -4.538, 0.833, 1
843517, -0.001, -0.914, -0.502, -1.58, -3.72, 1.371, 1
843537, 2.56, -1.928, -1.208, -1.6, -3.216, 1.389, 1
843557, 4.878, -1.878, -0.559, -1.861, -3.869, 0.896, 1
843577, 3.823, -0.868, 0.255, -1.824, -4.591, 0.225, 1
843597, 1.642, -0.532, 0.35, -1.554, -4.78, -0.011, 1
843617, 0.498, -0.899, -0.031, -1.301, -4.478, 0.328, 1
843637, 1.294, -1.408, -0.493, -1.12, -4.068, 0.572, 1
843657, 1.475, -0.91, -1.162, -0.976, -3.957, 0.335, 1
843677, 0.758, -0.722, -1.727, -0.685, -3.519, 0.31, 1
843697, 0.85, -0.508, -2.149, -0.425, -2.827, 0.511, 1
843717, 1.667, -0.758, -2.153, -0.229, -2.294, 0.733, 1
843737, 1.898, -1.009, -2.273, -0.173, -1.926, 0.854, 1
843757, 2.239, -1.086, -2.255, -0.078, -1.476, 0.852, 1
843777, 2.825, -0.803, -2.378, -0.023, -1.058, 0.868, 1
843797, 3.451, -0.949, -2.269, -0.089, -0.91, 0.833, 1
843817, 3.345, -0.516, -2.114, -0.116, -0.838, 0.697, 1
843837, 3.194, -0.926, -2.056, -0.11, -0.652, 0.552, 1
843857, 3.188, -0.996, -1.95, -0.2, -0.389, 0.378, 1
843877, 3.137, -1.07, -1.619, -0.378, -0.263, 0.221, 1
843897, 2.288, -0.538, -1.026, -0.566, -0.315, 0.09, 1
843917, 1.463, -0.169, -0.397, -0.587, -0.205, 0.012, 1
843937, 1.342, -0.222, -0.109, -0.502, -0.04, 0.074, 1
843957, 1.037, -0.134, 0.335, -0.483, -0.094, 0.092, 1
843977, 0.97, -0.09, 0.575, -0.464, -0.142, -0.003, 1
843997, 0.639, -0.002, 0.768, -0.375, -0.181, -0.061, 1
844017, 0.484, -0.319, 0.581, -0.301, -0.156, -0.015, 1
844037, 0.126, -0.204, 0.533, -0.356, -0.202, 0.054, 1
844057, -0.028, 0.186, 0.638, -0.306, -0.176, 0.102, 1
844077, 0.163, 0.039, 0.442, -0.047, -0.117, 0.091, 1
844097, 0.156, -0.126, 0.218, 0.102, -0.043, 0.163, 1
844117, 0.418, -0.642, -0.284, 0.119, 0.096, 0.207, 1
844137, 0.589, -0.779, -0.434, -0.147, 0.081, 0.139, 1
844157, 0.298, -0.301, -0.005, -0.2, 0.075, 0.073, 1
844177, 0.143, 0.219, 0.26, 0.032, 0.068, -0.038, 1
844197, 0.234, -0.089, 0.27, 0.195, 0.014, -0.094, 1
844217, 0.31, -0.354, 0.164, 0.093, -0.152, -0.078, 1
844237, -0.056, -0.132, -0.168, -0.036, -0.096, -0.045, 1
844257, -0.169, 0.059, -0.284, 0.009, 0.074, -0.106, 1
844277, -0.069, 0.531, -0.155, 0.288, 0.2, -0.186, 1
844297, -0.086, 0.183, 0.008, 0.478, 0.381, -0.081, 1
844317, 0.188, -0.007, -0.189, 0.491, 0.679, 0.037, 0
844337, -0.098, 0.129, -0.747, 0.399, 1.015, 0.165, 0
844357, -0.106, 0.181, -0.466, 0.497, 1.461, 0.444, 0
844377, 0.179, 0.224, -0.772, 0.755, 2.148, 0.89, 0
844397, 0.688, -0.123, -0.998, 1.128, 2.847, 1.142, 0
844417, 1.256, -1.105, -1.691, 1.416, 3.83, 1.189, 0
844437, 1.67, -1.453, -1.844, 1.624, 4.947, 0.924, 0
844457, 1.656, -0.72, -1.281, 2.141, 5.87, 0.704, 0
844477, 0.888, -0.626, -0.839, 2.831, 6.834, 0.779, 0
844497, 1.134, -1.676, -0.714, 3.358, 7.751, 0.808, 0
844517, 2.892, -2.238, -0.577, 3.61, 8.024, 0.435, 0
844537, 3.605, -1.981, -0.333, 3.751, 7.764, -0.062, 0
844557, 2.695, -1.673, 0.036, 4.092, 7.519, -0.211, 0
844577, 1.741, -1.031, 0.248, 4.704, 7.536, -0.178, 0
844597, 1.252, -1.94, 0.291, 5.109, 7.613, 0.045, 0
844617, 1.984, -2.643, -0.03, 5.284, 6.927, 0.185, 0
844637, 2.76, -3.245, -0.235, 5.134, 5.75, 0.106, 0
844657, 1.785, -3.725, -0.8, 4.973, 4.742, -0.005, 0
844677, 1.917, -4.307, -1.255, 4.712, 4.054, -0.038, 0
844697, 2.483, -4.259, -1.891, 4.31, 3.084, -0.169, 0
844717, 1.469, -3.873, -2.64, 3.847, 1.863, -0.317, 0
844737, 0.175, -3.485, -2.503, 3.409, 1.258, -0.426, 0
844757, -0.212, -2.811, -2.08, 3.341, 1.058, -0.451, 0
844777, 0.332, -3.035, -2.452, 3.302, 0.908, -0.32, 0
844797, 0.761, -3.323, -3.206, 2.95, 0.474, -0.255, 0
844817, -0.068, -2.658, -3.041, 2.406, -0.015, -0.368, 0
844837, -1.323, -2.271, -2.601, 2.194, -0.054, -0.396, 0
844857, -0.456, -1.565, -2.144, 2.247, 0.116, -0.384, 0
844877, -0.108, -1.26, -2.381, 2.346, -0.004, -0.26, 0
844897, -0.089, -1.608, -3.698, 2.248, -0.339, -0.103, 0
844917, -0.713, -1.166, -4.547, 1.816, -0.588, -0.105, 0
844937, -1.106, -0.334, -4.425, 1.408, -0.455, -0.189, 0
844957, -1.31, -0.151, -3.972, 1.24, -0.255, -0.137, 0
844977, -1.087, -0.21, -3.733, 1.175, -0.077, -0.125, 0
844997, -0.961, -0.299, -3.455, 0.984, -0.014, -0.084, 0
845017, -0.791, -0.067, -3.285, 0.67, -0.135, -0.088, 0
845037, -0.887, 0.401, -3.492, 0.329, -0.303, -0.1, 0
845057, -1.198, 0.516, -3.369, 0.151, -0.374, -0.125, 0
845077, -1.284, 0.189, -3.055, 0.059, -0.303, -0.076, 0
845097, -1.246, 0.009, -2.456, -0.182, -0.104, -0.019, 0
845117, -1.141, 0.198, -1.653, -0.266, 0.224, -0.015, 0
845137, -0.401, 0.459, -1.106, -0.216, 0.166, -0.034, 0
845157, -0.256, 0.245, -1.07, -0.234, -0.036, -0.013, 0
845177, -0.807, 0.216, -1.092, -0.306, -0.021, -0.016, 0
845197, -0.894, 0.057, -0.669, -0.436, 0.162, 0.026, 0
845217, -0.686, 0.256, -0.146, -0.529, 0.333, 0.084, 0
845237, -0.336, 0.498, 0.138, -0.483, 0.334, 0.097, 0
845257, -0.074, 0.453, 0.309, -0.396, 0.214, 0.111, 0
845277, -0.186, 0.457, 0.22, -0.31, 0.12, 0.15, 0
845297, -0.05, 0.257, 0.049, -0.291, 0.097, 0.222, 0
845317, -0.039, 0.112, -0.135, -0.375, 0.174, 0.293, 0
845337, 0.074, -0.054, -0.565, -0.649, 0.276, 0.473, 1
845357, -0.131, 0.501, -1.352, -0.867, 0.182, 0.603, 1
845377, 0.017, 0.533, -2.293, -1.026, -0.018, 0.681, 1
845397, -0.68, 0.472, -2.609, -1.071, -0.049, 0.63, 1
845417, -0.815, 0.487, -2.524, -1.166, -0.023, 0.613, 1
845437, -0.558, 0.619, -2.245, -1.256, -0.043, 0.487, 1
845457, 0.594, 0.607, -2.273, -1.373, -0.43, 0.286, 1
845477, 1.863, 0.838, -2.79, -1.63, -1.506, 0.053, 1
845497, 0.386, 0.601, -3.06, -2.028, -2.502, -0.062, 1
845517, -3.676, 0.243, -2.395, -2.452, -2.039, 0.209, 1
845537, -4.299, 0.722, -1.494, -2.612, -0.846, 0.677, 1
845557, -0.114, 0.791, -0.519, -2.68, -0.932, 0.716, 1
845577, 4.908, 1.462, -0.023, -2.782, -3.265, -0.005, 1
845597, 4.567, 1.275, 0.219, -3.603, -7.386, -0.979, 1
845617, -5.23, 2.091, 0.839, -4.005, -7.323, -0.432, 1
845637, -4.511, 4.17, -0.143, -3.761, -5.747, 0.579, 1
845657, 0.137, 4.247, -0.678, -3.293, -4.759, 0.976, 1
845677, 0.807, 4.144, 0.47, -3.134, -5.569, 0.55, 1
845697, -1.923, 3.658, 0.794, -3.059, -6.101, 0.543, 1
845717, -2.513, 3.489, 0.367, -2.725, -5.421, 0.825, 1
845737, -0.645, 2.746, -0.542, -2.256, -4.351, 1.23, 1
845757, 1.044, 2.384, -0.503, -1.981, -4.15, 1.241, 1
845777, 1.603, 0.714, -0.367, -1.921, -4.72, 0.954, 1
845797, 1.667, -0.813, -0.343, -2.058, -5.428, 0.887, 1
845817, 1.355, -1.082, -0.776, -2.001, -5.392, 1.299, 1
845837, 1.977, -1.15, -1.041, -1.728, -4.538, 1.172, 1
845857, 1.966, -0.693, -0.887, -1.455, -4.032, 0.786, 1
845877, 1.135, -0.653, -0.55, -1.108, -3.962, 0.605, 1
845897, 0.847, -0.782, -0.419, -0.982, -4.075, 0.701, 1
845917, 1.601, -1.014, -0.351, -1.062, -4.26, 0.789, 1
845937, 1.318, -0.825, -0.831, -0.998, -4.225, 0.695, 1
845957, 1.197, -0.81, -1.822, -0.577, -3.641, 0.721, 1
845977, 1.571, -1.448, -2.982, -0.2, -2.761, 0.927, 1
845997, 1.859, -1.39, -3.16, -0.111, -2.065, 1.133, 1
846017, 2.288, -1.104, -2.881, -0.094, -1.397, 1.114, 1
846037, 2.391, -0.944, -2.507, -0.136, -0.93, 1.103, 1
846057, 2.573, -0.595, -1.999, -0.157, -0.676, 1.132, 1
846077, 3.01, -0.629, -1.7, -0.086, -0.663, 0.985, 1
846097, 2.78, -0.33, -1.395, -0.037, -0.658, 0.808, 1
846117, 2.691, -0.682, -1.342, -0.103, -0.575, 0.695, 1
846137, 2.507, -0.613, -1.278, -0.171, -0.48, 0.593, 1
846157, 2.412, -0.432, -1.162, -0.091, -0.45, 0.45, 1
846177, 1.866, -0.391, -1.005, -0.036, -0.248, 0.394, 1
846197, 1.749, -0.438, -0.927, -0.087, -0.079, 0.458, 1
846217, 1.639, -0.584, -0.669, -0.151, 0.002, 0.365, 1
846237, 1.406, -0.683, -0.445, -0.289, -0.085, 0.337, 1
846257, 0.77, -0.271, 0.075, -0.27, -0.075, 0.332, 1
846277, 0.746, -0.225, 0.36, -0.113, -0.001, 0.329, 1
846297, 0.86, -0.489, 0.206, -0.052, 0.017, 0.347, 1
846317, 0.798, -0.899, -0.054, -0.199, 0.039, 0.301, 1
846337, 0.364, -0.678, -0.163, -0.39, 0.059, 0.304, 1
846357, 0.106, -0.152, 0.438, -0.302, 0.025, 0.32, 1
846377, 0.157, 0.495, 0.531, -0.11, 0.135, 0.409, 1
846397, 0.759, 0.092, 0.674, 0.102, 0.118, 0.358, 1
846417, 1.144, -0.577, 0.25, 0.102, -0.017, 0.255, 1
846437, 0.751, -0.78, -0.289, -0.077, -0.141, 0.197, 1
846457, 0.116, -0.552, -0.316, -0.145, -0.06, 0.108, 1
846477, 0.154, -0.19, 0.009, -0.069, -0.002, 0.088, 1
846497, 0.234, -0.077, 0.266, 0.029, 0.015, 0.142, 1
846517, 0.317, -0.116, 0.128, 0.127, -0.017, 0.141, 1
846537, 0.49, -0.664, -0.402, 0.017, -0.083, 0.065, 1
846557, 0.284, -0.679, -0.57, -0.174, -0.124, -0.251, 1
846577, -0.2, -0.175, -0.105, -0.003, 0.017, -0.342, 1
846597, 0.029, 0.172, 0.024, 0.226, 0.178, -0.346, 1
846617, 0.02, -0.105, -0.292, 0.301, 0.327, -0.202, 1
846637, -0.161, -0.662, -0.919, 0.075, 0.424, -0.067, 0
846657, -0.227, 0.755, -0.525, 0.047, 0.563, -0.031, 0
846677, -0.752, 0.794, -0.911, 0.508, 1.305, 0.176, 0
846697, -0.873, -0.319, -1.67, 1.037, 2.642, 0.614, 0
846717, 1.057, -1.486, -2.008, 1.243, 3.9, 0.926, 0
846737, 0.639, -0.812, -1.605, 1.271, 4.489, 0.964, 0
846757, 0.188, -0.617, -1.021, 1.877, 5.613, 0.892, 0
846777, 1.149, -0.92, 0.118, 2.87, 7.24, 0.804, 0
846797, 2.711, -2.042, 0.915, 3.86, 8.34, 0.54, 0
846817, 2.952, -2.581, 0.683, 4.276, 8.789, 0.26, 0
846837, 3.288, -2.426, 0.665, 4.277, 8.749, -0.059, 0
846857, 2.755, -1.191, 0.748, 4.244, 8.37, -0.109, 0
846877, 3.486, -1.763, 0.924, 4.488, 7.663, -0.246, 0
846897, 2.776, -1.539, 0.926, 4.683, 6.624, -0.447, 0
846917, 1.571, -1.974, 0.405, 4.896, 5.902, -0.533, 0
846937, 0.363, -2.946, -0.339, 5.167, 5.781, -0.452, 0
846957, 0.975, -3.178, -0.824, 5.291, 5.946, -0.115, 0
846977, 3.543, -4.22, -1.36, 5.128, 5.245, -0.029, 0
846997, 3.983, -4.995, -1.866, 4.533, 3.638, -0.19, 0
847017, 2.703, -4.832, -1.946, 3.789, 2.165, -0.515, 0
847037, 1.104, -4.172, -2.118, 3.276, 1.279, -0.621, 0
847057, 0.707, -3.103, -2.412, 3.077, 0.708, -0.55, 0
847077, 0.427, -3.262, -3.147, 2.997, 0.373, -0.423, 0
847097, -0.203, -3.909, -3.555, 2.656, 0.341, -0.359, 0
847117, -0.197, -3.183, -3.834, 2.354, 0.401, -0.42, 0
847137, -0.017, -2.57, -3.891, 2.067, 0.241, -0.389, 0
847157, -0.046, -2.182, -3.882, 1.833, 0.05, -0.249, 0
847177, 0.325, -1.619, -4.091, 1.66, -0.194, -0.174, 0
847197, 0.033, -1.699, -4.359, 1.449, -0.356, -0.188, 0
847217, -0.611, -1.366, -4.13, 1.201, -0.129, -0.231, 0
847237, -0.337, -1.014, -3.782, 0.981, 0.027, -0.204, 0
847257, 0.167, -0.806, -3.465, 0.788, -0.146, -0.135, 0
847277, -0.021, -0.461, -3.389, 0.67, -0.319, -0.059, 0
847297, -0.392, -0.011, -3.504, 0.616, -0.354, -0.025, 0
847317, -0.582, -0.257, -3.717, 0.421, -0.296, 0.028, 0
847337, -0.732, -0.521, -3.547, 0.062, -0.153, -0.009, 0
847357, -0.797, 0.004, -2.805, -0.197, -0.005, -0.012, 0
847377, -0.561, 0.365, -2.087, -0.248, 0.048, 0.022, 0
847397, -0.329, 0.355, -1.898, -0.256, 0.017, 0.003, 0
847417, -0.271, 0.276, -1.563, -0.327, -0.05, -0.012, 0
847437, -0.566, 0.236, -1.187, -0.428, -0.012, 0.001, 0
847457, -0.694, 0.262, -0.763, -0.464, 0.196, 0.07, 0
847477, -0.208, 0.507, -0.405, -0.46, 0.306, 0.119, 0
847497, -0.017, 0.533, -0.082, -0.376, 0.293, 0.093, 0
847517, 0.205, 0.618, 0.037, -0.257, 0.202, 0.097, 0
847537, 0.211, 0.43, -0.254, -0.352, 0.079, 0.149, 0
847557, -0.048, 0.196, -0.325, -0.536, 0.211, 0.22, 0
847577, -0.062, 0.223, -0.638, -0.828, 0.324, 0.365, 1
847597, 0.15, 0.352, -0.576, -0.988, 0.459, 0.5, 1
847617, 0.206, 0.625, -0.87, -1.025, 0.468, 0.493, 1
847637, 0.265, 0.561, -0.965, -0.927, 0.306, 0.423, 1
847657, 0.234, 0.639, -1.214, -0.853, 0.094, 0.351, 1
847677, 0.216, 0.718, -1.706, -0.853, -0.208, 0.318, 1
847697, 0.864, 0.642, -2.449, -0.989, -0.668, 0.297, 1
847717, 0.951, 0.241, -2.968, -1.324, -1.414, 0.141, 1
847737, -0.422, -0.013, -2.899, -1.85, -2.064, -0.025, 1
847757, -0.513, 0.103, -2.229, -2.461, -2.273, -0.169, 1
847777, -0.545, 1.226, -1.301, -2.963, -2.683, -0.323, 1
847797, -0.8, 1.858, -0.888, -3.041, -3.159, -0.599, 1
847817, -1.609, 1.998, -0.854, -2.939, -3.583, -0.673, 1
847837, -3.625, 1.568, -0.217, -2.96, -3.5, -0.27, 1
847857, -1.934, 2.095, 0.056, -3.006, -2.959, 0.258, 1
847877, 0.842, 2.529, 0.318, -3.076, -3.299, 0.282, 1
847897, 1.603, 2.928, 0.798, -3.301, -4.789, -0.227, 1
847917, -2.19, 2.837, 1.896, -3.584, -6.227, -0.601, 1
847937, -5.423, 2.76, 2.436, -3.659, -5.868, 0.175, 1
847957, -3.438, 2.843, 1.725, -3.121, -3.853, 1.275, 1
847977, 1.978, 2.755, 1.568, -2.456, -2.816, 1.374, 1
847997, 2.889, 2.322, 2.081, -2.048, -3.582, 0.716, 1
848017, 0.307, 1.138, 1.987, -1.685, -4.15, 0.553, 1
848037, -0.767, 0.81, 0.907, -0.997, -2.698, 1.138, 1
848057, 2.556, -0.437, 0.161, -0.944, -2.223, 1.353, 1
848077, 4.895, -0.316, 0.269, -1.083, -2.838, 1.001, 1
848097, 4.326, 0.322, 0.323, -1.18, -3.717, 0.124, 1
848117, 2.284, 0.744, 0.53, -1.225, -4.392, -0.601, 1
848137, -0.018, 1.084, 0.854, -1.254, -4.673, -0.567, 1
848157, -1.15, 1.021, 0.763, -1.111, -4.31, 0.221, 1
848177, -0.838, 0.363, 0.012, -0.881, -3.437, 0.894, 1
848197, 0.935, -0.681, -0.787, -0.83, -2.8, 0.907, 1
848217, 2.311, -1.063, -0.881, -0.968, -2.964, 0.507, 1
848237, 2.15, -0.88, -0.598, -1.151, -3.6, 0.215, 1
848257, 0.985, -0.507, -0.254, -1.235, -3.987, 0.196, 1
848277, 0.699, -0.711, 0.067, -1.293, -4.064, 0.405, 1
848297, 0.336, -0.345, -0.336, -0.949, -3.312, 0.591, 1
848317, 1.221, -1.133, -1.35, -0.613, -2.447, 0.659, 1
848337, 2.226, -1.569, -2.028, -0.555, -2.102, 0.663, 1
848357, 3.291, -1.806, -2.056, -0.761, -2.306, 0.507, 1
848377, 2.345, -0.86, -1.786, -0.733, -2.196, 0.31, 1
848397, 1.651, -0.31, -1.523, -0.473, -1.722, 0.329, 1
848417, 1.595, -0.409, -1.475, -0.282, -1.16, 0.525, 1
848437, 2.102, -0.671, -1.323, -0.245, -0.875, 0.584, 1
848457, 2.607, -0.682, -1.131, -0.299, -0.891, 0.533, 1
848477, 2.15, -0.397, -0.908, -0.262, -0.79, 0.497, 1
848497, 1.669, -0.276, -0.872, -0.124, -0.504, 0.546, 1
848517, 1.688, -0.472, -0.844, -0.05, -0.224, 0.53, 1
848537, 2.012, -0.733, -0.649, -0.124, -0.242, 0.377, 1
848557, 1.673, -0.555, -0.432, -0.254, -0.25, 0.307, 1
848577, 1.049, -0.308, -0.148, -0.306, -0.113, 0.335, 1
848597, 0.985, -0.146, 0.127, -0.205, 0.128, 0.37, 1
848617, 1.41, -0.314, 0.138, -0.058, 0.288, 0.429, 1
848637, 1.743, -0.473, 0.059, 0.003, 0.153, 0.339, 1
848657, 1.432, -0.598, -0.135, -0.034, -0.051, 0.191, 1
848677, 0.587, -0.349, -0.052, -0.169, -0.153, 0.119, 1
848697, 0.388, -0.096, 0.069, -0.191, -0.041, 0.144, 1
848717, 0.65, -0.228, 0.022, -0.124, 0.048, 0.211, 1
848737, 0.712, -0.411, 0.01, -0.139, 0.032, 0.191, 1
848757, 0.523, -0.27, 0.139, -0.128, -0.015, 0.126, 1
848777, 0.494, -0.188, 0.004, 0.026, -0.01, 0.0, 1
848797, -0.081, -0.603, -0.044, 0.265, -0.012, -0.109, 1
848817, 0.004, -0.112, -0.276, 0.151, 0.309, 0.096, 1
848837, 0.218, -0.126, -0.434, 0.264, 0.483, 0.069, 1
848857, 0.479, 0.088, -0.624, 0.484, 0.484, -0.211, 1
848877, 0.479, -0.38, -0.635, 0.714, 0.572, -0.357, 0
848897, -0.37, -0.334, -0.888, 0.499, 1.112, 0.028, 0
848917, 1.012, -0.169, -1.531, 0.827, 1.86, 0.304, 0
848937, 0.919, -0.788, -2.672, 1.05, 2.547, 0.567, 0
848957, 1.49, -1.907, -2.889, 1.295, 3.337, 0.527, 0
848977, 0.379, -1.397, -1.913, 1.371, 4.393, 0.44, 0
848997, 0.773, -1.46, -1.233, 1.867, 5.844, 0.462, 0
849017, 1.937, -1.454, -0.505, 3.017, 7.277, 0.184, 0
849037, 2.186, -1.162, 0.061, 3.701, 7.377, -0.267, 0
849057, 2.653, -2.049, -0.254, 3.869, 7.096, -0.757, 0
849077, 0.849, -1.514, -0.765, 3.812, 7.233, -0.913, 0
849097, 0.6, -1.267, -0.625, 3.786, 7.504, -0.798, 0
849117, 0.995, -0.426, -0.204, 4.057, 7.271, -0.632, 0
849137, 2.233, -0.69, -0.071, 4.507, 6.349, -0.703, 0
849157, 1.54, -1.526, -0.215, 4.804, 5.547, -0.767, 0
849177, 1.019, -2.452, -0.797, 4.895, 4.913, -0.741, 0
849197, -0.088, -2.946, -1.761, 4.842, 4.805, -0.565, 0
849217, 0.409, -3.09, -2.502, 4.783, 4.567, -0.565, 0
849237, 1.015, -3.243, -2.36, 4.62, 3.948, -0.46, 0
849257, 1.661, -4.661, -1.984, 4.156, 3.166, -0.42, 0
849277, 2.007, -3.952, -1.627, 3.775, 2.157, -0.466, 0
849297, 1.552, -4.006, -2.183, 3.399, 1.252, -0.519, 0
849317, 0.317, -3.191, -2.412, 3.186, 0.728, -0.574, 0
849337, -0.512, -3.571, -2.452, 3.028, 0.596, -0.511, 0
849357, -0.332, -2.7, -2.688, 2.871, 0.528, -0.4, 0
849377, -0.065, -2.971, -3.114, 2.505, 0.389, -0.436, 0
849397, 0.269, -2.249, -3.71, 2.233, 0.097, -0.48, 0
849417, -0.208, -2.091, -4.176, 1.976, -0.141, -0.451, 0
849437, -1.005, -2.229, -4.371, 1.588, 0.036, -0.376, 0
849457, -0.926, -1.602, -3.456, 1.308, 0.533, -0.477, 0
849477, 0.218, -0.964, -3.117, 1.3, 0.524, -0.532, 0
849497, 0.446, -0.969, -3.317, 0.987, -0.177, -0.343, 0
849517, -1.432, -0.565, -3.425, 0.643, -0.171, -0.18, 0
849537, -1.043, -0.19, -3.002, 0.445, 0.146, -0.061, 0
849557, -0.388, -0.126, -2.732, 0.367, 0.196, -0.104, 0
849577, -0.425, -0.243, -2.473, 0.313, -0.092, -0.13, 0
849597, -0.839, -0.219, -2.256, 0.163, -0.29, -0.049, 0
849617, -1.08, -0.302, -2.062, -0.056, -0.19, 0.032, 0
849637, -0.835, 0.236, -1.513, -0.268, 0.04, 0.049, 0
849657, -0.391, 0.396, -1.035, -0.194, 0.164, -0.04, 0
849677, -0.064, 0.316, -0.65, -0.062, 0.133, -0.065, 0
849697, -0.064, 0.184, -0.702, -0.075, 0.0, -0.019, 0
849717, -0.447, -0.009, -0.987, -0.233, -0.027, 0.047, 0
849737, -0.403, 0.332, -0.791, -0.397, 0.128, 0.067, 0
849757, 0.038, 0.365, -0.139, -0.327, 0.288, 0.014, 0
849777, 0.433, 0.256, 0.0, -0.222, 0.273, -0.011, 0
849797, 0.297, 0.208, -0.346, -0.207, 0.071, 0.026, 0
849817, 0.019, 0.096, -0.721, -0.213, -0.106, 0.021, 0
849837, -0.33, -0.011, -1.019, -0.291, -0.106, 0.064, 0
849857, -0.285, 0.024, -1.195, -0.379, 0.0, 0.078, 0
849877, -0.194, -0.038, -1.568, -0.489, 0.023, 0.087, 0
849897, -0.31, -0.233, -2.125, -0.67, -0.069, 0.152, 1
849917, -0.544, -0.313, -3.171, -1.056, -0.199, 0.303, 1
849937, -0.542, -0.222, -4.124, -1.508, -0.524, 0.447, 1
849957, -1.551, -0.447, -4.173, -2.01, -0.949, 0.538, 1
849977, -1.375, -0.14, -4.022, -2.441, -1.209, 0.806, 1
849997, 0.264, 0.304, -3.748, -3.0, -2.203, 0.729, 1
850017, 1.083, 0.281, -3.466, -3.48, -3.714, 0.302, 1
850037, -0.51, 0.77, -2.875, -4.02, -5.047, 0.012, 1
850057, -3.409, 1.086, -1.831, -4.517, -5.334, 0.095, 1
850077, -3.925, 1.427, -0.743, -4.964, -5.15, 0.399, 1
850097, -2.062, 2.635, 0.516, -5.228, -5.491, 0.631, 1
850117, -1.845, 3.935, 1.9, -4.986, -5.952, 0.904, 1
850137, -3.218, 4.379, 2.393, -4.2, -5.353, 1.4, 1
850157, -3.369, 2.873, 1.206, -3.389, -3.868, 1.907, 1
850177, 0.334, 1.678, 0.558, -3.038, -3.38, 1.798, 1
850197, 2.594, 1.226, 0.847, -2.978, -4.196, 1.312, 1
850217, 1.832, 0.587, 1.701, -2.948, -5.238, 1.086, 1
850237, 0.702, 0.313, 1.89, -2.536, -5.517, 1.372, 1
850257, 0.186, -0.63, 1.081, -1.811, -4.783, 1.988, 1
850277, 1.69, -1.392, 0.031, -1.078, -3.778, 2.338, 1
850297, 2.917, -2.04, -1.157, -0.809, -3.128, 1.879, 1
850317, 3.09, -2.188, -1.358, -0.827, -2.912, 1.409, 1
850337, 2.786, -1.824, -1.214, -0.885, -3.115, 1.185, 1
850357, 1.908, -1.379, -0.91, -0.952, -3.377, 1.161, 1
850377, 1.364, -1.078, -0.689, -0.938, -3.505, 1.226, 1
850397, 1.08, -1.31, -0.674, -0.885, -3.429, 1.157, 1
850417, 1.24, -1.117, -0.721, -0.68, -3.326, 1.133, 1
850437, 1.491, -1.414, -0.799, -0.403, -3.286, 1.24, 1
850457, 1.538, -1.177, -0.96, -0.07, -2.914, 1.208, 1
850477, 1.91, -1.673, -1.598, 0.214, -2.488, 1.241, 1
850497, 2.525, -2.601, -2.687, 0.234, -2.108, 1.205, 1
850517, 3.021, -2.325, -2.844, 0.049, -1.732, 1.011, 1
850537, 3.268, -1.885, -2.631, -0.096, -1.333, 0.745, 1
850557, 2.413, -1.536, -1.957, -0.138, -1.025, 0.459, 1
850577, 1.41, -0.67, -0.931, -0.227, -0.833, 0.277, 1
850597, 0.809, 0.002, -0.211, -0.232, -0.643, 0.307, 1
850617, 0.626, -0.001, -0.2, -0.182, -0.557, 0.515, 1
850637, 0.847, -0.368, -0.281, -0.287, -0.591, 0.659, 1
850657, 0.931, -0.266, -0.156, -0.36, -0.565, 0.618, 1
850677, 0.834, 0.006, 0.109, -0.282, -0.432, 0.5, 1
850697, 0.382, 0.02, 0.206, -0.153, -0.376, 0.408, 1
850717, 0.478, 0.136, 0.418, -0.072, -0.464, 0.614, 1
850737, 0.993, -0.129, -0.028, -0.047, -0.481, 0.773, 1
850757, 1.913, -0.599, -0.377, 0.104, -0.523, 0.683, 1
850777, 1.842, -1.063, -0.703, 0.097, -0.411, 0.412, 1
850797, 1.578, -0.809, -0.738, -0.036, -0.35, 0.141, 1
850817, 1.143, -0.41, -0.733, -0.18, -0.302, 0.074, 1
850837, 1.171, -0.344, -0.788, -0.255, -0.215, 0.102, 1
850857, 0.91, -0.288, -0.593, -0.306, -0.021, 0.117, 1
850877, 1.565, -0.2, -0.345, -0.257, 0.105, 0.0, 1
850897, 1.343, -0.068, -0.089, -0.21, 0.063, -0.153, 1
850917, 1.025, -0.063, -0.004, -0.131, 0.053, -0.307, 1
850937, 0.737, -0.139, -0.183, -0.108, 0.134, -0.287, 1
850957, 0.509, -0.358, -0.506, -0.198, 0.281, -0.192, 1
850977, 0.498, -0.47, -0.413, -0.249, 0.506, -0.222, 1
850997, 0.685, -0.375, -0.37, -0.216, 0.595, -0.334, 1
851017, 0.92, -0.719, -0.407, -0.208, 0.676, -0.412, 1
851037, 0.506, -0.466, -0.442, -0.092, 0.85, -0.512, 1
851057, -0.179, -0.632, -0.499, -0.097, 1.202, -0.464, 1
851077, -1.369, -0.256, -0.416, -0.021, 1.773, -0.353, 1
851097, -1.545, 0.273, -0.238, 0.343, 2.299, -0.235, 1
851117, -0.669, -0.307, -0.193, 0.611, 2.571, -0.099, 1
851137, 0.338, -0.964, -0.115, 0.618, 2.547, -0.01, 1
851157, -1.106, -0.965, -0.562, 0.896, 3.305, 0.01, 1
851177, -0.949, -1.378, -1.147, 1.69, 4.793, 0.037, 1
851197, 0.389, -2.756, -0.912, 2.162, 6.181, -0.063, 0
851217, 0.554, -1.905, 0.05, 2.744, 7.023, -0.412, 0
851237, 2.571, -1.636, -0.118, 3.387, 6.735, -0.93, 0
851257, 2.516, -3.773, -0.267, 3.125, 6.199, -1.298, 0
851277, 1.138, -2.39, -0.077, 3.298, 6.084, -1.107, 0
851297, 0.064, -2.359, 0.413, 4.028, 6.845, -0.619, 0
851317, 0.653, -2.922, 1.044, 4.912, 7.676, -0.441, 0
851337, 4.247, -3.145, 0.969, 5.914, 7.002, -0.85, 0
851357, 3.181, -4.908, 0.17, 6.213, 6.294, -0.909, 0
851377, 3.697, -6.668, -0.983, 5.843, 5.232, -0.988, 0
851397, 2.036, -6.707, -2.085, 5.372, 5.006, -1.15, 0
851417, 2.026, -5.405, -2.434, 5.223, 4.621, -1.241, 0
851437, 2.876, -5.81, -2.961, 4.758, 3.525, -1.021, 0
851457, 2.093, -6.636, -1.829, 3.772, 1.603, -0.638, 0
851477, 0.882, -4.58, -1.705, 3.528, 1.05, -0.62, 0
851497, 0.805, -4.317, -2.824, 3.53, 0.434, -0.725, 0
851517, 0.291, -4.454, -3.786, 3.384, -0.081, -0.781, 0
851537, -1.228, -4.846, -4.69, 2.972, -0.198, -0.727, 0
851557, -0.894, -3.585, -4.742, 2.478, 0.175, -0.817, 0
851577, -0.376, -1.566, -4.121, 2.26, 0.367, -0.842, 0
851597, -0.468, -2.028, -4.33, 2.229, 0.177, -0.439, 0
851617, -0.517, -2.633, -4.649, 2.015, -0.131, -0.064, 0
851637, 0.117, -2.1, -5.014, 1.709, -0.419, 0.08, 0
851657, -0.363, -1.522, -5.186, 1.364, -0.592, -0.127, 0
851677, -1.03, -1.028, -4.873, 1.035, -0.444, -0.271, 0
851697, -1.294, -1.184, -4.288, 0.75, -0.211, -0.137, 0
851717, -0.653, -0.657, -3.193, 0.515, -0.106, -0.018, 0
851737, -0.792, -0.408, -2.509, 0.4, -0.214, 0.027, 0
851757, -0.997, 0.267, -2.184, 0.472, -0.256, -0.054, 0
851777, -1.01, -0.564, -2.635, 0.593, -0.295, -0.026, 0
851797, -0.928, -0.637, -2.835, 0.276, -0.263, 0.032, 0
851817, -1.142, 0.15, -2.168, -0.097, -0.084, -0.02, 0
851837, -0.682, 0.309, -1.377, -0.084, 0.07, -0.082, 0
851857, -0.363, 0.057, -1.375, -0.062, 0.076, -0.026, 0
851877, -0.592, -0.357, -1.486, -0.113, 0.026, 0.039, 0
851897, -0.467, -0.278, -1.368, -0.227, 0.094, 0.0, 0
851917, -0.348, -0.107, -0.941, -0.351, 0.172, -0.062, 0
851937, -0.227, 0.082, -0.446, -0.321, 0.183, -0.012, 0
851957, 0.09, 0.005, -0.668, -0.277, 0.095, 0.021, 0
851977, -0.175, -0.119, -1.137, -0.398, 0.048, 0.103, 0
851997, -0.678, -0.271, -1.332, -0.626, 0.234, 0.246, 0
852017, -0.674, -0.456, -1.301, -0.951, 0.563, 0.469, 0
852037, -0.178, 0.058, -1.067, -0.921, 0.489, 0.33, 1
852057, 0.362, 0.013, -0.646, -0.693, 0.081, 0.145, 1
852077, -0.155, 0.062, -1.317, -0.567, -0.406, 0.191, 1
852097, -0.828, -0.222, -2.428, -0.764, -0.59, 0.413, 1
852117, -1.388, -0.064, -3.062, -1.15, -0.315, 0.678, 1
852137, -0.895, -0.052, -3.241, -1.573, -0.15, 0.82, 1
852157, 0.383, 0.443, -3.076, -1.715, -0.511, 0.571, 1
852177, 1.37, 0.917, -3.253, -1.572, -1.415, 0.063, 1
852197, -0.383, 0.258, -3.919, -1.766, -2.126, -0.007, 1
852217, -3.917, -0.751, -3.835, -2.369, -1.66, 0.343, 1
852237, -3.867, -0.558, -2.707, -3.051, -0.764, 0.67, 1
852257, 0.439, 0.059, -1.185, -3.668, -1.497, 0.669, 1
852277, 3.775, 1.23, -0.112, -4.056, -4.121, 0.268, 1
852297, 1.648, 1.853, 0.54, -4.296, -6.665, -0.092, 1
852317, -4.727, 1.936, 1.496, -4.464, -6.573, 0.411, 1
852337, -6.906, 3.41, 1.231, -4.139, -4.496, 1.246, 1
852357, -2.617, 3.436, 0.56, -3.686, -3.233, 1.794, 1
852377, 2.255, 2.996, 0.744, -3.656, -4.111, 1.513, 1
852397, 3.015, 2.527, 1.808, -3.798, -5.993, 0.8, 1
852417, -0.659, 0.873, 3.092, -3.805, -6.044, 1.585, 1
852437, 1.92, 1.22, 0.373, -2.737, -3.541, 2.067, 1
852457, 4.57, 0.59, -0.024, -2.16, -3.288, 1.791, 1
852477, 4.212, -0.061, 0.039, -1.993, -4.15, 0.877, 1
852497, 1.603, 0.279, 0.921, -2.089, -5.071, -0.009, 1
852517, -0.336, 0.138, 0.862, -1.813, -5.248, 0.057, 1
852537, 0.441, -0.673, 0.252, -1.463, -4.673, 0.824, 1
852557, 2.072, -1.422, -0.346, -1.24, -4.22, 1.491, 1
852577, 2.339, -1.75, -1.102, -1.13, -3.929, 1.457, 1
852597, 1.681, -1.316, -1.137, -1.005, -3.554, 1.009, 1
852617, 0.687, -0.689, -0.926, -0.778, -3.09, 0.817, 1
852637, 1.002, -0.993, -0.969, -0.506, -2.631, 1.071, 1
852657, 1.545, -1.318, -1.111, -0.374, -2.378, 1.324, 1
852677, 1.984, -1.518, -1.264, -0.276, -2.208, 1.386, 1
852697, 2.285, -1.78, -1.67, -0.164, -1.96, 1.284, 1
852717, 2.468, -1.624, -1.967, -0.125, -1.626, 1.151, 1
852737, 2.651, -1.45, -1.883, -0.067, -1.346, 1.093, 1
852757, 3.198, -1.568, -2.021, -0.045, -1.016, 1.033, 1
852777, 3.778, -1.604, -2.067, -0.15, -0.854, 0.934, 1
852797, 3.549, -1.296, -1.744, -0.276, -0.772, 0.693, 1
852817, 3.277, -1.009, -1.548, -0.331, -0.558, 0.522, 1
852837, 3.165, -0.769, -1.277, -0.254, -0.259, 0.361, 1
852857, 3.455, -0.882, -1.109, -0.209, -0.061, 0.193, 1
852877, 3.49, -0.931, -0.853, -0.348, -0.249, -0.046, 1
852897, 1.712, -0.686, -0.203, -0.632, -0.607, -0.259, 1
852917, 0.01, 0.407, 0.63, -0.588, -0.392, -0.238, 1
852937, -0.251, 0.604, 1.037, -0.285, -0.026, 0.027, 1
852957, 0.412, 0.344, 1.005, -0.053, 0.059, 0.15, 1
852977, 0.947, -0.346, 0.763, -0.084, -0.135, 0.091, 1
852997, 1.04, -0.53, 0.633, -0.249, -0.436, 0.029, 1
853017, 0.55, -0.203, 0.601, -0.233, -0.476, 0.023, 1
853037, 0.417, -0.062, 0.361, -0.057, -0.315, 0.036, 1
853057, 0.224, -0.196, 0.149, 0.072, -0.16, 0.018, 1
853077, 0.124, -0.365, 0.069, 0.068, -0.12, 0.02, 1
853097, 0.112, -0.458, 0.083, -0.059, -0.055, 0.155, 1
853117, 0.437, -0.312, -0.024, -0.054, 0.04, 0.133, 1
853137, 0.797, -0.374, -0.053, -0.014, -0.039, 0.048, 1
853157, 0.552, -0.412, -0.101, 0.01, -0.087, -0.103, 1
853177, -0.051, -0.445, -0.363, -0.089, 0.04, -0.017, 1
853197, -0.152, -0.038, -0.269, -0.02, 0.219, 0.029, 1
853217, 0.228, -0.046, -0.234, 0.119, 0.278, 0.026, 1
853237, 0.582, -0.258, -0.255, 0.173, 0.199, 0.004, 1
853257, 0.348, -0.876, -0.615, 0.048, 0.312, -0.118, 1
853277, 0.886, -0.23, -0.33, 0.125, 0.455, -0.255, 1
853297, 0.934, -0.048, -0.356, 0.284, 0.662, -0.24, 1
853317, -0.869, 0.7, -0.734, 0.643, 1.634, -0.003, 0
853337, -0.883, -0.471, -2.095, 0.98, 3.117, 0.317, 0
853357, 0.631, -1.028, -2.361, 1.003, 4.048, 0.496, 0
853377, 0.642, -1.009, -1.61, 0.932, 4.724, 0.673, 0
853397, 0.915, -0.388, -1.492, 1.646, 5.353, 0.279, 0
853417, 2.615, -2.038, 0.228, 1.702, 5.631, 0.051, 0
853437, 0.573, -1.619, 0.278, 2.089, 6.482, 0.056, 0
853457, 2.025, -1.882, 1.473, 2.902, 8.041, -0.095, 0
853477, 3.691, -1.495, 2.506, 3.739, 8.562, -0.447, 0
853497, 2.99, -1.863, 2.591, 4.376, 8.222, -0.698, 0
853517, 3.542, -2.748, 1.93, 4.657, 7.932, -0.773, 0
853537, 2.643, -2.419, 1.373, 4.707, 7.337, -0.797, 0
853557, 1.302, -1.822, 1.005, 5.077, 7.122, -0.675, 0
853577, 3.364, -3.554, 0.579, 5.475, 6.794, -0.535, 0
853597, 4.153, -4.714, -0.191, 5.25, 5.492, -0.46, 0
853617, 3.632, -5.287, -1.271, 4.663, 3.787, -0.592, 0
853637, 1.409, -4.757, -1.449, 4.127, 2.203, -0.816, 0
853657, -0.804, -4.65, -1.412, 3.819, 1.55, -0.73, 0
853677, 0.103, -3.915, -1.241, 3.652, 1.398, -0.423, 0
853697, 1.008, -3.809, -1.94, 3.572, 0.895, -0.298, 0
853717, -0.147, -4.106, -2.592, 3.354, 0.357, -0.384, 0
853737, -0.414, -3.586, -3.026, 3.105, 0.213, -0.425, 0
853757, 0.004, -2.879, -3.208, 2.879, 0.038, -0.347, 0
853777, -0.233, -2.731, -3.418, 2.736, -0.197, -0.306, 0
853797, -0.494, -2.343, -3.761, 2.612, -0.375, -0.27, 0
853817, -0.708, -2.513, -4.44, 2.417, -0.493, -0.179, 0
853837, -0.59, -2.03, -5.068, 2.079, -0.623, -0.156, 0
853857, -1.199, -1.431, -5.244, 1.7, -0.614, -0.199, 0
853877, -1.519, -1.248, -5.206, 1.39, -0.39, -0.139, 0
853897, -0.948, -0.565, -4.699, 1.007, -0.162, -0.06, 0
853917, -0.699, -0.885, -4.313, 0.712, -0.313, 0.003, 0
853937, -1.055, -0.723, -4.129, 0.365, -0.405, 0.041, 0
853957, -1.432, -0.19, -3.651, 0.235, -0.257, -0.005, 0
853977, -1.534, -0.268, -3.162, 0.193, -0.055, -0.007, 0
853997, -1.157, -0.513, -2.403, 0.09, 0.103, -0.006, 0
854017, -0.855, -0.417, -1.875, -0.067, 0.138, 0.051, 0
854037, -0.559, -0.155, -1.414, -0.2, 0.114, 0.13, 0
854057, -0.478, 0.172, -1.263, -0.189, 0.053, 0.139, 0
854077, -0.403, -0.022, -1.14, -0.197, 0.081, 0.155, 0
854097, -0.388, -0.189, -0.981, -0.267, 0.169, 0.167, 0
854117, -0.249, -0.226, -0.451, -0.37, 0.224, 0.219, 0
854137, -0.02, -0.186, -0.38, -0.579, 0.35, 0.403, 1
854157, 0.018, 0.144, -1.008, -0.831, 0.317, 0.696, 1
854177, 0.169, 0.413, -1.343, -1.054, 0.194, 0.769, 1
854197, 0.215, 0.432, -1.53, -1.077, -0.016, 0.576, 1
854217, -0.101, 0.499, -1.525, -1.039, -0.083, 0.354, 1
854237, 0.01, 0.321, -1.723, -1.015, -0.266, 0.173, 1
854257, 0.554, 0.214, -1.965, -1.023, -0.757, -0.031, 1
854277, 0.093, -0.171, -2.453, -1.251, -1.326, -0.045, 1
854297, -1.599, -0.096, -2.919, -1.604, -1.53, 0.102, 1
854317, -1.847, 0.451, -3.127, -1.966, -1.587, 0.259, 1
854337, -0.726, 0.544, -3.045, -2.492, -2.131, 0.352, 1
854357, -1.195, 0.546, -2.505, -3.099, -2.827, 0.342, 1
854377, -1.765, 1.355, -1.69, -3.561, -3.425, 0.191, 1
854397, -2.017, 1.388, -1.329, -3.712, -3.727, 0.186, 1
854417, -2.47, 2.103, -0.436, -3.873, -3.916, 0.469, 1
854437, -2.673, 3.387, 0.031, -3.827, -3.585, 0.993, 1
854457, -2.018, 3.59, 0.284, -3.519, -3.115, 1.249, 1
854477, -1.46, 3.519, 0.598, -3.147, -2.793, 1.415, 1
854497, -0.883, 2.615, 0.909, -2.794, -2.511, 1.74, 1
854517, 0.578, 2.135, 1.237, -2.425, -2.253, 2.083, 1
854537, 2.742, 1.491, 1.067, -2.167, -2.258, 2.112, 1
854557, 4.163, 1.504, 0.913, -2.251, -3.061, 1.502, 1
854577, 2.265, 1.332, 1.029, -2.573, -4.324, 0.72, 1
854597, -0.111, 1.675, 1.39, -2.732, -4.755, 0.599, 1
854617, -0.528, 2.182, 0.993, -2.349, -4.158, 0.939, 1
854637, 1.4, 1.008, 0.247, -1.761, -3.491, 1.232, 1
854657, 2.541, 0.334, -0.123, -1.552, -3.466, 1.179, 1
854677, 2.114, -0.337, -0.025, -1.728, -3.921, 0.624, 1
854697, 1.665, -0.581, 0.304, -1.941, -4.437, 0.235, 1
854717, 0.745, -0.028, 0.548, -1.93, -4.885, 0.343, 1
854737, 0.625, -0.238, 0.453, -1.668, -4.976, 0.532, 1
854757, 0.565, -0.561, 0.13, -1.38, -4.891, 0.594, 1
854777, 0.674, -1.358, -0.537, -1.213, -4.718, 0.528, 1
854797, 1.215, -1.343, -1.012, -1.204, -4.582, 0.605, 1
854817, 0.852, -0.807, -1.508, -0.973, -4.207, 0.926, 1
854837, 1.109, -0.966, -2.319, -0.455, -3.133, 1.085, 1
854857, 2.252, -1.696, -3.084, 0.01, -1.989, 1.218, 1
854877, 3.459, -2.203, -3.194, -0.074, -1.392, 1.155, 1
854897, 3.934, -1.861, -2.804, -0.37, -1.465, 0.928, 1
854917, 3.189, -1.059, -2.176, -0.475, -1.335, 0.733, 1
854937, 2.746, -0.35, -1.802, -0.301, -0.945, 0.719, 1
854957, 2.741, -0.204, -1.647, -0.105, -0.548, 0.718, 1
854977, 3.193, -0.834, -1.672, -0.12, -0.448, 0.675, 1
854997, 3.083, -0.954, -1.461, -0.345, -0.485, 0.513, 1
855017, 2.535, -0.571, -1.027, -0.448, -0.365, 0.37, 1
855037, 2.02, -0.375, -0.698, -0.43, -0.167, 0.326, 1
855057, 1.513, -0.369, -0.291, -0.43, -0.021, 0.345, 1
855077, 1.095, -0.255, 0.126, -0.416, 0.007, 0.39, 1
855097, 1.259, -0.098, 0.494, -0.356, -0.04, 0.429, 1
855117, 1.458, -0.143, 0.522, -0.222, -0.094, 0.397, 1
855137, 1.273, -0.266, 0.373, -0.13, -0.044, 0.345, 1
855157, 0.964, -0.469, 0.316, -0.145, 0.015, 0.314, 1
855177, 0.823, -0.321, 0.447, -0.181, -0.02, 0.345, 1
855197, 0.849, -0.185, 0.482, -0.114, -0.12, 0.32, 1
855217, 0.785, -0.28, 0.331, -0.048, -0.149, 0.327, 1
855237, 0.713, -0.39, 0.11, -0.007, -0.053, 0.317, 1
855257, 0.787, -0.576, -0.141, -0.021, 0.086, 0.277, 1
855277, 0.851, -0.666, -0.15, -0.111, 0.047, 0.193, 1
855297, 0.575, -0.495, 0.066, -0.204, -0.064, 0.177, 1
855317, 0.336, -0.204, 0.205, -0.16, -0.087, 0.171, 1
855337, 0.499, -0.069, 0.232, 0.007, -0.015, 0.142, 1
855357, 0.589, -0.229, -0.127, 0.124, 0.042, 0.046, 1
855377, 0.7, -0.627, -0.808, -0.026, 0.013, -0.059, 1
855397, 0.378, -0.413, -0.599, -0.142, 0.081, -0.157, 1
855417, 0.134, 0.059, -0.26, -0.118, 0.158, -0.226, 1
855437, -0.171, 0.322, -0.075, 0.161, 0.235, -0.326, 1
855457, -0.392, -0.392, -0.34, 0.386, 0.441, -0.344, 1
855477, -0.788, 0.498, -0.582, 0.409, 0.808, -0.103, 1
855497, -0.218, 0.588, -0.327, 0.992, 1.273, -0.015, 1
855517, -0.508, -0.352, -0.51, 1.24, 1.929, 0.383, 0
855537, -0.806, 0.076, -0.714, 1.422, 2.896, 0.896, 0
855557, 1.121, -1.684, -1.42, 1.789, 4.254, 1.12, 0
855577, 3.415, -2.456, -1.486, 1.761, 5.139, 0.827, 0
855597, 2.869, -2.518, -0.758, 1.668, 5.341, 0.435, 0
855617, 1.665, -1.915, 0.068, 1.962, 6.216, 0.28, 0
855637, 2.152, -1.892, 1.156, 2.836, 7.713, 0.164, 0
855657, 5.003, -2.722, 2.229, 3.99, 8.31, -0.411, 0
855677, 4.368, -2.138, 2.392, 4.544, 7.872, -1.091, 0
855697, 3.119, -3.053, 1.392, 4.771, 7.483, -1.375, 0
855717, 1.797, -2.635, 0.673, 4.582, 7.401, -1.254, 0
855737, 0.971, -1.873, 0.643, 4.741, 7.321, -0.977, 0
855757, 2.377, -2.744, 1.032, 5.161, 6.932, -0.841, 0
855777, 2.595, -3.758, 0.644, 5.255, 6.182, -0.7, 0
855797, 2.954, -4.047, -0.181, 5.097, 5.208, -0.659, 0
855817, 2.041, -4.618, -1.459, 4.784, 3.962, -0.501, 0
855837, 1.403, -4.409, -2.582, 4.279, 2.946, -0.213, 0
855857, 2.024, -3.645, -2.437, 3.901, 1.369, -0.293, 0
855877, 1.82, -3.769, -2.625, 3.703, 0.433, -0.426, 0
855897, 0.124, -4.314, -3.234, 3.263, 0.156, -0.437, 0
855917, -1.07, -4.362, -3.289, 2.734, 0.439, -0.292, 0
855937, -0.704, -3.198, -2.349, 2.624, 0.645, -0.272, 0
855957, 0.37, -2.592, -1.94, 2.724, 0.394, -0.205, 0
855977, 0.058, -3.276, -2.156, 2.643, 0.014, -0.281, 0
855997, -0.218, -3.276, -2.714, 2.403, -0.29, -0.276, 0
856017, -1.062, -2.71, -2.808, 2.011, -0.27, -0.287, 0
856037, -1.011, -1.257, -2.94, 1.943, -0.11, -0.243, 0
856057, -0.334, -0.65, -3.823, 2.011, -0.274, -0.141, 0
856077, -0.242, -1.366, -4.881, 1.802, -0.607, -0.043, 0
856097, -0.91, -2.069, -5.439, 1.128, -0.685, -0.093, 0
856117, -1.624, -0.887, -4.896, 0.592, -0.449, -0.133, 0
856137, -1.543, -0.023, -4.138, 0.47, -0.169, -0.029, 0
856157, -1.172, -0.193, -3.582, 0.511, -0.037, 0.035, 0
856177, -0.92, -0.486, -3.297, 0.35, -0.073, 0.056, 0
856197, -1.006, -0.444, -2.893, 0.081, -0.15, 0.098, 0
856217, -1.024, -0.231, -2.531, -0.138, -0.107, 0.134, 0
856237, -0.902, -0.133, -2.065, -0.282, -0.015, 0.115, 0
856257, -0.761, 0.114, -1.613, -0.3, 0.056, 0.092, 0
856277, -0.621, -0.099, -1.516, -0.372, 0.082, 0.136, 0
856297, -0.216, -0.03, -1.783, -0.576, 0.013, 0.235, 1
856317, -0.599, -0.223, -2.236, -0.938, 0.015, 0.413, 1
856337, -0.866, -0.08, -2.452, -1.509, 0.171, 0.604, 1
856357, -0.092, -0.706, -1.826, -1.729, -0.095, 0.429, 1
856377, 0.027, -0.225, -1.509, -1.938, -0.697, 0.218, 1
856397, -0.478, 0.391, -1.664, -2.013, -1.383, 0.097, 1
856417, -1.128, 0.961, -2.147, -2.01, -1.79, 0.136, 1
856437, -1.554, 0.765, -2.568, -2.045, -2.026, 0.21, 1
856457, -1.922, 0.461, -2.601, -2.288, -2.102, 0.367, 1
856477, -0.882, -0.041, -2.161, -2.784, -2.191, 0.429, 1
856497, 0.375, 0.609, -1.376, -3.409, -2.903, 0.245, 1
856517, -0.678, 1.754, -0.39, -3.845, -4.082, -0.047, 1
856537, -2.668, 3.042, 0.077, -3.851, -4.696, -0.082, 1
856557, -4.42, 4.146, -0.022, -3.537, -4.462, 0.278, 1
856577, -3.903, 3.247, -0.347, -3.157, -3.569, 0.835, 1
856597, -1.589, 2.713, -0.071, -3.221, -2.91, 1.276, 1
856617, -0.16, 3.248, 0.894, -3.375, -3.015, 1.295, 1
856637, -0.038, 3.545, 1.638, -3.252, -3.255, 1.294, 1
856657, -0.137, 3.128, 1.78, -2.867, -3.203, 1.483, 1
856677, 0.883, 2.463, 1.389, -2.339, -2.995, 1.664, 1
856697, 1.316, 1.26, 1.07, -2.055, -2.907, 1.582, 1
856717, 1.853, 1.422, 1.038, -2.064, -2.883, 1.249, 1
856737, 1.65, 1.835, 1.029, -2.087, -3.188, 0.86, 1
856757, 0.776, 1.467, 1.013, -1.969, -3.561, 0.827, 1
856777, 0.883, -0.313, 0.625, -1.662, -3.402, 1.402, 1
856797, 3.17, -1.726, -0.093, -1.487, -2.747, 1.8, 1
856817, 5.579, -1.748, 0.354, -1.866, -2.775, 0.781, 1
856837, 4.914, -0.666, 1.185, -1.954, -4.097, -0.173, 1
856857, 2.587, 0.336, 1.702, -1.651, -4.715, -0.629, 1
856877, 1.132, -0.26, 1.405, -1.401, -4.938, -0.328, 1
856897, 0.765, -0.474, 0.717, -1.229, -4.64, 0.405, 1
856917, 0.861, -0.59, -0.18, -1.0, -3.708, 0.784, 1
856937, 1.836, -1.165, -1.111, -0.74, -2.764, 0.494, 1
856957, 3.394, -1.476, -1.24, -0.808, -2.794, 0.138, 1
856977, 3.415, -0.96, -0.465, -0.97, -3.395, -0.04, 1
856997, 1.461, 0.266, -0.075, -0.766, -3.34, -0.029, 1
857017, 0.132, 0.666, -0.536, -0.297, -2.536, 0.22, 1
857037, -0.035, 0.128, -1.287, 0.089, -1.514, 0.545, 1
857057, 1.713, -0.847, -1.306, 0.031, -1.158, 0.642, 1
857077, 2.103, -0.894, -1.102, -0.08, -1.136, 0.618, 1
857097, 2.359, -0.555, -0.779, -0.108, -1.236, 0.588, 1
857117, 1.702, -0.361, -0.765, 0.067, -1.021, 0.64, 1
857137, 1.701, -0.444, -1.022, 0.26, -0.673, 0.701, 1
857157, 2.257, -1.149, -1.362, 0.229, -0.571, 0.643, 1
857177, 2.701, -1.547, -1.314, -0.06, -0.72, 0.453, 1
857197, 2.248, -0.885, -1.01, -0.195, -0.673, 0.329, 1
857217, 1.852, -0.436, -0.959, -0.097, -0.394, 0.284, 1
857237, 1.787, -0.549, -1.055, -0.055, -0.201, 0.265, 1
857257, 1.581, -0.724, -0.867, -0.183, -0.153, 0.213, 1
857277, 1.454, -0.441, -0.503, -0.27, -0.161, 0.117, 1
857297, 1.181, -0.179, -0.236, -0.257, -0.13, 0.089, 1
857317, 0.692, -0.071, -0.132, -0.154, 0.017, 0.117, 1
857337, 0.521, -0.092, -0.035, -0.036, 0.184, 0.144, 1
857357, 1.141, -0.613, 0.034, -0.091, 0.163, 0.089, 1
857377, 0.955, -0.485, 0.203, -0.236, -0.004, -0.009, 1
857397, 0.393, -0.133, 0.228, -0.205, -0.047, -0.102, 1
857417, -0.096, -0.044, 0.316, -0.007, 0.01, -0.156, 1
857437, -0.08, -0.32, 0.179, 0.107, 0.175, -0.015, 1
857457, 0.375, -0.202, -0.061, 0.156, 0.243, -0.012, 1
857477, 0.414, -0.524, -0.3, 0.227, 0.252, -0.114, 1
857497, 0.255, -0.15, -0.133, 0.357, 0.328, -0.293, 1
857517, 0.233, -0.331, 0.389, 0.635, 0.533, -0.254, 0
857537, -0.396, 0.3, 0.095, 0.629, 1.131, 0.149, 0
857557, 0.743, -0.485, -0.602, 0.903, 1.894, 0.419, 0
857577, 2.143, -0.861, -1.039, 0.896, 2.141, 0.329, 0
857597, 0.853, -0.882, -1.564, 0.81, 2.076, 0.185, 0
857617, -0.631, -1.417, -2.766, 0.948, 3.318, 0.48, 0
857637, 0.296, -1.79, -2.684, 1.309, 5.528, 0.809, 0
857657, 1.734, -1.757, -0.881, 2.011, 7.235, 0.675, 0
857677, 3.368, -1.516, 0.602, 2.796, 8.053, 0.2, 0
857697, 2.961, -1.366, 0.968, 3.44, 8.252, -0.271, 0
857717, 2.668, -1.284, 0.684, 3.884, 8.483, -0.534, 0
857737, 1.741, -0.942, 0.547, 4.032, 8.737, -0.594, 0
857757, 1.939, -0.852, 1.477, 4.568, 9.057, -0.597, 0
857777, 3.049, -0.95, 1.745, 5.075, 9.1, -0.625, 0
857797, 4.485, -2.825, 0.937, 5.075, 7.464, -0.572, 0
857817, 4.358, -3.743, -0.038, 4.501, 5.563, -0.445, 0
857837, 2.004, -3.297, -0.799, 4.169, 4.313, -0.348, 0
857857, 1.697, -3.222, -0.323, 4.256, 3.449, -0.472, 0
857877, 1.482, -4.293, -0.286, 4.259, 2.802, -0.524, 0
857897, 2.017, -4.311, -1.271, 4.014, 1.843, -0.478, 0
857917, 1.236, -4.101, -2.207, 3.566, 0.873, -0.459, 0
857937, -0.446, -4.192, -2.372, 3.142, 0.445, -0.413, 0
857957, -1.042, -3.976, -1.816, 2.993, 0.428, -0.364, 0
857977, -0.175, -3.124, -1.417, 3.102, 0.35, -0.442, 0
857997, 0.586, -2.54, -2.035, 3.16, -0.265, -0.392, 0
858017, -0.452, -3.048, -3.212, 2.791, -0.799, -0.248, 0
858037, -1.638, -2.66, -3.883, 2.29, -0.81, -0.151, 0
858057, -2.123, -1.723, -3.891, 2.051, -0.464, -0.141, 0
858077, -1.413, -1.163, -3.782, 1.955, -0.28, -0.081, 0
858097, -0.423, -1.109, -4.251, 1.77, -0.554, -0.124, 0
858117, -1.14, -1.072, -4.614, 1.354, -0.703, -0.21, 0
858137, -2.19, -0.858, -4.817, 0.968, -0.496, -0.046, 0
858157, -2.1, -0.371, -4.663, 0.784, -0.202, 0.053, 0
858177, -1.646, -0.278, -3.847, 0.601, 0.043, 0.086, 0
858197, -1.491, -0.222, -2.799, 0.38, 0.139, 0.118, 0
858217, -0.722, 0.054, -2.376, 0.223, -0.05, 0.128, 0
858237, -0.495, 0.062, -2.383, 0.081, -0.276, 0.126, 0
858257, -0.745, 0.354, -2.53, 0.039, -0.321, 0.105, 0
858277, -1.372, -0.083, -2.43, 0.0, 0.032, 0.084, 0
858297, -0.015, -0.179, -1.659, -0.357, 0.341, 0.103, 0
858317, -0.101, 0.176, -1.884, -0.511, 0.127, 0.084, 0
858337, -0.561, 0.053, -2.296, -0.643, 0.02, 0.12, 0
858357, -1.219, -0.043, -2.598, -0.923, 0.122, 0.245, 1
858377, -1.941, 0.175, -2.442, -1.247, 0.501, 0.417, 1
858397, -0.852, 0.173, -1.586, -1.607, 0.871, 0.595, 1
858417, 0.601, 0.642, -0.793, -1.733, 0.513, 0.686, 1
858437, 1.653, 0.762, -1.522, -1.58, -0.585, 0.516, 1
858457, -0.093, 1.061, -2.913, -1.563, -1.926, 0.465, 1
858477, -2.254, 1.047, -4.078, -1.562, -2.24, 0.383, 1
858497, -3.498, 0.136, -4.01, -1.855, -1.593, 0.369, 1
858517, -0.853, 0.069, -2.973, -2.372, -1.0, 0.307, 1
858537, 0.934, 0.333, -2.101, -2.931, -1.888, 0.164, 1
858557, -0.344, 0.95, -1.104, -3.432, -3.567, 0.111, 1
858577, -3.202, 1.162, -0.13, -3.758, -4.334, 0.387, 1
858597, -1.959, 0.789, 0.564, -4.053, -3.954, 0.815, 1
858617, 0.483, 1.866, 1.49, -4.31, -4.045, 0.755, 1
858637, -0.853, 3.211, 2.716, -4.25, -4.757, 0.672, 1
858657, -2.262, 4.327, 2.93, -3.605, -4.419, 0.917, 1
858677, -1.851, 3.4, 2.143, -2.687, -3.314, 1.306, 1
858697, 1.802, 1.832, 1.135, -2.2, -2.484, 1.577, 1
858717, 4.231, 1.804, 1.101, -2.393, -3.196, 1.114, 1
858737, 2.778, 2.04, 1.633, -2.764, -4.574, 0.643, 1
858757, 0.738, 2.129, 1.903, -2.803, -5.2, 0.548, 1
858777, 0.496, 1.907, 1.246, -2.205, -4.449, 1.057, 1
858797, 2.539, 0.501, 0.504, -2.102, -4.357, 0.778, 1
858817, 3.341, 0.151, 0.769, -2.326, -5.112, 0.168, 1
858837, 1.553, 1.025, 1.656, -2.22, -5.772, -0.006, 1
858857, 0.354, 0.539, 1.092, -1.662, -5.235, 0.571, 1
858877, 0.195, 0.045, -0.198, -1.051, -3.693, 1.068, 1
858897, 1.975, -0.961, -1.298, -0.629, -2.406, 1.097, 1
858917, 3.494, -1.259, -1.441, -0.558, -2.185, 0.881, 1
858937, 3.494, -0.803, -0.956, -0.615, -2.619, 0.558, 1
858957, 1.94, -0.275, -0.473, -0.694, -2.869, 0.327, 1
858977, 0.836, 0.059, -0.04, -0.716, -2.839, 0.325, 1
858997, 0.521, 0.146, 0.17, -0.634, -2.678, 0.509, 1
859017, 0.623, -0.187, -0.12, -0.46, -2.36, 0.691, 1
859037, 1.457, -0.609, -0.74, -0.32, -2.081, 0.788, 1
859057, 2.451, -1.274, -1.192, -0.321, -1.935, 0.726, 1
859077, 2.253, -1.024, -1.195, -0.284, -1.672, 0.623, 1
859097, 1.717, -0.712, -1.366, -0.082, -1.145, 0.571, 1
859117, 1.665, -0.794, -1.325, -0.004, -0.762, 0.637, 1
859137, 1.947, -1.038, -1.301, -0.078, -0.637, 0.64, 1
859157, 2.397, -1.222, -1.044, -0.291, -0.784, 0.505, 1
859177, 2.203, -0.87, -0.738, -0.474, -0.966, 0.357, 1
859197, 1.138, 0.025, -0.449, -0.341, -0.761, 0.292, 1
859217, 0.613, 0.103, -0.439, -0.089, -0.33, 0.395, 1
859237, 0.985, -0.261, -0.559, -0.021, -0.091, 0.511, 1
859257, 1.66, -0.696, -0.578, -0.241, -0.197, 0.31, 1
859277, 1.054, -0.664, -0.389, -0.34, -0.431, 0.144, 1
859297, 0.495, -0.135, -0.23, -0.257, -0.254, 0.134, 1
859317, 0.809, -0.428, -0.15, -0.111, 0.025, 0.194, 1
859337, 1.247, -0.758, -0.238, -0.117, 0.01, 0.2, 1
859357, 1.065, -0.666, -0.238, -0.232, -0.188, 0.149, 1
859377, 0.632, -0.312, -0.073, -0.288, -0.293, 0.05, 1
859397, 0.399, -0.157, 0.016, -0.138, -0.2, -0.061, 1
859417, 0.215, -0.338, -0.013, 0.01, -0.023, -0.127, 1
859437, 0.059, -0.26, -0.171, 0.07, 0.076, -0.13, 1
859457, -0.064, -0.712, -0.314, -0.029, 0.154, -0.04, 1
859477, -0.007, -0.234, -0.253, -0.215, 0.295, 0.16, 1
859497, 0.916, -0.031, 0.161, -0.062, 0.42, 0.117, 1
859517, 1.0, -0.011, 0.541, 0.178, 0.229, -0.103, 1
859537, 0.908, -0.75, 0.479, 0.315, 0.067, -0.199, 0
859557, 0.216, 0.108, 0.346, 0.359, 0.194, -0.152, 0
859577, -0.963, 0.613, 0.201, 0.612, 0.75, 0.067, 0
859597, -0.241, -0.339, -0.941, 1.05, 1.769, 0.429, 0
859617, 1.715, -1.569, -2.168, 1.156, 2.548, 0.61, 0
859637, 1.091, -1.675, -2.749, 1.018, 3.125, 0.606, 0
859657, 0.061, -0.823, -2.212, 1.318, 4.318, 0.467, 0
859677, 0.07, -0.583, -1.013, 2.208, 6.048, 0.416, 0
859697, 1.962, -1.063, 0.234, 3.214, 7.4, 0.233, 0
859717, 1.725, -1.231, 0.583, 3.85, 7.922, -0.073, 0
859737, 1.645, -1.357, 0.578, 4.288, 8.492, -0.193, 0
859757, 1.414, -0.833, 0.89, 5.018, 9.434, -0.096, 0
859777, 3.617, -1.392, 1.177, 5.476, 9.136, -0.304, 0
859797, 4.819, -2.516, 1.107, 5.494, 7.77, -0.567, 0
859817, 3.811, -3.72, 0.244, 5.237, 6.621, -0.747, 0
859837, 2.397, -3.863, -0.723, 4.773, 5.893, -0.673, 0
859857, 2.643, -3.91, -1.07, 4.342, 5.054, -0.588, 0
859877, 2.611, -3.822, -0.959, 4.126, 3.886, -0.558, 0
859897, 1.916, -4.019, -1.233, 3.898, 2.941, -0.588, 0
859917, 2.203, -4.478, -1.316, 3.516, 1.911, -0.601, 0
859937, 1.659, -3.892, -1.65, 3.204, 1.009, -0.648, 0
859957, 0.44, -4.242, -2.107, 2.786, 0.406, -0.644, 0
859977, -0.598, -3.721, -2.145, 2.507, 0.212, -0.675, 0
859997, -0.801, -2.786, -1.982, 2.477, 0.255, -0.627, 0
860017, -0.783, -2.726, -2.237, 2.462, 0.189, -0.506, 0
860037, -0.871, -2.633, -2.351, 2.337, -0.023, -0.328, 0
860057, -1.265, -2.3, -2.056, 2.133, -0.038, -0.179, 0
860077, -0.49, -1.745, -2.387, 2.075, -0.351, -0.142, 0
860097, -0.578, -1.516, -3.28, 1.995, -0.796, -0.2, 0
860117, -1.118, -1.263, -4.054, 1.859, -0.881, -0.219, 0
860137, -2.319, -1.713, -4.461, 1.456, -0.456, -0.161, 0
860157, -1.572, -0.968, -4.332, 1.075, -0.15, -0.151, 0
860177, -0.874, -0.187, -4.095, 0.881, -0.21, -0.12, 0
860197, -0.826, -0.131, -3.989, 0.744, -0.506, -0.035, 0
860217, -1.524, -0.279, -3.958, 0.54, -0.536, 0.041, 0
860237, -1.788, -0.161, -3.695, 0.211, -0.082, 0.006, 0
860257, -1.012, 0.266, -2.243, 0.045, 0.205, 0.006, 0
860277, -0.137, 0.368, -2.078, 0.013, 0.103, 0.032, 0
860297, -0.512, 0.212, -2.444, -0.042, -0.236, 0.049, 0
860317, -1.123, 0.173, -2.74, -0.198, -0.266, 0.076, 0
860337, -1.338, -0.005, -2.775, -0.409, -0.036, 0.191, 0
860357, -0.892, -0.241, -2.483, -0.667, 0.296, 0.259, 0
860377, -0.526, -0.065, -1.85, -1.014, 0.43, 0.348, 1
860397, -0.112, 0.64, -1.176, -1.195, 0.114, 0.336, 1
860417, -0.601, 1.074, -1.331, -1.054, -0.398, 0.308, 1
860437, -1.052, 0.696, -2.034, -0.886, -0.641, 0.45, 1
860457, -1.062, 0.044, -2.418, -1.017, -0.722, 0.614, 1
860477, -0.43, -0.53, -2.446, -1.436, -0.917, 0.582, 1
860497, -0.301, -0.12, -2.122, -1.974, -1.367, 0.316, 1
860517, -1.388, 0.873, -1.913, -2.33, -1.836, 0.211, 1
860537, -2.299, 1.234, -2.084, -2.437, -1.966, 0.293, 1
860557, -2.099, 1.321, -1.973, -2.564, -1.812, 0.513, 1
860577, -0.685, 0.497, -1.442, -2.843, -1.887, 0.721, 1
860597, 1.193, 1.093, -0.894, -3.329, -2.755, 0.732, 1
860617, 0.83, 2.201, -0.391, -3.701, -4.224, 0.511, 1
860637, -1.659, 3.523, 0.19, -3.915, -5.406, 0.393, 1
860657, -4.473, 3.717, 0.65, -3.85, -5.425, 0.795, 1
860677, -4.458, 3.215, 0.52, -3.572, -3.988, 1.628, 1
860697, -0.219, 1.408, 0.329, -3.335, -2.545, 2.042, 1
860717, 4.156, 1.612, 0.931, -3.613, -2.737, 1.236, 1
860737, 3.848, 2.178, 2.35, -3.927, -5.536, 0.351, 1
860757, 0.195, 2.299, 3.273, -3.543, -5.999, 0.478, 1
860777, -2.053, 1.968, 2.074, -2.662, -4.699, 1.16, 1
860797, 1.284, -0.074, 0.518, -2.049, -3.619, 1.428, 1
860817, 4.708, -0.951, 0.458, -2.205, -4.135, 0.918, 1
860837, 4.25, -0.652, 1.375, -2.262, -5.119, 0.17, 1
860857, 1.58, 0.227, 1.539, -1.875, -5.24, -0.152, 1
860877, -0.584, 0.587, 0.716, -1.233, -4.445, 0.174, 1
860897, -0.033, -0.143, -0.102, -0.882, -3.602, 0.755, 1
860917, 1.264, -0.805, -0.643, -0.845, -3.299, 0.979, 1
860937, 2.123, -1.641, -1.138, -1.013, -3.357, 0.81, 1
860957, 2.236, -1.424, -1.279, -1.118, -3.418, 0.681, 1
860977, 2.139, -1.119, -1.116, -0.942, -3.182, 0.709, 1
860997, 1.613, -0.816, -1.277, -0.577, -2.587, 0.726, 1
861017, 1.88, -1.226, -1.6, -0.386, -2.096, 0.78, 1
861037, 2.454, -1.527, -1.748, -0.434, -2.005, 0.738, 1
861057, 2.024, -0.804, -1.284, -0.417, -2.012, 0.617, 1
861077, 1.179, -0.07, -1.046, -0.134, -1.694, 0.659, 1
861097, 1.38, -0.318, -1.402, 0.128, -1.248, 0.826, 1
861117, 2.336, -0.849, -1.572, 0.083, -1.145, 0.858, 1
861137, 2.748, -1.544, -1.945, -0.208, -1.156, 0.706, 1
861157, 2.117, -1.047, -1.701, -0.431, -1.058, 0.571, 1
861177, 1.714, -0.155, -1.234, -0.221, -0.668, 0.588, 1
861197, 2.243, -0.424, -1.172, 0.0, -0.357, 0.555, 1
861217, 3.098, -0.886, -1.053, -0.095, -0.521, 0.314, 1
861237, 1.726, -0.412, -1.059, -0.255, -0.544, 0.171, 1
861257, 1.213, 0.058, -0.84, -0.271, -0.299, 0.174, 1
861277, 1.316, 0.085, -0.427, -0.136, -0.048, 0.224, 1
861297, 1.535, -0.163, -0.332, -0.036, 0.095, 0.276, 1
861317, 1.536, -0.438, -0.303, -0.04, 0.054, 0.182, 1
861337, 1.119, -0.296, -0.286, -0.119, -0.025, 0.087, 1
861357, 0.626, -0.122, -0.157, -0.15, -0.013, 0.04, 1
861377, 0.521, -0.116, 0.054, -0.061, 0.076, 0.012, 1
861397, 0.716, -0.345, 0.084, -0.055, 0.207, 0.057, 1
861417, 0.779, -0.25, 0.21, -0.046, 0.135, 0.0, 1
861437, 0.578, -0.285, 0.151, 0.042, -0.023, -0.112, 1
861457, 0.444, -0.938, 0.054, -0.019, -0.068, -0.106, 1
861477, 1.113, -0.535, 0.131, -0.106, -0.037, -0.037, 1
861497, 0.832, -0.6, 0.064, -0.044, -0.248, -0.231, 0
861517, -0.055, -0.898, -0.283, -0.071, -0.254, -0.366, 0
861537, 0.105, -0.19, -0.146, 0.005, -0.037, -0.335, 0
861557, -0.508, -0.06, -0.327, 0.205, 0.313, -0.19, 0
861577, -0.988, -0.21, -0.77, 0.458, 1.087, 0.052, 0
861597, -1.022, -0.153, -1.665, 0.752, 2.281, 0.498, 0
861617, 1.074, -1.408, -2.587, 1.116, 3.511, 0.788, 0
861637, 1.359, -0.963, -2.101, 1.387, 4.442, 0.675, 0
861657, 0.449, -0.718, -1.109, 2.079, 5.648, 0.483, 0
861677, 1.735, -1.259, -0.171, 2.837, 6.965, 0.266, 0
861697, 2.197, -1.175, 0.516, 3.674, 7.484, -0.175, 0
861717, 2.887, -1.744, 0.051, 3.903, 7.616, -0.538, 0
861737, 2.543, -1.767, -0.423, 3.8, 7.456, -0.781, 0
861757, 1.301, -0.994, -0.261, 3.775, 7.456, -0.735, 0
861777, 1.408, -0.765, 0.144, 3.937, 7.389, -0.609, 0
861797, 2.087, -0.83, 0.628, 4.222, 6.804, -0.533, 0
861817, 1.034, -1.068, 0.584, 4.709, 6.548, -0.431, 0
861837, 1.063, -1.836, 0.311, 5.095, 6.403, -0.436, 0
861857, 2.205, -3.488, -0.41, 5.078, 5.867, -0.455, 0
861877, 2.361, -3.907, -1.254, 4.75, 4.867, -0.525, 0
861897, 2.035, -3.997, -1.581, 4.281, 3.863, -0.566, 0
861917, 2.023, -4.362, -1.719, 3.761, 2.718, -0.489, 0
861937, 1.478, -4.392, -1.9, 3.235, 1.56, -0.415, 0
861957, 0.251, -3.946, -1.638, 2.803, 0.808, -0.355, 0
861977, -0.446, -3.407, -1.227, 2.667, 0.568, -0.341, 0
861997, -0.223, -3.432, -1.142, 2.619, 0.362, -0.38, 0
862017, 0.196, -2.883, -1.489, 2.542, -0.006, -0.373, 0
862037, 0.233, -2.713, -1.891, 2.425, -0.481, -0.362, 0
862057, -0.526, -2.747, -2.434, 2.25, -0.722, -0.419, 0
862077, -1.141, -1.954, -2.693, 2.119, -0.632, -0.511, 0
862097, -1.209, -1.419, -3.166, 2.134, -0.583, -0.462, 0
862117, -0.715, -1.132, -4.024, 2.033, -0.707, -0.359, 0
862137, -1.237, -1.72, -4.873, 1.585, -0.761, -0.323, 0
862157, -2.19, -1.871, -4.569, 0.924, -0.464, -0.332, 0
862177, -2.032, -0.025, -3.689, 0.758, -0.139, -0.302, 0
862197, -1.237, 0.355, -3.338, 0.908, -0.207, -0.155, 0
862217, -0.872, -0.341, -4.205, 0.626, -0.447, -0.128, 0
862237, -1.835, -0.134, -3.884, 0.174, -0.406, -0.136, 0
862257, -1.55, 0.576, -3.255, -0.073, -0.006, -0.127, 0
862277, -0.722, 0.704, -3.404, -0.08, 0.174, -0.049, 0
862297, -0.818, 0.393, -3.788, -0.124, 0.0, -0.004, 0
862317, -1.242, 0.182, -3.872, -0.348, -0.06, 0.084, 0
862337, -1.427, 0.139, -3.498, -0.653, 0.073, 0.191, 0
862357, -1.322, 0.127, -2.774, -0.915, 0.314, 0.275, 0
862377, -0.834, 0.368, -2.042, -1.135, 0.459, 0.361, 1
862397, -0.569, 0.899, -2.249, -1.19, 0.23, 0.43, 1
862417, -1.21, 0.626, -2.643, -1.112, -0.042, 0.496, 1
862437, -1.556, -0.113, -2.692, -1.238, -0.033, 0.592, 1
862457, -0.993, -0.202, -2.033, -1.613, 0.083, 0.58, 1
862477, -0.195, 0.26, -1.483, -1.962, -0.064, 0.472, 1
862497, -0.232, 0.69, -1.531, -2.036, -0.452, 0.389, 1
862517, -0.86, 1.099, -2.107, -1.973, -0.751, 0.42, 1
862537, -2.037, 0.41, -2.338, -1.994, -0.784, 0.571, 1
862557, -2.101, -0.072, -1.795, -2.318, -0.422, 0.764, 1
862577, 0.024, -0.074, -1.006, -2.797, -0.287, 0.801, 1
862597, 2.26, 0.418, -0.608, -3.243, -1.174, 0.541, 1
862617, 1.753, 0.961, -0.411, -3.583, -3.027, 0.13, 1
862637, -2.864, 1.381, 0.128, -3.778, -4.357, 0.11, 1
862657, -6.785, 1.506, 0.729, -3.727, -3.422, 0.858, 1
862677, -1.299, -0.375, 0.91, -3.805, -1.299, 1.59, 1
862697, 5.658, -0.523, 2.011, -4.367, -2.93, 0.945, 1
862717, 7.143, 0.095, 3.326, -4.839, -6.285, -0.219, 1
862737, 0.9, 0.814, 4.884, -4.86, -7.621, -0.372, 1
862757, -3.879, 2.432, 4.298, -3.985, -6.054, 0.43, 1
862777, -2.478, 1.706, 1.948, -2.816, -3.608, 1.252, 1
862797, 1.845, 0.56, 0.937, -2.26, -2.711, 1.353, 1
862817, 4.837, -0.693, 0.442, -2.393, -3.602, 0.585, 1
862837, 4.33, -1.277, 1.165, -2.864, -5.17, -0.089, 1
862857, 2.377, -0.856, 1.932, -3.029, -6.026, -0.139, 1
862877, 1.051, -0.358, 1.995, -2.836, -5.956, -0.039, 1
862897, 0.471, -0.287, 1.501, -2.357, -5.422, 0.012, 1
862917, 0.883, -0.723, 1.137, -1.988, -5.089, -0.01, 1
862937, 0.183, -0.494, 0.938, -1.598, -4.756, 0.056, 1
862957, 0.253, -0.621, 0.55, -1.232, -4.396, 0.235, 1
862977, 0.269, -0.368, 0.186, -0.794, -3.957, 0.508, 1
862997, 0.579, -0.633, -0.658, -0.334, -3.332, 0.766, 1
863017, 1.102, -1.333, -1.811, -0.053, -2.627, 0.935, 1
863037, 1.886, -1.658, -2.502, 0.018, -2.103, 1.047, 1
863057, 3.168, -1.806, -2.851, -0.037, -1.933, 1.025, 1
863077, 3.194, -1.319, -2.887, -0.006, -1.718, 0.974, 1
863097, 3.597, -1.484, -2.937, 0.047, -1.252, 0.879, 1
863117, 3.823, -1.431, -3.057, 0.053, -0.767, 0.777, 1
863137, 4.368, -1.492, -3.041, -0.118, -0.547, 0.585, 1
863157, 4.132, -1.033, -2.563, -0.274, -0.499, 0.336, 1
863177, 3.687, -0.648, -1.286, -0.391, -0.386, 0.018, 1
863197, 2.155, 0.264, -0.641, -0.436, -0.331, -0.003, 1
863217, 1.654, 0.429, -0.345, -0.386, -0.149, 0.063, 1
863237, 1.819, 0.299, -0.04, -0.319, -0.086, 0.102, 1
863257, 1.64, 0.163, 0.105, -0.279, -0.134, 0.114, 1
863277, 1.283, 0.247, 0.325, -0.277, -0.192, 0.109, 1
863297, 1.235, 0.168, 0.242, -0.202, -0.197, 0.153, 1
863317, 1.328, 0.103, 0.003, -0.084, -0.149, 0.166, 1
863337, 1.424, -0.259, -0.36, -0.012, -0.099, 0.18, 1
863357, 1.172, -0.477, -0.486, -0.057, -0.018, 0.163, 1
863377, 1.118, -0.349, -0.373, -0.13, 0.045, 0.186, 1
863397, 1.236, -0.383, -0.16, -0.084, 0.104, 0.13, 1
863417, 1.298, -0.349, 0.07, -0.01, 0.112, 0.06, 1
863437, 1.32, -0.509, -0.025, 0.074, 0.063, -0.042, 1
863457, 0.639, -0.312, -0.052, 0.015, 0.003, -0.021, 1
863477, 0.152, 0.122, 0.097, 0.043, 0.082, 0.075, 1
863497, 0.7, 0.271, 0.273, 0.428, 0.243, 0.059, 0
863517, 0.073, -0.149, 0.126, 0.609, 0.43, 0.245, 0
863537, -0.275, 0.116, -0.48, 0.868, 0.993, 0.491, 0
863557, 0.752, -1.217, -1.543, 1.163, 2.054, 0.664, 0
863577, 2.091, -1.695, -2.141, 1.096, 2.714, 0.664, 0
863597, 0.682, -1.293, -2.675, 0.978, 3.174, 0.665, 0
863617, 0.366, -1.685, -2.541, 1.39, 4.726, 0.751, 0
863637, 1.573, -2.029, -1.399, 2.043, 6.527, 0.704, 0
863657, 2.756, -1.751, 0.077, 3.177, 7.616, -0.025, 0
863677, 2.653, -1.746, 0.446, 3.891, 7.82, -0.426, 0
863697, 2.718, -2.164, 0.235, 4.24, 7.923, -0.605, 0
863717, 3.223, -2.844, 0.123, 4.255, 7.748, -0.87, 0
863737, 3.821, -2.447, 0.574, 4.357, 7.019, -1.201, 0
863757, 1.937, -1.155, 0.603, 4.764, 6.632, -1.331, 0
863777, 1.36, -1.856, 0.436, 5.043, 6.505, -1.154, 0
863797, 1.716, -2.608, -0.087, 5.051, 6.085, -0.932, 0
863817, 1.7, -2.926, -0.797, 4.917, 5.317, -0.767, 0
863837, 1.236, -2.977, -1.251, 4.85, 4.547, -0.681, 0
863857, 0.364, -3.277, -1.505, 4.812, 4.233, -0.528, 0
863877, 0.736, -4.024, -1.638, 4.633, 3.867, -0.375, 0
863897, 1.713, -5.137, -1.856, 4.055, 2.999, -0.317, 0
863917, 1.485, -5.04, -1.986, 3.412, 1.863, -0.389, 0
863937, 0.818, -3.566, -1.562, 3.174, 0.904, -0.47, 0
863957, -0.121, -2.937, -1.95, 3.241, 0.265, -0.366, 0
863977, -0.397, -3.014, -2.93, 3.094, -0.065, -0.27, 0
863997, -0.816, -4.051, -3.616, 2.394, -0.135, -0.262, 0
864017, -1.001, -2.683, -3.43, 1.896, -0.109, -0.279, 0
864037, -0.8, -1.186, -2.998, 1.963, -0.128, -0.184, 0
864057, -0.49, -1.082, -3.363, 2.158, -0.226, -0.064, 0
864077, -0.05, -1.595, -4.388, 2.023, -0.5, -0.136, 0
864097, -1.245, -2.662, -4.92, 1.341, -0.39, -0.224, 0
864117, -1.491, -1.241, -4.356, 0.87, 0.015, -0.188, 0
864137, -0.693, -0.026, -3.503, 0.875, 0.134, -0.089, 0
864157, -0.464, 0.226, -3.866, 0.937, -0.42, -0.077, 0
864177, -1.276, -0.134, -4.036, 0.563, -0.43, -0.086, 0
864197, -1.489, -0.024, -3.631, 0.199, -0.126, -0.065, 0
864217, -0.9, 0.375, -2.777, 0.043, 0.139, -0.057, 0
864237, -0.29, 0.369, -2.483, 0.002, 0.058, -0.007, 0
864257, -0.408, 0.412, -2.762, -0.093, -0.276, 0.003, 0
864277, -1.29, 0.108, -2.976, -0.286, -0.437, 0.082, 0
864297, -1.754, 0.152, -3.052, -0.561, -0.159, 0.287, 1
864317, -1.273, 0.083, -2.777, -0.813, 0.32, 0.474, 1
864337, -0.831, 0.443, -2.194, -1.123, 0.639, 0.519, 1
864357, -0.057, 0.314, -1.583, -1.291, 0.508, 0.448, 1
864377, 0.157, 0.522, -1.338, -1.436, -0.036, 0.359, 1
864397, -0.319, 0.974, -1.57, -1.497, -0.664, 0.351, 1
864417, -1.081, 1.032, -2.193, -1.439, -0.971, 0.462, 1
864437, -1.251, 0.51, -2.656, -1.442, -0.917, 0.571, 1
864457, -0.539, 0.296, -2.684, -1.656, -0.792, 0.529, 1
864477, 1.097, -0.139, -2.42, -2.106, -1.089, 0.22, 1
864497, 1.392, 0.327, -1.969, -2.718, -2.241, -0.229, 1
864517, -0.756, 1.478, -1.605, -3.137, -3.407, -0.435, 1
864537, -2.851, 1.848, -1.44, -3.272, -3.805, -0.203, 1
864557, -3.447, 1.343, -0.803, -3.425, -3.466, 0.351, 1
864577, -0.722, 1.553, -0.084, -3.695, -3.144, 0.69, 1
864597, 1.207, 2.305, 0.756, -3.962, -3.924, 0.428, 1
864617, -0.629, 3.538, 1.329, -3.985, -5.067, 0.128, 1
864637, -3.72, 3.52, 1.605, -3.364, -4.522, 0.969, 1
864657, -3.539, 2.788, 1.001, -2.752, -2.864, 1.695, 1
864677, 0.43, 1.246, 0.609, -2.469, -1.947, 1.754, 1
864697, 4.887, 1.157, 0.706, -2.585, -3.007, 0.844, 1
864717, 5.034, 1.463, 1.429, -2.896, -5.241, -0.247, 1
864737, 0.72, 1.876, 2.522, -2.861, -6.367, -0.348, 1
864757, -1.768, 2.018, 1.915, -2.249, -5.659, 0.521, 1
864777, -0.669, 0.525, 0.113, -1.678, -4.098, 1.205, 1
864797, 2.693, -0.345, -0.222, -1.641, -3.64, 1.21, 1
864817, 4.11, -0.481, 0.366, -1.779, -4.372, 0.563, 1
864837, 2.572, 0.178, 1.075, -1.81, -5.225, -0.049, 1
864857, 0.689, 0.544, 1.022, -1.453, -5.266, 0.18, 1
864877, 0.338, -0.072, 0.006, -1.013, -4.415, 0.773, 1
864897, 1.919, -1.284, -1.088, -0.852, -3.587, 0.913, 1
864917, 2.747, -1.404, -1.188, -0.902, -3.313, 0.585, 1
864937, 2.785, -1.163, -0.874, -0.974, -3.476, 0.213, 1
864957, 1.326, -0.028, -0.242, -0.839, -3.555, 0.174, 1
864977, 0.53, 0.057, -0.437, -0.549, -3.202, 0.376, 1
864997, 0.115, 0.314, -0.699, -0.213, -2.596, 0.722, 1
865017, 0.579, -0.53, -1.322, 0.005, -1.9, 0.883, 1
865037, 1.217, -0.809, -1.493, 0.012, -1.583, 0.967, 1
865057, 0.975, -0.544, -1.418, 0.086, -1.215, 1.062, 1
865077, 1.683, -0.937, -1.611, 0.109, -1.015, 1.143, 1
865097, 1.957, -0.87, -1.628, 0.132, -0.893, 1.127, 1
865117, 2.193, -0.924, -1.778, 0.113, -0.765, 0.969, 1
865137, 2.303, -1.271, -1.823, 0.02, -0.654, 0.875, 1
865157, 2.581, -1.1, -1.64, -0.039, -0.498, 0.752, 1
865177, 2.793, -0.998, -1.586, -0.043, -0.323, 0.578, 1
865197, 2.772, -0.933, -1.656, -0.041, -0.226, 0.378, 1
865217, 2.222, -0.982, -1.713, -0.144, -0.196, 0.249, 1
865237, 1.852, -0.706, -1.378, -0.314, -0.152, 0.153, 1
865257, 1.476, -0.371, -0.912, -0.405, -0.075, 0.107, 1
865277, 1.222, 0.055, -0.585, -0.368, 0.115, 0.048, 1
865297, 1.361, -0.163, -0.153, -0.252, 0.183, 0.01, 1
865317, 0.461, -0.261, 0.368, -0.365, 0.109, 0.004, 1
865337, 0.326, 0.321, 1.133, -0.358, 0.069, -0.014, 1
865357, 0.487, 0.289, 1.379, -0.277, -0.01, 0.059, 1
865377, 0.445, 0.449, 1.226, -0.196, -0.16, 0.155, 1
865397, 0.42, 0.141, 0.854, 0.053, -0.242, 0.097, 1
865417, 0.32, -0.49, 0.268, 0.091, -0.235, 0.083, 1
865437, 0.504, -0.433, 0.012, 0.078, -0.128, 0.05, 1
865457, 0.645, -0.739, -0.432, 0.067, -0.1, 0.031, 0
865477, 0.193, 0.138, -0.208, 0.095, -0.019, 0.145, 0
865497, -0.028, 0.118, -0.023, 0.408, 0.215, 0.177, 0
865517, -0.202, 0.016, -0.447, 0.773, 0.675, 0.283, 0
865537, -0.486, -0.619, -1.437, 1.069, 1.533, 0.428, 0
865557, -0.206, -1.164, -2.312, 1.191, 2.689, 0.728, 0
865577, 1.416, -1.498, -2.306, 1.288, 3.649, 0.857, 0
865597, 2.486, -1.594, -1.627, 1.545, 4.115, 0.592, 0
865617, 1.56, -1.314, -0.98, 2.411, 4.936, -0.092, 0
865637, 0.728, -1.798, -1.545, 2.904, 5.927, -0.274, 0
865657, 0.649, -2.787, -2.184, 2.888, 6.867, -0.219, 0
865677, 1.103, -2.057, -1.304, 2.953, 7.44, -0.429, 0
865697, 1.352, -0.961, -0.345, 3.415, 7.596, -0.665, 0
865717, 2.092, -1.142, 0.2, 3.842, 7.259, -0.85, 0
865737, 1.966, -1.003, 0.379, 4.147, 6.817, -0.959, 0
865757, 2.199, -1.76, -0.178, 4.213, 6.314, -1.047, 0
865777, 1.501, -1.174, -0.926, 4.238, 5.721, -1.165, 0
865797, 0.294, -0.908, -1.104, 4.58, 5.489, -1.128, 0
865817, 0.557, -1.527, -1.75, 4.674, 5.253, -0.959, 0
865837, 1.152, -2.093, -2.026, 4.568, 4.632, -0.824, 0
865857, 0.622, -3.253, -2.305, 4.163, 4.138, -0.65, 0
865877, -0.016, -3.544, -2.148, 3.703, 3.936, -0.411, 0
865897, 1.375, -2.373, -1.839, 3.542, 3.199, -0.372, 0
865917, 2.237, -2.957, -1.987, 3.333, 1.79, -0.415, 0
865937, 0.689, -3.813, -2.477, 2.797, 0.828, -0.436, 0
865957, -0.527, -2.967, -2.704, 2.298, 0.615, -0.4, 0
865977, -0.685, -2.064, -2.731, 2.085, 0.673, -0.356, 0
865997, -0.71, -1.956, -2.285, 2.016, 0.71, -0.356, 0
866017, -0.523, -1.995, -1.75, 1.994, 0.59, -0.274, 0
866037, -0.083, -1.587, -1.488, 1.946, 0.353, -0.192, 0
866057, 0.036, -1.212, -1.764, 1.967, 0.017, -0.174, 0
866077, -0.699, -1.572, -2.212, 1.848, -0.105, -0.12, 0
866097, -0.541, -1.397, -2.46, 1.572, -0.2, -0.086, 0
866117, -0.469, -0.671, -3.515, 1.401, -0.328, -0.221, 0
866137, -0.801, -0.413, -3.722, 1.174, -0.241, -0.244, 0
866157, -1.115, -0.388, -3.321, 0.912, 0.017, -0.112, 0
866177, -0.295, 0.29, -2.674, 0.754, 0.302, -0.003, 0
866197, 0.49, 0.448, -2.585, 0.773, 0.169, -0.072, 0
866217, 0.174, 0.386, -3.144, 0.748, -0.221, -0.102, 0
866237, -0.401, 0.176, -3.815, 0.631, -0.511, -0.065, 0
866257, -0.819, 0.03, -4.405, 0.383, -0.469, -0.031, 0
866277, -1.031, 0.17, -4.45, -0.021, -0.199, -0.029, 0
866297, -0.889, 0.352, -3.999, -0.399, 0.012, 0.0, 0
866317, -0.921, 0.377, -3.736, -0.703, 0.083, 0.049, 1
866337, -1.402, 0.289, -3.538, -0.963, 0.125, 0.197, 1
866357, -1.473, 0.5, -3.124, -1.28, 0.232, 0.261, 1
866377, -1.385, 0.806, -2.669, -1.482, 0.277, 0.273, 1
866397, -0.99, 0.985, -2.296, -1.615, 0.221, 0.335, 1
866417, 0.033, 1.037, -2.293, -1.679, -0.156, 0.337, 1
866437, 0.398, 0.795, -2.689, -1.826, -0.921, 0.333, 1
866457, -0.965, 0.67, -2.934, -2.071, -1.667, 0.411, 1
866477, -2.204, 0.657, -2.768, -2.328, -1.778, 0.576, 1
866497, -1.164, 0.15, -2.043, -2.663, -1.585, 0.665, 1
866517, 1.006, 0.464, -1.16, -3.114, -2.125, 0.554, 1
866537, 1.209, 1.363, -0.61, -3.44, -3.456, 0.32, 1
866557, -0.991, 1.935, -0.307, -3.615, -4.677, 0.291, 1
866577, -3.005, 1.667, -0.062, -3.71, -5.014, 0.941, 1
866597, -3.488, 1.442, 0.394, -3.911, -3.647, 1.436, 1
866617, 0.381, 1.901, 1.209, -3.815, -3.541, 1.461, 1
866637, 2.33, 2.278, 1.846, -3.452, -4.38, 1.218, 1
866657, 1.853, 2.019, 1.76, -3.12, -5.241, 1.033, 1
866677, 0.012, 0.849, 1.261, -2.984, -5.087, 1.155, 1
866697, -0.289, 0.438, 0.826, -2.933, -4.214, 1.313, 1
866717, 2.405, -0.409, 0.887, -3.107, -4.159, 1.205, 1
866737, 3.184, 0.28, 1.916, -2.968, -4.91, 0.967, 1
866757, 2.54, -0.375, 1.867, -2.47, -5.151, 1.036, 1
866777, 1.536, -0.543, 1.096, -1.963, -4.555, 1.028, 1
866797, 2.429, -1.844, -0.011, -1.918, -4.068, 0.842, 1
866817, 4.564, -2.422, 0.232, -2.382, -4.769, 0.523, 1
866837, 3.56, -1.113, 1.35, -2.41, -5.648, 0.292, 1
866857, 1.895, -0.208, 1.069, -1.783, -5.458, 0.31, 1
866877, 0.795, -0.341, -0.373, -0.948, -4.202, 0.553, 1
866897, 0.906, -1.262, -1.895, -0.459, -2.638, 0.713, 1
866917, 2.093, -1.517, -2.392, -0.453, -1.772, 0.824, 1
866937, 2.334, -1.109, -2.138, -0.481, -1.41, 0.827, 1
866957, 2.462, -0.829, -1.782, -0.505, -1.284, 0.779, 1
866977, 1.97, -0.467, -1.325, -0.458, -1.099, 0.751, 1
866997, 1.685, -0.331, -0.967, -0.396, -0.813, 0.803, 1
867017, 1.543, -0.352, -0.79, -0.296, -0.533, 0.835, 1
867037, 1.864, -0.369, -0.722, -0.227, -0.456, 0.801, 1
867057, 1.824, -0.62, -0.892, -0.234, -0.464, 0.81, 1
867077, 1.463, -0.566, -0.86, -0.337, -0.318, 0.779, 1
867097, 1.566, -0.278, -0.354, -0.292, -0.245, 0.751, 1
867117, 1.997, -0.668, -0.345, -0.132, -0.188, 0.674, 1
867137, 1.864, -0.711, -0.515, -0.112, -0.31, 0.63, 1
867157, 1.56, -0.891, -0.553, -0.213, -0.384, 0.567, 1
867177, 1.534, -0.745, -0.273, -0.334, -0.3, 0.446, 1
867197, 1.783, -0.366, 0.177, -0.331, -0.223, 0.309, 1
867217, 1.961, -0.11, 0.239, -0.159, -0.287, 0.204, 1
867237, 1.64, -0.135, 0.023, 0.029, -0.479, 0.105, 1
867257, 1.208, -0.244, -0.175, 0.092, -0.594, 0.091, 1
867277, 0.744, -0.534, -0.457, 0.01, -0.486, 0.122, 1
867297, 0.977, -0.41, -0.413, -0.084, -0.262, 0.025, 1
867317, 0.975, -0.064, -0.23, -0.089, -0.175, -0.02, 1
867337, 0.663, -0.08, -0.168, 0.015, -0.103, 0.03, 1
867357, 0.739, -0.494, -0.306, 0.112, 0.078, 0.134, 1
867377, 1.037, -1.107, -0.521, 0.036, 0.084, 0.126, 1
867397, 0.668, -0.88, -0.617, -0.209, 0.105, 0.029, 1
867417, 0.663, -0.085, -0.051, -0.185, 0.212, -0.094, 0
867437, 0.873, -0.005, 0.188, 0.135, 0.269, -0.12, 0
867457, 0.147, -0.319, -0.055, 0.42, 0.379, -0.032, 0
867477, 0.165, -0.894, -0.864, 0.5, 0.779, 0.005, 0
867497, 0.664, -1.166, -1.715, 0.331, 1.202, -0.073, 0
867517, 0.414, -1.383, -2.12, 0.117, 1.318, -0.149, 0
867537, -1.075, -0.598, -2.311, 0.136, 2.05, -0.022, 0
867557, -1.501, -0.529, -2.227, 1.244, 3.89, 0.527, 0
867577, 1.731, -1.974, -1.397, 1.82, 5.748, 0.238, 0
867597, 2.614, -2.085, -0.681, 2.06, 5.653, -0.354, 0
867617, 1.276, -1.502, -0.801, 2.459, 5.98, -0.723, 0
867637, 0.362, -1.22, -0.996, 2.935, 6.682, -0.827, 0
867657, 0.905, -1.15, -1.06, 3.23, 7.128, -0.951, 0
867677, 1.176, -0.702, -0.652, 3.522, 7.085, -1.028, 0
867697, 0.896, -0.362, -0.679, 3.783, 6.964, -0.968, 0
867717, 0.39, -0.289, -0.73, 4.002, 6.95, -0.76, 0
867737, 0.576, -0.601, -0.732, 4.254, 6.974, -0.519, 0
867757, 1.527, -1.525, -0.865, 4.439, 6.601, -0.394, 0
867777, 2.023, -2.192, -0.887, 4.488, 5.855, -0.439, 0
867797, 2.044, -2.596, -1.335, 4.326, 4.923, -0.494, 0
867817, 1.439, -3.074, -1.814, 4.019, 4.215, -0.375, 0
867837, 1.181, -2.835, -2.296, 3.9, 3.712, -0.334, 0
867857, 1.291, -3.083, -2.761, 3.681, 3.143, -0.324, 0
