timestamp, accX, accY, accZ, gyroX, gyroY, gyroZ, button
1242, 0.5555555555555556, -0.042735042735042736, -0.4896214896214896, 0.0, -0.34375, 0.0, 0.0
1243, 0.4590964590964591, 0.03663003663003663, -0.663003663003663, 0.0625, -0.15625, 0.09375, 0.0
1244, 0.2454212454212454, 0.315018315018315, -1.2344322344322345, 0.40625, 0.25, 0.28125, 0.0
1245, 0.5409035409035409, -0.05982905982905983, -1.9523809523809523, 0.59375, 0.75, 0.28125, 0.0
1, 1.6874236874236874, -1.0036630036630036, -2.7423687423687424, 0.25, 0.6875, 0.15625, 0.0
2, 1.407814407814408, -1.413919413919414, -2.3614163614163615, -0.34375, 0.34375, 0.03125, 0.0
3, -0.03663003663003663, -0.4371184371184371, -1.2344322344322345, -0.59375, 0.4375, 0.0625, 0.0
4, -0.3137973137973138, -0.02564102564102564, 0.04884004884004884, -0.34375, 0.78125, 0.21875, 0.0
5, 0.17094017094017094, -0.43101343101343104, 0.9206349206349206, -0.1875, 0.84375, 0.28125, 0.0
6, 0.5103785103785103, -0.6214896214896215, 1.308913308913309, -0.1875, 0.65625, 0.1875, 0.0
7, 0.1916971916971917, -0.6568986568986569, 1.656898656898657, -0.34375, 0.46875, 0.09375, 0.0
8, -0.6373626373626373, -0.03785103785103785, 2.3553113553113554, -0.34375, 0.6875, 0.09375, 0.0
9, -0.9365079365079365, -0.22954822954822954, 3.371184371184371, -0.3125, 0.90625, 0.1875, 0.0
10, -0.5665445665445665, 0.052503052503052504, 4.295482295482295, -0.1875, 0.59375, 0.21875, 0.0
11, -0.13064713064713065, 0.5421245421245421, 4.140415140415141, 0.125, -0.09375, 0.09375, 0.0
12, -0.5421245421245421, -0.0927960927960928, 2.6507936507936507, 0.15625, -0.53125, -0.0625, 0.0
13, -1.8107448107448108, -0.1391941391941392, 1.3443223443223444, -0.375, 0.25, -0.03125, 0.0
14, -1.956043956043956, 0.5811965811965812, 1.1184371184371185, -0.71875, 0.78125, 0.1875, 0.0
15, -0.6703296703296703, 0.4188034188034188, 0.8754578754578755, -0.75, 0.3125, 0.375, 0.0
16, -0.9877899877899878, 0.4725274725274725, -0.1514041514041514, -0.34375, -0.28125, 0.5, 0.0
17, -0.3907203907203907, -0.8315018315018315, -2.3626373626373627, 0.3125, -0.125, 0.84375, 0.0
18, 0.9572649572649573, -3.0976800976800978, -4.130647130647131, 0.28125, 0.40625, 0.78125, 0.0
19, 2.336996336996337, -2.652014652014652, -3.7643467643467643, -0.5, 0.65625, 0.40625, 0.0
20, 1.4188034188034189, -0.05860805860805861, -2.2527472527472527, -0.84375, 0.28125, 0.125, 0.0
21, 0.39438339438339437, 0.22954822954822954, -1.8681318681318682, -0.3125, 0.03125, -0.15625, 0.0
22, -0.4358974358974359, -0.3235653235653236, -2.1294261294261294, 0.03125, 0.0, -0.15625, 0.0
23, -0.5164835164835165, 0.10378510378510379, -1.7533577533577533, 0.0, 0.15625, -0.1875, 0.0
24, -0.43345543345543347, 0.46886446886446886, -1.4065934065934067, -0.0625, 0.1875, -0.15625, 0.0
25, -0.5238095238095238, 0.7521367521367521, -1.0488400488400489, -0.09375, 0.0, -0.125, 0.0
26, -0.5518925518925519, 0.5079365079365079, -0.7191697191697192, 0.0, -0.09375, -0.03125, 0.0
27, -0.27472527472527475, -0.21245421245421245, -0.5396825396825397, 0.09375, -0.0625, 0.0, 0.0
28, -0.0463980463980464, -0.4603174603174603, -0.23687423687423687, 0.0, 0.0, -0.03125, 0.0
29, 0.26495726495726496, -0.3089133089133089, 0.042735042735042736, -0.09375, 0.0, -0.15625, 0.0
30, 0.18192918192918192, -0.4700854700854701, 0.03296703296703297, -0.125, -0.1875, -0.25, 0.0
31, -0.23321123321123322, -0.07203907203907203, -0.11721611721611722, -0.0625, -0.28125, -0.3125, 0.0
32, -0.3882783882783883, -0.21855921855921856, -0.5079365079365079, 0.0625, -0.1875, -0.21875, 0.0
33, 0.10500610500610501, -0.44932844932844934, -0.9047619047619048, 0.0625, -0.0625, -0.15625, 0.0
34, 0.10622710622710622, -0.22466422466422467, -1.105006105006105, 0.0, 0.0, -0.0625, 0.0
35, 1.3663003663003663, -0.7106227106227107, -1.7777777777777777, 0.03125, 0.09375, 0.0, 0.0
36, 1.8522588522588523, -0.8644688644688645, -1.9682539682539681, -0.0625, 0.03125, -0.25, 0.0
37, 0.6642246642246642, -0.10256410256410256, -1.5970695970695972, -0.125, 0.0, -0.4375, 0.0
38, -0.702075702075702, -0.2954822954822955, -1.0952380952380953, -0.15625, 0.3125, -0.25, 0.0
39, -0.894993894993895, -0.20512820512820512, -0.06593406593406594, -0.25, 0.65625, -0.03125, 0.0
40, -0.5836385836385837, -0.07936507936507936, 0.9304029304029304, -0.28125, 0.75, 0.0625, 0.0
41, -0.27228327228327226, 0.006105006105006105, 1.534798534798535, -0.28125, 0.65625, 0.125, 0.0
42, -0.23443223443223443, 0.14652014652014653, 1.8547008547008548, -0.21875, 0.53125, 0.1875, 0.0
43, -0.25518925518925517, 0.02197802197802198, 1.9230769230769231, -0.125, 0.5, 0.1875, 0.0
44, -0.12698412698412698, -0.2612942612942613, 1.9597069597069596, -0.125, 0.4375, 0.1875, 0.0
45, 0.1746031746031746, -0.19413919413919414, 1.778998778998779, -0.03125, 0.21875, 0.1875, 0.0
46, 0.07203907203907203, -0.1794871794871795, 1.3357753357753357, 0.03125, 0.0625, 0.125, 0.0
47, -0.14285714285714285, -0.08913308913308914, 1.0915750915750915, 0.15625, 0.09375, 0.09375, 0.0
48, -0.07326007326007326, -0.10866910866910867, 0.9511599511599511, 0.1875, 0.09375, 0.03125, 0.0
49, -0.2258852258852259, 0.27106227106227104, 0.7045177045177046, 0.21875, -0.03125, -0.03125, 0.0
50, -0.8937728937728938, 1.1562881562881564, -0.09157509157509157, 0.34375, -0.0625, 0.0, 0.0
51, -0.4590964590964591, 0.3968253968253968, -0.9768009768009768, 0.28125, -0.0625, 0.09375, 0.0
52, -0.5470085470085471, 0.800976800976801, -1.4993894993894994, 0.25, -0.03125, 0.0625, 0.0
53, -1.1782661782661783, 1.078144078144078, -1.8681318681318682, 0.25, 0.0625, 0.15625, 0.0
54, -0.8156288156288156, 0.7203907203907204, -2.4004884004884004, 0.03125, 0.0625, 0.25, 0.0
55, 0.29426129426129427, -0.20024420024420025, -2.501831501831502, -0.3125, -0.125, 0.125, 0.0
56, 0.16971916971916973, 0.1343101343101343, -1.800976800976801, -0.5, -0.1875, 0.0, 0.0
57, -0.3492063492063492, 0.5433455433455433, -1.0732600732600732, -0.40625, -0.125, 0.0, 0.0
58, -0.23687423687423687, 0.21733821733821734, -0.5152625152625152, -0.375, -0.125, 0.0, 0.0
59, 0.002442002442002442, -0.28815628815628813, -0.27472527472527475, -0.46875, -0.21875, 0.0, 0.0
60, 0.07081807081807082, -0.4932844932844933, 0.06227106227106227, -0.5625, -0.34375, -0.0625, 0.0
61, -0.14896214896214896, -0.4346764346764347, 0.5592185592185592, -0.5625, -0.375, -0.0625, 0.0
62, -5.9352869352869355, 0.8058608058608059, -2.402930402930403, -1.9375, -5.09375, 0.375, 0.0
63, -5.528693528693529, 1.0183150183150182, -2.3089133089133087, -1.8125, -5.0625, 1.375, 0.0
64, -3.5934065934065935, 0.6117216117216118, -2.1245421245421245, -2.3125, -5.9375, 1.4375, 0.0
65, -3.8119658119658117, 3.645909645909646, -0.35653235653235654, -3.21875, -7.0, 1.5625, 0.0
66, -4.168498168498169, 6.713064713064713, 1.4371184371184371, -3.78125, -7.21875, 2.75, 0.0
67, -2.503052503052503, 2.5641025641025643, 1.5824175824175823, -4.0625, -6.40625, 3.53125, 0.0
68, 2.7948717948717947, -0.37362637362637363, 3.087912087912088, -4.8125, -7.46875, 2.4375, 0.0
69, 2.4932844932844933, 0.8021978021978022, 4.903540903540904, -4.5, -8.90625, 0.5, 0.0
70, 0.18925518925518925, 0.12087912087912088, 4.412698412698413, -3.28125, -9.25, 0.46875, 0.0
71, -2.8937728937728937, 0.6568986568986569, 2.868131868131868, -2.34375, -8.375, 1.53125, 0.0
72, -2.4481074481074483, 0.21611721611721613, 1.0256410256410255, -1.4375, -7.0625, 2.21875, 0.0
73, -2.6166056166056166, 1.2625152625152625, 0.2087912087912088, -0.03125, -5.40625, 2.25, 0.0
74, 0.35653235653235654, -3.010989010989011, -2.1953601953601956, 0.34375, -4.3125, 1.875, 0.0
75, 2.492063492063492, -4.791208791208791, -2.5347985347985347, -0.59375, -4.5, 1.09375, 0.0
76, 1.0146520146520146, -1.7411477411477412, -3.1965811965811968, 0.25, -2.78125, 1.40625, 0.0
77, 0.518925518925519, -2.960927960927961, -4.113553113553113, 1.0, -0.6875, 1.9375, 0.0
78, 1.9157509157509158, -2.6385836385836385, -2.998778998778999, 0.65625, -0.125, 2.09375, 0.0
79, 0.6691086691086691, -1.1318681318681318, -1.8742368742368742, 0.28125, -0.4375, 2.0, 0.0
80, 0.02442002442002442, -0.3785103785103785, -2.0891330891330893, 0.5, -0.15625, 2.46875, 0.0
81, 1.8656898656898657, -3.172161172161172, -3.9511599511599513, 1.1875, 0.71875, 3.40625, 0.0
82, 2.929181929181929, -3.860805860805861, -4.010989010989011, 0.9375, 1.28125, 4.03125, 0.0
83, 3.503052503052503, -3.0134310134310134, -3.1294261294261294, 0.59375, 1.84375, 3.71875, 0.0
84, 3.255189255189255, -2.446886446886447, -1.8522588522588523, 0.5, 2.1875, 3.40625, 0.0
85, 4.3003663003663, -2.9157509157509156, -0.7606837606837606, 0.375, 2.03125, 3.09375, 0.0
86, 3.473748473748474, -1.9230769230769231, 0.32967032967032966, 0.09375, 1.5625, 2.5, 0.0
87, 2.3443223443223444, -1.3394383394383393, 0.09645909645909646, 0.28125, 1.59375, 2.15625, 0.0
88, 5.721611721611722, -4.15995115995116, -0.811965811965812, -0.03125, 0.8125, 1.59375, 0.0
89, 2.452991452991453, -1.5299145299145298, -0.0463980463980464, -1.21875, -0.71875, 0.6875, 0.0
90, -0.4456654456654457, 0.38583638583638585, 0.9645909645909646, -1.15625, -0.5625, 0.4375, 0.0
91, -1.7912087912087913, 1.7716727716727716, 1.835164835164835, -0.1875, 0.5625, 1.09375, 0.0
92, -1.4835164835164836, 1.0, 1.5567765567765568, 1.1875, 1.96875, 2.0, 0.0
93, -0.27228327228327226, -0.052503052503052504, 0.8241758241758241, 1.90625, 2.9375, 2.25, 0.0
94, -0.009768009768009768, -0.45665445665445664, 0.20634920634920634, 1.9375, 3.25, 2.15625, 0.0
95, -0.4126984126984127, -0.23565323565323565, 0.030525030525030524, 2.0, 3.71875, 2.09375, 0.0
96, -1.3968253968253967, 0.042735042735042736, 0.6532356532356532, 2.46875, 4.90625, 2.21875, 0.0
97, -2.1709401709401708, -0.22344322344322345, 1.5164835164835164, 3.21875, 6.8125, 2.6875, 0.0
98, -0.7728937728937729, -1.844932844932845, 2.286935286935287, 3.8125, 8.875, 3.375, 0.0
99, 1.4322344322344323, -2.827838827838828, 2.5054945054945055, 3.6875, 9.96875, 3.5625, 0.0
100, 2.1892551892551895, -2.7020757020757022, 3.081807081807082, 3.03125, 10.375, 2.84375, 0.0
101, 5.072039072039072, -2.5824175824175826, 4.783882783882784, 2.96875, 9.84375, 1.71875, 0.0
102, 7.168498168498169, -2.391941391941392, 5.3247863247863245, 2.96875, 7.4375, 0.375, 0.0
103, 7.450549450549451, -3.888888888888889, 4.807081807081807, 2.5625, 4.1875, -0.65625, 0.0
104, 3.1196581196581197, -2.8913308913308913, 3.695970695970696, 2.40625, 2.40625, -1.4375, 0.0
105, -0.1807081807081807, -1.4188034188034189, 2.833943833943834, 2.8125, 2.15625, -1.3125, 0.0
106, -0.5934065934065934, -2.0805860805860807, 2.47008547008547, 3.03125, 2.34375, -0.78125, 0.0
107, 1.271062271062271, -3.1587301587301586, 2.5653235653235655, 3.0, 2.0, -0.75, 0.0
108, 1.728937728937729, -3.807081807081807, 2.694749694749695, 2.90625, 1.4375, -0.96875, 0.0
109, 1.3308913308913308, -4.103785103785103, 2.705738705738706, 3.0, 1.40625, -1.03125, 0.0
110, 1.9902319902319903, -3.3553113553113554, 2.5115995115995116, 3.375, 1.3125, -1.125, 0.0
111, 2.131868131868132, -2.8705738705738706, 1.5824175824175823, 3.6875, 0.84375, -1.21875, 0.0
112, 1.3382173382173381, -4.442002442002442, 0.9291819291819292, 3.53125, 0.5, -1.3125, 0.0
113, 1.5042735042735043, -7.43956043956044, 1.5653235653235653, 3.0, 0.53125, -1.5625, 0.0
114, 2.642246642246642, -5.920634920634921, 3.122100122100122, 3.3125, 0.375, -1.875, 0.0
115, 2.8473748473748475, -2.9255189255189253, 3.06959706959707, 4.71875, -0.75, -2.15625, 0.0
116, 0.7741147741147741, -4.771672771672772, 1.0463980463980465, 5.34375, -2.0, -2.46875, 0.0
117, -2.4297924297924296, -7.113553113553113, -0.7985347985347986, 4.9375, -2.0, -2.65625, 0.0
118, -2.937728937728938, -6.540903540903541, -1.7155067155067154, 4.65625, -1.34375, -2.78125, 0.0
119, -2.7216117216117217, -4.380952380952381, -2.155067155067155, 4.8125, -1.34375, -2.6875, 0.0
120, -4.061050061050061, -4.875457875457876, -2.9804639804639805, 4.78125, -1.6875, -2.46875, 0.0
121, -3.796092796092796, -6.619047619047619, -3.1636141636141635, 4.34375, -1.78125, -2.375, 0.0
122, -3.5128205128205128, -6.95970695970696, -2.918192918192918, 3.9375, -1.46875, -2.34375, 0.0
123, -3.843711843711844, -5.078144078144078, -3.0537240537240535, 3.96875, -0.65625, -2.09375, 0.0
124, -4.655677655677656, -3.547008547008547, -4.194139194139194, 4.25, -0.03125, -1.65625, 0.0
125, -4.864468864468864, -4.487179487179487, -5.47985347985348, 3.59375, 0.15625, -1.0, 0.0
126, -4.012210012210012, -3.2686202686202686, -7.175824175824176, 2.84375, 0.0, -0.8125, 0.0
127, -4.523809523809524, -1.7997557997557998, -8.053724053724054, 2.5, 0.0625, -0.6875, 0.0
128, -4.9462759462759465, -2.0634920634920637, -8.775335775335776, 2.0, -0.375, -0.21875, 0.0
129, -4.426129426129426, -2.7326007326007327, -8.659340659340659, 1.0625, -1.0, 0.0625, 0.0
130, -3.9047619047619047, -2.6776556776556775, -7.0818070818070815, -0.03125, -1.65625, 0.21875, 0.0
131, -4.434676434676435, -2.1514041514041513, -5.648351648351649, -0.625, -1.78125, 0.5, 0.0
132, -4.517704517704518, -2.402930402930403, -4.705738705738706, -0.75, -1.34375, 0.9375, 0.0
133, -4.902319902319903, -2.8595848595848596, -4.377289377289378, -0.875, -1.0, 1.3125, 0.0
134, -5.9181929181929185, -3.32967032967033, -4.56043956043956, -1.15625, -1.28125, 1.5625, 0.0
135, -7.018315018315018, -4.208791208791209, -4.495726495726496, -1.6875, -2.09375, 1.875, 0.0
136, -7.107448107448107, -5.597069597069597, -3.658119658119658, -2.3125, -3.3125, 2.28125, 0.0
137, -8.018315018315018, -6.484737484737485, -2.4004884004884004, -2.75, -4.4375, 2.75, 0.0
138, -6.645909645909646, -7.7374847374847375, -0.894993894993895, -2.625, -4.84375, 3.25, 0.0
139, -5.713064713064713, -9.2002442002442, 0.18803418803418803, -2.25, -5.6875, 3.53125, 0.0
140, -6.791208791208791, -8.062271062271062, 0.6227106227106227, -1.6875, -6.09375, 4.03125, 0.0
141, -2.103785103785104, -7.058608058608058, 0.27472527472527475, -0.9375, -5.8125, 5.09375, 0.0
142, 1.7301587301587302, -5.351648351648351, -0.4896214896214896, -0.78125, -6.09375, 6.09375, 0.0
143, 4.278388278388278, -5.3870573870573875, 0.4004884004884005, -1.3125, -7.40625, 4.25, 0.0
144, 0.9743589743589743, -3.0671550671550674, 1.1916971916971917, -2.03125, -9.03125, 1.65625, 0.0
145, 2.554334554334554, -1.4542124542124542, -1.2673992673992673, -1.625, -9.1875, 1.5, 0.0
146, 2.6275946275946276, -0.7509157509157509, -3.8376068376068377, -0.15625, -7.84375, 2.5, 0.0
147, 1.9462759462759462, -4.218559218559219, -5.985347985347985, 1.0, -5.75, 1.78125, 0.0
148, 2.5115995115995116, -2.7301587301587302, -4.995115995115995, 0.15625, -4.09375, 0.6875, 0.0
149, 1.855921855921856, -0.7496947496947497, -3.3943833943833943, -1.5, -4.25, 1.21875, 0.0
150, 2.5811965811965814, 2.6544566544566544, -3.537240537240537, -0.125, -3.8125, 1.09375, 0.0
151, 1.9584859584859584, 1.387057387057387, -4.142857142857143, 1.0625, -2.875, 1.1875, 0.0
152, 1.4664224664224663, -1.507936507936508, -4.968253968253968, 0.46875, -2.21875, 1.46875, 0.0
153, 2.001221001221001, -0.9633699633699634, -4.137973137973138, -0.46875, -1.90625, 1.40625, 0.0
154, 2.1367521367521367, 0.5470085470085471, -2.4664224664224665, -0.53125, -1.65625, 1.28125, 0.0
155, 2.7252747252747254, 1.7875457875457876, -1.424908424908425, 0.1875, -1.65625, 1.21875, 0.0
156, 5.175824175824176, 0.17216117216117216, -3.202686202686203, 0.78125, -2.28125, 1.3125, 0.0
157, 3.816849816849817, -1.9352869352869353, -5.267399267399267, 0.3125, -1.75, 0.90625, 0.0
158, 3.6715506715506714, -0.7680097680097681, -5.061050061050061, -0.21875, -0.71875, 0.4375, 0.0
159, 4.032967032967033, 0.4652014652014652, -3.6605616605616604, -0.4375, -0.4375, 0.4375, 0.0
160, 3.4896214896214897, 1.0427350427350428, -2.485958485958486, -0.4375, -0.40625, 0.40625, 0.0
161, 2.7838827838827838, 1.2417582417582418, -1.6105006105006106, -0.1875, -0.3125, 0.25, 0.0
162, 2.971916971916972, 0.41025641025641024, -1.9328449328449329, -0.125, -0.1875, 0.0, 0.0
163, 2.6617826617826617, 0.8107448107448108, -1.78998778998779, -0.25, -0.1875, -0.375, 0.0
164, 1.3003663003663004, 1.844932844932845, -1.1965811965811965, -0.125, -0.0625, -0.34375, 0.0
165, 1.0134310134310134, 0.9255189255189256, -1.1391941391941391, -0.15625, 0.0, -0.0625, 0.0
166, 1.1013431013431014, 0.5775335775335775, -0.5433455433455433, -0.40625, -0.125, 0.03125, 0.0
167, 0.0757020757020757, 1.2124542124542124, 0.054945054945054944, -0.3125, -0.09375, 0.125, 0.0
168, -0.796092796092796, 1.1587301587301588, 0.36385836385836384, -0.125, 0.09375, 0.4375, 0.0
169, -0.38583638583638585, 0.8376068376068376, 0.2515262515262515, 0.0, 0.15625, 0.625, 0.0
170, -0.1807081807081807, 0.029304029304029304, -0.18315018315018314, -0.03125, 0.03125, 0.78125, 0.0
171, -1.1904761904761905, -0.7350427350427351, -0.326007326007326, -0.15625, 0.53125, 1.1875, 0.0
172, 0.0989010989010989, -0.8791208791208791, 0.684981684981685, 0.0, 1.0625, 1.5, 0.0
173, 2.9511599511599513, -2.5286935286935286, 1.2026862026862026, 0.0, 0.8125, 0.71875, 0.0
174, 4.1440781440781445, -3.05006105006105, 1.4395604395604396, -0.09375, -0.09375, 0.0, 0.0
175, 1.3406593406593406, -1.496947496947497, 0.7973137973137974, 0.0625, -0.21875, -0.34375, 0.0
176, 0.5018315018315018, -1.1892551892551892, 0.41514041514041516, 0.09375, -0.21875, -0.5, 0.0
177, -0.8253968253968254, -0.16483516483516483, 0.16117216117216118, -0.03125, -0.09375, -0.375, 0.0
178, -0.057387057387057384, 0.03663003663003663, 0.5714285714285714, 0.0, 0.25, -0.09375, 0.0
179, 0.5067155067155067, 0.27350427350427353, 0.8766788766788767, 0.0625, 0.21875, -0.0625, 0.0
180, 0.4004884004884005, 0.1855921855921856, 0.3894993894993895, 0.1875, 0.0, -0.125, 0.0
181, -0.04151404151404151, -0.09645909645909646, -0.33943833943833945, 0.15625, -0.15625, -0.09375, 0.0
182, -0.14896214896214896, 0.08669108669108669, -1.098901098901099, -0.09375, -0.0625, -0.03125, 0.0
183, -1.3846153846153846, 0.4603174603174603, -1.5360195360195361, -0.15625, 0.25, 0.0, 0.0
184, -0.4932844932844933, 0.463980463980464, -1.2124542124542124, -0.21875, 0.875, 0.375, 0.0
185, 0.4432234432234432, 0.19413919413919414, -0.4078144078144078, -0.25, 0.90625, 0.6875, 0.0
186, 0.6862026862026862, -0.1916971916971917, -0.026862026862026864, -0.15625, 0.6875, 0.59375, 0.0
187, 1.5506715506715507, -1.0256410256410255, -0.0757020757020757, -0.09375, 0.5, 0.46875, 0.0
188, 1.7777777777777777, -1.15018315018315, 0.0989010989010989, -0.125, 0.1875, 0.125, 0.0
189, 0.5763125763125763, -0.29426129426129427, 0.1282051282051282, -0.15625, -0.09375, -0.21875, 0.0
190, -0.23809523809523808, 0.09035409035409035, 0.1111111111111111, 0.0, -0.125, -0.3125, 0.0
191, 0.1746031746031746, -0.21245421245421245, 0.03540903540903541, 0.15625, -0.0625, -0.1875, 0.0
192, 0.5702075702075702, -0.5836385836385837, -0.26495726495726496, 0.1875, -0.125, -0.25, 0.0
193, 1.0854700854700854, -1.0586080586080586, -0.6910866910866911, -0.03125, -0.375, -0.4375, 0.0
194, 0.2979242979242979, -0.3089133089133089, -0.5921855921855922, -0.28125, -0.5625, -0.75, 0.0
195, -0.7081807081807082, 0.7667887667887668, -0.8192918192918193, -0.25, -0.53125, -0.6875, 0.0
196, -1.6495726495726495, 0.4542124542124542, -1.3296703296703296, -0.125, -0.34375, -0.4375, 0.0
197, -1.9536019536019535, 1.0341880341880343, -1.746031746031746, -0.21875, 0.15625, -0.03125, 0.0
198, -1.7887667887667889, 0.7301587301587301, -1.1697191697191698, -0.3125, 0.6875, 0.59375, 0.0
199, -0.73992673992674, 0.5897435897435898, -0.06471306471306472, -0.21875, 0.875, 0.75, 0.0
200, 1.061050061050061, -0.5567765567765568, 0.4652014652014652, -0.1875, 0.59375, 0.53125, 0.0
201, 1.5274725274725274, -1.5726495726495726, 0.4163614163614164, -0.375, 0.0625, 0.0, 0.0
202, 0.19413919413919414, -1.1111111111111112, 0.6031746031746031, -0.40625, -0.125, -0.1875, 0.0
203, -0.2967032967032967, -0.8498168498168498, 0.7496947496947497, -0.28125, -0.03125, -0.0625, 0.0
204, 0.32112332112332115, -1.1758241758241759, 0.8070818070818071, -0.1875, -0.125, -0.15625, 0.0
205, 0.5238095238095238, -1.2393162393162394, 0.7875457875457875, -0.21875, -0.3125, -0.28125, 0.0
206, 0.21245421245421245, -0.8424908424908425, 0.6971916971916972, -0.21875, -0.4375, -0.34375, 0.0
207, 0.2967032967032967, -1.0024420024420024, 0.27350427350427353, -0.1875, -0.46875, -0.3125, 0.0
208, 0.4126984126984127, -1.0390720390720392, 0.31013431013431014, -0.21875, -0.40625, -0.34375, 0.0
209, 0.2503052503052503, -0.7057387057387058, 0.5811965811965812, -0.125, -0.3125, -0.34375, 0.0
210, -0.8888888888888888, 0.16117216117216118, 0.15873015873015872, 0.0, -0.03125, -0.28125, 0.0
211, -0.833943833943834, -0.23076923076923078, 0.11721611721611722, -0.125, 0.0, 0.03125, 0.0
212, -0.4603174603174603, -0.10866910866910867, 0.557997557997558, -0.15625, 0.125, 0.21875, 0.0
213, -0.11355311355311355, -0.002442002442002442, 1.006105006105006, 0.0, 0.1875, 0.3125, 0.0
214, 0.42857142857142855, -0.47619047619047616, 0.8290598290598291, 0.0625, 0.15625, 0.375, 0.0
215, 1.2503052503052503, -1.3418803418803418, 0.2783882783882784, -0.09375, 0.0, 0.21875, 0.0
216, 0.221001221001221, -0.1623931623931624, 0.14163614163614163, -0.03125, 0.21875, 0.125, 0.0
217, -1.1636141636141637, 1.2820512820512822, -0.18803418803418803, 0.15625, 0.375, 0.25, 0.0
218, -3.938949938949939, 2.142857142857143, -1.286935286935287, 0.21875, 0.65625, 0.8125, 0.0
219, -2.6910866910866913, -0.2564102564102564, -1.5189255189255189, -0.125, 1.25, 1.90625, 0.0
220, 3.3833943833943834, -3.3284493284493286, -0.18681318681318682, -0.5625, 1.34375, 1.59375, 0.0
221, 6.873015873015873, -2.78021978021978, 1.4273504273504274, -0.25, 0.34375, 0.03125, 0.0
222, 4.536019536019536, -2.427350427350427, 1.5653235653235653, 0.03125, -0.6875, -1.15625, 0.0
223, -0.73992673992674, -1.4212454212454213, 0.9267399267399268, 0.09375, -0.40625, -0.8125, 0.0
224, 1.6776556776556777, -1.4566544566544566, 1.5885225885225884, 0.0, -0.15625, -0.34375, 0.0
225, 2.568986568986569, -1.0183150183150182, 2.1294261294261294, -0.09375, -0.625, -0.53125, 0.0
226, 2.2332112332112333, -0.5738705738705738, 1.8131868131868132, 0.15625, -0.75, -0.96875, 0.0
227, 0.9572649572649573, -0.004884004884004884, 0.6862026862026862, 0.53125, -0.6875, -1.15625, 0.0
228, -0.9181929181929182, 0.42246642246642246, -0.4004884004884005, 0.59375, -0.4375, -1.03125, 0.0
229, -1.0354090354090355, -0.1746031746031746, -1.1465201465201464, 0.4375, 0.0, -0.5, 0.0
230, -0.08669108669108669, -0.3833943833943834, -0.8547008547008547, 0.125, 0.40625, 0.0625, 0.0
231, 1.2002442002442002, -0.45665445665445664, -0.38095238095238093, 0.09375, 0.59375, 0.03125, 0.0
232, 0.8290598290598291, -0.4652014652014652, -1.1697191697191698, 0.1875, 0.375, -0.28125, 0.0
233, -1.0317460317460319, -0.34554334554334554, -1.938949938949939, 0.125, 0.21875, -0.34375, 0.0
234, -1.606837606837607, 0.0989010989010989, -2.105006105006105, 0.0, 0.53125, -0.21875, 0.0
235, -1.4554334554334554, -0.05372405372405373, -1.962148962148962, 0.0625, 0.84375, -0.03125, 0.0
236, -1.2246642246642248, -0.08058608058608059, -1.691086691086691, 0.0, 0.90625, 0.0, 0.0
237, -1.0964590964590966, 0.0, -1.2991452991452992, -0.09375, 0.75, -0.09375, 0.0
238, -1.4212454212454213, 0.050061050061050064, -0.8327228327228328, -0.1875, 0.53125, -0.21875, 0.0
239, -2.426129426129426, 0.6813186813186813, -0.43223443223443225, -0.21875, 0.40625, -0.25, 0.0
240, -1.691086691086691, 0.7032967032967034, -0.21123321123321123, -0.15625, 0.5, -0.125, 0.0
241, -1.4126984126984128, 0.8400488400488401, -0.12332112332112333, -0.15625, 0.25, -0.09375, 0.0
242, -1.8205128205128205, 1.120879120879121, -0.013431013431013432, -0.1875, 0.0, -0.15625, 0.0
243, -1.8510378510378511, 0.9902319902319903, 0.0757020757020757, -0.15625, -0.03125, -0.03125, 0.0
244, -1.42002442002442, 0.6446886446886447, 0.2515262515262515, -0.125, -0.0625, 0.0625, 0.0
245, -1.0012210012210012, 0.47985347985347987, 0.2612942612942613, -0.15625, -0.15625, 0.15625, 0.0
246, -0.4481074481074481, -0.1111111111111111, -0.18315018315018314, -0.125, -0.1875, 0.1875, 0.0
247, -0.0463980463980464, -0.37362637362637363, -0.45787545787545786, -0.25, -0.3125, 0.21875, 0.0
248, -0.020757020757020756, -0.2612942612942613, -0.42857142857142855, -0.25, -0.28125, 0.28125, 0.0
249, 0.24297924297924298, -0.5641025641025641, -0.3601953601953602, -0.3125, -0.21875, 0.34375, 0.0
250, 0.31135531135531136, -0.5347985347985348, -0.11477411477411477, -0.3125, -0.15625, 0.375, 0.0
251, 0.18803418803418803, -0.4017094017094017, -0.2148962148962149, -0.25, 0.0, 0.46875, 0.0
252, 0.663003663003663, -0.5592185592185592, -0.25274725274725274, -0.28125, -0.03125, 0.53125, 0.0
253, 0.800976800976801, -0.7557997557997558, -0.15506715506715507, -0.3125, -0.0625, 0.5, 0.0
254, 0.7521367521367521, -0.7057387057387058, 0.05860805860805861, -0.25, 0.03125, 0.5, 0.0
255, 1.0757020757020757, -1.098901098901099, 0.23443223443223443, -0.28125, 0.0, 0.4375, 0.0
256, 1.1965811965811965, -1.1452991452991452, 0.4603174603174603, -0.34375, -0.125, 0.28125, 0.0
257, 0.938949938949939, -0.6105006105006106, 0.7338217338217338, -0.21875, -0.15625, 0.15625, 0.0
258, 0.8363858363858364, -0.6996336996336996, 0.6239316239316239, -0.15625, -0.1875, 0.09375, 0.0
259, 0.5641025641025641, -0.6214896214896215, 0.47496947496947495, -0.15625, -0.25, 0.03125, 0.0
260, 0.4017094017094017, -0.48595848595848595, 0.24664224664224665, -0.125, -0.25, 0.03125, 0.0
261, 0.18192918192918192, -0.34065934065934067, 0.0463980463980464, -0.125, -0.15625, 0.09375, 0.0
262, 0.23565323565323565, -0.3125763125763126, 0.052503052503052504, -0.125, -0.09375, 0.125, 0.0
263, 0.33455433455433453, -0.3137973137973138, 0.11721611721611722, -0.125, -0.0625, 0.15625, 0.0
264, 0.4078144078144078, -0.28815628815628813, 0.19047619047619047, -0.09375, -0.0625, 0.125, 0.0
265, 0.42124542124542125, -0.15506715506715507, 0.3052503052503053, -0.0625, -0.09375, 0.125, 0.0
266, 0.014652014652014652, 0.13553113553113552, 0.31013431013431014, 0.0625, -0.09375, 0.125, 0.0
267, -0.02564102564102564, 0.045177045177045176, 0.2905982905982906, 0.15625, -0.1875, 0.09375, 0.0
268, -0.2783882783882784, 0.44078144078144077, 0.36996336996337, 0.34375, -0.125, 0.0625, 0.0
269, -0.019536019536019536, -0.11843711843711843, 0.12698412698412698, 0.4375, -0.125, 0.09375, 0.0
270, 0.03540903540903541, -0.23321123321123322, -0.11477411477411477, 0.34375, -0.125, 0.09375, 1.0
271, -0.08913308913308914, 0.018315018315018316, -0.07814407814407814, 0.34375, 0.0, 0.09375, 1.0
272, -0.16117216117216118, 0.34798534798534797, 0.14163614163614163, 0.125, -0.09375, 0.21875, 1.0
273, -0.02197802197802198, 0.10378510378510379, 0.25274725274725274, 0.28125, -0.03125, 0.25, 1.0
274, 0.14041514041514042, -0.2515262515262515, 0.16117216117216118, 0.375, -0.0625, 0.3125, 1.0
275, 0.02564102564102564, -0.6581196581196581, -0.11721611721611722, 0.3125, 0.0, 0.25, 1.0
276, 0.06227106227106227, -0.304029304029304, -0.10744810744810745, 0.15625, 0.09375, 0.28125, 1.0
277, 0.32722832722832723, -0.1330891330891331, -0.02442002442002442, 0.1875, 0.28125, 0.28125, 1.0
278, 1.0463980463980465, -0.575091575091575, -0.4981684981684982, 0.53125, 0.34375, 0.3125, 1.0
279, 1.3724053724053724, -1.380952380952381, -0.7704517704517705, 0.71875, 0.3125, 0.28125, 1.0
280, 1.0122100122100122, -0.8644688644688645, -0.3247863247863248, 0.75, 0.46875, 0.15625, 1.0
281, 0.43345543345543347, -0.5860805860805861, -0.17582417582417584, 1.0625, 0.9375, 0.1875, 1.0
282, 0.3882783882783883, -0.17582417582417584, -0.409035409035409, 1.40625, 1.5, 0.34375, 1.0
283, 0.08913308913308914, -0.20024420024420025, -1.2637362637362637, 1.96875, 2.09375, 0.65625, 1.0
284, 1.061050061050061, -1.4224664224664225, -2.199023199023199, 2.53125, 3.0625, 0.84375, 1.0
285, 1.315018315018315, -1.264957264957265, -2.4652014652014653, 2.625, 3.78125, 0.6875, 1.0
286, 0.40415140415140416, -0.08547008547008547, -2.1648351648351647, 2.71875, 4.3125, 0.625, 1.0
287, 0.07326007326007326, 0.5421245421245421, -1.706959706959707, 3.125, 4.9375, 0.6875, 1.0
288, 1.1721611721611722, 0.09523809523809523, -1.9572649572649572, 3.53125, 5.21875, 0.6875, 1.0
289, 0.5445665445665445, 0.5592185592185592, -2.213675213675214, 3.46875, 4.90625, 0.5625, 1.0
290, -0.9499389499389499, 1.2124542124542124, -1.9145299145299146, 3.59375, 5.15625, 0.375, 1.0
291, -0.20024420024420025, 1.1892551892551892, -1.2087912087912087, 4.28125, 6.09375, 0.5, 1.0
292, 3.0793650793650795, -0.44078144078144077, -1.010989010989011, 4.84375, 6.28125, 0.4375, 1.0
293, 3.5824175824175826, -1.1660561660561661, -1.4786324786324787, 4.5625, 5.15625, -0.375, 1.0
294, 0.6092796092796092, 0.07081807081807082, -1.5873015873015872, 4.3125, 4.5, -1.03125, 1.0
295, 1.1025641025641026, -1.0317460317460319, -1.4297924297924298, 4.59375, 5.03125, -1.15625, 1.0
296, 2.7496947496947497, -2.0195360195360195, -0.9169719169719169, 4.1875, 4.15625, -1.25, 1.0
297, 2.1587301587301586, -2.659340659340659, -0.6654456654456654, 4.0, 3.5, -1.5625, 1.0
298, 2.6764346764346763, -2.3162393162393164, -1.1062271062271063, 3.875, 2.78125, -1.6875, 1.0
299, 1.6349206349206349, -2.137973137973138, -2.2185592185592187, 3.6875, 2.5625, -1.9375, 1.0
300, 2.3626373626373627, -3.352869352869353, -2.695970695970696, 3.125, 2.34375, -2.0625, 1.0
301, 1.9853479853479854, -3.286935286935287, -2.2844932844932844, 2.375, 1.90625, -1.9375, 1.0
302, 0.7057387057387058, -1.2002442002442002, -1.2881562881562882, 2.46875, 1.8125, -1.71875, 1.0
303, 0.0757020757020757, -0.6568986568986569, -1.1684981684981686, 2.96875, 1.875, -1.4375, 1.0
304, 0.6727716727716728, -1.9304029304029304, -2.0024420024420024, 2.9375, 1.5, -1.75, 1.0
305, -0.26495726495726496, -1.9511599511599511, -3.2344322344322345, 2.5, 1.40625, -2.40625, 1.0
306, -0.3907203907203907, -0.7533577533577533, -4.097680097680097, 2.125, 1.03125, -1.78125, 1.0
307, -1.5628815628815629, -0.47619047619047616, -3.8253968253968256, 1.75, 0.875, -0.875, 1.0
308, -0.06471306471306472, -0.8595848595848596, -2.9267399267399266, 1.46875, 1.1875, -1.1875, 1.0
309, 0.5946275946275946, -0.398046398046398, -1.568986568986569, 1.5625, 0.875, -1.25, 1.0
310, 0.002442002442002442, 0.2686202686202686, -2.2783882783882783, 1.8125, 0.375, -1.34375, 1.0
311, -1.6715506715506716, -1.6324786324786325, -3.967032967032967, 1.28125, 0.5625, -1.34375, 1.0
312, -1.0598290598290598, 0.07936507936507936, -3.5042735042735043, 1.0625, 0.25, -1.1875, 1.0
313, -2.004884004884005, -0.5567765567765568, -4.070818070818071, 0.6875, 0.21875, -1.03125, 1.0
314, -2.318681318681319, 0.12942612942612944, -3.9328449328449326, 0.3125, 0.625, -0.875, 1.0
315, -0.9951159951159951, 1.1196581196581197, -2.877899877899878, 0.3125, 0.4375, -0.53125, 1.0
316, -0.8620268620268621, -0.08669108669108669, -2.6678876678876677, 0.28125, 0.15625, -0.46875, 1.0
317, -1.1184371184371185, -0.1562881562881563, -1.8925518925518925, 0.3125, 0.1875, -0.375, 1.0
318, -0.9487179487179487, -0.020757020757020756, -1.6715506715506716, 0.375, 0.125, -0.15625, 1.0
319, -0.6776556776556777, -0.5091575091575091, -1.8656898656898657, 0.28125, 0.03125, -0.25, 1.0
320, -1.192918192918193, -0.9658119658119658, -1.971916971916972, 0.0, 0.21875, -0.15625, 1.0
321, -0.4652014652014652, -0.28205128205128205, -0.7875457875457875, 0.0625, 0.1875, -0.0625, 1.0
322, -0.4627594627594628, -0.12454212454212454, -0.6605616605616605, 0.21875, 0.0625, 0.0, 1.0
323, 0.14407814407814407, -0.8168498168498168, -0.5421245421245421, 0.3125, 0.0, 0.0625, 1.0
324, 0.16483516483516483, -0.6703296703296703, -1.1196581196581197, 0.15625, -0.3125, -0.03125, 1.0
325, -0.9157509157509157, 0.47863247863247865, -2.0854700854700856, -0.0625, -0.375, -0.0625, 1.0
326, -0.9536019536019537, -0.7838827838827839, -2.8058608058608057, -0.34375, 0.03125, 0.21875, 1.0
327, 0.5531135531135531, -0.47863247863247865, -1.0390720390720392, -0.71875, 0.15625, 0.15625, 1.0
328, 0.5604395604395604, -0.40293040293040294, 0.054945054945054944, -0.625, -0.3125, -0.0625, 1.0
329, 0.4993894993894994, -0.0757020757020757, 0.07326007326007326, -0.40625, -0.78125, -0.34375, 1.0
330, -1.8656898656898657, 0.8461538461538461, -1.0561660561660562, -0.125, -1.125, -0.40625, 0.0
331, -2.879120879120879, -1.7753357753357752, -2.5641025641025643, -0.3125, -0.53125, 0.1875, 0.0
332, -0.31868131868131866, -1.393162393162393, -0.7533577533577533, -0.9375, 0.125, 0.4375, 0.0
333, 0.7826617826617827, -0.7472527472527473, 0.199023199023199, -1.09375, -0.40625, 0.25, 0.0
334, -0.32967032967032966, -0.06105006105006105, -0.1746031746031746, -1.0, -1.40625, -0.15625, 0.0
335, -3.4932844932844933, 3.8131868131868134, -1.2295482295482296, -0.4375, -1.53125, 0.25, 0.0
336, -2.6227106227106227, 2.1538461538461537, -2.2515262515262515, 0.53125, -1.0, 1.375, 0.0
337, -1.6007326007326008, -3.087912087912088, -3.199023199023199, 0.59375, -1.25, 2.03125, 0.0
338, 0.11233211233211234, -3.4761904761904763, -1.8717948717948718, -0.75, -1.78125, 1.25, 0.0
339, -1.0647130647130647, -0.3235653235653236, -0.4139194139194139, -1.9375, -2.75, 0.21875, 0.0
340, -3.9316239316239314, 2.9255189255189253, -1.170940170940171, -1.75, -3.0, 0.28125, 0.0
341, -3.385836385836386, 2.9206349206349205, -2.0586080586080584, -0.65625, -2.25, 0.90625, 0.0
342, -1.199023199023199, 0.2026862026862027, -1.9926739926739927, -0.0625, -2.25, 1.46875, 0.0
343, -0.01221001221001221, -0.645909645909646, -2.1294261294261294, -0.53125, -3.21875, 1.5, 0.0
344, -0.2893772893772894, 0.24175824175824176, -1.52014652014652, -1.3125, -4.5, 0.71875, 0.0
345, -2.5494505494505493, 2.84981684981685, -0.5775335775335775, -1.8125, -5.46875, 1.21875, 0.0
346, -2.84004884004884, 4.503052503052503, 0.15384615384615385, -1.6875, -5.25, 2.1875, 0.0
347, -0.1794871794871795, 4.512820512820513, -0.5531135531135531, -2.15625, -5.0625, 1.5625, 0.0
348, 1.36996336996337, 5.763125763125763, 0.8156288156288156, -2.875, -5.8125, 0.15625, 0.0
349, -1.0952380952380953, 6.391941391941392, 1.78998778998779, -2.6875, -5.5, 0.625, 0.0
350, -1.9291819291819292, 7.002442002442002, 1.2234432234432235, -1.46875, -3.875, 1.78125, 0.0
351, 3.3614163614163615, 3.2454212454212454, 0.7814407814407814, -1.09375, -4.3125, 1.34375, 0.0
352, 5.5506715506715505, -0.9145299145299145, 2.1965811965811968, -2.6875, -7.40625, -0.15625, 0.0
353, 1.768009768009768, 0.4444444444444444, 3.6727716727716726, -3.1875, -8.875, -0.1875, 0.0
354, -3.778998778998779, 4.271062271062271, 2.1709401709401708, -1.375, -6.5, 1.0625, 0.0
355, -3.2063492063492065, 4.372405372405372, 0.6105006105006106, 1.15625, -3.375, 2.0, 0.0
356, 1.6483516483516483, -0.8986568986568987, -0.706959706959707, 1.25, -2.9375, 1.5, 0.0
357, 4.264957264957265, -3.554334554334554, -0.37362637362637363, -0.78125, -5.0625, 0.78125, 0.0
358, 2.1355311355311355, -1.9377289377289377, 0.6874236874236874, -2.0625, -6.4375, -0.15625, 0.0
359, -1.7545787545787546, 1.3406593406593406, 0.5042735042735043, -1.46875, -5.40625, -0.1875, 0.0
360, -3.045177045177045, 2.156288156288156, -0.15262515262515264, -0.3125, -3.625, 0.625, 0.0
361, 0.9242979242979243, -0.07081807081807082, -1.2344322344322345, 0.40625, -3.25, 0.875, 0.0
362, 1.0134310134310134, -2.4358974358974357, -2.7655677655677655, 0.0, -3.15625, 0.25, 0.0
363, -0.5848595848595849, -1.072039072039072, -2.9731379731379732, -0.59375, -2.4375, 0.46875, 0.0
364, -0.08547008547008547, 0.054945054945054944, -2.330891330891331, -0.625, -1.875, 0.65625, 0.0
365, -0.0927960927960928, 0.8815628815628815, -1.1452991452991452, -0.21875, -1.875, 0.71875, 0.0
366, 0.18192918192918192, 1.9597069597069596, -1.663003663003663, 0.71875, -2.09375, 1.03125, 0.0
367, -0.27106227106227104, 0.39316239316239315, -3.827838827838828, 1.21875, -1.875, 1.375, 0.0
368, -0.3418803418803419, -2.6214896214896215, -5.754578754578755, 0.1875, -0.96875, 1.53125, 0.0
369, 1.1916971916971917, -2.416361416361416, -4.365079365079365, -1.0, 0.0, 1.78125, 0.0
370, 3.888888888888889, 0.4346764346764347, -0.40415140415140416, -0.46875, -0.1875, 1.5, 0.0
371, 3.258852258852259, -0.34676434676434675, -1.465201465201465, 0.28125, -0.65625, 1.15625, 0.0
372, 2.5665445665445668, -1.5152625152625152, -2.935286935286935, 0.3125, -0.65625, 1.0, 0.0
373, 1.8937728937728937, -0.8754578754578755, -3.006105006105006, -0.1875, -0.34375, 0.96875, 0.0
374, 1.8998778998778998, -0.2454212454212454, -1.4884004884004884, -0.53125, 0.0, 1.125, 0.0
375, 3.404151404151404, -0.7008547008547008, -0.09401709401709402, -0.28125, 0.25, 1.1875, 0.0
376, 3.916971916971917, -1.0598290598290598, -0.12942612942612944, -0.0625, 0.03125, 0.84375, 0.0
377, 2.340659340659341, -1.0879120879120878, -0.8766788766788767, -0.125, -0.15625, 0.46875, 0.0
378, 1.0708180708180708, -0.39194139194139194, -0.7557997557997558, -0.28125, 0.09375, 0.46875, 0.0
379, 1.7851037851037852, -0.8070818070818071, -0.1562881562881563, -0.28125, 0.40625, 0.59375, 0.0
380, 2.166056166056166, -0.5274725274725275, 0.3772893772893773, -0.28125, 0.28125, 0.46875, 0.0
381, 1.1733821733821734, -0.35653235653235654, 0.2148962148962149, -0.1875, 0.0625, 0.28125, 0.0
382, 0.5653235653235653, -0.3553113553113553, 0.12698412698412698, -0.1875, 0.03125, 0.28125, 0.0
383, 0.41514041514041516, -0.315018315018315, 0.2625152625152625, -0.1875, 0.0625, 0.21875, 0.0
384, 0.3125763125763126, -0.25518925518925517, 0.15018315018315018, -0.09375, 0.03125, 0.15625, 0.0
385, 0.46153846153846156, -0.8253968253968254, -0.11477411477411477, -0.15625, -0.03125, 0.15625, 0.0
386, 0.21001221001221002, -0.29304029304029305, 0.10134310134310134, -0.25, -0.0625, 0.0625, 0.0
387, -0.34676434676434675, -0.042735042735042736, 0.14163614163614163, -0.0625, 0.0, 0.03125, 0.0
388, 0.20757020757020758, -0.6178266178266179, 0.03785103785103785, 0.03125, 0.125, 0.09375, 0.0
389, 0.2625152625152625, -0.16971916971916973, 0.13553113553113552, 0.0, 0.0, 0.03125, 0.0
390, -0.41514041514041516, 0.057387057387057384, -0.10744810744810745, 0.0625, 0.0, 0.03125, 0.0
391, -0.4896214896214896, 0.2857142857142857, -0.2258852258852259, 0.15625, 0.25, 0.25, 0.0
392, 0.38217338217338215, -0.42246642246642246, -0.2600732600732601, 0.28125, 0.3125, 0.40625, 0.0
393, 0.5274725274725275, 0.047619047619047616, -0.04884004884004884, 0.46875, 0.21875, 0.34375, 0.0
394, 0.30158730158730157, 0.3907203907203907, 0.002442002442002442, 0.96875, 0.375, 0.40625, 0.0
395, 0.45665445665445664, -0.44078144078144077, -0.23931623931623933, 1.15625, 0.53125, 0.5, 1.0
396, 0.1391941391941392, -0.6678876678876678, -0.833943833943834, 0.8125, 0.65625, 0.625, 1.0
397, -0.20146520146520147, 0.29426129426129427, -1.170940170940171, 0.8125, 1.0, 0.84375, 1.0
398, 1.3785103785103785, -0.6373626373626373, -1.0708180708180708, 0.90625, 1.0625, 0.6875, 1.0
399, 1.1538461538461537, -1.0085470085470085, -1.3540903540903542, 0.84375, 1.125, 0.40625, 1.0
400, 0.17826617826617827, -0.7753357753357754, -1.9474969474969475, 0.625, 1.5, 0.4375, 1.0
401, -0.2271062271062271, -0.4603174603174603, -2.5177045177045176, 0.625, 2.15625, 0.65625, 1.0
402, -0.2686202686202686, -0.5982905982905983, -2.821733821733822, 0.6875, 2.9375, 0.90625, 1.0
403, 0.6593406593406593, -0.6398046398046398, -2.67032967032967, 0.875, 3.3125, 0.875, 1.0
404, -0.1684981684981685, -0.5274725274725275, -2.313797313797314, 1.25, 3.8125, 0.84375, 1.0
405, -0.2503052503052503, -0.4444444444444444, -2.1306471306471306, 1.71875, 4.53125, 0.875, 1.0
406, -0.32722832722832723, -0.5543345543345544, -1.8913308913308913, 2.0625, 4.96875, 1.03125, 1.0
407, -0.2087912087912088, -0.08547008547008547, -1.8510378510378511, 2.34375, 5.34375, 0.90625, 1.0
408, -0.5531135531135531, 0.7863247863247863, -1.7997557997557998, 2.75, 5.78125, 0.75, 1.0
409, 0.020757020757020756, 1.2124542124542124, -1.5909645909645909, 3.28125, 6.0625, 0.53125, 1.0
410, 0.3162393162393162, 0.34554334554334554, -1.8131868131868132, 3.4375, 5.84375, 0.65625, 1.0
411, -0.652014652014652, 0.6984126984126984, -1.667887667887668, 3.71875, 6.28125, 0.71875, 1.0
412, 0.9267399267399268, 0.1746031746031746, -0.8437118437118437, 3.96875, 6.125, 0.59375, 1.0
413, 1.5787545787545787, 0.20146520146520147, -0.7167277167277167, 4.125, 5.71875, 0.21875, 1.0
414, 1.89010989010989, -0.001221001221001221, -1.043956043956044, 4.3125, 5.40625, -0.15625, 1.0
415, 1.7704517704517704, 0.10378510378510379, -1.3846153846153846, 4.53125, 5.0, -0.28125, 1.0
416, 1.6898656898656899, -0.503052503052503, -1.3858363858363858, 4.6875, 4.4375, -0.125, 1.0
417, 2.456654456654457, -1.8107448107448108, -1.8083028083028083, 4.5, 3.96875, -0.375, 1.0
418, 3.2796092796092795, -2.3516483516483517, -1.4761904761904763, 3.65625, 2.28125, -1.34375, 1.0
419, -1.5286935286935286, 0.7008547008547008, -1.6556776556776556, 3.9375, 1.84375, -1.53125, 1.0
420, -0.35775335775335776, -2.758241758241758, -1.1978021978021978, 3.9375, 2.625, -1.0625, 1.0
421, 2.31013431013431, -1.7045177045177045, 0.6117216117216118, 3.28125, 2.0625, -0.78125, 1.0
422, 1.2356532356532357, -1.956043956043956, -0.12087912087912088, 3.0625, 0.59375, -1.03125, 1.0
423, -0.612942612942613, -0.31746031746031744, -1.78998778998779, 3.0625, -0.09375, -1.375, 1.0
424, -2.0097680097680097, -0.9877899877899878, -3.8522588522588523, 3.1875, 0.0625, -1.34375, 1.0
425, -0.8437118437118437, -1.4456654456654456, -4.7765567765567765, 2.78125, 0.71875, -1.34375, 1.0
426, -0.26373626373626374, 0.3992673992673993, -4.255189255189255, 2.21875, 0.6875, -1.1875, 1.0
427, -0.7155067155067155, -0.4713064713064713, -4.072039072039072, 2.3125, 0.4375, -1.0625, 1.0
428, -1.253968253968254, -0.29426129426129427, -4.256410256410256, 2.0625, 0.34375, -1.03125, 1.0
429, -1.0769230769230769, 0.45787545787545786, -4.474969474969475, 1.8125, 0.625, -1.21875, 1.0
430, -0.7032967032967034, -0.07936507936507936, -4.997557997557998, 1.5, 0.4375, -1.0, 1.0
431, -1.465201465201465, -0.27472527472527475, -4.759462759462759, 0.875, 0.125, -0.65625, 1.0
432, -1.2612942612942613, 0.09401709401709402, -3.6153846153846154, 0.625, 0.4375, -0.625, 1.0
433, -0.39194139194139194, -0.3247863247863248, -2.761904761904762, 0.59375, 0.5625, -0.40625, 1.0
434, 0.09645909645909646, -0.1978021978021978, -2.641025641025641, 0.40625, 0.3125, -0.5, 1.0
435, -1.0451770451770452, -0.12942612942612944, -3.001221001221001, 0.09375, -0.125, -0.53125, 1.0
436, -2.2735042735042734, 0.5213675213675214, -2.905982905982906, -0.1875, 0.03125, -0.21875, 1.0
437, -0.6117216117216118, 0.014652014652014652, -1.728937728937729, -0.25, 0.46875, 0.0, 1.0
438, -0.2564102564102564, -0.28327228327228327, -0.717948717948718, -0.375, 0.21875, -0.0625, 1.0
439, -0.5921855921855922, 0.3772893772893773, -0.3601953601953602, -0.3125, 0.03125, 0.0, 1.0
440, -0.07814407814407814, 0.10500610500610501, -0.06227106227106227, -0.09375, 0.03125, 0.0625, 1.0
441, -0.07814407814407814, 0.13064713064713065, 0.026862026862026864, 0.03125, -0.15625, 0.21875, 1.0
442, 0.2258852258852259, -0.1282051282051282, -0.07081807081807082, 0.09375, -0.625, 0.25, 1.0
443, 0.14774114774114774, -0.6984126984126984, -1.0537240537240538, -0.28125, -0.84375, 0.03125, 0.0
444, -0.2771672771672772, -0.6239316239316239, -1.9120879120879122, -0.875, -0.78125, -0.1875, 0.0
445, 0.33821733821733824, 0.3626373626373626, -1.3846153846153846, -1.125, -1.03125, -0.28125, 0.0
446, -0.5262515262515263, 0.575091575091575, -1.3687423687423688, -1.25, -1.53125, -0.21875, 0.0
447, -1.5592185592185592, 1.5225885225885225, -1.21001221001221, -0.6875, -1.75, 0.125, 0.0
448, -1.358974358974359, 1.3003663003663004, -1.006105006105006, -0.1875, -2.40625, 0.53125, 0.0
449, -1.993894993894994, -0.9291819291819292, -1.7045177045177045, -0.34375, -3.0, 0.625, 0.0
450, -2.7423687423687424, -0.9218559218559218, -1.855921855921856, -0.96875, -3.21875, 0.40625, 0.0
451, -3.1953601953601956, 0.304029304029304, -1.6886446886446886, -1.375, -3.375, 0.46875, 0.0
452, -3.628815628815629, 0.6788766788766789, -1.3137973137973138, -1.625, -3.375, 1.03125, 0.0
453, -3.943833943833944, 2.006105006105006, -0.8901098901098901, -1.4375, -3.21875, 1.6875, 0.0
454, -3.346764346764347, 2.382173382173382, -0.8290598290598291, -0.90625, -3.0625, 2.0625, 0.0
455, -2.409035409035409, 1.3785103785103785, -1.5946275946275947, -1.0625, -3.09375, 1.53125, 0.0
456, -1.6446886446886446, 1.3833943833943834, -1.7997557997557998, -2.0625, -3.1875, 0.6875, 0.0
457, -2.4835164835164836, 3.6336996336996337, -0.6141636141636142, -2.875, -3.0, 1.03125, 0.0
458, -1.7765567765567765, 6.717948717948718, 0.23565323565323565, -2.71875, -2.53125, 1.75, 0.0
459, 1.612942612942613, 7.267399267399267, 1.1892551892551892, -2.25, -3.28125, 1.59375, 0.0
460, 2.52014652014652, 6.2063492063492065, 1.4505494505494505, -2.40625, -5.0, 0.46875, 0.0
461, -0.7985347985347986, 4.920634920634921, 1.6776556776556777, -2.75, -5.3125, 0.1875, 0.0
462, -2.6495726495726495, 5.039072039072039, 0.9560439560439561, -2.40625, -3.78125, 1.3125, 0.0
463, -0.25396825396825395, 4.472527472527473, 0.9242979242979243, -1.90625, -2.9375, 1.46875, 0.0
464, 3.001221001221001, 1.9975579975579976, 1.7716727716727716, -2.25, -4.5, 0.78125, 0.0
465, 1.1367521367521367, 1.9035409035409034, 2.937728937728938, -2.375, -5.78125, 0.71875, 0.0
466, -0.49206349206349204, 1.4456654456654456, 1.884004884004884, -1.875, -5.03125, 1.6875, 0.0
467, 1.5897435897435896, 0.3492063492063492, 0.14285714285714285, -1.53125, -3.75, 1.34375, 0.0
468, 0.8986568986568987, 0.9316239316239316, 0.5225885225885226, -1.65625, -4.21875, 0.75, 0.0
469, 0.945054945054945, 0.46642246642246643, 0.800976800976801, -1.71875, -5.125, 0.5625, 0.0
470, 1.2124542124542124, -1.2185592185592184, 0.27350427350427353, -1.78125, -6.15625, 0.0625, 0.0
471, -1.2881562881562882, -0.5433455433455433, 0.14896214896214896, -2.03125, -6.5625, -0.46875, 0.0
472, -4.358974358974359, 1.7264957264957266, 0.17216117216117216, -1.6875, -5.5625, -0.28125, 0.0
473, -2.3553113553113554, 1.291819291819292, -0.3553113553113553, -0.5, -3.9375, 0.40625, 0.0
474, 0.9536019536019537, -0.6007326007326007, -1.407814407814408, 0.34375, -3.65625, 1.21875, 0.0
475, -0.1575091575091575, -2.735042735042735, -4.528693528693529, 0.1875, -3.84375, 1.0, 0.0
476, -0.05616605616605617, -1.57997557997558, -6.406593406593407, -0.0625, -2.40625, 0.6875, 0.0
477, 1.4297924297924298, -0.49206349206349204, -5.428571428571429, -0.03125, -1.09375, 1.125, 0.0
478, 3.275946275946276, -0.9914529914529915, -3.9267399267399266, 0.0, -0.84375, 1.21875, 0.0
479, 3.371184371184371, -0.811965811965812, -2.7814407814407813, -0.15625, -1.21875, 0.875, 0.0
480, 1.7374847374847375, -0.28327228327228327, -2.6971916971916974, -0.1875, -1.28125, 0.53125, 0.0
481, 1.6349206349206349, 0.24786324786324787, -2.543345543345543, -0.15625, -0.875, 0.28125, 0.0
482, 1.1868131868131868, 1.192918192918193, -1.9120879120879122, -0.125, -0.96875, 0.3125, 0.0
483, 0.6568986568986569, 1.1367521367521367, -1.9181929181929183, 0.0625, -0.90625, 0.5, 0.0
484, 1.2283272283272284, 0.09401709401709402, -2.086691086691087, 0.15625, -0.59375, 0.78125, 0.0
485, 1.7606837606837606, -0.3333333333333333, -1.9768009768009769, -0.15625, -0.5, 0.6875, 0.0
486, 1.072039072039072, 0.3443223443223443, -1.3406593406593406, -0.4375, -0.375, 0.5625, 0.0
487, 1.0512820512820513, 0.8156288156288156, -0.5518925518925519, -0.3125, -0.15625, 0.71875, 0.0
488, 1.9816849816849818, -0.14896214896214896, -0.57997557997558, 0.0, -0.09375, 0.8125, 0.0
489, 2.213675213675214, -1.0451770451770452, -0.9487179487179487, -0.0625, -0.1875, 0.6875, 0.0
490, 1.8376068376068375, -0.7216117216117216, -0.7997557997557998, -0.21875, -0.125, 0.4375, 0.0
491, 1.4395604395604396, -0.49694749694749696, -0.5543345543345544, -0.21875, 0.03125, 0.25, 0.0
492, 1.199023199023199, -0.5616605616605617, -0.28327228327228327, -0.21875, 0.0, 0.21875, 0.0
493, 0.5775335775335775, -0.4713064713064713, -0.08547008547008547, -0.1875, 0.0, 0.25, 0.0
494, 0.463980463980464, -0.5299145299145299, 0.031746031746031744, -0.15625, 0.09375, 0.3125, 0.0
495, 0.43101343101343104, -0.8315018315018315, 0.09035409035409035, -0.21875, 0.1875, 0.3125, 0.0
496, 0.7057387057387058, -0.7264957264957265, 0.33943833943833945, -0.21875, 0.1875, 0.1875, 0.0
497, 0.35775335775335776, -0.746031746031746, 0.36385836385836384, -0.21875, 0.125, 0.125, 0.0
498, 0.19536019536019536, -0.6031746031746031, 0.4627594627594628, -0.125, 0.125, 0.09375, 0.0
499, 0.17338217338217338, -0.7032967032967034, 0.45054945054945056, -0.0625, 0.125, 0.09375, 0.0
500, 0.2564102564102564, -0.49572649572649574, 0.42857142857142855, -0.03125, 0.09375, 0.0, 0.0
501, -0.07448107448107448, -0.26373626373626374, 0.19413919413919414, -0.09375, 0.0625, 0.0, 0.0
502, -0.24175824175824176, -0.028083028083028084, 0.10134310134310134, -0.09375, 0.125, 0.0, 0.0
503, -0.06471306471306472, -0.07081807081807082, 0.07326007326007326, -0.09375, 0.09375, 0.0, 0.0
504, -0.31746031746031744, 0.21001221001221002, 0.2673992673992674, 0.0, 0.09375, 0.0, 0.0
505, -0.5518925518925519, 0.22954822954822954, 0.1330891330891331, 0.125, 0.1875, 0.125, 0.0
506, -0.1794871794871795, 0.08669108669108669, 0.030525030525030524, 0.3125, 0.1875, 0.15625, 0.0
507, -0.06105006105006105, -0.007326007326007326, -0.05616605616605617, 0.46875, 0.25, 0.21875, 1.0
508, 0.031746031746031744, 0.4297924297924298, 0.2087912087912088, 0.78125, 0.21875, 0.34375, 1.0
509, -0.10744810744810745, -0.525030525030525, -0.07814407814407814, 0.9375, 0.375, 0.4375, 1.0
510, -0.06471306471306472, -0.7008547008547008, -0.9401709401709402, 0.6875, 0.625, 0.4375, 1.0
511, 0.5738705738705738, -0.18681318681318682, -1.2527472527472527, 0.5, 0.71875, 0.5, 1.0
512, 0.7081807081807082, -0.4481074481074481, -1.8864468864468864, 0.40625, 0.96875, 0.53125, 1.0
513, 0.7448107448107448, -0.3321123321123321, -2.0195360195360195, 0.375, 1.28125, 0.53125, 1.0
514, 0.23443223443223443, -0.18315018315018314, -2.2673992673992673, 0.4375, 1.8125, 0.65625, 1.0
515, 0.14163614163614163, -0.1330891330891331, -2.1257631257631258, 0.6875, 2.4375, 0.96875, 1.0
516, -0.20634920634920634, 0.06105006105006105, -2.1172161172161172, 1.0625, 3.28125, 1.28125, 1.0
517, 0.3626373626373626, -0.7326007326007326, -2.2954822954822953, 1.59375, 4.375, 1.71875, 1.0
518, 0.7509157509157509, -0.8046398046398047, -1.774114774114774, 1.9375, 5.03125, 1.71875, 1.0
519, 0.8363858363858364, -0.6703296703296703, -0.9133089133089133, 2.3125, 5.625, 1.3125, 1.0
520, 2.0195360195360195, -1.9926739926739927, -1.2503052503052503, 2.84375, 5.875, 0.71875, 1.0
521, 1.424908424908425, -1.3858363858363858, -1.7851037851037852, 2.59375, 5.375, 0.625, 1.0
522, 1.4761904761904763, -0.7167277167277167, -1.8034188034188035, 2.3125, 4.9375, 0.3125, 1.0
523, 0.16117216117216118, 0.6544566544566545, -1.557997557997558, 2.375, 4.71875, 0.0625, 1.0
524, -1.5421245421245422, 1.8986568986568986, -1.0256410256410255, 2.9375, 5.21875, 0.0625, 1.0
525, -0.3907203907203907, 1.575091575091575, -1.05006105006105, 3.75, 6.15625, 0.3125, 1.0
526, 1.465201465201465, 0.7680097680097681, -1.3308913308913308, 3.9375, 6.0625, 0.40625, 1.0
527, 1.3907203907203907, 0.608058608058608, -1.8315018315018314, 3.71875, 5.375, -0.03125, 1.0
528, 1.072039072039072, 0.9255189255189256, -1.652014652014652, 3.65625, 5.0625, -0.34375, 1.0
529, 0.21611721611721613, 1.05006105006105, -1.0915750915750915, 3.96875, 4.96875, -0.5625, 1.0
530, 0.46764346764346765, 0.1514041514041514, -1.4407814407814408, 4.5, 5.46875, -0.46875, 1.0
531, 2.2454212454212454, -0.8192918192918193, -1.822954822954823, 4.59375, 5.34375, -0.46875, 1.0
532, 2.7838827838827838, -1.2759462759462759, -2.5213675213675213, 4.09375, 4.3125, -0.53125, 1.0
533, 1.7387057387057387, -2.173382173382173, -2.6312576312576312, 3.4375, 3.3125, -0.78125, 1.0
534, 1.115995115995116, -0.4590964590964591, -2.183150183150183, 3.1875, 2.75, -0.65625, 1.0
535, 1.105006105006105, -0.9120879120879121, -2.617826617826618, 3.4375, 2.40625, -0.78125, 1.0
536, 1.1062271062271063, -1.3308913308913308, -3.1623931623931623, 3.1875, 2.0625, -1.09375, 1.0
537, 0.48473748473748474, -1.2686202686202686, -3.3028083028083026, 2.75, 1.46875, -1.15625, 1.0
538, -0.4481074481074481, -0.5531135531135531, -2.8205128205128207, 2.28125, 0.96875, -0.75, 1.0
539, -0.503052503052503, -0.3663003663003663, -2.658119658119658, 2.09375, 0.78125, -0.59375, 1.0
540, -0.5897435897435898, -0.6764346764346765, -2.617826617826618, 1.78125, 0.5, -0.625, 1.0
541, -0.8168498168498168, 0.3724053724053724, -2.9584859584859586, 1.71875, 0.71875, -0.75, 1.0
542, 0.2673992673992674, 0.33943833943833945, -3.312576312576313, 1.65625, 0.6875, -0.8125, 1.0
543, 0.8876678876678876, 0.36385836385836384, -3.970695970695971, 1.28125, 0.09375, -0.71875, 1.0
544, -0.9865689865689866, -0.04884004884004884, -4.137973137973138, 0.75, 0.375, -0.53125, 1.0
545, 0.16971916971916973, 0.8632478632478633, -3.1086691086691087, 0.75, 0.65625, -0.5, 1.0
546, 0.7826617826617827, 0.717948717948718, -2.8376068376068377, 0.78125, 0.21875, -0.5625, 1.0
547, -0.46153846153846156, 0.9474969474969475, -3.4358974358974357, 0.65625, 0.25, -0.71875, 1.0
548, -0.5970695970695971, 0.6202686202686203, -3.5506715506715505, 0.3125, 0.28125, -0.40625, 1.0
549, -0.5677655677655677, 0.4652014652014652, -3.1465201465201464, 0.0, 0.15625, -0.3125, 1.0
550, -1.3308913308913308, 0.7045177045177046, -2.0195360195360195, 0.0625, 0.21875, -0.0625, 1.0
551, -0.8498168498168498, -0.15995115995115994, -1.2173382173382172, 0.03125, 0.25, 0.09375, 1.0
552, -0.02564102564102564, -0.5714285714285714, -0.9328449328449329, -0.125, 0.0625, -0.0625, 1.0
553, -0.21855921855921856, 0.199023199023199, -1.1001221001221002, -0.125, -0.03125, -0.15625, 1.0
554, -0.514041514041514, 0.3992673992673993, -1.4468864468864469, -0.09375, 0.03125, -0.03125, 1.0
555, -0.2039072039072039, 0.16361416361416362, -0.8058608058608059, -0.125, 0.0625, 0.03125, 1.0
556, 0.01098901098901099, -0.07936507936507936, -0.23076923076923078, -0.09375, 0.0, 0.0625, 1.0
557, 0.1562881562881563, -0.045177045177045176, -0.2698412698412698, -0.0625, -0.0625, 0.03125, 1.0
558, 0.10378510378510379, 0.5518925518925519, -0.48595848595848595, 0.0, 0.0, 0.03125, 1.0
559, 0.41025641025641024, 0.3308913308913309, -0.6178266178266179, -0.03125, -0.15625, 0.0625, 1.0
560, 0.24053724053724054, 0.1807081807081807, -0.3076923076923077, -0.03125, -0.46875, 0.0625, 1.0
561, 0.19291819291819293, 0.5641025641025641, 0.10012210012210013, 0.0625, -0.90625, 0.125, 0.0
562, -1.192918192918193, 0.37362637362637363, -0.5518925518925519, 0.125, -0.96875, 0.46875, 0.0
563, -0.9536019536019537, -0.63003663003663, -1.927960927960928, -0.34375, -0.875, 0.28125, 0.0
564, -0.1746031746031746, -0.5054945054945055, -2.5921855921855923, -1.65625, -1.53125, -0.6875, 0.0
565, -3.758241758241758, 2.225885225885226, -2.2612942612942613, -1.96875, -2.0625, -0.65625, 0.0
566, -3.9853479853479854, 2.087912087912088, -2.877899877899878, -1.21875, -0.71875, 0.28125, 0.0
567, -0.4456654456654457, 1.4786324786324787, -1.9658119658119657, -0.71875, -0.15625, 1.0, 0.0
568, 1.4774114774114775, 0.833943833943834, -1.3028083028083028, -0.625, -1.53125, 0.90625, 0.0
569, -1.1452991452991452, 1.5213675213675213, -1.1416361416361416, -0.90625, -3.59375, 0.59375, 0.0
570, -4.443223443223443, 1.2844932844932846, -1.2735042735042734, -0.84375, -4.1875, 0.875, 0.0
571, -3.6434676434676434, 0.8266178266178266, -1.6178266178266179, -0.75, -3.78125, 1.625, 0.0
572, -1.1831501831501832, 0.5482295482295483, -1.9853479853479854, -1.03125, -3.71875, 1.53125, 0.0
573, -1.3003663003663004, 1.8876678876678876, -1.9474969474969475, -1.6875, -4.53125, 0.59375, 0.0
574, -4.020757020757021, 3.785103785103785, -1.57997557997558, -2.03125, -4.84375, 0.375, 0.0
575, -4.380952380952381, 6.277167277167277, -1.177045177045177, -1.78125, -4.09375, 1.3125, 0.0
576, -1.2112332112332111, 5.710622710622711, -1.641025641025641, -1.25, -3.78125, 2.03125, 0.0
577, -0.008547008547008548, 3.938949938949939, -1.4639804639804639, -2.0, -4.84375, 1.3125, 0.0
578, -0.29304029304029305, 2.4761904761904763, -0.2442002442002442, -3.5625, -5.9375, 0.90625, 0.0
579, -0.28083028083028083, 3.7997557997557996, 1.1831501831501832, -4.28125, -6.09375, 1.53125, 0.0
580, 1.2954822954822955, 3.7484737484737485, 1.3894993894993894, -3.59375, -5.6875, 1.40625, 0.0
581, 1.9548229548229548, 1.3724053724053724, 1.5506715506715507, -3.09375, -6.21875, 0.46875, 0.0
582, 1.4102564102564104, -0.5115995115995116, 1.5934065934065933, -3.46875, -7.28125, 0.21875, 0.0
583, 1.6752136752136753, -0.1623931623931624, 0.9462759462759462, -3.09375, -7.03125, 0.5625, 0.0
584, 1.8144078144078144, -0.13797313797313798, 0.9975579975579976, -2.09375, -6.1875, 0.09375, 0.0
585, 0.590964590964591, -0.18192918192918192, 0.9914529914529915, -1.8125, -6.21875, 0.0, 0.0
586, 0.5177045177045178, 0.3528693528693529, 0.07692307692307693, -1.71875, -5.9375, -0.125, 0.0
587, 1.9316239316239316, -0.42002442002442003, -2.4004884004884004, -1.375, -5.8125, 0.03125, 0.0
588, 0.17582417582417584, 0.8327228327228328, -3.6263736263736264, -0.4375, -4.8125, 0.625, 0.0
589, -0.029304029304029304, -0.042735042735042736, -4.026862026862027, 0.59375, -2.4375, 1.3125, 0.0
590, 0.9426129426129426, -2.056166056166056, -4.272283272283272, -0.0625, -1.5, 1.03125, 0.0
591, 1.6971916971916972, -1.4957264957264957, -3.313797313797314, -1.0, -1.28125, 0.9375, 0.0
592, 1.8131868131868132, 0.32234432234432236, -1.8852258852258852, -1.09375, -1.40625, 0.90625, 0.0
593, 1.7191697191697193, 0.7326007326007326, -1.9181929181929183, -0.46875, -1.40625, 1.03125, 0.0
594, 0.9584859584859585, -0.29181929181929184, -2.3785103785103785, -0.15625, -0.9375, 1.15625, 0.0
595, 1.3003663003663004, -0.9829059829059829, -2.3736263736263736, -0.34375, -0.5, 1.125, 0.0
596, 1.5738705738705738, -0.7264957264957265, -1.6654456654456655, -0.5625, -0.375, 1.03125, 0.0
597, 1.5372405372405373, -0.6312576312576312, -0.9474969474969475, -0.625, -0.5, 0.96875, 0.0
598, 1.7765567765567765, -0.5054945054945055, -0.5592185592185592, -0.46875, -0.59375, 0.8125, 0.0
599, 2.2747252747252746, -2.5653235653235655, -0.9181929181929182, -0.78125, -0.59375, 0.5, 0.0
600, 3.1172161172161172, -1.7704517704517704, -0.3125763125763126, -0.84375, -0.625, 0.09375, 0.0
601, 2.363858363858364, -0.2698412698412698, 0.15873015873015872, -0.4375, -0.65625, -0.0625, 0.0
602, 1.525030525030525, 0.050061050061050064, -0.442002442002442, 0.0, -0.625, 0.03125, 0.0
603, 0.9560439560439561, -0.2661782661782662, -1.0952380952380953, 0.09375, -0.46875, 0.21875, 0.0
604, 0.9047619047619048, -0.9511599511599511, -1.6752136752136753, -0.03125, -0.21875, 0.28125, 0.0
605, 0.9829059829059829, -0.9621489621489622, -1.4432234432234432, -0.3125, -0.09375, 0.1875, 0.0
606, 0.20634920634920634, -0.06105006105006105, -0.6178266178266179, -0.21875, 0.0, 0.28125, 0.0
607, -0.0463980463980464, -0.04884004884004884, -0.358974358974359, 0.0, 0.125, 0.40625, 0.0
608, 0.7350427350427351, -0.894993894993895, -0.525030525030525, -0.125, -0.03125, 0.3125, 0.0
609, 0.0231990231990232, -0.4554334554334554, -0.5274725274725275, -0.15625, 0.0, 0.28125, 0.0
610, -0.2673992673992674, -0.10622710622710622, -0.4139194139194139, -0.03125, 0.1875, 0.34375, 0.0
611, 0.03296703296703297, -0.25274725274725274, -0.25518925518925517, 0.0, 0.21875, 0.28125, 0.0
612, 0.2673992673992674, -0.3125763125763126, -0.06715506715506715, -0.0625, 0.09375, 0.25, 0.0
613, 0.018315018315018316, -0.04151404151404151, 0.01098901098901099, -0.0625, 0.0, 0.1875, 0.0
614, 0.42002442002442003, -0.2796092796092796, -0.22832722832722832, -0.1875, -0.03125, 0.0625, 0.0
615, -0.21611721611721613, 0.06471306471306472, -0.11965811965811966, -0.15625, 0.0, 0.03125, 0.0
616, 0.04151404151404151, -0.2673992673992674, -0.14041514041514042, -0.03125, 0.15625, 0.09375, 0.0
617, 0.19291819291819293, -0.1343101343101343, 0.17582417582417584, -0.09375, 0.09375, 0.09375, 0.0
618, -0.19658119658119658, 0.15873015873015872, 0.41147741147741146, 0.0, 0.0625, 0.15625, 0.0
619, 0.5323565323565324, -0.5433455433455433, 0.1111111111111111, 0.28125, 0.15625, 0.1875, 0.0
620, 0.6336996336996337, -1.0207570207570207, -0.05128205128205128, 0.125, 0.0625, 0.0, 0.0
621, 0.006105006105006105, 0.35775335775335776, 0.47985347985347987, 0.28125, 0.03125, 0.0, 1.0
622, -0.17094017094017094, -0.3076923076923077, 0.27594627594627597, 0.75, 0.1875, 0.125, 1.0
623, -0.11233211233211234, -0.3614163614163614, -0.2576312576312576, 0.53125, 0.28125, 0.21875, 1.0
624, 0.3833943833943834, -0.1916971916971917, 0.009768009768009768, 0.4375, 0.40625, 0.25, 1.0
625, 0.6251526251526252, -0.17338217338217338, -0.29181929181929184, 0.53125, 0.4375, 0.28125, 1.0
626, 0.503052503052503, 0.052503052503052504, -0.9902319902319903, 0.65625, 0.53125, 0.375, 1.0
627, 0.09768009768009768, -0.5042735042735043, -2.2051282051282053, 0.8125, 0.9375, 0.5625, 1.0
628, 0.7545787545787546, -0.7753357753357754, -2.4835164835164836, 0.6875, 1.5, 0.6875, 1.0
629, 0.7973137973137974, -0.5335775335775336, -2.131868131868132, 0.46875, 1.75, 0.59375, 1.0
630, -0.040293040293040296, -0.20634920634920634, -1.7863247863247864, 0.53125, 2.09375, 0.625, 1.0
631, 0.028083028083028084, -0.06105006105006105, -1.5384615384615385, 0.75, 2.65625, 0.84375, 1.0
632, 0.2442002442002442, -0.7289377289377289, -1.8339438339438339, 0.9375, 3.09375, 0.9375, 1.0
633, -0.6446886446886447, 0.23931623931623933, -1.8937728937728937, 1.03125, 3.625, 1.0, 1.0
634, -0.14774114774114774, 0.42735042735042733, -1.4810744810744811, 1.65625, 4.53125, 1.21875, 1.0
635, 0.5396825396825397, -0.5128205128205128, -1.5848595848595848, 2.125, 4.96875, 1.09375, 1.0
636, 1.0708180708180708, -0.5274725274725275, -1.7594627594627594, 2.15625, 4.96875, 0.71875, 1.0
637, 0.19291819291819293, -0.06227106227106227, -1.9047619047619047, 2.0, 4.65625, 0.375, 1.0
638, -1.1282051282051282, 0.9841269841269841, -1.7765567765567765, 2.21875, 5.03125, 0.65625, 1.0
639, -1.5604395604395604, 2.1172161172161172, -1.291819291819292, 2.8125, 5.65625, 1.0, 1.0
640, -1.2735042735042734, 2.2625152625152625, -0.9841269841269841, 3.59375, 6.46875, 1.21875, 1.0
641, 1.2148962148962148, 2.028083028083028, -0.7362637362637363, 4.0625, 6.3125, 0.84375, 1.0
642, 2.178266178266178, 0.6312576312576312, -1.6459096459096458, 3.84375, 5.5625, 0.1875, 1.0
643, 1.763125763125763, 0.5457875457875457, -2.3601953601953602, 3.46875, 5.0, -0.21875, 1.0
644, 1.9096459096459097, 0.5518925518925519, -2.4676434676434678, 2.9375, 4.03125, -0.25, 1.0
645, -0.44932844932844934, 1.4090354090354091, -2.271062271062271, 3.0, 3.96875, -0.0625, 1.0
646, 0.10500610500610501, 1.2747252747252746, -1.52014652014652, 3.5, 4.125, -0.03125, 1.0
647, 0.9560439560439561, 0.9145299145299145, -1.6031746031746033, 3.8125, 3.875, -0.25, 1.0
648, 0.6862026862026862, -0.37362637362637363, -2.3321123321123323, 3.6875, 3.71875, -0.53125, 1.0
649, 1.065934065934066, -1.1611721611721613, -2.4542124542124544, 3.375, 3.46875, -0.5, 1.0
650, 1.641025641025641, -1.5628815628815629, -2.1575091575091574, 3.03125, 2.8125, -0.375, 1.0
651, 1.343101343101343, -1.1807081807081807, -1.7692307692307692, 2.90625, 2.28125, -0.40625, 1.0
652, 1.4395604395604396, -0.6214896214896215, -1.6752136752136753, 3.03125, 1.9375, -0.59375, 1.0
653, 1.1391941391941391, -1.1294261294261294, -2.3455433455433456, 2.875, 1.71875, -0.90625, 1.0
654, 0.7997557997557998, -0.6752136752136753, -2.6117216117216118, 2.59375, 1.59375, -1.0, 1.0
655, 0.49206349206349204, -1.0451770451770452, -2.733821733821734, 2.28125, 1.40625, -0.8125, 1.0
656, 0.4456654456654457, -1.5543345543345544, -2.2185592185592187, 1.9375, 1.25, -0.71875, 1.0
657, 0.4542124542124542, -1.1086691086691087, -1.534798534798535, 1.8125, 1.125, -0.84375, 1.0
658, 0.8925518925518926, -0.07081807081807082, -1.0915750915750915, 1.96875, 0.75, -1.0, 1.0
659, 0.0695970695970696, -0.2039072039072039, -1.7936507936507937, 2.0, 0.375, -0.9375, 1.0
660, -0.7667887667887668, -0.5641025641025641, -2.8131868131868134, 1.625, 0.34375, -0.78125, 1.0
661, -0.43345543345543347, 0.23321123321123322, -3.04029304029304, 1.3125, 0.3125, -0.6875, 1.0
662, -0.2588522588522589, 0.6642246642246642, -3.474969474969475, 1.15625, 0.0, -0.59375, 1.0
663, -0.8498168498168498, 0.800976800976801, -3.5506715506715505, 0.96875, 0.03125, -0.5, 1.0
664, -0.9560439560439561, 0.3076923076923077, -3.6324786324786325, 0.8125, 0.0, -0.5, 1.0
665, -1.2551892551892552, 0.43101343101343104, -3.2673992673992673, 0.5, 0.03125, -0.4375, 1.0
666, -1.4273504273504274, 0.20757020757020758, -2.7838827838827838, 0.28125, 0.1875, -0.28125, 1.0
667, -0.9804639804639804, -0.4908424908424908, -1.9536019536019535, 0.09375, 0.25, -0.09375, 1.0
668, -0.17704517704517705, 0.20757020757020758, -0.9304029304029304, 0.0, 0.09375, -0.125, 1.0
669, -0.48717948717948717, 1.192918192918193, -1.006105006105006, 0.125, -0.3125, -0.09375, 1.0
670, -1.3064713064713065, -0.07081807081807082, -1.9365079365079365, 0.375, -0.4375, 0.0, 1.0
671, -1.1306471306471306, -1.1794871794871795, -1.8522588522588523, 0.0625, -0.0625, 0.09375, 1.0
672, -0.23931623931623933, -0.4444444444444444, -0.47863247863247865, -0.28125, 0.21875, 0.21875, 1.0
673, 0.7521367521367521, -0.1514041514041514, 0.09401709401709402, -0.3125, 0.21875, 0.1875, 1.0
674, 0.7545787545787546, 0.36385836385836384, -0.38095238095238093, -0.3125, -0.15625, 0.03125, 1.0
675, 0.21245421245421245, 0.6385836385836385, -1.0879120879120878, -0.40625, -0.46875, 0.0, 0.0
676, -0.35775335775335776, 1.2454212454212454, -1.36996336996337, -0.5, -0.71875, 0.21875, 0.0
677, -0.7094017094017094, 0.32112332112332115, -1.8205128205128205, -0.46875, -0.84375, 0.5625, 0.0
678, -0.0695970695970696, -0.43833943833943834, -1.768009768009768, -0.78125, -1.0, 0.59375, 0.0
679, 0.7924297924297924, -0.231990231990232, -0.905982905982906, -1.09375, -1.75, 0.28125, 0.0
680, -1.9963369963369964, 1.4236874236874237, -0.8192918192918193, -1.1875, -2.6875, -0.03125, 0.0
681, -4.1098901098901095, 1.9133089133089134, -1.5897435897435896, -0.75, -2.40625, 0.21875, 0.0
682, -2.7667887667887667, 1.3894993894993894, -1.8131868131868132, -0.3125, -1.8125, 0.875, 0.0
683, -1.1135531135531136, 0.575091575091575, -2.051282051282051, -0.1875, -2.15625, 1.28125, 0.0
684, -1.2283272283272284, 0.5421245421245421, -2.062271062271062, -0.4375, -3.15625, 1.09375, 0.0
685, -2.335775335775336, 0.8901098901098901, -2.358974358974359, -0.875, -4.0, 0.9375, 0.0
686, -3.371184371184371, 1.4847374847374848, -2.542124542124542, -1.65625, -4.03125, 0.40625, 0.0
687, -2.9645909645909647, 1.5616605616605617, -2.249084249084249, -2.125, -3.90625, 0.46875, 0.0
688, -1.7118437118437118, 2.9633699633699635, -0.9072039072039072, -2.5, -4.46875, 0.8125, 0.0
689, -2.4053724053724053, 4.7094017094017095, 0.13553113553113552, -2.5, -4.46875, 1.75, 0.0
690, -2.6825396825396823, 6.014652014652015, -0.09401709401709402, -2.125, -3.59375, 2.21875, 0.0
691, -0.45787545787545786, 6.052503052503052, -0.4884004884004884, -2.125, -3.03125, 1.40625, 0.0
692, 2.098901098901099, 6.094017094017094, 0.21978021978021978, -2.625, -4.5, 0.375, 0.0
693, 1.9902319902319903, 4.134310134310135, 2.0720390720390722, -3.21875, -6.65625, 0.59375, 0.0
694, -1.3601953601953602, 4.954822954822955, 3.0671550671550674, -2.8125, -7.0, 1.84375, 0.0
695, -1.8803418803418803, 3.057387057387057, 1.57997557997558, -1.90625, -5.6875, 2.40625, 0.0
696, 1.0757020757020757, 0.5372405372405372, 0.536019536019536, -2.125, -4.96875, 1.34375, 0.0
697, 2.0732600732600734, 0.32112332112332115, 1.1623931623931625, -2.84375, -5.9375, 1.15625, 0.0
698, 1.7264957264957266, 0.5311355311355311, 1.6214896214896215, -2.84375, -6.71875, 1.3125, 0.0
699, 1.2380952380952381, 1.695970695970696, 1.9804639804639805, -1.75, -6.65625, 1.0625, 0.0
700, 0.3199023199023199, 0.398046398046398, 1.065934065934066, -1.09375, -6.34375, 1.09375, 0.0
701, -1.6422466422466422, -0.46642246642246643, -0.967032967032967, -1.09375, -5.03125, 1.0625, 0.0
702, 1.6654456654456655, -2.6776556776556775, -2.6666666666666665, -1.71875, -4.53125, 1.03125, 0.0
703, 2.15995115995116, -0.8559218559218559, -2.156288156288156, -1.8125, -4.40625, 0.78125, 0.0
704, -0.1562881562881563, 0.7203907203907204, -1.3284493284493284, -1.28125, -3.71875, 1.09375, 0.0
705, -1.0, 0.9633699633699634, -1.4786324786324787, -0.4375, -2.40625, 1.21875, 0.0
706, 1.4053724053724053, -0.6422466422466423, -2.8644688644688645, 0.0, -1.90625, 1.3125, 0.0
707, 2.3345543345543347, -2.1538461538461537, -4.402930402930403, -0.1875, -1.6875, 1.125, 0.0
708, 1.6556776556776556, -1.3748473748473748, -4.297924297924298, -0.375, -1.03125, 0.9375, 0.0
709, 2.324786324786325, -0.6117216117216118, -3.1855921855921854, -0.40625, -0.875, 0.9375, 0.0
710, 2.2124542124542126, -0.29914529914529914, -2.3064713064713063, -0.28125, -0.90625, 0.875, 0.0
711, 2.283272283272283, -0.25396825396825395, -2.5934065934065935, 0.0, -0.46875, 0.96875, 0.0
712, 2.628815628815629, -1.4212454212454213, -2.5445665445665444, -0.0625, -0.3125, 0.90625, 0.0
713, 2.5934065934065935, -0.7716727716727717, -1.8827838827838828, -0.28125, -0.1875, 0.65625, 0.0
714, 2.249084249084249, -0.2661782661782662, -1.0805860805860805, -0.1875, -0.09375, 0.53125, 0.0
715, 2.0903540903540905, -0.2771672771672772, -0.8253968253968254, -0.03125, -0.0625, 0.59375, 0.0
716, 2.404151404151404, -1.0573870573870574, -1.4993894993894994, 0.03125, -0.125, 0.5625, 0.0
717, 1.989010989010989, -1.1538461538461537, -1.7643467643467643, -0.125, -0.0625, 0.4375, 0.0
718, 1.866910866910867, -0.6788766788766789, -1.2515262515262515, -0.21875, 0.1875, 0.34375, 0.0
719, 2.1306471306471306, -0.5677655677655677, -0.5616605616605617, -0.1875, 0.25, 0.28125, 0.0
720, 1.3003663003663004, -0.31135531135531136, -0.28815628815628813, -0.21875, 0.09375, 0.15625, 0.0
721, 0.5921855921855922, -0.4468864468864469, -0.25396825396825395, -0.25, 0.1875, 0.15625, 0.0
722, 0.7374847374847375, -0.326007326007326, 0.21611721611721613, -0.28125, 0.3125, 0.21875, 0.0
723, 0.8559218559218559, -0.4884004884004884, 0.463980463980464, -0.25, 0.21875, 0.21875, 0.0
724, 0.8388278388278388, -0.6691086691086691, 0.3333333333333333, -0.1875, 0.125, 0.125, 0.0
725, 0.35775335775335776, -0.557997557997558, 0.020757020757020756, -0.1875, 0.0625, 0.0625, 0.0
726, -0.17826617826617827, -0.326007326007326, -0.06227106227106227, -0.1875, 0.0625, 0.03125, 0.0
727, -0.05128205128205128, -0.14041514041514042, 0.23565323565323565, -0.15625, 0.1875, 0.125, 0.0
728, 0.5054945054945055, -0.38461538461538464, 0.4896214896214896, -0.03125, 0.125, 0.125, 0.0
729, 0.07203907203907203, -0.019536019536019536, 0.15873015873015872, 0.03125, -0.03125, 0.0625, 0.0
730, -0.05982905982905983, -0.2026862026862027, -0.16361416361416362, 0.09375, -0.0625, 0.0625, 0.0
731, 0.018315018315018316, 0.03663003663003663, -0.0231990231990232, 0.15625, -0.0625, 0.03125, 0.0
732, -0.31135531135531136, 0.31013431013431014, 0.14285714285714285, 0.5, -0.03125, 0.09375, 1.0
733, 0.10134310134310134, -0.16727716727716727, 0.06593406593406594, 0.84375, 0.0, 0.21875, 1.0
734, 0.4884004884004884, -0.938949938949939, -0.3614163614163614, 0.875, -0.125, 0.21875, 1.0
735, -0.03418803418803419, -1.017094017094017, -0.989010989010989, 0.625, 0.125, 0.125, 1.0
736, 0.07081807081807082, -0.6923076923076923, -1.459096459096459, 0.40625, 0.5625, 0.1875, 1.0
737, 0.11843711843711843, -0.05372405372405373, -1.568986568986569, 0.5, 1.03125, 0.375, 1.0
738, 0.08058608058608059, -0.026862026862026864, -2.032967032967033, 0.78125, 1.625, 0.625, 1.0
739, 1.0927960927960927, -1.0097680097680097, -2.2796092796092795, 0.75, 1.96875, 0.625, 1.0
740, 1.4468864468864469, -1.1916971916971917, -2.236874236874237, 0.59375, 2.0625, 0.46875, 1.0
741, 0.757020757020757, -0.833943833943834, -2.21978021978022, 0.65625, 2.4375, 0.40625, 1.0
742, 0.34676434676434675, -0.3308913308913309, -2.313797313797314, 1.0, 3.0625, 0.59375, 1.0
743, 0.09645909645909646, -0.6495726495726496, -2.3565323565323566, 1.40625, 3.78125, 0.71875, 1.0
744, -0.12454212454212454, -0.4139194139194139, -1.9951159951159951, 1.75, 4.46875, 0.78125, 1.0
745, -0.32844932844932845, -0.030525030525030524, -1.8034188034188035, 2.21875, 5.03125, 0.875, 1.0
746, -0.42246642246642246, -0.1978021978021978, -1.7264957264957266, 2.4375, 5.40625, 0.84375, 1.0
747, 0.11965811965811966, 0.15873015873015872, -1.4468864468864469, 2.6875, 5.46875, 0.65625, 1.0
748, 0.35653235653235654, 0.702075702075702, -1.2686202686202686, 3.0, 5.3125, 0.3125, 1.0
749, 0.04395604395604396, 1.4761904761904763, -1.3748473748473748, 3.4375, 5.28125, -0.125, 1.0
750, -0.03907203907203907, 1.4871794871794872, -2.075702075702076, 3.78125, 5.3125, -0.34375, 1.0
751, -0.652014652014652, 1.4053724053724053, -2.94993894993895, 3.5625, 5.28125, -0.09375, 1.0
752, -0.2869352869352869, 2.5506715506715505, -2.365079365079365, 3.65625, 5.21875, -0.03125, 1.0
753, -0.4713064713064713, 2.415140415140415, -2.087912087912088, 4.25, 5.53125, 0.25, 1.0
754, 0.3418803418803419, 0.6275946275946276, -1.783882783882784, 5.03125, 6.28125, 0.21875, 1.0
755, 4.837606837606837, -1.8302808302808302, -1.8962148962148961, 4.9375, 5.5, -0.46875, 1.0
756, 4.448107448107448, -2.3894993894993894, -3.0854700854700856, 3.875, 3.46875, -0.65625, 1.0
757, 1.3443223443223444, -1.4822954822954824, -3.225885225885226, 3.375, 2.96875, -0.90625, 1.0
758, 0.4236874236874237, -1.3772893772893773, -2.5653235653235655, 3.40625, 3.25, -1.0625, 1.0
759, 1.757020757020757, -2.133089133089133, -1.8986568986568986, 3.46875, 3.15625, -1.6875, 1.0
760, 1.192918192918193, -1.2063492063492063, -2.8046398046398044, 3.25, 1.875, -1.65625, 1.0
761, -1.1489621489621489, -0.16727716727716727, -3.468864468864469, 2.375, 1.15625, -1.34375, 1.0
762, -1.7191697191697193, 0.22954822954822954, -2.413919413919414, 2.03125, 1.46875, -1.125, 1.0
763, -0.2954822954822955, 0.6092796092796092, -1.7533577533577533, 2.21875, 1.5625, -0.78125, 1.0
764, 0.22954822954822954, -0.03540903540903541, -2.6910866910866913, 2.28125, 1.1875, -1.125, 1.0
765, -0.3418803418803419, 0.442002442002442, -3.68009768009768, 2.09375, 0.71875, -1.5625, 1.0
766, -2.2808302808302807, 0.199023199023199, -4.16971916971917, 1.5, 0.4375, -1.0, 1.0
767, -1.3076923076923077, 0.7557997557997558, -3.076923076923077, 1.15625, 0.8125, -0.5625, 1.0
768, 0.11721611721611722, 0.4456654456654457, -2.391941391941392, 1.25, 0.84375, -0.59375, 1.0
769, -0.4188034188034188, 0.22466422466422467, -2.525030525030525, 1.21875, 0.375, -0.78125, 1.0
770, -1.363858363858364, 0.452991452991453, -2.8058608058608057, 1.0, 0.40625, -0.875, 1.0
771, -0.2893772893772894, 0.28205128205128205, -2.4896214896214897, 0.90625, 0.65625, -0.6875, 1.0
772, -0.2673992673992674, 0.13797313797313798, -2.3321123321123323, 0.75, 0.21875, -0.375, 1.0
773, -1.065934065934066, 0.23931623931623933, -2.52991452991453, 0.5625, 0.15625, -0.28125, 1.0
774, 0.15506715506715507, 0.5115995115995116, -1.9914529914529915, 0.5, 0.34375, -0.3125, 1.0
775, -0.18803418803418803, 0.9975579975579976, -1.8107448107448108, 0.46875, -0.0625, -0.34375, 1.0
776, -1.7216117216117217, 0.39316239316239315, -2.255189255189255, 0.5, -0.1875, -0.1875, 1.0
777, -1.0244200244200243, -0.3772893772893773, -1.8473748473748475, 0.34375, 0.0625, 0.28125, 1.0
778, 0.29181929181929184, -0.6556776556776557, -0.8974358974358975, 0.09375, 0.0, 0.1875, 1.0
779, -0.28815628815628813, 0.6862026862026862, -0.8547008547008547, 0.09375, -0.4375, -0.03125, 1.0
780, -1.6178266178266179, 0.47374847374847373, -1.7802197802197801, 0.3125, -0.3125, 0.09375, 1.0
781, -0.12332112332112333, -0.45665445665445664, -1.4603174603174602, 0.15625, 0.09375, 0.21875, 1.0
782, 0.4139194139194139, -0.27594627594627597, -0.48595848595848595, -0.125, -0.09375, 0.1875, 1.0
783, 0.41514041514041516, 0.16483516483516483, -0.12454212454212454, -0.15625, -0.40625, 0.09375, 0.0
784, -0.06715506715506715, 1.054945054945055, -0.21001221001221002, -0.03125, -1.0, 0.28125, 0.0
785, -0.7094017094017094, 0.6031746031746031, -1.2148962148962148, 0.0, -1.28125, 0.625, 0.0
786, -1.3833943833943834, -2.791208791208791, -3.288156288156288, -1.0, -0.84375, 0.0, 0.0
787, -0.3162393162393162, -0.7155067155067155, -1.8962148962148961, -1.71875, -0.75, -0.1875, 0.0
788, -0.2087912087912088, 0.33577533577533575, -0.9865689865689866, -1.75, -1.3125, -0.0625, 0.0
789, -0.989010989010989, 0.7985347985347986, -1.1306471306471306, -1.28125, -1.53125, -0.15625, 0.0
790, -1.63003663003663, 1.2991452991452992, -1.601953601953602, -0.9375, -1.71875, -0.21875, 0.0
791, -2.6678876678876677, 2.2673992673992673, -2.051282051282051, -0.6875, -1.96875, 0.21875, 0.0
792, -2.7643467643467643, 2.456654456654457, -2.0, -0.5, -2.53125, 1.0, 0.0
793, -3.7753357753357752, 1.1062271062271063, -2.0317460317460316, -0.65625, -2.875, 1.75, 0.0
794, -3.612942612942613, -0.04884004884004884, -2.304029304029304, -1.03125, -2.6875, 1.9375, 0.0
795, -1.7777777777777777, 0.36752136752136755, -1.678876678876679, -1.625, -2.84375, 1.21875, 0.0
796, -0.6031746031746031, 1.8705738705738706, -0.8034188034188035, -2.03125, -3.875, 0.5625, 0.0
797, -1.8864468864468864, 3.5714285714285716, 0.11843711843711843, -2.1875, -4.71875, 0.59375, 0.0
798, -3.3504273504273505, 5.47985347985348, 0.2954822954822955, -2.0, -4.5625, 1.53125, 0.0
799, -2.7704517704517704, 6.481074481074481, -0.2087912087912088, -1.71875, -4.15625, 1.9375, 0.0
800, -0.778998778998779, 5.742368742368742, -0.7252747252747253, -2.3125, -4.4375, 1.15625, 0.0
801, -0.5958485958485958, 4.589743589743589, 0.12942612942612944, -3.125, -4.90625, 1.25, 0.0
802, -1.2344322344322345, 5.493284493284493, 1.404151404151404, -3.125, -4.71875, 2.34375, 0.0
803, 1.3443223443223444, 4.945054945054945, 2.1514041514041513, -2.53125, -5.0, 2.78125, 0.0
804, 2.681318681318681, 2.7301587301587302, 2.3943833943833943, -2.5, -6.21875, 1.9375, 0.0
805, 0.894993894993895, 0.07692307692307693, 1.9609279609279608, -3.25, -6.75, 0.8125, 0.0
806, 0.32112332112332115, -0.6288156288156288, 0.905982905982906, -3.4375, -6.25, 1.09375, 0.0
807, 0.9816849816849816, 0.7606837606837606, 1.4993894993894994, -2.78125, -5.75, 1.09375, 0.0
808, 1.3968253968253967, 1.4053724053724053, 1.9536019536019535, -1.5, -6.28125, 1.5, 0.0
809, -3.4896214896214897, -0.8376068376068376, -1.326007326007326, -1.25, -5.875, 1.3125, 0.0
810, -1.3858363858363858, -2.0525030525030523, -3.253968253968254, -1.78125, -4.375, 1.03125, 0.0
811, 0.08547008547008547, -0.07692307692307693, -2.6324786324786325, -2.0, -3.75, 1.3125, 0.0
812, 0.5628815628815629, -0.17582417582417584, -2.503052503052503, -1.09375, -3.34375, 1.15625, 0.0
813, 0.5506715506715507, -1.7179487179487178, -3.2625152625152625, -0.4375, -3.0625, 1.3125, 0.0
814, 1.4371184371184371, -2.9584859584859586, -4.238095238095238, -0.65625, -2.59375, 0.9375, 0.0
815, 1.1868131868131868, -1.7985347985347986, -3.6984126984126986, -1.15625, -2.21875, 0.75, 0.0
816, 1.3565323565323566, 0.12576312576312576, -3.277167277167277, -0.84375, -1.59375, 0.9375, 0.0
817, 2.938949938949939, -1.3235653235653235, -4.2173382173382175, 0.25, -1.09375, 1.15625, 0.0
818, 3.0427350427350426, -2.5518925518925517, -5.017094017094017, 0.28125, -0.90625, 0.96875, 0.0
819, 2.5384615384615383, -1.4102564102564104, -4.322344322344322, -0.28125, -0.59375, 0.6875, 0.0
820, 2.1758241758241756, -0.3137973137973138, -2.7472527472527473, -0.5625, -0.1875, 0.65625, 0.0
821, 2.3772893772893773, 0.2026862026862027, -1.2564102564102564, -0.53125, 0.0, 0.625, 0.0
822, 2.376068376068376, -0.06349206349206349, -0.525030525030525, -0.375, -0.0625, 0.5, 0.0
823, 1.8913308913308913, -0.33821733821733824, -0.7521367521367521, -0.28125, -0.0625, 0.40625, 0.0
824, 1.7252747252747254, -0.2576312576312576, -0.7997557997557998, -0.28125, 0.0625, 0.375, 0.0
825, 2.1587301587301586, -0.7826617826617827, -0.7509157509157509, -0.28125, 0.21875, 0.28125, 0.0
826, 1.7374847374847375, -0.3663003663003663, -0.33455433455433453, -0.40625, 0.125, 0.125, 0.0
827, 1.017094017094017, -0.15262515262515264, -0.04151404151404151, -0.3125, 0.09375, 0.125, 0.0
828, 0.8021978021978022, -0.48473748473748474, -0.013431013431013432, -0.1875, 0.21875, 0.1875, 0.0
829, 1.1404151404151404, -1.1660561660561661, -0.07326007326007326, -0.3125, 0.1875, 0.09375, 0.0
830, 0.4297924297924298, -0.5372405372405372, 0.15262515262515264, -0.5, 0.0625, -0.03125, 0.0
831, 0.04151404151404151, -0.01098901098901099, 0.4896214896214896, -0.375, 0.1875, -0.03125, 0.0
832, 0.14896214896214896, -0.2673992673992674, 0.5506715506715507, -0.03125, 0.21875, 0.0625, 0.0
833, -0.08424908424908426, -0.6239316239316239, 0.2258852258852259, -0.03125, 0.1875, 0.03125, 0.0
834, 0.03663003663003663, -0.33821733821733824, 0.27350427350427353, -0.03125, 0.15625, 0.03125, 0.0
835, -0.1282051282051282, 0.35775335775335776, 0.8241758241758241, 0.40625, 0.0625, 0.0625, 1.0
836, -0.23565323565323565, 0.32844932844932845, 1.10989010989011, 0.96875, 0.03125, 0.125, 1.0
837, -0.06349206349206349, -1.2173382173382172, 0.3162393162393162, 0.90625, 0.03125, 0.1875, 1.0
838, -0.007326007326007326, -1.2063492063492063, -0.7350427350427351, 0.46875, 0.125, 0.15625, 1.0
839, 0.02442002442002442, -0.796092796092796, -1.5164835164835164, 0.15625, 0.375, 0.09375, 1.0
840, 0.30036630036630035, -0.19047619047619047, -1.586080586080586, 0.34375, 0.75, 0.1875, 1.0
841, -0.18681318681318682, -0.1794871794871795, -2.10989010989011, 0.6875, 1.46875, 0.5, 1.0
842, -0.009768009768009768, -0.5518925518925519, -2.4358974358974357, 0.75, 2.28125, 0.8125, 1.0
843, 0.525030525030525, -0.34554334554334554, -2.111111111111111, 0.78125, 2.6875, 0.875, 1.0
844, 0.20757020757020758, -0.18315018315018314, -2.0134310134310134, 0.90625, 3.125, 0.90625, 1.0
845, 0.16117216117216118, 0.21855921855921856, -1.8156288156288156, 1.34375, 3.78125, 1.0, 1.0
846, 0.536019536019536, -0.46153846153846156, -1.877899877899878, 1.84375, 4.53125, 0.84375, 1.0
847, 0.8498168498168498, -1.3919413919413919, -2.139194139194139, 1.9375, 4.84375, 0.90625, 1.0
848, 0.6398046398046398, -0.5213675213675214, -1.7301587301587302, 2.09375, 5.21875, 0.65625, 1.0
849, 0.36385836385836384, -0.22954822954822954, -1.4114774114774116, 2.40625, 5.59375, 0.375, 1.0
850, 0.08669108669108669, 0.514041514041514, -1.1953601953601953, 2.75, 5.8125, 0.125, 1.0
851, 0.21978021978021978, 0.5653235653235653, -1.606837606837607, 2.9375, 5.8125, 0.0, 1.0
852, -0.6471306471306472, 1.7912087912087913, -1.822954822954823, 3.09375, 5.90625, 0.09375, 1.0
853, 0.15873015873015872, 1.2307692307692308, -2.2918192918192917, 2.96875, 5.78125, 0.4375, 1.0
854, 1.7252747252747254, 1.7826617826617828, -1.829059829059829, 2.9375, 5.0625, 0.1875, 1.0
855, 0.452991452991453, 1.8998778998778998, -1.945054945054945, 3.15625, 4.875, 0.15625, 1.0
856, -0.5958485958485958, 1.387057387057387, -2.0781440781440783, 3.71875, 5.75, 0.53125, 1.0
857, 2.58974358974359, -0.17826617826617827, -1.2796092796092795, 3.4375, 4.5, 0.09375, 1.0
858, 1.3186813186813187, 0.6312576312576312, -1.2967032967032968, 3.0625, 3.0, -0.28125, 1.0
859, -1.9255189255189256, 1.5897435897435896, -2.230769230769231, 3.0, 2.75, -0.5, 1.0
860, -0.8070818070818071, 0.78998778998779, -2.15995115995116, 3.15625, 3.46875, -0.0625, 1.0
861, 1.3833943833943834, 0.28205128205128205, -1.9487179487179487, 3.15625, 3.3125, -0.09375, 1.0
862, 0.8803418803418803, 0.17582417582417584, -2.5103785103785103, 2.84375, 2.625, -0.46875, 1.0
863, 0.5824175824175825, 0.32722832722832723, -2.7191697191697193, 2.5, 2.09375, -0.4375, 1.0
864, -0.358974358974359, 0.1623931623931624, -2.9194139194139193, 2.21875, 1.6875, -0.375, 1.0
865, -0.26373626373626374, 0.4835164835164835, -2.2905982905982905, 1.96875, 1.65625, -0.40625, 1.0
866, 0.4810744810744811, 0.4542124542124542, -1.5238095238095237, 1.96875, 1.625, -0.53125, 1.0
867, 0.18925518925518925, 0.36874236874236876, -1.4908424908424909, 2.09375, 1.375, -0.78125, 1.0
868, 0.27472527472527475, -0.11721611721611722, -2.340659340659341, 1.96875, 1.15625, -0.96875, 1.0
869, -0.05982905982905983, 0.5567765567765568, -2.4554334554334556, 1.5, 0.75, -0.96875, 1.0
870, -0.8278388278388278, 1.0073260073260073, -2.0195360195360195, 1.21875, 0.59375, -0.625, 1.0
871, -0.23321123321123322, 0.3308913308913309, -1.8937728937728937, 1.25, 0.6875, -0.53125, 1.0
872, 0.1221001221001221, 0.6153846153846154, -1.6495726495726495, 1.125, 0.625, -0.75, 1.0
873, -0.02564102564102564, 0.5860805860805861, -2.2002442002442004, 1.15625, 0.3125, -0.84375, 1.0
874, -1.6153846153846154, 1.3357753357753357, -2.7887667887667886, 0.8125, 0.09375, -0.625, 1.0
875, -1.0598290598290598, 0.9413919413919414, -2.6495726495726495, 0.6875, 0.3125, -0.40625, 1.0
876, -0.9536019536019537, 0.16361416361416362, -1.9548229548229548, 0.40625, 0.0625, -0.1875, 1.0
877, -1.1733821733821734, 0.37484737484737485, -1.010989010989011, 0.375, -0.0625, -0.09375, 1.0
878, -0.41147741147741146, 0.06837606837606838, -1.2735042735042734, 0.5, -0.15625, -0.25, 1.0
879, -1.5323565323565325, 1.1343101343101343, -2.3663003663003663, 0.21875, -0.40625, -0.21875, 1.0
880, -1.3516483516483517, 1.3406593406593406, -2.6666666666666665, 0.0625, -0.1875, -0.125, 1.0
881, -1.2380952380952381, 1.2759462759462759, -2.062271062271062, -0.0625, -0.1875, 0.125, 1.0
882, -1.2954822954822955, 0.7057387057387058, -1.927960927960928, -0.125, -0.09375, 0.25, 1.0
883, -0.9658119658119658, 0.43223443223443225, -1.1978021978021978, -0.0625, -0.03125, 0.46875, 1.0
884, -0.2442002442002442, 0.1807081807081807, -0.6239316239316239, 0.0, -0.15625, 0.46875, 1.0
885, 0.05860805860805861, 0.40415140415140416, 0.17338217338217338, 0.03125, -0.6875, 0.5, 0.0
886, -0.29181929181929184, -0.568986568986569, -0.12087912087912088, 0.0, -1.03125, 0.5, 0.0
887, -1.0622710622710623, -1.5225885225885225, -1.15995115995116, -0.5625, -0.59375, -0.0625, 0.0
888, 0.07081807081807082, 0.09523809523809523, -0.4346764346764347, -0.96875, -0.375, -0.25, 0.0
889, 1.1452991452991452, 0.7509157509157509, -0.09645909645909646, -0.875, -0.84375, -0.4375, 0.0
890, 0.07203907203907203, 1.4065934065934067, -0.8595848595848596, -0.8125, -1.21875, -0.53125, 0.0
891, -1.3199023199023199, 2.1172161172161172, -1.6227106227106227, -0.5625, -1.1875, -0.3125, 0.0
892, -1.2393162393162394, 2.445665445665446, -1.684981684981685, -0.21875, -1.5, 0.09375, 0.0
893, -0.945054945054945, 1.6556776556776556, -1.6459096459096458, -0.1875, -2.40625, 0.21875, 0.0
894, -1.9584859584859584, 1.231990231990232, -2.0842490842490844, -0.53125, -3.15625, -0.03125, 0.0
895, -3.426129426129426, 1.3687423687423688, -1.8876678876678876, -1.0, -3.53125, 0.0625, 0.0
896, -3.8632478632478633, 2.4554334554334556, -1.2112332112332111, -1.15625, -3.625, 0.59375, 0.0
897, -3.8876678876678876, 2.5934065934065935, -0.6056166056166056, -1.0625, -3.53125, 1.21875, 0.0
898, -2.5128205128205128, 3.3150183150183152, -0.5018315018315018, -0.9375, -3.6875, 1.3125, 0.0
899, -2.4224664224664223, 3.6312576312576312, -1.2039072039072038, -1.1875, -3.84375, 0.8125, 0.0
900, -3.0427350427350426, 4.172161172161172, -1.5274725274725274, -1.8125, -3.90625, 0.53125, 0.0
901, -2.653235653235653, 5.947496947496948, -1.221001221001221, -2.40625, -4.21875, 0.71875, 0.0
902, -0.9731379731379731, 6.7826617826617825, 0.17338217338217338, -2.96875, -5.5625, 0.8125, 0.0
903, -1.673992673992674, 7.0927960927960925, 1.9328449328449329, -3.03125, -6.78125, 1.0625, 0.0
904, -2.4114774114774113, 2.894993894993895, 1.5225885225885225, -2.78125, -6.09375, 1.625, 0.0
905, 1.2393162393162394, 1.3015873015873016, 1.2832722832722834, -2.71875, -5.5625, 1.875, 0.0
906, 5.500610500610501, 0.645909645909646, 3.6507936507936507, -3.09375, -8.59375, 0.90625, 0.0
907, -1.8473748473748475, 1.0598290598290598, 2.595848595848596, -2.65625, -9.65625, 0.46875, 0.0
908, -0.9743589743589743, -2.557997557997558, -0.818070818070818, -2.65625, -8.875, 0.1875, 0.0
909, -2.695970695970696, -0.4822954822954823, -2.336996336996337, -2.5625, -7.03125, 0.28125, 0.0
910, -3.5409035409035408, 1.9792429792429793, -2.1648351648351647, -1.5625, -4.1875, 0.78125, 0.0
911, -0.9194139194139194, 1.57997557997558, -1.155067155067155, -0.59375, -2.25, 1.5625, 0.0
912, 2.21978021978022, 0.27350427350427353, -1.0512820512820513, -0.0625, -2.34375, 1.9375, 0.0
913, 3.1904761904761907, -1.94993894993895, -3.4358974358974357, 0.28125, -3.28125, 1.6875, 0.0
914, 1.0537240537240538, -3.7472527472527473, -5.763125763125763, 0.28125, -2.875, 1.125, 0.0
915, 1.3601953601953602, -2.4774114774114775, -4.7374847374847375, -0.40625, -1.0625, 0.90625, 0.0
916, 2.4884004884004884, -0.4884004884004884, -1.7667887667887667, -0.96875, -0.46875, 1.125, 0.0
917, 2.884004884004884, 0.3540903540903541, -0.1282051282051282, -0.84375, -0.875, 0.875, 0.0
918, 1.7264957264957266, 0.2039072039072039, -0.6141636141636142, -0.34375, -1.46875, 0.78125, 0.0
919, 0.9267399267399268, -1.2307692307692308, -2.341880341880342, 0.09375, -1.1875, 0.84375, 0.0
920, 1.9401709401709402, -1.9291819291819292, -2.907203907203907, -0.125, -0.625, 0.84375, 0.0
921, 2.0244200244200243, -1.1086691086691087, -1.9487179487179487, -0.6875, -0.65625, 0.59375, 0.0
922, 1.10989010989011, 0.43101343101343104, -0.8156288156288156, -0.59375, -0.71875, 0.40625, 0.0
923, 1.0903540903540903, 0.054945054945054944, -1.3736263736263736, 0.03125, -0.53125, 0.625, 0.0
924, 1.8998778998778998, -1.6923076923076923, -2.2332112332112333, 0.15625, -0.34375, 0.6875, 0.0
925, 1.8827838827838828, -1.4175824175824177, -1.9926739926739927, -0.28125, -0.3125, 0.40625, 0.0
926, 1.1489621489621489, -0.15506715506715507, -0.9340659340659341, -0.53125, -0.1875, 0.21875, 0.0
927, 0.9951159951159951, 0.18315018315018314, -0.07203907203907203, -0.28125, -0.09375, 0.21875, 0.0
928, 0.663003663003663, -0.19413919413919414, -0.09768009768009768, -0.09375, -0.1875, 0.25, 0.0
929, 0.4188034188034188, -0.27350427350427353, -0.326007326007326, -0.0625, -0.15625, 0.21875, 0.0
930, 0.49206349206349204, -0.5409035409035409, -0.7814407814407814, 0.0, 0.0625, 0.21875, 0.0
931, 1.115995115995116, -0.8705738705738706, -0.7130647130647131, -0.09375, -0.03125, 0.125, 0.0
932, 0.4590964590964591, -0.5824175824175825, -0.5885225885225885, -0.125, 0.0, 0.0625, 0.0
933, -0.01098901098901099, -0.24664224664224665, -0.3431013431013431, -0.09375, 0.125, 0.09375, 0.0
934, -0.07448107448107448, -0.32112332112332115, -0.13553113553113552, -0.15625, 0.1875, 0.0625, 0.0
935, -0.047619047619047616, -0.06837606837606838, 0.0, -0.1875, 0.125, 0.09375, 0.0
936, -0.014652014652014652, 0.0757020757020757, 0.1746031746031746, -0.125, 0.0625, 0.125, 0.0
937, -0.17582417582417584, -0.2039072039072039, 0.08424908424908426, -0.03125, 0.125, 0.125, 0.0
938, -0.02564102564102564, -0.3431013431013431, -0.04395604395604396, -0.09375, 0.1875, 0.0625, 0.0
939, 0.11965811965811966, -0.2979242979242979, 0.05616605616605617, -0.15625, 0.09375, -0.03125, 0.0
940, -0.04395604395604396, -0.20024420024420025, 0.13553113553113552, -0.1875, 0.0625, -0.0625, 0.0
941, -0.1794871794871795, 0.03907203907203907, 0.11721611721611722, -0.15625, 0.03125, 0.0, 0.0
942, 0.0, -0.057387057387057384, -0.06227106227106227, -0.125, 0.0, -0.03125, 0.0
943, -0.01221001221001221, -0.003663003663003663, -0.05982905982905983, 0.0, 0.0, -0.0625, 0.0
944, -0.2783882783882784, -0.1575091575091575, -0.2673992673992674, 0.03125, 0.09375, -0.03125, 0.0
945, -0.07203907203907203, -0.16483516483516483, -0.45054945054945056, 0.0, 0.15625, 0.0, 1.0
946, 0.1330891330891331, 0.2673992673992674, -0.01221001221001221, 0.1875, 0.03125, 0.0, 1.0
947, 0.03418803418803419, 0.030525030525030524, 0.20146520146520147, 0.3125, 0.0, -0.03125, 1.0
948, -0.026862026862026864, 0.18437118437118438, 0.10378510378510379, 0.4375, 0.0625, 0.0, 1.0
949, 0.001221001221001221, -0.27472527472527475, -0.8253968253968254, 0.40625, 0.21875, 0.03125, 1.0
950, 0.10989010989010989, -0.22954822954822954, -1.271062271062271, 0.34375, 0.40625, 0.0625, 1.0
951, 0.12087912087912088, -0.2893772893772894, -2.0097680097680097, 0.375, 0.78125, 0.25, 1.0
952, 0.5506715506715507, -0.9328449328449329, -2.7094017094017095, 0.28125, 1.21875, 0.375, 1.0
953, 1.1391941391941391, -1.1697191697191698, -2.8302808302808304, 0.03125, 1.5, 0.25, 1.0
954, 1.1526251526251525, -0.8717948717948718, -2.3785103785103785, -0.09375, 1.6875, 0.15625, 1.0
955, 0.3137973137973138, -0.08669108669108669, -1.8754578754578755, 0.21875, 2.3125, 0.34375, 1.0
956, 0.33577533577533575, -0.3308913308913309, -2.0634920634920637, 0.53125, 3.09375, 0.625, 1.0
957, 0.25274725274725274, -0.2148962148962149, -1.8876678876678876, 0.90625, 3.875, 0.875, 1.0
958, 0.5470085470085471, -0.48473748473748474, -1.757020757020757, 1.40625, 4.65625, 1.0625, 1.0
959, 1.3308913308913308, -0.8437118437118437, -1.7582417582417582, 1.75, 5.125, 0.9375, 1.0
960, 1.910866910866911, -0.9658119658119658, -1.8913308913308913, 1.71875, 4.875, 0.46875, 1.0
961, -0.3064713064713065, 0.09523809523809523, -1.8974358974358974, 1.5625, 4.5625, 0.09375, 1.0
962, -1.380952380952381, 1.4566544566544566, -1.2967032967032968, 1.90625, 5.21875, 0.15625, 1.0
963, -0.38095238095238093, 1.6202686202686203, -1.065934065934066, 2.375, 5.71875, 0.25, 1.0
964, -0.9963369963369964, 2.343101343101343, -1.1416361416361416, 2.75, 5.6875, 0.25, 1.0
965, -1.9645909645909645, 3.3492063492063493, -1.1245421245421245, 3.15625, 6.09375, 0.21875, 1.0
966, 0.4261294261294261, 2.2246642246642248, -1.746031746031746, 3.375, 6.53125, 0.25, 1.0
967, 0.6385836385836385, 3.231990231990232, -1.978021978021978, 2.90625, 5.78125, 0.1875, 1.0
968, 0.01098901098901099, 2.653235653235653, -2.4590964590964592, 2.65625, 5.3125, 0.0, 1.0
969, 0.3516483516483517, 1.934065934065934, -2.4652014652014653, 2.40625, 5.375, -0.4375, 1.0
970, 0.5518925518925519, 2.93040293040293, -1.9377289377289377, 2.5625, 5.625, -0.96875, 1.0
971, 1.1416361416361416, 1.7155067155067154, -1.9157509157509158, 2.96875, 5.5625, -1.15625, 1.0
972, 0.41147741147741146, 0.4932844932844933, -2.5604395604395602, 3.0, 5.59375, -0.8125, 1.0
973, 3.3492063492063493, 0.2026862026862027, -1.9023199023199022, 2.75, 5.3125, -0.5, 1.0
974, 3.202686202686203, -1.4273504273504274, -2.105006105006105, 2.25, 3.75, -0.46875, 1.0
975, 0.1452991452991453, -0.0463980463980464, -1.7875457875457876, 1.90625, 2.875, -0.6875, 1.0
976, 1.0708180708180708, -0.4932844932844933, -1.5323565323565325, 2.09375, 2.9375, -0.53125, 1.0
977, 1.7313797313797314, -1.3797313797313797, -1.7216117216117217, 2.0625, 2.15625, -0.625, 1.0
978, 0.33943833943833945, -0.49572649572649574, -2.045177045177045, 1.84375, 1.28125, -0.84375, 1.0
979, -0.5763125763125763, -0.1855921855921856, -2.5115995115995116, 1.75, 1.1875, -0.5, 1.0
980, 0.231990231990232, -0.4236874236874237, -2.628815628815629, 1.46875, 1.09375, -0.4375, 1.0
981, 0.6068376068376068, -0.026862026862026864, -1.9536019536019535, 1.46875, 0.625, -0.4375, 1.0
982, -0.2087912087912088, 0.442002442002442, -2.0903540903540905, 1.59375, 0.46875, -0.4375, 1.0
983, -0.4652014652014652, -0.11233211233211234, -2.600732600732601, 1.53125, 0.4375, -0.3125, 1.0
984, 0.16727716727716727, -0.06471306471306472, -2.6275946275946276, 1.1875, 0.25, -0.40625, 1.0
985, -0.21123321123321123, 0.5396825396825397, -2.473748473748474, 0.9375, 0.0, -0.375, 1.0
986, -0.905982905982906, 1.0415140415140416, -2.340659340659341, 1.03125, 0.125, -0.09375, 1.0
987, -0.28083028083028083, 0.1343101343101343, -2.578754578754579, 0.875, 0.0625, -0.125, 1.0
988, -0.24175824175824176, 0.17094017094017094, -2.3882783882783882, 0.625, -0.0625, -0.125, 1.0
989, -0.652014652014652, 0.28327228327228327, -2.4395604395604398, 0.4375, 0.0, -0.09375, 1.0
990, -0.608058608058608, 0.5518925518925519, -2.126984126984127, 0.3125, 0.0, 0.0, 1.0
991, -0.0463980463980464, 1.05006105006105, -1.6446886446886446, 0.375, -0.21875, 0.0, 1.0
992, -0.9255189255189256, 0.06227106227106227, -2.5347985347985347, 0.25, -0.21875, -0.09375, 1.0
993, -0.9242979242979243, 0.4884004884004884, -2.3943833943833943, 0.0, -0.03125, 0.03125, 1.0
994, -0.463980463980464, 0.12942612942612944, -1.6605616605616607, -0.1875, -0.0625, 0.15625, 1.0
995, -0.37606837606837606, 0.40415140415140416, -0.6862026862026862, -0.0625, -0.1875, 0.25, 1.0
996, -0.4896214896214896, 0.5311355311355311, -0.6678876678876678, 0.125, -0.28125, 0.34375, 1.0
997, -0.45665445665445664, 0.41514041514041516, -1.1489621489621489, 0.21875, -0.46875, 0.4375, 1.0
998, -0.7667887667887668, -0.7851037851037851, -2.2735042735042734, -0.1875, -0.5, 0.1875, 0.0
999, -1.1428571428571428, -0.3614163614163614, -2.3223443223443225, -0.75, -0.40625, 0.1875, 0.0
1000, -0.8681318681318682, 0.16483516483516483, -2.051282051282051, -1.0625, -0.5625, 0.28125, 0.0
1001, -0.09157509157509157, 0.2698412698412698, -1.9731379731379732, -1.25, -1.25, 0.125, 0.0
1002, -0.22832722832722832, 1.2844932844932846, -1.877899877899878, -1.25, -2.34375, 0.0, 0.0
1003, -2.68986568986569, 2.0073260073260073, -2.2576312576312576, -0.9375, -2.9375, 0.59375, 0.0
1004, -2.7606837606837606, 0.5323565323565324, -3.5982905982905984, -0.9375, -2.34375, 0.9375, 0.0
1005, -0.818070818070818, 0.3247863247863248, -2.942612942612943, -1.25, -2.90625, 1.0, 0.0
1006, -1.5811965811965811, 1.6434676434676434, -2.0854700854700856, -1.46875, -4.1875, 0.625, 0.0
1007, -3.004884004884005, 2.070818070818071, -1.6483516483516483, -1.53125, -5.0, 0.4375, 0.0
1008, -3.086691086691087, 2.26007326007326, -1.1953601953601953, -1.71875, -5.375, 0.78125, 0.0
1009, -0.9682539682539683, 2.242979242979243, -0.7851037851037851, -2.1875, -5.875, 1.34375, 0.0
1010, -1.236874236874237, 5.131868131868132, 0.6556776556776557, -2.875, -6.6875, 1.09375, 0.0
1011, -2.7155067155067156, 7.671550671550672, 1.3663003663003663, -2.625, -6.5625, 1.59375, 0.0
1012, -1.956043956043956, 6.537240537240537, 0.6507936507936508, -1.53125, -5.40625, 2.625, 0.0
1013, 1.0964590964590966, 2.484737484737485, -0.514041514041514, -1.21875, -4.9375, 2.65625, 0.0
1014, 2.3076923076923075, 0.27472527472527475, -0.6971916971916972, -2.34375, -5.46875, 1.59375, 0.0
1015, 0.4481074481074481, 2.2796092796092795, 0.03785103785103785, -3.28125, -5.6875, 1.15625, 0.0
1016, 2.075702075702076, 2.087912087912088, 0.6837606837606838, -2.875, -5.3125, 1.0625, 0.0
1017, 2.0244200244200243, 2.2283272283272284, 2.111111111111111, -2.4375, -6.125, 0.6875, 0.0
1018, -1.1184371184371185, -0.1684981684981685, 0.07203907203907203, -1.75, -6.5625, 0.84375, 0.0
1019, 0.23321123321123322, -2.1355311355311355, -3.445665445665446, -1.21875, -4.53125, 1.34375, 0.0
1020, 6.663003663003663, -4.451770451770452, -3.769230769230769, -1.25, -3.0, 1.375, 0.0
1021, 6.6581196581196584, -2.0305250305250304, -1.5604395604395604, -2.21875, -4.0625, 0.34375, 0.0
1022, 1.595848595848596, 0.905982905982906, -0.08058608058608059, -2.1875, -4.8125, -0.59375, 0.0
1023, -1.0708180708180708, 2.474969474969475, 0.3626373626373626, -1.15625, -4.125, -0.03125, 0.0
1024, 0.42246642246642246, -0.43345543345543347, -1.181929181929182, -0.03125, -3.28125, 0.84375, 0.0
1025, 2.93040293040293, -3.5457875457875456, -3.844932844932845, -0.21875, -2.78125, 0.59375, 0.0
1026, 2.786324786324786, -1.7753357753357752, -3.4224664224664223, -1.03125, -2.5625, 0.1875, 0.0
1027, 1.4004884004884004, 0.2967032967032967, -2.4188034188034186, -0.875, -1.875, 0.3125, 0.0
1028, 1.8510378510378511, -0.1221001221001221, -1.8571428571428572, -0.125, -0.96875, 0.84375, 0.0
1029, 2.9536019536019538, -1.601953601953602, -1.8131868131868132, -0.5, -1.09375, 0.625, 0.0
1030, 2.3223443223443225, -0.568986568986569, -1.3064713064713065, -0.71875, -1.09375, 0.5, 0.0
1031, 1.4774114774114775, 0.10866910866910867, -1.144078144078144, -0.46875, -0.65625, 0.65625, 0.0
1032, 2.1623931623931623, 0.07326007326007326, -0.6800976800976801, -0.09375, -0.5625, 0.75, 0.0
1033, 2.1587301587301586, -0.8241758241758241, -0.7264957264957265, -0.0625, -0.59375, 0.59375, 0.0
1034, 1.9035409035409034, -0.8608058608058609, -0.9120879120879121, -0.25, -0.53125, 0.53125, 0.0
1035, 1.8034188034188035, -0.7557997557997558, -0.6703296703296703, -0.375, -0.46875, 0.5, 0.0
1036, 1.728937728937729, -0.2893772893772894, -0.40293040293040294, -0.15625, -0.4375, 0.46875, 0.0
1037, 1.4383394383394383, -0.6446886446886447, -0.3968253968253968, 0.03125, -0.25, 0.46875, 0.0
1038, 1.507936507936508, -1.089133089133089, -0.6141636141636142, 0.0, -0.0625, 0.40625, 0.0
1039, 2.0586080586080584, -1.3516483516483517, -0.5714285714285714, -0.1875, -0.1875, 0.21875, 0.0
1040, 1.2625152625152625, -0.6568986568986569, -0.36874236874236876, -0.25, -0.21875, 0.15625, 0.0
1041, 0.7680097680097681, -0.21978021978021978, -0.16605616605616605, -0.03125, 0.0, 0.28125, 0.0
1042, 1.2466422466422467, -1.0952380952380953, -0.2442002442002442, -0.03125, 0.03125, 0.21875, 0.0
1043, 1.4566544566544566, -1.0866910866910866, -0.24053724053724054, -0.21875, -0.125, 0.0, 0.0
1044, 0.3137973137973138, -0.31868131868131866, -0.20634920634920634, -0.25, -0.0625, 0.03125, 0.0
1045, 0.1623931623931624, -0.15018315018315018, -0.006105006105006105, -0.125, 0.0, 0.125, 0.0
1046, 0.43833943833943834, -0.40293040293040294, 0.10134310134310134, -0.125, 0.0, 0.09375, 0.0
1047, 0.09768009768009768, -0.31135531135531136, -0.030525030525030524, -0.125, 0.0, 0.09375, 0.0
1048, -0.07326007326007326, -0.22466422466422467, -0.26495726495726496, -0.125, 0.0625, 0.1875, 0.0
1049, 0.1391941391941392, -0.30036630036630035, -0.25396825396825395, -0.15625, 0.125, 0.15625, 0.0
1050, 0.20512820512820512, -0.31013431013431014, -0.08547008547008547, -0.15625, 0.09375, 0.125, 0.0
1051, 0.06349206349206349, -0.2148962148962149, 0.03540903540903541, -0.09375, 0.125, 0.09375, 0.0
1052, 0.13797313797313798, -0.3443223443223443, 0.08669108669108669, -0.0625, 0.09375, 0.03125, 0.0
1053, -0.2954822954822955, -0.10500610500610501, -0.12087912087912088, 0.09375, 0.1875, 0.125, 0.0
1054, 0.49206349206349204, -0.47985347985347987, -0.27350427350427353, 0.28125, 0.34375, 0.125, 0.0
1055, 0.49694749694749696, -0.5860805860805861, -0.1684981684981685, 0.3125, 0.1875, 0.03125, 1.0
1056, 0.2869352869352869, -1.1758241758241759, -0.9951159951159951, 0.1875, 0.1875, 0.03125, 1.0
1057, 0.23443223443223443, 0.1623931623931624, -0.9169719169719169, 0.125, 0.5625, 0.125, 1.0
1058, 1.0769230769230769, -0.3882783882783883, -1.4957264957264957, 0.40625, 1.0, 0.28125, 1.0
1059, 1.352869352869353, -0.6617826617826618, -1.728937728937729, 0.375, 1.09375, 0.28125, 1.0
1060, 0.40293040293040294, -0.326007326007326, -2.0549450549450547, 0.34375, 1.34375, 0.28125, 1.0
1061, -0.13553113553113552, -0.25396825396825395, -2.2625152625152625, 0.40625, 2.03125, 0.46875, 1.0
1062, 0.47619047619047616, -0.05860805860805861, -1.8681318681318682, 0.5, 2.5625, 0.625, 1.0
1063, -0.06105006105006105, -0.2979242979242979, -1.9902319902319903, 0.625, 2.84375, 0.71875, 1.0
1064, -0.2222222222222222, -0.1343101343101343, -1.7802197802197801, 0.84375, 3.4375, 0.90625, 1.0
1065, -0.17704517704517705, -0.4297924297924298, -1.5457875457875458, 1.15625, 4.03125, 1.0625, 1.0
1066, -0.30036630036630035, -0.47619047619047616, -1.1965811965811965, 1.53125, 4.6875, 1.15625, 1.0
1067, 0.4004884004884005, -0.7326007326007326, -0.5433455433455433, 1.90625, 5.1875, 1.1875, 1.0
1068, 1.5115995115995116, -0.9316239316239316, -0.5201465201465202, 2.125, 5.21875, 0.84375, 1.0
1069, 1.5787545787545787, -0.5470085470085471, -1.0134310134310134, 2.1875, 4.84375, 0.25, 1.0
1070, 1.8754578754578755, -0.32844932844932845, -2.0903540903540905, 2.15625, 4.3125, -0.0625, 1.0
1071, 0.7326007326007326, 0.8351648351648352, -2.468864468864469, 2.03125, 3.78125, -0.375, 1.0
1072, -0.057387057387057384, 2.065934065934066, -2.2967032967032965, 2.21875, 4.0, -0.5, 1.0
1073, -0.6385836385836385, 2.844932844932845, -2.2222222222222223, 2.5625, 4.375, -0.3125, 1.0
1074, -0.009768009768009768, 3.2905982905982905, -2.0207570207570207, 2.96875, 4.875, -0.21875, 1.0
1075, 1.0744810744810744, 2.1855921855921854, -2.3772893772893773, 3.125, 4.8125, -0.28125, 1.0
1076, -0.967032967032967, 3.0024420024420024, -1.9377289377289377, 2.9375, 4.5, 0.03125, 1.0
1077, -1.037851037851038, 2.451770451770452, -1.800976800976801, 3.71875, 5.84375, 0.34375, 1.0
1078, 2.590964590964591, 1.3748473748473748, -1.6776556776556777, 3.71875, 5.0625, 0.09375, 1.0
1079, 1.691086691086691, 0.800976800976801, -2.6971916971916974, 3.53125, 4.46875, -0.34375, 1.0
1080, -0.8498168498168498, 2.1514041514041513, -3.012210012210012, 3.875, 5.34375, -0.15625, 1.0
1081, 0.645909645909646, 0.8388278388278388, -2.8046398046398044, 4.15625, 6.125, 0.3125, 1.0
1082, 5.231990231990232, -2.1746031746031744, -2.474969474969475, 3.375, 4.71875, -0.21875, 1.0
1083, 4.705738705738706, -2.2454212454212454, -2.3321123321123323, 2.40625, 2.6875, -1.15625, 1.0
1084, 0.7008547008547008, -0.5726495726495726, -2.3675213675213675, 2.1875, 1.84375, -1.1875, 1.0
1085, -1.1086691086691087, -0.002442002442002442, -2.6935286935286937, 2.1875, 1.90625, -1.09375, 1.0
1086, -0.17582417582417584, -0.3443223443223443, -2.6275946275946276, 1.875, 1.53125, -1.0, 1.0
1087, -0.7557997557997558, -0.4297924297924298, -2.8827838827838828, 1.46875, 0.84375, -0.875, 1.0
1088, -1.47985347985348, -0.040293040293040296, -3.0671550671550674, 1.21875, 0.53125, -0.84375, 1.0
1089, -1.5335775335775337, 0.48473748473748474, -2.9462759462759465, 1.15625, 0.25, -0.75, 1.0
1090, -1.6837606837606838, 0.5775335775335775, -3.0964590964590966, 1.125, 0.40625, -0.46875, 1.0
1091, -1.2551892551892552, 0.608058608058608, -3.029304029304029, 1.0, 0.625, -0.34375, 1.0
1092, 0.5763125763125763, 0.7765567765567766, -2.584859584859585, 0.875, 0.1875, -0.40625, 1.0
1093, -0.3125763125763126, 0.8791208791208791, -2.8253968253968256, 0.625, -0.3125, -0.5625, 1.0
1094, -1.6251526251526252, 0.8742368742368742, -3.26007326007326, 0.34375, 0.0, -0.375, 1.0
1095, -0.9914529914529915, 0.8241758241758241, -2.47008547008547, 0.15625, 0.15625, -0.0625, 1.0
1096, -0.6153846153846154, 0.7155067155067155, -1.3614163614163615, 0.28125, 0.15625, 0.0625, 1.0
1097, -0.23809523809523808, 0.20146520146520147, -0.78998778998779, 0.375, 0.0, 0.0625, 1.0
1098, -0.20757020757020758, 0.2857142857142857, -0.8937728937728938, 0.34375, -0.125, -0.0625, 1.0
1099, -0.8461538461538461, 0.38095238095238093, -1.5103785103785103, 0.25, 0.0, -0.03125, 1.0
1100, -0.3333333333333333, 0.514041514041514, -1.4236874236874237, 0.09375, 0.03125, 0.0625, 1.0
1101, -0.1916971916971917, 0.7264957264957265, -0.8815628815628815, 0.0625, -0.09375, 0.09375, 1.0
1102, 0.10378510378510379, 0.7374847374847375, -0.9731379731379731, 0.03125, -0.375, 0.0, 1.0
1103, -0.9706959706959707, 0.9304029304029304, -1.3894993894993894, -0.03125, -0.53125, 0.0, 1.0
1104, -1.144078144078144, 0.19047619047619047, -1.4261294261294262, -0.125, -0.25, 0.28125, 1.0
1105, -0.05372405372405373, -0.054945054945054944, -0.9511599511599511, -0.34375, -0.15625, 0.40625, 0.0
1106, -0.18803418803418803, 0.36874236874236876, -0.9902319902319903, -0.5625, -0.53125, 0.375, 0.0
1107, -0.6471306471306472, 0.38461538461538464, -1.3382173382173381, -0.625, -0.96875, 0.34375, 0.0
1108, -0.9743589743589743, 0.5934065934065934, -1.9438339438339438, -0.84375, -1.28125, 0.3125, 0.0
1109, -1.332112332112332, 0.9462759462759462, -2.010989010989011, -1.03125, -1.625, 0.28125, 0.0
1110, -1.6336996336996337, 1.2466422466422467, -1.989010989010989, -0.9375, -1.84375, 0.34375, 0.0
1111, -1.0903540903540903, 1.126984126984127, -2.2344322344322345, -0.84375, -2.09375, 0.21875, 0.0
1112, -1.0598290598290598, 1.2551892551892552, -2.542124542124542, -1.0, -2.8125, 0.0, 0.0
1113, -2.2698412698412698, 2.010989010989011, -3.126984126984127, -1.34375, -3.53125, -0.25, 0.0
1114, -3.0268620268620268, 1.3540903540903542, -2.871794871794872, -1.8125, -3.9375, -0.46875, 0.0
1115, -3.3333333333333335, 2.7643467643467643, -1.540903540903541, -2.375, -4.21875, 0.0625, 0.0
1116, -3.0354090354090353, 4.588522588522588, -0.4236874236874237, -2.28125, -4.34375, 0.71875, 0.0
1117, -2.763125763125763, 6.378510378510379, 0.10866910866910867, -1.71875, -4.5625, 1.21875, 0.0
1118, -3.3394383394383396, 5.507936507936508, -0.4126984126984127, -1.21875, -4.84375, 1.3125, 0.0
1119, -1.9304029304029304, 3.238095238095238, -0.7912087912087912, -1.75, -4.65625, 1.0625, 0.0
1120, 0.2087912087912088, 3.241758241758242, 0.3968253968253968, -2.84375, -4.6875, 0.84375, 0.0
1121, 0.6483516483516484, 5.416361416361417, 2.0549450549450547, -3.25, -5.375, 0.71875, 0.0
1122, -1.1428571428571428, 6.097680097680097, 2.3076923076923075, -2.46875, -5.84375, 0.65625, 0.0
1123, -0.3894993894993895, 3.4334554334554332, 1.6727716727716728, -1.46875, -6.0, 1.375, 0.0
1124, 2.004884004884005, -2.0598290598290596, 0.42002442002442003, -1.71875, -6.78125, 1.5, 0.0
1125, 2.6984126984126986, -2.4481074481074483, 0.21367521367521367, -3.25, -7.59375, -0.1875, 0.0
1126, 1.1636141636141637, 0.1330891330891331, 1.0317460317460319, -3.0625, -7.96875, -0.78125, 0.0
1127, 0.09523809523809523, 1.8656898656898657, 1.3223443223443223, -2.15625, -7.96875, -0.3125, 0.0
1128, 1.8021978021978022, 1.6556776556776556, -0.10500610500610501, -0.625, -7.96875, 0.6875, 0.0
1129, -1.4065934065934067, -3.006105006105006, -5.202686202686203, -0.21875, -5.5625, 0.46875, 0.0
1130, -1.9853479853479854, -2.387057387057387, -6.943833943833944, -0.75, -1.96875, 1.03125, 0.0
1131, 1.122100122100122, 0.05372405372405373, -4.054945054945055, -0.71875, -0.46875, 1.6875, 0.0
1132, 3.9731379731379732, -0.5201465201465202, -1.6947496947496947, -0.5625, -0.9375, 1.375, 0.0
1133, 3.623931623931624, -0.9658119658119658, -0.4542124542124542, -0.78125, -2.09375, 0.90625, 0.0
1134, 2.5457875457875456, 0.7655677655677655, -1.4114774114774116, -0.03125, -2.34375, 1.03125, 0.0
1135, 0.8986568986568987, -1.1184371184371185, -3.3772893772893773, 0.375, -1.21875, 1.1875, 0.0
1136, 2.266178266178266, -1.9951159951159951, -3.3833943833943834, -0.03125, -0.5, 1.0625, 0.0
1137, 2.84981684981685, -0.6324786324786325, -1.844932844932845, -0.25, -0.75, 0.875, 0.0
1138, 1.4725274725274726, -0.199023199023199, -1.0341880341880343, -0.1875, -0.71875, 0.90625, 0.0
1139, 1.9120879120879122, -0.1794871794871795, -0.9755799755799756, 0.0, -0.59375, 1.03125, 0.0
1140, 1.855921855921856, -1.623931623931624, -1.6105006105006106, -0.03125, -0.3125, 0.78125, 0.0
1141, 1.6862026862026862, -1.866910866910867, -1.4542124542124542, -0.40625, 0.0, 0.53125, 0.0
1142, 1.6336996336996337, -0.8241758241758241, -0.5946275946275946, -0.5, 0.0625, 0.5, 0.0
1143, 1.6166056166056166, -0.7973137973137974, 0.10134310134310134, -0.40625, -0.03125, 0.4375, 0.0
1144, 1.2380952380952381, -0.6568986568986569, 0.3504273504273504, -0.25, -0.09375, 0.34375, 0.0
1145, 0.8815628815628815, -0.8766788766788767, 0.14285714285714285, -0.1875, 0.0, 0.28125, 0.0
1146, 1.1526251526251525, -0.9865689865689866, 0.11233211233211234, -0.1875, -0.03125, 0.15625, 0.0
1147, 0.7045177045177046, -1.0695970695970696, 0.13186813186813187, -0.28125, -0.0625, 0.09375, 0.0
1148, 0.2857142857142857, -0.27106227106227104, 0.26495726495726496, -0.15625, 0.0, 0.1875, 0.0
1149, 0.43101343101343104, -0.2686202686202686, 0.40293040293040294, 0.0, 0.0, 0.1875, 0.0
1150, 0.16727716727716727, -0.17826617826617827, 0.015873015873015872, 0.09375, 0.0, 0.15625, 0.0
1151, 0.22466422466422467, -0.5457875457875457, -0.5665445665445665, 0.0, 0.03125, 0.09375, 0.0
1152, -0.042735042735042736, -0.3724053724053724, -0.5970695970695971, -0.09375, -0.03125, 0.0, 0.0
1153, -0.2869352869352869, -0.23321123321123322, -0.5934065934065934, -0.1875, 0.0, -0.03125, 0.0
1154, -0.20757020757020758, 0.10500610500610501, -0.1855921855921856, -0.15625, 0.0625, 0.0, 0.0
1155, -0.3137973137973138, 0.02564102564102564, -0.12087912087912088, -0.0625, 0.03125, 0.03125, 0.0
1156, -0.4908424908424908, -0.11721611721611722, -0.18925518925518925, -0.0625, 0.03125, 0.0625, 0.0
1157, -0.15506715506715507, -0.27350427350427353, -0.12087912087912088, -0.09375, 0.21875, 0.0625, 0.0
1158, 0.13553113553113552, -0.24297924297924298, 0.13797313797313798, -0.15625, 0.21875, 0.0, 0.0
1159, 0.003663003663003663, 0.19413919413919414, 0.5152625152625152, -0.0625, 0.0625, 0.0, 0.0
1160, -0.1623931623931624, 0.11721611721611722, 0.21245421245421245, 0.25, 0.0625, 0.0625, 0.0
1161, 0.040293040293040296, -0.8534798534798534, -0.5079365079365079, 0.5, 0.21875, 0.0625, 1.0
1162, 0.6593406593406593, -0.7533577533577533, -0.38095238095238093, 0.40625, 0.34375, 0.0, 1.0
1163, -0.042735042735042736, -0.4236874236874237, -0.796092796092796, 0.09375, 0.375, 0.0, 1.0
1164, -0.09768009768009768, -0.5018315018315018, -1.1025641025641026, -0.1875, 0.71875, 0.125, 1.0
1165, 0.927960927960928, -0.3626373626373626, -1.1184371184371185, -0.3125, 1.0, 0.21875, 1.0
1166, 1.1965811965811965, -0.5592185592185592, -1.3907203907203907, -0.28125, 1.0, 0.1875, 1.0
1167, 0.7155067155067155, -0.08547008547008547, -1.557997557997558, -0.21875, 1.0625, 0.15625, 1.0
1168, 0.29304029304029305, -0.2954822954822955, -1.877899877899878, 0.03125, 1.5, 0.25, 1.0
1169, 0.36752136752136755, -0.06227106227106227, -1.750915750915751, 0.25, 2.15625, 0.46875, 1.0
1170, 0.4884004884004884, -0.09768009768009768, -1.5665445665445665, 0.46875, 2.625, 0.6875, 1.0
1171, 0.38705738705738707, -0.20634920634920634, -1.3540903540903542, 0.6875, 2.9375, 0.78125, 1.0
1172, 0.11233211233211234, -0.2148962148962149, -1.4029304029304028, 0.90625, 3.375, 0.90625, 1.0
1173, 0.3137973137973138, -0.02197802197802198, -1.4175824175824177, 1.125, 3.84375, 0.96875, 1.0
1174, 0.3882783882783883, 0.10500610500610501, -1.5506715506715507, 1.5, 4.5625, 0.84375, 1.0
1175, 0.27228327228327226, 0.8253968253968254, -1.2527472527472527, 1.9375, 4.90625, 0.75, 1.0
1176, 0.5384615384615384, 0.46886446886446886, -1.6178266178266179, 2.125, 4.96875, 0.8125, 1.0
1177, 0.5604395604395604, 0.7057387057387058, -1.9181929181929183, 2.03125, 4.78125, 0.65625, 1.0
1178, 0.7521367521367521, 1.424908424908425, -1.84004884004884, 1.9375, 4.5, 0.5, 1.0
1179, -0.11965811965811966, 2.568986568986569, -1.8217338217338217, 2.28125, 4.59375, 0.46875, 1.0
1180, -1.4615384615384615, 3.3223443223443225, -1.9511599511599511, 2.90625, 5.46875, 0.8125, 1.0
1181, -0.2490842490842491, 3.1184371184371185, -1.6007326007326008, 3.4375, 6.1875, 0.84375, 1.0
1182, 2.1294261294261294, 2.2564102564102564, -1.6202686202686203, 3.375, 5.65625, 0.5, 1.0
1183, 1.586080586080586, 2.4822954822954824, -2.199023199023199, 3.25, 4.875, 0.1875, 1.0
1184, 1.0866910866910866, 1.5335775335775337, -2.8876678876678876, 3.09375, 4.46875, -0.21875, 1.0
1185, -0.6336996336996337, 2.2295482295482296, -3.1135531135531136, 3.34375, 4.8125, -0.125, 1.0
1186, 0.37606837606837606, 1.7753357753357752, -2.827838827838828, 3.53125, 5.03125, 0.09375, 1.0
1187, 2.0244200244200243, 0.21611721611721613, -2.642246642246642, 3.34375, 4.625, 0.15625, 1.0
1188, 2.1416361416361416, -0.9267399267399268, -2.5567765567765566, 2.9375, 4.09375, 0.0625, 1.0
1189, 2.2173382173382175, -1.1111111111111112, -1.6556776556776556, 2.65625, 3.34375, -0.09375, 1.0
1190, 1.0268620268620268, -0.6776556776556777, -1.0073260073260073, 2.78125, 3.0, -0.375, 1.0
1191, 1.2515262515262515, -1.3382173382173381, -0.7692307692307693, 2.8125, 2.5, -0.75, 1.0
1192, 1.0598290598290598, -1.8937728937728937, -1.1978021978021978, 2.40625, 1.625, -0.96875, 1.0
1193, -0.5152625152625152, -1.1404151404151404, -1.746031746031746, 2.09375, 1.25, -0.8125, 1.0
1194, -0.1514041514041514, 0.3504273504273504, -2.0097680097680097, 2.09375, 1.0625, -0.65625, 1.0
1195, -0.25518925518925517, -0.1916971916971917, -2.706959706959707, 1.90625, 0.9375, -0.6875, 1.0
1196, -0.4053724053724054, 0.2039072039072039, -2.907203907203907, 1.65625, 0.90625, -0.59375, 1.0
1197, -0.32112332112332115, 0.42735042735042733, -2.5238095238095237, 1.5625, 0.875, -0.375, 1.0
1198, 0.27594627594627597, 0.19536019536019536, -2.492063492063492, 1.5, 0.5625, -0.4375, 1.0
1199, 0.11355311355311355, -0.10622710622710622, -2.5213675213675213, 1.15625, 0.4375, -0.5625, 1.0
1200, 0.03540903540903541, 0.463980463980464, -2.5177045177045176, 1.03125, 0.25, -0.46875, 1.0
1201, 0.05616605616605617, 0.6349206349206349, -2.3553113553113554, 0.90625, 0.28125, -0.4375, 1.0
1202, 0.1562881562881563, 0.645909645909646, -2.0378510378510377, 0.78125, 0.125, -0.34375, 1.0
1203, -0.5482295482295483, 0.29426129426129427, -2.1794871794871793, 0.71875, -0.03125, -0.34375, 1.0
1204, -1.1355311355311355, 0.0, -2.409035409035409, 0.53125, 0.125, -0.375, 1.0
1205, -0.4627594627594628, 0.4590964590964591, -1.3308913308913308, 0.375, 0.3125, -0.21875, 1.0
1206, -0.2783882783882784, 0.34798534798534797, -1.0, 0.46875, 0.0625, -0.125, 1.0
1207, -0.6446886446886447, 0.4945054945054945, -1.3614163614163615, 0.53125, -0.125, -0.03125, 1.0
1208, -0.7973137973137974, -0.5054945054945055, -2.409035409035409, 0.4375, -0.21875, -0.03125, 1.0
1209, -0.9072039072039072, 0.4908424908424908, -2.288156288156288, 0.0, -0.125, -0.15625, 1.0
1210, -1.0561660561660562, 0.5201465201465202, -1.9865689865689866, -0.21875, -0.03125, 0.03125, 1.0
1211, -0.47741147741147744, 0.32967032967032966, -1.2197802197802199, -0.375, -0.03125, 0.25, 1.0
1212, -0.3162393162393162, -0.13797313797313798, -1.021978021978022, -0.4375, -0.25, 0.34375, 1.0
1213, -0.05860805860805861, 0.31746031746031744, -0.9902319902319903, -0.53125, -0.40625, 0.1875, 0.0
1214, 0.2857142857142857, 0.21733821733821734, -1.0695970695970696, -0.5625, -0.625, 0.03125, 0.0
1215, -0.9462759462759462, 0.2087912087912088, -1.2808302808302807, -0.625, -0.875, 0.03125, 0.0
1216, -1.177045177045177, 0.5653235653235653, -1.6080586080586081, -0.71875, -0.65625, 0.21875, 0.0
1217, -0.13186813186813187, 0.568986568986569, -1.5604395604395604, -0.78125, -0.71875, 0.28125, 0.0
1218, 0.1452991452991453, 0.8901098901098901, -1.4822954822954824, -0.75, -1.4375, 0.125, 0.0
1219, -2.0891330891330893, 1.9157509157509158, -2.0415140415140414, -0.6875, -2.3125, 0.0, 0.0
1220, -3.647130647130647, 1.0073260073260073, -2.7936507936507935, -0.53125, -2.53125, 0.40625, 0.0
1221, -3.3284493284493286, 0.6483516483516484, -2.9694749694749696, -0.625, -2.46875, 1.15625, 0.0
1222, -1.774114774114774, 0.001221001221001221, -2.942612942612943, -1.0, -2.875, 1.34375, 0.0
1223, -1.6813186813186813, 1.3601953601953602, -2.2918192918192917, -1.65625, -4.59375, 0.59375, 0.0
1224, -4.634920634920635, 3.0488400488400487, -2.0378510378510377, -1.6875, -4.9375, 0.71875, 0.0
1225, -6.115995115995116, 2.9084249084249083, -2.3284493284493286, -1.78125, -4.15625, 1.5625, 0.0
1226, -3.5177045177045176, 3.4652014652014653, -2.0476190476190474, -2.15625, -4.03125, 1.9375, 0.0
1227, -0.21611721611721613, 3.879120879120879, -1.2747252747252746, -2.9375, -5.3125, 1.25, 0.0
1228, 0.7594627594627594, 4.8388278388278385, 1.3308913308913308, -3.65625, -7.5, 0.4375, 0.0
1229, -0.884004884004884, 4.224664224664225, 3.144078144078144, -3.6875, -8.46875, 1.09375, 0.0
1230, -1.8547008547008548, 3.608058608058608, 2.548229548229548, -3.0625, -7.875, 2.34375, 0.0
1231, 0.7264957264957265, 0.7851037851037851, 1.4371184371184371, -3.15625, -7.6875, 1.90625, 0.0
1232, 0.7594627594627594, 0.11843711843711843, 0.7167277167277167, -3.59375, -7.40625, 0.53125, 0.0
1233, 1.8095238095238095, -0.746031746031746, 0.4652014652014652, -3.5, -7.5625, 0.28125, 0.0
1234, 3.238095238095238, -0.778998778998779, 0.38217338217338215, -2.78125, -7.71875, 0.125, 0.0
1235, 3.1904761904761907, 0.24664224664224665, 0.2576312576312576, -1.4375, -7.65625, 0.125, 0.0
1236, -0.36874236874236876, -0.13064713064713065, -1.3284493284493284, -0.4375, -6.25, 0.375, 0.0
1237, -2.126984126984127, -1.0073260073260073, -3.451770451770452, -0.5, -3.96875, 0.78125, 0.0
1238, 0.9731379731379731, -0.3492063492063492, -3.7997557997557996, -0.53125, -2.75, 1.15625, 0.0
1239, 3.2332112332112333, -1.1172161172161172, -4.142857142857143, -0.21875, -2.59375, 1.1875, 0.0
1240, 3.2173382173382175, -1.286935286935287, -4.225885225885226, 0.0, -2.40625, 1.15625, 0.0
1241, 1.4334554334554335, -1.304029304029304, -4.1440781440781445, -0.03125, -1.625, 1.0625, 0.0
1242, 1.205128205128205, -1.3406593406593406, -4.061050061050061, -0.375, -0.5, 0.90625, 0.0
1243, 2.8180708180708183, -0.8754578754578755, -2.9450549450549453, -0.78125, -0.4375, 0.90625, 0.0
