timestamp, accX, accY, accZ, gyroX, gyroY, gyroZ, button
5550, -0.03785103785103785, 0.04395604395604396, -0.08913308913308914, 0.0, 0.0, 0.0, 0.0
5551, 0.18803418803418803, -0.09035409035409035, -0.18681318681318682, 0.0, -0.0625, 0.03125, 0.0
5552, 0.0231990231990232, 0.050061050061050064, -0.0927960927960928, 0.0, -0.0625, 0.0, 0.0
1, 0.3308913308913309, -0.15018315018315018, -0.5311355311355311, 0.0, -0.09375, 0.0, 0.0
2, 0.13797313797313798, -0.07203907203907203, -0.19413919413919414, -0.25, -0.40625, -0.03125, 0.0
3, -0.1330891330891331, 0.11721611721611722, -0.08058608058608059, -0.25, -0.3125, -0.03125, 0.0
4, 0.22954822954822954, 0.0463980463980464, -0.03418803418803419, -0.1875, -0.3125, -0.03125, 0.0
5, -0.5067155067155067, 0.1391941391941392, 0.08058608058608059, -0.15625, -0.15625, -0.03125, 0.0
6, 0.004884004884004884, -0.06105006105006105, -0.4139194139194139, -0.28125, -0.15625, 0.0, 0.0
7, -0.8461538461538461, -0.001221001221001221, -0.9731379731379731, -0.375, -0.03125, 0.09375, 0.0
8, -0.5457875457875457, -0.10134310134310134, -0.9706959706959707, -0.46875, 0.28125, 0.1875, 0.0
9, -0.28083028083028083, 0.01098901098901099, -0.608058608058608, -0.59375, 0.53125, 0.28125, 0.0
10, -0.07203907203907203, -0.10744810744810745, -0.6691086691086691, -0.6875, 0.75, 0.3125, 0.0
11, -0.3516483516483517, -0.4358974358974359, -1.514041514041514, -1.09375, 1.15625, 0.3125, 0.0
12, -0.8864468864468864, -0.37606837606837606, -2.7765567765567765, -1.46875, 1.78125, 0.40625, 0.0
13, -0.9865689865689866, -0.3724053724053724, -2.05006105006105, -1.6875, 2.28125, 0.6875, 0.0
14, -0.2442002442002442, -0.7301587301587301, -1.398046398046398, -1.46875, 2.59375, 1.375, 0.0
15, 1.492063492063492, -2.8144078144078146, -2.586080586080586, -1.0625, 3.3125, 2.65625, 0.0
16, 6.203907203907204, -4.36019536019536, -4.257631257631258, -0.90625, 3.40625, 1.78125, 0.0
17, 6.438339438339439, -4.423687423687424, -3.7203907203907205, -0.90625, 2.96875, 0.0625, 0.0
18, 4.31990231990232, -3.8485958485958487, -2.2075702075702077, -0.59375, 2.90625, -0.75, 0.0
19, 2.086691086691087, -3.1904761904761907, -0.7912087912087912, 0.0, 3.09375, -0.78125, 0.0
20, 0.9902319902319903, -3.7838827838827838, 0.10134310134310134, 0.5, 3.0625, -0.9375, 0.0
21, 0.16361416361416362, -4.346764346764346, 1.6092796092796093, 0.71875, 2.65625, -1.1875, 0.0
22, -0.6764346764346765, -3.139194139194139, 2.8827838827838828, 1.625, 2.4375, -1.625, 0.0
23, -1.3968253968253967, -3.6507936507936507, 3.2283272283272284, 1.90625, 2.21875, -2.0625, 0.0
24, -1.8656898656898657, -2.8913308913308913, 2.3614163614163615, 1.71875, 1.5, -2.21875, 0.0
25, -2.9108669108669107, -0.8656898656898657, 2.1196581196581197, 1.65625, 0.9375, -2.21875, 0.0
26, -3.213675213675214, -0.11843711843711843, 2.1306471306471306, 1.96875, 0.84375, -2.4375, 0.0
27, -3.5128205128205128, -0.1452991452991453, 2.4395604395604398, 2.28125, 0.71875, -2.46875, 0.0
28, -2.6312576312576312, 0.7692307692307693, 2.311355311355311, 2.59375, 0.46875, -2.0625, 0.0
29, -2.89010989010989, -0.12576312576312576, 1.293040293040293, 3.0, 0.28125, -1.625, 0.0
30, -2.826617826617827, -0.3418803418803419, 0.2442002442002442, 2.96875, 0.21875, -1.4375, 0.0
31, -2.9804639804639805, 0.007326007326007326, 0.16483516483516483, 2.75, 0.25, -1.09375, 0.0
32, -2.3663003663003663, 1.6288156288156288, 0.4993894993894994, 2.75, 0.34375, -0.53125, 0.0
33, -2.700854700854701, 1.9987789987789988, -0.78998778998779, 2.96875, 0.5, 0.0625, 0.0
34, -2.42002442002442, 2.2979242979242978, -1.3553113553113554, 3.28125, 1.1875, 0.625, 0.0
35, 0.25396825396825395, 1.879120879120879, -2.2344322344322345, 3.0625, 1.0, 0.90625, 0.0
36, 1.0537240537240538, 3.028083028083028, -2.924297924297924, 2.9375, 0.65625, 1.09375, 0.0
37, 0.7130647130647131, 3.2625152625152625, -3.7374847374847375, 2.9375, 0.53125, 1.125, 0.0
38, -0.2673992673992674, 2.094017094017094, -4.6752136752136755, 2.65625, 0.78125, 1.03125, 0.0
39, -1.0695970695970696, 1.3223443223443223, -4.315018315018315, 2.15625, 1.28125, 1.0, 0.0
40, -0.34554334554334554, 1.424908424908425, -2.9096459096459095, 1.71875, 1.5, 1.03125, 0.0
41, 1.2844932844932846, 2.496947496947497, -2.15018315018315, 1.53125, 1.1875, 1.0625, 0.0
42, 1.271062271062271, 2.4590964590964592, -2.115995115995116, 1.5625, 0.78125, 0.8125, 0.0
43, 0.702075702075702, 1.4188034188034189, -3.2454212454212454, 1.46875, 0.65625, 0.46875, 0.0
44, 0.21367521367521367, 0.5860805860805861, -4.555555555555555, 1.09375, 0.96875, -0.03125, 0.0
45, 1.5238095238095237, 0.6361416361416361, -4.7936507936507935, 0.40625, 0.6875, -0.1875, 0.0
46, -0.3626373626373626, 1.155067155067155, -4.6068376068376065, 0.0, 0.09375, -0.0625, 0.0
47, -1.5299145299145298, 1.667887667887668, -4.511599511599512, -0.25, 0.375, 0.25, 0.0
48, -2.114774114774115, 2.7533577533577533, -4.273504273504273, -0.28125, 1.25, 1.03125, 0.0
49, -1.4273504273504274, 1.8144078144078144, -3.971916971916972, -0.15625, 2.375, 2.125, 0.0
50, -0.3028083028083028, 0.796092796092796, -3.172161172161172, -0.1875, 3.21875, 2.84375, 0.0
51, 0.6361416361416361, 0.19658119658119658, -2.0354090354090353, -0.3125, 3.65625, 3.0625, 0.0
52, -0.10012210012210013, 0.7008547008547008, -1.1941391941391941, -0.34375, 3.9375, 3.0, 0.0
53, -0.042735042735042736, 0.5384615384615384, -0.2686202686202686, -0.09375, 4.375, 2.9375, 0.0
54, -1.0598290598290598, 0.9658119658119658, 0.3772893772893773, 0.125, 4.65625, 2.96875, 0.0
55, -1.978021978021978, 1.7557997557997558, 1.0757020757020757, 0.5625, 5.3125, 3.15625, 0.0
56, -1.9291819291819292, 2.901098901098901, 1.6752136752136753, 1.125, 6.09375, 3.28125, 0.0
57, -2.3504273504273505, 4.702075702075702, 1.9853479853479854, 1.84375, 6.84375, 3.28125, 0.0
58, -1.5995115995115996, 5.191697191697192, 2.5604395604395602, 2.125, 6.6875, 2.8125, 0.0
59, -0.8388278388278388, 4.396825396825397, 2.2356532356532357, 2.34375, 5.9375, 2.25, 0.0
60, -0.3956043956043956, 2.5555555555555554, 1.3992673992673992, 2.21875, 4.6875, 1.5, 0.0
61, -1.0708180708180708, 1.8510378510378511, 0.39316239316239315, 1.96875, 3.4375, 0.71875, 0.0
62, -2.1636141636141635, 1.8742368742368742, -0.1514041514041514, 1.75, 2.34375, 0.0, 0.0
63, 2.083028083028083, -1.5152625152625152, -4.691086691086691, 1.90625, -1.09375, 0.5, 0.0
64, 2.203907203907204, -2.501831501831502, -5.487179487179487, 1.1875, -1.0625, -0.0625, 0.0
65, 1.1782661782661783, -0.8461538461538461, -4.130647130647131, 0.78125, -1.0, -0.375, 0.0
66, 0.008547008547008548, 0.6178266178266179, -2.485958485958486, 1.0, -1.03125, -0.34375, 0.0
67, -0.4358974358974359, 0.37606837606837606, -1.84981684981685, 1.34375, -1.1875, -0.125, 0.0
68, -0.42002442002442003, -0.17704517704517705, -1.6727716727716728, 1.46875, -1.375, 0.03125, 0.0
69, -0.9255189255189256, -0.8791208791208791, -3.203907203907204, 1.5625, -0.875, 0.0625, 0.0
70, 0.5775335775335775, -1.3650793650793651, -4.006105006105006, 1.5625, -0.71875, 0.09375, 0.0
71, 0.8302808302808303, -1.1904761904761905, -4.6642246642246645, 1.21875, -1.09375, 0.0, 0.0
72, -0.03907203907203907, -0.36752136752136755, -5.3418803418803416, 0.90625, -1.1875, -0.03125, 0.0
73, -0.2698412698412698, -0.3504273504273504, -5.686202686202686, 0.78125, -0.6875, 0.0, 0.0
74, 0.09523809523809523, -0.23687423687423687, -5.264957264957265, 0.625, -0.09375, 0.09375, 0.0
75, 0.7545787545787546, -0.35653235653235654, -4.47985347985348, 0.4375, 0.25, 0.09375, 0.0
76, 0.7472527472527473, -0.5677655677655677, -3.4053724053724053, 0.15625, 0.28125, 0.0, 0.0
77, 0.45665445665445664, -0.38705738705738707, -2.1233211233211233, -0.125, 0.25, -0.15625, 0.0
78, -0.02442002442002442, 0.0463980463980464, -0.8547008547008547, -0.25, 0.15625, -0.34375, 0.0
79, -0.5787545787545788, 0.796092796092796, 0.015873015873015872, -0.125, 0.0, -0.53125, 0.0
80, -0.960927960927961, 0.905982905982906, 0.3614163614163614, 0.21875, -0.15625, -0.375, 0.0
81, -1.1086691086691087, 0.6141636141636142, 0.2661782661782662, 0.34375, -0.21875, -0.25, 0.0
82, -0.8351648351648352, -0.6800976800976801, -0.6007326007326007, 0.15625, -0.0625, -0.34375, 1.0
83, 0.08913308913308914, 0.4188034188034188, -1.1538461538461537, 0.15625, -0.125, -0.4375, 1.0
84, 0.11721611721611722, 1.297924297924298, -3.463980463980464, 0.5, -0.15625, -0.25, 1.0
85, -0.2271062271062271, -0.6703296703296703, -6.465201465201465, 0.34375, 0.15625, -0.21875, 1.0
86, -0.8400488400488401, -2.498168498168498, -8.122100122100122, -0.3125, 0.6875, -0.34375, 1.0
87, -0.2039072039072039, -1.5604395604395604, -5.769230769230769, -0.9375, 0.90625, -0.15625, 1.0
88, 0.6178266178266179, -1.098901098901099, -5.764346764346764, -0.9375, 0.84375, 0.09375, 1.0
89, 0.6605616605616605, -1.9597069597069596, -7.2686202686202686, -1.0, 1.0, 0.125, 1.0
90, 1.1941391941391941, -2.6373626373626373, -7.465201465201465, -1.09375, 1.0625, 0.0, 1.0
91, 1.0915750915750915, -2.463980463980464, -5.3003663003663, -1.1875, 0.90625, -0.21875, 1.0
92, 1.05006105006105, -1.6324786324786325, -3.5641025641025643, -0.75, 0.5, -0.34375, 1.0
93, 2.416361416361416, -3.492063492063492, -5.2173382173382175, -0.25, -0.03125, -0.34375, 1.0
94, 0.30036630036630035, -5.046398046398046, -4.996336996336996, -0.75, -0.25, -0.3125, 1.0
95, -1.5909645909645909, -3.402930402930403, -1.652014652014652, -1.65625, 0.25, -0.53125, 1.0
96, -1.3992673992673992, -1.468864468864469, 1.6056166056166057, -1.9375, 0.6875, -0.59375, 1.0
97, -2.197802197802198, -0.16727716727716727, 4.282051282051282, -1.84375, 0.90625, -0.5, 1.0
98, -2.26007326007326, 0.326007326007326, 6.339438339438339, -1.5, 1.0, -0.375, 1.0
99, -1.722832722832723, -0.6190476190476191, 7.045177045177045, -1.28125, 0.8125, -0.3125, 1.0
100, -1.7045177045177045, -0.42735042735042733, 7.798534798534798, -1.5, 0.59375, -0.40625, 1.0
101, -2.21978021978022, 0.4627594627594628, 8.916971916971917, -1.625, 0.34375, -0.40625, 1.0
102, -1.9365079365079365, 0.7619047619047619, 8.755799755799757, -1.3125, 0.03125, -0.34375, 1.0
103, -1.9181929181929183, 0.8547008547008547, 7.8791208791208796, -0.96875, -0.09375, -0.1875, 1.0
104, -1.452991452991453, 0.29426129426129427, 6.462759462759463, -0.5625, -0.09375, 0.0, 1.0
105, -0.6568986568986569, -0.2661782661782662, 5.08058608058608, -0.46875, -0.09375, 0.0625, 1.0
106, -0.7973137973137974, -0.3601953601953602, 4.26007326007326, -0.5, 0.0, 0.0625, 1.0
107, -0.5506715506715507, -0.019536019536019536, 3.7655677655677655, -0.375, 0.0625, 0.125, 1.0
108, 0.12454212454212454, -0.1452991452991453, 3.004884004884005, -0.09375, -0.125, 0.1875, 1.0
109, -0.13797313797313798, -0.47619047619047616, 1.8656898656898657, 0.03125, -0.1875, 0.1875, 1.0
110, -0.5409035409035409, -0.6312576312576312, 0.8913308913308914, 0.0625, 0.0, 0.1875, 1.0
111, -0.12454212454212454, -0.5653235653235653, 0.21611721611721613, 0.09375, 0.125, 0.1875, 1.0
112, 0.398046398046398, -0.6166056166056166, -0.2503052503052503, 0.09375, 0.0625, 0.21875, 1.0
113, 0.3614163614163614, -0.4175824175824176, -0.5848595848595849, 0.09375, -0.03125, 0.21875, 1.0
114, -0.10989010989010989, -0.36507936507936506, -0.5128205128205128, 0.03125, 0.0, 0.25, 1.0
115, -0.57997557997558, -0.5311355311355311, -0.29181929181929184, -0.40625, 0.4375, 0.40625, 1.0
116, -0.06715506715506715, -0.2600732600732601, 0.6507936507936508, -0.78125, 0.53125, 0.625, 0.0
117, -1.4175824175824177, 0.8083028083028083, 1.3736263736263736, -0.75, 0.375, 0.59375, 0.0
118, -1.1794871794871795, 0.575091575091575, 2.960927960927961, -0.59375, 0.25, 0.53125, 0.0
119, -1.6422466422466422, 0.21611721611721613, 4.564102564102564, -0.375, 0.125, 0.4375, 0.0
120, -2.0781440781440783, -0.015873015873015872, 5.456654456654457, -0.21875, 0.0, 0.40625, 0.0
121, -2.4542124542124544, -0.5213675213675214, 5.396825396825397, -0.03125, 0.0, 0.46875, 0.0
122, -1.8754578754578755, -0.7301587301587301, 4.809523809523809, 0.15625, 0.0, 0.53125, 0.0
123, -0.9804639804639804, -0.6398046398046398, 3.84004884004884, 0.53125, 0.0, 0.6875, 0.0
124, 0.78998778998779, -1.564102564102564, 2.431013431013431, 1.0625, -0.03125, 0.78125, 0.0
125, 1.9768009768009769, -2.918192918192918, 1.098901098901099, 1.1875, -0.28125, 0.65625, 0.0
126, 1.4957264957264957, -2.884004884004884, 0.5482295482295483, 0.78125, -0.46875, 0.28125, 0.0
127, 0.8608058608058609, -1.7728937728937728, 0.8571428571428571, 0.40625, -0.4375, 0.0, 0.0
128, 0.525030525030525, -0.5201465201465202, 1.1660561660561661, 0.71875, -0.3125, 0.09375, 0.0
129, 0.9035409035409036, -0.27472527472527475, 0.5811965811965812, 1.1875, -0.28125, 0.1875, 0.0
130, 1.2026862026862026, -1.315018315018315, -0.21123321123321123, 1.1875, -0.5, 0.0625, 0.0
131, -0.031746031746031744, -1.5115995115995116, 0.0231990231990232, 0.8125, -0.59375, -0.21875, 0.0
132, -0.9816849816849816, -0.16483516483516483, 0.5518925518925519, 0.71875, -0.5625, -0.25, 0.0
133, -0.7313797313797313, 0.46642246642246643, 1.0207570207570207, 1.0, -0.71875, -0.09375, 0.0
134, -0.5347985347985348, 1.1843711843711844, -0.3333333333333333, 1.6875, -0.84375, 0.15625, 0.0
135, -0.3711843711843712, -0.4371184371184371, -2.4053724053724053, 1.90625, -0.84375, 0.28125, 0.0
136, -0.047619047619047616, -1.4566544566544566, -3.7081807081807083, 1.46875, -0.8125, 0.09375, 0.0
137, -0.115995115995116, -0.9536019536019537, -3.4432234432234434, 1.0625, -0.71875, 0.0, 0.0
138, -0.5421245421245421, -0.15995115995115994, -2.5457875457875456, 1.0, -0.71875, 0.0, 0.0
139, -0.25396825396825395, -0.4297924297924298, -2.6764346764346763, 1.3125, -0.90625, 0.125, 0.0
140, -0.21978021978021978, -1.0231990231990231, -3.4664224664224665, 1.4375, -1.0625, 0.1875, 0.0
141, -0.1452991452991453, -1.0036630036630036, -3.868131868131868, 1.3125, -1.0, 0.1875, 0.0
142, -0.045177045177045176, -1.1245421245421245, -4.1330891330891335, 1.125, -0.8125, 0.15625, 0.0
143, -0.1514041514041514, -0.8522588522588522, -4.08058608058608, 0.90625, -0.59375, 0.09375, 0.0
144, 0.4371184371184371, -0.43345543345543347, -3.634920634920635, 0.71875, -0.375, 0.03125, 0.0
145, 0.5714285714285714, -0.25396825396825395, -3.2002442002442004, 0.53125, -0.4375, 0.0625, 0.0
146, 0.20757020757020758, -0.02197802197802198, -2.860805860805861, 0.375, -0.40625, 0.0625, 0.0
147, 0.07814407814407814, -0.04151404151404151, -2.6434676434676434, 0.28125, -0.1875, 0.125, 0.0
148, 0.717948717948718, -0.1575091575091575, -2.2124542124542126, 0.1875, 0.03125, 0.09375, 0.0
149, 1.054945054945055, -0.029304029304029304, -1.6874236874236874, 0.0625, 0.03125, 0.0, 0.0
150, 0.5054945054945055, 0.15018315018315018, -1.3846153846153846, -0.0625, -0.03125, -0.0625, 0.0
151, 0.17704517704517705, 0.23565323565323565, -1.1782661782661783, -0.0625, -0.03125, -0.0625, 0.0
152, 0.2783882783882784, 0.14652014652014653, -1.1514041514041513, -0.03125, 0.0, -0.125, 0.0
153, 0.43223443223443225, -0.16361416361416362, -1.4285714285714286, 0.0, -0.03125, -0.25, 0.0
154, 0.5702075702075702, -0.16361416361416362, -1.844932844932845, 0.03125, -0.125, -0.5, 0.0
155, 0.684981684981685, 0.28083028083028083, -2.614163614163614, 0.15625, -0.21875, -0.625, 1.0
156, 0.221001221001221, 0.0927960927960928, -3.733821733821734, 0.15625, -0.09375, -0.59375, 1.0
157, -0.7802197802197802, 0.14896214896214896, -5.741147741147741, 0.0, 0.15625, -0.375, 1.0
158, -0.2673992673992674, -0.4297924297924298, -6.957264957264957, -0.125, 0.4375, -0.25, 1.0
159, -0.43101343101343104, -1.3821733821733821, -8.096459096459096, -0.5, 0.71875, -0.09375, 1.0
160, -0.35653235653235654, -2.0024420024420024, -7.468864468864469, -0.71875, 1.03125, -0.125, 1.0
161, 0.43223443223443225, -3.062271062271062, -6.253968253968254, -0.9375, 1.0, -0.1875, 1.0
162, -0.1391941391941392, -3.0134310134310134, -4.641025641025641, -1.125, 0.78125, -0.15625, 1.0
163, -0.3076923076923077, -3.10989010989011, -3.3687423687423688, -1.5, 0.875, -0.3125, 1.0
164, 0.11355311355311355, -2.0842490842490844, -1.6800976800976801, -1.65625, 0.84375, -0.4375, 1.0
165, -0.20757020757020758, -1.8925518925518925, -0.5873015873015873, -1.625, 0.78125, -0.53125, 1.0
166, -0.7155067155067155, -1.4847374847374848, 0.6874236874236874, -1.5625, 0.6875, -0.53125, 1.0
167, -1.032967032967033, -1.393162393162393, 1.7326007326007327, -1.5, 0.625, -0.46875, 1.0
168, -1.3894993894993894, -1.5604395604395604, 2.4297924297924296, -1.53125, 0.625, -0.53125, 1.0
169, -0.702075702075702, -0.5274725274725275, 3.3394383394383396, -1.5, 0.6875, -0.5625, 1.0
170, -1.0366300366300367, -0.8376068376068376, 3.8315018315018317, -1.3125, 0.53125, -0.5, 1.0
171, -1.5323565323565325, -0.5763125763125763, 4.676434676434677, -1.3125, 0.5, -0.46875, 1.0
172, -1.321123321123321, -0.17582417582417584, 5.417582417582418, -1.3125, 0.53125, -0.4375, 1.0
173, -1.0964590964590966, -0.2503052503052503, 5.463980463980464, -1.1875, 0.34375, -0.34375, 1.0
174, -1.3247863247863247, -0.057387057387057384, 5.3931623931623935, -0.96875, 0.0625, -0.25, 1.0
175, -1.7484737484737485, 0.21978021978021978, 5.802197802197802, -0.90625, 0.09375, -0.15625, 1.0
176, -1.7619047619047619, 0.09157509157509157, 5.958485958485959, -0.84375, 0.15625, -0.09375, 1.0
177, -0.927960927960928, 0.11233211233211234, 5.715506715506716, -0.625, 0.0, 0.0, 1.0
178, -0.4053724053724054, -0.020757020757020756, 4.6581196581196584, -0.3125, -0.25, 0.09375, 1.0
179, -0.7289377289377289, -0.2954822954822955, 3.484737484737485, -0.15625, -0.25, 0.125, 1.0
180, -0.6605616605616605, -0.7313797313797313, 2.5067155067155067, -0.15625, -0.03125, 0.125, 1.0
181, -0.21123321123321123, -0.49572649572649574, 2.139194139194139, -0.09375, 0.09375, 0.125, 1.0
182, 0.1330891330891331, -0.27228327228327226, 1.9181929181929183, 0.0, 0.0625, 0.15625, 1.0
183, 0.4078144078144078, -0.1684981684981685, 1.3968253968253967, 0.25, -0.125, 0.1875, 1.0
184, 0.46886446886446886, -0.5409035409035409, 0.41025641025641024, 0.375, -0.25, 0.21875, 1.0
185, -0.08180708180708181, -0.7728937728937729, -0.7912087912087912, 0.25, 0.03125, 0.125, 1.0
186, 0.10256410256410256, -0.3833943833943834, -0.3772893772893773, 0.125, 0.25, 0.125, 1.0
187, 0.03663003663003663, -0.1575091575091575, 0.26373626373626374, 0.03125, 0.21875, 0.125, 1.0
188, -0.5409035409035409, -0.10012210012210013, 0.9084249084249084, -0.03125, 0.125, 0.15625, 1.0
189, -1.2124542124542124, -0.358974358974359, 1.514041514041514, -0.25, 0.28125, 0.28125, 1.0
190, -1.84004884004884, -0.08913308913308914, 2.498168498168498, -0.625, 0.6875, 0.46875, 1.0
191, -1.4981684981684982, 0.2905982905982906, 4.68986568986569, -0.71875, 0.875, 0.53125, 0.0
192, -1.4493284493284493, 0.5299145299145299, 6.014652014652015, -0.4375, 0.53125, 0.625, 0.0
193, -1.6483516483516483, 0.22466422466422467, 5.788766788766789, 0.0, 0.03125, 0.625, 0.0
194, -1.6459096459096458, -0.5347985347985348, 4.656898656898657, 0.4375, -0.21875, 0.59375, 0.0
195, -1.0305250305250304, -1.216117216117216, 3.2515262515262515, 0.75, -0.1875, 0.71875, 0.0
196, 0.3308913308913309, -1.7692307692307692, 1.894993894993895, 0.875, -0.15625, 0.8125, 0.0
197, 1.4371184371184371, -2.4285714285714284, 0.6495726495726496, 0.8125, -0.21875, 0.5, 0.0
198, 1.7606837606837606, -2.144078144078144, -0.07081807081807082, 0.6875, -0.34375, 0.25, 0.0
199, 1.404151404151404, -1.647130647130647, -0.22466422466422467, 0.59375, -0.4375, 0.125, 0.0
200, 0.7411477411477412, -1.1575091575091576, -0.2625152625152625, 0.5625, -0.40625, 0.09375, 0.0
201, 0.7631257631257631, -0.7680097680097681, -0.33577533577533575, 0.65625, -0.375, 0.0, 0.0
202, 0.4249084249084249, -0.7777777777777778, -0.17582417582417584, 0.5625, -0.53125, -0.09375, 0.0
203, 0.03296703296703297, 0.08791208791208792, 0.32112332112332115, 0.625, -0.59375, -0.0625, 0.0
204, 0.19658119658119658, 0.3711843711843712, 0.01221001221001221, 1.03125, -0.625, 0.03125, 0.0
205, 0.6227106227106227, -0.36874236874236876, -0.78998778998779, 1.25, -0.875, 0.03125, 0.0
206, 0.09645909645909646, -0.9572649572649573, -1.8693528693528694, 1.0625, -0.9375, -0.09375, 0.0
207, -0.22344322344322345, -0.8632478632478633, -2.1868131868131866, 0.75, -0.78125, -0.1875, 0.0
208, -0.14652014652014653, 0.24175824175824176, -1.818070818070818, 0.9375, -0.5625, -0.125, 0.0
209, 0.39438339438339437, -0.21123321123321123, -1.2466422466422467, 1.0, -0.90625, -0.21875, 0.0
210, -0.336996336996337, -0.31868131868131866, -1.380952380952381, 0.90625, -1.375, -0.40625, 0.0
211, -1.3199023199023199, -0.44932844932844934, -1.9377289377289377, 0.6875, -1.46875, -0.46875, 0.0
212, -0.7704517704517705, -0.05616605616605617, -2.1819291819291817, 0.5625, -1.28125, -0.5, 0.0
213, -0.2454212454212454, 0.42124542124542125, -2.452991452991453, 0.59375, -1.1875, -0.4375, 0.0
214, -0.221001221001221, 0.3492063492063492, -2.8547008547008548, 0.84375, -1.125, -0.28125, 0.0
215, -0.48473748473748474, 0.07936507936507936, -3.231990231990232, 0.96875, -1.0, -0.09375, 0.0
216, -0.8461538461538461, -0.12698412698412698, -3.3028083028083026, 0.9375, -0.6875, 0.0, 0.0
217, -0.304029304029304, -0.2600732600732601, -3.0354090354090353, 0.8125, -0.375, 0.0625, 0.0
218, 0.1794871794871795, -0.17826617826617827, -2.7191697191697193, 0.625, -0.28125, 0.15625, 0.0
219, 0.42246642246642246, -0.15995115995115994, -2.6031746031746033, 0.46875, -0.3125, 0.21875, 0.0
220, 0.36874236874236876, -0.13186813186813187, -2.485958485958486, 0.3125, -0.0625, 0.3125, 0.0
221, 0.5763125763125763, -0.12942612942612944, -2.2075702075702077, 0.25, 0.125, 0.3125, 0.0
222, 1.1831501831501832, -0.34798534798534797, -1.7448107448107448, 0.1875, 0.125, 0.1875, 0.0
223, 1.3492063492063493, -0.40293040293040294, -1.3125763125763126, 0.0625, 0.0, -0.0625, 0.0
224, 0.9694749694749695, -0.29304029304029305, -0.905982905982906, -0.03125, -0.15625, -0.28125, 0.0
225, 0.01098901098901099, -0.1807081807081807, -0.7948717948717948, -0.09375, -0.125, -0.34375, 0.0
226, -0.5042735042735043, 0.32844932844932845, -0.5958485958485958, 0.03125, -0.09375, -0.375, 0.0
227, -0.5115995115995116, 0.5372405372405372, -0.818070818070818, 0.375, 0.0, -0.5, 0.0
228, 0.10012210012210013, 0.4017094017094017, -1.5286935286935286, 0.5, 0.0, -0.53125, 1.0
229, -0.2576312576312576, 0.16971916971916973, -2.9645909645909647, 0.46875, 0.03125, -0.4375, 1.0
230, -1.0537240537240538, 0.38705738705738707, -4.5335775335775335, 0.375, 0.375, -0.34375, 1.0
231, -0.3064713064713065, -0.6654456654456654, -5.273504273504273, 0.125, 0.625, -0.125, 1.0
232, 0.5665445665445665, -1.2283272283272284, -5.483516483516484, -0.25, 0.8125, 0.125, 1.0
233, 1.137973137973138, -2.304029304029304, -5.380952380952381, -0.3125, 0.8125, 0.15625, 1.0
234, 0.38583638583638585, -3.230769230769231, -5.2063492063492065, -0.625, 0.84375, 0.03125, 1.0
235, 0.3235653235653236, -2.184371184371184, -4.218559218559219, -1.03125, 0.9375, -0.15625, 1.0
236, 0.43345543345543347, -1.507936507936508, -3.213675213675214, -1.125, 0.84375, -0.1875, 1.0
237, 0.3894993894993895, -1.1684981684981686, -2.5995115995115996, -1.0, 0.6875, -0.15625, 1.0
238, -0.07081807081807082, -2.0732600732600734, -2.3614163614163615, -0.78125, 0.53125, -0.09375, 1.0
239, -0.14774114774114774, -2.126984126984127, -2.4078144078144077, -1.03125, 0.71875, -0.25, 1.0
240, -0.8608058608058609, -2.2503052503052503, -2.1477411477411477, -1.375, 0.90625, -0.40625, 1.0
241, -0.14163614163614163, -1.5836385836385836, -0.6105006105006106, -1.71875, 0.9375, -0.53125, 1.0
242, 0.199023199023199, -0.6422466422466423, 1.133089133089133, -1.9375, 0.59375, -0.71875, 1.0
243, -0.27350427350427353, -0.07814407814407814, 1.8705738705738706, -1.875, -0.1875, -0.71875, 1.0
244, -2.0195360195360195, -0.18681318681318682, 1.4822954822954824, -1.65625, -0.125, -0.59375, 1.0
245, -3.001221001221001, 0.1111111111111111, 1.7704517704517704, -1.46875, 0.5, -0.3125, 1.0
246, -2.343101343101343, -0.1684981684981685, 3.3028083028083026, -1.40625, 0.9375, -0.1875, 1.0
247, -0.7997557997557998, -0.5482295482295483, 4.681318681318682, -1.40625, 0.6875, -0.21875, 1.0
248, -0.49694749694749696, -0.6019536019536019, 5.315018315018315, -1.46875, 0.125, -0.28125, 1.0
249, -0.9267399267399268, -0.21123321123321123, 5.715506715506716, -1.3125, -0.21875, -0.21875, 1.0
250, -1.757020757020757, -0.11355311355311355, 5.534798534798535, -1.03125, -0.09375, -0.125, 1.0
251, -1.3308913308913308, -0.3308913308913309, 5.467643467643468, -0.75, 0.09375, -0.03125, 1.0
252, -0.9072039072039072, -0.1807081807081807, 5.391941391941392, -0.53125, 0.1875, 0.0, 1.0
253, -0.9267399267399268, -0.18681318681318682, 4.993894993894994, -0.34375, 0.09375, 0.0625, 1.0
254, -0.5396825396825397, -0.525030525030525, 4.3418803418803416, -0.1875, -0.0625, 0.09375, 1.0
255, -0.0231990231990232, -0.612942612942613, 2.84981684981685, 0.0, -0.375, 0.09375, 1.0
256, -0.2844932844932845, -0.5018315018315018, 1.4725274725274726, 0.21875, -0.28125, 0.09375, 1.0
257, -0.3772893772893773, -0.5860805860805861, 0.5213675213675214, 0.40625, 0.0, 0.125, 1.0
258, 0.4822954822954823, -0.6776556776556777, 0.017094017094017096, 0.40625, 0.25, 0.1875, 1.0
259, 1.0415140415140416, -0.9010989010989011, -0.4822954822954823, 0.3125, 0.125, 0.125, 1.0
260, 0.28327228327228327, -0.26373626373626374, -0.5946275946275946, 0.125, -0.125, 0.0625, 1.0
261, -0.6349206349206349, 0.2967032967032967, -0.6275946275946276, 0.0625, -0.09375, 0.03125, 1.0
262, -0.4004884004884005, 0.15262515262515264, -0.7741147741147741, 0.1875, 0.125, 0.125, 1.0
263, 0.15995115995115994, -0.2771672771672772, -0.8376068376068376, 0.15625, 0.28125, 0.1875, 1.0
264, 0.3956043956043956, -0.21245421245421245, -0.5641025641025641, 0.0, 0.125, 0.15625, 1.0
265, -0.16117216117216118, -0.12332112332112333, -0.14407814407814407, -0.1875, 0.0, 0.125, 1.0
266, -0.503052503052503, -0.1514041514041514, 0.3528693528693529, -0.375, 0.09375, 0.21875, 1.0
267, -0.4126984126984127, -0.2454212454212454, 1.1452991452991452, -0.59375, 0.34375, 0.25, 1.0
268, -0.35653235653235654, -0.3162393162393162, 2.5164835164835164, -0.625, 0.34375, 0.21875, 0.0
269, -1.1465201465201464, 0.050061050061050064, 3.9365079365079363, -0.5, 0.34375, 0.25, 0.0
270, -1.6459096459096458, 0.336996336996337, 5.31990231990232, -0.3125, 0.3125, 0.375, 0.0
271, -1.7252747252747254, -0.028083028083028084, 5.885225885225886, 0.09375, 0.34375, 0.5, 0.0
272, -1.1172161172161172, -0.7094017094017094, 5.698412698412699, 0.4375, 0.09375, 0.65625, 0.0
273, -0.5409035409035409, -1.5543345543345544, 5.180708180708181, 0.59375, -0.3125, 0.625, 0.0
274, -0.6275946275946276, -1.2112332112332111, 4.633699633699634, 0.8125, -0.59375, 0.53125, 0.0
275, -1.0488400488400489, -0.6800976800976801, 3.098901098901099, 1.3125, -0.4375, 0.59375, 0.0
276, 0.43223443223443225, -1.564102564102564, 1.7960927960927962, 1.625, -0.4375, 0.375, 0.0
277, 1.6007326007326008, -2.177045177045177, 0.7252747252747253, 1.28125, -0.875, 0.09375, 0.0
278, 0.7997557997557998, -2.062271062271062, 0.7594627594627594, 0.6875, -1.1875, -0.40625, 0.0
279, -0.07326007326007326, 0.4652014652014652, 0.3308913308913309, 1.0, -1.09375, -0.3125, 0.0
280, 0.33455433455433453, -1.144078144078144, -0.8485958485958486, 1.53125, -1.0625, -0.21875, 0.0
281, 0.018315018315018316, -1.7435897435897436, -1.297924297924298, 1.40625, -1.3125, -0.46875, 0.0
282, -1.2197802197802199, 0.03540903540903541, -1.6422466422466422, 1.125, -1.375, -0.625, 0.0
283, -1.8253968253968254, 0.8144078144078144, -2.2893772893772892, 1.46875, -0.90625, -0.28125, 0.0
284, 0.06227106227106227, -0.040293040293040296, -2.937728937728938, 1.90625, -0.40625, 0.03125, 0.0
285, -0.3956043956043956, -0.5897435897435898, -3.468864468864469, 1.9375, -0.53125, 0.0, 0.0
286, -1.4065934065934067, -0.28205128205128205, -3.490842490842491, 1.5625, -0.53125, 0.0, 0.0
287, -1.1025641025641026, 0.7423687423687424, -3.5616605616605614, 1.46875, -0.21875, 0.28125, 0.0
288, 0.8070818070818071, 0.07692307692307693, -4.0647130647130645, 1.59375, -0.125, 0.53125, 0.0
289, 1.1965811965811965, -0.8522588522588522, -4.73992673992674, 1.5, -0.40625, 0.53125, 0.0
290, -0.06227106227106227, -0.8583638583638583, -4.968253968253968, 1.0, -0.25, 0.3125, 0.0
291, 0.33821733821733824, -1.0488400488400489, -4.490842490842491, 0.59375, -0.0625, 0.1875, 0.0
292, 0.20634920634920634, -0.463980463980464, -3.3162393162393164, 0.3125, -0.125, 0.09375, 0.0
293, -0.21367521367521367, -0.20146520146520147, -2.293040293040293, 0.1875, -0.21875, 0.0625, 0.0
294, -0.8424908424908425, -0.08180708180708181, -1.5726495726495726, 0.125, -0.1875, 0.21875, 0.0
295, -0.5824175824175825, -0.11965811965811966, -1.083028083028083, 0.1875, -0.09375, 0.3125, 0.0
296, 0.03418803418803419, -0.16483516483516483, -0.6971916971916972, 0.25, -0.125, 0.34375, 0.0
297, 0.21733821733821734, -0.38217338217338215, -0.7777777777777778, 0.375, -0.125, 0.25, 0.0
298, 0.6971916971916972, -1.0671550671550671, -1.3223443223443223, 0.375, -0.125, -0.0625, 0.0
299, 0.967032967032967, -1.2173382173382172, -1.5653235653235653, 0.25, -0.25, -0.46875, 0.0
300, 0.6800976800976801, -1.0293040293040292, -1.750915750915751, 0.09375, -0.34375, -0.78125, 0.0
301, 0.05982905982905983, -0.5115995115995116, -1.6605616605616607, -0.0625, -0.40625, -0.875, 1.0
302, -0.8803418803418803, 0.7289377289377289, -2.5115995115995116, 0.0, -0.34375, -0.65625, 1.0
303, -1.398046398046398, 0.42857142857142855, -3.750915750915751, 0.09375, -0.15625, -0.3125, 1.0
304, -1.1941391941391941, 0.13064713064713065, -5.321123321123321, 0.0, 0.25, -0.09375, 1.0
305, -0.503052503052503, -0.9047619047619048, -6.841269841269841, -0.25, 0.5, 0.0625, 1.0
306, -0.2967032967032967, -1.63003663003663, -8.167277167277167, -0.6875, 0.59375, 0.1875, 1.0
307, -0.9047619047619048, -2.3272283272283274, -8.261294261294262, -1.125, 0.875, 0.21875, 1.0
308, -0.663003663003663, -2.271062271062271, -6.373626373626373, -1.5625, 1.3125, 0.21875, 1.0
309, 0.10744810744810745, -1.7619047619047619, -4.367521367521367, -1.6875, 1.40625, 0.15625, 1.0
310, 0.05982905982905983, -1.63003663003663, -3.105006105006105, -1.625, 1.25, 0.0625, 1.0
311, -0.24297924297924298, -1.0634920634920635, -2.0085470085470085, -1.53125, 1.03125, 0.0625, 1.0
312, -0.38705738705738707, -1.5665445665445665, -1.9291819291819292, -1.375, 0.875, 0.0625, 1.0
313, -0.7826617826617827, -1.4102564102564104, -1.0818070818070817, -1.5625, 1.125, -0.03125, 1.0
314, -0.4981684981684982, -1.0976800976800978, 0.5726495726495726, -1.59375, 1.21875, -0.1875, 1.0
315, 0.4053724053724054, -0.7606837606837606, 2.3797313797313797, -1.5625, 0.9375, -0.40625, 1.0
316, 0.9694749694749695, -0.38095238095238093, 2.6312576312576312, -1.21875, 0.375, -0.625, 1.0
317, -0.5213675213675214, -0.29426129426129427, 2.4676434676434678, -1.125, 0.3125, -0.5, 1.0
318, -1.4822954822954824, -0.20512820512820512, 2.431013431013431, -1.125, 0.59375, -0.25, 1.0
319, -1.6092796092796093, -0.3125763125763126, 3.1807081807081805, -1.1875, 0.9375, -0.1875, 1.0
320, -0.5641025641025641, 0.14407814407814407, 3.8522588522588523, -0.96875, 0.8125, -0.125, 1.0
321, 0.3553113553113553, -0.22832722832722832, 3.484737484737485, -0.6875, 0.25, -0.09375, 1.0
322, -0.7313797313797313, -0.5128205128205128, 3.437118437118437, -0.78125, 0.0, -0.0625, 1.0
323, -1.459096459096459, -0.7655677655677655, 2.9572649572649574, -0.84375, 0.25, -0.09375, 1.0
324, -1.6153846153846154, -0.5982905982905983, 3.659340659340659, -1.03125, 0.625, -0.09375, 1.0
325, -0.49572649572649574, 1.0354090354090355, 5.934065934065934, -0.8125, 0.4375, -0.03125, 1.0
326, -0.590964590964591, 0.7741147741147741, 5.295482295482295, -0.375, -0.0625, 0.0625, 1.0
327, -0.8144078144078144, 0.15873015873015872, 3.73992673992674, -0.03125, -0.28125, 0.125, 1.0
328, -1.0073260073260073, -0.21733821733821734, 2.8827838827838828, 0.0, -0.0625, 0.09375, 1.0
329, -0.5384615384615384, 0.045177045177045176, 2.9645909645909647, -0.0625, 0.21875, 0.09375, 1.0
330, 0.3663003663003663, 0.24175824175824176, 2.746031746031746, 0.0, 0.15625, 0.09375, 1.0
331, 0.30158730158730157, 0.08913308913308914, 1.8608058608058609, 0.21875, -0.21875, 0.09375, 1.0
332, -0.2087912087912088, -0.25518925518925517, 0.6263736263736264, 0.4375, -0.40625, 0.09375, 1.0
333, -0.2783882783882784, -0.3076923076923077, -0.17704517704517705, 0.4375, -0.125, 0.0625, 1.0
334, 0.5103785103785103, -0.3137973137973138, -0.6043956043956044, 0.375, 0.09375, 0.0625, 1.0
335, 0.6727716727716728, -0.18192918192918192, -0.7728937728937729, 0.3125, 0.0, 0.03125, 1.0
336, -0.007326007326007326, 0.12942612942612944, -0.8058608058608059, 0.21875, 0.0, 0.0, 1.0
337, -0.17826617826617827, 0.08669108669108669, -0.3162393162393162, 0.15625, 0.1875, 0.03125, 1.0
338, -0.28205128205128205, -0.054945054945054944, 0.6727716727716728, 0.0, 0.34375, 0.0625, 1.0
339, -0.8376068376068376, -0.13553113553113552, 1.94993894993895, -0.28125, 0.5, 0.15625, 1.0
340, -1.7118437118437118, 0.11477411477411477, 3.3211233211233213, -0.53125, 0.71875, 0.34375, 0.0
341, -1.5238095238095237, 0.9487179487179487, 4.886446886446887, -0.28125, 0.6875, 0.5, 0.0
342, -0.6434676434676435, 1.2564102564102564, 5.967032967032967, 0.28125, 0.0625, 0.625, 0.0
343, -0.8376068376068376, 0.6031746031746031, 5.137973137973138, 0.8125, -0.5, 0.59375, 0.0
344, -0.7289377289377289, -0.6227106227106227, 4.328449328449328, 1.09375, -0.65625, 0.53125, 0.0
345, -0.6825396825396826, -1.205128205128205, 3.6043956043956045, 1.0625, -0.65625, 0.4375, 0.0
346, -0.4126984126984127, -1.1025641025641026, 2.6764346764346763, 1.09375, -0.46875, 0.375, 0.0
347, -0.41025641025641024, -1.2026862026862026, 1.7045177045177045, 0.96875, -0.34375, 0.28125, 0.0
348, 0.08302808302808302, -1.017094017094017, 1.1001221001221002, 0.6875, -0.375, 0.03125, 0.0
349, -0.47496947496947495, -0.32234432234432236, 1.8388278388278387, 0.40625, -0.5, -0.09375, 0.0
350, -0.10256410256410256, 0.41514041514041516, 1.3675213675213675, 0.59375, -0.65625, 0.0, 0.0
351, 0.08791208791208792, 0.358974358974359, -0.08791208791208792, 1.1875, -0.6875, 0.1875, 0.0
352, 1.3443223443223444, -1.4297924297924298, -1.9133089133089134, 1.59375, -0.71875, 0.3125, 0.0
353, 0.724053724053724, -2.3553113553113554, -2.5335775335775335, 1.15625, -0.9375, 0.0, 0.0
354, -0.45054945054945056, -0.5824175824175825, -1.894993894993895, 0.53125, -0.875, -0.34375, 0.0
355, 0.10256410256410256, 0.43345543345543347, -1.5836385836385836, 0.71875, -0.625, -0.125, 0.0
356, 0.8363858363858364, -0.4004884004884005, -1.5018315018315018, 1.03125, -0.71875, -0.0625, 0.0
357, 0.015873015873015872, -0.7875457875457875, -1.8363858363858363, 1.03125, -1.09375, -0.21875, 0.0
358, -1.3357753357753357, -0.40293040293040294, -2.126984126984127, 0.71875, -1.125, -0.375, 0.0
359, -1.623931623931624, 1.0695970695970696, -1.901098901098901, 0.625, -0.84375, -0.1875, 0.0
360, -0.18315018315018314, 0.7423687423687424, -2.304029304029304, 1.21875, -0.59375, 0.46875, 0.0
361, 1.6398046398046398, -0.9365079365079365, -2.954822954822955, 1.1875, -0.9375, 0.28125, 0.0
362, 1.507936507936508, -1.7973137973137974, -3.5934065934065935, 0.75, -1.28125, -0.125, 0.0
363, 0.6068376068376068, -1.47985347985348, -3.5006105006105006, 0.34375, -1.25, -0.4375, 0.0
364, 0.08180708180708181, -0.4456654456654457, -2.8241758241758244, 0.28125, -1.03125, -0.4375, 0.0
365, -0.03296703296703297, 0.03907203907203907, -2.213675213675214, 0.5, -0.84375, -0.375, 0.0
366, -0.12087912087912088, 0.3626373626373626, -2.0085470085470085, 0.78125, -0.71875, -0.3125, 0.0
367, -0.21367521367521367, 0.01221001221001221, -2.4078144078144077, 0.875, -0.5625, -0.1875, 0.0
368, -0.08791208791208792, -0.4713064713064713, -2.688644688644689, 0.6875, -0.4375, -0.15625, 0.0
369, 0.05372405372405373, -0.29181929181929184, -2.4175824175824174, 0.46875, -0.34375, -0.1875, 0.0
370, 0.05128205128205128, -0.41147741147741146, -2.1294261294261294, 0.21875, -0.3125, -0.21875, 0.0
371, -0.16605616605616605, -0.11355311355311355, -1.6105006105006106, 0.0625, -0.1875, -0.1875, 0.0
372, 0.2796092796092796, -0.25396825396825395, -0.905982905982906, 0.0625, -0.15625, -0.1875, 0.0
373, -0.10500610500610501, -0.3492063492063492, -1.155067155067155, 0.0625, -0.125, -0.21875, 0.0
374, -0.5885225885225885, -0.14774114774114774, -1.5018315018315018, 0.0625, -0.09375, -0.25, 0.0
375, -1.1636141636141637, 0.1562881562881563, -2.2356532356532357, 0.09375, 0.03125, -0.34375, 0.0
376, -1.236874236874237, 0.2954822954822955, -3.056166056166056, 0.21875, 0.21875, -0.3125, 0.0
377, -1.2588522588522588, 0.07936507936507936, -3.746031746031746, 0.25, 0.46875, -0.125, 1.0
378, -0.33943833943833945, -0.32722832722832723, -4.417582417582418, 0.125, 0.65625, 0.15625, 1.0
379, 0.0463980463980464, -1.26007326007326, -5.478632478632479, -0.0625, 0.875, 0.21875, 1.0
380, -0.25274725274725274, -1.9487179487179487, -6.465201465201465, -0.34375, 1.0625, 0.0625, 1.0
381, -0.1282051282051282, -2.32967032967033, -6.390720390720391, -0.71875, 1.125, -0.03125, 1.0
382, -0.36996336996337, -2.352869352869353, -5.5396825396825395, -1.21875, 1.15625, 0.03125, 1.0
383, -0.7106227106227107, -2.184371184371184, -4.615384615384615, -1.6875, 1.4375, 0.25, 1.0
384, 0.2796092796092796, -1.9023199023199022, -3.9816849816849818, -1.75, 1.375, 0.25, 1.0
385, 0.20146520146520147, -1.6007326007326008, -2.52991452991453, -1.65625, 1.1875, 0.0625, 1.0
386, -0.10622710622710622, -1.6153846153846154, -1.5970695970695972, -1.5625, 1.0, 0.03125, 1.0
387, 0.1221001221001221, -0.746031746031746, -1.2747252747252746, -1.21875, 0.75, 0.09375, 1.0
388, -0.23931623931623933, -1.2442002442002442, -1.1233211233211233, -1.03125, 0.75, 0.09375, 1.0
389, -0.8791208791208791, -2.0793650793650795, -0.5653235653235653, -1.25, 1.0, -0.03125, 1.0
390, -0.01098901098901099, -1.6080586080586081, 1.0293040293040292, -1.5625, 1.0, -0.3125, 1.0
391, 0.663003663003663, -0.22344322344322345, 2.7472527472527473, -1.5625, 0.59375, -0.5625, 1.0
392, -0.003663003663003663, 0.32967032967032966, 2.9633699633699635, -1.25, 0.15625, -0.53125, 1.0
393, -0.3833943833943834, -0.05982905982905983, 2.4346764346764345, -0.96875, -0.15625, -0.3125, 1.0
394, -0.8021978021978022, -0.5543345543345544, 2.318681318681319, -0.9375, -0.1875, -0.3125, 1.0
395, -1.2893772893772895, -0.24297924297924298, 3.7496947496947497, -1.21875, 0.28125, -0.28125, 1.0
396, -0.8986568986568987, 0.43345543345543347, 5.471306471306471, -1.3125, 0.5625, -0.34375, 1.0
397, -0.7557997557997558, 0.7521367521367521, 6.677655677655678, -1.0625, 0.375, -0.3125, 1.0
398, -1.0512820512820513, 0.8498168498168498, 6.932844932844933, -0.78125, 0.0, -0.21875, 1.0
399, -1.6251526251526252, 0.514041514041514, 6.245421245421245, -0.53125, -0.25, -0.09375, 1.0
400, -1.6715506715506716, 0.557997557997558, 5.295482295482295, -0.375, -0.125, -0.0625, 1.0
401, -0.8766788766788767, 0.23809523809523808, 3.9316239316239314, -0.03125, 0.0, 0.0, 1.0
402, -0.18681318681318682, -0.34065934065934067, 2.4078144078144077, 0.15625, -0.03125, 0.09375, 1.0
403, -0.304029304029304, -0.4432234432234432, 1.3687423687423688, 0.09375, -0.1875, 0.09375, 1.0
404, -0.34676434676434675, -0.3614163614163614, 1.0085470085470085, 0.0, -0.125, 0.09375, 1.0
405, -0.12942612942612944, 0.0695970695970696, 0.9938949938949939, -0.0625, 0.03125, 0.0625, 1.0
406, 0.13553113553113552, -0.007326007326007326, 0.7997557997557998, 0.1875, 0.0625, 0.09375, 1.0
407, -0.001221001221001221, -0.14896214896214896, 0.4004884004884005, 0.1875, 0.03125, 0.125, 1.0
408, -0.002442002442002442, -0.1978021978021978, 0.15384615384615385, 0.1875, 0.0, 0.09375, 1.0
409, -0.003663003663003663, -0.26373626373626374, -0.07081807081807082, 0.09375, 0.0, 0.09375, 1.0
410, -0.10622710622710622, -0.029304029304029304, -0.12942612942612944, 0.125, 0.03125, 0.09375, 1.0
411, -0.22344322344322345, -0.006105006105006105, -0.03785103785103785, 0.15625, 0.15625, 0.09375, 1.0
412, 0.0, -0.11721611721611722, 0.09645909645909646, 0.15625, 0.25, 0.125, 1.0
413, 0.12087912087912088, -0.34554334554334554, 0.2796092796092796, 0.0, 0.25, 0.125, 1.0
414, -0.32967032967032966, -0.4261294261294261, 0.8656898656898657, -0.3125, 0.34375, 0.21875, 0.0
415, -1.170940170940171, 0.07448107448107448, 1.7814407814407816, -0.5625, 0.625, 0.34375, 0.0
416, -1.735042735042735, 1.3516483516483517, 3.5445665445665444, -0.34375, 0.84375, 0.375, 0.0
417, -1.0976800976800978, 1.540903540903541, 4.717948717948718, 0.15625, 0.65625, 0.4375, 0.0
418, -0.20024420024420025, 0.1452991452991453, 4.987789987789988, 0.90625, -0.0625, 0.46875, 0.0
419, -0.29914529914529914, -0.4078144078144078, 4.407814407814408, 1.3125, -0.5, 0.5, 0.0
420, -0.800976800976801, -0.5787545787545788, 3.9743589743589745, 1.53125, -0.75, 0.53125, 0.0
421, -0.9829059829059829, -1.0818070818070817, 3.0915750915750917, 1.5625, -0.78125, 0.4375, 0.0
422, -1.3748473748473748, -1.3821733821733821, 2.2124542124542126, 1.34375, -0.53125, 0.3125, 0.0
423, -0.8461538461538461, -1.0598290598290598, 1.722832722832723, 0.96875, -0.1875, 0.25, 0.0
424, -0.3089133089133089, -0.14163614163614163, 1.2588522588522588, 0.84375, -0.125, 0.1875, 0.0
425, -0.3504273504273504, 0.14285714285714285, 1.2417582417582418, 0.8125, -0.34375, 0.09375, 0.0
426, -0.6752136752136753, 0.463980463980464, 1.0293040293040292, 0.78125, -0.59375, 0.03125, 0.0
427, -0.5421245421245421, 0.27350427350427353, 0.32234432234432236, 0.84375, -0.6875, 0.03125, 0.0
428, -0.6837606837606838, 0.20146520146520147, -0.5457875457875457, 0.9375, -0.78125, 0.09375, 0.0
429, -0.5470085470085471, 0.16971916971916973, -1.3406593406593406, 1.0625, -0.6875, 0.15625, 0.0
430, 0.21978021978021978, -0.17094017094017094, -1.8485958485958487, 1.09375, -0.8125, 0.125, 0.0
431, 0.8400488400488401, 0.04151404151404151, -2.590964590964591, 1.15625, -1.0, 0.0625, 0.0
432, 0.5543345543345544, -0.2612942612942613, -2.9316239316239314, 1.125, -1.09375, -0.09375, 0.0
433, 0.15995115995115994, -0.22954822954822954, -2.8803418803418803, 1.0625, -1.15625, -0.28125, 0.0
434, -0.7765567765567766, 0.11233211233211234, -2.5653235653235655, 1.0625, -1.1875, -0.34375, 0.0
435, -1.336996336996337, 0.6544566544566545, -2.122100122100122, 1.25, -1.09375, -0.15625, 0.0
436, -0.9523809523809523, 1.1794871794871795, -2.5335775335775335, 1.75, -0.90625, 0.1875, 0.0
437, 1.054945054945055, 0.1807081807081807, -4.1001221001221, 2.15625, -1.03125, 0.40625, 0.0
438, 1.9462759462759462, -2.1648351648351647, -5.691086691086691, 1.71875, -1.3125, 0.1875, 0.0
439, 0.9804639804639804, -2.5177045177045176, -6.079365079365079, 0.90625, -1.0, -0.28125, 0.0
440, 0.33455433455433453, -1.1037851037851039, -4.929181929181929, 0.4375, -0.5, -0.34375, 0.0
441, 0.4810744810744811, -0.1916971916971917, -2.5555555555555554, 0.3125, -0.03125, -0.0625, 0.0
442, 0.8144078144078144, -0.5409035409035409, -1.5372405372405373, 0.21875, -0.03125, -0.09375, 0.0
443, 0.3956043956043956, -0.21245421245421245, -1.054945054945055, 0.125, -0.15625, -0.25, 0.0
444, -0.0927960927960928, -0.028083028083028084, -0.7362637362637363, 0.0625, -0.1875, -0.3125, 0.0
445, -0.43345543345543347, 0.042735042735042736, -0.6556776556776557, 0.0625, -0.125, -0.28125, 0.0
446, -0.06227106227106227, -0.0989010989010989, -0.5445665445665445, 0.125, -0.15625, -0.21875, 0.0
447, 0.001221001221001221, -0.20757020757020758, -0.8412698412698413, 0.28125, -0.3125, -0.21875, 0.0
448, -0.575091575091575, -0.4993894993894994, -1.575091575091575, 0.46875, -0.28125, -0.53125, 0.0
449, -0.15384615384615385, -0.17826617826617827, -2.3003663003663, 0.59375, -0.09375, -0.6875, 1.0
450, -1.5018315018315018, -0.29181929181929184, -3.343101343101343, 0.4375, -0.03125, -0.3125, 1.0
451, -0.6910866910866911, -0.8388278388278388, -4.140415140415141, 0.40625, 0.21875, -0.0625, 1.0
452, -0.5787545787545788, -1.8034188034188035, -6.010989010989011, 0.28125, 0.53125, -0.03125, 1.0
453, -1.1318681318681318, -2.822954822954823, -7.162393162393163, -0.46875, 1.21875, 0.09375, 1.0
454, -0.2258852258852259, -3.614163614163614, -7.355311355311355, -1.03125, 1.5625, 0.25, 1.0
455, 1.0842490842490842, -3.717948717948718, -6.614163614163614, -1.375, 1.5, 0.1875, 1.0
456, 0.568986568986569, -3.324786324786325, -5.622710622710622, -1.5, 1.25, 0.1875, 1.0
457, -0.6532356532356532, -3.8485958485958487, -4.726495726495727, -1.75, 1.28125, 0.125, 1.0
458, -1.0634920634920635, -3.4236874236874235, -3.3968253968253967, -2.09375, 1.46875, 0.03125, 1.0
459, -0.4456654456654457, -2.1758241758241756, -1.641025641025641, -2.15625, 1.4375, 0.0, 1.0
460, -0.06227106227106227, -2.0586080586080584, -0.32844932844932845, -2.0625, 1.15625, -0.09375, 1.0
461, 0.2258852258852259, -1.7692307692307692, 0.9694749694749695, -1.875, 0.8125, -0.21875, 1.0
462, -0.17338217338217338, -1.794871794871795, 1.673992673992674, -1.8125, 0.65625, -0.375, 1.0
463, -0.8766788766788767, -1.6275946275946276, 2.3894993894993894, -1.96875, 0.75, -0.5625, 1.0
464, -0.6214896214896215, -0.8876678876678876, 3.0805860805860807, -1.8125, 0.6875, -0.4375, 1.0
465, 0.1391941391941392, -0.02564102564102564, 4.078144078144078, -1.625, 0.5, -0.53125, 1.0
466, -0.5311355311355311, -0.15018315018315018, 4.36019536019536, -1.40625, 0.375, -0.625, 1.0
467, -1.2112332112332111, 0.3504273504273504, 5.117216117216117, -1.4375, 0.53125, -0.65625, 1.0
468, -1.0769230769230769, 0.5824175824175825, 6.0195360195360195, -1.40625, 0.5625, -0.6875, 1.0
469, -1.0341880341880343, 0.8827838827838828, 6.152625152625153, -1.28125, 0.28125, -0.59375, 1.0
470, -0.9511599511599511, 0.833943833943834, 5.257631257631258, -0.96875, -0.125, -0.4375, 1.0
471, -1.735042735042735, 0.7606837606837606, 4.37973137973138, -0.5625, -0.3125, -0.3125, 1.0
472, -1.619047619047619, 0.08913308913308914, 3.5128205128205128, -0.3125, -0.09375, -0.1875, 1.0
473, -1.2564102564102564, -0.14652014652014653, 3.340659340659341, -0.3125, 0.1875, -0.125, 1.0
474, -0.6971916971916972, 0.12087912087912088, 3.4004884004884004, -0.34375, 0.3125, -0.09375, 1.0
475, -0.5225885225885226, 0.5286935286935287, 3.385836385836386, -0.21875, 0.09375, -0.0625, 1.0
476, -0.5018315018315018, 0.1794871794871795, 2.3797313797313797, 0.15625, -0.28125, 0.0625, 1.0
477, -0.6947496947496947, -0.2771672771672772, 1.1428571428571428, 0.25, -0.1875, 0.09375, 1.0
478, -0.7252747252747253, -0.4554334554334554, 0.39438339438339437, 0.15625, 0.09375, 0.09375, 1.0
479, -0.08424908424908426, -0.23565323565323565, 0.3162393162393162, 0.09375, 0.125, 0.125, 1.0
480, 0.05128205128205128, -0.10134310134310134, 0.22466422466422467, 0.125, -0.0625, 0.125, 1.0
481, 0.002442002442002442, -0.026862026862026864, 0.050061050061050064, 0.21875, -0.1875, 0.15625, 1.0
482, -0.30158730158730157, -0.052503052503052504, -0.15018315018315018, 0.25, -0.09375, 0.21875, 1.0
483, -0.4065934065934066, -0.12576312576312576, -0.3540903540903541, 0.21875, 0.125, 0.25, 1.0
484, -0.017094017094017096, -0.6056166056166056, -0.2857142857142857, -0.0625, 0.25, 0.34375, 0.0
485, -0.21855921855921856, -0.6385836385836385, 0.19536019536019536, -0.46875, 0.375, 0.40625, 0.0
486, -0.6532356532356532, -0.03296703296703297, 1.3101343101343101, -0.625, 0.40625, 0.4375, 0.0
487, -0.9230769230769231, 0.45665445665445664, 2.857142857142857, -0.59375, 0.34375, 0.46875, 0.0
488, -1.2905982905982907, 0.7350427350427351, 4.628815628815629, 0.03125, 0.21875, 0.5625, 0.0
489, -0.9328449328449329, 0.09401709401709402, 4.35042735042735, 0.53125, 0.09375, 0.65625, 0.0
490, -0.19047619047619047, -0.8131868131868132, 3.7020757020757022, 0.8125, -0.0625, 0.65625, 0.0
491, -0.017094017094017096, -1.5653235653235653, 3.0720390720390722, 0.8125, -0.25, 0.53125, 0.0
492, -0.32844932844932845, -1.3821733821733821, 2.619047619047619, 0.625, -0.28125, 0.34375, 0.0
493, -0.42002442002442003, -1.0708180708180708, 2.879120879120879, 0.5, -0.21875, 0.21875, 0.0
494, 0.18681318681318682, -0.5470085470085471, 2.634920634920635, 0.53125, -0.09375, 0.1875, 0.0
495, 0.7631257631257631, -0.7435897435897436, 2.272283272283272, 0.59375, -0.125, 0.03125, 0.0
496, 0.47496947496947495, -0.8095238095238095, 1.7606837606837606, 0.53125, -0.40625, -0.15625, 0.0
497, -0.2503052503052503, -0.03785103785103785, 1.4236874236874237, 0.40625, -0.65625, -0.3125, 0.0
498, 0.06715506715506715, 1.1953601953601953, 0.6483516483516484, 0.78125, -0.6875, -0.1875, 0.0
499, 0.6361416361416361, -0.46153846153846156, -0.5811965811965812, 1.40625, -0.78125, -0.125, 0.0
500, 0.7619047619047619, -2.192918192918193, -1.4188034188034189, 0.875, -0.96875, -0.5625, 0.0
501, -0.18192918192918192, -0.9255189255189256, -1.1953601953601953, 0.59375, -0.96875, -0.6875, 0.0
502, -0.6227106227106227, 0.07448107448107448, -0.7606837606837606, 0.875, -0.875, -0.53125, 0.0
503, -0.3504273504273504, -0.007326007326007326, -0.536019536019536, 1.25, -1.0, -0.40625, 0.0
504, -0.33455433455433453, -0.9548229548229549, -1.1965811965811965, 1.375, -1.09375, -0.46875, 0.0
505, -0.978021978021978, -1.2515262515262515, -1.8888888888888888, 1.28125, -1.03125, -0.6875, 0.0
506, -1.5225885225885225, -1.1672771672771673, -2.5714285714285716, 1.125, -0.96875, -0.625, 0.0
507, -0.978021978021978, -0.25274725274725274, -2.6984126984126986, 1.0625, -1.09375, -0.375, 0.0
508, -1.2344322344322345, -0.20634920634920634, -3.083028083028083, 1.125, -1.1875, -0.15625, 0.0
509, -1.5018315018315018, -0.14774114774114774, -3.982905982905983, 1.1875, -0.875, 0.09375, 0.0
510, -1.231990231990232, 0.026862026862026864, -4.688644688644689, 1.21875, -0.375, 0.46875, 0.0
511, 1.934065934065934, -0.6043956043956044, -4.985347985347985, 0.9375, -0.28125, 0.625, 0.0
512, 1.7435897435897436, -0.3956043956043956, -4.684981684981685, 0.5625, -0.53125, 0.34375, 0.0
513, 1.221001221001221, -0.06349206349206349, -4.2905982905982905, 0.375, -0.4375, 0.0, 0.0
514, 0.4065934065934066, -0.06837606837606838, -4.175824175824176, 0.1875, -0.21875, -0.21875, 0.0
515, 0.17704517704517705, 0.42124542124542125, -3.2222222222222223, -0.03125, -0.03125, -0.34375, 0.0
516, -0.35653235653235654, 1.0317460317460319, -2.227106227106227, -0.09375, -0.03125, -0.3125, 0.0
517, -0.2954822954822955, 0.7973137973137974, -1.5238095238095237, 0.0, 0.0, -0.375, 0.0
518, -0.1916971916971917, 0.25518925518925517, -1.264957264957265, 0.0625, 0.0, -0.40625, 0.0
519, -0.6019536019536019, 0.32967032967032966, -1.3247863247863247, 0.03125, 0.03125, -0.40625, 1.0
520, 0.398046398046398, 0.8412698412698413, -1.7521367521367521, 0.09375, 0.1875, -0.25, 1.0
521, -0.34676434676434675, 0.45054945054945056, -3.4383394383394386, 0.125, 0.25, 0.03125, 1.0
522, -0.050061050061050064, -0.5067155067155067, -5.146520146520147, -0.21875, 0.5, 0.28125, 1.0
523, 0.6862026862026862, -0.9157509157509157, -6.302808302808303, -0.59375, 0.96875, 0.375, 1.0
524, 1.4981684981684982, -1.1452991452991452, -6.761904761904762, -0.9375, 1.0625, 0.5, 1.0
525, 1.4981684981684982, -1.3724053724053724, -6.8217338217338215, -1.03125, 1.09375, 0.5, 1.0
526, 0.8168498168498168, -3.6837606837606836, -6.777777777777778, -1.28125, 1.28125, 0.28125, 1.0
527, 0.5372405372405372, -3.2002442002442004, -4.660561660561661, -1.59375, 1.375, 0.15625, 1.0
528, 0.7130647130647131, -2.062271062271062, -2.249084249084249, -1.53125, 1.15625, 0.15625, 1.0
529, 0.45787545787545786, -1.503052503052503, -1.2637362637362637, -1.1875, 0.78125, 0.09375, 1.0
530, 0.38461538461538464, -1.7936507936507937, -1.137973137973138, -0.8125, 0.46875, 0.0625, 1.0
531, -1.1001221001221002, -3.664224664224664, -1.6202686202686203, -1.28125, 0.6875, -0.03125, 1.0
532, -0.9719169719169719, -2.9413919413919416, -0.6654456654456654, -1.84375, 1.03125, -0.1875, 1.0
533, -0.0695970695970696, -2.1025641025641026, 0.4835164835164835, -1.9375, 0.8125, -0.28125, 1.0
534, -0.11843711843711843, -0.8400488400488401, 2.2246642246642248, -1.5625, 0.34375, -0.34375, 1.0
535, -2.1953601953601956, -0.717948717948718, 3.258852258852259, -1.3125, 0.375, -0.21875, 1.0
536, -1.6336996336996337, -0.6373626373626373, 4.101343101343101, -1.34375, 0.78125, -0.1875, 1.0
537, -1.2112332112332111, -0.6923076923076923, 4.884004884004884, -1.25, 0.8125, -0.21875, 1.0
538, -0.796092796092796, -0.1452991452991453, 5.537240537240537, -1.15625, 0.5625, -0.28125, 1.0
539, -1.315018315018315, -0.2796092796092796, 5.8901098901098905, -0.96875, 0.125, -0.34375, 1.0
540, -1.8864468864468864, 0.0, 6.125763125763126, -0.8125, -0.0625, -0.28125, 1.0
541, -1.9743589743589745, -0.13675213675213677, 5.384615384615385, -0.53125, -0.125, -0.1875, 1.0
542, -1.3992673992673992, 0.15384615384615385, 4.283272283272283, -0.25, -0.0625, -0.09375, 1.0
543, -0.37484737484737485, -0.4896214896214896, 2.5042735042735043, 0.03125, -0.21875, 0.03125, 1.0
544, -0.3064713064713065, -1.2442002442002442, 1.3235653235653235, 0.125, -0.375, 0.03125, 1.0
545, -0.884004884004884, -0.8131868131868132, 1.2551892551892552, -0.125, -0.1875, -0.03125, 1.0
546, -0.4627594627594628, -0.045177045177045176, 1.7997557997557998, -0.0625, 0.0, 0.0, 1.0
547, -0.3724053724053724, 0.12454212454212454, 1.8412698412698412, 0.1875, -0.0625, 0.0625, 1.0
548, -0.3992673992673993, -0.33821733821733824, 1.3724053724053724, 0.28125, -0.15625, 0.125, 1.0
549, -0.31746031746031744, -0.7826617826617827, 0.5299145299145299, 0.1875, -0.1875, 0.09375, 1.0
550, -0.18315018315018314, -0.46642246642246643, 0.02197802197802198, 0.09375, -0.09375, 0.09375, 1.0
551, -0.16483516483516483, -0.0927960927960928, 0.16361416361416362, 0.09375, -0.03125, 0.09375, 1.0
552, -0.1623931623931624, 0.05372405372405373, 0.4627594627594628, 0.25, 0.0, 0.125, 1.0
553, 0.08913308913308914, -0.06837606837606838, 0.27594627594627597, 0.375, -0.0625, 0.15625, 1.0
554, 0.03540903540903541, -0.4175824175824176, 0.21733821733821734, 0.28125, -0.09375, 0.15625, 1.0
555, -0.2686202686202686, -0.3076923076923077, 0.5677655677655677, 0.125, 0.0, 0.15625, 1.0
556, -0.5006105006105006, -0.23565323565323565, 1.4505494505494505, -0.03125, 0.0625, 0.25, 1.0
557, -1.177045177045177, -0.5457875457875457, 2.5873015873015874, -0.625, 0.40625, 0.53125, 0.0
558, -1.927960927960928, 0.8632478632478633, 5.525030525030525, -0.6875, 0.53125, 0.6875, 0.0
559, -1.3162393162393162, 0.9938949938949939, 6.291819291819292, -0.28125, 0.375, 0.8125, 0.0
560, -1.0463980463980465, 0.36996336996337, 5.825396825396825, 0.3125, 0.03125, 0.90625, 0.0
561, -0.6105006105006106, -0.25274725274725274, 4.587301587301587, 0.84375, -0.3125, 0.96875, 0.0
562, 0.002442002442002442, -1.0158730158730158, 3.553113553113553, 1.15625, -0.5625, 1.0, 0.0
563, 0.013431013431013432, -1.9768009768009769, 2.7374847374847375, 1.09375, -0.75, 0.84375, 0.0
564, 0.20634920634920634, -1.6153846153846154, 2.634920634920635, 0.8125, -0.90625, 0.53125, 0.0
565, -0.3553113553113553, -1.0293040293040292, 2.2112332112332114, 0.71875, -0.96875, 0.28125, 0.0
566, -0.8241758241758241, -0.6715506715506715, 1.73992673992674, 0.875, -0.96875, 0.21875, 0.0
567, -0.42002442002442003, -1.0537240537240538, 0.7521367521367521, 1.09375, -0.875, 0.1875, 0.0
568, -0.2588522588522589, -1.037851037851038, -0.15018315018315018, 1.21875, -0.875, 0.15625, 0.0
569, 0.706959706959707, -0.525030525030525, -1.9401709401709402, 1.71875, -0.84375, 0.21875, 0.0
570, 1.2905982905982907, -1.5665445665445665, -3.305250305250305, 1.71875, -1.09375, 0.09375, 0.0
571, 0.9328449328449329, -2.0415140415140414, -3.531135531135531, 1.40625, -1.28125, -0.1875, 0.0
572, -0.23076923076923078, -1.8144078144078144, -3.427350427350427, 1.03125, -1.28125, -0.40625, 0.0
573, -0.7875457875457875, -0.5347985347985348, -2.7887667887667886, 1.0, -1.25, -0.46875, 0.0
574, -0.6007326007326007, 0.684981684981685, -2.937728937728938, 1.28125, -1.40625, -0.21875, 0.0
575, -0.6202686202686203, 0.21367521367521367, -4.463980463980464, 1.4375, -1.46875, 0.125, 0.0
576, -0.6056166056166056, -0.5103785103785103, -5.904761904761905, 1.21875, -1.1875, 0.40625, 0.0
577, -0.336996336996337, -0.8253968253968254, -6.075702075702075, 0.875, -0.5625, 0.5625, 0.0
578, 0.7216117216117216, -0.6923076923076923, -5.212454212454213, 0.59375, -0.15625, 0.53125, 0.0
579, 1.2087912087912087, -0.37484737484737485, -4.136752136752137, 0.46875, -0.09375, 0.4375, 0.0
580, 0.9230769230769231, -0.06837606837606838, -3.3833943833943834, 0.46875, -0.0625, 0.1875, 0.0
581, 0.2954822954822955, -0.20024420024420025, -2.426129426129426, 0.34375, -0.15625, 0.0, 0.0
582, -0.11965811965811966, -0.018315018315018316, -1.89010989010989, 0.15625, -0.1875, -0.15625, 0.0
583, -0.4554334554334554, 0.2148962148962149, -1.1001221001221002, 0.03125, -0.1875, -0.25, 0.0
584, -0.4139194139194139, 0.3882783882783883, -0.42124542124542125, 0.0625, -0.1875, -0.3125, 0.0
585, -0.11965811965811966, 0.20512820512820512, 0.0757020757020757, 0.21875, -0.28125, -0.40625, 0.0
586, -0.26373626373626374, -0.20757020757020758, -0.3308913308913309, 0.3125, -0.375, -0.5, 0.0
587, -0.1978021978021978, 0.45054945054945056, -0.6910866910866911, 0.34375, -0.25, -0.625, 0.0
588, 0.05616605616605617, 0.6825396825396826, -1.774114774114774, 0.59375, -0.125, -0.46875, 1.0
589, 0.0, 0.14285714285714285, -3.905982905982906, 0.8125, 0.0, -0.25, 1.0
590, 0.10378510378510379, -1.4224664224664225, -6.694749694749695, 0.75, 0.3125, -0.15625, 1.0
591, -0.2893772893772894, -2.1257631257631258, -7.893772893772894, 0.09375, 0.65625, -0.125, 1.0
592, -0.03540903540903541, -1.7094017094017093, -7.316239316239316, -0.8125, 1.0625, 0.0, 1.0
593, 0.6117216117216118, -1.7326007326007327, -7.002442002442002, -0.96875, 1.125, 0.09375, 1.0
594, 0.27228327228327226, -2.034188034188034, -6.926739926739927, -0.96875, 1.1875, 0.125, 1.0
595, 0.22954822954822954, -2.815628815628816, -5.945054945054945, -0.96875, 1.15625, 0.125, 1.0
596, -0.34676434676434675, -4.588522588522588, -5.018315018315018, -1.46875, 1.21875, -0.125, 1.0
597, -0.5323565323565324, -3.705738705738706, -3.1465201465201464, -1.90625, 1.34375, -0.4375, 1.0
598, -0.5860805860805861, -2.264957264957265, -0.8632478632478633, -1.90625, 1.09375, -0.40625, 1.0
599, -0.5421245421245421, -1.967032967032967, 0.7692307692307693, -1.71875, 0.78125, -0.4375, 1.0
600, -0.3907203907203907, -1.1037851037851039, 1.6434676434676434, -1.46875, 0.40625, -0.40625, 1.0
601, -1.2576312576312576, -1.667887667887668, 1.47985347985348, -1.5625, 0.40625, -0.4375, 1.0
602, -1.9291819291819292, -1.122100122100122, 1.9645909645909645, -1.75, 0.6875, -0.34375, 1.0
603, -0.3308913308913309, -0.7081807081807082, 2.7142857142857144, -1.5625, 0.53125, -0.25, 1.0
604, -0.8644688644688645, -0.25396825396825395, 3.791208791208791, -1.3125, 0.34375, -0.25, 1.0
605, -0.8083028083028083, -0.36385836385836384, 4.374847374847374, -1.21875, 0.59375, -0.25, 1.0
606, -0.43345543345543347, -0.358974358974359, 4.682539682539683, -1.21875, 0.71875, -0.28125, 1.0
607, -0.21123321123321123, -0.2844932844932845, 4.766788766788767, -1.125, 0.4375, -0.25, 1.0
608, -0.945054945054945, 0.16117216117216118, 5.792429792429792, -1.125, 0.125, -0.28125, 1.0
609, -1.3992673992673992, 0.5396825396825397, 6.35042735042735, -0.9375, 0.0625, -0.25, 1.0
610, -1.155067155067155, 0.6654456654456654, 6.211233211233211, -0.65625, 0.15625, -0.15625, 1.0
611, -0.8717948717948718, 0.38583638583638585, 4.9010989010989015, -0.21875, 0.0, -0.03125, 1.0
612, -0.5543345543345544, -0.20634920634920634, 3.264957264957265, 0.09375, -0.15625, 0.0, 1.0
613, -0.4822954822954823, -0.5482295482295483, 2.0976800976800978, 0.125, -0.15625, 0.03125, 1.0
614, -0.3992673992673993, -0.5445665445665445, 1.459096459096459, 0.03125, 0.0, -0.03125, 1.0
615, -0.14163614163614163, -0.1452991452991453, 1.3650793650793651, 0.03125, 0.09375, -0.03125, 1.0
616, -0.03540903540903541, -0.008547008547008548, 1.1953601953601953, 0.15625, -0.0625, 0.0, 1.0
617, -0.43345543345543347, 0.07326007326007326, 0.7435897435897436, 0.28125, -0.0625, 0.03125, 1.0
618, -0.2258852258852259, -0.1807081807081807, 0.13553113553113552, 0.3125, 0.0, 0.0625, 1.0
619, 0.05616605616605617, -0.35775335775335776, -0.44078144078144077, 0.28125, 0.0625, 0.03125, 1.0
620, 0.0927960927960928, -0.47496947496947495, -0.7203907203907204, 0.15625, 0.0625, 0.0, 1.0
621, 0.2686202686202686, -0.08180708180708181, -0.4004884004884005, 0.0625, 0.0, 0.0, 1.0
622, -0.045177045177045176, 0.001221001221001221, -0.304029304029304, 0.03125, -0.03125, 0.03125, 1.0
623, -0.14041514041514042, 0.009768009768009768, -0.2905982905982906, 0.03125, 0.0625, 0.09375, 1.0
624, -0.14407814407814407, -0.3528693528693529, -0.3772893772893773, -0.125, 0.25, 0.1875, 1.0
625, 0.19536019536019536, -0.8131868131868132, 0.028083028083028084, -0.53125, 0.34375, 0.3125, 0.0
626, -0.10989010989010989, -0.14041514041514042, 0.4700854700854701, -0.65625, 0.40625, 0.34375, 0.0
627, -0.16361416361416362, 1.1855921855921856, 3.6617826617826617, -0.15625, 0.09375, 0.34375, 0.0
628, -1.0268620268620268, 0.9706959706959707, 4.451770451770452, 0.34375, 0.0625, 0.375, 0.0
629, -1.126984126984127, 0.409035409035409, 4.981684981684982, 0.59375, 0.125, 0.40625, 0.0
630, -0.8229548229548229, 0.2600732600732601, 5.504273504273504, 0.6875, 0.0, 0.4375, 0.0
631, -1.1831501831501832, 0.0, 5.412698412698413, 0.78125, -0.125, 0.40625, 0.0
632, -1.592185592185592, -0.57997557997558, 5.185592185592186, 0.8125, -0.1875, 0.375, 0.0
633, -1.5018315018315018, -1.021978021978022, 4.3528693528693525, 0.71875, 0.0, 0.375, 0.0
634, -0.7814407814407814, -1.1355311355311355, 3.855921855921856, 0.46875, 0.15625, 0.25, 0.0
635, 0.2905982905982906, -0.7081807081807082, 3.6275946275946276, 0.375, 0.0625, 0.1875, 0.0
636, 0.4945054945054945, -0.5384615384615384, 3.148962148962149, 0.40625, -0.25, 0.0, 0.0
637, 0.24175824175824176, -0.5115995115995116, 2.288156288156288, 0.65625, -0.625, -0.125, 0.0
638, -0.0231990231990232, -0.8620268620268621, 0.6410256410256411, 0.90625, -0.90625, -0.125, 0.0
639, -0.2612942612942613, -0.7374847374847375, -0.3772893772893773, 1.25, -1.28125, -0.1875, 0.0
640, -0.9267399267399268, -0.45787545787545786, -1.10989010989011, 1.375, -1.15625, -0.125, 0.0
641, -0.29426129426129427, -0.07448107448107448, -2.7667887667887667, 1.65625, -0.78125, 0.09375, 0.0
642, 1.3443223443223444, -1.1697191697191698, -4.0366300366300365, 1.65625, -0.875, 0.0, 0.0
643, 1.4334554334554335, -1.0231990231990231, -4.406593406593407, 1.4375, -1.25, -0.25, 0.0
644, 0.08180708180708181, -0.6654456654456654, -4.833943833943834, 1.21875, -1.28125, -0.4375, 0.0
645, -0.989010989010989, -0.19047619047619047, -4.434676434676435, 1.09375, -1.09375, -0.40625, 0.0
646, -1.0818070818070817, 0.31013431013431014, -3.800976800976801, 1.15625, -0.875, -0.1875, 0.0
647, -0.7301587301587301, 0.32112332112332115, -3.5115995115995116, 1.28125, -0.84375, -0.03125, 0.0
648, -0.1343101343101343, -0.2222222222222222, -3.554334554334554, 1.28125, -0.96875, 0.03125, 0.0
649, -0.006105006105006105, -0.8925518925518926, -4.1440781440781445, 1.0, -1.0, -0.03125, 0.0
650, -0.03540903540903541, -0.7411477411477412, -4.013431013431013, 0.625, -0.84375, -0.15625, 0.0
651, -0.12454212454212454, -0.19536019536019536, -3.2967032967032965, 0.53125, -0.625, -0.15625, 0.0
652, -0.21367521367521367, -0.09645909645909646, -2.998778998778999, 0.5, -0.4375, -0.09375, 0.0
653, 0.026862026862026864, -0.24664224664224665, -2.7252747252747254, 0.4375, -0.28125, 0.0, 0.0
654, 0.09401709401709402, -0.4603174603174603, -2.4505494505494507, 0.40625, -0.15625, -0.09375, 0.0
655, 0.002442002442002442, -0.14896214896214896, -2.1477411477411477, 0.3125, -0.15625, -0.28125, 0.0
656, -0.2588522588522589, 0.3028083028083028, -2.341880341880342, 0.5, 0.0, -0.46875, 0.0
657, -0.05128205128205128, -0.09645909645909646, -1.7545787545787546, 0.53125, 0.15625, -0.4375, 1.0
658, -0.0927960927960928, -0.0927960927960928, -1.9438339438339438, 0.28125, 0.1875, -0.25, 1.0
659, -0.4188034188034188, 0.05982905982905983, -2.916971916971917, 0.28125, 0.34375, -0.15625, 1.0
660, -0.6251526251526252, -0.6544566544566545, -3.559218559218559, 0.09375, 0.40625, -0.03125, 1.0
661, -0.18192918192918192, -1.15018315018315, -4.43956043956044, -0.125, 0.59375, 0.15625, 1.0
662, 0.336996336996337, -1.8754578754578755, -5.087912087912088, -0.625, 0.96875, 0.25, 1.0
663, 1.1636141636141637, -2.722832722832723, -5.3699633699633695, -0.9375, 0.9375, 0.1875, 1.0
664, 0.7557997557997558, -2.727716727716728, -5.398046398046398, -1.125, 0.90625, 0.0625, 1.0
665, -0.1794871794871795, -3.1367521367521367, -5.230769230769231, -1.375, 1.125, -0.0625, 1.0
666, -0.41147741147741146, -2.7435897435897436, -4.103785103785103, -1.59375, 1.34375, -0.0625, 1.0
667, 0.10012210012210013, -2.2979242979242978, -2.970695970695971, -1.59375, 1.25, -0.09375, 1.0
668, 0.03296703296703297, -2.006105006105006, -2.57997557997558, -1.5625, 1.03125, -0.09375, 1.0
669, -0.19658119658119658, -1.474969474969475, -1.57997557997558, -1.4375, 0.96875, -0.09375, 1.0
670, -0.32844932844932845, -2.064713064713065, -0.9682539682539683, -1.46875, 0.90625, -0.15625, 1.0
671, -0.20024420024420025, -2.0256410256410255, 0.04884004884004884, -1.625, 0.875, -0.34375, 1.0
672, 0.16117216117216118, -1.7240537240537241, 0.5897435897435898, -1.59375, 0.65625, -0.46875, 1.0
673, -0.3663003663003663, -0.8827838827838828, 1.4627594627594627, -1.5, 0.5625, -0.40625, 1.0
674, -1.297924297924298, -0.3443223443223443, 2.9572649572649574, -1.4375, 0.6875, -0.40625, 1.0
675, -1.315018315018315, -0.20757020757020758, 3.7313797313797314, -1.40625, 0.875, -0.46875, 1.0
676, -0.9768009768009768, 0.13675213675213677, 4.51037851037851, -1.40625, 0.8125, -0.46875, 1.0
677, -1.5067155067155067, 0.5409035409035409, 5.61050061050061, -1.40625, 0.5, -0.4375, 1.0
678, -1.667887667887668, 0.905982905982906, 5.717948717948718, -1.15625, 0.1875, -0.34375, 1.0
679, -1.9792429792429793, 0.5347985347985348, 5.528693528693529, -0.84375, 0.125, -0.21875, 1.0
680, -1.2148962148962148, 0.3968253968253968, 5.151404151404152, -0.65625, 0.1875, -0.125, 1.0
681, -0.42246642246642246, -0.14407814407814407, 4.321123321123321, -0.40625, 0.0, -0.0625, 1.0
682, -0.9035409035409036, -0.3235653235653236, 3.3089133089133087, -0.3125, -0.21875, -0.03125, 1.0
683, -0.8229548229548229, -0.41514041514041516, 2.5921855921855923, -0.21875, -0.15625, 0.0, 1.0
684, 0.01098901098901099, -0.32234432234432236, 1.7594627594627594, -0.125, 0.0, 0.0, 1.0
685, 0.25518925518925517, -0.5970695970695971, 0.9133089133089133, 0.0, -0.21875, 0.03125, 1.0
686, -0.4554334554334554, -0.4945054945054945, 0.6544566544566545, -0.03125, -0.0625, 0.0, 1.0
687, -0.452991452991453, -0.19658119658119658, 1.0744810744810744, -0.03125, 0.125, 0.0, 1.0
688, -0.040293040293040296, -0.050061050061050064, 1.442002442002442, 0.0, 0.0, 0.03125, 1.0
689, -0.02442002442002442, -0.001221001221001221, 1.2185592185592184, 0.125, -0.21875, 0.0625, 1.0
690, -0.22954822954822954, -0.20634920634920634, 0.5470085470085471, 0.28125, -0.25, 0.09375, 1.0
691, -0.6874236874236874, -0.4603174603174603, -0.03663003663003663, 0.25, 0.0, 0.09375, 1.0
692, -0.16605616605616605, -0.3614163614163614, 0.115995115995116, 0.15625, 0.15625, 0.09375, 1.0
693, 0.09401709401709402, -0.3333333333333333, 0.231990231990232, 0.03125, 0.0625, 0.09375, 1.0
694, -0.10500610500610501, -0.19536019536019536, 0.6446886446886447, -0.03125, 0.0, 0.125, 1.0
695, -0.7716727716727717, -0.03907203907203907, 1.0573870573870574, -0.125, 0.09375, 0.21875, 1.0
696, -1.0354090354090355, -0.06105006105006105, 1.380952380952381, -0.125, 0.3125, 0.375, 0.0
697, -0.37484737484737485, -0.2588522588522589, 2.6727716727716726, -0.25, 0.5625, 0.53125, 0.0
698, -0.12087912087912088, 0.0, 3.6910866910866913, -0.3125, 0.28125, 0.53125, 0.0
699, -0.9841269841269841, 0.3431013431013431, 4.452991452991453, -0.0625, 0.03125, 0.5, 0.0
700, -1.1978021978021978, 0.07326007326007326, 4.455433455433456, 0.34375, -0.0625, 0.5, 0.0
701, -0.9010989010989011, -0.6141636141636142, 3.659340659340659, 0.75, -0.0625, 0.53125, 0.0
702, -0.2954822954822955, -1.4297924297924298, 2.89010989010989, 0.8125, -0.09375, 0.5, 0.0
703, -0.2844932844932845, -1.4664224664224663, 2.705738705738706, 0.5625, -0.21875, 0.3125, 0.0
704, -0.34676434676434675, -0.9499389499389499, 3.144078144078144, 0.3125, -0.28125, 0.15625, 0.0
705, -0.004884004884004884, -0.3504273504273504, 3.043956043956044, 0.4375, -0.34375, 0.125, 0.0
706, 0.6007326007326007, 0.042735042735042736, 1.982905982905983, 1.0, -0.5, 0.21875, 0.0
707, 1.393162393162393, -0.4945054945054945, 0.05372405372405373, 1.71875, -0.71875, 0.28125, 0.0
708, 0.8974358974358975, -2.1514041514041513, -1.5592185592185592, 1.90625, -0.9375, -0.03125, 0.0
709, -0.6800976800976801, -2.2393162393162394, -1.540903540903541, 0.96875, -0.78125, -0.375, 0.0
710, -0.9536019536019537, -0.25274725274725274, -0.8986568986568987, 0.8125, -0.65625, -0.28125, 0.0
711, -0.5567765567765568, 0.4053724053724054, -0.6910866910866911, 1.21875, -0.8125, -0.15625, 0.0
712, -0.2905982905982906, 0.398046398046398, -1.4908424908424909, 1.625, -1.09375, -0.03125, 0.0
713, -0.6422466422466423, -1.1978021978021978, -2.531135531135531, 1.5, -1.1875, -0.0625, 0.0
714, -0.9242979242979243, -1.144078144078144, -3.3284493284493286, 1.1875, -0.9375, -0.09375, 0.0
715, 0.03663003663003663, -0.7753357753357754, -3.474969474969475, 1.09375, -0.84375, 0.0, 0.0
716, 0.34676434676434675, -0.5470085470085471, -3.3894993894993894, 1.09375, -0.875, 0.0, 0.0
717, 0.21733821733821734, -0.3894993894993895, -2.9328449328449326, 1.15625, -0.90625, -0.0625, 0.0
718, -0.01098901098901099, -0.43345543345543347, -2.548229548229548, 1.125, -1.0, -0.09375, 0.0
719, -0.6202686202686203, -0.15995115995115994, -2.3211233211233213, 1.0625, -0.875, 0.0, 0.0
720, -0.21611721611721613, -0.20512820512820512, -2.3516483516483517, 1.0625, -0.65625, 0.125, 0.0
721, 0.9572649572649573, -1.061050061050061, -3.0085470085470085, 0.96875, -0.75, 0.03125, 0.0
722, 0.4468864468864469, -1.1257631257631258, -3.365079365079365, 0.625, -0.8125, -0.25, 0.0
723, -0.5286935286935287, -0.2857142857142857, -3.0, 0.28125, -0.6875, -0.4375, 0.0
724, -1.0293040293040292, 0.21855921855921856, -2.432234432234432, 0.15625, -0.375, -0.3125, 0.0
725, -1.0073260073260073, 0.3968253968253968, -1.7802197802197801, 0.09375, -0.125, -0.03125, 0.0
726, -0.3772893772893773, 0.10012210012210013, -1.459096459096459, 0.15625, 0.0, 0.125, 0.0
727, 0.1391941391941392, -0.3052503052503053, -1.4114774114774116, 0.1875, -0.03125, 0.0, 0.0
728, 0.17826617826617827, -0.10378510378510379, -1.7155067155067154, 0.28125, -0.125, -0.21875, 0.0
729, 0.08424908424908426, -0.49572649572649574, -2.3785103785103785, 0.46875, -0.125, -0.46875, 1.0
730, 0.19291819291819293, -0.5054945054945055, -3.1343101343101343, 0.4375, 0.0, -0.5, 1.0
731, -0.09035409035409035, -0.7680097680097681, -4.119658119658119, 0.28125, 0.0625, -0.25, 1.0
732, -0.1343101343101343, -1.6312576312576312, -5.16971916971917, 0.0, 0.4375, -0.15625, 1.0
733, -0.006105006105006105, -2.318681318681319, -6.041514041514041, -0.40625, 0.71875, -0.09375, 1.0
734, 0.009768009768009768, -2.7301587301587302, -6.085470085470085, -0.90625, 0.90625, 0.0, 1.0
735, 0.14163614163614163, -2.6776556776556775, -5.351648351648351, -1.21875, 0.96875, 0.0, 1.0
736, -0.06715506715506715, -2.5067155067155067, -4.727716727716728, -1.34375, 0.96875, 0.03125, 1.0
737, -0.3711843711843712, -2.2905982905982905, -4.2063492063492065, -1.34375, 1.0625, 0.0625, 1.0
738, -0.6507936507936508, -2.6910866910866913, -3.744810744810745, -1.53125, 1.25, -0.03125, 1.0
739, -0.8986568986568987, -2.341880341880342, -2.5103785103785103, -1.78125, 1.4375, -0.09375, 1.0
740, -0.2600732600732601, -1.7264957264957266, -0.6776556776556777, -1.96875, 1.21875, -0.09375, 1.0
741, -0.10256410256410256, -1.2564102564102564, 0.5396825396825397, -1.9375, 0.84375, -0.15625, 1.0
742, -0.27472527472527475, -0.8754578754578755, 0.7692307692307693, -1.71875, 0.625, -0.1875, 1.0
743, -0.851037851037851, -1.0293040293040292, 1.4090354090354091, -1.53125, 0.78125, -0.3125, 1.0
744, 0.030525030525030524, -0.8705738705738706, 1.9230769230769231, -1.46875, 0.90625, -0.40625, 1.0
745, 0.5592185592185592, -0.47741147741147744, 1.8766788766788767, -1.4375, 0.5625, -0.34375, 1.0
746, -0.6227106227106227, -0.47496947496947495, 2.2857142857142856, -1.40625, 0.25, -0.40625, 1.0
747, -1.586080586080586, 0.06227106227106227, 3.3455433455433456, -1.40625, 0.3125, -0.375, 1.0
748, -1.6556776556776556, 0.6678876678876678, 4.592185592185592, -1.40625, 0.6875, -0.375, 1.0
749, -0.7728937728937729, 0.21001221001221002, 4.667887667887668, -1.15625, 0.625, -0.21875, 1.0
750, -1.3687423687423688, 0.3089133089133089, 5.203907203907204, -1.09375, 0.40625, -0.21875, 1.0
751, -1.2759462759462759, 0.7582417582417582, 5.434676434676435, -1.0, 0.25, -0.1875, 1.0
752, -1.3785103785103785, 0.590964590964591, 5.22954822954823, -0.78125, 0.03125, -0.09375, 1.0
753, -1.326007326007326, 0.6593406593406593, 4.576312576312576, -0.5625, -0.125, 0.0, 1.0
754, -1.010989010989011, 0.38217338217338215, 3.3626373626373627, -0.28125, -0.09375, 0.03125, 1.0
755, -0.6971916971916972, -0.26495726495726496, 2.238095238095238, -0.0625, 0.03125, 0.09375, 1.0
756, -0.14285714285714285, -0.4017094017094017, 1.4908424908424909, -0.125, 0.0625, 0.0625, 1.0
757, 0.11965811965811966, -0.1623931623931624, 1.216117216117216, -0.09375, -0.03125, 0.03125, 1.0
758, -0.5445665445665445, 0.10378510378510379, 1.0341880341880343, 0.0, 0.03125, 0.0625, 1.0
759, -0.5873015873015873, 0.115995115995116, 1.0537240537240538, 0.0625, 0.15625, 0.09375, 1.0
760, -0.10378510378510379, -0.03663003663003663, 1.05006105006105, 0.125, 0.03125, 0.09375, 1.0
761, 0.019536019536019536, -0.2503052503052503, 0.6275946275946276, 0.125, -0.15625, 0.09375, 1.0
762, -0.3162393162393162, -0.3235653235653236, 0.2967032967032967, 0.0625, -0.21875, 0.0625, 1.0
763, -0.5824175824175825, -0.028083028083028084, 0.3162393162393162, 0.15625, -0.09375, 0.09375, 1.0
764, -0.34798534798534797, -0.05372405372405373, 0.11233211233211234, 0.28125, 0.0, 0.15625, 1.0
765, -0.13186813186813187, -0.43101343101343104, -0.05982905982905983, 0.21875, 0.09375, 0.1875, 1.0
766, -0.10622710622710622, -0.3540903540903541, 0.34065934065934067, 0.0, 0.09375, 0.1875, 1.0
767, -0.06105006105006105, 0.5946275946275946, 1.0842490842490842, 0.03125, 0.0625, 0.28125, 1.0
768, 0.09035409035409035, 0.019536019536019536, 1.0134310134310134, 0.3125, 0.0, 0.34375, 1.0
769, 0.07936507936507936, -0.31013431013431014, 0.873015873015873, 0.4375, -0.15625, 0.46875, 1.0
770, -0.47374847374847373, -0.9194139194139194, 0.8485958485958486, 0.28125, -0.09375, 0.53125, 0.0
771, -0.6117216117216118, -0.7252747252747253, 1.8473748473748475, -0.0625, 0.21875, 0.5625, 0.0
772, -1.380952380952381, 0.15995115995115994, 3.1684981684981683, -0.34375, 0.5, 0.5625, 0.0
773, -1.4945054945054945, 0.4444444444444444, 4.643467643467644, -0.25, 0.5625, 0.46875, 0.0
774, -1.575091575091575, 0.6141636141636142, 5.556776556776557, -0.0625, 0.34375, 0.5625, 0.0
775, -1.5433455433455434, 0.463980463980464, 5.141636141636142, 0.3125, 0.0, 0.625, 0.0
776, -1.0854700854700854, -0.4163614163614164, 3.94993894993895, 0.65625, -0.125, 0.6875, 0.0
777, -0.07936507936507936, -1.1111111111111112, 2.7264957264957266, 0.84375, -0.25, 0.625, 0.0
778, 0.42124542124542125, -1.4493284493284493, 2.2954822954822953, 0.625, -0.65625, 0.25, 0.0
779, -0.6166056166056166, -1.0842490842490842, 2.4505494505494507, 0.46875, -0.8125, 0.0625, 0.0
780, -0.7924297924297924, 0.03907203907203907, 1.8827838827838828, 0.9375, -0.59375, 0.25, 0.0
781, 0.42857142857142855, -0.8192918192918193, 0.11233211233211234, 1.4375, -0.53125, 0.34375, 0.0
782, 1.5909645909645909, -2.4957264957264957, -0.9218559218559218, 1.25, -0.8125, 0.0, 0.0
783, 0.6886446886446886, -2.156288156288156, -1.0586080586080586, 0.875, -1.03125, -0.3125, 0.0
784, -0.3882783882783883, -0.5494505494505495, -1.0, 0.96875, -0.9375, -0.28125, 0.0
785, -0.19658119658119658, 0.2039072039072039, -1.6544566544566544, 1.46875, -0.8125, -0.0625, 0.0
786, 0.6800976800976801, -0.9499389499389499, -2.3174603174603177, 1.59375, -1.0625, -0.0625, 0.0
787, 0.6935286935286935, -1.4163614163614164, -2.9047619047619047, 1.34375, -1.40625, -0.375, 0.0
788, -0.8241758241758241, -0.8974358974358975, -3.1538461538461537, 1.03125, -1.28125, -0.5, 0.0
789, -1.3113553113553114, 0.18192918192918192, -2.7496947496947497, 1.09375, -0.9375, -0.375, 0.0
790, 0.002442002442002442, -0.45787545787545786, -2.572649572649573, 1.4375, -0.90625, -0.125, 0.0
791, 0.1111111111111111, -0.9401709401709402, -2.7985347985347984, 1.40625, -1.1875, -0.15625, 0.0
792, -0.6202686202686203, -0.9145299145299145, -3.1086691086691087, 1.21875, -1.25, -0.34375, 0.0
793, -0.894993894993895, -0.16483516483516483, -2.8107448107448105, 1.0625, -0.96875, -0.4375, 0.0
794, -0.5677655677655677, 0.040293040293040296, -2.73992673992674, 1.125, -0.65625, -0.34375, 0.0
795, 0.03907203907203907, -0.4346764346764347, -2.873015873015873, 1.125, -0.65625, -0.15625, 0.0
796, -0.008547008547008548, -0.5006105006105006, -3.0476190476190474, 0.90625, -0.8125, -0.03125, 0.0
797, -0.4126984126984127, -0.3968253968253968, -3.2686202686202686, 0.625, -0.78125, -0.09375, 0.0
798, -0.746031746031746, 0.06593406593406594, -3.1025641025641026, 0.46875, -0.4375, -0.15625, 0.0
799, -1.0537240537240538, 0.38583638583638585, -3.2625152625152625, 0.46875, -0.03125, -0.15625, 0.0
800, -0.39316239316239315, -0.4896214896214896, -3.0317460317460316, 0.46875, 0.28125, -0.09375, 0.0
801, -0.1575091575091575, -0.7912087912087912, -2.822954822954823, 0.1875, 0.25, 0.09375, 0.0
802, -0.24053724053724054, -0.6910866910866911, -2.884004884004884, -0.09375, 0.34375, -0.03125, 0.0
803, 0.10500610500610501, -0.5067155067155067, -2.8864468864468864, 0.0, 0.4375, -0.25, 0.0
804, 1.0, -0.78998778998779, -3.5238095238095237, 0.0625, 0.25, -0.28125, 1.0
805, 1.3235653235653235, -1.656898656898657, -4.65934065934066, -0.125, 0.09375, -0.28125, 1.0
806, 0.3125763125763126, -2.2503052503052503, -6.007326007326007, -0.5, 0.40625, -0.1875, 1.0
807, 0.34554334554334554, -2.94993894993895, -6.5054945054945055, -0.875, 0.875, -0.1875, 1.0
808, 1.0024420024420024, -2.976800976800977, -5.865689865689865, -1.1875, 1.09375, -0.1875, 1.0
809, 1.170940170940171, -3.326007326007326, -5.286935286935287, -1.40625, 1.0625, -0.15625, 1.0
810, 0.6666666666666666, -3.3150183150183152, -4.775335775335775, -1.6875, 1.03125, -0.1875, 1.0
811, -0.17094017094017094, -3.0354090354090353, -3.871794871794872, -1.96875, 1.15625, -0.25, 1.0
812, -0.43345543345543347, -2.376068376068376, -2.0964590964590966, -2.0625, 1.28125, -0.25, 1.0
813, -0.03418803418803419, -1.5128205128205128, -0.5665445665445665, -1.84375, 0.9375, -0.34375, 1.0
814, -0.8315018315018315, -0.8717948717948718, 1.4285714285714286, -1.8125, 0.6875, -0.375, 1.0
815, -0.9584859584859585, -0.3028083028083028, 1.9902319902319903, -1.75, 0.65625, -0.34375, 1.0
816, -0.9963369963369964, -0.20757020757020758, 2.948717948717949, -1.625, 0.75, -0.375, 1.0
817, -0.15506715506715507, -0.25396825396825395, 3.2844932844932844, -1.46875, 0.625, -0.40625, 1.0
818, -0.5103785103785103, -0.04151404151404151, 3.9255189255189253, -1.40625, 0.34375, -0.59375, 1.0
819, -1.4456654456654456, 0.3614163614163614, 4.418803418803419, -1.3125, 0.1875, -0.65625, 1.0
820, -2.2356532356532357, 0.2979242979242979, 4.605616605616605, -1.1875, 0.15625, -0.28125, 1.0
821, -0.7997557997557998, 0.10500610500610501, 4.282051282051282, -1.0, 0.21875, -0.0625, 1.0
822, -0.6654456654456654, -0.042735042735042736, 4.438339438339439, -0.8125, 0.125, -0.0625, 1.0
823, -1.115995115995116, 0.2600732600732601, 4.888888888888889, -0.78125, 0.15625, -0.15625, 1.0
824, -1.1672771672771673, 0.1978021978021978, 4.913308913308914, -0.65625, 0.21875, -0.15625, 1.0
825, -0.873015873015873, 0.34065934065934067, 4.614163614163614, -0.4375, 0.03125, 0.0, 1.0
826, -0.5409035409035409, 0.38095238095238093, 4.073260073260073, -0.125, -0.25, 0.0, 1.0
827, -0.5946275946275946, -0.02442002442002442, 2.877899877899878, 0.03125, -0.34375, 0.0625, 1.0
828, -0.5763125763125763, -0.514041514041514, 1.7203907203907205, 0.03125, -0.15625, 0.03125, 1.0
829, -0.6471306471306472, -0.3907203907203907, 1.3650793650793651, -0.0625, 0.15625, 0.0, 1.0
830, -0.001221001221001221, -0.11843711843711843, 1.2271062271062272, 0.0, 0.15625, 0.03125, 1.0
831, 0.33577533577533575, -0.013431013431013432, 1.380952380952381, 0.125, -0.0625, 0.0625, 1.0
832, 0.1452991452991453, -0.05372405372405373, 0.7741147741147741, 0.28125, -0.25, 0.09375, 1.0
833, -0.2979242979242979, -0.38461538461538464, -0.13797313797313798, 0.28125, -0.125, 0.09375, 1.0
834, -0.31013431013431014, -0.5641025641025641, -0.6959706959706959, 0.1875, 0.125, 0.0625, 1.0
835, 0.199023199023199, -0.42857142857142855, -0.6825396825396826, 0.0625, 0.21875, 0.09375, 1.0
836, 0.3956043956043956, -0.29426129426129427, -0.4236874236874237, 0.0625, 0.125, 0.0625, 1.0
837, -0.015873015873015872, 0.030525030525030524, -0.09035409035409035, 0.125, 0.0, 0.0625, 1.0
838, -0.13186813186813187, -0.04395604395604396, 0.003663003663003663, 0.125, 0.0625, 0.0625, 1.0
839, -0.23931623931623933, -0.02442002442002442, 0.1794871794871795, 0.0625, 0.15625, 0.09375, 1.0
840, -0.04395604395604396, -0.41147741147741146, 0.6910866910866911, -0.0625, 0.3125, 0.15625, 1.0
841, -0.3663003663003663, -0.41514041514041516, 1.4151404151404152, -0.46875, 0.34375, 0.3125, 0.0
842, -1.1623931623931625, 0.2588522588522589, 2.531135531135531, -0.78125, 0.46875, 0.4375, 0.0
843, -1.2087912087912087, 0.684981684981685, 4.023199023199023, -0.6875, 0.5625, 0.46875, 0.0
844, -1.5274725274725274, 0.7252747252747253, 5.029304029304029, -0.34375, 0.5, 0.53125, 0.0
845, -1.2197802197802199, 0.042735042735042736, 5.2686202686202686, 0.0, 0.28125, 0.5625, 0.0
846, -1.1526251526251525, -0.8852258852258852, 5.105006105006105, 0.125, -0.0625, 0.53125, 0.0
847, -1.4566544566544566, -1.1001221001221002, 5.1208791208791204, 0.03125, -0.34375, 0.34375, 0.0
848, -1.9291819291819292, -0.43833943833943834, 4.9072039072039075, 0.125, -0.4375, 0.25, 0.0
849, -1.4993894993894994, -0.2087912087912088, 4.667887667887668, 0.5, -0.4375, 0.40625, 0.0
850, -1.0354090354090355, 0.05372405372405373, 3.826617826617827, 1.0625, -0.4375, 0.5625, 0.0
851, -0.11721611721611722, -0.33821733821733824, 2.0891330891330893, 1.59375, -0.5, 0.59375, 0.0
852, 0.46886446886446886, -1.6898656898656899, 0.03540903540903541, 1.625, -0.59375, 0.4375, 0.0
853, 0.9072039072039072, -2.293040293040293, -1.061050061050061, 1.28125, -0.71875, 0.21875, 0.0
854, 0.6092796092796092, -1.4761904761904763, -0.9328449328449329, 1.0625, -0.78125, 0.03125, 0.0
855, 0.514041514041514, -0.4810744810744811, -0.8107448107448108, 1.25, -0.9375, -0.03125, 0.0
856, 0.5763125763125763, -0.8888888888888888, -1.4542124542124542, 1.46875, -1.21875, -0.125, 0.0
857, 0.452991452991453, -1.8571428571428572, -2.95970695970696, 1.3125, -1.40625, -0.34375, 0.0
858, 0.32112332112332115, -2.385836385836386, -3.641025641025641, 0.84375, -1.4375, -0.625, 0.0
859, 0.42002442002442003, -1.271062271062271, -3.2356532356532357, 0.6875, -1.375, -0.78125, 0.0
860, -0.873015873015873, 0.02564102564102564, -3.1758241758241756, 1.21875, -1.21875, -0.59375, 0.0
861, -0.7106227106227107, -0.4078144078144078, -3.542124542124542, 1.59375, -1.09375, -0.40625, 0.0
862, -1.2039072039072038, -0.8388278388278388, -4.172161172161172, 1.5625, -1.0625, -0.25, 0.0
863, -1.0818070818070817, -0.7350427350427351, -4.286935286935287, 1.28125, -0.8125, -0.125, 0.0
864, -0.2564102564102564, -0.37362637362637363, -3.9462759462759465, 1.09375, -0.625, 0.0, 0.0
865, 0.37606837606837606, -0.39316239316239315, -3.6495726495726495, 0.9375, -0.59375, 0.0625, 0.0
866, 0.49206349206349204, -0.6764346764346765, -3.5714285714285716, 0.78125, -0.5625, 0.0, 0.0
867, 0.2490842490842491, -0.7606837606837606, -3.496947496947497, 0.53125, -0.46875, -0.0625, 0.0
868, 0.06593406593406594, -0.6776556776556777, -3.1452991452991452, 0.25, -0.28125, -0.15625, 0.0
869, 0.17094017094017094, -0.30036630036630035, -2.5506715506715505, 0.0, -0.125, -0.21875, 0.0
870, -0.2490842490842491, 0.1807081807081807, -2.1807081807081805, -0.125, -0.0625, -0.1875, 0.0
871, -0.7875457875457875, 0.3235653235653236, -2.1746031746031744, 0.15625, 0.09375, -0.4375, 0.0
872, -0.800976800976801, -0.001221001221001221, -2.4065934065934065, 0.15625, 0.15625, -0.5625, 0.0
873, -0.8070818070818071, 0.2893772893772894, -2.0537240537240535, 0.09375, 0.21875, -0.4375, 1.0
874, -0.5604395604395604, 0.7423687423687424, -2.2222222222222223, 0.21875, 0.25, -0.0625, 1.0
875, -0.7216117216117216, -0.0757020757020757, -3.7496947496947497, 0.28125, 0.5, 0.125, 1.0
876, -0.09645909645909646, -1.800976800976801, -5.545787545787546, -0.0625, 0.8125, 0.1875, 1.0
877, 0.2893772893772894, -2.8473748473748475, -6.653235653235654, -0.78125, 1.03125, 0.125, 1.0
878, 0.36996336996337, -2.8107448107448105, -6.38949938949939, -1.28125, 1.0625, 0.125, 1.0
879, -0.2026862026862027, -2.3736263736263736, -5.682539682539683, -1.46875, 1.125, 0.1875, 1.0
880, -0.7887667887667887, -1.9951159951159951, -4.725274725274725, -1.4375, 1.21875, 0.28125, 1.0
881, -0.8705738705738706, -1.9584859584859584, -3.6764346764346763, -1.28125, 1.3125, 0.3125, 1.0
882, -0.2857142857142857, -1.3125763125763126, -2.5555555555555554, -1.15625, 1.25, 0.3125, 1.0
883, 0.25518925518925517, -2.490842490842491, -1.534798534798535, -1.5, 0.84375, 0.03125, 1.0
884, -0.37484737484737485, -2.3272283272283274, -0.2893772893772894, -1.84375, 0.90625, -0.09375, 1.0
885, 0.02442002442002442, -1.2466422466422467, 1.0879120879120878, -1.96875, 1.15625, -0.1875, 1.0
886, 0.568986568986569, -0.7838827838827839, 2.311355311355311, -1.84375, 0.96875, -0.1875, 1.0
887, -0.0757020757020757, -0.5665445665445665, 2.885225885225885, -1.625, 0.59375, -0.28125, 1.0
888, -1.0048840048840049, -0.5042735042735043, 3.4395604395604398, -1.5, 0.5, -0.3125, 1.0
889, -1.3003663003663004, 0.0, 4.556776556776557, -1.5625, 0.625, -0.3125, 1.0
890, -1.2478632478632479, 0.5164835164835165, 5.648351648351649, -1.46875, 0.6875, -0.3125, 1.0
891, -0.7826617826617827, 0.5543345543345544, 5.573870573870574, -1.125, 0.46875, -0.25, 1.0
892, -0.49206349206349204, 0.6263736263736264, 5.017094017094017, -0.78125, 0.125, -0.21875, 1.0
893, -1.2673992673992673, -0.047619047619047616, 4.695970695970696, -0.53125, -0.03125, -0.1875, 1.0
894, -1.242979242979243, -0.047619047619047616, 4.456654456654457, -0.53125, 0.0, -0.1875, 1.0
895, -1.1318681318681318, 0.3528693528693529, 4.440781440781441, -0.375, 0.09375, -0.125, 1.0
896, -0.6227106227106227, 0.5152625152625152, 3.9694749694749696, -0.09375, -0.0625, -0.0625, 1.0
897, -0.7289377289377289, 0.15018315018315018, 3.3455433455433456, 0.0625, -0.1875, -0.03125, 1.0
898, -0.7374847374847375, -0.336996336996337, 2.4481074481074483, 0.0625, -0.1875, -0.0625, 1.0
899, -0.8302808302808303, -0.39438339438339437, 1.6275946275946276, 0.0, -0.09375, 0.0, 1.0
900, -0.4139194139194139, -0.14041514041514042, 0.9755799755799756, 0.0625, -0.125, 0.0, 1.0
901, -0.026862026862026864, -0.17338217338217338, 0.3308913308913309, 0.1875, -0.21875, 0.0625, 1.0
902, -0.030525030525030524, -0.2515262515262515, 0.008547008547008548, 0.25, -0.21875, 0.125, 1.0
903, -0.14774114774114774, -0.5299145299145299, -0.4993894993894994, 0.125, -0.0625, 0.09375, 1.0
904, 0.008547008547008548, -0.2564102564102564, -0.5885225885225885, 0.0625, 0.03125, 0.125, 1.0
905, 0.2893772893772894, -0.315018315018315, -0.6764346764346765, 0.0, 0.0, 0.09375, 1.0
906, 0.10500610500610501, 0.10744810744810745, -0.4236874236874237, 0.0625, -0.03125, 0.09375, 1.0
907, -0.0927960927960928, -0.029304029304029304, -0.1575091575091575, 0.09375, 0.0, 0.125, 1.0
908, -0.07448107448107448, -0.07448107448107448, -0.014652014652014652, 0.09375, 0.0625, 0.15625, 1.0
909, -0.09768009768009768, -0.1282051282051282, 0.35653235653235654, 0.0, 0.125, 0.15625, 1.0
910, -0.05982905982905983, -0.1807081807081807, 0.945054945054945, -0.125, 0.09375, 0.1875, 1.0
911, -0.6288156288156288, -0.15506715506715507, 1.540903540903541, -0.40625, 0.0, 0.28125, 1.0
912, -1.3137973137973138, -0.08791208791208792, 2.2161172161172162, -0.65625, 0.21875, 0.40625, 0.0
913, -2.2051282051282053, 0.7606837606837606, 3.2686202686202686, -0.78125, 0.46875, 0.5625, 0.0
914, -1.4774114774114775, 0.7264957264957265, 4.31013431013431, -0.65625, 0.5, 0.59375, 0.0
915, -1.0341880341880343, 0.4261294261294261, 4.747252747252747, -0.28125, 0.375, 0.53125, 0.0
916, -0.7509157509157509, 0.12942612942612944, 4.545787545787546, 0.0625, 0.125, 0.59375, 0.0
917, -0.34676434676434675, -0.36385836385836384, 3.984126984126984, 0.40625, -0.0625, 0.625, 0.0
918, -0.28083028083028083, -0.7472527472527473, 3.21978021978022, 0.5625, -0.25, 0.5625, 0.0
919, -0.052503052503052504, -0.7973137973137974, 2.63003663003663, 0.59375, -0.28125, 0.46875, 0.0
920, 0.08424908424908426, -1.054945054945055, 2.4615384615384617, 0.5, -0.4375, 0.375, 0.0
921, -0.3028083028083028, -0.8437118437118437, 2.686202686202686, 0.5625, -0.5625, 0.25, 0.0
922, -0.6532356532356532, -0.39316239316239315, 2.6849816849816848, 0.71875, -0.625, 0.3125, 0.0
923, -0.9560439560439561, -0.37362637362637363, 2.5225885225885225, 0.96875, -0.6875, 0.34375, 0.0
924, -0.6605616605616605, -0.612942612942613, 1.7118437118437118, 1.28125, -0.78125, 0.4375, 0.0
925, -0.3833943833943834, -0.8278388278388278, 0.7728937728937729, 1.5, -0.875, 0.53125, 0.0
926, 0.18925518925518925, -1.3748473748473748, -0.5494505494505495, 1.6875, -0.875, 0.5625, 0.0
927, 1.4822954822954824, -1.9853479853479854, -1.6153846153846154, 1.75, -1.21875, 0.4375, 0.0
928, 0.8766788766788767, -2.827838827838828, -2.474969474969475, 1.5, -1.375, 0.0, 0.0
929, 0.03540903540903541, -1.873015873015873, -2.1941391941391943, 1.34375, -1.34375, -0.09375, 0.0
930, -0.33943833943833945, -1.192918192918193, -2.0549450549450547, 1.8125, -1.125, 0.09375, 0.0
931, 1.2014652014652014, -2.4542124542124544, -3.0805860805860807, 2.0, -1.34375, 0.0, 0.0
932, 1.1538461538461537, -2.3956043956043955, -4.065934065934066, 1.65625, -1.8125, -0.40625, 0.0
933, -0.09157509157509157, -1.0268620268620268, -4.562881562881563, 1.28125, -1.96875, -0.78125, 0.0
934, -0.7203907203907204, 0.002442002442002442, -4.609279609279609, 1.125, -1.59375, -0.65625, 0.0
935, -0.9316239316239316, 0.575091575091575, -4.452991452991453, 1.09375, -1.09375, -0.15625, 0.0
936, 0.15506715506715507, 0.15262515262515264, -4.456654456654457, 1.125, -0.5625, 0.125, 0.0
937, 1.2283272283272284, -0.31013431013431014, -4.162393162393163, 0.9375, -0.375, 0.09375, 0.0
938, 1.2454212454212454, -0.37484737484737485, -3.772893772893773, 0.625, -0.375, -0.09375, 0.0
939, 0.8742368742368742, -0.16971916971916973, -3.47985347985348, 0.40625, -0.28125, -0.34375, 0.0
940, 0.3601953601953602, 0.054945054945054944, -3.288156288156288, 0.21875, -0.21875, -0.46875, 0.0
941, -1.2454212454212454, 0.33821733821733824, -3.26007326007326, -0.03125, -0.0625, -0.4375, 0.0
942, -1.1123321123321124, 0.38217338217338215, -2.363858363858364, 0.0625, 0.15625, -0.46875, 0.0
943, -1.407814407814408, 0.32112332112332115, -1.8107448107448108, 0.1875, 0.40625, -0.40625, 0.0
944, -1.1196581196581197, 0.33577533577533575, -1.242979242979243, 0.28125, 0.53125, -0.40625, 1.0
945, -0.6971916971916972, 0.17582417582417584, -0.9694749694749695, 0.25, 0.375, -0.15625, 1.0
946, -1.1318681318681318, -0.12942612942612944, -1.641025641025641, 0.375, 0.46875, -0.03125, 1.0
947, -0.2796092796092796, -0.9047619047619048, -2.5445665445665444, 0.25, 0.6875, -0.03125, 1.0
948, 0.2503052503052503, -1.606837606837607, -3.641025641025641, -0.0625, 0.75, 0.0, 1.0
949, 0.13186813186813187, -2.0134310134310134, -4.886446886446887, -0.46875, 0.75, 0.125, 1.0
950, -0.12087912087912088, -2.3382173382173383, -5.8669108669108665, -0.6875, 0.96875, 0.3125, 1.0
951, 0.5860805860805861, -2.3675213675213675, -6.03052503052503, -0.6875, 1.0625, 0.375, 1.0
952, 0.5103785103785103, -3.1758241758241756, -5.301587301587301, -0.90625, 1.0625, 0.1875, 1.0
953, -0.38461538461538464, -2.619047619047619, -3.346764346764347, -1.65625, 1.15625, -0.1875, 1.0
954, -0.5921855921855922, -1.0842490842490842, -1.9816849816849818, -1.71875, 1.21875, -0.15625, 1.0
955, 0.6178266178266179, -1.5164835164835164, -1.7057387057387057, -1.4375, 1.1875, -0.09375, 1.0
956, 1.459096459096459, -2.0720390720390722, -1.4945054945054945, -1.3125, 0.84375, -0.09375, 1.0
957, 0.6361416361416361, -2.8632478632478633, -0.905982905982906, -1.5625, 0.71875, -0.40625, 1.0
958, 0.4444444444444444, -1.3956043956043955, 0.8693528693528694, -1.9375, 0.96875, -0.65625, 1.0
959, 0.35653235653235654, -1.1941391941391941, 2.288156288156288, -1.875, 0.84375, -0.65625, 1.0
960, -0.2588522588522589, 0.05616605616605617, 3.2673992673992673, -1.75, 0.59375, -0.78125, 1.0
961, -1.4871794871794872, 0.2039072039072039, 4.384615384615385, -1.5, 0.53125, -0.78125, 1.0
962, -2.26007326007326, 0.73992673992674, 5.452991452991453, -1.4375, 0.59375, -0.75, 1.0
963, -2.4761904761904763, 1.3052503052503053, 6.034188034188034, -1.25, 0.59375, -0.65625, 1.0
964, -2.6043956043956045, 1.4004884004884004, 6.365079365079365, -0.84375, 0.5, -0.5, 1.0
965, -2.318681318681319, 1.6398046398046398, 6.669108669108669, -0.5625, 0.1875, -0.34375, 1.0
966, -1.8803418803418803, 1.3675213675213675, 6.054945054945055, -0.28125, -0.0625, -0.25, 1.0
967, -1.5738705738705738, 0.7435897435897436, 4.997557997557998, -0.15625, -0.15625, -0.1875, 1.0
968, -1.170940170940171, 0.4884004884004884, 3.6483516483516483, -0.0625, -0.1875, -0.125, 1.0
969, -1.0427350427350428, -0.0463980463980464, 2.3943833943833943, -0.0625, -0.0625, -0.0625, 1.0
970, -0.47619047619047616, -0.09523809523809523, 1.6556776556776556, -0.0625, 0.0, -0.0625, 1.0
971, -0.23565323565323565, 0.007326007326007326, 1.1941391941391941, 0.0, -0.0625, -0.0625, 1.0
972, -0.25274725274725274, 0.07448107448107448, 0.6336996336996337, 0.0625, -0.09375, 0.0, 1.0
973, -0.14285714285714285, -0.13675213675213677, 0.2258852258852259, 0.0625, -0.09375, 0.0, 1.0
974, -0.3772893772893773, -0.2686202686202686, 0.11721611721611722, 0.0, 0.0, 0.03125, 1.0
975, -0.0989010989010989, -0.02564102564102564, 0.1623931623931624, 0.0, 0.03125, 0.03125, 1.0
976, 0.05372405372405373, 0.02442002442002442, -0.09401709401709402, 0.09375, -0.0625, 0.125, 1.0
977, 0.08180708180708181, -0.2857142857142857, -0.23321123321123322, 0.0625, -0.09375, 0.15625, 1.0
978, 0.14041514041514042, -0.43833943833943834, -0.43345543345543347, 0.0625, -0.0625, 0.125, 1.0
979, 0.08913308913308914, -0.4188034188034188, -0.38583638583638585, 0.0, 0.03125, 0.15625, 1.0
980, 0.5335775335775336, -0.3028083028083028, -0.047619047619047616, 0.0, 0.0625, 0.125, 1.0
981, 0.21855921855921856, -0.3321123321123321, 0.16727716727716727, 0.0, 0.0625, 0.125, 1.0
982, 0.015873015873015872, -0.15506715506715507, 0.7094017094017094, -0.125, 0.125, 0.125, 1.0
983, -0.47985347985347987, -0.14285714285714285, 1.4444444444444444, -0.28125, 0.1875, 0.15625, 1.0
984, -1.144078144078144, 0.013431013431013432, 2.3028083028083026, -0.53125, 0.40625, 0.28125, 0.0
985, -1.435897435897436, 0.3137973137973138, 3.6312576312576312, -0.8125, 0.5625, 0.4375, 0.0
986, -0.9963369963369964, 0.37606837606837606, 5.108669108669108, -0.78125, 0.5625, 0.5625, 0.0
987, -1.5885225885225884, 1.181929181929182, 5.6642246642246645, -0.5625, 0.34375, 0.65625, 0.0
988, -1.2234432234432235, 0.8327228327228328, 5.586080586080586, 0.125, 0.0, 0.78125, 0.0
989, -0.8547008547008547, 0.2844932844932845, 5.106227106227106, 0.46875, -0.21875, 0.84375, 0.0
990, -0.25274725274725274, -0.57997557997558, 4.937728937728938, 0.53125, -0.5625, 0.75, 0.0
991, -1.122100122100122, -0.6813186813186813, 4.461538461538462, 0.625, -0.65625, 0.59375, 0.0
992, -1.3052503052503053, -0.4810744810744811, 3.907203907203907, 0.84375, -0.5625, 0.59375, 0.0
993, -1.3455433455433456, -0.5982905982905983, 3.15018315018315, 1.1875, -0.4375, 0.6875, 0.0
994, 0.06471306471306472, -0.663003663003663, 1.4224664224664225, 1.6875, -0.53125, 0.8125, 0.0
995, 1.3601953601953602, -2.7045177045177047, -0.6324786324786325, 1.59375, -0.84375, 0.5625, 0.0
996, 1.032967032967033, -2.989010989010989, -2.0427350427350426, 1.1875, -0.875, 0.21875, 0.0
997, 0.1916971916971917, -1.5787545787545787, -1.7960927960927962, 1.0625, -0.71875, 0.15625, 0.0
998, -0.3894993894993895, -0.5470085470085471, -1.1013431013431014, 1.3125, -0.59375, 0.25, 0.0
999, 0.6361416361416361, -0.5421245421245421, -0.8058608058608059, 1.59375, -1.1875, 0.15625, 0.0
1000, -0.045177045177045176, -1.691086691086691, -2.6263736263736264, 1.4375, -1.5625, -0.09375, 0.0
1001, -0.7912087912087912, -1.0793650793650793, -3.7216117216117217, 1.34375, -1.53125, -0.21875, 0.0
1002, -0.25396825396825395, -0.8473748473748474, -4.495726495726496, 1.375, -1.3125, -0.1875, 0.0
1003, 0.5421245421245421, -1.0622710622710623, -5.028083028083028, 1.34375, -1.28125, -0.1875, 0.0
1004, 0.24297924297924298, -0.7118437118437119, -5.128205128205129, 1.1875, -1.375, -0.28125, 0.0
1005, -0.4627594627594628, -0.4297924297924298, -4.95970695970696, 1.0625, -1.09375, -0.25, 0.0
1006, -0.12698412698412698, -0.8131868131868132, -4.858363858363858, 1.03125, -0.53125, -0.15625, 0.0
1007, 1.017094017094017, -1.2454212454212454, -4.584859584859585, 0.8125, -0.21875, -0.0625, 0.0
1008, 1.065934065934066, -1.0183150183150182, -3.9218559218559217, 0.4375, -0.40625, -0.125, 0.0
1009, 0.30158730158730157, -0.28815628815628813, -3.221001221001221, 0.09375, -0.46875, -0.21875, 0.0
1010, -0.10622710622710622, -0.21855921855921856, -2.2979242979242978, 0.125, -0.28125, -0.34375, 0.0
1011, 0.115995115995116, -0.24175824175824176, -1.7057387057387057, 0.375, -0.0625, -0.53125, 0.0
1012, -0.1111111111111111, -0.3052503052503053, -1.9682539682539681, 0.5625, -0.0625, -0.8125, 0.0
1013, 0.5177045177045178, -0.21123321123321123, -2.6373626373626373, 0.5625, -0.1875, -0.84375, 1.0
1014, -0.6971916971916972, -0.41514041514041516, -3.7875457875457874, 0.28125, -0.21875, -0.4375, 1.0
1015, -0.8998778998778999, -0.9242979242979243, -5.6129426129426125, 0.03125, 0.375, -0.1875, 1.0
1016, 0.09401709401709402, -2.21001221001221, -7.553113553113553, -0.34375, 0.90625, -0.1875, 1.0
1017, -0.014652014652014652, -3.3443223443223444, -8.307692307692308, -1.03125, 1.15625, -0.0625, 1.0
1018, -0.09035409035409035, -3.3516483516483517, -7.492063492063492, -1.4375, 1.34375, 0.0625, 1.0
1019, -0.030525030525030524, -3.064713064713065, -6.592185592185592, -1.375, 1.40625, 0.15625, 1.0
1020, -0.23931623931623933, -4.388278388278389, -5.556776556776557, -1.5625, 1.46875, 0.03125, 1.0
1021, 0.1343101343101343, -3.7814407814407813, -3.8742368742368742, -1.875, 1.40625, -0.125, 1.0
1022, -0.21367521367521367, -2.744810744810745, -2.0586080586080584, -2.03125, 1.25, -0.34375, 1.0
1023, -0.37362637362637363, -1.431013431013431, 0.6959706959706959, -1.71875, 1.34375, -0.34375, 1.0
1024, -0.1746031746031746, -1.6642246642246643, 2.015873015873016, -1.625, 1.375, -0.375, 1.0
1025, -0.5115995115995116, -1.0805860805860805, 3.0732600732600734, -1.78125, 1.25, -0.53125, 1.0
1026, -0.3968253968253968, 0.38583638583638585, 4.145299145299146, -1.875, 1.15625, -0.6875, 1.0
1027, -0.5677655677655677, 0.03785103785103785, 4.412698412698413, -1.5, 0.8125, -0.75, 1.0
1028, -1.0915750915750915, 0.6385836385836385, 4.763125763125763, -1.3125, 0.5, -0.84375, 1.0
1029, -1.9902319902319903, 0.5970695970695971, 4.914529914529915, -1.125, 0.3125, -0.75, 1.0
1030, -1.7264957264957266, 0.29181929181929184, 4.245421245421245, -0.9375, 0.3125, -0.59375, 1.0
1031, -1.4725274725274726, -0.06471306471306472, 4.216117216117216, -0.84375, 0.375, -0.5, 1.0
1032, -1.9023199023199022, 0.2954822954822955, 5.00976800976801, -0.90625, 0.3125, -0.5, 1.0
1033, -1.6886446886446886, 0.5811965811965812, 5.052503052503052, -0.75, 0.15625, -0.40625, 1.0
1034, -1.7912087912087913, 0.4358974358974359, 4.732600732600733, -0.3125, -0.0625, -0.1875, 1.0
1035, -1.8412698412698412, -0.0463980463980464, 4.037851037851038, -0.25, -0.03125, -0.09375, 1.0
1036, -1.6202686202686203, -0.29181929181929184, 3.2857142857142856, -0.28125, 0.0, -0.03125, 1.0
1037, -1.1306471306471306, -0.05616605616605617, 2.7484737484737485, -0.15625, -0.09375, 0.0, 1.0
1038, -0.9072039072039072, -0.15018315018315018, 2.1416361416361416, 0.0, -0.21875, 0.09375, 1.0
1039, -0.7887667887667887, -0.1684981684981685, 1.3382173382173381, 0.21875, -0.09375, 0.21875, 1.0
1040, -0.3333333333333333, -0.6581196581196581, 0.5335775335775336, 0.25, 0.0625, 0.25, 1.0
1041, 0.25274725274725274, -1.0012210012210012, 0.1452991452991453, 0.0625, 0.0625, 0.1875, 1.0
1042, 0.38217338217338215, -0.6678876678876678, 0.07814407814407814, -0.03125, -0.03125, 0.125, 1.0
1043, 0.4065934065934066, -0.2039072039072039, -0.028083028083028084, 0.125, -0.15625, 0.125, 1.0
1044, 0.06105006105006105, -0.32112332112332115, -0.4468864468864469, 0.25, -0.0625, 0.125, 1.0
1045, -0.17094017094017094, -0.47374847374847373, -0.48473748473748474, 0.21875, 0.125, 0.125, 1.0
1046, -0.0695970695970696, -0.23076923076923078, 0.5286935286935287, 0.0, 0.15625, 0.09375, 1.0
1047, -0.7191697191697192, -0.04395604395604396, 1.4884004884004884, -0.03125, 0.0625, 0.09375, 1.0
1048, -1.4639804639804639, -0.057387057387057384, 2.2844932844932844, -0.09375, 0.125, 0.15625, 1.0
1049, -1.702075702075702, -0.4835164835164835, 3.357753357753358, -0.34375, 0.3125, 0.34375, 1.0
1050, -2.0378510378510377, -0.31746031746031744, 4.271062271062271, -0.71875, 0.40625, 0.5625, 0.0
1051, -2.2612942612942613, 0.7643467643467643, 5.396825396825397, -0.6875, 0.375, 0.78125, 0.0
1052, -1.5543345543345544, 0.5409035409035409, 5.416361416361417, -0.3125, 0.125, 0.875, 0.0
1053, -0.5457875457875457, -0.015873015873015872, 4.78021978021978, 0.375, -0.15625, 0.9375, 0.0
1054, 0.08547008547008547, -0.8070818070818071, 3.7997557997557996, 0.875, -0.5625, 0.90625, 0.0
1055, -0.44932844932844934, -1.4700854700854702, 3.0781440781440783, 0.96875, -0.90625, 0.6875, 0.0
1056, -1.8424908424908424, -1.1037851037851039, 2.95970695970696, 0.65625, -0.84375, 0.46875, 0.0
1057, -1.534798534798535, 0.3894993894993895, 3.087912087912088, 0.78125, -0.53125, 0.59375, 0.0
1058, 0.5006105006105006, -0.3125763125763126, 2.2967032967032965, 1.1875, -0.65625, 0.625, 0.0
1059, 0.9877899877899878, -1.5335775335775337, 1.2954822954822955, 1.03125, -1.09375, 0.3125, 0.0
1060, -0.017094017094017096, -1.5262515262515262, 0.3247863247863248, 0.875, -1.09375, 0.03125, 0.0
1061, -0.14285714285714285, -0.6190476190476191, -0.5494505494505495, 1.03125, -0.9375, 0.0, 0.0
1062, 0.23443223443223443, -0.3247863247863248, -0.7606837606837606, 1.28125, -1.03125, 0.125, 0.0
1063, 0.7313797313797313, -0.536019536019536, -1.2466422466422467, 1.5625, -1.28125, 0.15625, 0.0
1064, 0.6153846153846154, -1.2234432234432235, -2.061050061050061, 1.625, -1.4375, 0.09375, 0.0
1065, 0.30036630036630035, -1.8473748473748475, -3.0805860805860807, 1.4375, -1.34375, 0.0, 0.0
1066, 0.6727716727716728, -0.9072039072039072, -2.786324786324786, 1.40625, -1.46875, 0.0, 0.0
1067, 0.5958485958485958, -0.3528693528693529, -2.5946275946275947, 1.5625, -1.75, 0.09375, 0.0
1068, 0.02564102564102564, -0.7985347985347986, -3.0915750915750917, 1.59375, -1.78125, 0.09375, 0.0
1069, -0.8351648351648352, -1.1758241758241759, -4.528693528693529, 1.40625, -1.1875, 0.125, 0.0
1070, 0.8376068376068376, -1.3772893772893773, -5.454212454212454, 1.28125, -1.03125, 0.09375, 0.0
1071, 0.5506715506715507, -1.3663003663003663, -5.877899877899878, 0.90625, -1.0625, -0.09375, 0.0
1072, -0.5213675213675214, -1.0097680097680097, -5.735042735042735, 0.53125, -0.84375, -0.1875, 0.0
1073, -0.6422466422466423, -0.7155067155067155, -5.08058608058608, 0.25, -0.34375, -0.15625, 0.0
1074, -0.38461538461538464, -0.673992673992674, -4.141636141636142, 0.09375, 0.0, -0.125, 0.0
1075, -0.01221001221001221, -0.4627594627594628, -3.231990231990232, 0.125, 0.09375, -0.3125, 0.0
1076, -0.37606837606837606, -0.1575091575091575, -2.402930402930403, 0.125, 0.15625, -0.46875, 0.0
1077, -0.4517704517704518, -0.003663003663003663, -2.065934065934066, 0.28125, 0.21875, -0.59375, 1.0
1078, -0.21733821733821734, -0.41025641025641024, -2.2173382173382175, 0.28125, 0.25, -0.625, 1.0
1079, 0.2796092796092796, -0.4700854700854701, -3.1404151404151404, 0.1875, 0.21875, -0.5, 1.0
1080, -0.08547008547008547, -1.9401709401709402, -4.881562881562882, 0.0625, 0.3125, -0.46875, 1.0
1081, -0.0989010989010989, -2.126984126984127, -5.857142857142857, -0.53125, 0.6875, -0.3125, 1.0
1082, -0.26495726495726496, -2.4761904761904763, -6.394383394383395, -0.84375, 1.0, -0.125, 1.0
1083, -0.39194139194139194, -2.8644688644688645, -6.212454212454213, -1.0625, 1.3125, 0.0, 1.0
1084, -0.11355311355311355, -3.802197802197802, -5.859584859584859, -1.34375, 1.4375, -0.0625, 1.0
1085, -0.1746031746031746, -3.1123321123321124, -4.1611721611721615, -1.59375, 1.46875, -0.15625, 1.0
1086, -0.18925518925518925, -2.1001221001221, -2.536019536019536, -1.53125, 1.375, -0.25, 1.0
1087, -0.4652014652014652, -1.525030525030525, -1.2857142857142858, -1.375, 1.21875, -0.25, 1.0
1088, -0.6385836385836385, -1.2380952380952381, -0.14041514041514042, -1.34375, 1.15625, -0.25, 1.0
1089, -0.2893772893772894, -1.5531135531135531, 0.7338217338217338, -1.4375, 0.96875, -0.34375, 1.0
1090, 0.19047619047619047, -1.1684981684981686, 0.9474969474969475, -1.46875, 0.71875, -0.46875, 1.0
1091, -0.6874236874236874, -0.5897435897435898, 1.9584859584859584, -1.53125, 0.75, -0.5625, 1.0
1092, -1.1746031746031746, 0.36996336996337, 2.9816849816849818, -1.1875, 0.84375, -0.5, 1.0
1093, -0.6007326007326007, 0.10378510378510379, 2.727716727716728, -1.0, 0.59375, -0.46875, 1.0
1094, -1.485958485958486, 0.1916971916971917, 3.045177045177045, -1.1875, 0.5, -0.5, 1.0
1095, -1.1111111111111112, 0.6703296703296703, 3.313797313797314, -1.25, 0.4375, -0.4375, 1.0
1096, -1.673992673992674, 1.2686202686202686, 3.6544566544566544, -1.15625, 0.40625, -0.40625, 1.0
1097, -1.989010989010989, 1.0195360195360195, 4.046398046398046, -0.84375, 0.5, -0.3125, 1.0
1098, -2.0073260073260073, 1.0268620268620268, 4.4664224664224665, -0.75, 0.71875, -0.3125, 1.0
1099, -1.249084249084249, 0.6373626373626373, 4.361416361416361, -0.625, 0.71875, -0.21875, 1.0
1100, -0.28205128205128205, 0.05372405372405373, 3.4725274725274726, -0.53125, 0.46875, -0.15625, 1.0
1101, -0.4810744810744811, -0.07326007326007326, 3.2698412698412698, -0.5625, -0.03125, 0.0, 1.0
1102, -1.1257631257631258, -0.026862026862026864, 2.827838827838828, -0.5, -0.125, 0.0, 1.0
1103, -0.8278388278388278, 0.01221001221001221, 2.2124542124542126, -0.34375, 0.0625, 0.09375, 1.0
1104, -0.3492063492063492, -0.02197802197802198, 1.6996336996336996, -0.09375, 0.21875, 0.15625, 1.0
1105, 0.030525030525030524, -0.3882783882783883, 1.2173382173382172, -0.09375, 0.03125, 0.125, 1.0
1106, -0.1916971916971917, -0.34065934065934067, 0.8595848595848596, -0.15625, -0.09375, 0.125, 1.0
1107, -0.26373626373626374, -0.21123321123321123, 0.800976800976801, -0.15625, -0.15625, 0.125, 1.0
1108, -0.4004884004884005, -0.08424908424908426, 0.6251526251526252, 0.0, -0.15625, 0.1875, 1.0
1109, -0.4432234432234432, -0.08547008547008547, 0.2612942612942613, 0.125, -0.03125, 0.21875, 1.0
1110, -0.2869352869352869, -0.4004884004884005, 0.047619047619047616, 0.125, 0.09375, 0.1875, 1.0
1111, 0.07936507936507936, -0.663003663003663, -0.040293040293040296, -0.03125, 0.125, 0.15625, 1.0
1112, 0.2258852258852259, -0.398046398046398, 0.2588522588522589, -0.09375, 0.0, 0.125, 1.0
1113, -0.12576312576312576, -0.2698412698412698, 0.5702075702075702, -0.125, -0.15625, 0.125, 1.0
1114, -0.9755799755799756, -0.10866910866910867, 1.0256410256410255, -0.15625, 0.0, 0.1875, 1.0
1115, -1.3907203907203907, -0.5921855921855922, 1.5054945054945055, -0.34375, 0.34375, 0.40625, 0.0
1116, -1.0964590964590966, -0.02442002442002442, 3.934065934065934, -0.78125, 0.5, 0.53125, 0.0
1117, -0.9108669108669109, 0.21367521367521367, 5.101343101343101, -0.5625, 0.1875, 0.46875, 0.0
1118, -1.7106227106227105, 0.231990231990232, 5.401709401709402, -0.15625, -0.15625, 0.46875, 0.0
1119, -1.8461538461538463, -0.23809523809523808, 5.126984126984127, 0.21875, -0.34375, 0.5, 0.0
1120, -1.5042735042735043, -0.9560439560439561, 4.686202686202686, 0.5625, -0.375, 0.5, 0.0
1121, -0.9401709401709402, -1.3162393162393162, 4.012210012210012, 0.75, -0.40625, 0.40625, 0.0
1122, -0.5665445665445665, -1.216117216117216, 3.567765567765568, 0.8125, -0.40625, 0.21875, 0.0
1123, -0.16971916971916973, -0.41147741147741146, 3.5616605616605614, 0.84375, -0.5, 0.125, 0.0
1124, 0.14163614163614163, -0.6288156288156288, 3.2356532356532357, 1.1875, -0.71875, 0.125, 0.0
1125, 0.8681318681318682, -0.007326007326007326, 1.5970695970695972, 1.53125, -0.96875, 0.21875, 0.0
1126, 1.7277167277167278, -1.4188034188034189, -0.6910866910866911, 2.09375, -1.03125, 0.21875, 0.0
1127, 2.1416361416361416, -2.8131868131868134, -2.41025641025641, 1.59375, -1.21875, -0.40625, 0.0
1128, 0.8363858363858364, -2.0537240537240535, -2.374847374847375, 1.0, -1.3125, -0.75, 0.0
1129, -0.10134310134310134, -0.11843711843711843, -1.8571428571428572, 1.03125, -1.25, -0.59375, 0.0
1130, -0.25518925518925517, 0.36996336996337, -2.0, 1.5, -1.125, -0.34375, 0.0
1131, 0.34554334554334554, -0.3992673992673993, -2.283272283272283, 1.6875, -1.1875, -0.3125, 0.0
1132, 0.10989010989010989, -1.6324786324786325, -3.2673992673992673, 1.40625, -1.3125, -0.5625, 0.0
1133, -0.3785103785103785, -0.7326007326007326, -4.006105006105006, 1.15625, -1.15625, -0.53125, 0.0
1134, -0.3162393162393162, -0.07448107448107448, -4.373626373626373, 1.1875, -0.90625, -0.15625, 0.0
1135, 0.12698412698412698, -0.4542124542124542, -4.42979242979243, 1.15625, -0.78125, 0.03125, 0.0
1136, 0.6776556776556777, -0.8693528693528694, -4.039072039072039, 1.03125, -0.875, 0.0, 0.0
1137, 0.3724053724053724, -0.7741147741147741, -3.636141636141636, 0.78125, -1.0625, -0.125, 0.0
1138, -0.6043956043956044, -0.15384615384615385, -3.021978021978022, 0.71875, -0.90625, -0.09375, 0.0
1139, -1.0207570207570207, -0.12454212454212454, -1.8424908424908424, 0.71875, -0.53125, 0.21875, 0.0
1140, -0.7472527472527473, -0.39316239316239315, -1.5763125763125763, 0.71875, -0.4375, 0.34375, 0.0
1141, -0.6764346764346765, -0.7301587301587301, -1.424908424908425, 0.59375, -0.34375, 0.25, 0.0
1142, -0.3882783882783883, -0.5347985347985348, -1.297924297924298, 0.46875, -0.28125, 0.0625, 0.0
1143, -0.28205128205128205, -0.19047619047619047, -1.4188034188034189, 0.46875, -0.1875, -0.03125, 0.0
1144, -0.3333333333333333, -0.050061050061050064, -1.5115995115995116, 0.59375, 0.0, -0.03125, 0.0
1145, -0.06227106227106227, -0.5018315018315018, -1.7216117216117217, 0.8125, 0.09375, -0.0625, 0.0
1146, -0.7631257631257631, -0.6007326007326007, -3.380952380952381, 0.8125, 0.1875, -0.25, 0.0
1147, -1.3894993894993894, -0.5811965811965812, -4.931623931623932, 0.84375, 0.4375, -0.3125, 1.0
1148, -1.3504273504273505, -1.1404151404151404, -5.968253968253968, 0.5625, 0.71875, 0.0625, 1.0
1149, 0.44078144078144077, -2.376068376068376, -6.807081807081807, 0.1875, 1.03125, 0.25, 1.0
1150, 0.7985347985347986, -3.614163614163614, -7.252747252747253, -0.3125, 1.09375, 0.0625, 1.0
1151, 0.49572649572649574, -3.057387057387057, -6.667887667887668, -1.125, 1.3125, 0.0625, 1.0
1152, 0.31746031746031744, -3.2905982905982905, -5.84004884004884, -1.46875, 1.53125, 0.1875, 1.0
1153, 0.9560439560439561, -2.93040293040293, -4.5396825396825395, -1.6875, 1.5, 0.15625, 1.0
1154, 1.822954822954823, -2.6984126984126986, -3.1184371184371185, -1.875, 1.0625, 0.0, 1.0
1155, 1.4163614163614164, -3.2051282051282053, -2.3956043956043955, -2.21875, 0.71875, -0.28125, 1.0
1156, 0.4065934065934066, -1.7533577533577533, -0.9462759462759462, -2.25, 0.78125, -0.46875, 1.0
1157, 0.13553113553113552, -0.9255189255189256, 0.45054945054945056, -2.0, 0.90625, -0.46875, 1.0
1158, 0.040293040293040296, -0.7606837606837606, 1.4285714285714286, -1.90625, 0.84375, -0.28125, 1.0
1159, 0.3882783882783883, -1.3101343101343101, 1.746031746031746, -1.9375, 0.625, -0.34375, 1.0
1160, 0.004884004884004884, -0.4444444444444444, 2.4993894993894994, -1.90625, 0.53125, -0.40625, 1.0
1161, -0.4590964590964591, 0.028083028083028084, 3.061050061050061, -1.78125, 0.5625, -0.40625, 1.0
1162, -0.2893772893772894, -0.0757020757020757, 3.4017094017094016, -1.5625, 0.46875, -0.46875, 1.0
1163, -0.9242979242979243, 0.05128205128205128, 4.032967032967033, -1.59375, 0.375, -0.4375, 1.0
1164, -1.1941391941391941, -0.008547008547008548, 4.253968253968254, -1.4375, 0.40625, -0.375, 1.0
1165, -0.7435897435897436, 0.019536019536019536, 3.978021978021978, -1.28125, 0.53125, -0.375, 1.0
1166, -0.6239316239316239, -0.06227106227106227, 4.278388278388278, -1.125, 0.46875, -0.40625, 1.0
1167, -0.7973137973137974, 0.019536019536019536, 3.9694749694749696, -0.9375, 0.28125, -0.46875, 1.0
1168, -1.1062271062271063, -0.36507936507936506, 3.468864468864469, -0.71875, 0.1875, -0.375, 1.0
1169, -1.4786324786324787, -0.3516483516483517, 3.474969474969475, -0.625, 0.25, -0.3125, 1.0
1170, -1.2832722832722834, -0.18681318681318682, 3.1746031746031744, -0.5625, 0.34375, -0.3125, 1.0
1171, -1.2466422466422467, -0.08424908424908426, 2.7472527472527473, -0.40625, 0.28125, -0.25, 1.0
1172, -1.2393162393162394, -0.06105006105006105, 2.456654456654457, -0.21875, 0.15625, -0.15625, 1.0
1173, -1.3833943833943834, -0.14652014652014653, 2.2222222222222223, -0.0625, 0.0625, -0.09375, 1.0
1174, -1.1807081807081807, -0.31868131868131866, 1.763125763125763, 0.03125, 0.0625, -0.03125, 1.0
1175, -0.8302808302808303, -0.5213675213675214, 1.0305250305250304, 0.09375, 0.09375, 0.0, 1.0
1176, -0.5445665445665445, -0.47741147741147744, 0.7350427350427351, 0.125, 0.0625, 0.0, 1.0
1177, -0.22832722832722832, -0.27228327228327226, 0.409035409035409, 0.21875, 0.0, 0.0, 1.0
1178, -0.22954822954822954, -0.3089133089133089, 0.0757020757020757, 0.25, -0.09375, 0.0, 1.0
1179, -0.6483516483516484, -0.4249084249084249, -0.3431013431013431, 0.1875, 0.0, 0.03125, 1.0
1180, -0.4908424908424908, -0.4908424908424908, -0.5543345543345544, 0.09375, 0.15625, 0.03125, 1.0
1181, -0.10012210012210013, -0.1855921855921856, -0.25274725274725274, 0.09375, 0.1875, 0.0625, 1.0
1182, 0.020757020757020756, -0.2612942612942613, 0.03296703296703297, 0.03125, 0.125, 0.09375, 1.0
1183, -0.44932844932844934, -0.4456654456654457, 0.39194139194139194, -0.125, 0.21875, 0.15625, 1.0
1184, -0.9829059829059829, -0.5641025641025641, 1.2503052503052503, -0.4375, 0.40625, 0.3125, 0.0
1185, -1.5628815628815629, -0.47863247863247865, 2.3443223443223444, -0.75, 0.5625, 0.59375, 0.0
1186, -1.8547008547008548, 0.6996336996336996, 4.344322344322344, -0.59375, 0.375, 0.75, 0.0
1187, -1.7118437118437118, 0.5323565323565324, 4.482295482295482, -0.125, 0.1875, 0.78125, 0.0
1188, -0.9426129426129426, -0.1562881562881563, 4.371184371184371, 0.25, 0.0, 0.90625, 0.0
1189, -0.8901098901098901, -0.6813186813186813, 4.42979242979243, 0.4375, -0.34375, 0.84375, 0.0
1190, -1.42002442002442, -0.8034188034188035, 4.501831501831502, 0.4375, -0.53125, 0.75, 0.0
1191, -0.8754578754578755, -0.27350427350427353, 4.1501831501831505, 0.59375, -0.4375, 0.84375, 0.0
1192, 0.5653235653235653, -0.873015873015873, 3.474969474969475, 0.9375, -0.40625, 0.9375, 0.0
1193, 1.336996336996337, -1.242979242979243, 2.5946275946275947, 1.25, -0.71875, 0.875, 0.0
1194, 0.8351648351648352, -2.1758241758241756, 2.227106227106227, 1.25, -1.0, 0.59375, 0.0
1195, -0.63003663003663, -1.7582417582417582, 1.945054945054945, 0.96875, -1.125, 0.21875, 0.0
1196, -0.5885225885225885, -1.0769230769230769, 1.6532356532356531, 1.03125, -0.96875, 0.0625, 0.0
1197, -0.20512820512820512, -1.028083028083028, 1.4395604395604396, 1.40625, -1.34375, 0.03125, 0.0
1198, -0.7973137973137974, -0.8217338217338217, 0.5299145299145299, 1.71875, -1.5625, 0.0625, 0.0
1199, -0.9877899877899878, -0.6422466422466423, -2.203907203907204, 2.09375, -1.25, 0.28125, 0.0
1200, -0.01098901098901099, -1.6727716727716728, -4.435897435897436, 2.15625, -1.0, 0.375, 0.0
1201, 1.0427350427350428, -2.1086691086691087, -5.0818070818070815, 1.71875, -1.1875, 0.21875, 0.0
1202, 0.7448107448107448, -1.347985347985348, -4.775335775335775, 1.46875, -1.3125, 0.125, 0.0
1203, -0.13064713064713065, -0.9914529914529915, -4.137973137973138, 1.46875, -1.3125, 0.03125, 0.0
1204, -0.7704517704517705, -0.7423687423687424, -3.6495726495726495, 1.53125, -1.03125, 0.15625, 0.0
1205, 1.2747252747252746, -1.1636141636141637, -4.304029304029304, 1.625, -0.84375, 0.1875, 0.0
1206, 2.9365079365079363, -2.562881562881563, -5.329670329670329, 1.21875, -1.1875, -0.125, 0.0
1207, 2.15995115995116, -1.1721611721611722, -5.499389499389499, 0.84375, -1.375, -0.46875, 0.0
1208, 0.6971916971916972, -0.5506715506715507, -5.581196581196581, 0.5625, -1.25, -0.5625, 0.0
1209, -0.6593406593406593, 0.19413919413919414, -3.2185592185592187, 0.15625, -0.71875, -0.4375, 0.0
1210, -0.23321123321123322, 0.6043956043956044, -1.8412698412698412, 0.0625, -0.5625, -0.40625, 0.0
1211, -0.3894993894993895, 0.9975579975579976, -0.8229548229548229, 0.125, -0.59375, -0.34375, 0.0
1212, -0.4603174603174603, 1.321123321123321, 0.04884004884004884, 0.34375, -0.8125, -0.28125, 0.0
1213, -0.8815628815628815, 0.9645909645909646, 0.10622710622710622, 0.71875, -0.96875, -0.15625, 0.0
1214, -1.4664224664224663, -0.23443223443223443, -1.0024420024420024, 1.125, -0.875, -0.1875, 0.0
1215, -1.3601953601953602, -0.9169719169719169, -2.2283272283272284, 1.03125, -0.375, -0.4375, 0.0
1216, -0.9352869352869353, -1.2967032967032968, -3.586080586080586, 0.5625, 0.0, -0.25, 1.0
1217, -0.851037851037851, -0.07448107448107448, -4.544566544566544, 0.21875, 0.21875, -0.0625, 1.0
1218, -0.28327228327228327, -0.9365079365079365, -5.652014652014652, 0.34375, 0.3125, 0.25, 1.0
1219, -0.23443223443223443, -2.416361416361416, -7.028083028083028, 0.1875, 0.625, 0.5625, 1.0
1220, 0.5238095238095238, -3.3076923076923075, -7.043956043956044, -0.21875, 1.03125, 0.59375, 1.0
1221, 1.2222222222222223, -3.8046398046398044, -6.698412698412699, -0.53125, 0.875, 0.53125, 1.0
1222, 0.9413919413919414, -4.564102564102564, -6.275946275946276, -1.0, 0.78125, 0.28125, 1.0
1223, -0.15995115995115994, -4.7032967032967035, -5.417582417582418, -1.65625, 1.125, 0.03125, 1.0
1224, -0.2967032967032967, -3.4224664224664223, -3.843711843711844, -1.90625, 1.46875, 0.0, 1.0
1225, 0.3992673992673993, -3.0732600732600734, -2.2967032967032965, -1.90625, 1.5, -0.1875, 1.0
1226, 0.4017094017094017, -2.3345543345543347, -0.6935286935286935, -2.0, 1.34375, -0.375, 1.0
1227, 0.12087912087912088, -1.5323565323565325, 0.9621489621489622, -2.0, 1.09375, -0.4375, 1.0
1228, 0.2026862026862027, -0.8962148962148963, 1.6800976800976801, -1.90625, 0.84375, -0.4375, 1.0
1229, -0.02564102564102564, -0.557997557997558, 2.114774114774115, -1.71875, 0.8125, -0.5, 1.0
1230, -0.8278388278388278, -0.19291819291819293, 2.934065934065934, -1.625, 1.03125, -0.625, 1.0
1231, -0.536019536019536, -0.2698412698412698, 3.3333333333333335, -1.625, 1.0625, -0.71875, 1.0
1232, -0.6495726495726496, 0.28815628815628813, 3.9316239316239314, -1.6875, 0.5625, -0.6875, 1.0
1233, -0.9096459096459096, 0.6666666666666666, 4.416361416361417, -1.5625, 0.40625, -0.6875, 1.0
1234, -2.2112332112332114, 0.7130647130647131, 5.103785103785103, -1.4375, 0.46875, -0.625, 1.0
1235, -2.1855921855921854, 1.2466422466422467, 5.992673992673993, -1.34375, 0.78125, -0.59375, 1.0
1236, -1.575091575091575, 1.1343101343101343, 6.417582417582418, -1.15625, 0.75, -0.46875, 1.0
1237, -1.5909645909645909, 1.0683760683760684, 6.241758241758242, -0.875, 0.3125, -0.28125, 1.0
1238, -1.6605616605616607, 0.9157509157509157, 5.283272283272283, -0.59375, 0.0, -0.125, 1.0
1239, -1.5189255189255189, 0.5604395604395604, 3.8095238095238093, -0.375, -0.09375, 0.0, 1.0
1240, -0.9938949938949939, 0.2442002442002442, 2.7362637362637363, -0.1875, 0.0, 0.0, 1.0
1241, -0.5335775335775336, 0.10134310134310134, 1.9597069597069596, -0.0625, 0.0625, 0.03125, 1.0
1242, -0.36752136752136755, 0.10012210012210013, 1.5970695970695972, 0.0, 0.03125, 0.03125, 1.0
