timestamp, accX, accY, accZ, gyroX, gyroY, gyroZ, button
983, 0.003663003663003663, -0.040293040293040296, -0.05860805860805861, -0.09375, 0.03125, 0.03125, 0.0
984, -0.015873015873015872, -0.04395604395604396, -0.040293040293040296, -0.09375, 0.03125, 0.03125, 0.0
985, 0.013431013431013432, -0.03296703296703297, -0.05128205128205128, -0.09375, 0.03125, 0.0625, 0.0
1, 0.002442002442002442, -0.05128205128205128, -0.08058608058608059, -0.09375, 0.03125, 0.03125, 0.0
2, -0.003663003663003663, -0.03296703296703297, -0.08669108669108669, -0.09375, 0.03125, 0.03125, 0.0
3, -0.009768009768009768, -0.030525030525030524, -0.07448107448107448, -0.09375, 0.03125, 0.03125, 0.0
4, 0.0, -0.029304029304029304, -0.04151404151404151, -0.09375, 0.03125, 0.0625, 0.0
5, 0.02442002442002442, -0.050061050061050064, -0.02442002442002442, -0.09375, 0.03125, 0.0625, 0.0
6, 0.026862026862026864, -0.04151404151404151, -0.04151404151404151, -0.09375, 0.03125, 0.03125, 0.0
7, -0.006105006105006105, -0.029304029304029304, -0.06105006105006105, -0.09375, 0.03125, 0.03125, 0.0
8, 0.003663003663003663, -0.040293040293040296, -0.08669108669108669, -0.09375, 0.03125, 0.03125, 0.0
9, 0.008547008547008548, -0.047619047619047616, -0.08424908424908426, -0.09375, 0.03125, 0.03125, 0.0
10, -0.001221001221001221, -0.02442002442002442, -0.029304029304029304, -0.09375, 0.03125, 0.03125, 0.0
11, -0.018315018315018316, -0.017094017094017096, 0.001221001221001221, -0.09375, 0.0625, 0.03125, 0.0
12, 0.01098901098901099, -0.03418803418803419, -0.009768009768009768, -0.09375, 0.03125, 0.03125, 0.0
13, 0.01098901098901099, -0.03785103785103785, -0.054945054945054944, -0.09375, 0.0, 0.03125, 0.0
14, -0.045177045177045176, -0.031746031746031744, -0.10012210012210013, -0.09375, 0.03125, 0.03125, 0.0
15, -0.03540903540903541, -0.03418803418803419, -0.09768009768009768, -0.09375, 0.0625, 0.03125, 0.0
16, 0.0231990231990232, -0.05372405372405373, -0.04151404151404151, -0.09375, 0.03125, 0.03125, 0.0
17, 0.01221001221001221, -0.045177045177045176, -0.05860805860805861, -0.09375, 0.0, 0.03125, 0.0
18, -0.017094017094017096, -0.028083028083028084, 0.006105006105006105, -0.09375, 0.0, 0.03125, 0.0
19, -0.004884004884004884, -0.045177045177045176, -0.07936507936507936, -0.09375, 0.03125, 0.03125, 0.0
20, 0.014652014652014652, -0.045177045177045176, -0.1111111111111111, -0.09375, 0.0, 0.03125, 0.0
21, 0.0, -0.05128205128205128, -0.10012210012210013, -0.09375, 0.03125, 0.03125, 0.0
22, 0.02442002442002442, 0.003663003663003663, -0.003663003663003663, -0.09375, 0.03125, 0.03125, 0.0
23, 0.008547008547008548, -0.07326007326007326, -0.11355311355311355, -0.09375, 0.03125, 0.03125, 0.0
24, -0.008547008547008548, -0.05372405372405373, -0.09768009768009768, -0.09375, 0.0, 0.03125, 0.0
25, -0.030525030525030524, -0.045177045177045176, -0.0989010989010989, -0.09375, 0.03125, 0.03125, 0.0
26, 0.020757020757020756, -0.054945054945054944, -0.004884004884004884, -0.09375, 0.0625, 0.03125, 0.0
27, 0.05982905982905983, -0.03785103785103785, -0.06593406593406594, -0.09375, 0.03125, 0.03125, 0.0
28, 0.007326007326007326, -0.017094017094017096, -0.020757020757020756, -0.09375, 0.0, 0.03125, 0.0
29, -0.05616605616605617, -0.03907203907203907, -0.03540903540903541, -0.09375, 0.0, 0.03125, 0.0
30, 0.01221001221001221, -0.05372405372405373, -0.0757020757020757, -0.09375, 0.03125, 0.03125, 0.0
31, 0.03540903540903541, -0.04884004884004884, -0.08913308913308914, -0.09375, 0.0, 0.03125, 0.0
32, -0.009768009768009768, -0.03785103785103785, -0.06349206349206349, -0.09375, 0.03125, 0.03125, 0.0
33, 0.009768009768009768, -0.026862026862026864, -0.05128205128205128, -0.09375, 0.03125, 0.03125, 0.0
34, -0.026862026862026864, -0.050061050061050064, -0.050061050061050064, -0.09375, 0.0, 0.03125, 0.0
35, -0.03296703296703297, -0.040293040293040296, -0.0695970695970696, -0.09375, 0.0, 0.03125, 0.0
36, -0.001221001221001221, -0.04395604395604396, -0.06349206349206349, -0.09375, 0.03125, 0.03125, 0.0
37, 0.018315018315018316, -0.047619047619047616, -0.045177045177045176, -0.09375, 0.03125, 0.03125, 0.0
38, 0.006105006105006105, -0.029304029304029304, -0.030525030525030524, -0.09375, 0.03125, 0.03125, 0.0
39, -0.009768009768009768, -0.02564102564102564, -0.031746031746031744, -0.09375, 0.0, 0.03125, 0.0
40, -0.013431013431013432, -0.02564102564102564, -0.07692307692307693, -0.09375, 0.0, 0.03125, 0.0
41, 0.001221001221001221, -0.047619047619047616, -0.09523809523809523, -0.09375, 0.03125, 0.03125, 0.0
42, 0.006105006105006105, -0.040293040293040296, -0.06227106227106227, -0.09375, 0.03125, 0.03125, 0.0
43, 0.009768009768009768, -0.047619047619047616, -0.045177045177045176, -0.09375, 0.03125, 0.03125, 0.0
44, 0.014652014652014652, -0.02564102564102564, -0.03296703296703297, -0.09375, 0.03125, 0.03125, 0.0
45, -0.018315018315018316, -0.029304029304029304, -0.03663003663003663, -0.09375, 0.0, 0.03125, 0.0
46, 0.001221001221001221, -0.03663003663003663, -0.05860805860805861, -0.09375, 0.03125, 0.03125, 0.0
47, 0.009768009768009768, -0.03663003663003663, -0.07814407814407814, -0.09375, 0.03125, 0.03125, 0.0
48, 0.02197802197802198, -0.06715506715506715, -0.1282051282051282, -0.09375, 0.03125, 0.03125, 0.0
49, -0.013431013431013432, -0.03663003663003663, -0.07814407814407814, -0.09375, 0.0, 0.03125, 0.0
50, -0.040293040293040296, -0.014652014652014652, 0.008547008547008548, -0.09375, 0.03125, 0.03125, 0.0
51, -0.002442002442002442, -0.017094017094017096, 0.002442002442002442, -0.09375, 0.03125, 0.03125, 0.0
52, 0.013431013431013432, -0.028083028083028084, -0.02564102564102564, -0.0625, 0.03125, 0.03125, 0.0
53, 0.006105006105006105, -0.02442002442002442, -0.050061050061050064, -0.0625, 0.03125, 0.03125, 0.0
54, -0.03663003663003663, -0.03907203907203907, -0.10744810744810745, -0.09375, 0.0, 0.03125, 0.0
55, -0.015873015873015872, -0.03907203907203907, -0.06349206349206349, -0.09375, 0.03125, 0.03125, 0.0
56, 0.004884004884004884, -0.03296703296703297, 0.001221001221001221, -0.09375, 0.03125, 0.03125, 0.0
57, 0.02564102564102564, -0.05860805860805861, -0.02197802197802198, -0.0625, 0.03125, 0.03125, 0.0
58, 0.0231990231990232, -0.03540903540903541, -0.07203907203907203, -0.0625, 0.0, 0.03125, 0.0
59, 0.001221001221001221, -0.045177045177045176, -0.11965811965811966, -0.09375, 0.0, 0.03125, 0.0
60, -0.02564102564102564, -0.054945054945054944, -0.13064713064713065, -0.09375, 0.03125, 0.03125, 0.0
61, -0.001221001221001221, -0.050061050061050064, -0.09523809523809523, -0.09375, 0.0625, 0.03125, 0.0
62, 0.009768009768009768, -0.009768009768009768, -0.03540903540903541, -0.09375, 0.03125, 0.03125, 0.0
63, 0.0, -0.02442002442002442, -0.03907203907203907, -0.09375, 0.03125, 0.03125, 0.0
64, 0.009768009768009768, -0.02197802197802198, -0.047619047619047616, -0.09375, 0.03125, 0.03125, 0.0
65, 0.01098901098901099, -0.028083028083028084, -0.06715506715506715, -0.09375, 0.03125, 0.03125, 0.0
66, 0.05982905982905983, -0.026862026862026864, -0.05982905982905983, -0.09375, 0.03125, 0.0625, 0.0
67, 0.05616605616605617, -0.031746031746031744, -0.07936507936507936, -0.09375, 0.0, 0.03125, 0.0
68, -0.013431013431013432, -0.054945054945054944, -0.10012210012210013, -0.09375, 0.0, 0.03125, 0.0
69, -0.002442002442002442, -0.02442002442002442, -0.03296703296703297, -0.09375, 0.03125, 0.03125, 0.0
70, 0.009768009768009768, -0.006105006105006105, -0.01221001221001221, -0.09375, 0.03125, 0.03125, 0.0
71, 0.007326007326007326, -0.008547008547008548, -0.02442002442002442, -0.09375, 0.03125, 0.03125, 0.0
72, 0.02197802197802198, -0.047619047619047616, -0.10378510378510379, -0.09375, 0.0, 0.03125, 0.0
73, -0.026862026862026864, -0.04151404151404151, -0.12087912087912088, -0.09375, 0.03125, 0.03125, 0.0
74, -0.003663003663003663, -0.02564102564102564, -0.057387057387057384, -0.09375, 0.03125, 0.03125, 0.0
75, 0.001221001221001221, 0.01221001221001221, 0.014652014652014652, -0.09375, 0.03125, 0.0625, 0.0
76, 0.03663003663003663, -0.030525030525030524, -0.015873015873015872, -0.09375, 0.03125, 0.0625, 0.0
77, 0.040293040293040296, -0.03785103785103785, -0.08669108669108669, -0.09375, 0.03125, 0.03125, 0.0
78, 0.020757020757020756, -0.05128205128205128, -0.12942612942612944, -0.09375, 0.03125, 0.03125, 0.0
79, 0.015873015873015872, -0.04151404151404151, -0.09768009768009768, -0.09375, 0.03125, 0.03125, 0.0
80, 0.008547008547008548, -0.007326007326007326, -0.03296703296703297, -0.09375, 0.03125, 0.03125, 0.0
81, 0.01098901098901099, -0.020757020757020756, -0.050061050061050064, -0.09375, 0.03125, 0.03125, 0.0
82, 0.009768009768009768, -0.02442002442002442, -0.05982905982905983, -0.09375, 0.0, 0.03125, 0.0
83, 0.003663003663003663, -0.03418803418803419, -0.09157509157509157, -0.09375, 0.03125, 0.03125, 0.0
84, 0.01221001221001221, -0.02442002442002442, -0.057387057387057384, -0.09375, 0.03125, 0.03125, 0.0
85, 0.015873015873015872, -0.030525030525030524, -0.07326007326007326, -0.09375, 0.03125, 0.03125, 0.0
86, 0.014652014652014652, -0.028083028083028084, -0.07692307692307693, -0.09375, 0.03125, 0.03125, 0.0
87, -0.01221001221001221, -0.018315018315018316, -0.06837606837606838, -0.09375, 0.03125, 0.03125, 0.0
88, 0.003663003663003663, -0.008547008547008548, -0.031746031746031744, -0.09375, 0.03125, 0.03125, 0.0
89, 0.008547008547008548, -0.013431013431013432, -0.03907203907203907, -0.09375, 0.03125, 0.03125, 0.0
90, 0.02442002442002442, -0.030525030525030524, -0.07448107448107448, -0.09375, 0.03125, 0.03125, 0.0
91, 0.0231990231990232, -0.04884004884004884, -0.10989010989010989, -0.09375, 0.0, 0.03125, 0.0
92, -0.006105006105006105, -0.02442002442002442, -0.057387057387057384, -0.09375, 0.03125, 0.03125, 0.0
93, 0.007326007326007326, -0.007326007326007326, -0.026862026862026864, -0.09375, 0.03125, 0.03125, 0.0
94, 0.014652014652014652, 0.007326007326007326, -0.001221001221001221, -0.09375, 0.03125, 0.03125, 0.0
95, 0.01221001221001221, -0.029304029304029304, -0.07326007326007326, -0.09375, 0.03125, 0.03125, 0.0
96, 0.003663003663003663, -0.045177045177045176, -0.09035409035409035, -0.09375, 0.03125, 0.03125, 0.0
97, 0.013431013431013432, -0.028083028083028084, -0.07081807081807082, -0.09375, 0.03125, 0.03125, 0.0
98, 0.045177045177045176, -0.002442002442002442, -0.03540903540903541, -0.09375, 0.0, 0.0625, 0.0
99, 0.017094017094017096, -0.02197802197802198, -0.06593406593406594, -0.09375, 0.0, 0.03125, 0.0
100, 0.008547008547008548, -0.03785103785103785, -0.0989010989010989, -0.09375, 0.0, 0.03125, 0.0
101, 0.01221001221001221, -0.040293040293040296, -0.07692307692307693, -0.09375, 0.03125, 0.03125, 0.0
102, 0.018315018315018316, -0.026862026862026864, -0.05860805860805861, -0.09375, 0.03125, 0.03125, 0.0
103, -0.007326007326007326, -0.031746031746031744, -0.045177045177045176, -0.09375, 0.0, 0.03125, 0.0
104, -0.017094017094017096, -0.031746031746031744, -0.054945054945054944, -0.09375, 0.03125, 0.03125, 0.0
105, -0.006105006105006105, -0.018315018315018316, -0.04884004884004884, -0.09375, 0.03125, 0.03125, 0.0
106, 0.008547008547008548, -0.017094017094017096, -0.047619047619047616, -0.09375, 0.03125, 0.03125, 0.0
107, 0.01098901098901099, -0.019536019536019536, -0.05372405372405373, -0.09375, 0.03125, 0.03125, 0.0
108, 0.014652014652014652, -0.028083028083028084, -0.07203907203907203, -0.09375, 0.03125, 0.0625, 0.0
109, 0.02197802197802198, -0.042735042735042736, -0.10378510378510379, -0.09375, 0.03125, 0.03125, 0.0
110, 0.020757020757020756, -0.03540903540903541, -0.0927960927960928, -0.09375, 0.03125, 0.03125, 0.0
111, 0.009768009768009768, -0.018315018315018316, -0.054945054945054944, -0.09375, 0.03125, 0.03125, 0.0
112, 0.006105006105006105, -0.020757020757020756, -0.050061050061050064, -0.09375, 0.03125, 0.03125, 0.0
113, -0.017094017094017096, -0.019536019536019536, -0.040293040293040296, -0.09375, 0.03125, 0.03125, 0.0
114, 0.01221001221001221, -0.019536019536019536, -0.0463980463980464, -0.09375, 0.03125, 0.03125, 0.0
115, 0.020757020757020756, -0.031746031746031744, -0.06471306471306472, -0.09375, 0.03125, 0.03125, 0.0
116, 0.0, -0.0231990231990232, -0.0757020757020757, -0.09375, 0.03125, 0.03125, 0.0
117, -0.004884004884004884, -0.02197802197802198, -0.047619047619047616, -0.09375, 0.03125, 0.03125, 0.0
118, 0.01098901098901099, -0.015873015873015872, -0.0463980463980464, -0.09375, 0.03125, 0.03125, 0.0
119, 0.015873015873015872, -0.03540903540903541, -0.08424908424908426, -0.09375, 0.03125, 0.03125, 0.0
120, 0.01221001221001221, -0.02564102564102564, -0.06593406593406594, -0.09375, 0.03125, 0.03125, 0.0
121, 0.009768009768009768, -0.02442002442002442, -0.06471306471306472, -0.09375, 0.03125, 0.03125, 0.0
122, 0.006105006105006105, -0.020757020757020756, -0.05372405372405373, -0.09375, 0.03125, 0.03125, 0.0
123, 0.014652014652014652, -0.030525030525030524, -0.07448107448107448, -0.09375, 0.03125, 0.03125, 0.0
124, 0.03296703296703297, -0.047619047619047616, -0.08058608058608059, -0.09375, 0.0, 0.03125, 0.0
125, 0.009768009768009768, -0.03663003663003663, -0.07326007326007326, -0.09375, 0.03125, 0.03125, 0.0
126, 0.002442002442002442, 0.003663003663003663, -0.01098901098901099, -0.09375, 0.03125, 0.03125, 0.0
127, -0.015873015873015872, -0.02197802197802198, -0.05128205128205128, -0.09375, 0.03125, 0.03125, 0.0
128, 0.017094017094017096, -0.03418803418803419, -0.0757020757020757, -0.09375, 0.03125, 0.0625, 0.0
129, 0.028083028083028084, -0.03907203907203907, -0.08302808302808302, -0.09375, 0.0, 0.03125, 0.0
130, 0.018315018315018316, -0.031746031746031744, -0.07936507936507936, -0.09375, 0.03125, 0.03125, 0.0
131, 0.014652014652014652, 0.002442002442002442, -0.02564102564102564, -0.09375, 0.03125, 0.03125, 0.0
132, -0.020757020757020756, 0.004884004884004884, -0.052503052503052504, -0.09375, 0.0, 0.03125, 0.0
133, 0.017094017094017096, -0.045177045177045176, -0.09645909645909646, -0.09375, 0.0, 0.03125, 0.0
134, 0.028083028083028084, -0.06227106227106227, -0.115995115995116, -0.09375, 0.0, 0.03125, 0.0
135, 0.007326007326007326, -0.013431013431013432, -0.03663003663003663, -0.09375, 0.03125, 0.03125, 0.0
136, 0.0, -0.014652014652014652, -0.0231990231990232, -0.09375, 0.03125, 0.03125, 0.0
137, -0.003663003663003663, -0.008547008547008548, -0.017094017094017096, -0.09375, 0.03125, 0.03125, 0.0
138, -0.006105006105006105, -0.02442002442002442, -0.0695970695970696, -0.09375, 0.03125, 0.03125, 0.0
139, 0.006105006105006105, -0.045177045177045176, -0.09035409035409035, -0.09375, 0.03125, 0.0625, 0.0
140, 0.013431013431013432, -0.03663003663003663, -0.07814407814407814, -0.09375, 0.03125, 0.03125, 0.0
141, 0.050061050061050064, -0.05128205128205128, -0.047619047619047616, -0.09375, 0.03125, 0.0625, 0.0
142, 0.08913308913308914, -0.04884004884004884, -0.04151404151404151, -0.09375, 0.03125, 0.03125, 0.0
143, 0.018315018315018316, -0.0231990231990232, -0.06715506715506715, -0.09375, 0.03125, 0.03125, 0.0
144, 0.01098901098901099, -0.04151404151404151, -0.0989010989010989, -0.09375, 0.03125, 0.03125, 0.0
145, 0.0, -0.026862026862026864, -0.07326007326007326, -0.09375, 0.03125, 0.03125, 0.0
146, 0.01221001221001221, -0.020757020757020756, -0.04151404151404151, -0.09375, 0.03125, 0.03125, 0.0
147, 0.007326007326007326, -0.003663003663003663, -0.015873015873015872, -0.09375, 0.03125, 0.03125, 0.0
148, 0.001221001221001221, -0.003663003663003663, -0.018315018315018316, -0.09375, 0.03125, 0.03125, 0.0
149, 0.003663003663003663, -0.01098901098901099, -0.031746031746031744, -0.09375, 0.03125, 0.03125, 0.0
150, 0.015873015873015872, -0.03907203907203907, -0.09768009768009768, -0.0625, 0.03125, 0.03125, 0.0
151, 0.03296703296703297, -0.06105006105006105, -0.13064713064713065, -0.09375, 0.03125, 0.03125, 0.0
152, 0.01098901098901099, -0.03785103785103785, -0.08547008547008547, -0.09375, 0.0, 0.03125, 0.0
153, 0.003663003663003663, -0.002442002442002442, -0.008547008547008548, -0.09375, 0.03125, 0.03125, 0.0
154, 0.004884004884004884, 0.0, -0.01221001221001221, -0.09375, 0.03125, 0.03125, 0.0
155, 0.007326007326007326, -0.02564102564102564, -0.06593406593406594, -0.0625, 0.03125, 0.03125, 0.0
156, 0.020757020757020756, -0.06471306471306472, -0.1452991452991453, -0.09375, 0.03125, 0.03125, 0.0
157, 0.029304029304029304, -0.045177045177045176, -0.10989010989010989, -0.09375, 0.03125, 0.03125, 0.0
158, 0.006105006105006105, -0.002442002442002442, -0.018315018315018316, -0.09375, 0.03125, 0.03125, 0.0
159, -0.009768009768009768, -0.004884004884004884, -0.013431013431013432, -0.09375, 0.03125, 0.03125, 0.0
160, 0.004884004884004884, -0.029304029304029304, -0.03296703296703297, -0.09375, 0.03125, 0.03125, 0.0
161, 0.020757020757020756, -0.0463980463980464, -0.10622710622710622, -0.09375, 0.03125, 0.0625, 0.0
162, 0.042735042735042736, -0.06471306471306472, -0.1562881562881563, -0.09375, 0.03125, 0.03125, 0.0
163, 0.02442002442002442, -0.028083028083028084, -0.08302808302808302, -0.09375, 0.03125, 0.03125, 0.0
164, 0.01098901098901099, -0.009768009768009768, -0.031746031746031744, -0.09375, 0.0, 0.03125, 0.0
165, 0.002442002442002442, -0.018315018315018316, -0.0231990231990232, -0.09375, 0.0, 0.03125, 0.0
166, 0.002442002442002442, 0.001221001221001221, -0.003663003663003663, -0.09375, 0.03125, 0.03125, 0.0
167, 0.002442002442002442, 0.0, -0.015873015873015872, -0.09375, 0.03125, 0.03125, 0.0
168, 0.006105006105006105, -0.03663003663003663, -0.07814407814407814, -0.09375, 0.03125, 0.03125, 0.0
169, 0.013431013431013432, -0.03418803418803419, -0.08424908424908426, -0.09375, 0.03125, 0.03125, 0.0
170, 0.019536019536019536, -0.06105006105006105, -0.12942612942612944, -0.09375, 0.03125, 0.03125, 0.0
171, 0.014652014652014652, -0.03907203907203907, -0.08424908424908426, -0.09375, 0.03125, 0.03125, 0.0
172, 0.008547008547008548, -0.01098901098901099, -0.03418803418803419, -0.09375, 0.03125, 0.03125, 0.0
173, 0.006105006105006105, -0.001221001221001221, -0.02197802197802198, -0.09375, 0.03125, 0.03125, 0.0
174, 0.02197802197802198, -0.026862026862026864, -0.07692307692307693, -0.09375, 0.03125, 0.03125, 0.0
175, 0.015873015873015872, -0.047619047619047616, -0.11965811965811966, -0.09375, 0.03125, 0.03125, 0.0
176, 0.007326007326007326, -0.045177045177045176, -0.10378510378510379, -0.09375, 0.03125, 0.03125, 0.0
177, 0.004884004884004884, -0.007326007326007326, -0.015873015873015872, -0.09375, 0.03125, 0.03125, 0.0
178, 0.002442002442002442, 0.017094017094017096, 0.02442002442002442, -0.09375, 0.03125, 0.0625, 0.0
179, 0.001221001221001221, 0.019536019536019536, 0.020757020757020756, -0.0625, 0.03125, 0.0625, 0.0
180, 0.009768009768009768, -0.01098901098901099, -0.0463980463980464, -0.0625, 0.03125, 0.0625, 0.0
181, 0.015873015873015872, -0.02442002442002442, -0.0757020757020757, -0.0625, 0.03125, 0.0625, 0.0
182, 0.002442002442002442, -0.03418803418803419, -0.08547008547008547, -0.0625, 0.03125, 0.0625, 0.0
183, 0.015873015873015872, -0.03540903540903541, -0.08669108669108669, -0.09375, 0.03125, 0.0625, 0.0
184, 0.019536019536019536, -0.030525030525030524, -0.0695970695970696, -0.09375, 0.03125, 0.03125, 0.0
185, 0.02564102564102564, -0.05128205128205128, -0.11965811965811966, -0.09375, 0.0, 0.03125, 0.0
186, -0.013431013431013432, -0.050061050061050064, -0.13064713064713065, -0.09375, 0.03125, 0.03125, 0.0
187, 0.018315018315018316, -0.0463980463980464, -0.10012210012210013, -0.09375, 0.03125, 0.03125, 0.0
188, 0.01098901098901099, -0.03418803418803419, -0.07448107448107448, -0.09375, 0.03125, 0.03125, 0.0
189, -0.004884004884004884, -0.017094017094017096, -0.045177045177045176, -0.09375, 0.0625, 0.03125, 0.0
190, 0.004884004884004884, 0.0, -0.03540903540903541, -0.09375, 0.0625, 0.03125, 0.0
191, 0.0, -0.040293040293040296, -0.10378510378510379, -0.09375, 0.03125, 0.0625, 0.0
192, 0.013431013431013432, -0.03296703296703297, -0.06227106227106227, -0.09375, 0.03125, 0.0625, 0.0
193, 0.006105006105006105, 0.008547008547008548, 0.01221001221001221, -0.09375, 0.03125, 0.0625, 0.0
194, 0.008547008547008548, 0.008547008547008548, 0.003663003663003663, -0.0625, 0.03125, 0.0625, 0.0
195, 0.02197802197802198, -0.002442002442002442, -0.054945054945054944, -0.0625, 0.03125, 0.0625, 0.0
196, 0.03296703296703297, -0.06837606837606838, -0.15018315018315018, -0.09375, 0.0, 0.0625, 0.0
197, -0.014652014652014652, -0.07692307692307693, -0.2039072039072039, -0.09375, 0.0, 0.0625, 0.0
198, -0.10256410256410256, -0.04884004884004884, -0.199023199023199, -0.09375, 0.09375, 0.0625, 0.0
199, -0.23687423687423687, -0.003663003663003663, -0.22344322344322345, -0.125, 0.15625, 0.09375, 0.0
200, -0.36385836385836384, 0.045177045177045176, -0.27594627594627597, -0.125, 0.25, 0.125, 0.0
201, -0.2673992673992674, -0.07081807081807082, -0.26495726495726496, -0.15625, 0.3125, 0.1875, 0.0
202, 0.19047619047619047, -0.525030525030525, -0.43223443223443225, -0.21875, 0.3125, 0.21875, 0.0
203, 0.568986568986569, -0.8559218559218559, -0.6776556776556777, -0.28125, 0.28125, 0.15625, 0.0
204, 0.5604395604395604, -0.5628815628815629, -0.9157509157509157, -0.40625, 0.1875, 0.0625, 0.0
205, 0.40415140415140416, -0.7997557997557998, -1.2820512820512822, -0.46875, 0.0, -0.03125, 0.0
206, 0.34554334554334554, -1.1916971916971917, -1.5665445665445665, -0.5625, -0.1875, -0.03125, 0.0
207, 0.32112332112332115, -1.2039072039072038, -1.7118437118437118, -0.59375, -0.15625, 0.0, 0.0
208, 0.9865689865689866, -1.3687423687423688, -1.619047619047619, -0.46875, 0.0, 0.03125, 0.0
209, 1.2759462759462759, -1.6776556776556777, -1.768009768009768, -0.3125, 0.03125, 0.03125, 0.0
210, 1.0647130647130647, -1.4273504273504274, -1.3772893772893773, -0.1875, 0.03125, -0.09375, 0.0
211, 0.6019536019536019, -0.8241758241758241, -0.7924297924297924, -0.0625, 0.0, -0.15625, 0.0
212, 0.3235653235653236, -0.14652014652014653, -0.3125763125763126, 0.25, -0.125, -0.15625, 0.0
213, 0.25274725274725274, 0.02564102564102564, -0.13797313797313798, 0.75, -0.25, -0.15625, 0.0
214, 0.15384615384615385, -0.6434676434676435, -0.31868131868131866, 1.1875, -0.5, -0.03125, 0.0
215, 0.39194139194139194, -2.1086691086691087, -1.431013431013431, 1.46875, -0.75, -0.03125, 0.0
216, 0.5152625152625152, -2.1904761904761907, -2.137973137973138, 1.15625, -0.90625, -0.59375, 0.0
217, 0.3992673992673993, -1.8876678876678876, -2.3907203907203907, 0.59375, -0.9375, -0.96875, 0.0
218, 0.07081807081807082, -1.4261294261294262, -2.446886446886447, 0.03125, -0.96875, -0.84375, 0.0
219, 0.3540903540903541, -1.5103785103785103, -2.3882783882783882, -0.0625, -0.84375, -0.8125, 0.0
220, 0.7350427350427351, -1.8266178266178266, -2.2625152625152625, -0.03125, -0.78125, -0.875, 0.0
221, 0.5238095238095238, -1.3296703296703296, -1.9731379731379732, 0.0625, -0.71875, -0.96875, 0.0
222, 0.13675213675213677, -0.6800976800976801, -1.4236874236874237, 0.09375, -0.625, -1.0625, 0.0
223, 0.10866910866910867, -0.6984126984126984, -1.2832722832722834, 0.0, -0.625, -0.96875, 0.0
224, 0.42246642246642246, -1.037851037851038, -1.3785103785103785, -0.375, -0.875, -0.875, 0.0
225, -0.4884004884004884, 0.050061050061050064, -0.9291819291819292, -0.78125, -0.78125, -1.03125, 0.0
226, -1.0415140415140416, 0.4139194139194139, -0.6507936507936508, -1.09375, -0.5, -1.03125, 0.0
227, -1.6446886446886446, 1.2759462759462759, -0.06837606837606838, -1.25, 0.0, -1.03125, 0.0
228, -1.5152625152625152, 1.5164835164835164, 0.4908424908424908, -1.375, 0.3125, -1.03125, 0.0
229, -1.404151404151404, 1.595848595848596, 0.9084249084249084, -1.46875, 0.40625, -1.03125, 0.0
230, -1.1172161172161172, 1.3137973137973138, 1.2148962148962148, -1.53125, 0.1875, -0.8125, 0.0
231, -0.8986568986568987, 1.5665445665445665, 1.4432234432234432, -1.625, -0.125, -0.46875, 0.0
232, -0.5213675213675214, 1.6043956043956045, 1.5885225885225884, -1.6875, -0.46875, -0.1875, 0.0
233, -0.3516483516483517, 1.2661782661782661, 1.4468864468864469, -1.75, -0.75, -0.0625, 0.0
234, -0.6727716727716728, 1.6202686202686203, 1.713064713064713, -1.65625, -0.625, -0.09375, 0.0
235, -1.2832722832722834, 1.9304029304029304, 2.0183150183150182, -1.46875, -0.125, -0.09375, 0.0
236, -0.8742368742368742, 0.9645909645909646, 1.8412698412698412, -1.3125, 0.21875, -0.03125, 0.0
237, -0.1684981684981685, -0.08669108669108669, 1.6984126984126984, -1.34375, 0.1875, -0.03125, 0.0
238, 0.12576312576312576, -0.33821733821733824, 1.6996336996336996, -1.375, -0.09375, 0.0, 0.0
239, -0.06227106227106227, -0.15262515262515264, 1.6837606837606838, -1.3125, -0.1875, 0.09375, 0.0
240, -0.09401709401709402, -0.14407814407814407, 1.6483516483516483, -1.1875, -0.09375, 0.09375, 0.0
241, -0.38705738705738707, -0.29181929181929184, 1.5775335775335775, -1.03125, 0.1875, 0.0, 0.0
242, 0.5433455433455433, -1.5531135531135531, 0.978021978021978, -1.125, 0.25, 0.03125, 0.0
243, 0.673992673992674, -1.3418803418803418, 0.9328449328449329, -1.28125, 0.125, 0.03125, 0.0
244, 0.33455433455433453, -0.8986568986568987, 1.5995115995115996, -1.4375, -0.03125, 0.09375, 0.0
245, 0.03540903540903541, -1.612942612942613, 1.3443223443223444, -1.3125, 0.0625, 0.03125, 0.0
246, 0.1562881562881563, -1.072039072039072, 1.1721611721611722, -1.125, 0.25, 0.0, 0.0
247, 0.22954822954822954, -0.4945054945054945, 1.1013431013431014, -0.8125, 0.40625, 0.0, 0.0
248, 0.26373626373626374, -0.7228327228327228, 0.9304029304029304, -0.53125, 0.4375, 0.0, 0.0
249, -0.2979242979242979, -1.435897435897436, 0.27594627594627597, -0.59375, 0.46875, -0.1875, 0.0
250, -0.6471306471306472, -1.8656898656898657, 0.03296703296703297, -0.90625, 0.53125, -0.21875, 0.0
251, -0.39316239316239315, -1.8974358974358974, 0.24175824175824176, -1.34375, 0.25, 0.03125, 0.0
252, -0.6617826617826618, -1.575091575091575, 0.7704517704517705, -1.59375, -0.03125, 0.15625, 0.0
253, -1.0463980463980465, -1.0622710622710623, 1.2661782661782661, -1.46875, 0.0, 0.15625, 0.0
254, -0.6605616605616605, -1.1746031746031746, 1.5384615384615385, -0.96875, 0.28125, 0.1875, 0.0
255, -0.3199023199023199, -0.9181929181929182, 1.4615384615384615, -0.375, 0.28125, 0.21875, 0.0
256, -0.21611721611721613, -1.083028083028083, 1.0415140415140416, 0.1875, 0.1875, 0.09375, 0.0
257, 0.03907203907203907, -1.216117216117216, 0.5335775335775336, 0.59375, 0.0, 0.125, 0.0
258, -0.19413919413919414, -1.2454212454212454, 0.22344322344322345, 0.8125, -0.15625, 0.09375, 0.0
259, -0.5934065934065934, -1.363858363858364, 0.017094017094017096, 0.90625, -0.09375, 0.0, 0.0
260, -0.41514041514041516, -1.5299145299145298, -0.1330891330891331, 0.8125, 0.0, 0.0, 0.0
261, -0.09645909645909646, -1.3028083028083028, -0.002442002442002442, 0.53125, 0.0, 0.0, 0.0
262, -0.32234432234432236, -0.6178266178266179, 0.02197802197802198, 0.375, -0.21875, 0.0, 0.0
263, -0.9120879120879121, -0.6251526251526252, -0.09157509157509157, 0.5625, -0.46875, -0.03125, 0.0
264, -0.7545787545787546, -0.8864468864468864, -0.41514041514041516, 0.6875, -0.46875, 0.0, 0.0
265, -0.6971916971916972, -0.8669108669108669, -0.463980463980464, 0.59375, -0.375, 0.0625, 0.0
266, -0.5738705738705738, -0.575091575091575, -0.4236874236874237, 0.40625, -0.09375, 0.0625, 0.0
267, -0.3785103785103785, -0.3956043956043956, -0.5860805860805861, 0.28125, 0.09375, 0.0, 0.0
268, -0.20146520146520147, -0.1978021978021978, -0.6996336996336996, 0.09375, 0.03125, 0.0, 0.0
269, -0.29304029304029305, -0.14041514041514042, -0.5518925518925519, 0.0625, -0.40625, 0.125, 0.0
270, -0.6800976800976801, -0.1978021978021978, -1.1355311355311355, 0.03125, -0.125, 0.09375, 0.0
271, -0.4126984126984127, -0.26373626373626374, -1.0976800976800978, -0.03125, 0.34375, 0.09375, 0.0
272, 0.13675213675213677, -0.1855921855921856, -0.4981684981684982, 0.0625, 0.53125, 0.125, 0.0
273, 0.6568986568986569, -0.47863247863247865, -0.4017094017094017, 0.0625, 0.40625, 0.09375, 0.0
274, 1.2185592185592184, -0.5238095238095238, -0.525030525030525, -0.125, 0.0, 0.0, 0.0
275, 0.6654456654456654, -0.221001221001221, -0.6727716727716728, -0.25, -0.28125, -0.09375, 0.0
276, -0.21855921855921856, 0.07814407814407814, -0.9474969474969475, -0.25, -0.1875, -0.15625, 0.0
277, -0.4981684981684982, 0.18681318681318682, -1.0622710622710623, -0.25, 0.125, -0.09375, 0.0
278, -0.18315018315018314, 0.2503052503052503, -0.5616605616605617, -0.15625, 0.1875, -0.09375, 0.0
279, -0.47741147741147744, 0.42857142857142855, -0.2087912087912088, -0.03125, 0.21875, -0.03125, 0.0
280, -0.18315018315018314, 0.221001221001221, -0.31868131868131866, -0.03125, 0.21875, 0.0625, 0.0
281, 0.8315018315018315, -0.4822954822954823, -0.43223443223443225, -0.375, -0.03125, 0.125, 0.0
282, 0.9291819291819292, -0.39316239316239315, -0.3968253968253968, -0.6875, -0.375, 0.0, 0.0
283, -0.31135531135531136, 0.43833943833943834, -0.10500610500610501, -0.5, -0.1875, 0.0, 0.0
284, -0.7313797313797313, 0.6593406593406593, 0.3321123321123321, -0.0625, 0.15625, 0.03125, 0.0
285, -0.03785103785103785, 0.17582417582417584, 0.6092796092796092, 0.15625, 0.21875, 0.09375, 0.0
286, 0.31746031746031744, -0.28815628815628813, 0.39316239316239315, 0.09375, 0.0625, 0.0625, 0.0
287, 0.42857142857142855, -0.5274725274725275, 0.27472527472527475, -0.0625, -0.0625, 0.0, 0.0
288, 0.17826617826617827, -0.3504273504273504, 0.3553113553113553, -0.125, -0.15625, -0.03125, 0.0
289, -0.09768009768009768, -0.2258852258852259, 0.6373626373626373, -0.0625, -0.15625, -0.03125, 0.0
290, -0.13186813186813187, -0.14896214896214896, 0.6666666666666666, 0.0, -0.25, 0.0, 0.0
291, -0.3125763125763126, -0.026862026862026864, 0.5873015873015873, 0.125, -0.28125, 0.03125, 0.0
292, -0.6007326007326007, 0.06593406593406594, 0.32967032967032966, 0.3125, -0.125, 0.09375, 0.0
293, -0.4358974358974359, -0.32967032967032966, 0.050061050061050064, 0.28125, 0.1875, 0.0, 0.0
294, 0.1514041514041514, -0.645909645909646, -0.45787545787545786, 0.0, -0.0625, -0.0625, 0.0
295, -0.3333333333333333, -0.33943833943833945, -0.3162393162393162, -0.15625, -0.28125, 0.03125, 0.0
296, -0.3492063492063492, -0.17582417582417584, 0.03785103785103785, -0.1875, -0.125, 0.09375, 0.0
297, 0.0757020757020757, -0.19291819291819293, 0.25274725274725274, 0.0, 0.03125, 0.125, 0.0
298, 0.3894993894993895, -0.4126984126984127, 0.09523809523809523, 0.25, 0.03125, 0.1875, 0.0
299, 0.19658119658119658, -0.28815628815628813, -0.13186813186813187, 0.40625, -0.03125, 0.1875, 0.0
300, -0.009768009768009768, -0.33455433455433453, -0.42002442002442003, 0.25, 0.0625, 0.21875, 0.0
301, -0.02564102564102564, -0.1343101343101343, -0.315018315018315, 0.0, 0.125, 0.09375, 0.0
302, 0.21978021978021978, -0.06471306471306472, -0.10134310134310134, -0.125, 0.0625, 0.09375, 0.0
303, 0.25518925518925517, 0.08791208791208792, 0.06471306471306472, -0.125, -0.125, 0.15625, 0.0
304, -0.07203907203907203, 0.12698412698412698, -0.007326007326007326, -0.03125, -0.21875, 0.125, 0.0
305, -0.1562881562881563, 0.054945054945054944, -0.13186813186813187, 0.09375, -0.09375, 0.15625, 0.0
306, -0.013431013431013432, -0.199023199023199, -0.3125763125763126, 0.09375, 0.03125, 0.125, 0.0
307, 0.1514041514041514, -0.1575091575091575, -0.3540903540903541, -0.03125, 0.0, 0.09375, 0.0
308, -0.014652014652014652, -0.014652014652014652, -0.16361416361416362, -0.15625, -0.125, 0.09375, 0.0
309, 0.0, -0.04395604395604396, -0.10378510378510379, -0.09375, -0.09375, 0.09375, 0.0
310, 0.16483516483516483, -0.22954822954822954, -0.25396825396825395, 0.0, -0.03125, 0.125, 0.0
311, 0.10744810744810745, -0.13675213675213677, -0.2576312576312576, 0.0, 0.0, 0.125, 0.0
312, -0.02197802197802198, -0.007326007326007326, -0.0695970695970696, -0.0625, 0.03125, 0.09375, 0.0
313, 0.0757020757020757, -0.16117216117216118, -0.06349206349206349, -0.03125, 0.15625, 0.125, 0.0
314, 0.2222222222222222, -0.34676434676434675, -0.2258852258852259, -0.09375, 0.1875, 0.0625, 0.0
315, -0.02197802197802198, -0.09645909645909646, -0.17826617826617827, -0.15625, 0.0625, 0.03125, 0.0
316, 0.015873015873015872, -0.04884004884004884, -0.002442002442002442, -0.125, 0.0, 0.09375, 0.0
317, 0.15506715506715507, -0.08547008547008547, 0.16727716727716727, 0.0, 0.0, 0.03125, 0.0
318, -0.030525030525030524, -0.018315018315018316, 0.02197802197802198, -0.03125, 0.0, 0.0, 0.0
319, -0.10012210012210013, -0.07936507936507936, -0.042735042735042736, -0.15625, 0.0625, 0.0, 0.0
320, -0.18437118437118438, 0.12942612942612944, 0.1575091575091575, -0.15625, 0.09375, 0.0, 0.0
321, -0.11843711843711843, 0.15384615384615385, 0.29914529914529914, -0.09375, 0.09375, 0.0, 0.0
322, -0.002442002442002442, 0.04395604395604396, 0.3797313797313797, 0.0, 0.0, 0.03125, 0.0
323, -0.017094017094017096, -0.06715506715506715, 0.14285714285714285, 0.0, -0.03125, 0.0, 0.0
324, -0.020757020757020756, -0.20512820512820512, -0.24053724053724054, -0.09375, -0.03125, 0.0, 0.0
325, -0.27106227106227104, -0.030525030525030524, -0.315018315018315, -0.15625, 0.0, 0.0, 0.0
326, -0.21001221001221002, 0.05616605616605617, 0.020757020757020756, -0.0625, 0.09375, 0.03125, 0.0
327, 0.026862026862026864, -0.031746031746031744, 0.03663003663003663, 0.0, 0.125, 0.03125, 0.0
328, 0.08913308913308914, -0.05616605616605617, 0.10012210012210013, 0.03125, 0.03125, 0.0625, 0.0
329, 0.004884004884004884, -0.020757020757020756, -0.03785103785103785, 0.0, 0.0, 0.0625, 0.0
330, -0.08791208791208792, -0.008547008547008548, -0.07448107448107448, -0.0625, 0.0, 0.09375, 0.0
331, -0.2087912087912088, 0.007326007326007326, -0.57997557997558, -0.125, 0.0625, 0.125, 0.0
332, -0.06471306471306472, -0.008547008547008548, -0.20512820512820512, -0.09375, 0.09375, 0.15625, 0.0
333, 0.22344322344322345, -0.15506715506715507, -0.04151404151404151, -0.09375, 0.03125, 0.125, 0.0
334, 0.12698412698412698, -0.14163614163614163, -0.02442002442002442, -0.125, 0.0, 0.03125, 0.0
335, 0.029304029304029304, -0.09401709401709402, -0.08547008547008547, -0.125, 0.03125, 0.0, 0.0
336, 0.03907203907203907, -0.06105006105006105, -0.13675213675213677, -0.125, 0.03125, 0.0, 0.0
337, -0.054945054945054944, 0.0, -0.1623931623931624, -0.0625, 0.0, 0.0, 0.0
338, -0.028083028083028084, -0.015873015873015872, -0.0231990231990232, -0.03125, 0.0, 0.03125, 0.0
339, 0.05860805860805861, -0.10866910866910867, 0.002442002442002442, -0.125, 0.0, 0.0, 0.0
340, 0.001221001221001221, -0.03418803418803419, -0.013431013431013432, -0.15625, 0.0, 0.0, 0.0
341, -0.10866910866910867, 0.04395604395604396, 0.008547008547008548, -0.0625, 0.0, 0.03125, 0.0
342, -0.05128205128205128, -0.026862026862026864, -0.018315018315018316, -0.09375, 0.03125, 0.03125, 0.0
343, 0.0757020757020757, -0.12332112332112333, -0.13797313797313798, -0.15625, 0.03125, 0.03125, 0.0
344, -0.08791208791208792, -0.015873015873015872, -0.09523809523809523, -0.15625, 0.03125, 0.03125, 0.0
345, -0.015873015873015872, -0.050061050061050064, -0.09523809523809523, -0.125, 0.0625, 0.0625, 0.0
346, 0.221001221001221, -0.10989010989010989, 0.16605616605616605, -0.125, 0.0, 0.0625, 0.0
347, 0.06349206349206349, -0.045177045177045176, 0.1452991452991453, -0.09375, -0.0625, 0.0, 0.0
348, -0.5225885225885226, 0.018315018315018316, -0.19413919413919414, -0.03125, 0.0, 0.0, 0.0
349, -0.020757020757020756, -0.07936507936507936, -0.05128205128205128, 0.0, 0.1875, 0.03125, 0.0
350, 0.21611721611721613, -0.017094017094017096, 0.17094017094017094, -0.03125, 0.09375, 0.0, 0.0
351, -0.17704517704517705, 0.01098901098901099, -0.050061050061050064, 0.0, -0.0625, 0.03125, 0.0
352, -0.1221001221001221, -0.08913308913308914, -0.17826617826617827, 0.0, 0.0, 0.0625, 0.0
353, 0.06349206349206349, -0.18803418803418803, -0.11233211233211234, -0.0625, 0.0, 0.03125, 0.0
354, -0.04151404151404151, -0.040293040293040296, -0.14896214896214896, -0.15625, 0.0, 0.0, 0.0
355, -0.10012210012210013, 0.03418803418803419, 0.05982905982905983, -0.125, -0.03125, 0.0625, 0.0
356, -0.0695970695970696, -0.002442002442002442, 0.20757020757020758, -0.03125, -0.0625, 0.09375, 0.0
357, 0.03663003663003663, -0.15018315018315018, -0.05982905982905983, 0.0, 0.0, 0.0625, 0.0
358, 0.050061050061050064, -0.14896214896214896, -0.22832722832722832, -0.0625, 0.0, 0.03125, 0.0
359, -0.09645909645909646, -0.10622710622710622, -0.17094017094017094, -0.09375, 0.0, 0.03125, 0.0
360, -0.017094017094017096, -0.031746031746031744, 0.031746031746031744, 0.0, 0.03125, 0.03125, 0.0
361, 0.3626373626373626, 0.002442002442002442, -0.028083028083028084, 0.09375, 0.0, 0.03125, 0.0
362, 0.24053724053724054, -0.10012210012210013, -0.2222222222222222, 0.25, -0.09375, 0.0, 1.0
363, -0.3162393162393162, -0.6019536019536019, -0.525030525030525, 0.21875, -0.0625, -0.09375, 1.0
364, -0.3199023199023199, -0.06227106227106227, -0.4456654456654457, -0.0625, 0.15625, 0.0, 1.0
365, 0.27350427350427353, -0.18315018315018314, 0.18803418803418803, -0.0625, 0.09375, 0.125, 1.0
366, -0.05372405372405373, -0.652014652014652, -0.2686202686202686, -0.53125, -0.0625, 0.25, 1.0
367, -0.12087912087912088, 0.12942612942612944, 0.18315018315018314, -0.375, -0.09375, 0.15625, 1.0
368, 0.08424908424908426, -0.23931623931623933, 0.2844932844932845, 0.0, -0.1875, 0.125, 1.0
369, 0.0927960927960928, -1.1172161172161172, -0.4603174603174603, 0.21875, -0.25, 0.125, 1.0
370, 0.10500610500610501, -2.0976800976800978, -1.2075702075702075, 0.1875, -0.25, 0.1875, 1.0
371, -0.05982905982905983, -3.2564102564102564, -1.8278388278388278, -0.28125, -0.03125, 0.0625, 1.0
372, 0.1807081807081807, -3.1343101343101343, -1.054945054945055, -0.75, 0.15625, 0.0, 1.0
373, 0.7264957264957265, -2.6263736263736264, 0.21245421245421245, -0.5, 0.0, -0.0625, 1.0
374, 0.336996336996337, -3.686202686202686, -0.32844932844932845, -0.25, -0.25, -0.03125, 1.0
375, 0.46886446886446886, -4.483516483516484, -1.0256410256410255, -0.40625, -0.59375, -0.0625, 1.0
376, -1.4603174603174602, -3.9926739926739927, -1.304029304029304, -0.6875, -0.0625, -0.4375, 1.0
377, -2.238095238095238, -3.6984126984126986, -0.7301587301587301, -0.5, 0.53125, -0.1875, 1.0
378, -0.35653235653235654, -3.8058608058608057, 0.6898656898656899, -0.34375, -0.09375, 0.0, 1.0
379, -0.12698412698412698, -2.965811965811966, 1.363858363858364, -0.375, -0.625, 0.0, 1.0
380, -0.04884004884004884, -2.978021978021978, 1.4407814407814408, -0.46875, -0.46875, 0.0, 1.0
381, -0.6642246642246642, -2.6971916971916974, 0.8852258852258852, -0.53125, 0.1875, -0.0625, 1.0
382, -0.12942612942612944, -2.531135531135531, 1.144078144078144, -0.375, 0.59375, -0.1875, 1.0
383, 0.8974358974358975, -2.416361416361416, 1.4017094017094016, -0.3125, 0.28125, -0.21875, 1.0
384, 0.6471306471306472, -1.188034188034188, 1.343101343101343, -0.375, 0.0, -0.25, 1.0
385, 1.098901098901099, -1.7545787545787546, 0.3785103785103785, -0.75, -0.34375, -0.03125, 1.0
386, 0.13553113553113552, -0.1391941391941392, 0.5054945054945055, -0.875, -0.4375, 0.0, 1.0
387, -0.8742368742368742, 3.1013431013431014, 1.678876678876679, -0.25, 0.0, -0.28125, 1.0
388, -1.1941391941391941, 3.868131868131868, 1.3650793650793651, 0.25, 0.15625, -0.375, 1.0
389, -1.3296703296703296, 4.106227106227106, -0.08424908424908426, 0.09375, -0.0625, 0.0, 1.0
390, -0.33455433455433453, 4.609279609279609, -0.8192918192918193, -0.53125, -0.46875, 0.40625, 1.0
391, -0.9267399267399268, 6.358974358974359, 0.4249084249084249, -0.15625, -0.0625, 0.28125, 1.0
392, -0.36874236874236876, 4.308913308913309, -0.8168498168498168, 0.46875, 0.46875, -0.09375, 1.0
393, 1.6898656898656899, 3.346764346764347, -1.078144078144078, 0.21875, 0.5, -0.09375, 1.0
394, 1.0586080586080586, 4.273504273504273, 0.1575091575091575, 0.03125, 0.4375, -0.1875, 1.0
395, -0.5225885225885226, 5.124542124542124, -0.3614163614163614, 0.25, 0.71875, -0.40625, 1.0
396, -1.623931623931624, 6.433455433455434, 0.6056166056166056, 0.1875, 0.65625, -0.34375, 1.0
397, -1.4163614163614164, 5.947496947496948, 1.0463980463980465, 0.40625, 0.3125, -0.28125, 1.0
398, -0.07936507936507936, 3.860805860805861, -0.08058608058608059, 0.28125, 0.0, 0.03125, 1.0
399, -0.4481074481074481, 3.087912087912088, -0.8754578754578755, -0.125, -0.15625, 0.15625, 0.0
400, -0.7472527472527473, 2.514041514041514, -1.1941391941391941, -0.375, 0.125, 0.0625, 0.0
401, -0.17582417582417584, 1.7716727716727716, -0.7594627594627594, -0.15625, 0.5, -0.09375, 0.0
402, 1.6166056166056166, 0.9523809523809523, -0.6678876678876678, 0.21875, 0.40625, -0.21875, 0.0
403, 1.413919413919414, 1.2026862026862026, -0.9242979242979243, 0.0, -0.34375, 0.0, 0.0
404, -0.05128205128205128, 2.542124542124542, -0.6056166056166056, -0.375, -0.53125, 0.0, 0.0
405, -0.6117216117216118, 3.1953601953601956, 0.05982905982905983, -0.3125, 0.03125, -0.21875, 0.0
406, -1.0146520146520146, 3.8253968253968256, 0.7094017094017094, 0.03125, 0.375, -0.4375, 0.0
407, -1.4065934065934067, 4.076923076923077, 0.2869352869352869, 0.4375, 0.375, -0.40625, 0.0
408, -1.4297924297924298, 3.6312576312576312, -0.23321123321123322, 0.3125, 0.3125, -0.125, 0.0
409, -1.0732600732600732, 2.6275946275946276, -0.3199023199023199, -0.15625, 0.03125, 0.375, 0.0
410, -1.0561660561660562, 1.6862026862026862, -0.7228327228327228, -0.71875, -0.125, 0.5625, 0.0
411, -1.2063492063492063, 2.227106227106227, -0.007326007326007326, -0.84375, 0.0625, 0.4375, 0.0
412, -1.8058608058608059, 2.249084249084249, 1.0354090354090355, -0.1875, 0.3125, 0.34375, 0.0
413, -0.8766788766788767, 0.6666666666666666, 0.9621489621489622, 0.40625, 0.15625, 0.59375, 0.0
414, -0.27472527472527475, -0.7484737484737485, 0.08302808302808302, 0.40625, -0.03125, 0.65625, 0.0
415, -0.1452991452991453, -1.2173382173382172, -0.06227106227106227, 0.0, 0.09375, 0.15625, 0.0
416, -0.14285714285714285, -1.9645909645909645, 0.5054945054945055, 0.125, 0.28125, -0.0625, 0.0
417, 0.5763125763125763, -2.8144078144078146, 0.46153846153846156, 0.28125, -0.09375, 0.53125, 0.0
418, 0.6385836385836385, -3.3956043956043955, -0.21367521367521367, 0.0625, -0.3125, 0.34375, 0.0
419, -0.1623931623931624, -2.8742368742368742, -0.2564102564102564, -0.03125, 0.0, -0.15625, 0.0
420, -0.21245421245421245, -2.8742368742368742, 0.49694749694749696, -0.21875, 0.4375, -0.9375, 0.0
421, -0.6495726495726496, -1.1746031746031746, 1.0732600732600732, 0.03125, 0.0, 0.0, 0.0
422, -1.065934065934066, -1.6581196581196582, 1.413919413919414, 0.40625, -0.90625, 1.0, 0.0
423, -2.1367521367521367, -2.8632478632478633, 0.34554334554334554, 0.375, -0.71875, 0.59375, 0.0
424, -1.3101343101343101, -3.9865689865689866, -0.4945054945054945, 0.09375, 0.1875, 0.4375, 0.0
425, 1.271062271062271, -5.1782661782661785, -0.6642246642246642, -0.59375, 0.4375, -0.125, 0.0
426, 0.42002442002442003, -3.9474969474969477, 0.6666666666666666, -0.53125, 0.09375, -0.125, 0.0
427, -0.46153846153846156, -3.398046398046398, 1.5445665445665446, 0.1875, -0.03125, 0.34375, 0.0
428, 0.6727716727716728, -4.321123321123321, 0.3504273504273504, 0.40625, 0.09375, 0.3125, 0.0
429, 1.910866910866911, -4.90964590964591, -1.0818070818070817, -0.125, 0.125, -0.0625, 0.0
430, 0.5604395604395604, -4.013431013431013, -0.8107448107448108, -0.625, 0.3125, -0.5, 0.0
431, -0.5128205128205128, -1.8424908424908424, 0.8644688644688645, -0.15625, 0.34375, -0.25, 0.0
432, -0.2796092796092796, -1.452991452991453, 1.4517704517704517, 0.375, 0.25, -0.125, 0.0
433, -0.5738705738705738, -1.9682539682539681, -0.3052503052503053, 0.21875, 0.1875, 0.0, 0.0
434, -0.7912087912087912, -2.214896214896215, -1.15018315018315, -0.3125, 0.28125, 0.03125, 0.0
435, -1.0341880341880343, -1.407814407814408, -0.7106227106227107, -0.4375, 0.40625, 0.03125, 0.0
436, -0.6727716727716728, -0.42002442002442003, 0.2967032967032967, 0.0, 0.40625, 0.125, 0.0
437, -0.34065934065934067, -0.8131868131868132, -0.4126984126984127, 0.15625, 0.25, 0.15625, 0.0
438, -0.15995115995115994, -1.4725274725274726, -1.1196581196581197, -0.125, 0.0, 0.21875, 0.0
439, -0.4884004884004884, -1.4297924297924298, -0.8437118437118437, -0.40625, 0.0625, 0.125, 0.0
440, -0.5836385836385837, -1.083028083028083, -0.2087912087912088, -0.375, 0.375, 0.1875, 0.0
441, 1.2283272283272284, -0.11843711843711843, 1.2039072039072038, 0.03125, 0.1875, 0.09375, 0.0
442, 0.6214896214896215, -0.536019536019536, -0.2490842490842491, 0.125, -0.3125, 0.0625, 0.0
443, -1.4639804639804639, -0.336996336996337, -1.4627594627594627, -0.09375, -0.65625, 0.03125, 0.0
444, -1.9877899877899878, -0.35775335775335776, -1.054945054945055, -0.09375, -0.21875, 0.15625, 0.0
445, -0.6117216117216118, -0.27350427350427353, 0.040293040293040296, 0.125, 0.375, 0.1875, 0.0
446, 1.0354090354090355, -0.5067155067155067, 0.8412698412698413, 0.4375, 0.25, 0.1875, 0.0
447, 0.49572649572649574, -0.8424908424908425, 0.11477411477411477, 0.40625, -0.28125, -0.125, 1.0
448, -1.0952380952380953, -1.3015873015873016, -1.0732600732600732, 0.1875, -0.34375, -0.46875, 1.0
449, -2.52991452991453, -0.25274725274725274, -0.6654456654456654, -0.25, 0.09375, 0.0, 1.0
450, -0.44078144078144077, -0.4078144078144078, 0.4945054945054945, -0.0625, 0.59375, 0.375, 1.0
451, 1.4004884004884004, -1.2295482295482296, 0.6422466422466423, 0.0, 0.25, 0.5, 1.0
452, -0.4700854700854701, -1.1318681318681318, 0.23076923076923078, -0.21875, -0.1875, 0.34375, 1.0
453, -0.38217338217338215, -1.5836385836385836, -0.6178266178266179, -0.03125, 0.03125, 0.375, 1.0
454, 1.3357753357753357, -3.275946275946276, -1.3345543345543345, 0.15625, -0.15625, 0.375, 1.0
455, 0.4236874236874237, -3.4395604395604398, -1.1306471306471306, -0.09375, -0.625, 0.25, 1.0
456, -0.6398046398046398, -2.8131868131868134, -0.23687423687423687, -0.3125, -0.4375, 0.03125, 1.0
457, -0.8144078144078144, -3.021978021978022, -0.46886446886446886, -0.5, 0.0, -0.15625, 1.0
458, -0.4713064713064713, -3.236874236874237, -0.25274725274725274, -0.8125, 0.03125, -0.125, 1.0
459, -0.36752136752136755, -4.020757020757021, -0.10744810744810745, -0.75, -0.21875, -0.0625, 1.0
460, -0.7435897435897436, -5.1440781440781445, -0.6031746031746031, -0.5, -0.40625, 0.0, 1.0
461, -0.8400488400488401, -4.0927960927960925, 0.3614163614163614, -0.625, -0.375, -0.0625, 1.0
462, 0.3089133089133089, -3.3015873015873014, 1.938949938949939, -0.375, -0.4375, -0.21875, 1.0
463, -0.1746031746031746, -3.8705738705738706, 1.0134310134310134, -0.3125, -0.625, -0.25, 1.0
464, -1.0952380952380953, -4.556776556776557, -0.24175824175824176, -0.53125, -0.40625, -0.1875, 1.0
465, -0.5641025641025641, -4.766788766788767, -0.1575091575091575, -0.65625, 0.03125, -0.25, 1.0
466, -0.008547008547008548, -2.625152625152625, 1.5653235653235653, -0.71875, 0.21875, -0.375, 1.0
467, 0.6398046398046398, -0.6556776556776557, 3.081807081807082, -0.625, 0.03125, -0.15625, 1.0
468, 0.3797313797313797, 0.5946275946275946, 2.3968253968253967, -0.65625, -0.28125, 0.40625, 1.0
469, 0.3772893772893773, 0.7264957264957265, 2.244200244200244, -0.59375, -0.46875, 0.28125, 1.0
470, -0.38217338217338215, 1.0622710622710623, 1.1855921855921856, -0.09375, 0.0625, -0.21875, 1.0
471, -0.5201465201465202, 2.133089133089133, 0.9242979242979243, 0.375, 0.46875, -0.28125, 1.0
472, 1.0244200244200243, 4.199023199023199, 0.6996336996336996, 0.46875, 0.09375, -0.40625, 1.0
473, -0.17216117216117216, 6.698412698412699, -0.7997557997557998, 0.5, 0.09375, -0.4375, 1.0
474, -0.9682539682539683, 7.792429792429792, -1.5543345543345544, 0.6875, 0.5625, -0.75, 1.0
475, -2.347985347985348, 7.676434676434677, -1.5164835164835164, 0.71875, 1.1875, -0.78125, 1.0
476, -3.0134310134310134, 7.526251526251526, -2.1684981684981683, 0.5625, 1.125, -0.375, 1.0
477, -1.9694749694749696, 7.785103785103785, -1.612942612942613, 0.28125, 0.65625, 0.0, 1.0
478, 0.7765567765567766, 6.068376068376068, 0.18803418803418803, 0.09375, 0.59375, 0.0625, 1.0
479, 1.192918192918193, 4.771672771672772, 0.7448107448107448, 0.125, 0.28125, 0.03125, 1.0
480, 0.503052503052503, 3.5006105006105006, -0.08058608058608059, -0.03125, -0.46875, 0.125, 1.0
481, -1.1697191697191698, 3.7655677655677655, -0.9963369963369964, 0.0625, -0.5625, 0.09375, 1.0
482, -1.236874236874237, 2.590964590964591, -2.083028083028083, 0.09375, -0.125, -0.0625, 1.0
483, -0.3907203907203907, 0.9352869352869353, -2.6105006105006106, -0.5625, -0.09375, 0.25, 0.0
484, -0.5262515262515263, 0.8681318681318682, -1.6727716727716728, -1.125, -0.0625, 0.34375, 0.0
485, -0.22344322344322345, 1.0012210012210012, -0.6874236874236874, -1.0625, 0.34375, 0.1875, 0.0
486, 0.029304029304029304, 1.735042735042735, -0.0989010989010989, -0.6875, 0.625, -0.125, 0.0
487, -0.2686202686202686, 2.688644688644689, 0.8925518925518926, 0.09375, 0.46875, -0.21875, 0.0
488, -0.1111111111111111, 2.7936507936507935, 0.24786324786324787, 0.09375, 0.3125, -0.125, 0.0
489, -0.43833943833943834, 3.4945054945054945, 0.031746031746031744, -0.5, 0.15625, 0.25, 0.0
490, -0.3321123321123321, 2.617826617826618, 0.2783882783882784, -0.375, 0.0, 0.21875, 0.0
491, -0.25396825396825395, 0.894993894993895, -0.9621489621489622, 0.0625, -0.0625, 0.21875, 0.0
492, 0.29426129426129427, 0.6263736263736264, -2.1294261294261294, 0.0, -0.0625, 0.40625, 0.0
493, -0.6568986568986569, 1.9902319902319903, -1.568986568986569, -0.53125, 0.1875, 0.3125, 0.0
494, -1.2197802197802199, 2.84004884004884, 0.33821733821733824, -0.78125, 0.625, 0.375, 0.0
495, 0.05616605616605617, 1.0695970695970696, 1.4505494505494505, -0.625, 0.375, 0.5, 0.0
496, -0.6910866910866911, 0.78998778998779, 1.188034188034188, -0.28125, -0.3125, 0.75, 0.0
497, -1.5543345543345544, 0.8205128205128205, 0.32967032967032966, 0.0625, -0.40625, 0.8125, 0.0
498, -1.6178266178266179, 0.2796092796092796, -0.08547008547008547, 0.125, 0.1875, 0.53125, 0.0
499, -0.23687423687423687, -1.5897435897435896, 0.20024420024420025, -0.03125, 0.90625, 0.25, 0.0
500, 1.6336996336996337, -3.4676434676434678, 0.9706959706959707, -0.0625, 0.65625, 0.0, 0.0
501, 0.20146520146520147, -2.8034188034188032, 1.1965811965811965, 0.0, -0.28125, -0.125, 0.0
502, -1.2820512820512822, -2.6837606837606836, 0.4822954822954823, 0.21875, -0.5, 0.25, 0.0
503, -0.2686202686202686, -3.4053724053724053, -0.5836385836385837, 0.28125, 0.15625, 0.25, 0.0
504, 1.0598290598290598, -3.9536019536019538, -0.9352869352869353, 0.25, 0.4375, 0.1875, 0.0
505, 0.12454212454212454, -3.1892551892551895, 0.04151404151404151, 0.09375, -0.125, 0.3125, 0.0
506, -0.8717948717948718, -2.440781440781441, 1.2026862026862026, 0.03125, -0.5625, 0.28125, 0.0
507, -1.4835164835164836, -3.271062271062271, 1.5128205128205128, 0.1875, 0.0, 0.25, 0.0
508, 0.46153846153846156, -4.648351648351649, 1.3711843711843712, 0.25, 0.5625, 0.5, 0.0
509, 1.2478632478632479, -4.207570207570208, 1.4236874236874237, 0.15625, 0.21875, 0.34375, 0.0
510, 0.08791208791208792, -3.9474969474969477, 1.3137973137973138, 0.28125, -0.34375, 0.0, 0.0
511, -1.216117216117216, -4.010989010989011, 0.24175824175824176, 0.34375, -0.25, -0.28125, 0.0
512, -1.1489621489621489, -4.472527472527473, -1.2026862026862026, 0.21875, 0.15625, -0.0625, 0.0
513, 0.7887667887667887, -4.84004884004884, -1.4664224664224663, -0.21875, 0.03125, 0.25, 0.0
514, 0.7814407814407814, -3.559218559218559, -0.4810744810744811, -0.25, -0.96875, 0.0, 0.0
515, -1.192918192918193, -2.3455433455433456, 0.07936507936507936, 0.1875, -0.53125, -0.15625, 0.0
516, -1.8742368742368742, -2.26007326007326, -0.8974358974358975, 0.21875, 0.25, -0.15625, 0.0
517, -1.098901098901099, -2.363858363858364, -1.5433455433455434, -0.125, 0.1875, 0.125, 0.0
518, -0.8937728937728938, -2.3907203907203907, -1.4456654456654456, -0.5, 0.03125, 0.15625, 0.0
519, -0.9133089133089133, -1.5592185592185592, -0.3076923076923077, -0.34375, 0.21875, 0.09375, 0.0
520, -0.20146520146520147, -1.568986568986569, 0.3064713064713065, -0.09375, 0.375, 0.125, 0.0
521, 0.7912087912087912, -1.978021978021978, 0.3333333333333333, -0.25, 0.0, 0.09375, 0.0
522, 0.15262515262515264, -1.4395604395604396, 0.12332112332112333, -0.28125, -0.40625, 0.0, 0.0
523, -1.4285714285714286, -1.1465201465201464, -0.47863247863247865, -0.125, -0.25, 0.0625, 0.0
524, -1.2185592185592184, -1.2735042735042734, -0.36874236874236876, 0.0, 0.125, 0.125, 0.0
525, -0.17338217338217338, -0.8534798534798534, 0.030525030525030524, 0.1875, 0.25, 0.09375, 0.0
526, -0.02564102564102564, -0.12332112332112333, 0.5286935286935287, 0.5, -0.03125, 0.03125, 1.0
527, -0.9841269841269841, -0.7802197802197802, 0.4981684981684982, 0.5, -0.15625, 0.125, 1.0
528, -1.9597069597069596, -0.8803418803418803, -0.8852258852258852, 0.0, 0.3125, 0.15625, 1.0
529, -0.3663003663003663, -1.6312576312576312, -0.73992673992674, -0.40625, 0.40625, 0.28125, 1.0
530, 1.0708180708180708, -1.3418803418803418, 0.054945054945054944, -0.5625, -0.0625, 0.3125, 1.0
531, 0.5628815628815629, -1.216117216117216, -0.21855921855921856, -0.5, -0.03125, 0.125, 1.0
532, -0.23687423687423687, -1.1916971916971917, -0.905982905982906, -0.34375, 0.125, 0.0625, 1.0
533, 0.04151404151404151, -1.0024420024420024, -0.6996336996336996, -0.09375, -0.21875, 0.21875, 1.0
534, 0.5262515262515263, -1.3553113553113554, 0.04395604395604396, 0.03125, -0.5625, 0.09375, 1.0
535, -0.5054945054945055, -1.5763125763125763, -0.36752136752136755, -0.03125, -0.3125, 0.0, 1.0
536, -0.757020757020757, -2.1855921855921854, -0.6935286935286935, -0.09375, -0.15625, 0.0, 1.0
537, -0.41147741147741146, -3.5518925518925517, -1.2026862026862026, -0.375, -0.21875, 0.09375, 1.0
538, -0.7704517704517705, -3.5409035409035408, -1.0158730158730158, -0.40625, 0.09375, 0.09375, 1.0
539, -1.0622710622710623, -2.8974358974358974, -0.07936507936507936, -0.03125, 0.59375, 0.09375, 1.0
540, 0.9072039072039072, -4.362637362637362, -0.7142857142857143, -0.0625, 0.5625, 0.125, 1.0
541, 1.2332112332112333, -5.231990231990232, -0.42246642246642246, -0.65625, -0.625, 0.09375, 1.0
542, -1.5335775335775337, -3.4725274725274726, 0.9914529914529915, -1.28125, -1.09375, 0.09375, 1.0
543, -2.7484737484737485, -2.9145299145299144, 1.7716727716727716, -0.875, -0.03125, -0.03125, 1.0
544, -0.5506715506715507, -4.77045177045177, 1.6324786324786325, 0.0, 0.5625, 0.09375, 1.0
545, 0.5836385836385837, -4.263736263736264, 0.3064713064713065, -0.28125, 0.1875, 0.21875, 1.0
546, -0.10378510378510379, -2.4725274725274726, 1.2808302808302807, -0.75, 0.125, 0.0625, 1.0
547, -0.08791208791208792, -2.004884004884005, 1.2612942612942613, -0.6875, 0.5, 0.0, 1.0
548, -0.6092796092796092, -1.264957264957265, 1.4957264957264957, -0.34375, 0.5, -0.09375, 1.0
549, -1.1514041514041513, -0.07081807081807082, 1.4468864468864469, -0.09375, 0.1875, 0.0, 1.0
550, 0.15995115995115994, 0.9951159951159951, 0.7338217338217338, -0.03125, -0.1875, 0.125, 1.0
551, -0.006105006105006105, 3.0793650793650795, 0.37362637362637363, -0.0625, -0.5625, -0.125, 1.0
552, -0.3968253968253968, 4.1330891330891335, 0.05982905982905983, 0.28125, -0.34375, -0.28125, 1.0
553, -0.5946275946275946, 4.62026862026862, -0.7728937728937729, 0.53125, 0.0, -0.5, 1.0
554, 0.05372405372405373, 5.503052503052503, -1.3821733821733821, 0.34375, 0.0, -0.40625, 1.0
555, -0.20634920634920634, 6.0818070818070815, -0.7728937728937729, 0.1875, -0.1875, -0.40625, 1.0
556, -2.092796092796093, 6.763125763125763, -0.26373626373626374, 0.375, 0.34375, -0.75, 1.0
557, -1.4126984126984128, 6.7997557997558, -0.7741147741147741, 0.71875, 0.625, -0.625, 1.0
558, -1.2197802197802199, 6.245421245421245, -1.4334554334554335, 0.5, 0.3125, -0.28125, 1.0
559, 0.4358974358974359, 4.854700854700854, -1.120879120879121, 0.03125, 0.5, -0.03125, 1.0
560, 0.8620268620268621, 4.931623931623932, 0.818070818070818, -0.25, 0.40625, 0.125, 1.0
561, 0.03418803418803419, 4.700854700854701, 1.326007326007326, 0.21875, 0.25, 0.03125, 1.0
562, 0.5323565323565324, 3.2954822954822953, 0.12942612942612944, 0.15625, 0.0, 0.25, 1.0
563, -0.07448107448107448, 3.340659340659341, 0.9133089133089133, -0.125, -0.03125, 0.15625, 0.0
564, 0.008547008547008548, 2.3028083028083026, 0.7521367521367521, 0.125, 0.25, 0.0, 0.0
565, 0.3711843711843712, 1.3284493284493284, -0.45665445665445664, 0.3125, 0.15625, -0.0625, 0.0
566, 1.297924297924298, -0.1343101343101343, -1.9181929181929183, -0.0625, -0.3125, 0.0625, 0.0
567, 0.9072039072039072, 0.221001221001221, -2.8644688644688645, -0.5625, -0.40625, 0.15625, 0.0
568, -0.2087912087912088, 1.9242979242979243, -2.227106227106227, -0.65625, 0.0625, -0.03125, 0.0
569, -0.41147741147741146, 3.0024420024420024, -0.9951159951159951, -0.34375, 0.375, -0.25, 0.0
570, -0.9047619047619048, 3.976800976800977, 0.004884004884004884, 0.09375, 0.46875, -0.375, 0.0
571, -0.8998778998778999, 3.63003663003663, 0.008547008547008548, 0.21875, 0.375, -0.25, 0.0
572, -0.326007326007326, 2.5824175824175826, -0.2954822954822955, -0.25, 0.0, 0.125, 0.0
573, -0.5433455433455433, 1.7936507936507937, -0.873015873015873, -0.75, -0.21875, 0.34375, 0.0
574, -0.6214896214896215, 1.1306471306471306, -0.46642246642246643, -0.75, -0.09375, 0.375, 0.0
575, -0.5604395604395604, 1.2087912087912087, -0.43833943833943834, -0.40625, 0.0, 0.28125, 0.0
576, -0.4017094017094017, 1.3247863247863247, -0.11233211233211234, -0.125, 0.125, 0.28125, 0.0
577, -0.4822954822954823, 0.5946275946275946, -0.1794871794871795, -0.1875, 0.21875, 0.28125, 0.0
578, -0.8571428571428571, -0.09768009768009768, -0.231990231990232, -0.40625, 0.28125, 0.34375, 0.0
579, -1.1721611721611722, -0.16483516483516483, 0.050061050061050064, -0.5, 0.53125, 0.3125, 0.0
580, -0.0757020757020757, -0.9682539682539683, 0.7472527472527473, -0.40625, 0.4375, 0.09375, 0.0
581, 0.019536019536019536, -2.1684981684981683, 0.7973137973137974, -0.0625, 0.09375, -0.03125, 0.0
582, 0.5311355311355311, -2.78021978021978, 0.1684981684981685, 0.375, -0.09375, 0.15625, 0.0
583, 0.07936507936507936, -2.9511599511599513, -0.3052503052503053, 0.5, 0.21875, -0.21875, 0.0
584, -0.34798534798534797, -2.6715506715506714, -0.2979242979242979, 0.09375, 0.5, -0.3125, 0.0
585, -0.7081807081807082, -2.0244200244200243, 0.5457875457875457, -0.3125, 0.125, -0.21875, 0.0
586, -0.6825396825396826, -2.0525030525030523, 1.7973137973137974, -0.15625, -0.4375, 0.03125, 0.0
587, -1.006105006105006, -2.807081807081807, 2.1135531135531136, 0.625, -0.21875, -0.25, 0.0
588, -0.2442002442002442, -4.266178266178266, -0.7032967032967034, 0.40625, 0.0625, 0.03125, 0.0
589, -0.052503052503052504, -3.9047619047619047, -0.38095238095238093, -0.125, -0.1875, 0.40625, 0.0
590, -1.1013431013431014, -3.47985347985348, 0.2576312576312576, 0.0, -0.3125, 0.34375, 0.0
591, -0.41147741147741146, -4.565323565323565, 0.07692307692307693, 0.53125, 0.0, 0.375, 0.0
592, 1.249084249084249, -5.3247863247863245, -0.5616605616605617, 0.40625, 0.0625, 0.09375, 0.0
593, 0.04151404151404151, -4.893772893772894, -1.2087912087912087, -0.09375, 0.15625, -0.4375, 0.0
594, 1.0927960927960927, -4.22954822954823, -0.6336996336996337, -0.28125, 0.1875, 0.09375, 0.0
595, 0.6043956043956044, -3.57997557997558, 0.40415140415140416, -0.125, -0.5625, 0.0625, 0.0
596, -1.3626373626373627, -2.6764346764346763, 0.2869352869352869, -0.0625, -0.5625, -0.03125, 0.0
597, -0.1514041514041514, -2.9194139194139193, 0.37484737484737485, -0.15625, 0.21875, -0.1875, 0.0
598, 0.7533577533577533, -2.445665445665446, 0.6434676434676435, -0.4375, 0.34375, -0.1875, 0.0
599, -0.32844932844932845, -1.586080586080586, 1.0195360195360195, -0.28125, -0.125, -0.09375, 0.0
600, -1.4273504273504274, -1.1868131868131868, 0.46764346764346765, 0.0625, -0.1875, -0.03125, 0.0
601, -1.2686202686202686, -1.540903540903541, -0.41147741147741146, 0.125, 0.125, -0.0625, 0.0
602, -0.8205128205128205, -1.5299145299145298, -0.5958485958485958, -0.09375, 0.09375, 0.0, 0.0
603, -0.6263736263736264, -1.0354090354090355, -0.29914529914529914, -0.125, -0.0625, 0.1875, 0.0
604, -0.3137973137973138, -0.9987789987789988, -0.38583638583638585, 0.03125, 0.0, 0.1875, 0.0
605, -0.5531135531135531, -0.9047619047619048, -0.8363858363858364, 0.0625, 0.03125, 0.09375, 0.0
606, -1.2039072039072038, -0.6434676434676435, -0.9340659340659341, -0.03125, 0.09375, 0.09375, 0.0
607, -0.8278388278388278, -0.20634920634920634, -0.23687423687423687, 0.0625, 0.09375, 0.25, 0.0
608, -0.45787545787545786, -0.23443223443223443, 0.21123321123321123, 0.4375, 0.0625, 0.25, 1.0
609, -0.10500610500610501, -1.1953601953601953, 0.2612942612942613, 0.71875, 0.125, 0.15625, 1.0
610, 0.4993894993894994, -2.1465201465201464, -0.4249084249084249, 0.40625, 0.125, 0.125, 1.0
611, 0.1221001221001221, -2.028083028083028, -0.9560439560439561, -0.28125, 0.0, 0.21875, 1.0
612, -0.27350427350427353, -1.3956043956043955, -0.673992673992674, -0.84375, -0.0625, 0.125, 1.0
613, -0.43833943833943834, -1.0402930402930404, 0.21855921855921856, -0.375, 0.0, 0.1875, 1.0
614, 0.6043956043956044, -2.122100122100122, 0.3028083028083028, -0.03125, -0.15625, 0.1875, 1.0
615, 1.1404151404151404, -2.8107448107448105, -0.2893772893772894, 0.0, -0.375, 0.1875, 1.0
616, -0.1330891330891331, -2.3443223443223444, -0.2673992673992674, 0.0625, -0.40625, 0.0625, 1.0
617, -1.5506715506715507, -2.2063492063492065, -0.047619047619047616, 0.0, -0.125, 0.1875, 1.0
618, -1.021978021978022, -2.6166056166056166, 0.06715506715506715, -0.21875, 0.09375, 0.3125, 1.0
619, -0.115995115995116, -3.0488400488400487, 0.10622710622710622, -0.3125, 0.0, 0.28125, 1.0
620, 0.5115995115995116, -4.04029304029304, 0.08424908424908426, -0.3125, -0.25, 0.25, 1.0
621, 0.3992673992673993, -3.924297924297924, 0.13186813186813187, -0.3125, -0.34375, 0.0, 1.0
622, -0.3724053724053724, -2.617826617826618, 0.6862026862026862, -0.15625, -0.09375, -0.09375, 1.0
623, -0.525030525030525, -2.9328449328449326, 0.8266178266178266, -0.03125, 0.0625, -0.09375, 1.0
624, -0.6398046398046398, -4.407814407814408, -0.15384615384615385, -0.34375, -0.09375, 0.125, 1.0
625, -0.8766788766788767, -4.986568986568987, -0.5775335775335775, -0.875, -0.375, 0.34375, 1.0
626, -0.8192918192918193, -3.137973137973138, 0.006105006105006105, -0.8125, -0.03125, 0.375, 1.0
627, 0.5592185592185592, -2.445665445665446, 0.8473748473748474, -0.5, 0.46875, 0.375, 1.0
628, 1.9255189255189256, -2.5274725274725274, 0.8620268620268621, -0.4375, 0.1875, 0.125, 1.0
629, 0.9914529914529915, -2.1880341880341883, 0.6178266178266179, -0.40625, -0.21875, 0.15625, 1.0
630, -0.5921855921855922, -0.7814407814407814, 0.39194139194139194, -0.5625, -0.375, 0.09375, 1.0
631, -1.2661782661782661, 1.5482295482295483, 1.321123321123321, -0.5, -0.03125, -0.28125, 1.0
632, -0.2686202686202686, 3.0354090354090353, 1.9755799755799757, -0.125, 0.21875, -0.40625, 1.0
633, -0.6910866910866911, 4.401709401709402, 1.6446886446886446, 0.28125, 0.375, -0.625, 1.0
634, 0.08302808302808302, 4.062271062271062, 0.28205128205128205, 0.375, 0.15625, -0.5, 1.0
635, -0.4444444444444444, 4.778998778998779, -0.32112332112332115, 0.1875, 0.46875, -0.625, 1.0
636, -1.4163614163614164, 6.553113553113553, -0.4468864468864469, 0.3125, 1.03125, -0.4375, 1.0
637, -0.29914529914529914, 7.221001221001221, -0.3724053724053724, 0.53125, 0.78125, -0.28125, 1.0
638, -0.5262515262515263, 6.887667887667888, -0.16483516483516483, 0.75, 0.8125, -0.1875, 1.0
639, -0.7753357753357754, 6.184371184371185, -0.4432234432234432, 0.75, 1.0625, -0.25, 1.0
640, -0.28815628815628813, 4.84004884004884, -0.7948717948717948, 0.34375, 0.71875, 0.125, 1.0
641, -0.48595848595848595, 5.559218559218559, -0.06715506715506715, -0.03125, 0.1875, 0.46875, 1.0
642, 0.23076923076923078, 4.704517704517705, 0.7680097680097681, 0.46875, 0.3125, 0.3125, 0.0
643, 1.2942612942612943, 1.9536019536019535, -1.15995115995116, 0.65625, 0.0, 0.375, 0.0
644, 0.8437118437118437, 0.5482295482295483, -2.114774114774115, 0.0, -0.46875, 0.59375, 0.0
645, 0.7338217338217338, 0.20024420024420025, -2.3443223443223444, -0.46875, -0.15625, 0.375, 0.0
646, 0.7631257631257631, 0.8046398046398047, -2.376068376068376, -0.71875, 0.3125, 0.0, 0.0
647, 0.3418803418803419, 2.1941391941391943, -0.833943833943834, -0.28125, 0.40625, -0.21875, 0.0
648, 0.525030525030525, 2.1904761904761907, -0.7802197802197802, 0.125, 0.15625, -0.25, 0.0
649, 0.006105006105006105, 3.115995115995116, -0.6691086691086691, -0.09375, -0.125, -0.15625, 0.0
650, -0.5006105006105006, 3.197802197802198, -0.17582417582417584, -0.5625, -0.21875, -0.0625, 0.0
651, -1.115995115995116, 2.52991452991453, -0.3663003663003663, -0.65625, -0.03125, 0.0, 0.0
652, -0.5238095238095238, 1.6971916971916972, -0.6556776556776557, -0.375, -0.09375, 0.15625, 0.0
653, -0.6800976800976801, 2.161172161172161, -0.4822954822954823, -0.15625, -0.0625, 0.15625, 0.0
654, -0.724053724053724, 2.0134310134310134, -0.7557997557997558, -0.125, 0.15625, 0.09375, 0.0
655, -0.8498168498168498, 0.9340659340659341, -0.8290598290598291, -0.5, 0.28125, 0.1875, 0.0
656, -0.7289377289377289, 0.6019536019536019, -0.05372405372405373, -0.96875, 0.21875, 0.65625, 0.0
657, -0.8327228327228328, 0.7301587301587301, 0.9731379731379731, -0.96875, 0.03125, 0.75, 0.0
658, -0.8400488400488401, 0.6947496947496947, 1.592185592185592, -0.34375, 0.0, 0.65625, 0.0
659, 0.1111111111111111, -1.822954822954823, 0.684981684981685, 0.28125, 0.34375, 0.25, 0.0
660, 1.3540903540903542, -4.582417582417582, -1.1355311355311355, 0.03125, 0.3125, 0.25, 0.0
661, 0.800976800976801, -3.8192918192918195, -1.398046398046398, -0.8125, -0.28125, 0.34375, 0.0
662, -0.927960927960928, -1.4725274725274726, 0.1111111111111111, -0.125, 0.03125, 0.0, 0.0
663, -0.8302808302808303, -1.6092796092796093, 0.8156288156288156, 0.75, 0.71875, -0.25, 0.0
664, 1.496947496947497, -3.9365079365079363, -0.21611721611721613, 0.53125, 0.4375, -0.46875, 0.0
665, 1.778998778998779, -5.385836385836386, -1.4554334554334554, -0.71875, -0.75, 0.34375, 0.0
666, 0.7643467643467643, -3.4554334554334556, -0.27228327228327226, -1.25, -1.53125, 0.46875, 0.0
667, -1.695970695970696, -0.8046398046398047, 1.73992673992674, -0.15625, -0.65625, 0.03125, 0.0
668, -2.462759462759463, -0.746031746031746, 2.105006105006105, 1.03125, 0.8125, -0.375, 0.0
669, 0.5384615384615384, -3.8131868131868134, 0.5616605616605617, 0.78125, 0.96875, -0.65625, 0.0
670, 1.3015873015873016, -5.230769230769231, -0.9597069597069597, -0.4375, -0.03125, -0.21875, 0.0
671, -0.38705738705738707, -3.733821733821734, -0.7008547008547008, -0.90625, -0.9375, 0.21875, 0.0
672, -2.6043956043956045, -2.1575091575091574, 0.6288156288156288, -0.3125, -0.40625, 0.28125, 0.0
673, -1.2698412698412698, -2.7826617826617825, 1.05006105006105, 0.3125, 0.46875, 0.28125, 0.0
674, 0.4908424908424908, -4.26984126984127, 0.3833943833943834, 0.375, 0.8125, -0.09375, 0.0
675, 0.7484737484737485, -4.205128205128205, -0.21123321123321123, -0.03125, 0.65625, 0.0625, 0.0
676, 1.9914529914529915, -3.2295482295482296, 0.14774114774114774, -0.3125, -0.03125, 0.21875, 0.0
677, 1.4163614163614164, -2.688644688644689, 0.21001221001221002, -0.21875, -0.8125, -0.0625, 0.0
678, -1.5421245421245422, -1.8766788766788767, -0.6691086691086691, 0.03125, -0.4375, -0.15625, 0.0
679, -1.894993894993895, -2.272283272283272, -1.1672771672771673, -0.0625, 0.28125, 0.0, 0.0
680, -1.043956043956044, -2.4188034188034186, -1.1526251526251525, -0.46875, 0.4375, 0.1875, 0.0
681, -0.5238095238095238, -1.9316239316239316, -0.48717948717948717, -0.34375, 0.21875, 0.25, 0.0
682, 0.08547008547008547, -1.4908424908424909, 0.6923076923076923, 0.21875, 0.03125, 0.25, 0.0
683, 0.5103785103785103, -1.7118437118437118, 0.5665445665445665, 0.28125, 0.03125, 0.0625, 0.0
684, 0.08547008547008547, -1.6153846153846154, 0.0463980463980464, 0.0, 0.03125, -0.09375, 0.0
685, -1.010989010989011, -1.0537240537240538, -0.1916971916971917, -0.125, 0.0, 0.0625, 0.0
686, -0.37606837606837606, -0.5067155067155067, 0.409035409035409, 0.125, 0.0, 0.21875, 0.0
687, 0.21367521367521367, -1.2442002442002442, -0.3064713064713065, 0.25, -0.03125, 0.15625, 0.0
688, -0.20512820512820512, -1.0415140415140416, -0.6996336996336996, 0.1875, 0.0, 0.03125, 0.0
689, -0.001221001221001221, -0.9218559218559218, -0.09401709401709402, 0.03125, 0.0, 0.125, 0.0
690, 0.17582417582417584, -0.2454212454212454, 0.851037851037851, 0.0625, -0.03125, 0.0, 1.0
691, -0.2588522588522589, -0.7423687423687424, 1.1001221001221002, 0.46875, -0.125, -0.0625, 1.0
692, -0.05860805860805861, -1.6227106227106227, -0.33943833943833945, 0.375, -0.03125, 0.15625, 1.0
693, 0.326007326007326, -1.5946275946275947, -1.2820512820512822, -0.25, -0.125, 0.21875, 1.0
694, -0.5152625152625152, -1.4774114774114775, -1.3601953601953602, -0.6875, -0.28125, 0.125, 1.0
695, -0.5702075702075702, -2.21978021978022, -1.0903540903540903, -0.53125, -0.0625, 0.15625, 1.0
696, 0.7142857142857143, -3.855921855921856, -1.221001221001221, -0.25, 0.03125, 0.21875, 1.0
697, 1.424908424908425, -3.6324786324786325, -0.7484737484737485, -0.375, -0.15625, 0.3125, 1.0
698, 0.21245421245421245, -2.5213675213675213, 0.7167277167277167, -0.3125, -0.71875, 0.5, 1.0
699, -0.8388278388278388, -2.7203907203907205, 0.46153846153846156, -0.03125, -0.625, 0.34375, 1.0
700, -1.9865689865689866, -4.4603174603174605, -1.4371184371184371, 0.0625, -0.09375, 0.34375, 1.0
701, -1.6434676434676434, -6.289377289377289, -1.8376068376068375, 0.09375, 0.125, 0.65625, 1.0
702, -0.12942612942612944, -5.173382173382174, -0.6446886446886447, -0.21875, 0.4375, 0.5, 1.0
703, 1.4835164835164836, -2.9584859584859586, 1.6043956043956045, -0.59375, 0.1875, 0.53125, 1.0
704, -0.4139194139194139, -1.8156288156288156, 1.9792429792429793, -0.5, 0.03125, 0.375, 1.0
705, -2.004884004884005, -2.885225885225885, 0.5982905982905983, -0.4375, 0.375, 0.03125, 1.0
706, -2.341880341880342, -2.2967032967032965, 0.5824175824175825, -0.65625, 0.65625, -0.0625, 1.0
707, 0.02564102564102564, -0.4249084249084249, 2.705738705738706, -0.84375, 0.1875, 0.125, 1.0
708, 0.34676434676434675, 0.40293040293040294, 2.967032967032967, -0.90625, -0.625, 0.125, 1.0
709, -0.9291819291819292, 0.8827838827838828, 2.358974358974359, -0.46875, -0.6875, -0.15625, 1.0
710, -0.8363858363858364, 0.34798534798534797, 1.0036630036630036, 0.375, 0.375, -0.65625, 1.0
711, 0.34065934065934067, -0.5641025641025641, 0.028083028083028084, 0.0625, 0.21875, -0.625, 1.0
712, 0.4456654456654457, 0.7106227106227107, 0.6495726495726496, -0.25, -0.15625, -0.59375, 1.0
713, -0.2258852258852259, 2.606837606837607, 1.1514041514041513, 0.0, 0.15625, -0.75, 0.0
714, 0.23443223443223443, 2.595848595848596, -0.047619047619047616, 0.5, 0.34375, -1.03125, 0.0
715, -0.47374847374847373, 2.8766788766788767, -2.004884004884005, 0.75, 0.375, -1.125, 0.0
716, -0.2783882783882784, 3.161172161172161, -2.9035409035409034, 0.53125, 0.53125, -1.0625, 0.0
717, -1.800976800976801, 5.932844932844933, -1.3186813186813187, 0.625, 1.0625, -1.15625, 0.0
718, -2.197802197802198, 8.36019536019536, -0.5958485958485958, 0.8125, 1.09375, -0.875, 0.0
719, -2.8180708180708183, 9.288156288156289, -0.6019536019536019, 0.46875, 0.78125, -0.28125, 0.0
720, -1.452991452991453, 8.37973137973138, 0.4432234432234432, 0.375, 0.1875, 0.0625, 0.0
721, -0.8534798534798534, 6.527472527472527, 0.8327228327228328, 0.40625, 0.09375, 0.25, 0.0
722, 0.5152625152625152, 2.398046398046398, -1.192918192918193, -0.03125, 0.0, 0.46875, 0.0
723, 0.39438339438339437, 0.9902319902319903, -2.5518925518925517, -0.65625, 0.03125, 0.53125, 0.0
724, 0.11233211233211234, 0.3028083028083028, -3.10989010989011, -1.4375, 0.53125, 0.46875, 0.0
725, 0.1978021978021978, 0.14407814407814407, -2.907203907203907, -2.4375, 1.0625, 0.5625, 0.0
726, 1.1013431013431014, 2.8144078144078146, 0.3663003663003663, -1.5625, 0.40625, 0.40625, 0.0
727, 0.315018315018315, 3.231990231990232, 2.590964590964591, 0.34375, -0.5625, 0.28125, 0.0
728, 0.6776556776556777, 1.4847374847374848, -0.08302808302808302, 0.59375, -0.75, 0.21875, 0.0
729, 0.7692307692307693, 1.6874236874236874, -1.0561660561660562, -0.21875, -0.5, 0.25, 0.0
730, -0.23321123321123322, 3.3089133089133087, 0.2490842490842491, -0.5625, -0.09375, 0.125, 0.0
731, -0.757020757020757, 3.498168498168498, 1.5934065934065933, 0.09375, -0.21875, 0.09375, 0.0
732, -0.5567765567765568, 1.8437118437118436, 1.065934065934066, 0.65625, -0.46875, 0.15625, 0.0
733, 0.1514041514041514, 0.27594627594627597, -1.032967032967033, 0.34375, -0.53125, 0.15625, 0.0
734, -0.8351648351648352, 1.3907203907203907, -1.9572649572649572, -0.4375, 0.375, 0.09375, 0.0
735, -0.8229548229548229, 1.7643467643467643, 0.03418803418803419, -0.59375, 0.5625, 0.28125, 0.0
736, -0.7423687423687424, 1.8034188034188035, 1.8144078144078144, -0.3125, 0.1875, 0.5625, 0.0
737, -0.6263736263736264, 0.07081807081807082, 1.3492063492063493, 0.03125, -0.15625, 0.65625, 0.0
738, -0.3418803418803419, -2.1465201465201464, -0.5470085470085471, 0.21875, -0.1875, 0.65625, 0.0
739, 0.8913308913308914, -3.2234432234432235, -1.7521367521367521, -0.1875, 0.09375, 0.59375, 0.0
740, 0.5543345543345544, -2.0842490842490844, -0.6312576312576312, -0.65625, 0.25, 0.40625, 0.0
741, -0.702075702075702, -0.9267399267399268, 0.8437118437118437, -0.34375, 0.375, 0.0625, 0.0
742, -1.192918192918193, -1.8144078144078144, 0.3235653235653236, 0.46875, 0.8125, -0.09375, 0.0
743, 1.0024420024420024, -4.64957264957265, -1.3516483516483517, 0.46875, 0.75, 0.28125, 0.0
744, 0.9157509157509157, -3.857142857142857, -1.586080586080586, -0.625, 0.0, 0.1875, 0.0
745, -1.028083028083028, -1.5592185592185592, -0.10134310134310134, -1.1875, -0.3125, -0.0625, 0.0
746, -2.421245421245421, -0.5836385836385837, 2.032967032967033, -0.1875, -0.0625, -0.5, 0.0
747, -2.094017094017094, -2.8815628815628815, 1.2686202686202686, 1.15625, 0.59375, -0.15625, 0.0
748, 0.9877899877899878, -5.981684981684982, -1.1245421245421245, 0.90625, 0.25, 0.6875, 0.0
749, 1.1978021978021978, -5.283272283272283, -1.1355311355311355, -0.625, -0.9375, 0.4375, 0.0
750, -1.0146520146520146, -2.283272283272283, 0.29304029304029305, -1.1875, -0.90625, -0.03125, 0.0
751, -2.0134310134310134, -1.7606837606837606, 1.2881562881562882, 0.0, 0.375, -0.4375, 0.0
752, 0.2954822954822955, -4.719169719169719, -0.3894993894993895, 1.03125, 1.1875, -0.03125, 0.0
753, 2.6043956043956045, -6.2234432234432235, -1.8302808302808302, 0.375, 0.1875, 0.0, 0.0
754, 0.5470085470085471, -4.25030525030525, -1.2832722832722834, -0.71875, -0.90625, -0.40625, 0.0
755, -1.4932844932844933, -1.4371184371184371, 0.25518925518925517, -0.625, -0.34375, -0.34375, 0.0
756, -0.9951159951159951, -2.2808302808302807, 0.9731379731379731, 0.3125, 0.53125, -0.15625, 0.0
757, -0.040293040293040296, -3.1233211233211233, 0.11477411477411477, 0.53125, 0.6875, -0.3125, 0.0
758, 0.047619047619047616, -2.982905982905983, -0.34798534798534797, 0.0, 0.21875, -0.0625, 0.0
759, -0.5079365079365079, -1.468864468864469, 0.1575091575091575, -0.375, -0.125, 0.125, 0.0
760, -1.1611721611721613, -0.8363858363858364, 0.8962148962148963, 0.21875, -0.0625, 0.21875, 0.0
761, -1.2783882783882783, -1.4603174603174602, 0.4896214896214896, 0.5, 0.15625, 0.28125, 0.0
762, -0.57997557997558, -2.1807081807081805, -0.45665445665445664, 0.15625, 0.375, 0.125, 0.0
763, -0.09035409035409035, -1.7448107448107448, -0.326007326007326, -0.1875, 0.3125, 0.0625, 0.0
764, -0.09523809523809523, -0.7496947496947497, 0.5347985347985348, 0.0, 0.03125, 0.0625, 0.0
765, -0.03540903540903541, -0.5494505494505495, 0.9291819291819292, 0.34375, -0.15625, 0.09375, 0.0
766, 0.13675213675213677, -1.3345543345543345, -0.1855921855921856, 0.21875, -0.28125, 0.0, 0.0
767, -0.7191697191697192, -1.5384615384615385, -1.5384615384615385, -0.21875, -0.25, 0.0, 0.0
768, -0.8986568986568987, -0.8376068376068376, -0.7851037851037851, -0.25, -0.03125, 0.0625, 0.0
769, -0.17338217338217338, 0.16727716727716727, 0.7582417582417582, 0.34375, 0.0, 0.03125, 0.0
770, 0.1855921855921856, -0.15995115995115994, 0.989010989010989, 0.8125, -0.09375, 0.0625, 1.0
771, 0.026862026862026864, -1.181929181929182, 0.47741147741147744, 0.59375, -0.21875, 0.125, 1.0
772, -0.42002442002442003, -1.2564102564102564, -1.1465201465201464, -0.0625, -0.21875, 0.03125, 1.0
773, -1.1526251526251525, -1.0024420024420024, -1.1147741147741148, -0.5, -0.0625, 0.09375, 1.0
774, -0.5372405372405372, -0.8852258852258852, -0.608058608058608, -0.625, 0.15625, 0.125, 1.0
775, 0.673992673992674, -0.6385836385836385, 0.01221001221001221, -0.1875, 0.0, 0.0625, 1.0
776, 0.5543345543345544, -1.5714285714285714, 0.009768009768009768, 0.0, -0.3125, 0.21875, 1.0
777, -0.08058608058608059, -2.155067155067155, -0.684981684981685, -0.0625, -0.375, 0.21875, 1.0
778, -0.29181929181929184, -2.4236874236874235, -0.9084249084249084, -0.25, -0.21875, 0.09375, 1.0
779, -0.46764346764346765, -2.5054945054945055, -0.5824175824175825, -0.34375, -0.1875, 0.1875, 1.0
780, -0.5531135531135531, -2.484737484737485, -0.0231990231990232, -0.1875, -0.1875, 0.28125, 1.0
781, 0.11843711843711843, -2.4761904761904763, 0.44932844932844934, 0.0, -0.1875, 0.25, 1.0
782, 0.11355311355311355, -2.311355311355311, 0.7252747252747253, 0.125, -0.28125, 0.25, 1.0
783, -0.4432234432234432, -3.669108669108669, -0.33577533577533575, -0.1875, -0.21875, 0.09375, 1.0
784, -0.2026862026862027, -3.894993894993895, -0.11721611721611722, -0.40625, -0.1875, 0.0, 1.0
785, 0.590964590964591, -2.1001221001221, 1.551892551892552, -0.40625, -0.25, 0.0, 1.0
786, 0.35653235653235654, -1.424908424908425, 2.227106227106227, -0.25, -0.3125, -0.03125, 1.0
787, -0.9340659340659341, -2.2051282051282053, 1.1465201465201464, -0.15625, -0.4375, 0.0, 1.0
788, -2.021978021978022, -3.103785103785104, -0.002442002442002442, -0.15625, -0.375, 0.0625, 1.0
789, -0.778998778998779, -3.398046398046398, -0.7533577533577533, -0.53125, -0.21875, 0.34375, 1.0
790, 0.409035409035409, -1.8608058608058609, 0.326007326007326, -0.875, -0.28125, 0.375, 1.0
791, 0.4932844932844933, -1.2673992673992673, 0.7863247863247863, -0.78125, -0.03125, 0.125, 1.0
792, 0.1746031746031746, -1.73992673992674, 0.6752136752136753, -0.625, 0.25, -0.0625, 1.0
793, -0.12454212454212454, -2.6556776556776556, 1.010989010989011, -0.46875, 0.1875, -0.28125, 1.0
794, -0.1794871794871795, -1.2844932844932846, 0.7252747252747253, -0.28125, 0.0, -0.25, 1.0
795, 0.4725274725274725, 1.7252747252747254, 0.1282051282051282, -0.1875, -0.15625, -0.34375, 1.0
796, 0.6959706959706959, 3.4676434676434678, -0.7350427350427351, -0.15625, 0.21875, -0.75, 1.0
797, 0.3601953601953602, 3.9914529914529915, -0.304029304029304, -0.25, 0.5, -0.84375, 1.0
798, 0.17094017094017094, 4.21978021978022, 0.4163614163614164, -0.3125, 0.46875, -0.78125, 1.0
799, -2.8656898656898657, 7.142857142857143, 0.004884004884004884, -0.03125, 0.5, -0.84375, 1.0
800, -3.0085470085470085, 9.197802197802197, 0.7094017094017094, 0.6875, 1.0, -1.0, 1.0
801, -2.976800976800977, 8.974358974358974, -0.07448107448107448, 1.0, 1.03125, -0.90625, 1.0
802, -2.4224664224664223, 8.145299145299145, -0.4432234432234432, 0.4375, 0.9375, -0.15625, 1.0
803, -2.6556776556776556, 8.300366300366301, 0.4810744810744811, 0.09375, 0.53125, 0.375, 1.0
804, -1.0122100122100122, 6.103785103785103, 0.16727716727716727, 0.4375, 0.4375, 0.5, 1.0
805, 1.647130647130647, 3.642246642246642, 0.34065934065934067, 0.34375, 0.0, 0.65625, 1.0
806, 1.4114774114774116, 2.352869352869353, -0.5641025641025641, 0.1875, -0.375, 0.625, 0.0
807, 1.6617826617826619, 1.010989010989011, -1.5811965811965811, 0.125, 0.0, 0.375, 0.0
808, 1.5262515262515262, -0.02442002442002442, -2.0256410256410255, -0.5625, 0.0625, 0.21875, 0.0
809, 0.9462759462759462, 1.2405372405372406, -2.001221001221001, -0.625, 0.0, 0.0625, 0.0
810, 0.10989010989010989, 2.42002442002442, -0.6153846153846154, 0.03125, -0.03125, -0.125, 0.0
811, -0.3052503052503053, 2.8595848595848596, -1.1355311355311355, 0.15625, 0.09375, -0.25, 0.0
812, -0.7777777777777778, 3.8290598290598292, -0.6227106227106227, 0.0, 0.375, -0.3125, 0.0
813, -1.0634920634920635, 4.4603174603174605, 0.15262515262515264, -0.15625, 0.40625, -0.25, 0.0
814, -0.4261294261294261, 3.023199023199023, 0.07814407814407814, -0.28125, -0.125, 0.0625, 0.0
815, -0.7667887667887668, 2.31013431013431, -0.5921855921855922, -0.34375, -0.5625, 0.34375, 0.0
816, -1.1489621489621489, 2.857142857142857, -1.1367521367521367, -0.3125, -0.28125, 0.3125, 0.0
817, -1.7216117216117217, 3.750915750915751, -0.6361416361416361, -0.3125, 0.3125, 0.21875, 0.0
818, -1.7606837606837606, 3.010989010989011, 0.028083028083028084, -0.4375, 0.65625, 0.25, 0.0
819, -0.3968253968253968, 1.115995115995116, 0.14896214896214896, -0.90625, 0.3125, 0.40625, 0.0
820, -0.3308913308913309, 0.10500610500610501, 0.5262515262515263, -0.9375, -0.5, 0.875, 0.0
821, -0.5445665445665445, -0.1855921855921856, 0.63003663003663, -0.34375, -0.75, 1.09375, 0.0
822, -0.6019536019536019, -0.8717948717948718, -0.29426129426129427, 0.25, 0.09375, 0.40625, 0.0
823, -0.08302808302808302, -1.5555555555555556, -1.0512820512820513, 0.3125, 1.1875, -0.0625, 0.0
824, 2.144078144078144, -2.8754578754578755, -1.1782661782661783, -0.3125, 0.875, -0.3125, 0.0
825, 1.6349206349206349, -2.7423687423687424, 0.001221001221001221, -0.28125, -0.28125, -0.09375, 0.0
826, 0.5152625152625152, -2.912087912087912, -0.2087912087912088, -0.125, -0.8125, 0.21875, 0.0
827, -0.4725274725274725, -2.716727716727717, -1.0207570207570207, -0.125, -0.25, -0.1875, 0.0
828, -0.8156288156288156, -2.3235653235653237, -0.8925518925518926, -0.15625, 0.65625, -0.375, 0.0
829, 0.7142857142857143, -2.5921855921855923, -0.4652014652014652, -0.4375, 0.40625, -0.34375, 0.0
830, 0.6764346764346765, -2.456654456654457, 0.7924297924297924, -0.5625, -0.75, -0.09375, 0.0
831, -1.0964590964590966, -2.0976800976800978, 0.8376068376068376, -0.53125, -1.15625, 0.125, 0.0
832, -3.0586080586080584, -2.294261294261294, 0.06471306471306472, -0.09375, 0.8125, -0.15625, 0.0
833, 0.3431013431013431, -3.0354090354090353, -0.2869352869352869, -0.25, 1.25, 0.0625, 0.0
834, 0.1794871794871795, -2.722832722832723, 0.967032967032967, -0.34375, 0.3125, 0.15625, 0.0
835, -1.170940170940171, -2.3443223443223444, 1.10989010989011, -0.1875, -0.28125, 0.125, 0.0
836, -0.3064713064713065, -3.313797313797314, 0.5372405372405372, 0.125, 0.09375, 0.15625, 0.0
837, 0.663003663003663, -3.3833943833943834, -0.08913308913308914, 0.0, 0.40625, -0.15625, 0.0
838, -0.5811965811965812, -2.128205128205128, -0.2258852258852259, -0.1875, 0.15625, -0.28125, 0.0
839, -1.4505494505494505, -1.8925518925518925, -0.1623931623931624, 0.0, -0.125, 0.1875, 0.0
840, -1.3626373626373627, -1.9584859584859584, -0.34065934065934067, 0.125, 0.0625, 0.28125, 0.0
841, -0.5457875457875457, -2.63003663003663, -0.6886446886446886, 0.0, 0.34375, 0.3125, 0.0
842, 0.5372405372405372, -2.230769230769231, -0.07081807081807082, -0.21875, 0.3125, 0.15625, 0.0
843, 0.336996336996337, -1.4737484737484738, 0.5897435897435898, -0.03125, 0.09375, 0.03125, 0.0
844, -0.1562881562881563, -1.6776556776556777, -0.002442002442002442, 0.125, -0.03125, 0.15625, 0.0
845, -0.6495726495726496, -1.8717948717948718, -0.7191697191697192, 0.0, -0.125, 0.125, 0.0
846, -1.0036630036630036, -1.277167277167277, -0.3968253968253968, -0.15625, -0.03125, 0.0625, 0.0
847, -0.3064713064713065, -0.39316239316239315, 0.5347985347985348, -0.03125, 0.125, 0.09375, 0.0
848, -0.32234432234432236, -0.5225885225885226, 0.18315018315018314, 0.25, 0.0625, 0.09375, 0.0
849, -0.2503052503052503, -0.9792429792429792, -0.6837606837606838, 0.15625, -0.125, 0.15625, 0.0
850, -1.2185592185592184, -0.26495726495726496, -0.7484737484737485, 0.0625, -0.21875, -0.09375, 0.0
851, -1.4627594627594627, 0.08180708180708181, 0.5152625152625152, 0.59375, -0.1875, 0.03125, 1.0
852, -0.44078144078144077, -0.23076923076923078, 1.0757020757020757, 0.9375, -0.03125, 0.25, 1.0
853, 0.590964590964591, -1.8693528693528694, -0.23565323565323565, 0.75, -0.0625, 0.375, 1.0
854, -0.15262515262515264, -2.1465201465201464, -2.357753357753358, -0.40625, -0.21875, 0.09375, 1.0
855, -1.2148962148962148, -0.8547008547008547, -1.8998778998778998, -1.125, -0.21875, 0.0625, 1.0
856, -0.18437118437118438, -1.120879120879121, -0.7643467643467643, -0.75, -0.03125, 0.125, 1.0
857, 1.072039072039072, -1.910866910866911, -0.4139194139194139, -0.125, -0.125, 0.09375, 1.0
858, 1.2112332112332111, -3.012210012210012, -0.8522588522588522, -0.25, -0.46875, 0.0, 1.0
859, -0.10256410256410256, -3.3882783882783882, -1.531135531135531, -0.46875, -0.40625, 0.0, 1.0
860, -0.9804639804639804, -3.4615384615384617, -1.2625152625152625, -0.4375, -0.125, 0.09375, 1.0
861, -1.3235653235653235, -3.6678876678876677, -0.4371184371184371, -0.25, -0.0625, 0.40625, 1.0
862, -0.08791208791208792, -3.0671550671550674, 0.9035409035409036, 0.03125, -0.375, 0.40625, 1.0
863, 0.6043956043956044, -3.7020757020757022, 0.7326007326007326, 0.03125, -0.46875, -0.09375, 1.0
864, -0.27106227106227104, -4.136752136752137, 0.3772893772893773, -0.09375, -0.25, -0.28125, 1.0
865, -0.5714285714285714, -3.501831501831502, 1.4065934065934067, -0.15625, -0.40625, -0.21875, 1.0
866, -1.2796092796092795, -3.750915750915751, 1.105006105006105, -0.40625, -0.4375, 0.0, 1.0
867, -2.8864468864468864, -4.013431013431013, -0.7057387057387058, -1.0625, 0.125, 0.3125, 1.0
868, -2.363858363858364, -2.9157509157509156, -0.20024420024420025, -1.40625, 0.6875, 0.21875, 1.0
869, 0.14041514041514042, -1.713064713064713, 2.557997557997558, -0.84375, 0.40625, 0.3125, 1.0
870, 1.6446886446886446, -0.8547008547008547, 3.065934065934066, -0.25, 0.1875, 0.0, 1.0
871, 1.1697191697191698, -0.3052503052503053, 2.3150183150183152, 0.09375, 0.0625, -0.1875, 1.0
872, 0.315018315018315, 0.1623931623931624, 0.3907203907203907, 0.03125, -0.15625, -0.15625, 1.0
873, -0.6605616605616605, 1.0231990231990231, 0.32844932844932845, 0.0, -0.1875, -0.15625, 1.0
874, -1.0683760683760684, 2.769230769230769, 1.2722832722832722, 0.25, -0.03125, -0.25, 1.0
875, -0.5213675213675214, 3.354090354090354, 1.3772893772893773, 0.65625, 0.09375, -0.28125, 1.0
876, 1.485958485958486, 3.167277167277167, 0.442002442002442, 0.6875, -0.21875, -0.1875, 1.0
877, 1.2014652014652014, 4.971916971916972, 0.8400488400488401, 0.65625, 0.125, -0.59375, 1.0
878, -0.20512820512820512, 6.409035409035409, 1.061050061050061, 0.75, 0.9375, -0.90625, 1.0
879, -1.6691086691086692, 8.247863247863247, 0.9010989010989011, 1.0625, 0.84375, -0.75, 1.0
880, -3.2515262515262515, 7.501831501831502, -0.8107448107448108, 0.96875, 0.40625, -0.21875, 1.0
881, -3.0781440781440783, 6.732600732600733, -2.498168498168498, 0.34375, 0.6875, 0.34375, 1.0
882, 0.45787545787545786, 4.443223443223443, -1.5567765567765568, 0.25, 0.5625, 0.375, 1.0
883, 0.8021978021978022, 4.1611721611721615, -1.0634920634920635, 0.65625, 0.4375, 0.21875, 1.0
884, 1.188034188034188, 2.8644688644688645, -2.1306471306471306, 0.53125, 0.0625, 0.21875, 1.0
885, 0.36507936507936506, 3.518925518925519, -1.6446886446886446, 0.0, 0.09375, 0.21875, 0.0
886, -0.34554334554334554, 3.266178266178266, -1.6043956043956045, -0.25, 0.4375, 0.15625, 0.0
887, 0.5433455433455433, 0.7606837606837606, -2.943833943833944, -1.0, 0.4375, 0.40625, 0.0
888, 1.3553113553113554, 1.352869352869353, -2.354090354090354, -1.625, -0.0625, 0.53125, 0.0
889, 0.9304029304029304, 1.551892551892552, -1.3675213675213675, -0.59375, -0.65625, 0.34375, 0.0
890, 1.0683760683760684, 1.7374847374847375, -1.9731379731379732, -0.09375, -0.25, -0.0625, 0.0
891, 0.6617826617826618, 2.554334554334554, -1.10989010989011, -0.375, 0.125, -0.25, 0.0
892, 0.8095238095238095, 2.3284493284493286, -0.3614163614163614, -0.71875, 0.1875, -0.21875, 0.0
893, 0.5653235653235653, 1.5836385836385836, -0.3504273504273504, -0.65625, -0.21875, -0.125, 0.0
894, -0.10500610500610501, 1.8485958485958487, -0.7301587301587301, -0.5625, -0.28125, -0.21875, 0.0
895, -0.5995115995115995, 2.6715506715506714, -0.5396825396825397, -0.59375, -0.03125, -0.1875, 0.0
896, -1.1623931623931625, 2.9413919413919416, 0.2893772893772894, -0.75, 0.3125, -0.21875, 0.0
897, -0.2515262515262515, 1.1062271062271063, 0.5274725274725275, -0.875, 0.40625, -0.09375, 0.0
898, -0.0989010989010989, 0.028083028083028084, 0.6007326007326007, -0.75, -0.09375, -0.0625, 0.0
899, -0.5665445665445665, -0.21001221001221002, -0.4078144078144078, -0.5625, -0.375, 0.0, 0.0
900, -0.5934065934065934, 0.3540903540903541, -0.514041514041514, -0.5, -0.09375, 0.125, 0.0
901, -1.2735042735042734, 0.8253968253968254, 0.2576312576312576, -0.5, 0.65625, -0.09375, 0.0
902, -0.6190476190476191, 0.4896214896214896, 1.4578754578754578, -0.28125, 1.09375, 0.0, 0.0
903, 0.28327228327228327, -1.5873015873015872, 1.4945054945054945, -0.1875, 0.46875, 0.1875, 0.0
904, -0.3540903540903541, -2.326007326007326, 0.6984126984126984, -0.28125, -0.375, 0.125, 0.0
905, -1.4224664224664225, -2.155067155067155, -0.04395604395604396, -0.25, -0.5, 0.28125, 0.0
906, -1.9401709401709402, -1.4896214896214897, 0.020757020757020756, 0.0, 0.46875, 0.15625, 0.0
907, -0.4358974358974359, -1.6446886446886446, 1.144078144078144, 0.5625, 0.28125, 0.375, 0.0
908, 0.9084249084249084, -3.634920634920635, 1.1916971916971917, 0.5625, -0.53125, 0.0625, 0.0
909, 0.18803418803418803, -4.072039072039072, 0.6678876678876678, 0.3125, -0.84375, -0.59375, 0.0
910, -2.6166056166056166, -3.264957264957265, -0.12332112332112333, 0.1875, 0.0, -0.4375, 0.0
911, -2.1965811965811968, -3.485958485958486, -0.8998778998778999, 0.15625, 0.46875, 0.78125, 0.0
912, -0.463980463980464, -4.481074481074481, -0.20757020757020758, 0.0625, 0.0, 0.84375, 0.0
913, 0.5042735042735043, -4.2905982905982905, 0.6190476190476191, 0.21875, -0.8125, 0.6875, 0.0
914, 0.02197802197802198, -4.286935286935287, -0.03907203907203907, 0.3125, -0.5625, 0.28125, 0.0
915, -0.8070818070818071, -4.517704517704518, -0.8376068376068376, 0.125, 0.40625, -0.125, 0.0
916, -0.8229548229548229, -4.140415140415141, -1.2881562881562882, -0.15625, 0.65625, 0.21875, 0.0
917, 1.1086691086691087, -3.5604395604395602, -0.5860805860805861, -0.15625, -0.1875, 0.4375, 0.0
918, 0.6666666666666666, -3.115995115995116, 0.031746031746031744, 0.125, -0.625, 0.3125, 0.0
919, -0.07203907203907203, -3.382173382173382, -0.4371184371184371, 0.21875, -0.0625, 0.0625, 0.0
920, 0.052503052503052504, -3.415140415140415, -0.7142857142857143, 0.0, 0.40625, -0.3125, 0.0
921, -0.3247863247863248, -2.5616605616605614, -0.7557997557997558, -0.125, 0.28125, -0.1875, 0.0
922, -0.7631257631257631, -2.061050061050061, -0.398046398046398, -0.09375, 0.0, 0.1875, 0.0
923, -0.4932844932844933, -2.485958485958486, -0.002442002442002442, -0.1875, 0.03125, 0.21875, 0.0
924, -0.4078144078144078, -1.89010989010989, 0.33821733821733824, -0.15625, 0.21875, 0.125, 0.0
925, -0.4468864468864469, -1.4261294261294262, 0.4713064713064713, 0.0, 0.375, 0.0, 0.0
926, -0.4236874236874237, -1.2014652014652014, 0.27228327228327226, 0.03125, 0.3125, 0.0, 0.0
927, -0.08058608058608059, -1.4676434676434675, 0.15873015873015872, 0.0, -0.0625, 0.09375, 0.0
928, -0.7289377289377289, -1.5457875457875458, -0.047619047619047616, 0.0, -0.15625, 0.03125, 0.0
929, -1.2222222222222223, -0.6947496947496947, -0.017094017094017096, 0.1875, 0.21875, 0.0625, 0.0
930, 0.03540903540903541, -0.905982905982906, 0.2869352869352869, 0.09375, 0.3125, 0.0, 0.0
931, -0.5201465201465202, -0.5921855921855922, -0.8363858363858364, -0.125, -0.34375, 0.0, 0.0
932, -1.3626373626373627, -0.10622710622710622, -0.5873015873015873, 0.1875, -0.34375, -0.03125, 1.0
933, -0.16727716727716727, -1.1013431013431014, 0.5152625152625152, 0.90625, -0.125, 0.03125, 1.0
934, 0.3125763125763126, -2.6031746031746033, -0.525030525030525, 0.6875, -0.0625, 0.0625, 1.0
935, -0.20757020757020758, -2.9816849816849818, -1.9120879120879122, -0.53125, -0.1875, 0.25, 1.0
936, -0.8083028083028083, -1.4175824175824177, -0.9719169719169719, -1.375, -0.15625, 0.1875, 1.0
937, -0.31868131868131866, -1.7912087912087913, -0.2612942612942613, -0.78125, 0.03125, 0.125, 1.0
938, 0.5567765567765568, -3.868131868131868, -0.9719169719169719, -0.15625, 0.125, 0.0625, 1.0
939, 1.4896214896214897, -4.048840048840049, -0.9352869352869353, -0.15625, 0.0, 0.03125, 1.0
940, 0.8437118437118437, -3.374847374847375, -0.05616605616605617, -0.40625, -0.46875, 0.0, 1.0
941, -0.6752136752136753, -2.7094017094017095, 0.3540903540903541, -0.5, -0.6875, 0.0, 1.0
942, -1.8021978021978022, -3.525030525030525, 0.006105006105006105, -0.28125, -0.40625, 0.0625, 1.0
943, -1.3882783882783882, -4.074481074481074, -0.16971916971916973, -0.09375, -0.125, 0.125, 1.0
944, -0.8815628815628815, -3.481074481074481, 0.23931623931623933, -0.0625, 0.03125, -0.125, 1.0
945, 0.2783882783882784, -2.457875457875458, 1.8437118437118436, 0.03125, -0.09375, -0.1875, 1.0
946, 0.12454212454212454, -2.271062271062271, 2.1233211233211233, 0.1875, -0.53125, -0.28125, 1.0
947, -0.8534798534798534, -3.4114774114774113, 0.0989010989010989, 0.03125, -0.75, -0.28125, 1.0
948, -2.065934065934066, -3.2893772893772892, -0.398046398046398, -0.53125, -0.21875, -0.46875, 1.0
949, -1.0195360195360195, -2.8363858363858365, 0.5470085470085471, -0.625, 0.4375, -0.5625, 1.0
950, 0.2954822954822955, -2.3614163614163615, 0.645909645909646, -0.5, 0.375, -0.5, 1.0
951, 0.11721611721611722, -1.4273504273504274, 0.5982905982905983, -0.5, 0.125, -0.4375, 1.0
952, -0.6495726495726496, 0.6190476190476191, 1.1758241758241759, -0.40625, 0.21875, -0.3125, 1.0
953, -0.78998778998779, 1.5054945054945055, 1.10989010989011, -0.0625, 0.46875, -0.21875, 1.0
954, 0.07081807081807082, 0.5665445665445665, 0.33455433455433453, 0.0, 0.375, 0.0, 1.0
955, 0.42124542124542125, 0.5335775335775336, 0.4542124542124542, -0.21875, -0.15625, 0.1875, 1.0
956, 0.39438339438339437, 2.1636141636141635, 1.5042735042735043, 0.0625, 0.03125, 0.15625, 1.0
957, 1.2246642246642248, 2.6849816849816848, 1.188034188034188, 0.375, 0.1875, 0.125, 1.0
958, 1.122100122100122, 3.700854700854701, 0.5775335775335775, 0.5625, 0.0, -0.03125, 1.0
959, -0.17826617826617827, 5.039072039072039, -0.05372405372405373, 0.6875, 0.3125, -0.5, 1.0
960, -1.3272283272283272, 6.185592185592186, -0.5860805860805861, 0.65625, 1.0, -0.5, 1.0
961, -2.705738705738706, 7.256410256410256, -0.9462759462759462, 0.53125, 1.0, -0.15625, 1.0
962, -3.6825396825396823, 8.45054945054945, -0.25396825396825395, 0.8125, 0.65625, 0.125, 1.0
963, -2.5934065934065935, 7.168498168498169, -0.31013431013431014, 0.9375, 0.625, 0.21875, 1.0
964, -0.8547008547008547, 5.043956043956044, -0.17704517704517705, 0.84375, 0.40625, 0.53125, 1.0
965, 1.0366300366300367, 2.3943833943833943, -1.586080586080586, 0.15625, -0.15625, 0.8125, 1.0
966, 0.8547008547008547, 1.4786324786324787, -1.9120879120879122, 0.0, -0.25, 0.71875, 1.0
967, 1.4737484737484738, -0.12698412698412698, -2.7081807081807083, 0.09375, 0.0, 0.34375, 1.0
968, 2.015873015873016, -0.7704517704517705, -3.0463980463980462, -0.1875, 0.25, 0.0, 0.0
969, 1.006105006105006, -0.1562881562881563, -2.647130647130647, -0.78125, 0.4375, -0.15625, 0.0
970, 0.14896214896214896, -0.052503052503052504, -2.075702075702076, -1.46875, 0.625, -0.0625, 0.0
971, -0.04884004884004884, 0.6752136752136753, -0.7997557997557998, -1.5, 0.5, 0.0, 0.0
972, 0.020757020757020756, 1.358974358974359, 0.36996336996337, -0.9375, 0.09375, 0.0, 0.0
973, -0.21245421245421245, 1.7142857142857142, 0.36507936507936506, -0.25, -0.03125, -0.125, 0.0
974, -0.28083028083028083, 1.2503052503052503, -0.031746031746031744, -0.15625, 0.0, -0.21875, 0.0
975, -0.11355311355311355, 0.6398046398046398, -0.5531135531135531, -0.40625, 0.03125, -0.21875, 0.0
976, 0.1452991452991453, 0.040293040293040296, -1.0598290598290598, -0.75, -0.03125, -0.15625, 0.0
977, -0.008547008547008548, 0.5555555555555556, -0.6617826617826618, -0.5625, -0.25, -0.25, 0.0
978, -0.7387057387057387, 0.9328449328449329, -0.536019536019536, -0.1875, -0.15625, -0.5, 0.0
979, -1.1831501831501832, 1.2832722832722834, -0.6153846153846154, -0.15625, 0.15625, -0.34375, 0.0
980, -0.8290598290598291, 0.8681318681318682, -0.38095238095238093, -0.625, 0.15625, -0.0625, 0.0
981, -0.25274725274725274, 0.4371184371184371, 0.358974358974359, -0.9375, -0.125, 0.09375, 0.0
982, -0.2905982905982906, 0.7094017094017094, 0.9584859584859585, -0.59375, -0.46875, 0.0625, 0.0
983, -1.525030525030525, 1.1184371184371185, 0.6971916971916972, -0.125, -0.25, -0.1875, 0.0
984, -1.3333333333333333, 0.5177045177045178, 0.1916971916971917, 0.0, 0.21875, 0.0, 0.0
985, -0.5054945054945055, -0.6568986568986569, -0.16117216117216118, -0.25, 0.375, 0.25, 0.0
986, 0.702075702075702, -1.2747252747252746, 0.398046398046398, -0.375, 0.03125, 0.4375, 0.0
987, 0.8754578754578755, -1.352869352869353, 0.46886446886446886, -0.09375, -0.34375, 0.3125, 0.0
988, 0.17094017094017094, -1.3015873015873016, -0.026862026862026864, 0.09375, -0.03125, -0.3125, 0.0
989, -0.5238095238095238, -1.3601953601953602, -0.15262515262515264, 0.1875, 0.625, -0.5, 0.0
990, -0.07203907203907203, -2.0549450549450547, -0.33943833943833945, -0.03125, 0.625, 0.125, 0.0
991, 0.4188034188034188, -2.6764346764346763, 0.15995115995115994, -0.34375, -0.0625, 0.40625, 0.0
992, 0.2869352869352869, -2.894993894993895, 0.36507936507936506, -0.125, -0.71875, 0.5, 0.0
993, -0.20757020757020758, -3.115995115995116, -0.36874236874236876, 0.3125, -0.5, 0.03125, 0.0
994, -0.8925518925518926, -2.9572649572649574, -0.8485958485958486, 0.25, 0.1875, -0.28125, 0.0
995, -0.5763125763125763, -3.1477411477411477, -1.0073260073260073, -0.21875, 0.34375, 0.25, 0.0
996, -0.0757020757020757, -3.354090354090354, -0.6666666666666666, -0.65625, 0.09375, 0.625, 0.0
997, -0.6361416361416361, -2.924297924297924, 0.6398046398046398, -0.4375, -0.5, 0.75, 0.0
998, -1.144078144078144, -3.0903540903540905, 0.43345543345543347, 0.0, -0.625, 0.65625, 0.0
999, -1.5702075702075702, -3.47985347985348, -0.42124542124542125, 0.09375, 0.03125, 0.25, 0.0
1000, -0.8705738705738706, -4.122100122100122, -0.7753357753357754, -0.09375, 0.9375, 0.03125, 0.0
1001, 0.6556776556776557, -3.9584859584859586, -0.3626373626373626, -0.625, 0.71875, 0.125, 0.0
1002, -0.5396825396825397, -2.948717948717949, 0.8229548229548229, -0.4375, -0.34375, 0.375, 0.0
1003, -1.6117216117216118, -3.0036630036630036, 0.6385836385836385, 0.28125, -0.375, 0.53125, 0.0
1004, -0.3431013431013431, -3.606837606837607, 0.001221001221001221, 0.46875, 0.875, 0.1875, 0.0
1005, 1.3113553113553114, -4.113553113553113, -0.6166056166056166, 0.0, 0.5, -0.125, 0.0
1006, 0.304029304029304, -3.111111111111111, -0.8363858363858364, -0.1875, -0.34375, 0.25, 0.0
1007, -0.8901098901098901, -2.3797313797313797, -0.12087912087912088, 0.21875, -0.4375, 0.46875, 0.0
1008, -0.6288156288156288, -2.5128205128205128, 0.017094017094017096, 0.3125, 0.0625, 0.34375, 0.0
1009, -0.015873015873015872, -2.866910866910867, -0.2905982905982906, 0.03125, 0.40625, 0.03125, 0.0
1010, 0.3321123321123321, -2.3663003663003663, -0.2258852258852259, -0.125, 0.1875, -0.0625, 0.0
1011, -0.06227106227106227, -1.783882783882784, -0.1562881562881563, -0.03125, -0.1875, 0.0625, 0.0
1012, -1.0366300366300367, -1.5763125763125763, -0.5836385836385837, 0.0, -0.15625, 0.09375, 0.0
1013, -1.1746031746031746, -1.4493284493284493, -0.42002442002442003, 0.09375, 0.125, 0.09375, 0.0
1014, -0.2625152625152625, -1.3199023199023199, 0.002442002442002442, 0.125, 0.15625, 0.125, 0.0
1015, -0.2967032967032967, -0.7814407814407814, 0.29181929181929184, 0.21875, 0.03125, 0.0625, 0.0
1016, -0.33455433455433453, -0.8876678876678876, 0.08302808302808302, 0.34375, -0.0625, 0.03125, 0.0
1017, -0.6654456654456654, -1.4395604395604396, -0.4542124542124542, 0.25, -0.25, 0.15625, 1.0
1018, -0.5946275946275946, -1.5213675213675213, 0.045177045177045176, 0.0625, -0.28125, 0.1875, 1.0
1019, -0.9230769230769231, -1.2442002442002442, 0.2954822954822955, -0.03125, -0.0625, 0.28125, 1.0
1020, -0.12942612942612944, -2.191697191697192, -0.47741147741147744, -0.3125, 0.0, 0.375, 1.0
1021, 1.1147741147741148, -3.0415140415140414, -1.0317460317460319, -0.40625, -0.34375, 0.125, 1.0
1022, 0.46764346764346765, -3.8376068376068377, -0.9853479853479854, -0.3125, -0.40625, 0.0, 1.0
1023, 0.0757020757020757, -4.346764346764346, -0.5115995115995116, -0.40625, -0.125, -0.09375, 1.0
1024, 0.4810744810744811, -4.084249084249084, -0.2625152625152625, -0.46875, -0.1875, -0.03125, 1.0
1025, 0.38095238095238093, -3.7997557997557996, 0.28327228327228327, -0.40625, -0.46875, -0.125, 1.0
1026, -0.32234432234432236, -3.5115995115995116, 0.6446886446886447, -0.28125, -0.5625, -0.125, 1.0
1027, -0.8986568986568987, -4.295482295482295, 0.4053724053724054, -0.34375, -0.46875, -0.09375, 1.0
1028, -1.3797313797313797, -4.781440781440781, -0.15873015873015872, -0.40625, -0.1875, -0.09375, 1.0
1029, -0.46764346764346765, -2.8998778998779, 1.3186813186813187, -0.15625, 0.21875, -0.15625, 1.0
1030, -0.9462759462759462, -3.4652014652014653, 1.170940170940171, -0.0625, 0.0, -0.15625, 1.0
1031, -1.326007326007326, -3.8205128205128207, 0.525030525030525, -0.28125, -0.125, 0.0, 1.0
1032, -1.6581196581196582, -2.2002442002442004, 1.2148962148962148, -0.4375, 0.0, -0.125, 1.0
1033, -0.5103785103785103, -0.6275946275946276, 1.750915750915751, -0.0625, 0.4375, 0.0, 1.0
1034, 0.23565323565323565, 0.1623931623931624, 0.945054945054945, 0.15625, 0.53125, -0.0625, 1.0
1035, 0.6312576312576312, -0.9010989010989011, -0.26495726495726496, 0.09375, 0.53125, -0.03125, 1.0
1036, -0.08913308913308914, 0.21001221001221002, 0.02564102564102564, -0.1875, 0.4375, 0.0, 1.0
1037, -0.8766788766788767, 1.7594627594627594, 0.702075702075702, -0.125, 0.34375, 0.09375, 1.0
1038, -0.43223443223443225, 3.1306471306471306, 1.6385836385836385, 0.09375, 0.34375, 0.03125, 1.0
1039, 0.6483516483516484, 2.8766788766788767, 1.137973137973138, 0.4375, 0.3125, 0.09375, 1.0
1040, 0.6385836385836385, 3.15995115995116, -0.0695970695970696, 0.40625, 0.0, 0.125, 1.0
1041, -0.2796092796092796, 3.94993894993895, -0.9328449328449329, 0.4375, 0.0, 0.03125, 1.0
1042, 0.4175824175824176, 4.026862026862027, -1.7326007326007327, 0.46875, 0.1875, 0.0, 1.0
1043, 0.006105006105006105, 4.506715506715507, -1.722832722832723, 0.5625, 0.34375, -0.0625, 1.0
1044, -0.6092796092796092, 4.478632478632479, -2.326007326007326, 0.5625, 0.21875, 0.15625, 1.0
1045, -1.0305250305250304, 4.750915750915751, -1.8266178266178266, 0.3125, 0.125, 0.15625, 1.0
1046, 0.08058608058608059, 4.079365079365079, -0.5897435897435898, 0.34375, 0.34375, -0.09375, 1.0
1047, -0.19291819291819293, 4.733821733821734, -0.48595848595848595, 0.375, 0.5, -0.09375, 1.0
1048, -1.503052503052503, 7.5054945054945055, 1.702075702075702, 0.03125, 0.0625, 0.0625, 1.0
1049, -1.3418803418803418, 7.16971916971917, 2.4884004884004884, 0.25, -0.34375, 0.375, 1.0
1050, -0.6190476190476191, 3.537240537240537, -0.12087912087912088, 0.75, -0.3125, 0.375, 1.0
1051, 2.4114774114774113, -0.7777777777777778, -3.446886446886447, 0.46875, -0.1875, 0.5, 0.0
1052, 1.6764346764346765, -0.9877899877899878, -3.84981684981685, -0.75, -0.5, 0.5625, 0.0
1053, 0.7130647130647131, -0.398046398046398, -3.879120879120879, -1.21875, 0.625, 0.0, 0.0
1054, 1.1062271062271063, 1.1623931623931625, -2.4761904761904763, -0.71875, 0.78125, -0.375, 0.0
1055, 1.1587301587301588, 1.4993894993894994, -1.3748473748473748, -0.34375, 0.21875, -0.375, 0.0
1056, 0.358974358974359, 1.7619047619047619, -1.3748473748473748, -0.84375, -0.25, -0.25, 0.0
1057, -1.133089133089133, 3.1807081807081805, -0.5128205128205128, -1.09375, -0.0625, -0.25, 0.0
1058, -1.4713064713064714, 3.3516483516483517, 0.07448107448107448, -0.9375, 0.28125, -0.28125, 0.0
1059, -1.5811965811965811, 3.371184371184371, 0.8864468864468864, -0.21875, 0.4375, -0.375, 0.0
1060, -0.4810744810744811, 1.8388278388278387, 0.4456654456654457, 0.21875, 0.21875, -0.3125, 0.0
1061, -0.2258852258852259, 0.8278388278388278, -0.5677655677655677, -0.0625, -0.03125, -0.25, 0.0
1062, -0.44078144078144077, 0.4896214896214896, -0.7863247863247863, -0.625, -0.0625, -0.125, 0.0
1063, -0.34676434676434675, 0.46764346764346765, -0.3833943833943834, -0.9375, -0.125, 0.0, 0.0
1064, -0.8693528693528694, 1.120879120879121, 0.5103785103785103, -0.625, -0.125, 0.0625, 0.0
1065, -1.5152625152625152, 1.6263736263736264, 1.2905982905982907, 0.0, 0.0, 0.0625, 0.0
1066, -1.0561660561660562, -0.9096459096459096, -0.07326007326007326, 0.09375, 0.125, 0.0625, 0.0
1067, 1.7484737484737485, -5.2063492063492065, -2.0244200244200243, -0.6875, -0.21875, 0.15625, 0.0
1068, 1.713064713064713, -4.7484737484737485, -2.942612942612943, -1.21875, -0.46875, 0.21875, 0.0
1069, -0.3125763125763126, -1.5274725274725274, -1.3443223443223444, -0.59375, 0.125, 0.0, 0.0
1070, -0.575091575091575, -0.15262515262515264, 0.6959706959706959, 0.375, 0.625, -0.25, 0.0
1071, -0.3663003663003663, -1.2173382173382172, 0.8070818070818071, 0.46875, 0.5, -0.25, 0.0
1072, -0.15506715506715507, -2.8913308913308913, -0.21123321123321123, -0.28125, -0.21875, 0.03125, 0.0
1073, 0.2844932844932845, -4.035409035409035, -0.9792429792429792, -0.9375, -0.78125, 0.03125, 0.0
1074, 0.2967032967032967, -2.3394383394383396, 0.3540903540903541, -0.3125, -0.75, -0.4375, 0.0
1075, -1.4334554334554335, -0.905982905982906, 1.3186813186813187, 0.71875, 0.03125, -0.625, 0.0
1076, -1.6886446886446886, -1.7155067155067154, 0.6166056166056166, 0.8125, 0.53125, 0.125, 0.0
1077, 0.3162393162393162, -3.6544566544566544, -0.030525030525030524, -0.34375, 0.03125, 0.25, 0.0
1078, -1.2417582417582418, -3.1526251526251525, 1.4090354090354091, -0.28125, -0.625, 0.15625, 0.0
1079, -1.1660561660561661, -2.0915750915750917, 1.1965811965811965, 0.1875, -0.125, -0.09375, 0.0
1080, -1.2417582417582418, -2.023199023199023, 0.7533577533577533, 0.375, 0.34375, -0.375, 0.0
1081, -2.191697191697192, -2.8290598290598292, -0.43833943833943834, 0.25, 0.375, -0.0625, 0.0
1082, -0.9865689865689866, -3.8095238095238093, -0.557997557997558, -0.0625, 0.03125, 0.53125, 0.0
1083, -0.36996336996337, -3.542124542124542, 0.31746031746031744, -0.125, -0.34375, 0.625, 0.0
1084, -0.7094017094017094, -3.4249084249084247, 0.03785103785103785, 0.25, 0.0, 0.4375, 0.0
1085, 0.38705738705738707, -3.816849816849817, -0.15873015873015872, 0.34375, 0.78125, 0.09375, 0.0
1086, 0.46153846153846156, -3.2222222222222223, 0.15384615384615385, 0.0625, 0.71875, 0.03125, 0.0
1087, 0.442002442002442, -3.199023199023199, 0.3052503052503053, 0.0, 0.0, 0.59375, 0.0
1088, 0.34798534798534797, -3.139194139194139, 0.2258852258852259, 0.1875, -0.5625, 0.53125, 0.0
1089, 0.32967032967032966, -3.103785103785104, -0.2490842490842491, 0.21875, -0.4375, 0.40625, 0.0
1090, -0.43956043956043955, -2.879120879120879, -0.6862026862026862, 0.03125, 0.0, 0.03125, 0.0
1091, -0.9157509157509157, -2.098901098901099, -0.7094017094017094, 0.0, 0.375, -0.03125, 0.0
1092, -0.24786324786324787, -2.1526251526251525, -0.8388278388278388, 0.03125, 0.21875, 0.21875, 0.0
1093, 0.1562881562881563, -1.8864468864468864, -0.38217338217338215, -0.0625, -0.21875, 0.28125, 0.0
1094, -0.31135531135531136, -1.7619047619047619, -0.2857142857142857, -0.15625, -0.3125, 0.125, 0.0
1095, -0.09035409035409035, -1.3137973137973138, -0.001221001221001221, 0.0, -0.03125, 0.0, 0.0
1096, 0.2698412698412698, -1.4261294261294262, 0.27106227106227104, 0.28125, -0.0625, -0.03125, 0.0
1097, -0.9096459096459096, -1.1367521367521367, 0.004884004884004884, 0.09375, -0.40625, 0.09375, 1.0
1098, -1.7814407814407816, -0.5824175824175825, 0.06227106227106227, 0.15625, -0.34375, 0.1875, 1.0
1099, -0.9426129426129426, -0.663003663003663, 0.5726495726495726, 0.28125, -0.03125, 0.25, 1.0
1100, 0.43956043956043955, -1.404151404151404, 0.945054945054945, 0.40625, 0.0, 0.34375, 1.0
1101, 0.6642246642246642, -2.4004884004884004, -0.3247863247863248, 0.0625, -0.15625, 0.28125, 1.0
1102, -0.14652014652014653, -2.451770451770452, -1.2588522588522588, -0.625, -0.375, 0.09375, 1.0
1103, 0.019536019536019536, -2.3150183150183152, -0.9584859584859585, -0.53125, -0.375, 0.09375, 1.0
1104, 0.33577533577533575, -2.816849816849817, -0.7692307692307693, -0.46875, -0.3125, 0.0625, 1.0
1105, -0.17094017094017094, -2.948717948717949, -0.5787545787545788, -0.5, -0.25, 0.0, 1.0
1106, -0.612942612942613, -2.93040293040293, -0.14652014652014653, -0.375, -0.0625, -0.09375, 1.0
1107, -1.1123321123321124, -3.2808302808302807, -0.20512820512820512, -0.4375, 0.15625, 0.03125, 1.0
1108, -1.2356532356532357, -3.5042735042735043, 0.10989010989010989, -0.59375, 0.34375, 0.1875, 1.0
1109, -0.7448107448107448, -2.5445665445665444, 0.6105006105006106, -0.65625, 0.4375, 0.125, 1.0
1110, -0.5628815628815629, -2.065934065934066, 1.2661782661782661, -0.25, 0.15625, 0.21875, 1.0
1111, 0.6617826617826618, -3.8473748473748475, 0.7252747252747253, -0.09375, -0.1875, 0.21875, 1.0
1112, 1.534798534798535, -4.2515262515262515, 0.3247863247863248, -0.34375, -0.5625, -0.0625, 1.0
1113, -0.38217338217338215, -2.989010989010989, 0.818070818070818, -0.46875, -0.3125, -0.03125, 1.0
1114, -0.8986568986568987, -2.1684981684981683, 0.652014652014652, -0.3125, 0.0625, -0.125, 1.0
1115, -0.9340659340659341, -1.7924297924297925, 0.833943833943834, -0.03125, 0.21875, -0.0625, 1.0
1116, -0.5201465201465202, -1.9804639804639805, 0.1855921855921856, -0.21875, 0.0625, 0.125, 1.0
1117, -0.05616605616605617, -1.8608058608058609, -0.2515262515262515, -0.5625, -0.25, 0.40625, 1.0
1118, -0.757020757020757, -0.5323565323565324, 0.16361416361416362, -0.5625, 0.0, 0.28125, 1.0
1119, -0.4725274725274725, 0.4481074481074481, 1.0402930402930404, -0.03125, 0.46875, 0.1875, 1.0
1120, 0.9377289377289377, 0.1221001221001221, 0.5958485958485958, 0.09375, 0.28125, 0.09375, 1.0
1121, 1.3492063492063493, 0.5115995115995116, -0.17582417582417584, -0.1875, -0.25, 0.0, 1.0
1122, 0.10012210012210013, 2.496947496947497, 0.1623931623931624, -0.21875, -0.375, -0.03125, 1.0
1123, -0.2442002442002442, 4.869352869352869, 0.8107448107448108, 0.15625, 0.09375, -0.28125, 1.0
1124, 0.3418803418803419, 4.836385836385836, -0.0231990231990232, 0.4375, 0.15625, -0.3125, 1.0
1125, 0.1794871794871795, 4.305250305250305, -1.0231990231990231, 0.3125, -0.0625, -0.34375, 1.0
1126, -0.5995115995115995, 3.5335775335775335, -2.554334554334554, -0.21875, 0.46875, -0.71875, 1.0
1127, -1.4017094017094016, 5.698412698412699, 0.36874236874236876, 0.0625, 1.21875, -0.71875, 1.0
1128, -2.7020757020757022, 7.9181929181929185, 0.8241758241758241, 0.375, 0.59375, -0.34375, 1.0
1129, -2.5274725274725274, 8.07081807081807, 1.1733821733821734, 0.46875, 0.34375, -0.125, 1.0
1130, -1.061050061050061, 5.504273504273504, 0.13797313797313798, 0.40625, 0.375, 0.0, 1.0
1131, 0.4981684981684982, 2.547008547008547, -0.9682539682539683, 0.03125, -0.03125, 0.34375, 1.0
1132, 1.3577533577533578, 1.6715506715506716, -0.6605616605616605, -0.375, -0.4375, 0.59375, 1.0
1133, 1.0793650793650793, 1.84004884004884, 0.1684981684981685, -0.25, -0.0625, 0.34375, 1.0
1134, 1.1465201465201464, 0.9816849816849816, -0.6752136752136753, 0.0, 0.28125, 0.0, 1.0
1135, 0.8461538461538461, 0.8693528693528694, -1.0561660561660562, 0.0625, 0.125, -0.03125, 1.0
1136, 0.6593406593406593, 1.5653235653235653, -0.9291819291819292, -0.21875, 0.15625, 0.0, 0.0
1137, -0.001221001221001221, 2.086691086691087, -0.22832722832722832, -0.625, 0.1875, 0.0, 0.0
1138, -0.21367521367521367, 1.7802197802197801, -0.4908424908424908, -1.0, 0.375, 0.0, 0.0
1139, -0.11721611721611722, 2.503052503052503, 0.30158730158730157, -1.0625, 0.40625, 0.0, 0.0
1140, -0.08180708180708181, 3.3614163614163615, 1.4871794871794872, -0.125, 0.0, -0.09375, 0.0
1141, -0.5311355311355311, 2.9926739926739927, 0.36996336996337, 0.5625, -0.1875, -0.3125, 0.0
1142, -0.6117216117216118, 2.5567765567765566, -0.3504273504273504, 0.5, 0.03125, -0.5, 0.0
1143, -1.2893772893772895, 2.382173382173382, -0.5396825396825397, 0.03125, 0.0, -0.28125, 0.0
1144, -1.2967032967032968, 2.3626373626373627, -0.3553113553113553, -0.34375, -0.09375, 0.25, 0.0
1145, -0.8205128205128205, 1.7545787545787546, -0.01098901098901099, -0.4375, -0.125, 0.5, 0.0
1146, -0.42124542124542125, 1.0586080586080586, 0.4725274725274725, -0.25, -0.125, 0.40625, 0.0
1147, -0.13675213675213677, 0.17338217338217338, 0.2564102564102564, 0.0, -0.03125, 0.125, 0.0
1148, -0.29914529914529914, -0.21367521367521367, -0.31746031746031744, 0.0625, 0.15625, -0.09375, 0.0
1149, -0.7521367521367521, -1.6031746031746033, -1.4945054945054945, -0.125, 0.59375, -0.125, 0.0
1150, 1.0390720390720392, -2.2857142857142856, -0.8901098901098901, -0.53125, 0.6875, 0.34375, 0.0
1151, 1.1245421245421245, -1.6153846153846154, 0.9597069597069597, -0.21875, -0.4375, 0.21875, 0.0
1152, -0.2661782661782662, -0.9328449328449329, 1.0427350427350428, 0.40625, -0.3125, -0.25, 0.0
1153, -1.2820512820512822, -1.7545787545787546, 0.3308913308913309, 0.6875, 0.46875, -0.59375, 0.0
1154, -0.47619047619047616, -3.3833943833943834, -0.894993894993895, 0.0, 0.5, 0.28125, 0.0
1155, 0.7912087912087912, -3.6263736263736264, -0.8681318681318682, -0.84375, -0.46875, 0.71875, 0.0
1156, -0.017094017094017096, -2.47985347985348, 0.4175824175824176, -0.40625, -1.125, 0.53125, 0.0
1157, -1.0073260073260073, -2.2905982905982905, -0.15873015873015872, 0.5625, -0.34375, 0.15625, 0.0
1158, -0.15873015873015872, -3.987789987789988, -1.4102564102564104, 0.625, 0.46875, -0.3125, 0.0
1159, 0.2026862026862027, -4.68009768009768, -2.3565323565323566, -0.28125, 0.3125, 0.03125, 0.0
1160, 0.42002442002442003, -3.6043956043956045, -1.568986568986569, -0.90625, -0.1875, 0.1875, 0.0
1161, -0.36752136752136755, -2.4786324786324787, 0.36996336996337, -0.40625, -0.40625, 0.15625, 0.0
1162, -0.5897435897435898, -2.956043956043956, 0.22344322344322345, 0.0625, -0.03125, 0.09375, 0.0
1163, -0.04151404151404151, -3.474969474969475, -0.5115995115995116, 0.0, 0.40625, -0.15625, 0.0
1164, -0.5409035409035409, -3.4334554334554332, -0.8473748473748474, -0.625, 0.53125, 0.03125, 0.0
1165, 0.221001221001221, -3.114774114774115, -0.304029304029304, -1.0, 0.09375, 0.15625, 0.0
1166, 0.1978021978021978, -2.5006105006105006, 1.1978021978021978, -0.53125, -0.28125, 0.125, 0.0
1167, -0.8583638583638583, -2.2625152625152625, 0.8266178266178266, 0.0625, 0.0, 0.0, 0.0
1168, -0.6666666666666666, -2.3846153846153846, 0.1794871794871795, 0.03125, 0.53125, -0.21875, 0.0
1169, -0.31135531135531136, -2.2393162393162394, 0.39316239316239315, -0.28125, 0.625, -0.375, 0.0
1170, -0.2148962148962149, -1.9426129426129426, 0.5177045177045178, -0.3125, 0.21875, -0.03125, 0.0
1171, -0.4358974358974359, -1.5189255189255189, 0.9621489621489622, 0.0, -0.21875, 0.0625, 0.0
1172, -1.1953601953601953, -1.122100122100122, 0.5262515262515263, 0.15625, -0.09375, 0.0625, 0.0
1173, -1.1294261294261294, -1.0927960927960927, 0.07692307692307693, 0.0625, 0.375, -0.09375, 0.0
1174, -0.9694749694749695, -1.5238095238095237, -0.463980463980464, -0.0625, 0.46875, -0.0625, 0.0
1175, -0.5299145299145299, -1.978021978021978, -0.45787545787545786, -0.125, -0.0625, 0.21875, 0.0
1176, -0.5201465201465202, -1.3748473748473748, 0.44932844932844934, 0.03125, 0.03125, 0.3125, 0.0
1177, 0.6654456654456654, -1.4029304029304028, 0.030525030525030524, 0.125, 0.3125, 0.1875, 0.0
1178, 0.31135531135531136, -1.3943833943833943, -0.6727716727716728, -0.03125, -0.03125, 0.0, 0.0
1179, -0.9658119658119658, -0.7142857142857143, -0.9426129426129426, -0.125, -0.34375, 0.03125, 0.0
1180, -0.9877899877899878, -0.16483516483516483, -0.19536019536019536, 0.0, -0.1875, 0.25, 0.0
1181, -0.28815628815628813, -0.16361416361416362, -0.3199023199023199, 0.0625, 0.125, 0.09375, 0.0
1182, 0.008547008547008548, -0.4908424908424908, -0.48717948717948717, -0.0625, 0.125, 0.0, 0.0
1183, -0.6324786324786325, -0.2954822954822955, -0.5286935286935287, -0.21875, -0.125, 0.0, 0.0
1184, -0.9242979242979243, 0.6910866910866911, -0.20757020757020758, -0.03125, -0.1875, 0.125, 0.0
1185, -0.09157509157509157, 0.29426129426129427, 0.9035409035409036, 0.59375, -0.125, 0.25, 1.0
1186, 0.9242979242979243, -1.2735042735042734, -0.1562881562881563, 0.71875, -0.09375, 0.125, 1.0
1187, 0.03418803418803419, -1.9242979242979243, -1.7411477411477412, 0.0625, -0.40625, 0.03125, 1.0
1188, -0.7313797313797313, -1.5323565323565325, -2.3235653235653237, -0.8125, -0.34375, 0.21875, 1.0
1189, -0.41147741147741146, -0.645909645909646, -0.9365079365079365, -1.0, 0.0, 0.3125, 1.0
1190, 0.6263736263736264, -1.3052503052503053, 0.24664224664224665, -0.3125, 0.09375, 0.375, 1.0
1191, 1.9145299145299146, -2.4822954822954824, 0.19658119658119658, 0.0, -0.125, 0.28125, 1.0
1192, 1.0427350427350428, -2.8144078144078146, -0.9572649572649573, -0.21875, -0.46875, 0.15625, 1.0
1193, -0.25396825396825395, -2.833943833943834, -1.0122100122100122, -0.28125, -0.5625, 0.09375, 1.0
1194, -1.36996336996337, -3.142857142857143, -1.05006105006105, -0.125, -0.3125, 0.09375, 1.0
1195, -0.9316239316239316, -3.023199023199023, -0.3540903540903541, -0.03125, 0.03125, 0.1875, 1.0
1196, -0.3528693528693529, -3.6678876678876677, -0.07081807081807082, -0.15625, 0.15625, 0.03125, 1.0
1197, 0.04151404151404151, -4.501831501831502, 0.2515262515262515, -0.40625, 0.0, 0.125, 1.0
1198, -0.6886446886446886, -4.57020757020757, 1.253968253968254, -0.4375, -0.3125, 0.0, 1.0
1199, -1.8363858363858363, -3.1135531135531136, 1.6556776556776556, -0.28125, 0.0625, -0.09375, 1.0
1200, -1.746031746031746, -2.021978021978022, 1.7008547008547008, 0.125, 1.0, -0.375, 1.0
1201, -1.0207570207570207, -1.927960927960928, 1.1428571428571428, 0.0, 1.03125, -0.5, 1.0
1202, -0.8241758241758241, -1.7277167277167278, 0.9987789987789988, -0.0625, 0.5625, -0.15625, 1.0
1203, 0.3724053724053724, -1.551892551892552, 1.006105006105006, -0.1875, 0.0, 0.125, 1.0
1204, 0.7264957264957265, -0.8229548229548229, 0.8290598290598291, -0.25, -0.25, 0.3125, 1.0
1205, 1.855921855921856, -0.4822954822954823, 1.1831501831501832, -0.15625, -0.34375, 0.1875, 1.0
1206, 1.540903540903541, -0.4004884004884005, 0.9853479853479854, -0.03125, -0.3125, -0.0625, 1.0
1207, 0.29914529914529914, 0.6178266178266179, 0.7802197802197802, 0.125, 0.0, -0.0625, 1.0
1208, 1.0476190476190477, 1.7545787545787546, 0.20512820512820512, 0.15625, -0.375, 0.1875, 1.0
1209, 1.8095238095238095, 1.336996336996337, -1.3540903540903542, -0.15625, -1.0, 0.28125, 1.0
1210, 1.0366300366300367, 2.474969474969475, -1.26007326007326, -0.0625, -0.625, -0.03125, 1.0
1211, 0.9877899877899878, 2.9682539682539684, -1.4188034188034189, 0.15625, 0.25, -0.59375, 1.0
1212, 0.32112332112332115, 3.7985347985347984, -1.2344322344322345, 0.1875, 0.375, -0.84375, 1.0
1213, -2.2454212454212454, 5.865689865689865, -1.120879120879121, 0.09375, 0.53125, -0.84375, 1.0
1214, -3.122100122100122, 7.08058608058608, -0.8437118437118437, -0.1875, 0.8125, -0.71875, 1.0
1215, -2.6398046398046398, 7.7484737484737485, 0.0, -0.6875, 1.0625, -0.21875, 1.0
1216, -1.6288156288156288, 8.184371184371184, 2.288156288156288, -0.28125, 0.28125, -0.09375, 1.0
1217, -3.398046398046398, 7.670329670329671, 1.73992673992674, 0.40625, 0.125, 0.0, 1.0
1218, -0.7826617826617827, 4.086691086691086, -0.1807081807081807, 0.15625, -0.0625, 0.28125, 1.0
1219, 1.2295482295482296, 1.8644688644688645, -0.6532356532356532, -0.15625, -0.375, 0.4375, 1.0
1220, 1.3724053724053724, 0.9157509157509157, -0.6239316239316239, 0.0, -0.34375, 0.28125, 1.0
1221, 1.0024420024420024, 0.78998778998779, -0.8547008547008547, 0.03125, -0.15625, 0.0625, 1.0
1222, 0.2222222222222222, 0.8351648351648352, -0.6544566544566545, -0.03125, 0.0, -0.09375, 0.0
1223, -0.304029304029304, 0.905982905982906, -0.3907203907203907, -0.21875, 0.25, -0.09375, 0.0
1224, -0.42002442002442003, 0.9023199023199023, -0.6361416361416361, -0.625, 0.28125, 0.15625, 0.0
1225, -0.8192918192918193, 0.9633699633699634, 0.7216117216117216, -0.65625, -0.09375, 0.15625, 0.0
1226, -0.39316239316239315, 2.2344322344322345, 0.6434676434676435, 0.1875, -0.1875, 0.0, 0.0
1227, -0.4236874236874237, 2.431013431013431, -0.06715506715506715, 0.4375, -0.03125, -0.21875, 0.0
1228, -0.6190476190476191, 3.1892551892551895, -0.002442002442002442, 0.28125, 0.1875, -0.21875, 0.0
1229, -0.5921855921855922, 2.1526251526251525, -0.33943833943833945, -0.15625, 0.09375, 0.0, 0.0
1230, -0.358974358974359, 1.8388278388278387, -0.15506715506715507, -0.5625, -0.21875, 0.1875, 0.0
1231, -0.8583638583638583, 2.028083028083028, 0.4358974358974359, -0.125, -0.40625, 0.09375, 0.0
1232, -1.242979242979243, 2.5445665445665444, 0.31746031746031744, 0.5, -0.125, -0.0625, 0.0
1233, -1.0097680097680097, 2.199023199023199, -0.004884004884004884, 0.65625, 0.21875, 0.0, 0.0
1234, -0.989010989010989, 0.5885225885225885, -0.6593406593406593, 0.25, 0.28125, 0.1875, 0.0
