timestamp, accX, accY, accZ, gyroX, gyroY, gyroZ, button
707, 0.009768009768009768, -0.02442002442002442, -0.054945054945054944, -0.09375, 0.0625, 0.03125, 0.0
708, 0.03785103785103785, -0.03418803418803419, 0.004884004884004884, -0.0625, 0.03125, 0.03125, 0.0
709, 0.07814407814407814, -0.06349206349206349, -0.014652014652014652, -0.03125, 0.0, 0.03125, 0.0
1, 0.09157509157509157, -0.115995115995116, -0.02564102564102564, -0.03125, 0.0, 0.0, 0.0
2, 0.08913308913308914, -0.1916971916971917, -0.221001221001221, -0.03125, 0.0, 0.0, 0.0
3, -0.028083028083028084, -0.13064713064713065, -0.2686202686202686, -0.09375, 0.0, 0.0, 0.0
4, -0.06837606837606838, -0.12332112332112333, -0.23443223443223443, -0.15625, 0.03125, 0.0, 0.0
5, -0.042735042735042736, -0.030525030525030524, -0.11477411477411477, -0.15625, 0.0, 0.0, 0.0
6, -0.08913308913308914, 0.013431013431013432, -0.014652014652014652, -0.125, 0.0, 0.0, 0.0
7, -0.031746031746031744, -0.009768009768009768, 0.08791208791208792, -0.125, 0.0, 0.03125, 0.0
8, 0.020757020757020756, -0.0695970695970696, 0.052503052503052504, -0.15625, 0.03125, 0.03125, 0.0
9, -0.03785103785103785, 0.10256410256410256, 0.09035409035409035, -0.125, 0.0625, 0.03125, 0.0
10, 0.040293040293040296, -0.050061050061050064, 0.02197802197802198, -0.0625, 0.0625, 0.03125, 0.0
11, 0.03785103785103785, -0.0757020757020757, -0.13186813186813187, -0.03125, 0.0, 0.03125, 0.0
12, -0.07936507936507936, 0.0463980463980464, -0.19047619047619047, -0.0625, 0.0, 0.03125, 0.0
13, 0.007326007326007326, -0.015873015873015872, -0.10500610500610501, -0.0625, 0.09375, 0.03125, 0.0
14, 0.03296703296703297, -0.019536019536019536, -0.08302808302808302, -0.09375, 0.0625, 0.03125, 0.0
15, -0.009768009768009768, -0.03785103785103785, -0.10012210012210013, -0.09375, 0.03125, 0.0, 0.0
16, 0.042735042735042736, -0.11233211233211234, -0.13797313797313798, -0.0625, 0.03125, 0.03125, 0.0
17, 0.047619047619047616, -0.11721611721611722, -0.21123321123321123, -0.125, 0.0, 0.03125, 0.0
18, -0.08791208791208792, 0.01098901098901099, -0.08058608058608059, -0.15625, 0.0, 0.0, 0.0
19, -0.017094017094017096, -0.017094017094017096, 0.050061050061050064, -0.125, 0.03125, 0.0, 0.0
20, 0.03785103785103785, -0.0695970695970696, -0.045177045177045176, -0.09375, 0.0, 0.03125, 0.0
21, -0.06349206349206349, 0.015873015873015872, -0.0231990231990232, -0.125, 0.0, 0.03125, 0.0
22, -0.08302808302808302, 0.042735042735042736, 0.09157509157509157, -0.0625, 0.03125, 0.03125, 0.0
23, -0.007326007326007326, -0.04151404151404151, 0.09401709401709402, -0.03125, 0.0625, 0.03125, 0.0
24, -0.019536019536019536, -0.11233211233211234, -0.047619047619047616, -0.0625, 0.03125, 0.03125, 0.0
25, -0.040293040293040296, -0.0463980463980464, -0.08424908424908426, -0.0625, 0.03125, 0.03125, 0.0
26, -0.009768009768009768, -0.014652014652014652, -0.06227106227106227, -0.0625, 0.0625, 0.03125, 0.0
27, 0.004884004884004884, -0.018315018315018316, -0.03785103785103785, -0.09375, 0.0625, 0.0625, 0.0
28, 0.01098901098901099, -0.03296703296703297, -0.10012210012210013, -0.09375, 0.03125, 0.0625, 0.0
29, 0.014652014652014652, -0.020757020757020756, -0.12332112332112333, -0.0625, 0.0625, 0.0625, 0.0
30, 0.02197802197802198, -0.03907203907203907, -0.12087912087912088, -0.0625, 0.0625, 0.03125, 0.0
31, 0.006105006105006105, -0.01098901098901099, -0.052503052503052504, -0.0625, 0.03125, 0.03125, 0.0
32, -0.009768009768009768, -0.019536019536019536, -0.042735042735042736, -0.03125, 0.03125, 0.0, 0.0
33, 0.01221001221001221, -0.12942612942612944, -0.1562881562881563, -0.0625, 0.0, 0.0, 0.0
34, -0.06227106227106227, -0.030525030525030524, -0.11843711843711843, -0.09375, 0.03125, 0.0, 0.0
35, -0.07814407814407814, 0.013431013431013432, -0.020757020757020756, -0.09375, 0.0625, 0.03125, 0.0
36, -0.03907203907203907, 0.0, 0.06227106227106227, -0.0625, 0.0625, 0.03125, 0.0
37, -0.008547008547008548, -0.02442002442002442, 0.03785103785103785, -0.0625, 0.0625, 0.03125, 0.0
38, 0.008547008547008548, -0.03663003663003663, 0.01098901098901099, -0.0625, 0.03125, 0.03125, 0.0
39, 0.007326007326007326, -0.007326007326007326, -0.001221001221001221, -0.0625, 0.03125, 0.03125, 0.0
40, 0.004884004884004884, -0.018315018315018316, -0.08424908424908426, -0.03125, 0.0625, 0.03125, 0.0
41, -0.003663003663003663, -0.017094017094017096, -0.08302808302808302, -0.0625, 0.0625, 0.03125, 0.0
42, 0.008547008547008548, -0.0231990231990232, -0.09768009768009768, -0.0625, 0.0625, 0.03125, 0.0
43, 0.013431013431013432, -0.02442002442002442, -0.12454212454212454, -0.09375, 0.03125, 0.03125, 0.0
44, -0.015873015873015872, 0.013431013431013432, -0.1452991452991453, -0.0625, 0.03125, 0.03125, 0.0
45, -0.02564102564102564, 0.009768009768009768, -0.050061050061050064, -0.0625, 0.0625, 0.03125, 0.0
46, 0.03785103785103785, -0.08424908424908426, -0.040293040293040296, -0.0625, 0.0625, 0.03125, 0.0
47, 0.03663003663003663, -0.06715506715506715, -0.10744810744810745, -0.09375, 0.03125, 0.03125, 0.0
48, -0.009768009768009768, -0.018315018315018316, -0.08180708180708181, -0.09375, 0.03125, 0.03125, 0.0
49, -0.01098901098901099, -0.03418803418803419, -0.02564102564102564, -0.0625, 0.0625, 0.03125, 0.0
50, -0.001221001221001221, -0.026862026862026864, -0.0463980463980464, -0.09375, 0.0625, 0.03125, 0.0
51, -0.01098901098901099, -0.018315018315018316, 0.028083028083028084, -0.09375, 0.0625, 0.03125, 0.0
52, 0.004884004884004884, -0.03785103785103785, -0.007326007326007326, -0.0625, 0.03125, 0.03125, 0.0
53, 0.003663003663003663, -0.009768009768009768, -0.03785103785103785, -0.0625, 0.03125, 0.03125, 0.0
54, 0.014652014652014652, -0.028083028083028084, -0.10866910866910867, -0.0625, 0.0, 0.0625, 0.0
55, -0.10500610500610501, 0.03663003663003663, -0.06837606837606838, -0.0625, 0.0625, 0.03125, 0.0
56, -0.042735042735042736, 0.015873015873015872, -0.013431013431013432, -0.0625, 0.125, 0.03125, 0.0
57, 0.015873015873015872, -0.01221001221001221, 0.006105006105006105, -0.0625, 0.0625, 0.0625, 0.0
58, 0.028083028083028084, -0.030525030525030524, -0.13675213675213677, -0.0625, 0.03125, 0.03125, 0.0
59, 0.0, -0.006105006105006105, -0.07448107448107448, -0.0625, 0.0625, 0.03125, 0.0
60, 0.008547008547008548, -0.02442002442002442, -0.03540903540903541, -0.03125, 0.0625, 0.03125, 0.0
61, 0.013431013431013432, -0.052503052503052504, -0.12087912087912088, -0.03125, 0.03125, 0.03125, 0.0
62, -0.007326007326007326, -0.03540903540903541, -0.13675213675213677, -0.0625, 0.03125, 0.03125, 0.0
63, 0.1623931623931624, -0.15384615384615385, -0.2026862026862027, -0.21875, 0.0, 0.09375, 0.0
64, 0.28815628815628813, -0.15018315018315018, -0.050061050061050064, -0.21875, 0.0, 0.0625, 0.0
65, 0.08302808302808302, -0.06715506715506715, -0.05372405372405373, -0.15625, 0.0, 0.0, 0.0
66, -0.03907203907203907, -0.004884004884004884, -0.13064713064713065, -0.09375, 0.03125, 0.0, 0.0
67, -0.040293040293040296, -0.029304029304029304, -0.1391941391941392, -0.0625, 0.09375, 0.0, 0.0
68, 0.06837606837606838, -0.0989010989010989, -0.15262515262515264, -0.09375, 0.125, -0.03125, 0.0
69, 0.11233211233211234, -0.09645909645909646, -0.1391941391941392, -0.15625, 0.0625, -0.03125, 0.0
70, 0.019536019536019536, -0.054945054945054944, -0.06105006105006105, -0.15625, 0.0, -0.0625, 0.0
71, -0.05982905982905983, 0.017094017094017096, 0.08669108669108669, -0.0625, 0.0, -0.09375, 0.0
72, 0.07081807081807082, -0.1978021978021978, 0.007326007326007326, -0.0625, 0.03125, -0.125, 0.0
73, -0.057387057387057384, -0.11843711843711843, 0.10744810744810745, -0.125, 0.03125, -0.1875, 0.0
74, 0.030525030525030524, -0.2087912087912088, 0.19291819291819293, -0.125, 0.09375, -0.1875, 0.0
75, 0.03296703296703297, -0.21611721611721613, 0.24786324786324787, -0.09375, 0.125, -0.21875, 0.0
76, -0.09645909645909646, -0.07326007326007326, 0.36385836385836384, -0.03125, 0.25, -0.28125, 0.0
77, -0.0695970695970696, -0.004884004884004884, 0.46764346764346765, 0.0, 0.40625, -0.34375, 0.0
78, -0.05982905982905983, -0.10378510378510379, 0.2698412698412698, 0.09375, 0.4375, -0.34375, 0.0
79, -0.1514041514041514, -0.16361416361416362, -0.03418803418803419, 0.125, 0.25, -0.3125, 0.0
80, -0.30158730158730157, -0.07448107448107448, -0.4175824175824176, 0.09375, 0.0, -0.28125, 0.0
81, -0.6776556776556777, 0.0927960927960928, -0.4053724053724054, -0.09375, -0.21875, -0.21875, 0.0
82, -0.851037851037851, 0.1794871794871795, -0.2661782661782662, -0.21875, -0.25, -0.125, 0.0
83, -0.6422466422466423, 0.09768009768009768, -0.1514041514041514, -0.21875, -0.15625, -0.0625, 0.0
84, -0.568986568986569, 0.045177045177045176, -0.12576312576312576, -0.15625, -0.125, -0.03125, 0.0
85, -0.5775335775335775, 0.14896214896214896, -0.06349206349206349, -0.03125, 0.0, -0.0625, 0.0
86, -0.21733821733821734, -0.09645909645909646, -0.05982905982905983, 0.0, 0.03125, -0.03125, 0.0
87, 0.10012210012210013, -0.37484737484737485, -0.20512820512820512, 0.0, -0.125, -0.03125, 0.0
88, -0.08547008547008547, -0.2771672771672772, -0.22954822954822954, -0.0625, -0.28125, -0.03125, 0.0
89, -0.2979242979242979, -0.115995115995116, -0.23565323565323565, -0.125, -0.21875, 0.0, 0.0
90, -0.3601953601953602, -0.020757020757020756, -0.16605616605616605, -0.125, 0.0, 0.0, 0.0
91, -0.2869352869352869, 0.07081807081807082, -0.04884004884004884, -0.1875, 0.15625, 0.0, 0.0
92, -0.13064713064713065, 0.34065934065934067, 0.4371184371184371, -0.21875, 0.1875, 0.0625, 0.0
93, 0.047619047619047616, -0.052503052503052504, 0.4346764346764347, -0.15625, 0.0625, 0.0625, 0.0
94, 0.33455433455433453, -0.5616605616605617, 0.03296703296703297, -0.125, -0.1875, 0.09375, 0.0
95, 0.019536019536019536, -0.3785103785103785, -0.06105006105006105, -0.09375, -0.3125, 0.09375, 0.0
96, -0.10134310134310134, -0.18192918192918192, -0.17704517704517705, -0.0625, 0.0, 0.0625, 0.0
97, 0.052503052503052504, -0.1807081807081807, -0.11721611721611722, -0.0625, 0.09375, 0.0625, 0.0
98, 0.42246642246642246, -0.2857142857142857, 0.047619047619047616, -0.09375, 0.0, 0.0625, 0.0
99, 0.17582417582417584, -0.1514041514041514, 0.05616605616605617, -0.09375, -0.125, 0.03125, 0.0
100, -0.006105006105006105, -0.08791208791208792, 0.0, -0.15625, -0.09375, 0.0625, 0.0
101, -0.11843711843711843, 0.10012210012210013, 0.15506715506715507, -0.15625, 0.03125, 0.03125, 0.0
102, 0.08913308913308914, -0.029304029304029304, 0.14285714285714285, -0.1875, 0.0625, 0.0625, 0.0
103, 0.02442002442002442, -0.0695970695970696, 0.22954822954822954, -0.25, 0.03125, 0.0625, 0.0
104, 0.01221001221001221, -0.08791208791208792, 0.14041514041514042, -0.25, 0.0, 0.0625, 0.0
105, -0.12698412698412698, 0.1343101343101343, 0.23687423687423687, -0.15625, 0.0, 0.03125, 0.0
106, -0.27106227106227104, 0.047619047619047616, 0.14774114774114774, -0.0625, 0.125, 0.0625, 0.0
107, -0.06349206349206349, -0.26495726495726496, 0.08058608058608059, 0.0, 0.15625, 0.0625, 0.0
108, 0.31868131868131866, -0.41025641025641024, -0.14407814407814407, -0.09375, 0.03125, 0.03125, 0.0
109, 0.05616605616605617, -0.06715506715506715, -0.21367521367521367, -0.15625, -0.03125, 0.0, 0.0
110, -0.15384615384615385, 0.017094017094017096, -0.10500610500610501, -0.15625, 0.0, -0.03125, 0.0
111, -0.018315018315018316, -0.057387057387057384, -0.045177045177045176, -0.0625, 0.03125, 0.0, 0.0
112, 0.042735042735042736, -0.23809523809523808, -0.20024420024420025, -0.03125, 0.03125, -0.03125, 0.0
113, -0.10134310134310134, -0.057387057387057384, -0.14041514041514042, 0.0, 0.09375, -0.03125, 0.0
114, -0.052503052503052504, 0.007326007326007326, -0.08302808302808302, 0.0, 0.21875, -0.03125, 0.0
115, 0.29181929181929184, 0.008547008547008548, -0.11721611721611722, -0.0625, 0.21875, -0.03125, 0.0
116, 0.503052503052503, -0.20512820512820512, -0.2686202686202686, -0.15625, 0.125, -0.09375, 0.0
117, 0.4517704517704518, -0.23565323565323565, -0.3528693528693529, -0.25, 0.09375, -0.125, 0.0
118, 0.115995115995116, -0.17216117216117216, -0.36874236874236876, -0.28125, 0.125, -0.125, 0.0
119, 0.040293040293040296, -0.040293040293040296, -0.36874236874236876, -0.28125, 0.21875, -0.21875, 0.0
120, -0.030525030525030524, -0.03296703296703297, -0.4163614163614164, -0.3125, 0.28125, -0.15625, 0.0
121, 0.05616605616605617, -0.05372405372405373, -0.05982905982905983, -0.40625, 0.3125, -0.1875, 0.0
122, -0.06227106227106227, -0.07081807081807082, 0.32722832722832723, -0.34375, 0.21875, -0.1875, 0.0
123, -0.12332112332112333, -0.10256410256410256, 0.38583638583638585, -0.21875, 0.1875, -0.21875, 0.0
124, -0.2783882783882784, -0.18437118437118438, 0.3516483516483517, -0.09375, 0.125, -0.25, 0.0
125, -0.3504273504273504, -0.2771672771672772, 0.3089133089133089, -0.0625, 0.0625, -0.21875, 0.0
126, -0.4652014652014652, -0.38217338217338215, 0.2857142857142857, -0.09375, 0.03125, -0.21875, 0.0
127, -0.5665445665445665, -0.3907203907203907, 0.30036630036630035, -0.0625, 0.09375, -0.1875, 0.0
128, -0.3125763125763126, -0.4932844932844933, 0.38461538461538464, 0.0, 0.09375, -0.1875, 0.0
129, -0.41025641025641024, -0.5604395604395604, 0.26373626373626374, 0.03125, 0.0, -0.1875, 0.0
130, -0.557997557997558, -0.5042735042735043, 0.09523809523809523, 0.03125, -0.03125, -0.1875, 0.0
131, -0.6263736263736264, -0.3064713064713065, 0.14896214896214896, -0.03125, 0.0625, -0.1875, 0.0
132, -0.37606837606837606, -0.35775335775335776, 0.2503052503052503, -0.0625, 0.15625, -0.1875, 0.0
133, -0.4017094017094017, -0.23931623931623933, 0.22466422466422467, -0.0625, 0.09375, -0.15625, 0.0
134, -0.20512820512820512, -0.07326007326007326, 0.20757020757020758, -0.0625, 0.03125, -0.125, 0.0
135, 0.3321123321123321, -0.34798534798534797, 0.16727716727716727, -0.15625, -0.15625, -0.03125, 0.0
136, -0.047619047619047616, -0.006105006105006105, 0.3076923076923077, -0.34375, -0.4375, -0.03125, 0.0
137, -0.5323565323565324, 0.4004884004884005, 0.40293040293040294, -0.28125, -0.3125, -0.0625, 0.0
138, -0.5274725274725275, 0.47741147741147744, 0.32112332112332115, -0.0625, 0.09375, -0.0625, 0.0
139, -0.1746031746031746, 0.06349206349206349, 0.14407814407814407, 0.125, 0.40625, -0.0625, 0.0
140, 0.13064713064713065, -0.231990231990232, -0.04884004884004884, 0.125, 0.34375, -0.03125, 0.0
141, -0.020757020757020756, -0.07326007326007326, -0.2026862026862027, 0.03125, 0.125, -0.03125, 0.0
142, -0.3052503052503053, -0.08791208791208792, -0.514041514041514, 0.03125, 0.09375, -0.03125, 0.0
143, -0.2576312576312576, -0.21855921855921856, -0.7362637362637363, 0.03125, 0.21875, -0.03125, 0.0
144, -0.13553113553113552, -0.19658119658119658, -0.6361416361416361, 0.0, 0.21875, 0.0, 0.0
145, -0.047619047619047616, -0.03663003663003663, -0.5091575091575091, -0.09375, 0.15625, 0.0, 0.0
146, -0.030525030525030524, -0.01098901098901099, -0.3626373626373626, -0.09375, 0.15625, 0.0625, 0.0
147, -0.015873015873015872, -0.0927960927960928, -0.06837606837606838, -0.125, 0.125, 0.03125, 0.0
148, 0.030525030525030524, -0.03418803418803419, 0.09401709401709402, -0.125, 0.09375, 0.03125, 0.0
149, -0.05128205128205128, 0.07203907203907203, 0.10989010989010989, -0.09375, 0.09375, 0.03125, 0.0
150, 0.15506715506715507, 0.1111111111111111, 0.07326007326007326, -0.0625, 0.0625, 0.03125, 0.0
151, 0.2515262515262515, 0.017094017094017096, 0.04884004884004884, -0.03125, -0.03125, 0.03125, 0.0
152, 0.03296703296703297, 0.03663003663003663, -0.07081807081807082, 0.03125, 0.0, 0.03125, 0.0
153, 0.004884004884004884, 0.02442002442002442, -0.12332112332112333, 0.09375, 0.09375, 0.03125, 0.0
154, 0.2979242979242979, -0.21855921855921856, -0.24297924297924298, 0.03125, 0.0, 0.0, 0.0
155, 0.36996336996337, -0.26373626373626374, -0.22344322344322345, -0.03125, -0.15625, 0.0, 0.0
156, 0.13064713064713065, -0.08424908424908426, -0.2783882783882784, 0.0, -0.1875, -0.03125, 0.0
157, -0.05616605616605617, 0.008547008547008548, -0.32967032967032966, 0.09375, -0.09375, -0.03125, 0.0
158, -0.07448107448107448, -0.18925518925518925, -0.63003663003663, 0.03125, 0.0, 0.0, 0.0
159, -0.003663003663003663, -0.22832722832722832, -0.608058608058608, -0.09375, 0.0, 0.0, 0.0
160, -0.047619047619047616, -0.12454212454212454, -0.3199023199023199, -0.1875, 0.0, 0.0, 0.0
161, -0.07326007326007326, -0.0989010989010989, -0.2490842490842491, -0.15625, 0.03125, 0.0, 0.0
162, -0.001221001221001221, -0.47985347985347987, -0.4346764346764347, -0.28125, 0.0, -0.03125, 0.0
163, -0.3321123321123321, -0.2661782661782662, -0.17704517704517705, -0.34375, 0.0, 0.0, 0.0
164, -0.5201465201465202, 0.09401709401709402, 0.2625152625152625, -0.28125, 0.15625, 0.0, 0.0
165, -0.11843711843711843, -0.014652014652014652, 0.6336996336996337, -0.21875, 0.15625, 0.0625, 0.0
166, 0.03907203907203907, -0.008547008547008548, 0.5103785103785103, -0.15625, 0.03125, 0.03125, 0.0
167, -0.030525030525030524, -0.008547008547008548, 0.25274725274725274, -0.125, 0.0, 0.0625, 0.0
168, -0.1807081807081807, 0.09768009768009768, 0.23321123321123322, -0.03125, 0.0, 0.09375, 0.0
169, -0.0989010989010989, 0.009768009768009768, 0.14652014652014653, 0.0, 0.0, 0.1875, 0.0
170, -0.26373626373626374, -0.13797313797313798, -0.1343101343101343, -0.0625, 0.09375, 0.21875, 0.0
171, -0.045177045177045176, -0.10866910866910867, 0.052503052503052504, -0.09375, 0.125, 0.25, 0.0
172, 0.02442002442002442, -0.08791208791208792, 0.19047619047619047, -0.0625, 0.03125, 0.25, 0.0
173, -0.03540903540903541, -0.030525030525030524, 0.054945054945054944, -0.03125, 0.0, 0.28125, 0.0
174, -0.03907203907203907, -0.05616605616605617, 0.008547008547008548, -0.03125, -0.03125, 0.3125, 0.0
175, -0.27350427350427353, -0.042735042735042736, -0.2039072039072039, -0.0625, 0.0, 0.3125, 0.0
176, -0.004884004884004884, -0.10012210012210013, -0.14407814407814407, -0.0625, 0.125, 0.3125, 0.0
177, 0.19291819291819293, -0.28205128205128205, -0.15384615384615385, -0.03125, 0.0625, 0.375, 0.0
178, 0.5335775335775336, -0.409035409035409, -0.24297924297924298, -0.09375, -0.0625, 0.40625, 0.0
179, 0.673992673992674, -0.4297924297924298, -0.29426129426129427, -0.125, -0.09375, 0.34375, 0.0
180, 0.7191697191697192, -0.45665445665445664, -0.3443223443223443, -0.09375, 0.0, 0.28125, 0.0
181, 0.7326007326007326, -0.5238095238095238, -0.3772893772893773, -0.125, 0.03125, 0.21875, 0.0
182, 0.5555555555555556, -0.2588522588522589, -0.29426129426129427, -0.1875, 0.0, 0.1875, 0.0
183, 0.21001221001221002, -0.047619047619047616, -0.07448107448107448, -0.21875, 0.0, 0.15625, 0.0
184, -0.09035409035409035, 0.05982905982905983, -0.004884004884004884, -0.1875, 0.0, 0.15625, 0.0
185, -0.029304029304029304, 0.018315018315018316, 0.08058608058608059, -0.09375, 0.0, 0.15625, 0.0
186, -0.020757020757020756, 0.0231990231990232, -0.018315018315018316, -0.0625, 0.03125, 0.125, 0.0
187, 0.02564102564102564, -0.07326007326007326, -0.19658119658119658, -0.09375, 0.09375, 0.125, 0.0
188, 0.15995115995115994, -0.12698412698412698, -0.06471306471306472, -0.15625, 0.0625, 0.125, 0.0
189, 0.03296703296703297, -0.052503052503052504, 0.13675213675213677, -0.15625, -0.03125, 0.09375, 0.0
190, -0.031746031746031744, -0.040293040293040296, 0.07326007326007326, -0.09375, -0.0625, 0.125, 0.0
191, 0.02564102564102564, -0.10989010989010989, 0.02442002442002442, -0.0625, 0.0, 0.125, 0.0
192, 0.17582417582417584, -0.16483516483516483, 0.13675213675213677, -0.09375, 0.0625, 0.125, 0.0
193, 0.05128205128205128, -0.0231990231990232, 0.23687423687423687, -0.125, 0.03125, 0.09375, 0.0
194, -0.06471306471306472, 0.03663003663003663, 0.3540903540903541, 0.0, 0.03125, 0.0, 0.0
195, -0.02564102564102564, -0.045177045177045176, 0.3553113553113553, 0.03125, 0.0, 0.0, 0.0
196, -0.020757020757020756, -0.1855921855921856, 0.12454212454212454, 0.0, 0.0, -0.03125, 0.0
197, -0.13064713064713065, -0.13553113553113552, -0.09401709401709402, -0.125, -0.03125, -0.0625, 0.0
198, -0.3308913308913309, 0.003663003663003663, -0.21855921855921856, -0.21875, 0.0, 0.0, 0.0
199, -0.36996336996337, 0.07814407814407814, -0.10866910866910867, -0.1875, 0.0625, 0.0, 0.0
200, -0.21123321123321123, 0.17582417582417584, 0.09523809523809523, -0.0625, 0.03125, 0.03125, 0.0
201, -0.05982905982905983, 0.06593406593406594, 0.07448107448107448, 0.0, 0.0, 0.03125, 0.0
202, 0.002442002442002442, -0.13186813186813187, -0.06715506715506715, 0.0, 0.0, 0.0625, 0.0
203, 0.07203907203907203, -0.14407814407814407, -0.1452991452991453, -0.09375, -0.03125, 0.0625, 0.0
204, -0.020757020757020756, -0.08913308913308914, -0.19047619047619047, -0.0625, 0.0, 0.0625, 0.0
205, -0.04151404151404151, -0.16361416361416362, -0.20634920634920634, 0.0, 0.0, 0.03125, 0.0
206, -0.09035409035409035, -0.24786324786324787, -0.3492063492063492, 0.0, 0.0, 0.03125, 0.0
207, 0.047619047619047616, -0.17216117216117216, -0.3772893772893773, -0.0625, 0.0, 0.0, 0.0
208, -0.08058608058608059, -0.16483516483516483, -0.3956043956043956, -0.1875, 0.0, -0.03125, 0.0
209, -0.115995115995116, 0.002442002442002442, -0.3052503052503053, -0.1875, 0.03125, 0.0, 0.0
210, 0.01098901098901099, -0.03418803418803419, -0.09035409035409035, -0.1875, -0.03125, 0.0625, 0.0
211, 0.013431013431013432, -0.047619047619047616, -0.09035409035409035, -0.21875, -0.03125, 0.03125, 0.0
212, -0.2612942612942613, -0.05860805860805861, -0.34676434676434675, -0.3125, 0.125, 0.0, 0.0
213, -0.14896214896214896, 0.14652014652014653, 0.0989010989010989, -0.1875, 0.15625, 0.0625, 0.0
214, -0.040293040293040296, -0.0989010989010989, 0.09035409035409035, -0.1875, 0.0625, 0.09375, 0.0
215, -0.003663003663003663, -0.050061050061050064, 0.1282051282051282, -0.21875, 0.0, 0.1875, 1.0
216, -0.06593406593406594, -0.4432234432234432, -0.19291819291819293, -0.28125, 0.0, 0.03125, 1.0
217, -0.3772893772893773, -0.11721611721611722, -0.32234432234432236, -0.21875, 0.25, 0.03125, 1.0
218, -0.11477411477411477, 0.16117216117216118, 0.19291819291819293, 0.09375, 0.3125, 0.03125, 1.0
219, -0.0927960927960928, -0.8803418803418803, -0.6935286935286935, 0.0625, 0.0, 0.125, 1.0
220, -0.029304029304029304, -0.9914529914529915, -1.3137973137973138, -0.5, 0.25, 0.1875, 1.0
221, 0.0231990231990232, -0.16971916971916973, -0.8681318681318682, -1.1875, 0.5625, 0.3125, 1.0
222, 0.5384615384615384, 0.47985347985347987, 0.568986568986569, -1.09375, 0.375, 0.34375, 1.0
223, 0.33821733821733824, 0.6031746031746031, 0.8498168498168498, -0.46875, 0.03125, 0.25, 1.0
224, 0.608058608058608, 0.336996336996337, 0.4481074481074481, 0.0625, 0.03125, 0.25, 1.0
225, 0.9572649572649573, -0.35775335775335776, -0.10866910866910867, 0.21875, 0.125, 0.21875, 1.0
226, 1.5848595848595848, -0.14163614163614163, 0.05128205128205128, 0.125, 0.0, 0.25, 1.0
227, 1.774114774114774, -0.16727716727716727, -0.07326007326007326, 0.125, -0.25, 0.1875, 1.0
228, 2.0537240537240535, -0.0989010989010989, -0.3076923076923077, 0.0, -0.375, 0.125, 1.0
229, 2.3272283272283274, -0.1111111111111111, -0.18925518925518925, 0.03125, -0.3125, 0.03125, 1.0
230, 3.032967032967033, -0.3125763125763126, -0.21245421245421245, 0.0625, -0.09375, -0.0625, 1.0
231, 3.727716727716728, -0.6642246642246642, -0.08791208791208792, 0.03125, -0.0625, -0.125, 1.0
232, 4.0818070818070815, -0.9035409035409036, -0.10378510378510379, -0.0625, -0.125, -0.28125, 1.0
233, 4.833943833943834, -0.9206349206349206, 0.37362637362637363, -0.03125, -0.21875, -0.4375, 1.0
234, 4.677655677655678, -0.9719169719169719, -0.0989010989010989, 0.0625, -0.46875, -0.6875, 1.0
235, 4.177045177045177, -0.8107448107448108, -0.8058608058608059, 0.25, -0.46875, -0.8125, 1.0
236, 3.7533577533577533, -1.4810744810744811, -2.1245421245421245, 0.25, -0.21875, -0.96875, 1.0
237, 4.0195360195360195, -2.741147741147741, -1.9133089133089134, 0.0, 0.09375, -1.125, 1.0
238, 2.916971916971917, -2.656898656898657, -1.424908424908425, -0.3125, 0.125, -1.15625, 1.0
239, 1.2820512820512822, -2.177045177045177, -0.7765567765567766, -0.0625, 0.28125, -1.21875, 1.0
240, 1.3687423687423688, -3.6446886446886446, -0.7203907203907204, 0.15625, 0.59375, -1.40625, 1.0
241, 2.231990231990232, -4.848595848595848, 0.013431013431013432, -0.09375, 0.3125, -1.65625, 1.0
242, 0.3540903540903541, -3.562881562881563, 0.8229548229548229, -0.53125, -0.3125, -1.9375, 1.0
243, -2.172161172161172, -2.183150183150183, 0.5738705738705738, -0.21875, -0.21875, -2.15625, 1.0
244, -3.572649572649573, -1.5848595848595848, 0.23687423687423687, 0.0, -0.1875, -2.0, 1.0
245, -4.323565323565323, -2.305250305250305, -0.09768009768009768, -0.125, -0.40625, -1.78125, 1.0
246, -5.073260073260073, -2.3174603174603177, 0.1807081807081807, -0.3125, -0.75, -1.59375, 1.0
247, -6.130647130647131, -1.1807081807081807, 0.4432234432234432, -0.15625, -0.4375, -1.375, 1.0
248, -5.490842490842491, -1.5372405372405373, 1.264957264957265, 0.0, -0.21875, -1.28125, 1.0
249, -5.014652014652015, -1.531135531135531, 1.5054945054945055, -0.0625, -0.375, -1.25, 1.0
250, -6.0537240537240535, -0.851037851037851, 1.2087912087912087, -0.25, -0.4375, -0.96875, 1.0
251, -6.242979242979243, -0.32844932844932845, 1.9206349206349207, -0.15625, -0.28125, -0.78125, 1.0
252, -5.996336996336996, -0.9108669108669109, 2.0097680097680097, 0.03125, -0.125, -0.625, 1.0
253, -5.57020757020757, -0.9401709401709402, 1.6971916971916972, 0.125, -0.15625, -0.4375, 1.0
254, -4.565323565323565, -0.40415140415140416, 1.57997557997558, 0.1875, -0.25, -0.3125, 1.0
255, -4.018315018315018, -1.054945054945055, 0.3504273504273504, 0.03125, -0.25, -0.25, 1.0
256, -3.4236874236874235, -2.092796092796093, -0.0695970695970696, -0.21875, -0.3125, -0.28125, 0.0
257, -3.9902319902319903, -2.214896214896215, 0.3431013431013431, -0.59375, -0.1875, -0.21875, 0.0
258, -4.43956043956044, -1.0463980463980465, 0.02442002442002442, -0.84375, 0.09375, 0.0, 0.0
259, -3.094017094017094, -0.4700854700854701, 0.5384615384615384, -0.3125, -0.09375, 0.15625, 0.0
260, -2.9682539682539684, -0.6617826617826618, 0.03540903540903541, 0.28125, -0.28125, 0.1875, 0.0
261, -3.4542124542124544, -1.1746031746031746, -1.072039072039072, 0.5, 0.03125, 0.1875, 0.0
262, -3.266178266178266, -1.982905982905983, -1.691086691086691, 0.15625, 0.3125, 0.28125, 0.0
263, -3.021978021978022, -1.8168498168498168, -1.6495726495726495, -0.25, 0.4375, 0.21875, 0.0
264, -3.183150183150183, -1.6752136752136753, -1.170940170940171, -0.375, 0.4375, 0.4375, 0.0
265, -2.6654456654456653, -1.989010989010989, -0.9365079365079365, -0.40625, 0.4375, 0.625, 0.0
266, -3.3772893772893773, -2.5213675213675213, -0.818070818070818, -0.375, 0.46875, 0.65625, 0.0
267, -3.647130647130647, -1.2112332112332111, -0.04151404151404151, -0.1875, 0.625, 0.84375, 0.0
268, -2.1062271062271063, -0.17582417582417584, 0.33455433455433453, -0.1875, 0.3125, 0.875, 0.0
269, -2.5934065934065935, -1.3992673992673992, -0.13064713064713065, -0.1875, 0.125, 1.0625, 0.0
270, -2.821733821733822, -1.5164835164835164, -0.28205128205128205, -0.28125, 0.25, 1.0625, 0.0
271, -2.934065934065934, -0.23687423687423687, -0.21855921855921856, -0.25, 0.4375, 1.1875, 0.0
272, -1.271062271062271, -0.8693528693528694, -0.006105006105006105, -0.15625, 0.59375, 1.25, 0.0
273, -1.3565323565323566, -2.122100122100122, 0.13064713064713065, -0.0625, 0.46875, 1.1875, 0.0
274, -0.938949938949939, -1.8510378510378511, 0.07203907203907203, -0.0625, 0.28125, 1.65625, 0.0
275, -0.2442002442002442, -0.7557997557997558, -0.05616605616605617, -0.15625, 0.21875, 1.875, 0.0
276, 0.833943833943834, -1.5433455433455434, 0.20146520146520147, -0.34375, 0.3125, 1.875, 0.0
277, 2.2808302808302807, -2.7435897435897436, 1.0097680097680097, -0.53125, 0.1875, 1.75, 0.0
278, 2.3211233211233213, -1.3614163614163615, 2.0549450549450547, -0.3125, -0.1875, 1.15625, 0.0
279, 0.6764346764346765, 0.38461538461538464, 1.4639804639804639, 0.1875, -0.375, 1.375, 0.0
280, 1.0097680097680097, -0.8583638583638583, 0.1575091575091575, 0.34375, -0.0625, 1.59375, 0.0
281, 1.4542124542124542, -1.9731379731379732, -0.18437118437118438, 0.03125, 0.03125, 1.375, 0.0
282, 2.06959706959707, -0.8278388278388278, 0.8363858363858364, 0.0, 0.0625, 1.09375, 0.0
283, 1.5811965811965811, 0.017094017094017096, 1.065934065934066, 0.25, 0.0625, 0.84375, 0.0
284, 1.6727716727716728, -0.4603174603174603, 0.21245421245421245, 0.375, 0.0, 1.1875, 0.0
285, 2.357753357753358, -1.547008547008547, -0.8498168498168498, 0.09375, -0.15625, 1.3125, 0.0
286, 2.7313797313797314, -1.7313797313797314, -0.7716727716727717, -0.15625, -0.1875, 1.28125, 0.0
287, 2.735042735042735, -0.44932844932844934, -0.20024420024420025, -0.15625, 0.0, 0.90625, 0.0
288, 2.8034188034188032, 0.03418803418803419, 0.12454212454212454, 0.09375, 0.3125, 0.8125, 0.0
289, 3.8461538461538463, -1.1636141636141637, 0.10134310134310134, 0.21875, 0.28125, 0.90625, 0.0
290, 4.0, -1.9755799755799757, -0.49572649572649574, -0.03125, -0.15625, 0.75, 0.0
291, 2.568986568986569, -1.032967032967033, -0.8021978021978022, -0.25, -0.3125, 0.59375, 0.0
292, 1.4407814407814408, -0.49206349206349204, -0.7594627594627594, 0.0, 0.46875, 0.4375, 0.0
293, 1.695970695970696, -0.9206349206349206, -0.6312576312576312, 0.125, 0.625, 0.375, 0.0
294, 2.1452991452991452, -1.6117216117216118, -0.7228327228327228, -0.15625, 0.15625, 0.28125, 0.0
295, 0.9096459096459096, -0.9096459096459096, -0.7008547008547008, -0.34375, -0.03125, 0.21875, 0.0
296, -0.07448107448107448, -0.2857142857142857, -0.34798534798534797, -0.28125, 0.1875, 0.1875, 0.0
297, -0.16483516483516483, -0.2222222222222222, -0.03907203907203907, -0.1875, 0.34375, 0.15625, 0.0
298, 0.3894993894993895, -0.07203907203907203, 0.5811965811965812, 0.0, 0.09375, 0.0625, 0.0
299, 0.0757020757020757, -0.20146520146520147, 0.19536019536019536, 0.0, -0.15625, -0.03125, 0.0
300, -0.7435897435897436, -0.03418803418803419, -0.2271062271062271, 0.0, -0.15625, 0.0, 0.0
301, -0.7692307692307693, 0.15873015873015872, -0.15506715506715507, 0.0, -0.0625, 0.0, 0.0
302, -0.8046398046398047, 0.18192918192918192, 0.09401709401709402, 0.1875, -0.0625, -0.03125, 0.0
303, -0.8583638583638583, -0.04151404151404151, -0.07326007326007326, 0.34375, -0.125, 0.0, 0.0
304, -0.8424908424908425, -0.5433455433455433, -0.46886446886446886, 0.15625, -0.125, 0.0, 1.0
305, -1.017094017094017, -0.31868131868131866, -0.9706959706959707, -0.15625, -0.03125, 0.0625, 1.0
306, -0.6019536019536019, -0.0695970695970696, -0.07936507936507936, 0.0, 0.0, -0.0625, 1.0
307, -0.19413919413919414, 0.20634920634920634, 0.503052503052503, 0.34375, 0.0, -0.15625, 1.0
308, 0.5042735042735043, -0.4163614163614164, 0.7289377289377289, 0.34375, -0.0625, -0.15625, 1.0
309, 0.6336996336996337, -0.9902319902319903, -0.3125763125763126, -0.0625, 0.03125, -0.03125, 1.0
310, 0.8266178266178266, -1.10989010989011, -1.1892551892551892, -0.90625, 0.15625, 0.03125, 1.0
311, 1.4725274725274726, 0.6227106227106227, 0.24664224664224665, -0.71875, -0.09375, 0.15625, 1.0
312, 1.253968253968254, 0.7118437118437119, 0.8717948717948718, 0.03125, -0.25, 0.03125, 1.0
313, 1.540903540903541, 0.08180708180708181, -0.6642246642246642, 0.28125, 0.0, -0.09375, 1.0
314, 2.0366300366300365, -0.25518925518925517, -1.043956043956044, 0.15625, 0.0, -0.1875, 1.0
315, 2.283272283272283, -0.5958485958485958, -1.0915750915750915, -0.125, -0.0625, -0.09375, 1.0
316, 3.2893772893772892, -0.5396825396825397, -0.09645909645909646, -0.1875, -0.21875, -0.34375, 1.0
317, 2.5177045177045176, -0.6947496947496947, -0.4249084249084249, -0.09375, -0.1875, -0.5, 1.0
318, 2.7606837606837606, -0.6422466422466423, -0.6288156288156288, -0.0625, -0.09375, -0.65625, 1.0
319, 2.8376068376068377, -1.564102564102564, -0.4236874236874237, -0.09375, -0.25, -0.8125, 1.0
320, 1.547008547008547, -1.7924297924297925, -0.9987789987789988, -0.15625, -0.28125, -1.0, 1.0
321, 1.5115995115995116, -2.010989010989011, -1.0134310134310134, -0.15625, 0.03125, -1.125, 1.0
322, 1.8266178266178266, -2.0073260073260073, -0.5323565323565324, -0.21875, 0.0625, -1.25, 1.0
323, 0.38217338217338215, -0.9951159951159951, -0.612942612942613, -0.25, 0.0, -1.375, 1.0
324, 0.10134310134310134, -1.459096459096459, -0.8827838827838828, -0.03125, 0.3125, -1.34375, 1.0
325, 1.010989010989011, -2.4761904761904763, -0.4163614163614164, -0.09375, 0.34375, -1.28125, 1.0
326, 0.3772893772893773, -2.877899877899878, 0.503052503052503, -0.1875, 0.03125, -1.34375, 1.0
327, -0.5470085470085471, -2.832722832722833, 0.22832722832722832, -0.0625, -0.0625, -1.46875, 1.0
328, -1.2783882783882783, -3.6678876678876677, -0.7289377289377289, -0.1875, -0.21875, -1.59375, 1.0
329, -2.954822954822955, -3.8986568986568986, -0.8937728937728938, -0.4375, -0.53125, -1.8125, 1.0
330, -4.854700854700854, -3.208791208791209, -0.4713064713064713, -0.3125, -0.53125, -1.9375, 1.0
331, -5.688644688644689, -1.7411477411477412, -0.43833943833943834, -0.0625, -0.21875, -1.8125, 1.0
332, -5.199023199023199, -1.8595848595848596, -0.6190476190476191, -0.1875, -0.03125, -1.65625, 1.0
333, -5.614163614163614, -1.921855921855922, 0.057387057387057384, -0.625, -0.28125, -1.4375, 1.0
334, -7.233211233211233, -0.35653235653235654, 1.3504273504273505, -0.53125, -0.34375, -1.3125, 1.0
335, -8.098901098901099, 0.20634920634920634, 1.6556776556776556, 0.0, 0.21875, -1.1875, 1.0
336, -6.954822954822955, -0.7448107448107448, 1.4822954822954824, 0.09375, 0.34375, -0.875, 1.0
337, -6.768009768009768, -1.1855921855921856, 1.496947496947497, -0.40625, -0.03125, -0.5625, 1.0
338, -7.04029304029304, -0.5457875457875457, 2.340659340659341, -0.5625, -0.3125, -0.40625, 1.0
339, -7.123321123321123, -0.4432234432234432, 1.9853479853479854, -0.15625, -0.1875, -0.28125, 1.0
340, -5.798534798534798, -1.3675213675213675, 1.1086691086691087, 0.09375, 0.0, -0.09375, 1.0
341, -4.8498168498168495, -1.7704517704517704, 0.21978021978021978, -0.34375, 0.0, -0.0625, 0.0
342, -4.216117216117216, -1.641025641025641, 0.0463980463980464, -0.65625, 0.0625, 0.0, 0.0
343, -3.012210012210012, -1.7264957264957266, 0.7301587301587301, -0.25, -0.25, 0.09375, 0.0
344, -3.838827838827839, -1.2796092796092795, 0.2673992673992674, 0.1875, -0.25, 0.125, 0.0
345, -3.755799755799756, -1.551892551892552, -0.48473748473748474, 0.28125, 0.09375, 0.15625, 0.0
346, -3.2173382173382175, -2.0891330891330893, -0.6556776556776557, 0.0, 0.3125, 0.09375, 0.0
347, -3.142857142857143, -1.7973137973137974, 0.1684981684981685, -0.125, 0.34375, -0.03125, 0.0
348, -3.6043956043956045, -1.242979242979243, 0.21978021978021978, 0.0, 0.21875, 0.625, 0.0
349, -3.5054945054945055, -1.910866910866911, -0.6312576312576312, -0.125, 0.1875, 0.5625, 0.0
350, -4.22954822954823, -1.492063492063492, -0.6862026862026862, -0.3125, 0.25, 0.75, 0.0
351, -3.5103785103785103, -1.3174603174603174, -0.07448107448107448, -0.34375, 0.40625, 0.8125, 0.0
352, -3.4175824175824174, -1.5592185592185592, 0.6398046398046398, -0.1875, 0.5, 0.84375, 0.0
353, -3.4444444444444446, -1.5152625152625152, 0.6336996336996337, 0.0, 0.3125, 1.09375, 0.0
354, -3.7216117216117217, -0.47496947496947495, 0.27472527472527475, 0.125, 0.25, 1.21875, 0.0
355, -3.238095238095238, -0.4932844932844933, -0.2686202686202686, 0.09375, 0.3125, 1.34375, 0.0
356, -1.9377289377289377, -1.9511599511599511, -0.026862026862026864, -0.03125, 0.25, 1.03125, 0.0
357, -1.8913308913308913, -1.465201465201465, 0.7533577533577533, 0.03125, 0.125, 1.0625, 0.0
358, -1.9096459096459097, -1.0073260073260073, 0.5543345543345544, 0.09375, 0.3125, 1.5625, 0.0
359, -1.0024420024420024, -1.1782661782661783, 0.20634920634920634, -0.0625, 0.375, 1.59375, 0.0
360, -0.5225885225885226, -2.336996336996337, 0.6324786324786325, -0.1875, 0.25, 1.59375, 0.0
361, 0.663003663003663, -0.9365079365079365, 1.188034188034188, 0.0, -0.125, 1.3125, 0.0
362, -0.37484737484737485, 0.09523809523809523, 0.5738705738705738, 0.28125, -0.1875, 1.3125, 0.0
363, -1.032967032967033, -0.938949938949939, -0.8864468864468864, 0.21875, 0.125, 1.875, 0.0
364, 0.7313797313797313, -2.5286935286935286, -0.6373626373626373, -0.125, 0.125, 1.78125, 0.0
365, 1.6178266178266179, -0.5262515262515263, 0.20634920634920634, 0.0625, -0.09375, 1.46875, 0.0
366, 0.6495726495726496, -0.9951159951159951, -0.38461538461538464, 0.1875, 0.15625, 1.28125, 0.0
367, 2.0732600732600734, -2.608058608058608, -0.8449328449328449, 0.09375, 0.28125, 1.59375, 0.0
368, 2.7252747252747254, -1.5494505494505495, -0.5934065934065934, -0.25, 0.0, 1.46875, 0.0
369, 2.1135531135531136, -0.5457875457875457, -0.42124542124542125, -0.28125, -0.09375, 1.40625, 0.0
370, 2.3321123321123323, -1.2405372405372406, -0.24053724053724054, -0.125, 0.15625, 1.125, 0.0
371, 2.628815628815629, -1.2991452991452992, 0.03540903540903541, 0.0, 0.21875, 1.03125, 0.0
372, 3.311355311355311, -1.1196581196581197, 0.08913308913308914, 0.0, 0.0, 1.125, 0.0
373, 2.5494505494505493, -0.463980463980464, -0.14774114774114774, -0.09375, -0.21875, 0.90625, 0.0
374, 2.440781440781441, -0.8473748473748474, -0.4053724053724054, -0.09375, -0.1875, 0.90625, 0.0
375, 2.9523809523809526, -1.3418803418803418, -0.42735042735042733, -0.09375, -0.15625, 0.71875, 0.0
376, 2.888888888888889, -1.3308913308913308, -0.41025641025641024, -0.0625, -0.1875, 0.625, 0.0
377, 2.172161172161172, -0.6923076923076923, -0.5164835164835165, -0.15625, 0.0, 0.46875, 0.0
378, 1.938949938949939, -0.3882783882783883, -0.4139194139194139, -0.09375, 0.21875, 0.375, 0.0
379, 1.8815628815628815, -0.5628815628815629, -0.47741147741147744, 0.0, 0.1875, 0.25, 0.0
380, 1.4676434676434675, -0.5763125763125763, -0.08913308913308914, 0.1875, 0.25, 0.0625, 0.0
381, 0.8595848595848596, -0.6654456654456654, -0.663003663003663, 0.15625, 0.25, 0.0, 1.0
382, 0.1111111111111111, -0.13186813186813187, -0.645909645909646, -0.15625, 0.4375, -0.0625, 1.0
383, 0.5567765567765568, 0.09523809523809523, 0.7704517704517705, -0.28125, 0.28125, 0.21875, 1.0
384, 0.4700854700854701, 0.2954822954822955, 0.7411477411477412, -0.21875, 0.09375, 0.09375, 1.0
385, -0.013431013431013432, -0.16117216117216118, -0.0989010989010989, -0.03125, 0.03125, -0.03125, 1.0
386, -0.001221001221001221, -0.44932844932844934, -0.8571428571428571, -0.15625, 0.1875, -0.0625, 1.0
387, 0.42735042735042733, -0.19047619047619047, -0.6581196581196581, -0.5, 0.21875, -0.03125, 1.0
388, 0.8412698412698413, 0.007326007326007326, -0.13186813186813187, -0.59375, 0.03125, 0.03125, 1.0
389, 0.9511599511599511, -0.05128205128205128, 0.21855921855921856, -0.375, -0.1875, 0.0, 1.0
390, 0.7851037851037851, -0.3956043956043956, -0.358974358974359, 0.0, -0.0625, -0.3125, 1.0
391, 1.0818070818070817, -0.32112332112332115, -0.6434676434676435, 0.03125, -0.09375, -0.3125, 1.0
392, 1.3943833943833943, -0.25396825396825395, -0.8888888888888888, -0.03125, -0.34375, -0.1875, 1.0
393, 1.5286935286935286, -0.34554334554334554, -0.9548229548229549, -0.15625, -0.4375, -0.25, 1.0
394, 1.4810744810744811, -0.8485958485958486, -0.9377289377289377, -0.1875, -0.21875, -0.59375, 1.0
395, 1.3956043956043955, -0.9633699633699634, -0.7887667887667887, -0.15625, -0.09375, -0.84375, 1.0
396, 0.9438339438339438, -0.7203907203907204, -0.6373626373626373, -0.09375, -0.125, -0.96875, 1.0
397, 0.18925518925518925, -0.3504273504273504, -0.9694749694749695, 0.0, -0.0625, -1.03125, 1.0
398, 0.4517704517704518, -0.9377289377289377, -1.1343101343101343, -0.125, -0.03125, -1.0625, 1.0
399, 0.2625152625152625, -1.3687423687423688, -0.9511599511599511, -0.21875, -0.125, -1.125, 1.0
400, -0.6336996336996337, -0.978021978021978, -0.8693528693528694, -0.09375, 0.21875, -1.1875, 1.0
401, 0.040293040293040296, -1.3223443223443223, -0.5531135531135531, 0.0, 0.46875, -1.1875, 1.0
402, 0.6312576312576312, -1.822954822954823, -0.1575091575091575, -0.09375, 0.25, -1.25, 1.0
403, 0.35653235653235654, -2.266178266178266, 0.32112332112332115, -0.03125, 0.0, -1.4375, 1.0
404, -0.9938949938949939, -2.318681318681319, -0.10134310134310134, 0.0, 0.0625, -1.6875, 1.0
405, -2.1941391941391943, -2.1684981684981683, -0.645909645909646, 0.0, 0.25, -1.71875, 1.0
406, -2.3394383394383396, -2.733821733821734, -0.5164835164835165, -0.09375, 0.03125, -1.625, 1.0
407, -2.3235653235653237, -3.0891330891330893, -0.08913308913308914, -0.15625, -0.28125, -1.5625, 1.0
408, -3.2124542124542126, -2.5506715506715505, -0.14652014652014653, -0.09375, -0.40625, -1.625, 1.0
409, -4.633699633699634, -1.938949938949939, -0.8852258852258852, -0.15625, -0.0625, -1.71875, 1.0
410, -4.954822954822955, -1.7179487179487178, -0.503052503052503, -0.25, 0.0, -1.5625, 1.0
411, -4.8559218559218555, -1.9304029304029304, 0.18803418803418803, -0.34375, -0.21875, -1.40625, 1.0
412, -6.13919413919414, -1.5934065934065933, 0.5372405372405372, -0.1875, -0.21875, -1.3125, 1.0
413, -6.631257631257632, -1.6715506715506716, 0.42857142857142855, -0.03125, 0.0625, -1.3125, 1.0
414, -6.667887667887668, -1.7667887667887667, 0.6617826617826618, -0.0625, 0.03125, -1.09375, 1.0
415, -7.493284493284493, -0.9242979242979243, 0.9291819291819292, -0.09375, -0.1875, -0.9375, 1.0
416, -7.652014652014652, -0.5665445665445665, 0.5164835164835165, 0.0, -0.0625, -0.78125, 1.0
417, -7.321123321123321, -0.4835164835164835, 0.21001221001221002, -0.0625, -0.0625, -0.53125, 1.0
418, -6.611721611721611, -0.08913308913308914, 0.48717948717948717, -0.1875, -0.0625, -0.34375, 1.0
419, -5.224664224664225, -0.7924297924297924, 0.7631257631257631, -0.25, 0.0, -0.21875, 0.0
420, -5.069597069597069, -1.7728937728937728, 0.31135531135531136, -0.375, -0.0625, -0.125, 0.0
421, -5.288156288156288, -1.1184371184371185, 0.4297924297924298, -0.5625, 0.03125, -0.03125, 0.0
422, -4.78021978021978, -0.811965811965812, 0.9743589743589743, -0.03125, 0.0, 0.03125, 0.0
423, -3.4822954822954824, -1.3785103785103785, 0.9340659340659341, 0.34375, -0.0625, 0.15625, 0.0
424, -3.0525030525030523, -2.0378510378510377, 0.3137973137973138, 0.34375, -0.0625, -0.03125, 0.0
425, -3.967032967032967, -2.5946275946275947, -0.1343101343101343, 0.21875, 0.125, -0.5, 0.0
426, -4.525030525030525, -1.5433455433455434, -0.5970695970695971, 0.15625, 0.1875, 0.0, 0.0
427, -4.039072039072039, -1.4945054945054945, -0.7997557997557998, -0.03125, 0.0, 0.59375, 0.0
428, -4.15995115995116, -1.192918192918193, -0.3711843711843712, -0.3125, 0.03125, 0.75, 0.0
429, -3.673992673992674, -1.3308913308913308, 0.05616605616605617, -0.25, 0.4375, 0.78125, 0.0
430, -3.264957264957265, -1.0598290598290598, 0.11355311355311355, -0.09375, 0.65625, 0.71875, 0.0
431, -3.8644688644688645, -1.5299145299145298, -0.17094017094017094, -0.09375, 0.53125, 0.75, 0.0
432, -3.2808302808302807, -2.3394383394383396, -0.38705738705738707, -0.25, 0.3125, 1.15625, 0.0
433, -2.1233211233211233, -1.2515262515262515, 0.33577533577533575, -0.34375, 0.1875, 1.21875, 0.0
434, -1.3785103785103785, -1.0293040293040292, 0.4554334554334554, -0.15625, 0.21875, 1.1875, 0.0
435, -1.4175824175824177, -1.5262515262515262, 0.17826617826617827, 0.0, 0.0625, 0.96875, 0.0
436, -2.10989010989011, -1.6141636141636142, -0.07814407814407814, 0.0, 0.0, 0.78125, 0.0
437, -1.8339438339438339, -1.1636141636141637, -0.1807081807081807, 0.0, 0.125, 1.09375, 0.0
438, -0.9035409035409036, -0.3956043956043956, -0.11843711843711843, 0.0, 0.25, 1.28125, 0.0
439, -0.5433455433455433, -1.0732600732600732, -0.221001221001221, -0.0625, 0.125, 1.34375, 0.0
440, 0.39316239316239315, -2.277167277167277, 0.09401709401709402, -0.25, -0.0625, 1.09375, 0.0
441, -0.18192918192918192, -1.2796092796092795, 0.6068376068376068, -0.1875, 0.0, 0.6875, 0.0
442, -1.667887667887668, 1.0293040293040292, 0.22466422466422467, 0.25, 0.4375, 1.3125, 0.0
443, -0.13553113553113552, 0.08302808302808302, -0.4017094017094017, 0.21875, 0.53125, 1.46875, 0.0
444, 0.7692307692307693, -1.452991452991453, -0.4822954822954823, -0.15625, 0.15625, 1.40625, 0.0
445, 1.072039072039072, -1.47985347985348, -0.0231990231990232, -0.3125, -0.03125, 1.09375, 0.0
446, 0.36385836385836384, 0.32967032967032966, 0.5372405372405372, 0.0625, 0.09375, 0.78125, 0.0
447, -0.34676434676434675, 0.9352869352869353, 0.08913308913308914, 0.34375, 0.4375, 1.40625, 0.0
448, 1.3968253968253967, -1.2002442002442002, -0.398046398046398, -0.03125, 0.28125, 1.40625, 0.0
449, 2.1746031746031744, -2.15018315018315, -0.3418803418803419, -0.375, -0.1875, 1.28125, 0.0
450, 1.768009768009768, -0.5543345543345544, -0.1282051282051282, -0.15625, -0.25, 1.0, 0.0
451, 0.4432234432234432, 0.11477411477411477, -0.7594627594627594, 0.09375, 0.25, 1.25, 0.0
452, 1.9023199023199022, -1.3565323565323566, -0.9474969474969475, -0.09375, 0.1875, 1.25, 0.0
453, 2.452991452991453, -1.3174603174603174, -0.7973137973137974, -0.3125, -0.125, 1.03125, 0.0
454, 1.862026862026862, -0.43345543345543347, -0.49572649572649574, -0.25, 0.03125, 0.8125, 0.0
455, 1.1245421245421245, -0.09401709401709402, -0.05982905982905983, 0.0, 0.4375, 0.8125, 0.0
456, 1.884004884004884, -1.0427350427350428, 0.008547008547008548, -0.03125, 0.25, 0.65625, 0.0
457, 2.139194139194139, -1.0024420024420024, -0.14652014652014653, -0.25, -0.09375, 0.5, 0.0
458, 1.3711843711843712, -0.5811965811965812, -0.25518925518925517, -0.40625, -0.09375, 0.4375, 0.0
459, 0.6434676434676435, -0.16971916971916973, 0.008547008547008548, -0.34375, 0.09375, 0.5, 0.0
460, 0.7448107448107448, -0.17216117216117216, 0.5225885225885226, -0.1875, 0.21875, 0.34375, 0.0
461, 0.6959706959706959, 0.0, 1.0073260073260073, 0.0, 0.1875, 0.21875, 0.0
462, 0.3992673992673993, -0.054945054945054944, 0.9072039072039072, 0.0, 0.09375, 0.125, 0.0
463, -0.115995115995116, -0.20634920634920634, 0.5482295482295483, -0.1875, -0.03125, 0.0, 0.0
464, -0.9536019536019537, -0.014652014652014652, 0.3724053724053724, -0.0625, -0.09375, -0.09375, 0.0
465, -1.0195360195360195, 0.23931623931623933, 0.4896214896214896, 0.40625, -0.03125, 0.0, 1.0
466, -0.10134310134310134, -1.0647130647130647, -0.7008547008547008, 0.65625, 0.03125, 0.03125, 1.0
467, 0.006105006105006105, -0.8400488400488401, -1.4456654456654456, 0.28125, 0.09375, -0.03125, 1.0
468, -0.09035409035409035, -0.7728937728937729, -1.9291819291819292, -0.25, 0.25, 0.0, 1.0
469, 0.7057387057387058, -0.14896214896214896, -0.702075702075702, -0.53125, 0.28125, 0.0, 1.0
470, 0.7338217338217338, 0.054945054945054944, -0.35775335775335776, -0.34375, 0.0, -0.0625, 1.0
471, 0.8156288156288156, -0.1452991452991453, -0.6996336996336996, -0.21875, 0.0, -0.15625, 1.0
472, 1.1074481074481075, -0.23443223443223443, -0.8363858363858364, -0.28125, 0.0, -0.1875, 1.0
473, 1.2417582417582418, -0.09523809523809523, -0.6031746031746031, -0.28125, -0.15625, -0.3125, 1.0
474, 0.8437118437118437, -0.09035409035409035, -0.7484737484737485, -0.0625, -0.25, -0.40625, 1.0
475, 1.089133089133089, -0.4078144078144078, -1.089133089133089, 0.0, -0.15625, -0.4375, 1.0
476, 1.0390720390720392, -0.7081807081807082, -1.2881562881562882, -0.125, -0.1875, -0.5625, 1.0
477, 0.42124542124542125, -0.3199023199023199, -1.336996336996337, -0.28125, -0.1875, -0.625, 1.0
478, 0.6434676434676435, -0.304029304029304, -0.7057387057387058, -0.21875, -0.1875, -0.625, 1.0
479, 1.0537240537240538, -0.5372405372405372, -0.35653235653235654, -0.0625, -0.25, -0.59375, 1.0
480, 1.1477411477411477, -1.1367521367521367, -0.57997557997558, -0.03125, -0.25, -0.78125, 1.0
481, 0.5445665445665445, -1.962148962148962, -0.9194139194139194, -0.125, -0.09375, -1.0625, 1.0
482, 0.7863247863247863, -1.967032967032967, -0.4554334554334554, -0.21875, 0.03125, -1.1875, 1.0
483, 0.6446886446886447, -1.3907203907203907, -0.31135531135531136, -0.25, -0.0625, -1.21875, 1.0
484, 0.7582417582417582, -2.156288156288156, -0.4713064713064713, -0.25, -0.21875, -1.25, 1.0
485, -0.5946275946275946, -2.518925518925519, -0.7741147741147741, -0.1875, -0.25, -1.53125, 1.0
486, -1.9242979242979243, -2.393162393162393, -1.2063492063492063, -0.03125, 0.09375, -1.625, 1.0
487, -2.1355311355311355, -2.04029304029304, -0.7362637362637363, -0.09375, 0.34375, -1.6875, 1.0
488, -2.244200244200244, -2.0244200244200243, -0.12454212454212454, -0.125, 0.03125, -1.5625, 1.0
489, -3.3565323565323566, -2.4993894993894994, -0.3772893772893773, -0.09375, 0.0625, -1.5, 1.0
490, -3.451770451770452, -2.3076923076923075, -0.13797313797313798, -0.03125, 0.03125, -1.46875, 1.0
491, -4.258852258852259, -2.623931623931624, 0.28815628815628813, -0.09375, 0.0, -1.59375, 1.0
492, -5.433455433455434, -2.0317460317460316, 0.7533577533577533, 0.0, 0.03125, -1.40625, 1.0
493, -5.411477411477412, -1.9255189255189256, 0.5079365079365079, 0.0, -0.09375, -1.4375, 1.0
494, -6.094017094017094, -2.277167277167277, 0.07203907203907203, -0.1875, -0.40625, -1.34375, 1.0
495, -7.507936507936508, -1.5238095238095237, 0.03540903540903541, -0.28125, -0.5, -1.15625, 1.0
496, -8.581196581196581, -0.8620268620268621, 0.05372405372405373, -0.125, -0.03125, -1.0625, 1.0
497, -7.561660561660561, -0.7765567765567766, 0.5873015873015873, 0.0, 0.21875, -0.9375, 1.0
498, -5.8559218559218555, -1.1526251526251525, 0.8925518925518926, -0.0625, -0.0625, -0.65625, 1.0
499, -5.947496947496948, -0.7594627594627594, 0.9047619047619048, -0.09375, -0.21875, -0.5, 1.0
500, -6.288156288156288, -0.3553113553113553, 0.7655677655677655, 0.0, 0.0, -0.3125, 1.0
501, -5.461538461538462, -0.9804639804639804, 0.8620268620268621, 0.0, 0.0, -0.3125, 0.0
502, -5.859584859584859, -1.1025641025641026, 0.6898656898656899, -0.15625, 0.0, -0.09375, 0.0
503, -5.688644688644689, -1.5653235653235653, 0.23076923076923078, -0.59375, 0.09375, 0.15625, 0.0
504, -5.525030525030525, -1.7301587301587302, -0.1343101343101343, -1.0, 0.3125, 0.28125, 0.0
505, -5.289377289377289, -0.8791208791208791, 0.43223443223443225, -0.65625, 0.46875, 0.3125, 0.0
506, -2.9804639804639805, -1.0195360195360195, 1.465201465201465, 0.0625, 0.0, 0.125, 0.0
507, -3.2503052503052503, -2.094017094017094, 0.5494505494505495, 0.34375, -0.34375, -0.1875, 0.0
508, -4.958485958485959, -1.855921855921856, -1.1978021978021978, 0.21875, -0.125, 0.25, 0.0
509, -5.119658119658119, -1.2588522588522588, -1.5299145299145298, -0.03125, 0.375, 0.4375, 0.0
510, -5.115995115995116, -1.4053724053724053, -1.2295482295482296, -0.1875, 0.5, 0.65625, 0.0
511, -4.594627594627594, -1.9523809523809523, -0.6654456654456654, -0.28125, 0.4375, 0.6875, 0.0
512, -2.998778998778999, -1.7924297924297925, 0.590964590964591, -0.125, 0.3125, 0.65625, 0.0
513, -3.0976800976800978, -1.0036630036630036, 0.4908424908424908, 0.0, -0.03125, 0.90625, 0.0
514, -3.929181929181929, -0.7203907203907204, 0.16483516483516483, 0.0, -0.03125, 0.9375, 0.0
515, -3.416361416361416, -0.8583638583638583, -0.10134310134310134, 0.0625, 0.125, 1.125, 0.0
516, -2.73992673992674, -1.2222222222222223, -0.43956043956043955, 0.0, 0.21875, 1.125, 0.0
517, -2.728937728937729, -0.9401709401709402, -0.45787545787545786, -0.09375, 0.3125, 1.28125, 0.0
518, -1.7826617826617828, -0.7301587301587301, -0.15262515262515264, -0.125, 0.3125, 1.5625, 0.0
519, -0.8021978021978022, -1.5836385836385836, 0.231990231990232, -0.09375, 0.25, 1.59375, 0.0
520, -0.590964590964591, -2.2979242979242978, 0.43101343101343104, -0.15625, 0.15625, 1.46875, 0.0
521, -0.6874236874236874, -1.293040293040293, 0.8253968253968254, -0.1875, 0.21875, 1.28125, 0.0
522, 0.19047619047619047, -0.20512820512820512, 0.894993894993895, 0.0, 0.3125, 1.40625, 0.0
523, 0.5653235653235653, -0.8034188034188035, 0.6581196581196581, 0.0625, 0.125, 1.53125, 0.0
524, 0.5641025641025641, -1.735042735042735, 0.44078144078144077, 0.09375, -0.21875, 1.59375, 0.0
525, 0.5201465201465202, -1.5946275946275947, 0.06837606837606838, 0.0625, -0.34375, 1.40625, 0.0
526, -0.6654456654456654, 0.06837606837606838, -0.43101343101343104, 0.125, -0.03125, 1.0625, 0.0
527, -0.525030525030525, -0.49206349206349204, -0.8034188034188035, 0.28125, 0.40625, 1.3125, 0.0
528, 0.9987789987789988, -1.934065934065934, -0.6617826617826618, 0.125, 0.21875, 1.5, 0.0
529, 0.9230769230769231, -1.236874236874237, -0.05982905982905983, -0.15625, -0.34375, 1.375, 0.0
530, 0.3528693528693529, -0.07936507936507936, 0.11477411477411477, -0.09375, -0.3125, 1.09375, 0.0
531, -0.2612942612942613, -0.028083028083028084, 0.020757020757020756, 0.09375, 0.125, 0.78125, 0.0
532, 0.8302808302808303, -1.0097680097680097, -0.3724053724053724, 0.25, 0.28125, 1.125, 0.0
533, 1.2283272283272284, -1.0402930402930404, -0.5653235653235653, 0.0625, -0.03125, 1.09375, 0.0
534, 0.9328449328449329, -0.6581196581196581, -0.6471306471306472, 0.0, -0.1875, 1.0, 0.0
535, 1.0634920634920635, -0.2661782661782662, -0.7448107448107448, 0.03125, 0.0, 0.65625, 0.0
536, 0.9560439560439561, -0.27472527472527475, -0.7313797313797313, 0.03125, 0.21875, 0.59375, 0.0
537, 2.1575091575091574, -0.7264957264957265, -0.4468864468864469, -0.28125, 0.03125, 1.0, 0.0
538, 2.1404151404151404, -0.28327228327228327, -0.24786324786324787, -0.40625, -0.03125, 0.75, 0.0
539, 1.595848595848596, -0.052503052503052504, -0.32967032967032966, -0.25, 0.09375, 0.5, 0.0
540, 1.3846153846153846, -0.30036630036630035, -0.28815628815628813, -0.0625, 0.15625, 0.4375, 0.0
541, 1.695970695970696, -0.3553113553113553, -0.42246642246642246, 0.0, 0.09375, 0.4375, 0.0
542, 1.5360195360195361, -0.24053724053724054, -0.7142857142857143, -0.03125, 0.09375, 0.34375, 0.0
543, 1.706959706959707, -0.5409035409035409, -0.18803418803418803, -0.09375, 0.0, 0.3125, 0.0
544, 1.3919413919413919, -0.1514041514041514, -0.05982905982905983, -0.0625, -0.09375, 0.125, 0.0
545, 0.5714285714285714, 0.17338217338217338, 0.42735042735042733, 0.09375, -0.09375, 0.0625, 1.0
546, -0.014652014652014652, -0.13064713064713065, -0.3418803418803419, -0.03125, 0.03125, 0.03125, 1.0
547, 0.23809523809523808, 0.02564102564102564, -0.525030525030525, -0.375, 0.0, 0.09375, 1.0
548, 0.31135531135531136, -0.3772893772893773, -0.8473748473748474, -0.78125, -0.09375, 0.0625, 1.0
549, 0.009768009768009768, 0.4884004884004884, -0.22832722832722832, -0.5, 0.03125, 0.0, 1.0
550, 0.4810744810744811, 0.199023199023199, 0.13186813186813187, -0.09375, 0.125, -0.1875, 1.0
551, 0.8278388278388278, -0.21001221001221002, -0.19291819291819293, 0.0, 0.09375, -0.25, 1.0
552, 1.3064713064713065, -0.23321123321123322, -0.4053724053724054, -0.03125, 0.0, -0.3125, 1.0
553, 1.1892551892551892, -0.47985347985347987, -0.6617826617826618, -0.15625, -0.09375, -0.34375, 1.0
554, 1.2942612942612943, -0.652014652014652, -0.4810744810744811, -0.1875, -0.21875, -0.5, 1.0
555, 0.7057387057387058, -0.3553113553113553, -0.4078144078144078, -0.125, -0.21875, -0.625, 1.0
556, 0.12454212454212454, -0.11233211233211234, -0.673992673992674, -0.0625, -0.125, -0.625, 1.0
557, 0.2967032967032967, -0.231990231990232, -0.5665445665445665, 0.0, -0.125, -0.6875, 1.0
558, 0.21245421245421245, -0.5763125763125763, -0.7203907203907204, -0.0625, -0.0625, -0.75, 1.0
559, 0.7606837606837606, -0.5982905982905983, -0.4554334554334554, -0.15625, -0.0625, -0.8125, 1.0
560, 0.8827838827838828, -0.9914529914529915, -0.3907203907203907, -0.21875, -0.15625, -0.875, 1.0
561, -0.115995115995116, -1.1892551892551892, -0.6507936507936508, -0.125, 0.0, -1.125, 1.0
562, 0.1575091575091575, -1.5457875457875458, -0.14774114774114774, -0.09375, 0.3125, -1.25, 1.0
563, 0.612942612942613, -0.6996336996336996, 0.36874236874236876, -0.1875, -0.03125, -1.15625, 1.0
564, -0.2612942612942613, -1.4114774114774116, -0.5262515262515263, -0.21875, -0.375, -1.15625, 1.0
565, -1.2197802197802199, -1.8632478632478633, -1.2893772893772895, -0.125, -0.1875, -1.40625, 1.0
566, -1.5763125763125763, -2.1465201465201464, -1.5506715506715507, 0.0, 0.1875, -1.46875, 1.0
567, -1.5225885225885225, -2.4603174603174605, -1.126984126984127, -0.1875, 0.1875, -1.375, 1.0
568, -2.41025641025641, -1.2905982905982907, -0.43223443223443225, -0.34375, -0.0625, -1.3125, 1.0
569, -3.1172161172161172, -1.8547008547008548, -0.7753357753357754, -0.15625, -0.09375, -1.34375, 1.0
570, -3.617826617826618, -2.503052503052503, -1.376068376068376, -0.1875, -0.09375, -1.5, 1.0
571, -4.08058608058608, -1.9816849816849818, -1.4945054945054945, -0.28125, 0.0625, -1.5, 1.0
572, -3.4542124542124544, -2.733821733821734, -1.0818070818070817, -0.3125, 0.25, -1.5, 1.0
573, -4.37973137973138, -3.167277167277167, -0.7094017094017094, -0.375, 0.0, -1.53125, 1.0
574, -5.188034188034188, -2.4786324786324787, 0.231990231990232, -0.34375, -0.0625, -1.5625, 1.0
575, -6.174603174603175, -2.057387057387057, 0.9706959706959707, -0.28125, 0.125, -1.59375, 1.0
576, -7.604395604395604, -1.4102564102564104, 1.3064713064713065, -0.1875, 0.15625, -1.5, 1.0
577, -8.901098901098901, -0.6471306471306472, 1.4188034188034189, -0.15625, 0.03125, -1.28125, 1.0
578, -9.305250305250306, 0.7338217338217338, 1.7008547008547008, -0.15625, -0.0625, -0.96875, 1.0
579, -9.135531135531135, 0.57997557997558, 1.2173382173382172, -0.0625, -0.0625, -0.625, 1.0
580, -7.973137973137973, 0.2271062271062271, 1.1233211233211233, -0.0625, 0.0625, -0.25, 1.0
581, -6.514041514041514, -1.017094017094017, 0.8107448107448108, -0.15625, 0.125, -0.0625, 1.0
582, -6.152625152625153, -1.5494505494505495, 0.6800976800976801, -0.34375, 0.15625, -0.125, 0.0
583, -5.868131868131868, -0.7667887667887668, 0.8974358974358975, -0.4375, 0.25, 0.03125, 0.0
584, -4.506715506715507, -1.0085470085470085, 1.0744810744810744, -0.25, 0.0625, 0.28125, 0.0
585, -4.118437118437118, -1.1282051282051282, 0.4993894993894994, -0.21875, 0.0, 0.34375, 0.0
586, -4.0, -1.404151404151404, 0.06715506715506715, 0.0625, 0.15625, 0.34375, 0.0
587, -4.1098901098901095, -2.0598290598290596, -0.5409035409035409, 0.09375, 0.28125, 0.15625, 0.0
588, -4.462759462759463, -2.0354090354090353, -0.6214896214896215, 0.09375, 0.34375, 0.40625, 0.0
589, -3.6056166056166057, -2.184371184371184, -0.6654456654456654, 0.0, 0.28125, 0.46875, 0.0
590, -3.578754578754579, -1.7374847374847375, -0.08302808302808302, -0.125, 0.1875, 0.46875, 0.0
591, -3.761904761904762, -1.452991452991453, 0.4004884004884005, -0.0625, 0.1875, 0.34375, 0.0
592, -4.908424908424909, -0.9010989010989011, 0.15018315018315018, 0.09375, 0.3125, 0.4375, 0.0
593, -5.822954822954823, -0.2893772893772894, -0.24664224664224665, 0.25, 0.46875, 0.9375, 0.0
594, -4.9010989010989015, -0.6764346764346765, -0.43223443223443225, 0.09375, 0.5, 1.1875, 0.0
595, -3.0634920634920637, -1.164835164835165, -0.10866910866910867, -0.09375, 0.375, 1.3125, 0.0
596, -1.177045177045177, -1.1514041514041513, 0.2490842490842491, -0.09375, 0.15625, 0.84375, 0.0
597, -2.586080586080586, -1.3601953601953602, 0.09768009768009768, 0.03125, 0.25, 0.75, 0.0
598, -3.1794871794871793, -2.039072039072039, -0.7692307692307693, 0.0625, 0.3125, 1.71875, 0.0
599, -1.8717948717948718, -1.8742368742368742, -0.9023199023199023, -0.15625, 0.125, 1.5625, 0.0
600, -1.1074481074481075, -0.7582417582417582, -0.7606837606837606, -0.1875, 0.125, 1.5, 0.0
601, -0.05128205128205128, -1.6581196581196582, -0.5921855921855922, -0.15625, 0.09375, 1.09375, 0.0
602, -1.6178266178266179, -2.0525030525030523, -0.28327228327228327, -0.09375, 0.0625, 1.59375, 0.0
603, -1.1514041514041513, -1.0512820512820513, -0.48473748473748474, -0.25, 0.0625, 1.78125, 0.0
604, -1.5482295482295483, 0.21367521367521367, -0.14285714285714285, -0.25, 0.3125, 1.84375, 0.0
605, -0.3797313797313797, -0.5409035409035409, 0.7374847374847375, -0.25, 0.25, 1.9375, 0.0
606, 1.0854700854700854, -1.5054945054945055, 1.5396825396825398, -0.28125, -0.15625, 1.9375, 0.0
607, 0.7167277167277167, -0.14041514041514042, 1.5677655677655677, -0.09375, -0.3125, 1.75, 0.0
608, -0.3333333333333333, -0.315018315018315, 0.4175824175824176, 0.0, -0.03125, 1.5625, 0.0
609, 0.49206349206349204, -1.601953601953602, -0.2783882783882784, -0.125, 0.0, 1.28125, 0.0
610, 1.1868131868131868, -1.4322344322344323, 0.10500610500610501, 0.03125, -0.28125, 1.28125, 0.0
611, 1.7997557997557998, -0.8766788766788767, -0.8266178266178266, 0.125, -0.3125, 1.5, 0.0
612, 2.387057387057387, -1.7960927960927962, -1.0073260073260073, 0.0, -0.125, 1.3125, 0.0
613, 3.5653235653235655, -1.5054945054945055, -0.463980463980464, -0.125, -0.0625, 1.0, 0.0
614, 2.2014652014652016, 0.05616605616605617, -0.3601953601953602, -0.03125, -0.15625, 0.625, 0.0
615, 2.6971916971916974, -0.6935286935286935, -0.6715506715506715, 0.09375, -0.09375, 1.09375, 0.0
616, 3.357753357753358, -1.3052503052503053, -0.4884004884004884, -0.03125, -0.21875, 0.9375, 0.0
617, 3.1172161172161172, -0.8803418803418803, 0.029304029304029304, -0.125, -0.28125, 0.71875, 0.0
618, 2.343101343101343, -0.18803418803418803, 0.3162393162393162, -0.03125, -0.09375, 0.53125, 0.0
619, 2.2905982905982905, -0.27106227106227104, 0.1978021978021978, -0.03125, 0.0, 0.4375, 0.0
620, 1.6007326007326008, -0.1221001221001221, 0.03296703296703297, -0.03125, -0.09375, 0.375, 0.0
621, 1.0573870573870574, 0.19536019536019536, -0.11355311355311355, 0.0, 0.0, 0.3125, 0.0
622, 0.8803418803418803, 0.3907203907203907, -0.028083028083028084, 0.125, 0.28125, 0.25, 0.0
623, 1.2954822954822955, 0.08180708180708181, 0.24297924297924298, 0.375, 0.4375, 0.125, 0.0
624, 1.7692307692307692, -0.3492063492063492, 0.6263736263736264, 0.5, 0.21875, 0.125, 1.0
625, 1.6324786324786325, -0.5824175824175825, 0.17582417582417584, 0.4375, -0.03125, 0.0, 1.0
626, 0.5738705738705738, -0.2490842490842491, -0.63003663003663, 0.21875, -0.15625, -0.0625, 1.0
627, -0.014652014652014652, -0.4053724053724054, -1.4188034188034189, -0.1875, 0.09375, -0.15625, 1.0
628, 0.19413919413919414, 0.12332112332112333, -0.8864468864468864, -0.53125, 0.375, -0.09375, 1.0
629, 0.04395604395604396, -0.007326007326007326, -0.5177045177045178, -0.25, 0.125, -0.0625, 1.0
630, 0.28815628815628813, -0.5616605616605617, -1.4981684981684982, -0.09375, 0.15625, -0.0625, 1.0
631, 1.0586080586080586, -0.9304029304029304, -1.6764346764346765, -0.34375, 0.25, -0.15625, 1.0
632, 1.496947496947497, -0.6752136752136753, -0.9633699633699634, -0.5625, 0.1875, -0.28125, 1.0
633, 1.1746031746031746, -0.3663003663003663, -0.7289377289377289, -0.4375, 0.09375, -0.4375, 1.0
634, 0.8241758241758241, -0.4542124542124542, -0.9365079365079365, -0.25, 0.09375, -0.5625, 1.0
635, 0.8437118437118437, -0.5567765567765568, -0.8168498168498168, -0.21875, 0.03125, -0.5625, 1.0
636, 0.8473748473748474, -0.9084249084249084, -0.5470085470085471, -0.34375, 0.0, -0.65625, 1.0
637, 0.2576312576312576, -0.5323565323565324, -0.5177045177045178, -0.375, 0.09375, -0.625, 1.0
638, -0.01221001221001221, -0.21245421245421245, -0.42735042735042733, -0.34375, 0.03125, -0.75, 1.0
639, -0.9108669108669109, 0.014652014652014652, -0.40415140415140416, -0.15625, 0.125, -0.8125, 1.0
640, -0.833943833943834, -0.6153846153846154, -0.43223443223443225, -0.09375, 0.28125, -1.0, 1.0
641, -0.030525030525030524, -1.15018315018315, 0.13186813186813187, -0.1875, 0.25, -1.03125, 1.0
642, -0.01221001221001221, -0.9914529914529915, 0.5567765567765568, -0.21875, 0.03125, -1.125, 1.0
643, -0.8290598290598291, -0.7667887667887668, 0.463980463980464, -0.15625, 0.0, -1.125, 1.0
644, -1.3833943833943834, -0.608058608058608, 0.13064713064713065, -0.03125, 0.0, -1.125, 1.0
645, -1.1978021978021978, -0.9621489621489622, -0.0463980463980464, 0.0, 0.0, -1.15625, 1.0
646, -0.42002442002442003, -1.236874236874237, -0.1514041514041514, -0.09375, -0.09375, -1.28125, 1.0
647, -1.315018315018315, -1.1965811965811965, -0.702075702075702, -0.03125, -0.03125, -1.40625, 1.0
648, -2.051282051282051, -1.5714285714285714, -1.2234432234432235, 0.03125, -0.03125, -1.40625, 1.0
649, -2.557997557997558, -1.7655677655677655, -1.3614163614163615, 0.03125, -0.03125, -1.28125, 1.0
650, -2.4664224664224665, -1.9804639804639805, -1.336996336996337, -0.125, 0.0, -1.28125, 1.0
651, -3.061050061050061, -1.5897435897435896, -1.0366300366300367, -0.1875, 0.21875, -1.28125, 1.0
652, -3.238095238095238, -1.1074481074481075, -0.26495726495726496, -0.03125, 0.21875, -1.1875, 1.0
653, -2.7936507936507935, -1.1904761904761905, 0.23809523809523808, -0.03125, -0.1875, -1.09375, 1.0
654, -3.3382173382173383, -1.8852258852258852, -0.0757020757020757, -0.21875, -0.4375, -1.09375, 1.0
655, -4.478632478632479, -1.768009768009768, -0.358974358974359, -0.25, -0.25, -1.25, 1.0
656, -5.844932844932845, -0.9633699633699634, -0.6752136752136753, -0.125, 0.09375, -1.1875, 1.0
657, -5.280830280830281, -0.8974358974358975, -0.6275946275946276, -0.09375, 0.03125, -0.96875, 1.0
658, -5.031746031746032, -1.1294261294261294, -0.15384615384615385, -0.21875, -0.125, -0.875, 1.0
659, -5.976800976800977, -0.6617826617826618, 0.16605616605616605, -0.1875, 0.03125, -0.75, 1.0
660, -5.661782661782662, -0.2967032967032967, 0.6398046398046398, -0.25, 0.03125, -0.65625, 1.0
661, -6.498168498168498, -0.2967032967032967, 0.31746031746031744, -0.53125, -0.03125, -0.5, 0.0
662, -6.355311355311355, 0.10622710622710622, 0.4554334554334554, -0.8125, 0.0, -0.25, 0.0
663, -5.976800976800977, 0.4822954822954823, 1.1941391941391941, -0.625, -0.0625, 0.0, 0.0
664, -5.388278388278389, 0.052503052503052504, 1.177045177045177, -0.1875, -0.03125, 0.15625, 0.0
665, -4.249084249084249, -1.0525030525030525, 0.5848595848595849, 0.0, 0.125, 0.21875, 0.0
666, -3.6971916971916974, -1.5421245421245422, 0.3235653235653236, -0.09375, 0.21875, 0.125, 0.0
667, -4.113553113553113, -1.1623931623931625, 0.3528693528693529, -0.15625, 0.21875, 0.0, 0.0
668, -3.5714285714285716, -1.1452991452991452, 0.27472527472527475, 0.03125, 0.0, 0.4375, 0.0
669, -3.249084249084249, -1.0976800976800978, 0.0, 0.0, -0.15625, 0.46875, 0.0
670, -3.2246642246642248, -1.126984126984127, -0.18681318681318682, 0.0, -0.0625, 0.625, 0.0
671, -2.7875457875457874, -1.982905982905983, -0.2588522588522589, 0.0, 0.15625, 0.59375, 0.0
672, -2.8046398046398044, -2.230769230769231, 0.001221001221001221, 0.0, 0.1875, 0.40625, 0.0
673, -3.105006105006105, -1.1672771672771673, 0.4175824175824176, -0.03125, 0.09375, 0.28125, 0.0
674, -2.967032967032967, -0.10622710622710622, 0.5201465201465202, 0.0, 0.0, 0.5625, 0.0
675, -2.7081807081807083, -0.7619047619047619, 0.12332112332112333, 0.0, -0.0625, 0.8125, 0.0
676, -2.5873015873015874, -1.3846153846153846, -0.10500610500610501, -0.03125, -0.03125, 0.8125, 0.0
677, -1.8864468864468864, -0.7435897435897436, -0.17826617826617827, 0.0, 0.0, 0.6875, 0.0
678, -2.9621489621489623, 0.2490842490842491, -0.2039072039072039, 0.15625, 0.125, 0.5, 0.0
679, -1.6886446886446886, -0.9218559218559218, -0.7264957264957265, 0.21875, 0.21875, 1.4375, 0.0
680, -0.7594627594627594, -1.7887667887667889, -0.3894993894993895, -0.15625, -0.03125, 1.46875, 0.0
681, -0.5274725274725275, -1.0158730158730158, 0.48473748473748474, -0.28125, -0.21875, 1.5, 0.0
682, 0.09157509157509157, -0.5042735042735043, 0.5396825396825397, 0.0, -0.0625, 1.28125, 0.0
683, -0.8302808302808303, -0.13675213675213677, -0.20024420024420025, 0.25, 0.25, 1.03125, 0.0
684, 0.33821733821733824, -1.4786324786324787, -0.9316239316239316, 0.125, 0.15625, 1.59375, 0.0
685, 1.1611721611721613, -2.3028083028083026, -0.8717948717948718, -0.28125, -0.3125, 1.5, 0.0
686, 0.6642246642246642, -1.0927960927960927, -0.4590964590964591, -0.40625, -0.5, 1.34375, 0.0
687, -0.014652014652014652, 0.22344322344322345, -0.002442002442002442, -0.09375, -0.125, 1.0625, 0.0
688, -0.29426129426129427, 0.4468864468864469, 0.2783882783882784, 0.15625, 0.1875, 1.5, 0.0
689, 1.7411477411477412, -1.2820512820512822, -0.02197802197802198, 0.0, -0.03125, 1.75, 0.0
690, 2.733821733821734, -1.9658119658119657, -0.326007326007326, -0.1875, -0.4375, 1.53125, 0.0
691, 2.445665445665446, -1.10989010989011, -0.14774114774114774, -0.03125, -0.34375, 1.3125, 0.0
692, 2.5665445665445668, -0.5091575091575091, 0.28327228327228327, 0.1875, -0.0625, 1.09375, 0.0
693, 2.446886446886447, -0.8266178266178266, 0.13675213675213677, 0.1875, 0.0, 1.375, 0.0
694, 3.3724053724053724, -1.5213675213675213, -0.20512820512820512, 0.0, -0.1875, 1.21875, 0.0
695, 3.221001221001221, -0.8241758241758241, -0.22466422466422467, 0.03125, -0.3125, 1.0625, 0.0
696, 2.942612942612943, -1.061050061050061, -0.45054945054945056, 0.15625, -0.09375, 0.90625, 0.0
697, 2.970695970695971, -1.9145299145299146, -1.2002442002442002, 0.0625, 0.15625, 0.90625, 0.0
698, 3.4432234432234434, -2.376068376068376, -1.277167277167277, -0.1875, 0.3125, 0.625, 0.0
699, 3.0268620268620268, -1.3956043956043955, -0.7008547008547008, -0.3125, 0.4375, 0.40625, 0.0
700, 2.312576312576313, -0.3528693528693529, 0.15384615384615385, -0.15625, 0.53125, 0.21875, 0.0
701, 1.9951159951159951, -0.02442002442002442, 0.568986568986569, 0.03125, 0.375, 0.1875, 0.0
702, 1.7277167277167278, -0.09768009768009768, 0.5372405372405372, 0.0625, 0.125, 0.15625, 0.0
703, 1.1892551892551892, 0.09768009768009768, 0.5164835164835165, 0.1875, 0.03125, 0.03125, 1.0
704, 0.6654456654456654, -0.08791208791208792, 0.13064713064713065, 0.25, 0.0625, 0.0, 1.0
705, 0.2783882783882784, -0.2612942612942613, -0.16727716727716727, 0.125, 0.1875, -0.03125, 1.0
706, 0.8376068376068376, -0.6910866910866911, -0.14163614163614163, -0.125, 0.0625, 0.0, 1.0
707, 1.0146520146520146, -0.49572649572649574, -0.09645909645909646, -0.25, -0.1875, 0.0, 1.0
708, 0.36507936507936506, -0.1855921855921856, -0.2979242979242979, -0.125, -0.15625, -0.09375, 1.0
709, 1.2417582417582418, -0.17704517704517705, -0.45665445665445664, 0.0625, 0.1875, -0.15625, 1.0
710, 1.5299145299145298, -1.0244200244200243, -0.9047619047619048, 0.0, 0.09375, -0.25, 1.0
711, 1.3772893772893773, -0.7875457875457875, -0.6642246642246642, -0.21875, 0.03125, -0.3125, 1.0
712, 1.4273504273504274, -0.7203907203907204, -0.4713064713064713, -0.1875, 0.0, -0.4375, 1.0
713, 1.3028083028083028, -0.873015873015873, -0.6178266178266179, -0.125, -0.0625, -0.53125, 1.0
714, 1.0024420024420024, -0.7533577533577533, -0.7374847374847375, -0.1875, 0.0, -0.59375, 1.0
715, 0.9926739926739927, -0.7423687423687424, -0.5470085470085471, -0.25, 0.03125, -0.6875, 1.0
716, 0.612942612942613, -0.6336996336996337, -0.3540903540903541, -0.25, 0.0, -0.78125, 1.0
717, 0.6031746031746031, -0.4822954822954823, -0.04395604395604396, -0.125, 0.0, -0.8125, 1.0
718, 0.4810744810744811, -0.8278388278388278, -0.14285714285714285, 0.0, -0.125, -1.0, 1.0
719, -0.4358974358974359, -0.9548229548229549, -0.6605616605616605, -0.03125, -0.03125, -1.21875, 1.0
720, -0.6813186813186813, -1.1904761904761905, -0.811965811965812, -0.125, 0.3125, -1.1875, 1.0
721, -0.2869352869352869, -1.3174603174603174, -0.6214896214896215, -0.25, 0.4375, -1.1875, 1.0
722, -0.5347985347985348, -1.5763125763125763, -0.5714285714285714, -0.1875, 0.125, -1.15625, 1.0
723, -0.6886446886446886, -1.9230769230769231, -0.7130647130647131, -0.1875, 0.03125, -1.1875, 1.0
724, -0.5824175824175825, -2.0354090354090353, -0.5347985347985348, -0.21875, 0.09375, -1.3125, 1.0
725, -1.540903540903541, -1.4945054945054945, -0.6166056166056166, -0.28125, 0.125, -1.5, 1.0
726, -1.9474969474969475, -1.4175824175824177, -0.5604395604395604, -0.125, 0.15625, -1.4375, 1.0
727, -2.305250305250305, -1.807081807081807, -0.8131868131868132, -0.03125, 0.0625, -1.4375, 1.0
728, -3.065934065934066, -1.8144078144078144, -0.8632478632478633, -0.03125, 0.15625, -1.4375, 1.0
729, -2.4615384615384617, -1.1428571428571428, -0.38217338217338215, 0.03125, 0.34375, -1.28125, 1.0
730, -1.2722832722832722, -1.8278388278388278, 0.003663003663003663, 0.0625, 0.1875, -1.1875, 1.0
731, -2.221001221001221, -2.070818070818071, -0.17704517704517705, -0.0625, -0.28125, -1.25, 1.0
732, -4.31990231990232, -1.3516483516483517, -0.48595848595848595, -0.09375, -0.21875, -1.375, 1.0
733, -4.4212454212454215, -0.7484737484737485, -0.1978021978021978, 0.21875, 0.34375, -1.375, 1.0
734, -4.437118437118437, -1.122100122100122, -0.009768009768009768, 0.15625, 0.09375, -1.25, 1.0
735, -5.1501831501831505, -0.5347985347985348, 0.16483516483516483, 0.0625, -0.15625, -1.03125, 1.0
736, -5.37973137973138, -0.8717948717948718, -0.08913308913308914, 0.03125, -0.15625, -1.0, 1.0
737, -5.84004884004884, -1.26007326007326, -0.2222222222222222, -0.03125, -0.09375, -1.0, 1.0
738, -6.587301587301587, -0.8754578754578755, -0.3907203907203907, -0.15625, 0.03125, -0.75, 1.0
739, -6.554334554334554, -0.8327228327228328, -0.34554334554334554, -0.21875, 0.0625, -0.53125, 1.0
740, -6.0818070818070815, -0.5262515262515263, 0.06593406593406594, -0.15625, -0.0625, -0.3125, 1.0
741, -5.6642246642246645, -0.6678876678876678, 0.02442002442002442, -0.1875, -0.03125, -0.1875, 0.0
742, -4.989010989010989, -1.1404151404151404, 0.24664224664224665, -0.25, 0.0, -0.21875, 0.0
743, -4.73992673992674, -1.4285714285714286, 0.30158730158730157, -0.4375, -0.09375, -0.0625, 0.0
744, -4.517704517704518, -1.5567765567765568, 0.08547008547008547, -0.71875, -0.0625, 0.125, 0.0
745, -4.760683760683761, -0.8644688644688645, 0.11233211233211234, -0.625, -0.0625, 0.28125, 0.0
746, -4.532356532356532, -0.8974358974358975, 0.4078144078144078, -0.25, 0.0, 0.375, 0.0
747, -3.937728937728938, -1.1526251526251525, 0.5702075702075702, 0.0, 0.1875, 0.34375, 0.0
748, -3.2637362637362637, -1.641025641025641, 0.5824175824175825, 0.0, 0.3125, 0.375, 0.0
749, -3.0366300366300365, -1.592185592185592, 0.14163614163614163, -0.15625, 0.34375, 0.46875, 0.0
750, -2.9975579975579976, -1.7594627594627594, 0.03296703296703297, -0.3125, 0.1875, 0.5, 0.0
751, -3.0952380952380953, -1.6288156288156288, -0.042735042735042736, -0.375, 0.0, 0.4375, 0.0
752, -3.5409035409035408, -0.9914529914529915, 0.32112332112332115, -0.15625, 0.09375, 0.40625, 0.0
753, -2.3687423687423688, -0.9047619047619048, 0.5421245421245421, -0.03125, 0.0625, 0.59375, 0.0
754, -2.7704517704517704, -1.105006105006105, -0.22832722832722832, -0.09375, 0.09375, 0.78125, 0.0
755, -2.989010989010989, -1.4700854700854702, -0.46153846153846156, -0.21875, 0.0625, 0.875, 0.0
756, -2.2979242979242978, -0.5604395604395604, 0.14652014652014653, -0.21875, -0.0625, 1.0, 0.0
757, -1.6923076923076923, -0.73992673992674, -0.017094017094017096, -0.25, -0.09375, 1.0, 0.0
758, -0.9157509157509157, -1.3418803418803418, 0.06349206349206349, -0.1875, 0.0625, 1.3125, 0.0
759, 0.5103785103785103, -0.9902319902319903, 0.4371184371184371, -0.1875, -0.03125, 1.34375, 0.0
760, -0.030525030525030524, -1.1733821733821734, -0.09523809523809523, -0.15625, -0.25, 1.21875, 0.0
761, -0.5677655677655677, -1.5494505494505495, -0.4126984126984127, -0.0625, -0.125, 0.96875, 0.0
762, -0.9438339438339438, -0.7655677655677655, -0.1514041514041514, 0.03125, 0.09375, 0.8125, 0.0
763, 0.029304029304029304, -1.0305250305250304, -0.304029304029304, 0.09375, 0.21875, 1.28125, 0.0
764, 0.6556776556776557, -1.2747252747252746, 0.06837606837606838, -0.125, -0.03125, 1.3125, 0.0
765, 0.11233211233211234, -0.41514041514041516, 0.34676434676434675, -0.1875, -0.3125, 1.25, 0.0
766, 0.28327228327228327, -0.1111111111111111, 0.14041514041514042, 0.0, -0.15625, 1.03125, 0.0
767, -0.042735042735042736, -0.2271062271062271, -0.20757020757020758, 0.0625, 0.03125, 0.8125, 0.0
768, 0.6031746031746031, -0.7631257631257631, -0.6019536019536019, -0.0625, 0.0, 1.5, 0.0
769, 1.3711843711843712, -0.39438339438339437, 0.05128205128205128, -0.34375, -0.21875, 1.5625, 0.0
770, 1.291819291819292, 0.12698412698412698, 0.43223443223443225, -0.15625, -0.3125, 1.4375, 0.0
771, 2.0805860805860807, -0.7692307692307693, -0.057387057387057384, 0.15625, -0.1875, 1.25, 0.0
772, 2.0805860805860807, -1.4175824175824177, -0.8815628815628815, 0.125, -0.15625, 0.9375, 0.0
773, 1.818070818070818, -1.1074481074481075, -1.0305250305250304, -0.09375, -0.15625, 1.125, 0.0
774, 1.7582417582417582, -0.3894993894993895, -0.2796092796092796, -0.21875, -0.0625, 1.09375, 0.0
775, 1.84004884004884, -0.11355311355311355, 0.3333333333333333, -0.0625, -0.0625, 0.96875, 0.0
776, 2.076923076923077, -0.6605616605616605, 0.004884004884004884, 0.0, -0.0625, 0.71875, 0.0
777, 1.7216117216117217, -0.8888888888888888, -0.31135531135531136, 0.0, -0.0625, 0.625, 0.0
778, 1.7863247863247864, -0.37362637362637363, -0.2979242979242979, -0.125, -0.0625, 0.75, 0.0
779, 1.5934065934065933, 0.37606837606837606, -0.031746031746031744, -0.21875, 0.03125, 0.625, 0.0
780, 1.7533577533577533, 0.007326007326007326, 0.221001221001221, -0.03125, 0.0625, 0.59375, 0.0
781, 2.1452991452991452, -0.5531135531135531, -0.10989010989010989, 0.0625, 0.0, 0.5625, 0.0
782, 1.8925518925518925, -0.5653235653235653, -0.5726495726495726, -0.0625, 0.0625, 0.375, 0.0
783, 1.1306471306471306, -0.06349206349206349, -0.6202686202686203, 0.0, 0.28125, 0.21875, 1.0
784, 1.2002442002442002, 0.44932844932844934, 0.25274725274725274, 0.4375, 0.21875, 0.15625, 1.0
785, 1.7716727716727716, -0.33943833943833945, 1.1562881562881564, 0.4375, -0.125, 0.15625, 1.0
786, 1.424908424908425, -0.6043956043956044, -0.11233211233211234, 0.125, -0.21875, 0.09375, 1.0
787, 0.873015873015873, -0.27228327228327226, -1.0195360195360195, -0.15625, 0.03125, 0.0, 1.0
788, 0.38095238095238093, -0.17704517704517705, -0.8986568986568987, -0.28125, 0.125, -0.03125, 1.0
789, 0.5885225885225885, -0.4542124542124542, -1.0598290598290598, -0.5, 0.0625, 0.0, 1.0
790, 0.3443223443223443, -0.17582417582417584, -0.9242979242979243, -0.65625, 0.1875, -0.0625, 1.0
791, 0.3199023199023199, -0.03785103785103785, -0.5824175824175825, -0.5, 0.34375, -0.15625, 1.0
792, 0.796092796092796, 0.04151404151404151, -0.11843711843711843, -0.1875, 0.1875, -0.28125, 1.0
793, 0.7289377289377289, -0.1855921855921856, -0.11965811965811966, -0.09375, 0.0625, -0.375, 1.0
794, 1.1868131868131868, -0.6568986568986569, -0.29181929181929184, -0.1875, 0.0, -0.375, 1.0
795, 1.3553113553113554, -1.0158730158730158, -0.5054945054945055, -0.3125, -0.125, -0.5625, 1.0
796, 0.21855921855921856, -0.7557997557997558, -0.5921855921855922, -0.25, -0.0625, -0.65625, 1.0
797, -0.019536019536019536, -0.2515262515262515, -0.4261294261294261, -0.03125, 0.03125, -0.71875, 1.0
798, 0.2783882783882784, -0.44932844932844934, -0.23443223443223443, 0.0, 0.0, -0.875, 1.0
799, 0.5946275946275946, -1.2942612942612943, -0.4004884004884005, -0.125, -0.125, -1.0, 1.0
800, -0.16361416361416362, -1.3125763125763126, -0.8266178266178266, -0.1875, 0.0, -1.09375, 1.0
801, -0.6214896214896215, -0.8058608058608059, -0.7826617826617827, -0.09375, 0.1875, -1.125, 1.0
802, -0.5604395604395604, -0.6703296703296703, -0.24786324786324787, 0.0625, 0.15625, -1.09375, 1.0
803, -0.17338217338217338, -1.5323565323565325, -0.2869352869352869, 0.0, 0.09375, -1.15625, 1.0
804, 0.08547008547008547, -2.3174603174603177, -0.6593406593406593, -0.28125, 0.0, -1.3125, 1.0
805, -0.6263736263736264, -2.0146520146520146, -0.5177045177045178, -0.28125, 0.0625, -1.40625, 1.0
806, -1.7167277167277166, -1.3846153846153846, -0.6813186813186813, 0.0, 0.25, -1.5, 1.0
807, -0.9706959706959707, -1.0805860805860805, -1.4432234432234432, 0.125, 0.46875, -1.28125, 1.0
808, -1.4578754578754578, -1.6971916971916972, -1.3443223443223444, -0.3125, 0.0625, -1.28125, 1.0
809, -2.1697191697191696, -1.956043956043956, -0.6605616605616605, -0.40625, 0.3125, -1.3125, 1.0
810, -2.1074481074481075, -2.2075702075702077, -0.11843711843711843, -0.03125, 0.65625, -1.40625, 1.0
811, -2.612942612942613, -2.4481074481074483, -0.28205128205128205, 0.21875, 0.53125, -1.4375, 1.0
812, -2.724053724053724, -2.642246642246642, -0.5860805860805861, 0.0, -0.0625, -1.34375, 1.0
813, -5.274725274725275, -1.8376068376068375, -0.9792429792429792, -0.375, -0.5625, -1.5, 1.0
814, -7.301587301587301, -0.652014652014652, -0.8070818070818071, -0.3125, -0.125, -1.4375, 1.0
815, -6.958485958485959, -0.9523809523809523, -0.5665445665445665, 0.0, 0.21875, -1.21875, 1.0
816, -6.975579975579976, -0.8144078144078144, -0.57997557997558, -0.15625, 0.125, -1.125, 1.0
817, -6.736263736263736, -0.10989010989010989, 0.115995115995116, -0.21875, 0.21875, -1.125, 1.0
818, -6.142857142857143, -0.7545787545787546, 0.3333333333333333, -0.125, 0.28125, -1.0, 1.0
819, -6.214896214896215, -1.188034188034188, 0.28205128205128205, -0.15625, 0.03125, -0.75, 1.0
820, -6.34065934065934, -0.9694749694749695, 0.3992673992673993, -0.21875, -0.03125, -0.59375, 1.0
821, -6.12942612942613, -1.010989010989011, 0.63003663003663, -0.28125, 0.03125, -0.46875, 1.0
822, -5.859584859584859, -0.7191697191697192, 1.0732600732600732, -0.3125, 0.0625, -0.375, 1.0
823, -5.601953601953602, -0.3614163614163614, 1.271062271062271, -0.3125, 0.03125, -0.3125, 0.0
824, -6.1440781440781445, -0.673992673992674, 0.34065934065934067, -0.28125, 0.03125, -0.15625, 0.0
825, -5.68009768009768, -1.358974358974359, -0.5543345543345544, -0.34375, 0.21875, 0.125, 0.0
826, -4.6996336996337, -1.1404151404151404, -0.06105006105006105, -0.40625, 0.25, 0.3125, 0.0
827, -3.832722832722833, -1.249084249084249, 0.5506715506715507, -0.09375, 0.1875, 0.34375, 0.0
828, -3.5335775335775335, -1.4236874236874237, 0.4371184371184371, 0.15625, 0.15625, 0.25, 0.0
829, -3.496947496947497, -1.606837606837607, -0.21367521367521367, 0.1875, 0.09375, 0.3125, 0.0
830, -3.6935286935286937, -1.6483516483516483, -0.8278388278388278, 0.0, 0.0, 0.34375, 0.0
831, -4.451770451770452, -1.1904761904761905, -0.9841269841269841, -0.09375, -0.15625, 0.40625, 0.0
832, -4.752136752136752, -0.6947496947496947, -0.7692307692307693, 0.0, 0.0, 0.6875, 0.0
833, -3.6495726495726495, -1.1477411477411477, -0.4297924297924298, 0.0, 0.1875, 0.9375, 0.0
834, -2.5409035409035408, -1.8095238095238095, -0.1111111111111111, -0.1875, 0.09375, 0.90625, 0.0
835, -1.8192918192918193, -1.5775335775335775, 0.06349206349206349, -0.28125, -0.1875, 0.78125, 0.0
836, -2.484737484737485, -1.1404151404151404, -0.18925518925518925, -0.1875, -0.3125, 0.78125, 0.0
837, -3.0244200244200243, -1.1953601953601953, -0.811965811965812, -0.15625, -0.0625, 1.25, 0.0
838, -2.1062271062271063, -1.7191697191697193, -0.525030525030525, -0.3125, 0.0625, 1.375, 0.0
839, -1.5384615384615385, -0.7435897435897436, 0.19047619047619047, -0.28125, 0.0625, 1.375, 0.0
840, -1.0012210012210012, -0.9047619047619048, 0.3431013431013431, -0.15625, 0.03125, 1.28125, 0.0
841, -0.1855921855921856, -1.7863247863247864, 0.4456654456654457, -0.15625, 0.0, 0.90625, 0.0
842, -0.3492063492063492, -1.5384615384615385, 0.41514041514041516, 0.0, 0.0, 1.3125, 0.0
843, 0.2979242979242979, -2.0586080586080584, 0.12698412698412698, -0.125, -0.15625, 1.3125, 0.0
844, -0.34065934065934067, -0.746031746031746, 0.41147741147741146, -0.125, -0.25, 1.21875, 0.0
845, -1.0036630036630036, 0.06593406593406594, 0.3882783882783883, 0.09375, -0.0625, 1.25, 0.0
846, -0.20024420024420025, -0.5335775335775336, 0.13186813186813187, 0.1875, 0.0625, 1.125, 0.0
847, 0.6410256410256411, -1.3968253968253967, 0.22344322344322345, 0.03125, -0.0625, 1.28125, 0.0
848, 1.2148962148962148, -1.2881562881562882, 0.15873015873015872, -0.0625, -0.375, 1.65625, 0.0
849, 1.3015873015873016, -0.463980463980464, 0.22954822954822954, -0.0625, -0.46875, 1.46875, 0.0
850, 0.5567765567765568, 0.2600732600732601, -0.06593406593406594, 0.09375, -0.15625, 1.34375, 0.0
851, 1.3028083028083028, -0.5445665445665445, -0.44078144078144077, 0.15625, 0.03125, 1.125, 0.0
852, 2.2625152625152625, -1.514041514041514, -0.717948717948718, 0.03125, -0.0625, 1.0, 0.0
853, 2.2979242979242978, -1.3064713064713065, -0.7094017094017094, -0.09375, -0.1875, 1.3125, 0.0
854, 2.8144078144078146, -0.7094017094017094, 0.13186813186813187, -0.125, -0.25, 1.15625, 0.0
855, 2.442002442002442, -0.006105006105006105, 0.6495726495726496, -0.03125, -0.25, 1.03125, 0.0
856, 2.481074481074481, -0.31868131868131866, -0.32112332112332115, 0.0, -0.28125, 0.8125, 0.0
857, 1.8754578754578755, -0.518925518925519, -0.9914529914529915, 0.03125, -0.1875, 0.71875, 0.0
858, 2.2222222222222223, -0.3125763125763126, -0.7924297924297924, 0.0, 0.03125, 0.65625, 0.0
859, 2.498168498168498, -0.23321123321123322, -0.304029304029304, -0.125, 0.125, 0.53125, 0.0
860, 2.452991452991453, -0.21367521367521367, 0.06593406593406594, -0.0625, 0.125, 0.4375, 0.0
861, 2.1343101343101343, 0.052503052503052504, -0.09157509157509157, 0.09375, 0.0625, 0.40625, 0.0
862, 1.9096459096459097, -0.2661782661782662, -0.45787545787545786, 0.125, 0.09375, 0.1875, 0.0
863, 1.0, 0.7338217338217338, 0.21367521367521367, 0.03125, 0.15625, -0.09375, 0.0
864, 0.9804639804639804, 0.4542124542124542, 1.0818070818070817, 0.5625, -0.15625, 0.09375, 1.0
865, 0.7851037851037851, -0.42124542124542125, -0.37362637362637363, 0.6875, -0.53125, 0.25, 1.0
866, 0.19047619047619047, -0.398046398046398, -1.656898656898657, 0.25, -0.375, 0.15625, 1.0
867, -0.452991452991453, -0.3308913308913309, -1.8058608058608059, -0.0625, 0.03125, -0.0625, 1.0
868, 0.10989010989010989, -0.10989010989010989, -0.8852258852258852, -0.21875, 0.25, 0.0625, 1.0
869, 0.4163614163614164, -0.06227106227106227, -0.2503052503052503, -0.1875, 0.0625, -0.03125, 1.0
870, 0.3663003663003663, -0.42002442002442003, -0.8205128205128205, -0.1875, 0.09375, -0.09375, 1.0
871, 0.7301587301587301, -0.48473748473748474, -0.9768009768009768, -0.3125, 0.25, -0.09375, 1.0
872, 1.0805860805860805, -0.5445665445665445, -0.6214896214896215, -0.40625, 0.1875, -0.21875, 1.0
873, 0.9597069597069597, -0.2673992673992674, -0.28327228327228327, -0.375, 0.0, -0.28125, 1.0
874, 0.9242979242979243, -0.41514041514041516, -0.3052503052503053, -0.21875, -0.03125, -0.34375, 1.0
875, 0.9658119658119658, -0.8559218559218559, -0.7557997557997558, -0.1875, -0.03125, -0.46875, 1.0
876, 0.41147741147741146, -0.9694749694749695, -1.1123321123321124, -0.25, 0.0, -0.5625, 1.0
877, 0.590964590964591, -0.9096459096459096, -0.7423687423687424, -0.375, 0.125, -0.59375, 1.0
878, 1.043956043956044, -0.652014652014652, -0.026862026862026864, -0.34375, 0.125, -0.65625, 1.0
879, 0.2442002442002442, -0.4993894993894994, -0.32967032967032966, -0.28125, 0.03125, -0.75, 1.0
880, 0.16605616605616605, -0.9206349206349206, -0.4542124542124542, -0.28125, 0.09375, -0.9375, 1.0
881, 0.27106227106227104, -1.3247863247863247, 0.15262515262515264, -0.28125, 0.09375, -1.125, 1.0
882, 0.14896214896214896, -1.010989010989011, 0.5445665445665445, -0.125, 0.09375, -1.21875, 1.0
883, -0.17338217338217338, -0.8864468864468864, 0.3956043956043956, -0.03125, 0.0625, -1.28125, 1.0
884, -0.7350427350427351, -1.1843711843711844, -0.2661782661782662, -0.03125, 0.125, -1.25, 1.0
885, -0.36507936507936506, -1.8547008547008548, -0.17338217338217338, -0.0625, 0.0, -1.34375, 1.0
886, -0.9108669108669109, -1.7777777777777777, -0.03418803418803419, 0.0, -0.0625, -1.53125, 1.0
887, -2.0134310134310134, -1.236874236874237, -0.3492063492063492, 0.15625, 0.15625, -1.40625, 1.0
888, -1.5360195360195361, -1.7448107448107448, -0.5592185592185592, 0.125, 0.125, -1.4375, 1.0
889, -1.468864468864469, -2.537240537240537, -0.938949938949939, -0.125, -0.0625, -1.5625, 1.0
890, -2.426129426129426, -1.448107448107448, -1.1562881562881564, -0.125, -0.09375, -1.625, 1.0
891, -3.507936507936508, -0.5323565323565324, -1.4664224664224663, 0.0, 0.0625, -1.59375, 1.0
892, -3.4224664224664223, -1.4810744810744811, -1.4554334554334554, -0.125, 0.03125, -1.5, 1.0
893, -4.5677655677655675, -1.5836385836385836, -0.6153846153846154, -0.125, -0.0625, -1.34375, 1.0
894, -5.523809523809524, -1.2954822954822955, 0.07081807081807082, 0.09375, 0.09375, -1.21875, 1.0
895, -4.616605616605616, -1.5628815628815629, 0.6019536019536019, 0.09375, 0.0625, -1.1875, 1.0
896, -5.091575091575091, -1.7863247863247864, 0.08669108669108669, 0.0, -0.09375, -1.15625, 1.0
897, -5.926739926739927, -1.7448107448107448, -0.23321123321123322, -0.125, -0.03125, -1.1875, 1.0
898, -6.313797313797314, -1.778998778998779, 0.15995115995115994, -0.25, -0.0625, -1.0625, 1.0
899, -7.126984126984127, -1.1684981684981686, 0.6886446886446886, -0.25, -0.0625, -0.84375, 1.0
900, -7.395604395604396, -0.6654456654456654, 0.7814407814407814, -0.15625, 0.09375, -0.78125, 0.0
901, -6.714285714285714, -0.608058608058608, 0.8559218559218559, -0.28125, 0.0, -0.65625, 0.0
902, -7.2796092796092795, -0.7167277167277167, 0.8156288156288156, -0.59375, 0.03125, -0.40625, 0.0
903, -7.962148962148962, -0.800976800976801, 0.7533577533577533, -0.8125, 0.34375, -0.09375, 0.0
904, -7.035409035409035, 0.05982905982905983, 1.1794871794871795, -0.625, 0.4375, 0.15625, 0.0
905, -5.233211233211233, 0.004884004884004884, 1.1465201465201464, 0.0, -0.40625, 0.0, 0.0
906, -6.4603174603174605, -1.032967032967033, -0.5653235653235653, 0.28125, 0.0, 0.03125, 0.0
907, -5.277167277167277, -2.144078144078144, -1.3467643467643469, 0.25, 0.53125, 0.25, 0.0
908, -4.224664224664225, -2.1965811965811968, -1.0915750915750915, -0.1875, 0.28125, 0.46875, 0.0
909, -4.746031746031746, -1.054945054945055, -0.43956043956043955, -0.40625, -0.15625, 0.59375, 0.0
910, -4.757020757020757, -0.9047619047619048, -0.3064713064713065, -0.15625, -0.03125, 0.71875, 0.0
911, -4.3247863247863245, -1.2991452991452992, -0.304029304029304, -0.0625, 0.1875, 0.75, 0.0
912, -4.140415140415141, -1.1428571428571428, -0.4017094017094017, -0.1875, 0.1875, 0.78125, 0.0
913, -4.065934065934066, -0.8815628815628815, -0.12942612942612944, -0.34375, 0.15625, 0.75, 0.0
914, -3.6483516483516483, -0.6666666666666666, 0.13553113553113552, -0.21875, 0.09375, 1.03125, 0.0
915, -2.8998778998779, -1.105006105006105, -0.21245421245421245, -0.15625, 0.0, 1.34375, 0.0
916, -2.934065934065934, -1.6727716727716728, -0.7289377289377289, -0.15625, 0.125, 1.40625, 0.0
917, -2.131868131868132, -1.5177045177045176, -0.5323565323565324, -0.21875, 0.28125, 1.40625, 0.0
918, -0.3833943833943834, -1.3455433455433456, 0.12454212454212454, -0.1875, 0.25, 1.21875, 0.0
919, -1.1001221001221002, -1.1086691086691087, 0.014652014652014652, -0.125, -0.125, 1.03125, 0.0
920, -1.619047619047619, -0.7142857142857143, -0.6043956043956044, -0.0625, -0.15625, 1.5625, 0.0
921, -0.047619047619047616, -1.199023199023199, -0.5616605616605617, -0.125, 0.09375, 1.78125, 0.0
922, 0.7716727716727717, -1.4676434676434675, 0.05128205128205128, -0.21875, 0.125, 1.6875, 0.0
923, 1.6275946275946276, -1.1978021978021978, 0.8034188034188035, -0.1875, -0.03125, 1.46875, 0.0
924, 1.551892551892552, -0.5421245421245421, 1.293040293040293, 0.0, -0.28125, 0.90625, 0.0
925, -0.06227106227106227, -0.2454212454212454, 0.8131868131868132, 0.21875, -0.1875, 0.78125, 0.0
926, 0.9963369963369964, -1.2124542124542124, 0.10866910866910867, 0.25, -0.03125, 1.46875, 0.0
927, 2.028083028083028, -1.684981684981685, -0.14285714285714285, 0.0625, -0.28125, 1.25, 0.0
928, 1.1257631257631258, -1.1721611721611722, -0.14774114774114774, -0.0625, -0.5, 0.875, 0.0
929, 0.05372405372405373, -0.02197802197802198, 0.08424908424908426, 0.09375, -0.03125, 0.21875, 0.0
930, -1.424908424908425, 0.9853479853479854, -0.40415140415140416, 0.34375, 0.3125, 1.25, 0.0
931, 0.43833943833943834, -0.1794871794871795, -0.8144078144078144, 0.0625, 0.125, 1.4375, 0.0
932, 1.8998778998778998, -1.1452991452991452, -0.5091575091575091, -0.25, -0.375, 1.25, 0.0
933, 1.4700854700854702, -0.645909645909646, 0.008547008547008548, -0.25, -0.3125, 0.96875, 0.0
934, 0.7741147741147741, 0.14163614163614163, 0.4297924297924298, 0.0, 0.125, 0.6875, 0.0
935, 0.575091575091575, 0.0231990231990232, 0.4065934065934066, 0.0625, 0.21875, 0.90625, 0.0
936, 1.5677655677655677, -0.6495726495726496, 0.19536019536019536, -0.15625, -0.15625, 1.03125, 0.0
937, 2.354090354090354, -0.9951159951159951, 0.1684981684981685, -0.21875, -0.4375, 0.90625, 0.0
938, 2.192918192918193, -0.9975579975579976, -0.009768009768009768, -0.0625, -0.1875, 0.75, 0.0
939, 2.3162393162393164, -0.6862026862026862, -0.08424908424908426, 0.09375, 0.21875, 0.5, 0.0
940, 2.6617826617826617, -0.41514041514041516, -0.20146520146520147, 0.125, 0.3125, 0.4375, 0.0
941, 2.114774114774115, 0.3321123321123321, 0.07326007326007326, 0.25, 0.15625, 0.34375, 0.0
942, 1.3394383394383393, 0.7057387057387058, 0.11355311355311355, 0.53125, -0.125, 0.3125, 1.0
943, 0.7350427350427351, -0.2026862026862027, -1.105006105006105, 0.53125, -0.15625, 0.125, 1.0
944, -0.13797313797313798, -0.645909645909646, -2.84004884004884, 0.0, 0.4375, 0.15625, 1.0
945, 0.6800976800976801, -0.8400488400488401, -2.4224664224664223, -0.5, 0.8125, 0.25, 1.0
946, 1.4114774114774116, -0.4822954822954823, -1.636141636141636, -0.875, 0.5625, 0.1875, 1.0
947, 1.5653235653235653, 0.12576312576312576, -0.2698412698412698, -0.65625, 0.125, 0.03125, 1.0
948, 1.2796092796092795, 0.32112332112332115, 0.2844932844932845, -0.15625, 0.0, -0.09375, 1.0
949, 0.9951159951159951, 0.31746031746031744, 0.07692307692307693, 0.15625, 0.0625, -0.3125, 1.0
950, 0.6043956043956044, 0.12332112332112333, -0.57997557997558, 0.15625, 0.03125, -0.28125, 1.0
951, 0.45054945054945056, -0.23321123321123322, -1.1147741147741148, -0.0625, -0.125, -0.40625, 1.0
952, -0.2087912087912088, -0.045177045177045176, -1.2551892551892552, -0.1875, -0.15625, -0.4375, 1.0
953, -0.057387057387057384, -0.2564102564102564, -0.9352869352869353, -0.21875, 0.0, -0.53125, 1.0
954, 0.9829059829059829, -0.6349206349206349, -0.10012210012210013, -0.40625, -0.125, -0.625, 1.0
955, 0.11233211233211234, -0.8144078144078144, -0.052503052503052504, -0.46875, -0.1875, -0.8125, 1.0
956, -0.503052503052503, -0.5775335775335775, -0.13675213675213677, -0.34375, 0.0, -0.90625, 1.0
957, -0.6043956043956044, -0.5726495726495726, -0.07081807081807082, -0.09375, 0.09375, -1.0, 1.0
958, -0.31868131868131866, -1.115995115995116, -0.06471306471306472, -0.0625, 0.1875, -1.03125, 1.0
959, -0.7130647130647131, -0.8229548229548229, -0.02564102564102564, -0.28125, 0.28125, -1.15625, 1.0
960, -0.6703296703296703, -0.645909645909646, 0.32112332112332115, -0.3125, 0.375, -1.125, 1.0
961, -0.8498168498168498, -0.7716727716727717, 0.575091575091575, -0.1875, 0.3125, -1.1875, 1.0
962, -1.3748473748473748, -0.9633699633699634, 0.20634920634920634, 0.03125, 0.25, -1.1875, 1.0
963, -1.9194139194139195, -0.8632478632478633, -0.47985347985347987, 0.15625, 0.40625, -1.25, 1.0
964, -1.3223443223443223, -1.0183150183150182, -0.673992673992674, 0.09375, 0.5, -1.21875, 1.0
965, -0.9914529914529915, -0.7667887667887668, -0.2796092796092796, 0.0, 0.28125, -1.21875, 1.0
966, -1.1672771672771673, -1.15995115995116, -0.4652014652014652, 0.0, 0.03125, -1.125, 1.0
967, -2.2295482295482296, -1.205128205128205, -0.8656898656898657, 0.125, -0.09375, -1.1875, 1.0
968, -2.2637362637362637, -1.3565323565323566, -1.3052503052503053, 0.21875, 0.0625, -1.25, 1.0
969, -1.993894993894994, -1.0427350427350428, -0.7594627594627594, 0.09375, 0.1875, -1.21875, 1.0
970, -1.8156288156288156, -1.1978021978021978, -0.0757020757020757, 0.03125, 0.15625, -1.0, 1.0
971, -2.081807081807082, -0.8754578754578755, 0.2857142857142857, 0.03125, 0.125, -1.0625, 1.0
972, -2.4676434676434678, -1.2503052503052503, 0.14652014652014653, 0.125, -0.125, -1.15625, 1.0
973, -3.7326007326007327, -2.1184371184371185, -0.4249084249084249, 0.0625, -0.375, -1.34375, 1.0
974, -5.619047619047619, -1.7973137973137974, -0.6092796092796092, -0.03125, -0.34375, -1.375, 1.0
975, -6.032967032967033, -1.641025641025641, -0.7777777777777778, -0.09375, -0.25, -1.28125, 1.0
976, -6.37973137973138, -0.8559218559218559, -0.5274725274725275, -0.21875, -0.25, -1.125, 1.0
977, -6.645909645909646, -0.1391941391941392, -0.0463980463980464, -0.21875, -0.09375, -0.90625, 1.0
978, -6.039072039072039, -0.2271062271062271, 0.45665445665445664, -0.15625, 0.125, -0.75, 1.0
979, -5.527472527472527, -0.3504273504273504, 0.7838827838827839, -0.21875, 0.0625, -0.5625, 1.0
980, -5.553113553113553, -0.6288156288156288, 0.7973137973137974, -0.375, 0.03125, -0.375, 0.0
981, -5.633699633699634, -0.6568986568986569, 0.7753357753357754, -0.625, 0.0625, -0.15625, 0.0
982, -6.119658119658119, 0.08669108669108669, 0.8791208791208791, -0.625, 0.125, 0.03125, 0.0
983, -5.652014652014652, 0.1684981684981685, 1.465201465201465, -0.34375, 0.09375, 0.125, 0.0
984, -5.227106227106227, -0.10500610500610501, 1.3418803418803418, 0.0, 0.125, 0.1875, 0.0
985, -4.511599511599512, -0.33455433455433453, 0.8681318681318682, 0.21875, 0.15625, 0.1875, 0.0
986, -4.26007326007326, -1.0341880341880343, -0.03540903540903541, 0.21875, 0.15625, 0.3125, 0.0
987, -3.8815628815628815, -1.8815628815628815, -0.6764346764346765, 0.0625, 0.0625, 0.5, 0.0
988, -3.6385836385836385, -2.126984126984127, -0.7973137973137974, -0.0625, -0.0625, 0.5625, 0.0
989, -3.755799755799756, -1.5164835164835164, -0.6642246642246642, -0.0625, -0.0625, 0.5625, 0.0
990, -4.62026862026862, -1.1367521367521367, -0.9658119658119658, 0.0, 0.125, 0.625, 0.0
991, -4.715506715506716, -1.2026862026862026, -1.0525030525030525, 0.0, 0.34375, 0.90625, 0.0
992, -2.9035409035409034, -1.691086691086691, -0.5518925518925519, -0.21875, 0.21875, 1.09375, 0.0
993, -1.7582417582417582, -1.2942612942612943, 0.18437118437118438, -0.375, -0.03125, 1.0625, 0.0
994, -2.3492063492063493, -0.8229548229548229, 0.3321123321123321, -0.28125, -0.0625, 1.03125, 0.0
995, -2.659340659340659, -0.9401709401709402, 0.18681318681318682, -0.1875, 0.0, 1.03125, 0.0
996, -2.437118437118437, -0.38705738705738707, -0.007326007326007326, -0.09375, 0.0625, 1.28125, 0.0
997, -1.3467643467643469, -1.2087912087912087, -0.49694749694749696, -0.21875, 0.03125, 1.4375, 0.0
998, -0.7765567765567766, -1.735042735042735, -0.46642246642246643, -0.34375, 0.0, 1.5, 0.0
999, -0.4358974358974359, -1.286935286935287, 0.0927960927960928, -0.25, -0.03125, 1.46875, 0.0
1000, 0.5311355311355311, -0.9694749694749695, 0.536019536019536, -0.125, 0.0, 1.21875, 0.0
1001, 0.4078144078144078, -0.9975579975579976, 0.6153846153846154, -0.0625, 0.09375, 1.125, 0.0
1002, 0.3614163614163614, -1.26007326007326, 0.3516483516483517, -0.09375, 0.09375, 1.53125, 0.0
1003, 0.9230769230769231, -0.8021978021978022, 0.44078144078144077, -0.15625, -0.25, 1.46875, 0.0
1004, 0.8253968253968254, -0.8302808302808303, 0.029304029304029304, -0.03125, -0.21875, 1.40625, 0.0
1005, 1.1843711843711844, -1.2063492063492063, 0.06837606837606838, 0.03125, 0.0, 1.28125, 0.0
1006, 1.8547008547008548, -0.7619047619047619, 0.11477411477411477, 0.03125, 0.0, 1.53125, 0.0
1007, 1.9096459096459097, -0.14163614163614163, 0.1514041514041514, -0.03125, -0.125, 1.53125, 0.0
1008, 1.3308913308913308, 0.02442002442002442, -0.015873015873015872, 0.0, -0.15625, 1.4375, 0.0
1009, 1.7094017094017093, -0.9536019536019537, -0.7045177045177046, 0.09375, -0.125, 1.375, 0.0
1010, 2.0634920634920637, -1.1013431013431014, -0.884004884004884, 0.0, -0.125, 1.3125, 0.0
1011, 2.172161172161172, -0.6886446886446886, -0.5628815628815629, -0.09375, -0.09375, 1.1875, 0.0
1012, 1.652014652014652, -0.47619047619047616, -0.43101343101343104, -0.125, -0.0625, 1.0, 0.0
1013, 0.7448107448107448, -0.17826617826617827, -0.3492063492063492, 0.0, 0.03125, 0.96875, 0.0
1014, 1.4627594627594627, -0.5286935286935287, -0.5641025641025641, 0.09375, 0.0625, 1.125, 0.0
1015, 1.4505494505494505, -0.41025641025641024, -0.5042735042735043, -0.0625, 0.03125, 1.03125, 0.0
1016, 1.7765567765567765, -0.6214896214896215, -0.10256410256410256, -0.0625, 0.125, 0.9375, 0.0
1017, 2.3846153846153846, -0.6654456654456654, 0.08547008547008547, -0.03125, 0.28125, 0.875, 0.0
1018, 3.061050061050061, -0.5103785103785103, 0.57997557997558, 0.0, 0.25, 0.71875, 0.0
1019, 2.178266178266178, -0.001221001221001221, 0.3321123321123321, 0.0625, 0.03125, 0.46875, 0.0
1020, 1.7155067155067154, 0.17704517704517705, 0.31868131868131866, 0.3125, 0.0, 0.3125, 0.0
1021, 1.6373626373626373, -0.5811965811965812, -0.19536019536019536, 0.5625, -0.03125, 0.25, 1.0
1022, 1.5677655677655677, -1.1037851037851039, -1.21001221001221, 0.34375, -0.0625, 0.03125, 1.0
1023, 1.1172161172161172, -0.3724053724053724, -1.115995115995116, -0.03125, 0.0, -0.03125, 1.0
1024, 1.5592185592185592, -0.17826617826617827, -0.2576312576312576, -0.125, 0.0625, -0.03125, 1.0
1025, 1.3394383394383393, -0.2954822954822955, -0.30158730158730157, -0.21875, 0.0625, -0.1875, 1.0
1026, 0.9902319902319903, -0.32967032967032966, -0.5714285714285714, -0.40625, 0.0625, -0.21875, 1.0
1027, 1.0244200244200243, 0.16605616605616605, -0.11843711843711843, -0.40625, -0.03125, -0.15625, 1.0
1028, 0.9719169719169719, 0.12332112332112333, 0.040293040293040296, -0.125, -0.15625, -0.3125, 1.0
1029, 0.7619047619047619, -0.12698412698412698, -0.22344322344322345, 0.09375, -0.15625, -0.4375, 1.0
1030, 0.8815628815628815, -0.4932844932844933, -0.6446886446886447, 0.03125, -0.125, -0.59375, 1.0
1031, 0.8583638583638583, -0.6410256410256411, -0.503052503052503, -0.0625, -0.1875, -0.65625, 1.0
1032, 0.4896214896214896, -0.6605616605616605, -0.7203907203907204, -0.21875, -0.15625, -0.71875, 1.0
1033, 0.10012210012210013, -0.4432234432234432, -0.7875457875457875, -0.25, -0.125, -0.84375, 1.0
1034, -0.030525030525030524, -0.4700854700854701, -0.702075702075702, -0.15625, -0.03125, -0.96875, 1.0
1035, 0.1575091575091575, -0.7814407814407814, -0.3992673992673993, -0.15625, 0.0, -1.0, 1.0
1036, 0.2612942612942613, -0.9816849816849816, -0.07814407814407814, -0.1875, -0.0625, -1.15625, 1.0
1037, -0.7533577533577533, -0.9169719169719169, -0.4542124542124542, -0.21875, 0.09375, -1.25, 1.0
1038, -0.9938949938949939, -0.9865689865689866, -0.5763125763125763, -0.3125, 0.1875, -1.25, 1.0
1039, -1.2380952380952381, -0.45787545787545786, -0.31868131868131866, -0.28125, 0.09375, -1.1875, 1.0
1040, -1.4981684981684982, 0.1746031746031746, -0.33821733821733824, -0.0625, 0.125, -1.03125, 1.0
1041, -0.21978021978021978, -1.3235653235653235, -0.4884004884004884, -0.09375, 0.15625, -1.03125, 1.0
1042, 0.10744810744810745, -2.664224664224664, -0.8998778998778999, -0.34375, 0.0, -1.25, 1.0
1043, -1.4725274725274726, -2.5128205128205128, -1.1684981684981686, -0.40625, 0.0625, -1.34375, 1.0
1044, -2.9853479853479854, -1.3418803418803418, -0.63003663003663, -0.15625, 0.375, -1.34375, 1.0
1045, -2.0586080586080584, -1.358974358974359, 0.1514041514041514, 0.03125, 0.40625, -1.21875, 1.0
1046, -0.6495726495726496, -2.687423687423687, 0.5128205128205128, -0.1875, -0.125, -1.25, 1.0
1047, -1.442002442002442, -3.0488400488400487, 0.18803418803418803, -0.34375, -0.5625, -1.5, 1.0
1048, -4.716727716727717, -1.7619047619047619, -0.7167277167277167, -0.0625, -0.0625, -1.625, 1.0
1049, -5.362637362637362, -0.7374847374847375, -0.9755799755799756, 0.1875, 0.5, -1.5, 1.0
1050, -3.623931623931624, -1.8253968253968254, -0.463980463980464, 0.0, 0.3125, -1.34375, 1.0
1051, -3.365079365079365, -2.634920634920635, 0.37484737484737485, -0.34375, -0.15625, -1.4375, 1.0
1052, -5.599511599511599, -0.8449328449328449, 0.6532356532356532, 0.03125, -0.03125, -1.4375, 1.0
1053, -7.084249084249084, -0.2979242979242979, 0.4249084249084249, 0.09375, -0.1875, -1.25, 1.0
1054, -8.377289377289378, 0.2857142857142857, 0.29426129426129427, -0.09375, -0.34375, -1.03125, 1.0
1055, -8.770451770451771, 1.4603174603174602, 0.1391941391941392, -0.09375, -0.1875, -0.6875, 1.0
1056, -7.562881562881563, 0.9377289377289377, 0.32234432234432236, -0.0625, 0.0, -0.375, 1.0
1057, -6.827838827838828, -0.28205128205128205, 0.7301587301587301, -0.09375, 0.0, -0.25, 1.0
1058, -6.026862026862027, -1.0463980463980465, 0.833943833943834, -0.0625, 0.0625, -0.15625, 0.0
1059, -6.021978021978022, -1.0598290598290598, 0.2771672771672772, -0.21875, 0.125, -0.0625, 0.0
1060, -5.903540903540904, -0.905982905982906, -0.08791208791208792, -0.375, 0.28125, 0.1875, 0.0
1061, -5.107448107448107, -0.4297924297924298, 0.1684981684981685, -0.5625, 0.375, 0.46875, 0.0
1062, -3.9975579975579976, -0.525030525030525, 0.7838827838827839, -0.3125, 0.3125, 0.5, 0.0
1063, -3.1697191697191696, -1.6886446886446886, 0.3772893772893773, 0.03125, 0.21875, 0.40625, 0.0
1064, -3.778998778998779, -2.15995115995116, -0.3907203907203907, 0.0625, 0.15625, 0.21875, 0.0
1065, -4.47985347985348, -1.2942612942612943, -0.73992673992674, 0.0, 0.1875, 0.59375, 0.0
1066, -3.4774114774114775, -1.1697191697191698, -0.40415140415140416, -0.0625, 0.3125, 0.8125, 0.0
1067, -3.0805860805860807, -1.2942612942612943, -0.2576312576312576, -0.1875, 0.3125, 0.78125, 0.0
1068, -2.8705738705738706, -1.3882783882783882, 0.015873015873015872, -0.25, 0.28125, 0.75, 0.0
1069, -3.440781440781441, -1.1416361416361416, 0.028083028083028084, -0.1875, 0.1875, 0.5, 0.0
1070, -4.163614163614164, -0.3601953601953602, -0.17582417582417584, -0.03125, 0.3125, 0.78125, 0.0
1071, -3.0683760683760686, -0.6959706959706959, -0.38095238095238093, -0.03125, 0.3125, 1.15625, 0.0
1072, -2.717948717948718, -0.7667887667887668, -0.6532356532356532, -0.21875, 0.125, 1.21875, 0.0
1073, -1.993894993894994, -1.2686202686202686, -0.6214896214896215, -0.34375, 0.125, 1.21875, 0.0
1074, -1.2673992673992673, -1.6166056166056166, -0.1794871794871795, -0.40625, 0.125, 1.09375, 0.0
1075, -1.757020757020757, -0.41025641025641024, 0.3028083028083028, -0.25, 0.0, 1.0625, 0.0
1076, -1.2454212454212454, -0.6666666666666666, -0.1221001221001221, -0.0625, 0.03125, 1.71875, 0.0
1077, -0.4456654456654457, -1.6007326007326008, -0.33577533577533575, -0.28125, 0.0, 1.6875, 0.0
1078, 0.07448107448107448, -1.6556776556776556, -0.05128205128205128, -0.4375, -0.03125, 1.59375, 0.0
1079, 0.5421245421245421, -1.0305250305250304, 0.358974358974359, -0.21875, -0.0625, 1.3125, 0.0
1080, 0.5506715506715507, -0.6105006105006106, 0.3992673992673993, 0.0, -0.15625, 1.0, 0.0
1081, 0.019536019536019536, -1.0390720390720392, -0.24053724053724054, 0.09375, -0.15625, 1.21875, 0.0
1082, 0.6800976800976801, -1.8742368742368742, -0.8083028083028083, -0.09375, -0.15625, 1.5625, 0.0
1083, 1.7985347985347986, -2.1196581196581197, -0.5824175824175825, -0.34375, -0.25, 1.40625, 0.0
1084, 1.2515262515262515, -1.3626373626373627, -0.21978021978021978, -0.3125, -0.1875, 1.15625, 0.0
1085, 0.6532356532356532, -0.42002442002442003, 0.2844932844932845, -0.0625, 0.0, 1.03125, 0.0
1086, 0.4139194139194139, -0.006105006105006105, 0.6019536019536019, 0.0625, 0.0, 1.28125, 0.0
1087, 1.249084249084249, -0.6727716727716728, 0.442002442002442, -0.09375, -0.1875, 1.3125, 0.0
1088, 1.606837606837607, -1.0183150183150182, 0.1575091575091575, -0.34375, -0.28125, 1.15625, 0.0
1089, 1.2576312576312576, -0.452991452991453, 0.34798534798534797, -0.28125, -0.09375, 1.03125, 0.0
1090, 1.5946275946275947, -0.03540903540903541, 1.1184371184371185, 0.0, -0.09375, 0.90625, 0.0
1091, 1.2857142857142858, 0.17094017094017094, 0.9975579975579976, 0.28125, -0.25, 0.875, 0.0
1092, 1.264957264957265, -0.33455433455433453, -0.0927960927960928, 0.1875, -0.25, 0.875, 0.0
1093, 1.4285714285714286, -0.7875457875457875, -0.6190476190476191, 0.0, -0.03125, 0.9375, 0.0
1094, 2.2454212454212454, -0.5470085470085471, -0.21855921855921856, 0.0, 0.125, 0.8125, 0.0
1095, 2.21978021978022, 0.21001221001221002, -0.12698412698412698, 0.1875, 0.1875, 0.59375, 0.0
1096, 2.0805860805860807, 0.27350427350427353, -0.43833943833943834, 0.28125, 0.1875, 0.5, 0.0
1097, 2.536019536019536, -0.3540903540903541, -0.4993894993894994, 0.09375, 0.0, 0.40625, 0.0
1098, 2.385836385836386, -0.020757020757020756, -0.4517704517704518, 0.0625, -0.03125, 0.28125, 0.0
1099, 1.822954822954823, 0.27472527472527475, -0.38095238095238093, 0.40625, 0.03125, 0.09375, 1.0
1100, 1.7802197802197801, -0.08669108669108669, -0.40293040293040294, 0.53125, 0.0625, 0.0625, 1.0
1101, 2.3846153846153846, -1.105006105006105, -1.547008547008547, -0.09375, -0.15625, 0.0, 1.0
1102, 0.5763125763125763, 0.1575091575091575, -1.0231990231990231, -0.375, 0.03125, -0.0625, 1.0
1103, 0.8925518925518926, 0.07326007326007326, -0.590964590964591, -0.3125, 0.1875, -0.0625, 1.0
1104, 1.1367521367521367, -0.15995115995115994, -0.2661782661782662, -0.1875, 0.09375, -0.1875, 1.0
1105, 1.1672771672771673, -0.4371184371184371, -0.46153846153846156, -0.0625, 0.0625, -0.3125, 1.0
1106, 1.0940170940170941, -0.5396825396825397, -0.6007326007326007, -0.09375, 0.09375, -0.46875, 1.0
1107, 0.8742368742368742, -0.35775335775335776, -0.47863247863247865, -0.1875, 0.0, -0.53125, 1.0
1108, 0.3418803418803419, -0.2967032967032967, -0.6727716727716728, -0.1875, -0.0625, -0.5625, 1.0
1109, 0.4517704517704518, -0.5738705738705738, -0.9377289377289377, -0.15625, 0.0, -0.625, 1.0
1110, 0.800976800976801, -1.1196581196581197, -0.9010989010989011, -0.25, 0.03125, -0.71875, 1.0
1111, 0.6947496947496947, -0.9438339438339438, -0.5811965811965812, -0.375, 0.0625, -0.8125, 1.0
1112, 0.03296703296703297, -0.48717948717948717, -0.33821733821733824, -0.3125, 0.09375, -0.96875, 1.0
1113, -1.0866910866910866, -0.040293040293040296, -0.8205128205128205, -0.125, 0.21875, -1.03125, 1.0
1114, -0.5934065934065934, -0.7094017094017094, -0.9401709401709402, -0.03125, 0.3125, -0.875, 1.0
1115, 0.31135531135531136, -1.4395604395604396, -0.45665445665445664, -0.25, 0.25, -1.0, 1.0
1116, 0.14285714285714285, -1.3443223443223444, -0.008547008547008548, -0.4375, 0.1875, -1.15625, 1.0
1117, -0.28815628815628813, -1.3272283272283272, 0.29914529914529914, -0.375, 0.15625, -1.25, 1.0
1118, -1.0244200244200243, -1.0085470085470085, 0.2698412698412698, -0.1875, 0.0625, -1.3125, 1.0
1119, -1.4627594627594627, -0.8021978021978022, 0.22466422466422467, 0.0, 0.0625, -1.25, 1.0
1120, -0.7521367521367521, -0.9658119658119658, 0.08913308913308914, 0.09375, 0.0, -1.15625, 1.0
1121, -1.0256410256410255, -1.8595848595848596, -0.6642246642246642, 0.0, -0.15625, -1.1875, 1.0
1122, -3.1709401709401708, -1.6178266178266179, -1.5396825396825398, 0.03125, -0.1875, -1.375, 1.0
1123, -3.42002442002442, -1.9230769230769231, -1.413919413919414, 0.375, 0.15625, -1.375, 1.0
1124, -1.8253968253968254, -2.4444444444444446, -0.5201465201465202, 0.28125, 0.1875, -1.40625, 1.0
1125, -1.7484737484737485, -2.2466422466422467, 0.5335775335775336, -0.3125, -0.53125, -1.46875, 1.0
1126, -4.395604395604396, -1.5323565323565325, 0.9328449328449329, -0.09375, -0.53125, -1.5625, 1.0
1127, -5.9352869352869355, -1.5323565323565325, 0.47985347985347987, 0.21875, -0.0625, -1.625, 1.0
1128, -5.733821733821734, -1.735042735042735, 0.27472527472527475, 0.09375, 0.03125, -1.65625, 1.0
1129, -5.726495726495727, -1.2039072039072038, 0.6471306471306472, -0.03125, -0.1875, -1.46875, 1.0
1130, -6.559218559218559, -0.48595848595848595, 0.5103785103785103, 0.09375, -0.25, -1.28125, 1.0
1131, -6.888888888888889, -1.2698412698412698, -0.5738705738705738, 0.15625, -0.03125, -1.15625, 1.0
1132, -6.95970695970696, -2.1355311355311355, -0.9877899877899878, 0.0, 0.0625, -1.03125, 1.0
1133, -6.981684981684982, -1.4297924297924298, -0.6105006105006106, -0.125, 0.15625, -0.875, 1.0
1134, -6.384615384615385, -0.7777777777777778, 0.31746031746031744, -0.15625, 0.03125, -0.6875, 1.0
1135, -6.47985347985348, -0.7509157509157509, 0.8302808302808303, -0.25, -0.1875, -0.5625, 1.0
1136, -7.123321123321123, 0.013431013431013432, 1.032967032967033, -0.21875, -0.0625, -0.34375, 0.0
1137, -7.002442002442002, 0.1282051282051282, 0.4065934065934066, -0.3125, 0.125, -0.03125, 0.0
1138, -6.841269841269841, -0.6178266178266179, -0.3235653235653236, -0.59375, 0.3125, 0.1875, 0.0
1139, -5.971916971916972, -0.42857142857142855, -0.1391941391941392, -0.46875, 0.1875, 0.3125, 0.0
1140, -4.865689865689865, -0.5763125763125763, 0.4627594627594628, -0.0625, 0.03125, 0.375, 0.0
1141, -3.923076923076923, -1.0415140415140416, 0.1452991452991453, 0.03125, 0.125, 0.34375, 0.0
1142, -3.04029304029304, -1.9181929181929183, -0.4078144078144078, -0.09375, 0.09375, 0.21875, 0.0
1143, -3.9792429792429793, -2.1306471306471306, -0.7362637362637363, -0.125, 0.03125, 0.375, 0.0
1144, -4.8498168498168495, -1.695970695970696, -0.6227106227106227, 0.0, 0.09375, 0.53125, 0.0
1145, -5.115995115995116, -1.3943833943833943, -0.652014652014652, 0.0, 0.375, 0.6875, 0.0
1146, -3.9157509157509156, -1.5360195360195361, -0.23076923076923078, -0.21875, 0.375, 0.78125, 0.0
1147, -3.559218559218559, -1.1074481074481075, -0.03540903540903541, -0.375, 0.1875, 0.90625, 0.0
1148, -3.7203907203907205, -0.9731379731379731, 0.01221001221001221, -0.375, 0.15625, 1.125, 0.0
1149, -3.2612942612942613, -1.315018315018315, 0.001221001221001221, -0.3125, 0.21875, 1.28125, 0.0
1150, -2.2954822954822953, -1.6654456654456655, 0.23687423687423687, -0.34375, 0.1875, 1.28125, 0.0
1151, -1.5128205128205128, -1.3345543345543345, 0.199023199023199, -0.34375, 0.125, 1.25, 0.0
1152, -1.7203907203907205, -1.2112332112332111, 0.1111111111111111, -0.375, 0.09375, 1.25, 0.0
1153, -1.7985347985347986, -0.673992673992674, -0.003663003663003663, -0.3125, 0.09375, 1.21875, 0.0
1154, -1.3504273504273505, -0.7081807081807082, 0.026862026862026864, -0.1875, 0.15625, 1.375, 0.0
1155, 0.003663003663003663, -1.3772893772893773, 0.12576312576312576, -0.15625, 0.09375, 1.65625, 0.0
1156, 0.6202686202686203, -1.6422466422466422, 0.03907203907203907, -0.21875, -0.125, 1.625, 0.0
1157, 0.5665445665445665, -0.9560439560439561, -0.09523809523809523, -0.21875, -0.25, 1.53125, 0.0
1158, 0.7142857142857143, -0.8498168498168498, -0.07692307692307693, -0.09375, -0.0625, 1.40625, 0.0
1159, 1.3650793650793651, -1.448107448107448, 0.13553113553113552, -0.09375, 0.0, 1.5, 0.0
1160, 1.8595848595848596, -1.8302808302808302, 0.28083028083028083, -0.125, -0.125, 1.4375, 0.0
1161, 1.568986568986569, -1.1941391941391941, 0.3797313797313797, -0.09375, -0.25, 1.21875, 0.0
1162, 0.9365079365079365, -0.1562881562881563, 0.4053724053724054, 0.0, -0.125, 0.96875, 0.0
1163, 0.9267399267399268, -0.231990231990232, 0.14407814407814407, 0.15625, 0.0, 0.84375, 0.0
1164, 0.7655677655677655, -0.5946275946275946, -0.1452991452991453, 0.0625, 0.0, 0.9375, 0.0
1165, 1.6605616605616607, -1.054945054945055, -0.08913308913308914, -0.03125, -0.125, 1.1875, 0.0
1166, 1.4957264957264957, -0.7545787545787546, 0.08424908424908426, -0.09375, -0.25, 0.96875, 0.0
1167, 1.170940170940171, -0.5372405372405372, 0.1855921855921856, -0.03125, -0.09375, 0.78125, 0.0
1168, 1.105006105006105, -0.38217338217338215, 0.17704517704517705, 0.0, -0.03125, 0.5, 0.0
1169, 0.199023199023199, 0.1794871794871795, 0.0463980463980464, -0.03125, -0.09375, 0.4375, 0.0
1170, 0.5702075702075702, -0.06227106227106227, -0.04884004884004884, 0.0, -0.0625, 0.78125, 0.0
1171, 1.1904761904761905, -0.32722832722832723, 0.0463980463980464, 0.0, 0.0, 0.6875, 0.0
1172, 1.7240537240537241, -0.45665445665445664, 0.34676434676434675, 0.03125, 0.0625, 0.59375, 0.0
1173, 1.6825396825396826, -0.20757020757020758, 0.21733821733821734, 0.09375, 0.0, 0.375, 0.0
1174, 1.2735042735042734, -0.1343101343101343, -0.2893772893772894, 0.03125, -0.125, 0.375, 0.0
1175, 0.938949938949939, 0.028083028083028084, -0.5543345543345544, 0.21875, -0.125, 0.25, 0.0
1176, 0.9340659340659341, 0.02442002442002442, -0.23321123321123322, 0.59375, -0.15625, 0.3125, 1.0
1177, 0.6153846153846154, -0.3418803418803419, -0.7936507936507936, 0.625, 0.03125, 0.25, 1.0
1178, 0.9694749694749695, -0.9829059829059829, -1.2954822954822955, 0.15625, 0.15625, 0.09375, 1.0
1179, 0.6703296703296703, -0.8705738705738706, -1.9291819291819292, -0.5625, 0.28125, 0.0, 1.0
1180, 0.7032967032967034, 0.1794871794871795, -0.4884004884004884, -0.53125, 0.125, 0.0, 1.0
1181, 0.4456654456654457, 0.10012210012210013, -0.1452991452991453, -0.34375, 0.0, -0.15625, 1.0
1182, 0.08302808302808302, -0.08669108669108669, -0.6837606837606838, -0.25, 0.03125, -0.21875, 1.0
1183, 0.19658119658119658, -0.10378510378510379, -0.9133089133089133, -0.25, 0.0625, -0.25, 1.0
1184, 0.21367521367521367, -0.05982905982905983, -0.8742368742368742, -0.15625, 0.0, -0.25, 1.0
1185, 0.22344322344322345, -0.14652014652014653, -0.9120879120879121, -0.125, -0.03125, -0.3125, 1.0
1186, 0.3516483516483517, -0.3894993894993895, -0.9633699633699634, -0.09375, 0.0625, -0.46875, 1.0
1187, 0.525030525030525, -0.7155067155067155, -0.9023199023199023, -0.09375, 0.15625, -0.5625, 1.0
1188, 0.6495726495726496, -0.9365079365079365, -0.9340659340659341, -0.1875, 0.0625, -0.59375, 1.0
1189, 0.326007326007326, -0.4481074481074481, -0.7643467643467643, -0.28125, 0.0, -0.65625, 1.0
1190, 0.06227106227106227, -0.5384615384615384, -0.7509157509157509, -0.3125, 0.0, -0.6875, 1.0
1191, -0.06715506715506715, -0.7802197802197802, -0.6691086691086691, -0.40625, 0.0625, -0.78125, 1.0
1192, -0.706959706959707, -0.4297924297924298, -0.5921855921855922, -0.375, 0.1875, -0.84375, 1.0
1193, -0.7680097680097681, -0.0989010989010989, -0.2979242979242979, -0.21875, 0.15625, -0.78125, 1.0
1194, 0.11355311355311355, -0.7887667887667887, 0.05860805860805861, -0.25, -0.15625, -0.90625, 1.0
1195, -1.05006105006105, -0.6898656898656899, -0.14407814407814407, -0.3125, 0.0625, -0.9375, 1.0
1196, -1.1123321123321124, -0.4700854700854701, -0.02197802197802198, -0.125, 0.46875, -1.03125, 1.0
1197, -0.7032967032967034, -1.0305250305250304, 0.10500610500610501, -0.03125, 0.40625, -1.15625, 1.0
1198, -0.800976800976801, -1.0451770451770452, 0.4822954822954823, 0.0, 0.09375, -1.09375, 1.0
1199, -0.7985347985347986, -0.6654456654456654, 0.24297924297924298, 0.0625, -0.0625, -1.125, 1.0
1200, -1.7594627594627594, -1.242979242979243, -0.7753357753357754, 0.0, -0.15625, -1.25, 1.0
1201, -2.94993894993895, -0.6092796092796092, -1.0244200244200243, 0.0, 0.0, -1.28125, 1.0
1202, -2.358974358974359, -0.5457875457875457, -0.63003663003663, 0.15625, 0.3125, -1.15625, 1.0
1203, 0.026862026862026864, -2.1452991452991452, 0.10134310134310134, 0.09375, 0.3125, -1.0, 1.0
1204, -0.5921855921855922, -2.0366300366300365, 0.40293040293040294, -0.3125, -0.3125, -1.0625, 1.0
1205, -3.943833943833944, -0.19047619047619047, 0.2905982905982906, -0.21875, -0.25, -1.3125, 1.0
1206, -4.207570207570208, 0.19413919413919414, 0.663003663003663, 0.3125, 0.375, -1.3125, 1.0
1207, -3.700854700854701, -0.7924297924297924, 0.4175824175824176, 0.59375, 0.375, -1.28125, 1.0
1208, -4.225885225885226, -1.531135531135531, -0.37606837606837606, 0.4375, 0.0625, -1.21875, 1.0
1209, -4.4664224664224665, -1.8473748473748475, -0.7081807081807082, 0.25, 0.0, -1.21875, 1.0
1210, -4.921855921855922, -1.547008547008547, -0.45054945054945056, 0.15625, 0.0, -1.25, 1.0
1211, -5.586080586080586, -1.3492063492063493, -0.6593406593406593, 0.125, -0.21875, -1.15625, 1.0
1212, -6.818070818070818, -1.6507936507936507, -1.1831501831501832, 0.0625, -0.21875, -1.0625, 1.0
1213, -7.0366300366300365, -1.540903540903541, -1.4175824175824177, -0.03125, -0.03125, -0.90625, 1.0
1214, -6.721611721611722, -0.811965811965812, -0.47741147741147744, -0.25, 0.03125, -0.8125, 1.0
1215, -6.384615384615385, -0.1514041514041514, 0.5299145299145299, -0.34375, 0.03125, -0.5625, 1.0
1216, -5.843711843711843, 0.008547008547008548, 0.9902319902319903, -0.34375, -0.03125, -0.375, 0.0
1217, -5.797313797313797, -0.5860805860805861, 0.4371184371184371, -0.4375, 0.0, -0.1875, 0.0
1218, -5.7997557997558, -1.0122100122100122, 0.11477411477411477, -0.59375, 0.15625, 0.0, 0.0
1219, -4.880341880341881, -0.7032967032967034, 0.7557997557997558, -0.75, 0.40625, 0.125, 0.0
1220, -3.1892551892551895, -0.5702075702075702, 1.7728937728937728, -0.375, 0.34375, 0.125, 0.0
1221, -3.47008547008547, -1.1025641025641026, 1.0793650793650793, 0.0, 0.25, -0.0625, 0.0
1222, -3.5555555555555554, -1.2271062271062272, -0.14041514041514042, 0.09375, 0.21875, 0.09375, 0.0
1223, -3.2332112332112333, -1.199023199023199, -0.6544566544566545, -0.15625, 0.0, 0.4375, 0.0
1224, -3.68986568986569, -1.3186813186813187, -0.6617826617826618, -0.28125, 0.09375, 0.59375, 0.0
1225, -3.6031746031746033, -1.811965811965812, -0.48473748473748474, -0.21875, 0.25, 0.53125, 0.0
1226, -2.6715506715506714, -1.894993894993895, -0.12942612942612944, -0.15625, 0.1875, 0.34375, 0.0
1227, -3.1904761904761907, -1.1489621489621489, -0.054945054945054944, -0.09375, 0.0, 0.5, 0.0
1228, -3.3455433455433456, -0.42857142857142855, -0.27228327228327226, -0.125, -0.28125, 0.75, 0.0
1229, -3.6092796092796093, -0.6312576312576312, -0.7765567765567766, -0.28125, -0.34375, 0.9375, 0.0
1230, -3.4615384615384617, -1.4285714285714286, -1.0305250305250304, -0.46875, -0.1875, 1.0625, 0.0
1231, -2.6715506715506714, -1.691086691086691, -0.6385836385836385, -0.5, -0.03125, 1.03125, 0.0
1232, -2.006105006105006, -0.6324786324786325, 0.08547008547008547, -0.28125, -0.125, 1.1875, 0.0
1233, -1.6984126984126984, 0.3724053724053724, 0.30158730158730157, -0.03125, -0.25, 1.4375, 0.0
1234, -1.133089133089133, -0.9731379731379731, -0.29426129426129427, -0.21875, -0.25, 1.625, 0.0
1235, -0.42002442002442003, -2.275946275946276, -0.21733821733821734, -0.5, -0.25, 1.5625, 0.0
1236, 0.050061050061050064, -1.5763125763125763, 0.3785103785103785, -0.40625, -0.15625, 1.40625, 0.0
