timestamp, accX, accY, accZ, gyroX, gyroY, gyroZ, button
1036, 0.014652014652014652, -0.07203907203907203, -0.12332112332112333, -0.09375, 0.03125, 0.03125, 0.0
1037, 0.004884004884004884, -0.02197802197802198, -0.10989010989010989, -0.09375, 0.0, 0.03125, 0.0
1038, -0.052503052503052504, -0.007326007326007326, -0.10500610500610501, -0.09375, 0.03125, 0.03125, 0.0
1039, -0.05128205128205128, -0.017094017094017096, -0.09157509157509157, -0.09375, 0.03125, 0.03125, 0.0
1040, -0.019536019536019536, -0.05372405372405373, -0.08302808302808302, -0.0625, 0.03125, 0.03125, 0.0
1, 0.06715506715506715, -0.0989010989010989, -0.06837606837606838, -0.0625, 0.03125, 0.03125, 0.0
2, 0.03418803418803419, -0.08180708180708181, -0.013431013431013432, -0.09375, 0.03125, 0.03125, 0.0
3, -0.009768009768009768, -0.0695970695970696, -0.026862026862026864, -0.0625, 0.03125, 0.03125, 0.0
4, -0.03785103785103785, -0.07203907203907203, -0.050061050061050064, -0.0625, 0.0625, 0.03125, 0.0
5, -0.008547008547008548, -0.03907203907203907, 0.004884004884004884, -0.09375, 0.03125, 0.03125, 0.0
6, -0.002442002442002442, -0.02442002442002442, 0.014652014652014652, -0.09375, 0.03125, 0.03125, 0.0
7, 0.0, -0.03418803418803419, -0.04395604395604396, -0.09375, 0.03125, 0.03125, 0.0
8, -0.019536019536019536, -0.015873015873015872, -0.07814407814407814, -0.09375, 0.0, 0.03125, 0.0
9, -0.0757020757020757, -0.009768009768009768, -0.09157509157509157, -0.125, 0.03125, 0.03125, 0.0
10, -0.042735042735042736, -0.01221001221001221, -0.03907203907203907, -0.09375, 0.0625, 0.0625, 0.0
11, -0.004884004884004884, -0.03663003663003663, -0.0695970695970696, -0.09375, 0.0625, 0.0625, 0.0
12, 0.03785103785103785, -0.06227106227106227, -0.0927960927960928, -0.09375, 0.03125, 0.03125, 0.0
13, -0.009768009768009768, -0.045177045177045176, -0.08424908424908426, -0.09375, 0.03125, 0.03125, 0.0
14, -0.04151404151404151, -0.019536019536019536, -0.02197802197802198, -0.09375, 0.0625, 0.03125, 0.0
15, 0.017094017094017096, -0.054945054945054944, -0.045177045177045176, -0.09375, 0.03125, 0.03125, 0.0
16, 0.03907203907203907, -0.05372405372405373, -0.057387057387057384, -0.09375, 0.03125, 0.03125, 0.0
17, 0.003663003663003663, -0.03663003663003663, -0.05860805860805861, -0.09375, 0.0, 0.03125, 0.0
18, -0.09035409035409035, 0.020757020757020756, -0.042735042735042736, -0.09375, 0.03125, 0.03125, 0.0
19, -0.047619047619047616, -0.047619047619047616, -0.08058608058608059, -0.09375, 0.03125, 0.03125, 0.0
20, -0.030525030525030524, -0.02442002442002442, -0.06837606837606838, -0.09375, 0.03125, 0.03125, 0.0
21, 0.020757020757020756, -0.05128205128205128, -0.07081807081807082, -0.09375, 0.03125, 0.03125, 0.0
22, -0.006105006105006105, -0.017094017094017096, -0.10622710622710622, -0.0625, 0.03125, 0.03125, 0.0
23, -0.026862026862026864, -0.030525030525030524, -0.06593406593406594, -0.09375, 0.0625, 0.03125, 0.0
24, 0.05982905982905983, -0.10866910866910867, -0.02197802197802198, -0.09375, 0.03125, 0.03125, 0.0
25, 0.03418803418803419, -0.08180708180708181, -0.03540903540903541, -0.09375, 0.0, 0.03125, 0.0
26, 0.0, -0.05128205128205128, -0.06837606837606838, -0.09375, 0.0, 0.03125, 0.0
27, -0.03418803418803419, -0.03540903540903541, -0.0757020757020757, -0.09375, 0.03125, 0.03125, 0.0
28, -0.019536019536019536, -0.019536019536019536, -0.004884004884004884, -0.09375, 0.0, 0.03125, 0.0
29, -0.006105006105006105, -0.02442002442002442, 0.004884004884004884, -0.09375, 0.0, 0.03125, 0.0
30, -0.014652014652014652, -0.05128205128205128, -0.11355311355311355, -0.09375, 0.03125, 0.03125, 0.0
31, -0.002442002442002442, -0.02442002442002442, -0.14896214896214896, -0.09375, 0.03125, 0.03125, 0.0
32, 0.018315018315018316, -0.0463980463980464, -0.16117216117216118, -0.09375, 0.03125, 0.03125, 0.0
33, -0.007326007326007326, -0.03540903540903541, -0.02564102564102564, -0.09375, 0.0, 0.03125, 0.0
34, -0.017094017094017096, -0.015873015873015872, -0.002442002442002442, -0.09375, 0.0, 0.03125, 0.0
35, 0.042735042735042736, -0.06715506715506715, -0.03540903540903541, -0.09375, 0.03125, 0.03125, 0.0
36, 0.008547008547008548, -0.050061050061050064, -0.04884004884004884, -0.09375, 0.0, 0.03125, 0.0
37, -0.03418803418803419, -0.050061050061050064, -0.029304029304029304, -0.09375, 0.03125, 0.03125, 0.0
38, -0.0463980463980464, -0.05128205128205128, -0.03907203907203907, -0.09375, 0.0, 0.03125, 0.0
39, -0.01098901098901099, -0.031746031746031744, -0.057387057387057384, -0.09375, 0.03125, 0.03125, 0.0
40, 0.047619047619047616, -0.04395604395604396, -0.029304029304029304, -0.09375, 0.03125, 0.03125, 0.0
41, -0.004884004884004884, -0.020757020757020756, -0.054945054945054944, -0.09375, 0.0, 0.03125, 0.0
42, -0.008547008547008548, -0.029304029304029304, -0.06349206349206349, -0.09375, 0.03125, 0.03125, 0.0
43, -0.06105006105006105, -0.03540903540903541, -0.08058608058608059, -0.09375, 0.0, 0.03125, 0.0
44, -0.008547008547008548, -0.040293040293040296, -0.06227106227106227, -0.09375, 0.03125, 0.03125, 0.0
45, 0.0, -0.03418803418803419, -0.04395604395604396, -0.09375, 0.03125, 0.03125, 0.0
46, -0.009768009768009768, -0.031746031746031744, -0.08302808302808302, -0.09375, 0.03125, 0.03125, 0.0
47, 0.007326007326007326, -0.04151404151404151, -0.05616605616605617, -0.09375, 0.03125, 0.03125, 0.0
48, -0.003663003663003663, -0.02442002442002442, 0.01098901098901099, -0.09375, 0.03125, 0.03125, 0.0
49, -0.003663003663003663, -0.030525030525030524, -0.03663003663003663, -0.09375, 0.03125, 0.03125, 0.0
50, -0.008547008547008548, -0.02197802197802198, -0.10134310134310134, -0.09375, 0.03125, 0.03125, 0.0
51, 0.0, -0.030525030525030524, -0.14896214896214896, -0.0625, 0.03125, 0.03125, 0.0
52, -0.009768009768009768, -0.0231990231990232, -0.115995115995116, -0.0625, 0.03125, 0.03125, 0.0
53, -0.017094017094017096, -0.030525030525030524, -0.057387057387057384, -0.09375, 0.03125, 0.03125, 0.0
54, 0.05860805860805861, -0.12332112332112333, -0.03296703296703297, -0.0625, 0.03125, 0.03125, 0.0
55, 0.04884004884004884, -0.10256410256410256, -0.018315018315018316, -0.09375, 0.0, 0.03125, 0.0
56, -0.05128205128205128, -0.042735042735042736, -0.026862026862026864, -0.09375, 0.0, 0.03125, 0.0
57, -0.07448107448107448, -0.052503052503052504, -0.02564102564102564, -0.09375, 0.0, 0.03125, 0.0
58, -0.040293040293040296, -0.02442002442002442, -0.02197802197802198, -0.09375, 0.03125, 0.03125, 0.0
59, 0.017094017094017096, -0.08302808302808302, -0.08547008547008547, -0.09375, 0.03125, 0.03125, 0.0
60, -0.004884004884004884, -0.031746031746031744, -0.06593406593406594, -0.09375, 0.03125, 0.03125, 0.0
61, 0.004884004884004884, -0.03785103785103785, -0.05860805860805861, -0.09375, 0.0625, 0.03125, 0.0
62, 0.020757020757020756, -0.040293040293040296, -0.01221001221001221, -0.09375, 0.03125, 0.03125, 0.0
63, -0.2222222222222222, 0.11233211233211234, -0.8205128205128205, 0.09375, 0.75, -0.28125, 0.0
64, 0.3089133089133089, 0.13064713064713065, -0.29181929181929184, 0.03125, 0.75, -0.3125, 0.0
65, 0.10866910866910867, -0.09401709401709402, -0.32967032967032966, 0.0, 0.5, -0.25, 0.0
66, 0.09523809523809523, -0.10866910866910867, -0.4163614163614164, -0.09375, 0.34375, -0.09375, 0.0
67, 0.21245421245421245, -0.14285714285714285, -0.36874236874236876, -0.28125, 0.1875, -0.03125, 0.0
68, 0.1978021978021978, -0.1623931623931624, -0.16483516483516483, -0.4375, 0.0, 0.0, 0.0
69, -0.4432234432234432, -0.07692307692307693, -0.2612942612942613, -0.4375, -0.0625, -0.03125, 0.0
70, -0.40415140415140416, -0.14285714285714285, -0.29181929181929184, -0.40625, 0.0625, 0.0, 0.0
71, -0.24664224664224665, -0.08791208791208792, -0.16117216117216118, -0.46875, 0.25, 0.0, 0.0
72, -0.20634920634920634, -0.03296703296703297, 0.026862026862026864, -0.53125, 0.34375, 0.0, 0.0
73, -0.10378510378510379, -0.0989010989010989, 0.47985347985347987, -0.4375, 0.34375, -0.03125, 0.0
74, -0.11477411477411477, -0.10866910866910867, 0.7216117216117216, -0.3125, 0.25, 0.0, 0.0
75, -0.015873015873015872, -0.24786324786324787, 0.6471306471306472, -0.25, 0.09375, -0.03125, 0.0
76, -0.1111111111111111, -0.3992673992673993, 0.4725274725274725, -0.3125, 0.0, -0.0625, 0.0
77, -0.115995115995116, -0.5445665445665445, 0.3028083028083028, -0.4375, 0.09375, -0.0625, 0.0
78, -0.16117216117216118, -0.30036630036630035, 0.4896214896214896, -0.5, 0.21875, -0.0625, 0.0
79, -0.09157509157509157, -0.21733821733821734, 0.9169719169719169, -0.34375, 0.1875, -0.03125, 0.0
80, 0.003663003663003663, -0.14285714285714285, 1.1721611721611722, -0.15625, -0.0625, 0.0, 0.0
81, -0.07814407814407814, -0.12942612942612944, 0.9340659340659341, 0.03125, -0.3125, 0.0, 0.0
82, -0.2442002442002442, -0.23931623931623933, 0.48595848595848595, 0.03125, -0.375, 0.0, 0.0
83, -0.4603174603174603, -0.0463980463980464, 0.2905982905982906, 0.0, -0.3125, 0.0, 0.0
84, -0.4249084249084249, -0.01098901098901099, 0.4078144078144078, 0.0, -0.28125, 0.0, 0.0
85, -0.28815628815628813, -0.2026862026862027, 0.336996336996337, 0.09375, -0.28125, 0.0, 0.0
86, -0.4932844932844933, -0.3052503052503053, -0.026862026862026864, 0.15625, -0.1875, -0.03125, 0.0
87, -0.15262515262515264, -0.40293040293040294, -0.13675213675213677, 0.125, -0.125, 0.0, 0.0
88, -0.2222222222222222, -0.2796092796092796, -0.2905982905982906, 0.0625, -0.09375, 0.0, 0.0
89, -0.3711843711843712, -0.2490842490842491, -0.409035409035409, 0.0, -0.03125, 0.0, 0.0
90, -0.2686202686202686, -0.12332112332112333, -0.26495726495726496, 0.0, 0.0, 0.03125, 0.0
91, -0.047619047619047616, 0.017094017094017096, -0.221001221001221, 0.03125, 0.03125, 0.03125, 0.0
92, 0.21367521367521367, -0.14041514041514042, -0.20512820512820512, 0.03125, 0.09375, 0.0, 0.0
93, 0.22344322344322345, -0.32844932844932845, -0.37606837606837606, 0.0, 0.125, -0.0625, 0.0
94, -0.04151404151404151, -0.1391941391941392, -0.5091575091575091, -0.125, 0.1875, 0.0, 0.0
95, -0.0231990231990232, 0.017094017094017096, -0.2905982905982906, -0.09375, 0.15625, 0.0625, 0.0
96, 0.05982905982905983, -0.031746031746031744, -0.08180708180708181, -0.03125, -0.09375, 0.0625, 0.0
97, -0.028083028083028084, 0.06715506715506715, -0.3089133089133089, 0.0, -0.0625, 0.0625, 0.0
98, 0.13797313797313798, -0.007326007326007326, -0.21123321123321123, 0.0, 0.0, 0.09375, 0.0
99, 0.06715506715506715, -0.06471306471306472, -0.1391941391941392, -0.03125, 0.0, 0.09375, 0.0
100, 0.11355311355311355, -0.057387057387057384, -0.07203907203907203, -0.09375, 0.0, 0.0625, 0.0
101, -0.028083028083028084, -0.013431013431013432, -0.1282051282051282, -0.0625, -0.0625, 0.03125, 0.0
102, -0.08302808302808302, -0.05982905982905983, -0.23076923076923078, -0.0625, -0.03125, 0.03125, 0.0
103, -0.002442002442002442, -0.015873015873015872, 0.06715506715506715, -0.0625, 0.0, 0.03125, 0.0
104, 0.03785103785103785, -0.10622710622710622, 0.10012210012210013, -0.03125, 0.0, 0.03125, 0.0
105, 0.008547008547008548, -0.047619047619047616, 0.14163614163614163, 0.0, 0.03125, 0.03125, 0.0
106, 0.07814407814407814, -0.115995115995116, 0.30158730158730157, 0.03125, 0.03125, 0.03125, 0.0
107, 0.10134310134310134, -0.19047619047619047, 0.2869352869352869, 0.03125, 0.0, 0.0, 0.0
108, -0.12698412698412698, -0.05128205128205128, 0.04884004884004884, 0.03125, -0.09375, -0.03125, 0.0
109, -0.22954822954822954, 0.01221001221001221, -0.17094017094017094, 0.0, -0.0625, -0.03125, 0.0
110, -0.21978021978021978, 0.12698412698412698, -0.1221001221001221, 0.0, -0.03125, 0.0, 0.0
111, -0.0695970695970696, -0.008547008547008548, -0.0989010989010989, 0.0, -0.03125, 0.0, 0.0
112, -0.11721611721611722, -0.18681318681318682, -0.36752136752136755, 0.0, -0.03125, 0.0, 0.0
113, -0.1330891330891331, -0.15384615384615385, -0.590964590964591, -0.1875, 0.0625, 0.0, 0.0
114, -0.05128205128205128, 0.029304029304029304, -0.31135531135531136, -0.40625, 0.15625, -0.03125, 0.0
115, 0.009768009768009768, -0.03296703296703297, 0.004884004884004884, -0.4375, 0.125, 0.0, 0.0
116, -0.006105006105006105, -0.05860805860805861, 0.10989010989010989, -0.34375, 0.0, 0.03125, 0.0
117, -0.019536019536019536, -0.020757020757020756, -0.003663003663003663, -0.15625, 0.0, 0.0625, 0.0
118, 0.06349206349206349, -0.23687423687423687, -0.15262515262515264, 0.0, 0.0, 0.0625, 0.0
119, 0.2771672771672772, -0.5164835164835165, -0.3907203907203907, 0.0, 0.03125, 0.0, 0.0
120, 0.05128205128205128, -0.1623931623931624, -0.07081807081807082, -0.03125, 0.0, 0.0, 0.0
121, 0.19413919413919414, -0.0695970695970696, 0.08058608058608059, 0.125, -0.125, 0.0, 0.0
122, 0.34798534798534797, -0.7887667887667887, -0.5372405372405372, 0.0, -0.21875, -0.21875, 0.0
123, -0.08180708180708181, -0.757020757020757, -1.2307692307692308, -0.25, -0.03125, -0.40625, 1.0
124, -0.5311355311355311, -1.3919413919413919, -2.393162393162393, -1.03125, 0.4375, -0.625, 1.0
125, -1.0866910866910866, -0.3333333333333333, -1.1245421245421245, -1.0625, 0.84375, -0.28125, 1.0
126, 0.10866910866910867, 0.06837606837606838, 0.8766788766788767, -0.5, 0.40625, -0.03125, 1.0
127, -0.1391941391941392, -0.5299145299145299, 0.3235653235653236, -0.46875, 0.1875, 0.0, 1.0
128, -0.2576312576312576, -0.2148962148962149, 0.29914529914529914, -0.53125, 0.375, 0.03125, 1.0
129, 0.11355311355311355, -0.15873015873015872, 1.2503052503052503, -0.5, 0.25, -0.03125, 1.0
130, -0.013431013431013432, -0.050061050061050064, 1.9474969474969475, -0.34375, 0.125, -0.0625, 1.0
131, -0.3443223443223443, -0.050061050061050064, 2.230769230769231, -0.1875, 0.09375, 0.0, 1.0
132, -0.29914529914529914, -0.6275946275946276, 2.6275946275946276, -0.15625, -0.03125, 0.09375, 1.0
133, -0.34676434676434675, -0.6532356532356532, 3.6935286935286937, -0.03125, -0.1875, 0.09375, 1.0
134, -0.5848595848595849, -0.6398046398046398, 4.405372405372406, 0.03125, 0.0, 0.0625, 1.0
135, -0.17094017094017094, -0.2771672771672772, 5.518925518925519, 0.25, 0.09375, 0.0, 1.0
136, -0.47619047619047616, -0.8351648351648352, 6.075702075702075, 0.5, 0.0, 0.03125, 1.0
137, -0.3418803418803419, -1.6898656898656899, 5.787545787545787, 0.28125, 0.0625, 0.125, 1.0
138, -0.08424908424908426, -1.4786324786324787, 5.880341880341881, 0.0625, -0.03125, 0.21875, 1.0
139, -0.31013431013431014, -0.7130647130647131, 6.280830280830281, 0.3125, 0.0, 0.15625, 1.0
140, -1.3162393162393162, -0.24664224664224665, 6.418803418803419, 0.90625, 0.5, 0.0, 1.0
141, -1.3650793650793651, -0.652014652014652, 5.938949938949939, 1.28125, 0.96875, 0.15625, 1.0
142, 0.013431013431013432, -1.2954822954822955, 5.877899877899878, 1.375, 0.71875, 0.34375, 1.0
143, -0.3907203907203907, -1.3956043956043955, 4.482295482295482, 1.15625, 0.5625, 0.5, 1.0
144, 0.01221001221001221, -1.4322344322344323, 3.548229548229548, 0.875, 0.25, 0.625, 1.0
145, -0.33577533577533575, -1.7875457875457876, -0.7435897435897436, 0.84375, -0.15625, 0.6875, 1.0
146, -0.01098901098901099, -2.612942612942613, -3.184371184371184, 0.78125, 0.0625, 0.65625, 1.0
147, 0.2576312576312576, -1.763125763125763, -5.6361416361416365, 0.6875, 0.28125, 0.59375, 1.0
148, 0.9316239316239316, -1.8131868131868132, -7.516483516483516, 0.5, 0.0, 0.59375, 1.0
149, 0.6764346764346765, -0.7606837606837606, -8.179487179487179, 0.34375, -0.34375, 0.53125, 1.0
150, 0.7594627594627594, -0.008547008547008548, -7.3699633699633695, 0.59375, -0.34375, 0.5625, 1.0
151, 0.7912087912087912, -0.2661782661782662, -7.3870573870573875, 0.9375, 0.0, 0.53125, 1.0
152, 1.321123321123321, -0.673992673992674, -7.346764346764346, 1.0, 0.34375, 0.34375, 1.0
153, 2.0549450549450547, -1.2112332112332111, -6.6361416361416365, 0.59375, -0.03125, 0.1875, 1.0
154, 0.24053724053724054, -0.16605616605616605, -5.271062271062271, 0.09375, -0.5625, 0.0, 1.0
155, -0.9853479853479854, 1.0927960927960927, -3.833943833943834, 0.15625, -0.3125, 0.0, 1.0
156, 0.16605616605616605, 0.38705738705738707, -2.515262515262515, 0.53125, 0.125, 0.0625, 1.0
157, 1.2661782661782661, -0.6336996336996337, -2.5164835164835164, 0.46875, -0.125, 0.0, 1.0
158, -0.6349206349206349, -0.24175824175824176, -2.832722832722833, 0.03125, -0.59375, -0.25, 1.0
159, -2.1172161172161172, 0.7008547008547008, -1.8962148962148961, 0.0, -0.53125, -0.125, 1.0
160, -1.2698412698412698, 0.38461538461538464, -1.2185592185592184, 0.25, -0.0625, 0.0, 1.0
161, -0.18192918192918192, -0.32234432234432236, -1.1526251526251525, 0.53125, 0.0625, 0.03125, 1.0
162, 0.30036630036630035, -1.0, -1.5262515262515262, 0.53125, 0.0, 0.1875, 1.0
163, 0.9621489621489622, -2.600732600732601, -3.8583638583638584, 0.09375, -0.125, 0.34375, 0.0
164, 0.673992673992674, -1.6080586080586081, -4.339438339438339, -0.84375, -0.1875, 0.03125, 0.0
165, 0.06471306471306472, -0.4603174603174603, -4.4041514041514045, -1.28125, -0.25, 0.03125, 0.0
166, -0.1282051282051282, 0.2673992673992674, -4.130647130647131, -0.6875, -0.125, 0.09375, 0.0
167, 0.31013431013431014, -0.4652014652014652, -4.499389499389499, -0.09375, 0.0625, 0.125, 0.0
168, 0.4078144078144078, -0.6703296703296703, -5.003663003663004, 0.1875, 0.15625, 0.21875, 0.0
169, -0.2673992673992674, -1.4871794871794872, -6.083028083028083, 0.03125, 0.25, 0.0, 0.0
170, -0.442002442002442, -1.2246642246642248, -6.091575091575091, -0.25, 0.40625, -0.1875, 0.0
171, -0.27472527472527475, -1.3137973137973138, -5.468864468864469, -0.5, 0.3125, -0.28125, 0.0
172, -0.36385836385836384, -1.4151404151404152, -4.9072039072039075, -0.78125, 0.21875, -0.3125, 0.0
173, -0.724053724053724, -1.5299145299145298, -4.410256410256411, -0.96875, 0.15625, -0.1875, 0.0
174, -0.5335775335775336, -1.9145299145299146, -3.286935286935287, -1.125, 0.0, -0.0625, 0.0
175, -0.03907203907203907, -2.0549450549450547, -2.0268620268620268, -1.1875, -0.25, 0.0, 0.0
176, 0.6288156288156288, -2.8131868131868134, -1.2087912087912087, -1.40625, -0.4375, -0.0625, 0.0
177, 0.9255189255189256, -2.735042735042735, -0.2673992673992674, -1.78125, -0.34375, -0.15625, 0.0
178, 0.9829059829059829, -2.4224664224664223, 0.6910866910866911, -2.03125, -0.25, -0.21875, 0.0
179, 0.13675213675213677, -1.0561660561660562, 1.8571428571428572, -1.875, -0.03125, -0.15625, 0.0
180, 0.32234432234432236, -0.38705738705738707, 3.122100122100122, -1.375, -0.03125, -0.125, 0.0
181, 0.6471306471306472, -0.32234432234432236, 4.078144078144078, -0.8125, -0.46875, -0.1875, 0.0
182, -0.10500610500610501, -0.8534798534798534, 3.0915750915750917, -0.75, -0.375, -0.46875, 0.0
183, -0.6117216117216118, -0.717948717948718, 2.8253968253968256, -1.0625, 0.09375, -0.40625, 0.0
184, -0.39438339438339437, -0.5421245421245421, 3.413919413919414, -1.21875, 0.40625, -0.0625, 0.0
185, 0.231990231990232, -0.652014652014652, 4.221001221001221, -1.125, 0.0, 0.125, 0.0
186, -0.07326007326007326, -0.8449328449328449, 4.317460317460317, -0.78125, -0.4375, 0.21875, 0.0
187, -0.6947496947496947, -1.122100122100122, 3.9743589743589745, -0.5625, -0.34375, 0.25, 0.0
188, -0.7619047619047619, -1.4395604395604396, 3.52014652014652, -0.53125, 0.0625, 0.21875, 0.0
189, -0.20757020757020758, -1.4432234432234432, 3.52991452991453, -0.59375, 0.3125, 0.25, 0.0
190, 0.3443223443223443, -1.1172161172161172, 3.8644688644688645, -0.5, 0.125, 0.28125, 0.0
191, 0.3553113553113553, -1.1794871794871795, 3.6971916971916974, -0.40625, -0.25, 0.28125, 0.0
192, 0.07936507936507936, -1.363858363858364, 3.0268620268620268, -0.46875, -0.40625, 0.28125, 0.0
193, -0.04395604395604396, -1.3601953601953602, 2.4065934065934065, -0.59375, -0.1875, 0.09375, 0.0
194, -0.05372405372405373, -0.8571428571428571, 2.868131868131868, -0.46875, 0.09375, 0.125, 0.0
195, -0.015873015873015872, -0.6349206349206349, 2.4432234432234434, -0.1875, 0.0, 0.125, 0.0
196, -0.3137973137973138, -0.5543345543345544, 1.5335775335775337, -0.0625, -0.09375, 0.09375, 0.0
197, -0.24664224664224665, -0.3516483516483517, 1.1941391941391941, -0.125, 0.0625, 0.0625, 0.0
198, -0.15506715506715507, -0.29914529914529914, 1.1452991452991452, -0.09375, 0.21875, 0.03125, 0.0
199, 0.08547008547008547, -0.4810744810744811, 1.0866910866910866, 0.0625, 0.21875, 0.03125, 0.0
200, 0.452991452991453, -0.673992673992674, 0.4358974358974359, 0.21875, 0.0, 0.0625, 0.0
201, 0.1221001221001221, -0.43223443223443225, -0.3894993894993895, 0.0, -0.125, 0.0, 0.0
202, -0.002442002442002442, -0.23565323565323565, -0.4896214896214896, -0.1875, 0.0, 0.0, 0.0
203, -0.23321123321123322, -0.27350427350427353, -0.3199023199023199, -0.21875, 0.0, 0.03125, 0.0
204, -0.2258852258852259, -0.20024420024420025, -0.25396825396825395, -0.0625, -0.03125, 0.0625, 0.0
205, 0.014652014652014652, -0.4444444444444444, -0.7142857142857143, 0.0625, -0.03125, 0.0, 0.0
206, -0.13064713064713065, -0.22466422466422467, -0.684981684981685, 0.09375, 0.03125, -0.21875, 1.0
207, -0.10622710622710622, -0.22832722832722832, -0.673992673992674, 0.09375, 0.25, -0.15625, 1.0
208, 0.4261294261294261, -0.9242979242979243, -0.5763125763125763, -0.09375, 0.4375, -0.21875, 1.0
209, 0.11721611721611722, -0.48473748473748474, -0.21611721611721613, -0.375, 0.40625, -0.21875, 1.0
210, -0.15873015873015872, -0.5347985347985348, 0.2148962148962149, -0.5625, 0.34375, -0.1875, 1.0
211, -0.17582417582417584, -0.33455433455433453, 0.9792429792429792, -0.6875, 0.375, -0.09375, 1.0
212, 0.03540903540903541, -0.4444444444444444, 2.304029304029304, -0.53125, 0.15625, -0.09375, 1.0
213, -0.3064713064713065, -0.568986568986569, 3.1086691086691087, -0.1875, -0.125, -0.03125, 1.0
214, -0.3137973137973138, -0.8632478632478633, 3.4236874236874235, 0.125, -0.0625, 0.0, 1.0
215, -0.15873015873015872, -1.1782661782661783, 3.860805860805861, 0.1875, 0.1875, -0.0625, 1.0
216, 0.4444444444444444, -1.5372405372405373, 4.5677655677655675, 0.0, 0.34375, -0.09375, 1.0
217, 0.7411477411477412, -1.308913308913309, 5.592185592185592, -0.09375, 0.03125, 0.0, 1.0
218, -0.3247863247863248, -1.0818070818070817, 5.673992673992674, 0.0625, -0.25, -0.03125, 1.0
219, -0.8205128205128205, -0.27472527472527475, 5.74969474969475, 0.4375, 0.28125, -0.125, 1.0
220, -0.6056166056166056, -0.031746031746031744, 5.792429792429792, 0.9375, 0.625, -0.1875, 1.0
221, -0.06837606837606838, -0.7765567765567766, 5.702075702075702, 1.0625, 0.375, 0.0, 1.0
222, -0.028083028083028084, -1.2673992673992673, 5.334554334554334, 0.9375, 0.0, 0.09375, 1.0
223, -0.23931623931623933, -1.3101343101343101, 4.035409035409035, 0.65625, -0.09375, 0.1875, 1.0
224, -0.3540903540903541, -1.9633699633699633, 2.7948717948717947, 0.4375, -0.1875, 0.375, 1.0
225, -1.7374847374847375, -0.7435897435897436, 2.531135531135531, 0.65625, 0.25, 0.40625, 1.0
226, -1.7826617826617828, 0.4139194139194139, 2.1538461538461537, 1.28125, 1.25, 0.5625, 1.0
227, 0.4078144078144078, 0.0, 1.0647130647130647, 1.375, 1.1875, 0.5625, 1.0
228, 0.315018315018315, 0.04395604395604396, -0.4139194139194139, 1.4375, 0.8125, 0.5, 1.0
229, -0.34798534798534797, 0.1978021978021978, -1.811965811965812, 1.5625, 0.65625, 0.625, 1.0
230, 1.1135531135531136, -0.8485958485958486, -3.264957264957265, 1.40625, 0.1875, 0.65625, 1.0
231, 1.6080586080586081, -1.8034188034188035, -4.943833943833944, 0.65625, -0.21875, 0.4375, 1.0
232, 0.3553113553113553, -0.39438339438339437, -5.046398046398046, 0.15625, -0.0625, 0.1875, 1.0
233, -0.29304029304029305, 1.1452991452991452, -3.515262515262515, 0.75, 0.28125, 0.15625, 1.0
234, 0.7863247863247863, -0.7094017094017094, -5.007326007326007, 1.15625, 0.59375, 0.03125, 1.0
235, 4.435897435897436, -3.694749694749695, -7.4603174603174605, 0.0, -0.46875, -0.03125, 1.0
236, 1.1025641025641026, -0.6251526251526252, -5.8791208791208796, -0.46875, -1.15625, -0.21875, 1.0
237, -2.5274725274725274, 2.335775335775336, -4.114774114774114, 0.9375, 0.09375, -0.03125, 1.0
238, -0.6410256410256411, -0.03540903540903541, -4.644688644688645, 1.78125, 0.96875, 0.0625, 1.0
239, 2.4346764346764345, -2.7704517704517704, -5.9010989010989015, 0.78125, 0.375, -0.15625, 1.0
240, 1.1758241758241759, -1.0354090354090355, -4.247863247863248, -0.0625, -0.71875, -0.28125, 1.0
241, -2.844932844932845, 1.9377289377289377, -2.2857142857142856, 0.40625, -0.40625, -0.125, 1.0
242, -3.070818070818071, 1.5567765567765568, -2.06959706959707, 0.78125, 0.21875, 0.125, 1.0
243, -0.045177045177045176, -0.8144078144078144, -3.404151404151404, 0.0, -0.28125, 0.03125, 1.0
244, -1.3382173382173381, 0.4945054945054945, -2.034188034188034, -0.34375, -0.5625, 0.03125, 1.0
245, -1.0818070818070817, 0.32112332112332115, -1.8144078144078144, 0.0, -0.125, 0.0625, 1.0
246, -0.29426129426129427, -0.44932844932844934, -2.004884004884005, 0.09375, 0.0625, 0.09375, 1.0
247, 0.6959706959706959, -1.3162393162393162, -2.398046398046398, -0.34375, -0.0625, 0.15625, 0.0
248, 0.2893772893772894, -0.3516483516483517, -2.10989010989011, -0.8125, -0.4375, 0.1875, 0.0
249, 0.326007326007326, -0.12087912087912088, -2.172161172161172, -0.71875, -0.46875, 0.1875, 0.0
250, 0.33455433455433453, -0.10622710622710622, -2.6214896214896215, -0.03125, -0.375, 0.21875, 0.0
251, 0.01098901098901099, -1.6862026862026862, -4.482295482295482, 0.25, -0.09375, 0.03125, 0.0
252, 0.3956043956043956, -1.2393162393162394, -5.042735042735043, -0.09375, 0.3125, -0.03125, 0.0
253, 0.5457875457875457, -1.0427350427350428, -5.107448107448107, -0.28125, 0.5, 0.0, 0.0
254, 0.18803418803418803, -0.757020757020757, -5.191697191697192, -0.375, 0.3125, -0.03125, 0.0
255, -0.35775335775335776, -0.47863247863247865, -4.836385836385836, -0.25, 0.125, -0.03125, 0.0
256, -0.6105006105006106, -0.5811965811965812, -4.285714285714286, 0.03125, 0.1875, 0.03125, 0.0
257, -0.2039072039072039, -1.0, -3.9401709401709404, 0.21875, 0.34375, 0.0625, 0.0
258, 0.6666666666666666, -1.989010989010989, -4.046398046398046, 0.03125, 0.34375, -0.03125, 0.0
259, 0.8156288156288156, -2.2844932844932844, -3.6031746031746033, -0.59375, 0.1875, -0.28125, 0.0
260, 0.3089133089133089, -1.5702075702075702, -2.590964590964591, -1.15625, -0.09375, -0.34375, 0.0
261, -0.1562881562881563, -0.9255189255189256, -1.5189255189255189, -1.28125, -0.40625, -0.3125, 0.0
262, -0.28083028083028083, -0.7374847374847375, -0.5982905982905983, -1.125, -0.625, -0.125, 0.0
263, 0.29181929181929184, -1.3956043956043955, -0.525030525030525, -0.96875, -0.5, 0.15625, 0.0
264, 0.7374847374847375, -1.7814407814407816, -0.1684981684981685, -1.09375, -0.53125, 0.03125, 0.0
265, 0.33943833943833945, -1.407814407814408, 0.5286935286935287, -1.40625, -0.4375, -0.03125, 0.0
266, 0.03418803418803419, -0.851037851037851, 1.606837606837607, -1.59375, -0.1875, -0.09375, 0.0
267, -0.013431013431013432, -0.42857142857142855, 2.490842490842491, -1.4375, -0.03125, 0.03125, 0.0
268, 0.05982905982905983, -0.24786324786324787, 2.993894993894994, -1.3125, -0.125, 0.09375, 0.0
269, 0.3797313797313797, -0.4884004884004884, 3.034188034188034, -1.15625, -0.34375, 0.09375, 0.0
270, 0.32234432234432236, -1.1965811965811965, 2.68986568986569, -1.34375, -0.375, -0.0625, 0.0
271, -0.47619047619047616, -0.6666666666666666, 2.8656898656898657, -1.375, -0.1875, 0.09375, 0.0
272, -0.20634920634920634, -0.796092796092796, 3.2967032967032965, -1.21875, -0.125, 0.28125, 0.0
273, 0.003663003663003663, -0.8803418803418803, 3.4249084249084247, -1.15625, -0.0625, 0.15625, 0.0
274, -0.14896214896214896, -0.6776556776556777, 3.6971916971916974, -1.03125, 0.09375, 0.09375, 0.0
275, -0.11843711843711843, -0.43345543345543347, 4.1611721611721615, -0.71875, 0.25, 0.125, 0.0
276, -0.1684981684981685, -0.5738705738705738, 3.965811965811966, -0.40625, 0.21875, 0.15625, 0.0
277, 0.0927960927960928, -1.1831501831501832, 3.3321123321123323, -0.53125, 0.0625, 0.09375, 0.0
278, -0.0463980463980464, -0.8681318681318682, 3.2893772893772892, -0.6875, 0.125, 0.09375, 0.0
279, 0.19536019536019536, -0.5018315018315018, 3.572649572649573, -0.59375, 0.15625, 0.0625, 0.0
280, 0.231990231990232, -0.4261294261294261, 3.501831501831502, -0.34375, 0.0, 0.09375, 0.0
281, 0.29181929181929184, -0.5995115995115995, 3.1746031746031744, -0.0625, -0.15625, 0.0625, 0.0
282, -0.007326007326007326, -0.8253968253968254, 2.340659340659341, -0.125, -0.125, 0.0, 0.0
283, -0.09157509157509157, -0.5775335775335775, 1.8339438339438339, -0.1875, -0.03125, 0.0, 0.0
284, -0.08424908424908426, -0.6984126984126984, 1.7448107448107448, -0.15625, -0.0625, 0.0, 0.0
285, -0.3333333333333333, -0.2515262515262515, 1.496947496947497, 0.03125, 0.0, 0.0, 0.0
286, -0.02442002442002442, -0.4126984126984127, 0.8595848595848596, 0.0625, 0.03125, -0.125, 0.0
287, -0.09401709401709402, -0.6837606837606838, -0.040293040293040296, -0.09375, 0.09375, -0.3125, 1.0
288, -0.43833943833943834, -1.0048840048840049, -0.47741147741147744, -0.5, 0.25, -0.25, 1.0
289, -0.8363858363858364, 0.02564102564102564, 0.42124542124542125, -0.375, 0.28125, -0.125, 1.0
290, 0.009768009768009768, -0.35653235653235654, 1.47985347985348, 0.0, 0.03125, -0.0625, 1.0
291, -0.09157509157509157, -0.22344322344322345, 1.0012210012210012, -0.0625, 0.0625, -0.125, 1.0
292, -0.5177045177045178, -1.2087912087912087, 0.47985347985347987, -0.375, 0.5, -0.125, 1.0
293, -0.48473748473748474, -0.9169719169719169, 1.7619047619047619, -0.71875, 0.5, -0.125, 1.0
294, 0.4884004884004884, -0.6617826617826618, 3.656898656898657, -0.6875, 0.1875, 0.0, 1.0
295, 0.24297924297924298, -0.8705738705738706, 4.096459096459096, -0.46875, -0.34375, 0.125, 1.0
296, -0.9108669108669109, -1.1636141636141637, 3.8974358974358974, -0.21875, -0.34375, 0.09375, 1.0
297, -1.3467643467643469, -1.3540903540903542, 4.177045177045177, 0.03125, 0.28125, -0.0625, 1.0
298, -0.0231990231990232, -1.5103785103785103, 5.368742368742368, 0.28125, 0.6875, -0.0625, 1.0
299, 0.9133089133089133, -1.2832722832722834, 5.874236874236874, 0.4375, 0.40625, 0.0, 1.0
300, 0.7411477411477412, -1.1123321123321124, 5.65934065934066, 0.53125, -0.15625, 0.0625, 1.0
301, -0.5079365079365079, -1.0573870573870574, 5.532356532356532, 0.71875, -0.40625, 0.03125, 1.0
302, -1.321123321123321, -0.6874236874236874, 5.3992673992674, 1.03125, 0.15625, -0.03125, 1.0
303, -0.2893772893772894, -0.6483516483516484, 5.37973137973138, 1.40625, 0.75, -0.03125, 1.0
304, -0.38095238095238093, -1.0354090354090355, 4.437118437118437, 1.46875, 0.4375, 0.125, 1.0
305, -0.8644688644688645, -1.3675213675213675, 3.4395604395604398, 1.25, 0.0, 0.375, 1.0
306, -1.1086691086691087, -0.568986568986569, 2.7985347985347984, 1.09375, 0.0, 0.46875, 1.0
307, -1.0268620268620268, -0.32234432234432236, 1.7777777777777777, 1.3125, 0.5, 0.46875, 1.0
308, 0.4261294261294261, -1.3601953601953602, 0.47863247863247865, 1.375, 0.75, 0.5625, 1.0
309, 1.0085470085470085, -2.0525030525030523, -1.8083028083028083, 1.21875, 0.1875, 0.625, 1.0
310, 0.057387057387057384, -1.5995115995115996, -4.472527472527473, 0.90625, -0.125, 0.46875, 1.0
311, 0.21855921855921856, -0.4481074481074481, -5.406593406593407, 0.59375, 0.0, 0.40625, 1.0
312, 0.2454212454212454, -0.6923076923076923, -5.824175824175824, 0.71875, -0.15625, 0.40625, 1.0
313, 0.4432234432234432, -1.4505494505494505, -6.446886446886447, 0.875, -0.1875, 0.375, 1.0
314, 1.1147741147741148, -2.039072039072039, -6.557997557997558, 0.75, 0.0, 0.15625, 1.0
315, 1.8534798534798536, -1.2747252747252746, -5.998778998778999, 0.4375, 0.15625, -0.03125, 1.0
316, 1.1147741147741148, -0.09157509157509157, -5.482295482295482, 0.84375, 0.0625, -0.1875, 1.0
317, 0.43956043956043955, -0.6410256410256411, -5.984126984126984, 0.8125, 0.15625, 0.0, 1.0
318, 0.6446886446886447, -1.1575091575091576, -5.971916971916972, 0.34375, 0.09375, -0.03125, 1.0
319, 0.5628815628815629, -0.45054945054945056, -4.261294261294261, 0.1875, -0.21875, -0.03125, 1.0
320, -1.0256410256410255, 0.6312576312576312, -3.26007326007326, 0.46875, -0.125, 0.0, 1.0
321, -1.120879120879121, 0.31135531135531136, -3.156288156288156, 0.625, 0.25, 0.0625, 1.0
322, 0.001221001221001221, -0.31746031746031744, -3.1880341880341883, 0.3125, 0.15625, -0.03125, 1.0
323, 0.042735042735042736, -0.14407814407814407, -2.3675213675213675, 0.0, -0.1875, -0.0625, 1.0
324, -1.2087912087912087, 0.57997557997558, -1.6898656898656899, 0.03125, -0.15625, 0.0, 1.0
325, -1.431013431013431, 0.46153846153846156, -1.7094017094017093, 0.25, 0.03125, 0.03125, 1.0
326, -0.29181929181929184, -0.3724053724053724, -1.7643467643467643, 0.125, 0.09375, 0.0, 1.0
327, 0.4884004884004884, -0.5860805860805861, -1.4700854700854702, -0.03125, -0.09375, 0.0, 1.0
328, 0.38217338217338215, -0.6886446886446886, -1.678876678876679, -0.21875, -0.21875, 0.0, 0.0
329, 0.11355311355311355, -0.6654456654456654, -2.346764346764347, -0.46875, -0.28125, 0.0625, 0.0
330, 0.06105006105006105, -0.7203907203907204, -2.937728937728938, -0.375, -0.21875, 0.09375, 0.0
331, -0.09523809523809523, 0.05982905982905983, -3.5347985347985347, 0.03125, 0.03125, 0.0, 0.0
332, 0.21611721611721613, -0.5128205128205128, -4.034188034188034, 0.09375, 0.21875, 0.0, 0.0
333, -0.013431013431013432, -0.8778998778998779, -5.079365079365079, -0.15625, 0.375, -0.125, 0.0
334, 0.09768009768009768, -0.7521367521367521, -5.549450549450549, -0.40625, 0.34375, -0.15625, 0.0
335, -0.08424908424908426, -0.612942612942613, -5.194139194139194, -0.53125, 0.21875, -0.15625, 0.0
336, 0.03663003663003663, -0.8620268620268621, -5.089133089133089, -0.65625, 0.03125, -0.1875, 0.0
337, -0.4603174603174603, -0.9169719169719169, -5.013431013431013, -0.75, 0.0, -0.125, 0.0
338, -0.6581196581196581, -0.8168498168498168, -4.145299145299146, -0.6875, 0.0, -0.03125, 0.0
339, -0.5982905982905983, -1.1025641025641026, -3.1294261294261294, -0.5625, 0.125, 0.03125, 0.0
340, -0.015873015873015872, -1.862026862026862, -2.658119658119658, -1.09375, 0.25, -0.09375, 0.0
341, 0.6532356532356532, -1.5384615384615385, -1.0647130647130647, -1.46875, -0.09375, -0.125, 0.0
342, 0.0463980463980464, -1.2637362637362637, -0.5238095238095238, -1.5625, -0.3125, -0.03125, 0.0
343, -0.06349206349206349, -0.9694749694749695, 0.05860805860805861, -1.5625, -0.34375, 0.0, 0.0
344, 0.047619047619047616, -0.4713064713064713, 0.8620268620268621, -1.4375, -0.34375, 0.0625, 0.0
345, 0.1391941391941392, -0.49694749694749696, 1.2405372405372406, -1.21875, -0.40625, 0.125, 0.0
346, -0.007326007326007326, -0.833943833943834, 1.2625152625152625, -1.09375, -0.4375, 0.1875, 0.0
347, 0.36996336996337, -1.1587301587301588, 1.5286935286935286, -1.09375, -0.21875, 0.28125, 0.0
348, 1.459096459096459, -1.3687423687423688, 2.133089133089133, -1.15625, -0.1875, 0.34375, 0.0
349, 1.8473748473748475, -1.1636141636141637, 2.358974358974359, -1.125, -0.5625, 0.34375, 0.0
350, 0.4163614163614164, -0.8266178266178266, 1.9511599511599511, -0.9375, -0.78125, 0.25, 0.0
351, -0.38461538461538464, -0.7350427350427351, 1.728937728937729, -0.6875, -0.46875, 0.25, 0.0
352, -0.5091575091575091, -0.6813186813186813, 1.6385836385836385, -0.5625, 0.03125, 0.21875, 0.0
353, 0.22466422466422467, -0.960927960927961, 1.84004884004884, -0.625, 0.28125, 0.21875, 0.0
354, 0.8803418803418803, -1.2844932844932846, 2.4432234432234434, -0.84375, 0.0, 0.28125, 0.0
355, 0.800976800976801, -1.393162393162393, 2.9682539682539684, -0.96875, -0.5, 0.3125, 0.0
356, 0.24175824175824176, -0.7496947496947497, 2.9902319902319903, -0.96875, -0.53125, 0.34375, 0.0
357, 0.2600732600732601, -0.8437118437118437, 2.628815628815629, -0.75, -0.25, 0.3125, 0.0
358, 0.2039072039072039, -0.9304029304029304, 2.330891330891331, -0.71875, 0.03125, 0.25, 0.0
359, 0.18925518925518925, -0.9462759462759462, 2.4822954822954824, -0.75, 0.21875, 0.21875, 0.0
360, 0.4896214896214896, -0.6654456654456654, 3.1575091575091574, -0.65625, 0.28125, 0.125, 0.0
361, 0.7289377289377289, -0.8400488400488401, 3.0732600732600734, -0.5625, 0.125, 0.09375, 0.0
362, 0.7216117216117216, -0.9706959706959707, 2.9206349206349205, -0.59375, -0.0625, 0.0625, 0.0
363, 0.11843711843711843, -0.9413919413919414, 2.628815628815629, -0.625, -0.28125, 0.03125, 0.0
364, -0.45665445665445664, -0.5738705738705738, 2.4346764346764345, -0.59375, -0.28125, 0.0, 0.0
365, -0.6398046398046398, -0.2442002442002442, 2.2979242979242978, -0.3125, -0.0625, 0.0, 0.0
366, -0.13553113553113552, -0.39438339438339437, 1.9926739926739927, -0.1875, 0.0, -0.0625, 0.0
367, -0.1111111111111111, -0.5518925518925519, 1.507936507936508, -0.28125, 0.0, -0.125, 0.0
368, -0.3235653235653236, -0.358974358974359, 1.2087912087912087, -0.28125, 0.0, -0.125, 0.0
369, -0.5555555555555556, -0.13797313797313798, 1.2747252747252746, -0.15625, 0.03125, -0.15625, 0.0
370, -0.33821733821733824, 0.09645909645909646, 1.2612942612942613, -0.0625, 0.0625, -0.15625, 0.0
371, -0.5299145299145299, 0.5934065934065934, 0.8901098901098901, 0.1875, 0.125, -0.125, 1.0
372, -0.0695970695970696, -0.2503052503052503, 0.7387057387057387, 0.28125, 0.03125, -0.125, 1.0
373, -0.5677655677655677, -0.17094017094017094, 0.42002442002442003, 0.25, 0.09375, -0.1875, 1.0
374, -0.33821733821733824, -0.5995115995115995, 0.49694749694749696, 0.0, 0.21875, -0.15625, 1.0
375, 0.16117216117216118, -0.7130647130647131, 0.7032967032967034, -0.21875, 0.15625, -0.09375, 1.0
376, 0.028083028083028084, -0.5958485958485958, 0.7887667887667887, -0.40625, 0.09375, -0.09375, 1.0
377, -0.115995115995116, -0.4822954822954823, 1.525030525030525, -0.21875, 0.0625, -0.15625, 1.0
378, -0.5067155067155067, -0.778998778998779, 2.2796092796092795, 0.0, 0.28125, -0.1875, 1.0
379, 0.15262515262515264, -0.9633699633699634, 3.1855921855921854, 0.125, 0.3125, -0.15625, 1.0
380, 0.6788766788766789, -0.9658119658119658, 3.554334554334554, 0.21875, 0.03125, -0.09375, 1.0
381, 0.2600732600732601, -1.4847374847374848, 3.288156288156288, 0.125, 0.0, -0.1875, 1.0
382, -0.2576312576312576, -1.492063492063492, 3.6373626373626373, 0.15625, 0.28125, -0.21875, 1.0
383, 0.08058608058608059, -1.1245421245421245, 4.677655677655678, 0.375, 0.53125, -0.28125, 1.0
384, 0.757020757020757, -0.8217338217338217, 5.814407814407814, 0.6875, 0.46875, -0.25, 1.0
385, 1.5189255189255189, -1.2942612942612943, 6.018315018315018, 0.71875, 0.0625, -0.125, 1.0
386, 0.5958485958485958, -1.2087912087912087, 5.230769230769231, 0.65625, -0.0625, -0.25, 1.0
387, -0.1746031746031746, -0.514041514041514, 4.9523809523809526, 0.90625, 0.21875, -0.375, 1.0
388, 0.47741147741147744, 0.23076923076923078, 5.2686202686202686, 1.34375, 0.375, -0.40625, 1.0
389, 0.199023199023199, -0.8998778998778999, 4.074481074481074, 1.0625, 0.0, -0.15625, 1.0
390, -2.3284493284493286, 0.2783882783882784, 2.7655677655677655, 1.21875, 0.34375, 0.0, 1.0
391, -0.4896214896214896, -0.45665445665445664, 2.2612942612942613, 1.9375, 1.09375, 0.09375, 1.0
392, 0.4481074481074481, -2.0097680097680097, 0.5775335775335775, 2.15625, 1.0625, 0.25, 1.0
393, -0.2258852258852259, -2.9157509157509156, -1.0940170940170941, 1.9375, 0.78125, 0.34375, 1.0
394, 0.7655677655677655, -2.208791208791209, -2.1343101343101343, 1.625, 0.90625, 0.34375, 1.0
395, 1.6459096459096458, -2.490842490842491, -3.3064713064713063, 1.375, 0.71875, 0.3125, 1.0
396, 1.7448107448107448, -2.0891330891330893, -4.1098901098901095, 0.9375, 0.125, 0.25, 1.0
397, -0.199023199023199, -1.054945054945055, -4.936507936507937, 0.875, -0.09375, 0.1875, 1.0
398, -0.6556776556776557, -1.0451770451770452, -6.398046398046398, 0.9375, 0.3125, 0.1875, 1.0
399, -0.17094017094017094, -0.8485958485958486, -7.052503052503052, 0.75, 0.59375, 0.21875, 1.0
400, 1.2283272283272284, -1.5360195360195361, -7.052503052503052, 0.59375, 0.3125, 0.21875, 1.0
401, 0.42857142857142855, -1.0012210012210012, -6.74969474969475, 0.25, -0.34375, 0.1875, 1.0
402, -1.0195360195360195, -0.6556776556776557, -6.9743589743589745, 0.28125, -0.09375, 0.15625, 1.0
403, -0.42124542124542125, -0.9096459096459096, -6.203907203907204, 0.375, 0.5625, 0.125, 1.0
404, 0.43345543345543347, -0.9682539682539683, -5.0989010989010985, 0.21875, 0.46875, 0.15625, 1.0
405, 0.645909645909646, -0.7765567765567766, -4.1782661782661785, 0.03125, -0.09375, 0.15625, 1.0
406, -0.3308913308913309, -0.3308913308913309, -3.52991452991453, -0.09375, -0.3125, 0.09375, 1.0
407, -0.6898656898656899, -0.2588522588522589, -2.645909645909646, -0.0625, 0.09375, 0.0, 1.0
408, 0.7887667887667887, -0.8852258852258852, -1.9023199023199022, -0.125, 0.21875, -0.03125, 1.0
409, 0.2271062271062271, -0.30158730158730157, -1.2454212454212454, -0.375, -0.375, -0.09375, 1.0
410, -1.1575091575091576, 0.10256410256410256, -1.1465201465201464, -0.34375, -0.5, -0.0625, 1.0
411, -0.7374847374847375, -0.1684981684981685, -1.4163614163614164, -0.21875, -0.09375, 0.03125, 0.0
412, -0.001221001221001221, -0.5164835164835165, -2.0549450549450547, -0.1875, 0.03125, 0.09375, 0.0
413, 0.2564102564102564, -0.8107448107448108, -3.336996336996337, -0.4375, -0.0625, 0.0625, 0.0
414, -0.26495726495726496, -0.23321123321123322, -4.0647130647130645, -0.4375, -0.34375, 0.0625, 0.0
415, -0.8742368742368742, -0.5128205128205128, -4.783882783882784, -0.375, -0.03125, 0.09375, 0.0
416, -0.2612942612942613, -0.663003663003663, -5.0256410256410255, -0.3125, 0.25, 0.09375, 0.0
417, -0.08180708180708181, -0.9511599511599511, -5.687423687423688, -0.4375, 0.53125, 0.03125, 0.0
418, 0.15873015873015872, -1.0012210012210012, -5.800976800976801, -0.59375, 0.4375, 0.0, 0.0
419, 0.1916971916971917, -0.9597069597069597, -5.450549450549451, -0.75, 0.28125, 0.0, 0.0
420, 0.3052503052503053, -0.9206349206349206, -4.638583638583639, -0.8125, 0.125, 0.0, 0.0
421, 0.3052503052503053, -1.0818070818070817, -3.894993894993895, -0.8125, 0.0, 0.0625, 0.0
422, 0.5787545787545788, -1.5763125763125763, -3.5042735042735043, -0.875, 0.0, -0.03125, 0.0
423, 0.5091575091575091, -1.884004884004884, -3.199023199023199, -1.1875, 0.0, -0.15625, 0.0
424, 0.08791208791208792, -1.684981684981685, -2.687423687423687, -1.40625, 0.03125, -0.09375, 0.0
425, 0.463980463980464, -1.5531135531135531, -1.4822954822954824, -1.53125, -0.03125, -0.03125, 0.0
426, 0.6324786324786325, -1.1965811965811965, -0.3992673992673993, -1.5, -0.3125, 0.0, 0.0
427, 0.21733821733821734, -0.9352869352869353, 0.48595848595848595, -1.34375, -0.46875, 0.03125, 0.0
428, 0.15873015873015872, -0.6398046398046398, 1.8107448107448108, -1.0, -0.46875, 0.0625, 0.0
429, 0.41025641025641024, -0.960927960927961, 2.15995115995116, -1.0, -0.375, -0.09375, 0.0
430, 0.18315018315018314, -0.48717948717948717, 2.462759462759463, -1.15625, -0.15625, -0.125, 0.0
431, -0.2454212454212454, -0.2600732600732601, 2.7362637362637363, -1.1875, -0.03125, 0.0, 0.0
432, -0.1746031746031746, -0.37606837606837606, 3.3565323565323566, -1.03125, -0.1875, 0.1875, 0.0
433, -0.08669108669108669, -0.4713064713064713, 3.6935286935286937, -0.75, -0.4375, 0.375, 0.0
434, -0.11965811965811966, -0.514041514041514, 3.236874236874237, -0.65625, -0.4375, 0.375, 0.0
435, -0.2515262515262515, -0.7728937728937729, 2.5714285714285716, -0.78125, -0.09375, 0.25, 0.0
436, -0.21733821733821734, -0.8266178266178266, 2.606837606837607, -0.9375, 0.21875, 0.21875, 0.0
437, 0.38095238095238093, -0.5836385836385837, 3.445665445665446, -0.6875, 0.09375, 0.28125, 0.0
438, 0.44078144078144077, -0.6703296703296703, 3.347985347985348, -0.34375, -0.21875, 0.4375, 0.0
439, 0.4993894993894994, -1.531135531135531, 2.0146520146520146, -0.59375, -0.4375, 0.28125, 0.0
440, 0.17338217338217338, -0.7692307692307693, 2.4224664224664223, -0.6875, -0.15625, 0.1875, 0.0
441, 0.10134310134310134, -0.7875457875457875, 2.7191697191697193, -0.46875, 0.0625, 0.15625, 0.0
442, -0.06837606837606838, -1.028083028083028, 2.2405372405372406, -0.28125, 0.0, 0.15625, 0.0
443, 0.04395604395604396, -1.1147741147741148, 1.6727716727716728, -0.375, -0.125, 0.125, 0.0
444, -0.1282051282051282, -0.8974358974358975, 1.4273504273504274, -0.59375, -0.3125, 0.125, 0.0
445, -0.2661782661782662, -0.6800976800976801, 1.7191697191697193, -0.65625, -0.21875, 0.125, 0.0
446, -0.20512820512820512, -0.4078144078144078, 2.312576312576313, -0.34375, -0.03125, 0.0625, 0.0
447, -0.009768009768009768, -0.6422466422466423, 1.8705738705738706, 0.0, 0.0, 0.03125, 0.0
448, -0.015873015873015872, -0.4358974358974359, 1.065934065934066, 0.0625, -0.0625, 0.0, 0.0
449, 0.030525030525030524, -1.0073260073260073, 0.4468864468864469, 0.0, -0.21875, -0.03125, 0.0
450, -0.673992673992674, -0.5347985347985348, 0.17216117216117216, -0.375, -0.0625, -0.28125, 0.0
451, -0.7313797313797313, -0.18192918192918192, 1.0268620268620268, -0.46875, 0.21875, -0.21875, 0.0
452, -0.12332112332112333, -0.43956043956043955, 1.6349206349206349, -0.25, 0.25, -0.15625, 0.0
453, -0.30036630036630035, -0.41025641025641024, 1.0476190476190477, -0.0625, 0.0625, -0.15625, 1.0
454, -0.2954822954822955, -0.63003663003663, 0.7533577533577533, -0.0625, 0.0, -0.15625, 1.0
455, -0.4078144078144078, -0.19536019536019536, 1.1807081807081807, -0.125, 0.09375, -0.1875, 1.0
456, -0.13064713064713065, -0.07448107448107448, 1.4297924297924298, -0.125, 0.21875, -0.09375, 1.0
457, -0.09401709401709402, -0.3614163614163614, 1.6971916971916972, -0.03125, 0.03125, -0.03125, 1.0
458, -0.57997557997558, -0.5482295482295483, 1.4188034188034189, -0.0625, 0.0, 0.03125, 1.0
459, -0.3663003663003663, -0.9511599511599511, 1.663003663003663, -0.125, 0.28125, -0.03125, 1.0
460, 0.004884004884004884, -0.6800976800976801, 2.385836385836386, -0.21875, 0.40625, -0.0625, 1.0
461, -0.10744810744810745, -0.796092796092796, 2.8461538461538463, -0.0625, 0.15625, -0.03125, 1.0
462, 0.2258852258852259, -1.1941391941391941, 3.1538461538461537, 0.0, 0.09375, 0.0625, 1.0
463, 0.5006105006105006, -1.4444444444444444, 3.6495726495726495, -0.09375, 0.3125, -0.0625, 1.0
464, 1.1587301587301588, -1.496947496947497, 4.576312576312576, -0.03125, 0.1875, -0.0625, 1.0
465, 0.8144078144078144, -1.5177045177045176, 4.976800976800977, 0.1875, -0.03125, -0.1875, 1.0
466, 0.13675213675213677, -1.2454212454212454, 5.0818070818070815, 0.625, 0.03125, -0.21875, 1.0
467, -0.09035409035409035, -0.800976800976801, 4.3992673992674, 0.78125, 0.375, -0.25, 1.0
468, -0.10866910866910867, -1.1672771672771673, 4.186813186813187, 0.75, 0.46875, -0.125, 1.0
469, 0.27472527472527475, -1.347985347985348, 4.36019536019536, 0.6875, 0.3125, 0.0, 1.0
470, 0.6019536019536019, -0.9621489621489622, 4.905982905982906, 0.84375, 0.125, 0.0, 1.0
471, 0.43833943833943834, -0.3028083028083028, 3.954822954822955, 1.03125, 0.0625, -0.0625, 1.0
472, -1.2612942612942613, 0.07448107448107448, 2.796092796092796, 1.25, 0.28125, 0.0, 1.0
473, -1.5811965811965811, -0.4981684981684982, 2.346764346764347, 1.53125, 0.6875, 0.125, 1.0
474, -0.5433455433455433, -0.9865689865689866, 1.7326007326007327, 1.5625, 0.75, 0.25, 1.0
475, 0.33455433455433453, -1.0012210012210012, 0.23687423687423687, 1.3125, 0.4375, 0.375, 1.0
476, 0.026862026862026864, -0.5445665445665445, -0.4444444444444444, 1.1875, 0.34375, 0.375, 1.0
477, -0.38095238095238093, -0.796092796092796, -0.7301587301587301, 1.21875, 0.71875, 0.375, 1.0
478, 0.7350427350427351, -1.1025641025641026, -1.5115995115995116, 1.21875, 0.65625, 0.5, 1.0
479, 1.3052503052503053, -1.1868131868131868, -3.3394383394383396, 0.9375, 0.0625, 0.5, 1.0
480, 0.4432234432234432, -0.8192918192918193, -4.6129426129426125, 0.6875, -0.15625, 0.28125, 1.0
481, -0.7106227106227107, -0.47985347985347987, -4.807081807081807, 0.5625, 0.09375, 0.21875, 1.0
482, -1.1135531135531136, 0.1330891330891331, -4.82051282051282, 0.71875, 0.25, 0.21875, 1.0
483, -0.24053724053724054, -0.23076923076923078, -5.827838827838828, 0.78125, 0.34375, 0.375, 1.0
484, 1.5995115995115996, -1.1526251526251525, -5.8791208791208796, 0.65625, 0.03125, 0.40625, 1.0
485, 1.6031746031746033, -1.7863247863247864, -5.688644688644689, 0.4375, -0.125, 0.15625, 1.0
486, 0.3601953601953602, -0.818070818070818, -5.68986568986569, 0.34375, -0.0625, 0.125, 1.0
487, 0.5128205128205128, -0.1978021978021978, -5.278388278388278, 0.65625, -0.03125, 0.125, 1.0
488, 0.9365079365079365, -1.5177045177045176, -4.301587301587301, 0.4375, 0.0, 0.0, 1.0
489, 1.0207570207570207, -0.21367521367521367, -2.7838827838827838, 0.09375, -0.125, -0.15625, 1.0
490, 0.1794871794871795, 0.3894993894993895, -1.6935286935286935, 0.125, -0.6875, -0.28125, 1.0
491, -1.8461538461538463, 0.2454212454212454, -1.8852258852258852, 0.34375, -0.71875, -0.28125, 1.0
492, -2.3162393162393164, -0.25274725274725274, -2.774114774114774, 0.34375, -0.1875, -0.1875, 1.0
493, -1.0598290598290598, -0.46886446886446886, -2.6984126984126986, 0.09375, 0.1875, 0.0, 1.0
494, 0.06593406593406594, -0.6996336996336996, -2.4114774114774113, -0.1875, 0.03125, 0.03125, 1.0
495, -0.14407814407814407, -0.6239316239316239, -2.6495726495726495, -0.5, -0.21875, 0.125, 0.0
496, -0.12576312576312576, -0.12698412698412698, -2.653235653235653, -0.53125, -0.21875, 0.21875, 0.0
497, 0.07814407814407814, -0.7997557997557998, -3.3284493284493286, -0.125, -0.1875, 0.1875, 0.0
498, 0.27228327228327226, -1.0244200244200243, -3.9963369963369964, -0.03125, 0.03125, 0.0625, 0.0
499, -0.1855921855921856, -0.818070818070818, -4.471306471306471, -0.03125, 0.3125, 0.03125, 0.0
500, -0.43956043956043955, -0.41147741147741146, -4.538461538461538, -0.03125, 0.5, 0.0625, 0.0
501, -0.25396825396825395, -0.6214896214896215, -4.405372405372406, 0.0, 0.4375, 0.09375, 0.0
502, 0.09157509157509157, -1.3052503052503053, -5.114774114774114, -0.0625, 0.28125, 0.0625, 0.0
503, -0.26373626373626374, -1.3882783882783882, -5.323565323565323, -0.40625, 0.25, -0.03125, 0.0
504, -0.21001221001221002, -1.3882783882783882, -4.865689865689865, -0.78125, 0.3125, -0.0625, 0.0
505, 0.028083028083028084, -1.3125763125763126, -4.032967032967033, -1.0, 0.25, -0.125, 0.0
506, 0.07081807081807082, -1.4407814407814408, -3.2356532356532357, -1.125, 0.0625, -0.09375, 0.0
507, 0.38217338217338215, -1.7106227106227105, -2.474969474969475, -1.28125, -0.09375, 0.0, 0.0
508, 0.6752136752136753, -1.6336996336996337, -1.242979242979243, -1.40625, -0.375, 0.125, 0.0
509, 1.126984126984127, -1.641025641025641, -0.4175824175824176, -1.375, -0.5, 0.125, 0.0
510, 0.8913308913308914, -1.6324786324786325, -0.28205128205128205, -1.46875, -0.5, -0.03125, 0.0
511, 0.43223443223443225, -1.028083028083028, 0.2087912087912088, -1.59375, -0.28125, -0.03125, 0.0
512, 0.398046398046398, -0.6214896214896215, 1.1465201465201464, -1.4375, -0.25, 0.0, 0.0
513, 0.25518925518925517, -0.31013431013431014, 1.94993894993895, -1.21875, -0.3125, 0.0, 0.0
514, 0.3028083028083028, -0.23565323565323565, 2.5054945054945055, -1.03125, -0.375, 0.0625, 0.0
515, 0.199023199023199, -0.47985347985347987, 2.3223443223443225, -1.0625, -0.28125, 0.09375, 0.0
516, 0.1794871794871795, -0.6410256410256411, 2.4114774114774113, -1.15625, -0.34375, 0.1875, 0.0
517, 0.17704517704517705, -0.5152625152625152, 2.5934065934065935, -1.1875, -0.375, 0.3125, 0.0
518, 0.503052503052503, -0.557997557997558, 2.938949938949939, -1.03125, -0.46875, 0.3125, 0.0
519, 0.08058608058608059, -0.5677655677655677, 2.89010989010989, -0.8125, -0.375, 0.1875, 0.0
520, -0.39438339438339437, -0.7472527472527473, 2.663003663003663, -0.6875, 0.0, 0.09375, 0.0
521, -0.21001221001221002, -0.7142857142857143, 2.694749694749695, -0.625, 0.1875, 0.125, 0.0
522, 0.18192918192918192, -0.5213675213675214, 2.6495726495726495, -0.625, 0.09375, 0.15625, 0.0
523, 0.10744810744810745, -0.5555555555555556, 2.559218559218559, -0.5625, -0.125, 0.1875, 0.0
524, -0.4713064713064713, -0.525030525030525, 2.380952380952381, -0.5, -0.15625, 0.21875, 0.0
525, -0.21978021978021978, -0.7838827838827839, 2.1465201465201464, -0.5625, -0.125, 0.125, 0.0
526, -0.3626373626373626, -0.38217338217338215, 2.3064713064713063, -0.625, 0.09375, 0.0625, 0.0
527, -0.3833943833943834, -0.07692307692307693, 2.5995115995115996, -0.5, 0.21875, 0.09375, 0.0
528, -0.24175824175824176, -0.39194139194139194, 2.746031746031746, -0.46875, 0.125, 0.15625, 0.0
529, -0.052503052503052504, -0.7448107448107448, 2.3321123321123323, -0.53125, -0.03125, 0.1875, 0.0
530, -0.1452991452991453, -0.5079365079365079, 2.0854700854700856, -0.5625, 0.0, 0.09375, 0.0
531, -0.25396825396825395, -0.1855921855921856, 2.167277167277167, -0.4375, 0.1875, 0.0625, 0.0
532, 0.16727716727716727, -0.17216117216117216, 2.402930402930403, -0.1875, 0.15625, 0.0, 0.0
533, -0.17826617826617827, -0.44932844932844934, 1.8815628815628815, -0.09375, 0.03125, 0.03125, 0.0
534, -0.15384615384615385, -0.3992673992673993, 1.1684981684981686, -0.1875, 0.0, 0.03125, 0.0
535, 0.018315018315018316, -0.326007326007326, 1.0476190476190477, -0.28125, 0.0, 0.03125, 0.0
536, -0.08180708180708181, -0.33577533577533575, 0.9743589743589743, -0.125, 0.03125, 0.0, 0.0
537, -0.08302808302808302, -0.7045177045177046, 0.7924297924297924, -0.0625, 0.0625, 0.03125, 0.0
538, -0.03418803418803419, -0.2576312576312576, 0.7655677655677655, -0.1875, 0.125, 0.0, 0.0
539, 0.08302808302808302, -0.0695970695970696, 0.7802197802197802, -0.125, 0.15625, -0.03125, 0.0
540, 0.0, -0.33577533577533575, 0.9181929181929182, -0.03125, 0.0625, -0.09375, 0.0
541, -0.057387057387057384, -0.7643467643467643, 0.7435897435897436, 0.03125, -0.0625, -0.0625, 0.0
542, -0.2686202686202686, -0.8363858363858364, 0.6153846153846154, 0.03125, -0.03125, -0.03125, 1.0
543, -0.5811965811965812, -0.24053724053724054, 0.31135531135531136, -0.21875, 0.15625, -0.0625, 1.0
544, -0.05128205128205128, -0.3882783882783883, 0.7435897435897436, -0.15625, 0.4375, -0.09375, 1.0
545, 0.2600732600732601, -1.0586080586080586, 0.7863247863247863, -0.125, 0.28125, -0.03125, 1.0
546, 0.10256410256410256, -1.0024420024420024, 1.0231990231990231, -0.375, 0.25, -0.0625, 1.0
547, -0.050061050061050064, -0.6886446886446886, 1.7985347985347986, -0.53125, 0.40625, -0.15625, 1.0
548, 0.4603174603174603, -1.032967032967033, 2.8107448107448105, -0.5, 0.28125, -0.09375, 1.0
549, 0.6336996336996337, -1.0305250305250304, 3.4957264957264957, -0.375, -0.125, 0.03125, 1.0
550, -0.10134310134310134, -1.4090354090354091, 3.426129426129426, -0.15625, -0.3125, 0.0, 1.0
551, -0.015873015873015872, -0.9902319902319903, 3.617826617826618, 0.0625, 0.1875, -0.1875, 1.0
552, 0.0231990231990232, -0.9523809523809523, 3.6214896214896215, 0.3125, 0.46875, -0.3125, 1.0
553, -0.16483516483516483, -1.3186813186813187, 3.634920634920635, 0.5, 0.1875, -0.21875, 1.0
554, -0.5506715506715507, -1.4884004884004884, 3.7203907203907205, 0.46875, 0.09375, -0.15625, 1.0
555, 0.6361416361416361, -1.1526251526251525, 4.678876678876679, 0.3125, 0.25, -0.09375, 1.0
556, 0.38583638583638585, -0.10622710622710622, 5.589743589743589, 0.34375, 0.1875, -0.1875, 1.0
557, -0.7191697191697192, -0.050061050061050064, 5.719169719169719, 0.8125, 0.125, -0.15625, 1.0
558, -1.2222222222222223, -0.6349206349206349, 4.537240537240537, 1.1875, 0.375, -0.15625, 1.0
559, -0.5604395604395604, -1.2124542124542124, 3.04029304029304, 1.03125, 0.53125, 0.0, 1.0
560, -0.8021978021978022, -0.6886446886446886, 2.398046398046398, 0.59375, 0.125, 0.21875, 1.0
561, -2.826617826617827, 1.065934065934066, 2.711843711843712, 1.0625, 0.8125, 0.34375, 1.0
562, -2.503052503052503, 1.032967032967033, 1.7203907203907205, 1.84375, 1.65625, 0.5, 1.0
563, 0.07814407814407814, -0.6019536019536019, 0.14163614163614163, 1.6875, 1.25, 0.71875, 1.0
564, 1.1074481074481075, -2.004884004884005, -1.8473748473748475, 0.875, 0.5625, 0.8125, 1.0
565, 1.10989010989011, -0.6483516483516484, -2.9682539682539684, 0.5625, 0.25, 0.6875, 1.0
566, 0.6837606837606838, 0.503052503052503, -3.5457875457875456, 1.0, 0.0, 0.46875, 1.0
567, -0.047619047619047616, 0.3553113553113553, -5.014652014652015, 1.1875, -0.03125, 0.5, 1.0
568, -0.03785103785103785, -1.0134310134310134, -6.418803418803419, 0.875, 0.125, 0.4375, 1.0
569, 1.4725274725274726, -1.7106227106227105, -6.956043956043956, 0.46875, 0.0, 0.28125, 1.0
570, 1.8644688644688645, -0.9633699633699634, -6.78998778998779, 0.3125, -0.28125, 0.0625, 1.0
571, 0.7057387057387058, 0.3663003663003663, -5.94993894993895, 0.6875, -0.0625, 0.0625, 1.0
572, 0.2576312576312576, -0.029304029304029304, -6.114774114774114, 0.90625, 0.34375, 0.15625, 1.0
573, 1.1892551892551892, -0.6593406593406593, -5.777777777777778, 0.71875, 0.21875, 0.09375, 1.0
574, 1.120879120879121, -0.9487179487179487, -5.095238095238095, 0.21875, -0.25, -0.03125, 1.0
575, -0.38217338217338215, 0.029304029304029304, -3.606837606837607, 0.125, -0.28125, 0.0, 1.0
576, -1.0805860805860805, 0.5714285714285714, -2.6495726495726495, 0.25, 0.03125, 0.0, 1.0
577, -0.5286935286935287, 0.5262515262515263, -2.4993894993894994, 0.28125, 0.09375, 0.03125, 1.0
578, 0.1855921855921856, 0.12942612942612944, -2.562881562881563, 0.09375, -0.21875, 0.0, 0.0
579, -0.4139194139194139, -0.16117216117216118, -2.9743589743589745, -0.09375, -0.34375, 0.0, 0.0
580, -0.6312576312576312, 0.1111111111111111, -3.039072039072039, 0.0, -0.21875, 0.0625, 0.0
581, -0.2844932844932845, 0.09035409035409035, -3.2857142857142856, 0.125, -0.09375, 0.125, 0.0
582, -0.01098901098901099, -0.050061050061050064, -3.7106227106227108, 0.15625, 0.0, 0.09375, 0.0
583, 0.17582417582417584, -0.4835164835164835, -4.431013431013431, 0.0, 0.0625, 0.0, 0.0
584, 0.1746031746031746, -0.557997557997558, -4.833943833943834, -0.15625, 0.09375, -0.03125, 0.0
585, 0.12454212454212454, -0.4713064713064713, -4.7997557997558, -0.3125, 0.03125, 0.0, 0.0
586, 0.0, -0.4713064713064713, -4.589743589743589, -0.40625, 0.0, 0.0, 0.0
587, 0.4297924297924298, -1.0341880341880343, -4.415140415140415, -0.40625, 0.125, 0.0, 0.0
588, 0.7167277167277167, -1.5274725274725274, -4.140415140415141, -0.59375, 0.1875, -0.0625, 0.0
589, 0.5323565323565324, -1.4566544566544566, -3.5347985347985347, -0.90625, 0.0, -0.0625, 0.0
590, 0.4188034188034188, -0.978021978021978, -2.463980463980464, -1.03125, -0.1875, 0.0, 0.0
591, 0.2222222222222222, -0.9047619047619048, -1.778998778998779, -0.84375, -0.21875, 0.0, 0.0
592, 0.4554334554334554, -1.3687423687423688, -1.7057387057387057, -0.78125, -0.125, 0.0, 0.0
593, 0.5323565323565324, -1.6617826617826619, -0.9841269841269841, -0.9375, -0.15625, -0.125, 0.0
594, -0.07326007326007326, -1.0964590964590966, -0.1623931623931624, -1.1875, -0.21875, -0.125, 0.0
595, -0.03907203907203907, -0.9413919413919414, 0.7631257631257631, -1.28125, -0.1875, 0.0625, 0.0
596, 0.23687423687423687, -0.8547008547008547, 1.606837606837607, -1.21875, -0.25, 0.09375, 0.0
597, 0.6056166056166056, -1.1965811965811965, 1.9597069597069596, -1.0, -0.53125, 0.15625, 0.0
598, 0.2967032967032967, -1.1013431013431014, 1.8217338217338217, -1.03125, -0.6875, 0.09375, 0.0
599, -0.05982905982905983, -0.818070818070818, 1.728937728937729, -1.125, -0.5, 0.03125, 0.0
600, 0.14041514041514042, -0.706959706959707, 2.004884004884005, -1.09375, -0.25, 0.09375, 0.0
601, 0.14285714285714285, -0.36996336996337, 2.421245421245421, -0.9375, -0.1875, 0.125, 0.0
602, -0.11355311355311355, -0.2222222222222222, 2.6605616605616604, -0.53125, -0.1875, 0.15625, 0.0
603, -0.16117216117216118, -0.5958485958485958, 2.056166056166056, -0.1875, -0.0625, 0.15625, 0.0
604, -0.03296703296703297, -1.0207570207570207, 1.3711843711843712, -0.28125, 0.125, 0.15625, 0.0
605, 0.07326007326007326, -1.2857142857142858, 1.3247863247863247, -0.6875, 0.15625, 0.15625, 0.0
606, 0.29304029304029305, -1.105006105006105, 1.8803418803418803, -0.875, 0.03125, 0.25, 0.0
607, 0.22466422466422467, -0.8986568986568987, 2.3894993894993894, -0.78125, -0.15625, 0.3125, 0.0
608, 0.0757020757020757, -0.8095238095238095, 2.463980463980464, -0.5625, -0.25, 0.34375, 0.0
609, -0.20512820512820512, -0.9438339438339438, 1.4322344322344323, -0.46875, -0.125, 0.25, 0.0
610, -0.7277167277167277, -1.0048840048840049, 1.0366300366300367, -0.75, 0.40625, 0.0625, 0.0
611, -0.28205128205128205, -0.7374847374847375, 2.0842490842490844, -0.65625, 0.46875, 0.0625, 0.0
612, -0.46642246642246643, -0.5433455433455433, 2.0549450549450547, -0.5, 0.28125, 0.125, 0.0
613, -0.12087912087912088, -0.4004884004884005, 1.8339438339438339, -0.5, 0.15625, 0.21875, 0.0
614, 0.16605616605616605, -0.46764346764346765, 1.7448107448107448, -0.8125, 0.21875, 0.0, 0.0
615, -0.43101343101343104, 0.2661782661782662, 1.9841269841269842, -0.71875, 0.4375, -0.03125, 0.0
616, -0.6141636141636142, 0.16361416361416362, 2.374847374847375, -0.375, 0.375, 0.0, 0.0
617, -0.4590964590964591, -0.06471306471306472, 2.191697191697192, -0.21875, 0.25, 0.03125, 0.0
618, 0.09645909645909646, -0.21367521367521367, 2.1587301587301586, -0.28125, 0.125, 0.03125, 0.0
619, 0.16361416361416362, 0.015873015873015872, 1.8766788766788767, -0.375, 0.0, 0.0, 0.0
620, 0.018315018315018316, 0.12942612942612944, 1.8253968253968254, -0.25, -0.21875, 0.0625, 0.0
621, -0.6678876678876678, 0.057387057387057384, 1.5177045177045176, -0.09375, -0.25, 0.0625, 0.0
622, -0.6776556776556777, -0.0989010989010989, 0.9242979242979243, -0.0625, -0.09375, 0.0, 0.0
623, -0.43956043956043955, -0.3431013431013431, 0.43956043956043955, -0.21875, -0.03125, -0.03125, 0.0
624, -0.4249084249084249, -0.026862026862026864, 0.8461538461538461, -0.09375, -0.0625, 0.15625, 0.0
625, -0.1623931623931624, -0.3772893772893773, 0.945054945054945, 0.0, -0.1875, 0.21875, 0.0
626, -0.18925518925518925, -0.4517704517704518, 0.7692307692307693, 0.09375, -0.125, 0.1875, 0.0
627, 0.3321123321123321, -0.7814407814407814, 0.4517704517704518, 0.125, -0.03125, 0.03125, 1.0
628, 0.6544566544566545, -1.3199023199023199, 0.23076923076923078, -0.0625, -0.0625, 0.0, 1.0
629, 0.6898656898656899, -1.2796092796092795, 0.22344322344322345, -0.28125, -0.25, 0.0625, 1.0
630, 0.17094017094017094, -0.8962148962148963, 0.22832722832722832, -0.46875, -0.1875, 0.0, 1.0
631, -0.4554334554334554, -0.5225885225885226, 0.34554334554334554, -0.4375, 0.15625, -0.0625, 1.0
632, -0.43101343101343104, -0.5262515262515263, 1.188034188034188, -0.15625, 0.40625, -0.0625, 1.0
633, -0.32722832722832723, -0.8583638583638583, 2.156288156288156, 0.03125, 0.34375, -0.03125, 1.0
634, 0.052503052503052504, -1.0012210012210012, 2.7020757020757022, 0.0, 0.25, 0.0, 1.0
635, 0.2600732600732601, -0.7362637362637363, 3.6727716727716726, 0.03125, -0.0625, -0.03125, 1.0
636, -0.34676434676434675, -1.0647130647130647, 3.6336996336996337, 0.03125, -0.28125, 0.0, 1.0
637, -1.293040293040293, -1.3003663003663004, 3.442002442002442, 0.0, -0.125, 0.0, 1.0
638, -0.5079365079365079, -1.5164835164835164, 4.329670329670329, 0.03125, 0.1875, 0.03125, 1.0
639, 0.6678876678876678, -0.884004884004884, 5.483516483516484, 0.3125, 0.15625, 0.0, 1.0
640, 0.7533577533577533, -0.42124542124542125, 5.557997557997558, 0.59375, -0.03125, 0.0, 1.0
641, -0.007326007326007326, -1.0402930402930404, 4.791208791208791, 0.59375, 0.0, -0.03125, 1.0
642, -0.7338217338217338, -1.5836385836385836, 4.018315018315018, 0.4375, 0.125, -0.09375, 1.0
643, -0.05860805860805861, -0.8705738705738706, 4.548229548229548, 0.53125, 0.21875, -0.03125, 1.0
644, 0.33821733821733824, -1.1721611721611722, 4.277167277167277, 0.8125, -0.09375, 0.21875, 1.0
645, 0.1855921855921856, -0.9560439560439561, 3.474969474969475, 0.5, -0.75, 0.5, 1.0
646, -3.083028083028083, 0.8571428571428571, 2.3675213675213675, 0.5, -0.59375, 0.375, 1.0
647, -2.3235653235653237, 0.6166056166056166, 1.452991452991453, 1.3125, 0.78125, 0.46875, 1.0
648, 0.9304029304029304, -1.5067155067155067, 0.7142857142857143, 1.8125, 1.09375, 0.65625, 1.0
649, 2.3626373626373627, -3.0415140415140414, -0.8986568986568987, 1.53125, 0.25, 0.78125, 1.0
650, 1.9523809523809523, -2.1062271062271063, -3.1636141636141635, 1.0, -0.3125, 0.5625, 1.0
651, -0.2771672771672772, -0.24297924297924298, -4.355311355311355, 0.90625, -0.21875, 0.1875, 1.0
652, 0.015873015873015872, -0.833943833943834, -4.412698412698413, 1.28125, 0.46875, 0.1875, 1.0
653, 1.8864468864468864, -2.1746031746031744, -5.433455433455434, 1.1875, 0.59375, 0.1875, 1.0
654, 2.3150183150183152, -1.5262515262515262, -6.772893772893773, 0.53125, 0.0625, 0.0, 1.0
655, 0.5018315018315018, 0.3785103785103785, -6.670329670329671, 0.3125, -0.28125, -0.1875, 1.0
656, -1.0793650793650793, 0.6544566544566545, -5.96947496947497, 0.71875, 0.0, -0.15625, 1.0
657, 0.017094017094017096, -0.3235653235653236, -6.125763125763126, 0.875, 0.59375, 0.0, 1.0
658, 1.3577533577533578, -1.0818070818070817, -6.390720390720391, 0.4375, 0.25, 0.0, 1.0
659, -0.06593406593406594, 0.5836385836385837, -4.637362637362638, 0.21875, -0.1875, -0.0625, 1.0
660, -1.4468864468864469, 0.9975579975579976, -3.336996336996337, 0.78125, 0.4375, 0.03125, 1.0
661, -0.001221001221001221, -0.3882783882783883, -3.722832722832723, 0.625, 0.46875, 0.03125, 1.0
662, 0.7057387057387058, -1.0586080586080586, -3.9743589743589745, -0.09375, -0.15625, -0.09375, 1.0
663, -0.6153846153846154, -0.36507936507936506, -3.122100122100122, -0.3125, -0.21875, -0.09375, 1.0
664, -0.9157509157509157, 0.2844932844932845, -2.0195360195360195, 0.125, 0.0, 0.0, 1.0
665, -0.2026862026862027, -0.26495726495726496, -2.31013431013431, 0.3125, 0.0, 0.0625, 1.0
666, 0.29304029304029305, -0.7985347985347986, -2.6275946275946276, 0.09375, -0.09375, 0.0625, 0.0
667, -0.09401709401709402, -0.7167277167277167, -2.9572649572649574, -0.3125, -0.125, 0.0, 0.0
668, -0.2905982905982906, -0.7838827838827839, -3.075702075702076, -0.71875, -0.0625, 0.0, 0.0
669, -0.7167277167277167, 0.2844932844932845, -3.2844932844932844, -0.6875, -0.03125, 0.03125, 0.0
670, -0.6788766788766789, 0.5335775335775336, -3.197802197802198, 0.0, 0.0, 0.0625, 0.0
671, -0.24786324786324787, -0.46642246642246643, -4.280830280830281, 0.09375, 0.3125, 0.125, 0.0
672, 0.757020757020757, -1.4945054945054945, -5.361416361416361, -0.25, 0.40625, 0.0, 0.0
673, 1.137973137973138, -1.5213675213675213, -5.155067155067155, -0.84375, 0.15625, -0.125, 0.0
674, 0.1978021978021978, -0.6886446886446886, -4.559218559218559, -1.0, 0.0, -0.15625, 0.0
675, -0.3052503052503053, -0.4017094017094017, -3.9084249084249083, -0.78125, 0.125, -0.09375, 0.0
676, -0.26495726495726496, -0.6214896214896215, -3.796092796092796, -0.65625, 0.40625, -0.03125, 0.0
677, 0.6068376068376068, -0.894993894993895, -3.2967032967032965, -0.65625, 0.40625, -0.0625, 0.0
678, 0.7728937728937729, -1.4871794871794872, -2.923076923076923, -0.875, 0.1875, -0.15625, 0.0
679, 0.6312576312576312, -1.4029304029304028, -2.253968253968254, -1.0625, -0.03125, -0.21875, 0.0
680, 0.11477411477411477, -1.1611721611721613, -1.5531135531135531, -1.09375, -0.15625, -0.21875, 0.0
681, -0.002442002442002442, -1.15995115995116, -1.0512820512820513, -1.125, -0.0625, -0.1875, 0.0
682, 0.08180708180708181, -1.0525030525030525, -0.5433455433455433, -1.125, 0.0, -0.09375, 0.0
683, 0.21367521367521367, -0.8864468864468864, 0.24664224664224665, -0.90625, -0.125, 0.0, 0.0
684, 0.8070818070818071, -0.7252747252747253, 1.5592185592185592, -0.78125, -0.53125, 0.03125, 0.0
685, -0.03663003663003663, -0.5396825396825397, 1.137973137973138, -0.90625, -0.53125, -0.03125, 0.0
686, -0.3724053724053724, -0.3247863247863248, 1.2942612942612943, -1.03125, -0.125, 0.0, 0.0
687, -0.47985347985347987, 0.02564102564102564, 1.9304029304029304, -1.0, 0.1875, 0.0, 0.0
688, 0.2686202686202686, -0.06837606837606838, 2.8241758241758244, -0.84375, 0.1875, 0.0625, 0.0
689, 0.6056166056166056, -0.6642246642246642, 2.473748473748474, -0.75, -0.25, 0.09375, 0.0
690, -0.06227106227106227, -0.7948717948717948, 1.9401709401709402, -0.96875, -0.53125, 0.09375, 0.0
691, -0.15995115995115994, -0.8534798534798534, 1.8534798534798536, -1.28125, -0.34375, 0.1875, 0.0
692, 0.1111111111111111, -0.5873015873015873, 2.868131868131868, -1.1875, -0.0625, 0.15625, 0.0
693, 0.3089133089133089, -0.6666666666666666, 3.094017094017094, -0.78125, -0.125, 0.15625, 0.0
694, -0.13797313797313798, -0.5897435897435898, 2.4334554334554332, -0.4375, -0.25, 0.1875, 0.0
695, -0.21733821733821734, -1.0256410256410255, 2.0598290598290596, -0.375, -0.15625, 0.21875, 0.0
696, 0.06349206349206349, -1.352869352869353, 2.1477411477411477, -0.59375, -0.0625, 0.15625, 0.0
697, 0.08913308913308914, -1.089133089133089, 2.2686202686202686, -0.71875, -0.0625, 0.15625, 0.0
698, 0.336996336996337, -0.833943833943834, 2.4822954822954824, -0.5625, -0.21875, 0.21875, 0.0
699, -0.38583638583638585, -0.7411477411477412, 2.1904761904761907, -0.40625, -0.28125, 0.1875, 0.0
700, -0.32967032967032966, -1.1452991452991452, 1.7203907203907205, -0.34375, 0.03125, 0.1875, 0.0
701, -0.41514041514041516, -1.1086691086691087, 1.407814407814408, -0.5, 0.21875, 0.0, 0.0
702, -0.1794871794871795, -0.7863247863247863, 1.9267399267399268, -0.5, 0.3125, 0.0, 0.0
703, 0.052503052503052504, -0.5714285714285714, 2.1062271062271063, -0.40625, 0.25, 0.03125, 0.0
704, 0.11965811965811966, -0.6251526251526252, 1.4273504273504274, -0.40625, 0.09375, 0.0625, 0.0
705, -0.31135531135531136, -0.45665445665445664, 1.2344322344322345, -0.5, 0.0, 0.0, 0.0
706, -0.9951159951159951, -0.11355311355311355, 1.4236874236874237, -0.46875, 0.03125, 0.0, 0.0
707, -0.9792429792429792, 0.10989010989010989, 1.5811965811965811, -0.25, 0.28125, 0.03125, 0.0
708, -0.514041514041514, 0.336996336996337, 1.4053724053724053, 0.03125, 0.53125, 0.0, 0.0
709, 0.15506715506715507, 0.06715506715506715, 1.1733821733821734, 0.09375, 0.46875, -0.0625, 0.0
710, 0.09645909645909646, -0.48717948717948717, 0.8449328449328449, -0.09375, 0.34375, -0.125, 0.0
711, -0.37484737484737485, -0.37606837606837606, 0.39194139194139194, -0.34375, 0.3125, -0.0625, 0.0
712, -0.09401709401709402, -0.6251526251526252, 0.5433455433455433, -0.40625, 0.15625, -0.0625, 1.0
713, -0.045177045177045176, -0.42735042735042733, 1.192918192918193, -0.25, 0.0625, -0.09375, 1.0
714, -0.06349206349206349, -0.02442002442002442, 1.2344322344322345, 0.125, 0.15625, -0.125, 1.0
715, -0.1452991452991453, -0.47741147741147744, 0.8424908424908425, 0.15625, 0.3125, -0.125, 1.0
716, 0.1794871794871795, -1.061050061050061, 0.029304029304029304, -0.28125, 0.3125, -0.0625, 1.0
717, 0.22344322344322345, -0.5152625152625152, 0.3308913308913309, -0.53125, 0.15625, -0.03125, 1.0
718, -0.02197802197802198, -0.21367521367521367, 1.0976800976800978, -0.28125, 0.0, 0.0, 1.0
719, -0.4554334554334554, -0.3553113553113553, 1.2661782661782661, 0.0625, 0.03125, 0.0, 1.0
720, -0.3614163614163614, -0.7936507936507936, 1.1294261294261294, 0.125, 0.1875, -0.0625, 1.0
721, -0.11233211233211234, -0.9181929181929182, 1.525030525030525, 0.03125, 0.25, -0.0625, 1.0
722, -0.06837606837606838, -1.3028083028083028, 2.0183150183150182, -0.09375, 0.28125, -0.09375, 1.0
723, -0.040293040293040296, -1.4297924297924298, 2.862026862026862, -0.125, 0.15625, -0.03125, 1.0
724, 0.6263736263736264, -1.7997557997557998, 3.5006105006105006, -0.1875, -0.3125, 0.03125, 1.0
725, 0.19291819291819293, -1.3748473748473748, 3.871794871794872, -0.1875, -0.4375, -0.03125, 1.0
726, -0.7203907203907204, -0.7203907203907204, 4.500610500610501, 0.15625, 0.0, -0.1875, 1.0
727, -0.5164835164835165, -1.0207570207570207, 4.887667887667888, 0.59375, 0.3125, -0.25, 1.0
728, -0.221001221001221, -1.5555555555555556, 4.625152625152626, 0.78125, 0.09375, -0.1875, 1.0
729, -0.1282051282051282, -2.0634920634920637, 3.774114774114774, 0.4375, -0.15625, -0.03125, 1.0
730, -0.1343101343101343, -1.6984126984126984, 3.4004884004884004, 0.21875, -0.40625, 0.0, 1.0
731, -0.7167277167277167, -0.967032967032967, 3.9462759462759465, 0.5625, -0.15625, 0.0, 1.0
732, -0.796092796092796, -0.6935286935286935, 4.390720390720391, 1.1875, 0.25, -0.15625, 1.0
733, 0.02442002442002442, -1.459096459096459, 2.023199023199023, 0.875, 0.25, 0.0, 1.0
734, -0.4236874236874237, -0.6593406593406593, 2.253968253968254, 0.4375, -0.375, 0.1875, 1.0
735, -1.547008547008547, -0.221001221001221, 1.84981684981685, 0.8125, -0.3125, 0.21875, 1.0
736, -0.9572649572649573, -0.29914529914529914, 0.20024420024420025, 1.46875, 0.53125, 0.1875, 1.0
737, 0.03296703296703297, -0.8608058608058609, -1.3052503052503053, 1.46875, 0.84375, 0.1875, 1.0
738, 0.25518925518925517, -0.9926739926739927, -1.4322344322344323, 0.90625, 0.53125, 0.21875, 1.0
739, 0.8473748473748474, -1.0854700854700854, -1.8705738705738706, 0.5625, -0.03125, 0.40625, 1.0
740, -0.16117216117216118, -0.22832722832722832, -2.9584859584859586, 0.71875, -0.40625, 0.28125, 1.0
741, -0.37362637362637363, -0.23076923076923078, -3.4554334554334556, 0.90625, -0.03125, 0.15625, 1.0
742, 0.21733821733821734, -0.4261294261294261, -3.2503052503052503, 0.9375, 0.34375, 0.0625, 1.0
743, 0.5128205128205128, -0.3711843711843712, -4.697191697191697, 0.6875, 0.0625, 0.09375, 1.0
744, -0.02442002442002442, -0.02564102564102564, -5.31013431013431, 0.4375, -0.375, 0.03125, 1.0
745, -0.3504273504273504, 0.19658119658119658, -4.927960927960928, 0.65625, -0.125, 0.0, 1.0
746, -0.05128205128205128, -0.24175824175824176, -4.561660561660561, 0.90625, 0.53125, 0.09375, 1.0
747, 1.2087912087912087, -0.4700854700854701, -4.837606837606837, 0.78125, 0.34375, 0.15625, 1.0
748, 0.38461538461538464, -0.28205128205128205, -5.427350427350428, 0.625, -0.5, 0.09375, 1.0
749, -1.1855921855921856, -0.1514041514041514, -5.6581196581196584, 0.5625, -0.4375, 0.03125, 1.0
750, -0.24664224664224665, -0.409035409035409, -4.985347985347985, 0.59375, 0.3125, 0.09375, 1.0
751, 0.6898656898656899, -0.4932844932844933, -4.391941391941392, 0.34375, 0.46875, 0.0, 1.0
752, 0.29914529914529914, -0.17826617826617827, -3.6398046398046398, -0.0625, 0.09375, 0.0, 1.0
753, -0.41514041514041516, 0.004884004884004884, -3.26007326007326, -0.40625, 0.03125, 0.0625, 0.0
754, -0.1452991452991453, 0.17826617826617827, -2.937728937728938, -0.59375, 0.1875, 0.15625, 0.0
755, 0.5384615384615384, 0.2148962148962149, -2.597069597069597, -0.4375, 0.1875, 0.1875, 0.0
756, 0.20757020757020758, 0.35775335775335776, -2.866910866910867, -0.09375, 0.0625, 0.21875, 0.0
757, 0.07081807081807082, -0.2258852258852259, -3.8095238095238093, 0.125, 0.125, 0.0625, 0.0
758, 0.026862026862026864, -0.4481074481074481, -4.2905982905982905, -0.09375, 0.125, -0.03125, 0.0
759, -0.304029304029304, -0.38461538461538464, -4.52991452991453, -0.3125, 0.1875, -0.125, 0.0
760, -0.21123321123321123, -0.05128205128205128, -4.357753357753357, -0.34375, 0.40625, -0.0625, 0.0
761, 0.304029304029304, -0.026862026862026864, -4.155067155067155, -0.21875, 0.4375, -0.0625, 0.0
762, 0.463980463980464, -0.32844932844932845, -4.103785103785103, -0.1875, 0.1875, -0.09375, 0.0
763, 0.3785103785103785, -0.6275946275946276, -3.866910866910867, -0.375, -0.125, -0.09375, 0.0
764, 0.25396825396825395, -0.833943833943834, -3.7032967032967035, -0.625, -0.25, -0.15625, 0.0
765, -0.004884004884004884, -0.9804639804639804, -3.3833943833943834, -0.84375, -0.15625, -0.15625, 0.0
766, 0.042735042735042736, -0.8278388278388278, -2.741147741147741, -0.84375, -0.125, -0.0625, 0.0
767, 0.22832722832722832, -0.5628815628815629, -1.7472527472527473, -0.5625, -0.25, -0.03125, 0.0
768, 0.115995115995116, -0.7533577533577533, -1.3125763125763126, -0.40625, -0.34375, 0.0, 0.0
769, -0.14163614163614163, -1.2442002442002442, -1.0647130647130647, -0.46875, -0.21875, 0.0625, 0.0
770, 0.1746031746031746, -1.2136752136752136, -0.7106227106227107, -0.6875, -0.09375, 0.0625, 0.0
771, 0.9365079365079365, -1.105006105006105, -0.02442002442002442, -0.8125, -0.25, 0.0, 0.0
772, 1.0927960927960927, -0.9023199023199023, 0.5616605616605617, -0.875, -0.5625, 0.0, 0.0
773, 0.6251526251526252, -0.7985347985347986, 0.9438339438339438, -0.84375, -0.65625, 0.0, 0.0
774, -0.08913308913308914, -0.7374847374847375, 1.098901098901099, -0.90625, -0.5, 0.03125, 0.0
775, -0.1221001221001221, -0.5934065934065934, 1.0622710622710623, -1.0, -0.21875, 0.09375, 0.0
776, 0.11355311355311355, -0.38583638583638585, 1.4236874236874237, -1.0625, -0.1875, 0.09375, 0.0
777, 0.3064713064713065, -0.27594627594627597, 1.9743589743589745, -0.96875, -0.34375, 0.15625, 0.0
778, 0.26373626373626374, -0.5164835164835165, 1.9352869352869353, -0.75, -0.5625, 0.21875, 0.0
779, 0.31746031746031744, -1.2478632478632479, 1.4542124542124542, -0.78125, -0.53125, 0.1875, 0.0
780, 0.14652014652014653, -1.2124542124542124, 1.2844932844932846, -0.90625, -0.25, 0.125, 0.0
781, 0.22466422466422467, -0.7289377289377289, 1.5970695970695972, -0.8125, 0.0, 0.0, 0.0
782, 0.06227106227106227, -0.36874236874236876, 2.191697191697192, -0.5625, 0.0, 0.03125, 0.0
783, -0.14896214896214896, -0.7667887667887668, 1.6275946275946276, -0.46875, -0.125, 0.09375, 0.0
784, -0.5274725274725275, -0.7728937728937729, 1.192918192918193, -0.625, -0.09375, 0.0, 0.0
785, -0.796092796092796, -0.32722832722832723, 1.308913308913309, -0.84375, 0.09375, 0.0, 0.0
786, -0.4261294261294261, 0.013431013431013432, 1.8437118437118436, -0.84375, 0.3125, 0.0, 0.0
787, -0.5396825396825397, -0.10989010989010989, 1.8437118437118436, -0.6875, 0.21875, 0.0, 0.0
788, -0.4371184371184371, -0.4481074481074481, 1.910866910866911, -0.53125, 0.09375, 0.0625, 0.0
789, -0.38461538461538464, -0.6959706959706959, 1.5775335775335775, -0.53125, 0.0, 0.0625, 0.0
790, -0.398046398046398, -0.6019536019536019, 1.5702075702075702, -0.59375, 0.0625, 0.09375, 0.0
791, -0.16361416361416362, -0.5494505494505495, 2.062271062271062, -0.5, 0.1875, 0.125, 0.0
792, 0.28327228327228327, -0.40293040293040294, 2.5286935286935286, -0.375, 0.25, 0.15625, 0.0
793, 0.24786324786324787, -0.518925518925519, 1.989010989010989, -0.21875, 0.125, 0.125, 0.0
794, 0.06715506715506715, -0.8168498168498168, 1.4468864468864469, -0.1875, -0.03125, 0.09375, 0.0
795, -0.09401709401709402, -0.7130647130647131, 1.352869352869353, -0.34375, -0.09375, 0.09375, 0.0
796, -0.23931623931623933, -0.7252747252747253, 1.5018315018315018, -0.4375, -0.09375, 0.09375, 0.0
797, -0.1916971916971917, -0.452991452991453, 1.4774114774114775, -0.40625, -0.03125, 0.09375, 0.0
798, 0.030525030525030524, -0.4884004884004884, 1.531135531135531, -0.21875, 0.0, 0.09375, 0.0
799, 0.18315018315018314, -0.4945054945054945, 1.3406593406593406, -0.15625, 0.09375, 0.03125, 0.0
800, 0.01221001221001221, -0.612942612942613, 1.0268620268620268, -0.3125, 0.125, -0.03125, 0.0
801, -0.10256410256410256, -0.4713064713064713, 1.2002442002442002, -0.4375, 0.15625, -0.03125, 0.0
802, -0.1391941391941392, 0.008547008547008548, 1.4737484737484738, -0.25, 0.09375, 0.0, 0.0
803, 0.10744810744810745, 0.14163614163614163, 1.2942612942612943, 0.03125, 0.0, 0.03125, 0.0
804, 0.6422466422466423, -0.46764346764346765, 0.702075702075702, 0.1875, -0.125, 0.0, 0.0
805, 0.07814407814407814, -0.9474969474969475, -0.001221001221001221, 0.0, -0.3125, -0.15625, 0.0
806, -0.684981684981685, -0.21001221001221002, 0.16117216117216118, -0.0625, 0.0, -0.09375, 1.0
807, -0.2905982905982906, -0.2503052503052503, 0.6068376068376068, 0.03125, 0.1875, -0.03125, 1.0
808, 0.27350427350427353, -0.6202686202686203, 0.7032967032967034, 0.0625, 0.15625, -0.03125, 1.0
809, 0.17216117216117216, -0.6862026862026862, 0.17704517704517705, -0.1875, 0.1875, -0.0625, 1.0
810, -0.31013431013431014, -0.6642246642246642, 0.3711843711843712, -0.34375, 0.34375, -0.0625, 1.0
811, -0.08913308913308914, -0.6752136752136753, 1.5006105006105006, -0.25, 0.40625, -0.0625, 1.0
812, 0.10378510378510379, -0.645909645909646, 2.2686202686202686, 0.0, 0.375, -0.0625, 1.0
813, 0.2783882783882784, -1.3846153846153846, 2.213675213675214, 0.0, 0.34375, -0.09375, 1.0
814, 0.48595848595848595, -1.9352869352869353, 2.452991452991453, -0.15625, 0.15625, -0.0625, 1.0
815, 0.36385836385836384, -2.0085470085470085, 3.010989010989011, -0.375, 0.0, -0.125, 1.0
816, 0.07203907203907203, -1.2222222222222223, 4.018315018315018, -0.28125, 0.125, -0.125, 1.0
817, 0.3443223443223443, -0.6935286935286935, 4.766788766788767, 0.0625, 0.21875, -0.15625, 1.0
818, 0.7545787545787546, -1.089133089133089, 4.970695970695971, 0.34375, 0.0, -0.25, 1.0
819, -0.047619047619047616, -1.3821733821733821, 4.338217338217338, 0.53125, -0.09375, -0.25, 1.0
820, -0.24175824175824176, -1.822954822954823, 3.937728937728938, 0.625, -0.03125, -0.1875, 1.0
821, -0.13186813186813187, -1.286935286935287, 3.885225885225885, 0.5, 0.21875, -0.1875, 1.0
822, 0.3235653235653236, -0.7142857142857143, 4.124542124542124, 0.53125, 0.0, -0.09375, 1.0
823, -0.3968253968253968, -0.6984126984126984, 4.028083028083028, 0.78125, -0.1875, -0.125, 1.0
824, -0.6251526251526252, -1.05006105006105, 3.3614163614163615, 1.0625, -0.15625, -0.03125, 1.0
825, 0.09768009768009768, -2.1123321123321124, 1.8876678876678876, 0.65625, -0.3125, 0.15625, 1.0
826, 0.4078144078144078, -1.9926739926739927, 1.0244200244200243, -0.0625, -0.6875, 0.21875, 1.0
827, -2.1416361416361416, 0.32844932844932845, 1.1086691086691087, 0.28125, 0.125, 0.21875, 1.0
828, -2.421245421245421, 1.249084249084249, 1.2551892551892552, 1.4375, 1.4375, 0.28125, 1.0
829, -0.4371184371184371, -0.11355311355311355, -0.4371184371184371, 1.71875, 1.53125, 0.4375, 1.0
830, 1.1587301587301588, -1.3956043956043955, -2.385836385836386, 0.5, 0.21875, 0.53125, 1.0
831, -0.326007326007326, 0.38461538461538464, -2.924297924297924, 0.375, 0.21875, 0.46875, 1.0
832, -0.3052503052503053, 0.17094017094017094, -3.896214896214896, 1.125, 0.6875, 0.3125, 1.0
833, 0.358974358974359, -1.2820512820512822, -5.582417582417582, 1.25, 0.5, 0.40625, 1.0
834, 0.398046398046398, -1.7521367521367521, -5.957264957264957, 0.5625, 0.03125, 0.3125, 1.0
835, -0.08180708180708181, 0.5018315018315018, -5.122100122100122, 0.15625, 0.03125, 0.15625, 1.0
836, -0.3601953601953602, 0.7472527472527473, -5.031746031746032, 0.78125, 0.34375, 0.125, 1.0
837, 1.4188034188034189, -1.4383394383394383, -5.926739926739927, 1.1875, 0.4375, 0.21875, 1.0
838, 1.2673992673992673, -2.1953601953601956, -6.115995115995116, 0.53125, -0.0625, 0.03125, 1.0
839, -0.2893772893772894, -0.4163614163614164, -5.112332112332112, -0.09375, 0.0, -0.09375, 1.0
840, -0.03907203907203907, 0.4261294261294261, -3.9584859584859586, 0.03125, 0.53125, 0.0, 1.0
841, 0.38461538461538464, 0.2857142857142857, -3.2063492063492065, 0.40625, 0.6875, 0.03125, 1.0
842, 0.6043956043956044, -0.46153846153846156, -3.1416361416361416, 0.3125, 0.34375, 0.0625, 1.0
843, 0.10622710622710622, -0.32722832722832723, -2.6373626373626373, -0.125, -0.0625, 0.0625, 1.0
844, -0.4603174603174603, 0.199023199023199, -2.293040293040293, -0.4375, -0.09375, 0.0625, 0.0
845, 0.09401709401709402, 0.05616605616605617, -1.5531135531135531, -0.46875, 0.0, 0.15625, 0.0
846, 0.33455433455433453, -0.04151404151404151, -1.3406593406593406, -0.40625, -0.125, 0.15625, 0.0
847, 0.03418803418803419, -0.1575091575091575, -1.452991452991453, -0.1875, -0.125, 0.1875, 0.0
848, -0.052503052503052504, -0.3797313797313797, -1.7167277167277166, 0.0, 0.03125, 0.125, 0.0
849, 0.3308913308913309, -0.3907203907203907, -1.663003663003663, 0.03125, 0.125, 0.125, 0.0
850, 0.4188034188034188, -0.5787545787545788, -2.001221001221001, 0.0625, 0.0, 0.03125, 0.0
851, -0.14163614163614163, -0.2490842490842491, -2.2112332112332114, -0.03125, -0.125, 0.0, 0.0
852, -0.702075702075702, 0.2271062271062271, -2.3015873015873014, -0.03125, -0.15625, 0.03125, 0.0
853, -0.17826617826617827, 0.014652014652014652, -2.5641025641025643, 0.1875, 0.0, 0.15625, 0.0
854, 0.6227106227106227, -0.8547008547008547, -3.3064713064713063, 0.34375, 0.0, 0.0625, 0.0
855, 0.6288156288156288, -1.0366300366300367, -4.004884004884005, -0.125, -0.125, -0.09375, 0.0
856, 0.39316239316239315, -0.4945054945054945, -3.9157509157509156, -0.375, -0.125, -0.125, 0.0
857, 0.20146520146520147, 0.2026862026862027, -3.2918192918192917, -0.125, -0.15625, -0.21875, 0.0
858, -0.05372405372405373, 0.017094017094017096, -2.9157509157509156, 0.3125, -0.28125, -0.15625, 0.0
859, -1.1086691086691087, -0.27594627594627597, -3.5653235653235655, 0.53125, -0.0625, 0.0, 0.0
860, -0.4371184371184371, -1.702075702075702, -4.255189255189255, -0.0625, 0.1875, -0.15625, 0.0
861, 0.006105006105006105, -1.7179487179487178, -3.929181929181929, -0.84375, 0.3125, -0.25, 0.0
862, -0.02442002442002442, -0.9255189255189256, -2.415140415140415, -1.125, 0.28125, -0.21875, 0.0
863, 0.19658119658119658, -0.7191697191697192, -1.2954822954822955, -1.09375, 0.0625, -0.15625, 0.0
864, 0.49694749694749696, -0.7081807081807082, -0.6178266178266179, -1.0, -0.125, -0.09375, 0.0
865, 0.2588522588522589, -0.7228327228327228, -0.4627594627594628, -0.96875, -0.0625, -0.0625, 0.0
866, 0.4078144078144078, -0.8632478632478633, -0.02442002442002442, -1.0, -0.03125, -0.0625, 0.0
867, 0.29426129426129427, -0.7863247863247863, 0.5274725274725275, -1.09375, -0.09375, -0.0625, 0.0
868, 0.0757020757020757, -0.29426129426129427, 1.1636141636141637, -1.03125, -0.15625, -0.0625, 0.0
869, -0.07081807081807082, -0.23565323565323565, 1.7985347985347986, -0.8125, -0.1875, -0.03125, 0.0
870, 0.02564102564102564, -0.5201465201465202, 1.921855921855922, -0.65625, -0.1875, 0.03125, 0.0
871, 0.590964590964591, -0.884004884004884, 1.678876678876679, -0.71875, -0.40625, 0.09375, 0.0
872, 0.9169719169719169, -1.0915750915750915, 1.5286935286935286, -1.0, -0.625, 0.0625, 0.0
873, 0.4652014652014652, -1.1257631257631258, 1.7277167277167278, -1.15625, -0.59375, 0.09375, 0.0
874, -0.16727716727716727, -0.8791208791208791, 1.7533577533577533, -1.0, -0.40625, 0.03125, 0.0
875, -0.7631257631257631, -0.514041514041514, 1.7582417582417582, -0.65625, -0.03125, 0.1875, 0.0
876, -0.3968253968253968, -0.05616605616605617, 2.2857142857142856, -0.34375, 0.25, 0.15625, 0.0
877, -0.4932844932844933, 0.12698412698412698, 2.354090354090354, -0.21875, 0.4375, 0.03125, 0.0
878, -0.2576312576312576, -0.3968253968253968, 2.076923076923077, -0.4375, 0.375, 0.0625, 0.0
879, -0.14163614163614163, -0.590964590964591, 1.8058608058608059, -0.875, -0.125, 0.25, 0.0
880, -0.8571428571428571, -0.12454212454212454, 2.354090354090354, -0.78125, -0.34375, 0.375, 0.0
881, -0.27350427350427353, -0.16971916971916973, 2.393162393162393, -0.5, -0.25, 0.375, 0.0
882, -0.006105006105006105, -0.5445665445665445, 1.9438339438339438, -0.3125, -0.03125, 0.25, 0.0
883, -0.13675213675213677, -0.9242979242979243, 1.4053724053724053, -0.34375, 0.21875, 0.125, 0.0
884, 0.40293040293040294, -0.7374847374847375, 1.8681318681318682, -0.46875, 0.4375, 0.125, 0.0
885, 0.5628815628815629, -0.818070818070818, 1.862026862026862, -0.40625, 0.21875, 0.09375, 0.0
886, 0.1330891330891331, -0.6495726495726496, 1.3101343101343101, -0.3125, -0.03125, 0.125, 0.0
887, -0.08547008547008547, -0.7032967032967034, 0.6715506715506715, -0.375, -0.1875, 0.21875, 0.0
888, -0.019536019536019536, -0.7728937728937729, 0.778998778998779, -0.5625, -0.1875, 0.25, 0.0
889, 0.018315018315018316, -0.8302808302808303, 0.9413919413919414, -0.8125, -0.03125, 0.1875, 0.0
890, 0.07081807081807082, -0.7301587301587301, 1.5628815628815629, -0.71875, 0.0, 0.09375, 0.0
891, -0.03907203907203907, -0.5225885225885226, 1.5616605616605617, -0.375, -0.03125, 0.0625, 0.0
892, -0.03907203907203907, -0.48717948717948717, 1.144078144078144, -0.1875, 0.09375, 0.03125, 0.0
893, -0.1916971916971917, -0.7448107448107448, 0.8192918192918193, -0.34375, 0.25, 0.0, 0.0
894, -0.07326007326007326, -0.6752136752136753, 1.10989010989011, -0.5, 0.25, -0.125, 0.0
895, -0.2661782661782662, 0.19047619047619047, 1.5885225885225884, -0.46875, 0.125, -0.125, 0.0
896, -0.4725274725274725, 0.09768009768009768, 1.5421245421245422, -0.125, -0.0625, 0.0, 0.0
897, -0.5347985347985348, -0.7118437118437119, 1.0354090354090355, 0.09375, -0.09375, 0.0, 0.0
898, -1.0415140415140416, -0.717948717948718, 0.6837606837606838, 0.0, 0.0, -0.03125, 0.0
899, -0.24297924297924298, -0.7631257631257631, 0.8058608058608059, -0.25, 0.28125, 0.0, 1.0
900, 0.4590964590964591, -0.2783882783882784, 1.6691086691086692, -0.53125, 0.15625, -0.03125, 1.0
901, -0.35775335775335776, -0.42735042735042733, 1.1257631257631258, -0.59375, -0.21875, 0.0, 1.0
902, -1.0634920634920635, -0.3772893772893773, 1.0244200244200243, -0.5625, -0.0625, -0.09375, 1.0
903, -0.7802197802197802, -0.6727716727716728, 1.6800976800976801, -0.15625, 0.21875, -0.0625, 1.0
904, 0.4432234432234432, -1.2991452991452992, 1.84004884004884, 0.0, 0.25, 0.0, 1.0
905, 0.9108669108669109, -1.6996336996336996, 1.6874236874236874, -0.21875, 0.03125, 0.0, 1.0
906, 0.1282051282051282, -1.5995115995115996, 1.2954822954822955, -0.34375, -0.0625, -0.125, 1.0
907, -0.8437118437118437, -1.0769230769230769, 1.9413919413919414, -0.15625, 0.0625, -0.125, 1.0
908, -0.4358974358974359, -0.6056166056166056, 2.9731379731379732, 0.15625, 0.3125, -0.09375, 1.0
909, 0.5201465201465202, -0.9792429792429792, 3.600732600732601, 0.3125, 0.375, -0.15625, 1.0
910, 0.7924297924297924, -1.380952380952381, 3.3553113553113554, 0.21875, 0.15625, -0.25, 1.0
911, 0.5970695970695971, -1.6898656898656899, 3.427350427350427, 0.09375, -0.21875, -0.1875, 1.0
912, -0.23687423687423687, -0.6764346764346765, 4.3870573870573875, 0.3125, -0.15625, -0.21875, 1.0
913, -0.4517704517704518, 0.757020757020757, 4.915750915750916, 0.90625, 0.21875, -0.21875, 1.0
914, -0.5433455433455433, 0.07448107448107448, 3.264957264957265, 1.0625, 0.25, -0.21875, 1.0
915, -1.0573870573870574, -1.15995115995116, 2.166056166056166, 0.78125, 0.1875, -0.0625, 1.0
916, -0.9816849816849816, -1.6422466422466422, 2.855921855921856, 0.46875, 0.1875, 0.03125, 1.0
917, -0.7081807081807082, -0.008547008547008548, 3.572649572649573, 0.875, 0.5, 0.0625, 1.0
918, -0.30036630036630035, 0.5531135531135531, 3.070818070818071, 1.40625, 0.6875, 0.125, 1.0
919, -0.10134310134310134, -0.3833943833943834, 1.9328449328449329, 1.28125, 0.40625, 0.25, 1.0
920, -0.7631257631257631, -1.4175824175824177, 1.4444444444444444, 1.0, 0.3125, 0.28125, 1.0
921, -0.525030525030525, -1.6654456654456655, 0.8376068376068376, 0.96875, 0.46875, 0.40625, 1.0
922, 1.5115995115995116, -1.9645909645909645, 0.4444444444444444, 0.875, 0.09375, 0.4375, 1.0
923, 1.0793650793650793, -1.1477411477411477, -0.054945054945054944, 0.90625, -0.25, 0.28125, 1.0
924, -0.6605616605616605, -0.3235653235653236, -1.037851037851038, 1.15625, 0.125, 0.21875, 1.0
925, -1.0732600732600732, -0.11965811965811966, -2.445665445665446, 1.34375, 0.5625, 0.34375, 1.0
926, 1.4493284493284493, -1.2197802197802199, -3.1465201465201464, 0.875, -0.09375, 0.4375, 1.0
927, 1.0952380952380953, -1.1965811965811965, -3.8424908424908426, 0.21875, -0.84375, 0.03125, 1.0
928, -2.8144078144078146, 0.9658119658119658, -4.794871794871795, 0.6875, 0.40625, 0.1875, 1.0
929, 0.6007326007326007, -1.032967032967033, -5.029304029304029, 1.3125, 0.65625, 0.5, 1.0
930, 1.3553113553113554, -1.7582417582417582, -6.6007326007326, 0.625, -0.03125, 0.34375, 1.0
931, -0.13553113553113552, -0.19413919413919414, -6.3076923076923075, 0.03125, -0.25, 0.15625, 1.0
932, 0.5421245421245421, 0.26373626373626374, -5.173382173382174, 0.40625, 0.09375, 0.15625, 1.0
933, 1.137973137973138, -0.8046398046398047, -4.831501831501831, 0.84375, 0.0, 0.1875, 1.0
934, 0.8925518925518926, -1.534798534798535, -5.087912087912088, 0.625, -0.03125, 0.0, 1.0
935, 0.6862026862026862, -0.6214896214896215, -4.070818070818071, 0.09375, 0.03125, -0.125, 1.0
936, 0.31013431013431014, -0.19536019536019536, -2.757020757020757, -0.09375, -0.09375, -0.15625, 1.0
937, -0.23321123321123322, -0.21367521367521367, -2.352869352869353, -0.03125, -0.25, -0.125, 0.0
938, -0.7936507936507936, -0.575091575091575, -2.8595848595848596, -0.03125, 0.0, -0.09375, 0.0
939, -0.01221001221001221, -0.27106227106227104, -2.514041514041514, -0.40625, 0.25, -0.0625, 0.0
940, -0.2454212454212454, 0.37606837606837606, -1.5836385836385836, -0.53125, 0.0, -0.09375, 0.0
941, -0.6153846153846154, 0.24053724053724054, -1.2283272283272284, -0.21875, -0.15625, -0.09375, 0.0
942, -1.0683760683760684, 0.018315018315018316, -1.7240537240537241, -0.0625, -0.03125, -0.03125, 0.0
943, -0.5042735042735043, -0.32112332112332115, -2.330891330891331, -0.09375, 0.28125, 0.03125, 0.0
944, 0.2661782661782662, -0.5702075702075702, -2.8095238095238093, -0.15625, 0.34375, 0.0, 0.0
945, 0.38095238095238093, -0.3968253968253968, -2.960927960927961, -0.25, 0.0625, -0.03125, 0.0
946, 0.03663003663003663, -0.16117216117216118, -3.2356532356532357, -0.25, -0.0625, -0.03125, 0.0
947, -0.07081807081807082, -0.3076923076923077, -3.954822954822955, -0.25, -0.03125, -0.03125, 0.0
948, -0.14285714285714285, -0.3089133089133089, -4.42002442002442, -0.375, 0.09375, -0.09375, 0.0
949, -0.26373626373626374, -0.14407814407814407, -4.356532356532356, -0.46875, 0.25, -0.125, 0.0
950, -0.1746031746031746, -0.07692307692307693, -4.323565323565323, -0.46875, 0.28125, -0.09375, 0.0
951, -0.27350427350427353, -0.24175824175824176, -4.291819291819292, -0.46875, 0.15625, -0.03125, 0.0
952, -0.23687423687423687, -0.7326007326007326, -4.191697191697192, -0.5625, 0.0, 0.09375, 0.0
953, 0.21123321123321123, -1.264957264957265, -3.6825396825396823, -0.6875, 0.0, 0.03125, 0.0
954, 0.5543345543345544, -1.376068376068376, -2.7716727716727716, -0.78125, 0.125, 0.0, 0.0
955, 0.7289377289377289, -1.308913308913309, -1.9230769230769231, -0.8125, 0.125, -0.03125, 0.0
956, 0.7057387057387058, -0.9865689865689866, -1.2026862026862026, -0.8125, 0.0625, -0.03125, 0.0
957, 0.5335775335775336, -0.978021978021978, -0.5494505494505495, -0.78125, -0.0625, -0.03125, 0.0
958, 0.5836385836385837, -1.1343101343101343, -0.11355311355311355, -0.84375, -0.125, -0.03125, 0.0
959, 0.46886446886446886, -1.1941391941391941, 0.2039072039072039, -0.90625, -0.15625, -0.0625, 0.0
960, 0.7655677655677655, -1.5677655677655677, 0.684981684981685, -1.03125, -0.25, -0.125, 0.0
961, 0.3137973137973138, -0.9365079365079365, 1.164835164835165, -1.0625, -0.25, -0.09375, 0.0
962, 0.03540903540903541, -0.3516483516483517, 1.7264957264957266, -0.9375, -0.34375, 0.03125, 0.0
963, 0.04151404151404151, -0.34554334554334554, 2.213675213675214, -0.8125, -0.46875, 0.09375, 0.0
964, -0.1343101343101343, -0.47985347985347987, 1.9804639804639805, -0.9375, -0.34375, 0.03125, 0.0
965, -0.5103785103785103, -0.3247863247863248, 1.5531135531135531, -1.09375, -0.03125, -0.0625, 0.0
966, -0.37484737484737485, 0.006105006105006105, 2.1538461538461537, -0.96875, 0.0, 0.0, 0.0
967, -0.115995115995116, -0.19291819291819293, 2.473748473748474, -0.6875, -0.25, 0.21875, 0.0
968, 0.015873015873015872, -0.9401709401709402, 1.9511599511599511, -0.6875, -0.4375, 0.28125, 0.0
969, -0.20757020757020758, -1.6776556776556777, 1.4102564102564104, -1.03125, -0.3125, 0.21875, 0.0
970, -0.2588522588522589, -1.105006105006105, 1.636141636141636, -1.125, -0.0625, 0.28125, 0.0
971, -0.1343101343101343, -1.0879120879120878, 1.452991452991453, -0.875, -0.09375, 0.34375, 0.0
972, -0.5848595848595849, -1.485958485958486, 0.6251526251526252, -0.78125, -0.09375, 0.34375, 0.0
973, -0.6031746031746031, -1.6227106227106227, 0.7912087912087912, -0.90625, 0.15625, 0.375, 0.0
974, -0.46642246642246643, -1.1587301587301588, 1.551892551892552, -0.90625, 0.53125, 0.34375, 0.0
975, 0.08913308913308914, -0.6959706959706959, 1.9096459096459097, -0.65625, 0.5, 0.28125, 0.0
976, 0.40293040293040294, -0.4981684981684982, 2.3235653235653237, -0.34375, 0.1875, 0.21875, 0.0
977, 0.23931623931623933, -0.927960927960928, 2.258852258852259, -0.4375, 0.09375, 0.125, 0.0
978, -0.11233211233211234, -0.8803418803418803, 2.2783882783882783, -0.53125, 0.125, 0.1875, 0.0
979, -0.08791208791208792, -0.9242979242979243, 2.3015873015873014, -0.53125, 0.0625, 0.15625, 0.0
980, -0.1282051282051282, -0.851037851037851, 2.5164835164835164, -0.4375, 0.0, 0.1875, 0.0
981, -0.2893772893772894, -0.7765567765567766, 2.336996336996337, -0.34375, 0.0625, 0.09375, 0.0
982, -0.7094017094017094, -0.6703296703296703, 1.713064713064713, -0.40625, 0.28125, 0.03125, 0.0
983, -0.463980463980464, -0.8156288156288156, 1.6593406593406594, -0.34375, 0.3125, 0.03125, 0.0
984, -0.20024420024420025, -0.5958485958485958, 2.0598290598290596, -0.21875, 0.1875, 0.03125, 0.0
985, -0.2686202686202686, -0.37606837606837606, 1.9731379731379732, 0.0, 0.0625, 0.09375, 0.0
986, -0.5995115995115995, -0.9792429792429792, 0.9047619047619048, 0.0625, 0.0625, 0.03125, 0.0
987, -0.5335775335775336, -0.8998778998778999, 1.2185592185592184, -0.09375, 0.21875, 0.0, 0.0
988, -0.18437118437118438, -0.27106227106227104, 2.103785103785104, -0.03125, 0.21875, 0.0625, 0.0
989, -0.026862026862026864, -0.1916971916971917, 1.5054945054945055, 0.46875, -0.125, 0.15625, 0.0
990, -0.315018315018315, -0.9719169719169719, 0.557997557997558, 0.96875, -0.5625, 0.34375, 1.0
991, -0.6654456654456654, -1.884004884004884, -0.36752136752136755, 0.8125, -0.59375, 0.21875, 1.0
992, -0.42857142857142855, -1.6349206349206349, -0.7509157509157509, 0.0, 0.0625, 0.0, 1.0
993, 0.01221001221001221, -1.006105006105006, 0.06593406593406594, -0.75, 0.65625, -0.125, 1.0
994, 0.23321123321123322, -1.0879120879120878, 1.5763125763125763, -0.78125, 0.40625, -0.0625, 1.0
995, -0.057387057387057384, -1.5164835164835164, 1.722832722832723, -0.5, -0.09375, 0.03125, 1.0
996, -0.3199023199023199, -1.673992673992674, 1.5567765567765568, -0.53125, -0.1875, 0.0, 1.0
997, 0.10012210012210013, -1.667887667887668, 2.1648351648351647, -0.65625, 0.15625, -0.0625, 1.0
998, 0.36752136752136755, -1.3919413919413919, 2.9316239316239314, -0.625, 0.40625, -0.125, 1.0
999, 0.4053724053724054, -1.6251526251526252, 3.335775335775336, -0.1875, 0.0625, -0.125, 1.0
1000, -0.27228327228327226, -2.1343101343101343, 2.8253968253968256, 0.03125, -0.25, -0.15625, 1.0
1001, -0.34554334554334554, -1.9438339438339438, 3.0073260073260073, -0.0625, -0.1875, -0.0625, 1.0
1002, -0.09157509157509157, -1.2576312576312576, 4.078144078144078, -0.125, -0.03125, -0.09375, 1.0
1003, -0.3137973137973138, -0.8070818070818071, 5.078144078144078, 0.5625, -0.09375, -0.15625, 1.0
1004, -0.6935286935286935, -1.6288156288156288, 4.42979242979243, 0.875, -0.03125, -0.1875, 1.0
1005, -0.37606837606837606, -2.15995115995116, 3.4725274725274726, 0.46875, -0.125, -0.09375, 1.0
1006, -0.8925518925518926, -0.673992673992674, 3.84981684981685, 0.375, -0.15625, -0.03125, 1.0
1007, -1.1623931623931625, 0.3553113553113553, 5.135531135531136, 1.125, 0.03125, -0.03125, 1.0
1008, -1.8717948717948718, -0.1562881562881563, 3.888888888888889, 1.71875, 0.59375, 0.0625, 1.0
1009, -0.5433455433455433, -1.894993894993895, 1.8388278388278387, 1.40625, 0.5625, 0.21875, 1.0
1010, -0.21978021978021978, -2.5274725274725274, 0.7545787545787546, 0.625, 0.125, 0.28125, 1.0
1011, -0.8766788766788767, -0.851037851037851, 1.321123321123321, 0.90625, 0.28125, 0.3125, 1.0
1012, -0.10256410256410256, -0.46764346764346765, 0.7155067155067155, 1.71875, 0.46875, 0.40625, 1.0
1013, 1.0488400488400489, -1.8021978021978022, -1.8095238095238095, 1.53125, -0.0625, 0.375, 1.0
1014, -0.14163614163614163, -2.452991452991453, -3.7716727716727716, 0.5, -0.1875, 0.09375, 1.0
1015, -2.1941391941391943, 0.7912087912087912, -2.9157509157509156, 0.5625, 0.46875, 0.1875, 1.0
1016, -1.8327228327228327, 2.542124542124542, -1.4884004884004884, 1.4375, 0.84375, 0.375, 1.0
1017, 0.4261294261294261, 0.5665445665445665, -2.967032967032967, 1.65625, 0.40625, 0.40625, 1.0
1018, 1.3296703296703296, -2.001221001221001, -5.317460317460317, 0.90625, -0.15625, 0.3125, 1.0
1019, -0.221001221001221, -1.431013431013431, -6.054945054945055, 0.5, 0.0, 0.25, 1.0
1020, 0.34798534798534797, -0.2600732600732601, -5.212454212454213, 0.65625, 0.1875, 0.28125, 1.0
1021, 1.8217338217338217, -0.2844932844932845, -4.719169719169719, 0.84375, -0.15625, 0.125, 1.0
1022, 1.4896214896214897, -1.1001221001221002, -5.3418803418803416, 0.75, -0.375, -0.09375, 1.0
1023, -0.2515262515262515, -0.7277167277167277, -6.643467643467644, 0.46875, -0.125, -0.21875, 1.0
1024, -0.8803418803418803, 0.1221001221001221, -6.083028083028083, 0.375, 0.0625, -0.0625, 1.0
1025, -0.3504273504273504, 0.18437118437118438, -4.406593406593407, 0.46875, 0.1875, 0.09375, 1.0
1026, 0.8827838827838828, -0.6483516483516484, -3.04029304029304, 0.28125, 0.15625, -0.0625, 1.0
1027, 0.2490842490842491, -0.09035409035409035, -1.9120879120879122, 0.09375, -0.125, -0.1875, 1.0
1028, -1.1135531135531136, 0.2796092796092796, -1.3003663003663004, 0.0, -0.21875, -0.15625, 1.0
1029, -1.164835164835165, 0.002442002442002442, -1.2673992673992673, 0.15625, 0.03125, 0.0, 1.0
1030, -0.14774114774114774, -0.4542124542124542, -2.021978021978022, 0.1875, 0.21875, 0.09375, 0.0
1031, -0.19658119658119658, -1.0402930402930404, -3.3516483516483517, -0.25, -0.09375, 0.125, 0.0
1032, -0.9377289377289377, -0.19658119658119658, -3.31013431013431, -0.78125, -0.15625, 0.0, 0.0
1033, -0.9023199023199023, 0.4261294261294261, -2.993894993894994, -0.5625, 0.15625, -0.03125, 0.0
1034, -0.15995115995115994, 0.1855921855921856, -3.0085470085470085, -0.25, 0.3125, 0.0, 0.0
1035, -0.27472527472527475, 0.045177045177045176, -3.722832722832723, -0.0625, 0.3125, 0.0, 0.0
1036, -0.27594627594627597, -0.463980463980464, -4.8107448107448105, -0.15625, 0.28125, 0.0625, 0.0
1037, 0.17094017094017094, -0.3540903540903541, -4.827838827838828, -0.46875, 0.1875, 0.03125, 0.0
1038, 0.2576312576312576, 0.03296703296703297, -4.294261294261294, -0.59375, 0.0, 0.0, 0.0
1039, 0.14041514041514042, -0.08180708180708181, -4.181929181929182, -0.46875, 0.0, -0.03125, 0.0
1040, -0.08058608058608059, -0.4126984126984127, -4.2002442002442, -0.21875, 0.0625, -0.03125, 0.0
1041, -0.47374847374847373, -1.1111111111111112, -4.827838827838828, -0.1875, 0.25, 0.0, 0.0
1042, 0.6263736263736264, -1.5006105006105006, -4.581196581196581, -0.59375, 0.53125, -0.03125, 0.0
1043, 0.9792429792429792, -1.315018315018315, -3.6398046398046398, -1.03125, 0.40625, -0.15625, 0.0
1044, 0.4896214896214896, -1.1782661782661783, -2.7545787545787546, -1.25, 0.125, -0.21875, 0.0
1045, 0.03296703296703297, -1.0622710622710623, -1.7802197802197801, -1.21875, 0.03125, -0.1875, 0.0
1046, 0.34798534798534797, -1.3382173382173381, -0.7521367521367521, -1.0625, 0.125, -0.03125, 0.0
1047, 1.15995115995116, -1.398046398046398, 0.11233211233211234, -0.90625, 0.15625, 0.0, 0.0
1048, 1.4847374847374848, -1.2857142857142858, 0.7057387057387058, -0.8125, -0.0625, -0.03125, 0.0
1049, 1.3516483516483517, -1.8363858363858363, 0.6593406593406593, -0.9375, -0.46875, -0.0625, 0.0
1050, 0.6996336996336996, -1.7411477411477412, 1.072039072039072, -1.25, -0.71875, -0.21875, 0.0
1051, 0.31135531135531136, -0.7826617826617827, 1.8315018315018314, -1.4375, -0.71875, -0.09375, 0.0
1052, 0.16361416361416362, -0.06593406593406594, 2.608058608058608, -1.0625, -0.625, -0.0625, 0.0
1053, -0.29304029304029305, -0.2454212454212454, 2.7838827838827838, -0.65625, -0.375, -0.03125, 0.0
1054, -0.1916971916971917, -0.5335775335775336, 2.687423687423687, -0.3125, -0.0625, -0.03125, 0.0
1055, 0.45054945054945056, -0.8363858363858364, 2.492063492063492, -0.125, -0.21875, -0.03125, 0.0
1056, 0.7081807081807082, -1.4603174603174602, 1.7545787545787546, -0.4375, -0.625, 0.0, 0.0
1057, 0.29914529914529914, -1.3186813186813187, 1.5018315018315018, -0.90625, -0.84375, 0.0625, 0.0
1058, -0.006105006105006105, -0.8620268620268621, 2.2356532356532357, -0.90625, -0.78125, 0.125, 0.0
1059, -0.48473748473748474, -0.8131868131868132, 2.4114774114774113, -0.53125, -0.46875, 0.125, 0.0
1060, -0.6361416361416361, -0.8656898656898657, 2.4590964590964592, -0.125, -0.03125, 0.1875, 0.0
1061, -0.2979242979242979, -0.6422466422466423, 2.724053724053724, 0.1875, 0.125, 0.28125, 0.0
1062, 0.115995115995116, -0.5873015873015873, 2.387057387057387, 0.3125, 0.125, 0.09375, 0.0
1063, -0.01098901098901099, -0.24175824175824176, 1.894993894993895, 0.125, 0.0, -0.03125, 0.0
1064, -0.663003663003663, -0.003663003663003663, 1.2527472527472527, 0.03125, -0.03125, 0.0, 0.0
1065, -1.6605616605616607, -0.45054945054945056, 0.36996336996337, -0.03125, 0.03125, 0.09375, 0.0
1066, -1.4175824175824177, -0.9010989010989011, 0.43101343101343104, -0.3125, 0.25, 0.25, 0.0
1067, -0.5152625152625152, -0.7765567765567766, 0.8778998778998779, -0.5625, 0.3125, 0.21875, 0.0
1068, -0.06227106227106227, -0.6654456654456654, 0.7350427350427351, -0.6875, 0.25, 0.1875, 0.0
1069, 0.199023199023199, -0.5409035409035409, 0.7692307692307693, -0.5625, 0.03125, 0.25, 0.0
1070, -0.18437118437118438, -0.5470085470085471, 0.8021978021978022, -0.40625, -0.0625, 0.28125, 0.0
1071, -0.5958485958485958, -0.8595848595848596, 0.33821733821733824, -0.53125, 0.125, 0.21875, 0.0
1072, -0.4652014652014652, -0.6947496947496947, 1.010989010989011, -0.6875, 0.4375, 0.21875, 0.0
1073, 0.31746031746031744, -0.8803418803418803, 1.9230769230769231, -0.71875, 0.34375, 0.25, 0.0
1074, 0.6532356532356532, -0.927960927960928, 2.3772893772893773, -0.53125, 0.0, 0.21875, 0.0
1075, 0.2893772893772894, -0.8852258852258852, 2.2161172161172162, -0.375, 0.0, 0.0625, 0.0
1076, 0.3064713064713065, -0.8168498168498168, 1.6825396825396826, -0.53125, 0.0625, -0.15625, 0.0
1077, -0.0757020757020757, -0.23443223443223443, 2.1465201465201464, -0.5, 0.0625, -0.09375, 0.0
1078, -0.0989010989010989, -0.2673992673992674, 2.5457875457875456, 0.0, -0.21875, 0.0625, 0.0
1079, 0.2026862026862027, -1.1294261294261294, 1.078144078144078, 0.28125, -0.375, 0.15625, 1.0
1080, -0.12942612942612944, -1.1306471306471306, 0.2222222222222222, -0.28125, -0.1875, -0.09375, 1.0
1081, -0.3076923076923077, -0.03663003663003663, 1.2905982905982907, -0.59375, 0.125, -0.1875, 1.0
1082, -0.6507936507936508, 0.1916971916971917, 1.507936507936508, -0.40625, 0.1875, -0.28125, 1.0
1083, -0.5177045177045178, -0.5531135531135531, 1.2136752136752136, -0.1875, 0.125, -0.21875, 1.0
1084, -0.15018315018315018, -1.010989010989011, 1.2087912087912087, -0.25, 0.03125, -0.03125, 1.0
1085, -0.4358974358974359, -1.2747252747252746, 1.021978021978022, -0.46875, 0.0, -0.0625, 1.0
1086, -0.31868131868131866, -0.9499389499389499, 1.4371184371184371, -0.59375, 0.15625, -0.0625, 1.0
1087, -0.07448107448107448, -0.63003663003663, 2.614163614163614, -0.3125, 0.0625, 0.0, 1.0
1088, -0.08669108669108669, -1.0634920634920635, 2.833943833943834, 0.0, -0.09375, 0.09375, 1.0
1089, -0.1684981684981685, -1.492063492063492, 2.5811965811965814, 0.09375, 0.0, 0.0625, 1.0
1090, -0.02197802197802198, -1.2857142857142858, 2.6166056166056166, 0.0, 0.28125, -0.0625, 1.0
1091, 0.29304029304029305, -1.4700854700854702, 3.32967032967033, 0.0, 0.3125, -0.09375, 1.0
1092, 0.7619047619047619, -1.098901098901099, 4.074481074481074, 0.125, 0.0, -0.03125, 1.0
1093, 0.21367521367521367, -0.7887667887667887, 3.675213675213675, 0.375, -0.03125, -0.09375, 1.0
1094, 0.3797313797313797, -1.1575091575091576, 2.9194139194139193, 0.4375, 0.15625, -0.09375, 1.0
1095, -0.2503052503052503, -1.442002442002442, 2.7191697191697193, 0.46875, -0.03125, -0.15625, 1.0
1096, -0.8583638583638583, -1.4407814407814408, 2.9633699633699635, 0.5625, -0.34375, -0.0625, 1.0
1097, -1.0537240537240538, -0.9304029304029304, 2.6715506715506714, 0.625, 0.0, -0.03125, 1.0
1098, -0.2771672771672772, -0.757020757020757, 2.241758241758242, 0.625, 0.5, 0.03125, 1.0
1099, -0.12454212454212454, -0.5518925518925519, 2.503052503052503, 0.6875, 0.46875, 0.15625, 1.0
1100, -0.7997557997557998, -0.463980463980464, 2.6214896214896215, 1.1875, 0.59375, 0.1875, 1.0
1101, -0.6202686202686203, -0.11843711843711843, 1.7094017094017093, 1.375, 0.875, 0.3125, 1.0
1102, 0.42246642246642246, -0.6886446886446886, 0.3601953601953602, 0.90625, 0.6875, 0.5, 1.0
1103, 1.0134310134310134, -0.4835164835164835, 0.4603174603174603, 0.59375, 0.15625, 0.65625, 1.0
1104, 0.6398046398046398, -0.1391941391941392, 0.46642246642246643, 0.84375, 0.0625, 0.5625, 1.0
1105, 0.1794871794871795, -0.20512820512820512, -0.4004884004884005, 1.15625, 0.28125, 0.34375, 1.0
1106, 0.21367521367521367, -1.1489621489621489, -2.1526251526251525, 1.09375, 0.40625, 0.15625, 1.0
1107, 0.7057387057387058, -1.7374847374847375, -3.0671550671550674, 0.5625, 0.3125, 0.1875, 1.0
1108, 1.3467643467643469, -0.5213675213675214, -3.0598290598290596, 0.3125, -0.34375, 0.125, 1.0
1109, -0.6471306471306472, 0.4297924297924298, -3.711843711843712, 0.375, -0.375, 0.03125, 1.0
1110, -1.0122100122100122, -0.13186813186813187, -4.686202686202686, 0.5625, 0.28125, 0.0625, 1.0
1111, 0.8217338217338217, -1.122100122100122, -4.317460317460317, 0.375, 0.375, 0.03125, 1.0
1112, 1.5274725274725274, -0.21978021978021978, -3.8705738705738706, 0.28125, -0.0625, -0.0625, 1.0
1113, 0.16117216117216118, 1.1538461538461537, -3.8937728937728937, 0.625, -0.28125, 0.0, 1.0
1114, -0.9340659340659341, 0.7704517704517705, -3.9462759462759465, 0.96875, -0.125, 0.125, 1.0
1115, -0.23931623931623933, -0.9035409035409036, -4.374847374847374, 0.8125, 0.28125, 0.125, 1.0
1116, 1.8632478632478633, -1.2967032967032968, -5.063492063492063, 0.4375, 0.0625, -0.0625, 1.0
1117, 1.2295482295482296, -0.6117216117216118, -4.763125763125763, 0.25, -0.4375, -0.375, 1.0
1118, -1.0634920634920635, 0.3540903540903541, -3.855921855921856, 0.375, -0.1875, -0.25, 1.0
1119, -0.8827838827838828, 0.7667887667887668, -2.9633699633699635, 0.53125, 0.03125, -0.0625, 1.0
1120, -0.4249084249084249, 0.2673992673992674, -3.0268620268620268, 0.25, -0.1875, -0.03125, 0.0
1121, -1.5995115995115996, 0.6117216117216118, -3.137973137973138, -0.0625, -0.125, 0.0, 0.0
1122, -1.3418803418803418, -0.18315018315018314, -3.0024420024420024, -0.40625, 0.1875, 0.125, 0.0
1123, -0.2771672771672772, -0.1343101343101343, -2.468864468864469, -0.21875, 0.28125, 0.125, 0.0
1124, 0.09401709401709402, -0.07692307692307693, -2.3076923076923075, 0.15625, 0.1875, 0.03125, 0.0
1125, 0.0757020757020757, -0.4725274725274725, -3.3504273504273505, -0.125, 0.09375, -0.09375, 0.0
1126, -0.3528693528693529, 0.13186813186813187, -3.557997557997558, -0.375, 0.0625, -0.0625, 0.0
1127, -0.27472527472527475, 0.4017094017094017, -3.57997557997558, -0.3125, 0.0625, -0.03125, 0.0
1128, -0.3785103785103785, 0.22466422466422467, -3.95970695970696, 0.0, 0.09375, 0.0, 0.0
1129, -0.6068376068376068, -0.2258852258852259, -4.557997557997558, 0.0625, 0.1875, 0.09375, 0.0
1130, -0.326007326007326, -0.7582417582417582, -4.9914529914529915, -0.21875, 0.40625, 0.0, 0.0
1131, 0.5225885225885226, -0.800976800976801, -4.5054945054945055, -0.71875, 0.53125, 0.0, 0.0
1132, 1.199023199023199, -0.9291819291819292, -3.636141636141636, -0.9375, 0.25, 0.0, 0.0
1133, 0.4554334554334554, -0.8644688644688645, -3.3614163614163615, -0.8125, -0.0625, -0.09375, 0.0
1134, -0.608058608058608, -0.7301587301587301, -3.1526251526251525, -0.625, 0.0, -0.03125, 0.0
1135, 0.1221001221001221, -1.4212454212454213, -2.52991452991453, -0.59375, 0.375, 0.0, 0.0
1136, 0.7557997557997558, -1.778998778998779, -1.6971916971916972, -0.8125, 0.5, -0.03125, 0.0
1137, 1.2026862026862026, -1.557997557997558, -0.6312576312576312, -1.0625, 0.25, 0.0, 0.0
1138, 1.177045177045177, -1.2356532356532357, 0.4188034188034188, -1.09375, -0.25, 0.0, 0.0
1139, 0.2515262515262515, -0.8058608058608059, 1.0586080586080586, -0.96875, -0.75, 0.0, 0.0
1140, 0.06349206349206349, -1.192918192918193, 1.1404151404151404, -0.8125, -0.625, 0.0, 0.0
1141, -0.07081807081807082, -0.9523809523809523, 1.4603174603174602, -0.78125, -0.21875, -0.09375, 0.0
1142, -0.10500610500610501, -0.3308913308913309, 1.989010989010989, -0.8125, 0.09375, -0.125, 0.0
1143, -0.057387057387057384, -0.34798534798534797, 2.197802197802198, -0.78125, 0.0625, -0.09375, 0.0
1144, -0.2686202686202686, -0.4297924297924298, 2.4297924297924296, -0.75, -0.15625, 0.0, 0.0
1145, 0.12332112332112333, -0.9511599511599511, 2.1855921855921854, -0.71875, -0.3125, 0.0625, 0.0
1146, -0.14774114774114774, -1.0976800976800978, 1.5384615384615385, -0.84375, -0.25, 0.0625, 0.0
1147, -0.05616605616605617, -0.989010989010989, 1.735042735042735, -1.03125, -0.09375, 0.09375, 0.0
1148, -0.09157509157509157, -0.5470085470085471, 2.098901098901099, -0.9375, -0.09375, 0.0625, 0.0
1149, -0.6031746031746031, 0.08547008547008547, 1.5494505494505495, -0.3125, -0.03125, 0.0625, 0.0
1150, -0.6959706959706959, 0.4261294261294261, 0.9560439560439561, 0.09375, 0.0625, 0.15625, 0.0
1151, 0.442002442002442, -0.645909645909646, 0.9010989010989011, -0.25, 0.21875, 0.0, 0.0
1152, -0.2148962148962149, -0.6678876678876678, 1.1782661782661783, -0.6875, 0.40625, -0.03125, 0.0
1153, -0.3956043956043956, -0.38705738705738707, 1.9194139194139195, -0.5625, 0.28125, 0.125, 0.0
1154, -0.20146520146520147, -0.43345543345543347, 1.879120879120879, -0.34375, -0.0625, 0.25, 0.0
1155, 0.18192918192918192, -0.9536019536019537, 1.170940170940171, -0.40625, -0.34375, 0.3125, 0.0
1156, 0.34554334554334554, -1.6092796092796093, 0.6800976800976801, -0.84375, -0.3125, 0.28125, 0.0
1157, 0.5103785103785103, -1.3956043956043955, 1.5213675213675213, -0.9375, -0.21875, 0.21875, 0.0
1158, 0.4053724053724054, -0.9523809523809523, 2.2783882783882783, -0.65625, -0.21875, 0.1875, 0.0
1159, 0.02564102564102564, -0.5641025641025641, 1.5421245421245422, -0.375, -0.15625, 0.125, 0.0
1160, -0.08547008547008547, -1.1807081807081807, 0.833943833943834, -0.40625, -0.0625, 0.0, 0.0
1161, -0.4249084249084249, -1.5189255189255189, 0.7094017094017094, -0.6875, -0.03125, -0.03125, 0.0
1162, -0.4444444444444444, -1.47985347985348, 1.4407814407814408, -0.8125, -0.125, 0.125, 0.0
1163, -0.16361416361416362, -0.7301587301587301, 2.1684981684981683, -0.5625, -0.1875, 0.09375, 0.0
1164, -1.05006105006105, -0.02564102564102564, 1.722832722832723, -0.21875, 0.09375, 0.0625, 0.0
1165, -0.8021978021978022, -0.304029304029304, 1.4505494505494505, -0.15625, 0.375, 0.0, 0.0
1166, -0.199023199023199, -1.1416361416361416, 1.3137973137973138, -0.3125, 0.28125, 0.0, 0.0
1167, -0.221001221001221, -0.9694749694749695, 1.2661782661782661, -0.46875, 0.125, 0.0, 0.0
1168, -0.37606837606837606, -0.1514041514041514, 1.9157509157509158, -0.09375, 0.0625, 0.0625, 0.0
1169, 0.2503052503052503, -0.13675213675213677, 2.413919413919414, 0.3125, 0.0, 0.0, 1.0
1170, 0.6031746031746031, -1.4285714285714286, 1.5775335775335775, 0.25, -0.1875, -0.09375, 1.0
1171, -0.017094017094017096, -0.9426129426129426, 1.5897435897435896, 0.125, -0.15625, -0.0625, 1.0
1172, -0.3492063492063492, -0.568986568986569, 1.7094017094017093, -0.25, 0.09375, -0.09375, 1.0
1173, -0.33577533577533575, -0.39438339438339437, 1.4993894993894994, -0.71875, 0.3125, -0.09375, 1.0
1174, -0.026862026862026864, -0.21733821733821734, 2.7985347985347984, -0.5625, 0.1875, -0.09375, 1.0
1175, 0.0, -0.8473748473748474, 2.8547008547008548, -0.1875, -0.03125, -0.03125, 1.0
1176, 0.03540903540903541, -1.3186813186813187, 2.8253968253968256, -0.125, 0.0, -0.0625, 1.0
1177, 0.12332112332112333, -1.1782661782661783, 3.1013431013431014, -0.03125, 0.09375, -0.09375, 1.0
1178, 0.031746031746031744, -1.5372405372405373, 2.971916971916972, 0.1875, -0.03125, -0.0625, 1.0
1179, -0.4603174603174603, -1.525030525030525, 2.617826617826618, 0.21875, 0.0625, -0.1875, 1.0
1180, 0.3052503052503053, -0.9975579975579976, 3.0952380952380953, 0.25, 0.40625, -0.1875, 1.0
1181, 1.326007326007326, -1.192918192918193, 3.7655677655677655, 0.28125, 0.125, -0.15625, 1.0
1182, -0.1978021978021978, -1.2783882783882783, 3.6666666666666665, 0.375, -0.5625, -0.15625, 1.0
1183, -1.728937728937729, -0.7875457875457875, 2.758241758241758, 0.625, -0.1875, -0.21875, 1.0
1184, -0.8974358974358975, -0.6031746031746031, 1.9523809523809523, 0.75, 0.65625, -0.28125, 1.0
1185, 0.4945054945054945, -0.3431013431013431, 2.4884004884004884, 0.71875, 0.46875, -0.15625, 1.0
1186, -0.9975579975579976, -0.3785103785103785, 2.2332112332112333, 0.8125, -0.3125, -0.0625, 1.0
1187, -2.1709401709401708, -0.6239316239316239, 1.10989010989011, 0.90625, -0.125, 0.0, 1.0
1188, -1.315018315018315, -1.2417582417582418, 0.4884004884004884, 0.96875, 0.625, 0.0, 1.0
1189, 0.34798534798534797, -1.376068376068376, 0.8791208791208791, 0.75, 0.8125, 0.15625, 1.0
1190, 0.08058608058608059, -0.6288156288156288, 1.7594627594627594, 0.84375, 0.34375, 0.28125, 1.0
1191, -0.47741147741147744, -0.16483516483516483, 0.6324786324786325, 1.1875, 0.5625, 0.28125, 1.0
1192, 0.41147741147741146, -1.3797313797313797, -0.9536019536019537, 1.03125, 0.8125, 0.34375, 1.0
1193, 0.16117216117216118, -1.291819291819292, -1.5128205128205128, 0.53125, 0.4375, 0.375, 1.0
1194, -0.4590964590964591, 0.09035409035409035, -0.6862026862026862, 0.59375, 0.34375, 0.40625, 1.0
1195, 1.5299145299145298, -0.336996336996337, -0.7704517704517705, 0.90625, 0.5, 0.4375, 1.0
1196, 1.2405372405372406, -0.7704517704517705, -2.498168498168498, 0.53125, -0.28125, 0.21875, 1.0
1197, -2.1855921855921854, 0.557997557997558, -3.653235653235653, 0.15625, -0.59375, 0.1875, 1.0
1198, -1.9682539682539681, 0.7264957264957265, -3.001221001221001, 0.34375, 0.25, 0.375, 1.0
1199, 0.6862026862026862, -0.16727716727716727, -2.642246642246642, 0.4375, 0.03125, 0.40625, 1.0
1200, 0.5347985347985348, -0.05128205128205128, -3.6324786324786325, 0.46875, -0.1875, 0.5625, 1.0
1201, -0.33943833943833945, -0.23076923076923078, -4.247863247863248, 0.5625, 0.15625, 0.5, 1.0
1202, 0.5470085470085471, -0.3992673992673993, -4.1611721611721615, 0.625, 0.53125, 0.40625, 1.0
1203, 2.496947496947497, -0.8632478632478633, -4.003663003663004, 0.46875, 0.1875, 0.125, 1.0
1204, 1.7545787545787546, -0.20512820512820512, -3.6910866910866913, 0.28125, -0.46875, -0.09375, 1.0
1205, -1.1782661782661783, 0.7387057387057387, -3.3345543345543347, 0.4375, -0.375, -0.03125, 1.0
1206, -2.4188034188034186, 0.8498168498168498, -3.9804639804639805, 0.625, 0.4375, 0.09375, 1.0
1207, -0.06349206349206349, 0.14896214896214896, -3.948717948717949, 0.4375, 0.5, 0.125, 1.0
1208, 0.8803418803418803, -0.4456654456654457, -3.286935286935287, 0.0, -0.21875, 0.03125, 1.0
1209, -0.873015873015873, -0.13064713064713065, -2.84004884004884, -0.1875, -0.125, 0.0625, 1.0
1210, -0.5042735042735043, -0.14041514041514042, -2.761904761904762, -0.25, 0.15625, 0.15625, 0.0
1211, 0.2515262515262515, -0.17826617826617827, -2.5128205128205128, -0.28125, 0.09375, 0.125, 0.0
1212, 0.21245421245421245, -0.2515262515262515, -2.8742368742368742, -0.375, -0.03125, -0.03125, 0.0
1213, -0.7802197802197802, 0.5714285714285714, -3.277167277167277, -0.28125, 0.0625, -0.09375, 0.0
1214, -1.2661782661782661, 1.1416361416361416, -3.214896214896215, 0.0, 0.21875, 0.0, 0.0
1215, -0.8925518925518926, 0.32967032967032966, -3.595848595848596, 0.03125, 0.3125, 0.09375, 0.0
1216, -0.48473748473748474, -0.13553113553113552, -4.115995115995116, -0.0625, 0.40625, 0.15625, 0.0
1217, 0.5592185592185592, -0.5457875457875457, -4.343101343101343, -0.1875, 0.3125, 0.09375, 0.0
1218, 1.321123321123321, -0.9096459096459096, -4.041514041514041, -0.34375, -0.09375, -0.0625, 0.0
1219, 0.851037851037851, -0.5775335775335775, -3.6398046398046398, -0.25, -0.28125, -0.09375, 0.0
1220, 0.3968253968253968, -0.47374847374847373, -3.785103785103785, -0.09375, -0.125, -0.0625, 0.0
1221, 0.1794871794871795, -1.1318681318681318, -3.7667887667887667, -0.21875, 0.0625, -0.09375, 0.0
1222, 0.5042735042735043, -1.3113553113553114, -3.2014652014652016, -0.46875, 0.15625, -0.21875, 0.0
1223, 0.5775335775335775, -0.9267399267399268, -1.9902319902319903, -0.46875, 0.0625, -0.21875, 0.0
1224, 0.17704517704517705, -1.3663003663003663, -1.7142857142857142, -0.34375, -0.03125, -0.1875, 0.0
1225, -0.11843711843711843, -1.2991452991452992, -1.5531135531135531, -0.5, -0.03125, -0.125, 0.0
1226, -0.001221001221001221, -0.7484737484737485, -0.6862026862026862, -0.75, 0.0, -0.1875, 0.0
1227, 0.029304029304029304, -0.2673992673992674, 0.4236874236874237, -0.75, -0.15625, -0.15625, 0.0
1228, 0.24175824175824176, -0.5494505494505495, 1.0390720390720392, -0.5625, -0.46875, -0.0625, 0.0
1229, -0.11965811965811966, -0.5262515262515263, 1.15018315018315, -0.4375, -0.625, 0.0, 0.0
1230, 0.2515262515262515, -0.5811965811965812, 0.6568986568986569, -0.5, -0.53125, 0.0, 0.0
1231, 0.01221001221001221, -0.21733821733821734, 0.8205128205128205, -0.71875, -0.375, -0.21875, 0.0
1232, -0.16605616605616605, 0.1746031746031746, 1.5873015873015872, -0.78125, -0.21875, -0.21875, 0.0
1233, -0.34798534798534797, 0.14163614163614163, 1.9975579975579976, -0.6875, -0.1875, -0.15625, 0.0
1234, -0.4249084249084249, -0.20024420024420025, 1.347985347985348, -0.71875, -0.15625, -0.0625, 0.0
1235, 0.41025641025641024, -0.6703296703296703, 1.0927960927960927, -0.90625, -0.09375, 0.0625, 0.0
1236, 0.4517704517704518, -0.398046398046398, 1.3553113553113554, -0.90625, -0.34375, 0.03125, 0.0
1237, -0.20024420024420025, -0.13553113553113552, 1.4444444444444444, -0.6875, -0.625, 0.0625, 0.0
1238, -0.35653235653235654, -0.0989010989010989, 1.225885225885226, -0.5625, -0.53125, 0.09375, 0.0
