timestamp, accX, accY, accZ, gyroX, gyroY, gyroZ, button
1374, -0.050061050061050064, -0.3235653235653236, 0.2503052503052503, -0.25, -0.0625, -0.15625, 0.0
1375, 0.42002442002442003, -0.05372405372405373, 0.5787545787545788, -0.25, 0.46875, -0.21875, 0.0
1376, 1.0158730158730158, -0.3235653235653236, 0.7936507936507936, -0.25, 0.34375, -0.03125, 0.0
1377, 0.3992673992673993, -0.6275946275946276, 1.120879120879121, -0.25, -0.0625, -0.09375, 0.0
1, -0.8315018315018315, -0.8095238095238095, 1.1391941391941391, -0.21875, -0.09375, -0.15625, 0.0
2, -1.435897435897436, -0.3968253968253968, 1.0683760683760684, -0.15625, 0.09375, -0.125, 0.0
3, -0.7838827838827839, -0.9987789987789988, 0.36507936507936506, -0.09375, 0.125, -0.03125, 0.0
4, -0.9584859584859585, -1.4676434676434675, 0.20024420024420025, 0.0, -0.09375, 0.0625, 0.0
5, -0.20512820512820512, -1.2026862026862026, -0.3199023199023199, 0.21875, -0.0625, 0.03125, 0.0
6, 0.4627594627594628, -0.4175824175824176, -0.9694749694749695, 0.34375, -0.21875, -0.03125, 0.0
7, -0.12454212454212454, 0.17826617826617827, -1.137973137973138, 0.3125, -0.15625, -0.09375, 0.0
8, -0.10256410256410256, -0.78998778998779, -0.8937728937728938, 0.03125, 0.25, -0.09375, 0.0
9, -0.514041514041514, -0.9853479853479854, -0.10744810744810745, -0.375, 0.5625, -0.0625, 0.0
10, -1.010989010989011, -0.18681318681318682, 0.31868131868131866, -0.3125, 0.65625, -0.09375, 0.0
11, -0.7594627594627594, 0.26495726495726496, 0.06227106227106227, -0.15625, 0.5625, -0.03125, 0.0
12, -0.24175824175824176, 0.32112332112332115, 0.12454212454212454, -0.1875, 0.375, 0.09375, 0.0
13, -0.14774114774114774, -0.07326007326007326, 0.08669108669108669, -0.375, 0.34375, 0.1875, 0.0
14, 0.525030525030525, -0.518925518925519, -0.16605616605616605, -0.53125, 0.46875, 0.1875, 0.0
15, 0.3089133089133089, 0.9597069597069597, 0.3626373626373626, -0.375, 0.84375, 0.03125, 0.0
16, 0.5934065934065934, 1.3943833943833943, 0.702075702075702, -0.15625, 0.9375, 0.0, 0.0
17, 0.47985347985347987, 1.2967032967032968, 0.46642246642246643, 0.125, 0.84375, 0.03125, 0.0
18, 0.5274725274725275, 0.6959706959706959, -0.05616605616605617, 0.28125, 0.6875, 0.09375, 0.0
19, 0.6617826617826618, 0.07814407814407814, -0.5335775335775336, 0.375, 0.625, 0.0625, 0.0
20, 0.36385836385836384, -0.14896214896214896, -0.7802197802197802, 0.34375, 0.71875, 0.0, 0.0
21, 0.16483516483516483, -0.336996336996337, -0.8302808302808303, 0.25, 0.875, -0.03125, 0.0
22, 0.4822954822954823, -0.7167277167277167, -0.9462759462759462, 0.03125, 0.78125, 0.0, 0.0
23, 0.2588522588522589, -0.6874236874236874, -0.9267399267399268, -0.125, 0.625, -0.03125, 0.0
24, -0.06227106227106227, -0.8034188034188035, -0.717948717948718, -0.21875, 0.65625, -0.03125, 0.0
25, -0.14652014652014653, -0.7435897435897436, -0.4236874236874237, -0.25, 0.8125, -0.0625, 0.0
26, 0.2967032967032967, -1.1355311355311355, -0.36385836385836384, -0.1875, 0.8125, -0.125, 0.0
27, -0.07448107448107448, -1.2857142857142858, -0.6800976800976801, -0.125, 0.6875, -0.25, 0.0
28, -0.5164835164835165, -0.8205128205128205, -0.4590964590964591, -0.125, 0.78125, -0.3125, 0.0
29, -0.6410256410256411, -0.7326007326007326, -0.14285714285714285, -0.25, 0.875, -0.28125, 0.0
30, -0.4175824175824176, -0.45787545787545786, 0.5201465201465202, -0.375, 0.9375, -0.28125, 0.0
31, 0.11965811965811966, 0.4945054945054945, 0.8962148962148963, -0.25, 0.71875, -0.375, 0.0
32, 2.4224664224664223, 0.7936507936507936, 0.3968253968253968, -0.09375, -0.0625, -0.71875, 0.0
33, 1.0390720390720392, 0.8925518925518926, 0.08547008547008547, 0.0625, -0.6875, -1.09375, 0.0
34, -0.9365079365079365, 1.05006105006105, -0.23076923076923078, 0.15625, -0.53125, -1.3125, 0.0
35, -0.23687423687423687, 0.014652014652014652, -0.612942612942613, 0.0625, -0.1875, -1.25, 0.0
36, 0.12698412698412698, -0.36385836385836384, -0.34676434676434675, -0.0625, -0.46875, -1.3125, 0.0
37, -0.07936507936507936, -0.38095238095238093, 0.16483516483516483, -0.28125, -0.6875, -1.40625, 0.0
38, -1.0231990231990231, 0.1111111111111111, 0.5152625152625152, -0.375, -0.6875, -1.5, 0.0
39, -1.1367521367521367, 0.3308913308913309, 0.6984126984126984, -0.28125, -0.5625, -1.40625, 0.0
40, -1.2393162393162394, 0.21123321123321123, 0.7374847374847375, -0.15625, -0.5, -1.28125, 0.0
41, -0.9731379731379731, -0.12332112332112333, 0.7301587301587301, -0.09375, -0.46875, -1.125, 0.0
42, -0.9291819291819292, -0.4627594627594628, 0.6971916971916972, -0.09375, -0.53125, -0.9375, 0.0
43, -1.1721611721611722, -0.7448107448107448, 0.5738705738705738, -0.09375, -0.5625, -0.75, 0.0
44, -1.2307692307692308, -1.1233211233211233, 0.2869352869352869, -0.0625, -0.53125, -0.46875, 0.0
45, -1.0476190476190477, -1.2503052503052503, 0.19291819291819293, 0.0, -0.375, -0.25, 0.0
46, -0.14896214896214896, -1.6752136752136753, -0.020757020757020756, 0.03125, -0.21875, -0.03125, 0.0
47, 0.45787545787545786, -1.9267399267399268, -0.2967032967032967, 0.0625, -0.25, 0.09375, 0.0
48, 0.6581196581196581, -1.695970695970696, -0.42124542124542125, 0.0625, -0.21875, 0.15625, 0.0
49, 0.8156288156288156, -1.606837606837607, -0.326007326007326, 0.0625, 0.0, 0.125, 0.0
50, 0.8461538461538461, -1.2039072039072038, 0.29181929181929184, -0.03125, 0.1875, 0.09375, 0.0
51, 1.043956043956044, -0.8278388278388278, 0.9743589743589743, -0.15625, 0.28125, 0.09375, 0.0
52, 1.4236874236874237, -0.7045177045177046, 1.2173382173382172, -0.125, 0.25, 0.03125, 0.0
53, 1.5299145299145298, -0.7838827838827839, 1.0305250305250304, -0.0625, 0.03125, -0.09375, 0.0
54, 1.1123321123321124, -0.6568986568986569, 0.6800976800976801, -0.03125, -0.125, -0.28125, 0.0
55, 0.6898656898656899, -0.5042735042735043, 0.21123321123321123, -0.0625, -0.09375, -0.4375, 0.0
56, 0.8608058608058609, -0.6373626373626373, -0.1746031746031746, -0.125, -0.03125, -0.5, 0.0
57, 0.8131868131868132, -0.8302808302808303, -0.4932844932844933, -0.21875, -0.1875, -0.5625, 0.0
58, 0.5311355311355311, -0.8632478632478633, -0.9035409035409036, -0.25, -0.34375, -0.625, 0.0
59, 0.2039072039072039, -0.9645909645909646, -1.2759462759462759, -0.34375, -0.375, -0.59375, 0.0
60, 0.06715506715506715, -1.0903540903540903, -1.4236874236874237, -0.4375, -0.28125, -0.5625, 0.0
61, -0.14041514041514042, -0.9658119658119658, -1.2112332112332111, -0.53125, -0.125, -0.5, 0.0
62, -0.10866910866910867, -0.0231990231990232, 0.24297924297924298, -0.25, 0.25, 0.125, 0.0
63, 0.06349206349206349, -0.14896214896214896, 0.25518925518925517, -0.25, 0.375, 0.1875, 0.0
64, 0.42246642246642246, -0.4139194139194139, 0.1978021978021978, -0.3125, 0.34375, 0.15625, 0.0
65, 0.2039072039072039, -0.22344322344322345, 0.2869352869352869, -0.40625, 0.21875, 0.15625, 0.0
66, 0.013431013431013432, 0.003663003663003663, 0.29914529914529914, -0.40625, 0.25, 0.15625, 0.0
67, 0.08058608058608059, -0.028083028083028084, 0.35653235653235654, -0.34375, 0.28125, 0.1875, 0.0
68, 0.29304029304029305, -0.10500610500610501, 0.38095238095238093, -0.21875, 0.25, 0.1875, 0.0
69, 0.2686202686202686, -0.18681318681318682, 0.336996336996337, -0.09375, 0.125, 0.15625, 0.0
70, 0.14163614163614163, -0.199023199023199, 0.12698412698412698, -0.03125, 0.0, 0.125, 0.0
71, -0.08302808302808302, -0.05616605616605617, 0.013431013431013432, 0.0, -0.09375, 0.125, 0.0
72, -0.21245421245421245, -0.09401709401709402, -0.09035409035409035, 0.03125, -0.03125, 0.09375, 0.0
73, 0.05982905982905983, -0.21123321123321123, -0.2222222222222222, 0.0625, 0.0, 0.0625, 0.0
74, 0.020757020757020756, -0.115995115995116, -0.29304029304029305, 0.0, -0.03125, 0.03125, 0.0
75, -0.1623931623931624, 0.04395604395604396, -0.3089133089133089, 0.0, 0.0, 0.0625, 0.0
76, -0.18803418803418803, 0.0757020757020757, -0.2857142857142857, 0.0, 0.0625, 0.0625, 0.0
77, 0.030525030525030524, -0.08302808302808302, -0.398046398046398, 0.0, 0.0625, 0.09375, 0.0
78, 0.06593406593406594, -0.0695970695970696, -0.44932844932844934, -0.0625, 0.0, 0.09375, 0.0
79, -0.10866910866910867, 0.06593406593406594, -0.3956043956043956, -0.0625, 0.0, 0.09375, 0.0
80, -0.1794871794871795, -0.007326007326007326, -0.3540903540903541, -0.0625, 0.0625, 0.09375, 0.0
81, -0.10256410256410256, -0.08913308913308914, -0.3431013431013431, -0.09375, 0.09375, 0.09375, 0.0
82, -0.09157509157509157, -0.12942612942612944, -0.3247863247863248, -0.09375, 0.09375, 0.09375, 0.0
83, -0.11233211233211234, -0.05982905982905983, -0.20512820512820512, -0.125, 0.0625, 0.125, 0.0
84, 0.018315018315018316, -0.13186813186813187, -0.18803418803418803, -0.15625, 0.03125, 0.125, 0.0
85, 0.03785103785103785, -0.057387057387057384, -0.15873015873015872, -0.15625, 0.0, 0.125, 0.0
86, -0.03418803418803419, 0.0, -0.115995115995116, -0.125, 0.03125, 0.125, 0.0
87, -0.007326007326007326, -0.03785103785103785, -0.05860805860805861, -0.09375, 0.0625, 0.15625, 0.0
88, 0.08547008547008547, -0.08791208791208792, -0.06105006105006105, -0.125, 0.0625, 0.15625, 0.0
89, 0.17826617826617827, -0.15873015873015872, -0.08424908424908426, -0.15625, 0.0, 0.15625, 0.0
90, 0.042735042735042736, -0.04884004884004884, -0.007326007326007326, -0.15625, 0.0, 0.125, 0.0
91, -0.02442002442002442, -0.015873015873015872, 0.02197802197802198, -0.09375, 0.09375, 0.125, 0.0
92, 0.10256410256410256, -0.10378510378510379, 0.08547008547008547, -0.09375, 0.125, 0.125, 0.0
93, 0.10012210012210013, -0.06715506715506715, 0.0989010989010989, -0.09375, 0.0625, 0.125, 0.0
94, -0.04395604395604396, -0.013431013431013432, 0.08180708180708181, -0.09375, 0.0625, 0.125, 0.0
95, -0.03907203907203907, -0.017094017094017096, 0.05372405372405373, -0.0625, 0.09375, 0.125, 0.0
96, 0.008547008547008548, -0.042735042735042736, 0.008547008547008548, -0.0625, 0.125, 0.09375, 0.0
97, 0.02564102564102564, -0.029304029304029304, 0.002442002442002442, -0.0625, 0.09375, 0.09375, 0.0
98, -0.030525030525030524, -0.06715506715506715, 0.05860805860805861, -0.0625, 0.09375, 0.09375, 0.0
99, 0.019536019536019536, -0.0927960927960928, 0.09157509157509157, -0.09375, 0.09375, 0.0625, 0.0
100, -0.007326007326007326, -0.02442002442002442, 0.047619047619047616, -0.0625, 0.09375, 0.03125, 0.0
101, -0.05372405372405373, 0.004884004884004884, -0.017094017094017096, -0.03125, 0.09375, 0.03125, 0.0
102, -0.04151404151404151, -0.02442002442002442, -0.03540903540903541, 0.0, 0.09375, 0.0, 0.0
103, -0.07326007326007326, -0.040293040293040296, -0.10256410256410256, 0.0, 0.09375, 0.0, 0.0
104, -0.050061050061050064, -0.0231990231990232, -0.09035409035409035, -0.03125, 0.0625, 0.0, 0.0
105, -0.07081807081807082, -0.008547008547008548, -0.06593406593406594, -0.0625, 0.03125, 0.0, 0.0
106, -0.008547008547008548, -0.03418803418803419, -0.16361416361416362, -0.0625, 0.03125, 0.0, 0.0
107, -0.017094017094017096, -0.045177045177045176, -0.23076923076923078, -0.0625, 0.03125, 0.0, 0.0
108, -0.007326007326007326, -0.02564102564102564, -0.18925518925518925, -0.0625, 0.03125, 0.0, 0.0
109, -0.09645909645909646, 0.013431013431013432, -0.115995115995116, -0.0625, 0.0625, 0.0, 0.0
110, -0.002442002442002442, -0.09401709401709402, -0.1978021978021978, -0.0625, 0.0625, 0.0, 0.0
111, 0.0, -0.05616605616605617, -0.1794871794871795, -0.09375, 0.03125, 0.0, 0.0
112, -0.10866910866910867, 0.02197802197802198, -0.09401709401709402, -0.125, 0.0, 0.0, 0.0
113, -0.21001221001221002, 0.01098901098901099, -0.07936507936507936, -0.125, 0.0625, 0.0, 0.0
114, -0.04151404151404151, -0.017094017094017096, -0.018315018315018316, -0.09375, 0.125, 0.0, 0.0
115, 0.10134310134310134, -0.11477411477411477, -0.004884004884004884, -0.125, 0.09375, 0.03125, 0.0
116, 0.013431013431013432, -0.047619047619047616, 0.04151404151404151, -0.125, 0.0, 0.03125, 0.0
117, -0.040293040293040296, 0.0, 0.02564102564102564, -0.09375, 0.0, 0.03125, 0.0
118, 0.09401709401709402, -0.09035409035409035, 0.019536019536019536, -0.03125, 0.0625, 0.03125, 0.0
119, -0.001221001221001221, -0.06715506715506715, -0.01098901098901099, -0.03125, 0.03125, 0.0, 0.0
120, -0.18437118437118438, 0.040293040293040296, -0.015873015873015872, -0.03125, 0.03125, 0.0, 0.0
121, -0.0757020757020757, -0.009768009768009768, -0.013431013431013432, -0.03125, 0.09375, 0.03125, 0.0
122, 0.11965811965811966, -0.17582417582417584, -0.10866910866910867, -0.03125, 0.0625, 0.03125, 0.0
123, -0.01098901098901099, -0.026862026862026864, -0.12454212454212454, -0.09375, 0.0, 0.03125, 0.0
124, -0.08180708180708181, 0.06105006105006105, -0.14896214896214896, -0.03125, 0.03125, 0.03125, 0.0
125, 0.052503052503052504, -0.08791208791208792, -0.2222222222222222, -0.03125, 0.03125, 0.03125, 0.0
126, 0.054945054945054944, -0.08058608058608059, -0.17826617826617827, -0.0625, 0.0, 0.03125, 0.0
127, 0.015873015873015872, -0.04151404151404151, -0.17094017094017094, -0.0625, 0.0, 0.03125, 0.0
128, 0.045177045177045176, -0.047619047619047616, -0.13553113553113552, -0.09375, 0.0, 0.03125, 0.0
129, -0.002442002442002442, -0.02197802197802198, -0.13064713064713065, -0.0625, 0.0, 0.03125, 0.0
130, -0.018315018315018316, -0.018315018315018316, -0.0695970695970696, -0.0625, 0.0, 0.03125, 0.0
131, 0.08180708180708181, -0.09768009768009768, -0.054945054945054944, -0.0625, 0.0, 0.03125, 0.0
132, 0.02564102564102564, -0.03785103785103785, -0.007326007326007326, -0.09375, -0.03125, 0.0, 0.0
133, -0.08669108669108669, 0.01098901098901099, -0.009768009768009768, -0.09375, -0.03125, 0.0, 0.0
134, -0.015873015873015872, -0.019536019536019536, 0.020757020757020756, -0.0625, -0.03125, 0.03125, 0.0
135, -0.01221001221001221, -0.029304029304029304, -0.045177045177045176, -0.03125, -0.03125, 0.03125, 0.0
136, 0.031746031746031744, -0.03296703296703297, -0.057387057387057384, -0.03125, -0.03125, 0.03125, 0.0
137, 0.018315018315018316, -0.030525030525030524, -0.10866910866910867, -0.03125, -0.03125, 0.03125, 0.0
138, 0.006105006105006105, -0.057387057387057384, -0.052503052503052504, -0.03125, -0.03125, 0.03125, 0.0
139, -0.001221001221001221, -0.02564102564102564, -0.0927960927960928, -0.03125, 0.0, 0.03125, 0.0
140, -0.001221001221001221, -0.026862026862026864, -0.06471306471306472, -0.0625, 0.03125, 0.03125, 0.0
141, 0.015873015873015872, -0.028083028083028084, -0.03785103785103785, -0.09375, 0.03125, 0.03125, 0.0
142, -0.004884004884004884, -0.001221001221001221, 0.06349206349206349, -0.09375, 0.0, 0.03125, 0.0
143, 0.07814407814407814, -0.08424908424908426, 0.001221001221001221, -0.125, 0.0, 0.03125, 0.0
144, 0.0, -0.015873015873015872, 0.1111111111111111, -0.09375, -0.03125, 0.03125, 0.0
145, -0.009768009768009768, -0.013431013431013432, 0.015873015873015872, -0.0625, -0.03125, 0.03125, 0.0
146, -0.018315018315018316, -0.007326007326007326, 0.017094017094017096, 0.0, 0.0, 0.0, 0.0
147, -0.009768009768009768, 0.007326007326007326, 0.007326007326007326, 0.03125, 0.0, 0.03125, 0.0
148, 0.006105006105006105, 0.02564102564102564, 0.1794871794871795, 0.09375, 0.0, 0.0, 0.0
149, -0.042735042735042736, 0.028083028083028084, 0.14652014652014653, 0.1875, -0.0625, 0.0, 0.0
150, 0.03296703296703297, 0.001221001221001221, 0.04884004884004884, 0.25, -0.0625, 0.03125, 0.0
151, -0.017094017094017096, -0.03785103785103785, -0.1452991452991453, 0.21875, -0.03125, 0.03125, 0.0
152, 0.003663003663003663, -0.07692307692307693, -0.20634920634920634, 0.125, 0.03125, 0.03125, 0.0
153, 0.12576312576312576, -0.047619047619047616, -0.15506715506715507, 0.0625, 0.0625, 0.0, 0.0
154, 0.05982905982905983, 0.013431013431013432, -0.04884004884004884, 0.03125, 0.0, 0.0, 0.0
155, -0.05128205128205128, -0.06105006105006105, -0.18681318681318682, 0.0, -0.0625, 0.0, 0.0
156, -0.1391941391941392, 0.02197802197802198, -0.2967032967032967, -0.0625, 0.0, -0.03125, 0.0
157, -0.07936507936507936, 0.004884004884004884, -0.17216117216117216, -0.09375, 0.0625, 0.0, 0.0
158, -0.006105006105006105, -0.018315018315018316, -0.007326007326007326, -0.03125, 0.03125, 0.0, 0.0
159, -0.06471306471306472, 0.03540903540903541, 0.0927960927960928, 0.0, 0.0, 0.0, 0.0
160, -0.08302808302808302, -0.028083028083028084, -0.06593406593406594, 0.03125, 0.0, 0.0, 0.0
161, 0.02197802197802198, -0.12332112332112333, -0.0927960927960928, -0.03125, 0.03125, 0.0, 0.0
162, 0.004884004884004884, -0.04884004884004884, -0.040293040293040296, -0.1875, -0.03125, 0.03125, 0.0
163, -0.13064713064713065, 0.07081807081807082, 0.15384615384615385, -0.15625, -0.03125, 0.03125, 0.0
164, -0.026862026862026864, -0.003663003663003663, 0.01098901098901099, -0.0625, 0.03125, 0.0625, 0.0
165, 0.33577533577533575, -0.43956043956043955, -0.22832722832722832, -0.0625, 0.125, 0.09375, 0.0
166, 0.49694749694749696, -0.3833943833943834, -0.13064713064713065, -0.25, 0.03125, 0.0, 0.0
167, 0.09035409035409035, -0.1111111111111111, -0.03663003663003663, -0.40625, -0.15625, -0.03125, 0.0
168, -0.15873015873015872, -0.020757020757020756, -0.1111111111111111, -0.4375, -0.15625, 0.0, 0.0
169, -0.12942612942612944, 0.01098901098901099, -0.1391941391941392, -0.34375, 0.0, 0.03125, 0.0
170, 0.026862026862026864, -0.05982905982905983, 0.0463980463980464, -0.21875, 0.09375, 0.0625, 0.0
171, 0.23931623931623933, -0.21245421245421245, 0.10256410256410256, -0.15625, 0.09375, 0.0625, 0.0
172, 0.04395604395604396, -0.1221001221001221, 0.01098901098901099, -0.15625, -0.03125, 0.03125, 0.0
173, -0.09523809523809523, -0.057387057387057384, -0.02442002442002442, -0.125, 0.0, 0.0, 0.0
174, -0.06837606837606838, -0.042735042735042736, -0.002442002442002442, -0.125, 0.0, 0.03125, 0.0
175, 0.002442002442002442, -0.03540903540903541, 0.014652014652014652, -0.09375, 0.0, 0.03125, 0.0
176, -0.020757020757020756, -0.015873015873015872, 0.003663003663003663, 0.0, 0.0, 0.0, 0.0
177, -0.05982905982905983, 0.007326007326007326, 0.003663003663003663, 0.0, 0.0625, 0.0, 0.0
178, 0.07814407814407814, -0.12942612942612944, -0.031746031746031744, 0.0, 0.0625, 0.03125, 0.0
179, 0.1282051282051282, -0.05616605616605617, 0.04151404151404151, 0.0, 0.0, 0.0, 0.0
180, -0.02442002442002442, -0.018315018315018316, -0.03785103785103785, 0.0, 0.0, 0.0, 0.0
181, -0.06471306471306472, -0.13186813186813187, -0.16971916971916973, -0.03125, 0.03125, 0.0, 0.0
182, -0.07203907203907203, 0.02564102564102564, -0.13553113553113552, -0.03125, 0.0625, 0.0, 0.0
183, 0.04395604395604396, -0.02564102564102564, -0.10866910866910867, 0.0, 0.09375, 0.0, 0.0
184, 0.03907203907203907, -0.013431013431013432, -0.017094017094017096, 0.0625, 0.03125, 0.0, 0.0
185, -0.014652014652014652, 0.02564102564102564, -0.018315018315018316, 0.125, 0.03125, 0.0, 0.0
186, -0.10866910866910867, -0.10012210012210013, -0.2039072039072039, 0.09375, 0.09375, 0.0, 0.0
187, 0.0927960927960928, -0.10989010989010989, -0.12454212454212454, 0.03125, 0.0625, -0.03125, 0.0
188, 0.01098901098901099, -0.0695970695970696, -0.052503052503052504, -0.03125, 0.0, -0.0625, 0.0
189, -0.2588522588522589, 0.14407814407814407, 0.020757020757020756, 0.0, 0.09375, -0.03125, 0.0
190, -0.24175824175824176, 0.1343101343101343, 0.014652014652014652, 0.0625, 0.21875, -0.03125, 0.0
191, -0.05128205128205128, 0.0231990231990232, 0.14041514041514042, 0.125, 0.25, 0.0, 0.0
192, 0.09035409035409035, -0.16117216117216118, 0.03907203907203907, 0.0625, 0.15625, 0.0, 0.0
193, 0.221001221001221, -0.24297924297924298, -0.0757020757020757, -0.03125, -0.03125, 0.0, 0.0
194, -0.0695970695970696, 0.015873015873015872, -0.03907203907203907, -0.0625, -0.03125, 0.0, 0.0
195, -0.10012210012210013, 0.004884004884004884, -0.028083028083028084, 0.03125, 0.03125, 0.0, 0.0
196, -0.008547008547008548, -0.10622710622710622, -0.19658119658119658, 0.0, 0.09375, 0.0, 0.0
197, 0.050061050061050064, -0.16483516483516483, -0.16605616605616605, -0.09375, 0.03125, 0.0625, 0.0
198, -0.221001221001221, 0.10378510378510379, -0.0695970695970696, -0.03125, 0.09375, 0.09375, 0.0
199, 0.03907203907203907, -0.10256410256410256, -0.1391941391941392, 0.0, 0.21875, 0.03125, 0.0
200, 0.1343101343101343, -0.08791208791208792, -0.028083028083028084, -0.0625, 0.0625, 0.03125, 0.0
201, -0.1978021978021978, 0.09645909645909646, 0.013431013431013432, -0.125, -0.0625, 0.0, 0.0
202, -0.16117216117216118, 0.09035409035409035, 0.09768009768009768, 0.0, 0.0, 0.0, 0.0
203, -0.04395604395604396, -0.03785103785103785, -0.10012210012210013, 0.125, 0.15625, 0.0, 0.0
204, 0.17094017094017094, -0.21611721611721613, -0.09645909645909646, 0.09375, 0.1875, 0.0625, 0.0
205, -0.014652014652014652, -0.06593406593406594, -0.03663003663003663, -0.0625, 0.09375, 0.09375, 0.0
206, 0.03418803418803419, -0.05860805860805861, 0.07326007326007326, -0.125, 0.0625, 0.0625, 0.0
207, -0.0231990231990232, 0.014652014652014652, 0.057387057387057384, -0.15625, 0.0, 0.0625, 0.0
208, -0.003663003663003663, 0.01098901098901099, 0.1221001221001221, -0.0625, 0.0, 0.03125, 0.0
209, 0.028083028083028084, -0.06105006105006105, -0.03296703296703297, -0.03125, 0.0, 0.03125, 0.0
210, -0.0695970695970696, -0.03418803418803419, -0.11477411477411477, -0.09375, 0.0, 0.03125, 0.0
211, -0.026862026862026864, -0.03296703296703297, -0.12576312576312576, -0.09375, 0.0, 0.03125, 0.0
212, -0.001221001221001221, -0.04395604395604396, -0.10744810744810745, -0.09375, 0.03125, 0.0625, 0.0
213, 0.16971916971916973, -0.1684981684981685, -0.1916971916971917, -0.15625, 0.0, 0.09375, 0.0
214, -0.029304029304029304, 0.007326007326007326, -0.10622710622710622, -0.21875, -0.09375, 0.125, 0.0
215, -0.17094017094017094, 0.0, -0.15506715506715507, -0.125, -0.03125, 0.15625, 0.0
216, 0.045177045177045176, -0.16971916971916973, -0.15506715506715507, -0.0625, 0.0625, 0.09375, 0.0
217, 0.17094017094017094, -0.19413919413919414, -0.06471306471306472, -0.09375, 0.03125, 0.125, 0.0
218, 0.07081807081807082, -0.1746031746031746, -0.052503052503052504, -0.125, -0.0625, 0.09375, 0.0
219, -0.1452991452991453, -0.03785103785103785, -0.08180708180708181, -0.15625, -0.09375, 0.0625, 0.0
220, -0.06715506715506715, 0.0, 0.017094017094017096, -0.1875, 0.0, 0.09375, 0.0
221, 0.054945054945054944, 0.03785103785103785, 0.2783882783882784, -0.125, 0.0, 0.0625, 0.0
222, 0.02564102564102564, -0.004884004884004884, 0.26373626373626374, -0.09375, -0.03125, 0.03125, 0.0
223, 0.409035409035409, -0.29304029304029305, 0.1916971916971917, -0.15625, -0.15625, 0.03125, 0.0
224, 0.5372405372405372, -0.33577533577533575, 0.3882783882783883, -0.21875, -0.28125, 0.0, 0.0
225, 0.14774114774114774, -0.006105006105006105, 0.5653235653235653, -0.15625, -0.25, -0.03125, 0.0
226, -0.20024420024420025, 0.08547008547008547, 0.3443223443223443, 0.0, -0.0625, -0.03125, 0.0
227, 0.031746031746031744, -0.08302808302808302, 0.1855921855921856, 0.0, -0.03125, -0.03125, 0.0
228, 0.01098901098901099, -0.03418803418803419, 0.10866910866910867, 0.0, -0.125, -0.0625, 0.0
229, -0.31013431013431014, -0.03418803418803419, -0.1111111111111111, -0.03125, -0.125, -0.0625, 0.0
230, -0.25518925518925517, -0.07203907203907203, -0.2905982905982906, -0.15625, -0.03125, -0.03125, 0.0
231, -0.18925518925518925, -0.008547008547008548, -0.199023199023199, -0.28125, -0.03125, 0.0, 0.0
232, -0.35775335775335776, 0.19658119658119658, -0.07081807081807082, -0.15625, 0.0, 0.0, 0.0
233, -0.2148962148962149, 0.03663003663003663, -0.16483516483516483, -0.03125, 0.125, 0.0, 0.0
234, -0.03418803418803419, -0.14041514041514042, -0.32844932844932845, -0.0625, 0.125, 0.0, 0.0
235, 0.004884004884004884, -0.2148962148962149, -0.36507936507936506, -0.125, 0.0625, 0.0, 0.0
236, -0.004884004884004884, -0.0695970695970696, -0.22954822954822954, -0.09375, 0.03125, 0.03125, 0.0
237, -0.0231990231990232, -0.11843711843711843, -0.2673992673992674, -0.03125, 0.03125, 0.03125, 0.0
238, -0.04395604395604396, -0.052503052503052504, -0.21245421245421245, -0.03125, 0.09375, 0.0, 0.0
239, 0.004884004884004884, -0.10134310134310134, -0.22954822954822954, -0.03125, 0.09375, 0.0, 0.0
240, -0.06227106227106227, -0.04151404151404151, -0.12087912087912088, -0.0625, 0.0625, 0.0, 0.0
241, 0.0, -0.04884004884004884, -0.1916971916971917, -0.03125, 0.0625, 0.0, 0.0
242, 0.15018315018315018, -0.16605616605616605, -0.2271062271062271, -0.0625, 0.0, 0.0, 0.0
243, -0.057387057387057384, -0.002442002442002442, -0.21855921855921856, -0.0625, 0.0, 0.0, 0.0
244, -0.13797313797313798, 0.015873015873015872, -0.2026862026862027, -0.03125, 0.0625, 0.0, 0.0
245, 0.03785103785103785, -0.25518925518925517, -0.3956043956043956, -0.125, 0.09375, 0.0, 0.0
246, -0.014652014652014652, -0.07936507936507936, -0.06105006105006105, -0.21875, 0.09375, 0.03125, 0.0
247, -0.028083028083028084, 0.03418803418803419, 0.029304029304029304, -0.15625, 0.09375, 0.0625, 0.0
248, -0.007326007326007326, -0.03418803418803419, -0.017094017094017096, -0.125, 0.0625, 0.0625, 0.0
249, 0.018315018315018316, -0.115995115995116, -0.13064713064713065, -0.125, 0.03125, 0.0625, 0.0
250, -0.028083028083028084, -0.014652014652014652, -0.05128205128205128, -0.15625, 0.0, 0.03125, 0.0
251, -0.10012210012210013, 0.01221001221001221, -0.05372405372405373, -0.09375, 0.0625, 0.0, 0.0
252, 0.08180708180708181, -0.1807081807081807, -0.11965811965811966, -0.0625, 0.15625, 0.0, 0.0
253, 0.057387057387057384, -0.1562881562881563, -0.057387057387057384, -0.125, 0.09375, 0.0, 0.0
254, -0.03907203907203907, -0.10989010989010989, -0.12454212454212454, -0.21875, 0.0, 0.03125, 0.0
255, -0.11843711843711843, 0.0, -0.08058608058608059, -0.28125, 0.03125, 0.03125, 0.0
256, -0.1794871794871795, 0.22954822954822954, 0.16727716727716727, -0.1875, 0.09375, 0.03125, 0.0
257, 0.0231990231990232, -0.06593406593406594, 0.17826617826617827, 0.0, 0.125, 0.0625, 0.0
258, 0.09645909645909646, -0.27106227106227104, -0.06471306471306472, -0.0625, 0.0, 0.03125, 0.0
259, -0.13797313797313798, 0.040293040293040296, 0.020757020757020756, -0.125, -0.03125, 0.03125, 0.0
260, -0.015873015873015872, -0.031746031746031744, 0.054945054945054944, -0.03125, 0.0, 0.03125, 0.0
261, 0.11721611721611722, -0.21978021978021978, -0.06105006105006105, -0.03125, 0.03125, 0.03125, 0.0
262, 0.03418803418803419, -0.1282051282051282, -0.09768009768009768, -0.09375, 0.03125, 0.03125, 0.0
263, -0.019536019536019536, -0.01221001221001221, 0.006105006105006105, -0.09375, 0.03125, 0.03125, 0.0
264, -0.028083028083028084, 0.01098901098901099, 0.10989010989010989, -0.0625, 0.0625, 0.03125, 0.0
265, 0.09035409035409035, -0.1221001221001221, -0.004884004884004884, -0.0625, 0.0625, 0.03125, 0.0
266, -0.003663003663003663, -0.030525030525030524, 0.002442002442002442, -0.09375, 0.03125, 0.0, 0.0
267, -0.12454212454212454, -0.047619047619047616, -0.0231990231990232, -0.125, 0.0625, 0.03125, 0.0
268, 0.004884004884004884, -0.031746031746031744, 0.03785103785103785, -0.15625, 0.125, 0.0, 0.0
269, 0.15384615384615385, -0.11355311355311355, 0.06349206349206349, -0.125, 0.09375, 0.0, 0.0
270, 0.002442002442002442, -0.10012210012210013, -0.09768009768009768, -0.09375, 0.0, 0.0, 0.0
271, -0.18925518925518925, 0.07936507936507936, -0.05982905982905983, -0.03125, 0.03125, 0.0, 0.0
272, -0.015873015873015872, -0.008547008547008548, -0.03785103785103785, -0.03125, 0.03125, 0.03125, 0.0
273, -0.009768009768009768, -0.03663003663003663, -0.0757020757020757, -0.09375, 0.0, 0.03125, 0.0
274, -0.0463980463980464, -0.047619047619047616, -0.07448107448107448, -0.09375, 0.0, 0.03125, 0.0
275, 0.0, -0.03418803418803419, -0.03785103785103785, -0.09375, 0.03125, 0.03125, 0.0
276, -0.04151404151404151, -0.12576312576312576, -0.1111111111111111, -0.125, 0.03125, 0.03125, 0.0
277, -0.015873015873015872, -0.03418803418803419, -0.028083028083028084, -0.15625, 0.09375, 0.03125, 0.0
278, 0.03785103785103785, -0.08424908424908426, 0.006105006105006105, -0.15625, 0.0625, 0.0, 0.0
279, 0.10134310134310134, -0.1514041514041514, -0.08302808302808302, -0.1875, 0.0, 0.03125, 0.0
280, -0.25518925518925517, 0.10622710622710622, -0.13064713064713065, -0.15625, 0.03125, 0.0625, 0.0
281, -0.16605616605616605, 0.115995115995116, -0.08302808302808302, -0.03125, 0.15625, 0.09375, 0.0
282, 0.18192918192918192, -0.2686202686202686, -0.14896214896214896, -0.0625, 0.0625, 0.0625, 0.0
283, 0.008547008547008548, -0.05616605616605617, -0.1111111111111111, -0.125, 0.0, 0.0625, 0.0
284, -0.18315018315018314, 0.03418803418803419, -0.1221001221001221, -0.125, 0.0625, 0.03125, 0.0
285, -0.0231990231990232, -0.020757020757020756, -0.05128205128205128, -0.0625, 0.0625, 0.0625, 0.0
286, 0.1111111111111111, -0.14285714285714285, -0.047619047619047616, -0.0625, 0.0, 0.0625, 0.0
287, 0.0695970695970696, -0.009768009768009768, -0.020757020757020756, 0.0, -0.0625, 0.03125, 0.0
288, -0.04884004884004884, 0.1684981684981685, 0.08791208791208792, 0.25, -0.0625, 0.0, 0.0
289, -0.040293040293040296, -0.221001221001221, -0.07692307692307693, 0.3125, 0.0, 0.0, 0.0
290, 0.09645909645909646, -0.1855921855921856, 0.019536019536019536, 0.28125, -0.0625, 0.0, 1.0
291, 0.019536019536019536, -0.463980463980464, -0.7411477411477412, 0.0625, 0.09375, -0.125, 1.0
292, -0.2796092796092796, -0.3076923076923077, -0.778998778998779, -0.21875, 0.34375, -0.03125, 1.0
293, 0.030525030525030524, 0.28083028083028083, 0.06349206349206349, 0.0, 0.1875, 0.125, 1.0
294, 0.054945054945054944, 0.045177045177045176, 0.6800976800976801, 0.25, 0.0, 0.09375, 1.0
295, 0.19413919413919414, -0.5457875457875457, -1.4713064713064714, -0.28125, 0.125, 0.0625, 1.0
296, -0.21245421245421245, -0.001221001221001221, -0.706959706959707, -0.5625, 0.28125, -0.03125, 1.0
297, -0.20512820512820512, 0.2576312576312576, -0.3076923076923077, -0.28125, 0.3125, 0.0, 1.0
298, -0.18315018315018314, 0.031746031746031744, -1.1904761904761905, 0.1875, 0.21875, 0.0625, 1.0
299, 0.009768009768009768, -0.6886446886446886, -2.6105006105006106, 0.53125, 0.03125, 0.15625, 1.0
300, -0.08547008547008547, -1.1135531135531136, -4.134310134310135, 0.4375, -0.09375, 0.15625, 1.0
301, -0.33821733821733824, -0.7594627594627594, -5.158730158730159, 0.25, -0.15625, 0.0625, 1.0
302, -0.6361416361416361, -0.37362637362637363, -5.7655677655677655, 0.25, -0.03125, 0.03125, 1.0
303, -0.9340659340659341, -0.29304029304029305, -6.431013431013431, 0.1875, 0.09375, 0.0, 1.0
304, -2.1794871794871793, 0.41147741147741146, -7.142857142857143, 0.125, 0.375, 0.0, 1.0
305, -1.3797313797313797, 0.10744810744810745, -7.112332112332112, 0.15625, 0.78125, 0.125, 1.0
306, -0.11843711843711843, -0.4065934065934066, -6.809523809523809, 0.0, 0.8125, 0.1875, 1.0
307, -0.14774114774114774, -1.0976800976800978, -6.255189255189255, -0.1875, 0.5625, 0.125, 1.0
308, -0.19413919413919414, -2.0463980463980462, -5.747252747252747, -0.40625, 0.53125, 0.125, 1.0
309, 0.9010989010989011, -2.2625152625152625, -4.241758241758242, -0.8125, 0.625, 0.15625, 1.0
310, 1.4639804639804639, -2.31990231990232, -2.288156288156288, -0.96875, 0.375, 0.1875, 1.0
311, 1.8131868131868132, -2.1074481074481075, -0.8998778998778999, -1.0625, 0.09375, 0.3125, 1.0
312, 2.177045177045177, -3.178266178266178, -0.514041514041514, -1.28125, -0.1875, 0.0625, 1.0
313, 0.8424908424908425, -2.282051282051282, 1.0476190476190477, -1.625, 0.0, -0.1875, 1.0
314, 1.8522588522588523, -2.039072039072039, 2.8937728937728937, -1.71875, 0.125, 0.0, 1.0
315, 1.0122100122100122, -1.564102564102564, 3.8302808302808304, -1.5, 0.0, -0.15625, 1.0
316, 0.8656898656898657, -1.5970695970695972, 4.424908424908425, -1.125, 0.03125, -0.09375, 1.0
317, 1.2625152625152625, -1.811965811965812, 4.8901098901098905, -0.90625, 0.0, -0.09375, 1.0
318, 1.2222222222222223, -1.94993894993895, 4.9743589743589745, -0.9375, -0.125, 0.0, 1.0
319, -0.15506715506715507, -1.5067155067155067, 4.814407814407814, -1.1875, -0.21875, -0.46875, 1.0
320, -0.6788766788766789, -0.398046398046398, 5.831501831501831, -0.84375, 0.0, -0.53125, 1.0
321, -0.9694749694749695, 0.09035409035409035, 6.238095238095238, -0.5625, -0.0625, -0.3125, 1.0
322, -0.6349206349206349, -0.32234432234432236, 5.557997557997558, -0.6875, -0.46875, 0.0, 1.0
323, -0.938949938949939, -0.3797313797313797, 5.152625152625153, -0.75, -0.53125, -0.03125, 1.0
324, -0.938949938949939, -0.17338217338217338, 5.126984126984127, -0.65625, -0.15625, -0.0625, 1.0
325, -0.4444444444444444, 0.017094017094017096, 5.332112332112332, -0.46875, -0.21875, 0.0, 1.0
326, -0.8583638583638583, -0.2039072039072039, 3.6336996336996337, -0.4375, -0.375, 0.15625, 1.0
327, -0.9804639804639804, -0.19658119658119658, 3.3015873015873014, -0.34375, -0.59375, 0.21875, 1.0
328, -1.122100122100122, -0.1221001221001221, 3.057387057387057, -0.21875, -0.3125, 0.09375, 1.0
329, -1.1172161172161172, -0.34065934065934067, 2.800976800976801, 0.0, 0.34375, -0.15625, 1.0
330, -0.9206349206349206, -1.8168498168498168, 1.072039072039072, -0.5625, 0.96875, -0.21875, 0.0
331, -1.347985347985348, -1.4810744810744811, 0.4444444444444444, -1.3125, 1.1875, 0.0625, 0.0
332, -0.17826617826617827, -0.796092796092796, 2.9536019536019538, -0.8125, 0.28125, 0.375, 0.0
333, -0.18315018315018314, -0.5457875457875457, 3.9755799755799757, -0.09375, -0.375, 0.34375, 0.0
334, -0.33455433455433453, -0.9462759462759462, 3.3687423687423688, 0.28125, -0.15625, 0.125, 0.0
335, -0.21123321123321123, -1.7716727716727716, 2.590964590964591, 0.3125, 0.3125, -0.28125, 0.0
336, -0.20757020757020758, -1.0293040293040292, 2.8376068376068377, 0.34375, 0.5, -0.125, 0.0
337, 0.30158730158730157, -0.7887667887667887, 3.4444444444444446, 0.34375, 0.25, 0.0625, 0.0
338, 0.5702075702075702, -1.3333333333333333, 3.313797313797314, 0.03125, -0.09375, 0.15625, 0.0
339, -0.04884004884004884, -1.358974358974359, 3.045177045177045, 0.0625, -0.15625, 0.125, 0.0
340, -0.23565323565323565, -0.9108669108669109, 2.94993894993895, 0.375, 0.03125, 0.09375, 0.0
341, -0.11355311355311355, -0.23809523809523808, 3.156288156288156, 0.6875, 0.40625, -0.125, 0.0
342, 0.28205128205128205, -0.29914529914529914, 3.255189255189255, 0.84375, 0.5, -0.09375, 0.0
343, 0.1916971916971917, -0.6886446886446886, 2.5506715506715505, 0.78125, 0.1875, -0.125, 0.0
344, 0.1452991452991453, -1.164835164835165, 2.3785103785103785, 0.34375, -0.1875, -0.125, 0.0
345, -1.0, 0.6776556776556777, 1.9597069597069596, 0.53125, -0.0625, 0.0, 0.0
346, -1.2576312576312576, 0.5946275946275946, 1.0671550671550671, 1.09375, 0.125, 0.09375, 0.0
347, -0.9963369963369964, -0.03540903540903541, 0.31746031746031744, 1.34375, 0.28125, 0.21875, 0.0
348, -0.6568986568986569, -0.05128205128205128, 0.23809523809523808, 1.21875, 0.53125, 0.15625, 0.0
349, 0.21733821733821734, -0.2442002442002442, -0.07448107448107448, 1.0, 0.75, 0.40625, 0.0
350, 0.34676434676434675, -0.4835164835164835, -0.5457875457875457, 0.6875, 0.25, 0.6875, 0.0
351, -0.21611721611721613, -0.6605616605616605, -0.8485958485958486, 0.53125, -0.21875, 0.6875, 0.0
352, 0.026862026862026864, -0.9072039072039072, -1.4737484737484738, 0.65625, -0.21875, 0.59375, 0.0
353, 0.326007326007326, -1.1782661782661783, -2.6849816849816848, 0.84375, -0.03125, 0.4375, 0.0
354, 0.1452991452991453, -1.1172161172161172, -3.3687423687423688, 0.6875, 0.0625, 0.21875, 0.0
355, 0.5873015873015873, -1.1611721611721613, -3.197802197802198, 0.25, -0.15625, 0.53125, 0.0
356, 0.5848595848595849, -0.7301587301587301, -3.006105006105006, 0.0, -0.78125, 0.53125, 0.0
357, -0.7606837606837606, -0.4444444444444444, -3.7838827838827838, 0.21875, -0.84375, 0.21875, 0.0
358, -0.9267399267399268, -0.5946275946275946, -4.065934065934066, 0.46875, -0.125, 0.09375, 0.0
359, -0.09768009768009768, -0.9902319902319903, -3.9450549450549453, 0.375, 0.28125, 0.0, 0.0
360, 0.42246642246642246, -0.7655677655677655, -3.7753357753357752, 0.125, 0.03125, -0.03125, 0.0
361, 0.5482295482295483, -0.7387057387057387, -3.36996336996337, -0.09375, -0.59375, -0.03125, 0.0
362, -0.39316239316239315, -0.4993894993894994, -3.120879120879121, -0.3125, -0.9375, -0.09375, 0.0
363, -1.6459096459096458, 0.06105006105006105, -2.8424908424908426, -0.34375, -0.40625, -0.0625, 0.0
364, -0.05372405372405373, -0.5213675213675214, -2.442002442002442, -0.15625, 0.40625, 0.03125, 0.0
365, 1.0879120879120878, -0.9047619047619048, -1.8034188034188035, -0.0625, 0.375, 0.0, 0.0
366, 0.19658119658119658, -0.5958485958485958, -1.7594627594627594, -0.21875, -0.0625, 0.0, 0.0
367, -1.0525030525030525, 0.2771672771672772, -1.8827838827838828, -0.375, -0.03125, -0.09375, 0.0
368, -0.5006105006105006, 0.2698412698412698, -1.3601953601953602, -0.0625, 0.15625, 0.0625, 0.0
369, 0.336996336996337, -0.4017094017094017, -1.1355311355311355, 0.0, -0.03125, 0.125, 0.0
370, 0.10744810744810745, -0.3052503052503053, -1.0854700854700854, -0.03125, -0.15625, 0.03125, 0.0
371, -0.20512820512820512, -0.17704517704517705, -1.0085470085470085, -0.09375, -0.03125, 0.0, 0.0
372, -0.18315018315018314, -0.04884004884004884, -0.8327228327228328, -0.03125, 0.0, 0.03125, 0.0
373, -0.1221001221001221, 0.6434676434676435, -0.4188034188034188, 0.34375, -0.09375, 0.03125, 0.0
374, -0.1855921855921856, 0.5299145299145299, 0.04395604395604396, 0.84375, -0.21875, 0.0, 0.0
375, -0.057387057387057384, 0.10378510378510379, -0.17094017094017094, 1.09375, -0.1875, -0.09375, 1.0
376, -0.047619047619047616, -1.4029304029304028, -0.9902319902319903, 0.625, 0.0, -0.21875, 1.0
377, -0.30036630036630035, -1.0964590964590966, -1.8644688644688645, -0.125, 0.34375, -0.125, 1.0
378, -0.5457875457875457, -0.7008547008547008, -1.768009768009768, -0.75, 0.625, 0.21875, 1.0
379, 0.27350427350427353, 0.004884004884004884, -0.12576312576312576, -0.5, 0.46875, 0.25, 1.0
380, -0.045177045177045176, 0.3247863247863248, -0.3907203907203907, -0.1875, 0.46875, 0.25, 1.0
381, 0.39194139194139194, 0.5494505494505495, -0.757020757020757, 0.28125, 0.21875, 0.3125, 1.0
382, 0.13186813186813187, -0.10866910866910867, -2.2466422466422467, 0.53125, 0.0, 0.375, 1.0
383, -0.26373626373626374, -0.6239316239316239, -4.26984126984127, 0.46875, 0.0625, 0.21875, 1.0
384, -0.4249084249084249, -0.5286935286935287, -5.255189255189255, 0.34375, 0.15625, 0.1875, 1.0
385, 0.05372405372405373, -0.0757020757020757, -5.398046398046398, 0.5, 0.0, 0.1875, 1.0
386, -0.019536019536019536, -1.5824175824175823, -6.760683760683761, 0.4375, 0.15625, 0.0, 1.0
387, -0.12698412698412698, -2.2124542124542126, -7.597069597069597, 0.0, 0.8125, -0.34375, 1.0
388, 1.0634920634920635, -1.844932844932845, -5.96947496947497, -0.15625, 0.65625, -0.40625, 1.0
389, 1.3247863247863247, -1.8083028083028083, -4.832722832722832, -0.15625, 0.25, -0.53125, 1.0
390, 0.7106227106227107, -2.456654456654457, -5.0537240537240535, -0.375, 0.21875, -0.5625, 1.0
391, 0.9316239316239316, -3.2075702075702077, -4.843711843711843, -0.8125, 0.25, -0.6875, 1.0
392, 0.9536019536019537, -3.1855921855921854, -3.336996336996337, -1.28125, 0.0625, -0.59375, 1.0
393, 0.8778998778998779, -2.5934065934065935, -1.7118437118437118, -1.53125, -0.1875, -0.4375, 1.0
394, 0.6691086691086691, -1.1843711843711844, 0.5946275946275946, -1.59375, -0.25, -0.375, 1.0
395, 0.16483516483516483, -0.7912087912087912, 1.7753357753357752, -1.21875, -0.5, -0.21875, 1.0
396, -0.2844932844932845, -0.14652014652014653, 2.0366300366300365, -0.9375, -0.28125, -0.3125, 1.0
397, 0.73992673992674, -0.11233211233211234, 2.8205128205128207, -0.78125, -0.0625, -0.28125, 1.0
398, 0.4444444444444444, -0.7533577533577533, 2.614163614163614, -0.9375, -0.59375, -0.1875, 1.0
399, -0.9267399267399268, -0.5604395604395604, 3.057387057387057, -1.21875, -0.59375, -0.125, 1.0
400, 0.020757020757020756, -1.2759462759462759, 3.659340659340659, -1.25, -0.21875, 0.09375, 1.0
401, 0.09645909645909646, -1.0695970695970696, 4.218559218559219, -1.34375, -0.1875, 0.15625, 1.0
402, 0.6373626373626373, -0.6288156288156288, 5.213675213675214, -1.1875, -0.3125, 0.28125, 1.0
403, -0.07326007326007326, -0.5518925518925519, 4.73992673992674, -1.0, -0.53125, 0.28125, 1.0
404, -0.6556776556776557, -0.37606837606837606, 4.306471306471306, -0.8125, -0.4375, 0.125, 1.0
405, -0.7863247863247863, -0.031746031746031744, 4.013431013431013, -0.6875, -0.125, 0.03125, 1.0
406, -0.3711843711843712, 0.06593406593406594, 4.380952380952381, -0.59375, -0.0625, 0.125, 1.0
407, -0.27350427350427353, -0.22832722832722832, 4.7203907203907205, -0.5, -0.375, 0.25, 1.0
408, -0.4981684981684982, 0.006105006105006105, 4.437118437118437, -0.5, -0.4375, 0.3125, 1.0
409, -0.3772893772893773, -0.0695970695970696, 4.374847374847374, -0.46875, -0.125, 0.21875, 1.0
410, -0.31868131868131866, -0.17338217338217338, 3.8253968253968256, -0.25, 0.25, 0.0625, 1.0
411, -0.08913308913308914, -0.30158730158730157, 3.52991452991453, -0.15625, 0.5625, -0.0625, 1.0
412, -0.028083028083028084, -0.9829059829059829, 2.8290598290598292, -0.09375, 0.34375, 0.0, 1.0
413, -0.08547008547008547, -0.746031746031746, 2.2698412698412698, -0.375, 0.0625, 0.125, 1.0
414, 0.007326007326007326, -0.5543345543345544, 2.1196581196581197, -0.53125, -0.0625, 0.3125, 0.0
415, -0.3601953601953602, -0.41147741147741146, 2.1758241758241756, -0.625, 0.0, 0.25, 0.0
416, -0.3528693528693529, -0.4249084249084249, 2.3504273504273505, -0.5, 0.375, 0.0625, 0.0
417, 0.05616605616605617, -0.6324786324786325, 2.7252747252747254, -0.15625, 0.53125, -0.03125, 0.0
418, 0.2258852258852259, -0.5225885225885226, 2.9145299145299144, 0.03125, 0.25, 0.0, 0.0
419, 0.6959706959706959, -1.0390720390720392, 3.3028083028083026, 0.03125, -0.03125, 0.03125, 0.0
420, 0.2783882783882784, -1.7960927960927962, 3.0146520146520146, -0.125, -0.09375, 0.0, 0.0
421, -0.2698412698412698, -1.78998778998779, 3.0476190476190474, -0.25, 0.0, 0.09375, 0.0
422, 0.07203907203907203, -0.6385836385836385, 3.647130647130647, -0.0625, 0.125, -0.03125, 0.0
423, 0.08058608058608059, 0.43833943833943834, 4.142857142857143, 0.40625, 0.46875, -0.1875, 0.0
424, 0.33577533577533575, -0.14774114774114774, 3.6910866910866913, 0.65625, 0.625, -0.21875, 0.0
425, 0.21245421245421245, -1.3443223443223444, 2.9023199023199022, 0.46875, 0.375, -0.15625, 0.0
426, -0.07448107448107448, -1.4664224664224663, 2.6043956043956045, 0.15625, 0.09375, 0.0, 0.0
427, 0.13675213675213677, 0.231990231990232, 3.1184371184371185, 0.28125, 0.0, 0.0, 0.0
428, 0.009768009768009768, 1.0671550671550671, 2.8461538461538463, 0.78125, 0.0, -0.0625, 0.0
429, -1.120879120879121, 0.6324786324786325, 1.6691086691086692, 1.15625, 0.3125, -0.09375, 0.0
430, -1.844932844932845, -0.009768009768009768, 0.9487179487179487, 1.25, 0.875, -0.0625, 0.0
431, -0.894993894993895, -0.07814407814407814, 1.5042735042735043, 1.0625, 0.9375, 0.21875, 0.0
432, 0.9218559218559218, -0.6935286935286935, 1.6703296703296704, 0.46875, 0.0, 0.65625, 0.0
433, 0.10256410256410256, 0.4590964590964591, 1.393162393162393, 0.40625, -0.53125, 0.5625, 0.0
434, -1.308913308913309, 1.1721611721611722, 0.6691086691086691, 1.0625, 0.3125, 0.34375, 0.0
435, -1.5946275946275947, 1.3345543345543345, -0.18437118437118438, 1.875, 1.4375, 0.28125, 0.0
436, 0.06227106227106227, 0.14285714285714285, -0.6984126984126984, 2.0625, 1.375, 0.375, 0.0
437, 1.822954822954823, -1.9536019536019535, -1.7362637362637363, 1.40625, 0.21875, 0.71875, 0.0
438, 1.746031746031746, -2.987789987789988, -2.987789987789988, 0.375, -0.78125, 0.90625, 0.0
439, 0.1562881562881563, -1.2075702075702075, -3.258852258852259, 0.28125, -0.65625, 0.71875, 0.0
440, -0.23931623931623933, -0.21123321123321123, -3.128205128205128, 0.75, 0.0, 0.5, 0.0
441, 0.4139194139194139, -0.5518925518925519, -2.9536019536019538, 1.03125, 0.15625, 0.25, 0.0
442, 0.08302808302808302, -1.271062271062271, -3.7753357753357752, 0.59375, 0.0, 0.21875, 0.0
443, 0.26373626373626374, -1.4786324786324787, -4.967032967032967, -0.21875, -0.3125, 0.125, 0.0
444, -0.673992673992674, -0.5201465201465202, -4.141636141636142, -0.53125, -0.375, 0.21875, 0.0
445, -0.6056166056166056, -0.8424908424908425, -3.8376068376068377, -0.4375, 0.125, 0.15625, 0.0
446, 0.9706959706959707, -1.2527472527472527, -3.086691086691087, -0.34375, 0.3125, 0.125, 0.0
447, 2.0317460317460316, -1.6214896214896215, -2.357753357753358, -0.25, -0.28125, 0.0, 0.0
448, 0.29914529914529914, -0.7264957264957265, -2.608058608058608, -0.1875, -0.84375, -0.09375, 0.0
449, -1.072039072039072, -0.05128205128205128, -3.029304029304029, -0.03125, -0.5, -0.03125, 0.0
450, -0.6923076923076923, -0.17582417582417584, -2.956043956043956, 0.125, 0.03125, -0.03125, 0.0
451, -0.09523809523809523, -0.30036630036630035, -2.445665445665446, 0.09375, 0.0, 0.0625, 0.0
452, -0.4053724053724054, -0.16727716727716727, -1.9426129426129426, 0.0, -0.28125, 0.09375, 0.0
453, -0.23931623931623933, -0.409035409035409, -1.7362637362637363, -0.125, -0.21875, 0.125, 0.0
454, 0.3089133089133089, -0.5482295482295483, -1.2466422466422467, -0.25, -0.0625, 0.15625, 0.0
455, 0.4358974358974359, -0.27472527472527475, -0.5726495726495726, -0.28125, -0.09375, 0.125, 0.0
456, -0.0463980463980464, -0.1684981684981685, -0.24786324786324787, -0.1875, -0.125, 0.0625, 0.0
457, 0.42002442002442003, -0.49694749694749696, -0.23687423687423687, -0.09375, -0.03125, 0.0625, 0.0
458, 0.6056166056166056, -0.23076923076923078, -0.03663003663003663, -0.03125, -0.1875, 0.03125, 0.0
459, -0.13797313797313798, -0.3431013431013431, -0.514041514041514, 0.125, -0.21875, -0.125, 1.0
460, -0.06837606837606838, 0.20146520146520147, -0.3540903540903541, 0.4375, 0.03125, -0.1875, 1.0
461, -0.09401709401709402, -0.3052503052503053, -0.47741147741147744, 0.9375, 0.09375, -0.1875, 1.0
462, -0.08547008547008547, -1.0366300366300367, -2.647130647130647, 0.75, 0.125, 0.09375, 1.0
463, -0.16727716727716727, -0.8424908424908425, -3.67032967032967, 0.09375, 0.09375, 0.125, 1.0
464, 0.1562881562881563, -0.5860805860805861, -3.4188034188034186, -0.3125, -0.03125, 0.21875, 1.0
465, 0.2905982905982906, -0.9548229548229549, -3.6056166056166057, -0.21875, -0.21875, 0.1875, 1.0
466, 0.18192918192918192, -0.9511599511599511, -4.004884004884005, 0.0, -0.21875, -0.03125, 1.0
467, -0.14407814407814407, -1.1697191697191698, -4.514041514041514, 0.125, -0.125, -0.03125, 1.0
468, -0.31868131868131866, -1.3443223443223444, -5.158730158730159, 0.125, 0.125, -0.0625, 1.0
469, 0.14285714285714285, -1.568986568986569, -5.078144078144078, 0.0, 0.1875, -0.15625, 1.0
470, 0.06471306471306472, -1.4432234432234432, -4.8217338217338215, -0.09375, 0.1875, -0.125, 1.0
471, -0.07448107448107448, -1.1746031746031746, -4.456654456654457, -0.09375, 0.15625, -0.15625, 1.0
472, 0.050061050061050064, -1.4126984126984128, -4.155067155067155, 0.0, 0.09375, -0.3125, 1.0
473, -0.12576312576312576, -2.253968253968254, -4.577533577533577, -0.34375, 0.125, -0.375, 1.0
474, 0.32112332112332115, -2.2515262515262515, -3.868131868131868, -0.8125, 0.0625, -0.1875, 1.0
475, 0.4188034188034188, -2.065934065934066, -2.4004884004884004, -1.0625, -0.03125, -0.125, 1.0
476, 0.6556776556776557, -2.2527472527472527, -1.4053724053724053, -1.25, -0.09375, -0.125, 1.0
477, 1.164835164835165, -2.1758241758241756, -0.11233211233211234, -1.375, -0.3125, 0.03125, 1.0
478, 1.0744810744810744, -1.8510378510378511, 0.6312576312576312, -1.53125, -0.40625, 0.28125, 1.0
479, 0.684981684981685, -1.1282051282051282, 1.4737484737484738, -1.40625, -0.375, 0.4375, 1.0
480, 0.6825396825396826, -1.9059829059829059, 1.5091575091575091, -1.46875, -0.3125, 0.21875, 1.0
481, -0.18925518925518925, -0.9816849816849816, 2.3455433455433456, -1.21875, 0.0, 0.0625, 1.0
482, 0.2588522588522589, -0.7948717948717948, 3.2796092796092795, -0.90625, 0.09375, 0.03125, 1.0
483, 0.36996336996337, -1.221001221001221, 2.6263736263736264, -1.03125, 0.0, 0.09375, 1.0
484, 0.5311355311355311, -1.6898656898656899, 2.752136752136752, -1.34375, -0.1875, 0.25, 1.0
485, 0.5213675213675214, -1.6031746031746033, 3.7301587301587302, -1.5, -0.28125, 0.25, 1.0
486, -0.3504273504273504, -0.8901098901098901, 4.26984126984127, -1.375, 0.0, 0.1875, 1.0
487, -0.30158730158730157, -0.32234432234432236, 5.039072039072039, -1.03125, 0.25, 0.15625, 1.0
488, 0.5201465201465202, 0.03540903540903541, 5.708180708180708, -0.75, 0.0, 0.09375, 1.0
489, 0.13675213675213677, 0.2796092796092796, 5.628815628815629, -0.59375, -0.21875, 0.15625, 1.0
490, -0.07203907203907203, 0.07326007326007326, 5.065934065934066, -0.625, -0.125, 0.125, 1.0
491, -0.36874236874236876, 0.5201465201465202, 4.844932844932845, -0.34375, 0.0, 0.0625, 1.0
492, -0.5433455433455433, 0.36385836385836384, 3.9572649572649574, -0.15625, 0.03125, 0.03125, 1.0
493, -0.6507936507936508, -0.15262515262515264, 3.111111111111111, -0.1875, -0.03125, 0.0625, 1.0
494, -0.652014652014652, -0.17582417582417584, 2.3797313797313797, -0.40625, 0.0, 0.1875, 1.0
495, -0.19658119658119658, -0.2893772893772894, 2.84981684981685, -0.59375, 0.125, 0.125, 1.0
496, -0.052503052503052504, -0.5787545787545788, 2.8461538461538463, -0.53125, 0.21875, 0.03125, 1.0
497, -0.1684981684981685, -1.3785103785103785, 2.0586080586080584, -0.59375, 0.34375, -0.03125, 0.0
498, -0.6398046398046398, -1.1868131868131868, 1.5714285714285714, -1.09375, 0.65625, -0.125, 0.0
499, -1.1343101343101343, 1.2063492063492063, 2.905982905982906, -1.1875, 1.0, -0.09375, 0.0
500, 0.4004884004884005, -0.5421245421245421, 4.084249084249084, -0.125, 0.25, 0.0625, 0.0
501, 0.031746031746031744, -1.0183150183150182, 2.8632478632478633, 0.0625, -0.46875, 0.15625, 0.0
502, 0.20757020757020758, -0.8608058608058609, 2.526251526251526, -0.125, -0.3125, 0.09375, 0.0
503, 0.10378510378510379, -0.8351648351648352, 2.8034188034188032, -0.21875, 0.0, -0.03125, 0.0
504, -0.13553113553113552, -0.6800976800976801, 2.8290598290598292, -0.125, 0.0625, -0.03125, 0.0
505, 0.27350427350427353, -1.0769230769230769, 2.7094017094017095, 0.0, -0.03125, 0.03125, 0.0
506, 0.28205128205128205, -1.0463980463980465, 2.786324786324786, 0.03125, -0.15625, 0.0, 0.0
507, 0.452991452991453, -1.2588522588522588, 2.7142857142857144, 0.0625, 0.03125, -0.125, 0.0
508, 0.27350427350427353, -0.9926739926739927, 2.431013431013431, -0.0625, 0.28125, -0.25, 0.0
509, -0.0695970695970696, -0.20512820512820512, 2.492063492063492, 0.0, 0.3125, -0.28125, 0.0
510, -0.3968253968253968, 0.04395604395604396, 2.199023199023199, 0.28125, 0.1875, -0.28125, 0.0
511, -0.16971916971916973, 0.0231990231990232, 1.5445665445665446, 0.375, 0.15625, -0.1875, 0.0
512, -0.5787545787545788, 0.13797313797313798, 1.0415140415140416, 0.40625, 0.21875, -0.21875, 0.0
513, -0.7753357753357754, 0.24175824175824176, 0.938949938949939, 0.5, 0.4375, -0.21875, 0.0
514, -0.026862026862026864, 0.2454212454212454, 1.2698412698412698, 0.6875, 0.4375, -0.09375, 0.0
515, -0.16605616605616605, 0.46886446886446886, 0.8241758241758241, 0.78125, 0.125, 0.09375, 0.0
516, -0.7216117216117216, 0.19536019536019536, 0.21733821733821734, 0.8125, 0.09375, 0.125, 0.0
517, -1.0073260073260073, 0.09523809523809523, 0.48717948717948717, 0.84375, 0.53125, 0.15625, 0.0
518, -0.16605616605616605, 0.5726495726495726, 0.7728937728937729, 1.09375, 0.75, 0.03125, 0.0
519, 0.26373626373626374, 0.2588522588522589, 0.14896214896214896, 1.21875, 0.5, 0.03125, 0.0
520, -0.6275946275946276, 0.2576312576312576, 0.054945054945054944, 1.34375, 0.34375, 0.09375, 0.0
521, -0.6593406593406593, -0.07081807081807082, -0.6544566544566545, 1.375, 0.65625, 0.09375, 0.0
522, 0.800976800976801, -1.0903540903540903, -1.4151404151404152, 0.875, 0.46875, 0.4375, 0.0
523, 3.15018315018315, -3.275946275946276, -2.183150183150183, -0.34375, -0.96875, 0.90625, 0.0
524, 1.1013431013431014, -1.4261294261294262, -1.811965811965812, -0.5625, -1.5625, 0.65625, 0.0
525, -1.9572649572649572, 0.1623931623931624, -1.6727716727716728, 0.375, -0.3125, 0.28125, 0.0
526, -1.8986568986568986, 0.05616605616605617, -2.52014652014652, 1.21875, 0.96875, -0.125, 0.0
527, -0.40415140415140416, -1.0146520146520146, -3.711843711843712, 1.0625, 1.125, 0.0625, 0.0
528, 0.8608058608058609, -1.6007326007326008, -3.509157509157509, 0.125, 0.25, 0.28125, 0.0
529, 0.5201465201465202, -0.7081807081807082, -2.772893772893773, -0.40625, -0.65625, 0.34375, 0.0
530, -0.4981684981684982, 0.03663003663003663, -2.468864468864469, -0.21875, -0.84375, 0.3125, 0.0
531, -0.8852258852258852, -0.3089133089133089, -2.73992673992674, 0.1875, -0.46875, 0.21875, 0.0
532, -1.1611721611721613, -0.6202686202686203, -2.6666666666666665, 0.40625, 0.21875, 0.125, 0.0
533, 0.29914529914529914, -1.1428571428571428, -2.3504273504273505, 0.28125, 0.34375, 0.25, 0.0
534, 1.5103785103785103, -1.2735042735042734, -2.2002442002442004, 0.0, -0.3125, 0.15625, 0.0
535, 0.33577533577533575, -0.5653235653235653, -2.172161172161172, 0.03125, -0.625, 0.03125, 0.0
536, -1.0415140415140416, -0.48473748473748474, -2.5641025641025643, 0.28125, 0.0, 0.0, 0.0
537, -0.6605616605616605, -0.8669108669108669, -2.918192918192918, 0.3125, 0.53125, 0.03125, 0.0
538, 0.7631257631257631, -1.387057387057387, -2.7252747252747254, -0.0625, 0.21875, 0.0625, 0.0
539, 0.818070818070818, -1.1367521367521367, -2.0964590964590966, -0.46875, -0.3125, 0.0625, 0.0
540, -0.15506715506715507, -0.10989010989010989, -1.2942612942612943, -0.125, -0.09375, 0.0, 0.0
541, -0.25274725274725274, -0.3064713064713065, -1.1746031746031746, 0.0625, 0.25, 0.03125, 0.0
542, 0.27228327228327226, -0.4810744810744811, -0.9291819291819292, -0.09375, 0.1875, 0.03125, 0.0
543, -0.09157509157509157, -0.06593406593406594, -0.5421245421245421, -0.3125, -0.0625, 0.0, 0.0
544, -0.46642246642246643, 0.42124542124542125, -0.18925518925518925, -0.15625, -0.03125, 0.0, 0.0
545, -0.22466422466422467, 0.054945054945054944, -0.11843711843711843, 0.0625, 0.03125, 0.0625, 0.0
546, 0.09035409035409035, -0.514041514041514, -0.28205128205128205, 0.03125, 0.03125, 0.0625, 0.0
547, 0.34065934065934067, -0.5396825396825397, -0.33943833943833945, -0.125, 0.0, 0.03125, 0.0
548, 0.18681318681318682, 0.5518925518925519, 0.13553113553113552, 0.0, -0.125, 0.0, 0.0
549, 0.17094017094017094, 1.459096459096459, 0.6153846153846154, 0.96875, -0.40625, 0.0, 1.0
550, -0.6691086691086691, -1.1147741147741148, -1.2307692307692308, 2.125, -0.625, -0.125, 1.0
551, -0.811965811965812, -1.7338217338217339, -4.273504273504273, 1.875, 0.21875, -0.28125, 1.0
552, 0.7765567765567766, -2.166056166056166, -5.048840048840049, 0.96875, 0.84375, -0.21875, 1.0
553, 1.1514041514041513, -1.231990231990232, -4.151404151404152, 0.1875, 0.125, -0.03125, 1.0
554, -0.43345543345543347, -0.23565323565323565, -4.57020757020757, -0.09375, -0.5, 0.125, 1.0
555, -0.5628815628815629, -1.054945054945055, -5.063492063492063, 0.0, -0.40625, 0.125, 1.0
556, -0.757020757020757, -0.7973137973137974, -5.058608058608058, 0.0, -0.09375, -0.03125, 1.0
557, -0.3504273504273504, -1.6532356532356531, -5.682539682539683, 0.1875, -0.0625, 0.0, 1.0
558, -0.5213675213675214, -2.1404151404151404, -6.597069597069597, -0.125, -0.09375, -0.1875, 1.0
559, -0.44078144078144077, -2.1452991452991452, -5.601953601953602, -0.3125, -0.03125, -0.28125, 1.0
560, 0.10012210012210013, -2.548229548229548, -4.835164835164835, -0.375, 0.1875, -0.28125, 1.0
561, 0.8449328449328449, -3.1086691086691087, -3.713064713064713, -0.53125, 0.21875, -0.25, 1.0
562, 0.8266178266178266, -3.3455433455433456, -3.045177045177045, -0.84375, 0.03125, -0.15625, 1.0
563, 1.4346764346764347, -3.051282051282051, -1.7655677655677655, -1.28125, 0.09375, -0.15625, 1.0
564, 1.5995115995115996, -2.0744810744810747, -0.29181929181929184, -1.65625, 0.0, -0.03125, 1.0
565, 1.2478632478632479, -1.4993894993894994, 1.0952380952380953, -1.46875, -0.40625, -0.03125, 1.0
566, 0.9401709401709402, -1.0146520146520146, 1.8876678876678876, -1.1875, -0.5, 0.0, 1.0
567, 0.7643467643467643, -1.0964590964590966, 1.6544566544566544, -1.15625, -0.53125, -0.1875, 1.0
568, -0.8656898656898657, -0.6398046398046398, 1.2673992673992673, -1.1875, -0.0625, -0.125, 1.0
569, -0.14652014652014653, -0.46764346764346765, 2.432234432234432, -1.25, 0.0, 0.1875, 1.0
570, 0.833943833943834, -0.4945054945054945, 3.7045177045177047, -1.25, -0.4375, 0.4375, 1.0
571, 0.3504273504273504, -0.8412698412698413, 3.0781440781440783, -1.375, -0.5, 0.5, 1.0
572, -0.2673992673992674, -0.8608058608058609, 2.4896214896214897, -1.4375, -0.09375, 0.4375, 1.0
573, -0.5641025641025641, 0.2148962148962149, 3.8290598290598292, -0.9375, 0.25, 0.125, 1.0
574, -0.2893772893772894, 0.002442002442002442, 4.157509157509158, -0.5, 0.46875, -0.125, 1.0
575, -0.46642246642246643, -0.8656898656898657, 3.318681318681319, -0.65625, 0.40625, 0.09375, 1.0
576, 0.38583638583638585, -1.1037851037851039, 3.2686202686202686, -1.25, -0.03125, 0.5, 1.0
577, 0.2600732600732601, 0.08547008547008547, 4.488400488400488, -1.40625, -0.4375, 0.78125, 1.0
578, 0.21855921855921856, 0.7557997557997558, 4.628815628815629, -0.9375, -0.375, 0.65625, 1.0
579, -0.09645909645909646, 0.463980463980464, 4.102564102564102, -0.4375, 0.03125, 0.21875, 1.0
580, -0.07448107448107448, 0.15506715506715507, 4.021978021978022, -0.125, 0.46875, 0.0, 1.0
581, 0.3321123321123321, -0.3626373626373626, 3.9450549450549453, -0.25, 0.3125, 0.0625, 1.0
582, 0.2857142857142857, -0.2979242979242979, 4.017094017094017, -0.46875, 0.03125, 0.3125, 1.0
583, 0.10134310134310134, -0.15384615384615385, 3.9462759462759465, -0.40625, -0.0625, 0.25, 1.0
584, -0.21245421245421245, -0.5567765567765568, 3.238095238095238, -0.34375, 0.125, 0.125, 0.0
585, 0.20634920634920634, -1.0598290598290598, 2.989010989010989, -0.625, 0.3125, 0.0, 0.0
586, -0.019536019536019536, -0.8791208791208791, 2.4249084249084247, -1.09375, 0.5, -0.03125, 0.0
587, -0.21733821733821734, 0.358974358974359, 3.7362637362637363, -0.5625, 0.21875, -0.03125, 0.0
588, -0.15873015873015872, -0.5286935286935287, 4.3638583638583635, 0.0, -0.25, 0.03125, 0.0
589, -0.21733821733821734, -0.8278388278388278, 3.0415140415140414, 0.15625, 0.0, -0.1875, 0.0
590, -0.08913308913308914, -0.6043956043956044, 2.542124542124542, 0.09375, 0.125, -0.25, 0.0
591, -0.34554334554334554, -1.1916971916971917, 2.8583638583638584, 0.21875, -0.15625, -0.09375, 0.0
592, -0.06471306471306472, -2.1648351648351647, 2.247863247863248, 0.125, -0.5, 0.125, 0.0
593, 0.37606837606837606, -2.177045177045177, 2.010989010989011, -0.21875, -0.65625, 0.21875, 0.0
594, 0.11965811965811966, -0.967032967032967, 2.468864468864469, -0.40625, -0.3125, 0.0, 0.0
595, 0.028083028083028084, -0.4175824175824176, 3.4175824175824174, 0.0, 0.375, -0.40625, 0.0
596, 0.10378510378510379, -1.05006105006105, 3.6788766788766787, 0.46875, 0.59375, -0.625, 0.0
597, 0.18437118437118438, -1.4456654456654456, 3.092796092796093, 0.65625, 0.5, -0.65625, 0.0
598, 0.7057387057387058, -0.8144078144078144, 2.2844932844932844, 0.4375, 0.21875, -0.53125, 0.0
599, 0.07203907203907203, 0.2783882783882784, 1.7057387057387057, 0.28125, 0.15625, -0.53125, 0.0
600, -0.8278388278388278, 0.7509157509157509, 1.6764346764346765, 0.40625, 0.375, -0.59375, 0.0
601, -0.8070818070818071, 0.6446886446886447, 2.1684981684981683, 0.6875, 0.59375, -0.46875, 0.0
602, 0.03296703296703297, 0.16483516483516483, 1.7728937728937728, 0.78125, 0.5625, -0.3125, 0.0
603, 0.22832722832722832, 0.11355311355311355, 1.6703296703296704, 0.4375, 0.15625, 0.0, 0.0
604, -0.3333333333333333, 0.6947496947496947, 1.5164835164835164, 0.25, -0.125, 0.15625, 0.0
605, -1.137973137973138, 1.1367521367521367, 0.9181929181929182, 0.65625, -0.0625, 0.15625, 0.0
606, -1.982905982905983, 1.5262515262515262, 0.20512820512820512, 1.21875, 0.375, 0.0, 0.0
607, -1.078144078144078, 0.702075702075702, -0.41147741147741146, 1.59375, 1.03125, 0.0, 0.0
608, 0.26373626373626374, -0.6593406593406593, -0.6166056166056166, 1.1875, 1.03125, 0.25, 0.0
609, 0.4517704517704518, -0.9084249084249084, -0.09523809523809523, 0.59375, 0.34375, 0.65625, 0.0
610, -0.33577533577533575, -0.14163614163614163, 0.10500610500610501, 0.71875, 0.0625, 0.59375, 0.0
611, 0.24786324786324787, -0.5115995115995116, -2.1404151404151404, 1.25, 0.375, 0.375, 0.0
612, 0.5262515262515263, -1.6605616605616607, -3.8974358974358974, 1.03125, 0.3125, 0.3125, 0.0
613, -0.1391941391941392, -1.6117216117216118, -4.21001221001221, 0.34375, 0.09375, 0.59375, 0.0
614, 0.3028083028083028, -1.413919413919414, -3.2527472527472527, 0.34375, 0.0, 0.71875, 0.0
615, 0.45787545787545786, -1.1611721611721613, -3.586080586080586, 0.40625, -0.15625, 0.59375, 0.0
616, 0.2857142857142857, -0.8400488400488401, -3.8937728937728937, 0.3125, -0.09375, 0.46875, 0.0
617, -0.14896214896214896, -0.6031746031746031, -3.391941391941392, 0.21875, 0.03125, 0.25, 0.0
618, 0.057387057387057384, -0.5873015873015873, -2.583638583638584, 0.375, 0.125, 0.15625, 0.0
619, 1.0598290598290598, -1.253968253968254, -2.5115995115995116, 0.40625, -0.25, 0.1875, 0.0
620, 0.6275946275946276, -1.763125763125763, -3.26007326007326, 0.0, -0.8125, 0.28125, 0.0
621, -1.3577533577533578, -1.1721611721611722, -3.5238095238095237, -0.28125, -0.46875, 0.1875, 0.0
622, -1.3821733821733821, -0.4053724053724054, -2.89010989010989, 0.0, 0.25, 0.21875, 0.0
623, 0.8144078144078144, -1.1306471306471306, -1.8986568986568986, 0.21875, 0.3125, 0.09375, 0.0
624, 1.4615384615384615, -1.5531135531135531, -1.9914529914529915, 0.03125, -0.1875, 0.0625, 0.0
625, 0.03418803418803419, -0.9194139194139194, -2.4664224664224665, -0.3125, -0.34375, 0.0, 0.0
626, -1.0488400488400489, -0.19413919413919414, -2.3882783882783882, -0.46875, 0.0, 0.03125, 0.0
627, -0.6361416361416361, 0.09401709401709402, -1.3821733821733821, -0.375, 0.15625, 0.0625, 0.0
628, -0.11355311355311355, -0.24297924297924298, -0.9951159951159951, -0.28125, 0.0625, 0.0625, 0.0
629, -0.08058608058608059, -0.4725274725274725, -1.216117216117216, -0.4375, -0.0625, 0.09375, 0.0
630, -0.30158730158730157, -0.20757020757020758, -0.9706959706959707, -0.5, -0.03125, 0.125, 0.0
631, -0.1452991452991453, -0.08302808302808302, -0.2576312576312576, -0.25, 0.125, 0.15625, 0.0
632, 0.18437118437118438, -0.10256410256410256, 0.1452991452991453, 0.0, 0.34375, 0.0625, 0.0
633, 0.23076923076923078, -0.0695970695970696, 0.19413919413919414, 0.21875, 0.34375, 0.0, 0.0
634, 0.7301587301587301, -0.28815628815628813, 0.19658119658119658, 0.34375, 0.0, 0.0, 0.0
635, 0.6349206349206349, -0.19658119658119658, 0.3968253968253968, 0.4375, -0.3125, -0.03125, 0.0
636, 0.05128205128205128, -0.5164835164835165, -0.2222222222222222, 0.375, -0.09375, -0.125, 1.0
637, -0.10866910866910867, -0.7326007326007326, -1.249084249084249, 0.21875, 0.21875, -0.375, 1.0
638, 0.01098901098901099, -0.442002442002442, -1.1892551892551892, 0.25, 0.0, -0.09375, 1.0
639, 0.34676434676434675, -0.3528693528693529, -1.3113553113553114, 0.34375, -0.0625, -0.03125, 1.0
640, 0.18437118437118438, -0.6715506715506715, -2.5641025641025643, 0.28125, 0.0, -0.03125, 1.0
641, 0.006105006105006105, -0.36385836385836384, -3.36996336996337, 0.0625, 0.0625, -0.125, 1.0
642, -0.6251526251526252, -0.21855921855921856, -4.068376068376068, 0.03125, -0.0625, -0.25, 1.0
643, -2.032967032967033, 0.10256410256410256, -5.1001221001221, 0.28125, 0.0, -0.28125, 1.0
644, -1.9084249084249085, -1.105006105006105, -5.962148962148962, 0.71875, 0.28125, -0.1875, 1.0
645, -1.3797313797313797, -2.336996336996337, -7.108669108669108, 0.5625, 0.53125, 0.03125, 1.0
646, -0.4945054945054945, -2.5103785103785103, -6.763125763125763, -0.125, 0.59375, 0.15625, 1.0
647, -0.16605616605616605, -1.978021978021978, -5.191697191697192, -0.625, 0.5625, 0.1875, 1.0
648, 0.24053724053724054, -1.606837606837607, -3.5921855921855923, -0.5625, 0.34375, 0.21875, 1.0
649, 0.7264957264957265, -1.8766788766788767, -2.515262515262515, -0.3125, -0.09375, 0.34375, 1.0
650, 1.122100122100122, -3.0268620268620268, -3.772893772893773, -0.40625, -0.5625, 0.375, 1.0
651, 0.47863247863247865, -2.9853479853479854, -3.827838827838828, -1.03125, -0.625, 0.1875, 1.0
652, 1.3235653235653235, -3.1697191697191696, -1.916971916971917, -1.46875, -0.4375, 0.1875, 1.0
653, 1.3833943833943834, -2.7777777777777777, -0.3553113553113553, -1.65625, -0.59375, 0.1875, 1.0
654, 0.8229548229548229, -2.5946275946275947, 0.27472527472527475, -1.46875, -0.625, 0.25, 1.0
655, 1.15995115995116, -3.1868131868131866, 0.08302808302808302, -1.34375, -0.15625, 0.0, 1.0
656, 1.021978021978022, -2.1965811965811968, 1.442002442002442, -1.4375, 0.375, -0.53125, 1.0
657, 0.746031746031746, -1.5396825396825398, 2.161172161172161, -1.3125, 0.375, -0.5, 1.0
658, 0.851037851037851, -1.2893772893772895, 2.827838827838828, -1.28125, -0.0625, -0.3125, 1.0
659, 0.19658119658119658, -0.5409035409035409, 2.8754578754578755, -1.34375, -0.375, -0.09375, 1.0
660, -0.4908424908424908, -0.29304029304029305, 2.548229548229548, -1.34375, -0.1875, -0.03125, 1.0
661, -0.4456654456654457, 0.01098901098901099, 3.0805860805860807, -1.28125, 0.25, -0.0625, 1.0
662, -0.007326007326007326, 0.3516483516483517, 3.8644688644688645, -1.21875, 0.375, -0.0625, 1.0
663, -0.31135531135531136, 0.4822954822954823, 4.295482295482295, -0.84375, 0.0, 0.21875, 1.0
664, -0.21611721611721613, 0.19658119658119658, 4.3076923076923075, -0.8125, 0.0, 0.3125, 1.0
665, -0.13064713064713065, 0.23809523809523808, 4.196581196581197, -0.78125, 0.0, 0.34375, 1.0
666, -0.7912087912087912, 0.518925518925519, 4.073260073260073, -0.53125, 0.1875, 0.28125, 1.0
667, -0.5616605616605617, 0.4065934065934066, 4.097680097680097, -0.1875, 0.3125, 0.21875, 1.0
668, 0.029304029304029304, -0.5323565323565324, 3.509157509157509, -0.3125, 0.03125, 0.28125, 1.0
669, 0.06349206349206349, -1.1562881562881564, 2.9365079365079363, -0.75, -0.15625, 0.375, 1.0
670, 0.08180708180708181, -0.5543345543345544, 4.137973137973138, -0.78125, -0.21875, 0.5625, 1.0
671, 0.5494505494505495, -0.1807081807081807, 5.158730158730159, -0.40625, -0.15625, 0.3125, 1.0
672, 0.23687423687423687, -0.1221001221001221, 4.605616605616605, 0.0, 0.125, 0.0625, 1.0
673, 0.3125763125763126, -0.8986568986568987, 3.5702075702075704, 0.03125, 0.09375, 0.0, 0.0
674, -0.23687423687423687, -1.2173382173382172, 2.8656898656898657, -0.3125, 0.0, 0.09375, 0.0
675, -0.4932844932844933, -1.1233211233211233, 2.5067155067155067, -0.71875, 0.03125, 0.15625, 0.0
676, -0.3540903540903541, -0.9963369963369964, 2.873015873015873, -0.78125, -0.03125, 0.1875, 0.0
677, -0.7875457875457875, 0.31135531135531136, 3.3943833943833943, -0.21875, -0.25, 0.15625, 0.0
678, -0.9316239316239316, 0.10012210012210013, 3.2503052503052503, 0.34375, -0.21875, 0.0, 0.0
679, -0.8876678876678876, -0.3833943833943834, 2.4358974358974357, 0.4375, 0.0625, -0.1875, 0.0
680, -0.34798534798534797, -0.8205128205128205, 2.083028083028083, 0.25, 0.21875, -0.21875, 0.0
681, 0.12454212454212454, -1.783882783882784, 2.2918192918192917, -0.1875, 0.15625, -0.0625, 0.0
682, 0.757020757020757, -2.3028083028083026, 3.2503052503052503, -0.53125, -0.25, 0.125, 0.0
683, 0.6642246642246642, -1.84981684981685, 3.7753357753357752, -0.5625, -0.5, 0.09375, 0.0
684, -0.22954822954822954, 0.38705738705738707, 3.26007326007326, 0.09375, -0.0625, -0.25, 0.0
685, -0.8937728937728938, 0.38095238095238093, 2.3846153846153846, 0.5625, 0.625, -0.5625, 0.0
686, -0.7313797313797313, -0.8388278388278388, 2.131868131868132, 0.4375, 0.90625, -0.53125, 0.0
687, 0.43101343101343104, -1.844932844932845, 2.4884004884004884, -0.15625, 0.03125, -0.125, 0.0
688, 0.14652014652014653, 0.3162393162393162, 1.6153846153846154, -0.1875, -0.5625, 0.03125, 0.0
689, -1.1196581196581197, 0.5347985347985348, 0.8058608058608059, 0.03125, -0.3125, 0.03125, 0.0
690, -1.1489621489621489, -0.014652014652014652, 0.7619047619047619, 0.34375, 0.5, -0.15625, 0.0
691, 0.04395604395604396, -0.2686202686202686, 1.089133089133089, 0.46875, 1.15625, -0.1875, 0.0
692, 1.5885225885225884, -0.5897435897435898, 1.7985347985347986, 0.28125, 0.6875, 0.1875, 0.0
693, 0.8742368742368742, 0.029304029304029304, 1.8864468864468864, 0.0625, -0.25, 0.46875, 0.0
694, 0.06227106227106227, 0.7155067155067155, 1.0341880341880343, 0.4375, -0.21875, 0.40625, 0.0
695, 0.19291819291819293, 0.46642246642246643, -0.16117216117216118, 1.03125, 0.46875, 0.03125, 0.0
696, -0.38461538461538464, 0.007326007326007326, -0.6556776556776557, 1.21875, 0.90625, -0.125, 0.0
697, -0.6141636141636142, -0.557997557997558, -0.28083028083028083, 1.15625, 1.09375, 0.0, 0.0
698, 1.0927960927960927, -1.2661782661782661, 0.047619047619047616, 1.0, 1.0, 0.3125, 0.0
699, 1.746031746031746, -1.2173382173382172, -0.15262515262515264, 0.65625, 0.28125, 0.46875, 0.0
700, 0.4078144078144078, -0.5079365079365079, -0.4896214896214896, 0.5625, 0.0625, 0.4375, 0.0
701, -0.3956043956043956, -0.004884004884004884, -0.5653235653235653, 0.75, 0.625, 0.21875, 0.0
702, 0.304029304029304, -0.608058608058608, -1.398046398046398, 1.0, 0.71875, 0.25, 0.0
703, 0.46886446886446886, -0.9511599511599511, -2.155067155067155, 0.9375, -0.15625, 0.1875, 0.0
704, -0.3663003663003663, -1.2478632478632479, -3.3064713064713063, 0.65625, -0.65625, 0.34375, 0.0
705, 0.08058608058608059, -1.2698412698412698, -3.312576312576313, 0.21875, -0.21875, 0.53125, 0.0
706, 0.38217338217338215, -0.01221001221001221, -2.2173382173382175, 0.1875, 0.25, 0.28125, 0.0
707, 0.4065934065934066, -0.3308913308913309, -1.6776556776556777, 0.6875, 0.21875, 0.125, 0.0
708, 0.6556776556776557, -1.6825396825396826, -2.866910866910867, 0.59375, -0.3125, 0.25, 0.0
709, 0.3308913308913309, -1.6043956043956045, -3.896214896214896, 0.03125, -1.0, 0.4375, 0.0
710, -0.6764346764346765, -0.3833943833943834, -3.9206349206349205, -0.375, -0.78125, 0.15625, 0.0
711, -0.6422466422466423, 0.4590964590964591, -2.8302808302808304, -0.03125, -0.25, 0.0, 0.0
712, -0.884004884004884, -0.3137973137973138, -2.885225885225885, 0.6875, -0.15625, 0.03125, 0.0
713, -0.37362637362637363, -1.6312576312576312, -3.7948717948717947, 0.28125, -0.34375, 0.1875, 0.0
714, -0.08424908424908426, -1.9096459096459097, -3.821733821733822, -0.375, -0.40625, 0.15625, 0.0
715, -0.34065934065934067, -0.9706959706959707, -2.843711843711844, -0.59375, -0.0625, 0.09375, 0.0
716, 0.10256410256410256, -0.08669108669108669, -1.1562881562881564, -0.09375, 0.0625, 0.03125, 0.0
717, 0.16605616605616605, -0.3797313797313797, -0.960927960927961, 0.125, 0.03125, 0.0, 0.0
718, 0.05128205128205128, -0.7936507936507936, -1.5152625152625152, -0.09375, 0.0, 0.0, 0.0
719, -0.11721611721611722, -0.5543345543345544, -1.2588522588522588, -0.3125, 0.0, 0.03125, 0.0
720, 0.09401709401709402, -0.09157509157509157, -0.4297924297924298, -0.09375, -0.1875, 0.0625, 0.0
721, -0.004884004884004884, -0.028083028083028084, -0.24664224664224665, 0.21875, -0.21875, 0.0, 0.0
722, -0.030525030525030524, 0.10500610500610501, -0.39194139194139194, 0.59375, -0.125, -0.03125, 0.0
723, -0.02197802197802198, -0.29304029304029305, -0.6483516483516484, 0.6875, 0.0, -0.1875, 1.0
724, -0.1282051282051282, -0.717948717948718, -0.818070818070818, 0.5, 0.09375, -0.25, 1.0
725, 0.39316239316239315, -0.43101343101343104, -0.6800976800976801, 0.375, 0.0, -0.09375, 1.0
726, 0.15873015873015872, -0.7435897435897436, -0.778998778998779, 0.25, -0.125, 0.0, 1.0
727, -0.2661782661782662, -0.1391941391941392, -1.6898656898656899, 0.09375, -0.0625, 0.09375, 1.0
728, -0.2771672771672772, 0.06715506715506715, -2.0317460317460316, 0.28125, -0.125, 0.125, 1.0
729, -0.36507936507936506, -0.5079365079365079, -2.9255189255189253, 0.4375, -0.03125, 0.03125, 1.0
730, -0.6251526251526252, -0.9816849816849816, -4.318681318681318, 0.375, 0.28125, 0.0, 1.0
731, -0.23565323565323565, -0.9474969474969475, -4.645909645909646, 0.40625, 0.34375, 0.0, 1.0
732, -0.21611721611721613, -1.5262515262515262, -5.029304029304029, 0.5, 0.28125, 0.0, 1.0
733, 0.06227106227106227, -2.1587301587301586, -5.536019536019536, 0.46875, 0.125, 0.0, 1.0
734, 0.17704517704517705, -2.838827838827839, -6.26984126984127, 0.03125, 0.0625, -0.25, 1.0
735, -0.05616605616605617, -2.557997557997558, -6.2002442002442, -0.3125, 0.25, -0.375, 1.0
736, -0.07081807081807082, -2.5115995115995116, -5.35042735042735, -0.5, 0.40625, -0.40625, 1.0
737, 0.11965811965811966, -2.4615384615384617, -4.151404151404152, -0.71875, 0.53125, -0.46875, 1.0
738, 1.1746031746031746, -2.827838827838828, -2.913308913308913, -0.8125, 0.3125, -0.40625, 1.0
739, 0.9169719169719169, -2.965811965811966, -2.8180708180708183, -1.03125, -0.09375, -0.4375, 1.0
740, 0.8376068376068376, -2.7484737484737485, -1.7155067155067154, -1.4375, -0.375, -0.28125, 1.0
741, 0.4432234432234432, -2.131868131868132, -0.5286935286935287, -1.65625, -0.5625, -0.125, 1.0
742, 0.6434676434676435, -1.7435897435897436, -0.15995115995115994, -1.71875, -0.375, -0.15625, 1.0
743, 1.315018315018315, -1.3565323565323566, 1.061050061050061, -1.875, -0.15625, -0.4375, 1.0
744, 0.4822954822954823, -0.35653235653235654, 2.4334554334554332, -1.6875, -0.25, -0.59375, 1.0
745, -0.045177045177045176, 0.39438339438339437, 2.9511599511599513, -1.28125, -0.3125, -0.34375, 1.0
746, -0.37606837606837606, 0.21123321123321123, 2.706959706959707, -0.90625, -0.3125, -0.28125, 1.0
747, 0.09401709401709402, -0.6800976800976801, 1.9072039072039073, -0.9375, -0.15625, -0.0625, 1.0
748, 0.15384615384615385, -0.14407814407814407, 2.8253968253968256, -1.34375, -0.375, 0.1875, 1.0
749, -0.17094017094017094, 0.49572649572649574, 3.6617826617826617, -1.28125, -0.625, 0.5, 1.0
750, -0.5921855921855922, 0.08058608058608059, 3.6715506715506714, -0.90625, -0.65625, 0.59375, 1.0
751, 0.2661782661782662, -0.8986568986568987, 3.4188034188034186, -0.5625, -0.0625, 0.28125, 1.0
752, -0.14285714285714285, -0.15018315018315018, 3.6373626373626373, -0.59375, 0.34375, -0.0625, 1.0
753, 0.1562881562881563, -0.442002442002442, 3.8766788766788767, -0.625, 0.46875, 0.125, 1.0
754, -0.05128205128205128, 0.004884004884004884, 4.537240537240537, -0.75, 0.09375, 0.28125, 1.0
755, -0.006105006105006105, -0.42857142857142855, 4.117216117216117, -0.6875, -0.09375, 0.4375, 1.0
756, 0.32234432234432236, -0.16971916971916973, 4.3357753357753355, -0.875, -0.15625, 0.5, 1.0
757, -0.12698412698412698, 0.894993894993895, 5.1892551892551895, -0.6875, -0.03125, 0.3125, 1.0
758, 0.09035409035409035, 0.2893772893772894, 4.442002442002442, -0.21875, 0.1875, 0.125, 1.0
759, 0.009768009768009768, -0.05372405372405373, 3.9084249084249083, -0.1875, 0.15625, 0.0625, 1.0
760, -0.13797313797313798, -0.08302808302808302, 3.7765567765567765, -0.3125, 0.0, 0.15625, 1.0
761, 0.040293040293040296, -0.22954822954822954, 3.2564102564102564, -0.59375, -0.03125, 0.1875, 0.0
762, -0.20024420024420025, -0.34554334554334554, 2.746031746031746, -0.75, 0.03125, 0.1875, 0.0
763, -0.29426129426129427, -0.5873015873015873, 2.1953601953601956, -0.875, 0.1875, 0.125, 0.0
764, -0.11965811965811966, -0.7094017094017094, 2.8046398046398044, -0.8125, 0.15625, 0.0625, 0.0
765, -0.33821733821733824, -0.006105006105006105, 3.6312576312576312, 0.0, -0.03125, -0.0625, 0.0
766, -0.4590964590964591, -0.38705738705738707, 2.6385836385836385, 0.3125, -0.0625, -0.15625, 0.0
767, -0.2783882783882784, -0.6495726495726496, 1.989010989010989, 0.125, 0.0, -0.15625, 0.0
768, -0.14774114774114774, -0.6971916971916972, 2.4334554334554332, -0.09375, 0.03125, -0.125, 0.0
769, -0.3614163614163614, -0.3882783882783883, 2.7374847374847375, -0.09375, 0.15625, -0.0625, 0.0
770, 0.1343101343101343, -0.8559218559218559, 2.938949938949939, -0.03125, 0.03125, 0.0, 0.0
771, 0.702075702075702, -1.0012210012210012, 2.617826617826618, -0.15625, -0.21875, 0.0625, 0.0
772, 0.1221001221001221, -0.8473748473748474, 2.227106227106227, -0.25, -0.15625, 0.0625, 0.0
773, -0.08913308913308914, -1.2844932844932846, 1.7264957264957266, -0.40625, 0.15625, 0.0, 0.0
774, -0.199023199023199, -0.9047619047619048, 2.0317460317460316, -0.4375, 0.3125, -0.03125, 0.0
775, -0.03418803418803419, -0.3504273504273504, 2.7887667887667886, -0.125, 0.1875, -0.0625, 0.0
776, 0.24053724053724054, -0.5531135531135531, 2.6776556776556775, 0.03125, 0.03125, -0.1875, 0.0
777, -0.18315018315018314, -0.326007326007326, 1.9865689865689866, 0.15625, 0.25, -0.21875, 0.0
778, -0.08058608058608059, -0.199023199023199, 1.1892551892551892, 0.15625, 0.46875, -0.25, 0.0
779, -0.014652014652014652, 0.15873015873015872, 1.5225885225885225, 0.21875, 0.375, -0.09375, 0.0
780, 0.07326007326007326, -0.004884004884004884, 2.1306471306471306, 0.25, 0.0625, 0.03125, 0.0
781, 0.2588522588522589, 0.463980463980464, 1.9841269841269842, 0.3125, -0.03125, 0.0625, 0.0
782, 0.575091575091575, 0.27106227106227104, 0.9938949938949939, 0.34375, -0.0625, -0.03125, 0.0
783, -0.518925518925519, 0.42124542124542125, 0.46642246642246643, 0.4375, 0.09375, -0.03125, 0.0
784, -1.120879120879121, 0.7863247863247863, 0.8412698412698413, 0.8125, 0.625, 0.0, 0.0
785, -0.21123321123321123, 0.8852258852258852, 1.380952380952381, 1.03125, 0.53125, 0.21875, 0.0
786, -0.05982905982905983, -0.2625152625152625, -0.9413919413919414, 0.34375, -0.34375, 0.5625, 0.0
787, -1.5738705738705738, 0.6422466422466423, -0.6654456654456654, 0.125, -0.1875, 0.46875, 0.0
788, -1.3663003663003663, 1.0903540903540903, 0.673992673992674, 0.75, 1.03125, 0.21875, 0.0
789, 0.9401709401709402, -0.11721611721611722, 1.3394383394383393, 1.5625, 1.9375, 0.1875, 0.0
790, 3.197802197802198, -2.358974358974359, 0.9133089133089133, 1.28125, 1.21875, 0.40625, 0.0
791, 1.5836385836385836, -1.6935286935286935, 0.0757020757020757, 0.40625, -0.25, 0.65625, 0.0
792, -0.008547008547008548, -0.27228327228327226, -0.9560439560439561, 0.3125, -0.40625, 0.625, 0.0
793, 0.5982905982905983, -0.2503052503052503, -1.9133089133089134, 0.75, 0.375, 0.4375, 0.0
794, 1.1660561660561661, -0.6935286935286935, -1.8046398046398047, 0.90625, 0.46875, 0.1875, 0.0
795, 0.11355311355311355, -0.9694749694749695, -2.352869352869353, 0.78125, 0.03125, 0.0625, 0.0
796, -0.015873015873015872, -1.42002442002442, -3.120879120879121, 0.5625, -0.46875, 0.46875, 0.0
797, 0.9145299145299145, -2.416361416361416, -3.95970695970696, 0.09375, -0.9375, 0.65625, 0.0
798, -0.2979242979242979, -1.1245421245421245, -4.244200244200244, -0.375, -0.9375, 0.40625, 0.0
799, -1.407814407814408, 0.6288156288156288, -4.062271062271062, -0.03125, -0.125, 0.0625, 0.0
800, -0.4065934065934066, -0.7643467643467643, -4.473748473748474, 0.5, 0.25, 0.09375, 0.0
801, -0.5347985347985348, -1.3357753357753357, -4.744810744810745, 0.25, -0.15625, 0.15625, 0.0
802, -0.38705738705738707, -1.3455433455433456, -4.163614163614164, -0.21875, -0.28125, 0.28125, 0.0
803, 0.5873015873015873, -1.1538461538461537, -2.935286935286935, -0.5, -0.21875, 0.25, 0.0
804, 0.9010989010989011, -0.8498168498168498, -2.0793650793650795, -0.40625, -0.21875, 0.03125, 0.0
805, 0.33943833943833945, -0.4810744810744811, -1.3394383394383393, -0.28125, -0.28125, -0.21875, 0.0
806, -1.321123321123321, 0.052503052503052504, -1.3711843711843712, -0.0625, -0.1875, -0.21875, 0.0
807, -0.6349206349206349, -0.3137973137973138, -1.2576312576312576, 0.0625, 0.25, 0.0, 0.0
808, 0.652014652014652, -0.663003663003663, -0.6105006105006106, 0.0, 0.21875, 0.0625, 0.0
809, 0.22466422466422467, -0.14041514041514042, -0.29181929181929184, 0.0, -0.125, 0.03125, 0.0
810, -0.43833943833943834, -0.18803418803418803, -0.6471306471306472, 0.21875, 0.03125, 0.03125, 0.0
811, -0.16361416361416362, -0.22466422466422467, -0.8144078144078144, 0.25, 0.15625, 0.0, 0.0
812, 0.02564102564102564, 0.47985347985347987, -0.23443223443223443, 0.75, 0.0, 0.0, 0.0
813, 0.11965811965811966, 0.13553113553113552, 0.001221001221001221, 1.25, -0.1875, -0.03125, 1.0
814, -0.01221001221001221, -1.0207570207570207, -0.884004884004884, 0.9375, 0.0, 0.0, 1.0
815, 0.22954822954822954, -1.8253968253968254, -1.855921855921856, 0.28125, 0.1875, 0.0, 1.0
816, 0.221001221001221, -0.40293040293040294, -1.5396825396825398, 0.03125, 0.0, 0.03125, 1.0
817, -0.0231990231990232, 0.5470085470085471, -1.0085470085470085, 0.34375, -0.28125, 0.0625, 1.0
818, -0.28815628815628813, 0.3907203907203907, -1.3308913308913308, 0.78125, -0.375, 0.03125, 1.0
819, -0.6031746031746031, -0.6398046398046398, -2.9462759462759465, 0.9375, -0.15625, -0.0625, 1.0
820, -0.9511599511599511, -1.540903540903541, -4.78998778998779, 0.5625, 0.28125, -0.0625, 1.0
821, -0.13553113553113552, -1.564102564102564, -5.249084249084249, 0.28125, 0.40625, -0.03125, 1.0
822, 0.20146520146520147, -1.236874236874237, -4.760683760683761, 0.4375, 0.28125, -0.0625, 1.0
823, 0.29426129426129427, -1.722832722832723, -5.418803418803419, 0.40625, 0.25, -0.09375, 1.0
824, -0.06593406593406594, -1.9926739926739927, -6.424908424908425, 0.1875, 0.1875, -0.25, 1.0
825, -1.2405372405372406, -2.318681318681319, -6.859584859584859, -0.03125, 0.5625, -0.375, 1.0
826, -0.4932844932844933, -1.9609279609279608, -5.398046398046398, 0.0, 0.6875, -0.4375, 1.0
827, 0.5897435897435898, -2.5335775335775335, -4.095238095238095, -0.09375, 0.3125, -0.375, 1.0
828, 0.5946275946275946, -3.192918192918193, -3.9963369963369964, -0.65625, 0.03125, -0.09375, 1.0
829, 0.873015873015873, -2.409035409035409, -2.942612942612943, -0.9375, -0.34375, 0.0, 1.0
830, 0.8583638583638583, -2.832722832722833, -2.231990231990232, -1.09375, -0.625, -0.1875, 1.0
831, 0.0, -2.15995115995116, -1.6800976800976801, -1.0, -0.3125, -0.09375, 1.0
832, 0.9474969474969475, -2.3907203907203907, -0.3431013431013431, -1.03125, -0.4375, -0.09375, 1.0
833, 0.7264957264957265, -2.266178266178266, 0.2576312576312576, -1.0625, -0.5625, 0.09375, 1.0
834, 1.7716727716727716, -2.7533577533577533, -0.12698412698412698, -1.75, -0.875, 0.09375, 1.0
835, 0.7606837606837606, -0.9597069597069597, 2.299145299145299, -1.6875, -0.6875, 0.125, 1.0
836, 0.2869352869352869, -0.9511599511599511, 2.769230769230769, -1.3125, -0.5, 0.125, 1.0
837, 0.3833943833943834, -1.0488400488400489, 2.5750915750915753, -1.21875, -0.1875, 0.15625, 1.0
838, 0.3614163614163614, -0.7838827838827839, 3.2063492063492065, -1.3125, 0.0, 0.0625, 1.0
839, 0.4139194139194139, -0.4261294261294261, 3.733821733821734, -1.21875, 0.0, 0.03125, 1.0
840, 0.0695970695970696, -0.14163614163614163, 4.476190476190476, -1.03125, -0.0625, 0.0, 1.0
841, -0.5286935286935287, 0.08913308913308914, 3.857142857142857, -0.90625, 0.09375, -0.03125, 1.0
842, -0.3162393162393162, 0.2905982905982906, 4.034188034188034, -0.9375, 0.5, 0.0, 1.0
843, 0.03540903540903541, 0.33577533577533575, 5.233211233211233, -0.8125, 0.25, 0.15625, 1.0
844, -0.6410256410256411, 0.9877899877899878, 5.471306471306471, -0.71875, -0.1875, 0.40625, 1.0
845, -0.4908424908424908, 1.4188034188034189, 5.242979242979243, -0.5625, -0.1875, 0.4375, 1.0
846, -0.1221001221001221, 1.4505494505494505, 4.719169719169719, -0.53125, 0.03125, 0.375, 1.0
847, -0.017094017094017096, 0.73992673992674, 4.457875457875458, -0.53125, 0.09375, 0.40625, 1.0
848, -0.25518925518925517, 0.7118437118437119, 4.416361416361417, -0.4375, 0.0, 0.375, 1.0
849, 0.042735042735042736, 0.1221001221001221, 3.6263736263736264, -0.1875, -0.15625, 0.375, 1.0
850, 0.001221001221001221, -0.11965811965811966, 2.4542124542124544, -0.0625, -0.125, 0.34375, 1.0
851, -0.0463980463980464, -0.6398046398046398, 1.7582417582417582, -0.125, 0.0625, 0.25, 0.0
852, -0.2576312576312576, -1.221001221001221, 1.4566544566544566, -0.28125, 0.3125, 0.125, 0.0
853, 0.1562881562881563, -1.7264957264957266, 1.0183150183150182, -0.90625, 0.40625, 0.15625, 0.0
854, -0.11233211233211234, -0.5225885225885226, 1.4700854700854702, -1.65625, 0.40625, 0.15625, 0.0
855, 0.6227106227106227, -0.2576312576312576, 3.536019536019536, -0.53125, -0.03125, 0.0625, 0.0
856, 0.34065934065934067, -0.8217338217338217, 2.1965811965811968, 0.28125, -0.4375, 0.0625, 0.0
857, 0.1916971916971917, -1.2271062271062272, 0.9938949938949939, 0.21875, -0.3125, 0.0, 0.0
858, -0.15262515262515264, -0.6874236874236874, 0.8669108669108669, -0.09375, 0.0, -0.21875, 0.0
859, -0.2783882783882784, -0.1575091575091575, 1.5946275946275947, -0.03125, 0.4375, -0.1875, 0.0
860, 0.5873015873015873, -0.7912087912087912, 2.3736263736263736, 0.0, 0.09375, -0.03125, 0.0
861, 0.3968253968253968, -1.398046398046398, 2.266178266178266, -0.25, -0.09375, 0.0625, 0.0
862, -0.020757020757020756, -1.6617826617826619, 2.3333333333333335, -0.5625, -0.03125, 0.09375, 0.0
863, 0.1452991452991453, -1.5506715506715507, 2.8803418803418803, -0.75, 0.03125, 0.125, 0.0
864, 0.3992673992673993, -0.4236874236874237, 3.645909645909646, -0.5, -0.03125, 0.0, 0.0
865, 0.2039072039072039, 0.514041514041514, 4.35042735042735, 0.0625, 0.09375, -0.25, 0.0
866, 0.18803418803418803, -0.08302808302808302, 3.808302808302808, 0.375, 0.34375, -0.46875, 0.0
867, -0.12576312576312576, -0.8522588522588522, 2.94993894993895, 0.21875, 0.375, -0.53125, 0.0
868, -0.9426129426129426, -1.0622710622710623, 2.1855921855921854, -0.15625, 0.28125, -0.21875, 0.0
869, -0.5274725274725275, -0.35653235653235654, 2.5946275946275947, -0.375, 0.0, 0.0, 0.0
870, 0.16117216117216118, 0.746031746031746, 3.462759462759463, -0.21875, -0.21875, 0.03125, 0.0
871, -0.19291819291819293, 1.7118437118437118, 4.0818070818070815, 0.46875, 0.0, -0.21875, 0.0
872, -1.010989010989011, 1.3247863247863247, 3.293040293040293, 1.03125, 0.625, -0.53125, 0.0
873, -1.6544566544566544, 0.5604395604395604, 2.139194139194139, 1.125, 1.0, -0.375, 0.0
874, -0.7863247863247863, 0.4517704517704518, 1.5592185592185592, 0.84375, 0.625, 0.15625, 0.0
875, 0.29181929181929184, 0.6947496947496947, 1.393162393162393, 0.4375, -0.125, 0.59375, 0.0
876, -0.5396825396825397, 1.6031746031746033, 1.557997557997558, 0.625, -0.03125, 0.59375, 0.0
877, -1.5592185592185592, 1.7252747252747254, 1.2271062271062272, 1.375, 0.875, 0.375, 0.0
878, -0.5775335775335775, -0.11965811965811966, 0.07936507936507936, 1.65625, 1.46875, 0.1875, 0.0
879, 0.6422466422466423, -1.2954822954822955, -0.020757020757020756, 1.21875, 1.125, 0.40625, 0.0
880, 1.3785103785103785, -1.0744810744810744, 0.8327228327228328, 0.78125, 0.5, 0.90625, 0.0
881, 2.0732600732600734, -1.2661782661782661, 1.0622710622710623, 0.5625, -0.0625, 1.09375, 0.0
882, 1.835164835164835, -1.6043956043956045, -0.48473748473748474, 0.4375, -0.625, 1.0625, 0.0
883, 0.17704517704517705, -1.7655677655677655, -1.735042735042735, 0.75, 0.125, 0.28125, 0.0
884, 1.242979242979243, -2.374847374847375, -2.445665445665446, 1.03125, 0.90625, 0.40625, 0.0
885, 2.457875457875458, -2.7655677655677655, -2.84981684981685, 0.5, 0.125, 0.5625, 0.0
886, -0.19658119658119658, -1.2954822954822955, -2.873015873015873, -0.25, -1.375, 0.6875, 0.0
887, -2.553113553113553, -0.19413919413919414, -3.272283272283272, -0.15625, -1.34375, 0.5, 0.0
888, -1.347985347985348, -0.6971916971916972, -3.2673992673992673, 0.53125, -0.03125, 0.125, 0.0
889, 0.23565323565323565, -1.3174603174603174, -3.5665445665445668, 0.84375, 0.625, 0.03125, 0.0
890, 0.4126984126984127, -1.5152625152625152, -3.8534798534798536, 0.71875, 0.21875, 0.15625, 0.0
891, -0.6568986568986569, -1.4896214896214897, -4.6300366300366305, 0.34375, -0.375, 0.21875, 0.0
892, -0.48473748473748474, -2.2918192918192917, -5.377289377289378, 0.09375, -0.5, 0.3125, 0.0
893, 0.031746031746031744, -2.1794871794871793, -4.945054945054945, -0.25, -0.25, 0.125, 0.0
894, 0.28205128205128205, -1.1892551892551892, -3.802197802197802, -0.4375, -0.03125, 0.03125, 0.0
895, 0.10012210012210013, -0.36752136752136755, -2.5518925518925517, -0.21875, 0.0, -0.03125, 0.0
896, 0.026862026862026864, -0.7509157509157509, -2.590964590964591, 0.0, 0.09375, 0.0, 0.0
897, 0.04151404151404151, -0.8327228327228328, -2.6483516483516483, -0.03125, 0.09375, 0.0, 0.0
898, -0.5054945054945055, -0.4652014652014652, -2.3150183150183152, -0.15625, 0.03125, -0.03125, 0.0
899, -0.525030525030525, -0.3235653235653236, -1.822954822954823, -0.21875, 0.1875, -0.03125, 0.0
900, 0.031746031746031744, -0.20024420024420025, -1.006105006105006, -0.15625, 0.1875, 0.0625, 0.0
901, -0.0757020757020757, -0.22954822954822954, -0.5775335775335775, 0.0, 0.0, 0.09375, 0.0
902, -0.17582417582417584, -0.13553113553113552, -0.7655677655677655, 0.125, 0.09375, 0.03125, 0.0
903, 0.43101343101343104, 0.18192918192918192, -0.17582417582417584, 0.4375, 0.125, 0.0, 0.0
904, 0.02564102564102564, 0.052503052503052504, 0.23809523809523808, 1.0625, -0.15625, -0.09375, 1.0
905, -0.7350427350427351, -0.1452991452991453, -0.8522588522588522, 1.5, -0.125, 0.125, 1.0
906, -0.042735042735042736, -1.3296703296703296, -2.183150183150183, 1.5, 0.0625, 0.1875, 1.0
907, -0.004884004884004884, -2.8241758241758244, -4.233211233211233, 0.78125, 0.3125, 0.1875, 1.0
908, 0.2967032967032967, -1.89010989010989, -3.971916971916972, -0.53125, 0.34375, 0.375, 1.0
909, 0.9145299145299145, -0.0231990231990232, -2.313797313797314, 0.0, -0.3125, 0.3125, 1.0
910, -0.575091575091575, -1.0354090354090355, -3.7814407814407813, 0.75, -0.28125, 0.03125, 1.0
911, -0.9426129426129426, -1.8644688644688645, -5.42002442002442, 1.0625, 0.21875, 0.0, 1.0
912, 0.11965811965811966, -2.358974358974359, -5.108669108669108, 1.09375, 0.03125, 0.03125, 1.0
913, 0.2686202686202686, -2.8205128205128207, -5.147741147741148, 0.75, -0.40625, -0.0625, 1.0
914, -0.8083028083028083, -2.8473748473748475, -5.724053724053724, 0.28125, -0.25, -0.28125, 1.0
915, -0.8644688644688645, -2.700854700854701, -4.21978021978022, 0.15625, 0.0, -0.3125, 1.0
916, -0.2857142857142857, -2.6092796092796093, -3.3943833943833943, 0.0, 0.0, -0.34375, 1.0
917, -0.06349206349206349, -2.572649572649573, -2.9584859584859586, -0.09375, -0.09375, -0.5, 1.0
918, -0.18681318681318682, -2.744810744810745, -3.4249084249084247, -0.53125, -0.1875, -0.5625, 1.0
919, -0.17338217338217338, -2.283272283272283, -2.8046398046398044, -0.90625, -0.40625, -0.4375, 1.0
920, 0.13675213675213677, -2.5665445665445668, -2.122100122100122, -1.28125, -0.5, -0.375, 1.0
921, -0.5347985347985348, -2.52014652014652, -2.5238095238095237, -1.9375, 0.0, -0.40625, 1.0
922, -0.4932844932844933, -1.6581196581196582, -1.5286935286935286, -2.28125, 0.4375, -0.15625, 1.0
923, 1.10989010989011, -0.8608058608058609, 1.4713064713064714, -1.96875, -0.0625, 0.09375, 1.0
924, 0.9523809523809523, -0.9499389499389499, 2.064713064713065, -1.71875, -0.625, 0.40625, 1.0
925, 0.7252747252747253, -1.1355311355311355, 1.3797313797313797, -1.65625, -0.46875, 0.4375, 1.0
926, 0.575091575091575, -0.37606837606837606, 1.6654456654456655, -1.46875, 0.0, 0.21875, 1.0
927, 0.7557997557997558, -0.32844932844932845, 2.6764346764346763, -1.34375, 0.25, 0.1875, 1.0
928, 0.47985347985347987, -0.38705738705738707, 3.326007326007326, -1.34375, 0.28125, 0.1875, 1.0
929, 0.42002442002442003, -0.7545787545787546, 3.3675213675213675, -1.46875, 0.25, 0.28125, 1.0
930, 0.409035409035409, 0.10256410256410256, 4.527472527472527, -1.34375, 0.09375, 0.28125, 1.0
931, -0.07326007326007326, 0.5323565323565324, 5.062271062271062, -1.03125, 0.21875, 0.28125, 1.0
932, 0.047619047619047616, 0.1807081807081807, 4.666666666666667, -0.875, 0.21875, 0.3125, 1.0
933, -0.057387057387057384, 0.42246642246642246, 4.656898656898657, -0.96875, 0.03125, 0.3125, 1.0
934, 0.3089133089133089, 0.5518925518925519, 4.943833943833944, -1.09375, 0.125, 0.375, 1.0
935, -0.10866910866910867, 0.7741147741147741, 5.194139194139194, -1.0625, 0.03125, 0.3125, 1.0
936, -0.040293040293040296, 0.23443223443223443, 4.394383394383395, -0.65625, 0.15625, 0.1875, 1.0
937, -0.047619047619047616, 0.22832722832722832, 3.518925518925519, -0.5625, 0.09375, 0.0625, 1.0
938, -0.2222222222222222, 1.347985347985348, 3.7826617826617825, -0.71875, -0.03125, 0.15625, 1.0
939, -0.3064713064713065, 1.3992673992673992, 3.6092796092796093, -0.6875, -0.125, 0.21875, 1.0
940, -0.6642246642246642, 1.0048840048840049, 3.184371184371184, -0.53125, 0.0625, 0.09375, 1.0
941, -0.34554334554334554, 0.28205128205128205, 3.1477411477411477, -0.46875, 0.28125, -0.03125, 1.0
942, -0.01098901098901099, 0.5970695970695971, 3.716727716727717, -0.53125, 0.21875, -0.0625, 0.0
943, 0.009768009768009768, -0.05982905982905983, 3.2246642246642248, -0.34375, -0.1875, 0.0, 0.0
944, -0.47496947496947495, -0.5482295482295483, 2.313797313797314, -0.25, -0.28125, -0.03125, 0.0
945, -0.4932844932844933, -0.6019536019536019, 1.8522588522588523, -0.375, -0.0625, -0.0625, 0.0
946, -0.7509157509157509, -0.78998778998779, 1.9682539682539681, -0.5625, 0.0625, -0.125, 0.0
947, -0.09523809523809523, -0.05372405372405373, 3.1013431013431014, -0.40625, 0.125, -0.09375, 0.0
948, 0.25274725274725274, -0.4163614163614164, 3.7020757020757022, 0.0, -0.21875, -0.0625, 0.0
949, -0.3724053724053724, -0.6202686202686203, 2.761904761904762, 0.1875, -0.28125, -0.1875, 0.0
950, -0.04151404151404151, -1.3492063492063493, 2.468864468864469, 0.0, -0.03125, -0.21875, 0.0
951, -0.27228327228327226, -0.5152625152625152, 2.713064713064713, -0.21875, -0.0625, -0.28125, 0.0
952, -0.3516483516483517, 0.8974358974358975, 3.1343101343101343, 0.0, 0.09375, -0.46875, 0.0
953, -0.2857142857142857, 0.8534798534798534, 3.242979242979243, 0.40625, 0.4375, -0.65625, 0.0
954, 0.05860805860805861, -0.463980463980464, 2.7765567765567765, 0.59375, 0.5, -0.625, 0.0
955, -0.3333333333333333, -1.452991452991453, 2.1965811965811968, 0.25, 0.125, -0.4375, 0.0
956, -0.14163614163614163, -0.17826617826617827, 2.578754578754579, -0.15625, -0.09375, -0.09375, 0.0
957, -0.14774114774114774, 1.0207570207570207, 2.716727716727717, -0.03125, 0.0, -0.125, 0.0
958, -0.6862026862026862, 1.7912087912087913, 2.617826617826618, 0.53125, 0.28125, -0.25, 0.0
959, -1.3137973137973138, 1.2234432234432235, 2.1452991452991452, 0.96875, 0.6875, -0.34375, 0.0
960, -0.7826617826617827, 0.43833943833943834, 1.5714285714285714, 0.90625, 0.90625, -0.21875, 0.0
961, 0.02197802197802198, 0.10134310134310134, 1.4273504273504274, 0.40625, 0.4375, 0.15625, 0.0
962, -0.19047619047619047, 0.47496947496947495, 1.3601953601953602, 0.21875, 0.0, 0.4375, 0.0
963, -0.800976800976801, 1.054945054945055, 1.3455433455433456, 0.78125, 0.25, 0.46875, 0.0
964, -0.57997557997558, 0.47741147741147744, 0.1794871794871795, 1.28125, 0.6875, 0.375, 0.0
965, -0.10744810744810745, -0.9157509157509157, -1.2271062271062272, 1.0625, 0.9375, 0.375, 0.0
966, 0.18192918192918192, -1.4786324786324787, -0.7631257631257631, 0.65625, 1.0625, 0.5625, 0.0
967, 1.352869352869353, -1.4114774114774116, 0.4517704517704518, 0.53125, 0.8125, 0.71875, 0.0
968, 2.4774114774114775, -1.2478632478632479, 0.23076923076923078, 0.65625, 0.0625, 0.71875, 0.0
969, 1.105006105006105, -1.1697191697191698, -1.1721611721611722, 0.8125, -0.15625, 0.4375, 0.0
970, -0.43101343101343104, -1.0305250305250304, -2.0256410256410255, 0.75, 0.5, 0.25, 0.0
971, 0.19291819291819293, -1.137973137973138, -1.4981684981684982, 0.53125, 0.875, 0.53125, 0.0
972, 2.385836385836386, -1.4676434676434675, -1.155067155067155, 0.28125, -0.03125, 0.46875, 0.0
973, 1.4676434676434675, -1.0427350427350428, -1.277167277167277, 0.28125, -0.78125, 0.25, 0.0
974, -0.47985347985347987, -1.0805860805860805, -1.9181929181929183, 0.46875, -0.53125, 0.0625, 0.0
975, -1.2759462759462759, -1.1416361416361416, -2.960927960927961, 0.40625, -0.03125, 0.40625, 0.0
976, 0.007326007326007326, -0.7301587301587301, -3.183150183150183, 0.03125, -0.125, 0.375, 0.0
977, 0.39316239316239315, -0.3540903540903541, -2.912087912087912, 0.0, -0.59375, 0.40625, 0.0
978, -0.07692307692307693, -0.5396825396825397, -2.601953601953602, 0.3125, -0.8125, 0.34375, 0.0
979, -0.30158730158730157, -1.5445665445665446, -3.6092796092796093, 0.375, -0.53125, 0.34375, 0.0
980, -0.14652014652014653, -1.7448107448107448, -3.9645909645909647, 0.15625, -0.0625, 0.21875, 0.0
981, 0.6336996336996337, -1.783882783882784, -3.1343101343101343, -0.09375, 0.0, 0.09375, 0.0
982, 0.16483516483516483, -0.7130647130647131, -2.172161172161172, 0.125, -0.28125, 0.0625, 0.0
983, -0.7130647130647131, -0.9584859584859585, -3.0, 0.3125, -0.3125, 0.03125, 0.0
984, -0.8962148962148963, -0.8156288156288156, -3.2405372405372406, 0.3125, 0.15625, 0.0, 0.0
985, 0.3894993894993895, -1.264957264957265, -2.822954822954823, 0.15625, 0.46875, 0.03125, 0.0
986, 0.9536019536019537, -0.9804639804639804, -1.8424908424908424, -0.09375, 0.0, 0.09375, 0.0
987, -0.33943833943833945, -0.17704517704517705, -1.52014652014652, -0.15625, -0.34375, 0.0625, 0.0
988, -0.9865689865689866, -0.07936507936507936, -1.4456654456654456, 0.03125, 0.0, 0.03125, 0.0
989, -0.11843711843711843, -0.6214896214896215, -1.0854700854700854, 0.09375, 0.34375, 0.0, 0.0
990, 0.41514041514041516, -0.21733821733821734, -0.6507936507936508, 0.0, 0.15625, 0.0, 0.0
991, -0.15506715506715507, 0.5372405372405372, 0.03785103785103785, 0.125, -0.21875, 0.0, 0.0
992, -0.4456654456654457, 0.8437118437118437, 0.398046398046398, 0.75, -0.375, 0.0625, 1.0
993, -0.03418803418803419, -0.41025641025641024, -0.221001221001221, 1.4375, -0.28125, -0.0625, 1.0
994, -0.5433455433455433, -1.5677655677655677, -2.3394383394383396, 1.1875, 0.1875, -0.3125, 1.0
995, 0.9328449328449329, -2.5494505494505493, -3.126984126984127, 0.125, 0.59375, -0.09375, 1.0
996, 0.9987789987789988, -0.4078144078144078, -1.6202686202686203, -0.78125, 0.0, 0.0, 1.0
997, -0.6202686202686203, 0.21367521367521367, -1.078144078144078, -0.28125, -0.65625, 0.0625, 1.0
998, -0.8229548229548229, -1.0207570207570207, -2.918192918192918, 0.4375, -0.3125, 0.0, 1.0
999, -0.08180708180708181, -1.6532356532356531, -4.039072039072039, 0.625, 0.09375, -0.0625, 1.0
1000, 0.05128205128205128, -1.7008547008547008, -4.075702075702075, 0.6875, 0.125, -0.125, 1.0
1001, -0.10622710622710622, -2.2295482295482296, -4.6239316239316235, 0.75, 0.09375, -0.09375, 1.0
1002, -0.21733821733821734, -2.5750915750915753, -5.451770451770452, 0.625, 0.1875, -0.125, 1.0
1003, -0.34798534798534797, -2.7765567765567765, -5.474969474969475, 0.5, 0.3125, -0.3125, 1.0
1004, 0.442002442002442, -2.5946275946275947, -4.4945054945054945, 0.25, 0.375, -0.40625, 1.0
1005, -0.17338217338217338, -2.1648351648351647, -4.669108669108669, -0.0625, 0.15625, -0.40625, 1.0
1006, -0.1575091575091575, -2.1904761904761907, -4.446886446886447, -0.375, -0.15625, -0.21875, 1.0
1007, -0.13553113553113552, -2.283272283272283, -3.8803418803418803, -0.6875, -0.40625, -0.09375, 1.0
1008, 0.41025641025641024, -2.4297924297924296, -2.7387057387057387, -0.9375, -0.65625, 0.0, 1.0
1009, 0.221001221001221, -2.6715506715506714, -2.653235653235653, -1.25, -0.375, -0.0625, 1.0
1010, 0.6642246642246642, -2.413919413919414, -1.619047619047619, -1.3125, -0.0625, -0.15625, 1.0
1011, 1.2588522588522588, -2.0720390720390722, 0.050061050061050064, -1.1875, -0.3125, -0.125, 1.0
1012, 1.551892551892552, -2.288156288156288, 0.23565323565323565, -1.34375, -0.65625, 0.0625, 1.0
1013, 1.7985347985347986, -2.416361416361416, 0.12942612942612944, -1.75, -0.8125, 0.1875, 1.0
1014, 1.2026862026862026, -1.8754578754578755, 0.8693528693528694, -1.96875, -0.65625, 0.03125, 1.0
1015, 0.3076923076923077, -0.5885225885225885, 1.5848595848595848, -1.75, -0.1875, 0.0, 1.0
1016, 0.5262515262515263, -0.3064713064713065, 2.2576312576312576, -1.5, -0.03125, -0.03125, 1.0
1017, 0.4053724053724054, 0.1452991452991453, 3.0463980463980462, -1.21875, -0.21875, 0.21875, 1.0
1018, 0.2783882783882784, -0.15873015873015872, 3.0024420024420024, -1.21875, -0.4375, 0.40625, 1.0
1019, 0.10989010989010989, -0.3724053724053724, 2.658119658119658, -1.375, -0.21875, 0.3125, 1.0
1020, -0.11355311355311355, 0.050061050061050064, 3.4017094017094016, -1.28125, 0.28125, 0.03125, 1.0
1021, 0.03418803418803419, 0.34676434676434675, 4.417582417582418, -0.9375, 0.5625, 0.0, 1.0
1022, 0.28083028083028083, 0.442002442002442, 4.406593406593407, -0.71875, 0.34375, 0.0625, 1.0
1023, -0.05860805860805861, 0.7167277167277167, 4.285714285714286, -0.65625, 0.1875, 0.1875, 1.0
1024, 0.10744810744810745, 0.41025641025641024, 4.078144078144078, -0.84375, 0.0, 0.375, 1.0
1025, 0.19291819291819293, 0.20512820512820512, 4.084249084249084, -1.09375, -0.03125, 0.4375, 1.0
1026, 0.11843711843711843, 0.36507936507936506, 4.575091575091575, -0.9375, 0.25, 0.25, 1.0
1027, 0.6837606837606838, 0.717948717948718, 5.896214896214897, -0.40625, 0.21875, 0.15625, 1.0
1028, 0.7008547008547008, 0.8620268620268621, 5.336996336996337, -0.1875, 0.0, 0.15625, 1.0
1029, 0.35653235653235654, -0.01098901098901099, 3.3076923076923075, -0.28125, -0.15625, 0.25, 1.0
1030, -0.3956043956043956, -0.15262515262515264, 1.945054945054945, -0.53125, -0.0625, 0.125, 1.0
1031, -0.221001221001221, 1.1196581196581197, 4.249084249084249, -0.28125, 0.4375, -0.125, 0.0
1032, 0.1623931623931624, -0.1575091575091575, 3.3284493284493286, -0.125, 0.3125, -0.15625, 0.0
1033, -0.15384615384615385, -0.6727716727716728, 1.9963369963369964, -0.6875, 0.03125, 0.03125, 0.0
1034, -0.36752136752136755, -0.06349206349206349, 2.688644688644689, -1.5, 0.15625, 0.1875, 0.0
1035, 0.7106227106227107, 0.8278388278388278, 5.621489621489621, -0.90625, 0.0625, 0.15625, 0.0
1036, 0.6105006105006106, 0.36996336996337, 5.315018315018315, 0.0, -0.40625, 0.0, 0.0
1037, -0.029304029304029304, -0.10622710622710622, 3.525030525030525, 0.375, -0.28125, -0.21875, 0.0
1038, 0.2258852258852259, -0.6507936507936508, 2.938949938949939, 0.46875, 0.03125, -0.375, 0.0
1039, 0.1221001221001221, -0.5946275946275946, 2.948717948717949, 0.34375, 0.125, -0.4375, 0.0
1040, 0.3601953601953602, -0.5262515262515263, 2.8485958485958487, 0.1875, 0.03125, -0.3125, 0.0
1041, 0.10378510378510379, -0.33943833943833945, 2.5213675213675213, 0.0, -0.125, -0.1875, 0.0
1042, -0.21001221001221002, -0.4078144078144078, 2.249084249084249, -0.125, -0.25, -0.15625, 0.0
1043, -0.36996336996337, -0.3797313797313797, 2.144078144078144, -0.21875, -0.15625, -0.28125, 0.0
1044, -0.38583638583638585, 0.8388278388278388, 2.9413919413919416, 0.0, 0.25, -0.46875, 0.0
1045, 0.34676434676434675, 0.2039072039072039, 3.017094017094017, 0.375, 0.40625, -0.46875, 0.0
1046, 0.57997557997558, -0.38583638583638585, 2.503052503052503, 0.34375, 0.03125, -0.375, 0.0
1047, -0.29426129426129427, -0.17704517704517705, 1.7545787545787546, 0.21875, -0.28125, -0.28125, 0.0
1048, -0.14774114774114774, 0.029304029304029304, 0.3064713064713065, 0.28125, -0.3125, -0.1875, 0.0
1049, -0.6446886446886447, 0.5347985347985348, -0.030525030525030524, 0.09375, -0.15625, -0.125, 0.0
1050, -0.4261294261294261, 0.7557997557997558, 1.2185592185592184, 0.0, 0.25, 0.0, 0.0
1051, -0.10256410256410256, 1.0036630036630036, 2.098901098901099, 0.375, 0.53125, -0.03125, 0.0
1052, 0.18315018315018314, 0.12332112332112333, 1.0708180708180708, 0.84375, 0.375, 0.09375, 0.0
1053, -0.1978021978021978, 0.2600732600732601, 0.29426129426129427, 0.6875, 0.1875, 0.15625, 0.0
1054, -0.24664224664224665, 0.9206349206349206, 0.6984126984126984, 0.53125, 0.53125, 0.09375, 0.0
1055, 0.16361416361416362, 0.978021978021978, 0.13675213675213677, 0.9375, 1.0, 0.09375, 0.0
1056, 0.23321123321123322, -0.24297924297924298, -1.3919413919413919, 1.03125, 0.5625, 0.25, 0.0
1057, -0.3089133089133089, -1.2454212454212454, -1.982905982905983, 0.6875, 0.34375, 0.375, 0.0
1058, -1.0402930402930404, -0.8717948717948718, -1.0976800976800978, 0.53125, 0.96875, 0.28125, 0.0
1059, 0.463980463980464, -0.9157509157509157, -0.10256410256410256, 0.46875, 1.21875, 0.34375, 0.0
1060, 1.910866910866911, -1.155067155067155, -0.6043956043956044, 0.21875, 0.40625, 0.46875, 0.0
1061, 0.9938949938949939, -0.9523809523809523, -1.5824175824175823, -0.09375, -0.125, 0.5625, 0.0
1062, -0.5677655677655677, -0.29304029304029305, -1.6251526251526252, -0.09375, 0.40625, 0.34375, 0.0
1063, -1.4468864468864469, 0.23565323565323565, -1.7863247863247864, 0.40625, 1.5, 0.15625, 0.0
1064, 0.9316239316239316, -0.6373626373626373, -1.6092796092796093, 0.8125, 1.28125, 0.40625, 0.0
1065, 3.2783882783882783, -2.363858363858364, -1.6703296703296704, 0.25, -0.34375, 0.5, 0.0
1066, 1.4725274725274726, -1.531135531135531, -2.057387057387057, -0.21875, -1.25, 0.53125, 0.0
1067, -1.4188034188034189, 0.32112332112332115, -2.7203907203907205, -0.0625, -0.5, 0.375, 0.0
1068, -1.3492063492063493, -0.07692307692307693, -3.358974358974359, 0.1875, 0.1875, 0.3125, 0.0
1069, 0.5067155067155067, -1.7692307692307692, -3.3724053724053724, 0.125, -0.28125, 0.28125, 0.0
1070, 0.4542124542124542, -2.326007326007326, -3.498168498168498, -0.09375, -0.78125, 0.15625, 0.0
1071, -0.663003663003663, -1.8632478632478633, -4.3003663003663, -0.40625, -0.4375, 0.34375, 0.0
1072, -0.23565323565323565, -1.4884004884004884, -4.067155067155067, -0.8125, 0.03125, 0.28125, 0.0
1073, 0.057387057387057384, -0.37606837606837606, -2.6910866910866913, -0.5625, 0.125, 0.1875, 0.0
1074, -0.0231990231990232, -0.4603174603174603, -1.663003663003663, -0.03125, 0.125, 0.0625, 0.0
1075, 0.2087912087912088, -1.2197802197802199, -2.0854700854700856, 0.03125, 0.09375, 0.09375, 0.0
1076, 0.4188034188034188, -1.667887667887668, -2.1794871794871793, -0.21875, 0.125, 0.125, 0.0
1077, 0.336996336996337, -1.0073260073260073, -1.5909645909645909, -0.34375, 0.25, 0.0, 0.0
1078, 0.5531135531135531, -0.1221001221001221, -0.5836385836385837, 0.0, 0.03125, 0.0, 0.0
1079, 0.10378510378510379, 0.0757020757020757, -0.398046398046398, 0.8125, -0.21875, 0.0, 0.0
1080, -0.16483516483516483, -0.6312576312576312, -0.39438339438339437, 1.25, -0.25, 0.0, 1.0
1081, 0.05128205128205128, -0.33577533577533575, -1.1868131868131868, 1.0625, -0.03125, -0.03125, 1.0
1082, -0.12454212454212454, -0.38461538461538464, -1.4932844932844933, 0.96875, -0.0625, -0.03125, 1.0
1083, -0.47374847374847373, -1.2075702075702075, -2.606837606837607, 0.6875, 0.09375, -0.0625, 1.0
1084, -0.2698412698412698, -0.5164835164835165, -2.695970695970696, 0.0, 0.40625, -0.03125, 1.0
1085, -0.09768009768009768, -0.04395604395604396, -2.076923076923077, 0.03125, 0.21875, -0.03125, 1.0
1086, -0.36752136752136755, -0.8547008547008547, -3.1575091575091574, 0.46875, 0.0625, 0.0, 1.0
1087, -0.042735042735042736, -1.5299145299145298, -4.583638583638583, 0.75, 0.21875, -0.03125, 1.0
1088, 0.8376068376068376, -2.0781440781440783, -5.221001221001221, 0.875, 0.21875, -0.125, 1.0
1089, 0.3516483516483517, -2.402930402930403, -5.52991452991453, 0.71875, 0.0, -0.3125, 1.0
1090, -0.4053724053724054, -2.028083028083028, -5.442002442002442, 0.5, -0.03125, -0.3125, 1.0
1091, -1.1953601953601953, -2.061050061050061, -5.937728937728938, 0.3125, 0.21875, -0.34375, 1.0
1092, 0.13553113553113552, -1.595848595848596, -4.661782661782662, 0.0, 0.4375, -0.28125, 1.0
1093, 0.2588522588522589, -2.3028083028083026, -3.827838827838828, -0.15625, -0.03125, -0.375, 1.0
1094, 0.11477411477411477, -2.2246642246642248, -3.5042735042735043, -0.46875, -0.1875, -0.3125, 1.0
1095, 0.6984126984126984, -2.3345543345543347, -2.7814407814407813, -0.625, -0.09375, -0.21875, 1.0
1096, 0.46764346764346765, -2.0463980463980462, -2.045177045177045, -0.84375, -0.25, -0.25, 1.0
1097, 0.1343101343101343, -1.6080586080586081, -1.3626373626373627, -0.90625, -0.375, -0.1875, 1.0
1098, 0.14163614163614163, -1.5555555555555556, -1.3736263736263736, -0.96875, -0.40625, -0.15625, 1.0
1099, 0.43223443223443225, -1.4456654456654456, -0.575091575091575, -1.1875, -0.59375, -0.03125, 1.0
1100, -0.08791208791208792, -0.9487179487179487, -0.28327228327228327, -1.40625, -0.65625, 0.0625, 1.0
1101, 0.35653235653235654, -0.8168498168498168, 0.7289377289377289, -1.46875, -0.375, 0.21875, 1.0
1102, 0.4444444444444444, -0.612942612942613, 1.4884004884004884, -1.375, -0.28125, 0.125, 1.0
1103, 0.3418803418803419, 0.03540903540903541, 2.15018315018315, -1.25, -0.21875, 0.03125, 1.0
1104, 0.7582417582417582, 0.05372405372405373, 2.84981684981685, -0.84375, -0.46875, 0.21875, 1.0
1105, 0.5970695970695971, -0.6117216117216118, 2.4822954822954824, -0.84375, -0.5, 0.3125, 1.0
1106, 0.3663003663003663, -0.7350427350427351, 1.978021978021978, -1.09375, -0.21875, 0.34375, 1.0
1107, 0.6202686202686203, -0.6373626373626373, 2.045177045177045, -1.375, -0.125, 0.3125, 1.0
1108, -0.30158730158730157, 0.43345543345543347, 2.857142857142857, -1.125, 0.0, 0.28125, 1.0
1109, -0.2515262515262515, 0.1807081807081807, 3.3504273504273505, -0.625, 0.1875, 0.1875, 1.0
1110, 0.2967032967032967, -0.5177045177045178, 3.0073260073260073, -0.625, 0.1875, 0.09375, 1.0
1111, 0.26373626373626374, -0.13797313797313798, 3.0463980463980462, -0.84375, 0.125, 0.15625, 1.0
1112, 0.03296703296703297, 0.32722832722832723, 3.42002442002442, -1.0, 0.125, 0.15625, 1.0
1113, -0.08547008547008547, 0.6373626373626373, 3.1184371184371185, -1.0625, 0.1875, 0.3125, 1.0
1114, 0.18803418803418803, 0.40293040293040294, 3.3443223443223444, -0.96875, 0.03125, 0.34375, 1.0
1115, 0.2454212454212454, 0.5323565323565324, 3.5115995115995116, -0.84375, 0.03125, 0.1875, 1.0
1116, 0.23443223443223443, 1.4993894993894994, 4.525030525030525, -0.5, 0.0625, 0.0625, 1.0
1117, 0.1684981684981685, 0.8937728937728938, 4.521367521367521, -0.1875, 0.03125, 0.0, 1.0
1118, 0.11477411477411477, 0.01098901098901099, 2.855921855921856, -0.375, 0.0625, 0.0, 1.0
1119, -0.27472527472527475, 0.4346764346764347, 2.47985347985348, -0.625, 0.0625, 0.03125, 1.0
1120, -0.16727716727716727, 0.7203907203907204, 3.5811965811965814, -0.59375, -0.15625, 0.09375, 1.0
1121, -0.6605616605616605, 0.8144078144078144, 3.659340659340659, -0.46875, -0.1875, 0.125, 0.0
1122, -0.42002442002442003, -0.12087912087912088, 3.0463980463980462, -0.65625, -0.125, 0.09375, 0.0
1123, -0.9731379731379731, 0.34798534798534797, 2.440781440781441, -0.78125, 0.09375, 0.0, 0.0
1124, -0.6800976800976801, 1.448107448107448, 3.9853479853479854, -0.125, 0.0625, -0.09375, 0.0
1125, -0.43345543345543347, 0.6800976800976801, 4.473748473748474, 0.28125, -0.21875, -0.03125, 0.0
1126, -0.8290598290598291, 0.21611721611721613, 2.8424908424908426, 0.21875, -0.125, 0.0, 0.0
1127, -0.3663003663003663, -0.5177045177045178, 2.1343101343101343, -0.03125, -0.09375, 0.03125, 0.0
1128, -0.1391941391941392, -0.717948717948718, 2.2014652014652016, -0.0625, -0.1875, 0.0625, 0.0
1129, -0.30158730158730157, -0.27350427350427353, 2.567765567765568, 0.03125, -0.3125, 0.0625, 0.0
1130, -0.19047619047619047, -0.8571428571428571, 2.0842490842490844, 0.03125, -0.1875, -0.03125, 0.0
1131, -0.336996336996337, -1.326007326007326, 1.6654456654456655, -0.125, 0.15625, -0.28125, 0.0
1132, 0.013431013431013432, -0.6874236874236874, 2.3003663003663, -0.21875, 0.5, -0.375, 0.0
1133, 0.6275946275946276, -0.5213675213675214, 2.7704517704517704, -0.125, 0.34375, -0.34375, 0.0
1134, 0.7387057387057387, -0.3614163614163614, 2.5873015873015874, -0.09375, -0.0625, -0.1875, 0.0
1135, -0.21123321123321123, -0.4163614163614164, 1.4835164835164836, -0.1875, -0.15625, -0.25, 0.0
1136, -0.7289377289377289, -0.833943833943834, 0.7863247863247863, -0.3125, 0.21875, -0.25, 0.0
1137, 0.23321123321123322, -0.5238095238095238, 1.5189255189255189, -0.4375, 0.46875, -0.0625, 0.0
1138, 1.05006105006105, 0.16483516483516483, 3.238095238095238, -0.28125, 0.125, 0.03125, 0.0
1139, 0.8974358974358975, -0.18315018315018314, 3.0525030525030523, 0.09375, -0.3125, 0.0, 0.0
1140, -0.38217338217338215, -0.6666666666666666, 1.3736263736263736, 0.34375, -0.375, -0.1875, 0.0
1141, -1.5726495726495726, -0.2661782661782662, 0.6056166056166056, 0.375, 0.09375, -0.21875, 0.0
1142, -0.43223443223443225, 0.37606837606837606, 1.5714285714285714, 0.375, 0.78125, -0.1875, 0.0
1143, 0.945054945054945, 0.9120879120879121, 2.402930402930403, 0.5625, 0.9375, -0.15625, 0.0
1144, 0.873015873015873, -0.04151404151404151, 0.9194139194139194, 0.78125, 0.09375, 0.09375, 0.0
1145, -1.636141636141636, -0.33455433455433453, -0.8717948717948718, 0.6875, -0.40625, 0.15625, 0.0
1146, -2.086691086691087, -0.3321123321123321, -1.0647130647130647, 0.625, 0.375, 0.03125, 0.0
1147, -0.21733821733821734, -0.1684981684981685, -0.22954822954822954, 0.5, 1.40625, 0.0625, 0.0
1148, 0.8144078144078144, -0.16727716727716727, 0.48717948717948717, 0.5625, 1.09375, 0.21875, 0.0
1149, -0.1807081807081807, -0.07448107448107448, 0.007326007326007326, 0.6875, 0.125, 0.46875, 0.0
1150, -1.9511599511599511, -0.1111111111111111, -0.6495726495726496, 0.875, 0.21875, 0.4375, 0.0
1151, -0.7203907203907204, -0.5238095238095238, -1.459096459096459, 1.0625, 1.15625, 0.46875, 0.0
1152, 2.120879120879121, -1.4163614163614164, -1.6080586080586081, 0.59375, 1.0, 0.75, 0.0
1153, 1.606837606837607, -1.032967032967033, -0.9536019536019537, 0.03125, -0.75, 0.875, 0.0
1154, -0.7594627594627594, 0.1807081807081807, -0.9316239316239316, 0.71875, -0.21875, 0.6875, 0.0
1155, -0.8388278388278388, 0.09035409035409035, -1.4456654456654456, 1.25, 0.71875, 0.40625, 0.0
1156, 0.4261294261294261, -0.575091575091575, -1.7032967032967032, 0.96875, 0.90625, 0.1875, 0.0
1157, 1.5897435897435896, -1.15995115995116, -1.3492063492063493, 0.46875, 0.0625, 0.125, 0.0
1158, 0.6446886446886447, -0.800976800976801, -1.746031746031746, 0.5, -0.875, 0.21875, 0.0
1159, -1.0354090354090355, -1.0134310134310134, -3.440781440781441, 0.65625, -0.75, 0.34375, 0.0
1160, -1.122100122100122, -1.9853479853479854, -4.732600732600733, 0.34375, -0.03125, 0.125, 0.0
1161, -0.6092796092796092, -2.619047619047619, -4.625152625152626, -0.5, 0.5, 0.15625, 0.0
1162, 1.706959706959707, -2.1062271062271063, -2.6312576312576312, -0.96875, -0.09375, 0.28125, 0.0
1163, 1.452991452991453, -0.6654456654456654, -0.4981684981684982, -0.46875, -1.09375, 0.03125, 0.0
1164, -1.5873015873015872, 0.39438339438339437, -1.5763125763125763, 0.375, -0.65625, -0.09375, 0.0
1165, -2.1819291819291817, -0.5177045177045178, -2.7838827838827838, 0.5625, 0.40625, -0.09375, 0.0
1166, -0.24297924297924298, -1.4578754578754578, -3.001221001221001, 0.0, 0.46875, 0.0, 0.0
1167, 0.905982905982906, -0.894993894993895, -1.9487179487179487, -0.34375, -0.3125, 0.0625, 0.0
1168, -0.4932844932844933, 0.10256410256410256, -1.3821733821733821, 0.0, -0.5, 0.03125, 0.0
1169, -1.1489621489621489, -0.2673992673992674, -1.9316239316239316, 0.21875, 0.09375, 0.03125, 0.0
1170, -0.3882783882783883, -0.8742368742368742, -2.1684981684981683, 0.09375, 0.59375, 0.03125, 0.0
1171, 0.5763125763125763, -1.0305250305250304, -1.6092796092796093, -0.21875, 0.375, 0.03125, 0.0
1172, 0.5616605616605617, -0.3431013431013431, -0.6800976800976801, -0.1875, -0.09375, 0.03125, 0.0
1173, -0.1452991452991453, 0.0, -0.32234432234432236, 0.0625, -0.09375, 0.0, 0.0
1174, -0.5286935286935287, -0.22832722832722832, -0.9194139194139194, 0.125, 0.28125, -0.03125, 0.0
1175, -0.05982905982905983, -0.05982905982905983, -0.8632478632478633, 0.15625, 0.375, -0.0625, 0.0
1176, 0.1562881562881563, 0.23076923076923078, -0.7350427350427351, 0.3125, 0.0625, -0.03125, 1.0
1177, 0.08669108669108669, 0.5848595848595849, -0.0927960927960928, 1.28125, -0.3125, 0.0, 1.0
1178, -0.5482295482295483, -1.5653235653235653, -1.4065934065934067, 1.5, -0.34375, -0.03125, 1.0
1179, -0.5506715506715507, -2.015873015873016, -3.1257631257631258, 0.8125, 0.375, -0.15625, 1.0
1180, -0.0757020757020757, -1.4810744810744811, -3.3455433455433456, -0.21875, 0.75, -0.15625, 1.0
1181, 0.4346764346764347, -0.14774114774114774, -1.5286935286935286, -0.59375, 0.1875, -0.0625, 1.0
1182, -1.1025641025641026, -0.19413919413919414, -2.1452991452991452, 0.0625, -0.40625, 0.0, 1.0
1183, -0.5958485958485958, -1.7216117216117217, -4.155067155067155, 0.78125, 0.03125, 0.03125, 1.0
1184, -0.1111111111111111, -1.9377289377289377, -4.9914529914529915, 0.96875, 0.5, -0.15625, 1.0
1185, 0.63003663003663, -2.421245421245421, -4.611721611721611, 0.9375, 0.5, -0.0625, 1.0
1186, 0.5103785103785103, -2.960927960927961, -4.94017094017094, 0.71875, 0.1875, 0.0, 1.0
1187, 0.38217338217338215, -3.258852258852259, -5.726495726495727, 0.5, 0.0, 0.0, 1.0
1188, 0.23687423687423687, -2.8107448107448105, -5.686202686202686, 0.09375, 0.0, -0.28125, 1.0
1189, 0.020757020757020756, -2.1794871794871793, -4.22954822954823, -0.15625, 0.0, -0.34375, 1.0
1190, -0.34676434676434675, -2.05006105006105, -3.553113553113553, -0.4375, 0.0625, -0.4375, 1.0
1191, 0.24175824175824176, -1.5567765567765568, -2.6678876678876677, -0.875, 0.3125, -0.40625, 1.0
1192, 1.043956043956044, -1.1758241758241759, -0.7423687423687424, -0.96875, 0.0625, -0.3125, 1.0
1193, 1.1562881562881564, -0.9560439560439561, -0.2686202686202686, -0.6875, -0.40625, -0.21875, 1.0
1194, 0.9816849816849816, -1.9072039072039073, -1.2857142857142858, -0.71875, -0.84375, -0.3125, 1.0
1195, -0.2796092796092796, -0.5860805860805861, -0.8107448107448108, -1.1875, -0.65625, -0.5, 1.0
1196, -0.2515262515262515, -0.4078144078144078, -0.06593406593406594, -1.15625, -0.25, -0.59375, 1.0
1197, -0.33455433455433453, -0.06593406593406594, 0.5128205128205128, -1.28125, 0.03125, -0.59375, 1.0
1198, -0.0231990231990232, 0.21855921855921856, 1.4444444444444444, -1.25, -0.21875, -0.25, 1.0
1199, -0.08791208791208792, 0.199023199023199, 1.304029304029304, -1.1875, -0.96875, 0.3125, 1.0
1200, -0.46886446886446886, -0.23443223443223443, 0.518925518925519, -1.25, -1.3125, 0.5, 1.0
1201, -0.7887667887667887, -0.29181929181929184, 0.78998778998779, -1.1875, -0.5625, 0.21875, 1.0
1202, -0.24175824175824176, -0.3785103785103785, 1.656898656898657, -0.84375, 0.21875, 0.0, 1.0
1203, 0.24664224664224665, -0.3321123321123321, 2.1526251526251525, -0.6875, 0.0625, 0.21875, 1.0
1204, 1.0073260073260073, -0.8473748473748474, 2.3553113553113554, -0.71875, -0.3125, 0.34375, 1.0
1205, 0.5738705738705738, -1.1868131868131868, 1.7326007326007327, -0.96875, -0.125, 0.1875, 1.0
1206, -0.06471306471306472, -0.2588522588522589, 2.4993894993894994, -0.84375, 0.375, 0.15625, 1.0
1207, 0.19658119658119658, -0.36874236874236876, 3.2124542124542126, -0.71875, 0.28125, 0.21875, 1.0
1208, 0.5897435897435898, -1.0476190476190477, 2.5506715506715505, -1.03125, 0.0, 0.4375, 1.0
1209, 0.5470085470085471, -0.6251526251526252, 3.0537240537240535, -1.46875, -0.3125, 0.625, 1.0
1210, -0.57997557997558, 0.8962148962148963, 4.272283272283272, -1.125, -0.03125, 0.5, 1.0
1211, 0.1562881562881563, 0.6031746031746031, 4.288156288156288, -0.5625, 0.46875, 0.25, 1.0
1212, 1.1868131868131868, -0.07936507936507936, 4.336996336996337, -0.375, 0.25, 0.1875, 1.0
1213, 0.9768009768009768, -0.6654456654456654, 3.5506715506715505, -0.65625, 0.0, 0.21875, 1.0
1214, 0.36507936507936506, -0.27350427350427353, 3.4542124542124544, -0.90625, 0.0625, 0.28125, 1.0
1215, 0.23809523809523808, 0.5152625152625152, 4.153846153846154, -0.625, 0.0, 0.25, 1.0
1216, 0.017094017094017096, 0.3968253968253968, 3.971916971916972, -0.21875, 0.0, 0.125, 1.0
1217, -0.2148962148962149, 0.08791208791208792, 3.197802197802198, -0.25, 0.28125, 0.0, 1.0
1218, 0.31135531135531136, -0.47496947496947495, 2.879120879120879, -0.59375, 0.3125, -0.09375, 0.0
1219, 0.030525030525030524, -0.557997557997558, 2.7362637362637363, -1.09375, 0.28125, 0.0, 0.0
1220, 0.23931623931623933, 0.3956043956043956, 4.571428571428571, -0.78125, -0.125, 0.125, 0.0
1221, 0.1562881562881563, 0.6166056166056166, 4.772893772893773, -0.25, -0.59375, 0.25, 0.0
1222, -0.09645909645909646, 0.33943833943833945, 3.57997557997558, -0.125, -0.34375, 0.09375, 0.0
1223, 0.19291819291819293, -0.8778998778998779, 3.3455433455433456, -0.3125, 0.0625, -0.15625, 0.0
1224, 0.28205128205128205, -1.5494505494505495, 2.9145299145299144, -0.59375, 0.25, -0.1875, 0.0
1225, 0.4517704517704518, -1.0525030525030525, 3.247863247863248, -0.53125, 0.0, -0.125, 0.0
1226, 0.4652014652014652, -0.6202686202686203, 3.6507936507936507, -0.15625, -0.3125, -0.28125, 0.0
1227, -0.3711843711843712, -0.5555555555555556, 2.797313797313797, -0.125, 0.15625, -0.4375, 0.0
1228, -0.2661782661782662, -1.3296703296703296, 2.5641025641025643, -0.375, 0.40625, -0.46875, 0.0
1229, 0.28083028083028083, -0.6642246642246642, 2.8583638583638584, -0.5625, 0.1875, -0.21875, 0.0
1230, -0.07081807081807082, 0.14407814407814407, 3.427350427350427, -0.40625, -0.4375, -0.0625, 0.0
1231, -0.463980463980464, 0.7948717948717948, 3.0537240537240535, -0.09375, -0.59375, -0.09375, 0.0
1232, -0.7411477411477412, 0.833943833943834, 1.9023199023199022, 0.3125, -0.1875, -0.25, 0.0
1233, -1.5360195360195361, 0.41514041514041516, 1.0231990231990231, 0.5625, 0.28125, -0.53125, 0.0
1234, -1.442002442002442, 1.122100122100122, 1.5018315018315018, 0.6875, 0.625, -0.4375, 0.0
1235, -0.013431013431013432, 1.2222222222222223, 1.7960927960927962, 1.03125, 0.59375, -0.1875, 0.0
1236, 0.3137973137973138, -0.030525030525030524, 0.2026862026862027, 0.96875, 0.125, 0.0625, 0.0
1237, -1.2283272283272284, -0.36752136752136755, -1.115995115995116, 0.5625, -0.25, 0.3125, 0.0
1238, -1.9694749694749696, 0.25518925518925517, -0.9719169719169719, 0.5625, 0.25, 0.28125, 0.0
1239, -0.4456654456654457, 0.518925518925519, 0.442002442002442, 0.9375, 1.15625, 0.0625, 0.0
1240, 1.1721611721611722, 0.04395604395604396, 1.52014652014652, 1.21875, 1.375, 0.0625, 0.0
