timestamp, accX, accY, accZ, gyroX, gyroY, gyroZ, button
1229, -0.014652014652014652, -0.001221001221001221, 0.11843711843711843, -0.0625, 0.0625, 0.0, 0.0
1230, -0.16727716727716727, 0.13064713064713065, 0.16727716727716727, -0.03125, 0.03125, 0.0, 0.0
1231, -0.10622710622710622, -0.01221001221001221, 0.04884004884004884, -0.03125, 0.0625, 0.03125, 0.0
1, 0.08058608058608059, -0.2564102564102564, -0.057387057387057384, -0.09375, 0.0, 0.03125, 0.0
2, 0.001221001221001221, -0.17582417582417584, -0.15506715506715507, -0.125, 0.0, 0.03125, 0.0
3, -0.045177045177045176, -0.03785103785103785, -0.08669108669108669, -0.09375, 0.0625, 0.03125, 0.0
4, 0.014652014652014652, -0.017094017094017096, 0.01098901098901099, -0.03125, 0.03125, 0.03125, 0.0
5, 0.04395604395604396, -0.07692307692307693, -0.047619047619047616, -0.0625, 0.0, 0.03125, 0.0
6, -0.004884004884004884, -0.06227106227106227, -0.115995115995116, -0.09375, 0.0, 0.03125, 0.0
7, -0.008547008547008548, -0.03663003663003663, -0.115995115995116, -0.09375, 0.03125, 0.03125, 0.0
8, -0.03663003663003663, -0.002442002442002442, -0.03785103785103785, -0.09375, 0.03125, 0.03125, 0.0
9, -0.03540903540903541, -0.020757020757020756, -0.10622710622710622, -0.0625, 0.0625, 0.03125, 0.0
10, -0.019536019536019536, -0.026862026862026864, -0.07692307692307693, -0.0625, 0.09375, 0.03125, 0.0
11, 0.01098901098901099, -0.04884004884004884, -0.047619047619047616, -0.09375, 0.03125, 0.03125, 0.0
12, 0.003663003663003663, -0.029304029304029304, 0.029304029304029304, -0.125, 0.0, 0.0625, 0.0
13, -0.08547008547008547, -0.03907203907203907, -0.07692307692307693, -0.09375, 0.0, 0.03125, 0.0
14, -0.017094017094017096, -0.0989010989010989, -0.22344322344322345, -0.0625, 0.0625, 0.03125, 0.0
15, 0.05372405372405373, -0.1111111111111111, -0.1562881562881563, -0.125, 0.0625, 0.03125, 0.0
16, -0.05982905982905983, 0.009768009768009768, 0.009768009768009768, -0.15625, 0.0, 0.03125, 0.0
17, -0.08913308913308914, 0.0463980463980464, 0.17704517704517705, -0.09375, 0.03125, 0.03125, 0.0
18, -0.02564102564102564, -0.003663003663003663, 0.16727716727716727, -0.03125, 0.0625, 0.0, 0.0
19, 0.006105006105006105, -0.0695970695970696, 0.03907203907203907, -0.03125, 0.0625, 0.03125, 0.0
20, -0.007326007326007326, -0.10866910866910867, -0.07692307692307693, -0.0625, 0.03125, 0.03125, 0.0
21, -0.03785103785103785, -0.05372405372405373, -0.09645909645909646, -0.09375, 0.0, 0.03125, 0.0
22, -0.013431013431013432, -0.030525030525030524, -0.047619047619047616, -0.0625, 0.03125, 0.03125, 0.0
23, 0.07081807081807082, -0.10134310134310134, -0.06715506715506715, -0.0625, 0.0625, 0.03125, 0.0
24, 0.014652014652014652, -0.04151404151404151, -0.03785103785103785, -0.09375, 0.0, 0.03125, 0.0
25, -0.1514041514041514, 0.08302808302808302, -0.018315018315018316, -0.125, 0.0, 0.03125, 0.0
26, -0.12332112332112333, 0.057387057387057384, 0.10866910866910867, -0.0625, 0.03125, 0.0625, 0.0
27, 0.047619047619047616, -0.09157509157509157, -0.018315018315018316, 0.0, 0.0625, 0.03125, 0.0
28, 0.09035409035409035, -0.22344322344322345, -0.16483516483516483, -0.0625, 0.0, 0.03125, 0.0
29, -0.04151404151404151, -0.06227106227106227, -0.19413919413919414, -0.09375, 0.0, 0.03125, 0.0
30, -0.11843711843711843, 0.03296703296703297, -0.09645909645909646, -0.09375, 0.03125, 0.03125, 0.0
31, -0.09523809523809523, 0.057387057387057384, 0.009768009768009768, -0.03125, 0.125, 0.03125, 0.0
32, 0.06105006105006105, -0.16483516483516483, -0.15506715506715507, 0.0, 0.09375, 0.03125, 0.0
33, 0.11355311355311355, -0.19413919413919414, -0.2039072039072039, -0.09375, 0.0, 0.03125, 0.0
34, -0.06105006105006105, -0.045177045177045176, -0.16483516483516483, -0.15625, 0.0, 0.0625, 0.0
35, -0.06837606837606838, -0.006105006105006105, -0.13553113553113552, -0.125, 0.0625, 0.0625, 0.0
36, -0.013431013431013432, -0.02564102564102564, -0.057387057387057384, -0.09375, 0.09375, 0.0625, 0.0
37, -0.042735042735042736, -0.018315018315018316, -0.028083028083028084, -0.0625, 0.125, 0.0625, 0.0
38, 0.02442002442002442, -0.08302808302808302, -0.15506715506715507, -0.09375, 0.125, 0.0625, 0.0
39, 0.14896214896214896, -0.11965811965811966, -0.09768009768009768, -0.125, 0.03125, 0.0625, 0.0
40, 0.006105006105006105, -0.06593406593406594, -0.17582417582417584, -0.125, 0.0, 0.03125, 0.0
41, -0.1855921855921856, 0.10622710622710622, -0.15506715506715507, -0.09375, 0.03125, 0.03125, 0.0
42, -0.115995115995116, 0.007326007326007326, -0.16483516483516483, -0.03125, 0.125, 0.03125, 0.0
43, 0.10256410256410256, -0.09768009768009768, -0.20512820512820512, -0.0625, 0.03125, 0.03125, 0.0
44, -0.029304029304029304, -0.03418803418803419, -0.3125763125763126, -0.09375, 0.0, 0.03125, 0.0
45, -0.10012210012210013, 0.008547008547008548, -0.3418803418803419, -0.09375, 0.0625, 0.03125, 0.0
46, -0.047619047619047616, -0.029304029304029304, -0.3516483516483517, -0.09375, 0.125, 0.03125, 0.0
47, 0.12698412698412698, -0.08791208791208792, -0.26373626373626374, -0.125, 0.09375, 0.0625, 0.0
48, 0.1391941391941392, -0.08547008547008547, -0.27472527472527475, -0.15625, 0.0, 0.03125, 0.0
49, -0.04395604395604396, 0.002442002442002442, -0.2844932844932845, -0.125, 0.0, 0.0, 0.0
50, -0.12454212454212454, 0.009768009768009768, -0.3333333333333333, -0.0625, 0.09375, 0.0, 0.0
51, 0.031746031746031744, -0.11843711843711843, -0.304029304029304, -0.0625, 0.09375, 0.0, 0.0
52, -0.02442002442002442, -0.042735042735042736, -0.2148962148962149, -0.0625, 0.0625, 0.0, 0.0
53, -0.10012210012210013, -0.006105006105006105, -0.047619047619047616, -0.0625, 0.15625, 0.03125, 0.0
54, 0.1562881562881563, -0.26495726495726496, 0.028083028083028084, -0.125, 0.125, 0.03125, 0.0
55, 0.08058608058608059, -0.1684981684981685, 0.22344322344322345, -0.1875, 0.09375, 0.03125, 0.0
56, 0.09157509157509157, -0.22344322344322345, 0.3492063492063492, -0.25, 0.03125, 0.0625, 0.0
57, -0.06837606837606838, -0.052503052503052504, 0.4884004884004884, -0.28125, -0.03125, 0.09375, 0.0
58, -0.1623931623931624, 0.042735042735042736, 0.6056166056166056, -0.25, 0.0, 0.09375, 0.0
59, -0.007326007326007326, -0.08791208791208792, 0.6056166056166056, -0.15625, 0.03125, 0.09375, 0.0
60, 0.25274725274725274, -0.39194139194139194, 0.48717948717948717, -0.125, 0.0, 0.125, 0.0
61, 0.1684981684981685, -0.37484737484737485, 0.3504273504273504, -0.15625, -0.03125, 0.09375, 0.0
62, -0.03540903540903541, -0.1794871794871795, 0.3308913308913309, -0.15625, 0.0, 0.0625, 0.0
63, -0.07692307692307693, 0.0231990231990232, -0.0695970695970696, -0.09375, 0.0625, 0.03125, 0.0
64, -0.14163614163614163, 0.047619047619047616, -0.10012210012210013, -0.09375, 0.09375, 0.0625, 0.0
65, -0.018315018315018316, -0.05860805860805861, -0.12942612942612944, -0.125, 0.0625, 0.09375, 0.0
66, -0.015873015873015872, -0.057387057387057384, -0.07936507936507936, -0.15625, 0.03125, 0.09375, 0.0
67, -0.026862026862026864, -0.02564102564102564, 0.03663003663003663, -0.09375, 0.125, 0.09375, 0.0
68, 0.19047619047619047, -0.10989010989010989, 0.09401709401709402, -0.09375, 0.0625, 0.0625, 0.0
69, 0.1575091575091575, -0.14407814407814407, 0.09401709401709402, -0.125, 0.0, 0.0625, 0.0
70, 0.042735042735042736, -0.08058608058608059, 0.0927960927960928, -0.15625, 0.0, 0.0625, 0.0
71, -0.047619047619047616, 0.014652014652014652, 0.13186813186813187, -0.125, 0.0, 0.0625, 0.0
72, 0.0, -0.029304029304029304, 0.13064713064713065, -0.03125, 0.0625, 0.03125, 0.0
73, 0.040293040293040296, -0.08058608058608059, 0.08180708180708181, -0.03125, 0.03125, 0.03125, 0.0
74, -0.01221001221001221, -0.0231990231990232, 0.013431013431013432, -0.09375, -0.03125, 0.03125, 0.0
75, -0.18925518925518925, 0.04151404151404151, -0.10256410256410256, -0.09375, -0.03125, 0.03125, 0.0
76, -0.1575091575091575, -0.017094017094017096, -0.21978021978021978, -0.0625, 0.03125, 0.03125, 0.0
77, -0.014652014652014652, -0.06715506715506715, -0.15995115995115994, -0.09375, 0.09375, 0.0625, 0.0
78, 0.040293040293040296, -0.06715506715506715, -0.07203907203907203, -0.09375, 0.09375, 0.0625, 0.0
79, 0.02197802197802198, -0.0757020757020757, -0.07203907203907203, -0.09375, 0.03125, 0.0625, 0.0
80, -0.042735042735042736, -0.028083028083028084, -0.08180708180708181, -0.125, 0.0, 0.0625, 0.0
81, -0.008547008547008548, -0.007326007326007326, 0.003663003663003663, -0.125, 0.03125, 0.0625, 0.0
82, 0.07203907203907203, -0.05616605616605617, 0.09035409035409035, -0.09375, 0.03125, 0.0625, 0.0
83, -0.04151404151404151, -0.08302808302808302, -0.03418803418803419, -0.09375, 0.0, 0.03125, 0.0
84, -0.04884004884004884, -0.09401709401709402, -0.10134310134310134, -0.0625, 0.0, 0.03125, 0.0
85, -0.01221001221001221, -0.054945054945054944, -0.06105006105006105, -0.09375, 0.03125, 0.03125, 0.0
86, -0.006105006105006105, -0.028083028083028084, 0.004884004884004884, -0.125, 0.03125, 0.03125, 0.0
87, -0.11233211233211234, 0.029304029304029304, -0.0231990231990232, -0.09375, 0.0, 0.03125, 0.0
88, -0.045177045177045176, -0.02197802197802198, -0.04151404151404151, -0.09375, 0.03125, 0.03125, 0.0
89, 0.015873015873015872, -0.03540903540903541, 0.05372405372405373, -0.09375, 0.03125, 0.03125, 0.0
90, -0.018315018315018316, -0.04884004884004884, 0.045177045177045176, -0.09375, 0.0, 0.03125, 0.0
91, -0.04395604395604396, -0.05860805860805861, -0.08058608058608059, -0.0625, 0.0, 0.03125, 0.0
92, -0.031746031746031744, -0.08180708180708181, -0.20634920634920634, -0.09375, 0.0, 0.03125, 0.0
93, -0.006105006105006105, -0.052503052503052504, -0.10866910866910867, -0.125, 0.0625, 0.03125, 0.0
94, -0.0231990231990232, 0.015873015873015872, 0.02564102564102564, -0.09375, 0.09375, 0.03125, 0.0
95, -0.01221001221001221, 0.009768009768009768, 0.052503052503052504, -0.0625, 0.0625, 0.03125, 0.0
96, 0.05128205128205128, -0.08791208791208792, 0.03418803418803419, -0.09375, 0.0, 0.0625, 0.0
97, -0.052503052503052504, -0.020757020757020756, 0.03418803418803419, -0.09375, 0.0, 0.03125, 0.0
98, -0.019536019536019536, -0.030525030525030524, -0.06227106227106227, -0.03125, 0.03125, 0.03125, 0.0
99, 0.08180708180708181, -0.12698412698412698, -0.15995115995115994, -0.0625, 0.03125, 0.03125, 0.0
100, 0.05128205128205128, -0.15873015873015872, -0.2087912087912088, -0.125, 0.0, 0.03125, 0.0
101, -0.06593406593406594, -0.007326007326007326, -0.10989010989010989, -0.09375, 0.0, 0.03125, 0.0
102, 0.006105006105006105, -0.047619047619047616, -0.10989010989010989, -0.09375, 0.03125, 0.03125, 0.0
103, -0.0757020757020757, -0.013431013431013432, -0.1391941391941392, -0.0625, 0.03125, 0.03125, 0.0
104, -0.08302808302808302, -0.01098901098901099, -0.17826617826617827, -0.09375, 0.09375, 0.03125, 0.0
105, 0.0989010989010989, -0.10256410256410256, -0.02197802197802198, -0.15625, 0.03125, 0.03125, 0.0
106, 0.007326007326007326, -0.028083028083028084, 0.05372405372405373, -0.15625, 0.0, 0.03125, 0.0
107, -0.1391941391941392, 0.03785103785103785, 0.03296703296703297, -0.09375, 0.03125, 0.03125, 0.0
108, -0.09157509157509157, -0.03540903540903541, -0.014652014652014652, -0.0625, 0.09375, 0.03125, 0.0
109, 0.12454212454212454, -0.16483516483516483, -0.003663003663003663, -0.125, 0.0625, 0.03125, 0.0
110, 0.09401709401709402, -0.1111111111111111, 0.05372405372405373, -0.15625, 0.0, 0.0625, 0.0
111, -0.042735042735042736, -0.015873015873015872, 0.06349206349206349, -0.0625, 0.0, 0.03125, 0.0
112, -0.0463980463980464, -0.04395604395604396, -0.003663003663003663, -0.03125, 0.0625, 0.03125, 0.0
113, 0.004884004884004884, -0.05128205128205128, -0.02197802197802198, -0.0625, 0.0625, 0.03125, 0.0
114, -0.009768009768009768, -0.045177045177045176, -0.04151404151404151, -0.125, 0.03125, 0.03125, 0.0
115, -0.017094017094017096, -0.01098901098901099, -0.0231990231990232, -0.09375, 0.03125, 0.03125, 0.0
116, 0.06349206349206349, -0.07936507936507936, -0.10134310134310134, -0.0625, 0.03125, 0.03125, 0.0
117, -0.020757020757020756, -0.02197802197802198, -0.06227106227106227, -0.09375, 0.03125, 0.03125, 0.0
118, -0.019536019536019536, -0.03296703296703297, -0.0231990231990232, -0.125, 0.03125, 0.03125, 0.0
119, 0.017094017094017096, -0.06105006105006105, -0.03296703296703297, -0.125, 0.0625, 0.03125, 0.0
120, 0.0, -0.017094017094017096, 0.06105006105006105, -0.09375, 0.03125, 0.03125, 0.0
121, -0.06227106227106227, -0.004884004884004884, 0.08180708180708181, -0.0625, 0.0, 0.03125, 0.0
122, -0.047619047619047616, -0.08180708180708181, -0.07203907203907203, -0.03125, 0.03125, 0.03125, 0.0
123, -0.002442002442002442, -0.1343101343101343, -0.22832722832722832, -0.0625, 0.0, 0.03125, 0.0
124, -0.08791208791208792, -0.029304029304029304, -0.1978021978021978, -0.15625, 0.0, 0.0625, 0.0
125, -0.0695970695970696, -0.020757020757020756, -0.11965811965811966, -0.125, 0.0, 0.0625, 0.0
126, 0.05982905982905983, -0.10744810744810745, -0.06105006105006105, -0.0625, 0.09375, 0.03125, 0.0
127, 0.07692307692307693, -0.08180708180708181, -0.031746031746031744, -0.0625, 0.0625, 0.03125, 0.0
128, -0.003663003663003663, -0.03296703296703297, -0.07081807081807082, -0.125, 0.0, 0.03125, 0.0
129, -0.013431013431013432, -0.0231990231990232, 0.006105006105006105, -0.15625, 0.0, 0.0625, 0.0
130, -0.019536019536019536, 0.004884004884004884, 0.03296703296703297, -0.09375, 0.03125, 0.03125, 0.0
131, 0.007326007326007326, -0.06105006105006105, -0.02442002442002442, -0.03125, 0.0625, 0.03125, 0.0
132, 0.045177045177045176, -0.12332112332112333, -0.052503052503052504, -0.0625, 0.0625, 0.03125, 0.0
133, -0.009768009768009768, -0.045177045177045176, -0.0231990231990232, -0.125, 0.0, 0.03125, 0.0
134, -0.12698412698412698, -0.01098901098901099, 0.004884004884004884, -0.125, 0.0, 0.03125, 0.0
135, -0.0463980463980464, -0.0463980463980464, -0.05128205128205128, -0.0625, 0.03125, 0.03125, 0.0
136, 0.03540903540903541, -0.08913308913308914, -0.02197802197802198, -0.09375, 0.03125, 0.03125, 0.0
137, -0.013431013431013432, -0.030525030525030524, -0.031746031746031744, -0.125, 0.03125, 0.0625, 0.0
138, 0.0, -0.02564102564102564, 0.015873015873015872, -0.09375, 0.0625, 0.0625, 0.0
139, -0.009768009768009768, -0.020757020757020756, 0.02564102564102564, -0.0625, 0.03125, 0.03125, 0.0
140, -0.02197802197802198, -0.03418803418803419, -0.031746031746031744, -0.0625, 0.0, 0.03125, 0.0
141, -0.01221001221001221, -0.019536019536019536, -0.06105006105006105, -0.0625, 0.03125, 0.03125, 0.0
142, 0.004884004884004884, -0.05616605616605617, -0.11965811965811966, -0.09375, 0.03125, 0.03125, 0.0
143, -0.04151404151404151, -0.008547008547008548, -0.10989010989010989, -0.09375, 0.03125, 0.03125, 0.0
144, -0.045177045177045176, -0.02197802197802198, -0.09035409035409035, -0.09375, 0.0625, 0.0625, 0.0
145, -0.018315018315018316, -0.03418803418803419, -0.08058608058608059, -0.09375, 0.03125, 0.0625, 0.0
146, 0.06837606837606838, -0.12698412698412698, -0.13797313797313798, -0.125, 0.0, 0.0625, 0.0
147, 0.06105006105006105, -0.12576312576312576, -0.20757020757020758, -0.125, 0.0, 0.0625, 0.0
148, -0.1221001221001221, 0.0, -0.2857142857142857, -0.09375, 0.0625, 0.03125, 0.0
149, -0.020757020757020756, -0.017094017094017096, -0.17826617826617827, -0.09375, 0.125, 0.03125, 0.0
150, 0.01221001221001221, -0.05372405372405373, -0.06105006105006105, -0.125, 0.03125, 0.0625, 0.0
151, -0.07814407814407814, -0.01098901098901099, -0.10989010989010989, -0.15625, 0.0, 0.0625, 0.0
152, -0.10378510378510379, -0.04395604395604396, -0.15018315018315018, -0.15625, 0.0, 0.0625, 0.0
153, -0.06471306471306472, -0.002442002442002442, -0.013431013431013432, -0.125, 0.0625, 0.0625, 0.0
154, -0.020757020757020756, -0.03663003663003663, 0.1221001221001221, -0.125, 0.0625, 0.0625, 0.0
155, -0.001221001221001221, -0.047619047619047616, 0.14163614163614163, -0.09375, 0.0, 0.0625, 0.0
156, 0.01098901098901099, -0.08424908424908426, 0.02564102564102564, -0.125, -0.03125, 0.09375, 0.0
157, 0.026862026862026864, -0.10256410256410256, 0.05616605616605617, -0.125, -0.03125, 0.09375, 0.0
158, -0.01221001221001221, -0.052503052503052504, 0.0463980463980464, -0.09375, 0.0, 0.0625, 0.0
159, -0.001221001221001221, -0.05616605616605617, 0.018315018315018316, -0.09375, 0.0, 0.03125, 0.0
160, 0.026862026862026864, -0.031746031746031744, 0.06593406593406594, -0.15625, -0.03125, 0.0625, 0.0
161, -0.07203907203907203, 0.1343101343101343, 0.17094017094017094, -0.09375, -0.0625, 0.09375, 0.0
162, -0.01098901098901099, 0.007326007326007326, 0.10989010989010989, -0.03125, -0.03125, 0.09375, 0.0
163, -0.02564102564102564, -0.006105006105006105, 0.020757020757020756, -0.03125, 0.0, 0.09375, 0.0
164, -0.002442002442002442, -0.018315018315018316, 0.01098901098901099, -0.03125, 0.0, 0.09375, 0.0
165, 0.07326007326007326, -0.0757020757020757, 0.1111111111111111, -0.03125, -0.0625, 0.09375, 0.0
166, 0.03540903540903541, -0.006105006105006105, 0.0231990231990232, 0.0, -0.0625, 0.09375, 0.0
167, 0.03296703296703297, -0.08669108669108669, -0.15995115995115994, 0.0, -0.0625, 0.09375, 0.0
168, 0.0, -0.05982905982905983, -0.2661782661782662, 0.0, -0.03125, 0.125, 0.0
169, 0.009768009768009768, -0.15995115995115994, -0.3724053724053724, 0.0, 0.0, 0.125, 0.0
170, 0.1330891330891331, -0.12698412698412698, -0.25396825396825395, -0.0625, 0.0625, 0.125, 0.0
171, 0.18803418803418803, -0.0463980463980464, -0.06837606837606838, -0.125, 0.03125, 0.125, 0.0
172, 0.03663003663003663, 0.026862026862026864, -0.01098901098901099, -0.09375, 0.0, 0.125, 0.0
173, 0.018315018315018316, -0.01098901098901099, 0.004884004884004884, -0.09375, 0.0625, 0.09375, 0.0
174, 0.003663003663003663, -0.018315018315018316, 0.07203907203907203, -0.09375, 0.09375, 0.09375, 0.0
175, -0.05860805860805861, -0.028083028083028084, 0.06227106227106227, -0.09375, 0.0625, 0.0625, 0.0
176, -0.09768009768009768, -0.006105006105006105, 0.042735042735042736, -0.0625, 0.0625, 0.0625, 0.0
177, -0.11355311355311355, -0.05128205128205128, 0.004884004884004884, -0.09375, 0.0, 0.0625, 0.0
178, -0.09768009768009768, -0.07326007326007326, 0.014652014652014652, -0.09375, 0.0, 0.03125, 0.0
179, -0.05860805860805861, -0.10378510378510379, -0.002442002442002442, -0.09375, 0.03125, 0.0, 0.0
180, -0.08180708180708181, -0.14896214896214896, -0.020757020757020756, -0.03125, 0.0625, 0.0, 0.0
181, -0.17704517704517705, -0.1330891330891331, 0.0, -0.03125, 0.0625, -0.03125, 0.0
182, -0.3052503052503053, -0.16361416361416362, -0.04884004884004884, -0.03125, 0.03125, -0.03125, 0.0
183, -0.5201465201465202, -0.15262515262515264, -0.23565323565323565, -0.03125, 0.0, 0.0, 0.0
184, -0.5946275946275946, -0.1684981684981685, -0.36507936507936506, -0.0625, -0.03125, 0.03125, 0.0
185, -0.4981684981684982, -0.10622710622710622, -0.21978021978021978, -0.125, 0.0, 0.09375, 0.0
186, -0.1575091575091575, -0.10256410256410256, -0.006105006105006105, -0.15625, 0.03125, 0.15625, 0.0
187, 0.015873015873015872, -0.030525030525030524, 0.1391941391941392, -0.15625, 0.0, 0.15625, 0.0
188, -0.006105006105006105, 0.0463980463980464, 0.057387057387057384, -0.09375, -0.03125, 0.1875, 0.0
189, 0.03907203907203907, -0.040293040293040296, -0.08669108669108669, -0.0625, -0.03125, 0.1875, 0.0
190, 0.1452991452991453, -0.007326007326007326, -0.08547008547008547, -0.125, -0.03125, 0.1875, 0.0
191, 0.21855921855921856, 0.01098901098901099, -0.10500610500610501, -0.125, -0.03125, 0.21875, 0.0
192, 0.3724053724053724, -0.14896214896214896, -0.19291819291819293, -0.125, -0.09375, 0.21875, 0.0
193, 0.17582417582417584, -0.03540903540903541, -0.3504273504273504, -0.125, -0.0625, 0.1875, 0.0
194, 0.1746031746031746, -0.09157509157509157, -0.42857142857142855, -0.15625, 0.03125, 0.1875, 0.0
195, 0.3333333333333333, -0.21855921855921856, -0.32112332112332115, -0.21875, 0.125, 0.1875, 0.0
196, 0.3052503052503053, -0.10989010989010989, -0.26495726495726496, -0.25, 0.1875, 0.15625, 0.0
197, 0.5677655677655677, -0.29181929181929184, -0.35775335775335776, -0.375, 0.125, 0.15625, 0.0
198, 0.27472527472527475, -0.2600732600732601, -0.315018315018315, -0.4375, 0.15625, 0.09375, 0.0
199, -0.04395604395604396, -0.052503052503052504, -0.09035409035409035, -0.34375, 0.375, 0.0, 0.0
200, -0.0989010989010989, -0.03540903540903541, 0.20757020757020758, -0.1875, 0.5625, -0.03125, 0.0
201, 0.01098901098901099, -0.27594627594627597, 0.4358974358974359, -0.21875, 0.375, -0.03125, 0.0
202, -0.33455433455433453, -0.1330891330891331, 0.5042735042735043, -0.25, 0.1875, 0.0, 0.0
203, -0.6495726495726496, -0.08913308913308914, 0.34798534798534797, -0.1875, 0.125, 0.0, 0.0
204, -0.5531135531135531, -0.18437118437118438, 0.24297924297924298, -0.09375, 0.15625, 0.0, 0.0
205, -0.33821733821733824, -0.23809523809523808, 0.23687423687423687, -0.0625, 0.15625, 0.0, 0.0
206, -0.49694749694749696, -0.31135531135531136, 0.0927960927960928, -0.125, 0.1875, 0.0, 0.0
207, -0.5982905982905983, -0.2026862026862027, 0.06471306471306472, -0.09375, 0.21875, 0.0, 0.0
208, -0.4017094017094017, -0.20024420024420025, 0.15506715506715507, -0.09375, 0.21875, 0.0, 0.0
209, -0.15995115995115994, -0.29181929181929184, 0.23687423687423687, -0.09375, 0.15625, 0.0, 0.0
210, -0.1978021978021978, -0.1746031746031746, 0.4261294261294261, -0.0625, 0.15625, 0.0, 0.0
211, -0.17826617826617827, 0.0, 0.5934065934065934, 0.0, 0.21875, -0.03125, 0.0
212, -0.12087912087912088, -0.06105006105006105, 0.46886446886446886, 0.0625, 0.15625, 0.0, 0.0
213, -0.199023199023199, -0.003663003663003663, 0.39438339438339437, 0.03125, 0.03125, 0.0, 0.0
214, -0.08058608058608059, -0.13675213675213677, 0.09645909645909646, 0.0625, -0.09375, 0.0, 0.0
215, -0.054945054945054944, 0.01098901098901099, -0.006105006105006105, 0.09375, -0.0625, 0.0, 0.0
216, 0.07081807081807082, -0.07692307692307693, -0.21733821733821734, 0.15625, -0.03125, 0.03125, 0.0
217, 0.1391941391941392, -0.3663003663003663, -0.5286935286935287, 0.0625, -0.09375, 0.03125, 0.0
218, 0.19536019536019536, -0.46764346764346765, -0.6043956043956044, 0.0, -0.09375, 0.03125, 0.0
219, 0.14774114774114774, -0.398046398046398, -0.6324786324786325, 0.0, -0.0625, 0.03125, 0.0
220, 0.03907203907203907, -0.15262515262515264, -0.5238095238095238, 0.0, -0.03125, 0.0, 0.0
221, -0.2612942612942613, 0.047619047619047616, -0.452991452991453, 0.0, -0.0625, 0.0, 0.0
222, -0.29304029304029305, 0.12087912087912088, -0.27472527472527475, 0.0, 0.0, 0.0, 0.0
223, -0.06593406593406594, -0.09645909645909646, -0.29426129426129427, -0.03125, 0.03125, 0.0, 0.0
224, 0.10378510378510379, -0.0989010989010989, -0.23565323565323565, -0.125, 0.0, 0.0, 0.0
225, -0.06105006105006105, 0.018315018315018316, -0.1562881562881563, -0.09375, -0.03125, 0.03125, 0.0
226, 0.1330891330891331, -0.2796092796092796, -0.42124542124542125, -0.0625, -0.03125, 0.0625, 0.0
227, -0.1746031746031746, 0.030525030525030524, -0.45054945054945056, -0.125, 0.0, 0.03125, 0.0
228, -0.16117216117216118, 0.0, -0.4017094017094017, -0.125, 0.125, 0.0, 0.0
229, -0.042735042735042736, -0.015873015873015872, -0.13797313797313798, -0.09375, 0.21875, 0.03125, 0.0
230, 0.3028083028083028, -0.1746031746031746, -0.10012210012210013, -0.15625, 0.09375, 0.09375, 0.0
231, 0.1562881562881563, -0.006105006105006105, 0.004884004884004884, -0.25, -0.125, 0.15625, 0.0
232, -0.17826617826617827, 0.12576312576312576, -0.11477411477411477, -0.25, -0.1875, 0.15625, 0.0
233, -0.05616605616605617, -0.003663003663003663, -0.19658119658119658, -0.21875, 0.0, 0.125, 0.0
234, 0.28327228327228327, -0.15384615384615385, -0.002442002442002442, -0.21875, 0.0625, 0.125, 0.0
235, 0.18192918192918192, -0.13797313797313798, 0.02442002442002442, -0.21875, -0.0625, 0.125, 0.0
236, 0.057387057387057384, -0.2026862026862027, -0.10989010989010989, -0.28125, -0.15625, 0.125, 0.0
237, -0.050061050061050064, -0.1330891330891331, -0.18803418803418803, -0.28125, -0.0625, 0.125, 0.0
238, 0.20024420024420025, -0.1575091575091575, 0.04395604395604396, -0.21875, 0.0, 0.09375, 0.0
239, 0.1746031746031746, -0.21001221001221002, 0.18192918192918192, -0.1875, -0.125, 0.09375, 0.0
240, -0.002442002442002442, -0.18925518925518925, -0.001221001221001221, -0.1875, -0.125, 0.0625, 0.0
241, -0.0463980463980464, -0.11477411477411477, -0.03907203907203907, -0.21875, 0.0, 0.03125, 0.0
242, -0.13553113553113552, 0.05860805860805861, 0.0927960927960928, -0.1875, 0.0625, 0.03125, 0.0
243, -0.0463980463980464, -0.02197802197802198, 0.14774114774114774, -0.15625, 0.125, 0.03125, 0.0
244, 0.02197802197802198, -0.1330891330891331, 0.18803418803418803, -0.09375, 0.15625, -0.03125, 0.0
245, -0.03540903540903541, -0.15384615384615385, 0.08180708180708181, -0.1875, 0.125, -0.0625, 0.0
246, -0.13675213675213677, -0.013431013431013432, 0.06715506715506715, -0.25, 0.125, 0.0, 0.0
247, -0.2783882783882784, 0.16727716727716727, 0.15873015873015872, -0.21875, 0.1875, 0.0, 0.0
248, -0.03663003663003663, 0.03418803418803419, 0.23809523809523808, -0.15625, 0.09375, 0.0, 0.0
249, -0.10989010989010989, 0.0989010989010989, 0.2625152625152625, -0.03125, 0.03125, 0.03125, 0.0
250, -0.18925518925518925, 0.10622710622710622, 0.38705738705738707, 0.0625, 0.03125, 0.0625, 0.0
251, 0.03296703296703297, -0.14774114774114774, 0.21855921855921856, 0.09375, 0.0625, 0.0, 0.0
252, 0.28083028083028083, -0.612942612942613, -0.27594627594627597, -0.03125, 0.0, 0.0, 0.0
253, 0.09645909645909646, -0.2967032967032967, -0.31135531135531136, -0.09375, -0.03125, -0.03125, 0.0
254, -0.27350427350427353, 0.23076923076923078, 0.10012210012210013, 0.21875, 0.03125, 0.0, 0.0
255, -0.014652014652014652, -0.03418803418803419, 0.10134310134310134, 0.53125, 0.15625, -0.03125, 0.0
256, 0.21611721611721613, -0.78998778998779, -0.3907203907203907, 0.40625, 0.15625, -0.25, 0.0
257, -0.21855921855921856, -0.1575091575091575, -0.6813186813186813, 0.34375, 0.28125, -0.21875, 0.0
258, -0.23076923076923078, -0.29181929181929184, -0.7973137973137974, 0.28125, 0.4375, -0.21875, 1.0
259, -0.09035409035409035, -0.5262515262515263, -1.1831501831501832, 0.0, 0.59375, -0.3125, 1.0
260, -0.06349206349206349, 0.08180708180708181, -0.8473748473748474, -0.25, 0.5625, -0.21875, 1.0
261, -0.5738705738705738, 1.3345543345543345, -0.13797313797313798, -0.25, 0.46875, -0.21875, 1.0
262, -0.5726495726495726, 1.722832722832723, -0.0463980463980464, -0.09375, 0.34375, -0.15625, 1.0
263, -0.3968253968253968, 1.8302808302808302, 0.0231990231990232, -0.1875, 0.15625, 0.03125, 1.0
264, 1.0757020757020757, 2.954822954822955, 1.1489621489621489, -0.0625, -0.34375, 0.125, 1.0
265, 0.221001221001221, 2.8925518925518925, -0.15873015873015872, 0.09375, -0.8125, 0.0, 1.0
266, 0.02564102564102564, 2.982905982905983, -0.6092796092796092, 0.15625, -0.5625, -0.25, 1.0
267, 0.09768009768009768, 2.6776556776556775, -0.49206349206349204, 0.15625, -0.59375, -0.0625, 1.0
268, -0.10012210012210013, 1.8547008547008548, -1.2222222222222223, -0.03125, -0.8125, 0.0, 1.0
269, -0.07448107448107448, 1.4566544566544566, -1.1831501831501832, -0.53125, -0.9375, 0.09375, 1.0
270, -1.0012210012210012, 1.910866910866911, -0.7887667887667887, -0.59375, -0.875, 0.0, 1.0
271, -1.308913308913309, 1.8571428571428572, -0.8266178266178266, -0.1875, -0.34375, -0.03125, 1.0
272, 0.06227106227106227, 0.1221001221001221, -1.465201465201465, -0.15625, -0.0625, 0.0, 1.0
273, 0.029304029304029304, 0.06471306471306472, -1.2673992673992673, -0.6875, -0.375, -0.03125, 1.0
274, 0.03418803418803419, 0.5238095238095238, -0.09401709401709402, -0.6875, -0.5, 0.03125, 1.0
275, -0.612942612942613, 0.3492063492063492, 0.5335775335775336, -0.21875, -0.5, 0.1875, 1.0
276, -0.06593406593406594, -0.4932844932844933, 0.6642246642246642, 0.09375, -0.15625, 0.28125, 1.0
277, 0.6471306471306472, -2.081807081807082, -0.5946275946275946, -0.21875, -0.0625, 0.03125, 1.0
278, 0.01221001221001221, -1.2442002442002442, 0.31013431013431014, -0.75, -0.21875, -0.28125, 1.0
279, -0.5555555555555556, -1.376068376068376, 0.6947496947496947, -0.59375, -0.21875, -0.0625, 1.0
280, -0.39438339438339437, -1.656898656898657, 0.7277167277167277, -0.4375, -0.03125, 0.125, 1.0
281, -0.2905982905982906, -3.0244200244200243, -0.5787545787545788, -0.28125, 0.1875, 0.3125, 1.0
282, 0.8791208791208791, -3.173382173382173, -0.452991452991453, -0.59375, 0.28125, 0.34375, 1.0
283, 0.7533577533577533, -2.578754578754579, 1.0842490842490842, -0.34375, 0.28125, 0.15625, 1.0
284, 0.2796092796092796, -3.0720390720390722, 0.38095238095238093, 0.21875, 0.59375, 0.15625, 1.0
285, 0.3333333333333333, -3.343101343101343, -0.3064713064713065, 0.40625, 0.6875, 0.1875, 1.0
286, 0.6349206349206349, -3.6996336996337, 0.009768009768009768, 0.25, 0.3125, 0.4375, 1.0
287, -1.424908424908425, -3.440781440781441, 0.03663003663003663, 0.25, 0.0625, 0.625, 1.0
288, -1.4493284493284493, -3.3504273504273505, 0.9584859584859585, 0.5625, 0.84375, 0.71875, 1.0
289, 2.0586080586080584, -4.725274725274725, 1.612942612942613, 0.34375, 0.59375, 0.34375, 1.0
290, 2.103785103785104, -4.5396825396825395, 0.48595848595848595, 0.1875, -0.03125, 0.09375, 1.0
291, -0.3663003663003663, -3.9096459096459095, -1.0915750915750915, 0.15625, -0.03125, 0.15625, 1.0
292, -0.5555555555555556, -2.9853479853479854, -0.5616605616605617, 0.25, 0.34375, 0.1875, 1.0
293, 0.5311355311355311, -3.641025641025641, 0.18803418803418803, 0.0, 0.0, 0.09375, 1.0
294, -1.2124542124542124, -3.409035409035409, -0.39194139194139194, -0.5, -0.0625, 0.0, 1.0
295, -0.7387057387057387, -3.4554334554334556, -0.13675213675213677, -1.0625, 0.1875, 0.0, 0.0
296, 0.4517704517704518, -3.191697191697192, -0.001221001221001221, -1.0625, 0.0, -0.03125, 0.0
297, -0.7081807081807082, -2.741147741147741, -1.0940170940170941, -0.5625, 0.0, -0.0625, 0.0
298, -0.358974358974359, -2.954822954822955, -1.2673992673992673, -0.21875, 0.09375, 0.0, 0.0
299, 0.9023199023199023, -3.2747252747252746, -0.6385836385836385, -0.28125, -0.15625, -0.0625, 0.0
300, -0.1111111111111111, -3.056166056166056, -0.30158730158730157, -0.125, -0.375, -0.03125, 0.0
301, -2.0366300366300365, -3.3772893772893773, -1.6398046398046398, 0.0, 0.125, 0.125, 0.0
302, -0.9877899877899878, -4.338217338217338, -1.6251526251526252, -0.09375, 0.59375, 0.1875, 0.0
303, 0.8620268620268621, -5.402930402930403, -0.9706959706959707, -0.46875, 0.46875, 0.125, 0.0
304, 3.4249084249084247, -5.769230769230769, 0.7057387057387058, -0.90625, -0.28125, 0.0, 0.0
305, 2.5274725274725274, -4.688644688644689, 1.811965811965812, -0.875, -1.0, -0.40625, 0.0
306, -0.5592185592185592, -3.67032967032967, 1.2307692307692308, -0.375, -0.71875, -0.3125, 0.0
307, -2.137973137973138, -2.746031746031746, 0.7802197802197802, 0.0, -0.46875, 0.28125, 0.0
308, -1.5286935286935286, -1.6117216117216118, 0.8156288156288156, 0.1875, -0.03125, 0.375, 0.0
309, 0.4896214896214896, -1.105006105006105, 1.3833943833943834, 0.03125, 0.03125, 0.0, 0.0
310, 1.1587301587301588, -0.5677655677655677, 2.376068376068376, -0.0625, -0.40625, -0.125, 0.0
311, 0.9572649572649573, -0.3833943833943834, 2.6227106227106227, -0.125, -1.0625, 0.21875, 0.0
312, 0.050061050061050064, 0.8620268620268621, 0.315018315018315, 0.34375, -0.78125, -0.15625, 0.0
313, -3.2246642246642248, 3.1172161172161172, 0.06715506715506715, 0.84375, 0.75, -0.3125, 0.0
314, -1.492063492063492, 2.2051282051282053, 1.017094017094017, 0.84375, 1.375, -0.125, 0.0
315, -0.304029304029304, 1.601953601953602, 1.5433455433455434, 0.4375, 0.78125, 0.09375, 0.0
316, -0.02564102564102564, 2.8986568986568986, 1.6764346764346765, 0.09375, 0.0, 0.34375, 0.0
317, -0.9829059829059829, 3.815628815628816, 1.0940170940170941, 0.15625, -0.21875, 0.3125, 0.0
318, -0.7948717948717948, 2.7655677655677655, 0.3601953601953602, 0.46875, 0.25, 0.375, 0.0
319, -0.37362637362637363, 1.8278388278388278, -0.07448107448107448, 0.59375, 0.53125, 0.28125, 0.0
320, -0.39316239316239315, 1.8253968253968254, -0.5323565323565324, 0.625, 0.28125, 0.3125, 0.0
321, -0.4065934065934066, 1.9401709401709402, -0.9511599511599511, 0.65625, 0.03125, 0.1875, 0.0
322, -0.4078144078144078, 2.1294261294261294, -1.3516483516483517, 0.625, -0.0625, 0.21875, 0.0
323, -0.03785103785103785, 1.242979242979243, -2.340659340659341, 0.53125, 0.125, 0.34375, 0.0
324, 0.409035409035409, 0.7814407814407814, -2.526251526251526, 0.28125, 0.28125, 0.1875, 0.0
325, 0.5213675213675214, 0.8717948717948718, -2.4395604395604398, 0.125, 0.21875, 0.15625, 0.0
326, 0.20024420024420025, 0.9120879120879121, -2.15995115995116, -0.09375, 0.15625, 0.09375, 0.0
327, -0.811965811965812, 1.376068376068376, -2.0097680097680097, -0.21875, 0.3125, 0.0, 0.0
328, -0.5067155067155067, 0.6581196581196581, -2.056166056166056, -0.1875, 0.3125, 0.09375, 0.0
329, 0.07692307692307693, 0.06105006105006105, -1.866910866910867, -0.3125, 0.15625, 0.1875, 0.0
330, 0.49572649572649574, -0.07081807081807082, -1.1636141636141637, -0.59375, 0.1875, 0.15625, 0.0
331, 0.3492063492063492, 0.14896214896214896, -0.06227106227106227, -0.71875, 0.4375, 0.0, 0.0
332, 0.452991452991453, -0.41514041514041516, 0.43833943833943834, -0.53125, 0.46875, -0.09375, 0.0
333, 0.2771672771672772, -0.8327228327228328, 0.23443223443223443, -0.40625, 0.25, -0.1875, 0.0
334, -0.2698412698412698, -0.38705738705738707, 0.09523809523809523, -0.375, 0.1875, -0.1875, 0.0
335, -0.20512820512820512, -0.16483516483516483, 0.1514041514041514, -0.25, 0.28125, -0.25, 0.0
336, -0.7936507936507936, 1.1758241758241759, 0.927960927960928, 0.53125, 0.40625, -0.625, 0.0
337, -0.9365079365079365, 0.4456654456654457, 1.3223443223443223, 0.875, 0.53125, -0.75, 0.0
338, -0.3076923076923077, -0.7484737484737485, -0.2954822954822955, 0.28125, 0.375, -0.625, 1.0
339, -1.0012210012210012, -0.27472527472527475, -1.7667887667887667, -0.65625, 0.28125, -0.25, 1.0
340, -0.46153846153846156, 0.1623931623931624, -0.9975579975579976, -1.03125, 0.09375, 0.0, 1.0
341, -0.4713064713064713, 2.473748473748474, 1.7753357753357752, 0.15625, -0.09375, -0.15625, 1.0
342, -0.6275946275946276, 1.4847374847374848, 1.5335775335775337, 1.125, -0.09375, -0.46875, 1.0
343, 0.06471306471306472, 0.3443223443223443, -0.22954822954822954, 0.78125, -0.15625, -0.5, 1.0
344, -0.42857142857142855, 0.398046398046398, -2.1355311355311355, -0.21875, -0.0625, -0.28125, 1.0
345, -0.7155067155067155, 1.8925518925518925, -1.575091575091575, -0.75, 0.0, -0.125, 1.0
346, -1.1111111111111112, 3.3003663003663, 0.08669108669108669, -0.25, -0.28125, -0.09375, 1.0
347, -1.4273504273504274, 1.993894993894994, -0.778998778998779, 0.03125, -0.375, -0.03125, 1.0
348, -0.938949938949939, 0.9804639804639804, -1.7411477411477412, -0.1875, -0.40625, 0.0625, 1.0
349, 0.514041514041514, -0.3431013431013431, -2.3736263736263736, -0.46875, -0.6875, 0.21875, 1.0
350, 0.4358974358974359, -0.10622710622710622, -2.347985347985348, -0.65625, -0.46875, 0.1875, 1.0
351, 0.21001221001221002, 0.6239316239316239, -1.5787545787545787, -0.53125, -0.28125, 0.09375, 1.0
352, 0.24053724053724054, 0.3199023199023199, -0.7777777777777778, -0.46875, -0.34375, -0.125, 1.0
353, -0.5958485958485958, 0.42002442002442003, -0.5995115995115995, -0.5625, -0.21875, -0.1875, 1.0
354, -1.3833943833943834, 0.34554334554334554, -0.14407814407814407, -0.5625, -0.15625, 0.25, 1.0
355, -1.1758241758241759, -0.23809523809523808, 0.7619047619047619, -0.375, -0.28125, 0.46875, 1.0
356, -0.45665445665445664, -1.0952380952380953, 0.7448107448107448, -0.21875, -0.1875, 0.375, 1.0
357, 0.5470085470085471, -2.6117216117216118, 0.5299145299145299, -0.375, 0.09375, -0.46875, 1.0
358, -0.49572649572649574, -2.509157509157509, 1.1245421245421245, -0.34375, 0.46875, -0.65625, 1.0
359, -0.38461538461538464, -3.6507936507936507, 0.7973137973137974, -0.21875, 0.0, 0.59375, 1.0
360, 0.2490842490842491, -5.013431013431013, 0.3724053724053724, -0.1875, -0.4375, 0.71875, 1.0
361, 0.304029304029304, -6.1330891330891335, -1.006105006105006, -0.3125, 0.09375, 0.125, 1.0
362, -0.1452991452991453, -5.417582417582418, -0.44078144078144077, -0.6875, 0.3125, -0.1875, 1.0
363, -0.34798534798534797, -5.137973137973138, 0.09768009768009768, -0.40625, 0.40625, 0.03125, 1.0
364, -0.16117216117216118, -5.621489621489621, -0.6727716727716728, -0.3125, 0.09375, 0.4375, 1.0
365, -0.7387057387057387, -4.642246642246643, 0.4017094017094017, 0.0, -0.15625, 0.5, 1.0
366, -1.6727716727716728, -4.755799755799756, 0.221001221001221, 0.375, 0.28125, 0.34375, 1.0
367, -0.9755799755799756, -5.091575091575091, -0.5372405372405372, 0.34375, 0.84375, 0.34375, 1.0
368, 0.9938949938949939, -5.25030525030525, 0.6166056166056166, 0.0625, 0.3125, 0.65625, 1.0
369, -0.08669108669108669, -4.681318681318682, 1.0390720390720392, 0.09375, -0.21875, 0.46875, 1.0
370, -1.5897435897435896, -4.3247863247863245, 0.7191697191697192, 0.53125, 0.4375, 0.21875, 1.0
371, 0.16361416361416362, -4.6007326007326, 0.6202686202686203, 0.59375, 0.875, 0.28125, 1.0
372, 1.7374847374847375, -4.717948717948718, 0.6251526251526252, 0.1875, 0.03125, 0.3125, 1.0
373, -0.18437118437118438, -4.650793650793651, -0.9975579975579976, -0.03125, -0.625, 0.15625, 1.0
374, -0.8986568986568987, -4.611721611721611, -2.7875457875457874, -0.1875, -0.15625, 0.0, 1.0
375, -0.3553113553113553, -4.9804639804639805, -2.043956043956044, -0.0625, 0.25, 0.0, 1.0
376, -0.10622710622710622, -4.313797313797314, -0.5238095238095238, -0.375, 0.1875, 0.0, 0.0
377, -0.39316239316239315, -4.51037851037851, -0.26495726495726496, -0.625, -0.09375, 0.03125, 0.0
378, -0.5714285714285714, -5.311355311355311, -0.7313797313797313, -0.59375, -0.1875, 0.0, 0.0
379, 0.1684981684981685, -5.208791208791209, -1.0244200244200243, -0.6875, -0.09375, 0.09375, 0.0
380, 0.8901098901098901, -5.826617826617826, -0.5531135531135531, -0.71875, -0.25, 0.15625, 0.0
381, -0.07814407814407814, -6.153846153846154, -0.8290598290598291, -0.71875, -0.375, 0.0, 0.0
382, -0.25274725274725274, -5.942612942612943, -0.4652014652014652, -0.625, -0.15625, -0.1875, 0.0
383, -0.38461538461538464, -5.427350427350428, 0.13797313797313798, -0.46875, -0.0625, -0.40625, 0.0
384, 0.08058608058608059, -4.484737484737485, 0.724053724053724, -0.71875, -0.34375, -0.15625, 0.0
385, -0.7936507936507936, -3.0366300366300365, 1.115995115995116, -0.875, -0.59375, -0.0625, 0.0
386, -1.2588522588522588, -1.962148962148962, 1.286935286935287, -0.625, -0.21875, 0.0, 0.0
387, -1.413919413919414, -1.5567765567765568, 1.363858363858364, -0.28125, 0.125, 0.0625, 0.0
388, -0.6202686202686203, -1.8888888888888888, 1.9572649572649572, -0.1875, 0.0625, 0.1875, 0.0
389, -0.2869352869352869, -1.4322344322344323, 2.2735042735042734, -0.21875, -0.15625, 0.09375, 0.0
390, -0.5628815628815629, 0.1807081807081807, 2.2564102564102564, -0.03125, -0.25, 0.125, 0.0
391, -1.0842490842490842, 1.2857142857142858, 1.768009768009768, 0.1875, -0.15625, 0.21875, 0.0
392, -1.188034188034188, 1.7777777777777777, 1.0854700854700854, 0.4375, 0.03125, 0.59375, 0.0
393, -1.2393162393162394, 1.57997557997558, 0.7741147741147741, 0.5, 0.65625, 0.125, 0.0
394, -1.3540903540903542, 2.3076923076923075, 1.1807081807081807, 0.53125, 0.90625, 0.1875, 0.0
395, -0.2515262515262515, 1.6117216117216118, 1.1611721611721613, 0.53125, 0.65625, 0.53125, 0.0
396, 0.5201465201465202, 1.4346764346764347, 1.2564102564102564, 0.5, 0.21875, 0.53125, 0.0
397, 0.3601953601953602, 1.3076923076923077, 0.3882783882783883, 0.5, 0.03125, 0.34375, 0.0
398, -0.6007326007326007, 1.684981684981685, -0.6581196581196581, 0.6875, 0.34375, 0.15625, 0.0
399, -0.6043956043956044, 1.5543345543345544, -1.0268620268620268, 0.78125, 0.59375, 0.34375, 0.0
400, -0.16727716727716727, 1.0903540903540903, -1.0512820512820513, 0.625, 0.59375, 0.46875, 0.0
401, -0.018315018315018316, 1.534798534798535, -1.017094017094017, 0.59375, 0.375, 0.34375, 0.0
402, 0.5421245421245421, 1.3174603174603174, -1.4981684981684982, 0.6875, -0.0625, 0.25, 0.0
403, 1.5286935286935286, 0.3833943833943834, -2.431013431013431, 0.34375, -0.21875, 0.125, 0.0
404, 0.5702075702075702, 0.6666666666666666, -3.1758241758241756, 0.0, 0.1875, -0.0625, 0.0
405, -0.514041514041514, 1.78998778998779, -2.9450549450549453, 0.03125, 0.625, -0.0625, 0.0
406, 0.2893772893772894, 1.3956043956043955, -2.057387057387057, 0.0625, 0.46875, -0.125, 0.0
407, 0.37484737484737485, 0.6617826617826618, -1.5592185592185592, -0.125, 0.25, -0.1875, 0.0
408, 0.06349206349206349, 0.01221001221001221, -1.5335775335775337, -0.53125, 0.3125, -0.21875, 0.0
409, -0.12454212454212454, 0.4981684981684982, -1.0915750915750915, -0.59375, 0.375, -0.21875, 0.0
410, 0.031746031746031744, 1.7667887667887667, 0.8522588522588522, 0.53125, 0.15625, -0.6875, 0.0
411, -0.23565323565323565, -0.07326007326007326, 0.2954822954822955, 1.03125, 0.4375, -0.96875, 1.0
412, 0.590964590964591, -0.45787545787545786, -1.286935286935287, 0.53125, 0.34375, -0.6875, 1.0
413, 0.2625152625152625, 0.336996336996337, -1.043956043956044, 0.0, -0.125, -0.4375, 1.0
414, -1.133089133089133, 1.0341880341880343, -0.8412698412698413, 0.09375, -0.21875, -0.46875, 1.0
415, -0.9926739926739927, 1.2417582417582418, -0.30036630036630035, 0.28125, 0.15625, -0.4375, 1.0
416, -0.47496947496947495, 0.7716727716727717, -0.6642246642246642, -0.09375, 0.09375, -0.28125, 1.0
417, 0.24664224664224665, -0.2967032967032967, -1.2503052503052503, -0.59375, -0.1875, -0.0625, 1.0
418, 0.663003663003663, -0.4725274725274725, -2.1404151404151404, -1.0625, -0.25, 0.03125, 1.0
419, 1.0097680097680097, 0.6446886446886447, -1.2442002442002442, -0.90625, -0.28125, 0.0, 1.0
420, 0.08913308913308914, 1.010989010989011, -1.4578754578754578, -0.375, -0.34375, -0.1875, 1.0
421, -0.7216117216117216, 0.967032967032967, -1.7985347985347986, -0.46875, -0.21875, -0.40625, 1.0
422, -1.8266178266178266, 2.393162393162393, -0.3772893772893773, -0.78125, -0.03125, -0.5625, 1.0
423, -1.4444444444444444, 1.435897435897436, 0.36752136752136755, -0.5, -0.125, 0.0, 1.0
424, -0.9108669108669109, 0.32844932844932845, 0.6568986568986569, -0.3125, -0.5, 0.25, 1.0
425, -0.43223443223443225, -0.63003663003663, -0.15384615384615385, -0.28125, -0.53125, 0.34375, 1.0
426, 0.14896214896214896, -1.0231990231990231, -0.47619047619047616, -0.53125, -0.1875, -0.03125, 1.0
427, -1.1086691086691087, -0.25274725274725274, -0.03418803418803419, -0.53125, 0.0, -0.1875, 1.0
428, -0.3711843711843712, -2.727716727716728, -0.4126984126984127, -0.125, 0.03125, 0.53125, 1.0
429, 1.0805860805860805, -4.858363858363858, -1.557997557997558, -0.1875, -0.125, 0.65625, 1.0
430, 0.8669108669108669, -5.423687423687424, -2.04029304029304, -0.5625, -0.25, 0.3125, 1.0
431, 0.004884004884004884, -4.481074481074481, -0.9621489621489622, -0.75, 0.0625, -0.3125, 1.0
432, -0.6324786324786325, -4.054945054945055, 0.07936507936507936, -0.15625, 0.625, -0.53125, 1.0
433, 0.3089133089133089, -5.666666666666667, 0.5262515262515263, 0.03125, 0.21875, 0.3125, 1.0
434, -1.017094017094017, -5.8669108669108665, -0.4053724053724054, -0.21875, -0.5625, 0.53125, 1.0
435, -1.6275946275946276, -5.619047619047619, -0.724053724053724, -0.25, 0.71875, 0.1875, 1.0
436, 0.1807081807081807, -5.708180708180708, 1.0, -0.15625, 0.5625, 0.125, 1.0
437, -0.14407814407814407, -5.283272283272283, 1.684981684981685, 0.125, 0.0, 0.375, 1.0
438, -1.4273504273504274, -5.230769230769231, -0.028083028083028084, 0.28125, 0.46875, 0.46875, 1.0
439, 1.2722832722832722, -6.52991452991453, -0.452991452991453, -0.1875, 0.125, 0.28125, 1.0
440, 0.39194139194139194, -5.641025641025641, 0.409035409035409, -0.25, -0.4375, 0.0, 1.0
441, -2.711843711843712, -4.228327228327228, 0.21245421245421245, 0.25, 0.3125, 0.25, 1.0
442, -1.1465201465201464, -4.457875457875458, 0.1343101343101343, 0.5, 1.0, 0.25, 1.0
443, 2.1636141636141635, -6.1208791208791204, -0.026862026862026864, -0.1875, 0.03125, -0.15625, 1.0
444, -1.5494505494505495, -4.231990231990232, -0.38095238095238093, -0.46875, -0.25, -0.03125, 1.0
445, -2.8058608058608057, -3.3614163614163615, -0.06715506715506715, 0.03125, 0.59375, 0.21875, 1.0
446, 0.49694749694749696, -4.8669108669108665, -0.8327228327228328, 0.3125, 0.71875, 0.21875, 1.0
447, 2.0842490842490844, -6.31013431013431, -1.7875457875457876, -0.15625, -0.03125, 0.03125, 0.0
448, 0.5848595848595849, -5.427350427350428, -1.358974358974359, -0.5, -0.15625, -0.0625, 0.0
449, 0.1684981684981685, -5.2625152625152625, -1.1233211233211233, -0.6875, -0.15625, -0.0625, 0.0
450, 0.07203907203907203, -5.051282051282051, -0.9963369963369964, -0.5625, -0.5, 0.0, 0.0
451, -0.746031746031746, -5.553113553113553, -0.6483516483516484, -0.4375, -0.6875, 0.15625, 0.0
452, 0.2600732600732601, -6.473748473748474, -0.07081807081807082, -0.5625, -0.75, 0.03125, 0.0
453, 0.03296703296703297, -6.058608058608058, 0.0463980463980464, -0.65625, -0.5, -0.09375, 0.0
454, 0.16605616605616605, -5.514041514041514, 0.21245421245421245, -0.625, -0.4375, -0.21875, 0.0
455, -0.6043956043956044, -5.719169719169719, 0.2222222222222222, -0.59375, -0.53125, -0.1875, 0.0
456, -1.695970695970696, -4.831501831501831, 0.31013431013431014, -0.5625, -0.4375, -0.03125, 0.0
457, -1.4224664224664225, -4.285714285714286, 0.5506715506715507, -0.625, -0.53125, 0.28125, 0.0
458, -0.9706959706959707, -3.0683760683760686, 0.8131868131868132, -0.53125, -0.4375, 0.3125, 0.0
459, 0.21978021978021978, -2.5177045177045176, 1.706959706959707, -0.15625, -0.03125, 0.125, 0.0
460, -0.8669108669108669, -1.5592185592185592, 1.2124542124542124, 0.0, 0.21875, 0.0, 0.0
461, -1.15995115995116, -1.0293040293040292, 1.0024420024420024, 0.125, 0.28125, 0.0, 0.0
462, -0.4481074481074481, 0.3833943833943834, 1.0183150183150182, 0.1875, 0.28125, -0.0625, 0.0
463, 0.34676434676434675, 1.2783882783882783, 1.0451770451770452, 0.25, 0.25, 0.03125, 0.0
464, 0.15873015873015872, 1.177045177045177, 0.5567765567765568, 0.40625, 0.21875, 0.03125, 0.0
465, -1.3406593406593406, 1.0732600732600732, -0.24786324786324787, 0.375, 0.3125, 0.125, 0.0
466, -1.5506715506715507, 1.231990231990232, -0.2857142857142857, 0.25, 0.75, 0.3125, 0.0
467, -1.0256410256410255, 1.9975579975579976, 0.5518925518925519, 0.21875, 0.90625, 0.34375, 0.0
468, -0.7472527472527473, 2.2393162393162394, 1.122100122100122, 0.40625, 0.6875, 0.375, 0.0
469, -0.27228327228327226, 1.4578754578754578, 0.9426129426129426, 0.5625, 0.4375, 0.375, 0.0
470, -0.06105006105006105, 0.5225885225885226, -0.19536019536019536, 0.625, 0.15625, 0.34375, 0.0
471, -0.01098901098901099, 1.0085470085470085, -1.321123321123321, 0.6875, 0.15625, 0.40625, 0.0
472, -0.05616605616605617, 1.1721611721611722, -1.6727716727716728, 0.75, 0.375, 0.40625, 0.0
473, 0.21978021978021978, 1.1965811965811965, -1.3052503052503053, 0.71875, 0.65625, 0.25, 0.0
474, 0.6715506715506715, 0.5238095238095238, -1.7594627594627594, 0.625, 0.59375, 0.28125, 0.0
475, 0.9597069597069597, -0.12332112332112333, -2.595848595848596, 0.1875, 0.1875, 0.4375, 0.0
476, 0.28205128205128205, 0.45787545787545786, -2.548229548229548, -0.1875, -0.21875, 0.40625, 0.0
477, -0.6837606837606838, 1.028083028083028, -2.4346764346764345, -0.0625, 0.0, 0.1875, 0.0
478, -0.1807081807081807, 0.6617826617826618, -2.142857142857143, 0.21875, 0.46875, -0.03125, 0.0
479, 0.43345543345543347, 0.6117216117216118, -1.3663003663003663, 0.1875, 0.5, -0.09375, 0.0
480, 0.8620268620268621, 0.017094017094017096, -0.6886446886446886, 0.1875, 0.03125, -0.09375, 0.0
481, 0.1514041514041514, -0.25518925518925517, -0.6422466422466423, 0.40625, -0.375, -0.46875, 1.0
482, -0.398046398046398, 0.2967032967032967, -1.0476190476190477, 0.375, 0.03125, -0.65625, 1.0
483, 0.12332112332112333, 0.2026862026862027, -0.38461538461538464, 0.21875, 0.34375, -0.4375, 1.0
484, -0.05982905982905983, 0.17094017094017094, -0.9938949938949939, -0.3125, 0.0625, -0.28125, 1.0
485, -0.22466422466422467, 0.31746031746031744, -0.6105006105006106, -0.40625, 0.0, -0.15625, 1.0
486, 0.028083028083028084, -0.1330891330891331, -0.8205128205128205, -0.4375, 0.03125, -0.25, 1.0
487, 0.10622710622710622, 0.05982905982905983, -0.7557997557997558, -0.375, 0.03125, -0.3125, 1.0
488, -0.525030525030525, 0.8095238095238095, -0.49694749694749696, -0.1875, 0.0, -0.28125, 1.0
489, -1.0842490842490842, 1.3223443223443223, -0.40293040293040294, -0.09375, 0.0625, -0.03125, 1.0
490, -0.006105006105006105, 0.07936507936507936, -0.3553113553113553, -0.3125, -0.3125, 0.125, 1.0
491, 0.1575091575091575, -0.057387057387057384, -0.3089133089133089, -0.5625, -0.625, 0.0625, 1.0
492, -0.6105006105006106, 0.5531135531135531, -0.09035409035409035, -0.46875, -0.40625, -0.03125, 1.0
493, -0.16971916971916973, 0.4554334554334554, -0.13064713064713065, -0.28125, -0.125, -0.125, 1.0
494, -0.12698412698412698, 0.663003663003663, -0.20757020757020758, -0.15625, -0.0625, 0.0, 1.0
495, -0.006105006105006105, -0.12087912087912088, -0.6691086691086691, -0.375, -0.25, 0.15625, 1.0
496, -0.0463980463980464, -0.5177045177045178, -0.45665445665445664, -0.46875, -0.5625, 0.21875, 1.0
497, 0.42857142857142855, -1.652014652014652, -0.7252747252747253, -0.3125, -0.5625, -0.15625, 1.0
498, 0.23321123321123322, -2.562881562881563, -1.5006105006105006, -0.21875, -0.25, -0.1875, 1.0
499, 0.5470085470085471, -2.965811965811966, -1.6544566544566544, -0.34375, -0.09375, 0.15625, 1.0
500, 1.387057387057387, -3.3601953601953602, -1.4432234432234432, -0.625, -0.40625, 0.09375, 1.0
501, 0.4627594627594628, -2.5811965811965814, -0.7496947496947497, -0.625, -0.6875, 0.15625, 1.0
502, -0.3663003663003663, -2.8925518925518925, 0.14407814407814407, -0.3125, -0.59375, -0.03125, 1.0
503, -0.9413919413919414, -4.146520146520147, -0.6117216117216118, -0.21875, 0.0625, -0.375, 1.0
504, -0.2673992673992674, -4.7997557997558, -1.601953601953602, -0.5625, 0.3125, 0.0, 1.0
505, 0.326007326007326, -4.151404151404152, -0.1746031746031746, -0.625, -0.25, 0.125, 1.0
506, -0.49572649572649574, -3.4249084249084247, 0.7667887667887668, -0.15625, -0.1875, 0.25, 1.0
507, -0.5482295482295483, -4.266178266178266, 0.63003663003663, 0.125, 0.21875, 0.0, 1.0
508, -1.1623931623931625, -4.843711843711843, 0.08302808302808302, -0.15625, 0.46875, 0.15625, 1.0
509, 0.07814407814407814, -4.628815628815629, 0.8778998778998779, -0.375, 0.0, 0.3125, 1.0
510, -1.15995115995116, -4.013431013431013, 0.8656898656898657, 0.0, -0.125, 0.21875, 1.0
511, -2.045177045177045, -4.822954822954823, 0.047619047619047616, 0.53125, 0.40625, 0.125, 1.0
512, -0.6410256410256411, -5.233211233211233, 0.03907203907203907, 0.46875, 0.90625, 0.34375, 1.0
513, 0.5897435897435898, -6.063492063492063, 0.12576312576312576, 0.28125, 0.3125, 0.625, 1.0
514, -0.09645909645909646, -5.902319902319903, -0.27594627594627597, 0.0625, -0.15625, 0.59375, 1.0
515, -0.08058608058608059, -5.807081807081807, -0.3553113553113553, 0.09375, 0.125, 0.40625, 1.0
516, 0.20512820512820512, -5.77045177045177, -0.7997557997557998, -0.0625, 0.59375, 0.09375, 1.0
517, 0.6239316239316239, -5.6642246642246645, -0.9072039072039072, -0.53125, 0.40625, 0.0, 0.0
518, -0.03418803418803419, -5.043956043956044, -0.7362637362637363, -0.8125, -0.21875, 0.0, 0.0
519, -0.057387057387057384, -4.819291819291819, -0.6349206349206349, -0.625, -0.34375, -0.03125, 0.0
520, -0.019536019536019536, -4.903540903540904, -1.1123321123321124, -0.3125, -0.15625, -0.125, 0.0
521, -0.4713064713064713, -4.981684981684982, -1.358974358974359, -0.40625, -0.03125, -0.21875, 0.0
522, -0.9108669108669109, -4.661782661782662, -0.7118437118437119, -0.625, -0.0625, -0.1875, 0.0
523, -0.9987789987789988, -4.566544566544566, -0.4444444444444444, -0.59375, -0.25, -0.0625, 0.0
524, -0.39438339438339437, -4.885225885225886, -0.525030525030525, -0.4375, -0.34375, 0.0625, 0.0
525, -0.23931623931623933, -5.443223443223443, -0.5323565323565324, -0.3125, -0.53125, 0.09375, 0.0
526, -0.16971916971916973, -5.609279609279609, -0.2503052503052503, -0.40625, -0.625, 0.125, 0.0
527, -0.6996336996336996, -4.761904761904762, 0.20512820512820512, -0.65625, -0.59375, 0.0625, 0.0
528, -1.2173382173382172, -3.413919413919414, 0.43101343101343104, -0.53125, -0.15625, 0.0, 0.0
529, -0.7313797313797313, -2.763125763125763, 1.0964590964590966, -0.1875, 0.25, 0.09375, 0.0
530, -0.5311355311355311, -2.9584859584859586, 1.0903540903540903, -0.0625, 0.1875, 0.03125, 0.0
531, -0.6617826617826618, -3.3601953601953602, 0.7655677655677655, -0.15625, 0.0, 0.09375, 0.0
532, -0.6227106227106227, -3.241758241758242, 0.5604395604395604, -0.3125, -0.25, 0.28125, 0.0
533, -0.5714285714285714, -1.1294261294261294, 0.8522588522588522, -0.03125, -0.125, 0.03125, 0.0
534, -0.9902319902319903, 0.23565323565323565, 0.8034188034188035, 0.3125, 0.5, -0.03125, 0.0
535, -0.1916971916971917, -0.1807081807081807, 1.0427350427350428, 0.5625, 0.6875, 0.03125, 0.0
536, 0.6385836385836385, -1.63003663003663, 0.7264957264957265, 0.34375, 0.34375, 0.0, 0.0
537, -0.06349206349206349, -0.4981684981684982, 0.45787545787545786, 0.0625, 0.21875, 0.125, 0.0
538, -0.43833943833943834, 1.4371184371184371, 0.989010989010989, 0.09375, 0.40625, 0.21875, 0.0
539, -0.3492063492063492, 1.7191697191697193, 0.7203907203907204, 0.25, 0.5625, 0.34375, 0.0
540, -0.41514041514041516, 1.4566544566544566, 0.2087912087912088, 0.3125, 0.53125, 0.375, 0.0
541, -1.1452991452991452, 1.1892551892551892, -0.8266178266178266, 0.375, 0.625, 0.4375, 0.0
542, -1.05006105006105, 1.387057387057387, -0.796092796092796, 0.375, 0.59375, 0.625, 0.0
543, 0.07203907203907203, 0.9511599511599511, -0.7521367521367521, 0.28125, 0.15625, 0.6875, 0.0
544, 0.16483516483516483, 1.3956043956043955, -1.0842490842490842, 0.375, -0.1875, 0.53125, 0.0
545, 0.0, 1.3455433455433456, -1.465201465201465, 0.40625, -0.09375, 0.4375, 0.0
546, -0.4004884004884005, 1.15018315018315, -2.2283272283272284, 0.125, 0.1875, 0.5, 0.0
547, -0.6007326007326007, 1.735042735042735, -2.1648351648351647, -0.0625, 0.21875, 0.625, 0.0
548, 0.031746031746031744, 1.8339438339438339, -1.343101343101343, -0.15625, 0.09375, 0.5625, 0.0
549, 1.474969474969475, 1.1245421245421245, -0.2967032967032967, -0.25, 0.09375, 0.375, 0.0
550, 1.293040293040293, 1.1294261294261294, -0.07081807081807082, -0.0625, 0.1875, 0.21875, 0.0
551, 1.236874236874237, 0.6568986568986569, -0.4297924297924298, -0.03125, 0.09375, 0.09375, 0.0
552, 0.5726495726495726, 0.7594627594627594, -0.47619047619047616, -0.15625, 0.125, 0.0, 0.0
553, 0.11843711843711843, 0.9340659340659341, -0.3443223443223443, -0.25, 0.28125, -0.09375, 0.0
554, 0.1514041514041514, 0.9597069597069597, 0.15018315018315018, -0.15625, 0.34375, -0.03125, 0.0
555, 1.0097680097680097, 0.26373626373626374, 0.43956043956043955, 0.1875, 0.03125, -0.21875, 0.0
556, 0.15873015873015872, 0.18803418803418803, -0.015873015873015872, 0.53125, 0.15625, -0.46875, 0.0
557, 0.2026862026862027, -0.18925518925518925, -0.9255189255189256, 0.03125, 0.46875, -0.4375, 1.0
558, 0.03907203907203907, 1.1001221001221002, 0.3052503052503053, 0.0, 0.15625, -0.4375, 1.0
559, -0.5592185592185592, 1.1843711843711844, -0.28327228327228327, 0.1875, -0.03125, -0.40625, 1.0
560, -0.3137973137973138, 0.7838827838827839, -0.7435897435897436, 0.375, 0.0, -0.5, 1.0
561, -0.7191697191697192, 0.5860805860805861, -1.0402930402930404, 0.375, 0.125, -0.78125, 1.0
562, -0.9633699633699634, 0.4481074481074481, -1.7557997557997558, 0.09375, 0.5625, -0.71875, 1.0
563, 0.16727716727716727, 0.6959706959706959, -0.7582417582417582, -0.34375, 0.65625, -0.46875, 1.0
564, 0.3724053724053724, 0.46764346764346765, 0.052503052503052504, -0.40625, -0.09375, -0.25, 1.0
565, -0.18681318681318682, -0.21367521367521367, -0.800976800976801, -0.28125, -0.65625, -0.09375, 1.0
566, -0.018315018315018316, -0.9694749694749695, -1.684981684981685, -0.21875, -0.53125, -0.1875, 1.0
567, -0.29304029304029305, 0.14407814407814407, -1.1111111111111112, -0.25, -0.03125, -0.34375, 1.0
568, -0.10012210012210013, 0.6581196581196581, -0.04151404151404151, -0.125, 0.125, -0.34375, 1.0
569, -0.5921855921855922, 0.3833943833943834, 0.32967032967032966, 0.0625, -0.21875, -0.28125, 1.0
570, -1.1404151404151404, -0.5970695970695971, -0.3894993894993895, 0.09375, -0.5, -0.03125, 1.0
571, -1.343101343101343, -1.1391941391941391, -0.5152625152625152, 0.0, -0.5625, 0.15625, 1.0
572, -0.873015873015873, -2.21001221001221, -0.9963369963369964, 0.09375, -0.25, 0.375, 1.0
573, 0.9719169719169719, -3.9975579975579976, -1.822954822954823, 0.15625, 0.03125, 0.1875, 1.0
574, 1.768009768009768, -4.094017094017094, -1.5738705738705738, -0.28125, -0.1875, -0.15625, 1.0
575, 0.01221001221001221, -3.4358974358974357, -1.1355311355311355, -0.46875, -0.5625, -0.4375, 1.0
576, -1.2442002442002442, -4.0537240537240535, -1.8754578754578755, -0.25, -0.03125, -0.09375, 1.0
577, 0.7155067155067155, -5.809523809523809, -1.6654456654456655, -0.46875, 0.28125, 0.40625, 1.0
578, 0.9413919413919414, -5.177045177045177, -0.6349206349206349, -1.125, -0.125, 0.1875, 1.0
579, -0.23931623931623933, -4.031746031746032, 0.9181929181929182, -0.875, -0.34375, 0.0, 1.0
580, -1.304029304029304, -3.750915750915751, 1.065934065934066, -0.15625, 0.25, -0.3125, 1.0
581, -0.525030525030525, -5.423687423687424, 0.11965811965811966, -0.03125, 0.75, 0.4375, 1.0
582, 0.5299145299145299, -6.089133089133089, -0.4188034188034188, -0.5625, -0.34375, 0.4375, 1.0
583, -0.7094017094017094, -5.096459096459096, 0.10866910866910867, -0.40625, -0.21875, 0.40625, 1.0
584, -1.2612942612942613, -4.975579975579976, 0.7435897435897436, 0.125, 0.5, 0.21875, 1.0
585, -0.5482295482295483, -6.054945054945055, 0.04884004884004884, 0.125, 0.71875, 0.03125, 1.0
586, 1.2503052503052503, -6.1953601953601956, -0.03540903540903541, -0.3125, -0.28125, 0.15625, 1.0
587, -0.14774114774114774, -4.714285714285714, 0.9145299145299145, -0.09375, -0.875, 0.28125, 1.0
588, -2.2918192918192917, -4.78021978021978, -0.3894993894993895, 0.46875, 0.15625, 0.25, 1.0
589, -0.9120879120879121, -5.945054945054945, -1.221001221001221, 0.4375, 0.8125, 0.28125, 1.0
590, 1.0048840048840049, -5.94017094017094, -0.4175824175824176, -0.09375, 0.1875, 0.21875, 1.0
591, 0.17338217338217338, -5.255189255189255, 0.018315018315018316, -0.5, -0.09375, 0.15625, 0.0
592, -0.4261294261294261, -5.355311355311355, -0.44078144078144077, -0.78125, 0.09375, 0.15625, 0.0
593, -0.017094017094017096, -5.172161172161172, -0.8449328449328449, -0.84375, 0.09375, 0.0625, 0.0
594, -0.004884004884004884, -5.544566544566544, -1.2820512820512822, -0.9375, -0.03125, 0.0, 0.0
595, -0.2979242979242979, -4.586080586080586, -0.9035409035409036, -0.5, -0.09375, -0.0625, 0.0
596, -0.04395604395604396, -5.085470085470085, -0.7301587301587301, -0.28125, -0.15625, 0.0, 0.0
597, 0.19658119658119658, -5.824175824175824, -0.9328449328449329, -0.34375, -0.375, 0.09375, 0.0
598, 0.18315018315018314, -6.203907203907204, -0.4126984126984127, -0.46875, -0.71875, 0.125, 0.0
599, -0.41514041514041516, -5.175824175824176, -0.27472527472527475, -0.375, -0.34375, 0.0, 0.0
600, -0.03907203907203907, -4.681318681318682, 0.2490842490842491, -0.03125, -0.21875, -0.15625, 0.0
601, 0.10134310134310134, -5.3992673992674, 0.3504273504273504, 0.09375, -0.34375, -0.21875, 0.0
602, -0.18803418803418803, -5.981684981684982, -0.10012210012210013, -0.125, -0.5625, -0.21875, 0.0
603, -0.442002442002442, -4.406593406593407, -0.06349206349206349, -0.40625, -0.53125, -0.03125, 0.0
604, -1.1965811965811965, -2.178266178266178, 0.2576312576312576, -0.3125, 0.0, -0.1875, 0.0
605, -1.4017094017094016, -1.6166056166056166, 0.5494505494505495, -0.125, 0.5625, -0.375, 0.0
606, -1.2246642246642248, -1.9523809523809523, 0.5848595848595849, 0.0, 0.34375, -0.125, 0.0
607, -0.5946275946275946, -0.1684981684981685, 0.7777777777777778, 0.0, -0.03125, 0.0, 0.0
608, -0.20512820512820512, 0.557997557997558, 1.0537240537240538, 0.0, -0.09375, 0.03125, 0.0
609, -1.3272283272283272, 1.164835164835165, 0.6776556776556777, 0.0, 0.15625, -0.125, 0.0
610, -0.6385836385836385, 0.6105006105006106, 0.4297924297924298, 0.15625, 0.46875, 0.0625, 0.0
611, -0.009768009768009768, 0.6068376068376068, 0.43223443223443225, 0.15625, 0.40625, 0.1875, 0.0
612, 0.11965811965811966, 0.5946275946275946, 0.525030525030525, 0.0, 0.15625, 0.3125, 0.0
613, -0.11843711843711843, 0.9157509157509157, 0.8363858363858364, -0.0625, 0.15625, 0.3125, 0.0
614, -0.8901098901098901, 1.083028083028083, 0.2026862026862027, 0.15625, 0.5, 0.28125, 0.0
615, -0.1978021978021978, 0.8376068376068376, -0.2503052503052503, 0.53125, 0.6875, 0.4375, 0.0
616, 0.34065934065934067, 0.39316239316239315, -1.0952380952380953, 0.625, 0.375, 0.5, 0.0
617, 0.06715506715506715, 0.575091575091575, -1.4273504273504274, 0.375, 0.25, 0.28125, 0.0
618, -0.16483516483516483, 0.5775335775335775, -1.1587301587301588, 0.25, 0.46875, 0.125, 0.0
619, 0.3833943833943834, 0.10256410256410256, -1.0647130647130647, 0.34375, 0.4375, 0.3125, 0.0
620, 0.4835164835164835, 0.1111111111111111, -1.3137973137973138, 0.15625, 0.25, 0.34375, 0.0
621, 0.746031746031746, 0.4358974358974359, -0.6776556776556777, -0.09375, 0.28125, 0.25, 0.0
622, 0.0927960927960928, 0.9645909645909646, -0.34065934065934067, -0.0625, 0.3125, 0.03125, 0.0
623, -0.2698412698412698, 0.6568986568986569, -0.7716727716727717, 0.125, 0.21875, 0.03125, 0.0
624, -0.21855921855921856, 0.3882783882783883, -0.8901098901098901, 0.0625, 0.0625, 0.0, 0.0
625, 0.008547008547008548, 0.11965811965811966, -0.9572649572649573, -0.03125, 0.0, 0.03125, 0.0
626, -0.06105006105006105, 0.21733821733821734, -0.7216117216117216, -0.1875, 0.15625, 0.0, 0.0
627, 0.0757020757020757, 0.41147741147741146, 0.15262515262515264, -0.1875, 0.40625, 0.0, 0.0
628, 0.40415140415140416, 0.19413919413919414, 0.7264957264957265, 0.03125, 0.375, -0.03125, 0.0
629, 0.0231990231990232, -0.5616605616605617, -0.39316239316239315, 0.3125, 0.0, -0.1875, 0.0
630, -0.5616605616605617, -0.6556776556776557, -1.5909645909645909, 0.21875, 0.0625, -0.625, 0.0
631, -0.8363858363858364, -0.33943833943833945, -1.2026862026862026, 0.0, 0.5625, -0.53125, 1.0
632, 0.3162393162393162, -0.12454212454212454, 0.008547008547008548, 0.15625, 0.4375, -0.40625, 1.0
633, 0.21855921855921856, 0.09401709401709402, 0.20024420024420025, 0.3125, 0.09375, -0.34375, 1.0
634, 0.358974358974359, -0.7948717948717948, -0.221001221001221, 0.25, -0.15625, -0.09375, 1.0
635, 0.20512820512820512, -1.3394383394383393, -1.0134310134310134, -0.15625, -0.15625, -0.03125, 1.0
636, -0.3528693528693529, -0.36996336996337, -0.9267399267399268, -0.40625, 0.0625, -0.0625, 1.0
637, -0.702075702075702, 1.061050061050061, 0.38095238095238093, -0.09375, 0.0625, -0.125, 1.0
638, -0.6373626373626373, 0.5421245421245421, 0.34554334554334554, 0.0625, -0.28125, 0.03125, 1.0
639, -0.5091575091575091, -0.3431013431013431, -0.5860805860805861, -0.125, -0.5625, 0.125, 1.0
640, -0.7545787545787546, -0.5006105006105006, -1.15995115995116, -0.34375, -0.375, 0.0, 1.0
641, -0.6288156288156288, -0.43101343101343104, -1.3076923076923077, -0.375, -0.0625, 0.0, 1.0
642, -0.15873015873015872, -0.35653235653235654, -1.1306471306471306, -0.34375, -0.03125, 0.0, 1.0
643, 0.009768009768009768, 0.006105006105006105, -0.5311355311355311, -0.09375, -0.15625, 0.03125, 1.0
644, -0.33577533577533575, -0.5042735042735043, -0.9816849816849816, -0.125, -0.0625, 0.125, 1.0
645, -0.08669108669108669, -1.2087912087912087, -1.2905982905982907, -0.46875, 0.0, 0.25, 1.0
646, 0.8583638583638583, -1.4847374847374848, -0.8363858363858364, -0.5, -0.125, 0.1875, 1.0
647, 1.2735042735042734, -1.2234432234432235, 0.042735042735042736, -0.0625, -0.25, -0.21875, 1.0
648, 0.8791208791208791, -1.2747252747252746, -0.29181929181929184, 0.0625, -0.09375, -0.46875, 1.0
649, 0.04395604395604396, -0.9365079365079365, -0.9548229548229549, -0.0625, -0.0625, 0.15625, 1.0
650, 0.5787545787545788, -1.3345543345543345, -0.2893772893772894, -0.1875, -0.375, 0.25, 1.0
651, -0.39438339438339437, -1.5067155067155067, -0.0231990231990232, -0.1875, -0.46875, 0.28125, 1.0
652, -0.4432234432234432, -2.1697191697191696, 0.24175824175824176, -0.15625, -0.375, 0.09375, 1.0
653, -0.6910866910866911, -2.58974358974359, -0.25274725274725274, -0.25, 0.0, -0.1875, 1.0
654, -0.645909645909646, -2.786324786324786, -0.8205128205128205, -0.59375, 0.25, 0.15625, 1.0
655, -0.05128205128205128, -2.843711843711844, -0.09523809523809523, -0.4375, -0.125, 0.09375, 1.0
656, -0.14041514041514042, -3.9792429792429793, 0.1916971916971917, -0.0625, -0.40625, 0.15625, 1.0
657, -1.452991452991453, -4.537240537240537, -0.8962148962148963, 0.125, -0.09375, 0.03125, 1.0
658, -0.7277167277167277, -4.769230769230769, -1.1172161172161172, 0.0625, 0.4375, 0.28125, 1.0
659, 0.6764346764346765, -4.488400488400488, -0.3772893772893773, -0.1875, 0.28125, 0.375, 1.0
660, -0.07081807081807082, -4.311355311355311, 0.3540903540903541, -0.21875, -0.25, 0.3125, 1.0
661, -1.916971916971917, -4.289377289377289, -0.2600732600732601, 0.0, -0.125, 0.3125, 1.0
662, -1.8095238095238095, -4.351648351648351, 0.026862026862026864, 0.15625, 0.59375, 0.53125, 1.0
663, 0.706959706959707, -4.3699633699633695, 1.380952380952381, 0.3125, 0.9375, 0.5, 1.0
664, 1.0488400488400489, -4.391941391941392, 1.5995115995115996, 0.34375, 0.28125, 0.40625, 1.0
665, -0.34065934065934067, -4.257631257631258, 0.7045177045177046, 0.21875, -0.25, 0.375, 1.0
666, -0.6178266178266179, -4.559218559218559, -0.018315018315018316, 0.15625, -0.0625, 0.28125, 1.0
667, 0.3089133089133089, -5.051282051282051, -0.23931623931623933, -0.0625, 0.03125, 0.125, 1.0
668, 0.14041514041514042, -5.045177045177045, -0.34798534798534797, -0.5625, -0.21875, 0.0, 0.0
669, -0.4188034188034188, -4.0366300366300365, -0.6227106227106227, -0.96875, -0.21875, -0.15625, 0.0
670, -0.5738705738705738, -3.623931623931624, -0.7545787545787546, -1.09375, -0.03125, -0.25, 0.0
671, -0.4139194139194139, -3.5555555555555554, -0.6239316239316239, -0.65625, 0.0, -0.28125, 0.0
672, -0.3772893772893773, -4.4493284493284495, -1.2405372405372406, -0.375, -0.21875, -0.15625, 0.0
673, -0.6691086691086691, -5.168498168498169, -1.1452991452991452, -0.5625, -0.28125, -0.0625, 0.0
674, -0.8058608058608059, -5.026862026862027, -0.811965811965812, -0.75, 0.0, -0.0625, 0.0
675, -0.08058608058608059, -5.054945054945055, -0.04395604395604396, -0.59375, 0.1875, 0.0, 0.0
676, -0.057387057387057384, -4.984126984126984, 0.30036630036630035, -0.59375, 0.03125, 0.0, 0.0
677, -0.818070818070818, -4.113553113553113, 0.757020757020757, -0.59375, -0.1875, 0.0, 0.0
678, -0.7167277167277167, -3.148962148962149, 1.4017094017094016, -0.5, -0.1875, 0.0, 0.0
679, -0.442002442002442, -2.641025641025641, 1.3821733821733821, -0.375, -0.15625, 0.21875, 0.0
680, -0.09645909645909646, -2.7545787545787546, 1.1733821733821734, -0.15625, -0.0625, 0.1875, 0.0
681, 0.1452991452991453, -2.293040293040293, 1.2124542124542124, -0.09375, -0.28125, 0.0, 0.0
682, -0.5604395604395604, -1.0695970695970696, 0.938949938949939, 0.03125, -0.375, -0.25, 0.0
683, -1.089133089133089, -0.6593406593406593, 0.7118437118437119, 0.1875, -0.34375, -0.03125, 0.0
684, -0.6275946275946276, -0.5177045177045178, 0.894993894993895, 0.1875, -0.4375, -0.125, 0.0
685, -1.678876678876679, 0.7289377289377289, 0.3968253968253968, 0.375, -0.15625, -0.1875, 0.0
686, -1.5018315018315018, 1.5457875457875458, 0.13186813186813187, 0.65625, 0.4375, -0.25, 0.0
687, -0.16971916971916973, 1.2173382173382172, -0.23809523809523808, 0.6875, 0.65625, -0.375, 0.0
688, 0.45665445665445664, 1.52014652014652, -0.5946275946275946, 0.53125, 0.4375, -0.125, 0.0
689, 0.7155067155067155, 1.26007326007326, -0.6947496947496947, 0.15625, 0.15625, -0.03125, 0.0
690, 0.10134310134310134, 1.8803418803418803, -0.16361416361416362, 0.0, 0.25, -0.09375, 0.0
691, -0.7985347985347986, 2.572649572649573, 0.25518925518925517, 0.28125, 0.78125, -0.15625, 0.0
692, -0.796092796092796, 2.503052503052503, 0.04151404151404151, 0.59375, 0.9375, -0.0625, 0.0
693, -1.1086691086691087, 2.2747252747252746, -0.6837606837606838, 0.46875, 0.6875, 0.03125, 0.0
694, -0.8021978021978022, 1.336996336996337, -1.277167277167277, 0.125, 0.375, 0.21875, 0.0
695, -0.9230769230769231, 1.89010989010989, -0.8595848595848596, 0.1875, 0.3125, 0.21875, 0.0
696, -0.9938949938949939, 2.3882783882783882, -0.5982905982905983, 0.375, 0.5625, 0.34375, 0.0
697, -0.03540903540903541, 1.7753357753357752, -0.4932844932844933, 0.125, 0.59375, 0.40625, 0.0
698, 0.5396825396825397, 1.5128205128205128, -0.2967032967032967, -0.1875, 0.34375, 0.40625, 0.0
699, 0.2979242979242979, 1.5738705738705738, -0.36385836385836384, -0.125, 0.1875, 0.40625, 0.0
700, -0.18681318681318682, 1.8522588522588523, -0.6495726495726496, 0.0625, 0.21875, 0.28125, 0.0
701, -0.29181929181929184, 2.1257631257631258, -0.42124542124542125, 0.3125, 0.3125, 0.1875, 0.0
702, -0.0927960927960928, 1.9426129426129426, 0.3663003663003663, 0.375, 0.3125, 0.0625, 0.0
703, 1.0036630036630036, 0.6764346764346765, 0.221001221001221, 0.15625, 0.03125, 0.21875, 0.0
704, 1.0012210012210012, 0.4652014652014652, -0.08302808302808302, 0.125, -0.34375, 0.125, 0.0
705, -0.18437118437118438, 0.21978021978021978, -1.0036630036630036, 0.1875, 0.03125, -0.125, 0.0
706, 0.23076923076923078, 0.014652014652014652, -0.9304029304029304, 0.125, 0.34375, -0.21875, 1.0
707, -0.028083028083028084, 0.27472527472527475, -0.5213675213675214, -0.0625, 0.15625, -0.21875, 1.0
708, -0.23321123321123322, 0.57997557997558, -0.10622710622710622, 0.03125, 0.0, -0.125, 1.0
709, 0.1391941391941392, 0.001221001221001221, -0.5164835164835165, 0.15625, -0.09375, -0.09375, 1.0
710, -0.06593406593406594, 0.0, -1.1953601953601953, 0.03125, -0.21875, -0.125, 1.0
711, -0.6654456654456654, 0.14652014652014653, -2.122100122100122, -0.25, -0.15625, -0.15625, 1.0
712, 0.0, 0.36385836385836384, -1.4774114774114775, -0.53125, 0.0, -0.125, 1.0
713, 0.2490842490842491, -0.03540903540903541, -1.4725274725274726, -0.46875, -0.1875, -0.03125, 1.0
714, -0.09768009768009768, 0.20512820512820512, -1.5775335775335775, -0.4375, -0.21875, -0.0625, 1.0
715, -0.5592185592185592, 0.4542124542124542, -1.2661782661782661, -0.34375, -0.125, -0.1875, 1.0
716, -0.8632478632478633, 1.037851037851038, -0.6056166056166056, -0.46875, 0.125, -0.15625, 1.0
717, -0.5323565323565324, 1.380952380952381, 0.6385836385836385, -0.5625, 0.15625, 0.0, 1.0
718, -0.13064713064713065, 1.006105006105006, 1.4395604395604396, -0.375, -0.09375, 0.15625, 1.0
719, 0.07326007326007326, -0.4713064713064713, 0.6947496947496947, -0.1875, -0.40625, 0.15625, 1.0
720, -0.018315018315018316, -1.2356532356532357, -0.019536019536019536, -0.4375, -0.25, 0.0, 1.0
721, 0.6410256410256411, -1.2222222222222223, 0.43223443223443225, -0.4375, 0.03125, -0.1875, 1.0
722, 0.5653235653235653, -1.9584859584859584, -0.2503052503052503, 0.15625, 0.0, -0.03125, 1.0
723, 1.6593406593406594, -3.970695970695971, -1.7533577533577533, 0.0, -0.21875, 0.28125, 1.0
724, 0.3614163614163614, -3.128205128205128, -1.592185592185592, -0.625, -0.46875, 0.25, 1.0
725, -0.0695970695970696, -2.584859584859585, -0.7741147741147741, -0.5625, -0.125, 0.09375, 1.0
726, 0.3308913308913309, -3.2918192918192917, -0.7680097680097681, -0.4375, 0.1875, -0.125, 1.0
727, 0.1807081807081807, -3.7081807081807083, -0.4908424908424908, -0.5, 0.09375, -0.03125, 1.0
728, 0.0757020757020757, -4.05006105006105, -0.5848595848595849, -0.75, -0.03125, 0.125, 1.0
729, -0.5995115995115995, -3.67032967032967, -0.38705738705738707, -0.75, 0.25, -0.03125, 1.0
730, 0.02564102564102564, -3.1709401709401708, 0.6312576312576312, -0.3125, 0.25, -0.125, 1.0
731, -0.42124542124542125, -3.7045177045177047, 0.3553113553113553, -0.21875, -0.03125, 0.28125, 1.0
732, -0.6886446886446886, -4.001221001221001, 0.15506715506715507, -0.28125, -0.15625, 0.1875, 1.0
733, -1.2698412698412698, -4.007326007326007, -0.5641025641025641, -0.25, 0.03125, 0.09375, 1.0
734, -0.7081807081807082, -4.207570207570208, -0.4554334554334554, -0.15625, 0.0625, 0.03125, 1.0
735, -0.5934065934065934, -3.6776556776556775, 0.41025641025641024, 0.09375, -0.125, 0.25, 1.0
736, -1.5909645909645909, -3.7326007326007327, 0.463980463980464, 0.21875, 0.125, 0.40625, 1.0
737, -1.1672771672771673, -4.3418803418803416, -0.2454212454212454, 0.15625, 0.5625, 0.28125, 1.0
738, 0.6862026862026862, -4.367521367521367, 0.07814407814407814, 0.0, 0.0625, 0.25, 1.0
739, 0.4004884004884005, -4.111111111111111, 0.6666666666666666, 0.0, -0.46875, 0.28125, 1.0
740, -1.0415140415140416, -3.978021978021978, 0.3028083028083028, 0.0, -0.28125, 0.28125, 1.0
741, -1.7155067155067154, -4.485958485958486, -0.2454212454212454, 0.0, 0.28125, 0.1875, 1.0
742, -0.4835164835164835, -5.498168498168498, -0.7130647130647131, -0.3125, 0.625, 0.09375, 1.0
743, 0.9731379731379731, -5.045177045177045, -0.6434676434676435, -0.5625, 0.0625, 0.0625, 0.0
744, 0.8449328449328449, -4.7997557997558, -0.8901098901098901, -0.5625, -0.4375, -0.0625, 0.0
745, 0.45787545787545786, -5.153846153846154, -1.7802197802197801, -0.78125, -0.4375, -0.21875, 0.0
746, -0.39316239316239315, -4.750915750915751, -2.0, -0.8125, -0.1875, -0.28125, 0.0
747, -1.2735042735042734, -4.086691086691086, -1.7667887667887667, -0.78125, -0.09375, -0.1875, 0.0
748, -1.8046398046398047, -3.4822954822954824, -1.3565323565323566, -0.65625, 0.0, -0.09375, 0.0
749, -1.6288156288156288, -3.421245421245421, -0.2869352869352869, -0.59375, 0.125, 0.0, 0.0
750, -1.0598290598290598, -4.0, 0.20757020757020758, -0.46875, 0.1875, 0.0, 0.0
751, -0.07081807081807082, -3.8534798534798536, 0.3247863247863248, -0.375, 0.03125, 0.0, 0.0
752, -0.05128205128205128, -3.600732600732601, 0.37606837606837606, -0.40625, -0.25, 0.09375, 0.0
753, -0.4053724053724054, -3.8424908424908426, 0.3028083028083028, -0.5625, -0.4375, 0.1875, 0.0
754, -1.5787545787545787, -1.6031746031746033, 0.8083028083028083, -0.40625, -0.125, 0.3125, 0.0
755, -0.3663003663003663, -0.905982905982906, 0.967032967032967, -0.03125, 0.375, 0.375, 0.0
756, 0.20757020757020758, -1.0964590964590966, 1.1013431013431014, 0.125, 0.375, 0.25, 0.0
757, 0.0927960927960928, -1.1904761904761905, 0.8363858363858364, 0.15625, 0.125, 0.125, 0.0
758, -0.045177045177045176, -0.5286935286935287, 0.8437118437118437, 0.09375, -0.03125, 0.0625, 0.0
759, 0.2564102564102564, 0.4810744810744811, 1.0427350427350428, 0.15625, -0.09375, 0.09375, 0.0
760, -0.7387057387057387, 0.8363858363858364, 0.5103785103785103, 0.375, -0.09375, 0.03125, 0.0
761, -0.8070818070818071, 0.5396825396825397, 0.23809523809523808, 0.59375, 0.3125, 0.0, 0.0
762, -0.7509157509157509, -0.002442002442002442, -0.11355311355311355, 0.53125, 0.53125, 0.0, 0.0
763, -0.5274725274725275, 0.463980463980464, -0.3492063492063492, 0.25, 0.375, 0.25, 0.0
764, 0.03540903540903541, 1.0525030525030525, -0.03907203907203907, 0.0, 0.21875, 0.375, 0.0
765, -0.06593406593406594, 1.5323565323565325, 0.46886446886446886, 0.09375, 0.15625, 0.28125, 0.0
766, -0.3333333333333333, 1.1746031746031746, 0.09157509157509157, 0.3125, 0.375, 0.3125, 0.0
767, -0.4481074481074481, 1.0366300366300367, -0.3528693528693529, 0.375, 0.53125, 0.34375, 0.0
768, -0.09035409035409035, 0.9511599511599511, -0.8327228327228328, 0.28125, 0.4375, 0.28125, 0.0
769, 0.23931623931623933, 1.2197802197802199, -0.7142857142857143, 0.21875, 0.1875, 0.21875, 0.0
770, 0.5934065934065934, 0.8583638583638583, -0.5115995115995116, 0.3125, 0.0, 0.375, 0.0
771, 0.7716727716727717, 0.6263736263736264, -0.7081807081807082, 0.3125, -0.09375, 0.375, 0.0
772, -0.37362637362637363, 1.0915750915750915, -1.126984126984127, 0.28125, -0.03125, 0.1875, 0.0
773, -0.5702075702075702, 1.0757020757020757, -1.0695970695970696, 0.28125, 0.25, 0.125, 0.0
774, 0.08547008547008547, 0.6886446886446886, -0.9914529914529915, 0.25, 0.25, 0.0625, 0.0
775, 0.2503052503052503, 0.673992673992674, -1.4053724053724053, 0.125, 0.0625, 0.0625, 0.0
776, 0.43223443223443225, 0.6141636141636142, -1.2405372405372406, -0.1875, 0.0, 0.1875, 0.0
777, -0.10866910866910867, 0.978021978021978, -0.5567765567765568, -0.25, -0.0625, 0.09375, 0.0
778, -0.5164835164835165, 0.6752136752136753, -0.9242979242979243, 0.0, 0.46875, 0.0, 0.0
779, 0.19536019536019536, 0.0989010989010989, -1.1587301587301588, -0.15625, 0.46875, -0.0625, 0.0
780, 0.568986568986569, 0.16971916971916973, -0.5384615384615384, -0.40625, 0.21875, -0.03125, 0.0
781, 0.4139194139194139, 0.8864468864468864, 1.0048840048840049, -0.09375, 0.03125, -0.03125, 0.0
782, 0.3626373626373626, 0.40293040293040294, 1.5873015873015872, 0.25, -0.0625, -0.21875, 0.0
783, 0.2857142857142857, -0.8241758241758241, 0.40415140415140416, 0.03125, 0.0, -0.46875, 0.0
784, -0.2661782661782662, -0.27228327228327226, 0.398046398046398, 0.0, 0.125, -0.65625, 1.0
785, -0.3443223443223443, -0.08302808302808302, 1.2735042735042734, 0.3125, 0.0, -0.65625, 1.0
786, -0.6837606837606838, -0.4835164835164835, 0.57997557997558, 0.375, 0.0, -0.34375, 1.0
787, -0.746031746031746, -0.8192918192918193, -0.8485958485958486, -0.0625, 0.09375, -0.15625, 1.0
788, -0.6251526251526252, 0.16971916971916973, -0.5115995115995116, -0.03125, 0.03125, -0.09375, 1.0
789, -0.47619047619047616, 0.5457875457875457, -0.06471306471306472, 0.375, -0.21875, -0.125, 1.0
790, -0.14285714285714285, -0.17704517704517705, -1.0085470085470085, 0.40625, -0.28125, -0.15625, 1.0
791, 0.1111111111111111, -0.2857142857142857, -2.115995115995116, 0.09375, -0.15625, -0.3125, 1.0
792, -0.514041514041514, 0.8217338217338217, -2.1452991452991452, -0.125, 0.09375, -0.40625, 1.0
793, -0.6190476190476191, 1.8485958485958487, -1.0183150183150182, -0.15625, 0.125, -0.3125, 1.0
794, -0.16971916971916973, 1.286935286935287, -0.15384615384615385, -0.15625, -0.15625, -0.1875, 1.0
795, -0.18925518925518925, -0.008547008547008548, -0.8754578754578755, -0.46875, -0.4375, 0.0, 1.0
796, -0.304029304029304, 0.1746031746031746, -0.7521367521367521, -0.53125, -0.28125, 0.0, 1.0
797, -0.07692307692307693, 0.6800976800976801, -0.050061050061050064, -0.3125, 0.0, -0.28125, 1.0
798, -0.24175824175824176, 0.7692307692307693, 0.3785103785103785, -0.03125, 0.15625, -0.3125, 1.0
799, -0.07448107448107448, -0.5299145299145299, -0.2967032967032967, -0.125, 0.03125, 0.1875, 1.0
800, 1.0622710622710623, -1.9352869352869353, -0.3516483516483517, -0.53125, -0.53125, 0.3125, 1.0
801, 0.5677655677655677, -1.7216117216117217, -0.18803418803418803, -0.5, -0.6875, 0.1875, 1.0
802, 0.0757020757020757, -1.3992673992673992, 0.24786324786324787, 0.09375, 0.0, -0.40625, 1.0
803, 0.09645909645909646, -3.6507936507936507, -1.3308913308913308, -0.15625, 0.21875, 0.21875, 1.0
804, 0.3431013431013431, -3.2954822954822953, -0.7533577533577533, -0.84375, -0.3125, 0.46875, 1.0
805, -0.231990231990232, -2.7155067155067156, 0.2869352869352869, -0.59375, -0.5625, 0.53125, 1.0
806, 0.06837606837606838, -3.965811965811966, -0.29181929181929184, 0.0, -0.09375, 0.1875, 1.0
807, 0.08302808302808302, -5.117216117216117, -1.15995115995116, -0.03125, 0.40625, -0.15625, 1.0
808, 1.0915750915750915, -5.693528693528694, -1.2661782661782661, -0.71875, 0.25, 0.125, 1.0
809, 0.18803418803418803, -3.6971916971916974, -0.04395604395604396, -0.90625, -0.375, 0.09375, 1.0
810, -0.833943833943834, -3.6556776556776556, -0.09401709401709402, -0.21875, -0.4375, 0.1875, 1.0
811, -1.606837606837607, -4.395604395604396, -1.1428571428571428, 0.25, 0.25, 0.0, 1.0
812, -0.24053724053724054, -5.5396825396825395, -1.5360195360195361, 0.0625, 0.8125, 0.3125, 1.0
813, 1.2014652014652014, -5.0927960927960925, -0.5665445665445665, -0.34375, 0.21875, 0.25, 1.0
814, 0.18803418803418803, -3.5396825396825395, 0.7875457875457875, -0.4375, -0.65625, 0.46875, 1.0
815, -1.0683760683760684, -3.711843711843712, 0.5567765567765568, 0.0625, -0.40625, 0.34375, 1.0
816, -1.0048840048840049, -4.554334554334554, -0.503052503052503, 0.3125, 0.34375, 0.21875, 1.0
817, -0.5641025641025641, -4.63980463980464, -0.5824175824175825, 0.15625, 0.65625, 0.1875, 1.0
818, 0.2039072039072039, -4.848595848595848, 0.15384615384615385, -0.03125, 0.09375, 0.28125, 1.0
819, -0.6727716727716728, -4.38949938949939, 0.3992673992673993, -0.1875, -0.40625, 0.375, 1.0
820, -1.0488400488400489, -4.3870573870573875, 0.18803418803418803, -0.25, -0.03125, 0.25, 1.0
821, -0.5653235653235653, -4.345543345543345, 0.24175824175824176, -0.40625, 0.5, 0.125, 0.0
822, -0.10866910866910867, -3.7765567765567765, 0.14896214896214896, -0.6875, 0.375, 0.125, 0.0
823, -0.6373626373626373, -3.5323565323565322, -0.06715506715506715, -0.75, -0.25, 0.1875, 0.0
824, -0.9035409035409036, -3.6385836385836385, -0.5152625152625152, -0.375, -0.3125, 0.1875, 0.0
825, -0.029304029304029304, -4.274725274725275, -0.8437118437118437, 0.0, 0.03125, 0.21875, 0.0
826, 1.065934065934066, -4.868131868131868, -1.0207570207570207, -0.09375, 0.03125, -0.09375, 0.0
827, 0.7045177045177046, -4.461538461538462, -1.343101343101343, -0.40625, -0.4375, -0.125, 0.0
828, -0.452991452991453, -4.2002442002442, -1.4163614163614164, -0.28125, -0.3125, -0.03125, 0.0
829, -0.9755799755799756, -4.162393162393163, -1.3894993894993894, -0.1875, -0.0625, 0.15625, 0.0
830, -0.06105006105006105, -4.444444444444445, -0.8168498168498168, -0.28125, 0.0, 0.15625, 0.0
831, -0.008547008547008548, -3.857142857142857, -0.23565323565323565, -0.34375, 0.0, 0.125, 0.0
832, -0.4590964590964591, -3.199023199023199, 0.41025641025641024, -0.375, 0.0625, 0.09375, 0.0
833, 0.05860805860805861, -2.557997557997558, 1.1953601953601953, -0.375, 0.03125, 0.09375, 0.0
834, 0.27472527472527475, -1.7594627594627594, 1.9072039072039073, -0.21875, -0.09375, 0.15625, 0.0
835, -0.21733821733821734, -1.9365079365079365, 0.9304029304029304, 0.03125, 0.15625, -0.0625, 0.0
836, -0.9401709401709402, -1.205128205128205, 0.45787545787545786, 0.28125, 0.4375, -0.1875, 0.0
837, -0.9816849816849816, -0.5225885225885226, 0.4908424908424908, 0.3125, 0.4375, 0.03125, 0.0
838, 0.07448107448107448, -0.2600732600732601, 0.8669108669108669, 0.28125, 0.09375, 0.0, 0.0
839, 0.40293040293040294, 0.12332112332112333, 1.0732600732600732, 0.21875, -0.15625, -0.03125, 0.0
840, -0.37606837606837606, 1.054945054945055, 0.5665445665445665, 0.40625, -0.0625, -0.09375, 0.0
841, -0.778998778998779, 0.8131868131868132, -0.33577533577533575, 0.5625, 0.0625, -0.09375, 0.0
842, -0.7252747252747253, 0.5567765567765568, -0.5274725274725275, 0.34375, 0.0625, -0.0625, 0.0
843, -0.9743589743589743, 0.5518925518925519, -0.36507936507936506, 0.0, 0.25, -0.0625, 0.0
844, -1.199023199023199, 1.1306471306471306, 0.13553113553113552, 0.0, 0.46875, -0.09375, 0.0
845, -0.8498168498168498, 1.5115995115995116, 0.27106227106227104, 0.34375, 0.4375, -0.0625, 0.0
846, -0.43223443223443225, 1.3467643467643469, 0.34065934065934067, 0.46875, 0.25, 0.03125, 0.0
847, -0.3992673992673993, 1.0793650793650793, -0.221001221001221, 0.1875, 0.15625, 0.0625, 0.0
848, -1.652014652014652, 1.9377289377289377, -0.5506715506715507, 0.09375, 0.46875, 0.0, 0.0
849, -1.2442002442002442, 2.3687423687423688, -0.07326007326007326, 0.375, 0.5625, 0.03125, 0.0
850, -0.006105006105006105, 1.706959706959707, 0.02442002442002442, 0.53125, 0.21875, 0.28125, 0.0
851, 0.7142857142857143, 1.0183150183150182, -0.018315018315018316, 0.1875, -0.09375, 0.3125, 0.0
852, 0.2039072039072039, 0.7045177045177046, -1.1733821733821734, 0.0625, -0.03125, 0.1875, 0.0
853, 0.36996336996337, 0.47619047619047616, -1.2503052503052503, 0.125, 0.0625, 0.1875, 0.0
854, 0.463980463980464, 0.41514041514041516, -0.9474969474969475, 0.0625, 0.15625, 0.125, 0.0
855, 0.652014652014652, 0.27594627594627597, -0.5518925518925519, -0.0625, 0.1875, 0.0625, 0.0
856, 0.004884004884004884, 0.4993894993894994, -0.4835164835164835, -0.25, 0.0625, 0.03125, 0.0
857, -0.3894993894993895, 0.6312576312576312, -0.14285714285714285, -0.1875, -0.03125, 0.09375, 0.0
858, -0.3125763125763126, 0.06349206349206349, -0.1794871794871795, -0.03125, 0.0, 0.15625, 0.0
859, 0.5262515262515263, -1.0634920634920635, -0.7228327228327228, -0.0625, 0.09375, 0.0625, 0.0
860, 0.32112332112332115, -0.6251526251526252, -0.6959706959706959, -0.25, 0.09375, -0.125, 0.0
861, -0.0695970695970696, -0.28083028083028083, -0.199023199023199, -0.15625, 0.0625, -0.0625, 0.0
862, 0.1282051282051282, -0.17216117216117216, 0.14652014652014653, 0.03125, 0.0, 0.0, 0.0
863, 0.48717948717948717, -0.652014652014652, 0.5177045177045178, 0.375, -0.15625, -0.09375, 0.0
864, 0.3516483516483517, -1.1306471306471306, -0.27472527472527475, 0.6875, -0.21875, -0.3125, 0.0
865, -0.028083028083028084, -1.496947496947497, -1.5897435897435896, 0.5, 0.0625, -0.4375, 1.0
866, -0.42246642246642246, -0.7264957264957265, -1.7374847374847375, -0.1875, 0.34375, -0.40625, 1.0
867, -0.42735042735042733, 0.8925518925518926, -0.08302808302808302, -0.5625, 0.28125, -0.28125, 1.0
868, -1.0415140415140416, 1.2576312576312576, 0.34065934065934067, -0.1875, -0.03125, -0.25, 1.0
869, -0.3601953601953602, 0.08791208791208792, -1.1282051282051282, 0.03125, -0.15625, -0.125, 1.0
870, -0.0989010989010989, -0.12942612942612944, -2.5042735042735043, -0.3125, -0.25, -0.09375, 1.0
871, -0.24297924297924298, 0.4590964590964591, -2.208791208791209, -0.625, -0.09375, -0.1875, 1.0
872, -0.12698412698412698, 1.2637362637362637, -1.3101343101343101, -0.625, 0.1875, -0.25, 1.0
873, -0.5299145299145299, 1.6324786324786325, -0.8754578754578755, -0.375, 0.21875, -0.28125, 1.0
874, -0.938949938949939, 1.8021978021978022, -0.41025641025641024, -0.3125, 0.25, -0.28125, 1.0
875, -0.7130647130647131, 1.4761904761904763, 0.031746031746031744, -0.34375, 0.03125, 0.0, 1.0
876, -0.8974358974358975, 1.177045177045177, 0.05616605616605617, -0.375, -0.1875, 0.09375, 1.0
877, -0.15506715506715507, 1.0293040293040292, 0.23443223443223443, -0.28125, -0.09375, 0.125, 1.0
878, 0.3443223443223443, 0.7912087912087912, 0.4456654456654457, -0.15625, -0.1875, 0.0, 1.0
879, -0.25274725274725274, 0.09401709401709402, 0.23809523809523808, -0.09375, -0.15625, 0.0625, 1.0
880, -0.3772893772893773, -0.6593406593406593, 0.08058608058608059, -0.15625, 0.0, 0.15625, 1.0
881, 0.38217338217338215, -1.619047619047619, 0.5641025641025641, -0.09375, -0.03125, 0.1875, 1.0
882, 1.3833943833943834, -2.9621489621489623, 0.2967032967032967, -0.1875, -0.28125, 0.0, 1.0
883, 1.1074481074481075, -3.4224664224664223, -0.15262515262515264, -0.40625, -0.4375, -0.34375, 1.0
884, -0.2661782661782662, -2.255189255189255, 0.08058608058608059, -0.21875, -0.125, -0.4375, 1.0
885, -1.15995115995116, -2.2124542124542126, -0.017094017094017096, 0.0625, 0.34375, -0.09375, 1.0
886, 0.7313797313797313, -3.8253968253968256, -0.10500610500610501, -0.15625, -0.09375, 0.34375, 1.0
887, 0.7484737484737485, -4.443223443223443, 0.06593406593406594, -0.34375, -0.8125, 0.5, 1.0
888, -1.0622710622710623, -3.8046398046398044, -0.2771672771672772, 0.0, -0.21875, 0.3125, 1.0
889, -1.0915750915750915, -3.8192918192918195, -0.29914529914529914, 0.59375, 0.6875, 0.21875, 1.0
890, 0.3247863247863248, -5.440781440781441, -0.9133089133089133, 0.34375, 0.625, 0.3125, 1.0
891, 1.137973137973138, -5.998778998778999, -0.7435897435897436, -0.3125, -0.34375, 0.4375, 1.0
892, -0.6568986568986569, -4.192918192918193, 0.2905982905982906, -0.3125, -0.375, 0.3125, 1.0
893, -1.9023199023199022, -3.382173382173382, 0.6361416361416361, 0.375, 0.5625, 0.25, 1.0
894, -0.7338217338217338, -5.1330891330891335, 0.03296703296703297, 0.375, 1.0, 0.15625, 1.0
895, -0.2783882783882784, -5.199023199023199, -0.37484737484737485, -0.125, 0.375, 0.34375, 1.0
896, -0.46764346764346765, -4.196581196581197, 0.8461538461538461, -0.3125, -0.3125, 0.59375, 1.0
897, -1.5323565323565325, -3.202686202686203, 1.9853479853479854, 0.3125, -0.0625, 0.53125, 1.0
898, -1.3028083028083028, -4.396825396825397, 0.9853479853479854, 0.65625, 0.40625, 0.4375, 1.0
899, -1.0647130647130647, -5.326007326007326, -0.4700854700854701, 0.375, 0.71875, 0.21875, 1.0
900, 0.06715506715506715, -5.431013431013431, -0.8315018315018315, -0.28125, 0.03125, 0.3125, 1.0
901, -0.0231990231990232, -5.3003663003663, -0.9352869352869353, -0.71875, -0.09375, 0.28125, 0.0
902, 0.9597069597069597, -5.702075702075702, -1.0476190476190477, -1.0, 0.03125, 0.09375, 0.0
903, 0.8656898656898657, -5.371184371184371, -0.9877899877899878, -1.15625, -0.03125, -0.15625, 0.0
904, 0.5164835164835165, -4.536019536019536, -0.5091575091575091, -0.9375, -0.1875, -0.34375, 0.0
905, -0.3516483516483517, -4.517704517704518, -0.9023199023199023, -0.59375, -0.375, -0.40625, 0.0
906, -0.6898656898656899, -5.108669108669108, -1.5995115995115996, -0.5625, -0.375, -0.21875, 0.0
907, -0.590964590964591, -5.194139194139194, -0.9499389499389499, -0.75, -0.25, -0.03125, 0.0
908, 0.31135531135531136, -4.948717948717949, -0.27350427350427353, -0.78125, -0.15625, 0.03125, 0.0
909, 1.144078144078144, -5.255189255189255, 0.199023199023199, -0.625, -0.3125, 0.0, 0.0
910, 0.8644688644688645, -4.3870573870573875, 0.42857142857142855, -0.625, -0.5, -0.125, 0.0
911, 0.21855921855921856, -3.722832722832723, 0.6031746031746031, -0.53125, -0.6875, -0.09375, 0.0
912, -0.23931623931623933, -2.7472527472527473, 0.7496947496947497, -0.46875, -0.84375, 0.0, 0.0
913, -1.304029304029304, -1.1807081807081807, 0.4884004884004884, -0.3125, -0.6875, 0.0625, 0.0
914, -0.5238095238095238, -1.431013431013431, 0.49694749694749696, -0.09375, 0.0625, 0.0, 0.0
915, -0.6141636141636142, -1.507936507936508, 0.452991452991453, 0.0, 0.375, -0.21875, 0.0
916, -0.4456654456654457, -1.4627594627594627, 0.28083028083028083, 0.03125, 0.1875, -0.21875, 0.0
917, 0.04884004884004884, -0.03663003663003663, 0.5934065934065934, 0.0, -0.125, -0.15625, 0.0
918, 0.21123321123321123, 1.120879120879121, 1.4151404151404152, 0.03125, -0.0625, -0.28125, 0.0
919, -0.7350427350427351, 1.0366300366300367, 0.9523809523809523, 0.21875, 0.25, -0.34375, 0.0
920, -1.0561660561660562, 0.4993894993894994, 0.4236874236874237, 0.46875, 0.65625, -0.3125, 0.0
921, -0.6678876678876678, 0.3162393162393162, 0.030525030525030524, 0.40625, 0.65625, -0.125, 0.0
922, -0.29914529914529914, 1.1538461538461537, 0.3882783882783883, 0.1875, 0.34375, -0.09375, 0.0
923, -0.9255189255189256, 2.1904761904761907, 0.43956043956043955, 0.125, 0.28125, -0.0625, 0.0
924, -1.1477411477411477, 2.017094017094017, 0.054945054945054944, 0.25, 0.40625, 0.21875, 0.0
925, -0.6874236874236874, 1.1355311355311355, -0.28205128205128205, 0.21875, 0.59375, 0.25, 0.0
926, -0.1330891330891331, 0.7594627594627594, -0.026862026862026864, 0.15625, 0.59375, 0.21875, 0.0
927, 0.5860805860805861, 1.0122100122100122, 0.0, 0.28125, 0.21875, 0.09375, 0.0
928, -0.10500610500610501, 1.5323565323565325, -0.7130647130647131, 0.46875, 0.0, 0.09375, 0.0
929, -0.3431013431013431, 0.8144078144078144, -1.623931623931624, 0.28125, 0.0625, 0.15625, 0.0
930, -0.13675213675213677, 0.5567765567765568, -1.866910866910867, -0.125, 0.21875, 0.09375, 0.0
931, -0.199023199023199, 0.8620268620268621, -1.2796092796092795, -0.15625, 0.15625, 0.09375, 0.0
932, -0.18315018315018314, 0.4371184371184371, -1.407814407814408, -0.0625, 0.03125, 0.09375, 0.0
933, -0.518925518925519, 0.4065934065934066, -2.045177045177045, -0.21875, 0.1875, 0.21875, 0.0
934, -0.0231990231990232, 0.2442002442002442, -1.6837606837606838, -0.5625, 0.375, 0.28125, 0.0
935, 0.1562881562881563, 0.6862026862026862, -0.24175824175824176, -0.625, 0.3125, 0.1875, 0.0
936, 0.1855921855921856, 0.45787545787545786, 1.0879120879120878, -0.25, 0.0625, 0.15625, 0.0
937, 0.5482295482295483, -0.4358974358974359, 0.9291819291819292, 0.03125, -0.1875, 0.09375, 0.0
938, 0.3785103785103785, -0.8803418803418803, -0.05372405372405373, 0.0, -0.125, 0.0, 0.0
939, 0.07692307692307693, -0.7167277167277167, -0.15506715506715507, -0.1875, 0.125, 0.0, 0.0
940, 0.10500610500610501, -0.2564102564102564, 0.8351648351648352, 0.03125, 0.15625, 0.0, 0.0
941, 0.6703296703296703, -0.5238095238095238, 1.3052503052503053, 0.5, -0.25, 0.0625, 0.0
942, 0.557997557997558, -0.9963369963369964, 0.7032967032967034, 0.84375, -0.53125, -0.28125, 1.0
943, -1.1257631257631258, -1.0134310134310134, -0.5641025641025641, 0.65625, 0.15625, -0.5625, 1.0
944, -1.1660561660561661, -0.21245421245421245, -1.0915750915750915, 0.15625, 1.03125, -0.40625, 1.0
945, -0.24786324786324787, -0.015873015873015872, -0.45665445665445664, -0.46875, 0.71875, 0.0, 1.0
946, 0.5811965811965812, 0.5824175824175825, 0.884004884004884, -0.28125, -0.3125, 0.25, 1.0
947, -0.0695970695970696, 0.3431013431013431, 0.02564102564102564, 0.1875, -0.5625, 0.28125, 1.0
948, 0.5018315018315018, -0.7264957264957265, -1.8327228327228327, 0.21875, -0.15625, -0.0625, 1.0
949, 0.4945054945054945, -0.05616605616605617, -2.2002442002442004, 0.03125, 0.21875, -0.28125, 1.0
950, -0.4444444444444444, 2.0488400488400487, -1.0708180708180708, -0.125, 0.125, -0.1875, 1.0
951, -0.702075702075702, 1.9072039072039073, -0.45787545787545786, -0.09375, -0.0625, -0.09375, 1.0
952, -0.9267399267399268, 1.1575091575091576, -0.9169719169719169, -0.09375, -0.28125, -0.03125, 1.0
953, -1.0305250305250304, 1.474969474969475, -0.8705738705738706, -0.3125, -0.15625, -0.15625, 1.0
954, -1.2332112332112333, 2.062271062271062, -0.6349206349206349, -0.3125, 0.125, -0.125, 1.0
955, -0.1746031746031746, 1.2185592185592184, -0.2612942612942613, -0.15625, 0.25, 0.1875, 1.0
956, 0.08302808302808302, -0.4139194139194139, -0.6373626373626373, -0.21875, 0.0, 0.5, 1.0
957, 0.08424908424908426, -1.84981684981685, -1.0354090354090355, -0.53125, -0.09375, 0.5625, 1.0
958, 0.7264957264957265, -1.8473748473748475, -0.18925518925518925, -0.65625, 0.0625, 0.375, 1.0
959, 1.6483516483516483, -1.7557997557997558, 0.31013431013431014, -0.40625, -0.03125, 0.0, 1.0
960, 0.9181929181929182, -2.984126984126984, -1.054945054945055, -0.21875, -0.125, -0.1875, 1.0
961, 0.8778998778998779, -4.184371184371185, -1.47985347985348, -0.65625, -0.1875, 0.25, 1.0
962, -0.9951159951159951, -3.6727716727716726, -0.6385836385836385, -1.03125, 0.0, 0.125, 1.0
963, 0.199023199023199, -4.400488400488401, 1.3101343101343101, -0.46875, 0.40625, 0.0625, 1.0
964, 1.4993894993894994, -5.372405372405372, 1.8095238095238095, 0.0, -0.09375, -0.03125, 1.0
965, -1.1868131868131868, -5.183150183150183, 0.6385836385836385, 0.1875, -0.4375, -0.03125, 1.0
966, -1.8192918192918193, -6.409035409035409, -0.46642246642246643, 0.0625, 0.03125, 0.34375, 1.0
967, -0.5946275946275946, -6.555555555555555, 0.09768009768009768, 0.0, 0.125, 0.4375, 1.0
968, -0.6507936507936508, -6.249084249084249, 0.6434676434676435, 0.3125, -0.34375, 0.59375, 1.0
969, -0.3540903540903541, -5.932844932844933, 0.47863247863247865, 0.5625, -0.25, 0.5625, 1.0
970, -0.09768009768009768, -5.681318681318682, 0.03907203907203907, 0.4375, 0.03125, 0.21875, 1.0
971, -0.6886446886446886, -5.3357753357753355, -0.7472527472527473, 0.125, 0.0625, 0.0625, 1.0
972, -1.9462759462759462, -4.249084249084249, -0.612942612942613, 0.0625, -0.0625, 0.25, 1.0
973, -0.3418803418803419, -4.818070818070818, 0.3785103785103785, 0.375, 0.1875, 0.3125, 1.0
974, 0.30158730158730157, -4.842490842490842, 0.27228327228327226, -0.0625, -0.25, 0.09375, 1.0
975, -1.6556776556776556, -3.724053724053724, -0.25518925518925517, -0.09375, -0.15625, 0.09375, 1.0
976, -1.9987789987789988, -3.2075702075702077, -0.5384615384615384, 0.125, 0.1875, 0.21875, 1.0
977, -0.5091575091575091, -3.413919413919414, -0.44932844932844934, 0.0625, 0.21875, 0.25, 1.0
978, 0.3076923076923077, -4.142857142857143, -0.6105006105006106, -0.125, -0.03125, 0.09375, 1.0
979, -0.2783882783882784, -4.526251526251526, -1.1037851037851039, -0.53125, -0.125, -0.03125, 0.0
980, -1.0561660561660562, -4.329670329670329, -1.0952380952380953, -0.90625, -0.09375, -0.0625, 0.0
981, -1.6031746031746033, -4.190476190476191, -0.7802197802197802, -1.125, -0.125, 0.03125, 0.0
982, -1.236874236874237, -3.0366300366300365, -0.3956043956043956, -0.6875, -0.03125, 0.1875, 0.0
983, -0.030525030525030524, -3.8424908424908426, -0.25274725274725274, -0.1875, 0.0, 0.21875, 0.0
984, 1.0647130647130647, -5.407814407814408, -0.7814407814407814, -0.34375, -0.125, 0.09375, 0.0
985, 1.0903540903540903, -6.686202686202686, -1.5164835164835164, -0.71875, -0.3125, -0.15625, 0.0
986, 0.36385836385836384, -6.805860805860806, -1.264957264957265, -0.875, -0.375, -0.1875, 0.0
987, -0.5628815628815629, -5.742368742368742, -0.5238095238095238, -0.84375, -0.1875, -0.125, 0.0
988, -0.5396825396825397, -4.717948717948718, 0.5738705738705738, -0.65625, -0.0625, 0.03125, 0.0
989, -0.27106227106227104, -4.63980463980464, 1.1257631257631258, -0.5625, -0.09375, 0.0625, 0.0
990, -0.2954822954822955, -4.272283272283272, 1.540903540903541, -0.59375, -0.34375, 0.375, 0.0
991, -1.1062271062271063, -2.431013431013431, 1.9438339438339438, -0.3125, -0.28125, 0.375, 0.0
992, -0.6593406593406593, -1.1794871794871795, 2.231990231990232, 0.0625, 0.09375, 0.0625, 0.0
993, 0.1978021978021978, -1.5811965811965811, 1.84981684981685, 0.1875, 0.125, -0.1875, 0.0
994, 0.26495726495726496, -1.1526251526251525, 1.7716727716727716, 0.21875, -0.1875, -0.25, 0.0
995, -0.42002442002442003, -0.49572649572649574, 1.4322344322344323, 0.3125, -0.28125, -0.3125, 0.0
996, -1.1904761904761905, 0.45787545787545786, 1.1233211233211233, 0.34375, 0.0625, -0.125, 0.0
997, -1.485958485958486, 0.9218559218559218, 0.8278388278388278, 0.46875, 0.71875, -0.03125, 0.0
998, -0.4078144078144078, 1.286935286935287, 0.9194139194139194, 0.84375, 0.59375, 0.0625, 0.0
999, 0.2771672771672772, 1.144078144078144, -0.8742368742368742, 0.84375, 0.1875, 0.0, 0.0
1000, -0.5860805860805861, 1.4371184371184371, -1.4993894993894994, 0.4375, 0.3125, -0.03125, 0.0
1001, -0.5958485958485958, 1.2063492063492063, -1.1135531135531136, 0.125, 0.59375, 0.125, 0.0
1002, -0.21001221001221002, 1.010989010989011, -0.9560439560439561, 0.09375, 0.65625, 0.40625, 0.0
1003, -0.20634920634920634, 1.2637362637362637, -1.3650793650793651, 0.21875, 0.4375, 0.4375, 0.0
1004, 0.6532356532356532, 0.6422466422466423, -1.800976800976801, 0.15625, 0.1875, 0.40625, 0.0
1005, -0.44078144078144077, 1.3504273504273505, -1.5286935286935286, -0.0625, 0.1875, 0.15625, 0.0
1006, -1.253968253968254, 2.3150183150183152, -1.2661782661782661, 0.09375, 0.6875, 0.15625, 0.0
1007, -0.028083028083028084, 1.4114774114774116, -1.4664224664224663, 0.28125, 0.78125, 0.25, 0.0
1008, 0.5177045177045178, 0.8644688644688645, -1.3577533577533578, 0.0, 0.375, 0.21875, 0.0
1009, 0.3235653235653236, 0.6678876678876678, -0.9658119658119658, -0.3125, 0.28125, 0.09375, 0.0
1010, 0.32234432234432236, 0.6654456654456654, -0.5067155067155067, -0.4375, 0.5, 0.0625, 0.0
1011, 0.4981684981684982, 0.73992673992674, -0.11233211233211234, -0.28125, 0.375, 0.0, 0.0
1012, -0.1514041514041514, 0.37362637362637363, -0.21245421245421245, -0.03125, 0.0625, -0.15625, 0.0
1013, -0.2600732600732601, -0.3504273504273504, -0.4261294261294261, -0.0625, 0.0625, -0.25, 0.0
1014, -0.21367521367521367, -0.6385836385836385, -0.5347985347985348, -0.34375, 0.1875, -0.1875, 0.0
1015, -0.10866910866910867, -0.41025641025641024, -0.31135531135531136, -0.375, 0.125, 0.0, 0.0
1016, 0.14652014652014653, -0.7619047619047619, -0.14041514041514042, -0.03125, -0.0625, 0.03125, 0.0
1017, 0.11233211233211234, -0.9291819291819292, -0.2026862026862027, 0.25, -0.125, -0.1875, 0.0
1018, 0.18925518925518925, -1.1025641025641026, -0.10256410256410256, 0.375, 0.0625, -0.5, 1.0
1019, 0.5262515262515263, -1.7008547008547008, -0.15262515262515264, 0.15625, 0.21875, -0.5, 1.0
1020, 0.05982905982905983, -0.6544566544566545, -0.3492063492063492, -0.15625, 0.21875, -0.21875, 1.0
1021, -0.36507936507936506, 0.4945054945054945, -0.5238095238095238, -0.53125, 0.25, -0.0625, 1.0
1022, 0.4884004884004884, 1.26007326007326, 0.702075702075702, -0.3125, 0.09375, -0.1875, 1.0
1023, -0.1623931623931624, 1.105006105006105, -0.3724053724053724, 0.40625, -0.34375, -0.3125, 1.0
1024, -0.06105006105006105, 0.20024420024420025, -2.183150183150183, 0.15625, -0.1875, -0.4375, 1.0
1025, 0.1855921855921856, 0.6507936507936508, -2.68986568986569, -0.25, -0.03125, -0.375, 1.0
1026, 0.08424908424908426, 1.8437118437118436, -1.7704517704517704, -0.28125, -0.125, -0.34375, 1.0
1027, -0.7484737484737485, 2.675213675213675, -1.2808302808302807, -0.15625, 0.0625, -0.34375, 1.0
1028, -0.2783882783882784, 2.032967032967033, -0.5897435897435898, -0.1875, 0.09375, -0.34375, 1.0
1029, -0.06105006105006105, 1.4053724053724053, -0.4468864468864469, -0.40625, -0.0625, -0.15625, 1.0
1030, 0.05982905982905983, 1.89010989010989, -0.21367521367521367, -0.375, -0.25, 0.03125, 1.0
1031, -0.21245421245421245, 2.442002442002442, 0.16971916971916973, -0.09375, -0.28125, 0.125, 1.0
1032, 0.007326007326007326, 1.4774114774114775, 0.38217338217338215, 0.1875, -0.375, 0.03125, 1.0
1033, -0.001221001221001221, 0.10256410256410256, -0.4261294261294261, 0.0625, -0.1875, -0.21875, 1.0
1034, 0.1855921855921856, -1.1623931623931625, -0.5347985347985348, -0.21875, -0.15625, -0.09375, 1.0
1035, 1.0183150183150182, -2.142857142857143, -0.21611721611721613, -0.375, -0.6875, 0.4375, 1.0
1036, 0.503052503052503, -2.1648351648351647, 0.45054945054945056, 0.0625, -0.96875, 0.34375, 1.0
1037, -0.8925518925518926, -3.010989010989011, -0.002442002442002442, 0.3125, -0.34375, 0.125, 1.0
1038, 0.01098901098901099, -5.191697191697192, -0.518925518925519, -0.0625, 0.09375, -0.34375, 1.0
1039, 0.5665445665445665, -5.83028083028083, -0.11843711843711843, -0.59375, 0.125, -0.6875, 1.0
1040, -0.42002442002442003, -4.761904761904762, 0.8962148962148963, -0.46875, -0.09375, -0.09375, 1.0
1041, -0.8449328449328449, -4.244200244200244, 2.387057387057387, 0.1875, -0.34375, 0.15625, 1.0
1042, -2.445665445665446, -5.061050061050061, 0.9194139194139194, 0.6875, 0.46875, 0.25, 1.0
1043, -0.7228327228327228, -7.146520146520147, -0.6874236874236874, 0.28125, 0.875, 0.3125, 1.0
1044, 1.4505494505494505, -7.868131868131868, -0.6092796092796092, -0.625, -0.15625, 0.34375, 1.0
1045, -0.5091575091575091, -5.046398046398046, 1.028083028083028, -0.4375, -0.53125, 0.40625, 1.0
1046, -2.2124542124542126, -4.587301587301587, 1.216117216117216, 0.59375, 0.625, 0.21875, 1.0
1047, -0.4981684981684982, -6.056166056166056, -0.36996336996337, 0.46875, 0.75, 0.40625, 1.0
1048, -0.2783882783882784, -5.472527472527473, -0.28205128205128205, 0.03125, -0.46875, 0.5625, 1.0
1049, -1.763125763125763, -4.962148962148962, -0.19291819291819293, 0.15625, -0.375, 0.53125, 1.0
1050, -0.7582417582417582, -5.383394383394384, 0.0463980463980464, 0.34375, 0.53125, 0.28125, 1.0
1051, 1.0671550671550671, -5.842490842490842, 0.28815628815628813, 0.1875, 0.53125, 0.125, 1.0
1052, 0.14774114774114774, -5.433455433455434, -0.12454212454212454, -0.21875, -0.40625, 0.09375, 1.0
1053, -1.7142857142857142, -5.188034188034188, -1.1343101343101343, -0.59375, -0.59375, 0.15625, 0.0
1054, -1.5103785103785103, -4.8791208791208796, -1.5970695970695972, -0.875, -0.0625, 0.15625, 0.0
1055, -0.47496947496947495, -5.645909645909646, -1.6581196581196582, -1.1875, 0.125, 0.09375, 0.0
1056, 0.2661782661782662, -5.427350427350428, -0.9682539682539683, -1.1875, 0.09375, 0.0, 0.0
1057, 1.5421245421245422, -4.913308913308914, 0.304029304029304, -0.71875, -0.1875, -0.0625, 0.0
1058, 1.3858363858363858, -5.208791208791209, -0.07692307692307693, -0.46875, -0.6875, -0.21875, 0.0
1059, -0.14041514041514042, -5.7484737484737485, -1.2393162393162394, -0.625, -0.875, -0.3125, 0.0
1060, -1.2283272283272284, -6.291819291819292, -1.8522588522588523, -0.78125, -0.53125, -0.1875, 0.0
1061, -1.308913308913309, -6.180708180708181, -1.0451770451770452, -0.78125, -0.1875, -0.03125, 0.0
1062, 0.22344322344322345, -4.461538461538462, 1.0, -0.71875, -0.15625, 0.09375, 0.0
1063, 1.170940170940171, -3.4725274725274726, 1.8876678876678876, -0.46875, -0.3125, 0.09375, 0.0
1064, -0.12087912087912088, -4.03052503052503, 0.3785103785103785, -0.3125, -0.28125, 0.0, 0.0
1065, -0.09401709401709402, -4.648351648351649, 0.3064713064713065, -0.46875, 0.03125, 0.125, 0.0
1066, 0.24786324786324787, -4.039072039072039, 0.8473748473748474, -0.5625, -0.03125, 0.09375, 0.0
1067, 0.12698412698412698, -2.1343101343101343, 1.6935286935286935, -0.34375, -0.09375, 0.0, 0.0
1068, 0.030525030525030524, -1.1013431013431014, 1.568986568986569, -0.0625, 0.0, -0.09375, 0.0
1069, -0.6446886446886447, -0.3333333333333333, 1.3101343101343101, 0.125, 0.0625, -0.1875, 0.0
1070, -0.6886446886446886, -0.7081807081807082, 0.9145299145299145, 0.15625, 0.28125, -0.15625, 0.0
1071, -0.2490842490842491, -0.17704517704517705, 1.4725274725274726, 0.25, 0.5, -0.34375, 0.0
1072, -0.14896214896214896, 0.8083028083028083, 1.3247863247863247, 0.59375, 0.40625, -0.25, 0.0
1073, -1.2185592185592184, 1.7203907203907205, 0.6691086691086691, 0.59375, 0.375, -0.15625, 0.0
1074, -1.619047619047619, 1.8424908424908424, -0.0231990231990232, 0.34375, 0.4375, 0.0, 0.0
1075, -1.4676434676434675, 1.94993894993895, 0.40293040293040294, 0.15625, 0.46875, 0.125, 0.0
1076, -0.5018315018315018, 1.7252747252747254, 0.5152625152625152, 0.21875, 0.625, 0.21875, 0.0
1077, 0.5811965811965812, 1.9584859584859584, 0.5372405372405372, 0.4375, 0.53125, 0.25, 0.0
1078, 0.7264957264957265, 1.3846153846153846, -0.5506715506715507, 0.375, 0.375, 0.28125, 0.0
1079, 0.10989010989010989, 0.7912087912087912, -1.6837606837606838, 0.0625, 0.40625, 0.03125, 0.0
1080, -0.7777777777777778, 1.1794871794871795, -1.7582417582417582, 0.0, 0.59375, 0.125, 0.0
1081, -0.8888888888888888, 1.3968253968253967, -1.465201465201465, 0.09375, 0.53125, 0.3125, 0.0
1082, -0.5274725274725275, 1.115995115995116, -1.3992673992673992, 0.03125, 0.34375, 0.34375, 0.0
1083, 0.014652014652014652, 0.398046398046398, -1.3492063492063493, -0.1875, 0.375, 0.28125, 0.0
1084, 0.4017094017094017, 0.07814407814407814, -0.8144078144078144, -0.3125, 0.4375, 0.1875, 0.0
1085, 0.7350427350427351, 0.0989010989010989, -0.44078144078144077, -0.1875, 0.09375, 0.21875, 0.0
1086, 0.4126984126984127, -0.030525030525030524, -0.46642246642246643, 0.0, -0.25, 0.21875, 0.0
1087, 0.019536019536019536, -0.6043956043956044, -0.8083028083028083, 0.03125, -0.15625, 0.03125, 0.0
1088, -0.36752136752136755, -0.8803418803418803, -1.205128205128205, -0.15625, 0.25, 0.0, 0.0
1089, -0.0927960927960928, -0.7814407814407814, -0.8705738705738706, -0.375, 0.46875, 0.0625, 0.0
1090, 0.23931623931623933, -0.575091575091575, 0.020757020757020756, -0.1875, 0.09375, 0.09375, 0.0
1091, -0.31746031746031744, -0.4517704517704518, 0.29181929181929184, 0.15625, -0.1875, 0.1875, 0.0
1092, -0.5811965811965812, -1.061050061050061, -0.557997557997558, 0.125, -0.03125, 0.1875, 0.0
1093, -0.4078144078144078, -1.2820512820512822, -0.7985347985347986, -0.1875, 0.21875, 0.125, 0.0
1094, -0.21611721611721613, -1.0207570207570207, -0.5421245421245421, -0.46875, 0.3125, 0.1875, 0.0
1095, 0.40293040293040294, -0.5018315018315018, 0.5628815628815629, -0.09375, 0.0, 0.15625, 0.0
1096, 0.13797313797313798, -0.3333333333333333, 0.6227106227106227, 0.625, -0.125, -0.21875, 0.0
1097, -0.18437118437118438, -1.0915750915750915, -0.8241758241758241, 0.6875, 0.0, -0.4375, 1.0
1098, -0.5555555555555556, -0.3418803418803419, -1.4065934065934067, 0.25, 0.125, -0.28125, 1.0
1099, -0.5335775335775336, -0.09401709401709402, -1.2588522588522588, -0.15625, 0.28125, -0.125, 1.0
1100, 0.1916971916971917, 0.645909645909646, -0.21855921855921856, -0.40625, 0.21875, 0.0, 1.0
1101, 0.1111111111111111, 0.8412698412698413, -0.1282051282051282, 0.0, -0.1875, -0.03125, 1.0
1102, 0.0, 0.3418803418803419, -1.3943833943833943, 0.3125, -0.3125, -0.0625, 1.0
1103, -0.6898656898656899, 0.4175824175824176, -2.305250305250305, 0.09375, -0.125, -0.34375, 1.0
1104, -0.27106227106227104, 1.2173382173382172, -1.4664224664224663, -0.25, 0.4375, -0.34375, 1.0
1105, 0.7667887667887668, 1.054945054945055, -0.5738705738705738, -0.3125, 0.25, -0.25, 1.0
1106, 0.22954822954822954, 0.19047619047619047, -1.4188034188034189, -0.3125, -0.3125, -0.0625, 1.0
1107, 0.3162393162393162, -0.42124542124542125, -1.9853479853479854, -0.5, -0.375, 0.03125, 1.0
1108, -0.18192918192918192, 0.04884004884004884, -1.7692307692307692, -0.75, 0.0, -0.15625, 1.0
1109, 0.5616605616605617, 0.9352869352869353, -0.2698412698412698, -0.65625, 0.40625, -0.21875, 1.0
1110, 0.6654456654456654, 0.6007326007326007, 0.4297924297924298, -0.3125, 0.125, -0.28125, 1.0
1111, 0.06105006105006105, -0.05372405372405373, 0.20512820512820512, -0.25, -0.125, -0.125, 1.0
1112, 0.02564102564102564, -0.7521367521367521, 0.003663003663003663, -0.375, -0.25, -0.03125, 1.0
1113, -0.33943833943833945, -0.43101343101343104, 0.2844932844932845, -0.46875, -0.21875, 0.0, 1.0
1114, -0.10622710622710622, -0.44932844932844934, 1.120879120879121, -0.28125, -0.1875, -0.03125, 1.0
1115, -0.3601953601953602, -0.9731379731379731, 1.4456654456654456, -0.03125, -0.3125, -0.0625, 1.0
1116, 0.15873015873015872, -2.2063492063492065, 1.0512820512820513, 0.0625, -0.53125, 0.0, 1.0
1117, -0.40293040293040294, -2.6654456654456653, 0.28815628815628813, -0.0625, -0.5625, -0.40625, 1.0
1118, 0.3235653235653236, -2.440781440781441, 0.9023199023199023, -0.0625, -0.25, -0.53125, 1.0
1119, -0.7948717948717948, -2.786324786324786, 0.9474969474969475, 0.15625, -0.40625, -0.25, 1.0
1120, -2.0805860805860807, -3.4676434676434678, -0.10134310134310134, 0.3125, -0.1875, 0.28125, 1.0
1121, 0.6617826617826618, -5.521367521367521, -0.7533577533577533, 0.0, -0.03125, 0.5, 1.0
1122, 0.724053724053724, -5.545787545787546, -0.9658119658119658, -0.5625, -0.5625, 0.25, 1.0
1123, -1.061050061050061, -3.735042735042735, 0.2442002442002442, 0.0, -0.15625, 0.1875, 1.0
1124, -1.8583638583638584, -4.004884004884005, 0.2979242979242979, 0.59375, 0.46875, 0.1875, 1.0
1125, -1.3443223443223444, -5.402930402930403, -0.40293040293040294, 0.5, 0.6875, 0.46875, 1.0
1126, 0.7704517704517705, -6.21001221001221, -0.5946275946275946, -0.1875, 0.03125, 0.4375, 1.0
1127, 0.2844932844932845, -4.925518925518926, 0.5006105006105006, -0.1875, -0.40625, 0.28125, 1.0
1128, -1.4517704517704517, -4.465201465201465, 0.6166056166056166, 0.3125, 0.15625, 0.25, 1.0
1129, -1.0451770451770452, -4.947496947496948, 0.19047619047619047, 0.4375, 0.6875, 0.28125, 1.0
1130, 0.22832722832722832, -5.573870573870574, -0.5714285714285714, 0.0, 0.5625, 0.15625, 1.0
1131, 0.5409035409035409, -5.532356532356532, -0.4481074481074481, -0.59375, -0.03125, 0.21875, 1.0
1132, -0.5494505494505495, -4.733821733821734, 0.07692307692307693, -0.59375, -0.09375, 0.15625, 0.0
1133, -1.0769230769230769, -4.786324786324786, 0.007326007326007326, -0.34375, 0.1875, 0.15625, 0.0
1134, -0.7448107448107448, -4.671550671550672, -0.5555555555555556, -0.46875, 0.28125, 0.125, 0.0
1135, 0.2893772893772894, -4.829059829059829, -0.7997557997557998, -0.6875, 0.03125, 0.09375, 0.0
1136, 0.3052503052503053, -4.507936507936508, -0.5299145299145299, -0.75, -0.3125, 0.0625, 0.0
1137, 0.03296703296703297, -4.31013431013431, -0.09035409035409035, -0.5625, -0.40625, 0.0, 0.0
1138, 0.05372405372405373, -4.912087912087912, -0.4554334554334554, -0.59375, -0.40625, 0.03125, 0.0
1139, -0.49572649572649574, -4.444444444444445, -0.7057387057387058, -0.59375, -0.1875, 0.03125, 0.0
1140, 0.015873015873015872, -4.598290598290598, -0.7496947496947497, -0.5625, -0.03125, 0.09375, 0.0
1141, 1.231990231990232, -4.854700854700854, -0.25518925518925517, -0.625, -0.40625, 0.0625, 0.0
1142, 1.0525030525030525, -4.51037851037851, 0.10989010989010989, -0.65625, -0.6875, -0.03125, 0.0
1143, -0.16971916971916973, -4.305250305250305, -0.3785103785103785, -0.6875, -0.40625, -0.1875, 0.0
1144, -0.2625152625152625, -3.4884004884004884, -0.08058608058608059, -0.5625, -0.125, -0.03125, 0.0
1145, -0.050061050061050064, -2.498168498168498, 0.33821733821733824, -0.4375, -0.1875, 0.25, 0.0
1146, -0.8791208791208791, -1.7875457875457876, 0.6336996336996337, -0.25, -0.21875, 0.09375, 0.0
1147, -1.459096459096459, -1.722832722832723, 0.1514041514041514, 0.0, -0.09375, -0.03125, 0.0
1148, -1.1575091575091576, -1.2673992673992673, 0.28083028083028083, 0.125, 0.15625, 0.0, 0.0
1149, -0.19536019536019536, -0.18681318681318682, 1.2136752136752136, 0.21875, 0.34375, 0.09375, 0.0
1150, 0.3052503052503053, 0.5396825396825397, 1.564102564102564, 0.5, 0.5, 0.0, 0.0
1151, -0.13064713064713065, 0.19047619047619047, 0.7582417582417582, 0.6875, 0.53125, -0.1875, 0.0
1152, -0.8217338217338217, -0.029304029304029304, 0.01221001221001221, 0.6875, 0.40625, -0.15625, 0.0
1153, -0.32967032967032966, -0.026862026862026864, 0.10256410256410256, 0.375, 0.34375, -0.03125, 0.0
1154, 0.41514041514041516, 1.2087912087912087, 0.8693528693528694, 0.0, 0.09375, 0.03125, 0.0
1155, -0.16361416361416362, 2.5225885225885225, 1.0586080586080586, 0.0625, 0.0, 0.125, 0.0
1156, -0.6336996336996337, 2.111111111111111, 0.4993894993894994, 0.34375, 0.28125, 0.125, 0.0
1157, 0.0231990231990232, 1.032967032967033, 0.19413919413919414, 0.4375, 0.5, 0.21875, 0.0
1158, -0.18681318681318682, 1.4566544566544566, 0.1514041514041514, 0.28125, 0.4375, 0.09375, 0.0
1159, -0.5128205128205128, 2.1245421245421245, -0.04395604395604396, 0.40625, 0.375, 0.1875, 0.0
1160, -0.5445665445665445, 1.695970695970696, -0.8351648351648352, 0.5625, 0.1875, 0.25, 0.0
1161, -1.26007326007326, 1.5067155067155067, -1.6752136752136753, 0.375, 0.21875, 0.03125, 0.0
1162, -0.6446886446886447, 1.3003663003663004, -1.5360195360195361, 0.125, 0.625, 0.125, 0.0
1163, 0.11721611721611722, 1.0183150183150182, -1.271062271062271, -0.09375, 0.5625, 0.46875, 0.0
1164, -0.45665445665445664, 1.465201465201465, -1.0183150183150182, -0.125, 0.09375, 0.53125, 0.0
1165, -0.2661782661782662, 1.0488400488400489, -0.9377289377289377, 0.0625, 0.125, 0.40625, 0.0
1166, 0.2869352869352869, 0.673992673992674, -0.525030525030525, 0.03125, 0.5, 0.0625, 0.0
1167, 0.6788766788766789, 0.3833943833943834, -0.0695970695970696, -0.125, 0.5625, 0.125, 0.0
1168, 0.6703296703296703, 0.026862026862026864, 0.19536019536019536, -0.21875, 0.03125, 0.28125, 0.0
1169, -0.3064713064713065, -0.14163614163614163, -0.1916971916971917, -0.09375, -0.25, 0.3125, 0.0
1170, -0.34065934065934067, -0.7326007326007326, -1.078144078144078, -0.03125, 0.28125, -0.03125, 0.0
1171, -0.11721611721611722, -1.137973137973138, -1.4993894993894994, -0.28125, 0.625, -0.5, 0.0
1172, 0.568986568986569, -1.0036630036630036, -0.13797313797313798, -0.1875, 0.46875, -0.28125, 0.0
1173, 1.431013431013431, -0.967032967032967, 1.2026862026862026, 0.21875, -0.15625, -0.21875, 1.0
1174, 0.31135531135531136, -0.9804639804639804, 0.31135531135531136, 0.375, -0.15625, -0.28125, 1.0
1175, -0.6056166056166056, -0.5347985347985348, -1.4053724053724053, 0.09375, 0.3125, -0.4375, 1.0
1176, -0.5286935286935287, -0.03540903540903541, -0.9487179487179487, -0.1875, 0.375, -0.4375, 1.0
1177, -0.3235653235653236, 0.6239316239316239, -0.5702075702075702, -0.3125, 0.0625, -0.21875, 1.0
1178, -0.4517704517704518, 1.0512820512820513, -0.315018315018315, -0.0625, -0.3125, -0.0625, 1.0
1179, -0.5628815628815629, 0.6654456654456654, -1.3956043956043955, 0.03125, -0.3125, 0.0, 1.0
1180, -0.8315018315018315, 0.5934065934065934, -2.4615384615384617, -0.28125, 0.0625, -0.15625, 1.0
1181, -0.7081807081807082, 1.424908424908425, -1.6800976800976801, -0.4375, 0.5625, -0.21875, 1.0
1182, 0.27350427350427353, 2.051282051282051, 0.21611721611721613, -0.15625, 0.25, -0.15625, 1.0
1183, 0.15995115995115994, 1.188034188034188, -0.06715506715506715, -0.1875, -0.1875, 0.0, 1.0
1184, 0.34798534798534797, -0.11721611721611722, -0.8559218559218559, -0.65625, -0.40625, 0.0, 1.0
1185, 0.017094017094017096, 0.9658119658119658, -0.37362637362637363, -0.5625, -0.15625, -0.125, 1.0
1186, -0.2796092796092796, 1.8021978021978022, 0.1623931623931624, -0.03125, 0.15625, -0.1875, 1.0
1187, 0.08913308913308914, 1.0842490842490842, 0.14774114774114774, 0.125, 0.15625, -0.125, 1.0
1188, 0.8595848595848596, -0.36752136752136755, 0.0, -0.21875, -0.46875, 0.0625, 1.0
1189, -0.1452991452991453, -1.1282051282051282, -0.6446886446886447, -0.5625, -0.59375, 0.0625, 1.0
1190, -0.7387057387057387, -0.7692307692307693, -0.5934065934065934, -0.3125, -0.03125, 0.15625, 1.0
1191, 0.796092796092796, -1.5787545787545787, -0.42002442002442003, 0.03125, 0.03125, 0.21875, 1.0
1192, 2.3614163614163615, -3.4004884004884004, -0.7802197802197802, -0.21875, -0.6875, 0.0, 1.0
1193, 0.41147741147741146, -3.1965811965811968, -1.7045177045177045, -0.59375, -0.625, -0.25, 1.0
1194, -0.1794871794871795, -3.399267399267399, -1.6275946275946276, -0.59375, 0.09375, -0.46875, 1.0
1195, 2.3064713064713063, -3.374847374847375, 0.5091575091575091, -0.65625, -0.75, 0.0, 1.0
1196, -1.4822954822954824, -2.744810744810745, -0.2869352869352869, -0.375, -1.5625, -0.0625, 1.0
1197, -3.111111111111111, -2.3321123321123323, -0.7655677655677655, 0.0, -0.09375, -0.25, 1.0
1198, 0.612942612942613, -3.5616605616605614, 0.7912087912087912, 0.0, 0.8125, -0.15625, 1.0
1199, 0.12332112332112333, -3.4493284493284495, 2.352869352869353, -0.375, -0.40625, 0.21875, 1.0
1200, -2.4932844932844933, -3.1062271062271063, 2.001221001221001, -0.1875, -1.0625, 0.5, 1.0
1201, -2.5213675213675213, -3.568986568986569, 1.5494505494505495, 0.34375, 0.0625, 0.3125, 1.0
1202, -0.8681318681318682, -5.0537240537240535, 1.2124542124542124, 0.65625, 1.125, 0.03125, 1.0
1203, -0.5641025641025641, -4.787545787545787, 0.7557997557997558, 0.5625, 0.96875, 0.0, 1.0
1204, -0.8192918192918193, -5.196581196581197, 0.221001221001221, 0.3125, 0.0, 0.75, 1.0
1205, -1.2197802197802199, -5.078144078144078, -0.3553113553113553, 0.1875, -0.3125, 0.84375, 1.0
1206, 0.40293040293040294, -4.760683760683761, 0.0927960927960928, 0.59375, 0.15625, 0.71875, 1.0
1207, 0.6239316239316239, -5.09035409035409, -0.5335775335775336, 0.90625, 0.28125, 0.5, 1.0
1208, -0.514041514041514, -4.90964590964591, -1.6813186813186813, 0.5625, -0.125, 0.53125, 1.0
1209, -1.032967032967033, -4.534798534798535, -1.5433455433455434, 0.09375, -0.25, 0.53125, 1.0
1210, -0.5347985347985348, -4.48962148962149, -0.7338217338217338, -0.03125, 0.0625, 0.40625, 1.0
1211, 0.4126984126984127, -4.516483516483516, -0.3882783882783883, -0.0625, 0.25, 0.21875, 0.0
1212, 1.1904761904761905, -4.882783882783883, -0.5238095238095238, -0.15625, 0.09375, 0.0625, 0.0
1213, 0.10622710622710622, -4.831501831501831, -0.5262515262515263, -0.5, -0.0625, -0.0625, 0.0
1214, -1.3357753357753357, -3.6202686202686203, 0.1807081807081807, -0.96875, 0.03125, -0.15625, 0.0
1215, -1.3882783882783882, -2.5115995115995116, 1.188034188034188, -1.09375, 0.125, -0.0625, 0.0
1216, -1.26007326007326, -2.934065934065934, 0.8205128205128205, -0.65625, 0.0, 0.0, 0.0
1217, -0.6043956043956044, -4.26007326007326, -0.6190476190476191, -0.28125, 0.125, 0.0625, 0.0
1218, 0.5494505494505495, -5.57997557997558, -0.8962148962148963, -0.34375, 0.25, 0.09375, 0.0
1219, 1.5982905982905984, -5.097680097680097, 0.06715506715506715, -0.625, 0.0, -0.0625, 0.0
1220, 1.7973137973137974, -4.981684981684982, 0.47619047619047616, -0.59375, -0.40625, -0.1875, 0.0
1221, 0.8229548229548229, -4.9462759462759465, 0.03785103785103785, -0.375, -0.6875, -0.1875, 0.0
1222, -0.7277167277167277, -5.5054945054945055, -0.3626373626373626, -0.40625, -0.5, -0.21875, 0.0
1223, -1.7374847374847375, -5.236874236874237, -0.7326007326007326, -0.625, 0.125, -0.25, 0.0
1224, -0.9560439560439561, -3.8180708180708183, 0.18925518925518925, -0.71875, 0.4375, 0.0, 0.0
1225, 1.1196581196581197, -3.051282051282051, 1.5836385836385836, -0.6875, -0.1875, 0.03125, 0.0
1226, 0.7655677655677655, -3.3772893772893773, 1.47985347985348, -0.625, -0.71875, -0.03125, 0.0
1227, -0.6446886446886447, -3.336996336996337, 1.0256410256410255, -0.40625, -0.46875, -0.21875, 0.0
1228, -2.1245421245421245, -2.3504273504273505, 0.5726495726495726, 0.0, 0.3125, -0.1875, 0.0
1229, -0.9255189255189256, -0.20146520146520147, 0.9267399267399268, 0.3125, 0.65625, -0.25, 0.0
1230, 0.8424908424908425, 0.5238095238095238, 1.0647130647130647, 0.25, 0.125, -0.3125, 0.0
1231, 0.31868131868131866, 0.25274725274725274, 0.4835164835164835, 0.125, -0.15625, -0.4375, 0.0
1232, -1.0354090354090355, 0.3199023199023199, -0.5457875457875457, 0.4375, 0.03125, -0.375, 0.0
1233, -1.595848595848596, 0.8229548229548229, -1.3467643467643469, 0.71875, 0.40625, -0.3125, 0.0
1234, -1.7423687423687424, 1.3553113553113554, -1.606837606837607, 0.46875, 0.59375, -0.1875, 0.0
1235, -1.6312576312576312, 2.045177045177045, -1.0048840048840049, 0.0, 0.59375, 0.0, 0.0
1236, -1.9853479853479854, 2.398046398046398, -0.31868131868131866, -0.125, 0.53125, 0.28125, 0.0
