timestamp, accX, accY, accZ, gyroX, gyroY, gyroZ, button
644876, 1.205, -0.532, -0.273, -0.153, 0.178, 0.067, 1
644896, 0.585, -0.079, -0.279, -0.257, -0.095, 0.013, 1
644916, 0.213, 0.053, -0.389, -0.197, -0.081, 0.025, 1
644936, 0.216, 0.004, -0.483, -0.126, 0.032, 0.069, 1
644956, 0.276, 0.005, -0.431, -0.153, 0.077, 0.072, 1
644976, 0.174, 0.07, -0.297, -0.216, 0.018, 0.045, 1
644996, 0.044, 0.141, -0.101, -0.272, -0.048, 0.023, 1
645016, -0.091, 0.217, 0.042, -0.274, -0.051, 0.032, 1
645036, -0.056, 0.158, 0.068, -0.235, 0.001, 0.061, 1
645056, 0.042, 0.069, 0.009, -0.197, 0.048, 0.081, 1
645076, 0.131, 0.002, -0.073, -0.2, 0.037, 0.072, 1
645096, 0.14, 0.037, -0.106, -0.204, -0.003, 0.048, 1
645116, 0.103, 0.053, -0.154, -0.215, -0.034, 0.025, 1
645136, 0.006, 0.136, -0.121, -0.191, -0.008, 0.025, 1
645156, -0.082, 0.156, -0.104, -0.138, 0.069, 0.043, 1
645176, 0.033, 0.104, -0.137, -0.135, 0.102, 0.048, 1
645196, 0.095, 0.117, -0.143, -0.16, 0.039, 0.029, 1
645216, 0.018, 0.149, -0.129, -0.169, -0.003, 0.015, 1
645236, -0.075, 0.226, -0.084, -0.143, 0.013, 0.036, 1
645256, -0.044, 0.181, -0.085, -0.114, 0.039, 0.048, 1
645276, 0.004, 0.126, -0.087, -0.103, 0.055, 0.053, 1
645296, 0.047, 0.129, -0.077, -0.111, 0.039, 0.05, 1
645316, 0.05, 0.119, -0.102, -0.108, 0.029, 0.056, 1
645336, 0.054, 0.128, -0.087, -0.11, 0.027, 0.061, 1
645356, 0.098, 0.107, -0.143, -0.119, -0.004, 0.053, 1
645376, 0.076, 0.095, -0.167, -0.109, -0.01, 0.049, 1
645396, 0.063, 0.12, -0.13, -0.098, 0.019, 0.061, 1
645416, 0.102, 0.078, -0.225, -0.1, 0.032, 0.065, 1
645436, 0.099, 0.092, -0.194, -0.109, 0.026, 0.067, 1
645456, 0.106, 0.08, -0.22, -0.125, 0.022, 0.064, 1
645476, 0.111, 0.08, -0.238, -0.119, 0.029, 0.061, 1
645496, 0.112, 0.083, -0.239, -0.113, 0.039, 0.06, 1
645516, 0.132, 0.062, -0.291, -0.123, 0.039, 0.05, 1
645536, 0.093, 0.103, -0.193, -0.128, 0.045, 0.043, 1
645556, 0.055, 0.095, -0.163, -0.127, 0.064, 0.039, 1
645576, 0.059, 0.129, -0.098, -0.123, 0.054, 0.033, 1
645596, 0.07, 0.118, -0.127, -0.122, 0.02, 0.021, 1
645616, 0.043, 0.115, -0.119, -0.118, 0.001, 0.01, 1
645636, 0.018, 0.127, -0.115, -0.103, 0.003, 0.006, 1
645656, 0.024, 0.096, -0.155, -0.095, 0.027, 0.013, 1
645676, 0.062, 0.098, -0.153, -0.103, 0.047, 0.022, 1
645696, 0.083, 0.092, -0.18, -0.105, 0.034, 0.022, 1
645716, 0.058, 0.1, -0.175, -0.121, 0.007, 0.026, 1
645736, 0.067, 0.087, -0.168, -0.117, 0.023, 0.037, 1
645756, 0.095, 0.079, -0.175, -0.114, 0.043, 0.05, 1
645776, 0.063, 0.107, -0.12, -0.119, 0.04, 0.053, 1
645796, 0.064, 0.114, -0.112, -0.113, 0.036, 0.055, 1
645816, 0.063, 0.126, -0.103, -0.111, 0.037, 0.056, 1
645836, 0.043, 0.13, -0.072, -0.103, 0.032, 0.056, 1
645856, 0.052, 0.122, -0.108, -0.103, 0.037, 0.061, 1
645876, 0.072, 0.115, -0.138, -0.101, 0.032, 0.067, 1
645896, 0.068, 0.117, -0.131, -0.091, 0.037, 0.061, 1
645916, 0.095, 0.116, -0.154, -0.103, 0.043, 0.064, 1
645936, 0.065, 0.126, -0.115, -0.102, 0.019, 0.053, 1
645956, 0.064, 0.105, -0.158, -0.093, 0.007, 0.052, 1
645976, 0.119, 0.081, -0.245, -0.093, 0.009, 0.056, 1
645996, 0.136, 0.039, -0.295, -0.093, -0.004, 0.045, 1
646016, 0.113, 0.059, -0.309, -0.122, -0.004, 0.038, 1
646036, 0.081, 0.08, -0.255, -0.113, 0.015, 0.049, 1
646056, 0.057, 0.068, -0.204, -0.118, 0.071, 0.068, 1
646076, 0.075, 0.104, -0.124, -0.116, 0.081, 0.078, 1
646096, 0.055, 0.126, -0.072, -0.123, 0.07, 0.071, 1
646116, -0.039, 0.107, -0.088, -0.111, 0.095, 0.069, 1
646136, 0.041, 0.189, 0.028, -0.088, 0.097, 0.08, 1
646156, 0.043, 0.156, -0.047, -0.084, 0.067, 0.07, 1
646176, 0.05, 0.156, -0.074, -0.08, 0.038, 0.058, 1
646196, 0.049, 0.131, -0.171, -0.065, 0.022, 0.047, 1
646216, 0.092, 0.076, -0.263, -0.067, 0.009, 0.04, 1
646236, 0.092, 0.071, -0.301, -0.072, 0.021, 0.031, 1
646256, -0.006, 0.08, -0.288, -0.076, 0.061, 0.039, 1
646276, 0.038, 0.082, -0.196, -0.092, 0.079, 0.065, 1
646296, 0.081, 0.088, -0.153, -0.127, 0.07, 0.069, 1
646316, 0.078, 0.09, -0.171, -0.137, 0.07, 0.074, 1
646336, 0.099, 0.081, -0.125, -0.125, 0.081, 0.064, 1
646356, 0.114, 0.149, -0.087, -0.08, 0.043, 0.052, 1
646376, 0.082, 0.142, -0.128, -0.039, 0.017, 0.02, 1
646396, 0.041, 0.174, -0.054, -0.023, 0.015, -0.015, 1
646416, 0.124, -0.011, -0.331, -0.084, 0.031, -0.087, 1
646436, -0.063, 0.184, -0.249, -0.124, 0.042, -0.047, 1
646456, -0.028, 0.299, -0.122, -0.086, 0.041, 0.013, 1
646476, 0.166, 0.394, 0.024, 0.066, -0.031, 0.014, 0
646496, -0.018, 0.131, -0.03, 0.105, -0.026, 0.035, 0
646516, -0.063, -0.06, -0.386, 0.05, 0.124, 0.072, 0
646536, 0.104, -0.284, -0.672, -0.277, 0.219, 0.179, 0
646556, 0.397, 0.028, -0.528, -0.29, 0.115, 0.143, 0
646576, 0.368, 0.002, -0.971, -0.284, 0.144, 0.149, 0
646596, 0.967, -0.421, -1.881, -0.119, 0.302, 0.139, 0
646616, 1.805, -1.574, -3.324, -0.029, 0.521, -0.067, 0
646636, 2.956, -2.55, -4.981, -0.266, 0.674, -0.402, 0
646656, 2.777, -1.73, -6.164, -0.649, 0.709, -0.877, 0
646676, 1.448, -1.115, -7.257, -0.913, 0.943, -1.026, 0
646696, 1.047, -1.203, -7.662, -1.07, 1.607, -0.888, 0
646716, 1.026, -1.995, -7.55, -1.119, 2.419, -0.824, 0
646736, 1.371, -2.961, -6.858, -1.183, 3.042, -0.91, 0
646756, 1.534, -4.0, -6.196, -1.467, 3.416, -1.256, 0
646776, 0.469, -4.07, -4.914, -1.739, 3.761, -1.786, 0
646796, -0.807, -3.559, -3.775, -1.852, 4.269, -2.395, 0
646816, -1.951, -3.312, -2.343, -1.72, 4.847, -2.79, 0
646836, -2.014, -4.176, -1.431, -1.601, 5.088, -3.021, 0
646856, -1.481, -5.371, -0.677, -1.698, 4.751, -3.148, 0
646876, -2.12, -6.46, 0.124, -1.893, 3.951, -3.168, 0
646896, -3.84, -7.638, 0.712, -2.099, 3.261, -3.266, 0
646916, -5.843, -6.468, 1.966, -2.109, 2.973, -3.378, 0
646936, -7.77, -5.634, 2.94, -1.584, 2.745, -3.104, 0
646956, -8.165, -5.913, 3.115, -1.165, 2.486, -2.66, 0
646976, -7.527, -5.054, 3.402, -1.09, 1.858, -2.2, 0
646996, -7.456, -4.587, 3.36, -1.028, 0.882, -1.66, 0
647016, -7.721, -4.013, 3.138, -0.871, 0.116, -0.784, 0
647036, -6.924, -3.535, 2.873, -0.543, 0.112, -0.06, 0
647056, -4.92, -4.437, 2.235, -0.415, 0.148, 0.359, 0
647076, -2.559, -4.607, 1.919, -0.279, -0.055, 0.608, 0
647096, -0.893, -4.962, 1.246, -0.145, -0.215, 0.716, 0
647116, 0.277, -5.05, 0.269, -0.061, -0.106, 0.638, 0
647136, 1.022, -4.716, -0.315, 0.091, 0.156, 0.535, 0
647156, 1.493, -4.785, -0.887, 0.104, 0.304, 0.353, 0
647176, 1.643, -4.606, -1.021, 0.025, 0.127, 0.205, 0
647196, 1.114, -4.711, -1.282, -0.189, -0.088, 0.123, 0
647216, -0.082, -3.568, -1.149, -0.087, -0.097, 0.356, 1
647236, -1.198, -4.992, -1.902, -0.274, 0.28, 0.464, 1
647256, -0.859, -4.282, -1.276, -0.356, 0.549, 0.459, 1
647276, -0.25, -3.991, -0.126, -0.004, 0.454, 0.481, 1
647296, 0.02, -4.737, 0.497, 0.226, 0.129, 0.375, 1
647316, -0.234, -5.11, 0.745, 0.367, -0.138, 0.357, 1
647336, -0.798, -5.257, 0.799, 0.482, -0.244, 0.262, 1
647356, -1.272, -5.215, 0.694, 0.544, -0.324, 0.249, 1
647376, -1.697, -4.884, 0.617, 0.627, -0.409, 0.379, 1
647396, -2.455, -4.621, 0.546, 0.762, -0.459, 0.539, 1
647416, -3.247, -4.5, 0.645, 0.891, -0.508, 0.822, 1
647436, -3.129, -4.679, 0.859, 0.993, -0.753, 1.232, 1
647456, -3.129, -4.889, 1.192, 1.108, -1.206, 1.491, 1
647476, -3.99, -4.946, 1.555, 1.236, -1.641, 1.49, 1
647496, -4.764, -4.988, 1.666, 1.323, -1.99, 1.547, 1
647516, -4.48, -4.748, 1.132, 1.376, -2.477, 1.807, 1
647536, -4.488, -4.748, 1.203, 1.525, -3.21, 2.034, 1
647556, -5.142, -3.721, 1.427, 1.548, -3.932, 2.07, 1
647576, -5.994, -3.007, 0.759, 1.572, -4.126, 2.316, 1
647596, -4.668, -3.373, -0.314, 1.761, -3.426, 2.872, 1
647616, -2.19, -4.309, -0.885, 1.791, -3.006, 3.125, 1
647636, -0.635, -4.433, -1.501, 1.434, -3.172, 2.392, 1
647656, -1.292, -2.541, -2.408, 1.137, -3.395, 1.815, 1
647676, -1.42, -2.15, -3.758, 1.56, -2.731, 2.226, 1
647696, 0.374, -3.68, -4.536, 2.122, -1.569, 2.504, 1
647716, 3.075, -5.453, -4.696, 1.808, -1.32, 2.037, 1
647736, 3.157, -4.022, -4.479, 0.719, -1.962, 1.177, 1
647756, 1.14, -2.092, -4.445, 0.321, -2.122, 0.93, 1
647776, 0.482, -1.434, -4.371, 0.679, -1.362, 0.985, 1
647796, 1.493, -1.485, -3.873, 0.972, -0.599, 0.921, 1
647816, 2.013, -1.112, -3.405, 0.794, -0.617, 0.748, 1
647836, 1.763, -0.948, -3.472, 0.425, -1.014, 0.877, 1
647856, 1.21, -0.794, -3.641, 0.191, -1.019, 0.985, 1
647876, 0.966, -0.552, -3.361, 0.172, -0.606, 0.74, 1
647896, 0.849, -0.339, -2.796, 0.149, -0.182, 0.447, 1
647916, 0.591, 0.036, -1.983, 0.039, 0.021, 0.356, 1
647936, 0.457, -0.041, -1.346, -0.062, 0.081, 0.349, 1
647956, 0.527, -0.122, -0.943, -0.174, 0.048, 0.312, 1
647976, 0.456, -0.185, -0.698, -0.219, -0.005, 0.26, 1
647996, 0.169, -0.095, -0.414, -0.189, 0.129, 0.139, 1
648016, 0.142, -0.07, -0.203, -0.127, 0.257, 0.117, 1
648036, 0.383, -0.145, 0.037, -0.119, 0.213, 0.069, 1
648056, 0.399, -0.199, 0.181, -0.194, -0.001, 0.052, 1
648076, 0.208, -0.123, 0.155, -0.261, -0.157, 0.023, 1
648096, -0.148, 0.094, 0.104, -0.248, -0.15, 0.048, 1
648116, -0.323, 0.392, 0.163, -0.125, -0.032, 0.073, 1
648136, -0.218, 0.196, 0.076, -0.051, 0.043, 0.099, 1
648156, -0.077, 0.033, -0.089, -0.127, 0.07, 0.125, 1
648176, 0.089, 0.096, -0.185, -0.205, 0.084, 0.094, 0
648196, 0.052, 0.114, -0.162, -0.204, 0.094, 0.154, 0
648216, 0.165, 0.091, -0.27, -0.13, 0.145, 0.114, 0
648236, 0.312, 0.033, -0.421, -0.036, 0.139, 0.093, 0
648256, 0.337, -0.096, -0.525, -0.045, 0.127, 0.023, 0
648276, 0.218, -0.12, -0.596, -0.122, 0.169, -0.04, 0
648296, 0.311, -0.191, -0.794, -0.228, 0.214, -0.069, 0
648316, 0.34, -0.048, -0.944, -0.31, 0.242, -0.11, 0
648336, 0.305, 0.018, -1.127, -0.357, 0.256, -0.081, 0
648356, 0.491, -0.135, -1.293, -0.332, 0.304, -0.076, 0
648376, 0.887, -0.63, -1.768, -0.366, 0.39, -0.117, 0
648396, 1.754, -1.339, -2.642, -0.419, 0.456, -0.277, 0
648416, 2.103, -2.262, -4.085, -0.727, 0.701, -0.596, 0
648436, 2.411, -2.338, -5.49, -0.959, 1.138, -0.806, 0
648456, 2.787, -2.596, -7.192, -1.097, 1.718, -0.965, 0
648476, 2.58, -2.202, -7.581, -1.241, 2.199, -1.045, 0
648496, 2.897, -3.894, -8.361, -1.504, 3.034, -1.384, 0
648516, 1.384, -3.88, -7.311, -1.808, 3.489, -1.845, 0
648536, -0.356, -3.25, -5.661, -2.131, 3.885, -2.208, 0
648556, -1.677, -3.428, -4.396, -2.255, 4.305, -2.558, 0
648576, -2.326, -4.01, -3.113, -2.243, 4.71, -2.94, 0
648596, -3.044, -4.748, -1.52, -2.266, 4.749, -3.341, 0
648616, -3.924, -6.125, -0.436, -2.355, 4.484, -3.687, 0
648636, -4.435, -7.302, 0.743, -2.43, 4.223, -3.741, 0
648656, -4.542, -8.155, 1.923, -2.275, 3.72, -3.721, 0
648676, -6.417, -8.017, 2.827, -2.136, 2.975, -3.703, 0
648696, -8.095, -6.454, 3.864, -1.809, 2.441, -3.717, 0
648716, -9.996, -5.01, 4.376, -1.313, 1.952, -3.418, 0
648736, -10.951, -3.477, 4.724, -0.928, 1.535, -2.621, 0
648756, -9.6, -3.311, 4.469, -0.748, 0.825, -1.553, 0
648776, -7.852, -3.67, 3.998, -0.841, -0.067, -0.492, 0
648796, -6.006, -3.752, 3.195, -0.812, -0.584, 0.054, 0
648816, -3.992, -3.762, 2.222, -0.609, -0.689, 0.41, 0
648836, -1.73, -4.43, 1.138, -0.396, -0.518, 0.778, 0
648856, 0.335, -4.883, 0.48, -0.313, -0.24, 0.853, 0
648876, 1.518, -4.984, 0.155, -0.274, -0.003, 0.725, 0
648896, 1.901, -4.78, -0.182, -0.199, 0.17, 0.419, 0
648916, 1.112, -3.936, -0.475, -0.088, 0.265, 0.157, 0
648936, 0.31, -3.544, -0.786, 0.034, 0.288, 0.103, 0
648956, -0.252, -3.875, -1.142, 0.08, 0.204, 0.199, 0
648976, -0.329, -3.924, -1.396, -0.128, 0.18, 0.219, 0
648996, -0.515, -3.805, -1.232, -0.128, 0.18, 0.284, 0
649016, -0.339, -3.931, -0.815, -0.096, 0.084, 0.325, 0
649036, -0.105, -4.209, -0.197, -0.031, -0.147, 0.326, 0
649056, -0.21, -4.223, 0.125, -0.015, -0.375, 0.382, 1
649076, -0.647, -4.005, 0.28, 0.1, -0.497, 0.566, 1
649096, -1.264, -4.93, -0.397, -0.116, -0.288, 0.593, 1
649116, -1.173, -4.405, -0.29, -0.219, -0.068, 0.73, 1
649136, -0.734, -4.355, -0.066, -0.13, -0.004, 0.817, 1
649156, -0.378, -4.612, 0.345, 0.048, -0.125, 0.691, 1
649176, -1.032, -4.281, 0.845, 0.282, -0.243, 0.639, 1
649196, -1.699, -4.534, 1.195, 0.479, -0.411, 0.782, 1
649216, -1.737, -5.352, 1.216, 0.488, -0.599, 0.91, 1
649236, -1.201, -5.744, 1.298, 0.478, -0.8, 0.993, 1
649256, -1.413, -5.535, 1.491, 0.641, -1.006, 0.991, 1
649276, -2.427, -5.117, 1.694, 0.912, -1.062, 0.965, 1
649296, -3.562, -4.673, 2.067, 1.222, -1.169, 1.067, 1
649316, -3.721, -4.496, 2.501, 1.482, -1.585, 1.423, 1
649336, -3.432, -4.774, 2.59, 1.555, -2.387, 1.728, 1
649356, -3.577, -4.271, 2.566, 1.527, -3.158, 1.735, 1
649376, -4.909, -3.649, 2.073, 1.535, -3.287, 1.639, 1
649396, -5.457, -3.035, 1.302, 1.574, -2.833, 1.824, 1
649416, -4.808, -2.727, 0.752, 1.505, -2.323, 2.094, 1
649436, -2.258, -2.337, 0.266, 1.622, -2.356, 2.634, 1
649456, -0.147, -2.737, -0.269, 1.709, -2.813, 2.448, 1
649476, -0.316, -3.447, -2.353, 1.255, -2.814, 1.446, 1
649496, -1.291, -1.654, -2.663, 1.2, -2.262, 1.315, 1
649516, -1.001, -1.603, -2.762, 1.564, -1.354, 1.74, 1
649536, 1.125, -2.41, -2.706, 1.604, -1.036, 1.697, 1
649556, 2.623, -2.389, -2.882, 1.24, -1.926, 1.422, 1
649576, 1.043, -1.403, -3.404, 0.992, -2.913, 1.191, 1
649596, -1.77, -1.235, -4.041, 0.998, -2.589, 1.12, 1
649616, -2.244, -0.942, -3.855, 0.919, -1.186, 1.117, 1
649636, 0.401, -1.11, -3.332, 0.762, -0.255, 1.37, 1
649656, 2.519, -2.06, -3.456, 0.642, -0.472, 1.589, 1
649676, 3.12, -2.333, -3.267, 0.522, -0.966, 1.322, 1
649696, 2.169, -2.584, -3.243, 0.286, -1.2, 0.805, 1
649716, 1.302, -1.372, -2.843, 0.029, -0.8, 0.345, 1
649736, 1.14, -0.331, -2.153, 0.101, -0.308, 0.268, 1
649756, 1.275, -0.128, -1.784, 0.215, -0.167, 0.2, 1
649776, 0.964, 0.072, -1.62, 0.091, -0.301, 0.072, 1
649796, 0.362, 0.488, -1.316, -0.121, -0.441, 0.081, 1
649816, -0.202, 0.605, -1.04, -0.242, -0.325, 0.127, 1
649836, -0.002, 0.674, -0.62, -0.24, -0.067, 0.172, 1
649856, 0.249, 0.268, -0.332, -0.1, 0.051, 0.168, 1
649876, 0.255, -0.064, -0.241, -0.062, 0.048, 0.109, 1
649896, 0.017, -0.001, -0.164, -0.149, 0.001, 0.084, 1
649916, -0.138, 0.162, -0.057, -0.237, -0.037, 0.14, 1
649936, -0.11, 0.072, 0.02, -0.241, -0.051, 0.207, 1
649956, -0.018, -0.116, -0.031, -0.153, 0.039, 0.184, 1
649976, 0.112, -0.246, -0.082, -0.105, 0.116, 0.147, 1
649996, 0.186, -0.262, -0.078, -0.1, 0.128, 0.089, 1
650016, 0.345, -0.209, -0.094, -0.122, 0.091, 0.005, 1
650036, 0.31, 0.132, 0.089, -0.055, -0.021, -0.01, 1
650056, 0.131, 0.1, 0.043, -0.059, -0.123, -0.006, 1
650076, -0.301, 0.082, -0.055, -0.144, -0.085, 0.096, 1
650096, -0.205, 0.142, -0.122, -0.198, 0.053, 0.116, 0
650116, 0.072, 0.379, -0.069, -0.178, 0.152, 0.139, 0
650136, 0.214, 0.287, -0.037, -0.043, 0.119, 0.102, 0
650156, 0.194, 0.181, -0.085, 0.023, 0.077, 0.042, 0
650176, 0.081, 0.024, -0.186, -0.056, 0.039, 0.095, 0
650196, 0.192, 0.099, -0.336, -0.174, -0.004, 0.132, 0
650216, 0.271, 0.001, -0.5, -0.237, -0.045, 0.103, 0
650236, 0.198, 0.036, -0.612, -0.225, 0.032, 0.061, 0
650256, 0.274, 0.022, -0.684, -0.163, 0.165, 0.032, 0
650276, 0.513, -0.217, -0.856, -0.158, 0.234, -0.038, 0
650296, 0.883, -0.488, -1.214, -0.222, 0.185, -0.114, 0
650316, 0.95, -0.787, -2.107, -0.364, 0.205, -0.264, 0
650336, 1.14, -1.017, -3.398, -0.505, 0.389, -0.387, 0
650356, 1.51, -1.04, -4.286, -0.514, 0.732, -0.443, 0
650376, 2.222, -1.561, -5.421, -0.453, 1.193, -0.515, 0
650396, 3.022, -2.57, -6.719, -0.609, 1.624, -0.695, 0
650416, 3.607, -3.554, -7.677, -1.017, 1.948, -1.072, 0
650436, 2.996, -3.596, -8.146, -1.439, 2.695, -1.536, 0
650456, 2.34, -2.871, -6.867, -1.489, 3.382, -1.726, 0
650476, 2.319, -4.194, -5.877, -1.701, 3.652, -2.098, 0
650496, 1.178, -4.523, -4.47, -2.218, 3.703, -2.759, 0
650516, -0.942, -4.304, -2.773, -2.484, 3.574, -3.189, 0
650536, -2.56, -5.306, -1.382, -2.558, 3.477, -3.072, 0
650556, -3.451, -5.694, 0.521, -2.706, 3.368, -3.161, 0
650576, -4.384, -6.674, 1.52, -2.721, 2.859, -3.179, 0
650596, -5.897, -7.202, 2.35, -2.752, 2.495, -3.29, 0
650616, -7.269, -6.246, 3.628, -2.655, 2.296, -3.354, 0
650636, -8.587, -5.405, 4.434, -2.145, 2.243, -3.031, 0
650656, -8.584, -4.701, 4.946, -1.599, 2.189, -2.531, 0
650676, -8.191, -4.281, 4.943, -1.338, 1.593, -1.985, 0
650696, -8.452, -3.372, 4.579, -1.272, 0.963, -1.643, 0
650716, -8.09, -2.086, 4.256, -1.05, 0.598, -1.015, 0
650736, -6.238, -2.568, 3.4, -0.57, 0.42, -0.24, 0
650756, -3.673, -3.677, 2.068, -0.323, 0.331, 0.275, 0
650776, -1.368, -4.094, 1.22, -0.34, 0.097, 0.459, 0
650796, -0.405, -4.633, 0.356, -0.459, -0.211, 0.376, 0
650816, 0.009, -4.219, -0.021, -0.522, -0.112, 0.332, 0
650836, 0.685, -4.171, -0.116, -0.272, 0.285, 0.389, 0
650856, 1.155, -4.527, -0.161, -0.043, 0.524, 0.368, 0
650876, 1.249, -4.795, -0.405, -0.083, 0.427, 0.191, 0
650896, 0.26, -4.421, -0.593, -0.229, 0.141, -0.061, 0
650916, -0.63, -3.629, -0.622, -0.289, 0.016, -0.05, 0
650936, -1.012, -3.242, -0.497, -0.015, 0.199, 0.158, 0
650956, -0.395, -3.795, -0.327, 0.149, 0.123, 0.269, 0
650976, 0.003, -4.343, -0.164, 0.136, -0.169, 0.224, 0
650996, -0.534, -4.46, -0.121, 0.033, -0.288, 0.149, 0
651016, -1.148, -4.113, 0.089, -0.01, -0.245, 0.232, 0
651036, -1.76, -3.743, 0.408, 0.084, -0.113, 0.426, 0
651056, -2.091, -3.876, 0.565, 0.108, -0.038, 0.723, 0
651076, -2.124, -3.76, 0.965, 0.226, -0.135, 1.142, 1
651096, -2.088, -3.617, 1.85, 0.647, -0.442, 1.345, 1
651116, -3.008, -4.306, 2.026, 0.899, -0.693, 1.405, 1
651136, -3.784, -4.813, 1.801, 0.902, -0.631, 1.436, 1
651156, -3.418, -4.819, 1.788, 0.818, -0.784, 1.513, 1
651176, -3.242, -5.212, 1.61, 0.668, -1.172, 1.448, 1
651196, -2.974, -5.337, 1.787, 0.498, -1.745, 1.459, 1
651216, -3.475, -4.46, 2.028, 0.726, -2.011, 1.844, 1
651236, -3.908, -4.211, 1.96, 1.324, -1.766, 2.257, 1
651256, -3.275, -4.882, 1.576, 1.599, -1.428, 2.154, 1
651276, -1.862, -5.137, 1.143, 1.233, -1.827, 1.77, 1
651296, -0.585, -4.102, 0.518, 0.777, -2.793, 1.678, 1
651316, -1.086, -1.803, -0.253, 1.101, -2.933, 2.012, 1
651336, -1.452, -1.118, -0.797, 1.797, -2.33, 2.235, 1
651356, -0.495, -1.891, -0.784, 1.814, -1.954, 1.716, 1
651376, 1.233, -2.063, -1.067, 1.361, -2.409, 1.502, 1
651396, 1.042, -1.466, -1.715, 1.19, -2.616, 1.462, 1
651416, 0.616, -1.437, -2.866, 1.109, -2.01, 1.02, 1
651436, 0.82, -0.747, -2.734, 0.849, -2.064, 0.746, 1
651456, 0.86, -0.916, -3.563, 0.87, -2.148, 1.0, 1
651476, 1.068, -1.574, -4.157, 1.06, -1.71, 0.964, 1
651496, 1.119, -1.518, -3.852, 0.83, -1.321, 0.513, 1
651516, 0.79, -0.714, -3.422, 0.341, -1.261, 0.346, 1
651536, 0.011, 0.31, -2.65, 0.165, -1.069, 0.402, 1
651556, 0.013, 0.608, -1.979, 0.332, -0.717, 0.467, 1
651576, 0.323, 0.345, -1.31, 0.428, -0.613, 0.445, 1
651596, 0.218, 0.411, -0.65, 0.273, -0.877, 0.35, 1
651616, -0.547, 0.639, -0.35, 0.152, -1.094, 0.326, 1
651636, -0.431, 0.639, -0.655, 0.241, -0.913, 0.471, 1
651656, 0.816, -0.266, -1.238, 0.448, -0.638, 0.63, 1
651676, 1.475, -0.816, -1.487, 0.411, -0.66, 0.447, 1
651696, 1.082, -0.361, -1.414, 0.168, -0.821, 0.113, 1
651716, 0.288, 0.256, -1.468, 0.115, -0.8, 0.081, 1
651736, 0.402, 0.075, -1.582, 0.252, -0.393, 0.184, 1
651756, 1.022, -0.251, -1.423, 0.22, -0.166, 0.242, 1
651776, 0.939, -0.067, -1.021, 0.002, -0.258, 0.189, 1
651796, 0.43, 0.099, -0.748, -0.093, -0.322, 0.158, 1
651816, 0.262, 0.019, -0.485, -0.095, -0.174, 0.178, 1
651836, 0.373, -0.085, -0.415, -0.134, -0.01, 0.211, 1
651856, 0.541, -0.121, -0.303, -0.16, 0.017, 0.204, 1
651876, 0.425, -0.114, -0.301, -0.146, -0.004, 0.174, 1
651896, 0.372, -0.108, -0.262, -0.135, 0.006, 0.166, 1
651916, 0.27, -0.189, -0.259, -0.131, 0.019, 0.103, 1
651936, 0.132, 0.041, -0.206, -0.157, 0.062, 0.054, 1
651956, 0.11, 0.15, -0.209, -0.155, 0.072, 0.064, 1
651976, 0.228, 0.173, -0.191, -0.127, -0.058, 0.047, 1
651996, 0.124, 0.107, -0.228, -0.128, -0.141, -0.042, 1
652016, -0.168, 0.322, -0.147, -0.058, -0.087, -0.066, 1
652036, -0.202, 0.465, -0.04, 0.114, -0.067, -0.104, 1
652056, -0.089, 0.177, -0.073, 0.237, -0.053, -0.202, 1
652076, 0.009, -0.082, -0.383, 0.193, -0.026, -0.215, 1
652096, 0.038, -0.118, -0.521, 0.061, 0.011, -0.124, 1
652116, 0.25, -0.006, -0.526, -0.053, -0.021, -0.033, 1
652136, 0.182, 0.109, -0.367, -0.091, -0.087, -0.03, 1
652156, 0.084, 0.12, -0.305, -0.1, -0.142, 0.021, 0
652176, -0.495, -0.251, -0.77, -0.175, 0.083, 0.02, 0
652196, 0.247, -0.353, -1.021, -0.254, 0.36, -0.025, 0
652216, 0.809, -0.534, -1.308, -0.39, 0.384, -0.036, 0
652236, 0.773, -0.44, -1.561, -0.477, 0.357, -0.073, 0
652256, 0.581, -0.377, -1.915, -0.489, 0.46, -0.047, 0
652276, 1.096, -0.691, -2.593, -0.493, 0.547, -0.054, 0
652296, 1.235, -1.366, -3.618, -0.707, 0.751, -0.208, 0
652316, 1.356, -1.094, -4.098, -0.864, 1.031, -0.296, 0
652336, 1.59, -1.649, -4.704, -0.971, 1.305, -0.45, 0
652356, 1.827, -2.082, -5.491, -1.179, 1.482, -0.581, 0
652376, 2.08, -2.458, -6.192, -1.478, 1.647, -0.753, 0
652396, 1.58, -3.535, -6.971, -1.836, 2.312, -1.034, 0
652416, 1.742, -2.905, -6.437, -2.069, 2.895, -1.089, 0
652436, 1.816, -3.835, -5.557, -2.232, 3.19, -1.372, 0
652456, 0.443, -3.932, -4.294, -2.624, 3.294, -1.863, 0
652476, -0.924, -4.254, -2.902, -2.896, 3.439, -2.305, 0
652496, -2.226, -4.405, -1.318, -2.931, 3.7, -2.612, 0
652516, -2.681, -5.344, 0.079, -2.704, 3.852, -2.66, 0
652536, -2.641, -6.499, 1.276, -2.732, 3.601, -2.673, 0
652556, -3.808, -6.946, 2.448, -2.957, 3.019, -2.848, 0
652576, -5.782, -6.281, 3.464, -2.981, 2.598, -3.064, 0
652596, -7.249, -5.373, 4.507, -2.585, 2.456, -3.126, 0
652616, -7.526, -5.16, 5.177, -1.894, 2.383, -2.944, 0
652636, -7.924, -4.735, 5.532, -1.424, 2.086, -2.558, 0
652656, -7.413, -4.059, 5.673, -1.201, 1.569, -2.053, 0
652676, -6.798, -3.358, 5.501, -0.994, 0.818, -1.198, 0
652696, -5.288, -3.578, 4.464, -0.709, 0.182, -0.457, 0
652716, -3.925, -3.68, 3.326, -0.513, -0.188, -0.056, 0
652736, -2.49, -3.893, 2.074, -0.4, -0.216, 0.141, 0
652756, -1.07, -3.372, 1.317, -0.3, -0.05, 0.295, 0
652776, 0.157, -3.545, 0.616, -0.16, 0.054, 0.412, 0
652796, 0.859, -3.359, 0.19, -0.058, 0.114, 0.419, 0
652816, 1.215, -3.509, -0.262, 0.142, 0.128, 0.331, 0
652836, 0.864, -3.713, -0.951, 0.124, 0.132, 0.08, 0
652856, 0.24, -3.444, -1.355, -0.116, 0.163, -0.074, 0
652876, -0.016, -2.644, -1.291, -0.243, 0.229, 0.038, 0
652896, -0.166, -2.429, -1.007, -0.061, 0.233, 0.114, 0
652916, 0.08, -3.025, -0.453, 0.093, 0.018, 0.085, 0
652936, 0.096, -3.818, -0.189, -0.016, -0.26, -0.142, 0
652956, -0.451, -3.692, -0.109, -0.183, -0.401, -0.223, 0
652976, -0.966, -3.202, -0.151, -0.144, -0.287, -0.072, 0
652996, -0.818, -3.372, -0.339, -0.078, 0.014, 0.142, 0
653016, -0.23, -3.728, -0.327, -0.118, 0.183, 0.262, 1
653036, 0.099, -3.502, 0.004, -0.096, 0.114, 0.288, 1
653056, -0.279, -3.55, 0.1, -0.082, -0.059, 0.307, 1
653076, -0.953, -3.21, 0.227, -0.021, -0.044, 0.363, 1
653096, -1.217, -3.314, 0.748, 0.101, 0.018, 0.481, 1
653116, -1.193, -3.434, 0.817, 0.197, 0.004, 0.672, 1
653136, -1.118, -3.782, 1.349, 0.354, -0.064, 0.79, 1
653156, -1.648, -4.48, 1.517, 0.433, -0.076, 0.733, 1
653176, -2.212, -4.321, 1.836, 0.531, -0.072, 0.681, 1
653196, -2.95, -3.975, 2.316, 0.745, -0.225, 0.828, 1
653216, -3.323, -4.337, 2.494, 0.935, -0.609, 0.998, 1
653236, -3.058, -4.583, 2.583, 1.083, -1.307, 1.094, 1
653256, -2.964, -4.513, 2.737, 1.266, -2.133, 1.253, 1
653276, -3.797, -4.217, 2.852, 1.613, -2.631, 1.465, 1
653296, -4.292, -4.037, 2.682, 2.04, -2.758, 1.781, 1
653316, -5.208, -4.753, 1.944, 2.194, -2.36, 1.773, 1
653336, -5.064, -4.654, 1.88, 2.105, -2.07, 1.689, 1
653356, -3.204, -4.127, 2.235, 2.036, -3.172, 1.866, 1
653376, -0.981, -4.824, 1.248, 2.201, -4.477, 1.929, 1
653396, -2.224, -5.8, -0.16, 2.458, -4.783, 1.557, 1
653416, -2.42, -5.807, -2.02, 2.302, -4.095, 0.871, 1
653436, -2.857, -3.238, -2.821, 2.127, -2.918, 0.401, 1
653456, -2.097, -1.463, -3.518, 2.348, -2.232, 0.777, 1
653476, -1.613, -1.267, -4.198, 2.677, -2.01, 1.393, 1
653496, 1.002, -2.977, -5.46, 2.801, -2.119, 1.733, 1
653516, 1.605, -4.841, -6.487, 2.242, -2.489, 1.334, 1
653536, 0.043, -2.639, -6.107, 1.174, -2.214, 0.56, 1
653556, -1.311, -0.445, -5.317, 0.974, -1.177, 0.846, 1
653576, 0.184, -1.004, -4.494, 1.389, 0.072, 1.266, 1
653596, 2.056, -1.899, -3.743, 1.387, 0.301, 1.219, 1
653616, 2.246, -1.636, -3.009, 0.897, -0.403, 0.903, 1
653636, 0.512, -0.77, -2.345, 0.46, -0.987, 0.593, 1
653656, -0.582, 0.185, -1.782, 0.283, -0.753, 0.521, 1
653676, 0.125, 0.135, -1.553, 0.439, -0.245, 0.651, 1
653696, 1.099, -0.458, -1.538, 0.514, -0.156, 0.68, 1
653716, 1.606, -0.783, -1.471, 0.316, -0.547, 0.518, 1
653736, 0.889, -0.546, -1.418, 0.094, -0.987, 0.343, 1
653756, 0.179, -0.473, -1.587, -0.025, -0.951, 0.269, 1
653776, 0.163, -0.381, -1.653, -0.078, -0.53, 0.307, 1
653796, 0.522, -0.373, -1.588, -0.144, -0.194, 0.39, 1
653816, 0.871, -0.279, -1.203, -0.195, -0.128, 0.381, 1
653836, 0.684, -0.339, -0.907, -0.175, -0.153, 0.262, 1
653856, 0.376, -0.449, -0.686, -0.112, 0.013, 0.208, 1
653876, 0.288, -0.539, -0.567, -0.161, 0.193, 0.164, 1
653896, 0.231, -0.347, -0.242, -0.207, 0.227, 0.141, 1
653916, 0.063, -0.179, -0.012, -0.217, 0.195, 0.13, 1
653936, -0.061, -0.117, 0.059, -0.204, 0.172, 0.145, 1
653956, -0.132, -0.059, 0.088, -0.157, 0.164, 0.13, 1
653976, -0.228, 0.029, 0.172, -0.083, 0.171, 0.124, 1
653996, -0.212, -0.062, 0.158, -0.087, 0.191, 0.101, 1
654016, -0.316, -0.087, 0.139, -0.097, 0.245, 0.077, 1
654036, -0.35, -0.21, 0.072, -0.178, 0.285, 0.094, 1
654056, -0.174, 0.154, -0.005, -0.2, 0.222, 0.192, 0
654076, -0.081, 0.239, -0.095, -0.167, 0.087, 0.284, 0
654096, -0.263, 0.44, -0.162, 0.028, 0.147, 0.293, 0
654116, -0.112, -0.164, -0.517, 0.057, 0.342, 0.321, 0
654136, 0.523, -0.737, -1.022, -0.178, 0.387, 0.245, 0
654156, 0.707, -0.878, -1.472, -0.447, 0.317, 0.111, 0
654176, 0.325, -0.522, -2.167, -0.59, 0.482, 0.127, 0
654196, 0.385, -0.34, -2.386, -0.58, 0.726, 0.195, 0
654216, 1.053, -0.725, -2.664, -0.614, 0.886, 0.111, 0
654236, 1.46, -1.007, -3.52, -0.66, 1.063, -0.035, 0
654256, 1.592, -1.366, -4.696, -0.733, 1.377, -0.161, 0
654276, 2.01, -1.762, -5.621, -0.789, 1.77, -0.251, 0
654296, 2.795, -3.084, -6.98, -0.946, 2.227, -0.475, 0
654316, 3.005, -3.298, -6.821, -1.239, 2.436, -0.868, 0
654336, 1.969, -3.382, -6.613, -1.643, 2.752, -1.337, 0
654356, 0.745, -3.038, -5.465, -1.724, 3.221, -1.475, 0
654376, 0.953, -3.445, -4.477, -1.71, 3.685, -1.753, 0
654396, 0.401, -3.426, -3.416, -1.89, 3.726, -2.228, 0
654416, -0.799, -4.01, -3.074, -2.144, 3.505, -2.583, 0
654436, -1.844, -4.917, -2.708, -2.357, 3.442, -2.749, 0
654456, -3.176, -4.807, -1.434, -2.439, 3.648, -2.882, 0
654476, -3.608, -5.137, 0.065, -2.349, 3.575, -2.923, 0
654496, -4.526, -6.764, 0.605, -2.33, 3.185, -3.032, 0
654516, -4.711, -7.443, 1.25, -2.474, 2.784, -3.304, 0
654536, -6.132, -6.953, 2.028, -2.444, 2.404, -3.404, 0
654556, -7.443, -6.244, 2.544, -2.181, 2.512, -3.316, 0
654576, -7.451, -5.173, 3.188, -1.828, 2.579, -3.117, 0
654596, -7.402, -4.257, 3.616, -1.429, 2.228, -2.551, 0
654616, -7.517, -4.189, 3.417, -1.15, 1.67, -1.937, 0
654636, -6.745, -3.174, 3.432, -1.058, 1.161, -1.411, 0
654656, -5.995, -2.475, 3.321, -0.759, 0.673, -0.826, 0
654676, -4.837, -2.652, 2.576, -0.452, 0.3, -0.252, 0
654696, -2.925, -3.014, 1.874, -0.266, -0.003, 0.233, 0
654716, -1.112, -3.893, 0.701, -0.252, -0.222, 0.405, 0
654736, 0.136, -3.484, 0.095, -0.332, -0.246, 0.326, 0
654756, 0.79, -3.461, -0.281, -0.271, -0.199, 0.253, 0
654776, 0.836, -3.438, -0.452, -0.217, -0.069, 0.167, 0
654796, 0.541, -2.886, -0.374, -0.102, 0.077, 0.116, 0
654816, 0.06, -3.423, -0.845, -0.049, 0.196, 0.092, 0
654836, 0.02, -3.088, -0.797, -0.133, 0.188, 0.045, 0
654856, -0.188, -3.115, -0.753, -0.169, 0.04, 0.031, 0
654876, -0.3, -2.834, -0.607, -0.097, -0.108, 0.076, 0
654896, -0.57, -2.874, -0.602, 0.045, -0.1, 0.18, 0
654916, -0.217, -3.343, -0.669, 0.062, -0.045, 0.258, 0
654936, 0.102, -3.685, -0.619, -0.048, -0.084, 0.197, 0
654956, 0.031, -3.653, -0.544, -0.215, -0.181, 0.239, 0
654976, -0.485, -3.471, -0.68, -0.473, -0.173, 0.47, 1
654996, -0.962, -2.583, -0.149, -0.386, -0.081, 0.791, 1
655016, -1.378, -3.233, -0.312, -0.276, 0.097, 0.893, 1
655036, -0.758, -3.639, -0.159, -0.272, 0.107, 0.829, 1
655056, -0.377, -3.786, 0.288, -0.27, -0.14, 0.751, 1
655076, -0.353, -3.857, 0.609, -0.177, -0.332, 0.739, 1
655096, -0.608, -4.09, 0.612, -0.007, -0.361, 0.736, 1
655116, -0.876, -4.46, 0.614, 0.13, -0.266, 0.638, 1
655136, -1.143, -4.548, 0.667, 0.226, -0.127, 0.502, 1
655156, -1.329, -4.248, 0.959, 0.375, -0.135, 0.546, 1
655176, -1.635, -4.332, 1.12, 0.543, -0.243, 0.682, 1
655196, -2.315, -4.423, 1.353, 0.736, -0.299, 0.831, 1
655216, -2.905, -4.564, 1.711, 0.941, -0.392, 1.025, 1
655236, -2.911, -4.908, 2.05, 1.143, -0.713, 1.213, 1
655256, -2.813, -4.954, 2.291, 1.369, -1.306, 1.258, 1
655276, -2.774, -4.834, 2.337, 1.626, -2.101, 1.291, 1
655296, -3.372, -4.36, 2.316, 1.972, -2.787, 1.485, 1
655316, -4.005, -4.05, 2.137, 2.483, -3.091, 1.879, 1
655336, -5.081, -5.409, 0.666, 2.481, -2.83, 1.947, 1
655356, -4.016, -4.838, 0.325, 2.238, -2.817, 2.029, 1
655376, -4.062, -3.445, 0.292, 1.98, -3.095, 2.092, 1
655396, -3.981, -2.845, -0.115, 2.083, -3.21, 2.249, 1
655416, -2.439, -3.714, -0.713, 2.271, -3.199, 2.382, 1
655436, -0.715, -4.784, -2.063, 2.072, -3.321, 2.139, 1
655456, -1.041, -4.928, -4.052, 1.826, -3.043, 1.966, 1
655476, -0.514, -4.109, -5.103, 1.876, -1.815, 1.75, 1
655496, 0.594, -3.501, -4.98, 1.924, -0.882, 1.532, 1
655516, 0.722, -2.438, -4.393, 1.572, -0.811, 1.234, 1
655536, 0.138, -1.313, -4.075, 1.289, -1.101, 1.334, 1
655556, 0.495, -1.926, -4.432, 1.23, -1.029, 1.511, 1
655576, 1.189, -2.132, -4.435, 1.081, -0.789, 1.379, 1
655596, 0.992, -1.466, -3.626, 0.799, -0.545, 1.038, 1
655616, 1.083, -0.692, -2.758, 0.585, -0.356, 0.863, 1
655636, 0.984, -0.171, -1.861, 0.511, -0.36, 0.817, 1
655656, 0.878, 0.045, -1.226, 0.443, -0.521, 0.789, 1
655676, 0.926, 0.21, -0.903, 0.334, -0.851, 0.728, 1
655696, 0.782, -0.091, -1.312, 0.332, -1.158, 0.726, 1
655716, 0.479, -0.725, -2.024, 0.314, -0.971, 0.615, 1
655736, 0.696, -0.571, -2.068, 0.208, -0.496, 0.532, 1
655756, 0.995, -0.592, -1.696, 0.175, -0.224, 0.477, 1
655776, 1.137, -0.799, -1.602, 0.047, -0.271, 0.348, 1
655796, 0.761, -0.568, -1.297, -0.122, -0.346, 0.266, 1
655816, 0.35, -0.568, -1.214, -0.184, -0.13, 0.215, 1
655836, 0.25, -0.511, -1.191, -0.249, 0.142, 0.19, 1
655856, 0.528, -0.333, -1.075, -0.177, 0.293, 0.177, 1
655876, 0.726, -0.329, -0.87, -0.108, 0.274, 0.094, 1
655896, 0.633, -0.319, -0.709, -0.135, 0.15, 0.041, 1
655916, 0.258, -0.186, -0.549, -0.191, 0.098, 0.026, 1
655936, -0.159, -0.119, -0.449, -0.262, 0.215, 0.004, 1
655956, -0.25, 0.28, -0.102, -0.183, 0.317, 0.031, 1
655976, -0.075, 0.013, 0.03, -0.173, 0.307, -0.029, 1
655996, 0.069, -0.005, 0.015, -0.251, 0.127, -0.027, 0
656016, -0.196, 0.1, 0.148, -0.283, 0.015, -0.042, 0
656036, -0.388, 0.271, 0.099, -0.254, 0.066, -0.021, 0
656056, -0.437, 0.138, -0.158, -0.235, 0.238, 0.009, 0
656076, -0.099, 0.035, -0.288, -0.25, 0.321, 0.036, 0
656096, 0.153, -0.018, -0.431, -0.293, 0.288, 0.072, 0
656116, 0.444, -0.176, -0.724, -0.298, 0.217, 0.081, 0
656136, 0.586, -0.328, -1.121, -0.303, 0.178, 0.05, 0
656156, 0.676, -0.383, -1.435, -0.272, 0.244, -0.03, 0
656176, 0.861, -0.738, -2.015, -0.259, 0.405, -0.145, 0
656196, 1.238, -1.066, -2.685, -0.34, 0.599, -0.313, 0
656216, 1.758, -1.294, -3.479, -0.426, 0.731, -0.442, 0
656236, 2.132, -1.72, -4.46, -0.536, 0.902, -0.604, 0
656256, 2.576, -2.245, -5.486, -0.677, 1.172, -0.764, 0
656276, 2.384, -2.54, -6.504, -0.808, 1.733, -0.989, 0
656296, 2.692, -2.759, -6.626, -0.762, 2.846, -1.103, 0
656316, 2.967, -4.144, -6.039, -0.928, 3.183, -1.583, 0
656336, 2.369, -4.321, -5.925, -1.365, 3.132, -2.203, 0
656356, 0.707, -3.635, -5.081, -1.748, 3.117, -2.804, 0
656376, -1.098, -3.247, -3.969, -1.981, 3.34, -3.22, 0
656396, -1.778, -3.856, -2.805, -2.052, 3.521, -3.364, 0
656416, -2.707, -4.307, -1.403, -2.104, 3.495, -3.525, 0
656436, -3.329, -5.621, -0.38, -2.219, 3.265, -3.553, 0
656456, -3.81, -7.032, 0.493, -2.495, 2.87, -3.536, 0
656476, -5.038, -7.097, 1.577, -2.701, 2.432, -3.645, 0
656496, -6.484, -6.556, 2.48, -2.506, 2.18, -3.642, 0
656516, -6.965, -6.864, 2.774, -2.112, 2.039, -3.259, 0
656536, -7.273, -6.057, 3.311, -1.856, 2.003, -3.012, 0
656556, -7.819, -4.879, 3.588, -1.555, 1.817, -2.702, 0
656576, -8.344, -3.326, 3.676, -1.303, 1.568, -2.284, 0
656596, -8.192, -2.342, 3.797, -0.898, 1.14, -1.582, 0
656616, -7.003, -2.716, 3.208, -0.618, 0.605, -0.693, 0
656636, -5.275, -3.258, 2.634, -0.503, 0.12, -0.035, 0
656656, -3.44, -3.688, 1.875, -0.422, -0.247, 0.163, 0
656676, -2.315, -3.446, 1.092, -0.437, -0.47, 0.271, 0
656696, -1.142, -3.447, 0.59, -0.328, -0.444, 0.507, 0
656716, 0.533, -4.146, 0.054, -0.136, -0.335, 0.703, 0
656736, 1.335, -5.026, -0.754, -0.076, -0.215, 0.625, 0
656756, 1.722, -4.353, -1.006, -0.194, -0.038, 0.191, 0
656776, 0.909, -3.542, -1.149, -0.249, -0.035, -0.108, 0
656796, -0.171, -2.991, -1.354, -0.231, 0.089, -0.04, 0
656816, -0.416, -2.813, -1.284, -0.131, 0.137, 0.142, 0
656836, -0.035, -3.166, -1.235, -0.062, 0.045, 0.263, 0
656856, 0.257, -3.85, -1.252, -0.113, -0.045, 0.191, 0
656876, 0.199, -4.038, -1.163, -0.234, -0.007, 0.07, 0
656896, 0.112, -3.631, -0.792, -0.216, 0.08, 0.087, 0
656916, 0.065, -3.568, -0.399, -0.092, 0.111, 0.087, 0
656936, 0.017, -3.644, -0.061, -0.015, 0.02, 0.116, 0
656956, -0.25, -3.705, 0.104, 0.033, -0.094, 0.152, 0
656976, -0.575, -3.701, 0.173, 0.061, -0.185, 0.252, 0
656996, -0.765, -3.381, 0.117, 0.127, -0.25, 0.557, 1
657016, -1.12, -3.459, -0.206, 0.155, -0.267, 0.957, 1
657036, -1.213, -4.445, -0.452, -0.032, -0.164, 0.987, 1
657056, -0.562, -4.228, -0.268, -0.089, -0.08, 0.896, 1
657076, -0.254, -4.23, 0.161, -0.014, -0.183, 0.825, 1
657096, -0.57, -3.967, 0.404, 0.131, -0.305, 0.82, 1
657116, -1.024, -3.972, 0.602, 0.271, -0.393, 0.879, 1
657136, -1.339, -4.33, 0.749, 0.364, -0.422, 0.93, 1
657156, -1.777, -4.779, 0.709, 0.317, -0.379, 0.902, 1
657176, -2.156, -4.782, 0.764, 0.246, -0.302, 0.846, 1
657196, -2.175, -4.525, 1.016, 0.291, -0.366, 0.965, 1
657216, -2.268, -4.593, 1.146, 0.384, -0.58, 1.119, 1
657236, -2.284, -4.82, 1.15, 0.466, -0.847, 1.255, 1
657256, -2.791, -4.805, 1.39, 0.674, -1.01, 1.412, 1
657276, -3.237, -5.045, 1.294, 0.844, -1.157, 1.539, 1
657296, -2.519, -5.203, 0.828, 1.149, -1.386, 1.858, 1
657316, -2.22, -5.297, 0.469, 1.362, -1.722, 2.053, 1
657336, -2.47, -4.993, 0.565, 1.35, -2.067, 1.903, 1
657356, -3.232, -4.129, 0.663, 1.139, -2.369, 1.582, 1
657376, -3.499, -3.12, 0.609, 1.039, -2.512, 1.747, 1
657396, -2.461, -2.928, 0.091, 1.245, -2.506, 2.117, 1
657416, -0.524, -3.543, -0.693, 1.405, -2.804, 2.094, 1
657436, -0.144, -3.148, -0.801, 1.233, -3.559, 1.555, 1
657456, -1.02, -1.256, -0.732, 1.097, -4.255, 1.151, 1
657476, -2.981, -0.674, -1.603, 1.789, -3.977, 1.598, 1
657496, -2.377, -2.415, -2.916, 2.626, -2.676, 2.114, 1
657516, -0.449, -3.658, -3.609, 2.637, -1.318, 2.138, 1
657536, 1.77, -3.632, -3.817, 1.872, -0.772, 1.902, 1
657556, 2.141, -2.42, -3.287, 1.073, -1.093, 1.706, 1
657576, 1.054, -0.935, -2.328, 0.659, -1.425, 1.342, 1
657596, 0.341, -0.019, -1.626, 0.631, -1.522, 1.204, 1
657616, 0.647, -0.597, -1.896, 0.813, -1.459, 1.295, 1
657636, 0.956, -1.379, -2.209, 0.94, -1.216, 1.229, 1
657656, 0.907, -1.142, -2.103, 0.855, -0.868, 0.966, 1
657676, 0.606, -0.502, -1.628, 0.818, -0.593, 0.874, 1
657696, 0.544, -0.302, -1.253, 0.823, -0.372, 0.804, 1
657716, 0.701, -0.239, -1.18, 0.728, -0.358, 0.771, 1
657736, 1.069, -0.642, -1.555, 0.643, -0.517, 0.852, 1
657756, 1.403, -1.242, -2.102, 0.464, -0.596, 0.621, 1
657776, 1.036, -1.459, -2.489, 0.199, -0.411, 0.433, 1
657796, 1.079, -0.992, -2.335, 0.042, -0.197, 0.34, 1
657816, 1.068, -0.469, -2.027, 0.037, -0.081, 0.273, 1
657836, 1.157, -0.489, -1.874, 0.033, -0.077, 0.237, 1
657856, 1.054, -0.736, -1.819, -0.084, -0.026, 0.147, 1
657876, 0.68, -0.684, -1.59, -0.237, 0.139, 0.067, 1
657896, 0.535, -0.277, -1.12, -0.287, 0.327, 0.013, 1
657916, 0.56, -0.047, -0.647, -0.182, 0.373, -0.031, 1
657936, 0.619, -0.17, -0.416, -0.117, 0.269, -0.051, 1
657956, 0.35, -0.417, -0.362, -0.189, 0.174, -0.104, 1
657976, 0.074, -0.249, -0.183, -0.326, 0.075, -0.061, 1
657996, -0.09, -0.069, 0.003, -0.372, 0.059, -0.098, 1
658016, -0.248, 0.142, 0.159, -0.285, 0.092, -0.098, 0
658036, -0.368, 0.303, 0.346, -0.147, 0.091, -0.05, 0
658056, -0.337, 0.225, 0.302, -0.06, 0.072, 0.008, 0
658076, -0.236, -0.004, 0.248, -0.131, -0.053, 0.083, 0
658096, -0.196, 0.004, 0.168, -0.19, -0.121, 0.083, 0
658116, -0.185, -0.026, 0.026, -0.203, -0.062, 0.083, 0
658136, -0.156, -0.006, -0.137, -0.191, 0.047, 0.074, 0
658156, 0.046, -0.006, -0.277, -0.153, 0.108, 0.035, 0
658176, 0.168, -0.127, -0.496, -0.149, 0.12, 0.026, 0
658196, 0.319, -0.315, -0.738, -0.182, 0.138, -0.023, 0
658216, 0.382, -0.451, -0.945, -0.227, 0.192, -0.074, 0
658236, 0.621, -0.708, -1.209, -0.277, 0.32, -0.185, 0
658256, 1.23, -1.169, -2.568, -0.37, 0.422, -0.284, 0
658276, 1.642, -1.661, -3.611, -0.502, 0.609, -0.389, 0
658296, 2.41, -2.555, -5.192, -0.648, 0.899, -0.535, 0
658316, 2.824, -2.849, -6.517, -0.834, 1.284, -0.745, 0
658336, 3.136, -3.575, -7.844, -0.967, 1.817, -0.954, 0
658356, 2.928, -4.319, -8.517, -1.207, 2.368, -1.279, 0
658376, 1.964, -5.113, -8.671, -1.608, 2.769, -1.676, 0
658396, 0.727, -4.646, -7.826, -2.083, 3.277, -2.034, 0
658416, -0.08, -3.613, -6.387, -2.128, 3.959, -2.173, 0
658436, -0.226, -4.149, -5.556, -1.835, 4.683, -2.41, 0
658456, 0.475, -6.249, -5.172, -1.857, 4.962, -2.897, 0
658476, -0.507, -7.092, -3.593, -2.374, 4.558, -3.706, 0
658496, -3.843, -6.937, -1.361, -2.889, 3.896, -4.516, 0
658516, -6.593, -7.326, 0.557, -3.027, 3.617, -4.787, 0
658536, -7.29, -8.278, 1.819, -2.943, 3.382, -4.445, 0
658556, -8.104, -8.969, 2.632, -2.706, 3.057, -4.027, 0
658576, -8.523, -8.021, 3.419, -2.466, 2.938, -3.74, 0
658596, -9.063, -6.6, 4.349, -1.973, 2.789, -3.279, 0
658616, -8.476, -5.34, 5.005, -1.387, 2.566, -2.935, 0
658636, -7.534, -4.528, 5.252, -0.965, 1.631, -2.543, 0
658656, -7.012, -4.07, 4.8, -0.914, 0.269, -1.93, 0
658676, -6.842, -3.706, 3.556, -0.956, -0.505, -1.24, 0
658696, -5.783, -3.038, 2.403, -0.723, -0.468, -0.666, 0
658716, -3.77, -3.408, 1.235, -0.369, -0.137, 0.128, 0
658736, -1.635, -3.777, 0.642, -0.172, -0.024, 0.331, 0
658756, -0.374, -3.921, 0.281, -0.092, -0.169, 0.384, 0
658776, 0.124, -3.944, -0.096, -0.064, -0.228, 0.4, 0
658796, 0.332, -4.104, -0.664, -0.072, -0.145, 0.299, 0
658816, 0.359, -3.723, -1.13, -0.155, 0.077, 0.168, 0
658836, 0.352, -3.31, -1.37, -0.215, 0.232, 0.147, 0
658856, 0.389, -2.869, -1.256, -0.159, 0.193, 0.18, 0
658876, 0.235, -2.831, -1.086, -0.033, 0.114, 0.263, 0
658896, 0.099, -3.098, -0.948, 0.07, 0.018, 0.335, 0
658916, -0.045, -3.766, -0.929, -0.029, -0.032, 0.302, 0
658936, -0.172, -3.845, -0.807, -0.222, -0.087, 0.347, 1
658956, -0.42, -3.796, -0.788, -0.384, -0.13, 0.527, 1
658976, -0.455, -3.256, -0.517, -0.298, -0.197, 0.683, 1
658996, -0.624, -2.763, 0.016, 0.101, -0.309, 0.853, 1
659016, -0.385, -3.06, 0.545, 0.587, -0.547, 1.093, 1
659036, -0.358, -4.484, 0.45, 0.748, -0.74, 1.067, 1
659056, -0.581, -6.251, -0.368, 0.293, -0.601, 0.62, 1
659076, -0.358, -5.54, -0.338, -0.117, -0.436, 0.369, 1
659096, -0.164, -4.501, -0.154, -0.149, -0.409, 0.393, 1
659116, -0.482, -4.054, -0.009, 0.058, -0.402, 0.416, 1
659136, -0.769, -3.907, 0.154, 0.284, -0.346, 0.588, 1
659156, -1.23, -4.102, 0.393, 0.466, -0.244, 0.806, 1
659176, -1.477, -4.714, 0.556, 0.518, -0.165, 0.924, 1
659196, -1.292, -5.059, 0.495, 0.48, -0.217, 0.948, 1
659216, -1.028, -5.047, 0.448, 0.409, -0.568, 0.762, 1
659236, -1.737, -4.858, 0.453, 0.3, -0.924, 0.681, 1
659256, -2.551, -4.506, 0.712, 0.298, -1.158, 0.862, 1
659276, -2.778, -4.592, 0.905, 0.491, -1.214, 1.291, 1
659296, -2.524, -4.977, 1.179, 0.776, -1.221, 1.719, 1
659316, -2.726, -5.13, 1.302, 1.009, -1.306, 1.8, 1
659336, -2.951, -4.964, 1.228, 1.127, -1.533, 1.502, 1
659356, -2.665, -4.322, 1.002, 1.21, -1.991, 1.521, 1
659376, -2.948, -3.96, 0.732, 1.458, -2.392, 1.984, 1
659396, -2.907, -4.197, 0.428, 1.652, -2.406, 2.186, 1
659416, -2.949, -3.883, 0.408, 1.46, -2.225, 1.927, 1
659436, -2.842, -2.769, 0.121, 1.13, -2.101, 1.774, 1
659456, -2.067, -2.341, -0.584, 1.194, -2.006, 2.124, 1
659476, -0.304, -2.732, -1.179, 1.396, -1.948, 2.277, 1
659496, 0.672, -2.953, -1.472, 1.425, -2.119, 2.056, 1
659516, -0.093, -2.423, -1.799, 1.347, -1.881, 1.795, 1
659536, -0.477, -1.532, -1.681, 1.419, -1.103, 1.787, 1
659556, 0.643, -1.763, -1.563, 1.47, -0.616, 1.759, 1
659576, 2.587, -2.391, -1.651, 1.07, -1.232, 1.485, 1
659596, 2.237, -1.987, -1.946, 0.569, -2.371, 1.09, 1
659616, 0.827, -1.187, -2.386, 0.503, -2.775, 0.696, 1
659636, -0.395, -0.601, -2.56, 0.744, -2.271, 0.571, 1
659656, -0.544, -0.249, -2.4, 0.904, -1.515, 0.573, 1
659676, 0.033, -0.187, -2.182, 0.865, -1.122, 0.689, 1
659696, 0.48, -0.235, -2.109, 0.628, -1.189, 0.852, 1
659716, 0.77, -0.307, -2.141, 0.607, -1.317, 0.81, 1
659736, 0.755, -0.631, -2.087, 0.588, -1.285, 0.709, 1
659756, 0.341, -0.633, -1.942, 0.439, -1.017, 0.613, 1
659776, 0.157, -0.329, -1.901, 0.433, -0.579, 0.736, 1
659796, 0.598, -0.17, -1.624, 0.518, -0.253, 0.772, 1
659816, 0.809, -0.153, -1.253, 0.515, -0.264, 0.728, 1
659836, 0.77, -0.202, -1.061, 0.392, -0.426, 0.693, 1
659856, 0.566, 0.034, -0.806, 0.355, -0.499, 0.683, 1
659876, 0.26, -0.093, -0.768, 0.296, -0.387, 0.652, 1
659896, 0.406, -0.248, -0.839, 0.16, -0.314, 0.656, 1
659916, 0.979, -0.433, -0.782, 0.127, -0.376, 0.634, 1
659936, 1.187, -0.59, -0.824, 0.155, -0.428, 0.508, 1
659956, 0.995, -0.825, -0.957, 0.08, -0.383, 0.393, 1
659976, 0.794, -0.756, -0.894, -0.006, -0.224, 0.332, 1
659996, 0.798, -0.515, -0.705, 0.001, -0.097, 0.265, 1
660016, 0.816, -0.354, -0.455, 0.079, -0.053, 0.18, 1
660036, 0.838, -0.563, -0.449, 0.089, -0.022, 0.155, 1
660056, 0.864, -0.791, -0.534, -0.019, -0.001, 0.16, 1
660076, 0.804, -0.821, -0.464, -0.183, -0.016, 0.108, 1
660096, 0.446, -0.49, -0.28, -0.279, -0.004, 0.039, 1
660116, 0.082, 0.039, -0.059, -0.256, 0.096, 0.054, 1
660136, 0.075, 0.124, 0.068, -0.143, 0.169, 0.079, 0
660156, 0.229, -0.315, -0.087, -0.147, 0.2, 0.021, 0
660176, 0.14, -0.187, -0.07, -0.201, 0.163, -0.075, 0
660196, -0.119, -0.263, -0.338, -0.395, 0.178, -0.025, 0
660216, -0.248, 0.345, -0.18, -0.45, 0.243, 0.068, 0
660236, 0.05, 0.142, -0.178, -0.306, 0.277, 0.082, 0
660256, 0.257, -0.257, -0.51, -0.208, 0.214, 0.014, 0
660276, 0.324, -0.38, -0.885, -0.238, 0.146, -0.05, 0
660296, 0.275, -0.418, -1.215, -0.299, 0.158, -0.094, 0
660316, 0.267, -0.42, -1.496, -0.33, 0.237, -0.133, 0
660336, 0.557, -0.73, -1.859, -0.331, 0.401, -0.189, 0
660356, 1.156, -1.007, -2.296, -0.317, 0.563, -0.268, 0
660376, 1.835, -1.841, -3.205, -0.272, 0.712, -0.363, 0
660396, 2.25, -2.439, -4.231, -0.383, 0.88, -0.551, 0
660416, 2.617, -2.773, -5.388, -0.624, 1.145, -0.786, 0
660436, 2.671, -2.981, -6.211, -0.882, 1.465, -1.084, 0
660456, 2.519, -3.639, -7.174, -1.05, 1.876, -1.29, 0
660476, 2.161, -4.044, -7.309, -1.112, 2.538, -1.477, 0
660496, 1.842, -4.535, -6.778, -1.196, 3.077, -1.722, 0
660516, 1.404, -5.238, -6.203, -1.524, 3.348, -2.097, 0
660536, 0.448, -4.806, -5.253, -1.904, 3.464, -2.556, 0
660556, -0.885, -4.186, -4.141, -2.09, 3.544, -2.999, 0
660576, -2.325, -3.973, -3.006, -2.218, 3.426, -3.394, 0
660596, -3.848, -4.531, -1.942, -2.409, 3.155, -3.453, 0
660616, -4.561, -5.128, -0.945, -2.666, 2.849, -3.271, 0
660636, -5.0, -6.646, -0.293, -2.819, 2.713, -3.301, 0
660656, -5.072, -7.402, 0.447, -2.972, 2.618, -3.221, 0
660676, -5.882, -6.749, 1.945, -2.69, 2.497, -3.352, 0
660696, -7.019, -6.091, 3.065, -2.329, 2.115, -3.056, 0
660716, -8.822, -5.092, 3.951, -2.008, 1.915, -2.526, 0
660736, -9.834, -4.257, 4.139, -1.718, 1.998, -1.872, 0
660756, -9.107, -3.031, 4.498, -1.285, 1.918, -1.381, 0
660776, -7.485, -2.847, 4.405, -0.879, 1.359, -1.105, 0
660796, -5.902, -3.032, 3.95, -0.648, 0.525, -0.535, 0
660816, -5.191, -3.329, 3.628, -0.541, -0.163, 0.07, 0
660836, -4.045, -3.751, 3.027, -0.403, -0.481, 0.362, 0
660856, -2.554, -4.551, 1.689, -0.387, -0.553, 0.541, 0
660876, -0.677, -4.873, 0.587, -0.283, -0.435, 0.64, 0
660896, 1.037, -5.447, -0.235, -0.177, -0.149, 0.541, 0
660916, 1.8, -5.313, -0.424, -0.095, 0.053, 0.331, 0
660936, 1.331, -4.826, -0.401, -0.082, 0.103, 0.151, 0
660956, 0.593, -4.304, -0.365, -0.138, 0.009, 0.007, 0
660976, -0.196, -3.861, -0.55, -0.185, -0.132, 0.023, 0
660996, -0.676, -3.501, -0.697, -0.079, -0.136, 0.182, 0
661016, -0.685, -3.897, -1.091, 0.019, -0.033, 0.366, 0
661036, -0.228, -4.404, -1.057, -0.053, 0.039, 0.379, 0
661056, -0.167, -4.605, -0.761, -0.254, -0.053, 0.432, 1
661076, -1.016, -4.241, -0.539, -0.346, -0.062, 0.522, 1
661096, -0.653, -4.134, -0.413, -0.295, -0.015, 0.583, 1
661116, -0.678, -4.314, -0.292, -0.174, 0.065, 0.627, 1
661136, -0.041, -4.532, 0.112, -0.027, 0.021, 0.629, 1
661156, 0.201, -4.849, 0.546, 0.089, -0.233, 0.441, 1
661176, -1.193, -5.039, 0.614, 0.102, -0.464, 0.352, 1
661196, -1.441, -4.958, 0.583, 0.134, -0.339, 0.407, 1
661216, -1.405, -4.903, 0.746, 0.241, -0.194, 0.522, 1
661236, -1.261, -5.085, 0.921, 0.368, -0.194, 0.651, 1
661256, -1.406, -5.088, 1.113, 0.467, -0.303, 0.734, 1
661276, -1.472, -5.298, 1.045, 0.565, -0.511, 0.808, 1
661296, -1.943, -5.577, 0.847, 0.65, -0.659, 0.857, 1
661316, -1.934, -5.591, 0.743, 0.674, -0.723, 0.858, 1
661336, -2.011, -5.245, 0.656, 0.693, -0.908, 0.904, 1
661356, -2.461, -4.866, 0.707, 0.804, -1.067, 0.993, 1
661376, -2.552, -4.851, 0.701, 0.949, -1.187, 1.123, 1
661396, -2.518, -4.99, 0.594, 1.066, -1.32, 1.273, 1
661416, -2.059, -4.888, 0.225, 1.08, -1.453, 1.38, 1
661436, -1.833, -4.303, -0.217, 1.111, -1.564, 1.402, 1
661456, -1.895, -3.367, -0.266, 1.096, -1.632, 1.378, 1
661476, -2.562, -2.316, 0.078, 1.08, -1.659, 1.381, 1
661496, -2.787, -1.694, 0.311, 1.084, -1.717, 1.415, 1
661516, -1.426, -2.256, -0.475, 1.199, -1.905, 1.764, 1
661536, -0.739, -3.296, -1.05, 1.268, -1.948, 1.885, 1
661556, -0.539, -3.366, -0.92, 0.998, -1.695, 1.322, 1
661576, -0.829, -1.794, -0.306, 0.582, -1.588, 0.827, 1
661596, -1.735, -0.096, 0.016, 0.729, -1.434, 0.921, 1
661616, -1.235, 0.342, -0.554, 1.449, -1.04, 1.483, 1
661636, 0.943, -1.086, -1.486, 1.961, -0.897, 1.853, 1
661656, 2.225, -2.441, -2.178, 1.273, -1.865, 1.235, 1
661676, 1.567, -1.873, -2.325, 0.518, -2.32, 0.635, 1
661696, 0.545, -0.095, -2.393, 0.531, -2.108, 0.791, 1
661716, -0.082, 0.632, -2.397, 0.999, -1.387, 1.119, 1
661736, 0.976, 0.192, -2.1, 1.258, -1.062, 1.07, 1
661756, 1.693, -0.05, -1.708, 1.078, -1.464, 0.753, 1
661776, 1.335, 0.225, -1.548, 0.875, -1.98, 0.737, 1
661796, 0.704, 0.671, -1.685, 0.996, -2.095, 1.037, 1
661816, 0.461, 0.543, -1.739, 1.254, -1.845, 1.134, 1
661836, 0.542, 0.306, -1.567, 1.481, -1.631, 1.077, 1
661856, 1.304, -0.285, -1.623, 1.525, -1.78, 1.196, 1
661876, 1.797, -0.895, -1.87, 1.518, -2.016, 1.362, 1
661896, 1.434, -2.231, -2.545, 0.956, -1.882, 1.248, 1
661916, 0.703, -2.561, -3.222, 0.047, -1.128, 0.847, 1
661936, 0.536, -1.118, -2.889, -0.464, -0.27, 0.594, 1
661956, 0.896, 0.146, -2.107, -0.37, 0.117, 0.687, 1
661976, 1.161, -0.183, -1.617, -0.214, 0.211, 0.632, 1
661996, 1.378, -0.526, -1.292, -0.169, 0.202, 0.504, 1
662016, 1.065, -0.682, -1.004, -0.221, 0.23, 0.444, 1
662036, 0.911, -0.656, -0.655, -0.273, 0.321, 0.342, 1
662056, 0.947, -0.694, -0.281, -0.277, 0.322, 0.2, 1
662076, 0.836, -0.649, -0.021, -0.3, 0.22, 0.061, 1
662096, 0.477, -0.463, 0.13, -0.307, 0.169, -0.036, 1
662116, 0.195, -0.381, 0.247, -0.284, 0.184, -0.039, 1
662136, 0.137, -0.396, 0.237, -0.298, 0.188, -0.029, 1
662156, 0.2, -0.237, 0.224, -0.309, 0.08, -0.121, 1
662176, 0.007, 0.107, 0.257, -0.273, -0.021, -0.152, 1
662196, -0.294, 0.039, 0.11, -0.186, -0.043, -0.139, 1
662216, -0.477, 0.021, -0.055, -0.16, 0.128, -0.089, 1
662236, -0.242, -0.295, -0.219, -0.202, 0.302, -0.004, 1
662256, 0.364, -0.983, -0.684, -0.416, 0.296, -0.017, 0
662276, 1.22, -0.65, -0.524, -0.803, 0.009, -0.062, 0
662296, 0.599, -0.205, -0.656, -0.915, -0.39, -0.262, 0
662316, -0.353, 0.114, -1.15, -0.664, -0.158, -0.164, 0
662336, 0.546, -0.686, -1.974, -0.309, 0.487, 0.062, 0
662356, 1.818, -1.632, -3.155, -0.287, 0.805, -0.039, 0
662376, 2.283, -1.763, -3.858, -0.539, 0.759, -0.381, 0
662396, 2.255, -1.742, -4.549, -0.692, 0.906, -0.593, 0
662416, 2.671, -2.285, -5.452, -0.587, 1.376, -0.662, 0
662436, 3.104, -3.33, -6.213, -0.532, 1.831, -0.819, 0
662456, 3.011, -4.426, -6.746, -0.803, 2.241, -1.229, 0
662476, 1.697, -4.198, -6.609, -1.246, 2.528, -1.752, 0
662496, 0.212, -3.72, -6.215, -1.588, 2.929, -2.074, 0
662516, -0.498, -3.932, -6.018, -1.583, 3.422, -2.177, 0
662536, -1.44, -3.824, -5.056, -1.526, 4.001, -2.455, 0
662556, -1.687, -3.236, -3.73, -1.624, 4.424, -2.806, 0
662576, -1.966, -2.939, -2.512, -1.775, 4.452, -3.166, 0
662596, -2.592, -3.592, -1.984, -1.959, 4.021, -3.265, 0
662616, -3.133, -4.923, -1.747, -2.136, 3.603, -3.185, 0
662636, -3.473, -6.529, -1.321, -2.236, 3.312, -3.301, 0
662656, -4.218, -7.238, -0.148, -2.219, 3.221, -3.615, 0
662676, -5.561, -6.955, 0.985, -1.883, 3.098, -3.51, 0
662696, -6.975, -6.911, 1.848, -1.594, 2.947, -3.254, 0
662716, -7.862, -6.128, 2.762, -1.401, 2.457, -2.88, 0
662736, -8.733, -4.906, 3.447, -1.259, 1.716, -2.502, 0
662756, -9.53, -3.623, 3.659, -1.087, 1.086, -2.029, 0
662776, -9.378, -2.382, 3.921, -0.778, 0.616, -1.159, 0
662796, -7.296, -2.791, 3.735, -0.471, 0.051, -0.274, 0
662816, -4.987, -3.841, 3.038, -0.364, -0.458, 0.116, 0
662836, -3.473, -4.522, 2.072, -0.397, -0.723, 0.221, 0
662856, -2.609, -4.558, 1.139, -0.382, -0.603, 0.382, 0
662876, -1.07, -4.727, 0.354, -0.288, -0.348, 0.626, 0
662896, 0.757, -5.333, -0.31, -0.298, -0.087, 0.647, 0
662916, 1.337, -5.082, -0.503, -0.191, 0.258, 0.499, 0
662936, 1.444, -4.745, -0.35, -0.077, 0.408, 0.312, 0
662956, 1.16, -4.627, -0.322, -0.106, 0.186, 0.143, 0
662976, 0.265, -4.306, -0.454, -0.221, -0.11, 0.073, 0
662996, -0.82, -4.073, -0.748, -0.315, -0.178, 0.199, 0
663016, -1.2, -4.073, -1.281, -0.408, 0.062, 0.425, 0
663036, -0.531, -3.978, -0.976, -0.335, 0.178, 0.548, 1
663056, 0.238, -4.629, -0.568, -0.276, 0.018, 0.471, 1
663076, 0.194, -4.888, -0.061, -0.239, -0.213, 0.279, 1
663096, -0.218, -4.6, 0.181, -0.128, -0.298, 0.306, 1
663116, -0.95, -4.643, 0.018, -0.001, -0.107, 0.482, 1
663136, -0.405, -4.953, 0.052, -0.021, -0.111, 0.568, 1
663156, -0.525, -4.916, 0.086, -0.072, -0.211, 0.557, 1
663176, -0.658, -4.811, 0.252, -0.018, -0.264, 0.552, 1
663196, -0.947, -4.986, 0.257, 0.077, -0.276, 0.547, 1
663216, -1.178, -5.054, 0.326, 0.116, -0.249, 0.556, 1
663236, -1.192, -5.113, 0.415, 0.124, -0.236, 0.604, 1
663256, -0.944, -5.118, 0.514, 0.167, -0.331, 0.696, 1
663276, -0.486, -5.386, 0.564, 0.294, -0.561, 0.803, 1
663296, -0.792, -5.498, 0.713, 0.425, -0.875, 0.722, 1
663316, -1.754, -5.332, 0.704, 0.518, -1.126, 0.613, 1
663336, -2.991, -5.03, 0.7, 0.631, -1.083, 0.753, 1
663356, -1.914, -5.281, 0.631, 0.808, -0.874, 1.088, 1
663376, -0.798, -5.67, 0.739, 1.042, -1.135, 1.51, 1
663396, -0.676, -5.809, 0.867, 1.207, -1.61, 1.387, 1
663416, -1.968, -5.196, 0.862, 1.2, -2.045, 1.076, 1
663436, -3.67, -3.881, 0.787, 1.139, -2.02, 0.947, 1
663456, -3.79, -3.247, 0.533, 1.253, -1.549, 1.295, 1
663476, -2.454, -3.238, 0.421, 1.396, -1.28, 1.795, 1
663496, -1.42, -3.044, 0.409, 1.414, -1.486, 1.837, 1
663516, -1.643, -2.579, 0.144, 1.4, -1.717, 1.808, 1
663536, -2.162, -2.198, -0.361, 1.34, -1.591, 1.82, 1
663556, -1.279, -1.997, -0.659, 1.227, -1.119, 1.81, 1
663576, -0.08, -1.311, -0.594, 0.981, -1.152, 1.631, 1
663596, -0.673, 0.031, -0.772, 1.02, -1.615, 1.436, 1
663616, -1.684, 0.658, -1.348, 1.329, -1.5, 1.769, 1
663636, -1.437, 0.031, -2.076, 1.51, -0.888, 2.085, 1
663656, 0.69, -1.106, -2.374, 1.216, -0.783, 1.85, 1
663676, 2.53, -1.386, -2.275, 0.565, -1.53, 1.234, 1
663696, 1.25, -0.073, -2.093, 0.35, -1.962, 1.031, 1
663716, -0.511, 0.925, -2.305, 0.739, -1.406, 1.341, 1
663736, 0.493, 0.139, -2.407, 0.964, -0.825, 1.407, 1
663756, 2.336, -0.68, -2.14, 0.68, -1.175, 1.051, 1
663776, 1.809, -0.179, -1.644, 0.296, -1.756, 0.654, 1
663796, 0.227, 0.971, -1.236, 0.201, -1.948, 0.687, 1
663816, -0.517, 1.586, -0.93, 0.424, -1.848, 1.109, 1
663836, 0.313, 1.083, -0.686, 0.744, -1.918, 1.436, 1
663856, 1.383, 0.215, -0.505, 0.914, -2.372, 1.483, 1
663876, 1.76, -0.293, -0.328, 0.849, -3.112, 1.399, 1
663896, 1.069, -0.666, -0.464, 0.712, -3.458, 1.196, 1
663916, -0.15, -1.028, -1.462, 0.524, -2.895, 1.058, 1
663936, -0.37, -0.959, -2.177, 0.463, -1.797, 1.089, 1
663956, 0.569, -1.398, -2.803, 0.323, -0.855, 0.923, 1
663976, 1.645, -1.449, -2.603, 0.092, -0.583, 0.714, 1
663996, 1.549, -1.126, -2.304, -0.141, -0.537, 0.623, 1
664016, 1.097, -0.656, -1.986, -0.175, -0.22, 0.584, 1
664036, 1.156, -0.53, -1.548, -0.087, 0.158, 0.533, 1
664056, 1.555, -0.787, -1.184, -0.135, 0.288, 0.404, 1
664076, 1.502, -0.606, -0.746, -0.217, 0.288, 0.197, 1
664096, 1.123, -0.302, -0.45, -0.165, 0.276, 0.165, 1
664116, 0.81, -0.338, -0.232, -0.162, 0.232, 0.135, 1
664136, 0.383, -0.179, -0.154, -0.221, 0.178, 0.103, 1
664156, -0.007, 0.012, -0.001, -0.259, 0.196, 0.11, 1
664176, -0.095, 0.08, 0.197, -0.204, 0.285, 0.128, 1
664196, 0.02, -0.091, 0.239, -0.148, 0.337, 0.129, 1
664216, 0.164, -0.295, 0.262, -0.116, 0.23, 0.026, 1
664236, -0.069, -0.447, 0.072, -0.153, 0.075, -0.095, 1
664256, -0.354, -0.176, -0.116, -0.276, 0.1, -0.185, 1
664276, -0.221, 0.192, -0.024, -0.28, 0.224, -0.122, 1
664296, 0.165, -0.077, -0.168, -0.15, 0.196, -0.048, 1
664316, -0.03, -0.673, -0.859, -0.226, 0.001, 0.007, 0
664336, 0.486, -0.396, -0.956, -0.361, -0.009, -0.039, 0
664356, 0.402, -0.74, -1.419, -0.296, 0.02, -0.031, 0
664376, 0.472, -1.358, -2.242, -0.345, 0.321, -0.086, 0
664396, 0.74, -1.034, -2.489, -0.504, 0.612, -0.12, 0
664416, 0.792, -1.104, -2.877, -0.546, 0.778, -0.145, 0
664436, 1.309, -1.408, -3.149, -0.543, 1.023, -0.204, 0
664456, 1.759, -2.176, -3.76, -0.528, 1.219, -0.35, 0
664476, 2.27, -2.67, -4.267, -0.621, 1.483, -0.615, 0
664496, 2.341, -2.923, -4.393, -0.715, 1.655, -0.921, 0
664516, 2.128, -3.167, -4.886, -0.877, 1.802, -1.227, 0
664536, 1.729, -3.832, -5.8, -1.002, 2.057, -1.507, 0
664556, 0.789, -3.913, -5.925, -1.109, 2.489, -1.776, 0
664576, -0.454, -3.661, -5.265, -1.149, 3.506, -2.116, 0
664596, -0.123, -4.1, -4.818, -1.254, 3.886, -2.382, 0
664616, 0.395, -4.98, -4.617, -1.638, 3.703, -2.889, 0
664636, -0.733, -4.409, -3.897, -2.142, 3.293, -3.453, 0
664656, -3.258, -3.436, -3.04, -2.327, 3.224, -3.5, 0
664676, -4.703, -4.04, -2.594, -2.448, 3.549, -3.348, 0
664696, -4.741, -4.73, -1.646, -2.647, 3.728, -3.378, 0
664716, -4.664, -5.013, -0.119, -2.725, 3.262, -3.591, 0
664736, -5.345, -5.389, 1.058, -2.638, 2.532, -3.522, 0
664756, -6.099, -5.838, 1.746, -2.395, 2.029, -3.179, 0
664776, -6.793, -6.291, 2.055, -2.261, 1.911, -2.867, 0
664796, -6.367, -5.7, 2.672, -2.063, 1.932, -2.701, 0
664816, -5.677, -4.768, 3.146, -1.614, 1.751, -2.48, 0
664836, -4.895, -3.852, 3.348, -1.036, 1.397, -2.108, 0
664856, -4.234, -4.049, 2.949, -0.734, 0.99, -1.472, 0
664876, -3.648, -4.134, 2.335, -0.782, 0.744, -1.067, 0
664896, -2.979, -3.986, 2.127, -0.751, 0.47, -0.833, 0
664916, -2.878, -3.847, 1.871, -0.622, 0.377, -0.684, 0
664936, -2.761, -3.241, 1.731, -0.35, 0.367, -0.436, 0
664956, -2.581, -3.253, 1.612, -0.141, 0.275, -0.135, 0
664976, -1.768, -3.849, 1.176, -0.152, 0.034, 0.021, 0
664996, -1.088, -4.1, 0.362, -0.307, -0.164, 0.029, 0
665016, -0.712, -3.549, -0.07, -0.21, -0.163, 0.198, 0
665036, -0.179, -3.653, -0.534, -0.037, 0.034, 0.368, 0
665056, 0.36, -4.171, -0.815, -0.037, 0.182, 0.296, 0
665076, 0.744, -4.043, -0.981, -0.156, 0.116, 0.233, 0
665096, 0.392, -3.372, -1.065, -0.194, -0.011, 0.134, 0
665116, -0.03, -3.161, -1.147, -0.229, -0.122, 0.194, 0
665136, -0.014, -3.154, -1.203, -0.224, -0.156, 0.375, 1
665156, -0.033, -3.853, -1.459, -0.196, -0.097, 0.47, 1
665176, 0.195, -3.703, -1.291, -0.31, 0.054, 0.437, 1
665196, 0.218, -3.752, -0.935, -0.327, 0.152, 0.426, 1
665216, 0.233, -3.83, -0.398, -0.311, 0.114, 0.348, 1
665236, -0.063, -3.907, -0.028, -0.311, -0.014, 0.262, 1
665256, -0.206, -4.088, -0.004, -0.241, -0.094, 0.193, 1
665276, -0.4, -4.044, 0.087, -0.185, -0.105, 0.244, 1
665296, -0.571, -3.971, 0.245, -0.111, -0.091, 0.313, 1
665316, -0.819, -3.994, 0.384, 0.009, -0.081, 0.372, 1
665336, -1.121, -3.975, 0.672, 0.119, -0.146, 0.398, 1
665356, -1.269, -3.98, 0.905, 0.23, -0.35, 0.496, 1
665376, -1.975, -4.21, 1.106, 0.375, -0.572, 0.618, 1
665396, -2.842, -4.303, 1.494, 0.47, -0.68, 0.682, 1
665416, -3.592, -4.246, 1.963, 0.576, -0.735, 0.806, 1
665436, -3.918, -4.163, 2.38, 0.785, -0.875, 1.096, 1
665456, -3.389, -4.24, 2.313, 1.111, -1.257, 1.424, 1
665476, -3.251, -4.498, 1.943, 1.505, -1.904, 1.678, 1
665496, -3.847, -5.056, 1.446, 1.767, -2.399, 1.809, 1
665516, -4.667, -5.368, 1.012, 1.822, -2.436, 1.882, 1
665536, -4.847, -5.331, 0.763, 1.647, -2.029, 1.956, 1
665556, -3.312, -4.526, 0.72, 1.544, -1.785, 2.285, 1
665576, -1.824, -3.655, 0.527, 1.937, -2.176, 2.601, 1
665596, -0.781, -3.763, -0.282, 2.321, -2.496, 2.722, 1
665616, -1.066, -4.764, -1.586, 1.995, -2.186, 2.19, 1
665636, -1.032, -4.419, -2.079, 1.198, -1.722, 1.604, 1
665656, -1.054, -2.107, -1.931, 1.019, -1.441, 1.831, 1
665676, -0.716, -0.92, -1.861, 1.497, -1.167, 2.186, 1
665696, 1.431, -2.314, -2.465, 1.667, -1.318, 1.977, 1
665716, 2.191, -3.178, -2.656, 1.114, -1.893, 1.337, 1
665736, 1.001, -1.954, -2.289, 0.559, -2.244, 0.945, 1
665756, -0.71, 0.282, -1.988, 0.915, -1.89, 1.313, 1
665776, -0.882, 0.605, -2.02, 1.752, -1.078, 1.787, 1
665796, 0.289, -0.425, -2.184, 2.206, -0.7, 1.923, 1
665816, 0.949, -1.541, -2.283, 1.938, -0.718, 1.59, 1
665836, 1.077, -2.017, -2.344, 1.09, -0.891, 1.158, 1
665856, 0.61, -1.377, -2.414, 0.315, -0.976, 0.96, 1
665876, 0.102, 0.151, -1.639, 0.076, -0.906, 0.951, 1
665896, 0.305, 0.432, -1.259, 0.274, -0.882, 1.118, 1
665916, 0.308, 0.044, -1.089, 0.453, -0.758, 1.152, 1
665936, 0.628, -0.315, -1.115, 0.46, -0.64, 1.092, 1
665956, 0.986, -0.729, -1.178, 0.232, -0.671, 0.897, 1
665976, 0.953, -0.496, -1.034, -0.047, -0.822, 0.74, 1
665996, 1.032, -0.166, -0.854, -0.025, -0.974, 0.816, 1
666016, 0.802, -0.165, -0.884, 0.278, -0.819, 0.783, 1
666036, 0.791, -0.403, -1.117, 0.442, -0.585, 0.618, 1
666056, 1.066, -0.713, -1.383, 0.266, -0.507, 0.479, 1
666076, 0.904, -0.528, -1.419, 0.07, -0.537, 0.439, 1
666096, 0.76, -0.236, -1.235, 0.02, -0.431, 0.396, 1
666116, 0.561, -0.298, -1.088, 0.086, -0.262, 0.392, 1
666136, 0.585, -0.069, -0.604, 0.172, -0.133, 0.359, 1
666156, 0.423, -0.088, -0.499, 0.306, -0.12, 0.313, 1
666176, 0.268, -0.273, -0.639, 0.345, -0.049, 0.275, 1
666196, 0.494, -0.556, -0.748, 0.199, 0.014, 0.265, 1
666216, 0.627, -0.645, -0.766, -0.04, -0.045, 0.198, 1
666236, 0.359, -0.223, -0.512, -0.233, -0.167, 0.089, 1
666256, 0.079, 0.004, -0.235, -0.192, -0.193, 0.023, 1
666276, -0.014, 0.048, -0.159, -0.062, -0.116, -0.005, 1
666296, -0.019, -0.144, -0.315, 0.005, -0.033, -0.04, 1
666316, 0.105, -0.115, -0.393, -0.068, 0.012, -0.067, 1
666336, 0.165, -0.077, -0.337, -0.136, -0.097, -0.011, 1
666356, 0.192, -0.111, -0.359, -0.199, -0.249, -0.024, 1
666376, -0.114, -0.092, -0.397, -0.282, -0.282, -0.102, 1
666396, -0.294, -0.064, -0.557, -0.372, -0.073, -0.143, 0
666416, 0.084, -0.259, -0.819, -0.412, 0.199, -0.111, 0
666436, 0.493, -0.62, -1.246, -0.453, 0.356, -0.146, 0
666456, 0.837, -0.519, -1.379, -0.503, 0.304, -0.164, 0
666476, 0.804, -0.809, -1.671, -0.485, 0.246, -0.197, 0
666496, 1.013, -1.386, -2.4, -0.426, 0.428, -0.224, 0
666516, 1.305, -1.986, -3.241, -0.447, 0.804, -0.414, 0
666536, 1.611, -1.875, -3.75, -0.79, 1.199, -0.75, 0
666556, 1.682, -1.778, -4.021, -0.924, 1.254, -0.78, 0
666576, 1.885, -2.407, -4.556, -1.047, 1.488, -0.832, 0
666596, 2.084, -2.751, -4.611, -1.075, 1.789, -1.043, 0
666616, 2.156, -3.616, -4.78, -1.195, 1.984, -1.375, 0
666636, 1.602, -3.947, -5.045, -1.389, 2.255, -1.798, 0
666656, 0.728, -3.416, -4.818, -1.426, 2.605, -2.009, 0
666676, 0.127, -3.093, -4.321, -1.495, 2.993, -2.188, 0
666696, -0.242, -3.174, -3.938, -1.752, 3.287, -2.529, 0
666716, -0.272, -3.417, -3.735, -1.975, 3.359, -2.812, 0
666736, -0.883, -3.887, -3.208, -2.188, 3.358, -3.153, 0
666756, -1.667, -4.195, -2.259, -2.322, 3.202, -3.398, 0
666776, -2.694, -4.705, -1.593, -2.384, 3.06, -3.412, 0
666796, -3.894, -5.627, -0.977, -2.469, 2.989, -3.39, 0
666816, -4.7, -6.759, -0.67, -2.662, 2.935, -3.34, 0
666836, -4.779, -7.209, 0.054, -2.618, 2.728, -3.2, 0
666856, -5.208, -7.229, 0.743, -2.414, 2.582, -3.092, 0
666876, -4.956, -7.036, 1.223, -2.065, 2.406, -2.926, 0
666896, -4.766, -6.798, 1.691, -1.62, 2.163, -2.729, 0
666916, -5.115, -6.419, 2.044, -1.315, 1.907, -2.481, 0
666936, -5.919, -5.177, 2.42, -1.104, 1.657, -2.208, 0
666956, -6.214, -3.932, 2.626, -0.869, 1.255, -1.698, 0
666976, -6.564, -3.204, 2.616, -0.659, 0.878, -1.131, 0
666996, -5.684, -2.707, 2.493, -0.441, 0.441, -0.527, 0
667016, -4.735, -3.089, 1.93, -0.237, 0.075, -0.023, 0
667036, -1.983, -3.637, 0.622, -0.263, -0.097, 0.108, 0
667056, -0.82, -3.488, 0.159, -0.299, -0.211, 0.154, 0
667076, -0.159, -3.451, -0.193, -0.304, -0.246, 0.177, 0
667096, 0.132, -3.413, -0.362, -0.267, -0.174, 0.217, 0
667116, 0.463, -3.884, -0.73, -0.185, -0.052, 0.218, 0
667136, 0.698, -3.541, -0.761, -0.172, 0.084, 0.175, 0
667156, 0.532, -3.57, -0.778, -0.117, 0.113, 0.13, 0
667176, 0.34, -3.452, -0.738, -0.139, 0.058, 0.108, 0
667196, -0.039, -3.226, -0.65, -0.127, -0.019, 0.129, 0
667216, -0.395, -3.509, -0.738, -0.053, -0.02, 0.241, 0
667236, -0.317, -3.615, -0.655, -0.065, 0.02, 0.348, 0
667256, -0.449, -3.712, -0.604, -0.138, 0.03, 0.489, 1
667276, -0.238, -3.445, -0.373, -0.153, 0.011, 0.686, 1
667296, -0.792, -3.68, -0.065, -0.072, -0.072, 0.693, 1
667316, -0.848, -4.217, -0.087, -0.048, -0.042, 0.69, 1
667336, -0.344, -4.231, 0.084, -0.089, 0.03, 0.78, 1
667356, -0.103, -4.508, 0.492, -0.058, -0.034, 0.751, 1
667376, -0.47, -4.597, 0.353, 0.064, -0.233, 0.539, 1
667396, -0.948, -4.38, 0.405, 0.096, -0.379, 0.441, 1
667416, -1.295, -4.512, 0.318, 0.166, -0.476, 0.588, 1
667436, -1.479, -4.603, 0.366, 0.256, -0.464, 0.706, 1
667456, -1.643, -4.592, 0.535, 0.342, -0.466, 0.786, 1
667476, -2.271, -4.426, 0.832, 0.497, -0.531, 0.916, 1
667496, -2.263, -4.626, 1.019, 0.704, -0.664, 1.233, 1
667516, -2.297, -5.175, 1.081, 0.971, -1.031, 1.408, 1
667536, -2.156, -5.96, 0.615, 1.01, -1.273, 1.431, 1
667556, -2.343, -5.789, 0.546, 1.006, -1.473, 1.299, 1
667576, -2.912, -5.121, 0.706, 0.992, -1.675, 1.258, 1
667596, -3.685, -4.236, 0.96, 1.151, -1.86, 1.53, 1
667616, -3.81, -3.799, 0.968, 1.549, -2.032, 2.156, 1
667636, -2.472, -3.819, 0.764, 2.077, -2.271, 2.771, 1
667656, -2.335, -4.78, 0.218, 2.106, -2.218, 2.513, 1
667676, -1.744, -4.309, -0.146, 1.731, -2.095, 2.062, 1
667696, -2.16, -2.742, -0.044, 1.419, -1.965, 1.974, 1
667716, -2.138, -1.196, -0.173, 1.567, -1.803, 2.378, 1
667736, -0.992, -0.595, -0.159, 2.019, -1.835, 2.751, 1
667756, 0.346, -1.406, -0.095, 2.158, -2.238, 2.656, 1
667776, 0.466, -3.05, -0.837, 1.66, -2.301, 1.98, 1
667796, -0.973, -2.566, -1.969, 1.144, -1.254, 1.516, 1
667816, -1.232, -0.625, -1.914, 1.266, -0.08, 1.733, 1
667836, 1.168, -0.719, -1.33, 1.271, -0.229, 1.704, 1
667856, 2.602, -0.857, -1.066, 0.871, -1.533, 1.357, 1
667876, 1.149, -0.171, -1.264, 0.856, -2.287, 1.381, 1
667896, -0.447, -1.073, -2.379, 0.863, -1.753, 1.205, 1
667916, 0.136, -0.951, -2.707, 0.724, -1.192, 1.045, 1
667936, 1.084, -0.728, -2.516, 0.45, -1.328, 0.878, 1
667956, 0.812, -0.283, -2.354, 0.293, -1.596, 0.856, 1
667976, 0.272, 0.175, -2.215, 0.364, -1.532, 0.982, 1
667996, 0.345, -0.01, -2.007, 0.453, -1.224, 1.015, 1
668016, 0.331, -0.712, -1.594, 0.166, -1.108, 0.785, 1
668036, 0.168, -0.383, -1.491, -0.026, -1.105, 0.796, 1
668056, 0.632, -0.754, -1.79, 0.086, -0.888, 0.875, 1
668076, 1.198, -1.453, -2.106, 0.23, -0.554, 0.841, 1
668096, 1.63, -1.432, -1.938, 0.12, -0.343, 0.617, 1
668116, 1.493, -0.835, -1.488, -0.096, -0.363, 0.45, 1
668136, 1.348, -0.169, -1.081, -0.156, -0.364, 0.434, 1
668156, 1.33, 0.016, -0.909, -0.052, -0.244, 0.422, 1
668176, 1.496, -0.202, -0.847, -0.003, -0.142, 0.389, 1
668196, 1.395, -0.393, -0.748, -0.075, -0.112, 0.305, 1
668216, 1.186, -0.242, -0.553, -0.173, -0.058, 0.193, 1
668236, 0.905, -0.038, -0.26, -0.213, -0.017, 0.138, 1
668256, 0.669, 0.052, -0.036, -0.172, 0.014, 0.108, 1
668276, 0.433, 0.032, 0.022, -0.092, 0.019, 0.031, 1
668296, 0.311, -0.506, -0.342, -0.142, 0.074, -0.039, 1
668316, 0.291, -0.405, -0.477, -0.367, 0.039, -0.093, 1
668336, 0.102, -0.049, -0.318, -0.437, 0.017, -0.157, 1
668356, -0.059, 0.251, -0.154, -0.313, 0.161, -0.25, 1
668376, 0.264, -0.012, -0.275, -0.039, 0.397, -0.26, 1
668396, 0.755, -0.439, -0.543, 0.012, 0.456, -0.237, 0
668416, 0.989, -0.846, -0.85, -0.17, 0.227, -0.213, 0
668436, 0.449, -0.624, -0.923, -0.4, -0.006, -0.29, 0
668456, 0.144, -0.547, -1.363, -0.564, 0.067, -0.411, 0
668476, 0.434, 0.021, -1.602, -0.45, 0.482, -0.362, 0
668496, 0.874, -0.417, -1.797, -0.459, 0.777, -0.342, 0
668516, 0.793, -0.429, -1.708, -0.58, 0.778, -0.35, 0
668536, 0.995, -0.474, -1.727, -0.596, 0.703, -0.397, 0
668556, 1.36, -1.052, -2.401, -0.608, 0.696, -0.522, 0
668576, 1.595, -1.469, -2.963, -0.613, 0.853, -0.766, 0
668596, 1.641, -1.636, -3.294, -0.691, 1.155, -1.003, 0
668616, 1.612, -1.469, -3.463, -0.748, 1.455, -1.201, 0
668636, 1.896, -1.952, -4.288, -0.934, 1.685, -1.428, 0
668656, 1.882, -2.243, -4.83, -1.077, 1.957, -1.653, 0
668676, 1.625, -2.466, -5.088, -1.163, 2.43, -1.888, 0
668696, 1.454, -2.733, -5.284, -1.133, 2.935, -2.12, 0
668716, 2.04, -3.242, -5.277, -1.183, 3.178, -2.412, 0
668736, 2.255, -4.525, -5.01, -1.364, 2.996, -2.933, 0
668756, 0.741, -5.217, -4.549, -1.841, 2.888, -3.566, 0
668776, -0.899, -4.861, -3.533, -2.049, 2.815, -3.659, 0
668796, -2.94, -4.376, -2.185, -2.017, 2.887, -3.578, 0
668816, -3.692, -5.501, -1.403, -2.097, 2.718, -3.407, 0
668836, -4.43, -6.649, -0.945, -2.216, 2.467, -3.274, 0
668856, -5.353, -7.083, -0.251, -2.261, 2.258, -3.258, 0
668876, -5.424, -6.974, 0.466, -2.223, 1.971, -3.055, 0
668896, -5.951, -6.549, 1.194, -2.048, 1.737, -2.767, 0
668916, -6.328, -6.16, 1.68, -1.862, 1.632, -2.49, 0
668936, -5.737, -5.601, 2.124, -1.664, 1.363, -2.127, 0
668956, -5.083, -5.255, 2.252, -1.48, 1.122, -1.846, 0
668976, -4.51, -4.932, 2.496, -1.24, 1.128, -1.739, 0
668996, -4.268, -2.562, 2.751, -0.761, 1.141, -1.453, 0
669016, -3.737, -2.929, 2.55, -0.301, 1.017, -0.844, 0
669036, -2.919, -3.64, 2.066, -0.202, 0.67, -0.273, 0
669056, -2.16, -3.97, 1.468, -0.354, 0.223, -0.191, 0
669076, -2.16, -3.374, 1.029, -0.536, -0.158, -0.412, 0
669096, -2.221, -2.717, 0.801, -0.572, -0.366, -0.321, 0
669116, -1.784, -2.471, 0.59, -0.412, -0.317, 0.01, 0
669136, -0.712, -3.089, 0.242, -0.129, -0.191, 0.372, 0
669156, 0.459, -4.021, -0.159, -0.008, -0.119, 0.466, 0
669176, 0.934, -4.002, -0.346, -0.078, -0.116, 0.272, 0
669196, 0.753, -3.629, -0.472, -0.155, -0.15, 0.054, 0
669216, 0.292, -3.049, -0.552, -0.195, -0.177, -0.052, 0
669236, -0.33, -2.587, -0.577, -0.121, -0.126, 0.025, 0
669256, -0.609, -2.467, -0.538, 0.032, -0.006, 0.208, 0
669276, -0.51, -3.043, -0.523, 0.173, 0.045, 0.361, 0
669296, -0.395, -3.382, -0.517, 0.095, 0.012, 0.353, 0
669316, -0.594, -3.426, -0.474, -0.051, -0.122, 0.345, 0
669336, -0.951, -3.49, -0.491, -0.236, -0.173, 0.43, 1
669356, -1.371, -3.12, -0.066, -0.359, -0.097, 0.626, 1
669376, -1.301, -3.114, 0.285, -0.277, -0.035, 0.819, 1
669396, -1.065, -3.45, 0.431, -0.025, -0.064, 1.0, 1
669416, -0.878, -3.901, 0.329, 0.184, -0.141, 1.011, 1
669436, -1.292, -4.163, 0.39, 0.229, -0.285, 0.877, 1
669456, -1.89, -4.056, 0.483, 0.179, -0.491, 0.869, 1
669476, -2.573, -3.837, 0.733, 0.287, -0.527, 1.024, 1
669496, -2.467, -4.01, 0.639, 0.446, -0.573, 1.375, 1
669516, -2.34, -4.541, 0.464, 0.59, -0.595, 1.623, 1
669536, -1.862, -5.133, 0.361, 0.654, -0.745, 1.662, 1
669556, -2.096, -5.362, 0.577, 0.671, -1.038, 1.554, 1
669576, -2.867, -5.185, 0.877, 0.748, -1.337, 1.674, 1
669596, -2.929, -4.987, 1.051, 1.071, -1.513, 2.306, 1
669616, -3.32, -5.393, 0.883, 1.474, -1.397, 2.637, 1
669636, -2.387, -5.88, 0.625, 1.672, -1.483, 2.497, 1
669656, -2.122, -6.059, 0.107, 1.478, -1.81, 2.168, 1
669676, -1.739, -4.937, -0.197, 1.269, -2.156, 2.212, 1
669696, -1.948, -3.351, -0.248, 1.363, -2.108, 2.65, 1
669716, -1.465, -2.886, -0.515, 1.521, -1.806, 2.774, 1
669736, -0.291, -3.167, -0.863, 1.389, -1.703, 2.362, 1
669756, 0.48, -2.44, -0.89, 1.05, -1.986, 1.924, 1
669776, -0.228, -1.327, -0.965, 0.935, -2.115, 1.937, 1
669796, -1.107, -0.8, -1.112, 1.051, -1.692, 2.084, 1
669816, -0.225, -2.311, -1.836, 0.781, -1.166, 1.812, 1
669836, 1.245, -2.244, -2.06, 0.394, -1.016, 1.326, 1
669856, 2.03, -0.905, -1.611, 0.306, -1.294, 1.121, 1
669876, 1.415, 0.428, -1.155, 0.605, -1.507, 1.258, 1
669896, 0.753, 0.204, -1.409, 0.853, -1.452, 1.354, 1
669916, 1.509, -0.81, -2.174, 0.68, -1.508, 1.131, 1
669936, 1.731, -0.648, -2.414, 0.323, -1.631, 0.824, 1
669956, -0.314, 0.303, -1.641, 0.294, -1.445, 0.999, 1
669976, 0.204, 0.528, -1.384, 0.661, -1.001, 1.331, 1
669996, 1.626, -1.227, -1.906, 0.839, -0.755, 1.361, 1
670016, 2.612, -1.423, -2.002, 0.524, -0.897, 0.921, 1
670036, 1.619, -0.232, -1.59, 0.233, -1.189, 0.556, 1
670056, 0.824, 0.44, -1.184, 0.33, -1.127, 0.552, 1
670076, 0.731, 0.435, -0.932, 0.549, -0.948, 0.59, 1
670096, 0.679, -0.061, -1.141, 0.507, -0.895, 0.517, 1
670116, 0.554, 0.006, -1.45, 0.184, -0.783, 0.372, 1
670136, 0.689, 0.386, -1.489, -0.061, -0.618, 0.391, 1
670156, 0.811, 0.543, -1.18, -0.048, -0.443, 0.487, 1
670176, 0.904, 0.057, -1.018, 0.073, -0.285, 0.536, 1
670196, 1.052, -0.293, -0.818, 0.06, -0.22, 0.546, 1
670216, 0.984, -0.396, -0.732, -0.036, -0.193, 0.498, 1
670236, 1.051, -0.283, -0.56, -0.109, -0.158, 0.383, 1
670256, 1.015, -0.41, -0.459, -0.097, -0.196, 0.268, 1
670276, 0.871, -0.274, -0.261, -0.08, -0.194, 0.162, 1
670296, 0.593, -0.263, -0.259, -0.054, -0.137, 0.059, 1
670316, 0.484, -0.01, -0.223, -0.103, -0.104, -0.012, 1
670336, 0.218, 0.181, -0.234, -0.112, -0.113, -0.018, 1
670356, 0.102, 0.206, -0.127, -0.061, -0.087, -0.023, 1
670376, 0.115, 0.205, -0.146, 0.003, -0.043, -0.053, 1
670396, -0.121, -0.235, -0.416, -0.061, 0.065, -0.097, 1
670416, 0.11, 0.353, -0.123, -0.194, 0.165, -0.142, 1
670436, 0.02, 0.262, -0.191, -0.13, 0.103, -0.093, 0
670456, 0.213, 0.231, -0.073, -0.102, 0.091, -0.094, 0
670476, 0.192, -0.095, -0.404, -0.113, 0.076, -0.115, 0
670496, 0.223, -0.424, -0.911, -0.3, 0.196, -0.185, 0
670516, 0.665, -0.136, -1.413, -0.331, 0.304, -0.183, 0
670536, 0.997, -0.662, -2.365, -0.424, 0.455, -0.171, 0
670556, 1.409, -0.829, -2.988, -0.477, 0.715, -0.167, 0
670576, 1.959, -1.208, -3.4, -0.518, 1.016, -0.288, 0
670596, 2.618, -1.774, -3.896, -0.667, 1.216, -0.581, 0
670616, 2.534, -1.699, -4.064, -0.794, 1.317, -0.915, 0
670636, 2.393, -2.119, -4.392, -1.006, 1.463, -1.136, 0
670656, 2.234, -2.754, -4.925, -1.27, 1.709, -1.361, 0
670676, 1.829, -2.924, -5.161, -1.45, 2.054, -1.585, 0
670696, 1.33, -2.447, -4.839, -1.335, 2.516, -1.7, 0
670716, 1.376, -3.093, -4.573, -1.312, 2.854, -1.915, 0
670736, 1.163, -3.095, -3.725, -1.529, 2.783, -2.365, 0
670756, -0.05, -2.859, -2.983, -1.793, 2.513, -2.601, 0
670776, -1.512, -2.966, -2.726, -1.901, 2.577, -2.598, 0
670796, -1.66, -2.991, -2.196, -1.744, 2.783, -2.504, 0
670816, -1.197, -4.567, -2.146, -1.847, 2.758, -2.746, 0
670836, -1.763, -5.037, -1.436, -2.1, 2.51, -3.048, 0
670856, -3.288, -5.462, -0.61, -2.227, 2.31, -3.196, 0
670876, -3.554, -5.557, -0.096, -2.061, 2.148, -2.96, 0
670896, -4.093, -6.214, 0.461, -1.841, 2.026, -2.864, 0
670916, -4.054, -6.697, 0.788, -1.715, 1.775, -2.66, 0
670936, -4.505, -6.151, 1.472, -1.697, 1.657, -2.632, 0
670956, -4.727, -5.081, 2.2, -1.569, 1.58, -2.532, 0
670976, -5.352, -4.275, 2.751, -1.237, 1.387, -2.222, 0
670996, -5.73, -4.087, 2.895, -0.885, 1.155, -1.783, 0
671016, -5.861, -3.768, 2.821, -0.711, 0.985, -1.397, 0
671036, -5.625, -3.108, 2.683, -0.692, 0.792, -1.005, 0
671056, -4.769, -2.756, 2.463, -0.548, 0.47, -0.588, 0
671076, -3.981, -2.695, 2.137, -0.306, 0.131, -0.184, 0
671096, -3.315, -3.161, 1.549, -0.073, -0.083, 0.127, 0
671116, -2.315, -3.626, 0.822, -0.082, -0.075, 0.314, 0
671136, -0.559, -3.898, 0.228, -0.119, -0.103, 0.436, 0
671156, 0.449, -4.174, -0.578, -0.219, -0.194, 0.511, 0
671176, 0.755, -3.873, -0.788, -0.264, -0.109, 0.483, 0
671196, 0.604, -3.742, -0.843, -0.259, 0.071, 0.453, 1
671216, 0.335, -3.635, -0.895, -0.268, 0.237, 0.378, 1
671236, -0.093, -3.434, -0.819, -0.291, 0.309, 0.309, 1
671256, -0.284, -3.42, -0.785, -0.326, 0.277, 0.332, 1
671276, 0.008, -3.441, -0.693, -0.335, 0.177, 0.376, 1
671296, 0.176, -3.606, -0.625, -0.307, 0.058, 0.378, 1
671316, -0.045, -3.78, -0.491, -0.27, 0.024, 0.31, 1
671336, -0.125, -3.792, -0.113, -0.199, 0.065, 0.222, 1
671356, 0.013, -3.999, -0.029, -0.149, 0.043, 0.248, 1
671376, -0.001, -3.986, -0.037, -0.094, 0.012, 0.232, 1
671396, 0.045, -4.041, -0.034, -0.076, -0.052, 0.243, 1
671416, -0.224, -4.161, -0.053, -0.047, -0.085, 0.222, 1
671436, -0.509, -4.005, 0.088, -0.007, -0.057, 0.227, 1
671456, -0.795, -3.987, 0.158, 0.025, -0.029, 0.307, 1
671476, -0.947, -3.99, 0.289, 0.047, -0.036, 0.386, 1
671496, -1.288, -3.971, 0.567, 0.094, -0.111, 0.452, 1
671516, -1.622, -3.868, 0.926, 0.196, -0.259, 0.555, 1
671536, -2.241, -3.774, 1.423, 0.383, -0.437, 0.734, 1
671556, -2.283, -3.865, 1.817, 0.645, -0.733, 1.042, 1
671576, -2.68, -4.108, 2.199, 0.974, -1.05, 1.323, 1
671596, -2.979, -4.447, 2.353, 1.35, -1.286, 1.567, 1
671616, -3.102, -4.748, 2.334, 1.683, -1.543, 1.7, 1
671636, -3.562, -5.013, 2.127, 1.844, -1.767, 1.663, 1
671656, -3.715, -5.108, 1.879, 1.835, -2.026, 1.742, 1
671676, -4.302, -4.698, 1.801, 1.807, -2.103, 1.973, 1
671696, -4.303, -4.458, 1.548, 1.87, -1.958, 2.328, 1
671716, -3.077, -4.619, 1.068, 1.893, -1.82, 2.489, 1
671736, -1.894, -4.336, 0.643, 1.728, -2.01, 2.187, 1
671756, -1.639, -3.519, 0.08, 1.513, -2.227, 1.926, 1
671776, -2.136, -2.498, -0.38, 1.452, -2.129, 2.014, 1
671796, -1.972, -2.201, -0.656, 1.346, -1.871, 2.076, 1
671816, -1.152, -1.961, -0.967, 1.26, -1.718, 2.1, 1
671836, -0.275, -1.524, -1.204, 1.277, -1.743, 2.07, 1
671856, -0.192, -1.323, -1.413, 1.349, -1.785, 1.988, 1
671876, 0.193, -1.315, -1.502, 1.268, -1.869, 1.874, 1
671896, -0.075, -1.699, -1.809, 0.911, -1.703, 1.729, 1
671916, -0.869, -0.339, -2.349, 1.062, -1.005, 1.946, 1
671936, 0.481, -0.69, -2.528, 1.468, -0.544, 2.197, 1
671956, 0.893, -1.439, -2.697, 1.44, -0.628, 2.07, 1
671976, 0.728, -1.356, -2.696, 0.872, -0.97, 1.776, 1
671996, 0.09, -0.464, -2.567, 0.379, -1.261, 1.756, 1
672016, -0.039, -0.465, -2.601, 0.369, -1.117, 1.939, 1
672036, 1.665, -1.812, -3.122, 0.527, -0.849, 2.077, 1
672056, 2.996, -2.271, -3.008, 0.436, -0.953, 1.715, 1
672076, 2.44, -1.773, -2.669, 0.193, -1.279, 1.041, 1
672096, 1.493, -0.925, -2.256, -0.024, -1.423, 0.676, 1
672116, 0.658, -0.145, -1.92, -0.057, -1.332, 0.654, 1
672136, 0.551, -0.201, -1.703, 0.065, -0.988, 0.771, 1
672156, 1.157, -0.898, -1.698, 0.051, -0.667, 0.82, 1
672176, 1.592, -1.109, -1.556, -0.138, -0.503, 0.7, 1
672196, 1.539, -0.475, -0.926, -0.238, -0.426, 0.489, 1
672216, 1.123, -0.23, -0.601, -0.098, -0.317, 0.383, 1
672236, 1.121, -0.367, -0.427, 0.021, -0.131, 0.346, 1
672256, 1.159, -0.495, -0.382, -0.008, -0.098, 0.274, 1
672276, 1.033, -0.389, -0.405, -0.146, -0.174, 0.222, 1
672296, 0.857, -0.187, -0.354, -0.197, -0.231, 0.167, 1
672316, 0.496, -0.183, -0.337, -0.149, -0.207, 0.103, 1
672336, 0.375, -0.137, -0.23, -0.105, -0.091, 0.051, 1
672356, 0.221, -0.146, -0.175, -0.081, -0.064, -0.024, 1
672376, -0.021, -0.184, -0.216, -0.135, -0.086, -0.119, 1
672396, -0.101, 0.015, -0.223, -0.116, -0.049, -0.063, 1
672416, -0.041, -0.123, -0.262, -0.103, -0.061, -0.053, 1
672436, -0.068, -0.592, -0.602, -0.321, -0.02, -0.12, 0
672456, -0.274, -0.237, -0.697, -0.466, 0.087, -0.106, 0
672476, 0.213, 0.133, -0.589, -0.332, 0.156, -0.098, 0
672496, 0.316, -0.536, -1.105, -0.288, 0.31, -0.147, 0
672516, 0.976, -0.937, -1.81, -0.386, 0.368, -0.213, 0
672536, 1.118, -1.527, -2.854, -0.556, 0.577, -0.266, 0
672556, 1.525, -1.784, -3.453, -0.645, 0.948, -0.31, 0
672576, 1.994, -2.078, -3.779, -0.648, 1.337, -0.429, 0
672596, 2.81, -2.376, -4.148, -0.622, 1.536, -0.675, 0
672616, 3.342, -3.359, -5.265, -0.785, 1.675, -1.089, 0
672636, 3.022, -3.568, -5.869, -1.007, 1.899, -1.528, 0
672656, 2.185, -3.601, -5.878, -1.207, 2.32, -1.931, 0
672676, 1.408, -2.923, -5.329, -1.212, 2.767, -2.172, 0
672696, 0.87, -2.847, -4.91, -1.023, 3.141, -2.295, 0
672716, 0.466, -3.939, -5.03, -1.244, 3.339, -2.59, 0
672736, -0.014, -3.71, -4.139, -1.456, 3.233, -2.971, 0
672756, -1.295, -3.563, -3.538, -1.62, 3.123, -3.203, 0
672776, -2.181, -3.772, -3.183, -1.693, 3.015, -3.244, 0
672796, -3.013, -4.527, -2.625, -1.845, 2.897, -3.371, 0
672816, -3.932, -4.63, -1.82, -1.933, 2.783, -3.41, 0
672836, -4.68, -5.184, -1.234, -1.924, 2.591, -3.323, 0
672856, -4.942, -6.266, -0.808, -1.958, 2.225, -3.147, 0
672876, -5.551, -6.692, -0.177, -1.951, 1.908, -2.878, 0
672896, -5.586, -6.058, 1.256, -1.91, 1.891, -2.646, 0
672916, -4.763, -6.297, 1.59, -1.884, 1.784, -2.428, 0
672936, -4.616, -5.539, 2.124, -1.682, 1.561, -2.114, 0
672956, -4.996, -5.23, 2.526, -1.319, 1.398, -2.001, 0
672976, -5.502, -4.441, 2.836, -1.081, 1.378, -1.989, 0
672996, -5.498, -4.088, 2.81, -0.872, 1.406, -1.636, 0
673016, -4.524, -3.365, 2.947, -0.768, 1.176, -0.988, 0
673036, -3.643, -3.62, 2.462, -0.616, 0.615, -0.373, 0
673056, -2.654, -3.991, 1.755, -0.548, 0.188, -0.15, 0
673076, -2.359, -3.774, 1.224, -0.465, -0.033, -0.179, 0
673096, -2.175, -3.8, 0.493, -0.483, -0.001, -0.133, 0
673116, -1.523, -3.411, 0.29, -0.443, 0.133, 0.079, 0
673136, -0.335, -3.599, -0.025, -0.278, 0.216, 0.299, 0
673156, 0.81, -4.218, -0.408, -0.151, 0.137, 0.326, 0
673176, 1.188, -4.237, -0.762, -0.154, -0.039, 0.168, 0
673196, 0.714, -4.02, -1.018, -0.2, -0.11, -0.023, 0
673216, -0.021, -3.47, -1.013, -0.227, 0.018, -0.056, 0
673236, -0.407, -3.794, -1.229, -0.182, 0.225, 0.105, 0
673256, 0.246, -4.02, -1.165, -0.318, 0.39, 0.208, 0
673276, 0.475, -4.1, -0.962, -0.521, 0.282, 0.261, 0
673296, 0.262, -3.57, -0.343, -0.568, 0.139, 0.216, 1
673316, -0.313, -2.873, 0.053, -0.261, 0.039, 0.204, 1
673336, -0.942, -3.482, -0.026, 0.153, 0.024, 0.328, 1
673356, -1.126, -4.355, -0.265, 0.135, 0.196, 0.406, 1
673376, -0.67, -4.11, -0.049, -0.031, 0.099, 0.434, 1
673396, -0.439, -4.041, 0.096, -0.054, -0.132, 0.538, 1
673416, -0.458, -3.943, 0.193, 0.04, -0.303, 0.574, 1
673436, -0.469, -3.786, 0.449, 0.309, -0.466, 0.621, 1
673456, -0.972, -3.545, 1.003, 0.693, -0.649, 0.715, 1
673476, -2.152, -4.72, 0.742, 0.728, -0.605, 0.674, 1
673496, -2.484, -4.913, 0.709, 0.594, -0.455, 0.756, 1
673516, -2.594, -4.62, 0.981, 0.636, -0.439, 0.955, 1
673536, -2.415, -4.731, 1.115, 0.818, -0.642, 1.123, 1
673556, -2.445, -4.622, 1.273, 1.078, -1.034, 1.276, 1
673576, -2.565, -4.818, 1.286, 1.346, -1.47, 1.506, 1
673596, -3.059, -5.658, 0.916, 1.419, -1.64, 1.68, 1
673616, -3.916, -5.977, 0.535, 1.359, -1.371, 1.785, 1
673636, -3.05, -6.3, 0.088, 1.346, -1.098, 2.176, 1
673656, -1.845, -6.147, 0.156, 1.457, -1.054, 2.348, 1
673676, -1.383, -5.95, -0.204, 1.43, -1.21, 2.068, 1
673696, -1.823, -5.25, -0.976, 1.152, -1.202, 1.681, 1
673716, -1.576, -4.339, -1.644, 0.7, -1.334, 1.654, 1
673736, -1.728, -3.187, -1.759, 0.419, -1.394, 1.936, 1
673756, -1.099, -2.184, -1.553, 0.492, -1.308, 2.149, 1
673776, -0.497, -1.8, -1.174, 0.681, -1.255, 2.05, 1
673796, 0.166, -1.592, -1.05, 0.675, -1.436, 1.786, 1
673816, -0.131, -0.937, -1.218, 0.594, -1.607, 1.666, 1
673836, -0.489, -0.587, -1.596, 0.54, -1.494, 1.77, 1
673856, -0.231, -0.013, -0.926, 0.599, -1.463, 1.672, 1
673876, -0.178, -0.096, -0.725, 0.634, -1.797, 1.619, 1
673896, -0.287, -0.366, -0.87, 0.628, -2.106, 1.569, 1
673916, -0.462, -0.274, -1.143, 0.792, -2.064, 1.74, 1
673936, 0.487, -1.029, -1.485, 1.083, -1.665, 1.975, 1
673956, 2.001, -1.83, -1.675, 1.096, -1.488, 1.784, 1
673976, 2.775, -1.64, -1.626, 0.625, -1.952, 1.229, 1
673996, 2.164, -0.383, -1.35, 0.16, -2.726, 1.048, 1
674016, 1.216, 0.469, -1.286, 0.308, -3.15, 1.359, 1
674036, 0.609, -0.523, -1.895, 0.776, -2.982, 1.516, 1
674056, 0.732, -1.539, -2.68, 0.856, -2.408, 1.144, 1
674076, 0.788, -1.513, -3.275, 0.424, -1.812, 0.77, 1
674096, 0.936, -0.475, -2.988, 0.048, -1.331, 0.709, 1
674116, 0.935, -0.008, -2.426, -0.026, -1.04, 0.695, 1
674136, 0.648, 0.116, -1.726, -0.003, -0.824, 0.749, 1
674156, 0.725, 0.071, -1.088, 0.075, -0.582, 0.753, 1
674176, 0.829, -0.614, -1.015, 0.149, -0.442, 0.718, 1
674196, 0.891, -0.89, -0.975, 0.072, -0.308, 0.679, 1
674216, 0.988, -0.86, -0.747, 0.013, -0.176, 0.583, 1
674236, 1.085, -0.705, -0.436, -0.004, -0.193, 0.5, 1
674256, 0.925, -0.604, -0.317, -0.01, -0.293, 0.381, 1
674276, 0.686, -0.437, -0.307, 0.004, -0.317, 0.237, 1
674296, 0.415, -0.328, -0.414, 0.037, -0.224, 0.166, 1
674316, 0.2, -0.186, -0.419, 0.004, -0.108, 0.16, 1
674336, 0.198, 0.097, -0.09, -0.033, -0.113, 0.194, 1
674356, 0.058, 0.132, 0.023, 0.021, -0.158, 0.181, 1
674376, -0.118, -0.013, -0.061, 0.049, -0.072, 0.178, 1
674396, -0.05, -0.161, -0.189, 0.07, 0.049, 0.158, 1
674416, 0.219, -0.178, -0.19, 0.104, 0.015, 0.076, 1
674436, 0.122, -0.323, -0.28, 0.037, -0.076, -0.004, 1
674456, 0.183, -0.213, -0.339, -0.056, -0.177, -0.019, 1
674476, 0.067, -0.178, -0.362, -0.081, -0.172, -0.072, 0
674496, -0.261, -0.722, -1.009, -0.259, 0.04, -0.134, 0
674516, 0.384, -0.412, -0.955, -0.245, 0.24, -0.185, 0
674536, 0.84, -0.523, -0.945, -0.127, 0.202, -0.227, 0
674556, 0.707, -0.581, -1.039, -0.162, 0.14, -0.244, 0
674576, 0.413, -0.43, -1.166, -0.222, 0.191, -0.229, 0
674596, 0.417, -1.133, -2.214, -0.35, 0.471, -0.252, 0
674616, 1.025, -1.753, -3.289, -0.466, 0.879, -0.332, 0
674636, 1.493, -1.858, -3.427, -0.411, 1.214, -0.477, 0
674656, 1.742, -1.938, -3.283, -0.388, 1.413, -0.69, 0
674676, 1.961, -2.327, -3.792, -0.496, 1.485, -0.943, 0
674696, 1.986, -3.037, -5.006, -0.67, 1.69, -1.21, 0
674716, 1.73, -3.89, -6.077, -0.919, 2.107, -1.571, 0
674736, 1.243, -3.263, -6.132, -0.921, 2.56, -1.811, 0
674756, 0.453, -3.116, -5.898, -0.809, 3.144, -2.045, 0
674776, 0.619, -3.065, -5.188, -0.937, 3.461, -2.423, 0
674796, 0.652, -3.488, -4.779, -1.289, 3.279, -2.885, 0
674816, -0.587, -3.219, -4.253, -1.702, 3.081, -3.275, 0
674836, -2.375, -3.684, -2.65, -1.923, 3.061, -3.499, 0
674856, -3.124, -2.758, -2.008, -1.924, 3.112, -3.409, 0
674876, -3.268, -3.369, -1.063, -1.998, 3.101, -3.403, 0
674896, -3.729, -4.213, -0.325, -2.15, 2.745, -3.436, 0
674916, -4.196, -5.032, 0.31, -2.25, 2.32, -3.327, 0
674936, -5.038, -6.003, 0.695, -2.346, 2.064, -3.189, 0
674956, -5.349, -5.778, 1.307, -2.445, 2.08, -3.237, 0
674976, -5.034, -5.641, 1.643, -2.293, 2.068, -3.089, 0
674996, -4.568, -5.595, 2.132, -1.903, 1.955, -2.824, 0
675016, -4.608, -5.807, 2.234, -1.652, 1.74, -2.607, 0
675036, -5.167, -4.737, 2.67, -1.538, 1.565, -2.442, 0
675056, -5.741, -3.728, 3.018, -1.309, 1.406, -2.174, 0
675076, -6.016, -2.989, 3.088, -1.118, 1.066, -1.668, 0
675096, -6.064, -2.603, 2.892, -0.921, 0.721, -1.018, 0
675116, -4.84, -2.673, 2.389, -0.721, 0.426, -0.451, 0
675136, -3.755, -2.69, 1.948, -0.534, 0.083, -0.098, 0
675156, -3.003, -3.212, 1.29, -0.342, -0.266, 0.168, 0
675176, -2.266, -3.94, 0.324, -0.388, -0.27, 0.353, 0
675196, -0.703, -3.511, 0.152, -0.452, -0.026, 0.507, 0
675216, 0.43, -3.766, -0.153, -0.338, 0.057, 0.63, 0
675236, 1.023, -3.698, -0.243, -0.214, 0.08, 0.595, 0
675256, 0.801, -3.443, -0.123, -0.011, 0.04, 0.561, 0
675276, 0.299, -3.765, -0.382, 0.114, -0.059, 0.498, 0
675296, -0.523, -3.851, -0.822, -0.037, -0.182, 0.492, 0
675316, -1.015, -3.447, -1.015, -0.521, -0.296, 0.75, 1
675336, -0.67, -3.031, -0.839, -0.477, -0.386, 0.88, 1
675356, -1.002, -3.006, -0.695, -0.289, -0.398, 0.941, 1
675376, -1.117, -3.625, -0.523, -0.145, -0.325, 1.014, 1
675396, -0.764, -4.026, -0.137, -0.073, -0.323, 1.011, 1
675416, -0.453, -4.496, 0.04, -0.045, -0.405, 0.951, 1
675436, -0.542, -4.594, 0.142, -0.015, -0.465, 0.783, 1
675456, -0.813, -4.421, 0.275, 0.07, -0.491, 0.751, 1
675476, -1.343, -4.201, 0.387, 0.201, -0.471, 0.825, 1
675496, -1.096, -4.387, 0.335, 0.355, -0.556, 1.029, 1
675516, -1.371, -4.687, 0.424, 0.426, -0.62, 1.078, 1
675536, -1.883, -4.92, 0.628, 0.378, -0.682, 0.988, 1
675556, -2.21, -4.808, 0.853, 0.373, -0.869, 1.087, 1
675576, -2.648, -4.462, 1.11, 0.566, -1.039, 1.344, 1
675596, -2.427, -4.605, 0.989, 0.87, -1.284, 1.657, 1
675616, -1.929, -4.948, 1.006, 1.175, -1.541, 1.934, 1
675636, -2.418, -5.71, 0.668, 1.158, -1.55, 1.868, 1
675656, -2.565, -5.356, 0.562, 1.017, -1.381, 1.705, 1
675676, -2.405, -4.462, 0.623, 0.952, -1.436, 1.751, 1
675696, -1.617, -3.442, 0.749, 1.095, -1.718, 1.959, 1
675716, -1.438, -2.272, 0.982, 1.388, -2.023, 2.148, 1
675736, -1.827, -1.969, 0.724, 1.584, -2.072, 2.102, 1
675756, -1.84, -2.254, 0.126, 1.288, -1.983, 1.706, 1
675776, -0.932, -2.22, -0.465, 0.704, -2.306, 1.492, 1
675796, -0.543, -1.722, -0.584, 0.273, -2.858, 1.445, 1
675816, -2.67, 0.1, -0.864, 0.728, -2.363, 1.673, 1
675836, -1.551, -1.023, -1.185, 1.289, -1.442, 2.127, 1
675856, 0.388, -2.112, -1.78, 1.282, -0.927, 2.104, 1
675876, 1.892, -1.949, -2.249, 0.867, -1.141, 1.737, 1
675896, 1.933, -1.203, -2.297, 0.535, -1.818, 1.454, 1
675916, 0.386, -0.079, -1.804, 0.533, -2.146, 1.23, 1
675936, -1.06, 0.415, -1.324, 0.78, -1.866, 1.246, 1
675956, -1.136, -0.046, -1.276, 0.974, -1.322, 1.438, 1
675976, -0.045, -0.559, -1.377, 0.912, -1.003, 1.594, 1
675996, 0.547, -0.595, -1.486, 0.794, -1.051, 1.525, 1
676016, 0.854, -0.93, -1.639, 0.772, -1.162, 1.386, 1
676036, 1.003, -0.631, -1.519, 0.682, -1.346, 1.168, 1
676056, 0.596, -0.293, -1.502, 0.676, -1.464, 0.987, 1
676076, 0.407, -0.219, -1.757, 0.714, -1.359, 0.884, 1
676096, 0.758, -0.334, -2.098, 0.726, -1.205, 0.924, 1
676116, 1.235, -0.598, -2.395, 0.655, -1.112, 0.931, 1
676136, 1.386, -0.812, -2.585, 0.528, -1.073, 0.852, 1
676156, 1.115, -0.75, -2.433, 0.379, -0.901, 0.777, 1
676176, 0.917, -0.44, -2.061, 0.24, -0.546, 0.707, 1
676196, 0.952, -0.159, -1.623, 0.217, -0.157, 0.718, 1
676216, 1.372, -0.395, -1.282, 0.277, 0.139, 0.725, 1
676236, 1.818, -0.808, -0.965, 0.297, 0.255, 0.62, 1
676256, 1.757, -1.042, -0.734, 0.226, 0.233, 0.451, 1
676276, 1.684, -0.997, -0.608, 0.037, 0.149, 0.307, 1
676296, 1.641, -0.728, -0.463, -0.188, -0.064, 0.219, 1
676316, 1.47, -0.549, -0.419, -0.199, -0.155, 0.104, 1
676336, 1.048, -0.309, -0.37, -0.146, -0.136, 0.012, 1
676356, 0.55, 0.006, -0.263, -0.023, -0.016, -0.032, 1
676376, 0.35, -0.218, -0.306, 0.009, 0.057, -0.053, 1
676396, 0.392, -0.232, -0.355, -0.092, 0.068, -0.104, 1
676416, 0.171, -0.231, -0.421, -0.195, 0.032, -0.128, 1
676436, -0.006, 0.182, -0.189, -0.131, 0.048, -0.118, 1
676456, -0.018, 0.036, -0.191, -0.034, 0.133, -0.137, 1
676476, -0.066, -0.451, -0.423, -0.113, 0.252, -0.226, 1
676496, 0.227, -0.236, -0.521, -0.251, 0.216, -0.157, 0
676516, 0.289, -0.289, -0.594, -0.393, 0.029, 0.026, 0
676536, 0.14, 0.07, -0.36, -0.328, 0.001, 0.003, 0
676556, 0.309, -0.08, -0.592, -0.136, 0.07, -0.078, 0
676576, 0.611, -0.593, -1.195, -0.108, 0.164, -0.202, 0
676596, 0.653, -0.881, -1.679, -0.209, 0.312, -0.337, 0
676616, 0.879, -1.259, -2.374, -0.353, 0.553, -0.444, 0
676636, 1.348, -1.476, -2.861, -0.445, 0.748, -0.539, 0
676656, 1.725, -1.831, -3.197, -0.545, 0.942, -0.701, 0
676676, 2.195, -2.035, -3.596, -0.596, 1.191, -0.924, 0
676696, 2.398, -2.495, -4.348, -0.671, 1.479, -1.211, 0
676716, 2.499, -3.33, -5.264, -0.872, 1.927, -1.535, 0
676736, 2.655, -3.336, -5.433, -0.987, 2.357, -1.89, 0
676756, 2.64, -3.146, -5.1, -0.962, 2.552, -2.091, 0
676776, 2.18, -3.328, -4.73, -1.095, 2.704, -2.535, 0
676796, 0.562, -3.612, -4.471, -1.365, 2.774, -2.957, 0
676816, -0.662, -2.996, -4.0, -1.528, 3.0, -3.152, 0
676836, -1.09, -3.067, -3.324, -1.507, 3.167, -3.17, 0
676856, -1.652, -3.213, -2.503, -1.555, 3.102, -3.337, 0
676876, -2.29, -3.892, -2.076, -1.733, 2.823, -3.627, 0
676896, -3.385, -4.772, -1.958, -1.944, 2.523, -3.75, 0
676916, -4.164, -5.487, -1.562, -1.992, 2.452, -3.767, 0
676936, -4.845, -6.144, -0.911, -1.875, 2.485, -3.657, 0
676956, -4.739, -7.135, -0.389, -1.684, 2.409, -3.459, 0
676976, -5.147, -7.578, 0.118, -1.614, 2.288, -3.373, 0
676996, -4.809, -7.48, 0.432, -1.544, 2.158, -3.171, 0
677016, -4.433, -7.077, 0.871, -1.48, 1.891, -2.903, 0
677036, -5.471, -6.151, 1.536, -1.34, 1.631, -2.761, 0
677056, -6.735, -4.485, 2.197, -1.084, 1.609, -2.607, 0
677076, -7.615, -3.308, 2.435, -0.744, 1.654, -2.134, 0
677096, -7.144, -2.59, 2.557, -0.527, 1.569, -1.579, 0
677116, -6.236, -2.501, 2.301, -0.45, 0.963, -1.008, 0
677136, -4.968, -2.667, 1.624, -0.477, 0.255, -0.456, 0
677156, -3.812, -2.93, 1.047, -0.472, -0.097, -0.171, 0
677176, -2.878, -2.888, 0.815, -0.43, -0.153, 0.018, 0
677196, -1.71, -2.905, 0.632, -0.341, -0.182, 0.22, 0
677216, -0.829, -3.236, 0.185, -0.26, -0.277, 0.378, 0
677236, 0.038, -3.621, -0.188, -0.271, -0.345, 0.398, 0
677256, 0.192, -3.624, -0.389, -0.29, -0.364, 0.388, 0
677276, 0.074, -3.281, -0.531, -0.236, -0.012, 0.362, 0
677296, -0.026, -2.959, -0.366, -0.087, 0.089, 0.459, 0
677316, -0.231, -3.186, -0.343, -0.064, 0.0, 0.505, 0
677336, -0.658, -3.128, -0.38, -0.146, -0.203, 0.619, 1
677356, -1.216, -2.54, -0.085, 0.007, -0.401, 0.855, 1
677376, -1.775, -3.118, -0.218, 0.142, -0.509, 1.014, 1
677396, -1.73, -3.269, -0.183, 0.239, -0.549, 1.147, 1
677416, -1.639, -3.549, -0.006, 0.348, -0.645, 1.298, 1
677436, -1.355, -4.865, -0.3, 0.219, -0.668, 1.353, 1
677456, -1.251, -4.941, -0.185, 0.025, -0.546, 1.261, 1
677476, -1.04, -4.295, 0.182, 0.103, -0.525, 1.241, 1
677496, -1.658, -4.084, 0.596, 0.314, -0.556, 1.254, 1
677516, -1.751, -4.265, 0.64, 0.528, -0.725, 1.464, 1
677536, -0.865, -4.814, 0.499, 0.733, -1.101, 1.819, 1
677556, -0.995, -5.549, 0.336, 0.824, -1.304, 1.729, 1
677576, -1.833, -5.616, 0.248, 0.689, -1.249, 1.371, 1
677596, -2.593, -5.032, 0.535, 0.522, -1.246, 1.249, 1
677616, -2.924, -4.279, 0.598, 0.67, -1.302, 1.77, 1
677636, -2.35, -4.471, 0.382, 0.968, -1.216, 2.307, 1
677656, -1.406, -4.779, 0.365, 1.109, -1.226, 2.233, 1
677676, -1.062, -4.858, 0.419, 0.842, -1.511, 1.799, 1
677696, -1.664, -3.617, 0.488, 0.488, -1.781, 1.635, 1
677716, -2.497, -1.962, 0.399, 0.66, -1.635, 2.012, 1
677736, -2.162, -1.572, 0.349, 0.961, -1.284, 2.26, 1
677756, -0.997, -1.626, 0.537, 0.954, -1.666, 2.101, 1
677776, -0.586, -1.551, -0.454, 0.945, -2.106, 2.116, 1
677796, -0.952, -1.045, -0.63, 1.116, -1.927, 2.202, 1
677816, -0.321, -1.026, -0.465, 1.24, -1.607, 2.179, 1
677836, 0.153, -0.86, -0.193, 1.211, -1.642, 2.163, 1
677856, -0.252, -0.467, -0.156, 1.312, -1.678, 2.317, 1
677876, 0.405, -1.067, -0.255, 1.552, -1.516, 2.296, 1
677896, 1.537, -2.075, -0.81, 1.38, -1.671, 1.829, 1
677916, 0.849, -1.48, -1.477, 0.861, -2.07, 1.216, 1
677936, -0.432, -0.058, -1.911, 0.723, -1.916, 1.149, 1
677956, -0.029, 0.091, -2.102, 1.017, -1.302, 1.39, 1
677976, 1.349, -0.655, -2.317, 1.094, -1.08, 1.43, 1
677996, 1.957, -0.924, -2.541, 0.766, -1.423, 1.211, 1
678016, 1.234, -0.529, -2.798, 0.465, -1.707, 1.003, 1
678036, 0.827, -0.491, -3.051, 0.4, -1.481, 0.977, 1
678056, 1.188, -0.55, -2.959, 0.433, -1.021, 0.952, 1
678076, 1.671, -0.778, -2.723, 0.447, -0.715, 0.941, 1
678096, 1.724, -0.785, -2.319, 0.335, -0.591, 0.778, 1
678116, 1.551, -0.499, -1.863, 0.175, -0.567, 0.627, 1
678136, 1.323, -0.387, -1.576, 0.071, -0.503, 0.576, 1
678156, 1.394, -0.429, -1.376, 0.023, -0.358, 0.537, 1
678176, 1.489, -0.419, -1.216, -0.008, -0.255, 0.466, 1
678196, 1.413, -0.313, -0.971, -0.039, -0.184, 0.355, 1
678216, 1.247, -0.107, -0.707, -0.056, -0.119, 0.238, 1
678236, 0.957, -0.037, -0.53, -0.124, -0.059, 0.185, 1
678256, 0.879, 0.026, -0.357, -0.136, -0.025, 0.184, 1
678276, 0.899, -0.056, -0.26, -0.141, -0.042, 0.133, 1
678296, 0.697, -0.099, -0.211, -0.174, -0.078, 0.067, 1
678316, 0.347, 0.03, 0.034, -0.182, -0.068, 0.018, 1
678336, 0.1, 0.26, 0.129, -0.124, -0.042, 0.018, 1
678356, 0.051, 0.244, 0.25, -0.042, -0.088, 0.034, 1
678376, 0.062, -0.069, 0.196, -0.047, -0.167, 0.023, 1
678396, -0.19, -0.527, -0.02, -0.147, -0.151, -0.07, 1
678416, -0.008, -0.362, -0.173, -0.23, -0.132, -0.166, 1
678436, 0.145, 0.005, -0.265, -0.285, -0.191, -0.126, 1
678456, 0.009, 0.234, -0.222, -0.237, -0.173, -0.068, 1
678476, -0.184, -0.132, -0.505, -0.259, 0.105, -0.112, 0
678496, 0.223, -1.06, -1.281, -0.588, 0.477, -0.244, 0
678516, 1.058, -0.7, -1.657, -0.843, 0.587, -0.409, 0
678536, 1.506, -0.266, -1.626, -0.755, 0.431, -0.402, 0
678556, 1.209, -0.428, -1.837, -0.613, 0.497, -0.404, 0
678576, 1.214, -0.818, -2.175, -0.543, 0.736, -0.394, 0
678596, 1.562, -1.308, -2.831, -0.574, 0.984, -0.431, 0
678616, 1.889, -1.607, -3.349, -0.619, 1.242, -0.591, 0
678636, 2.334, -2.117, -3.958, -0.646, 1.582, -0.769, 0
678656, 2.814, -2.372, -4.317, -0.613, 1.896, -1.036, 0
678676, 2.773, -2.721, -4.406, -0.709, 2.098, -1.465, 0
678696, 2.528, -2.965, -4.787, -0.793, 2.222, -1.833, 0
678716, 1.617, -3.404, -5.61, -0.871, 2.669, -2.572, 0
678736, 0.532, -3.361, -4.205, -0.987, 3.434, -2.864, 0
678756, 0.261, -2.728, -3.688, -0.898, 3.571, -2.992, 0
678776, -0.099, -3.094, -3.309, -1.006, 3.519, -3.133, 0
678796, -0.853, -2.962, -2.644, -1.23, 3.396, -3.497, 0
678816, -2.043, -3.599, -2.066, -1.382, 3.137, -3.856, 0
678836, -3.486, -4.001, -1.498, -1.557, 2.797, -3.872, 0
678856, -4.557, -5.394, -1.263, -1.576, 2.765, -3.687, 0
678876, -4.227, -6.417, -0.543, -1.607, 2.872, -3.695, 0
678896, -3.62, -6.986, 0.149, -1.598, 2.458, -3.668, 0
678916, -4.176, -7.846, 0.415, -1.517, 1.843, -3.433, 0
678936, -4.578, -7.867, 0.747, -1.532, 1.599, -3.393, 0
678956, -4.433, -7.251, 1.408, -1.424, 1.457, -3.323, 0
678976, -4.519, -6.311, 1.831, -1.33, 1.252, -3.178, 0
678996, -5.349, -5.043, 2.149, -1.166, 0.953, -3.002, 0
679016, -6.445, -3.842, 2.108, -0.951, 0.927, -2.778, 0
679036, -7.502, -2.95, 2.137, -0.842, 0.893, -2.275, 0
679056, -7.23, -2.056, 2.226, -0.801, 0.659, -1.701, 0
679076, -6.709, -1.896, 1.823, -0.731, 0.181, -0.92, 0
679096, -5.75, -2.064, 1.368, -0.613, -0.175, -0.24, 0
679116, -4.262, -2.287, 1.024, -0.486, -0.441, 0.181, 0
679136, -2.793, -3.072, 0.543, -0.395, -0.643, 0.527, 0
679156, -1.154, -3.435, 0.008, -0.428, -0.583, 0.837, 0
679176, 0.052, -3.569, -0.076, -0.377, -0.274, 1.1, 0
679196, 0.305, -3.609, -0.054, -0.279, 0.071, 1.056, 0
679216, -0.009, -3.08, 0.169, -0.093, 0.232, 0.814, 0
679236, -0.982, -2.801, 0.203, -0.079, -0.075, 0.777, 0
679256, -2.012, -2.592, 0.007, -0.096, -0.415, 1.064, 1
679276, -2.481, -2.734, -0.324, 0.065, -0.521, 1.536, 1
679296, -2.116, -3.681, -0.502, 0.183, -0.426, 1.631, 1
679316, -1.939, -4.371, -0.525, 0.18, -0.336, 1.458, 1
679336, -1.75, -4.236, 0.029, 0.207, -0.601, 1.323, 1
679356, -1.717, -4.148, 0.479, 0.383, -1.056, 1.588, 1
679376, -1.321, -5.044, 0.293, 0.616, -1.279, 1.915, 1
679396, -1.52, -5.963, 0.298, 0.736, -1.18, 1.767, 1
679416, -2.074, -6.409, 0.246, 0.656, -0.924, 1.517, 1
679436, -2.178, -6.04, 0.28, 0.554, -0.869, 1.519, 1
679456, -2.489, -5.528, 0.588, 0.613, -1.089, 1.645, 1
679476, -1.843, -5.514, 0.489, 0.725, -1.503, 1.94, 1
679496, -2.017, -5.385, 0.632, 0.966, -1.787, 2.246, 1
679516, -2.227, -5.021, 0.651, 1.304, -1.701, 2.461, 1
679536, -2.723, -5.363, 0.047, 1.206, -1.356, 2.268, 1
679556, -1.961, -4.243, -0.031, 0.85, -1.356, 2.053, 1
679576, -1.155, -2.58, 0.187, 0.686, -1.886, 2.221, 1
679596, -0.768, -1.256, 0.269, 0.909, -2.327, 2.604, 1
679616, -0.85, -0.54, 0.037, 1.422, -2.225, 2.707, 1
679636, -0.671, -1.25, -0.404, 1.451, -2.07, 2.276, 1
679656, -0.464, -1.493, -0.831, 0.796, -2.003, 1.746, 1
679676, -0.306, -0.689, -1.266, 0.328, -2.105, 1.799, 1
679696, -0.075, 0.424, -1.36, 0.546, -2.127, 1.977, 1
679716, 0.373, 0.711, -1.222, 0.981, -2.314, 2.028, 1
679736, -0.789, -0.993, -2.014, 1.2, -2.112, 1.921, 1
679756, -0.543, -0.399, -1.949, 0.838, -1.467, 1.623, 1
679776, 0.532, 0.191, -1.759, 0.651, -1.227, 1.675, 1
679796, 1.255, 0.073, -1.833, 0.721, -1.412, 1.775, 1
679816, 0.831, 0.823, -1.416, 0.901, -1.682, 1.823, 1
679836, 0.174, 1.119, -1.157, 1.401, -1.637, 2.014, 1
679856, -0.06, -0.268, -1.647, 1.908, -1.288, 2.09, 1
679876, 0.629, -0.945, -1.913, 1.772, -0.852, 1.91, 1
679896, 2.198, -2.024, -2.418, 1.241, -0.902, 1.623, 1
679916, 2.454, -2.407, -2.733, 0.419, -1.348, 1.288, 1
679936, 1.766, -1.645, -2.474, -0.083, -1.405, 0.954, 1
679956, 1.178, -0.822, -1.959, -0.048, -0.992, 0.78, 1
679976, 1.224, -0.536, -1.585, 0.24, -0.423, 0.672, 1
679996, 1.611, -0.693, -1.366, 0.335, -0.147, 0.553, 1
680016, 1.517, -0.712, -1.214, 0.103, -0.239, 0.436, 1
680036, 1.282, -0.493, -1.07, -0.217, -0.399, 0.372, 1
680056, 1.147, -0.319, -0.865, -0.309, -0.386, 0.4, 1
680076, 1.218, -0.311, -0.761, -0.154, -0.161, 0.362, 1
680096, 1.33, -0.399, -0.691, -0.016, 0.01, 0.239, 1
680116, 1.139, -0.499, -0.751, -0.028, 0.022, 0.1, 1
680136, 0.732, -0.206, -0.606, -0.167, 0.003, 0.007, 1
680156, 0.416, 0.113, -0.374, -0.227, 0.007, 0.021, 1
680176, 0.214, 0.158, -0.209, -0.164, 0.045, 0.045, 1
680196, 0.119, 0.105, -0.232, -0.109, 0.076, -0.004, 1
680216, -0.012, 0.056, -0.188, -0.16, 0.052, -0.025, 1
680236, -0.007, 0.121, -0.135, -0.174, 0.033, -0.04, 1
680256, -0.103, 0.245, -0.142, -0.178, 0.024, -0.034, 1
680276, -0.201, 0.252, -0.124, -0.156, -0.003, -0.004, 1
680296, -0.073, 0.232, -0.002, -0.086, -0.036, 0.005, 1
680316, -0.132, 0.088, -0.001, -0.064, -0.067, 0.032, 1
680336, 0.043, 0.11, 0.047, -0.042, -0.18, 0.068, 1
680356, 0.056, 0.012, -0.023, -0.014, -0.293, 0.084, 1
680376, 0.067, 0.193, 0.055, 0.114, -0.296, 0.075, 1
680396, 0.156, -0.037, -0.135, 0.194, -0.217, 0.073, 1
680416, 0.528, -0.804, -0.739, -0.064, -0.102, -0.006, 1
680436, 1.009, -0.791, -0.883, -0.461, -0.154, -0.061, 0
680456, 1.428, -0.088, -0.681, -0.415, -0.291, -0.175, 0
680476, 0.952, -0.275, -0.928, -0.262, -0.199, -0.282, 0
680496, 0.773, -0.921, -1.514, -0.284, 0.117, -0.332, 0
680516, 1.282, -0.988, -1.673, -0.417, 0.238, -0.434, 0
680536, 1.238, -1.311, -2.295, -0.547, 0.415, -0.529, 0
680556, 1.283, -1.95, -3.081, -0.667, 0.821, -0.668, 0
680576, 1.712, -2.123, -3.416, -0.726, 1.218, -0.917, 0
680596, 1.911, -2.345, -3.718, -0.65, 1.458, -1.154, 0
680616, 1.705, -2.994, -4.409, -0.718, 1.767, -1.397, 0
680636, 1.697, -3.132, -4.749, -0.781, 2.115, -1.698, 0
680656, 1.629, -3.256, -4.848, -0.786, 2.433, -2.123, 0
680676, 1.07, -3.359, -5.014, -0.988, 3.066, -2.811, 0
680696, 0.471, -2.575, -4.308, -1.201, 3.306, -3.053, 0
680716, -0.29, -2.273, -3.643, -1.359, 3.397, -3.296, 0
680736, -0.826, -1.762, -2.632, -1.472, 3.405, -3.469, 0
680756, -1.239, -1.997, -2.073, -1.464, 3.391, -3.533, 0
680776, -1.054, -3.146, -1.77, -1.504, 3.368, -3.612, 0
680796, -1.391, -3.83, -1.143, -1.61, 3.112, -3.827, 0
680816, -2.347, -5.141, -0.484, -1.656, 2.789, -4.009, 0
680836, -2.677, -6.143, 0.405, -1.65, 2.393, -4.144, 0
680856, -3.743, -7.494, 0.77, -1.674, 1.766, -4.144, 0
680876, -4.591, -7.813, 1.089, -1.861, 1.328, -4.117, 0
680896, -4.987, -7.785, 1.139, -1.966, 1.08, -3.897, 0
680916, -5.161, -6.392, 1.764, -1.899, 0.971, -3.614, 0
680936, -6.017, -5.42, 2.172, -1.527, 0.918, -3.266, 0
680956, -6.282, -4.48, 2.166, -1.114, 1.109, -2.784, 0
680976, -6.5, -4.008, 2.051, -0.775, 1.295, -2.222, 0
680996, -5.627, -3.644, 1.984, -0.687, 1.241, -1.785, 0
681016, -4.812, -3.472, 1.825, -0.727, 0.75, -1.311, 0
681036, -4.133, -2.94, 1.569, -0.715, 0.221, -0.919, 0
681056, -3.608, -2.412, 1.461, -0.481, -0.048, -0.603, 0
681076, -3.646, -2.471, 1.119, -0.083, 0.01, -0.179, 0
681096, -3.016, -2.972, 0.515, 0.086, 0.346, 0.061, 0
681116, -2.138, -2.676, 0.376, -0.029, 0.47, 0.123, 0
681136, -1.757, -2.33, 0.295, -0.135, 0.186, 0.181, 0
681156, -1.15, -2.458, 0.008, -0.197, -0.203, 0.398, 0
681176, -0.333, -2.608, -0.193, -0.189, -0.549, 0.56, 0
681196, -0.124, -2.883, -0.397, -0.065, -0.462, 0.665, 0
681216, -0.289, -2.833, -0.332, 0.082, -0.222, 0.688, 0
681236, -0.803, -2.646, 0.057, 0.212, -0.132, 0.796, 1
681256, -1.687, -2.417, 0.363, 0.281, -0.325, 0.981, 1
681276, -1.843, -2.683, 0.7, 0.328, -0.772, 1.334, 1
681296, -2.392, -3.242, 0.586, 0.374, -1.062, 1.59, 1
681316, -2.828, -3.567, 0.481, 0.447, -1.12, 1.718, 1
681336, -3.243, -3.568, 0.69, 0.583, -1.087, 1.785, 1
681356, -3.352, -3.769, 0.811, 0.742, -1.15, 1.963, 1
681376, -2.788, -4.134, 0.703, 0.902, -1.401, 2.313, 1
681396, -1.976, -4.94, 0.473, 1.023, -1.668, 2.593, 1
681416, -2.211, -5.584, 0.144, 0.98, -1.605, 2.511, 1
681436, -2.133, -5.723, -0.144, 0.886, -1.277, 2.287, 1
681456, -1.801, -5.252, 0.01, 0.855, -1.009, 2.213, 1
681476, -1.554, -4.362, 0.449, 1.043, -0.908, 2.324, 1
681496, -1.294, -3.808, 0.383, 1.288, -0.992, 2.406, 1
681516, -1.238, -3.667, 0.06, 1.348, -1.005, 2.371, 1
681536, -1.549, -3.408, -0.237, 1.047, -0.894, 2.134, 1
681556, -1.588, -2.628, -0.313, 0.651, -0.831, 2.054, 1
681576, -0.904, -1.409, -0.191, 0.596, -0.871, 2.353, 1
681596, -0.452, -0.396, -0.113, 0.86, -0.895, 2.544, 1
681616, -0.487, -0.225, -0.174, 1.01, -0.889, 2.359, 1
681636, -0.305, -0.267, -0.128, 0.838, -0.993, 1.999, 1
681656, -0.22, 0.039, -0.08, 0.392, -1.351, 1.938, 1
681676, -0.92, 0.684, -0.307, 0.558, -1.277, 2.177, 1
681696, 0.055, 0.411, -0.497, 0.91, -1.122, 2.218, 1
681716, 1.025, -0.439, -0.911, 1.014, -1.368, 1.973, 1
681736, 0.817, -0.659, -1.367, 0.693, -1.775, 1.632, 1
681756, -0.041, -0.025, -1.467, 0.398, -1.76, 1.494, 1
681776, 0.449, 0.204, -1.537, 0.503, -1.32, 1.656, 1
681796, 1.802, -0.291, -1.61, 0.754, -0.995, 1.814, 1
681816, 2.596, -0.71, -1.716, 0.872, -1.02, 1.585, 1
681836, 2.323, -0.564, -1.857, 0.706, -1.312, 1.131, 1
681856, 1.468, 0.095, -1.802, 0.422, -1.594, 0.798, 1
681876, 1.056, 0.075, -2.086, 0.358, -1.549, 0.853, 1
681896, 1.465, -0.501, -2.387, 0.42, -1.15, 1.023, 1
681916, 2.061, -0.637, -2.235, 0.459, -0.769, 0.844, 1
681936, 2.061, -0.432, -1.958, 0.374, -0.738, 0.528, 1
681956, 1.422, -0.038, -1.648, 0.146, -0.91, 0.241, 1
681976, 0.759, 0.434, -1.399, -0.091, -1.004, 0.124, 1
681996, 0.345, 0.822, -1.125, -0.248, -0.995, 0.24, 1
682016, 0.259, 0.906, -0.877, -0.274, -0.918, 0.44, 1
682036, 0.32, 0.696, -0.694, -0.192, -0.783, 0.472, 1
682056, 0.371, 0.25, -0.699, -0.173, -0.694, 0.46, 1
682076, 0.491, 0.117, -0.802, -0.198, -0.59, 0.464, 1
682096, 0.645, -0.194, -0.843, -0.165, -0.467, 0.525, 1
682116, 0.856, -0.537, -0.946, -0.153, -0.356, 0.556, 1
682136, 0.946, -0.519, -0.783, -0.259, -0.335, 0.458, 1
682156, 0.782, -0.44, -0.659, -0.308, -0.266, 0.367, 1
682176, 0.676, -0.374, -0.561, -0.252, -0.147, 0.32, 1
682196, 0.652, -0.396, -0.471, -0.185, -0.02, 0.273, 1
682216, 0.759, -0.582, -0.463, -0.205, 0.038, 0.23, 1
682236, 0.794, -0.648, -0.365, -0.301, 0.028, 0.152, 1
682256, 0.549, -0.306, -0.149, -0.31, 0.028, 0.131, 1
682276, 0.316, -0.109, -0.077, -0.221, 0.098, 0.102, 1
682296, 0.255, -0.008, -0.034, -0.107, 0.194, 0.096, 1
682316, 0.294, -0.34, -0.248, -0.12, 0.248, 0.056, 1
682336, 0.252, -0.186, -0.229, -0.134, 0.278, 0.026, 1
682356, 0.224, -0.171, -0.266, -0.161, 0.272, -0.001, 1
682376, 0.213, 0.014, -0.221, -0.174, 0.219, -0.048, 1
682396, 0.037, 0.3, -0.021, -0.139, 0.144, -0.088, 1
682416, -0.032, 0.266, -0.104, -0.124, 0.097, -0.114, 1
682436, -0.126, -0.226, -0.444, -0.249, 0.195, -0.216, 1
682456, 0.107, -0.17, -0.692, -0.365, 0.31, -0.34, 1
682476, 0.581, 0.006, -0.865, -0.328, 0.236, -0.391, 1
682496, 0.646, -0.187, -1.089, -0.271, 0.161, -0.415, 0
682516, 0.586, -0.707, -1.583, -0.348, 0.365, -0.484, 0
682536, 0.835, -0.795, -2.077, -0.422, 0.651, -0.522, 0
682556, 1.113, -0.94, -2.613, -0.493, 0.946, -0.684, 0
682576, 1.295, -0.91, -3.026, -0.548, 1.23, -0.784, 0
682596, 1.652, -0.965, -3.558, -0.499, 1.519, -0.688, 0
682616, 2.415, -2.069, -4.348, -0.499, 1.799, -0.794, 0
682636, 3.063, -3.221, -5.346, -0.949, 2.072, -1.52, 0
682656, 2.254, -2.917, -5.407, -1.178, 2.445, -1.97, 0
682676, 1.363, -2.093, -4.435, -1.157, 2.932, -2.249, 0
682696, 0.942, -1.703, -3.5, -1.006, 3.335, -2.519, 0
682716, 0.919, -2.199, -3.21, -0.976, 3.423, -2.719, 0
682736, 0.553, -2.383, -2.74, -1.208, 3.335, -2.955, 0
682756, 0.217, -2.725, -2.454, -1.401, 3.128, -3.324, 0
682776, -0.788, -3.238, -1.944, -1.538, 2.89, -3.549, 0
682796, -1.849, -3.839, -1.134, -1.587, 2.596, -3.679, 0
682816, -2.699, -4.955, -0.549, -1.623, 2.38, -3.619, 0
682836, -3.307, -5.897, 0.122, -1.668, 2.163, -3.577, 0
682856, -3.91, -6.934, 0.407, -1.674, 1.901, -3.505, 0
682876, -4.059, -7.129, 0.8, -1.688, 1.67, -3.449, 0
682896, -4.634, -6.869, 1.328, -1.561, 1.393, -3.355, 0
682916, -5.533, -6.274, 1.859, -1.393, 1.173, -3.131, 0
682936, -5.688, -5.951, 1.882, -1.251, 1.04, -2.711, 0
682956, -4.845, -5.544, 1.636, -1.136, 0.91, -2.275, 0
682976, -4.811, -4.677, 1.636, -1.051, 0.781, -1.934, 0
682996, -4.549, -4.083, 1.609, -0.908, 0.733, -1.608, 0
683016, -4.319, -3.469, 1.655, -0.764, 0.744, -1.218, 0
683036, -4.162, -3.058, 1.526, -0.563, 0.641, -0.935, 0
683056, -3.72, -2.9, 1.198, -0.441, 0.452, -0.623, 0
683076, -3.124, -2.893, 0.915, -0.356, 0.291, -0.264, 0
683096, -2.361, -2.785, 0.754, -0.24, 0.156, -0.097, 0
683116, -1.844, -3.109, 0.173, -0.258, -0.106, 0.111, 0
683136, -1.286, -2.991, -0.055, -0.24, -0.112, 0.331, 0
683156, -0.721, -3.462, -0.404, -0.296, -0.011, 0.524, 0
683176, -0.231, -3.863, -0.823, -0.509, 0.149, 0.605, 0
683196, 0.317, -3.43, -0.732, -0.567, 0.161, 0.607, 1
683216, 0.41, -3.214, -0.64, -0.453, 0.084, 0.495, 1
683236, 0.573, -3.322, -0.544, -0.35, -0.001, 0.43, 1
683256, 0.2, -3.352, -0.533, -0.238, 0.036, 0.387, 1
683276, -0.113, -3.5, -0.525, -0.158, 0.109, 0.39, 1
683296, -0.089, -3.941, -0.497, -0.201, 0.191, 0.418, 1
683316, -0.111, -3.813, -0.209, -0.27, 0.172, 0.394, 1
683336, -0.449, -3.653, 0.313, -0.145, 0.069, 0.363, 1
683356, -0.977, -3.533, 0.546, 0.022, -0.029, 0.431, 1
683376, -1.443, -3.426, 0.961, 0.276, -0.134, 0.621, 1
683396, -1.523, -3.597, 1.344, 0.569, -0.362, 0.878, 1
683416, -2.025, -4.296, 1.415, 0.712, -0.531, 0.952, 1
683436, -2.693, -4.598, 1.53, 0.744, -0.652, 0.904, 1
683456, -3.363, -4.379, 1.695, 0.835, -0.802, 1.004, 1
683476, -3.375, -4.044, 1.814, 1.123, -1.095, 1.378, 1
683496, -3.09, -4.157, 1.64, 1.521, -1.495, 1.733, 1
683516, -3.445, -5.195, 1.091, 1.654, -1.696, 1.782, 1
683536, -3.623, -6.166, 0.407, 1.455, -1.634, 1.722, 1
683556, -2.886, -6.355, -0.164, 1.111, -1.582, 1.816, 1
683576, -2.786, -5.376, -0.113, 1.03, -1.387, 2.059, 1
683596, -2.649, -4.437, 0.057, 1.315, -1.046, 2.647, 1
683616, 0.529, -4.742, -1.485, 1.435, -0.926, 2.508, 1
683636, 0.891, -5.99, -1.692, 0.932, -1.119, 1.884, 1
683656, 0.164, -3.945, -1.37, 0.505, -1.342, 1.334, 1
683676, -0.888, -2.164, -0.967, 0.497, -1.459, 1.371, 1
683696, -0.803, -1.801, -0.89, 0.831, -1.351, 1.869, 1
683716, 0.839, -1.994, -1.072, 1.238, -1.207, 2.309, 1
683736, 1.229, -2.8, -1.621, 1.384, -1.281, 2.16, 1
683756, 0.934, -2.105, -1.696, 0.906, -1.419, 1.337, 1
683776, -0.256, -0.281, -1.266, 0.386, -1.643, 0.864, 1
683796, -1.291, 0.952, -0.925, 0.296, -1.709, 1.06, 1
683816, -0.793, 0.783, -0.98, 0.645, -1.442, 1.645, 1
683836, 0.254, -0.221, -1.023, 0.993, -1.184, 1.891, 1
683856, 0.632, -1.217, -1.173, 0.8, -1.201, 1.464, 1
683876, 0.878, -0.528, -0.783, 0.204, -1.543, 0.803, 1
683896, 0.229, 0.739, -0.437, -0.147, -2.186, 0.439, 1
683916, -0.78, 1.571, -0.374, 0.091, -2.489, 0.588, 1
683936, -0.735, 1.3, -0.421, 0.711, -2.287, 0.973, 1
683956, -0.081, 0.466, -0.447, 1.28, -2.142, 1.24, 1
683976, -0.348, -1.309, -1.169, 1.326, -2.101, 1.2, 1
683996, -0.279, -1.292, -1.841, 0.864, -1.639, 1.137, 1
684016, 0.636, -0.827, -1.784, 0.58, -1.103, 1.309, 1
684036, 1.372, -0.669, -1.505, 0.544, -0.957, 1.296, 1
684056, 1.415, -0.61, -1.163, 0.546, -1.094, 1.083, 1
684076, 1.173, -0.048, -0.943, 0.568, -1.263, 0.988, 1
684096, 0.9, -0.293, -1.241, 0.888, -1.087, 1.162, 1
684116, 1.145, -1.031, -1.6, 0.815, -0.86, 1.001, 1
684136, 1.44, -1.142, -1.766, 0.507, -0.724, 0.748, 1
684156, 1.441, -0.886, -1.844, 0.284, -0.642, 0.695, 1
684176, 1.442, -0.516, -1.726, 0.255, -0.478, 0.694, 1
684196, 1.601, -0.515, -1.626, 0.275, -0.32, 0.598, 1
684216, 1.598, -0.521, -1.5, 0.23, -0.208, 0.454, 1
684236, 1.558, -0.626, -1.483, 0.084, -0.111, 0.335, 1
684256, 1.351, -0.624, -1.424, -0.091, 0.028, 0.261, 1
684276, 1.115, -0.455, -1.207, -0.153, 0.189, 0.222, 1
684296, 1.004, -0.405, -0.943, -0.121, 0.329, 0.141, 1
684316, 0.839, -0.386, -0.665, -0.114, 0.39, 0.053, 1
684336, 0.648, -0.307, -0.418, -0.152, 0.35, -0.031, 1
684356, 0.241, -0.041, -0.23, -0.187, 0.285, -0.097, 1
684376, -0.125, 0.118, -0.064, -0.217, 0.24, -0.105, 1
684396, -0.334, 0.164, 0.025, -0.231, 0.212, -0.101, 1
684416, -0.45, 0.224, 0.101, -0.245, 0.201, -0.075, 1
684436, -0.352, 0.287, 0.2, -0.197, 0.167, -0.042, 1
684456, -0.272, 0.1, 0.106, -0.171, 0.118, -0.038, 1
684476, -0.194, -0.121, -0.091, -0.231, 0.083, -0.071, 1
684496, -0.303, -0.233, -0.226, -0.365, 0.101, -0.127, 1
684516, -0.283, -0.259, -0.477, -0.492, 0.219, -0.167, 1
684536, 0.113, -0.022, -0.44, -0.409, 0.259, -0.196, 1
684556, 0.764, 0.096, -0.336, -0.106, 0.013, -0.288, 1
684576, 0.889, -0.509, -0.618, -0.15, -0.211, -0.318, 1
684596, 1.168, -1.459, -2.688, -0.767, 0.041, -0.274, 0
684616, 1.367, -0.75, -2.972, -0.962, 0.412, -0.433, 0
684636, 1.329, -0.658, -2.976, -0.736, 0.797, -0.521, 0
684656, 1.334, -0.98, -2.722, -0.615, 1.115, -0.583, 0
684676, 1.635, -1.096, -2.473, -0.7, 1.184, -0.601, 0
684696, 1.528, -1.522, -2.81, -0.884, 1.063, -0.663, 0
684716, 1.025, -1.697, -3.215, -1.15, 1.141, -0.781, 0
684736, 1.277, -1.891, -3.3, -1.306, 1.438, -0.915, 0
684756, 1.379, -1.974, -3.284, -1.324, 1.65, -1.149, 0
684776, 1.235, -2.333, -3.585, -1.339, 1.809, -1.389, 0
684796, 1.284, -2.466, -3.757, -1.43, 1.973, -1.57, 0
684816, 0.341, -2.199, -3.611, -1.515, 2.174, -1.777, 0
684836, -0.206, -1.992, -3.247, -1.558, 2.543, -1.885, 0
684856, 0.037, -2.879, -3.28, -1.616, 2.809, -1.992, 0
684876, -0.181, -3.311, -3.208, -1.729, 2.948, -2.249, 0
684896, -0.347, -3.735, -2.943, -1.941, 3.058, -2.532, 0
684916, -0.897, -3.424, -2.055, -2.047, 3.091, -2.773, 0
684936, -1.531, -4.011, -1.497, -1.963, 3.053, -2.867, 0
684956, -2.247, -5.072, -1.112, -1.98, 3.024, -2.976, 0
684976, -2.523, -5.634, -0.356, -1.997, 2.897, -3.139, 0
684996, -2.94, -6.659, 0.193, -1.976, 2.541, -3.286, 0
685016, -3.756, -6.773, 0.842, -2.034, 2.12, -3.335, 0
685036, -4.782, -6.507, 1.324, -1.979, 1.841, -3.185, 0
685056, -5.515, -5.78, 1.74, -1.805, 1.773, -2.754, 0
685076, -5.742, -5.102, 1.965, -1.35, 1.719, -2.409, 0
685096, -5.649, -4.858, 2.001, -1.162, 1.525, -2.071, 0
685116, -5.66, -4.304, 2.003, -1.063, 1.31, -1.734, 0
685136, -5.213, -3.434, 2.301, -0.905, 0.958, -1.347, 0
685156, -4.842, -3.089, 2.276, -0.706, 0.586, -0.94, 0
685176, -4.242, -2.787, 1.844, -0.498, 0.346, -0.58, 0
685196, -3.34, -2.684, 1.392, -0.332, 0.158, -0.295, 0
685216, -2.707, -2.99, 0.849, -0.325, 0.064, -0.16, 0
685236, -2.054, -2.903, 0.426, -0.324, 0.017, 0.028, 0
685256, -1.219, -2.805, 0.118, -0.278, 0.011, 0.161, 0
685276, -0.462, -2.854, -0.085, -0.203, -0.043, 0.233, 0
685296, -0.044, -2.658, -0.03, -0.067, -0.113, 0.323, 0
685316, -0.036, -2.932, -0.125, 0.045, -0.156, 0.388, 0
685336, 0.1, -3.411, -0.474, -0.061, -0.164, 0.314, 0
685356, 0.336, -3.282, -0.631, -0.232, -0.276, 0.343, 1
685376, 0.409, -3.191, -0.716, -0.37, -0.273, 0.436, 1
685396, -0.261, -2.817, -0.794, -0.343, -0.157, 0.478, 1
685416, -0.53, -2.797, -0.712, -0.223, 0.1, 0.478, 1
685436, -0.151, -3.179, -0.514, -0.163, 0.211, 0.47, 1
685456, 0.033, -3.198, -0.283, -0.16, 0.124, 0.43, 1
685476, -0.105, -3.26, 0.072, -0.142, -0.05, 0.365, 1
685496, -0.544, -3.124, 0.355, -0.062, -0.167, 0.346, 1
685516, -0.931, -3.212, 0.449, 0.057, -0.221, 0.423, 1
685536, -1.364, -3.368, 0.565, 0.147, -0.225, 0.479, 1
685556, -2.023, -3.335, 0.801, 0.268, -0.317, 0.64, 1
685576, -2.553, -3.572, 1.055, 0.395, -0.53, 0.864, 1
685596, -2.938, -3.83, 1.059, 0.497, -0.726, 1.013, 1
685616, -3.295, -3.964, 1.197, 0.583, -0.94, 1.166, 1
685636, -3.934, -4.064, 1.33, 0.742, -1.072, 1.391, 1
685656, -3.58, -4.611, 1.055, 1.001, -1.19, 1.766, 1
685676, -3.208, -5.425, 0.656, 1.212, -1.293, 2.021, 1
685696, -2.535, -6.17, 0.442, 1.229, -1.481, 2.1, 1
685716, -2.564, -6.274, 0.423, 1.048, -1.769, 1.946, 1
685736, -2.435, -5.543, 0.133, 0.961, -1.979, 2.051, 1
685756, -2.289, -5.061, -0.261, 1.202, -1.746, 2.49, 1
685776, -1.152, -5.385, -0.243, 1.561, -1.376, 2.698, 1
685796, -0.307, -5.294, -0.193, 1.521, -1.482, 2.273, 1
685816, -0.218, -3.694, -0.388, 1.29, -1.97, 2.031, 1
685836, -1.179, -2.665, -1.018, 1.407, -1.977, 2.324, 1
685856, -0.214, -2.624, -1.272, 1.624, -1.53, 2.475, 1
685876, 0.556, -2.793, -1.327, 1.592, -1.379, 2.233, 1
685896, 0.678, -2.135, -1.732, 1.305, -1.387, 1.878, 1
685916, 0.659, -1.275, -2.084, 1.249, -1.05, 1.905, 1
685936, 1.698, -0.83, -1.952, 1.374, -0.662, 1.836, 1
685956, 2.547, -0.597, -1.591, 1.269, -1.014, 1.577, 1
685976, 1.594, 0.331, -1.26, 0.937, -1.935, 1.211, 1
685996, -0.169, 1.069, -1.366, 0.775, -2.515, 1.045, 1
686016, -1.359, 1.131, -1.937, 0.943, -2.196, 1.241, 1
686036, -0.62, 0.303, -2.181, 1.12, -1.348, 1.448, 1
686056, 0.907, 0.012, -1.876, 0.862, -1.223, 1.31, 1
686076, 1.033, 0.294, -1.506, 0.547, -1.746, 1.112, 1
686096, 0.145, 0.828, -1.219, 0.41, -2.03, 1.037, 1
686116, -0.555, 1.354, -1.118, 0.563, -1.924, 1.222, 1
686136, -0.241, 0.946, -1.291, 0.857, -1.672, 1.463, 1
686156, 0.361, 0.019, -1.351, 0.962, -1.442, 1.459, 1
686176, 0.785, -1.062, -1.75, 0.647, -1.213, 1.186, 1
686196, 1.089, -1.223, -2.197, 0.251, -0.929, 1.097, 1
686216, 1.412, -0.774, -2.159, 0.189, -0.587, 1.145, 1
686236, 2.016, -1.116, -2.02, 0.263, -0.37, 1.052, 1
686256, 2.39, -1.379, -1.793, 0.193, -0.352, 0.886, 1
686276, 2.355, -1.27, -1.444, 0.009, -0.432, 0.684, 1
686296, 1.865, -0.859, -1.06, -0.128, -0.412, 0.53, 1
686316, 1.326, -0.305, -0.684, -0.145, -0.277, 0.483, 1
686336, 1.009, -0.033, -0.359, -0.071, -0.125, 0.485, 1
686356, 1.027, -0.069, -0.222, -0.048, -0.075, 0.485, 1
686376, 1.033, -0.296, -0.247, -0.078, -0.061, 0.43, 1
686396, 1.128, -0.457, -0.442, -0.142, -0.048, 0.364, 1
686416, 1.031, -0.401, -0.488, -0.161, -0.012, 0.284, 1
686436, 0.863, -0.302, -0.512, -0.158, -0.004, 0.213, 1
686456, 0.5, -0.227, -0.454, -0.153, 0.026, 0.171, 1
686476, 0.231, -0.161, -0.456, -0.155, 0.136, 0.17, 1
686496, 0.22, -0.147, -0.431, -0.146, 0.209, 0.162, 1
686516, 0.274, -0.111, -0.334, -0.149, 0.181, 0.099, 1
686536, 0.147, -0.102, -0.357, -0.204, 0.147, 0.035, 1
686556, 0.068, 0.049, -0.195, -0.192, 0.123, 0.018, 1
686576, -0.007, -0.17, -0.312, -0.175, 0.085, -0.038, 1
686596, -0.048, -0.227, -0.453, -0.252, 0.109, -0.136, 1
686616, 0.296, -0.058, -0.526, -0.235, 0.188, -0.2, 1
686636, 0.477, -0.486, -1.126, -0.105, 0.215, -0.28, 1
686656, 0.666, -0.424, -1.471, -0.114, 0.347, -0.458, 1
686676, 1.011, -0.817, -1.8, -0.062, 0.437, -0.436, 1
686696, 1.457, -1.679, -2.398, -0.114, 0.588, -0.58, 0
686716, 1.749, -1.42, -2.744, -0.374, 0.823, -0.805, 0
686736, 2.024, -1.679, -3.159, -0.521, 0.881, -0.941, 0
686756, 1.766, -1.3, -3.21, -0.675, 0.96, -1.127, 0
686776, 1.558, -1.177, -3.221, -0.671, 1.189, -1.133, 0
686796, 1.559, -1.896, -3.916, -0.744, 1.459, -1.166, 0
686816, 1.778, -2.328, -4.488, -1.073, 1.635, -1.262, 0
686836, 1.751, -2.765, -4.872, -1.35, 1.847, -1.478, 0
686856, 1.648, -2.772, -4.846, -1.47, 2.189, -1.759, 0
686876, 1.563, -2.749, -4.558, -1.414, 2.51, -1.908, 0
686896, 1.09, -3.264, -4.486, -1.312, 2.834, -2.192, 0
686916, 0.761, -3.696, -4.197, -1.371, 3.154, -2.474, 0
686936, 0.51, -3.453, -3.444, -1.568, 3.176, -2.915, 0
686956, -0.97, -3.609, -3.016, -1.693, 2.993, -3.249, 0
686976, -1.651, -4.225, -2.588, -1.796, 2.877, -3.437, 0
686996, -3.078, -4.656, -1.81, -1.879, 2.727, -3.685, 0
687016, -4.022, -5.256, -0.968, -1.832, 2.597, -3.844, 0
687036, -4.573, -6.769, -0.805, -1.902, 2.216, -3.703, 0
687056, -4.456, -7.403, -0.261, -2.043, 1.933, -3.626, 0
687076, -4.606, -7.204, 0.447, -2.138, 1.641, -3.536, 0
687096, -4.642, -6.529, 1.182, -2.002, 1.258, -3.307, 0
687116, -4.929, -6.091, 1.326, -1.828, 1.063, -2.919, 0
687136, -5.562, -5.229, 1.619, -1.556, 1.158, -2.502, 0
687156, -5.336, -4.434, 1.879, -1.235, 1.269, -2.067, 0
687176, -4.429, -4.498, 1.794, -1.103, 1.112, -1.652, 0
687196, -3.923, -3.742, 1.933, -0.999, 0.861, -1.415, 0
687216, -3.88, -3.242, 1.992, -0.834, 0.61, -1.115, 0
687236, -3.576, -3.056, 1.779, -0.703, 0.5, -0.799, 0
687256, -2.872, -2.867, 1.431, -0.566, 0.401, -0.589, 0
687276, -2.464, -2.7, 1.121, -0.467, 0.304, -0.464, 0
687296, -2.201, -2.342, 1.092, -0.326, 0.186, -0.259, 0
687316, -2.133, -2.314, 0.938, -0.168, 0.058, -0.03, 0
687336, -2.003, -2.559, 0.54, -0.122, 0.006, 0.122, 0
687356, -1.282, -2.697, 0.078, -0.188, -0.053, 0.231, 0
687376, -0.283, -3.021, -0.412, -0.28, -0.144, 0.28, 0
687396, 0.47, -2.804, -0.463, -0.298, -0.226, 0.28, 0
687416, 0.755, -2.676, -0.613, -0.226, -0.26, 0.306, 1
687436, 0.45, -2.567, -0.667, -0.167, -0.186, 0.299, 1
687456, -0.076, -2.653, -0.655, -0.143, -0.042, 0.345, 1
687476, -0.29, -2.977, -1.039, -0.251, 0.163, 0.405, 1
687496, -0.116, -2.526, -0.816, -0.309, 0.175, 0.443, 1
687516, -0.025, -2.3, -0.067, -0.087, -0.082, 0.445, 1
687536, -1.078, -2.466, 0.107, 0.069, -0.102, 0.491, 1
687556, -1.089, -3.23, 0.2, 0.196, -0.142, 0.525, 1
687576, -0.707, -3.415, 0.098, 0.177, -0.226, 0.547, 1
687596, -0.878, -3.363, 0.142, 0.158, -0.35, 0.576, 1
687616, -1.569, -3.035, 0.389, 0.212, -0.37, 0.555, 1
687636, -2.492, -2.812, 0.802, 0.361, -0.321, 0.651, 1
687656, -2.766, -2.801, 1.051, 0.554, -0.378, 0.924, 1
687676, -2.575, -3.109, 0.976, 0.82, -0.604, 1.306, 1
687696, -2.29, -3.76, 0.877, 1.131, -0.931, 1.646, 1
687716, -2.963, -4.965, 0.439, 1.216, -1.149, 1.729, 1
687736, -3.47, -4.94, 0.384, 1.107, -1.043, 1.674, 1
687756, -3.023, -4.61, 0.395, 1.111, -0.899, 1.897, 1
