timestamp, accX, accY, accZ, gyroX, gyroY, gyroZ, button
1029, -1.4322344322344323, -0.03296703296703297, -0.6166056166056166, -0.53125, 0.46875, 0.25, 0.0
1030, -1.3992673992673992, -0.0757020757020757, -0.47496947496947495, -0.59375, 0.46875, 0.28125, 0.0
1031, -1.5604395604395604, -0.2222222222222222, -0.31135531135531136, -0.65625, 0.40625, 0.28125, 0.0
1032, -1.7057387057387057, -0.14896214896214896, 0.040293040293040296, -0.71875, 0.375, 0.375, 0.0
1, -1.7155067155067154, -0.18803418803418803, 0.2686202686202686, -0.59375, 0.40625, 0.5, 0.0
2, -1.7667887667887667, -0.28205128205128205, 0.32234432234432236, -0.5, 0.46875, 0.625, 0.0
3, -1.6434676434676434, -0.31013431013431014, 0.46642246642246643, -0.46875, 0.59375, 0.71875, 0.0
4, -1.5543345543345544, -0.22832722832722832, 0.5677655677655677, -0.4375, 0.625, 0.84375, 0.0
5, -1.6092796092796093, -0.2271062271062271, 0.7826617826617827, -0.40625, 0.65625, 0.90625, 0.0
6, -1.619047619047619, -0.0989010989010989, 0.9658119658119658, -0.375, 0.71875, 1.03125, 0.0
7, -1.0879120879120878, -0.304029304029304, 0.8351648351648352, -0.28125, 0.71875, 1.125, 0.0
8, -0.14163614163614163, -0.8791208791208791, 0.6056166056166056, -0.34375, 0.5, 1.09375, 0.0
9, -0.0927960927960928, -0.6471306471306472, 0.7142857142857143, -0.46875, 0.125, 0.9375, 0.0
10, -0.6532356532356532, -0.4358974358974359, 0.9401709401709402, -0.40625, 0.0625, 0.90625, 0.0
11, 0.25274725274725274, -0.9072039072039072, 0.6385836385836385, -0.25, 0.25, 1.0, 0.0
12, 0.702075702075702, -1.0427350427350428, 0.5482295482295483, -0.25, 0.125, 1.03125, 0.0
13, 0.26373626373626374, -0.6996336996336996, 0.6642246642246642, -0.25, 0.0, 0.9375, 0.0
14, -0.05982905982905983, -0.38583638583638585, 0.8986568986568987, -0.1875, 0.09375, 0.9375, 0.0
15, 0.10866910866910867, -0.1684981684981685, 1.098901098901099, -0.125, 0.21875, 0.96875, 0.0
16, -0.3076923076923077, 0.1330891330891331, 1.3333333333333333, -0.09375, 0.15625, 0.875, 0.0
17, -0.18925518925518925, 0.24053724053724054, 0.9413919413919414, -0.03125, 0.03125, 0.90625, 0.0
18, -0.16605616605616605, -0.12576312576312576, 0.4139194139194139, 0.03125, 0.03125, 1.09375, 0.0
19, -0.1978021978021978, 0.11721611721611722, 0.4175824175824176, 0.0625, 0.34375, 1.25, 0.0
20, -0.3663003663003663, 0.42246642246642246, 0.7057387057387058, 0.1875, 0.71875, 1.40625, 0.0
21, -0.27594627594627597, 0.4603174603174603, 0.7985347985347986, 0.34375, 1.09375, 1.625, 0.0
22, 1.9145299145299146, -0.19536019536019536, 0.43956043956043955, 0.15625, 0.40625, 1.28125, 0.0
23, 2.0720390720390722, -0.4884004884004884, -0.14896214896214896, 0.0625, -0.1875, 0.9375, 0.0
24, 0.3076923076923077, 0.05128205128205128, -0.6959706959706959, 0.15625, 0.15625, 0.8125, 0.0
25, -0.43345543345543347, 0.36752136752136755, -0.6324786324786325, 0.28125, 0.84375, 1.03125, 0.0
26, 0.2026862026862027, 0.17094017094017094, -0.46764346764346765, 0.25, 1.09375, 1.15625, 0.0
27, 0.6923076923076923, -0.06471306471306472, -0.23565323565323565, 0.03125, 0.71875, 1.1875, 0.0
28, -0.3052503052503053, 0.7704517704517705, 0.07203907203907203, 0.0, 0.59375, 1.03125, 0.0
29, -1.708180708180708, 1.7496947496947497, 0.026862026862026864, 0.15625, 0.8125, 1.15625, 0.0
30, -2.851037851037851, 1.4554334554334554, 0.0989010989010989, 0.15625, 1.1875, 1.5625, 0.0
31, -3.597069597069597, 1.5274725274725274, 0.7045177045177046, 0.21875, 1.78125, 2.15625, 0.0
32, -3.8522588522588523, 1.6764346764346765, 1.2698412698412698, 0.5625, 2.5, 2.6875, 0.0
33, -4.921855921855922, 2.6984126984126986, 1.1233211233211233, 1.21875, 3.5, 3.0, 0.0
34, -6.803418803418803, 2.6373626373626373, 1.1733821733821734, 1.875, 5.09375, 3.65625, 0.0
35, -8.167277167277167, 1.2893772893772895, 1.0195360195360195, 2.46875, 7.25, 4.78125, 0.0
36, -7.111111111111111, -1.595848595848596, 0.7997557997557998, 2.25, 9.0, 5.75, 0.0
37, -2.965811965811966, -3.7045177045177047, 0.3894993894993895, 1.34375, 9.4375, 5.90625, 0.0
38, 1.4285714285714286, -5.537240537240537, -0.19413919413919414, -0.125, 8.375, 5.3125, 0.0
39, 2.9621489621489623, -6.018315018315018, 0.38461538461538464, -1.59375, 6.8125, 4.34375, 0.0
40, 1.636141636141636, -4.805860805860806, 2.343101343101343, -2.34375, 5.71875, 3.4375, 0.0
41, 1.0647130647130647, -3.2466422466422467, 4.528693528693529, -2.1875, 4.6875, 2.875, 0.0
42, 1.763125763125763, -1.380952380952381, 5.495726495726496, -1.25, 3.53125, 2.5, 0.0
43, 1.6422466422466422, -1.7557997557997558, 5.113553113553113, -0.34375, 2.53125, 2.0, 0.0
44, 0.7655677655677655, -2.155067155067155, 3.9145299145299144, 0.0625, 2.21875, 1.5625, 0.0
45, 0.6666666666666666, -1.9902319902319903, 2.916971916971917, 0.34375, 2.53125, 0.8125, 0.0
46, -0.3333333333333333, -0.536019536019536, 2.868131868131868, 0.4375, 2.5625, 0.625, 0.0
47, -0.9438339438339438, 0.12454212454212454, 2.4957264957264957, 0.625, 2.40625, 0.71875, 0.0
48, 0.003663003663003663, -0.017094017094017096, 2.1196581196581197, 0.875, 2.15625, 0.78125, 0.0
49, 0.20512820512820512, -0.5763125763125763, 1.4822954822954824, 0.78125, 1.78125, 0.8125, 0.0
50, 0.8205128205128205, -0.6178266178266179, 1.6642246642246643, 0.5625, 1.625, 0.75, 0.0
51, 1.7057387057387057, -0.724053724053724, 2.2612942612942613, 0.5625, 1.53125, 0.59375, 0.0
52, 2.3211233211233213, -0.6214896214896215, 2.6117216117216118, 0.75, 1.25, 0.4375, 0.0
53, 2.0146520146520146, -0.684981684981685, 2.122100122100122, 1.03125, 0.75, 0.21875, 0.0
54, 1.8827838827838828, -0.7887667887667887, 1.468864468864469, 1.21875, 0.4375, 0.03125, 0.0
55, 2.0134310134310134, -1.9206349206349207, 1.4188034188034189, 1.1875, 0.3125, 0.0, 0.0
56, 2.2783882783882783, -1.8998778998778998, 2.120879120879121, 1.03125, 0.5, 0.0, 0.0
57, 3.4932844932844933, -1.993894993894994, 2.844932844932845, 1.21875, 0.625, -0.125, 0.0
58, 3.6996336996337, -2.225885225885226, 3.2576312576312576, 1.5625, 0.125, -0.40625, 0.0
59, 2.3785103785103785, -2.2564102564102564, 3.0463980463980462, 1.84375, -0.375, -0.6875, 0.0
60, 2.312576312576313, -2.8180708180708183, 2.4725274725274726, 2.1875, -0.1875, -0.65625, 0.0
61, 3.0244200244200243, -3.807081807081807, 2.404151404151404, 2.46875, 0.28125, -0.75, 0.0
62, -5.052503052503052, -4.2173382173382175, -3.264957264957265, -1.09375, -0.84375, 1.75, 0.0
63, -4.275946275946276, -4.472527472527473, -2.4297924297924296, -1.25, -0.6875, 2.09375, 0.0
64, -3.989010989010989, -4.752136752136752, -2.172161172161172, -1.1875, -0.625, 2.375, 0.0
65, -5.0366300366300365, -5.037851037851038, -2.462759462759463, -1.21875, -1.03125, 2.59375, 0.0
66, -5.7313797313797314, -5.96947496947497, -2.376068376068376, -1.34375, -1.46875, 3.0625, 0.0
67, -5.798534798534798, -6.996336996336996, -1.9438339438339438, -1.46875, -1.8125, 3.5625, 0.0
68, -5.072039072039072, -8.372405372405373, -1.4896214896214897, -1.40625, -1.96875, 3.90625, 0.0
69, -3.484737484737485, -10.136752136752136, -1.0256410256410255, -1.5, -2.625, 3.90625, 0.0
70, -1.5811965811965811, -11.49084249084249, -0.32967032967032966, -1.71875, -3.59375, 4.0, 0.0
71, -2.2954822954822953, -10.777777777777779, 0.3553113553113553, -1.625, -4.15625, 3.90625, 0.0
72, -3.509157509157509, -8.01953601953602, 0.21123321123321123, -1.15625, -3.53125, 4.25, 0.0
73, -3.2454212454212454, -4.240537240537241, -0.1794871794871795, -0.59375, -2.3125, 4.5, 0.0
74, 3.283272283272283, -1.9914529914529915, 0.37606837606837606, -0.46875, -2.15625, 4.15625, 0.0
75, 6.523809523809524, -2.137973137973138, 1.6275946275946276, -1.28125, -5.53125, 3.6875, 0.0
76, 2.827838827838828, -0.4065934065934066, 2.04029304029304, -1.125, -7.78125, 3.5, 0.0
77, -1.4932844932844933, 0.7863247863247863, 1.0183150183150182, 0.03125, -7.03125, 3.09375, 0.0
78, -3.84004884004884, 0.20634920634920634, -0.045177045177045176, 1.15625, -5.03125, 3.3125, 0.0
79, -0.08180708180708181, -1.1855921855921856, -0.8083028083028083, 1.75, -3.4375, 3.3125, 0.0
80, 4.42979242979243, -3.5750915750915753, -0.7423687423687424, 1.625, -4.875, 3.34375, 0.0
81, 1.7362637362637363, -4.197802197802198, -1.4664224664224663, 1.625, -6.4375, 2.5625, 0.0
82, -2.716727716727717, -3.282051282051282, -2.6202686202686203, 1.59375, -5.40625, 1.5625, 0.0
83, -4.388278388278389, -2.47008547008547, -3.098901098901099, 1.625, -2.59375, 2.5, 0.0
84, -1.0915750915750915, -3.7216117216117217, -3.2515262515262515, 2.09375, 0.4375, 3.21875, 0.0
85, 3.2686202686202686, -4.9914529914529915, -3.335775335775336, 1.96875, -0.25, 3.4375, 0.0
86, 5.274725274725275, -5.355311355311355, -3.901098901098901, 1.75, -1.65625, 3.0625, 0.0
87, 4.68986568986569, -4.418803418803419, -4.568986568986569, 1.78125, -1.90625, 2.78125, 0.0
88, 4.4322344322344325, -3.562881562881563, -5.61050061050061, 1.75, -1.21875, 2.625, 0.0
89, 5.218559218559219, -2.7106227106227108, -6.462759462759463, 1.4375, -0.65625, 2.625, 0.0
90, 5.301587301587301, -1.8937728937728937, -6.710622710622711, 1.03125, 0.0, 2.3125, 0.0
91, 5.09035409035409, -1.5787545787545787, -6.37973137973138, 0.40625, 0.71875, 1.96875, 0.0
92, 4.87057387057387, -1.1294261294261294, -5.526251526251526, -0.25, 1.25, 1.875, 0.0
93, 4.222222222222222, -0.9230769230769231, -4.448107448107448, -0.875, 1.5, 1.84375, 0.0
94, 3.5653235653235655, -0.8583638583638583, -2.935286935286935, -1.34375, 1.53125, 1.6875, 0.0
95, 2.9316239316239314, -0.08180708180708181, -1.0586080586080586, -1.3125, 1.71875, 1.46875, 0.0
96, 3.133089133089133, 0.5958485958485958, 0.336996336996337, -0.90625, 1.625, 1.28125, 0.0
97, 3.463980463980464, 0.36507936507936506, 0.7057387057387058, -0.59375, 1.0625, 0.96875, 0.0
98, 3.2612942612942613, 0.20634920634920634, 0.5531135531135531, -0.59375, 0.375, 0.71875, 0.0
99, 2.3687423687423688, 0.1623931623931624, 0.358974358974359, -0.625, 0.0625, 0.53125, 0.0
100, 1.6544566544566544, 0.3956043956043956, 0.23565323565323565, -0.46875, 0.25, 0.4375, 0.0
101, 1.73992673992674, 0.3308913308913309, -0.2844932844932845, -0.3125, 0.40625, 0.53125, 0.0
102, 1.7032967032967032, -0.22466422466422467, -0.4358974358974359, -0.4375, 0.40625, 0.59375, 0.0
103, 1.5702075702075702, -0.31746031746031744, 0.020757020757020756, -0.4375, 0.59375, 0.625, 0.0
104, 1.934065934065934, -0.48595848595848595, 0.2039072039072039, -0.34375, 0.6875, 0.53125, 0.0
105, 2.3675213675213675, -0.5958485958485958, 0.3321123321123321, -0.25, 0.5625, 0.28125, 0.0
106, 2.247863247863248, -0.7081807081807082, 0.16971916971916973, -0.21875, 0.25, 0.03125, 0.0
107, 1.844932844932845, -0.7191697191697192, 0.08913308913308914, -0.21875, 0.0, -0.1875, 0.0
108, 1.115995115995116, -0.5409035409035409, 0.01221001221001221, -0.125, 0.0, -0.40625, 0.0
109, 0.4725274725274725, -0.7423687423687424, -0.30036630036630035, -0.125, 0.0625, -0.53125, 0.0
110, 0.014652014652014652, -0.5445665445665445, -0.5177045177045178, -0.21875, 0.03125, -0.4375, 0.0
111, 0.09401709401709402, -0.6813186813186813, -0.4822954822954823, -0.34375, 0.03125, -0.40625, 0.0
112, -0.22466422466422467, -0.3992673992673993, -0.07448107448107448, -0.46875, 0.0, -0.375, 0.0
113, -0.326007326007326, -0.14163614163614163, 0.42735042735042733, -0.375, 0.15625, -0.375, 0.0
114, -0.17704517704517705, -0.17338217338217338, 0.5494505494505495, -0.21875, 0.28125, -0.34375, 0.0
115, -0.07814407814407814, -0.3504273504273504, 0.3882783882783883, -0.15625, 0.21875, -0.375, 0.0
116, -0.3553113553113553, -0.28083028083028083, 0.2796092796092796, -0.25, 0.0, -0.40625, 0.0
117, -0.43956043956043955, -0.004884004884004884, 0.44932844932844934, -0.34375, -0.09375, -0.40625, 0.0
118, -0.42246642246642246, 0.19658119658119658, 0.6251526251526252, -0.28125, -0.15625, -0.40625, 0.0
119, -0.4590964590964591, 0.15262515262515264, 0.5702075702075702, -0.15625, -0.21875, -0.375, 0.0
120, -0.6227106227106227, 0.09035409035409035, 0.35653235653235654, -0.125, -0.28125, -0.25, 0.0
121, -0.44078144078144077, 0.047619047619047616, 0.39194139194139194, -0.09375, -0.21875, -0.25, 0.0
122, -0.18803418803418803, -0.0231990231990232, 0.20512820512820512, -0.0625, -0.125, -0.25, 0.0
123, -0.11843711843711843, 0.07692307692307693, 0.17216117216117216, -0.0625, -0.1875, -0.1875, 0.0
124, -0.12942612942612944, 0.1514041514041514, 0.1343101343101343, 0.0, -0.125, -0.1875, 0.0
125, 0.05616605616605617, -0.20757020757020758, -0.1794871794871795, 0.0, -0.125, -0.09375, 0.0
126, 0.03296703296703297, -0.07814407814407814, -0.1111111111111111, -0.0625, -0.15625, -0.0625, 0.0
127, 0.013431013431013432, -0.057387057387057384, -0.05860805860805861, -0.03125, -0.125, 0.0, 0.0
128, 0.42735042735042733, -0.2625152625152625, -0.14407814407814407, -0.03125, -0.15625, 0.0, 0.0
129, 0.19413919413919414, -0.09523809523809523, -0.14285714285714285, -0.09375, -0.28125, -0.03125, 0.0
130, -0.21123321123321123, -0.008547008547008548, -0.17094017094017094, -0.09375, -0.25, -0.09375, 0.0
131, 0.04884004884004884, -0.10378510378510379, -0.19536019536019536, -0.0625, -0.09375, -0.03125, 0.0
132, 0.02564102564102564, -0.05616605616605617, -0.052503052503052504, -0.0625, -0.0625, 0.0, 0.0
133, -0.06105006105006105, 0.018315018315018316, 0.04884004884004884, 0.0, 0.0, 0.0, 0.0
134, 0.03540903540903541, 0.018315018315018316, -0.001221001221001221, 0.0, 0.0625, 0.125, 0.0
135, 0.14896214896214896, -0.15506715506715507, -0.1684981684981685, -0.03125, 0.0, 0.1875, 0.0
136, 0.49572649572649574, -0.33943833943833945, -0.08180708180708181, -0.125, -0.125, 0.125, 0.0
137, 0.21245421245421245, -0.0989010989010989, 0.09157509157509157, -0.09375, -0.125, 0.125, 0.0
138, 0.03907203907203907, -0.05372405372405373, 0.04151404151404151, -0.03125, 0.0, 0.15625, 0.0
139, 0.02564102564102564, -0.1111111111111111, -0.1282051282051282, 0.0, 0.0625, 0.1875, 0.0
140, 0.23443223443223443, -0.20024420024420025, -0.11233211233211234, 0.0, 0.0625, 0.1875, 0.0
141, 0.3125763125763126, -0.2490842490842491, -0.05982905982905983, -0.03125, 0.03125, 0.125, 0.0
142, 0.07081807081807082, -0.25274725274725274, -0.07448107448107448, -0.0625, 0.0625, 0.125, 0.0
143, 0.06227106227106227, -0.199023199023199, -0.05982905982905983, -0.0625, 0.09375, 0.125, 0.0
144, -0.03540903540903541, -0.15384615384615385, -0.10500610500610501, -0.03125, 0.1875, 0.125, 0.0
145, -0.12087912087912088, -0.052503052503052504, -0.06105006105006105, -0.03125, 0.28125, 0.1875, 0.0
146, 0.47741147741147744, -0.2905982905982906, -0.19658119658119658, -0.09375, 0.1875, 0.125, 0.0
147, 0.31135531135531136, -0.21123321123321123, -0.0757020757020757, -0.21875, 0.0, 0.0625, 0.0
148, -0.09157509157509157, 0.10378510378510379, 0.2271062271062271, -0.125, 0.0625, 0.0625, 0.0
149, -0.03296703296703297, -0.003663003663003663, 0.06105006105006105, -0.03125, 0.21875, 0.125, 0.0
150, -0.08547008547008547, -0.0695970695970696, -0.03296703296703297, -0.03125, 0.3125, 0.15625, 0.0
151, -0.43956043956043955, 0.32722832722832723, 0.11721611721611722, 0.09375, 0.53125, 0.28125, 0.0
152, 0.8583638583638583, -0.44932844932844934, -0.14041514041514042, 0.03125, 0.28125, 0.1875, 0.0
153, 0.800976800976801, -0.49572649572649574, -0.24786324786324787, -0.25, -0.1875, -0.03125, 0.0
154, -0.1794871794871795, 0.11477411477411477, 0.17338217338217338, -0.1875, -0.1875, -0.03125, 0.0
155, -0.4835164835164835, 0.1514041514041514, 0.08669108669108669, 0.0, 0.125, 0.09375, 0.0
156, -0.03418803418803419, -0.11721611721611722, -0.115995115995116, 0.0, 0.21875, 0.125, 0.0
157, 0.3308913308913309, -0.27228327228327226, 0.04884004884004884, -0.125, 0.03125, 0.03125, 0.0
158, -0.21367521367521367, 0.0989010989010989, 0.0757020757020757, -0.03125, 0.09375, 0.0625, 0.0
159, -0.03418803418803419, -0.004884004884004884, -0.001221001221001221, 0.0, 0.21875, 0.125, 0.0
160, -0.02197802197802198, -0.006105006105006105, -0.015873015873015872, 0.0, 0.28125, 0.15625, 0.0
161, 0.13553113553113552, -0.09157509157509157, -0.07326007326007326, 0.03125, 0.28125, 0.21875, 0.0
162, 0.23931623931623933, -0.17338217338217338, -0.14896214896214896, 0.0, 0.1875, 0.1875, 0.0
163, 0.031746031746031744, 0.02442002442002442, 0.06227106227106227, -0.0625, 0.0625, 0.125, 0.0
164, -0.07326007326007326, 0.08913308913308914, 0.12698412698412698, 0.0, 0.09375, 0.125, 0.0
165, 0.33455433455433453, -0.199023199023199, -0.028083028083028084, 0.03125, 0.1875, 0.15625, 0.0
166, 0.3894993894993895, -0.3162393162393162, -0.12576312576312576, 0.0, 0.0625, 0.0625, 0.0
167, 0.02197802197802198, -0.07203907203907203, -0.05860805860805861, -0.09375, -0.0625, 0.03125, 0.0
168, -0.23321123321123322, 0.06471306471306472, -0.09523809523809523, -0.0625, 0.0, 0.09375, 0.0
169, -0.3894993894993895, 0.045177045177045176, -0.10744810744810745, -0.03125, 0.1875, 0.1875, 0.0
170, -0.652014652014652, 0.17826617826617827, 0.003663003663003663, 0.03125, 0.46875, 0.40625, 0.0
171, -0.3162393162393162, 0.10012210012210013, 0.007326007326007326, 0.15625, 0.84375, 0.625, 0.0
172, 1.1892551892551892, -0.42002442002442003, -0.12942612942612944, 0.1875, 0.90625, 0.65625, 0.0
173, 1.6373626373626373, -0.7716727716727717, -0.03296703296703297, -0.0625, 0.25, 0.34375, 0.0
174, 0.5934065934065934, -0.1916971916971917, 0.33577533577533575, -0.21875, -0.21875, 0.03125, 0.0
175, -0.007326007326007326, 0.018315018315018316, 0.1807081807081807, -0.125, -0.1875, 0.0, 0.0
176, 0.03418803418803419, -0.1855921855921856, -0.1978021978021978, 0.0, 0.0, 0.03125, 0.0
177, 0.5677655677655677, -0.5067155067155067, -0.398046398046398, -0.0625, 0.0, 0.03125, 0.0
178, 0.5262515262515263, -0.48473748473748474, -0.29914529914529914, -0.25, -0.28125, -0.09375, 0.0
179, -0.1855921855921856, 0.040293040293040296, 0.08669108669108669, -0.375, -0.40625, -0.09375, 0.0
180, -0.315018315018315, 0.15873015873015872, 0.199023199023199, -0.1875, -0.125, 0.0, 0.0
181, -0.020757020757020756, 0.004884004884004884, 0.03907203907203907, 0.0, 0.15625, 0.09375, 0.0
182, 0.3199023199023199, -0.2783882783882784, -0.026862026862026864, -0.0625, 0.0625, 0.0, 0.0
183, 0.16971916971916973, -0.05372405372405373, 0.009768009768009768, -0.0625, 0.0, -0.03125, 0.0
184, -0.02442002442002442, -0.03907203907203907, -0.045177045177045176, -0.0625, 0.0, 0.0, 0.0
185, -0.08791208791208792, -0.08180708180708181, -0.11355311355311355, -0.0625, 0.09375, 0.03125, 0.0
186, -0.03296703296703297, -0.08913308913308914, -0.05128205128205128, -0.0625, 0.15625, 0.0625, 0.0
187, 0.10256410256410256, -0.11965811965811966, 0.01098901098901099, -0.0625, 0.15625, 0.0625, 0.0
188, 0.12576312576312576, -0.12698412698412698, 0.001221001221001221, -0.0625, 0.09375, 0.03125, 0.0
189, -0.030525030525030524, -0.020757020757020756, 0.018315018315018316, -0.0625, 0.09375, 0.03125, 0.0
190, -0.11965811965811966, -0.006105006105006105, -0.03540903540903541, -0.03125, 0.125, 0.09375, 0.0
191, -0.054945054945054944, -0.047619047619047616, -0.04151404151404151, 0.0, 0.21875, 0.125, 0.0
192, -0.019536019536019536, -0.029304029304029304, -0.04395604395604396, 0.0, 0.25, 0.15625, 0.0
193, -0.05616605616605617, -0.031746031746031744, -0.028083028083028084, 0.0, 0.3125, 0.1875, 0.0
194, 0.030525030525030524, -0.050061050061050064, 0.02442002442002442, 0.0, 0.34375, 0.1875, 0.0
195, 0.01221001221001221, 0.026862026862026864, 0.05860805860805861, 0.03125, 0.34375, 0.1875, 0.0
196, -0.026862026862026864, 0.019536019536019536, -0.019536019536019536, 0.09375, 0.375, 0.1875, 0.0
197, 0.0, -0.11355311355311355, -0.16483516483516483, 0.03125, 0.34375, 0.25, 0.0
198, -0.0989010989010989, 0.03540903540903541, -0.13064713064713065, 0.0, 0.34375, 0.3125, 0.0
199, 0.02197802197802198, -0.1111111111111111, -0.15262515262515264, 0.0, 0.375, 0.375, 0.0
200, 0.10989010989010989, -0.05128205128205128, -0.12942612942612944, 0.0, 0.3125, 0.375, 0.0
201, 0.028083028083028084, -0.0695970695970696, -0.08302808302808302, -0.03125, 0.28125, 0.34375, 0.0
202, 0.02442002442002442, -0.07448107448107448, -0.042735042735042736, -0.03125, 0.25, 0.28125, 0.0
203, 0.05982905982905983, -0.09523809523809523, -0.050061050061050064, -0.03125, 0.21875, 0.21875, 0.0
204, 0.14896214896214896, -0.14652014652014653, -0.08913308913308914, -0.03125, 0.125, 0.09375, 0.0
205, 0.07936507936507936, -0.11233211233211234, -0.08669108669108669, -0.0625, 0.0, 0.0, 0.0
206, -0.23076923076923078, -0.054945054945054944, -0.17216117216117216, -0.09375, -0.03125, 0.0, 0.0
207, -0.19047619047619047, -0.040293040293040296, -0.11843711843711843, -0.125, 0.0, 0.0625, 0.0
208, -0.014652014652014652, -0.018315018315018316, 0.007326007326007326, -0.09375, 0.03125, 0.09375, 0.0
209, 0.05860805860805861, -0.07814407814407814, -0.018315018315018316, -0.0625, 0.0625, 0.09375, 0.0
210, 0.21367521367521367, -0.2087912087912088, -0.09645909645909646, -0.125, 0.0, 0.09375, 0.0
211, 0.04884004884004884, -0.08058608058608059, -0.03907203907203907, -0.15625, -0.03125, 0.03125, 0.0
212, -0.002442002442002442, -0.029304029304029304, 0.0, -0.125, 0.0, 0.0, 0.0
213, 0.0, -0.0463980463980464, -0.03418803418803419, -0.0625, 0.0, 0.0, 0.0
214, -0.01098901098901099, -0.03907203907203907, -0.052503052503052504, -0.03125, 0.03125, 0.0, 0.0
215, 0.004884004884004884, -0.05616605616605617, -0.07203907203907203, -0.03125, 0.0625, 0.0, 0.0
216, 0.019536019536019536, -0.1111111111111111, -0.11721611721611722, -0.0625, 0.03125, 0.03125, 0.0
217, -0.007326007326007326, -0.031746031746031744, -0.042735042735042736, -0.09375, 0.0, 0.03125, 0.0
218, -0.002442002442002442, 0.006105006105006105, 0.028083028083028084, -0.09375, 0.0, 0.03125, 0.0
219, 0.014652014652014652, -0.02442002442002442, 0.002442002442002442, -0.0625, 0.03125, 0.0, 0.0
220, 0.007326007326007326, -0.050061050061050064, -0.050061050061050064, -0.0625, 0.0, 0.0, 0.0
221, 0.0, -0.06715506715506715, -0.08302808302808302, -0.0625, 0.0, 0.0, 0.0
222, -0.006105006105006105, -0.06105006105006105, -0.07203907203907203, -0.0625, 0.0, 0.0, 0.0
223, 0.001221001221001221, -0.06105006105006105, -0.07203907203907203, -0.03125, 0.03125, 0.0, 0.0
224, 0.015873015873015872, -0.06105006105006105, -0.08547008547008547, -0.03125, 0.03125, 0.0, 0.0
225, -0.04884004884004884, -0.07203907203907203, -0.10500610500610501, -0.09375, 0.0, 0.03125, 0.0
226, -0.007326007326007326, -0.05616605616605617, -0.042735042735042736, -0.09375, 0.0, 0.03125, 0.0
227, 0.01221001221001221, -0.08424908424908426, -0.08913308913308914, -0.0625, 0.0, 0.0625, 0.0
228, 0.07326007326007326, -0.16971916971916973, -0.1221001221001221, -0.0625, 0.0, 0.0625, 0.0
229, 0.27472527472527475, -0.17826617826617827, -0.11721611721611722, -0.125, 0.0, 0.0, 0.0
230, 0.21367521367521367, -0.15018315018315018, -0.040293040293040296, -0.125, -0.125, -0.0625, 0.0
231, 0.028083028083028084, -0.16483516483516483, -0.10989010989010989, -0.125, -0.15625, -0.09375, 0.0
232, -0.1221001221001221, -0.05128205128205128, -0.0757020757020757, -0.125, -0.09375, -0.0625, 0.0
233, -0.16971916971916973, -0.08913308913308914, -0.11721611721611722, -0.125, 0.0, 0.0, 0.0
234, -0.029304029304029304, -0.08669108669108669, -0.05860805860805861, -0.125, 0.0625, 0.03125, 0.0
235, 0.03663003663003663, -0.0463980463980464, 0.03907203907203907, -0.09375, 0.0625, 0.0625, 0.0
236, -0.001221001221001221, 0.0, 0.0757020757020757, -0.09375, 0.0625, 0.0625, 0.0
237, -0.013431013431013432, 0.018315018315018316, 0.04151404151404151, -0.03125, 0.09375, 0.0625, 0.0
238, -0.003663003663003663, -0.007326007326007326, -0.015873015873015872, -0.03125, 0.125, 0.09375, 0.0
239, 0.002442002442002442, -0.01221001221001221, -0.02442002442002442, -0.03125, 0.125, 0.09375, 0.0
240, 0.013431013431013432, -0.054945054945054944, -0.06471306471306472, -0.03125, 0.125, 0.09375, 0.0
241, 0.006105006105006105, -0.06349206349206349, -0.07448107448107448, -0.03125, 0.09375, 0.0625, 0.0
242, 0.001221001221001221, -0.05982905982905983, -0.0695970695970696, -0.03125, 0.09375, 0.0625, 0.0
243, 0.006105006105006105, -0.06715506715506715, -0.07081807081807082, -0.0625, 0.0625, 0.0625, 0.0
244, 0.01098901098901099, -0.0695970695970696, -0.07692307692307693, -0.0625, 0.03125, 0.0625, 0.0
245, 0.004884004884004884, 0.0, 0.008547008547008548, -0.0625, 0.0625, 0.0625, 0.0
246, 0.007326007326007326, 0.001221001221001221, 0.0, -0.03125, 0.0625, 0.0625, 0.0
247, 0.015873015873015872, -0.06471306471306472, -0.05860805860805861, -0.03125, 0.0625, 0.0625, 0.0
248, 0.026862026862026864, -0.09768009768009768, -0.09768009768009768, -0.0625, 0.03125, 0.0625, 0.0
249, -0.001221001221001221, -0.1111111111111111, -0.11233211233211234, -0.0625, 0.0, 0.03125, 0.0
250, 0.017094017094017096, -0.07448107448107448, -0.0695970695970696, -0.0625, 0.0, 0.0625, 0.0
251, 0.009768009768009768, -0.06593406593406594, -0.06105006105006105, -0.0625, 0.03125, 0.0625, 0.0
252, 0.006105006105006105, -0.05128205128205128, -0.054945054945054944, -0.0625, 0.03125, 0.0625, 0.0
253, 0.015873015873015872, -0.050061050061050064, -0.05372405372405373, -0.0625, 0.03125, 0.09375, 0.0
254, 0.01221001221001221, -0.08791208791208792, -0.10256410256410256, -0.09375, 0.0625, 0.09375, 0.0
255, 0.013431013431013432, -0.06593406593406594, -0.057387057387057384, -0.09375, 0.0625, 0.09375, 0.0
256, 0.02442002442002442, -0.08424908424908426, -0.06837606837606838, -0.09375, 0.0625, 0.09375, 0.0
257, 0.028083028083028084, -0.05860805860805861, -0.0463980463980464, -0.0625, 0.0, 0.0625, 0.0
258, -0.001221001221001221, -0.03663003663003663, -0.05616605616605617, -0.0625, 0.0, 0.0625, 0.0
259, -0.015873015873015872, -0.018315018315018316, -0.09768009768009768, -0.0625, 0.0, 0.0625, 0.0
260, 0.01221001221001221, -0.09523809523809523, -0.1111111111111111, -0.0625, 0.03125, 0.0625, 0.0
261, 0.028083028083028084, -0.08424908424908426, -0.08424908424908426, -0.0625, 0.0625, 0.09375, 0.0
262, 0.054945054945054944, -0.07203907203907203, -0.05128205128205128, -0.0625, 0.0625, 0.0625, 0.0
263, 0.018315018315018316, -0.10378510378510379, -0.12332112332112333, -0.0625, 0.03125, 0.0625, 0.0
264, 0.001221001221001221, -0.09157509157509157, -0.08424908424908426, -0.09375, 0.03125, 0.03125, 0.0
265, -0.007326007326007326, -0.06837606837606838, -0.054945054945054944, -0.09375, 0.03125, 0.03125, 0.0
266, 0.004884004884004884, -0.04395604395604396, -0.031746031746031744, -0.09375, 0.03125, 0.03125, 0.0
267, 0.007326007326007326, -0.03418803418803419, -0.030525030525030524, -0.0625, 0.03125, 0.03125, 0.0
268, 0.002442002442002442, -0.07448107448107448, -0.08791208791208792, -0.0625, 0.03125, 0.03125, 0.0
269, 0.0231990231990232, -0.07692307692307693, -0.07936507936507936, -0.09375, 0.0, 0.03125, 0.0
270, 0.001221001221001221, -0.019536019536019536, -0.07326007326007326, -0.09375, 0.0, 0.03125, 0.0
271, -0.05372405372405373, -0.06471306471306472, -0.09768009768009768, -0.09375, 0.0, 0.03125, 0.0
272, 0.01098901098901099, -0.07936507936507936, -0.08058608058608059, -0.09375, 0.03125, 0.03125, 0.0
273, 0.015873015873015872, -0.05616605616605617, -0.03540903540903541, -0.09375, 0.03125, 0.0625, 0.0
274, 0.001221001221001221, -0.040293040293040296, -0.040293040293040296, -0.09375, 0.03125, 0.03125, 0.0
275, -0.002442002442002442, -0.042735042735042736, -0.02564102564102564, -0.09375, 0.03125, 0.03125, 0.0
276, 0.01221001221001221, -0.09035409035409035, -0.08424908424908426, -0.09375, 0.03125, 0.03125, 0.0
277, 0.013431013431013432, -0.09523809523809523, -0.09035409035409035, -0.125, 0.0, 0.0625, 0.0
278, 0.007326007326007326, -0.06349206349206349, -0.042735042735042736, -0.125, 0.0, 0.0625, 0.0
279, 0.001221001221001221, -0.029304029304029304, -0.026862026862026864, -0.09375, 0.03125, 0.0625, 0.0
280, 0.001221001221001221, -0.019536019536019536, -0.018315018315018316, -0.09375, 0.03125, 0.0625, 0.0
281, 0.009768009768009768, -0.03418803418803419, -0.030525030525030524, -0.0625, 0.0625, 0.0625, 0.0
282, 0.0, -0.05616605616605617, -0.05860805860805861, -0.09375, 0.0625, 0.03125, 0.0
283, 0.017094017094017096, -0.05860805860805861, -0.05982905982905983, -0.0625, 0.03125, 0.03125, 0.0
284, 0.014652014652014652, -0.06593406593406594, -0.06227106227106227, -0.0625, 0.0, 0.03125, 0.0
285, 0.015873015873015872, -0.042735042735042736, -0.03540903540903541, -0.09375, 0.0, 0.03125, 0.0
286, 0.007326007326007326, 0.0, -0.007326007326007326, -0.0625, 0.0, 0.0625, 0.0
287, 0.040293040293040296, 0.0, -0.013431013431013432, -0.0625, 0.0, 0.03125, 0.0
288, 0.019536019536019536, -0.08424908424908426, -0.09401709401709402, -0.09375, 0.0, 0.03125, 0.0
289, 0.006105006105006105, -0.10256410256410256, -0.10622710622710622, -0.09375, 0.0, 0.03125, 0.0
290, 0.017094017094017096, -0.10866910866910867, -0.10989010989010989, -0.0625, 0.0, 0.03125, 0.0
291, 0.040293040293040296, -0.10378510378510379, -0.15018315018315018, -0.09375, 0.0, 0.0625, 0.0
292, 0.018315018315018316, -0.07326007326007326, -0.10744810744810745, -0.09375, 0.0, 0.0625, 0.0
293, 0.01098901098901099, -0.03663003663003663, -0.031746031746031744, -0.09375, 0.03125, 0.0625, 0.0
294, 0.04151404151404151, -0.052503052503052504, -0.006105006105006105, -0.09375, 0.03125, 0.0625, 0.0
295, 0.020757020757020756, -0.10744810744810745, -0.09645909645909646, -0.09375, 0.03125, 0.03125, 0.0
296, -0.008547008547008548, -0.09157509157509157, -0.08058608058608059, -0.09375, 0.03125, 0.0, 0.0
297, 0.017094017094017096, -0.09523809523809523, -0.08791208791208792, -0.09375, 0.0, 0.03125, 0.0
298, 0.017094017094017096, -0.06837606837606838, -0.05982905982905983, -0.125, 0.0, 0.03125, 0.0
299, 0.008547008547008548, -0.030525030525030524, 0.002442002442002442, -0.125, 0.0, 0.03125, 0.0
300, 0.002442002442002442, -0.02442002442002442, -0.020757020757020756, -0.09375, 0.03125, 0.0625, 0.0
301, 0.0, -0.029304029304029304, -0.026862026862026864, -0.0625, 0.0625, 0.03125, 0.0
302, 0.017094017094017096, -0.08180708180708181, -0.0757020757020757, -0.09375, 0.03125, 0.03125, 0.0
303, 0.01221001221001221, -0.07326007326007326, -0.06471306471306472, -0.09375, 0.0, 0.03125, 0.0
304, -0.0463980463980464, -0.008547008547008548, 0.019536019536019536, -0.09375, 0.03125, 0.03125, 0.0
305, 0.002442002442002442, -0.008547008547008548, -0.004884004884004884, -0.0625, 0.03125, 0.03125, 0.0
306, 0.001221001221001221, -0.02442002442002442, -0.029304029304029304, -0.0625, 0.03125, 0.0, 0.0
307, 0.0, -0.03296703296703297, -0.04151404151404151, -0.0625, 0.0, 0.03125, 0.0
308, 0.01221001221001221, -0.04884004884004884, -0.0463980463980464, -0.0625, 0.0, 0.03125, 0.0
309, 0.009768009768009768, -0.0757020757020757, -0.07936507936507936, -0.0625, 0.0, 0.03125, 0.0
310, -0.009768009768009768, -0.02442002442002442, -0.05372405372405373, -0.0625, 0.0, 0.03125, 0.0
311, -0.002442002442002442, -0.06715506715506715, -0.07081807081807082, -0.0625, 0.03125, 0.03125, 0.0
312, 0.05982905982905983, -0.11355311355311355, -0.09523809523809523, -0.0625, 0.0625, 0.03125, 0.0
313, 0.03785103785103785, -0.10500610500610501, -0.09523809523809523, -0.0625, 0.03125, 0.0, 0.0
314, 0.015873015873015872, -0.15018315018315018, -0.17094017094017094, -0.0625, 0.03125, 0.0, 0.0
315, -0.01098901098901099, -0.10866910866910867, -0.14774114774114774, -0.0625, 0.0625, 0.0, 0.0
316, 0.001221001221001221, -0.10378510378510379, -0.12332112332112333, -0.09375, 0.0625, 0.0, 0.0
317, -0.029304029304029304, -0.09157509157509157, -0.09523809523809523, -0.09375, 0.09375, 0.03125, 0.0
318, -0.01221001221001221, -0.013431013431013432, -0.017094017094017096, -0.0625, 0.1875, 0.0625, 0.0
319, 0.06105006105006105, -0.054945054945054944, -0.047619047619047616, 0.0, 0.28125, 0.09375, 0.0
320, 0.002442002442002442, -0.11721611721611722, -0.14285714285714285, 0.0, 0.28125, 0.09375, 0.0
321, 0.08913308913308914, -0.23931623931623933, -0.20024420024420025, -0.03125, 0.25, 0.0625, 0.0
322, 0.36385836385836384, -0.4481074481074481, -0.231990231990232, -0.125, 0.0625, 0.0, 0.0
323, 0.02564102564102564, -0.04151404151404151, 0.06715506715506715, -0.25, -0.15625, -0.125, 0.0
324, -0.38583638583638585, 0.06837606837606838, 0.0757020757020757, -0.1875, -0.15625, -0.125, 0.0
325, -0.4346764346764347, 0.04151404151404151, -0.031746031746031744, -0.09375, 0.0, -0.0625, 0.0
326, -0.2954822954822955, -0.01221001221001221, -0.042735042735042736, -0.0625, 0.09375, 0.0, 0.0
327, -0.20512820512820512, -0.04884004884004884, 0.015873015873015872, -0.0625, 0.125, 0.0625, 0.0
328, -0.15506715506715507, -0.001221001221001221, 0.07081807081807082, -0.03125, 0.21875, 0.09375, 0.0
329, 0.008547008547008548, -0.05616605616605617, 0.01221001221001221, -0.03125, 0.21875, 0.09375, 0.0
330, 0.15995115995115994, -0.2026862026862027, -0.03907203907203907, -0.09375, 0.0625, 0.03125, 0.0
331, -0.008547008547008548, -0.03663003663003663, 0.02442002442002442, -0.125, -0.03125, 0.0, 0.0
332, -0.2515262515262515, 0.028083028083028084, 0.05982905982905983, -0.09375, 0.0, 0.0, 0.0
333, -0.14774114774114774, 0.01221001221001221, 0.0, -0.0625, 0.03125, 0.0625, 0.0
334, 0.01221001221001221, -0.01098901098901099, -0.002442002442002442, -0.0625, 0.0, 0.0625, 0.0
335, 0.009768009768009768, -0.01221001221001221, -0.002442002442002442, -0.0625, 0.03125, 0.0625, 0.0
336, 0.007326007326007326, -0.013431013431013432, -0.01221001221001221, -0.0625, 0.03125, 0.09375, 0.0
337, 0.03296703296703297, 0.0, 0.008547008547008548, -0.0625, 0.0, 0.09375, 0.0
338, 0.017094017094017096, -0.028083028083028084, -0.029304029304029304, -0.0625, 0.0, 0.09375, 0.0
339, 0.028083028083028084, -0.019536019536019536, -0.020757020757020756, -0.0625, 0.0, 0.09375, 0.0
340, 0.047619047619047616, -0.02442002442002442, -0.07814407814407814, -0.03125, 0.03125, 0.125, 0.0
341, 0.1916971916971917, -0.21123321123321123, -0.2087912087912088, -0.0625, 0.0, 0.125, 0.0
342, 0.5384615384615384, -0.35775335775335776, -0.18437118437118438, -0.15625, -0.09375, 0.03125, 0.0
343, 0.37606837606837606, -0.28327228327228327, -0.06715506715506715, -0.15625, -0.125, -0.03125, 0.0
344, 0.019536019536019536, -0.07326007326007326, -0.08180708180708181, -0.09375, -0.03125, 0.0, 0.0
345, 0.15995115995115994, -0.10500610500610501, -0.25518925518925517, -0.03125, 0.03125, 0.0, 0.0
346, 0.38217338217338215, -0.30158730158730157, -0.5995115995115995, -0.03125, 0.15625, 0.0, 0.0
347, 0.6898656898656899, -0.23809523809523808, -0.833943833943834, -0.03125, 0.25, 0.0, 0.0
348, 0.7130647130647131, -0.2612942612942613, -0.945054945054945, -0.03125, 0.40625, -0.0625, 0.0
349, 1.5115995115995116, -0.7741147741147741, -1.021978021978022, -0.1875, 0.28125, -0.21875, 0.0
350, 1.6617826617826619, -0.7350427350427351, -0.8632478632478633, -0.375, 0.0, -0.5, 0.0
351, 1.037851037851038, -0.7484737484737485, -0.6898656898656899, -0.4375, -0.0625, -0.71875, 0.0
352, 0.3711843711843712, -0.5323565323565324, -0.5555555555555556, -0.40625, 0.15625, -0.78125, 0.0
353, -0.23443223443223443, -0.29426129426129427, -0.35775335775335776, -0.375, 0.3125, -0.71875, 0.0
354, -0.08791208791208792, -0.3956043956043956, -0.3663003663003663, -0.34375, 0.4375, -0.65625, 0.0
355, 0.5311355311355311, -0.7619047619047619, -0.3199023199023199, -0.46875, 0.25, -0.75, 0.0
356, -0.02442002442002442, -0.442002442002442, 0.06593406593406594, -0.6875, -0.0625, -0.9375, 0.0
357, -0.9084249084249084, -0.13064713064713065, 0.3553113553113553, -0.65625, -0.125, -0.96875, 0.0
358, -1.3418803418803418, -0.09035409035409035, 0.5848595848595849, -0.53125, 0.09375, -0.84375, 0.0
359, -0.9792429792429792, -0.21367521367521367, 0.5433455433455433, -0.40625, 0.3125, -0.6875, 0.0
360, -0.905982905982906, -0.16971916971916973, 0.5421245421245421, -0.34375, 0.3125, -0.625, 0.0
361, -1.137973137973138, -0.16117216117216118, 0.452991452991453, -0.34375, 0.28125, -0.59375, 0.0
362, -0.7521367521367521, -0.37362637362637363, 0.3772893772893773, -0.375, 0.21875, -0.5625, 0.0
363, -0.7753357753357754, -0.23076923076923078, 0.6031746031746031, -0.5, -0.03125, -0.65625, 0.0
364, -1.3772893772893773, 0.11721611721611722, 0.7863247863247863, -0.46875, -0.15625, -0.6875, 0.0
365, -1.6373626373626373, 0.19047619047619047, 0.6532356532356532, -0.375, -0.0625, -0.59375, 0.0
366, -1.5763125763125763, 0.3064713064713065, 0.6214896214896215, -0.25, 0.03125, -0.40625, 0.0
367, -1.5604395604395604, 0.37606837606837606, 0.5958485958485958, -0.15625, 0.125, -0.25, 0.0
368, -1.3650793650793651, 0.2686202686202686, 0.4456654456654457, -0.0625, 0.21875, -0.0625, 0.0
369, -1.0903540903540903, 0.3797313797313797, 0.33577533577533575, -0.03125, 0.21875, 0.03125, 0.0
370, -1.0183150183150182, 0.47863247863247865, 0.22832722832722832, 0.0, 0.1875, 0.125, 0.0
371, -0.9536019536019537, 0.44932844932844934, 0.06837606837606838, 0.03125, 0.25, 0.21875, 0.0
372, -0.8974358974358975, 0.4371184371184371, 0.008547008547008548, 0.03125, 0.375, 0.34375, 0.0
373, -0.6178266178266179, 0.3418803418803419, -0.08058608058608059, 0.125, 0.625, 0.53125, 0.0
374, -0.3321123321123321, 0.2271062271062271, -0.19536019536019536, 0.25, 1.0, 0.71875, 0.0
375, -0.18803418803418803, 0.35775335775335776, -0.31135531135531136, 0.375, 1.40625, 0.875, 0.0
376, -0.4590964590964591, 0.6153846153846154, -0.5164835164835165, 0.8125, 2.5625, 1.1875, 0.0
377, -0.10989010989010989, 0.3528693528693529, -0.8046398046398047, 1.125, 3.5, 1.34375, 0.0
378, 0.6398046398046398, 0.2771672771672772, -0.42857142857142855, 1.28125, 4.15625, 1.375, 0.0
379, 1.4908424908424909, -0.02442002442002442, -0.3968253968253968, 1.25, 4.34375, 1.28125, 0.0
380, 2.065934065934066, -0.020757020757020756, -0.2148962148962149, 1.03125, 4.09375, 1.0625, 0.0
381, 1.5897435897435896, 0.44932844932844934, -0.054945054945054944, 0.875, 3.84375, 0.90625, 0.0
382, 1.0158730158730158, 0.8827838827838828, 0.115995115995116, 0.84375, 3.875, 0.84375, 0.0
383, 0.5775335775335775, 1.2173382173382172, 0.18681318681318682, 0.875, 4.03125, 0.84375, 0.0
384, 0.003663003663003663, 1.586080586080586, 0.3089133089133089, 1.0, 4.3125, 0.96875, 0.0
385, -0.13064713064713065, 1.8632478632478633, 0.2515262515262515, 1.0625, 4.4375, 1.03125, 0.0
386, -0.0695970695970696, 1.7704517704517704, 0.04151404151404151, 1.125, 4.40625, 1.0625, 0.0
387, -0.7264957264957265, 1.9401709401709402, -0.21245421245421245, 1.15625, 4.46875, 1.125, 0.0
388, -0.5811965811965812, 1.5934065934065933, -0.31868131868131866, 1.15625, 4.5625, 1.125, 0.0
389, -0.5726495726495726, 1.3797313797313797, -0.5103785103785103, 1.0625, 4.65625, 1.0625, 0.0
390, -1.783882783882784, 1.9401709401709402, -0.5726495726495726, 1.1875, 5.1875, 1.03125, 0.0
391, 0.1391941391941392, 1.407814407814408, -0.49206349206349204, 1.34375, 5.21875, 0.8125, 0.0
392, 1.7936507936507937, 0.5775335775335775, -0.6898656898656899, 1.0625, 4.1875, 0.25, 0.0
393, 1.6141636141636142, 0.3540903540903541, -0.9560439560439561, 0.5625, 2.8125, -0.25, 0.0
394, -0.7374847374847375, 1.3064713064713065, -1.1916971916971917, 0.28125, 2.125, -0.25, 0.0
395, -0.9938949938949939, 1.667887667887668, -1.2991452991452992, 0.21875, 2.03125, 0.0, 0.0
396, -0.21001221001221002, 1.6263736263736264, -1.3064713064713065, 0.25, 2.03125, 0.0, 0.0
397, 0.2588522588522589, 1.1904761904761905, -1.293040293040293, 0.1875, 1.8125, -0.15625, 0.0
398, 0.36874236874236876, 0.8144078144078144, -1.2026862026862026, -0.03125, 1.40625, -0.25, 0.0
399, 0.2503052503052503, 0.7545787545787546, -0.8705738705738706, -0.34375, 0.90625, -0.1875, 0.0
400, -0.31746031746031744, 1.006105006105006, -0.326007326007326, -0.46875, 0.625, -0.09375, 0.0
401, -0.35653235653235654, 1.3418803418803418, 0.13553113553113552, -0.25, 0.84375, -0.0625, 0.0
402, 0.12698412698412698, 1.0146520146520146, -0.08547008547008547, -0.15625, 0.8125, -0.0625, 0.0
403, -0.013431013431013432, 0.8412698412698413, -0.12942612942612944, -0.15625, 0.71875, -0.125, 0.0
404, -0.12576312576312576, 0.7374847374847375, 0.06593406593406594, -0.3125, 0.65625, -0.125, 0.0
405, -0.18803418803418803, 0.8107448107448108, 0.6141636141636142, -0.46875, 0.59375, -0.03125, 0.0
406, 0.10744810744810745, 0.9084249084249084, 0.9401709401709402, -0.375, 0.53125, -0.03125, 0.0
407, 0.01221001221001221, 0.7326007326007326, 0.9426129426129426, -0.21875, 0.4375, -0.03125, 0.0
408, 0.21123321123321123, 0.27472527472527475, 0.9499389499389499, -0.09375, 0.375, -0.0625, 0.0
409, 0.4456654456654457, 0.14285714285714285, 0.8608058608058609, -0.09375, 0.1875, -0.09375, 0.0
410, 0.14285714285714285, 0.4481074481074481, 0.6678876678876678, -0.09375, 0.0, -0.125, 0.0
411, 0.1807081807081807, 0.34065934065934067, 0.3333333333333333, 0.0, 0.03125, -0.03125, 0.0
412, 0.20757020757020758, 0.3956043956043956, 0.13064713064713065, 0.03125, 0.125, 0.0, 0.0
413, 0.28083028083028083, 0.4188034188034188, 0.1391941391941392, 0.0625, 0.09375, 0.0, 0.0
414, 0.0695970695970696, 0.46764346764346765, 0.15018315018315018, 0.09375, 0.03125, 0.0, 0.0
415, 0.24175824175824176, 0.2515262515262515, 0.503052503052503, 0.125, 0.03125, 0.0, 0.0
416, 0.5555555555555556, 0.27472527472527475, 0.6886446886446886, 0.1875, 0.0, 0.0, 0.0
417, 0.6446886446886447, 0.3797313797313797, 0.3614163614163614, 0.3125, -0.125, 0.0, 0.0
418, 0.4432234432234432, 0.4261294261294261, 0.015873015873015872, 0.40625, -0.15625, -0.0625, 0.0
419, 0.14163614163614163, 0.6910866910866911, -0.2442002442002442, 0.40625, -0.125, -0.0625, 0.0
420, 0.08669108669108669, 0.7826617826617827, -0.5628815628815629, 0.40625, -0.09375, -0.03125, 0.0
421, -0.13553113553113552, 0.9413919413919414, -0.7106227106227107, 0.3125, -0.0625, -0.0625, 0.0
422, -0.22466422466422467, 1.3467643467643469, -0.6666666666666666, 0.25, -0.03125, -0.09375, 0.0
423, -0.336996336996337, 1.3687423687423688, -0.6984126984126984, 0.25, 0.0, -0.0625, 0.0
424, -0.3663003663003663, 1.2063492063492063, -0.778998778998779, 0.21875, 0.03125, -0.03125, 0.0
425, -0.2576312576312576, 1.277167277167277, -0.7777777777777778, 0.125, 0.125, 0.0, 0.0
426, -0.31868131868131866, 1.3113553113553114, -0.7741147741147741, 0.0625, 0.15625, 0.0, 0.0
427, -0.4884004884004884, 1.3919413919413919, -0.7289377289377289, 0.0, 0.15625, 0.0, 0.0
428, -0.6373626373626373, 1.4297924297924298, -0.49572649572649574, -0.03125, 0.15625, 0.0, 0.0
429, -0.5091575091575091, 1.3626373626373627, -0.38583638583638585, -0.09375, 0.125, 0.0625, 0.0
430, -0.21123321123321123, 1.249084249084249, -0.28083028083028083, -0.1875, 0.0625, 0.125, 0.0
431, -0.14163614163614163, 1.15995115995116, -0.1452991452991453, -0.21875, 0.125, 0.125, 0.0
432, -0.08058608058608059, 1.1868131868131868, 0.01098901098901099, -0.21875, 0.1875, 0.15625, 0.0
433, -0.020757020757020756, 1.1526251526251525, 0.1452991452991453, -0.1875, 0.1875, 0.125, 0.0
434, -0.08791208791208792, 1.1611721611721613, 0.17582417582417584, -0.21875, 0.15625, 0.15625, 0.0
435, 0.03663003663003663, 1.2783882783882783, 0.2576312576312576, -0.1875, 0.125, 0.1875, 0.0
436, 0.3089133089133089, 1.1587301587301588, 0.17826617826617827, -0.21875, 0.0625, 0.1875, 0.0
437, 0.09401709401709402, 1.2344322344322345, 0.03785103785103785, -0.21875, 0.0625, 0.15625, 0.0
438, 0.10744810744810745, 1.0146520146520146, 0.020757020757020756, -0.21875, 0.1875, 0.15625, 0.0
439, 0.2686202686202686, 0.9633699633699634, 0.10744810744810745, -0.25, 0.21875, 0.1875, 0.0
440, 0.3528693528693529, 0.7838827838827839, 0.22954822954822954, -0.25, 0.25, 0.15625, 0.0
441, 0.48717948717948717, 0.5946275946275946, 0.44078144078144077, -0.28125, 0.15625, 0.15625, 0.0
442, 0.47496947496947495, 0.6483516483516484, 0.41147741147741146, -0.21875, 0.125, 0.15625, 0.0
443, 0.3833943833943834, 0.6678876678876678, 0.21978021978021978, -0.15625, 0.1875, 0.15625, 0.0
444, 0.304029304029304, 0.7985347985347986, 0.11355311355311355, -0.09375, 0.28125, 0.125, 0.0
445, 0.27228327228327226, 0.8205128205128205, -0.042735042735042736, -0.09375, 0.25, 0.09375, 0.0
446, 0.4456654456654457, 0.757020757020757, -0.1452991452991453, -0.1875, 0.125, 0.03125, 0.0
447, 0.1282051282051282, 0.9242979242979243, -0.1221001221001221, -0.28125, 0.0625, 0.03125, 0.0
448, 0.013431013431013432, 1.089133089133089, -0.047619047619047616, -0.3125, 0.0, 0.0625, 0.0
449, -0.1282051282051282, 1.0415140415140416, -0.17094017094017094, -0.34375, 0.0, 0.09375, 0.0
450, 0.026862026862026864, 0.8522588522588522, -0.14774114774114774, -0.40625, 0.125, 0.0625, 0.0
451, 0.020757020757020756, 1.021978021978022, 0.020757020757020756, -0.4375, 0.1875, 0.0, 0.0
452, -0.16483516483516483, 0.9242979242979243, 0.0695970695970696, -0.40625, 0.21875, 0.0, 0.0
453, -0.41514041514041516, 0.7948717948717948, 0.17216117216117216, -0.4375, 0.25, 0.0, 0.0
454, -0.14041514041514042, 0.5995115995115995, 0.5347985347985348, -0.46875, 0.28125, 0.0625, 0.0
455, 0.17826617826617827, 0.5995115995115995, 0.7667887667887668, -0.5, 0.21875, 0.0625, 0.0
456, 0.02564102564102564, 0.7753357753357754, 0.7435897435897436, -0.4375, 0.09375, 0.03125, 0.0
457, -0.22344322344322345, 0.7741147741147741, 0.536019536019536, -0.28125, 0.09375, 0.03125, 0.0
458, 0.2087912087912088, 0.5775335775335775, 0.2661782661782662, -0.15625, 0.3125, 0.03125, 0.0
459, 0.442002442002442, 0.5311355311355311, 0.3028083028083028, -0.1875, 0.4375, 0.0, 0.0
460, 0.1562881562881563, 0.800976800976801, 0.3504273504273504, -0.25, 0.34375, -0.0625, 0.0
461, -0.10134310134310134, 0.9572649572649573, 0.19536019536019536, -0.25, 0.25, 0.0, 0.0
462, -0.115995115995116, 0.8925518925518926, 0.3052503052503053, -0.15625, 0.15625, 0.03125, 0.0
463, 0.15506715506715507, 0.5531135531135531, 0.3308913308913309, -0.125, 0.0625, 0.03125, 0.0
464, -0.03296703296703297, 0.7985347985347986, 0.18925518925518925, -0.1875, 0.03125, 0.03125, 0.0
465, 0.004884004884004884, 0.7582417582417582, -0.08302808302808302, -0.125, 0.1875, 0.03125, 0.0
466, 0.199023199023199, 0.6617826617826618, -0.03296703296703297, -0.0625, 0.3125, 0.0, 0.0
467, 0.22344322344322345, 0.6715506715506715, 0.12454212454212454, -0.09375, 0.28125, 0.0, 0.0
468, 0.07203907203907203, 0.7777777777777778, 0.36752136752136755, -0.03125, 0.1875, -0.03125, 0.0
469, -0.1391941391941392, 0.49206349206349204, 0.37606837606837606, 0.0625, 0.09375, 0.0, 0.0
470, -0.030525030525030524, 0.16361416361416362, 0.28083028083028083, 0.125, 0.03125, -0.03125, 1.0
471, 0.25518925518925517, 0.4627594627594628, 0.3235653235653236, 0.03125, 0.09375, 0.0, 1.0
472, 0.08302808302808302, 0.7130647130647131, 0.34676434676434675, 0.0625, 0.21875, 0.0, 1.0
473, 0.6166056166056166, 0.0695970695970696, 0.47374847374847373, 0.09375, 0.375, -0.03125, 1.0
474, 0.8192918192918193, -0.031746031746031744, 0.8901098901098901, -0.0625, 0.125, -0.0625, 1.0
475, 0.07326007326007326, 0.4517704517704518, 1.0903540903540903, 0.0, 0.1875, -0.03125, 1.0
476, 0.5995115995115995, 0.08058608058608059, 1.2136752136752136, 0.09375, 0.1875, -0.0625, 1.0
477, 1.0634920634920635, -0.10256410256410256, 1.728937728937729, 0.28125, 0.0625, -0.125, 1.0
478, 1.326007326007326, -0.36996336996337, 2.1746031746031744, 0.625, 0.0625, -0.25, 1.0
479, 1.336996336996337, -1.054945054945055, 2.161172161172161, 0.78125, 0.09375, -0.34375, 1.0
480, 1.1428571428571428, -0.9120879120879121, 2.2283272283272284, 1.0, 0.15625, -0.4375, 1.0
481, 1.5531135531135531, -1.4322344322344323, 2.2808302808302807, 1.15625, 0.03125, -0.59375, 1.0
482, 2.0854700854700856, -1.978021978021978, 2.68986568986569, 1.21875, -0.3125, -0.78125, 1.0
483, 0.6007326007326007, -1.52014652014652, 2.3455433455433456, 1.5, -0.21875, -0.875, 1.0
484, 0.4236874236874237, -2.021978021978022, 1.962148962148962, 1.84375, 0.3125, -0.8125, 1.0
485, 1.89010989010989, -2.862026862026862, 2.2612942612942613, 2.0, 0.40625, -1.0, 1.0
486, 2.6214896214896215, -3.2002442002442004, 2.6617826617826617, 2.21875, -0.0625, -1.375, 1.0
487, 1.9377289377289377, -2.8998778998779, 2.687423687423687, 2.46875, -0.65625, -1.625, 1.0
488, -0.3321123321123321, -2.885225885225885, 1.8327228327228327, 2.8125, -0.40625, -1.46875, 1.0
489, -0.3968253968253968, -3.0952380952380953, 1.0073260073260073, 3.0625, 0.21875, -1.375, 1.0
490, 0.9902319902319903, -3.399267399267399, 0.9206349206349206, 3.09375, 0.1875, -1.46875, 1.0
491, 1.192918192918193, -3.484737484737485, 0.9645909645909646, 3.15625, -0.28125, -1.65625, 1.0
492, 0.6288156288156288, -3.8180708180708183, 0.9133089133089133, 3.3125, -0.65625, -1.78125, 1.0
493, -0.07936507936507936, -3.9035409035409034, 0.5543345543345544, 3.46875, -0.78125, -1.875, 1.0
494, -1.2612942612942613, -3.623931623931624, -0.4053724053724054, 3.59375, -0.53125, -1.90625, 1.0
495, -1.3687423687423688, -3.857142857142857, -0.8937728937728938, 3.53125, -0.1875, -1.90625, 1.0
496, -1.277167277167277, -3.6984126984126986, -0.7252747252747253, 3.59375, -0.15625, -1.6875, 1.0
497, -1.4786324786324787, -3.675213675213675, -1.0427350427350428, 3.71875, -0.21875, -1.59375, 1.0
498, -1.1953601953601953, -3.982905982905983, -1.652014652014652, 3.59375, -0.34375, -1.5625, 1.0
499, -1.4566544566544566, -2.5054945054945055, -2.965811965811966, 3.6875, -0.25, -1.5625, 1.0
500, -1.547008547008547, -2.9413919413919416, -3.873015873015873, 3.5625, -0.40625, -1.5, 1.0
501, -2.0195360195360195, -2.960927960927961, -3.785103785103785, 3.15625, -0.53125, -1.4375, 1.0
502, -2.1623931623931623, -2.879120879120879, -2.6214896214896215, 2.875, -0.34375, -1.25, 1.0
503, -2.0024420024420024, -2.5445665445665444, -2.083028083028083, 3.0, 0.125, -1.15625, 1.0
504, -1.8583638583638584, -2.167277167277167, -2.5763125763125765, 3.1875, 0.46875, -0.90625, 1.0
505, -1.4456654456654456, -2.687423687423687, -3.7924297924297923, 3.15625, 0.46875, -0.75, 1.0
506, -1.7032967032967032, -3.238095238095238, -4.001221001221001, 2.6875, -0.125, -0.6875, 1.0
507, -2.746031746031746, -2.8180708180708183, -3.4590964590964592, 2.1875, -0.40625, -0.625, 1.0
508, -1.9548229548229548, -2.081807081807082, -3.0976800976800978, 1.9375, 0.0625, -0.4375, 1.0
509, -0.5115995115995116, -1.6495726495726495, -3.3150183150183152, 1.96875, 0.1875, -0.375, 1.0
510, -0.7191697191697192, -2.133089133089133, -3.821733821733822, 1.84375, -0.09375, -0.40625, 1.0
511, -1.6434676434676434, -1.1758241758241759, -3.6849816849816848, 1.5625, -0.03125, -0.40625, 1.0
512, -1.4175824175824177, -0.8754578754578755, -2.894993894993895, 1.65625, 0.4375, -0.1875, 1.0
513, -0.5506715506715507, -1.4322344322344323, -2.9804639804639805, 1.875, 0.59375, 0.0, 1.0
514, -0.8083028083028083, -1.9316239316239316, -3.7606837606837606, 1.5625, 0.1875, -0.03125, 1.0
515, -1.807081807081807, -1.3907203907203907, -3.8803418803418803, 1.03125, -0.1875, 0.0, 1.0
516, -2.440781440781441, -1.7167277167277166, -3.3797313797313797, 0.71875, -0.03125, 0.09375, 1.0
517, -0.9584859584859585, -1.6373626373626373, -2.3150183150183152, 0.375, 0.40625, 0.15625, 1.0
518, 0.6434676434676435, -1.474969474969475, -1.3284493284493284, 0.15625, 0.34375, 0.15625, 1.0
519, 0.6227106227106227, -1.7619047619047619, -1.1733821733821734, 0.21875, -0.03125, 0.03125, 1.0
520, -0.34676434676434675, -1.2380952380952381, -1.3956043956043955, 0.03125, -0.0625, -0.03125, 1.0
521, -1.054945054945055, -0.9963369963369964, -1.5213675213675213, 0.0, 0.1875, 0.0, 1.0
522, -1.2832722832722834, -0.9768009768009768, -1.2283272283272284, 0.0, 0.15625, 0.125, 1.0
523, -0.514041514041514, -1.5567765567765568, -0.4188034188034188, 0.03125, -0.09375, 0.1875, 1.0
524, -0.0463980463980464, -1.6043956043956045, -0.09523809523809523, -0.0625, -0.0625, 0.15625, 1.0
525, 0.5628815628815629, -1.5714285714285714, -0.3443223443223443, -0.21875, 0.03125, 0.03125, 1.0
526, 0.0, -1.352869352869353, -1.2844932844932846, -0.5625, 0.0, -0.03125, 1.0
527, -0.2796092796092796, -1.862026862026862, -1.7411477411477412, -1.21875, -0.125, -0.15625, 0.0
528, -0.33455433455433453, -1.0293040293040292, -1.0866910866910866, -1.28125, -0.125, -0.1875, 0.0
529, 0.2490842490842491, -0.4945054945054945, 0.013431013431013432, -0.59375, -0.15625, -0.09375, 0.0
530, 0.19536019536019536, -0.9365079365079365, 0.3431013431013431, -0.21875, -0.3125, 0.0, 0.0
531, -0.7338217338217338, -1.1538461538461537, -0.1807081807081807, -0.125, -0.3125, 0.0, 0.0
532, -0.8742368742368742, -1.1733821733821734, -0.4371184371184371, -0.15625, -0.1875, 0.03125, 0.0
533, 0.12698412698412698, -1.4603174603174602, -0.05982905982905983, -0.25, -0.15625, 0.0, 0.0
534, -0.6837606837606838, -0.9120879120879121, -0.24175824175824176, -0.15625, 0.0, 0.03125, 0.0
535, -0.5860805860805861, -1.2344322344322345, -1.0146520146520146, -0.0625, 0.125, 0.09375, 0.0
536, 0.015873015873015872, -1.6947496947496947, -1.601953601953602, -0.3125, 0.03125, 0.0625, 0.0
537, -0.21245421245421245, -1.5018315018315018, -1.7057387057387057, -0.5, -0.09375, 0.0, 0.0
538, -0.5641025641025641, -1.5946275946275947, -1.4981684981684982, -0.625, -0.0625, 0.0625, 0.0
539, -0.7973137973137974, -1.5934065934065933, -1.465201465201465, -0.625, 0.03125, 0.0625, 0.0
540, -0.35653235653235654, -1.7936507936507937, -1.9377289377289377, -0.75, -0.03125, 0.125, 0.0
541, -0.0231990231990232, -1.8461538461538463, -2.387057387057387, -1.0, -0.25, 0.125, 0.0
542, -0.9108669108669109, -1.6275946275946276, -2.9023199023199022, -1.21875, -0.21875, 0.15625, 0.0
543, -2.230769230769231, -1.534798534798535, -3.5824175824175826, -1.40625, 0.09375, 0.3125, 0.0
544, -2.816849816849817, -1.8266178266178266, -4.512820512820513, -1.78125, 0.28125, 0.46875, 0.0
545, -2.1819291819291817, -2.7924297924297923, -4.652014652014652, -2.34375, 0.28125, 0.59375, 0.0
546, -1.9267399267399268, -2.9584859584859586, -3.8205128205128207, -2.71875, 0.40625, 0.65625, 0.0
547, -2.6556776556776556, -2.413919413919414, -3.5824175824175826, -2.6875, 0.96875, 0.9375, 0.0
548, -2.415140415140415, -3.796092796092796, -4.119658119658119, -2.96875, 0.9375, 1.03125, 0.0
549, -2.3772893772893773, -4.294261294261294, -3.750915750915751, -3.59375, 0.625, 1.09375, 0.0
550, -2.7301587301587302, -3.6996336996337, -3.340659340659341, -3.9375, 0.65625, 1.15625, 0.0
551, -2.4542124542124544, -3.567765567765568, -3.653235653235653, -3.9375, 0.71875, 1.25, 0.0
552, -3.2979242979242978, -4.304029304029304, -4.101343101343101, -4.125, 0.40625, 1.28125, 0.0
553, -3.896214896214896, -5.05006105006105, -3.3272283272283274, -4.65625, 0.65625, 1.46875, 0.0
554, -2.800976800976801, -3.7142857142857144, -2.1746031746031744, -4.90625, 1.4375, 1.71875, 0.0
555, -0.5506715506715507, -3.131868131868132, -1.9023199023199022, -4.65625, 1.40625, 1.71875, 0.0
556, -1.5103785103785103, -4.0476190476190474, -1.6605616605616607, -4.625, 0.53125, 1.625, 0.0
557, -2.8144078144078146, -5.057387057387057, -1.3724053724053724, -4.75, 0.875, 1.75, 0.0
558, 0.19658119658119658, -5.051282051282051, 0.5531135531135531, -5.09375, 1.84375, 1.65625, 0.0
559, 2.525030525030525, -2.8986568986568986, 2.3015873015873014, -4.96875, 1.09375, 1.25, 0.0
560, 1.2503052503052503, -1.5433455433455434, 1.9096459096459097, -4.15625, -0.5, 0.78125, 0.0
561, -3.1306471306471306, -1.9474969474969475, 0.47985347985347987, -3.5, -1.03125, 1.0, 0.0
562, -0.1221001221001221, -3.004884004884005, 0.24297924297924298, -3.09375, 0.0625, 1.625, 0.0
563, 2.934065934065934, -3.9462759462759465, 0.5555555555555556, -3.1875, 0.0, 1.09375, 0.0
564, 0.3431013431013431, -1.376068376068376, 0.7814407814407814, -3.5, -1.03125, 0.5625, 0.0
565, -2.213675213675214, -1.188034188034188, 0.5946275946275946, -3.1875, -0.6875, 0.96875, 0.0
566, 0.7191697191697192, -3.8632478632478633, 1.393162393162393, -3.03125, 0.21875, 1.34375, 0.0
567, 2.894993894993895, -4.213675213675214, 2.6483516483516483, -3.59375, 0.0, 0.65625, 0.0
568, 0.6935286935286935, -1.0793650793650793, 3.139194139194139, -3.71875, -0.65625, 0.25, 0.0
569, 0.14407814407814407, -0.8241758241758241, 1.989010989010989, -3.03125, -0.5625, 0.5625, 0.0
570, 0.0989010989010989, -1.6507936507936507, 1.7521367521367521, -2.71875, -0.09375, 0.875, 0.0
571, 1.1428571428571428, -1.9365079365079365, 2.092796092796093, -2.53125, 0.15625, 0.9375, 0.0
572, 1.3894993894993894, -1.5665445665445665, 2.3345543345543347, -2.4375, -0.1875, 0.78125, 0.0
573, 0.652014652014652, -1.6202686202686203, 1.8278388278388278, -2.375, -0.3125, 0.75, 0.0
574, 0.7777777777777778, -2.230769230769231, 1.4102564102564104, -2.46875, -0.1875, 0.71875, 0.0
575, 0.7533577533577533, -1.9841269841269842, 1.9548229548229548, -2.4375, -0.03125, 0.71875, 0.0
576, 0.7094017094017094, -1.7106227106227105, 2.871794871794872, -2.21875, 0.09375, 0.75, 0.0
577, 1.7472527472527473, -1.6971916971916972, 3.5177045177045176, -1.90625, -0.09375, 0.6875, 0.0
578, 1.4432234432234432, -1.557997557997558, 3.6556776556776556, -1.625, -0.125, 0.5625, 0.0
579, 1.126984126984127, -1.326007326007326, 3.536019536019536, -1.3125, 0.125, 0.46875, 0.0
580, 1.7765567765567765, -0.9694749694749695, 3.706959706959707, -1.09375, 0.0, 0.40625, 0.0
581, 1.910866910866911, -0.4652014652014652, 3.4835164835164836, -0.84375, -0.3125, 0.28125, 0.0
582, 1.297924297924298, -0.3333333333333333, 2.8913308913308913, -0.65625, -0.15625, 0.25, 0.0
583, 1.2808302808302807, -0.2490842490842491, 2.5506715506715505, -0.53125, 0.0625, 0.21875, 0.0
584, 1.4493284493284493, 0.05128205128205128, 2.5775335775335777, -0.46875, 0.125, 0.1875, 0.0
585, 1.910866910866911, 0.11721611721611722, 2.600732600732601, -0.375, -0.03125, 0.09375, 0.0
586, 1.4981684981684982, 0.22466422466422467, 2.5006105006105006, -0.21875, -0.15625, 0.0, 0.0
587, 1.3333333333333333, 0.11721611721611722, 2.2466422466422467, -0.0625, -0.21875, 0.0, 0.0
588, 0.9242979242979243, 0.07203907203907203, 1.5384615384615385, 0.0, -0.15625, -0.03125, 0.0
589, 0.05372405372405373, 0.06593406593406594, 1.1428571428571428, -0.03125, 0.15625, 0.0, 0.0
590, 0.5213675213675214, 0.4822954822954823, 1.297924297924298, -0.03125, 0.28125, 0.0, 0.0
591, 1.083028083028083, 0.47619047619047616, 1.3748473748473748, 0.0625, 0.09375, -0.03125, 0.0
592, 0.6043956043956044, 0.5494505494505495, 1.0293040293040292, 0.15625, -0.0625, -0.0625, 0.0
593, 0.07692307692307693, 0.3663003663003663, 0.3907203907203907, 0.1875, -0.03125, -0.0625, 0.0
594, -0.10866910866910867, 0.30158730158730157, 0.23321123321123322, 0.15625, 0.0, -0.0625, 0.0
595, 0.07203907203907203, 0.3516483516483517, 0.41147741147741146, 0.15625, -0.0625, -0.03125, 0.0
596, 0.14652014652014653, 0.4517704517704518, 0.14652014652014653, 0.28125, 0.0, -0.03125, 0.0
597, 0.23931623931623933, 0.4713064713064713, 0.042735042735042736, 0.25, 0.03125, -0.03125, 0.0
598, -0.001221001221001221, 0.5396825396825397, -0.06105006105006105, 0.21875, 0.03125, -0.03125, 0.0
599, -0.030525030525030524, 0.568986568986569, -0.06227106227106227, 0.1875, 0.0625, 0.0, 0.0
600, 0.4078144078144078, 0.43223443223443225, -0.1575091575091575, 0.1875, 0.03125, 0.03125, 0.0
601, 0.30158730158730157, 0.6275946275946276, -0.20757020757020758, 0.125, 0.0, 0.0, 0.0
602, 0.09401709401709402, 0.6678876678876678, -0.16483516483516483, 0.125, 0.03125, 0.0, 0.0
603, 0.3772893772893773, 0.5787545787545788, 0.01098901098901099, 0.09375, 0.125, 0.0625, 0.0
604, 0.5860805860805861, 0.42124542124542125, 0.07326007326007326, 0.03125, 0.0625, 0.03125, 0.0
605, 0.23687423687423687, 0.6068376068376068, 0.07326007326007326, 0.03125, 0.0, 0.0, 0.0
606, 0.02564102564102564, 0.851037851037851, 0.09768009768009768, 0.09375, 0.03125, 0.0, 0.0
607, -0.05128205128205128, 0.7289377289377289, -0.06471306471306472, 0.21875, 0.0, 0.03125, 0.0
608, -0.001221001221001221, 0.3956043956043956, -0.27106227106227104, 0.28125, 0.0, 0.03125, 0.0
609, -0.24053724053724054, 0.57997557997558, -0.14896214896214896, 0.28125, 0.03125, 0.03125, 0.0
610, 0.02197802197802198, 0.6691086691086691, 0.5213675213675214, 0.59375, 0.125, 0.09375, 1.0
611, 0.4896214896214896, -0.24664224664224665, 0.5396825396825397, 0.65625, 0.0625, 0.1875, 1.0
612, 0.3956043956043956, 0.0231990231990232, 0.3968253968253968, 0.4375, 0.03125, 0.125, 1.0
613, 0.7496947496947497, -0.07326007326007326, 0.9328449328449329, 0.15625, 0.09375, 0.03125, 1.0
614, 1.1904761904761905, 0.30036630036630035, 1.750915750915751, 0.0625, 0.03125, -0.09375, 1.0
615, 0.4590964590964591, 0.23809523809523808, 1.73992673992674, 0.25, -0.09375, -0.15625, 1.0
616, 0.7496947496947497, 0.13186813186813187, 1.884004884004884, 0.40625, 0.03125, -0.15625, 1.0
617, 1.547008547008547, -0.6178266178266179, 2.89010989010989, 0.46875, 0.1875, -0.1875, 1.0
618, 2.2295482295482296, -0.7423687423687424, 3.8742368742368742, 0.65625, 0.4375, -0.28125, 1.0
619, 2.6056166056166057, -0.6703296703296703, 4.106227106227106, 1.15625, 0.6875, -0.40625, 1.0
620, 2.5665445665445668, -1.120879120879121, 3.7020757020757022, 1.78125, 0.59375, -0.5625, 1.0
621, 2.4761904761904763, -1.5604395604395604, 3.536019536019536, 2.03125, 0.5, -0.65625, 1.0
622, 2.791208791208791, -2.4676434676434678, 3.6727716727716726, 2.15625, 0.46875, -0.875, 1.0
623, 2.673992673992674, -2.3882783882783882, 3.7326007326007327, 2.53125, 0.40625, -1.03125, 1.0
624, 2.304029304029304, -2.923076923076923, 3.0073260073260073, 2.78125, 0.3125, -1.1875, 1.0
625, 1.3626373626373627, -3.2185592185592187, 2.4395604395604398, 2.96875, 0.3125, -1.25, 1.0
626, 1.2039072039072038, -3.255189255189255, 2.126984126984127, 3.125, 0.15625, -1.34375, 1.0
627, 1.170940170940171, -3.659340659340659, 1.6715506715506716, 3.28125, -0.09375, -1.46875, 1.0
628, 0.4945054945054945, -4.147741147741148, 1.5213675213675213, 3.46875, -0.0625, -1.5, 1.0
629, 0.5335775335775336, -4.523809523809524, 1.6459096459096458, 3.71875, 0.0, -1.5, 1.0
630, 0.14407814407814407, -4.747252747252747, 1.2271062271062272, 4.0, -0.0625, -1.5, 1.0
631, -0.7704517704517705, -4.781440781440781, 0.24175824175824176, 4.09375, 0.0, -1.4375, 1.0
632, -0.6593406593406593, -4.888888888888889, -0.5409035409035409, 3.96875, 0.09375, -1.40625, 1.0
633, -0.3724053724053724, -5.035409035409035, -0.5372405372405372, 3.96875, 0.09375, -1.375, 1.0
634, 0.3516483516483517, -5.656898656898657, -0.231990231990232, 4.0625, 0.03125, -1.4375, 1.0
635, 0.7045177045177046, -4.915750915750916, -0.442002442002442, 4.3125, -0.5, -1.5625, 1.0
636, -0.28327228327228327, -5.037851037851038, -1.735042735042735, 4.1875, -1.28125, -1.75, 1.0
637, -1.8473748473748475, -5.557997557997558, -2.2185592185592187, 3.75, -1.5, -1.8125, 1.0
638, -3.5103785103785103, -4.164835164835165, -2.242979242979243, 3.78125, -0.8125, -1.59375, 1.0
639, -3.286935286935287, -3.8986568986568986, -2.57997557997558, 3.96875, 0.09375, -1.21875, 1.0
640, -2.10989010989011, -3.5103785103785103, -3.0915750915750917, 3.9375, 0.28125, -1.03125, 1.0
641, -1.7826617826617828, -3.885225885225885, -3.705738705738706, 3.625, -0.0625, -0.96875, 1.0
642, -1.054945054945055, -4.527472527472527, -3.468864468864469, 3.1875, -0.5, -1.0625, 1.0
643, -1.794871794871795, -3.2344322344322345, -3.3565323565323566, 3.09375, -0.5625, -1.03125, 1.0
644, -3.184371184371184, -2.675213675213675, -3.912087912087912, 2.96875, 0.0, -0.65625, 1.0
645, -1.5433455433455434, -2.045177045177045, -4.263736263736264, 2.59375, 0.40625, -0.53125, 1.0
646, -0.4590964590964591, -2.0463980463980462, -3.4249084249084247, 2.34375, 0.125, -0.46875, 1.0
647, -0.17216117216117216, -1.514041514041514, -3.087912087912088, 2.21875, -0.3125, -0.5, 1.0
648, -0.702075702075702, -1.5616605616605617, -3.2515262515262515, 2.28125, -0.6875, -0.4375, 1.0
649, -0.4700854700854701, -2.1343101343101343, -3.2356532356532357, 2.1875, -0.8125, -0.4375, 1.0
650, -2.087912087912088, -1.4847374847374848, -3.283272283272283, 1.9375, -0.84375, -0.625, 1.0
651, -2.7948717948717947, -0.6654456654456654, -3.31013431013431, 1.96875, -0.15625, -0.4375, 1.0
652, -1.763125763125763, -1.0927960927960927, -3.1684981684981683, 2.15625, 0.375, -0.09375, 1.0
653, 0.08913308913308914, -2.2576312576312576, -3.0964590964590966, 2.0625, 0.1875, -0.03125, 1.0
654, -0.026862026862026864, -2.032967032967033, -2.971916971916972, 1.625, -0.375, -0.28125, 1.0
655, -0.9706959706959707, -1.3333333333333333, -2.7936507936507935, 1.4375, -0.5625, -0.3125, 1.0
656, -1.835164835164835, -1.0976800976800978, -2.9206349206349205, 1.46875, -0.125, -0.15625, 1.0
657, -2.1538461538461537, -1.606837606837607, -3.304029304029304, 1.53125, 0.46875, 0.0, 1.0
658, -1.6153846153846154, -2.0256410256410255, -3.503052503052503, 1.1875, 0.625, 0.0, 1.0
659, -1.5189255189255189, -1.7545787545787546, -2.807081807081807, 0.875, 0.34375, 0.0625, 1.0
660, -1.3821733821733821, -1.8742368742368742, -2.1758241758241756, 0.75, 0.03125, 0.21875, 1.0
661, -0.73992673992674, -1.8058608058608059, -1.540903540903541, 0.53125, 0.0, 0.25, 1.0
662, -0.5470085470085471, -1.695970695970696, -1.4603174603174602, 0.46875, 0.1875, 0.15625, 1.0
663, -0.24297924297924298, -1.5604395604395604, -1.5018315018315018, 0.40625, 0.34375, 0.15625, 1.0
664, -0.0231990231990232, -1.8241758241758241, -2.0024420024420024, 0.25, 0.09375, 0.1875, 1.0
665, -0.04151404151404151, -1.901098901098901, -2.167277167277167, 0.0, -0.15625, 0.15625, 1.0
666, -0.45665445665445664, -1.619047619047619, -2.0781440781440783, -0.125, -0.1875, 0.0625, 1.0
667, -0.3321123321123321, -1.7045177045177045, -1.4432234432234432, -0.15625, -0.0625, 0.09375, 1.0
668, -0.43345543345543347, -1.47985347985348, -1.1245421245421245, -0.25, 0.0625, 0.0625, 0.0
669, -0.5042735042735043, -1.7851037851037852, -1.4810744810744811, -0.5625, 0.03125, 0.0625, 0.0
670, -0.9572649572649573, -1.0732600732600732, -1.4004884004884004, -0.84375, -0.09375, 0.0, 0.0
671, -0.10012210012210013, -1.5018315018315018, -0.7216117216117216, -0.90625, -0.3125, 0.0, 0.0
672, -0.08913308913308914, -1.2307692307692308, 0.014652014652014652, -0.625, -0.25, 0.0, 0.0
673, -0.24786324786324787, -1.1953601953601953, -0.03540903540903541, -0.28125, -0.0625, 0.0, 0.0
674, -0.6776556776556777, -1.2844932844932846, -0.8681318681318682, -0.15625, 0.125, 0.03125, 0.0
675, -0.6764346764346765, -1.4114774114774116, -1.452991452991453, -0.3125, 0.0625, 0.03125, 0.0
676, -0.7326007326007326, -1.8754578754578755, -1.7472527472527473, -0.53125, 0.0, 0.09375, 0.0
677, -0.8278388278388278, -1.9145299145299146, -1.989010989010989, -0.75, 0.09375, 0.09375, 0.0
678, -0.44932844932844934, -1.7753357753357752, -1.7277167277167278, -0.75, 0.125, 0.125, 0.0
679, -0.7643467643467643, -1.7338217338217339, -1.663003663003663, -0.65625, 0.15625, 0.21875, 0.0
680, -1.1684981684981686, -1.818070818070818, -2.0671550671550674, -0.6875, 0.1875, 0.3125, 0.0
681, -1.6947496947496947, -2.172161172161172, -2.612942612942613, -0.9375, 0.15625, 0.40625, 0.0
682, -1.3565323565323566, -2.713064713064713, -2.7545787545787546, -1.28125, 0.15625, 0.46875, 0.0
683, -1.2283272283272284, -2.4835164835164836, -2.8998778998779, -1.40625, 0.1875, 0.5, 0.0
684, -1.0769230769230769, -2.3223443223443225, -3.271062271062271, -1.5, 0.09375, 0.5625, 0.0
685, -2.1575091575091574, -2.352869352869353, -4.003663003663004, -1.71875, 0.09375, 0.6875, 0.0
686, -2.590964590964591, -3.098901098901099, -3.9365079365079363, -2.25, 0.1875, 0.875, 0.0
687, -0.9572649572649573, -4.242979242979243, -2.5494505494505493, -2.875, 0.34375, 0.875, 0.0
688, -0.3882783882783883, -2.9682539682539684, -1.376068376068376, -2.71875, 0.6875, 0.71875, 0.0
689, -1.2954822954822955, -2.1758241758241756, -1.7155067155067154, -2.25, 1.0, 0.84375, 0.0
690, -2.225885225885226, -2.573870573870574, -3.225885225885226, -2.375, 0.9375, 0.9375, 0.0
691, -1.5335775335775337, -4.2796092796092795, -2.8241758241758244, -3.25, 0.6875, 0.96875, 0.0
692, -1.4554334554334554, -3.6971916971916974, -1.5677655677655677, -3.6875, 0.71875, 0.84375, 0.0
693, -1.5128205128205128, -2.0085470085470085, -1.1391941391941391, -3.0625, 0.71875, 0.9375, 0.0
694, -2.173382173382173, -3.3394383394383396, -2.741147741147741, -3.0, 0.34375, 1.125, 0.0
695, -2.0183150183150182, -4.908424908424909, -1.6715506715506716, -3.75, 0.5625, 1.1875, 0.0
696, -1.5970695970695972, -2.9157509157509156, -0.6495726495726496, -4.1875, 1.34375, 1.03125, 0.0
697, -1.1037851037851039, -0.9938949938949939, -0.989010989010989, -3.8125, 1.5, 1.0625, 0.0
698, -0.7484737484737485, -0.9291819291819292, -2.221001221001221, -3.40625, 0.71875, 1.09375, 0.0
699, -1.9426129426129426, -1.8376068376068375, -2.5665445665445668, -3.6875, -0.125, 1.125, 0.0
700, -3.004884004884005, -1.8327228327228327, -1.5738705738705738, -3.9375, 0.0, 1.25, 0.0
701, -2.086691086691087, -1.3650793650793651, -0.7838827838827839, -3.90625, 0.71875, 1.65625, 0.0
702, -0.28205128205128205, -0.8046398046398047, -0.7814407814407814, -3.5, 0.78125, 1.71875, 0.0
703, -0.4163614163614164, -1.8583638583638584, -1.8693528693528694, -3.34375, -0.09375, 1.59375, 0.0
704, -2.028083028083028, -2.2857142857142856, -2.0268620268620268, -3.90625, -0.4375, 1.1875, 0.0
705, -2.536019536019536, -1.6703296703296704, -1.1514041514041513, -4.46875, -0.1875, 1.34375, 0.0
706, -1.3247863247863247, -2.191697191697192, 0.15873015873015872, -4.53125, 0.1875, 1.65625, 0.0
707, 0.9120879120879121, -3.5286935286935286, 2.346764346764347, -4.40625, 0.28125, 1.84375, 0.0
708, 3.451770451770452, -4.26007326007326, 4.61050061050061, -4.1875, -0.1875, 1.5625, 0.0
709, 3.0305250305250304, -2.525030525030525, 5.041514041514041, -3.5625, -1.25, 1.09375, 0.0
710, 1.73992673992674, -2.0195360195360195, 2.9743589743589745, -2.78125, -1.65625, 1.0, 0.0
711, 0.8327228327228328, -2.137973137973138, 1.2075702075702075, -2.53125, -1.09375, 1.09375, 0.0
712, 1.2612942612942613, -1.7387057387057387, 1.3614163614163615, -2.71875, -0.125, 1.15625, 0.0
713, 1.783882783882784, -0.8278388278388278, 2.10989010989011, -2.75, 0.3125, 1.09375, 0.0
714, 1.4297924297924298, -0.3785103785103785, 2.0244200244200243, -2.5625, 0.15625, 1.09375, 0.0
715, 1.3333333333333333, -0.6495726495726496, 1.6727716727716728, -2.4375, 0.0, 1.15625, 0.0
716, 1.6642246642246643, -1.1123321123321124, 1.404151404151404, -2.4375, -0.3125, 1.0625, 0.0
717, 1.6056166056166057, -1.1758241758241759, 1.352869352869353, -2.4375, -0.40625, 0.96875, 0.0
718, 1.6312576312576312, -1.078144078144078, 1.6446886446886446, -2.3125, -0.125, 1.0, 0.0
719, 1.5885225885225884, -1.4505494505494505, 2.029304029304029, -2.125, 0.15625, 0.96875, 0.0
720, 1.9633699633699633, -1.5897435897435896, 2.84004884004884, -2.03125, 0.21875, 0.84375, 0.0
721, 1.9963369963369964, -1.199023199023199, 3.562881562881563, -1.78125, 0.15625, 0.71875, 0.0
722, 1.8034188034188035, -0.7594627594627594, 3.797313797313797, -1.34375, 0.375, 0.75, 0.0
723, 2.5177045177045176, -0.8986568986568987, 3.938949938949939, -1.09375, 0.34375, 0.59375, 0.0
724, 2.73992673992674, -0.30158730158730157, 4.094017094017094, -0.875, 0.0625, 0.4375, 0.0
725, 2.5164835164835164, -0.221001221001221, 3.57997557997558, -0.625, 0.0625, 0.3125, 0.0
726, 2.26007326007326, -0.17704517704517705, 3.2222222222222223, -0.46875, 0.21875, 0.21875, 0.0
727, 2.034188034188034, -0.040293040293040296, 3.070818070818071, -0.34375, 0.28125, 0.15625, 0.0
728, 1.6532356532356531, 0.1978021978021978, 2.918192918192918, -0.1875, 0.3125, 0.125, 0.0
729, 1.5445665445665446, 0.2503052503052503, 2.722832722832723, -0.125, 0.34375, 0.0625, 0.0
730, 1.4700854700854702, 0.11721611721611722, 2.4078144078144077, -0.09375, 0.25, 0.0, 0.0
731, 0.5115995115995116, 0.24175824175824176, 2.1306471306471306, -0.03125, 0.34375, -0.03125, 0.0
732, -0.05860805860805861, 0.20024420024420025, 1.8742368742368742, 0.03125, 0.53125, 0.0, 0.0
733, 0.24664224664224665, 0.08180708180708181, 1.6446886446886446, 0.125, 0.4375, 0.0, 0.0
734, 0.22344322344322345, 0.1282051282051282, 1.3125763125763126, 0.125, 0.25, 0.0, 0.0
735, 0.019536019536019536, 0.409035409035409, 0.8974358974358975, 0.1875, 0.15625, 0.0, 0.0
736, -0.1746031746031746, 0.4725274725274725, 0.31135531135531136, 0.21875, 0.15625, 0.0, 0.0
737, -0.13186813186813187, 0.336996336996337, -0.026862026862026864, 0.125, 0.1875, 0.03125, 0.0
738, 0.1684981684981685, 0.4468864468864469, 0.052503052503052504, 0.03125, 0.03125, 0.03125, 0.0
739, 0.26495726495726496, 0.6532356532356532, 0.221001221001221, 0.03125, -0.1875, 0.0, 0.0
740, 0.15506715506715507, 0.6153846153846154, 0.2967032967032967, 0.0625, -0.375, 0.0, 0.0
741, 0.06715506715506715, 0.7631257631257631, 0.07448107448107448, 0.09375, -0.375, 0.0, 0.0
742, -0.020757020757020756, 0.5067155067155067, -0.21123321123321123, 0.0625, -0.09375, 0.03125, 0.0
743, 0.3076923076923077, 0.6068376068376068, 0.2967032967032967, 0.03125, -0.03125, 0.0625, 0.0
744, 0.5433455433455433, 0.5787545787545788, 0.5177045177045178, 0.09375, -0.0625, 0.0625, 0.0
745, 0.5299145299145299, 0.5396825396825397, 0.5726495726495726, 0.25, -0.125, 0.0, 0.0
746, 0.48595848595848595, 0.5103785103785103, 0.5457875457875457, 0.40625, -0.0625, 0.03125, 0.0
747, 0.6605616605616605, 0.4481074481074481, 1.0341880341880343, 0.6875, 0.03125, 0.0, 1.0
748, 1.6617826617826619, -0.4810744810744811, 1.6251526251526252, 0.8125, 0.09375, 0.0, 1.0
749, 1.6263736263736264, -0.28815628815628813, 2.04029304029304, 0.78125, 0.0, -0.1875, 1.0
750, 1.6007326007326008, -0.25518925518925517, 2.2576312576312576, 0.65625, 0.0, -0.25, 1.0
751, 1.6556776556776556, 0.05982905982905983, 2.3003663003663, 0.59375, 0.0, -0.34375, 1.0
752, 1.5897435897435896, -0.2869352869352869, 2.741147741147741, 0.71875, 0.03125, -0.40625, 1.0
753, 1.9633699633699633, -0.0463980463980464, 3.606837606837607, 0.84375, 0.21875, -0.4375, 1.0
754, 2.5054945054945055, -0.6471306471306472, 4.034188034188034, 1.3125, 0.375, -0.46875, 1.0
755, 2.4065934065934065, -0.9755799755799756, 3.9743589743589745, 1.71875, 0.4375, -0.59375, 1.0
756, 2.445665445665446, -1.2661782661782661, 3.5995115995115996, 2.03125, 0.5, -0.6875, 1.0
757, 2.445665445665446, -1.647130647130647, 3.3394383394383396, 2.25, 0.4375, -0.8125, 1.0
758, 2.2173382173382175, -2.0207570207570207, 3.4542124542124544, 2.5, 0.3125, -0.9375, 1.0
759, 2.7753357753357752, -2.916971916971917, 3.286935286935287, 2.78125, 0.21875, -1.09375, 1.0
760, 1.7728937728937728, -3.120879120879121, 2.913308913308913, 2.875, 0.0, -1.34375, 1.0
761, 1.0195360195360195, -3.1855921855921854, 2.3455433455433456, 3.15625, 0.25, -1.375, 1.0
762, 1.652014652014652, -3.4896214896214897, 2.039072039072039, 3.40625, 0.4375, -1.34375, 1.0
763, 1.3199023199023199, -3.8815628815628815, 1.73992673992674, 3.5625, 0.25, -1.40625, 1.0
764, 1.4603174603174602, -4.1330891330891335, 1.3186813186813187, 3.6875, 0.03125, -1.5, 1.0
765, 1.0427350427350428, -4.448107448107448, 0.9474969474969475, 3.78125, -0.28125, -1.625, 1.0
766, 0.2454212454212454, -4.482295482295482, 0.6398046398046398, 3.96875, -0.375, -1.65625, 1.0
767, -0.026862026862026864, -4.6752136752136755, 0.030525030525030524, 4.09375, -0.25, -1.65625, 1.0
768, -0.1575091575091575, -4.632478632478633, -0.6568986568986569, 4.0625, -0.3125, -1.6875, 1.0
769, -0.6581196581196581, -5.346764346764346, -0.7496947496947497, 3.9375, -0.125, -1.6875, 1.0
770, 0.22954822954822954, -4.7203907203907205, -0.49694749694749696, 4.03125, -0.1875, -1.71875, 1.0
771, 0.2503052503052503, -4.676434676434677, -0.9072039072039072, 4.125, -0.625, -1.71875, 1.0
772, -1.3382173382173381, -4.628815628815629, -1.6837606837606838, 4.125, -0.75, -1.6875, 1.0
773, -1.9926739926739927, -5.051282051282051, -2.191697191697192, 4.0, -0.3125, -1.5625, 1.0
774, -1.2808302808302807, -4.584859584859585, -2.31990231990232, 3.875, -0.28125, -1.53125, 1.0
775, -1.1538461538461537, -4.339438339438339, -2.669108669108669, 3.6875, -0.6875, -1.5, 1.0
776, -2.0634920634920637, -3.9523809523809526, -2.832722832722833, 3.59375, -1.09375, -1.46875, 1.0
777, -3.4126984126984126, -3.746031746031746, -3.236874236874237, 3.4375, -0.90625, -1.3125, 1.0
778, -3.2515262515262515, -3.844932844932845, -3.63003663003663, 3.3125, -0.5625, -1.125, 1.0
779, -2.7203907203907205, -3.5067155067155067, -3.5885225885225887, 3.25, -0.3125, -0.9375, 1.0
780, -1.474969474969475, -4.087912087912088, -3.363858363858364, 3.0, -0.3125, -0.875, 1.0
781, -1.9987789987789988, -3.346764346764347, -3.2918192918192917, 2.75, -0.125, -0.96875, 1.0
782, -2.826617826617827, -2.5006105006105006, -3.5995115995115996, 2.65625, 0.34375, -0.84375, 1.0
783, -1.9206349206349207, -2.2112332112332114, -4.202686202686203, 2.53125, 0.25, -0.65625, 1.0
784, -1.0744810744810744, -2.473748473748474, -4.004884004884005, 2.25, -0.40625, -0.5625, 1.0
785, -2.3675213675213675, -1.8131868131868132, -4.021978021978022, 2.1875, -0.65625, -0.34375, 1.0
786, -2.1514041514041513, -2.4126984126984126, -4.147741147741148, 1.96875, -0.53125, -0.25, 1.0
787, -1.4114774114774116, -2.2905982905982905, -4.070818070818071, 1.59375, -0.375, -0.34375, 1.0
788, -1.0427350427350428, -1.7851037851037852, -3.4932844932844933, 1.5, -0.125, -0.40625, 1.0
789, -0.8192918192918193, -1.6654456654456655, -2.78021978021978, 1.46875, -0.03125, -0.34375, 1.0
790, -0.2258852258852259, -1.5970695970695972, -1.9865689865689866, 1.46875, -0.28125, -0.3125, 1.0
791, -1.8705738705738706, -2.0805860805860807, -3.5995115995115996, 1.09375, -0.4375, -0.4375, 1.0
792, -2.5921855921855923, -1.054945054945055, -3.197802197802198, 0.9375, 0.0, -0.375, 1.0
793, -2.247863247863248, -1.5628815628815629, -2.8473748473748475, 1.0625, 0.5, -0.15625, 1.0
794, -1.249084249084249, -1.763125763125763, -2.5128205128205128, 0.9375, 0.59375, 0.0, 1.0
795, -0.7484737484737485, -1.9731379731379732, -2.2747252747252746, 0.8125, 0.34375, 0.0, 1.0
796, -1.043956043956044, -2.098901098901099, -2.347985347985348, 0.59375, 0.09375, 0.0625, 1.0
797, -1.2954822954822955, -1.540903540903541, -1.9536019536019535, 0.40625, 0.03125, 0.125, 1.0
798, -0.7484737484737485, -1.9316239316239316, -1.8717948717948718, 0.46875, 0.125, 0.25, 1.0
799, -0.503052503052503, -2.208791208791209, -2.1245421245421245, 0.28125, 0.09375, 0.25, 1.0
800, -0.16483516483516483, -2.0488400488400487, -1.783882783882784, 0.03125, 0.09375, 0.0625, 1.0
801, -0.702075702075702, -1.6776556776556777, -1.8046398046398047, -0.125, 0.21875, 0.03125, 1.0
802, -0.41025641025641024, -1.4993894993894994, -1.293040293040293, -0.125, 0.34375, 0.0625, 1.0
803, -0.7435897435897436, -1.3137973137973138, -1.0598290598290598, -0.09375, 0.21875, 0.15625, 1.0
804, -1.05006105006105, -1.5128205128205128, -1.2637362637362637, -0.09375, 0.0625, 0.25, 0.0
805, -0.33577533577533575, -2.3772893772893773, -1.4737484737484738, -0.4375, -0.1875, 0.25, 0.0
806, 0.12332112332112333, -2.142857142857143, -1.1355311355311355, -1.0625, -0.4375, 0.09375, 0.0
807, 0.3052503052503053, -1.336996336996337, -0.73992673992674, -1.09375, -0.28125, 0.0, 0.0
808, 0.09401709401709402, -0.9768009768009768, -0.6275946275946276, -0.59375, -0.03125, 0.0, 0.0
809, -0.4932844932844933, -1.2307692307692308, -1.0866910866910866, -0.28125, 0.09375, 0.03125, 0.0
810, -1.3748473748473748, -1.4273504273504274, -1.6874236874236874, -0.25, 0.0625, 0.0625, 0.0
811, -0.884004884004884, -2.0537240537240535, -1.8205128205128205, -0.40625, -0.03125, 0.125, 0.0
812, -0.8669108669108669, -1.9597069597069596, -1.47985347985348, -0.75, -0.1875, 0.09375, 0.0
813, -0.49572649572649574, -1.6043956043956045, -0.9133089133089133, -0.75, 0.0, 0.09375, 0.0
814, -0.34554334554334554, -1.8058608058608059, -1.2014652014652014, -0.59375, 0.34375, 0.125, 0.0
815, -0.63003663003663, -1.8473748473748475, -1.9181929181929183, -0.8125, 0.53125, 0.0625, 0.0
816, -0.7509157509157509, -2.0586080586080584, -2.628815628815629, -1.125, 0.3125, 0.03125, 0.0
817, -0.6727716727716728, -2.1343101343101343, -2.802197802197802, -1.40625, 0.03125, 0.0625, 0.0
818, -0.8962148962148963, -1.9059829059829059, -2.3894993894993894, -1.5, 0.0, 0.15625, 0.0
819, -1.363858363858364, -1.7704517704517704, -2.045177045177045, -1.46875, 0.28125, 0.25, 0.0
820, -2.432234432234432, -1.551892551892552, -2.3626373626373627, -1.46875, 0.71875, 0.34375, 0.0
821, -2.567765567765568, -2.0366300366300365, -2.855921855921856, -1.65625, 0.875, 0.5, 0.0
822, -1.8339438339438339, -2.462759462759463, -2.6910866910866913, -1.875, 0.625, 0.59375, 0.0
823, -1.4004884004884004, -2.393162393162393, -1.7826617826617828, -1.8125, 0.25, 0.71875, 0.0
824, -1.199023199023199, -2.7704517704517704, -1.336996336996337, -1.75, -0.0625, 0.84375, 0.0
825, -1.94993894993895, -2.8107448107448105, -1.971916971916972, -1.84375, -0.15625, 0.90625, 0.0
826, -2.4603174603174605, -2.8253968253968256, -3.0781440781440783, -2.1875, -0.15625, 0.96875, 0.0
827, -2.942612942612943, -3.178266178266178, -3.713064713064713, -2.625, 0.0, 1.09375, 0.0
828, -3.3772893772893773, -3.0097680097680097, -3.768009768009768, -2.9375, 0.53125, 1.21875, 0.0
829, -2.6336996336996337, -3.507936507936508, -3.446886446886447, -3.1875, 1.0625, 1.34375, 0.0
830, -1.8937728937728937, -3.7875457875457874, -2.5323565323565322, -3.4375, 1.34375, 1.4375, 0.0
831, -0.7948717948717948, -3.7423687423687424, -1.586080586080586, -3.59375, 1.5625, 1.375, 0.0
832, -0.37484737484737485, -2.299145299145299, -1.2759462759462759, -3.375, 1.4375, 1.21875, 0.0
833, -0.4908424908424908, -1.9658119658119657, -1.822954822954823, -3.3125, 0.625, 1.21875, 0.0
834, -1.3675213675213675, -3.404151404151404, -1.6507936507936507, -3.84375, 0.1875, 1.28125, 0.0
835, -2.0744810744810747, -3.2527472527472527, -0.27350427350427353, -4.15625, 1.125, 1.21875, 0.0
836, -1.0158730158730158, -1.2844932844932846, 0.9023199023199023, -3.625, 2.09375, 1.34375, 0.0
837, 1.0354090354090355, -0.32234432234432236, 0.6410256410256411, -3.0625, 1.46875, 1.3125, 0.0
838, 1.0244200244200243, -0.17826617826617827, -0.7716727716727717, -3.125, -0.03125, 1.0625, 0.0
839, -2.6984126984126986, 0.06227106227106227, -1.9548229548229548, -3.53125, 0.125, 1.3125, 0.0
840, -1.15995115995116, -1.442002442002442, -0.9682539682539683, -3.71875, 1.5625, 1.5625, 0.0
841, 1.6764346764346765, -1.496947496947497, -0.013431013431013432, -3.71875, 1.1875, 1.40625, 0.0
842, 0.518925518925519, -1.6764346764346765, 0.6288156288156288, -3.59375, 0.0625, 1.1875, 0.0
843, 0.3492063492063492, -2.1941391941391943, 0.9316239316239316, -3.375, -0.09375, 1.15625, 0.0
844, 1.7936507936507937, -2.4249084249084247, 0.7032967032967034, -3.21875, -0.3125, 0.84375, 0.0
845, 0.13064713064713065, -1.5604395604395604, -0.015873015873015872, -3.3125, -0.9375, 0.5625, 0.0
846, -1.4761904761904763, -1.363858363858364, 0.2564102564102564, -3.375, -0.25, 0.75, 0.0
847, 0.4700854700854701, -1.5067155067155067, 1.431013431013431, -3.25, 0.65625, 0.96875, 0.0
848, 1.3235653235653235, -1.2173382173382172, 1.7692307692307692, -3.15625, 0.28125, 0.71875, 0.0
849, -0.9938949938949939, -0.11477411477411477, 1.5494505494505495, -3.09375, -0.21875, 0.71875, 0.0
850, -0.3540903540903541, -1.1135531135531136, 1.5262515262515262, -2.8125, 0.28125, 1.03125, 0.0
851, 2.043956043956044, -1.564102564102564, 1.8595848595848596, -2.90625, 0.3125, 0.84375, 0.0
852, 1.0073260073260073, -0.9682539682539683, 2.0134310134310134, -3.09375, -0.21875, 0.59375, 0.0
853, 0.13675213675213677, -0.6043956043956044, 1.7851037851037852, -2.96875, -0.25, 0.625, 0.0
854, 0.1684981684981685, -0.8681318681318682, 1.6202686202686203, -2.75, 0.0, 0.84375, 0.0
855, 0.7374847374847375, -1.636141636141636, 1.5714285714285714, -2.65625, 0.09375, 0.9375, 0.0
856, 1.188034188034188, -1.8192918192918193, 1.778998778998779, -2.71875, 0.03125, 0.78125, 0.0
857, 0.5934065934065934, -1.6324786324786325, 2.371184371184371, -2.71875, -0.03125, 0.71875, 0.0
858, 0.8571428571428571, -1.3443223443223444, 3.1074481074481075, -2.5, 0.0, 0.8125, 0.0
859, 1.5946275946275947, -1.2832722832722834, 3.768009768009768, -2.15625, -0.125, 0.84375, 0.0
860, 1.8876678876678876, -1.4432234432234432, 3.815628815628816, -1.8125, -0.4375, 0.78125, 0.0
861, 1.6654456654456655, -1.4053724053724053, 3.553113553113553, -1.59375, -0.53125, 0.625, 0.0
862, 1.6251526251526252, -0.9206349206349206, 3.675213675213675, -1.40625, -0.34375, 0.625, 0.0
863, 2.0903540903540905, -0.5848595848595849, 3.7985347985347984, -1.1875, -0.21875, 0.5625, 0.0
864, 2.3626373626373627, -0.42246642246642246, 3.659340659340659, -0.90625, -0.15625, 0.46875, 0.0
865, 2.5457875457875456, -0.48595848595848595, 3.432234432234432, -0.8125, -0.0625, 0.375, 0.0
866, 2.6935286935286937, -0.3321123321123321, 3.6923076923076925, -0.71875, -0.09375, 0.25, 0.0
867, 2.3015873015873014, 0.01098901098901099, 3.998778998778999, -0.5, -0.21875, 0.125, 0.0
868, 1.4884004884004884, 0.1978021978021978, 3.6312576312576312, -0.21875, 0.0, 0.15625, 0.0
869, 2.006105006105006, -0.10012210012210013, 3.098901098901099, -0.09375, 0.15625, 0.03125, 0.0
870, 1.9035409035409034, 0.10989010989010989, 2.67032967032967, -0.03125, -0.03125, -0.0625, 0.0
871, 0.7985347985347986, 0.27350427350427353, 1.9438339438339438, 0.03125, -0.0625, -0.0625, 0.0
872, 0.3076923076923077, 0.29426129426129427, 1.3186813186813187, 0.125, 0.0625, 0.0, 0.0
873, 0.5177045177045178, 0.1562881562881563, 0.9963369963369964, 0.09375, 0.0625, -0.03125, 0.0
874, 0.13553113553113552, 0.3418803418803419, 0.6642246642246642, 0.0625, 0.09375, 0.0, 0.0
875, 0.020757020757020756, 0.3199023199023199, 0.4358974358974359, 0.0625, 0.1875, 0.0, 0.0
876, 0.26495726495726496, 0.514041514041514, 0.557997557997558, 0.0625, 0.09375, 0.0, 0.0
877, 0.442002442002442, 0.27350427350427353, 0.6825396825396826, 0.0625, -0.125, -0.03125, 0.0
878, -0.026862026862026864, 0.35653235653235654, 0.6605616605616605, 0.0625, -0.15625, -0.03125, 0.0
879, -0.15262515262515264, 0.4713064713064713, 0.49206349206349204, 0.15625, 0.0625, 0.0, 0.0
880, 0.5518925518925519, 0.398046398046398, 0.6068376068376068, 0.125, 0.09375, 0.0, 0.0
881, 0.7155067155067155, 0.4603174603174603, 0.8327228327228328, 0.125, 0.03125, -0.0625, 0.0
882, 0.6336996336996337, 0.4456654456654457, 1.126984126984127, 0.28125, 0.15625, -0.0625, 0.0
883, 1.0854700854700854, 0.304029304029304, 1.967032967032967, 0.71875, 0.375, -0.09375, 1.0
884, 1.5555555555555556, 0.22466422466422467, 2.78998778998779, 1.25, 0.46875, -0.125, 1.0
885, 2.1074481074481075, -0.9731379731379731, 2.6324786324786325, 1.1875, 0.4375, -0.21875, 1.0
886, 2.1404151404151404, -0.6178266178266179, 3.087912087912088, 0.90625, 0.5, -0.34375, 1.0
887, 2.4481074481074483, -0.7631257631257631, 3.9474969474969477, 1.03125, 0.59375, -0.40625, 1.0
888, 2.8058608058608057, -0.8205128205128205, 4.507936507936508, 1.75, 0.5, -0.53125, 1.0
889, 2.432234432234432, -1.297924297924298, 3.8547008547008548, 2.1875, 0.4375, -0.59375, 1.0
890, 2.3516483516483517, -1.6898656898656899, 3.043956043956044, 2.40625, 0.53125, -0.65625, 1.0
891, 2.457875457875458, -2.341880341880342, 2.7765567765567765, 2.53125, 0.59375, -0.8125, 1.0
892, 2.1123321123321124, -2.3333333333333335, 2.998778998778999, 2.59375, 0.5625, -0.96875, 1.0
893, 1.8608058608058609, -2.722832722832723, 3.0317460317460316, 2.90625, 0.375, -1.03125, 1.0
894, 1.4542124542124542, -3.586080586080586, 2.815628815628816, 3.15625, 0.0, -1.15625, 1.0
895, 0.27472527472527475, -3.5885225885225887, 1.728937728937729, 3.40625, -0.03125, -1.21875, 1.0
896, 0.7118437118437119, -3.6483516483516483, 0.9755799755799756, 3.65625, 0.3125, -1.1875, 1.0
897, 0.8461538461538461, -3.913308913308913, 0.47985347985347987, 3.71875, 0.25, -1.1875, 1.0
898, 0.8424908424908425, -3.822954822954823, 0.4652014652014652, 3.625, 0.0, -1.34375, 1.0
899, -0.020757020757020756, -3.507936507936508, 0.5079365079365079, 3.71875, -0.4375, -1.375, 1.0
900, -1.452991452991453, -3.4249084249084247, 0.09523809523809523, 3.875, -0.5625, -1.28125, 1.0
901, -0.017094017094017096, -4.163614163614164, -0.5677655677655677, 4.0625, -0.28125, -1.15625, 1.0
902, 0.7496947496947497, -4.2686202686202686, -0.7057387057387058, 3.90625, -0.34375, -1.3125, 1.0
903, -0.007326007326007326, -4.137973137973138, -0.16117216117216118, 3.78125, -0.40625, -1.40625, 1.0
904, -0.11721611721611722, -3.802197802197802, 0.2588522588522589, 3.90625, -0.1875, -1.34375, 1.0
905, -0.5738705738705738, -3.716727716727717, 0.09035409035409035, 4.0625, -0.21875, -1.28125, 1.0
906, -1.0561660561660562, -3.1184371184371185, -0.6862026862026862, 4.125, -0.375, -1.25, 1.0
907, -1.452991452991453, -2.7655677655677655, -1.7411477411477412, 4.1875, -0.6875, -1.125, 1.0
908, -1.6373626373626373, -3.52014652014652, -2.8815628815628815, 4.0625, -0.96875, -1.0625, 1.0
909, -1.6312576312576312, -3.634920634920635, -2.733821733821734, 3.71875, -0.875, -1.0625, 1.0
910, -1.3992673992673992, -2.68986568986569, -2.641025641025641, 3.75, -0.53125, -1.03125, 1.0
911, -2.167277167277167, -2.597069597069597, -3.8937728937728937, 3.90625, -0.53125, -0.96875, 1.0
912, -2.398046398046398, -2.722832722832723, -4.7826617826617825, 3.375, -0.65625, -0.8125, 1.0
913, -2.086691086691087, -3.1623931623931623, -4.454212454212454, 2.9375, -0.78125, -0.71875, 1.0
914, -1.065934065934066, -3.5115995115995116, -3.1941391941391943, 2.5625, -0.5, -0.84375, 1.0
915, -2.208791208791209, -1.835164835164835, -3.485958485958486, 2.6875, 0.0, -0.6875, 1.0
916, -1.6556776556776556, -1.6617826617826619, -4.57997557997558, 2.71875, 0.1875, -0.53125, 1.0
917, -0.717948717948718, -2.330891330891331, -5.156288156288157, 2.3125, -0.3125, -0.4375, 1.0
918, -0.4371184371184371, -2.860805860805861, -4.62026862026862, 1.78125, -0.96875, -0.59375, 1.0
919, -1.3833943833943834, -2.062271062271062, -3.490842490842491, 1.65625, -0.96875, -0.5625, 1.0
920, -1.7728937728937728, -1.3052503052503053, -2.896214896214896, 1.875, -0.4375, -0.40625, 1.0
921, -1.0671550671550671, -1.3540903540903542, -3.1526251526251525, 2.0, -0.28125, -0.3125, 1.0
922, -0.9768009768009768, -2.0097680097680097, -4.017094017094017, 1.6875, -0.53125, -0.34375, 1.0
923, -2.335775335775336, -1.8363858363858363, -4.68986568986569, 1.34375, -0.5, -0.3125, 1.0
924, -2.5225885225885225, -1.5384615384615385, -4.1611721611721615, 1.1875, -0.3125, -0.09375, 1.0
925, -2.2808302808302807, -1.5335775335775337, -3.3614163614163615, 1.1875, 0.125, 0.0625, 1.0
926, -0.7216117216117216, -1.8058608058608059, -2.184371184371184, 1.1875, 0.40625, 0.09375, 1.0
927, 0.08547008547008547, -2.0085470085470085, -1.9584859584859584, 1.03125, 0.34375, 0.0, 1.0
928, -0.5885225885225885, -1.7655677655677655, -2.8693528693528694, 0.8125, 0.09375, -0.03125, 1.0
929, -1.8376068376068375, -1.7057387057387057, -3.6214896214896215, 0.53125, -0.09375, 0.0, 1.0
930, -2.282051282051282, -1.982905982905983, -3.4932844932844933, 0.28125, -0.125, 0.15625, 1.0
931, -1.7203907203907205, -2.0964590964590966, -2.8547008547008548, 0.09375, -0.03125, 0.25, 1.0
932, -0.9914529914529915, -2.1184371184371185, -2.282051282051282, -0.0625, 0.0, 0.21875, 1.0
933, -0.2893772893772894, -2.1868131868131866, -1.9633699633699633, -0.34375, 0.0, 0.1875, 0.0
934, -0.5555555555555556, -1.7997557997557998, -2.0415140415140414, -0.5625, 0.0625, 0.125, 0.0
935, 0.10622710622710622, -1.811965811965812, -1.6288156288156288, -0.625, 0.09375, 0.0625, 0.0
936, 0.4017094017094017, -2.3235653235653237, -1.2307692307692308, -0.71875, -0.0625, 0.0625, 0.0
937, -0.15506715506715507, -1.6178266178266179, -1.1892551892551892, -0.65625, -0.125, 0.0, 0.0
938, -0.6764346764346765, -1.3833943833943834, -1.1672771672771673, -0.5625, -0.0625, 0.03125, 0.0
939, -1.2417582417582418, -1.144078144078144, -1.1037851037851039, -0.5, 0.03125, 0.0625, 0.0
940, -0.9804639804639804, -1.0915750915750915, -0.8925518925518926, -0.1875, 0.15625, 0.15625, 0.0
941, -0.09523809523809523, -1.9365079365079365, -0.9877899877899878, -0.09375, 0.0, 0.28125, 0.0
942, 0.12332112332112333, -2.0415140415140414, -0.757020757020757, -0.25, -0.3125, 0.1875, 0.0
943, -0.38583638583638585, -1.6385836385836385, -0.8266178266178266, -0.28125, -0.15625, 0.09375, 0.0
944, -0.48473748473748474, -1.7326007326007327, -1.1282051282051282, -0.3125, 0.15625, 0.09375, 0.0
945, -0.7081807081807082, -1.4432234432234432, -1.0952380952380953, -0.34375, 0.3125, 0.0625, 0.0
946, -0.8241758241758241, -1.8058608058608059, -1.2637362637362637, -0.28125, 0.28125, 0.15625, 0.0
947, -0.5299145299145299, -2.1709401709401708, -2.081807081807082, -0.34375, 0.125, 0.15625, 0.0
948, -0.7448107448107448, -2.4383394383394386, -2.8376068376068377, -0.65625, -0.21875, 0.15625, 0.0
949, -1.84004884004884, -2.346764346764347, -3.385836385836386, -0.96875, -0.46875, 0.15625, 0.0
950, -3.518925518925519, -2.2014652014652016, -3.9804639804639805, -1.21875, -0.3125, 0.28125, 0.0
951, -3.688644688644689, -2.694749694749695, -3.822954822954823, -1.5, 0.125, 0.5, 0.0
952, -1.7533577533577533, -3.2673992673992673, -2.744810744810745, -1.75, 0.5, 0.71875, 0.0
953, -0.6178266178266179, -3.4224664224664223, -2.4065934065934065, -1.875, 0.5, 0.75, 0.0
954, -1.1013431013431014, -3.202686202686203, -2.9645909645909647, -2.03125, 0.28125, 0.71875, 0.0
955, -3.0854700854700856, -3.0097680097680097, -3.8803418803418803, -2.25, 0.21875, 0.75, 0.0
956, -4.172161172161172, -3.382173382173382, -4.714285714285714, -2.53125, 0.34375, 0.90625, 0.0
957, -4.058608058608058, -4.089133089133089, -4.31990231990232, -2.96875, 0.4375, 1.1875, 0.0
958, -2.84981684981685, -4.119658119658119, -3.0488400488400487, -3.3125, 0.6875, 1.46875, 0.0
959, -2.0805860805860807, -3.6715506715506714, -2.744810744810745, -3.28125, 0.9375, 1.53125, 0.0
960, -2.416361416361416, -3.5115995115995116, -3.716727716727717, -3.3125, 0.6875, 1.53125, 0.0
961, -3.335775335775336, -4.327228327228327, -4.096459096459096, -4.15625, 0.34375, 1.65625, 0.0
962, -2.6495726495726495, -5.074481074481074, -1.768009768009768, -4.71875, 1.28125, 1.78125, 0.0
963, -1.6703296703296704, -2.73992673992674, 0.21245421245421245, -4.09375, 2.25, 1.8125, 0.0
964, -0.3833943833943834, -1.5873015873015872, 0.21611721611721613, -3.4375, 2.0625, 1.875, 0.0
965, 0.757020757020757, -1.7924297924297925, -1.126984126984127, -3.5625, 0.625, 1.59375, 0.0
966, -0.7032967032967034, -2.9536019536019538, -1.6715506715506716, -4.5, -0.09375, 1.28125, 0.0
967, -2.133089133089133, -2.5335775335775335, -0.031746031746031744, -4.9375, 1.1875, 1.40625, 0.0
968, -0.3833943833943834, -0.3907203907203907, 1.1758241758241759, -4.125, 2.0, 1.59375, 0.0
969, 1.9316239316239316, -0.3968253968253968, 1.1831501831501832, -3.59375, 0.75, 1.40625, 0.0
970, 0.8412698412698413, -0.8217338217338217, 0.221001221001221, -3.71875, -0.625, 1.125, 0.0
971, -2.6605616605616604, -0.5543345543345544, -0.4358974358974359, -3.96875, 0.0, 1.3125, 0.0
972, -1.678876678876679, -0.557997557997558, 0.4017094017094017, -3.8125, 0.71875, 1.71875, 0.0
973, 1.3992673992673992, -0.7826617826617827, 1.612942612942613, -3.4375, 0.03125, 1.6875, 0.0
974, 1.2905982905982907, -0.6654456654456654, 1.424908424908425, -3.09375, -1.03125, 1.46875, 0.0
975, -1.4505494505494505, -2.0671550671550674, 0.07814407814407814, -3.1875, -0.5, 1.53125, 0.0
976, -0.3772893772893773, -3.884004884004884, 0.8058608058608059, -3.75, 0.5625, 1.4375, 0.0
977, 2.6935286935286937, -3.7655677655677655, 3.1196581196581197, -4.0625, 0.375, 1.09375, 0.0
978, 1.794871794871795, -1.7606837606837606, 4.183150183150183, -3.5, 0.0, 0.96875, 0.0
979, 0.10622710622710622, -1.667887667887668, 3.3492063492063493, -2.8125, 0.125, 1.15625, 0.0
980, 0.6654456654456654, -2.8144078144078146, 2.8315018315018317, -2.71875, 0.21875, 1.21875, 0.0
981, 2.456654456654457, -2.68986568986569, 2.3626373626373627, -2.84375, 0.21875, 0.84375, 0.0
982, 1.6556776556776556, -2.015873015873016, 2.437118437118437, -2.84375, 0.46875, 0.6875, 0.0
983, 0.9633699633699634, -1.308913308913309, 3.1404151404151404, -2.59375, 0.6875, 0.84375, 0.0
984, 2.166056166056166, -1.0048840048840049, 3.9108669108669107, -2.21875, 0.25, 0.84375, 0.0
985, 2.4652014652014653, -0.9108669108669109, 4.001221001221001, -1.84375, -0.3125, 0.75, 0.0
986, 1.5738705738705738, -0.6776556776556777, 2.623931623931624, -1.46875, 0.28125, 0.75, 0.0
987, 2.2698412698412698, -0.7533577533577533, 3.346764346764347, -1.53125, 0.5625, 0.59375, 0.0
988, 1.735042735042735, -0.10744810744810745, 3.929181929181929, -1.34375, 0.375, 0.5, 0.0
989, 1.9035409035409034, -0.4700854700854701, 3.7643467643467643, -1.03125, 0.1875, 0.46875, 0.0
990, 1.8925518925518925, -0.315018315018315, 3.681318681318681, -0.90625, 0.0625, 0.34375, 0.0
991, 1.6703296703296704, -0.315018315018315, 3.68986568986569, -0.8125, 0.0, 0.21875, 0.0
992, 1.4297924297924298, 0.09768009768009768, 3.330891330891331, -0.625, 0.0, 0.15625, 0.0
993, 1.2136752136752136, -0.12698412698412698, 2.658119658119658, -0.34375, 0.25, 0.15625, 0.0
994, 1.1355311355311355, 0.08913308913308914, 2.568986568986569, -0.28125, 0.5, 0.15625, 0.0
995, 1.36996336996337, -0.003663003663003663, 2.673992673992674, -0.21875, 0.46875, 0.09375, 0.0
996, 1.0940170940170941, 0.21367521367521367, 2.537240537240537, -0.15625, 0.25, 0.0, 0.0
997, 0.6568986568986569, 0.34554334554334554, 2.142857142857143, -0.0625, 0.09375, -0.03125, 0.0
998, 0.03785103785103785, 0.42002442002442003, 1.5677655677655677, 0.0, 0.15625, 0.0, 0.0
999, 0.42246642246642246, 0.398046398046398, 1.286935286935287, 0.0, 0.3125, 0.03125, 0.0
1000, 0.6581196581196581, 0.36385836385836384, 1.2942612942612943, 0.0, 0.21875, 0.0, 0.0
1001, 0.5934065934065934, 0.35653235653235654, 1.407814407814408, 0.0, -0.03125, -0.0625, 0.0
1002, -0.10622710622710622, 0.4981684981684982, 1.1758241758241759, 0.0625, -0.1875, -0.09375, 0.0
1003, -0.0757020757020757, 0.20146520146520147, 0.8070818070818071, 0.25, 0.03125, 0.0, 0.0
1004, 0.38095238095238093, 0.27594627594627597, 0.8168498168498168, 0.21875, 0.125, 0.0, 0.0
1005, 0.5860805860805861, 0.32844932844932845, 0.8742368742368742, 0.21875, 0.03125, -0.03125, 0.0
1006, 0.34065934065934067, 0.8913308913308914, 1.0598290598290598, 0.40625, -0.0625, -0.09375, 0.0
1007, 0.409035409035409, 0.2857142857142857, 1.3455433455433456, 0.84375, -0.15625, -0.0625, 1.0
1008, 0.7338217338217338, -0.1391941391941392, 1.9035409035409034, 1.0, -0.1875, 0.0, 1.0
1009, 1.2967032967032968, -0.6471306471306472, 2.324786324786325, 0.8125, -0.03125, -0.0625, 1.0
1010, 1.6178266178266179, -0.2857142857142857, 2.9096459096459095, 0.71875, 0.03125, -0.3125, 1.0
1011, 1.3064713064713065, 0.08302808302808302, 3.1074481074481075, 1.09375, 0.0625, -0.3125, 1.0
1012, 1.6715506715506716, -0.35653235653235654, 3.1623931623931623, 1.40625, 0.0625, -0.3125, 1.0
1013, 2.2698412698412698, -1.2148962148962148, 3.2893772893772892, 1.5, 0.0625, -0.46875, 1.0
1014, 2.399267399267399, -1.1733821733821734, 3.608058608058608, 1.71875, 0.03125, -0.59375, 1.0
1015, 2.5335775335775335, -1.601953601953602, 3.5750915750915753, 1.96875, -0.0625, -0.75, 1.0
1016, 1.8156288156288156, -1.746031746031746, 3.568986568986569, 2.375, 0.03125, -0.84375, 1.0
1017, 1.4957264957264957, -2.3956043956043955, 2.9804639804639805, 2.6875, 0.4375, -0.84375, 1.0
1018, 2.1697191697191696, -2.5921855921855923, 2.755799755799756, 2.84375, 0.375, -0.96875, 1.0
1019, 1.8095238095238095, -2.8315018315018317, 2.78998778998779, 3.0625, 0.09375, -1.0625, 1.0
1020, 1.8925518925518925, -3.275946275946276, 2.57997557997558, 3.28125, -0.3125, -1.1875, 1.0
1021, 1.811965811965812, -3.553113553113553, 1.8693528693528694, 3.4375, -0.6875, -1.40625, 1.0
1022, -0.09157509157509157, -3.67032967032967, 0.4835164835164835, 3.5625, -0.0625, -1.4375, 1.0
1023, 0.22466422466422467, -3.5641025641025643, 0.030525030525030524, 3.65625, 0.65625, -1.3125, 1.0
1024, 1.4114774114774116, -3.796092796092796, 0.37362637362637363, 3.65625, 0.5, -1.40625, 1.0
1025, 0.6568986568986569, -4.034188034188034, 0.7887667887667887, 3.6875, -0.03125, -1.46875, 1.0
1026, 0.24664224664224665, -3.7814407814407813, 1.0854700854700854, 3.9375, -0.5625, -1.5, 1.0
1027, -0.46642246642246643, -4.484737484737485, 0.33943833943833945, 4.03125, -0.78125, -1.46875, 1.0
1028, -0.7203907203907204, -4.778998778998779, -0.503052503052503, 4.03125, -0.59375, -1.46875, 1.0
1029, -0.45054945054945056, -4.559218559218559, -0.7985347985347986, 4.03125, -0.5, -1.5, 1.0
1030, -1.2246642246642248, -3.7765567765567765, -1.4188034188034189, 4.125, -0.46875, -1.46875, 1.0
1031, -1.4505494505494505, -4.042735042735043, -2.156288156288156, 4.03125, -0.46875, -1.3125, 1.0
1032, -0.8315018315018315, -4.343101343101343, -2.2356532356532357, 3.875, -0.375, -1.375, 1.0
1033, -0.8424908424908425, -4.611721611721611, -1.8705738705738706, 3.75, -0.25, -1.34375, 1.0
1034, -1.6398046398046398, -3.3663003663003663, -1.9768009768009769, 3.8125, -0.25, -1.0625, 1.0
1035, -2.023199023199023, -2.8241758241758244, -2.802197802197802, 3.75, -0.1875, -0.90625, 1.0
1036, -1.879120879120879, -2.514041514041514, -2.987789987789988, 3.5, -0.1875, -0.84375, 1.0
1037, -1.9157509157509158, -2.5164835164835164, -3.3687423687423688, 3.46875, -0.125, -0.75, 1.0
1038, -1.297924297924298, -2.625152625152625, -3.84981684981685, 3.4375, -0.125, -0.59375, 1.0
1039, -1.4932844932844933, -2.481074481074481, -4.385836385836386, 3.15625, -0.34375, -0.625, 1.0
1040, -1.673992673992674, -2.358974358974359, -4.158730158730159, 2.90625, -0.40625, -0.5625, 1.0
1041, -1.5274725274725274, -2.32967032967033, -4.056166056166056, 2.78125, -0.21875, -0.46875, 1.0
1042, -1.7411477411477412, -2.1306471306471306, -4.1501831501831505, 2.53125, -0.09375, -0.40625, 1.0
1043, -1.4151404151404152, -2.0097680097680097, -4.192918192918193, 2.3125, 0.1875, -0.34375, 1.0
1044, -0.18803418803418803, -2.137973137973138, -3.4884004884004884, 2.09375, 0.34375, -0.40625, 1.0
1045, -0.5555555555555556, -1.7667887667887667, -3.318681318681319, 1.90625, 0.0, -0.4375, 1.0
1046, -2.0781440781440783, -1.1367521367521367, -3.815628815628816, 1.84375, -0.28125, -0.3125, 1.0
1047, -2.076923076923077, -1.568986568986569, -4.267399267399267, 1.75, -0.15625, -0.125, 1.0
1048, -1.249084249084249, -1.811965811965812, -3.9963369963369964, 1.53125, -0.15625, -0.03125, 1.0
1049, -1.2661782661782661, -1.84004884004884, -3.761904761904762, 1.34375, -0.34375, -0.03125, 1.0
1050, -0.8095238095238095, -2.0427350427350426, -4.177045177045177, 1.1875, -0.3125, 0.0, 1.0
1051, -0.7814407814407814, -1.866910866910867, -4.487179487179487, 0.90625, -0.1875, -0.03125, 1.0
1052, -0.8571428571428571, -1.8217338217338217, -3.89010989010989, 0.6875, -0.125, -0.0625, 1.0
1053, -0.9633699633699634, -1.835164835164835, -3.061050061050061, 0.53125, -0.03125, -0.0625, 1.0
1054, -1.05006105006105, -1.7533577533577533, -2.330891330891331, 0.34375, 0.0, 0.0, 1.0
1055, -0.5897435897435898, -1.8925518925518925, -2.1062271062271063, 0.3125, 0.0, 0.0, 1.0
1056, -0.47496947496947495, -1.8925518925518925, -2.064713064713065, 0.15625, 0.0, 0.0, 1.0
1057, -0.8742368742368742, -1.1111111111111112, -1.6166056166056166, 0.0, -0.03125, 0.0, 1.0
1058, -0.9108669108669109, -1.6214896214896215, -1.2344322344322345, 0.1875, -0.03125, 0.125, 1.0
1059, -0.7887667887667887, -1.442002442002442, -0.9340659340659341, 0.28125, 0.03125, 0.21875, 1.0
1060, -0.8315018315018315, -1.6886446886446886, -1.2967032967032968, 0.1875, 0.09375, 0.21875, 1.0
1061, -0.5396825396825397, -1.7802197802197801, -1.6727716727716728, -0.0625, 0.0, 0.1875, 1.0
1062, -0.32112332112332115, -1.713064713064713, -1.5702075702075702, -0.1875, -0.125, 0.15625, 1.0
1063, -0.3540903540903541, -1.884004884004884, -1.6031746031746033, -0.34375, -0.09375, 0.125, 0.0
1064, -0.15995115995115994, -1.9291819291819292, -1.4236874236874237, -0.5, -0.125, 0.09375, 0.0
1065, -0.7851037851037851, -1.7496947496947497, -1.78998778998779, -0.65625, 0.0, 0.0625, 0.0
1066, -0.6654456654456654, -1.8644688644688645, -1.6214896214896215, -0.78125, 0.0625, 0.0625, 0.0
1067, -0.5335775335775336, -1.398046398046398, -1.0903540903540903, -0.53125, 0.09375, 0.09375, 0.0
1068, -0.24053724053724054, -1.6605616605616607, -0.9487179487179487, -0.34375, 0.03125, 0.15625, 0.0
1069, -0.717948717948718, -1.6642246642246643, -1.4566544566544566, -0.375, 0.09375, 0.15625, 0.0
1070, -0.9230769230769231, -1.901098901098901, -2.0085470085470085, -0.53125, 0.1875, 0.1875, 0.0
1071, -0.9487179487179487, -2.034188034188034, -2.272283272283272, -0.75, 0.28125, 0.15625, 0.0
1072, -0.7655677655677655, -1.8681318681318682, -2.363858363858364, -0.84375, 0.25, 0.1875, 0.0
1073, -1.0231990231990231, -2.144078144078144, -2.797313797313797, -0.84375, 0.15625, 0.28125, 0.0
1074, -1.1526251526251525, -2.7387057387057387, -3.2466422466422467, -1.125, 0.0625, 0.34375, 0.0
1075, -1.7875457875457876, -2.6373626373626373, -3.5177045177045176, -1.5, 0.0625, 0.375, 0.0
1076, -2.3443223443223444, -2.6312576312576312, -3.6971916971916974, -1.8125, 0.25, 0.46875, 0.0
1077, -1.7667887667887667, -2.614163614163614, -3.658119658119658, -1.90625, 0.1875, 0.65625, 0.0
1078, -0.9597069597069597, -2.4713064713064714, -2.8644688644688645, -1.71875, 0.0, 0.78125, 0.0
1079, -1.3601953601953602, -3.017094017094017, -3.057387057387057, -1.90625, -0.125, 0.8125, 0.0
1080, -1.8925518925518925, -3.1526251526251525, -3.277167277167277, -2.3125, -0.21875, 0.75, 0.0
1081, -2.7081807081807083, -3.4236874236874235, -3.6495726495726495, -2.71875, -0.03125, 0.84375, 0.0
1082, -2.496947496947497, -3.786324786324786, -3.7362637362637363, -3.125, 0.25, 0.90625, 0.0
1083, -2.2014652014652016, -3.5995115995115996, -3.3223443223443225, -3.40625, 0.53125, 1.03125, 0.0
1084, -1.8644688644688645, -4.00976800976801, -2.139194139194139, -3.375, 0.65625, 1.125, 0.0
1085, -1.9365079365079365, -4.131868131868132, -2.214896214896215, -3.5, 0.65625, 1.15625, 0.0
1086, -1.7264957264957266, -4.440781440781441, -1.4835164835164836, -3.90625, 0.625, 1.15625, 0.0
1087, -1.5726495726495726, -3.6336996336996337, -0.6910866910866911, -4.21875, 1.0625, 1.21875, 0.0
1088, -0.9462759462759462, -1.9462759462759462, -0.4004884004884005, -3.84375, 1.78125, 1.25, 0.0
1089, -0.1855921855921856, -1.4322344322344323, -1.1111111111111112, -3.40625, 1.53125, 1.3125, 0.0
1090, -1.021978021978022, -1.84981684981685, -2.2625152625152625, -3.4375, 0.375, 1.21875, 0.0
1091, -3.0, -2.542124542124542, -2.1074481074481075, -4.0, -0.1875, 1.0625, 0.0
1092, -4.0366300366300365, -1.4713064713064714, -1.1843711843711844, -4.46875, 0.5, 1.3125, 0.0
1093, -1.901098901098901, -0.47374847374847373, -0.5775335775335775, -4.15625, 1.5, 1.6875, 0.0
1094, -0.6568986568986569, -0.9926739926739927, -0.8485958485958486, -3.6875, 1.125, 1.8125, 0.0
1095, -2.634920634920635, -2.2612942612942613, -0.7997557997557998, -3.75, 0.84375, 1.90625, 0.0
1096, -1.9023199023199022, -3.785103785103785, 0.706959706959707, -3.96875, 2.0625, 1.96875, 0.0
1097, 3.547008547008547, -3.4188034188034186, 3.4603174603174605, -4.1875, 2.34375, 1.65625, 0.0
1098, 5.760683760683761, -1.4114774114774116, 4.227106227106227, -3.875, -0.09375, 0.96875, 0.0
1099, 0.684981684981685, -0.3418803418803419, 2.039072039072039, -2.9375, -2.21875, 0.5625, 0.0
1100, -3.8974358974358974, -0.8107448107448108, -0.8669108669108669, -2.40625, -1.8125, 1.0625, 0.0
1101, -1.7191697191697193, -4.876678876678877, -0.9413919413919414, -2.71875, 0.1875, 1.625, 0.0
1102, 3.004884004884005, -3.669108669108669, 2.2796092796092795, -3.6875, 1.21875, 1.1875, 0.0
1103, 2.4358974358974357, -1.1245421245421245, 3.6398046398046398, -3.65625, 0.34375, 0.71875, 0.0
1104, -0.07936507936507936, -0.8449328449328449, 2.3345543345543347, -3.0, -0.375, 0.71875, 0.0
1105, -1.0915750915750915, -1.9047619047619047, 1.4468864468864469, -2.84375, -0.15625, 1.03125, 0.0
1106, 1.0818070818070817, -2.2905982905982905, 2.636141636141636, -3.09375, 0.4375, 1.09375, 0.0
1107, 1.6617826617826619, -1.3882783882783882, 3.757020757020757, -3.15625, 0.25, 0.78125, 0.0
1108, 0.4542124542124542, -0.8547008547008547, 3.7997557997557996, -2.59375, 0.125, 0.875, 0.0
1109, 0.8705738705738706, -1.531135531135531, 3.525030525030525, -2.4375, 0.03125, 0.9375, 0.0
1110, 1.4407814407814408, -1.52014652014652, 3.7765567765567765, -2.375, -0.03125, 0.8125, 0.0
1111, 1.5824175824175823, -1.293040293040293, 3.894993894993895, -2.1875, 0.0, 0.75, 0.0
1112, 1.1684981684981686, -0.8437118437118437, 4.267399267399267, -1.84375, 0.28125, 0.75, 0.0
1113, 2.057387057387057, -0.8205128205128205, 4.7094017094017095, -1.4375, 0.1875, 0.71875, 0.0
1114, 2.9694749694749696, -0.9987789987789988, 4.594627594627594, -1.28125, -0.1875, 0.5625, 0.0
1115, 2.4175824175824174, -0.5018315018315018, 4.267399267399267, -1.09375, -0.21875, 0.4375, 0.0
1116, 2.064713064713065, -0.18925518925518925, 3.94993894993895, -0.84375, 0.0625, 0.40625, 0.0
1117, 2.785103785103785, -0.0989010989010989, 4.0, -0.625, 0.0, 0.3125, 0.0
1118, 2.6043956043956045, -0.08424908424908426, 3.982905982905983, -0.46875, -0.125, 0.1875, 0.0
1119, 2.548229548229548, 0.040293040293040296, 3.755799755799756, -0.28125, -0.15625, 0.09375, 0.0
1120, 2.294261294261294, 0.0989010989010989, 3.2918192918192917, -0.15625, -0.21875, 0.0, 0.0
1121, 1.078144078144078, 0.02442002442002442, 2.5335775335775335, -0.0625, 0.09375, -0.03125, 0.0
1122, 1.181929181929182, 0.17826617826617827, 2.3162393162393164, 0.0, 0.21875, 0.0, 0.0
1123, 1.0976800976800978, 0.3626373626373626, 2.203907203907204, 0.09375, 0.0, -0.03125, 0.0
1124, 0.9877899877899878, 0.2893772893772894, 1.7704517704517704, 0.15625, -0.21875, -0.09375, 0.0
1125, 0.3137973137973138, 0.2661782661782662, 1.1868131868131868, 0.125, -0.15625, -0.125, 0.0
1126, -0.11843711843711843, 0.22344322344322345, 0.4884004884004884, 0.0625, 0.125, -0.09375, 0.0
1127, -0.26495726495726496, 0.336996336996337, 0.40293040293040294, 0.0625, 0.375, -0.0625, 0.0
1128, 0.008547008547008548, 0.6862026862026862, 0.7973137973137974, 0.15625, 0.28125, 0.0, 0.0
1129, 0.15873015873015872, 0.5128205128205128, 0.5323565323565324, 0.125, 0.09375, 0.0, 0.0
1130, 0.3052503052503053, 0.5347985347985348, 0.32112332112332115, 0.0625, 0.0, 0.0, 0.0
1131, 0.43101343101343104, 0.6251526251526252, 0.37606837606837606, 0.03125, -0.09375, -0.03125, 0.0
1132, 0.1391941391941392, 0.7350427350427351, 0.1623931623931624, 0.15625, -0.03125, 0.0, 0.0
1133, 0.3089133089133089, 0.45054945054945056, -0.03418803418803419, 0.09375, 0.09375, 0.03125, 0.0
1134, 0.503052503052503, 0.4603174603174603, 0.09035409035409035, 0.0, 0.0, 0.0, 0.0
1135, 0.41147741147741146, 0.6959706959706959, 0.36385836385836384, 0.0, -0.125, 0.0, 0.0
1136, 0.3785103785103785, 0.6092796092796092, 0.7887667887667887, 0.09375, -0.21875, 0.0, 0.0
1137, 0.43956043956043955, 0.7167277167277167, 1.2747252747252746, 0.3125, -0.1875, 0.0, 0.0
1138, 0.8376068376068376, 0.10622710622710622, 1.8339438339438339, 0.65625, -0.09375, 0.0, 1.0
1139, 1.8339438339438339, -1.293040293040293, 2.3516483516483517, 0.8125, 0.0625, -0.03125, 1.0
1140, 1.8412698412698412, -0.5604395604395604, 3.2234432234432235, 0.75, 0.21875, -0.15625, 1.0
1141, 1.9633699633699633, -0.21733821733821734, 3.42002442002442, 0.84375, 0.21875, -0.28125, 1.0
1142, 1.8608058608058609, -0.452991452991453, 3.1294261294261294, 1.0625, 0.15625, -0.375, 1.0
1143, 1.8913308913308913, -0.3785103785103785, 3.2295482295482296, 1.21875, 0.1875, -0.46875, 1.0
1144, 2.1514041514041513, -0.9584859584859585, 3.2625152625152625, 1.375, 0.25, -0.53125, 1.0
1145, 1.9035409035409034, -0.833943833943834, 3.31990231990232, 1.53125, 0.34375, -0.625, 1.0
1146, 2.318681318681319, -1.249084249084249, 3.7045177045177047, 1.875, 0.4375, -0.6875, 1.0
1147, 2.3284493284493286, -1.873015873015873, 3.498168498168498, 2.21875, 0.28125, -0.875, 1.0
1148, 1.9023199023199022, -2.1953601953601956, 3.1697191697191696, 2.4375, 0.3125, -1.0, 1.0
1149, 2.0195360195360195, -2.625152625152625, 3.155067155067155, 2.625, 0.3125, -1.125, 1.0
1150, 1.7606837606837606, -2.907203907203907, 2.879120879120879, 2.9375, 0.1875, -1.21875, 1.0
1151, 1.7875457875457876, -3.0244200244200243, 2.3150183150183152, 3.15625, 0.03125, -1.3125, 1.0
1152, 1.956043956043956, -3.2918192918192917, 1.9572649572649572, 3.3125, -0.34375, -1.4375, 1.0
1153, 0.13553113553113552, -2.7777777777777777, 1.2515262515262515, 3.4375, -0.78125, -1.6875, 1.0
1154, -1.2246642246642248, -2.7716727716727716, 0.26373626373626374, 3.59375, -0.40625, -1.625, 1.0
1155, -0.5653235653235653, -3.0183150183150182, 0.04151404151404151, 3.65625, 0.09375, -1.4375, 1.0
1156, 0.2600732600732601, -3.3833943833943834, 0.14041514041514042, 3.5625, 0.1875, -1.375, 1.0
1157, 0.44932844932844934, -3.122100122100122, 0.36385836385836384, 3.71875, 0.0, -1.4375, 1.0
1158, 0.27472527472527475, -3.409035409035409, -0.08424908424908426, 3.78125, -0.25, -1.46875, 1.0
1159, -0.05616605616605617, -3.7753357753357752, -0.5702075702075702, 3.625, -0.5625, -1.5625, 1.0
1160, -0.7557997557997558, -3.3064713064713063, -0.4908424908424908, 3.65625, -0.71875, -1.5625, 1.0
1161, -1.5091575091575091, -3.155067155067155, -0.46764346764346765, 3.8125, -0.625, -1.4375, 1.0
1162, -1.84004884004884, -2.9401709401709404, -1.089133089133089, 3.875, -0.5, -1.28125, 1.0
1163, -1.7557997557997558, -3.374847374847375, -1.844932844932845, 3.75, -0.375, -1.1875, 1.0
1164, -1.7167277167277166, -3.083028083028083, -2.2075702075702077, 3.5625, -0.375, -1.125, 1.0
1165, -1.5970695970695972, -3.42002442002442, -1.6654456654456655, 3.5, -0.15625, -1.0, 1.0
1166, -0.8412698412698413, -3.3345543345543347, -1.3565323565323566, 3.53125, 0.03125, -0.96875, 1.0
1167, -0.2039072039072039, -2.8815628815628815, -2.0366300366300365, 3.53125, -0.34375, -0.96875, 1.0
1168, -1.2246642246642248, -2.913308913308913, -2.844932844932845, 3.3125, -0.8125, -0.9375, 1.0
1169, -1.938949938949939, -3.398046398046398, -2.547008547008547, 3.0625, -0.6875, -0.84375, 1.0
1170, -1.2124542124542124, -2.9804639804639805, -1.6837606837606838, 3.09375, -0.3125, -0.78125, 1.0
1171, -1.2112332112332111, -2.4896214896214897, -1.586080586080586, 3.34375, -0.09375, -0.6875, 1.0
1172, -1.894993894993895, -2.5714285714285716, -2.8119658119658117, 3.28125, -0.21875, -0.59375, 1.0
1173, -1.8021978021978022, -3.463980463980464, -3.851037851037851, 2.8125, -0.71875, -0.5, 1.0
1174, -1.5567765567765568, -3.6263736263736264, -3.3455433455433456, 2.375, -0.9375, -0.5625, 1.0
1175, -1.9645909645909645, -3.0915750915750917, -2.724053724053724, 2.40625, -0.5625, -0.53125, 1.0
1176, -2.06959706959707, -2.6227106227106227, -2.998778998778999, 2.5625, -0.15625, -0.4375, 1.0
1177, -1.3101343101343101, -2.877899877899878, -4.549450549450549, 2.4375, -0.25, -0.3125, 1.0
1178, -0.9755799755799756, -3.255189255189255, -5.847374847374847, 1.90625, -0.59375, -0.40625, 1.0
1179, -2.0537240537240535, -2.4114774114774113, -5.7484737484737485, 1.46875, -0.5625, -0.46875, 1.0
1180, -2.172161172161172, -1.9536019536019535, -4.6581196581196584, 1.375, -0.1875, -0.28125, 1.0
1181, -2.032967032967033, -1.763125763125763, -3.0732600732600734, 1.375, 0.125, -0.1875, 1.0
1182, -1.1782661782661783, -2.5946275946275947, -3.354090354090354, 1.09375, -0.09375, -0.15625, 1.0
1183, -2.258852258852259, -1.8803418803418803, -3.681318681318681, 0.6875, -0.15625, -0.1875, 1.0
1184, -2.288156288156288, -1.7814407814407816, -3.2857142857142856, 0.5625, 0.0, -0.03125, 1.0
1185, -1.7179487179487178, -2.1684981684981683, -2.8034188034188032, 0.4375, 0.09375, 0.03125, 1.0
1186, -1.0805860805860805, -2.1819291819291817, -2.3333333333333335, 0.25, 0.125, 0.03125, 1.0
1187, -0.73992673992674, -2.258852258852259, -2.294261294261294, 0.125, 0.0625, 0.0625, 1.0
1188, -1.1037851037851039, -1.6654456654456655, -2.064713064713065, 0.0, 0.0, 0.0625, 1.0
1189, -1.2332112332112333, -1.9645909645909645, -2.0268620268620268, 0.0, 0.0, 0.1875, 1.0
1190, -1.0695970695970696, -1.9609279609279608, -1.746031746031746, -0.1875, 0.0, 0.1875, 1.0
1191, -0.5054945054945055, -2.47985347985348, -1.713064713064713, -0.40625, -0.0625, 0.21875, 0.0
1192, -0.054945054945054944, -2.6764346764346763, -2.0415140415140414, -0.9375, -0.0625, 0.09375, 0.0
1193, -0.199023199023199, -1.347985347985348, -1.6642246642246643, -1.1875, 0.0, -0.03125, 0.0
1194, -0.9572649572649573, -0.8461538461538461, -1.413919413919414, -0.78125, 0.0625, 0.0, 0.0
1195, -0.9877899877899878, -1.783882783882784, -1.485958485958486, -0.375, 0.03125, 0.15625, 0.0
1196, -0.8571428571428571, -1.9267399267399268, -1.2332112332112333, -0.46875, -0.0625, 0.15625, 0.0
1197, -0.31746031746031744, -2.2454212454212454, -0.7826617826617827, -0.5625, -0.125, 0.21875, 0.0
1198, -0.221001221001221, -1.8315018315018314, -0.6800976800976801, -0.625, -0.0625, 0.125, 0.0
1199, -0.7631257631257631, -1.3650793650793651, -0.8644688644688645, -0.5, 0.125, 0.09375, 0.0
1200, -1.5665445665445665, -1.6263736263736264, -1.9474969474969475, -0.375, 0.25, 0.15625, 0.0
1201, -1.7423687423687424, -2.06959706959707, -3.2405372405372406, -0.5, 0.21875, 0.28125, 0.0
1202, -0.6727716727716728, -2.918192918192918, -2.971916971916972, -0.84375, -0.0625, 0.375, 0.0
1203, -0.34065934065934067, -2.7045177045177047, -2.098901098901099, -1.09375, -0.3125, 0.40625, 0.0
1204, -1.0842490842490842, -2.4444444444444446, -1.938949938949939, -1.09375, -0.1875, 0.40625, 0.0
1205, -2.133089133089133, -2.318681318681319, -2.6336996336996337, -1.15625, 0.3125, 0.4375, 0.0
1206, -2.0366300366300365, -2.9584859584859586, -3.340659340659341, -1.46875, 0.375, 0.53125, 0.0
1207, -1.380952380952381, -3.3675213675213675, -3.253968253968254, -1.875, 0.0625, 0.625, 0.0
1208, -0.4993894993894994, -3.178266178266178, -2.225885225885226, -2.0625, -0.34375, 0.625, 0.0
1209, -1.332112332112332, -2.822954822954823, -1.774114774114774, -2.0, -0.40625, 0.6875, 0.0
1210, -2.8583638583638584, -2.636141636141636, -2.4554334554334556, -1.96875, -0.09375, 0.8125, 0.0
1211, -3.1636141636141635, -3.004884004884005, -3.3846153846153846, -2.25, 0.0625, 0.96875, 0.0
1212, -2.103785103785104, -3.9157509157509156, -3.5042735042735043, -2.78125, -0.15625, 1.03125, 0.0
1213, -1.5274725274725274, -4.2625152625152625, -2.9450549450549453, -3.125, -0.375, 1.0, 0.0
1214, -2.365079365079365, -3.6092796092796093, -2.5946275946275947, -3.03125, -0.375, 1.09375, 0.0
1215, -3.3150183150183152, -3.463980463980464, -3.010989010989011, -2.9375, -0.3125, 1.34375, 0.0
1216, -3.2124542124542126, -3.879120879120879, -3.0305250305250304, -3.21875, -0.28125, 1.625, 0.0
1217, -2.6666666666666665, -3.832722832722833, -2.4871794871794872, -3.46875, -0.0625, 1.75, 0.0
1218, -3.1306471306471306, -3.0793650793650795, -2.286935286935287, -3.4375, 0.25, 1.875, 0.0
1219, -2.9584859584859586, -3.115995115995116, -1.8363858363858363, -3.5, 0.6875, 2.125, 0.0
1220, -2.0463980463980462, -3.5555555555555554, -0.894993894993895, -3.71875, 1.34375, 2.15625, 0.0
1221, -1.7411477411477412, -1.8705738705738706, -0.4810744810744811, -3.59375, 1.6875, 2.0, 0.0
1222, -2.0073260073260073, -0.7912087912087912, -1.083028083028083, -3.59375, 1.375, 2.03125, 0.0
1223, -2.0085470085470085, -1.054945054945055, -1.6507936507936507, -4.09375, 0.78125, 2.0625, 0.0
1224, -1.1416361416361416, -5.282051282051282, 0.9572649572649573, -5.21875, 1.65625, 2.3125, 0.0
1225, 0.6642246642246642, -3.021978021978022, 4.085470085470085, -4.53125, 3.25, 2.0, 0.0
1226, 3.6153846153846154, -0.6422466422466423, 4.921855921855922, -3.0, 2.75, 1.875, 0.0
1227, 5.247863247863248, -0.8791208791208791, 3.0891330891330893, -2.65625, 0.53125, 1.09375, 0.0
1228, 2.6923076923076925, -0.6153846153846154, 1.3687423687423688, -3.28125, -1.4375, 0.3125, 0.0
1229, -3.6996336996337, 1.4126984126984128, 0.19536019536019536, -3.21875, -0.34375, 1.15625, 0.0
1230, 0.5323565323565324, 0.8803418803418803, 0.052503052503052504, -3.03125, 1.1875, 1.5, 0.0
1231, 0.9548229548229549, 1.3724053724053724, -0.23076923076923078, -3.0, 0.1875, 1.34375, 0.0
1232, -1.5909645909645909, -0.10989010989010989, -1.1184371184371185, -3.03125, -0.21875, 1.3125, 0.0
1233, -2.1684981684981683, -1.2271062271062272, -0.6166056166056166, -3.40625, 0.375, 1.4375, 0.0
1234, 0.0989010989010989, -1.768009768009768, 0.7582417582417582, -3.65625, 0.90625, 1.65625, 0.0
1235, 1.3577533577533578, -2.111111111111111, 1.6715506715506716, -3.65625, 0.625, 1.46875, 0.0
1236, -0.07448107448107448, -2.2332112332112333, 2.1452991452991452, -3.5, 0.125, 1.34375, 0.0
1237, -0.1623931623931624, -3.214896214896215, 2.1819291819291817, -3.3125, 0.1875, 1.46875, 0.0
1238, 1.442002442002442, -4.299145299145299, 2.3785103785103785, -3.34375, 0.21875, 1.25, 0.0
1239, 0.9951159951159951, -3.5567765567765566, 3.5115995115995116, -3.5, 0.03125, 1.03125, 0.0
1240, 0.6837606837606838, -2.628815628815629, 4.788766788766789, -3.125, 0.03125, 1.0625, 0.0
1241, 1.8986568986568986, -2.518925518925519, 5.385836385836386, -2.53125, 0.0625, 1.15625, 0.0
1242, 3.017094017094017, -2.313797313797314, 5.732600732600733, -2.09375, -0.09375, 1.0, 0.0
1243, 3.4664224664224665, -1.6715506715506716, 5.785103785103785, -1.71875, -0.28125, 0.78125, 0.0
1244, 2.9267399267399266, -0.8962148962148963, 5.582417582417582, -1.21875, -0.1875, 0.59375, 0.0
