timestamp, accX, accY, accZ, gyroX, gyroY, gyroZ, button
4353, -0.3137973137973138, -0.22954822954822954, 0.3528693528693529, -0.125, -0.09375, -0.375, 0.0
4354, -0.39194139194139194, -0.14652014652014653, 0.34065934065934067, -0.09375, -0.125, -0.375, 0.0
4355, -0.409035409035409, -0.11355311355311355, 0.28205128205128205, -0.09375, -0.125, -0.375, 0.0
1, -0.4432234432234432, -0.08424908424908426, 0.2588522588522589, -0.09375, -0.15625, -0.34375, 0.0
2, -0.4908424908424908, -0.09035409035409035, 0.21367521367521367, -0.09375, -0.09375, -0.28125, 0.0
3, -0.45787545787545786, -0.11355311355311355, 0.16605616605616605, -0.09375, -0.03125, -0.25, 0.0
4, -0.42002442002442003, -0.3028083028083028, 0.06715506715506715, -0.09375, -0.03125, -0.25, 0.0
5, -0.4346764346764347, -0.24297924297924298, 0.0463980463980464, -0.125, 0.0, -0.21875, 0.0
6, -0.47619047619047616, -0.23076923076923078, 0.08302808302808302, -0.09375, 0.0625, -0.15625, 0.0
7, -0.46153846153846156, -0.3333333333333333, 0.04395604395604396, -0.09375, 0.125, -0.09375, 0.0
8, -0.41514041514041516, -0.3162393162393162, 0.045177045177045176, -0.09375, 0.15625, -0.0625, 0.0
9, -0.3516483516483517, -0.32844932844932845, 0.014652014652014652, -0.09375, 0.1875, 0.0, 0.0
10, -0.28083028083028083, -0.2612942612942613, 0.06837606837606838, -0.125, 0.1875, 0.0, 0.0
11, -0.21733821733821734, -0.17582417582417584, 0.03907203907203907, -0.09375, 0.21875, 0.0625, 0.0
12, -0.08180708180708181, -0.10622710622710622, 0.01221001221001221, -0.09375, 0.21875, 0.09375, 0.0
13, 0.0, 0.009768009768009768, 0.002442002442002442, -0.09375, 0.21875, 0.125, 0.0
14, 0.002442002442002442, 0.03663003663003663, 0.04151404151404151, -0.09375, 0.21875, 0.15625, 0.0
15, -0.045177045177045176, 0.12332112332112333, 0.02442002442002442, -0.125, 0.28125, 0.1875, 0.0
16, -0.10256410256410256, 0.12942612942612944, -0.001221001221001221, -0.15625, 0.34375, 0.25, 0.0
17, -0.031746031746031744, 0.13675213675213677, 0.1221001221001221, -0.15625, 0.40625, 0.34375, 0.0
18, 0.030525030525030524, 0.14774114774114774, 0.18925518925518925, -0.15625, 0.4375, 0.40625, 0.0
19, 0.06471306471306472, 0.0, 0.221001221001221, -0.125, 0.4375, 0.46875, 0.0
20, 0.07448107448107448, 0.004884004884004884, 0.15506715506715507, -0.09375, 0.46875, 0.5625, 0.0
21, 0.08302808302808302, -0.006105006105006105, 0.009768009768009768, -0.0625, 0.5, 0.65625, 0.0
22, 0.06471306471306472, -0.0927960927960928, -0.06227106227106227, -0.09375, 0.59375, 0.75, 0.0
23, 0.19413919413919414, -0.115995115995116, 0.001221001221001221, -0.09375, 0.6875, 0.84375, 0.0
24, 0.4993894993894994, -0.1746031746031746, 0.10866910866910867, -0.0625, 0.75, 0.90625, 0.0
25, 0.7496947496947497, -0.3137973137973138, -0.003663003663003663, -0.0625, 0.71875, 0.875, 0.0
26, 0.8632478632478633, -0.6996336996336996, -0.3199023199023199, -0.09375, 0.75, 0.84375, 0.0
27, 0.9633699633699634, -0.7057387057387058, -0.315018315018315, -0.125, 0.78125, 0.8125, 0.0
28, 0.9682539682539683, -0.7606837606837606, -0.3797313797313797, -0.125, 0.84375, 0.75, 0.0
29, 0.9621489621489622, -0.7704517704517705, -0.45054945054945056, -0.15625, 0.875, 0.65625, 0.0
30, 0.7619047619047619, -0.6752136752136753, -0.43833943833943834, -0.15625, 0.90625, 0.5625, 0.0
31, 0.49572649572649574, -0.4700854700854701, -0.4053724053724054, -0.1875, 0.96875, 0.5, 0.0
32, 0.18803418803418803, -0.3614163614163614, -0.3528693528693529, -0.1875, 1.03125, 0.4375, 0.0
33, 0.047619047619047616, -0.22954822954822954, -0.2148962148962149, -0.1875, 1.0625, 0.40625, 0.0
34, -0.050061050061050064, -0.13186813186813187, -0.08180708180708181, -0.21875, 1.03125, 0.40625, 0.0
35, -0.2039072039072039, -0.02197802197802198, -0.003663003663003663, -0.25, 0.96875, 0.375, 0.0
36, -0.1807081807081807, -0.04884004884004884, 0.04884004884004884, -0.28125, 0.90625, 0.40625, 0.0
37, -0.18803418803418803, 0.06471306471306472, 0.08424908424908426, -0.28125, 0.75, 0.4375, 0.0
38, -0.15873015873015872, 0.1978021978021978, 0.1514041514041514, -0.3125, 0.65625, 0.5, 0.0
39, -0.003663003663003663, 0.23443223443223443, 0.2600732600732601, -0.28125, 0.6875, 0.5625, 0.0
40, 0.24664224664224665, 0.13186813186813187, 0.27594627594627597, -0.25, 0.6875, 0.59375, 0.0
41, 0.3882783882783883, 0.0463980463980464, 0.17826617826617827, -0.21875, 0.625, 0.53125, 0.0
42, 0.2026862026862027, 0.031746031746031744, 0.001221001221001221, -0.1875, 0.5625, 0.5, 0.0
43, 0.13186813186813187, -0.13553113553113552, -0.08180708180708181, -0.1875, 0.59375, 0.4375, 0.0
44, 0.21367521367521367, -0.1684981684981685, -0.10622710622710622, -0.1875, 0.59375, 0.375, 0.0
45, -0.018315018315018316, -0.12698412698412698, -0.17704517704517705, -0.21875, 0.53125, 0.28125, 0.0
46, -0.18192918192918192, -0.07203907203907203, -0.1452991452991453, -0.25, 0.53125, 0.25, 0.0
47, -0.2026862026862027, 0.006105006105006105, -0.01098901098901099, -0.28125, 0.53125, 0.21875, 0.0
48, -0.11355311355311355, 0.052503052503052504, 0.12332112332112333, -0.25, 0.5, 0.21875, 0.0
49, -0.11843711843711843, 0.05128205128205128, 0.1562881562881563, -0.25, 0.40625, 0.1875, 0.0
50, -0.32967032967032966, 0.10744810744810745, 0.1452991452991453, -0.25, 0.34375, 0.21875, 0.0
51, -0.4065934065934066, 0.07936507936507936, 0.1575091575091575, -0.21875, 0.375, 0.28125, 0.0
52, -0.34554334554334554, 0.11843711843711843, 0.23076923076923078, -0.21875, 0.34375, 0.34375, 0.0
53, -0.14163614163614163, 0.17338217338217338, 0.3431013431013431, -0.1875, 0.375, 0.40625, 0.0
54, 0.0757020757020757, 0.1684981684981685, 0.39316239316239315, -0.15625, 0.375, 0.4375, 0.0
55, 0.29426129426129427, 0.10378510378510379, 0.4371184371184371, -0.125, 0.34375, 0.46875, 0.0
56, 0.44932844932844934, -0.02197802197802198, 0.38583638583638585, -0.125, 0.25, 0.40625, 0.0
57, 0.47985347985347987, -0.03663003663003663, 0.31135531135531136, -0.125, 0.125, 0.375, 0.0
58, 0.3321123321123321, -0.052503052503052504, 0.1794871794871795, -0.125, 0.09375, 0.375, 0.0
59, 0.2612942612942613, -0.09401709401709402, 0.12087912087912088, -0.125, 0.125, 0.375, 0.0
60, 0.221001221001221, -0.2271062271062271, -0.002442002442002442, -0.125, 0.15625, 0.34375, 0.0
61, 0.221001221001221, -0.25518925518925517, 0.040293040293040296, -0.09375, 0.21875, 0.34375, 0.0
62, -1.2002442002442002, -0.2148962148962149, 3.227106227106227, -0.53125, 0.375, -0.5, 0.0
63, -1.0402930402930404, -0.2673992673992674, 3.4017094017094016, -0.21875, 0.34375, -0.375, 0.0
64, -0.7264957264957265, -0.2796092796092796, 3.5982905982905984, -0.0625, 0.03125, -0.28125, 0.0
65, -0.7765567765567766, -0.12454212454212454, 3.7191697191697193, 0.03125, -0.1875, -0.125, 0.0
66, -0.8400488400488401, -0.1391941391941392, 3.601953601953602, 0.15625, -0.28125, 0.125, 0.0
67, -1.0231990231990231, 0.0927960927960928, 3.4053724053724053, 0.40625, -0.25, 0.53125, 0.0
68, -0.4053724053724054, -0.01221001221001221, 3.1196581196581197, 0.65625, -0.1875, 0.5625, 0.0
69, 0.1221001221001221, -0.28815628815628813, 2.463980463980464, 0.90625, -0.34375, 0.40625, 0.0
70, -0.30036630036630035, 0.115995115995116, 1.8046398046398047, 1.15625, -0.4375, 0.40625, 0.0
71, -0.3431013431013431, -0.008547008547008548, 0.9181929181929182, 1.15625, -0.34375, 0.53125, 0.0
72, 0.1794871794871795, -0.20024420024420025, 0.6251526251526252, 0.875, -0.28125, 0.5625, 0.0
73, 0.26495726495726496, -0.09645909645909646, 0.6776556776556777, 0.6875, -0.125, 0.53125, 0.0
74, 0.40415140415140416, -0.1978021978021978, 0.7252747252747253, 0.6875, 0.0, 0.59375, 0.0
75, 1.2893772893772895, -0.6996336996336996, 0.398046398046398, 0.75, -0.21875, 0.5625, 0.0
76, 1.3504273504273505, -0.8229548229548229, -0.22466422466422467, 0.875, -0.5625, 0.40625, 0.0
77, 0.6422466422466423, -0.8046398046398047, -1.3614163614163615, 1.0, -0.5625, 0.34375, 0.0
78, 0.08547008547008547, -0.33943833943833945, -1.8205128205128205, 0.96875, -0.03125, 0.34375, 0.0
79, 0.6800976800976801, -0.1452991452991453, -1.8363858363858363, 0.6875, 0.1875, 0.34375, 0.0
80, 1.1636141636141637, -0.045177045177045176, -1.7655677655677655, 0.375, -0.03125, 0.3125, 0.0
81, 0.9792429792429792, 0.08669108669108669, -1.9438339438339438, 0.25, -0.34375, 0.28125, 0.0
82, 0.7313797313797313, 0.2515262515262515, -2.083028083028083, 0.375, -0.375, 0.21875, 0.0
83, 0.5286935286935287, 0.29914529914529914, -2.010989010989011, 0.46875, -0.125, 0.125, 0.0
84, 1.1782661782661783, -0.40293040293040294, -2.7887667887667886, 0.28125, -0.21875, 0.125, 0.0
85, 0.7032967032967034, 0.030525030525030524, -2.6092796092796093, 0.0625, -0.3125, 0.09375, 0.0
86, 0.5128205128205128, 0.47741147741147744, -2.4358974358974357, 0.03125, -0.25, 0.09375, 0.0
87, 0.3833943833943834, 0.4835164835164835, -2.473748473748474, 0.15625, -0.1875, 0.09375, 0.0
88, 0.6031746031746031, 0.15384615384615385, -2.769230769230769, 0.125, -0.21875, 0.15625, 0.0
89, 0.57997557997558, 0.015873015873015872, -2.9743589743589745, 0.125, -0.28125, 0.125, 0.0
90, 0.6837606837606838, -0.01221001221001221, -2.822954822954823, 0.15625, -0.21875, 0.21875, 0.0
91, 1.1489621489621489, -0.2490842490842491, -2.227106227106227, 0.28125, -0.15625, 0.1875, 0.0
92, 1.028083028083028, -0.27350427350427353, -1.8742368742368742, 0.25, -0.28125, 0.15625, 0.0
93, 0.5079365079365079, -0.568986568986569, -2.0720390720390722, 0.0625, -0.28125, 0.03125, 0.0
94, 0.3833943833943834, -1.0012210012210012, -2.2112332112332114, -0.34375, -0.0625, -0.09375, 0.0
95, 0.1514041514041514, -0.9572649572649573, -1.9682539682539681, -0.84375, 0.15625, -0.15625, 0.0
96, 0.2979242979242979, -0.8571428571428571, -1.5018315018315018, -1.09375, 0.1875, -0.125, 0.0
97, 0.09768009768009768, -0.8437118437118437, -1.1257631257631258, -1.0625, 0.0625, -0.15625, 0.0
98, -0.05372405372405373, -1.0268620268620268, -0.9499389499389499, -0.9375, 0.0625, -0.1875, 0.0
99, -0.25274725274725274, -1.0842490842490842, -0.8620268620268621, -0.96875, 0.21875, -0.21875, 0.0
100, -0.1916971916971917, -1.1953601953601953, -0.5115995115995116, -1.125, 0.34375, -0.1875, 0.0
101, -0.28327228327228327, -0.9755799755799756, 0.07692307692307693, -1.3125, 0.3125, -0.1875, 0.0
102, -0.4358974358974359, -0.7264957264957265, 0.7057387057387058, -1.34375, 0.1875, -0.1875, 0.0
103, -0.33821733821733824, -0.6862026862026862, 1.0927960927960927, -1.1875, 0.1875, -0.1875, 0.0
104, -0.20634920634920634, -0.7741147741147741, 1.352869352869353, -1.0625, 0.21875, -0.21875, 0.0
105, -0.37484737484737485, -0.7326007326007326, 1.525030525030525, -0.96875, 0.1875, -0.25, 0.0
106, -0.5164835164835165, -0.6715506715506715, 1.6398046398046398, -0.90625, 0.09375, -0.1875, 0.0
107, -0.44932844932844934, -0.7728937728937729, 1.6654456654456655, -0.8125, 0.03125, -0.125, 0.0
108, -0.18803418803418803, -0.960927960927961, 1.6581196581196582, -0.6875, 0.0, -0.09375, 0.0
109, 0.15384615384615385, -1.1660561660561661, 1.6776556776556777, -0.59375, -0.0625, -0.15625, 0.0
110, 0.4945054945054945, -1.3724053724053724, 1.7179487179487178, -0.5, -0.15625, -0.25, 0.0
111, 0.10378510378510379, -0.9291819291819292, 1.7692307692307692, -0.375, -0.21875, -0.34375, 0.0
112, -0.6898656898656899, -0.2454212454212454, 1.601953601953602, -0.15625, -0.09375, -0.3125, 0.0
113, -0.6312576312576312, -0.22832722832722832, 1.4322344322344323, -0.03125, -0.03125, -0.21875, 0.0
114, -0.2673992673992674, -0.6691086691086691, 0.9352869352869353, -0.03125, -0.15625, -0.21875, 0.0
115, -0.7094017094017094, -0.3663003663003663, 0.3540903540903541, -0.09375, -0.125, -0.15625, 0.0
116, -0.7802197802197802, -0.16605616605616605, 0.10256410256410256, -0.09375, 0.1875, -0.03125, 0.0
117, -0.5934065934065934, 0.02197802197802198, 0.1391941391941392, 0.09375, 0.53125, -0.09375, 0.0
118, -1.0012210012210012, 0.5677655677655677, -0.026862026862026864, 0.5, 0.8125, 0.03125, 0.0
119, -0.04395604395604396, -0.3540903540903541, -0.5054945054945055, 0.40625, 0.625, 0.15625, 0.0
120, 0.5079365079365079, -0.9072039072039072, -0.25274725274725274, -0.0625, 0.21875, 0.09375, 0.0
121, -0.29426129426129427, 0.2490842490842491, 0.49694749694749696, -0.15625, 0.21875, 0.09375, 0.0
122, -0.4139194139194139, 0.6251526251526252, 0.9365079365079365, 0.0625, 0.34375, 0.0625, 0.0
123, -0.09035409035409035, 0.11721611721611722, 0.6654456654456654, 0.125, 0.21875, 0.0, 0.0
124, 0.029304029304029304, -0.23809523809523808, 0.2503052503052503, -0.0625, -0.0625, 0.0, 0.0
125, -0.20757020757020758, -0.07936507936507936, 0.07814407814407814, -0.21875, -0.21875, 0.0, 0.0
126, -0.47863247863247865, 0.34676434676434675, 0.1978021978021978, -0.15625, -0.15625, 0.03125, 0.0
127, -0.5995115995115995, 0.5567765567765568, 0.03785103785103785, 0.03125, 0.0, 0.0, 0.0
128, -0.33455433455433453, 0.03785103785103785, -0.4065934065934066, 0.03125, 0.03125, 0.03125, 0.0
129, 0.08424908424908426, -0.37484737484737485, -0.5543345543345544, -0.15625, -0.03125, 0.09375, 0.0
130, 0.2600732600732601, -0.4481074481074481, -0.358974358974359, -0.375, -0.125, 0.0625, 0.0
131, -0.115995115995116, 0.03540903540903541, -0.06593406593406594, -0.34375, -0.03125, 0.03125, 0.0
132, -0.08547008547008547, 0.1343101343101343, -0.013431013431013432, -0.15625, 0.0, 0.125, 0.0
133, 0.03907203907203907, -0.24297924297924298, -0.2564102564102564, -0.1875, -0.15625, 0.15625, 0.0
134, 0.14652014652014653, -0.23321123321123322, -0.1916971916971917, -0.25, 0.0625, 0.21875, 0.0
135, 0.5164835164835165, -0.28083028083028083, -0.17094017094017094, -0.375, 0.1875, 0.28125, 0.0
136, 0.5177045177045178, 0.028083028083028084, 0.03907203907203907, -0.46875, -0.03125, 0.25, 0.0
137, 0.003663003663003663, 0.3724053724053724, 0.17826617826617827, -0.34375, -0.15625, 0.21875, 0.0
138, 0.08913308913308914, 0.27472527472527475, 0.25274725274725274, -0.0625, 0.0, 0.21875, 0.0
139, 0.4896214896214896, -0.463980463980464, -0.2222222222222222, 0.0, 0.0625, 0.1875, 0.0
140, 0.20146520146520147, -0.14041514041514042, -0.2454212454212454, -0.125, -0.0625, 0.15625, 0.0
141, -0.2454212454212454, 0.24053724053724054, -0.042735042735042736, -0.09375, -0.125, 0.125, 0.0
142, -0.0757020757020757, -0.007326007326007326, 0.01098901098901099, 0.1875, 0.0, 0.125, 0.0
143, 0.6776556776556777, -0.9169719169719169, -0.17704517704517705, 0.1875, 0.0, 0.1875, 0.0
144, 0.43956043956043955, -0.8644688644688645, -0.3052503052503053, -0.09375, -0.125, 0.09375, 0.0
145, -0.36874236874236876, -0.09768009768009768, -0.10989010989010989, -0.28125, -0.125, 0.03125, 0.0
146, -0.2783882783882784, 0.0, 0.12942612942612944, -0.15625, 0.0, 0.09375, 0.0
147, 0.14163614163614163, -0.2026862026862027, 0.22466422466422467, -0.03125, 0.0, 0.15625, 0.0
148, -0.001221001221001221, -0.10500610500610501, 0.10866910866910867, 0.0, -0.09375, 0.125, 0.0
149, -0.24053724053724054, -0.1562881562881563, -0.18925518925518925, 0.0625, 0.0, 0.09375, 0.0
150, -0.04151404151404151, -0.23809523809523808, -0.29181929181929184, 0.03125, 0.15625, 0.09375, 0.0
151, 0.3199023199023199, -0.1452991452991453, 0.052503052503052504, -0.03125, 0.125, 0.09375, 0.0
152, 0.32722832722832723, -0.199023199023199, 0.13553113553113552, -0.0625, 0.0, 0.09375, 0.0
153, 0.2442002442002442, -0.20757020757020758, 0.03296703296703297, -0.09375, -0.09375, 0.09375, 0.0
154, -0.001221001221001221, 0.14896214896214896, 0.08791208791208792, -0.0625, -0.125, 0.03125, 0.0
155, -0.2148962148962149, 0.16483516483516483, -0.07081807081807082, 0.03125, -0.0625, 0.03125, 0.0
156, -0.23321123321123322, -0.11233211233211234, -0.36996336996337, 0.0, 0.0, 0.03125, 0.0
157, 0.0, -0.045177045177045176, -0.2503052503052503, -0.1875, 0.03125, 0.09375, 0.0
158, 0.05616605616605617, 0.015873015873015872, 0.0, -0.0625, 0.0625, 0.03125, 0.0
159, 0.22466422466422467, 0.11721611721611722, 0.2661782661782662, 0.25, 0.0, 0.03125, 0.0
160, 0.22954822954822954, -0.1855921855921856, -0.12087912087912088, 0.34375, -0.03125, 0.0625, 0.0
161, 0.1575091575091575, -0.4017094017094017, -0.7435897435897436, 0.15625, -0.03125, 0.125, 0.0
162, -0.042735042735042736, 0.0757020757020757, -0.590964590964591, 0.125, 0.0, 0.09375, 0.0
163, -0.1916971916971917, 0.5409035409035409, -0.10866910866910867, 0.34375, 0.0625, 0.125, 1.0
164, -0.10134310134310134, 0.23687423687423687, -0.0989010989010989, 0.59375, 0.03125, 0.1875, 1.0
165, 0.2564102564102564, -0.32234432234432236, -0.48473748473748474, 0.5625, 0.0, 0.09375, 1.0
166, 0.0463980463980464, -0.7387057387057387, -1.326007326007326, -0.0625, 0.1875, 0.125, 1.0
167, -0.1684981684981685, -0.6910866910866911, -1.7533577533577533, -0.9375, 0.46875, 0.21875, 1.0
168, 0.2442002442002442, 0.18803418803418803, -0.778998778998779, -1.21875, 0.375, 0.25, 1.0
169, 0.46642246642246643, 1.36996336996337, 0.3553113553113553, -0.5625, 0.125, 0.21875, 1.0
170, 0.8669108669108669, 0.4652014652014652, -0.28083028083028083, -0.15625, 0.09375, 0.1875, 1.0
171, 2.06959706959707, -1.1391941391941391, -1.3943833943833943, -0.5625, -0.09375, 0.09375, 1.0
172, 1.6813186813186813, -0.326007326007326, -1.1684981684981686, -0.6875, -0.03125, -0.03125, 1.0
173, 1.6605616605616607, -0.19413919413919414, -0.8412698412698413, -0.375, 0.15625, -0.09375, 1.0
174, 2.293040293040293, -0.9181929181929182, -0.7948717948717948, -0.28125, 0.0625, -0.1875, 1.0
175, 2.5238095238095237, -1.750915750915751, -0.8522588522588522, -0.40625, -0.0625, -0.34375, 1.0
176, 2.166056166056166, -2.1306471306471306, -0.7741147741147741, -0.5625, 0.0, -0.53125, 1.0
177, 1.9511599511599511, -1.9682539682539681, -0.2612942612942613, -0.5, 0.15625, -0.6875, 1.0
178, 1.4932844932844933, -2.6105006105006106, -0.4053724053724054, -0.4375, 0.28125, -0.875, 1.0
179, 1.4871794871794872, -3.1062271062271063, -0.5409035409035409, -0.53125, 0.25, -1.03125, 1.0
180, 0.702075702075702, -2.5885225885225887, -0.03540903540903541, -0.4375, 0.25, -1.15625, 1.0
181, -0.1623931623931624, -2.4444444444444446, 0.115995115995116, -0.25, 0.40625, -1.25, 1.0
182, -0.15873015873015872, -3.4285714285714284, 0.5518925518925519, -0.1875, 0.4375, -1.28125, 1.0
183, 0.2783882783882784, -4.043956043956044, 1.3736263736263736, -0.1875, 0.28125, -1.375, 1.0
184, -0.1807081807081807, -3.8766788766788767, 1.6056166056166057, -0.125, 0.125, -1.625, 1.0
185, -1.2063492063492063, -2.956043956043956, 1.678876678876679, 0.0, 0.125, -1.84375, 1.0
186, -1.9047619047619047, -2.8974358974358974, 1.4371184371184371, 0.1875, 0.03125, -1.9375, 1.0
187, -2.0549450549450547, -3.57997557997558, 1.1355311355311355, 0.21875, -0.15625, -1.9375, 1.0
188, -3.311355311355311, -2.5054945054945055, 1.2857142857142858, 0.1875, -0.15625, -2.03125, 1.0
189, -3.851037851037851, -2.0354090354090353, 1.352869352869353, 0.53125, 0.03125, -1.9375, 1.0
190, -3.7032967032967035, -1.9230769230769231, 1.7057387057387057, 0.65625, 0.0, -1.8125, 1.0
191, -4.343101343101343, -1.15995115995116, 1.6593406593406594, 0.84375, -0.09375, -1.75, 1.0
192, -5.5677655677655675, -0.7362637362637363, 0.3663003663003663, 1.03125, 0.125, -1.71875, 1.0
193, -5.488400488400488, -0.4603174603174603, -0.22832722832722832, 0.8125, 0.3125, -1.46875, 1.0
194, -5.665445665445666, 0.9242979242979243, 0.6483516483516484, 0.6875, 0.1875, -1.1875, 1.0
195, -5.22954822954823, 1.3272283272283272, 1.253968253968254, 1.09375, 0.3125, -0.90625, 1.0
196, -4.063492063492063, 0.06471306471306472, 1.0525030525030525, 1.53125, 0.5, -0.75, 1.0
197, -3.1855921855921854, -0.702075702075702, 0.6288156288156288, 1.375, 0.4375, -0.6875, 1.0
198, -4.087912087912088, 0.27228327228327226, -0.040293040293040296, 1.09375, 0.125, -0.53125, 1.0
199, -4.642246642246643, 1.0195360195360195, -0.3418803418803419, 0.90625, 0.0, -0.21875, 1.0
200, -4.847374847374847, 1.57997557997558, -0.4627594627594628, 1.0, 0.0, 0.0625, 1.0
201, -4.222222222222222, 1.7728937728937728, -0.8412698412698413, 1.1875, 0.125, 0.4375, 1.0
202, -3.277167277167277, 0.9194139194139194, -1.8034188034188035, 1.09375, 0.1875, 0.78125, 1.0
203, -2.5934065934065935, 1.2905982905982907, -1.7264957264957266, 0.6875, 0.0, 1.03125, 1.0
204, -2.6776556776556775, 1.9047619047619047, -1.6275946275946276, 0.625, -0.03125, 1.28125, 1.0
205, -1.667887667887668, 2.1172161172161172, -1.4676434676434675, 0.75, 0.0625, 1.5, 1.0
206, -1.1660561660561661, 1.6459096459096458, -1.774114774114774, 0.46875, -0.0625, 1.75, 1.0
207, -0.8608058608058609, 0.7008547008547008, -2.503052503052503, 0.1875, -0.0625, 1.84375, 1.0
208, 0.25396825396825395, -0.009768009768009768, -2.905982905982906, 0.0, -0.21875, 1.96875, 1.0
209, 0.9584859584859585, -0.20512820512820512, -3.352869352869353, -0.28125, -0.375, 1.9375, 1.0
210, 0.7582417582417582, 0.38217338217338215, -3.5555555555555554, -0.4375, -0.25, 1.875, 1.0
211, 1.1746031746031746, 0.3492063492063492, -3.1965811965811968, -0.40625, -0.15625, 1.78125, 1.0
212, 1.6544566544566544, -0.3431013431013431, -3.115995115995116, -0.5625, -0.21875, 1.6875, 1.0
213, 1.431013431013431, -0.23443223443223443, -2.9902319902319903, -0.78125, -0.28125, 1.59375, 1.0
214, 0.9230769230769231, -0.06593406593406594, -2.763125763125763, -0.9375, -0.125, 1.59375, 1.0
215, 1.5848595848595848, -0.6190476190476191, -2.1416361416361416, -1.0625, -0.03125, 1.59375, 1.0
216, 2.271062271062271, -1.3186813186813187, -1.8217338217338217, -1.0625, -0.0625, 1.5, 1.0
217, 1.8217338217338217, -1.4407814407814408, -1.4896214896214897, -0.90625, 0.28125, 1.375, 1.0
218, 2.387057387057387, -2.41025641025641, -1.4065934065934067, -1.0, 0.5, 1.15625, 1.0
219, 3.061050061050061, -3.221001221001221, -1.1978021978021978, -1.25, 0.46875, 1.0, 1.0
220, 3.5641025641025643, -3.6166056166056166, -0.23809523809523808, -1.46875, 0.375, 0.8125, 1.0
221, 3.3076923076923075, -3.3211233211233213, 0.7216117216117216, -1.1875, 0.46875, 0.53125, 1.0
222, 3.1904761904761907, -3.057387057387057, 1.2844932844932846, -0.75, 0.5625, 0.21875, 1.0
223, 2.987789987789988, -4.409035409035409, 0.5726495726495726, -0.90625, 0.34375, 0.0, 1.0
224, 2.0854700854700856, -3.967032967032967, 0.833943833943834, -1.0625, 0.15625, -0.1875, 1.0
225, 0.33943833943833945, -2.934065934065934, 1.3186813186813187, -0.75, 0.40625, -0.375, 1.0
226, -0.20512820512820512, -2.807081807081807, 1.7155067155067154, -0.3125, 0.59375, -0.5, 1.0
227, -0.115995115995116, -3.5641025641025643, 1.6703296703296704, -0.28125, 0.1875, -0.5625, 1.0
228, -2.1343101343101343, -2.652014652014652, 1.3675213675213675, -0.375, 0.125, -0.53125, 1.0
229, -3.15995115995116, -2.1257631257631258, 1.3382173382173381, -0.3125, 0.25, -0.4375, 1.0
230, -3.2783882783882783, -2.1172161172161172, 1.4603174603174602, -0.15625, 0.1875, -0.3125, 1.0
231, -2.7667887667887667, -1.7374847374847375, 1.4847374847374848, 0.1875, 0.28125, -0.21875, 1.0
232, -2.2918192918192917, -2.15995115995116, 0.6288156288156288, 0.125, 0.15625, -0.21875, 1.0
233, -2.4542124542124544, -1.164835164835165, 0.5873015873015873, -0.125, 0.0625, -0.15625, 1.0
234, -2.5115995115995116, -0.2612942612942613, 0.5457875457875457, -0.03125, 0.09375, -0.125, 1.0
235, -2.167277167277167, -0.221001221001221, 0.21123321123321123, 0.09375, 0.03125, -0.03125, 1.0
236, -1.757020757020757, -0.6813186813186813, -0.3137973137973138, 0.125, -0.09375, 0.03125, 1.0
237, -1.4639804639804639, -1.188034188034188, -0.8913308913308914, -0.03125, -0.15625, 0.03125, 1.0
238, -1.2808302808302807, -0.9743589743589743, -0.9926739926739927, -0.3125, -0.03125, 0.0, 1.0
239, -0.8998778998778999, -0.6288156288156288, -0.5970695970695971, -0.53125, 0.0, 0.0, 1.0
240, -0.9194139194139194, -0.15262515262515264, -0.11355311355311355, -0.4375, 0.0, 0.03125, 1.0
241, -0.46153846153846156, -0.5201465201465202, -0.10866910866910867, -0.09375, 0.0, 0.125, 1.0
242, -0.19658119658119658, -0.7448107448107448, -0.3199023199023199, -0.03125, -0.03125, 0.09375, 0.0
243, -0.4126984126984127, -0.5335775335775336, -0.36507936507936506, -0.15625, 0.0, 0.0625, 0.0
244, 0.0927960927960928, -1.0586080586080586, -0.22832722832722832, -0.21875, 0.09375, 0.125, 0.0
245, 0.27106227106227104, -0.7509157509157509, -0.09401709401709402, -0.40625, 0.03125, 0.09375, 0.0
246, 0.0463980463980464, -0.6898656898656899, -0.006105006105006105, -0.4375, 0.0, 0.09375, 0.0
247, -0.10989010989010989, -0.04884004884004884, 0.38583638583638585, -0.28125, 0.03125, 0.0625, 0.0
248, 0.01221001221001221, -0.16361416361416362, 0.34676434676434675, 0.03125, 0.09375, 0.03125, 0.0
249, 0.18803418803418803, -0.48473748473748474, -0.08424908424908426, 0.03125, 0.0625, 0.03125, 0.0
250, -0.3418803418803419, -0.3321123321123321, -0.24664224664224665, -0.125, 0.0, 0.0, 0.0
251, -0.35653235653235654, -0.231990231990232, -0.1855921855921856, -0.21875, 0.15625, 0.03125, 0.0
252, -0.026862026862026864, -0.06471306471306472, 0.1807081807081807, -0.25, 0.15625, 0.0625, 0.0
253, 0.01098901098901099, -0.04884004884004884, 0.3333333333333333, -0.125, 0.03125, 0.0625, 0.0
254, -0.16117216117216118, -0.22344322344322345, 0.014652014652014652, 0.0, -0.03125, 0.0625, 0.0
255, -0.14041514041514042, -0.3528693528693529, -0.29426129426129427, -0.15625, 0.0, 0.03125, 0.0
256, -0.336996336996337, -0.05616605616605617, -0.08424908424908426, -0.15625, 0.0, 0.03125, 0.0
257, -0.2442002442002442, -0.054945054945054944, -0.06105006105006105, -0.0625, 0.0, 0.03125, 0.0
258, -0.2222222222222222, -0.14407814407814407, -0.115995115995116, 0.0, 0.0, 0.03125, 0.0
259, -0.06471306471306472, -0.2600732600732601, -0.09523809523809523, -0.0625, 0.03125, 0.0625, 0.0
260, -0.03663003663003663, -0.0695970695970696, 0.05128205128205128, -0.125, 0.0625, 0.0625, 0.0
261, -0.006105006105006105, 0.03785103785103785, 0.16727716727716727, -0.0625, 0.0625, 0.0625, 0.0
262, -0.002442002442002442, -0.014652014652014652, 0.23687423687423687, 0.0, -0.03125, 0.0625, 0.0
263, -0.050061050061050064, -0.09157509157509157, 0.20024420024420025, -0.03125, -0.0625, 0.09375, 0.0
264, -0.06227106227106227, -0.14896214896214896, 0.04395604395604396, -0.0625, 0.0, 0.0625, 0.0
265, -0.03296703296703297, -0.07203907203907203, -0.06227106227106227, -0.0625, 0.0625, 0.0625, 0.0
266, 0.08424908424908426, -0.08180708180708181, 0.013431013431013432, -0.0625, 0.0, 0.0625, 0.0
267, 0.07081807081807082, -0.07448107448107448, -0.08547008547008547, -0.09375, 0.0, 0.03125, 0.0
268, 0.02442002442002442, -0.018315018315018316, -0.10622710622710622, -0.0625, 0.0, 0.03125, 0.0
269, -0.13553113553113552, 0.0695970695970696, -0.15262515262515264, -0.03125, 0.03125, 0.03125, 0.0
270, -0.002442002442002442, -0.004884004884004884, -0.1343101343101343, -0.03125, 0.03125, 0.03125, 0.0
271, 0.09523809523809523, -0.06471306471306472, -0.15506715506715507, -0.03125, -0.03125, 0.03125, 0.0
272, -0.15506715506715507, 0.08180708180708181, -0.15262515262515264, 0.0, -0.03125, 0.03125, 0.0
273, -0.19536019536019536, 0.08791208791208792, -0.1794871794871795, 0.0625, 0.03125, 0.03125, 0.0
274, 0.013431013431013432, -0.001221001221001221, -0.06349206349206349, 0.09375, 0.0, 0.0625, 0.0
275, 0.001221001221001221, 0.16605616605616605, 0.1623931623931624, 0.28125, -0.0625, 0.0625, 0.0
276, -0.28205128205128205, 0.3235653235653236, 0.10378510378510379, 0.5625, 0.0, 0.0625, 1.0
277, -0.029304029304029304, -0.3443223443223443, -0.24175824175824176, 0.46875, 0.09375, 0.0, 1.0
278, 0.2796092796092796, -0.5421245421245421, -0.8266178266178266, 0.0625, 0.15625, 0.03125, 1.0
279, 0.1794871794871795, -0.10378510378510379, -0.6434676434676435, -0.125, 0.09375, 0.09375, 1.0
280, 0.4444444444444444, -0.06227106227106227, -0.8449328449328449, -0.0625, 0.15625, 0.125, 1.0
281, 0.8083028083028083, -0.18681318681318682, -1.242979242979243, -0.3125, 0.1875, 0.125, 1.0
282, 1.0695970695970696, 0.07814407814407814, -1.032967032967033, -0.59375, 0.21875, 0.15625, 1.0
283, 1.5213675213675213, -0.040293040293040296, -0.5018315018315018, -0.46875, 0.125, 0.0625, 1.0
284, 1.8742368742368742, -0.7374847374847375, -0.5995115995115995, -0.28125, 0.125, 0.0, 1.0
285, 2.0146520146520146, -0.9914529914529915, -0.4725274725274725, -0.1875, 0.125, -0.15625, 1.0
286, 2.3516483516483517, -1.4664224664224663, -0.3724053724053724, -0.28125, 0.03125, -0.25, 1.0
287, 2.087912087912088, -1.6007326007326008, -0.2515262515262515, -0.5, -0.03125, -0.4375, 1.0
288, 1.4639804639804639, -1.3357753357753357, 0.21978021978021978, -0.4375, 0.03125, -0.59375, 1.0
289, 1.3748473748473748, -1.9291819291819292, 0.326007326007326, -0.125, 0.15625, -0.75, 1.0
290, 1.673992673992674, -2.807081807081807, 0.1794871794871795, -0.1875, 0.125, -0.90625, 1.0
291, 0.7814407814407814, -2.4761904761904763, 0.63003663003663, -0.46875, -0.09375, -1.0625, 1.0
292, -0.8058608058608059, -1.8131868131868132, 0.8192918192918193, -0.28125, 0.0625, -1.21875, 1.0
293, -0.6398046398046398, -2.3223443223443225, 0.9560439560439561, -0.03125, 0.4375, -1.25, 1.0
294, -0.32722832722832723, -2.7142857142857144, 1.3284493284493284, -0.0625, 0.375, -1.25, 1.0
295, -0.6703296703296703, -2.7765567765567765, 1.6336996336996337, 0.0, 0.0625, -1.3125, 1.0
296, -1.424908424908425, -2.5763125763125765, 1.4786324786324787, 0.1875, 0.09375, -1.46875, 1.0
297, -1.971916971916972, -2.15995115995116, 1.2527472527472527, 0.28125, 0.21875, -1.59375, 1.0
298, -2.606837606837607, -2.192918192918193, 1.3406593406593406, 0.34375, -0.03125, -1.59375, 1.0
299, -3.8376068376068377, -1.8644688644688645, 1.1074481074481075, 0.28125, -0.09375, -1.625, 1.0
300, -4.1098901098901095, -1.6923076923076923, 1.0122100122100122, 0.375, 0.15625, -1.53125, 1.0
301, -4.113553113553113, -1.6923076923076923, 1.0927960927960927, 0.5625, 0.09375, -1.46875, 1.0
302, -4.5335775335775335, -1.315018315018315, 1.0622710622710623, 0.78125, 0.125, -1.40625, 1.0
303, -3.800976800976801, -1.4566544566544566, 0.9267399267399268, 0.84375, 0.1875, -1.21875, 1.0
304, -3.752136752136752, -0.8034188034188035, 0.8522588522588522, 0.75, 0.09375, -1.125, 1.0
305, -4.181929181929182, 0.27594627594627597, 0.7130647130647131, 0.90625, 0.21875, -1.0, 1.0
306, -4.798534798534798, 0.4945054945054945, -0.01221001221001221, 1.03125, 0.3125, -0.8125, 1.0
307, -5.006105006105006, 0.6507936507936508, -0.3199023199023199, 1.0625, 0.25, -0.5, 1.0
308, -5.516483516483516, 0.8754578754578755, -0.6703296703296703, 1.0, 0.34375, -0.125, 1.0
309, -4.979242979242979, 1.7496947496947497, -0.6678876678876678, 0.875, 0.46875, 0.21875, 1.0
310, -4.180708180708181, 1.9474969474969475, -0.9462759462759462, 0.78125, 0.40625, 0.5625, 1.0
311, -3.6715506715506714, 1.9316239316239316, -0.9743589743589743, 0.9375, 0.3125, 0.8125, 1.0
312, -3.7655677655677655, 1.5909645909645909, -1.4932844932844933, 1.03125, 0.40625, 1.0, 1.0
313, -3.029304029304029, 1.2380952380952381, -1.8717948717948718, 0.71875, 0.34375, 1.21875, 1.0
314, -2.943833943833944, 2.2295482295482296, -1.413919413919414, 0.375, 0.125, 1.53125, 1.0
315, -2.5164835164835164, 2.938949938949939, -1.010989010989011, 0.375, -0.0625, 1.84375, 1.0
316, -1.6971916971916972, 2.6031746031746033, -1.424908424908425, 0.5, -0.3125, 2.09375, 1.0
317, -0.5213675213675214, 0.7643467643467643, -2.8095238095238093, 0.28125, -0.46875, 2.21875, 1.0
318, 0.27106227106227104, -0.2869352869352869, -3.3235653235653237, -0.09375, -0.34375, 2.125, 1.0
319, 0.6153846153846154, -0.1514041514041514, -2.664224664224664, -0.34375, -0.03125, 2.0625, 1.0
320, 1.4713064713064714, 0.1221001221001221, -2.006105006105006, -0.5, -0.1875, 2.03125, 1.0
321, 2.105006105006105, -0.11721611721611722, -2.15995115995116, -0.4375, -0.625, 2.0, 1.0
322, 1.4810744810744811, -0.7167277167277167, -3.515262515262515, -0.40625, -0.34375, 1.84375, 1.0
323, 1.5909645909645909, -0.9365079365079365, -3.68986568986569, -0.53125, 0.21875, 1.6875, 1.0
324, 2.4822954822954824, -0.7667887667887668, -2.3663003663003663, -0.78125, 0.1875, 1.625, 1.0
325, 2.741147741147741, -0.6141636141636142, -1.1636141636141637, -0.8125, -0.1875, 1.59375, 1.0
326, 3.166056166056166, -1.84981684981685, -1.3894993894993894, -0.78125, -0.375, 1.40625, 1.0
327, 2.2857142857142856, -2.2857142857142856, -2.148962148962149, -0.78125, 0.125, 1.09375, 1.0
328, 2.6434676434676434, -2.36996336996337, -1.678876678876679, -1.0, 0.59375, 0.8125, 1.0
329, 3.214896214896215, -2.0549450549450547, 0.2796092796092796, -1.0625, 0.21875, 0.65625, 1.0
330, 2.3968253968253967, -2.3150183150183152, 0.0231990231990232, -0.875, 0.25, 0.4375, 1.0
331, 2.340659340659341, -2.8864468864468864, -0.1623931623931624, -0.6875, 0.53125, 0.1875, 1.0
332, 2.3089133089133087, -2.601953601953602, 0.326007326007326, -0.84375, 0.53125, 0.0, 1.0
333, 1.6764346764346765, -1.8754578754578755, 1.15018315018315, -0.9375, 0.28125, -0.0625, 1.0
334, 0.717948717948718, -2.0586080586080584, 0.8156288156288156, -0.75, 0.15625, -0.1875, 1.0
335, -0.2796092796092796, -2.4615384615384617, 0.25274725274725274, -0.5625, 0.3125, -0.3125, 1.0
336, -0.33455433455433453, -2.6434676434676434, 0.6483516483516484, -0.5625, 0.4375, -0.40625, 1.0
337, -0.7448107448107448, -2.2625152625152625, 1.4676434676434675, -0.59375, 0.40625, -0.4375, 1.0
338, -0.42857142857142855, -2.5775335775335777, 1.702075702075702, -0.4375, 0.5, -0.4375, 1.0
339, -0.031746031746031744, -2.9755799755799757, 1.647130647130647, -0.46875, 0.28125, -0.53125, 1.0
340, -2.122100122100122, -2.075702075702076, 1.3223443223443223, -0.5, -0.03125, -0.65625, 1.0
341, -2.9084249084249083, -0.9938949938949939, 1.6495726495726495, -0.3125, 0.1875, -0.65625, 1.0
342, -2.601953601953602, -1.1477411477411477, 1.7423687423687424, -0.0625, 0.15625, -0.5625, 1.0
343, -3.3956043956043955, -0.8205128205128205, 1.2197802197802199, -0.0625, 0.0, -0.5, 1.0
344, -3.797313797313797, -0.8852258852258852, 0.4603174603174603, 0.0, 0.09375, -0.375, 1.0
345, -3.0976800976800978, -0.8925518925518926, 0.2576312576312576, -0.15625, 0.15625, -0.25, 1.0
346, -2.3663003663003663, -0.652014652014652, 0.47985347985347987, -0.34375, 0.09375, -0.21875, 1.0
347, -2.3076923076923075, -0.12332112332112333, 0.7509157509157509, -0.25, 0.03125, -0.1875, 1.0
348, -1.9230769230769231, -0.33821733821733824, 0.16727716727716727, -0.03125, 0.03125, -0.125, 1.0
349, -1.2197802197802199, -0.7411477411477412, -0.4432234432234432, -0.125, -0.0625, -0.03125, 0.0
350, -1.4273504273504274, -0.5531135531135531, -0.9853479853479854, -0.40625, -0.09375, 0.0, 0.0
351, -1.1697191697191698, -0.21611721611721613, -0.5518925518925519, -0.46875, 0.125, 0.0, 0.0
352, -0.4822954822954823, -0.23931623931623933, 0.17582417582417584, -0.15625, 0.09375, 0.0, 0.0
353, -0.46886446886446886, -0.3968253968253968, -0.1343101343101343, -0.03125, 0.03125, 0.03125, 0.0
354, -0.24175824175824176, -0.3894993894993895, -0.21123321123321123, -0.09375, 0.03125, 0.0, 0.0
355, -0.18803418803418803, -0.5421245421245421, -0.221001221001221, -0.21875, 0.0, 0.03125, 0.0
356, -0.304029304029304, -0.08913308913308914, 0.015873015873015872, -0.25, 0.0625, 0.0625, 0.0
357, -0.28205128205128205, 0.18315018315018314, 0.2905982905982906, 0.0, 0.09375, 0.09375, 0.0
358, -0.17704517704517705, 0.0463980463980464, 0.28327228327228327, 0.125, 0.0, 0.125, 0.0
359, -0.057387057387057384, -0.28815628815628813, -0.10744810744810745, 0.03125, 0.0, 0.125, 0.0
360, 0.18925518925518925, -0.5995115995115995, -0.442002442002442, -0.15625, 0.0, 0.125, 0.0
361, -0.019536019536019536, -0.06227106227106227, -0.11721611721611722, -0.125, 0.0, 0.125, 0.0
362, -0.018315018315018316, 0.045177045177045176, 0.07692307692307693, 0.03125, 0.0625, 0.125, 0.0
363, 0.2148962148962149, -0.27228327228327226, -0.031746031746031744, 0.09375, 0.0, 0.09375, 0.0
364, 0.23076923076923078, -0.6666666666666666, -0.2979242979242979, -0.0625, -0.03125, 0.125, 0.0
365, 0.08424908424908426, -0.442002442002442, -0.3076923076923077, -0.21875, 0.0, 0.09375, 0.0
366, -0.057387057387057384, -0.21978021978021978, -0.19047619047619047, -0.15625, 0.03125, 0.09375, 0.0
367, 0.014652014652014652, -0.03296703296703297, -0.015873015873015872, -0.0625, 0.0, 0.0625, 0.0
368, 0.0, -0.03785103785103785, -0.16361416361416362, -0.03125, 0.0, 0.0625, 0.0
369, -0.029304029304029304, -0.03907203907203907, -0.2503052503052503, -0.125, 0.0625, 0.03125, 0.0
370, 0.002442002442002442, -0.13064713064713065, -0.27106227106227104, -0.25, 0.03125, 0.0625, 0.0
371, -0.029304029304029304, 0.15262515262515264, 0.11355311355311355, -0.15625, 0.0, 0.0625, 0.0
372, 0.06593406593406594, -0.03540903540903541, 0.0927960927960928, -0.03125, -0.0625, 0.0625, 0.0
373, -0.030525030525030524, -0.1978021978021978, -0.12332112332112333, -0.03125, 0.0, 0.0625, 0.0
374, -0.14774114774114774, -0.2026862026862027, -0.08424908424908426, -0.0625, 0.09375, 0.03125, 0.0
375, 0.1746031746031746, -0.2087912087912088, 0.06837606837606838, -0.15625, 0.03125, 0.0625, 0.0
376, 0.02564102564102564, 0.0231990231990232, 0.39438339438339437, -0.125, -0.09375, 0.0625, 0.0
377, -0.34065934065934067, 0.10256410256410256, 0.2698412698412698, -0.03125, 0.03125, 0.0625, 0.0
378, -0.12454212454212454, -0.15262515262515264, -0.19047619047619047, -0.125, 0.09375, 0.0625, 0.0
379, -0.17338217338217338, 0.14774114774114774, 0.0463980463980464, -0.15625, 0.03125, 0.0625, 0.0
380, -0.09157509157509157, -0.045177045177045176, -0.05982905982905983, -0.03125, 0.0625, 0.09375, 0.0
381, 0.24786324786324787, -0.2454212454212454, -0.08180708180708181, -0.03125, 0.09375, 0.09375, 0.0
382, 0.01098901098901099, 0.017094017094017096, 0.10378510378510379, -0.0625, 0.03125, 0.09375, 0.0
383, -0.04151404151404151, 0.05860805860805861, 0.2026862026862027, 0.09375, 0.09375, 0.09375, 0.0
384, 0.2783882783882784, 0.13675213675213677, 0.31746031746031744, 0.21875, 0.0625, 0.09375, 1.0
385, 0.19047619047619047, -0.49206349206349204, 0.03785103785103785, 0.375, -0.09375, 0.0625, 1.0
386, 0.27472527472527475, -0.36385836385836384, -0.42735042735042733, 0.1875, 0.0, 0.03125, 1.0
387, 0.19536019536019536, -0.23321123321123322, -0.7167277167277167, -0.09375, 0.0625, 0.03125, 1.0
388, 0.3431013431013431, 0.26373626373626374, -0.4700854700854701, -0.40625, 0.15625, 0.0625, 1.0
389, 0.7094017094017094, 0.19047619047619047, -0.3833943833943834, -0.3125, 0.09375, 0.09375, 1.0
390, 1.2576312576312576, -0.4297924297924298, -0.5848595848595849, -0.125, 0.0, 0.0625, 1.0
391, 1.4236874236874237, -0.6239316239316239, -0.706959706959707, -0.03125, -0.09375, 0.0, 1.0
392, 1.3772893772893773, -0.8144078144078144, -0.7521367521367521, 0.0, 0.03125, -0.125, 1.0
393, 2.043956043956044, -1.332112332112332, -0.8205128205128205, -0.15625, 0.1875, -0.21875, 1.0
394, 2.1868131868131866, -1.4102564102564104, -0.5616605616605617, -0.4375, 0.03125, -0.3125, 1.0
395, 1.5982905982905984, -1.1660561660561661, -0.11355311355311355, -0.4375, -0.125, -0.40625, 1.0
396, 1.376068376068376, -1.7973137973137974, -0.4835164835164835, -0.15625, 0.0625, -0.5625, 1.0
397, 1.6617826617826619, -2.4017094017094016, -0.5335775335775336, -0.09375, 0.1875, -0.75, 1.0
398, 1.0427350427350428, -2.5164835164835164, -0.29426129426129427, -0.21875, 0.0625, -0.90625, 1.0
399, 0.73992673992674, -2.7997557997557996, 0.18803418803418803, -0.28125, 0.15625, -1.0, 1.0
400, 0.7277167277167277, -3.1575091575091574, 0.7973137973137974, -0.28125, 0.1875, -1.125, 1.0
401, -0.28327228327228327, -2.774114774114774, 0.9584859584859585, -0.21875, 0.1875, -1.40625, 1.0
402, -0.905982905982906, -2.4774114774114775, 1.1623931623931625, -0.09375, 0.125, -1.53125, 1.0
403, -1.7521367521367521, -2.4224664224664223, 1.3394383394383393, 0.0, 0.125, -1.5625, 1.0
404, -2.700854700854701, -2.221001221001221, 1.291819291819292, 0.0625, 0.15625, -1.59375, 1.0
405, -3.354090354090354, -2.148962148962149, 1.2759462759462759, 0.0625, 0.0625, -1.59375, 1.0
406, -3.5641025641025643, -2.081807081807082, 1.9523809523809523, 0.21875, -0.09375, -1.5625, 1.0
407, -4.1953601953601956, -2.086691086691087, 2.0537240537240535, 0.4375, -0.03125, -1.59375, 1.0
408, -4.272283272283272, -1.9401709401709402, 1.73992673992674, 0.5, 0.03125, -1.53125, 1.0
409, -4.431013431013431, -1.5811965811965811, 1.3992673992673992, 0.4375, -0.0625, -1.4375, 1.0
410, -5.4603174603174605, -0.5164835164835165, 1.0561660561660562, 0.5625, 0.0, -1.28125, 1.0
411, -5.781440781440781, -0.07692307692307693, 0.4603174603174603, 0.71875, 0.15625, -1.09375, 1.0
412, -5.557997557997558, -0.040293040293040296, -0.15873015873015872, 0.78125, 0.25, -0.8125, 1.0
413, -5.302808302808303, 0.6886446886446886, 0.009768009768009768, 0.90625, 0.25, -0.5625, 1.0
414, -5.258852258852259, 0.9487179487179487, -0.06105006105006105, 0.9375, 0.40625, -0.25, 1.0
415, -5.111111111111111, 2.562881562881563, 0.1562881562881563, 0.96875, 0.53125, 0.09375, 1.0
416, -4.892551892551893, 3.161172161172161, -0.03785103785103785, 1.03125, 0.4375, 0.5, 1.0
417, -4.394383394383395, 2.485958485958486, -0.8742368742368742, 0.875, 0.1875, 0.90625, 1.0
418, -4.135531135531136, 1.8058608058608059, -1.3186813186813187, 0.8125, 0.1875, 1.15625, 1.0
419, -3.202686202686203, 1.5421245421245422, -1.4322344322344323, 0.78125, 0.28125, 1.40625, 1.0
420, -2.1941391941391943, 1.5567765567765568, -1.3516483516483517, 0.65625, 0.21875, 1.625, 1.0
421, -1.6825396825396826, 2.1538461538461537, -1.1465201465201464, 0.5625, 0.15625, 1.78125, 1.0
422, -1.0293040293040292, 1.927960927960928, -1.3943833943833943, 0.40625, 0.0625, 1.90625, 1.0
423, -0.41025641025641024, 1.4126984126984128, -1.7533577533577533, 0.34375, -0.1875, 2.0, 1.0
424, -0.19413919413919414, 0.5006105006105006, -2.873015873015873, 0.21875, -0.25, 2.0, 1.0
425, 0.36996336996337, 0.007326007326007326, -3.221001221001221, 0.0625, -0.21875, 2.0, 1.0
426, 0.9645909645909646, 0.44078144078144077, -2.8412698412698414, -0.28125, -0.0625, 1.90625, 1.0
427, 2.537240537240537, -0.7252747252747253, -3.282051282051282, -0.4375, -0.25, 1.8125, 1.0
428, 1.835164835164835, -0.9035409035409036, -3.7594627594627594, -0.53125, -0.375, 1.6875, 1.0
429, 2.029304029304029, -0.568986568986569, -3.115995115995116, -0.59375, 0.0, 1.53125, 1.0
430, 2.507936507936508, -0.41025641025641024, -2.0, -0.75, 0.34375, 1.375, 1.0
431, 2.924297924297924, -1.0341880341880343, -1.304029304029304, -1.0, 0.34375, 1.3125, 1.0
432, 3.1172161172161172, -2.3907203907203907, -1.778998778998779, -1.125, 0.0, 1.1875, 1.0
433, 2.727716727716728, -1.9096459096459097, -1.5225885225885225, -1.03125, 0.0, 1.0, 1.0
434, 2.4493284493284495, -1.514041514041514, -0.7557997557997558, -0.90625, 0.46875, 0.65625, 1.0
435, 2.5323565323565322, -1.5665445665445665, 0.26495726495726496, -0.84375, 0.78125, 0.4375, 1.0
436, 2.5665445665445668, -2.347985347985348, 0.3504273504273504, -0.875, 0.65625, 0.3125, 1.0
437, 2.0317460317460316, -2.851037851037851, 0.37484737484737485, -1.0625, 0.15625, 0.25, 1.0
438, 0.8925518925518926, -2.2783882783882783, 0.6434676434676435, -0.96875, 0.0, 0.125, 1.0
439, 0.22832722832722832, -2.0, 0.8620268620268621, -0.65625, 0.4375, -0.0625, 1.0
440, 1.3113553113553114, -3.015873015873016, 1.1294261294261294, -0.46875, 0.625, -0.15625, 1.0
441, 0.5079365079365079, -2.623931623931624, 1.667887667887668, -0.71875, 0.0625, -0.21875, 1.0
442, -1.0512820512820513, -2.214896214896215, 1.7716727716727716, -0.625, -0.0625, -0.3125, 1.0
443, -1.8241758241758241, -2.2344322344322345, 1.4175824175824177, -0.28125, 0.28125, -0.4375, 1.0
444, -1.9230769230769231, -2.313797313797314, 1.2942612942612943, -0.1875, 0.40625, -0.46875, 1.0
445, -2.1001221001221, -1.9328449328449329, 1.7301587301587302, -0.28125, 0.0625, -0.40625, 1.0
446, -2.645909645909646, -1.8253968253968254, 1.5128205128205128, -0.21875, 0.0, -0.375, 1.0
447, -3.0195360195360195, -1.8827838827838828, 0.8778998778998779, -0.09375, 0.15625, -0.40625, 1.0
448, -2.987789987789988, -1.3382173382173381, 0.8400488400488401, -0.125, 0.25, -0.375, 1.0
449, -2.73992673992674, -0.7203907203907204, 1.1013431013431014, -0.25, 0.15625, -0.28125, 1.0
450, -2.4822954822954824, -0.3528693528693529, 0.9987789987789988, -0.1875, 0.09375, -0.15625, 1.0
451, -2.2063492063492065, -0.6263736263736264, 0.5067155067155067, -0.0625, 0.0, -0.125, 1.0
452, -2.0586080586080584, -0.6446886446886447, 0.013431013431013432, -0.09375, -0.0625, -0.09375, 1.0
453, -1.8241758241758241, -0.5873015873015873, -0.29181929181929184, -0.25, 0.0, -0.0625, 0.0
454, -1.507936507936508, -0.46642246642246643, -0.4444444444444444, -0.375, 0.0625, 0.0, 0.0
455, -0.6288156288156288, -0.5299145299145299, 0.11965811965811966, -0.09375, -0.15625, 0.0, 0.0
456, -1.1318681318681318, -0.3199023199023199, -0.3540903540903541, -0.03125, -0.09375, 0.0, 0.0
457, -0.9548229548229549, -0.08669108669108669, -0.5384615384615384, 0.0, 0.09375, 0.0, 0.0
458, -0.8412698412698413, -0.19658119658119658, -0.6251526251526252, -0.0625, 0.15625, 0.03125, 0.0
459, -0.7533577533577533, -0.1452991452991453, -0.5054945054945055, -0.125, 0.1875, 0.09375, 0.0
460, -0.10622710622710622, -0.32967032967032966, -0.24053724053724054, -0.15625, 0.0625, 0.125, 0.0
461, 0.001221001221001221, -0.43956043956043955, -0.3089133089133089, -0.1875, -0.0625, 0.125, 0.0
462, -0.3443223443223443, -0.4822954822954823, -0.5738705738705738, -0.15625, 0.0625, 0.125, 0.0
463, 0.03785103785103785, -0.4078144078144078, -0.24297924297924298, -0.09375, 0.15625, 0.09375, 0.0
464, 0.2576312576312576, -0.32112332112332115, 0.09523809523809523, -0.09375, 0.09375, 0.03125, 0.0
465, 0.004884004884004884, -0.14041514041514042, 0.11355311355311355, -0.15625, 0.0, 0.03125, 0.0
466, -0.35653235653235654, 0.15262515262515264, 0.26495726495726496, -0.15625, 0.0, 0.03125, 0.0
467, -0.6263736263736264, 0.16605616605616605, 0.13064713064713065, -0.15625, 0.15625, 0.0625, 0.0
468, -0.08058608058608059, 0.03663003663003663, 0.32844932844932845, -0.0625, 0.09375, 0.09375, 0.0
469, 0.11233211233211234, -0.2661782661782662, 0.2087912087912088, 0.0, -0.03125, 0.125, 0.0
470, 0.03907203907203907, -0.23321123321123322, -0.115995115995116, -0.0625, 0.0, 0.09375, 0.0
471, 0.008547008547008548, -0.14163614163614163, -0.18681318681318682, -0.125, 0.09375, 0.0625, 0.0
472, 0.02442002442002442, -0.026862026862026864, 0.017094017094017096, -0.125, 0.0, 0.0625, 0.0
473, -0.20024420024420025, 0.09401709401709402, 0.17704517704517705, 0.0, 0.0, 0.0625, 0.0
474, -0.18437118437118438, -0.08913308913308914, -0.026862026862026864, 0.0, 0.03125, 0.0625, 0.0
475, 0.07936507936507936, -0.2442002442002442, -0.029304029304029304, -0.125, 0.0, 0.0625, 0.0
476, 0.01098901098901099, -0.057387057387057384, 0.08547008547008547, -0.125, 0.0, 0.03125, 0.0
477, -0.042735042735042736, -0.01221001221001221, 0.08669108669108669, 0.0, -0.03125, 0.03125, 0.0
478, -0.15018315018315018, -0.05616605616605617, -0.25396825396825395, 0.0, -0.03125, 0.03125, 0.0
479, 0.006105006105006105, -0.19536019536019536, -0.38461538461538464, -0.0625, 0.03125, 0.03125, 0.0
480, 0.019536019536019536, -0.03296703296703297, -0.07814407814407814, -0.1875, 0.0, 0.0625, 0.0
481, -0.09768009768009768, 0.0757020757020757, 0.14041514041514042, -0.125, 0.0, 0.0625, 0.0
482, 0.0, -0.07326007326007326, 0.06837606837606838, 0.0, 0.03125, 0.03125, 0.0
483, 0.0927960927960928, -0.22344322344322345, -0.09035409035409035, 0.0, 0.0, 0.03125, 0.0
484, -0.07814407814407814, -0.009768009768009768, 0.009768009768009768, -0.125, 0.0, 0.03125, 0.0
485, 0.030525030525030524, 0.05372405372405373, 0.27594627594627597, -0.09375, 0.0, 0.0625, 0.0
486, -0.13064713064713065, -0.01098901098901099, 0.16971916971916973, 0.0, 0.0, 0.0625, 0.0
487, -0.030525030525030524, -0.03663003663003663, 0.001221001221001221, 0.0, 0.0625, 0.0625, 0.0
488, 0.12698412698412698, -0.10744810744810745, -0.03907203907203907, -0.0625, 0.0625, 0.0625, 0.0
489, 0.052503052503052504, -0.08791208791208792, -0.14896214896214896, -0.09375, 0.0, 0.09375, 0.0
490, 0.019536019536019536, -0.014652014652014652, -0.1111111111111111, -0.03125, 0.0, 0.0625, 0.0
491, 0.050061050061050064, -0.029304029304029304, -0.23321123321123322, 0.0625, 0.0625, 0.03125, 0.0
492, 0.15873015873015872, -0.054945054945054944, -0.38583638583638585, 0.0625, 0.03125, 0.0, 1.0
493, -0.05860805860805861, 0.040293040293040296, -0.3833943833943834, 0.125, -0.125, 0.03125, 1.0
494, -0.12576312576312576, -0.05372405372405373, -0.5335775335775336, 0.28125, 0.0, 0.03125, 1.0
495, 0.525030525030525, -0.14041514041514042, -0.5787545787545788, 0.0625, 0.21875, 0.0, 1.0
496, 0.442002442002442, -0.34065934065934067, -0.8461538461538461, -0.28125, 0.0625, 0.0, 1.0
497, 0.5775335775335775, 0.07692307692307693, -0.5848595848595849, -0.625, 0.03125, 0.03125, 1.0
498, 0.9926739926739927, 0.2979242979242979, -0.13186813186813187, -0.53125, 0.0, 0.0, 1.0
499, 0.9365079365079365, 0.052503052503052504, -0.3247863247863248, 0.0, 0.0625, -0.09375, 1.0
500, 1.3956043956043955, -0.684981684981685, -0.960927960927961, -0.09375, 0.1875, -0.125, 1.0
501, 1.691086691086691, -1.0915750915750915, -1.006105006105006, -0.4375, 0.09375, -0.21875, 1.0
502, 1.728937728937729, -1.0842490842490842, -0.7057387057387058, -0.5625, -0.03125, -0.3125, 1.0
503, 1.3235653235653235, -1.2417582417582418, -0.28815628815628813, -0.34375, -0.03125, -0.4375, 1.0
504, 1.188034188034188, -1.5177045177045176, -0.15995115995115994, -0.125, 0.125, -0.5625, 1.0
505, 1.2747252747252746, -2.139194139194139, -0.23687423687423687, -0.15625, 0.125, -0.75, 1.0
506, 0.6263736263736264, -2.2356532356532357, -0.2625152625152625, -0.1875, 0.125, -0.875, 1.0
507, 0.07326007326007326, -2.515262515262515, 0.1111111111111111, -0.1875, 0.21875, -0.96875, 1.0
508, -0.020757020757020756, -2.9914529914529915, 0.590964590964591, -0.25, 0.375, -1.0625, 1.0
509, 0.15995115995115994, -3.1367521367521367, 1.326007326007326, -0.21875, 0.28125, -1.21875, 1.0
510, -0.5995115995115995, -2.9731379731379732, 1.623931623931624, -0.125, 0.21875, -1.375, 1.0
511, -1.3394383394383393, -2.9572649572649574, 1.376068376068376, -0.03125, 0.15625, -1.5, 1.0
512, -2.1819291819291817, -2.7032967032967035, 1.3345543345543345, -0.03125, 0.21875, -1.53125, 1.0
513, -2.481074481074481, -2.4004884004884004, 1.8412698412698412, 0.09375, 0.28125, -1.59375, 1.0
514, -2.7472527472527473, -2.0854700854700856, 1.9377289377289377, 0.34375, 0.21875, -1.65625, 1.0
515, -3.3724053724053724, -1.9328449328449329, 1.2234432234432235, 0.34375, 0.0625, -1.65625, 1.0
516, -3.8632478632478633, -1.8339438339438339, 0.8791208791208791, 0.3125, -0.125, -1.59375, 1.0
517, -4.735042735042735, -0.9316239316239316, 0.717948717948718, 0.40625, 0.0, -1.46875, 1.0
518, -4.960927960927961, -0.2673992673992674, 0.6239316239316239, 0.71875, 0.21875, -1.34375, 1.0
519, -4.858363858363858, 0.07081807081807082, 0.336996336996337, 0.875, 0.34375, -1.1875, 1.0
520, -4.744810744810745, 0.09035409035409035, 0.20512820512820512, 0.84375, 0.3125, -0.96875, 1.0
521, -5.021978021978022, 0.28815628815628813, -0.017094017094017096, 0.84375, 0.34375, -0.78125, 1.0
522, -5.356532356532356, 0.8888888888888888, -0.2612942612942613, 0.875, 0.34375, -0.53125, 1.0
523, -5.316239316239316, 2.1819291819291817, -0.22466422466422467, 0.90625, 0.375, -0.03125, 1.0
524, -5.218559218559219, 2.490842490842491, -0.8376068376068376, 0.875, 0.4375, 0.3125, 1.0
525, -4.145299145299146, 1.5372405372405373, -0.9267399267399268, 0.8125, 0.28125, 0.65625, 1.0
526, -3.7594627594627594, 1.6007326007326008, -0.8925518925518926, 0.625, 0.21875, 0.9375, 1.0
527, -3.5567765567765566, 1.7264957264957266, -0.8144078144078144, 0.5, 0.25, 1.21875, 1.0
528, -3.507936507936508, 2.2161172161172162, -0.27472527472527475, 0.34375, 0.46875, 1.40625, 1.0
529, -2.5335775335775335, 2.1343101343101343, 0.38583638583638585, 0.46875, 0.53125, 1.625, 1.0
530, -1.2857142857142858, 0.9914529914529915, -0.2515262515262515, 0.53125, 0.1875, 1.875, 1.0
531, -0.4517704517704518, 0.6068376068376068, -1.4713064713064714, 0.375, -0.3125, 2.0625, 1.0
532, -0.4078144078144078, 0.6031746031746031, -2.8144078144078146, 0.28125, -0.4375, 2.0625, 1.0
533, 0.37484737484737485, 1.1111111111111112, -2.7472527472527473, 0.25, -0.1875, 2.0625, 1.0
534, 0.9426129426129426, 0.7863247863247863, -2.514041514041514, 0.125, -0.0625, 2.0625, 1.0
535, 2.3235653235653237, -0.6642246642246642, -2.7191697191697193, -0.21875, -0.34375, 2.09375, 1.0
536, 2.094017094017094, -0.568986568986569, -2.8302808302808304, -0.53125, -0.625, 2.0, 1.0
537, 2.266178266178266, -0.673992673992674, -2.8595848595848596, -0.4375, -0.46875, 1.875, 1.0
538, 2.7216117216117217, -0.5018315018315018, -2.3846153846153846, -0.3125, -0.0625, 1.625, 1.0
539, 3.139194139194139, -0.6117216117216118, -1.6178266178266179, -0.34375, 0.125, 1.46875, 1.0
540, 2.9621489621489623, -1.188034188034188, -1.485958485958486, -0.5, 0.0, 1.3125, 1.0
541, 2.3394383394383396, -1.3968253968253967, -1.7594627594627594, -0.78125, 0.0, 1.1875, 1.0
542, 2.8131868131868134, -2.039072039072039, -2.0634920634920637, -0.78125, -0.09375, 1.15625, 1.0
543, 2.1245421245421245, -1.6605616605616607, -1.9194139194139195, -0.78125, 0.0, 0.96875, 1.0
544, 1.835164835164835, -1.326007326007326, -1.017094017094017, -0.6875, 0.375, 0.78125, 1.0
545, 1.8315018315018314, -1.6495726495726495, -0.4444444444444444, -0.75, 0.71875, 0.5625, 1.0
546, 2.2075702075702077, -2.2673992673992673, -0.2026862026862027, -0.96875, 0.59375, 0.4375, 1.0
547, 1.9597069597069596, -2.8180708180708183, -0.24175824175824176, -0.96875, 0.125, 0.34375, 1.0
548, 0.3907203907203907, -2.286935286935287, -0.43956043956043955, -0.8125, 0.5, -0.0625, 1.0
549, 0.21611721611721613, -1.855921855921856, 0.15262515262515264, -0.65625, 0.875, -0.125, 1.0
550, 0.652014652014652, -2.1123321123321124, 0.8192918192918193, -0.71875, 0.5, -0.21875, 1.0
551, -0.28327228327228327, -1.6349206349206349, 1.4945054945054945, -0.5625, 0.21875, -0.21875, 1.0
552, -0.315018315018315, -2.6031746031746033, 1.2857142857142858, -0.5, 0.1875, -0.34375, 1.0
553, -0.23687423687423687, -2.9206349206349205, 1.431013431013431, -0.5625, 0.15625, -0.46875, 1.0
554, -0.47619047619047616, -2.8864468864468864, 1.3028083028083028, -0.5625, 0.09375, -0.59375, 1.0
555, -1.2344322344322345, -1.9584859584859584, 1.4236874236874237, -0.3125, 0.03125, -0.6875, 1.0
556, -2.1343101343101343, -1.601953601953602, 1.0683760683760684, -0.125, 0.0, -0.65625, 1.0
557, -2.5750915750915753, -1.564102564102564, 0.5848595848595849, -0.21875, 0.0625, -0.65625, 1.0
558, -2.822954822954823, -1.3125763125763126, 0.41514041514041516, -0.34375, 0.125, -0.59375, 1.0
559, -3.2002442002442004, -0.8913308913308914, 0.6788766788766789, -0.3125, 0.09375, -0.53125, 1.0
560, -3.358974358974359, -0.27350427350427353, 1.216117216117216, -0.125, 0.125, -0.40625, 1.0
561, -3.1074481074481075, 0.0463980463980464, 1.231990231990232, 0.0, 0.09375, -0.3125, 1.0
562, -2.7484737484737485, -0.2686202686202686, 0.702075702075702, -0.0625, 0.0, -0.25, 1.0
563, -2.5225885225885225, -0.31013431013431014, 0.47863247863247865, -0.1875, -0.15625, -0.15625, 1.0
564, -2.515262515262515, -0.2271062271062271, 0.19413919413919414, -0.1875, -0.09375, -0.09375, 1.0
565, -2.192918192918193, -0.32722832722832723, -0.34798534798534797, -0.34375, 0.09375, -0.03125, 0.0
566, -1.818070818070818, -0.008547008547008548, -0.3907203907203907, -0.40625, 0.125, 0.0625, 0.0
567, -0.9352869352869353, 0.17704517704517705, 0.2039072039072039, -0.09375, -0.03125, 0.09375, 0.0
568, -0.9536019536019537, -0.01221001221001221, 0.1794871794871795, 0.0625, -0.03125, 0.0625, 0.0
569, -0.5335775335775336, -0.46886446886446886, -0.31746031746031744, -0.03125, 0.0625, 0.03125, 0.0
570, -0.4896214896214896, -0.3321123321123321, -0.4627594627594628, -0.15625, 0.0, 0.0625, 0.0
571, -0.23076923076923078, -0.4371184371184371, -0.3516483516483517, -0.15625, -0.125, 0.09375, 0.0
572, -0.36385836385836384, -0.1916971916971917, -0.4188034188034188, -0.09375, 0.0, 0.125, 0.0
573, -0.030525030525030524, -0.23321123321123322, -0.018315018315018316, -0.125, 0.15625, 0.09375, 0.0
574, -0.03540903540903541, -0.04884004884004884, 0.29181929181929184, -0.125, 0.125, 0.125, 0.0
575, 0.057387057387057384, -0.009768009768009768, 0.48595848595848595, -0.09375, 0.0625, 0.125, 0.0
576, -0.11843711843711843, -0.057387057387057384, 0.3785103785103785, 0.0, 0.03125, 0.125, 0.0
577, -0.14652014652014653, -0.231990231990232, 0.08180708180708181, 0.0, 0.03125, 0.125, 0.0
578, -0.018315018315018316, -0.32967032967032966, -0.25274725274725274, -0.09375, 0.03125, 0.125, 0.0
579, -0.11477411477411477, 0.03540903540903541, -0.18803418803418803, -0.25, 0.0, 0.15625, 0.0
580, -0.08913308913308914, 0.231990231990232, 0.19658119658119658, -0.0625, 0.03125, 0.125, 0.0
581, 0.009768009768009768, -0.1282051282051282, -0.020757020757020756, 0.0625, 0.0, 0.09375, 0.0
582, 0.23931623931623933, -0.463980463980464, -0.2222222222222222, 0.0, 0.0, 0.0625, 0.0
583, -0.0927960927960928, -0.3833943833943834, -0.4297924297924298, -0.09375, 0.0, 0.03125, 0.0
584, 0.007326007326007326, -0.0927960927960928, -0.0695970695970696, -0.125, 0.0625, 0.0625, 0.0
585, -0.028083028083028084, 0.001221001221001221, 0.12698412698412698, -0.03125, 0.03125, 0.0625, 0.0
586, 0.009768009768009768, 0.02197802197802198, 0.1452991452991453, 0.0, 0.03125, 0.0625, 0.0
587, -0.014652014652014652, -0.029304029304029304, -0.03785103785103785, -0.0625, 0.0, 0.0625, 0.0
588, -0.1855921855921856, 0.020757020757020756, -0.06227106227106227, -0.15625, 0.0, 0.0625, 0.0
589, 0.0, -0.002442002442002442, 0.115995115995116, -0.125, 0.0, 0.09375, 0.0
590, 0.002442002442002442, -0.03663003663003663, 0.02564102564102564, -0.03125, 0.0, 0.0625, 0.0
591, 0.007326007326007326, -0.19047619047619047, -0.231990231990232, 0.0, 0.0, 0.0625, 0.0
592, -0.017094017094017096, -0.21733821733821734, -0.3333333333333333, -0.0625, 0.03125, 0.0625, 0.0
593, -0.04151404151404151, -0.10256410256410256, -0.2954822954822955, -0.125, 0.03125, 0.0625, 0.0
594, 0.08424908424908426, -0.009768009768009768, 0.017094017094017096, -0.125, 0.0625, 0.0625, 0.0
595, -0.028083028083028084, -0.001221001221001221, 0.05982905982905983, -0.0625, 0.0, 0.0625, 0.0
596, -0.06837606837606838, -0.03540903540903541, 0.020757020757020756, -0.03125, 0.0, 0.03125, 0.0
597, -0.031746031746031744, 0.031746031746031744, 0.08180708180708181, 0.0, 0.03125, 0.0625, 0.0
598, 0.12087912087912088, -0.03418803418803419, 0.2661782661782662, 0.0, 0.0, 0.0625, 0.0
599, 0.2490842490842491, -0.057387057387057384, 0.27228327228327226, 0.0, -0.0625, 0.0625, 0.0
600, 0.01221001221001221, 0.007326007326007326, 0.08302808302808302, 0.0625, -0.03125, 0.03125, 0.0
601, -0.15873015873015872, 0.07814407814407814, -0.2564102564102564, 0.09375, 0.0, 0.0625, 0.0
602, -0.045177045177045176, 0.015873015873015872, -0.4993894993894994, 0.0, 0.03125, 0.09375, 1.0
603, 0.05128205128205128, 0.08669108669108669, -0.3992673992673993, 0.0625, 0.03125, 0.125, 1.0
604, 0.4139194139194139, -0.27594627594627597, -0.7472527472527473, 0.0, 0.09375, 0.125, 1.0
605, 0.7326007326007326, -0.4371184371184371, -0.9377289377289377, -0.125, 0.15625, 0.0625, 1.0
606, 1.2136752136752136, -0.503052503052503, -0.7142857142857143, -0.25, 0.0625, 0.0, 1.0
607, 1.1978021978021978, -0.5115995115995116, -0.833943833943834, -0.34375, 0.09375, 0.0, 1.0
608, 1.5177045177045176, -0.6117216117216118, -0.6715506715506715, -0.28125, 0.125, -0.09375, 1.0
609, 1.7216117216117217, -1.1746031746031746, -0.9523809523809523, -0.375, 0.21875, -0.1875, 1.0
610, 1.8095238095238095, -1.1660561660561661, -0.7338217338217338, -0.40625, 0.1875, -0.34375, 1.0
611, 1.1904761904761905, -1.0793650793650793, -0.5482295482295483, -0.28125, 0.25, -0.5, 1.0
612, 0.9499389499389499, -1.4261294261294262, -0.4346764346764347, -0.15625, 0.3125, -0.625, 1.0
613, 0.6996336996336996, -2.017094017094017, -0.5641025641025641, -0.34375, 0.34375, -0.65625, 1.0
614, 0.17338217338217338, -1.7496947496947497, -0.12576312576312576, -0.375, 0.4375, -0.71875, 1.0
615, 0.3614163614163614, -2.065934065934066, 0.9462759462759462, -0.125, 0.40625, -0.75, 1.0
616, 0.7167277167277167, -2.8180708180708183, 1.6654456654456655, 0.0, 0.3125, -0.9375, 1.0
617, 0.8327228327228328, -3.3028083028083026, 2.2503052503052503, 0.0, 0.1875, -1.15625, 1.0
618, 0.4884004884004884, -3.5115995115995116, 2.431013431013431, 0.0, 0.0, -1.375, 1.0
619, -0.63003663003663, -2.797313797313797, 2.6373626373626373, 0.15625, -0.125, -1.625, 1.0
620, -2.324786324786325, -1.8717948717948718, 2.1184371184371185, 0.5625, -0.09375, -1.71875, 1.0
621, -3.2783882783882783, -2.103785103785104, 0.9926739926739927, 0.59375, -0.125, -1.65625, 1.0
622, -4.62026862026862, -2.065934065934066, 0.27472527472527475, 0.25, -0.125, -1.5625, 1.0
623, -4.688644688644689, -0.6092796092796092, 0.34676434676434675, 0.25, 0.03125, -1.40625, 1.0
624, -4.96947496947497, -0.6593406593406593, -0.1623931623931624, 0.5, 0.03125, -1.25, 1.0
625, -4.796092796092796, -0.503052503052503, -0.08791208791208792, 0.46875, 0.125, -1.09375, 1.0
626, -4.3931623931623935, -0.28327228327228327, 0.2783882783882784, 0.46875, 0.125, -0.875, 1.0
627, -4.697191697191697, 0.6715506715506715, 0.4993894993894994, 0.53125, 0.125, -0.6875, 1.0
628, -4.076923076923077, 1.164835164835165, 0.6727716727716728, 0.65625, 0.3125, -0.46875, 1.0
629, -3.507936507936508, 1.0463980463980465, 0.38217338217338215, 0.78125, 0.21875, -0.1875, 1.0
630, -3.3162393162393164, 0.9474969474969475, -0.15384615384615385, 0.8125, 0.1875, 0.0, 1.0
631, -2.95970695970696, 0.9145299145299145, -0.17338217338217338, 0.84375, 0.125, 0.125, 1.0
632, -2.901098901098901, 1.0415140415140416, -0.30158730158730157, 0.875, 0.0625, 0.28125, 1.0
633, -2.8315018315018317, 1.1367521367521367, -0.7167277167277167, 0.90625, 0.0, 0.5, 1.0
634, -2.628815628815629, 0.873015873015873, -1.673992673992674, 0.71875, -0.09375, 0.71875, 1.0
635, -2.490842490842491, 1.4505494505494505, -1.9584859584859584, 0.34375, -0.0625, 0.90625, 1.0
636, -2.133089133089133, 2.3687423687423688, -1.3650793650793651, 0.28125, -0.03125, 1.125, 1.0
637, -2.3003663003663, 2.6495726495726495, -1.15995115995116, 0.59375, -0.0625, 1.3125, 1.0
638, -2.0634920634920637, 2.1684981684981683, -1.7936507936507937, 0.65625, 0.0, 1.53125, 1.0
639, -1.4566544566544566, 1.3406593406593406, -2.431013431013431, 0.3125, 0.0, 1.71875, 1.0
640, -0.32112332112332115, 1.4273504273504274, -2.0634920634920637, -0.09375, -0.03125, 1.875, 1.0
641, 0.7191697191697192, 0.8778998778998779, -2.081807081807082, -0.09375, -0.1875, 2.03125, 1.0
642, 1.0207570207570207, 0.5677655677655677, -2.230769230769231, -0.0625, -0.125, 1.96875, 1.0
643, 2.06959706959707, -0.18803418803418803, -2.1172161172161172, -0.0625, -0.03125, 1.90625, 1.0
644, 2.636141636141636, -0.7802197802197802, -2.0854700854700856, -0.28125, -0.0625, 1.71875, 1.0
645, 2.664224664224664, -1.133089133089133, -2.8583638583638584, -0.59375, -0.125, 1.65625, 1.0
646, 1.750915750915751, -0.4554334554334554, -3.1623931623931623, -0.71875, 0.09375, 1.53125, 1.0
647, 2.4786324786324787, -0.6410256410256411, -1.8217338217338217, -0.75, -0.125, 1.53125, 1.0
648, 2.547008547008547, -0.8681318681318682, -0.8058608058608059, -0.875, -0.28125, 1.28125, 1.0
649, 1.531135531135531, -1.507936507936508, -1.3565323565323566, -0.8125, 0.15625, 1.125, 1.0
650, 2.2356532356532357, -2.862026862026862, -1.8571428571428572, -1.0625, 0.4375, 0.90625, 1.0
651, 2.5115995115995116, -2.802197802197802, -1.5238095238095237, -1.25, 0.375, 0.6875, 1.0
652, 1.7203907203907205, -1.7851037851037852, -0.7387057387057387, -1.0625, 0.5625, 0.5, 1.0
653, 1.4456654456654456, -1.3394383394383393, 0.3553113553113553, -0.71875, 0.8125, 0.3125, 1.0
654, 1.5775335775335775, -1.6275946275946276, 1.0647130647130647, -0.71875, 0.65625, 0.1875, 1.0
655, 1.835164835164835, -2.84981684981685, 0.6434676434676435, -0.875, 0.125, 0.09375, 1.0
656, 1.144078144078144, -3.641025641025641, -0.030525030525030524, -0.90625, 0.09375, -0.0625, 1.0
657, 0.612942612942613, -3.336996336996337, 0.27228327228327226, -0.78125, 0.59375, -0.1875, 1.0
658, 0.9047619047619048, -2.7094017094017095, 1.3137973137973138, -0.53125, 0.6875, -0.34375, 1.0
659, 0.3968253968253968, -2.105006105006105, 1.9658119658119657, -0.3125, 0.4375, -0.5, 1.0
660, -0.4236874236874237, -2.5103785103785103, 1.4993894993894994, -0.40625, 0.1875, -0.5625, 1.0
661, -1.1074481074481075, -2.634920634920635, 1.0024420024420024, -0.5625, 0.03125, -0.59375, 1.0
662, -1.9365079365079365, -1.5482295482295483, 1.271062271062271, -0.3125, 0.15625, -0.59375, 1.0
663, -2.2332112332112333, -1.181929181929182, 1.4713064713064714, -0.03125, 0.1875, -0.5625, 1.0
664, -2.7374847374847375, -1.0964590964590966, 1.347985347985348, 0.0, 0.15625, -0.53125, 1.0
665, -3.0256410256410255, -1.15018315018315, 1.0903540903540903, -0.09375, 0.0625, -0.4375, 1.0
666, -3.311355311355311, -1.0842490842490842, 0.7667887667887668, -0.1875, 0.0, -0.375, 1.0
667, -3.481074481074481, -0.7619047619047619, 0.684981684981685, 0.0, 0.0625, -0.28125, 1.0
668, -2.844932844932845, -0.8363858363858364, 0.6483516483516484, 0.0625, 0.15625, -0.21875, 1.0
669, -2.1025641025641026, -0.967032967032967, 0.43956043956043955, -0.09375, 0.0, -0.1875, 1.0
670, -2.0952380952380953, -0.9230769230769231, 0.10500610500610501, -0.46875, -0.0625, -0.03125, 1.0
671, -1.6495726495726495, -0.38705738705738707, 0.08424908424908426, -0.28125, 0.0, 0.0, 1.0
672, -1.3797313797313797, -0.6471306471306472, -0.1623931623931624, -0.03125, -0.15625, 0.0, 0.0
673, -1.7203907203907205, -0.3833943833943834, -0.7643467643467643, -0.03125, -0.0625, -0.03125, 0.0
674, -1.21001221001221, -0.48473748473748474, -0.6642246642246642, -0.03125, 0.15625, 0.03125, 0.0
675, -0.6434676434676435, -0.514041514041514, -0.49572649572649574, -0.21875, 0.15625, 0.09375, 0.0
676, -0.1111111111111111, -0.29304029304029305, 0.03296703296703297, -0.3125, 0.0625, 0.15625, 0.0
677, -0.2576312576312576, -0.12332112332112333, 0.13553113553113552, -0.125, -0.03125, 0.09375, 0.0
678, -0.4700854700854701, -0.16117216117216118, -0.19536019536019536, 0.09375, 0.0, 0.09375, 0.0
679, -0.21367521367521367, -0.2796092796092796, -0.3333333333333333, 0.0625, 0.09375, 0.09375, 0.0
680, 0.006105006105006105, -0.3797313797313797, -0.2783882783882784, -0.09375, 0.125, 0.125, 0.0
681, 0.08791208791208792, -0.2087912087912088, -0.06593406593406594, -0.25, 0.125, 0.125, 0.0
682, -0.16117216117216118, 0.054945054945054944, 0.2026862026862027, -0.15625, 0.0625, 0.125, 0.0
683, -0.10622710622710622, -0.03663003663003663, 0.2905982905982906, 0.03125, 0.09375, 0.125, 0.0
684, 0.1623931623931624, -0.4444444444444444, -0.10500610500610501, 0.0, 0.0625, 0.125, 0.0
685, 0.17582417582417584, -0.27594627594627597, -0.050061050061050064, -0.1875, 0.03125, 0.09375, 0.0
686, -0.06105006105006105, 0.002442002442002442, 0.2564102564102564, -0.1875, 0.09375, 0.0625, 0.0
687, -0.08913308913308914, 0.01098901098901099, 0.35653235653235654, 0.0, 0.125, 0.0625, 0.0
688, 0.19658119658119658, -0.44078144078144077, 0.03785103785103785, 0.0, 0.03125, 0.09375, 0.0
689, 0.15262515262515264, -0.32234432234432236, -0.002442002442002442, -0.15625, -0.09375, 0.09375, 0.0
690, 0.0, -0.03785103785103785, -0.017094017094017096, -0.1875, -0.0625, 0.0625, 0.0
691, -0.042735042735042736, 0.08424908424908426, 0.014652014652014652, -0.03125, 0.0, 0.0, 0.0
692, -0.16605616605616605, -0.10256410256410256, -0.24786324786324787, 0.0, -0.03125, 0.0, 0.0
693, -0.16605616605616605, -0.1684981684981685, -0.5409035409035409, -0.03125, -0.0625, 0.0, 0.0
694, -0.37606837606837606, 0.13675213675213677, -0.5860805860805861, -0.15625, 0.0, 0.0, 0.0
695, -0.3492063492063492, 0.26495726495726496, -0.34676434676434675, -0.0625, 0.09375, 0.09375, 0.0
696, -0.018315018315018316, -0.007326007326007326, -0.13064713064713065, 0.0, 0.03125, 0.125, 0.0
697, 0.16483516483516483, -0.19413919413919414, -0.015873015873015872, -0.03125, 0.03125, 0.09375, 0.0
698, 0.47985347985347987, -0.5714285714285714, -0.057387057387057384, -0.125, 0.0, 0.0625, 0.0
699, 0.21123321123321123, -0.37362637362637363, -0.20757020757020758, -0.15625, 0.0, 0.0, 0.0
700, -0.08913308913308914, -0.10744810744810745, -0.14774114774114774, -0.125, 0.03125, 0.03125, 0.0
701, 0.014652014652014652, -0.02564102564102564, 0.045177045177045176, -0.0625, 0.0, 0.03125, 0.0
702, -0.004884004884004884, -0.030525030525030524, 0.02564102564102564, -0.09375, 0.0, 0.03125, 0.0
703, -0.1282051282051282, -0.047619047619047616, -0.08791208791208792, -0.15625, 0.03125, 0.03125, 0.0
704, -0.22832722832722832, 0.06471306471306472, -0.02564102564102564, -0.15625, 0.0625, 0.0625, 0.0
705, -0.10866910866910867, 0.057387057387057384, 0.13186813186813187, -0.03125, 0.0625, 0.09375, 0.0
706, 0.2087912087912088, -0.23565323565323565, 0.05128205128205128, -0.03125, 0.0, 0.09375, 0.0
707, 0.1391941391941392, -0.16727716727716727, 0.029304029304029304, -0.0625, 0.0, 0.0625, 0.0
708, -0.15384615384615385, -0.03785103785103785, 0.01098901098901099, -0.09375, 0.09375, 0.0625, 0.0
709, -0.1391941391941392, 0.10500610500610501, 0.15995115995115994, -0.03125, 0.125, 0.09375, 0.0
710, 0.08302808302808302, -0.08669108669108669, 0.20634920634920634, -0.03125, 0.03125, 0.09375, 0.0
711, 0.17338217338217338, -0.2673992673992674, 0.08669108669108669, -0.09375, 0.0, 0.09375, 0.0
712, -0.014652014652014652, 0.01221001221001221, 0.1746031746031746, 0.0, 0.0, 0.09375, 0.0
713, 0.01098901098901099, 0.07448107448107448, 0.24297924297924298, 0.21875, 0.0, 0.0625, 0.0
714, -0.009768009768009768, 0.009768009768009768, -0.057387057387057384, 0.28125, 0.0, 0.09375, 1.0
715, 0.38705738705738707, -0.5726495726495726, -0.5323565323565324, 0.0, 0.0, 0.09375, 1.0
716, 0.1855921855921856, -0.24664224664224665, -0.6117216117216118, -0.3125, 0.03125, 0.125, 1.0
717, 0.001221001221001221, 0.02442002442002442, -0.7521367521367521, -0.4375, 0.21875, 0.1875, 1.0
718, 0.5018315018315018, 0.11233211233211234, -0.29304029304029305, -0.21875, 0.125, 0.1875, 1.0
719, 0.9352869352869353, -0.4139194139194139, -0.6092796092796092, -0.21875, 0.0, 0.125, 1.0
720, 1.2087912087912087, -0.4249084249084249, -0.5836385836385837, -0.3125, 0.0, 0.03125, 1.0
721, 1.4273504273504274, -0.5006105006105006, -0.46153846153846156, -0.28125, 0.09375, 0.0, 1.0
722, 1.6581196581196582, -0.7753357753357754, -0.4175824175824176, -0.25, 0.0, -0.09375, 1.0
723, 1.424908424908425, -0.9743589743589743, -0.5201465201465202, -0.28125, -0.03125, -0.21875, 1.0
724, 1.0915750915750915, -1.0, -0.398046398046398, -0.28125, 0.0, -0.34375, 1.0
725, 0.9133089133089133, -1.3565323565323566, -0.49206349206349204, -0.1875, 0.0625, -0.5, 1.0
726, 0.8424908424908425, -1.9975579975579976, -0.684981684981685, -0.21875, 0.125, -0.59375, 1.0
727, 0.7203907203907204, -2.1184371184371185, -0.2515262515262515, -0.3125, 0.15625, -0.65625, 1.0
728, 0.5824175824175825, -2.3223443223443225, 0.22954822954822954, -0.25, 0.25, -0.75, 1.0
729, 0.3504273504273504, -2.336996336996337, 0.4835164835164835, -0.21875, 0.3125, -0.90625, 1.0
730, -0.15873015873015872, -2.413919413919414, 0.6617826617826618, -0.21875, 0.25, -1.03125, 1.0
731, -0.8534798534798534, -2.3089133089133087, 1.1086691086691087, -0.21875, 0.1875, -1.15625, 1.0
732, -1.0598290598290598, -2.5042735042735043, 1.5335775335775337, -0.09375, 0.3125, -1.21875, 1.0
733, -0.7142857142857143, -3.001221001221001, 1.8266178266178266, 0.0625, 0.28125, -1.34375, 1.0
734, -1.2820512820512822, -3.056166056166056, 1.2442002442002442, 0.15625, 0.09375, -1.5, 1.0
735, -2.5396825396825395, -2.4835164835164836, 0.7594627594627594, 0.21875, -0.03125, -1.625, 1.0
736, -3.2783882783882783, -2.318681318681319, 0.5970695970695971, 0.21875, 0.0, -1.65625, 1.0
737, -3.7887667887667886, -1.7973137973137974, 0.6959706959706959, 0.25, 0.09375, -1.65625, 1.0
738, -4.208791208791209, -0.7912087912087912, 0.57997557997558, 0.34375, 0.125, -1.53125, 1.0
739, -4.654456654456655, -0.04151404151404151, 0.5518925518925519, 0.46875, 0.09375, -1.375, 1.0
740, -4.825396825396825, 0.28083028083028083, 0.557997557997558, 0.5625, 0.1875, -1.1875, 1.0
741, -5.0256410256410255, 0.38583638583638585, 0.2771672771672772, 0.53125, 0.3125, -1.0, 1.0
742, -4.945054945054945, 1.3894993894993894, 0.3956043956043956, 0.59375, 0.375, -0.71875, 1.0
743, -4.437118437118437, 1.978021978021978, 0.6800976800976801, 0.78125, 0.25, -0.3125, 1.0
744, -4.923076923076923, 2.3028083028083026, 0.19658119658119658, 0.90625, 0.125, 0.21875, 1.0
745, -5.735042735042735, 2.324786324786325, -1.1257631257631258, 0.90625, 0.3125, 0.625, 1.0
746, -5.333333333333333, 2.2967032967032965, -1.4175824175824177, 0.71875, 0.375, 1.0, 1.0
747, -4.076923076923077, 2.4432234432234434, -0.3772893772893773, 0.59375, 0.1875, 1.375, 1.0
748, -3.3028083028083026, 2.437118437118437, 0.07326007326007326, 0.59375, 0.125, 1.59375, 1.0
749, -2.583638583638584, 1.9633699633699633, -0.01221001221001221, 0.53125, 0.15625, 1.78125, 1.0
750, -2.1452991452991452, 1.4884004884004884, -0.2503052503052503, 0.375, 0.125, 1.8125, 1.0
751, -1.6166056166056166, 1.7252747252747254, -0.21855921855921856, 0.34375, -0.03125, 1.84375, 1.0
752, -1.3345543345543345, 1.800976800976801, -1.017094017094017, 0.3125, -0.25, 1.9375, 1.0
753, -0.9328449328449329, 1.7057387057387057, -2.2002442002442004, 0.34375, -0.375, 2.0625, 1.0
754, -0.3443223443223443, 0.590964590964591, -3.675213675213675, 0.25, -0.34375, 2.0625, 1.0
755, 0.6800976800976801, -0.11965811965811966, -4.456654456654457, 0.0, -0.1875, 2.0625, 1.0
756, 1.551892551892552, 0.0, -4.067155067155067, -0.25, 0.0, 2.0, 1.0
757, 2.1172161172161172, -0.18192918192918192, -3.47008547008547, -0.4375, 0.1875, 1.875, 1.0
758, 2.7435897435897436, -0.78998778998779, -3.056166056166056, -0.71875, 0.25, 1.8125, 1.0
759, 3.8864468864468864, -2.336996336996337, -3.3345543345543347, -1.0625, 0.0, 1.6875, 1.0
760, 4.045177045177045, -2.2918192918192917, -3.0744810744810747, -1.1875, 0.125, 1.40625, 1.0
761, 3.3907203907203907, -1.5873015873015872, -2.06959706959707, -1.03125, 0.59375, 1.125, 1.0
762, 2.9401709401709404, -1.3736263736263736, -0.9706959706959707, -0.9375, 0.90625, 0.84375, 1.0
763, 3.437118437118437, -2.0976800976800978, -0.21611721611721613, -1.15625, 0.6875, 0.71875, 1.0
764, 3.061050061050061, -2.1526251526251525, 0.6190476190476191, -1.25, 0.21875, 0.59375, 1.0
765, 2.128205128205128, -2.6837606837606836, 0.3308913308913309, -1.09375, 0.25, 0.4375, 1.0
766, 1.9536019536019535, -2.531135531135531, 0.6178266178266179, -0.78125, 0.59375, 0.25, 1.0
767, 2.568986568986569, -2.984126984126984, 1.2747252747252746, -0.5625, 0.5625, 0.03125, 1.0
768, 2.663003663003663, -3.213675213675214, 1.9206349206349207, -0.65625, 0.15625, -0.25, 1.0
769, 0.927960927960928, -3.070818070818071, 1.6752136752136753, -0.625, 0.1875, -0.40625, 1.0
770, 0.8302808302808303, -3.051282051282051, 1.9120879120879122, -0.40625, 0.09375, -0.53125, 1.0
771, 0.1221001221001221, -2.6507936507936507, 1.5763125763125763, -0.21875, 0.0, -0.65625, 1.0
772, -1.0231990231990231, -2.1013431013431014, 1.1978021978021978, -0.125, 0.03125, -0.75, 1.0
773, -1.8253968253968254, -1.8827838827838828, 0.7704517704517705, -0.09375, 0.09375, -0.78125, 1.0
774, -2.2527472527472527, -1.492063492063492, 0.6678876678876678, -0.09375, 0.125, -0.75, 1.0
775, -2.4822954822954824, -1.1428571428571428, 0.8156288156288156, -0.125, 0.0, -0.6875, 1.0
776, -3.032967032967033, -1.105006105006105, 0.7313797313797313, -0.09375, -0.125, -0.59375, 1.0
777, -3.0744810744810747, -1.2014652014652014, 0.5738705738705738, 0.03125, 0.0, -0.53125, 1.0
778, -2.446886446886447, -1.1135531135531136, 0.7667887667887668, 0.03125, 0.03125, -0.46875, 1.0
779, -3.1452991452991452, -0.5323565323565324, 0.652014652014652, 0.0, -0.09375, -0.40625, 1.0
780, -3.457875457875458, -0.452991452991453, 0.21001221001221002, 0.03125, -0.0625, -0.3125, 1.0
781, -3.061050061050061, -0.7557997557997558, -0.24053724053724054, -0.0625, -0.0625, -0.1875, 1.0
782, -2.515262515262515, -0.7362637362637363, -0.42735042735042733, -0.125, -0.09375, -0.09375, 0.0
783, -1.6495726495726495, -0.746031746031746, -0.5006105006105006, -0.125, 0.0, -0.0625, 0.0
784, -1.3919413919413919, -0.7936507936507936, -0.7106227106227107, -0.125, 0.0, -0.03125, 0.0
785, -0.8913308913308914, -0.4053724053724054, -0.5091575091575091, -0.15625, -0.0625, 0.0, 0.0
786, -0.724053724053724, -0.0757020757020757, -0.22832722832722832, -0.1875, -0.09375, 0.03125, 0.0
787, -0.78998778998779, -0.16483516483516483, -0.16483516483516483, -0.0625, -0.0625, 0.0625, 0.0
788, -0.24786324786324787, -0.5982905982905983, -0.46764346764346765, 0.0, 0.03125, 0.09375, 0.0
789, 0.0695970695970696, -0.518925518925519, -0.42002442002442003, -0.09375, 0.0, 0.125, 0.0
790, 0.019536019536019536, -0.1794871794871795, -0.13675213675213677, -0.125, 0.0, 0.125, 0.0
791, -0.20024420024420025, -0.03907203907203907, 0.031746031746031744, -0.03125, 0.0, 0.09375, 0.0
792, -0.029304029304029304, -0.04884004884004884, 0.0989010989010989, 0.03125, 0.0625, 0.09375, 0.0
793, 0.15873015873015872, -0.10744810744810745, 0.03663003663003663, -0.09375, 0.0, 0.125, 0.0
794, -0.06837606837606838, 0.004884004884004884, -0.057387057387057384, -0.125, 0.03125, 0.15625, 0.0
795, -0.06227106227106227, -0.03296703296703297, 0.020757020757020756, -0.03125, 0.09375, 0.15625, 0.0
796, 0.16727716727716727, -0.14652014652014653, 0.18315018315018314, 0.0, 0.0625, 0.15625, 0.0
797, 0.24786324786324787, -0.3601953601953602, 0.08180708180708181, 0.0, 0.0, 0.125, 0.0
798, 0.08913308913308914, -0.32967032967032966, -0.008547008547008548, -0.0625, 0.0, 0.125, 0.0
799, -0.0231990231990232, -0.2588522588522589, -0.14774114774114774, -0.0625, 0.0, 0.09375, 0.0
800, 0.006105006105006105, -0.1111111111111111, -0.17094017094017094, -0.03125, 0.03125, 0.0625, 0.0
801, -0.017094017094017096, -0.03785103785103785, -0.34798534798534797, 0.0, 0.0625, 0.0625, 0.0
802, 0.12454212454212454, -0.20024420024420025, -0.3333333333333333, 0.0, 0.0, 0.0625, 0.0
803, -0.05372405372405373, -0.28327228327228327, -0.5018315018315018, -0.125, 0.03125, 0.03125, 0.0
804, 0.12454212454212454, -0.10378510378510379, -0.1623931623931624, -0.1875, 0.03125, 0.03125, 0.0
805, -0.10989010989010989, 0.07081807081807082, -0.007326007326007326, -0.1875, 0.03125, 0.03125, 0.0
806, -0.21855921855921856, 0.3089133089133089, 0.08547008547008547, -0.0625, 0.0, 0.0625, 0.0
807, -0.1282051282051282, -0.16483516483516483, -0.10989010989010989, -0.03125, 0.03125, 0.0625, 0.0
808, 0.031746031746031744, -0.32722832722832723, -0.14285714285714285, -0.15625, 0.0625, 0.03125, 0.0
809, -0.052503052503052504, -0.08547008547008547, -0.10378510378510379, -0.21875, 0.15625, 0.03125, 0.0
810, -0.019536019536019536, 0.08058608058608059, 0.08547008547008547, -0.1875, 0.125, 0.03125, 0.0
811, 0.052503052503052504, 0.0757020757020757, 0.3321123321123321, -0.09375, 0.0, 0.03125, 0.0
812, -0.08913308913308914, -0.07081807081807082, 0.05982905982905983, -0.0625, 0.0, 0.03125, 0.0
813, -0.25518925518925517, -0.018315018315018316, -0.19047619047619047, -0.0625, 0.0625, 0.03125, 0.0
814, -0.07692307692307693, -0.02442002442002442, -0.23687423687423687, -0.09375, 0.0625, 0.0625, 0.0
815, 0.03418803418803419, -0.03785103785103785, -0.15995115995115994, -0.125, -0.03125, 0.09375, 0.0
816, -0.006105006105006105, -0.0757020757020757, -0.09157509157509157, -0.09375, 0.0, 0.09375, 0.0
817, 0.10134310134310134, -0.2857142857142857, -0.11477411477411477, -0.0625, 0.03125, 0.03125, 0.0
818, 0.14896214896214896, -0.17704517704517705, -0.01221001221001221, -0.0625, 0.0625, 0.03125, 0.0
819, 0.08913308913308914, -0.10500610500610501, 0.12942612942612944, -0.0625, -0.03125, 0.0, 0.0
820, -0.1221001221001221, 0.09401709401709402, 0.18437118437118438, 0.0, -0.0625, 0.0, 0.0
821, -0.12576312576312576, -0.07692307692307693, -0.01098901098901099, 0.03125, 0.0, 0.0, 0.0
822, 0.0, -0.11355311355311355, -0.08302808302808302, -0.0625, 0.03125, 0.0, 0.0
823, -0.25274725274725274, 0.18925518925518925, 0.050061050061050064, -0.1875, 0.0, 0.0625, 0.0
824, -0.13797313797313798, 0.25518925518925517, 0.21123321123321123, -0.09375, 0.09375, 0.09375, 0.0
825, 0.09035409035409035, 0.057387057387057384, 0.21855921855921856, 0.0, 0.125, 0.0625, 0.0
826, 0.15506715506715507, -0.358974358974359, -0.0695970695970696, 0.0, 0.0, 0.0625, 0.0
827, -0.06349206349206349, -0.057387057387057384, -0.12576312576312576, -0.09375, -0.03125, 0.09375, 0.0
828, 0.015873015873015872, -0.05860805860805861, -0.15873015873015872, 0.0, 0.0, 0.09375, 0.0
829, 0.06105006105006105, 0.05860805860805861, -0.27594627594627597, 0.0, 0.03125, 0.0625, 0.0
830, 0.19291819291819293, 0.14285714285714285, -0.11965811965811966, 0.03125, 0.0, 0.0625, 1.0
831, -0.009768009768009768, -0.16483516483516483, -0.2698412698412698, 0.21875, -0.1875, 0.03125, 1.0
832, 0.14774114774114774, -0.27594627594627597, -0.7203907203907204, 0.25, -0.0625, 0.09375, 1.0
833, 0.21733821733821734, -0.2490842490842491, -1.2026862026862026, -0.28125, 0.0625, 0.125, 1.0
834, 0.2673992673992674, 0.19291819291819293, -0.7032967032967034, -0.8125, 0.09375, 0.25, 1.0
835, 0.5396825396825397, 0.9328449328449329, 0.25274725274725274, -0.65625, 0.0, 0.1875, 1.0
836, 0.46886446886446886, 0.2576312576312576, -0.16971916971916973, -0.0625, 0.0, 0.125, 1.0
837, 1.636141636141636, -0.7912087912087912, -0.7081807081807082, 0.0625, 0.125, 0.0625, 1.0
838, 1.8156288156288156, -1.304029304029304, -1.115995115995116, -0.21875, 0.0, 0.0, 1.0
839, 1.4761904761904763, -0.8021978021978022, -0.8547008547008547, -0.4375, 0.0, -0.09375, 1.0
840, 1.6947496947496947, -1.315018315018315, -0.9010989010989011, -0.25, 0.0625, -0.25, 1.0
841, 1.7484737484737485, -1.774114774114774, -0.8315018315018315, -0.25, 0.125, -0.46875, 1.0
842, 1.531135531135531, -2.299145299145299, -0.7716727716727717, -0.375, 0.21875, -0.59375, 1.0
843, 1.3394383394383393, -2.2893772893772892, -0.23443223443223443, -0.3125, 0.25, -0.75, 1.0
844, 1.0634920634920635, -2.6678876678876677, 0.25274725274725274, -0.25, 0.28125, -0.875, 1.0
845, 0.9877899877899878, -3.0256410256410255, 0.7704517704517705, -0.15625, 0.28125, -1.03125, 1.0
846, 0.5677655677655677, -3.203907203907204, 0.9963369963369964, -0.1875, 0.21875, -1.21875, 1.0
847, -0.37362637362637363, -2.755799755799756, 1.1965811965811965, -0.0625, 0.1875, -1.375, 1.0
848, -0.9010989010989011, -2.9536019536019538, 1.2026862026862026, 0.03125, 0.125, -1.4375, 1.0
849, -1.3101343101343101, -2.9523809523809526, 1.3882783882783882, 0.0625, 0.0625, -1.5625, 1.0
850, -1.7973137973137974, -3.0720390720390722, 1.3601953601953602, -0.03125, 0.09375, -1.6875, 1.0
851, -2.2063492063492065, -2.9621489621489623, 1.5177045177045176, -0.15625, 0.125, -1.8125, 1.0
852, -2.7655677655677655, -2.4065934065934065, 1.5897435897435896, 0.0, 0.125, -1.90625, 1.0
853, -4.013431013431013, -1.9548229548229548, 0.5982905982905983, 0.15625, 0.28125, -1.9375, 1.0
854, -4.304029304029304, -1.4639804639804639, 0.09768009768009768, 0.1875, 0.28125, -1.75, 1.0
855, -4.571428571428571, -1.017094017094017, 0.09157509157509157, 0.125, 0.21875, -1.5625, 1.0
856, -4.474969474969475, -0.38705738705738707, 0.5714285714285714, 0.3125, 0.34375, -1.375, 1.0
857, -3.993894993894994, -0.15873015873015872, 0.7533577533577533, 0.59375, 0.375, -1.21875, 1.0
858, -4.020757020757021, 0.16117216117216118, 0.4542124542124542, 0.71875, 0.3125, -1.0625, 1.0
859, -4.786324786324786, 0.7985347985347986, -0.04884004884004884, 0.71875, 0.28125, -0.78125, 1.0
860, -5.184371184371185, 1.3821733821733821, 0.031746031746031744, 0.71875, 0.3125, -0.5, 1.0
861, -4.971916971916972, 1.4346764346764347, 0.2454212454212454, 0.78125, 0.40625, -0.1875, 1.0
862, -4.023199023199023, 1.2380952380952381, 0.5604395604395604, 0.75, 0.28125, 0.125, 1.0
863, -3.706959706959707, 1.844932844932845, 0.6593406593406593, 0.84375, 0.15625, 0.34375, 1.0
864, -3.1172161172161172, 2.1941391941391943, 0.34798534798534797, 0.78125, 0.0625, 0.53125, 1.0
865, -1.9438339438339438, 0.5824175824175825, -0.7423687423687424, 0.25, -0.40625, 0.90625, 1.0
866, -1.9584859584859584, 0.702075702075702, -0.9865689865689866, -0.125, -1.21875, 1.34375, 1.0
867, -4.1208791208791204, 3.584859584859585, -0.5201465201465202, 0.40625, -0.375, 1.4375, 1.0
868, -3.4346764346764345, 3.642246642246642, -0.7997557997557998, 0.84375, 0.09375, 1.625, 1.0
869, -3.1404151404151404, 2.4713064713064714, -2.0781440781440783, 1.0, 0.1875, 1.875, 1.0
870, -1.4175824175824177, 0.18315018315018314, -3.3076923076923075, 0.65625, -0.125, 2.15625, 1.0
871, -0.6398046398046398, 0.463980463980464, -3.236874236874237, 0.0, -0.46875, 2.3125, 1.0
872, 0.199023199023199, 1.380952380952381, -2.318681318681319, -0.03125, -0.25, 2.3125, 1.0
873, 0.9841269841269841, 0.6898656898656899, -2.001221001221001, 0.15625, 0.15625, 2.1875, 1.0
874, 2.9413919413919416, -1.5836385836385836, -2.700854700854701, -0.03125, 0.25, 2.15625, 1.0
875, 3.6715506715506714, -1.4835164835164836, -2.3968253968253967, -0.71875, -0.46875, 2.0625, 1.0
876, 2.4358974358974357, -0.3992673992673993, -2.087912087912088, -0.84375, -0.46875, 1.8125, 1.0
877, 2.9902319902319903, -0.4603174603174603, -1.3418803418803418, -0.375, 0.28125, 1.53125, 1.0
878, 3.8046398046398044, -1.9926739926739927, -1.6031746031746033, -0.3125, 0.21875, 1.40625, 1.0
879, 3.1294261294261294, -2.358974358974359, -2.06959706959707, -0.84375, -0.125, 1.21875, 1.0
880, 2.6556776556776556, -2.1306471306471306, -2.032967032967033, -1.09375, 0.125, 1.03125, 1.0
881, 3.086691086691087, -2.6678876678876677, -1.7912087912087913, -0.875, 0.65625, 0.84375, 1.0
882, 3.346764346764347, -2.354090354090354, -0.7997557997557998, -0.90625, 0.75, 0.65625, 1.0
883, 2.2466422466422467, -2.017094017094017, -0.3492063492063492, -0.9375, 0.46875, 0.46875, 1.0
884, 1.2332112332112333, -1.5018315018315018, 0.18437118437118438, -0.90625, 0.40625, 0.3125, 1.0
885, 0.7142857142857143, -1.7619047619047619, 0.2600732600732601, -0.6875, 0.59375, 0.1875, 1.0
886, 1.6800976800976801, -2.877899877899878, 0.6239316239316239, -0.5, 0.71875, 0.0625, 1.0
887, 1.7692307692307692, -3.3626373626373627, 0.9804639804639804, -0.65625, 0.15625, -0.0625, 1.0
888, 0.020757020757020756, -2.1697191697191696, 1.5128205128205128, -0.71875, -0.0625, -0.28125, 1.0
889, -0.3431013431013431, -1.9902319902319903, 1.877899877899878, -0.21875, 0.3125, -0.375, 1.0
890, -0.10134310134310134, -2.606837606837607, 1.5225885225885225, 0.0, 0.3125, -0.53125, 1.0
891, -1.2844932844932846, -2.3663003663003663, 1.1892551892551892, -0.34375, -0.1875, -0.59375, 1.0
892, -2.9365079365079363, -1.6214896214896215, 1.0976800976800978, -0.25, 0.0625, -0.59375, 1.0
893, -2.9902319902319903, -1.4676434676434675, 1.0915750915750915, -0.0625, 0.1875, -0.46875, 1.0
894, -2.6398046398046398, -1.291819291819292, 1.0488400488400489, 0.03125, 0.03125, -0.375, 1.0
895, -2.821733821733822, -0.9768009768009768, 0.7777777777777778, 0.125, 0.0625, -0.3125, 1.0
896, -2.5409035409035408, -1.0940170940170941, 0.5763125763125763, 0.0, 0.09375, -0.34375, 1.0
897, -2.559218559218559, -0.5299145299145299, 0.5934065934065934, -0.125, 0.0625, -0.28125, 1.0
898, -2.7826617826617825, -0.004884004884004884, 0.568986568986569, -0.09375, 0.125, -0.1875, 0.0
899, -2.1904761904761907, -0.6349206349206349, -0.08180708180708181, -0.125, 0.15625, -0.0625, 0.0
900, -1.2576312576312576, -0.5787545787545788, -0.2026862026862027, -0.09375, -0.0625, -0.0625, 0.0
901, -1.3772893772893773, -0.503052503052503, -0.5787545787545788, -0.125, 0.0, -0.09375, 0.0
902, -1.10989010989011, -0.21245421245421245, -0.5067155067155067, -0.03125, 0.125, -0.0625, 0.0
903, -0.8522588522588522, -0.25274725274725274, -0.49206349206349204, -0.09375, 0.0625, -0.03125, 0.0
904, -0.7851037851037851, -0.2588522588522589, -0.536019536019536, -0.21875, -0.03125, 0.0, 0.0
905, -0.7997557997557998, -0.020757020757020756, -0.3833943833943834, -0.21875, 0.0, 0.03125, 0.0
906, -0.4346764346764347, 0.015873015873015872, -0.10500610500610501, -0.0625, 0.03125, 0.0625, 0.0
907, -0.4139194139194139, -0.1391941391941392, -0.4078144078144078, -0.0625, 0.15625, 0.09375, 0.0
908, -0.07936507936507936, -0.326007326007326, -0.2625152625152625, -0.125, 0.15625, 0.09375, 0.0
909, -0.040293040293040296, -0.2454212454212454, 0.029304029304029304, -0.21875, 0.0625, 0.09375, 0.0
910, -0.18925518925518925, 0.11233211233211234, 0.4456654456654457, -0.09375, 0.0, 0.09375, 0.0
911, -0.35653235653235654, -0.04395604395604396, 0.1623931623931624, 0.0, 0.0625, 0.15625, 0.0
912, 0.14774114774114774, -0.6117216117216118, -0.03418803418803419, -0.125, 0.0, 0.15625, 0.0
913, 0.22832722832722832, -0.5152625152625152, -0.007326007326007326, -0.21875, 0.0, 0.125, 0.0
914, 0.22832722832722832, -0.22832722832722832, 0.08791208791208792, -0.1875, 0.0, 0.125, 0.0
915, -0.052503052503052504, 0.07448107448107448, 0.10989010989010989, 0.03125, -0.03125, 0.125, 0.0
916, -0.06471306471306472, -0.24297924297924298, -0.16483516483516483, 0.09375, -0.0625, 0.125, 0.0
917, -0.07081807081807082, -0.13553113553113552, -0.26373626373626374, -0.09375, 0.0, 0.09375, 0.0
918, -0.003663003663003663, 0.03540903540903541, -0.006105006105006105, -0.15625, 0.09375, 0.09375, 0.0
919, 0.3199023199023199, -0.18437118437118438, 0.1562881562881563, 0.0, 0.03125, 0.125, 0.0
920, 0.18437118437118438, -0.326007326007326, -0.052503052503052504, 0.0625, -0.09375, 0.09375, 0.0
921, -0.1111111111111111, -0.23931623931623933, -0.2503052503052503, 0.03125, -0.03125, 0.0625, 0.0
922, 0.06105006105006105, -0.1855921855921856, -0.19658119658119658, -0.0625, 0.09375, 0.0625, 0.0
923, 0.07081807081807082, -0.029304029304029304, 0.0757020757020757, -0.15625, 0.0625, 0.0625, 0.0
924, -0.12332112332112333, -0.03663003663003663, -0.057387057387057384, -0.09375, 0.0, 0.0625, 0.0
925, -0.10744810744810745, -0.14041514041514042, -0.16483516483516483, -0.0625, 0.0, 0.0625, 0.0
926, -0.1330891330891331, -0.08669108669108669, -0.1343101343101343, -0.125, 0.0625, 0.09375, 0.0
927, 0.05128205128205128, -0.045177045177045176, 0.07814407814407814, -0.15625, 0.15625, 0.09375, 0.0
928, 0.3504273504273504, -0.09035409035409035, 0.17338217338217338, -0.125, 0.125, 0.09375, 0.0
929, -0.031746031746031744, 0.017094017094017096, 0.10866910866910867, -0.0625, -0.03125, 0.0625, 0.0
930, -0.057387057387057384, -0.1221001221001221, -0.028083028083028084, -0.03125, 0.0, 0.03125, 0.0
931, -0.002442002442002442, -0.13553113553113552, -0.04151404151404151, -0.0625, 0.03125, 0.03125, 0.0
932, 0.10866910866910867, -0.1343101343101343, -0.007326007326007326, -0.125, 0.03125, 0.0625, 0.0
933, -0.10256410256410256, 0.04395604395604396, 0.057387057387057384, -0.1875, 0.0, 0.03125, 0.0
934, -0.14774114774114774, 0.017094017094017096, 0.15995115995115994, -0.03125, 0.0, 0.03125, 0.0
935, -0.009768009768009768, -0.18925518925518925, -0.05982905982905983, 0.0, 0.0625, 0.0, 0.0
936, 0.20024420024420025, -0.20757020757020758, -0.11477411477411477, -0.0625, 0.0625, 0.0, 0.0
937, -0.10866910866910867, 0.08058608058608059, -0.08791208791208792, -0.125, 0.0, 0.03125, 0.0
938, -0.231990231990232, 0.12942612942612944, -0.2796092796092796, -0.15625, 0.0625, 0.03125, 0.0
939, -0.03540903540903541, 0.054945054945054944, -0.05982905982905983, -0.09375, 0.09375, 0.0625, 0.0
940, -0.1575091575091575, 0.08424908424908426, -0.047619047619047616, 0.0, 0.0625, 0.09375, 0.0
941, 0.115995115995116, -0.08547008547008547, -0.08180708180708181, 0.03125, 0.09375, 0.09375, 0.0
942, 0.32722832722832723, -0.2844932844932845, -0.21245421245421245, -0.0625, 0.0, 0.09375, 0.0
943, 0.10134310134310134, 0.09157509157509157, 0.07936507936507936, 0.0625, -0.0625, 0.0625, 0.0
944, -0.14163614163614163, 0.23931623931623933, 0.013431013431013432, 0.3125, -0.03125, 0.09375, 0.0
945, 0.014652014652014652, 0.0927960927960928, -0.06105006105006105, 0.53125, -0.03125, 0.15625, 1.0
946, 0.5409035409035409, -0.3089133089133089, -0.6654456654456654, 0.1875, -0.125, 0.1875, 1.0
947, 0.221001221001221, -0.4932844932844933, -1.1855921855921856, -0.3125, -0.15625, 0.3125, 1.0
948, -0.20512820512820512, 0.12454212454212454, -1.293040293040293, -0.53125, 0.15625, 0.34375, 1.0
949, 0.9120879120879121, 0.31868131868131866, -0.6263736263736264, -0.34375, 0.125, 0.3125, 1.0
950, 1.4468864468864469, -0.2600732600732601, -0.8937728937728938, -0.21875, 0.0, 0.1875, 1.0
951, 1.5628815628815629, -0.7655677655677655, -1.2222222222222223, -0.28125, 0.03125, 0.03125, 1.0
952, 1.448107448107448, -0.8498168498168498, -1.2393162393162394, -0.4375, 0.25, -0.09375, 1.0
953, 1.7594627594627594, -0.9902319902319903, -0.6495726495726496, -0.5, 0.25, -0.25, 1.0
954, 1.8083028083028083, -1.3724053724053724, -0.25274725274725274, -0.5625, 0.0, -0.375, 1.0
955, 1.2857142857142858, -1.3015873015873016, 0.03663003663003663, -0.5, 0.0, -0.46875, 1.0
956, 0.8278388278388278, -1.4285714285714286, 0.057387057387057384, -0.34375, 0.15625, -0.59375, 1.0
957, 0.6898656898656899, -1.8913308913308913, 0.1562881562881563, -0.21875, 0.25, -0.71875, 1.0
958, 0.6361416361416361, -2.5164835164835164, 0.17704517704517705, -0.25, 0.25, -0.8125, 1.0
959, 0.37606837606837606, -2.7606837606837606, 0.2857142857142857, -0.28125, 0.25, -0.90625, 1.0
960, -0.03540903540903541, -2.954822954822955, 0.40415140415140416, -0.3125, 0.3125, -1.03125, 1.0
961, 0.014652014652014652, -2.9963369963369964, 1.0012210012210012, -0.21875, 0.34375, -1.15625, 1.0
962, -0.1746031746031746, -3.305250305250305, 1.236874236874237, -0.15625, 0.3125, -1.3125, 1.0
963, -0.9743589743589743, -2.7826617826617825, 1.21001221001221, 0.0, 0.3125, -1.4375, 1.0
964, -1.5885225885225884, -3.1086691086691087, 0.9706959706959707, 0.0, 0.25, -1.5625, 1.0
965, -2.283272283272283, -2.669108669108669, 1.746031746031746, 0.0, 0.1875, -1.625, 1.0
966, -2.8412698412698414, -2.111111111111111, 1.3626373626373627, 0.1875, 0.25, -1.6875, 1.0
967, -2.9450549450549453, -2.659340659340659, 0.8632478632478633, 0.3125, 0.15625, -1.75, 1.0
968, -3.9413919413919416, -2.2967032967032965, 0.3785103785103785, 0.0625, 0.09375, -1.78125, 1.0
969, -4.616605616605616, -1.2246642246642248, 0.23076923076923078, 0.0625, 0.375, -1.71875, 1.0
970, -4.686202686202686, -0.07203907203907203, 0.5567765567765568, 0.3125, 0.5625, -1.5625, 1.0
971, -5.028083028083028, 0.5702075702075702, 0.6227106227106227, 0.625, 0.375, -1.34375, 1.0
972, -4.926739926739927, 1.3553113553113554, 0.7741147741147741, 0.71875, 0.40625, -1.0625, 1.0
973, -4.474969474969475, 1.3052503052503053, 0.5409035409035409, 0.75, 0.40625, -0.78125, 1.0
974, -4.706959706959707, 1.623931623931624, 0.17094017094017094, 0.8125, 0.34375, -0.53125, 1.0
975, -4.87057387057387, 1.5738705738705738, -0.06227106227106227, 0.96875, 0.25, -0.25, 1.0
976, -5.1782661782661785, 1.7423687423687424, -0.231990231990232, 1.09375, 0.21875, 0.03125, 1.0
977, -4.417582417582418, 1.7252747252747254, -0.47741147741147744, 1.09375, 0.3125, 0.34375, 1.0
978, -3.255189255189255, 1.667887667887668, -0.8278388278388278, 0.9375, 0.25, 0.75, 1.0
979, -2.7814407814407813, 1.398046398046398, -1.253968253968254, 0.65625, 0.03125, 1.03125, 1.0
980, -3.028083028083028, 1.5445665445665446, -1.1733821733821734, 0.53125, -0.125, 1.3125, 1.0
981, -2.7362637362637363, 1.144078144078144, -1.3052503052503053, 0.59375, -0.0625, 1.5, 1.0
982, -2.5006105006105006, 1.2063492063492063, -1.89010989010989, 0.5625, 0.0, 1.59375, 1.0
983, -1.5934065934065933, 1.9792429792429793, -2.070818070818071, 0.28125, 0.0, 1.84375, 1.0
984, -0.6556776556776557, 2.167277167277167, -2.4896214896214897, 0.125, -0.15625, 2.0625, 1.0
985, 0.4932844932844933, 1.3015873015873016, -3.04029304029304, 0.0, -0.3125, 2.1875, 1.0
986, 1.3687423687423688, 0.43956043956043955, -2.9914529914529915, -0.15625, -0.5, 2.15625, 1.0
987, 1.2954822954822955, 0.5641025641025641, -2.542124542124542, -0.46875, -0.4375, 2.0, 1.0
988, 2.1025641025641026, 0.7203907203907204, -2.1135531135531136, -0.3125, -0.28125, 1.96875, 1.0
989, 2.098901098901099, -0.326007326007326, -2.7484737484737485, -0.40625, -0.28125, 1.9375, 1.0
990, 2.8522588522588523, -1.2576312576312576, -2.456654456654457, -0.6875, -0.34375, 1.84375, 1.0
991, 3.553113553113553, -2.42002442002442, -2.4932844932844933, -1.03125, -0.5, 1.5625, 1.0
992, 2.4334554334554332, -1.4517704517704517, -1.9401709401709402, -0.84375, 0.03125, 1.25, 1.0
993, 2.1758241758241756, -1.0525030525030525, -1.36996336996337, -0.5625, 0.59375, 1.09375, 1.0
994, 2.821733821733822, -1.4664224664224663, -0.6398046398046398, -0.8125, 0.4375, 1.0625, 1.0
995, 3.115995115995116, -2.0598290598290596, -0.04151404151404151, -1.0625, -0.03125, 0.96875, 1.0
996, 2.5714285714285716, -2.757020757020757, -0.33943833943833945, -0.9375, -0.03125, 0.6875, 1.0
997, 2.0085470085470085, -2.866910866910867, -0.5726495726495726, -0.53125, 0.4375, 0.40625, 1.0
998, 2.4249084249084247, -3.227106227106227, -0.29181929181929184, -0.46875, 0.65625, 0.21875, 1.0
999, 2.63003663003663, -3.1294261294261294, 0.4456654456654457, -0.84375, 0.28125, 0.0, 1.0
1000, 1.006105006105006, -1.9963369963369964, 1.2991452991452992, -0.84375, 0.34375, -0.15625, 1.0
1001, 0.6886446886446886, -1.8168498168498168, 2.111111111111111, -0.46875, 0.3125, -0.25, 1.0
1002, 0.32234432234432236, -2.7826617826617825, 1.595848595848596, -0.34375, 0.125, -0.375, 1.0
1003, -0.36996336996337, -3.1904761904761907, 0.6971916971916972, -0.375, 0.25, -0.46875, 1.0
1004, -0.8986568986568987, -2.786324786324786, 0.6691086691086691, -0.34375, 0.375, -0.5, 1.0
1005, -1.2002442002442002, -2.3687423687423688, 1.0952380952380953, -0.28125, 0.3125, -0.59375, 1.0
1006, -1.768009768009768, -1.7545787545787546, 1.4578754578754578, -0.125, 0.21875, -0.59375, 1.0
1007, -2.4126984126984126, -1.5177045177045176, 1.343101343101343, -0.03125, 0.1875, -0.53125, 1.0
1008, -2.304029304029304, -1.862026862026862, 1.0463980463980465, -0.125, 0.0, -0.53125, 1.0
1009, -3.092796092796093, -1.192918192918193, 1.0647130647130647, -0.09375, 0.0, -0.46875, 1.0
1010, -3.4481074481074483, -0.5738705738705738, 1.0415140415140416, 0.03125, 0.125, -0.34375, 1.0
1011, -3.2844932844932844, -0.2588522588522589, 0.8815628815628815, 0.03125, 0.09375, -0.21875, 1.0
1012, -2.877899877899878, -0.46642246642246643, 0.5885225885225885, -0.03125, -0.0625, -0.09375, 1.0
1013, -3.0305250305250304, 0.02197802197802198, 0.36507936507936506, 0.0625, -0.125, 0.03125, 1.0
1014, -2.1575091575091574, -0.5494505494505495, -0.4603174603174603, 0.15625, -0.03125, 0.15625, 0.0
1015, -1.5616605616605617, -0.7032967032967034, -0.8766788766788767, -0.125, 0.03125, 0.09375, 0.0
1016, -0.7741147741147741, -0.7631257631257631, -0.6752136752136753, -0.40625, 0.09375, 0.0625, 0.0
1017, -0.4371184371184371, -0.3504273504273504, -0.23809523809523808, -0.25, 0.0, 0.09375, 0.0
1018, -0.6532356532356532, -0.46764346764346765, -0.557997557997558, 0.0, -0.0625, 0.0625, 0.0
1019, -0.4126984126984127, -0.5177045177045178, -0.7228327228327228, 0.0, 0.03125, 0.0625, 0.0
1020, -0.13186813186813187, -0.3626373626373626, -0.5665445665445665, -0.15625, 0.03125, 0.0625, 0.0
1021, -0.23443223443223443, 0.01098901098901099, -0.27594627594627597, -0.21875, 0.0625, 0.09375, 0.0
1022, -0.0927960927960928, -0.09035409035409035, -0.11843711843711843, -0.0625, 0.0625, 0.125, 0.0
1023, 0.11355311355311355, -0.5555555555555556, -0.1623931623931624, 0.0, 0.0625, 0.125, 0.0
1024, 0.36996336996337, -0.5555555555555556, 0.015873015873015872, -0.03125, 0.0625, 0.09375, 0.0
1025, 0.1514041514041514, -0.2515262515262515, 0.08913308913308914, -0.1875, 0.0625, 0.0, 0.0
1026, -0.0927960927960928, -0.019536019536019536, 0.14407814407814407, -0.1875, 0.09375, 0.03125, 0.0
1027, -0.34065934065934067, 0.1452991452991453, 0.1514041514041514, -0.125, 0.0, 0.03125, 0.0
1028, -0.24053724053724054, 0.06105006105006105, 0.03785103785103785, 0.0, 0.03125, 0.0625, 0.0
1029, 0.07448107448107448, -0.24053724053724054, -0.14285714285714285, -0.0625, 0.09375, 0.0625, 0.0
1030, -0.030525030525030524, -0.028083028083028084, 0.026862026862026864, -0.1875, 0.03125, 0.0625, 0.0
1031, 0.008547008547008548, 0.06471306471306472, 0.3724053724053724, -0.15625, 0.0, 0.09375, 0.0
1032, -0.11477411477411477, -0.01221001221001221, 0.34554334554334554, 0.0, -0.03125, 0.0625, 0.0
1033, -0.06471306471306472, -0.4017094017094017, -0.07692307692307693, 0.0625, -0.0625, 0.0625, 0.0
1034, -0.14774114774114774, -0.6019536019536019, -0.5494505494505495, 0.0, -0.03125, 0.0625, 0.0
1035, 0.05616605616605617, -0.4371184371184371, -0.5824175824175825, -0.15625, 0.0, 0.03125, 0.0
1036, 0.05860805860805861, -0.2490842490842491, -0.31135531135531136, -0.125, 0.0, 0.0625, 0.0
1037, 0.015873015873015872, -0.057387057387057384, -0.15873015873015872, 0.0, 0.0, 0.03125, 0.0
1038, -0.02564102564102564, -0.042735042735042736, -0.18803418803418803, -0.03125, 0.03125, 0.03125, 0.0
1039, -0.02564102564102564, -0.16117216117216118, -0.2771672771672772, -0.1875, 0.0, 0.03125, 0.0
1040, -0.17704517704517705, 0.07326007326007326, -0.04395604395604396, -0.1875, 0.03125, 0.0625, 0.0
1041, -0.03296703296703297, 0.02442002442002442, 0.12576312576312576, -0.09375, 0.0625, 0.03125, 0.0
1042, 0.04884004884004884, -0.05372405372405373, 0.16117216117216118, -0.0625, 0.0, 0.03125, 0.0
1043, -0.14407814407814407, -0.07936507936507936, 0.006105006105006105, -0.09375, 0.03125, 0.03125, 0.0
1044, -0.2857142857142857, -0.05982905982905983, 0.0, -0.125, 0.09375, 0.0625, 0.0
1045, -0.1221001221001221, 0.07203907203907203, 0.2576312576312576, -0.03125, 0.09375, 0.09375, 0.0
1046, -0.003663003663003663, -0.03296703296703297, 0.3125763125763126, 0.03125, 0.03125, 0.125, 0.0
1047, 0.13186813186813187, -0.2222222222222222, 0.05128205128205128, 0.0, 0.03125, 0.09375, 0.0
1048, 0.15384615384615385, -0.2954822954822955, -0.020757020757020756, -0.0625, 0.03125, 0.09375, 0.0
1049, 0.03663003663003663, -0.11843711843711843, -0.08424908424908426, -0.125, 0.0, 0.0625, 0.0
1050, -0.21245421245421245, 0.10134310134310134, -0.13675213675213677, -0.0625, 0.03125, 0.125, 0.0
1051, -0.15873015873015872, 0.03418803418803419, -0.18192918192918192, -0.0625, 0.0625, 0.125, 0.0
1052, -0.0231990231990232, -0.04151404151404151, -0.231990231990232, -0.03125, 0.09375, 0.125, 0.0
1053, 0.25518925518925517, -0.18925518925518925, -0.23565323565323565, -0.09375, 0.0625, 0.09375, 0.0
1054, 0.32844932844932845, -0.2258852258852259, -0.21978021978021978, -0.125, 0.0, 0.0625, 0.0
1055, 0.01221001221001221, -0.03907203907203907, -0.16117216117216118, -0.09375, 0.0, 0.09375, 0.0
1056, -0.02564102564102564, 0.10622710622710622, -0.028083028083028084, -0.03125, 0.03125, 0.09375, 0.0
1057, 0.12576312576312576, 0.008547008547008548, 0.06715506715506715, -0.03125, 0.0, 0.09375, 0.0
1058, 0.08424908424908426, 0.0, 0.05372405372405373, -0.03125, 0.0, 0.09375, 0.0
1059, 0.009768009768009768, -0.08302808302808302, -0.11477411477411477, -0.03125, 0.0, 0.0625, 0.0
1060, 0.03907203907203907, 0.10134310134310134, -0.04395604395604396, 0.03125, 0.0, 0.0625, 0.0
1061, -0.01098901098901099, -0.07326007326007326, -0.3614163614163614, 0.03125, 0.0625, 0.03125, 1.0
1062, 0.28815628815628813, -0.2893772893772894, -0.3711843711843712, 0.03125, 0.0625, 0.0625, 1.0
1063, 0.4810744810744811, -0.006105006105006105, -0.13186813186813187, -0.03125, 0.125, 0.09375, 1.0
1064, 0.35653235653235654, -0.0695970695970696, -0.3333333333333333, -0.125, 0.03125, 0.0625, 1.0
1065, 0.575091575091575, -0.21733821733821734, -0.5457875457875457, -0.28125, 0.125, 0.0625, 1.0
1066, 1.1257631257631258, 0.0463980463980464, -0.43345543345543347, -0.34375, 0.125, 0.03125, 1.0
1067, 1.2954822954822955, -0.43101343101343104, -0.7533577533577533, -0.21875, -0.03125, 0.0, 1.0
1068, 1.1526251526251525, -0.7289377289377289, -1.1611721611721613, -0.3125, -0.0625, -0.0625, 1.0
1069, 1.0964590964590966, -0.9645909645909646, -1.2576312576312576, -0.375, 0.125, -0.21875, 1.0
1070, 0.9706959706959707, -1.0097680097680097, -1.065934065934066, -0.46875, 0.3125, -0.28125, 1.0
1071, 1.177045177045177, -1.3284493284493284, -0.5616605616605617, -0.4375, 0.3125, -0.34375, 1.0
1072, 1.037851037851038, -1.6251526251526252, -0.06471306471306472, -0.34375, 0.21875, -0.46875, 1.0
1073, 0.9877899877899878, -2.2332112332112333, 0.17582417582417584, -0.21875, 0.1875, -0.65625, 1.0
1074, 0.7521367521367521, -2.1684981684981683, 0.48595848595848595, -0.21875, 0.21875, -0.84375, 1.0
1075, 0.2954822954822955, -2.221001221001221, 0.6007326007326007, -0.09375, 0.21875, -1.0, 1.0
1076, -0.07692307692307693, -2.6556776556776556, 0.778998778998779, -0.03125, 0.125, -1.09375, 1.0
1077, -0.5885225885225885, -2.8864468864468864, 0.8522588522588522, -0.15625, 0.15625, -1.1875, 1.0
1078, -0.8400488400488401, -2.7362637362637363, 1.199023199023199, -0.25, 0.1875, -1.28125, 1.0
1079, -1.0708180708180708, -2.923076923076923, 1.2246642246642248, -0.1875, 0.15625, -1.40625, 1.0
1080, -1.7277167277167278, -2.761904761904762, 1.3064713064713065, 0.0, 0.0, -1.53125, 1.0
1081, -2.409035409035409, -2.653235653235653, 1.2026862026862026, 0.09375, 0.03125, -1.625, 1.0
1082, -2.9157509157509156, -2.4945054945054945, 0.9096459096459096, 0.15625, 0.125, -1.71875, 1.0
1083, -3.8376068376068377, -2.1868131868131866, 0.2442002442002442, 0.1875, 0.1875, -1.8125, 1.0
1084, -4.390720390720391, -1.855921855921856, 0.002442002442002442, 0.15625, 0.1875, -1.71875, 1.0
1085, -4.908424908424909, -1.2832722832722834, 0.15018315018315018, 0.125, 0.28125, -1.59375, 1.0
1086, -4.785103785103785, -0.5213675213675214, 0.5555555555555556, 0.21875, 0.46875, -1.375, 1.0
1087, -4.2686202686202686, -0.1794871794871795, 1.0036630036630036, 0.46875, 0.34375, -1.1875, 1.0
1088, -4.616605616605616, 0.5323565323565324, 0.9523809523809523, 0.71875, 0.25, -0.96875, 1.0
1089, -4.924297924297925, 0.5323565323565324, 0.36874236874236876, 0.84375, 0.1875, -0.71875, 1.0
1090, -5.318681318681318, 1.181929181929182, 0.11477411477411477, 1.0, 0.1875, -0.4375, 1.0
1091, -5.43956043956044, 1.652014652014652, -0.06227106227106227, 1.03125, 0.40625, -0.09375, 1.0
1092, -4.135531135531136, 1.5848595848595848, 0.2039072039072039, 0.875, 0.34375, 0.21875, 1.0
1093, -3.695970695970696, 1.5824175824175823, 0.050061050061050064, 0.71875, 0.125, 0.5, 1.0
1094, -4.38949938949939, 2.41025641025641, -0.27350427350427353, 0.84375, 0.0625, 0.78125, 1.0
1095, -4.8046398046398044, 2.6776556776556775, -0.8925518925518926, 0.90625, 0.21875, 1.09375, 1.0
1096, -4.621489621489621, 2.8144078144078146, -1.3894993894993894, 0.6875, 0.25, 1.4375, 1.0
1097, -4.7655677655677655, 3.1306471306471306, -1.989010989010989, 0.40625, 0.0625, 1.90625, 1.0
1098, -3.716727716727717, 3.3394383394383396, -2.15018315018315, 0.21875, -0.21875, 2.34375, 1.0
1099, -2.288156288156288, 2.1294261294261294, -2.866910866910867, 0.375, -0.3125, 2.46875, 1.0
1100, -1.15995115995116, 0.4652014652014652, -4.0366300366300365, 0.375, 0.125, 2.375, 1.0
1101, 0.9914529914529915, -0.6703296703296703, -4.2686202686202686, 0.0, 0.34375, 2.34375, 1.0
1102, 2.9926739926739927, -1.1416361416361416, -4.142857142857143, -0.5625, -0.03125, 2.3125, 1.0
1103, 3.687423687423687, -0.43223443223443225, -3.199023199023199, -0.84375, -0.59375, 2.15625, 1.0
1104, 2.942612942612943, -0.5311355311355311, -3.081807081807082, -0.875, -0.5625, 1.90625, 1.0
1105, 2.5934065934065935, -0.5873015873015873, -2.658119658119658, -0.96875, -0.15625, 1.625, 1.0
1106, 2.473748473748474, 0.03296703296703297, -1.5677655677655677, -0.90625, 0.28125, 1.46875, 1.0
1107, 3.1855921855921854, -0.16971916971916973, -0.5628815628815629, -0.875, 0.3125, 1.375, 1.0
1108, 3.5824175824175826, -1.2857142857142858, -0.525030525030525, -1.09375, 0.03125, 1.28125, 1.0
1109, 2.9365079365079363, -1.2661782661782661, -0.07814407814407814, -1.1875, 0.03125, 1.0625, 1.0
1110, 1.9487179487179487, -0.8278388278388278, 0.4188034188034188, -1.0, 0.46875, 0.6875, 1.0
1111, 2.2344322344322345, -0.44078144078144077, 1.0012210012210012, -0.4375, 0.5, 0.53125, 1.0
1112, 2.6166056166056166, -2.6544566544566544, 0.5042735042735043, -0.59375, 0.15625, 0.40625, 1.0
1113, 2.10989010989011, -2.9096459096459095, 0.2954822954822955, -0.875, -0.1875, 0.28125, 1.0
1114, 1.2039072039072038, -2.3907203907203907, 0.5042735042735043, -0.8125, -0.03125, 0.03125, 1.0
1115, 1.2625152625152625, -2.1758241758241756, 1.2564102564102564, -0.34375, 0.21875, -0.0625, 1.0
1116, 1.6031746031746033, -2.8754578754578755, 0.960927960927961, -0.09375, 0.09375, -0.21875, 1.0
1117, -0.0463980463980464, -2.724053724053724, -0.01221001221001221, -0.34375, -0.1875, -0.34375, 1.0
1118, -1.5628815628815629, -2.1697191697191696, -0.1221001221001221, -0.46875, 0.0, -0.4375, 1.0
1119, -1.514041514041514, -1.989010989010989, 0.6092796092796092, -0.28125, 0.28125, -0.40625, 1.0
1120, -0.673992673992674, -2.4590964590964592, 0.9938949938949939, -0.09375, 0.25, -0.4375, 1.0
1121, -0.6715506715506715, -2.3968253968253967, 1.098901098901099, -0.125, 0.0625, -0.53125, 1.0
1122, -1.4212454212454213, -1.8766788766788767, 1.2307692307692308, -0.125, 0.0, -0.59375, 1.0
1123, -1.757020757020757, -1.352869352869353, 1.3553113553113554, -0.09375, 0.0, -0.65625, 1.0
1124, -2.5665445665445668, -0.8608058608058609, 1.1135531135531136, -0.03125, -0.125, -0.65625, 1.0
1125, -3.5128205128205128, -0.3516483516483517, 0.6361416361416361, 0.0, -0.15625, -0.5625, 1.0
1126, -3.553113553113553, -0.27594627594627597, 0.39194139194139194, 0.0, -0.0625, -0.4375, 1.0
1127, -3.2954822954822953, -0.15384615384615385, 0.231990231990232, -0.03125, 0.03125, -0.34375, 1.0
1128, -2.573870573870574, -0.2686202686202686, 0.08058608058608059, -0.03125, 0.125, -0.28125, 1.0
1129, -2.0378510378510377, -0.18925518925518925, 0.16605616605616605, -0.03125, 0.03125, -0.21875, 1.0
1130, -2.0073260073260073, 0.0231990231990232, 0.1855921855921856, -0.03125, -0.0625, -0.15625, 0.0
1131, -1.855921855921856, 0.04151404151404151, -0.12942612942612944, 0.0, 0.0, -0.0625, 0.0
1132, -1.1147741147741148, -0.8363858363858364, -0.557997557997558, -0.0625, 0.0, 0.0, 0.0
1133, -0.6373626373626373, -0.4481074481074481, -0.43345543345543347, -0.28125, 0.0, 0.0, 0.0
1134, -0.5128205128205128, 0.1978021978021978, 0.06349206349206349, -0.1875, -0.0625, 0.0, 0.0
1135, -0.8803418803418803, 0.013431013431013432, -0.3833943833943834, 0.1875, 0.0, 0.0625, 0.0
1136, -0.6178266178266179, -0.39194139194139194, -0.884004884004884, 0.0, 0.0625, 0.125, 0.0
1137, -0.19047619047619047, -0.3516483516483517, -0.7167277167277167, -0.1875, 0.0625, 0.125, 0.0
1138, -0.326007326007326, -0.03785103785103785, -0.49572649572649574, -0.21875, 0.0625, 0.15625, 0.0
1139, -0.16117216117216118, -0.0463980463980464, -0.31746031746031744, -0.03125, 0.0, 0.15625, 0.0
1140, -0.052503052503052504, -0.20757020757020758, -0.409035409035409, 0.0, 0.0625, 0.15625, 0.0
1141, 0.17704517704517705, -0.21978021978021978, -0.21733821733821734, -0.03125, 0.09375, 0.15625, 0.0
1142, 0.42735042735042733, -0.3516483516483517, -0.06349206349206349, -0.25, 0.03125, 0.125, 0.0
1143, 0.15262515262515264, 0.015873015873015872, 0.221001221001221, -0.21875, 0.0, 0.125, 0.0
1144, -0.2612942612942613, 0.1452991452991453, 0.1855921855921856, 0.0, 0.03125, 0.125, 0.0
1145, -0.008547008547008548, -0.06349206349206349, -0.03296703296703297, 0.03125, 0.0625, 0.125, 0.0
1146, 0.0695970695970696, -0.2857142857142857, -0.29304029304029305, -0.09375, 0.09375, 0.09375, 0.0
1147, 0.017094017094017096, -0.20512820512820512, -0.2087912087912088, -0.1875, 0.125, 0.09375, 0.0
1148, 0.17582417582417584, -0.06593406593406594, 0.1282051282051282, -0.125, 0.0625, 0.0625, 0.0
1149, 0.1855921855921856, -0.03663003663003663, 0.017094017094017096, -0.09375, 0.0, 0.03125, 0.0
1150, -0.045177045177045176, -0.10622710622710622, -0.32234432234432236, -0.125, 0.0, 0.03125, 0.0
1151, -0.1855921855921856, -0.12087912087912088, -0.3968253968253968, -0.1875, 0.0625, 0.03125, 0.0
1152, -0.06349206349206349, -0.06837606837606838, -0.20757020757020758, -0.15625, 0.0625, 0.0625, 0.0
1153, -0.14041514041514042, 0.052503052503052504, -0.015873015873015872, -0.09375, 0.0625, 0.0625, 0.0
1154, -0.05982905982905983, -0.15262515262515264, -0.0463980463980464, -0.09375, 0.0625, 0.125, 0.0
1155, 0.14774114774114774, -0.27350427350427353, 0.07448107448107448, -0.125, 0.0625, 0.0625, 0.0
1156, 0.07081807081807082, -0.23687423687423687, 0.05982905982905983, -0.21875, 0.0625, 0.0, 0.0
1157, -0.115995115995116, 0.04884004884004884, 0.15506715506715507, -0.15625, 0.0625, 0.0, 0.0
1158, -0.2954822954822955, 0.19291819291819293, 0.19047619047619047, -0.03125, 0.03125, 0.0, 0.0
1159, -0.13675213675213677, 0.03663003663003663, 0.08669108669108669, 0.0, 0.0, 0.0625, 0.0
1160, -0.25518925518925517, -0.09157509157509157, -0.29181929181929184, -0.125, 0.03125, 0.0625, 0.0
1161, -0.015873015873015872, -0.18803418803418803, -0.19658119658119658, -0.15625, 0.09375, 0.09375, 0.0
1162, 0.2148962148962149, -0.21733821733821734, 0.06349206349206349, -0.09375, 0.0, 0.09375, 0.0
1163, 0.18315018315018314, -0.20024420024420025, 0.019536019536019536, -0.03125, 0.0, 0.0625, 0.0
1164, 0.007326007326007326, -0.11477411477411477, -0.08302808302808302, -0.0625, 0.03125, 0.03125, 0.0
1165, -0.06715506715506715, 0.05372405372405373, 0.01098901098901099, -0.125, 0.09375, 0.0, 0.0
1166, -0.1111111111111111, 0.1575091575091575, 0.25274725274725274, -0.125, 0.03125, 0.03125, 0.0
1167, -0.10500610500610501, 0.01221001221001221, 0.14896214896214896, -0.09375, 0.0, 0.0625, 0.0
1168, -0.1514041514041514, -0.06105006105006105, 0.02442002442002442, -0.0625, 0.0, 0.09375, 0.0
1169, -0.05616605616605617, -0.10012210012210013, -0.12332112332112333, -0.0625, 0.0625, 0.0625, 0.0
1170, 0.004884004884004884, -0.1562881562881563, -0.22466422466422467, -0.125, 0.09375, 0.09375, 0.0
1171, 0.06349206349206349, -0.12454212454212454, -0.13064713064713065, -0.1875, 0.09375, 0.09375, 0.0
1172, 0.08913308913308914, -0.14041514041514042, -0.15384615384615385, -0.15625, 0.09375, 0.09375, 0.0
1173, -0.006105006105006105, -0.008547008547008548, -0.11233211233211234, -0.125, 0.09375, 0.125, 0.0
1174, -0.002442002442002442, -0.006105006105006105, 0.0231990231990232, -0.09375, 0.09375, 0.125, 0.0
1175, -0.004884004884004884, -0.050061050061050064, 0.07936507936507936, -0.09375, 0.0625, 0.125, 0.0
1176, 0.031746031746031744, 0.0695970695970696, 0.33455433455433453, -0.0625, 0.0625, 0.09375, 0.0
1177, -0.057387057387057384, -0.02197802197802198, 0.17826617826617827, 0.0, 0.0, 0.0625, 0.0
1178, -0.16971916971916973, -0.12698412698412698, 0.06227106227106227, 0.0, 0.0, 0.09375, 0.0
1179, -0.02564102564102564, 0.020757020757020756, 0.15506715506715507, -0.09375, 0.0, 0.125, 0.0
1180, -0.028083028083028084, 0.017094017094017096, 0.20634920634920634, 0.03125, -0.03125, 0.125, 0.0
1181, -0.047619047619047616, 0.18437118437118438, -0.02564102564102564, 0.125, 0.0, 0.125, 0.0
1182, 0.19536019536019536, -0.36752136752136755, -0.4456654456654457, 0.28125, -0.03125, 0.25, 1.0
1183, 0.36874236874236876, -0.5616605616605617, -0.8437118437118437, 0.0, 0.0, 0.21875, 1.0
1184, 0.28815628815628813, -0.10012210012210013, -0.7362637362637363, -0.40625, 0.1875, 0.25, 1.0
1185, 0.7997557997557998, -0.0695970695970696, -0.2588522588522589, -0.28125, 0.03125, 0.125, 1.0
1186, 0.73992673992674, -0.052503052503052504, -0.32112332112332115, -0.125, -0.03125, 0.03125, 1.0
1187, 0.6605616605616605, -0.10378510378510379, -0.7289377289377289, -0.15625, 0.03125, 0.0, 1.0
1188, 0.6813186813186813, 0.13675213675213677, -0.8522588522588522, -0.21875, 0.09375, 0.03125, 1.0
1189, 1.0903540903540903, -0.326007326007326, -0.9072039072039072, -0.34375, 0.0, 0.0, 1.0
1190, 1.170940170940171, -0.5054945054945055, -0.8632478632478633, -0.375, -0.0625, -0.03125, 1.0
1191, 0.9133089133089133, -0.6703296703296703, -0.7912087912087912, -0.25, 0.0, -0.15625, 1.0
1192, 0.8217338217338217, -0.7802197802197802, -0.7545787545787546, -0.15625, 0.21875, -0.25, 1.0
1193, 1.2954822954822955, -1.2075702075702075, -0.7387057387057387, -0.1875, 0.21875, -0.25, 1.0
1194, 1.6263736263736264, -1.6324786324786325, -0.5421245421245421, -0.34375, 0.0625, -0.25, 1.0
1195, 1.3064713064713065, -1.7362637362637363, -0.21001221001221002, -0.3125, 0.15625, -0.375, 1.0
1196, 0.9902319902319903, -1.9230769230769231, 0.17338217338217338, -0.1875, 0.34375, -0.5, 1.0
1197, 0.9816849816849816, -2.3174603174603177, 0.40293040293040294, -0.09375, 0.25, -0.65625, 1.0
1198, 1.0012210012210012, -3.2283272283272284, 0.536019536019536, -0.15625, -0.03125, -0.84375, 1.0
1199, 0.05372405372405373, -3.247863247863248, 0.8901098901098901, -0.125, -0.0625, -1.09375, 1.0
1200, -0.967032967032967, -2.744810744810745, 1.1233211233211233, 0.03125, 0.0625, -1.21875, 1.0
1201, -1.6031746031746033, -2.6666666666666665, 1.308913308913309, 0.0625, 0.09375, -1.34375, 1.0
1202, -2.1172161172161172, -2.7142857142857144, 1.8034188034188035, 0.03125, 0.0, -1.5, 1.0
1203, -2.5494505494505493, -2.967032967032967, 1.9597069597069596, 0.0, -0.125, -1.53125, 1.0
1204, -3.3150183150183152, -2.230769230769231, 2.0891330891330893, 0.1875, -0.21875, -1.53125, 1.0
1205, -3.4249084249084247, -1.94993894993895, 2.0805860805860807, 0.4375, -0.25, -1.5625, 1.0
1206, -3.5763125763125765, -1.7435897435897436, 2.0085470085470085, 0.46875, -0.1875, -1.53125, 1.0
1207, -3.548229548229548, -1.4334554334554335, 2.083028083028083, 0.4375, -0.1875, -1.46875, 1.0
1208, -3.711843711843712, -0.8717948717948718, 2.103785103785104, 0.65625, -0.1875, -1.40625, 1.0
1209, -4.683760683760684, -0.06471306471306472, 1.2344322344322345, 0.875, 0.34375, -1.3125, 1.0
1210, -4.118437118437118, 1.2564102564102564, 1.4786324786324787, 0.78125, 0.625, -1.0625, 1.0
1211, -4.322344322344322, 2.092796092796093, 1.8937728937728937, 0.59375, 0.59375, -0.75, 1.0
1212, -4.794871794871795, 3.426129426129426, 2.2808302808302807, 0.875, 0.53125, -0.40625, 1.0
1213, -4.549450549450549, 3.2735042735042734, 1.4713064713064714, 1.3125, 0.4375, 0.03125, 1.0
1214, -4.289377289377289, 3.120879120879121, 0.4126984126984127, 1.40625, 0.25, 0.375, 1.0
1215, -3.746031746031746, 1.921855921855922, -1.0463980463980465, 1.34375, 0.0625, 0.71875, 1.0
1216, -3.0525030525030523, 0.7655677655677655, -2.391941391941392, 1.09375, -0.09375, 0.9375, 1.0
1217, -2.929181929181929, 0.27594627594627597, -3.7655677655677655, 1.03125, -0.3125, 1.1875, 1.0
1218, -3.3003663003663, -0.10256410256410256, -4.997557997557998, 0.9375, -0.15625, 1.3125, 1.0
1219, -2.868131868131868, -0.5518925518925519, -5.4041514041514045, 0.75, 0.1875, 1.4375, 1.0
1220, -1.7667887667887667, -0.518925518925519, -4.746031746031746, 0.4375, 0.4375, 1.59375, 1.0
1221, -1.3382173382173381, 0.10256410256410256, -3.7765567765567765, 0.03125, 0.4375, 1.71875, 1.0
1222, -0.8400488400488401, 0.27350427350427353, -3.043956043956044, -0.15625, 0.3125, 1.84375, 1.0
1223, -0.5982905982905983, 0.08302808302808302, -3.0488400488400487, -0.28125, 0.125, 1.875, 1.0
1224, 0.031746031746031744, -0.18192918192918192, -2.9645909645909647, -0.28125, 0.09375, 1.90625, 1.0
1225, 1.0537240537240538, -0.5347985347985348, -2.733821733821734, -0.4375, 0.125, 1.875, 1.0
1226, 1.3797313797313797, -0.3663003663003663, -2.346764346764347, -0.625, 0.03125, 1.78125, 1.0
1227, 1.3235653235653235, -0.463980463980464, -2.3736263736263736, -0.65625, 0.0625, 1.6875, 1.0
1228, 2.0720390720390722, -1.3113553113553114, -2.5286935286935286, -0.65625, 0.21875, 1.625, 1.0
1229, 3.0024420024420024, -1.4407814407814408, -1.9658119658119657, -1.0, 0.1875, 1.5, 1.0
1230, 3.1306471306471306, -1.105006105006105, -1.2832722832722834, -1.15625, 0.15625, 1.3125, 1.0
1231, 2.942612942612943, -1.3882783882783882, -1.0634920634920635, -1.0, 0.28125, 1.09375, 1.0
1232, 3.2234432234432235, -2.1538461538461537, -0.7032967032967034, -0.9375, 0.21875, 0.9375, 1.0
1233, 3.051282051282051, -2.4822954822954824, -0.31135531135531136, -1.0625, 0.0, 0.625, 1.0
1234, 2.318681318681319, -2.1184371184371185, 0.013431013431013432, -1.03125, 0.28125, 0.375, 1.0
1235, 2.3089133089133087, -1.9572649572649572, 0.6654456654456654, -0.90625, 0.3125, 0.25, 1.0
1236, 1.8925518925518925, -2.1477411477411477, 0.9694749694749695, -0.75, 0.21875, 0.125, 1.0
1237, 1.7533577533577533, -2.7667887667887667, 0.811965811965812, -0.75, 0.1875, 0.0, 1.0
1238, 1.6117216117216118, -3.2576312576312576, 0.6544566544566545, -0.875, 0.28125, -0.15625, 1.0
1239, 1.1135531135531136, -3.0720390720390722, 1.1404151404151404, -1.0, 0.375, -0.3125, 1.0
1240, 0.9621489621489622, -2.2515262515262515, 2.2503052503052503, -0.625, 0.25, -0.4375, 1.0
