timestamp, accX, accY, accZ, gyroX, gyroY, gyroZ, button
5330, -1.218, 8.097, -6.139, -0.153, -0.034, 0.174, 1
5350, -1.27, 8.072, -5.993, -0.117, -0.017, 0.182, 1
5370, -1.295, 7.989, -5.735, -0.077, 0.009, 0.17, 1
5390, -1.315, 7.84, -5.601, -0.043, 0.026, 0.155, 1
5410, -1.176, 7.689, -5.466, -0.035, 0.057, 0.122, 1
5430, -1.115, 7.561, -5.359, -0.097, 0.083, 0.2, 1
5450, -1.164, 7.541, -5.333, -0.11, 0.01, 0.157, 1
5470, -1.298, 7.554, -5.316, -0.086, -0.063, 0.085, 1
5490, -1.006, 7.449, -5.273, -0.074, -0.088, 0.056, 1
5510, -1.067, 7.562, -5.264, -0.056, -0.097, 0.047, 1
5530, -0.96, 7.46, -5.053, -0.004, -0.019, 0.035, 1
5550, -0.9, 7.233, -4.847, 0.01, -0.062, 0.029, 1
5570, -1.255, 7.113, -4.77, -0.009, -0.098, 0.036, 1
5590, -1.204, 7.128, -4.797, -0.028, -0.087, 0.005, 1
5610, -1.449, 7.341, -4.809, 0.01, -0.048, -0.054, 1
5630, -1.206, 7.394, -4.526, 0.086, 0.006, -0.096, 1
5650, -1.03, 7.452, -4.597, 0.192, -0.197, -0.183, 1
5670, -1.166, 7.109, -4.346, 0.257, -0.35, -0.196, 1
5690, -1.244, 6.779, -4.064, 0.148, -0.417, -0.188, 1
5710, -1.585, 6.886, -4.08, 0.012, -0.345, -0.218, 1
5730, -1.212, 6.928, -3.915, -0.017, -0.22, -0.274, 1
5750, -0.83, 7.008, -4.166, 0.029, -0.353, -0.32, 1
5770, -1.266, 7.042, -4.366, 0.127, -0.49, -0.32, 1
5790, -1.153, 6.354, -4.023, 0.201, -0.4, -0.27, 1
5810, -0.727, 6.172, -3.742, 0.041, -0.39, -0.31, 1
5830, -0.441, 6.122, -4.006, -0.154, -0.535, -0.32, 1
5850, 1.192, 5.784, -4.412, -0.129, -0.739, -0.174, 1
5870, 0.0, 6.253, -4.62, -0.22, -1.144, -0.061, 1
5890, -0.412, 5.95, -4.492, -0.12, -0.979, 0.039, 1
5910, -0.803, 5.711, -4.047, -0.137, -0.247, -0.061, 1
5930, -0.307, 5.707, -3.846, -0.152, 0.249, -0.031, 1
5950, -0.149, 4.0, -4.543, 0.13, 1.05, -0.2, 1
5970, 1.21, 5.073, -3.868, -0.167, -0.052, -0.081, 1
5990, -0.595, 5.746, -3.269, -0.296, -0.601, 0.07, 1
6010, -1.044, 5.522, -2.723, -0.237, -0.594, 0.102, 1
6030, -1.348, 5.356, -2.177, -0.367, -0.39, 0.108, 1
6050, -0.967, 5.077, -1.636, -0.518, -0.085, 0.249, 1
6070, -1.013, 4.596, -1.329, -0.668, 0.193, 0.401, 1
6090, -1.022, 4.43, -1.65, -0.739, 0.211, 0.169, 1
6110, -1.517, 5.009, -2.335, -0.602, 0.211, -0.072, 1
6130, -0.73, 4.866, -3.095, -0.262, 0.053, -0.05, 1
6150, -1.584, 5.391, -3.879, 0.084, 0.373, 0.16, 1
6170, -0.578, 4.457, -3.317, 0.274, 0.571, 0.233, 1
6190, -0.683, 4.069, -2.947, 0.167, 0.218, 0.117, 1
6210, -0.701, 4.892, -2.569, 0.067, 0.038, 0.352, 1
6230, -0.544, 4.432, -1.91, -0.035, 0.094, 0.612, 1
6250, -0.428, 3.843, -1.626, -0.214, 0.257, 0.774, 1
6270, -0.755, 4.352, -1.673, -0.35, 0.364, 1.005, 1
6290, 0.059, 4.455, -1.888, -0.33, 0.431, 0.696, 1
6310, -0.408, 4.402, -2.795, 0.01, 0.295, 0.354, 1
6330, -0.14, 4.374, -2.212, 0.155, 0.268, 0.087, 1
6350, -1.212, 4.079, -2.266, 0.177, 0.491, -0.153, 1
6370, -1.941, 3.402, -2.082, 0.129, 0.654, -0.389, 1
6390, -0.304, 5.342, -1.83, 0.264, 0.603, -0.201, 1
6410, 0.467, 3.968, -2.052, 0.208, 0.46, -0.212, 1
6430, -0.153, 4.131, -2.52, 0.167, 0.414, -0.253, 1
6450, -0.69, 4.573, -2.357, 0.009, 0.26, -0.291, 1
6470, 0.016, 4.051, -0.927, 0.081, 0.152, -0.501, 1
6490, 1.346, 4.781, -0.822, 0.196, 0.237, -0.348, 1
6510, 0.539, 3.9, -0.933, 0.182, 0.136, -0.45, 1
6530, -0.841, 5.141, -1.432, 0.059, -0.037, -0.381, 1
6550, -0.63, 4.811, -2.378, 0.273, 0.164, -0.463, 1
6570, 1.353, 4.224, -2.558, 0.287, 0.244, -0.624, 1
6590, 0.214, 3.414, -1.356, 0.086, -0.164, -0.142, 1
6610, -1.606, 3.344, -1.245, -0.003, -0.136, -0.031, 1
6630, -2.293, 3.096, -1.381, -0.126, 0.024, -0.019, 1
6650, -1.98, 2.725, -1.167, -0.103, 0.272, -0.05, 1
6670, -0.68, 2.502, -1.889, 0.114, 0.484, -0.124, 1
6690, 0.322, 2.83, -2.511, 0.298, 0.598, -0.239, 1
6710, 0.239, 2.899, -1.857, 0.337, 0.566, -0.194, 1
6730, -0.131, 2.331, -1.443, 0.284, 0.459, -0.095, 1
6750, -0.103, 1.696, -1.074, 0.174, 0.505, -0.04, 1
6770, 0.476, 1.81, -1.097, -0.027, 0.611, 0.037, 1
6790, 0.821, 2.089, -1.212, -0.108, 0.583, 0.055, 1
6810, 1.507, 2.504, -1.076, -0.202, 0.525, 0.063, 1
6830, 2.007, 2.453, -0.739, -0.238, 0.415, -0.001, 1
6850, 2.626, 1.722, -0.453, -0.368, 0.255, 0.237, 1
6870, 3.175, 1.837, -1.095, -0.544, -0.381, 0.769, 1
6890, 2.877, 1.555, -0.431, -0.733, -1.478, 0.8, 1
6910, -1.373, 1.121, -1.996, -0.14, -0.406, -0.056, 1
6930, -2.597, 3.795, -3.137, -0.097, 1.48, 0.4, 1
6950, 0.464, 2.767, -1.603, -0.274, 1.552, 0.941, 1
6970, 0.564, 1.777, -1.122, -0.686, 1.149, 1.034, 1
6990, 0.31, 2.44, -1.097, -0.732, 1.141, 1.325, 1
7010, 0.789, 2.021, -0.066, -0.855, 0.805, 1.334, 1
7030, -0.136, 2.186, -0.577, -0.594, 0.772, 1.25, 1
7050, -0.437, 2.38, -0.947, -0.345, 0.922, 1.332, 1
7070, -0.816, 2.047, -0.807, -0.374, 1.269, 1.346, 1
7090, -0.035, 1.41, -0.262, -0.592, 1.298, 1.371, 1
7110, 0.255, 1.554, -0.452, -0.648, 0.923, 1.197, 1
7130, 0.346, 1.379, -0.335, -0.513, 0.54, 1.081, 1
7150, -0.264, 1.714, -0.341, -0.374, 0.522, 1.224, 1
7170, -1.244, 1.639, -0.419, -0.241, 0.919, 1.318, 1
7190, -1.09, 1.236, 0.029, -0.293, 1.235, 1.249, 1
7210, -0.304, 1.156, 0.035, -0.378, 0.985, 1.125, 1
7230, 0.14, 1.546, -0.225, -0.317, 0.318, 1.029, 1
7250, -0.457, 1.687, -0.323, -0.145, -0.089, 1.077, 1
7270, -0.907, 1.768, -0.188, -0.042, -0.246, 0.981, 1
7290, -0.518, 1.385, 0.23, -0.093, -0.828, 0.707, 1
7310, 0.074, 1.19, 0.854, -0.037, -1.707, 0.613, 1
7330, 1.051, 0.405, 1.867, -0.308, -3.262, 0.353, 1
7350, 1.423, 0.488, 2.417, -0.521, -4.94, 0.175, 1
7370, 0.425, 1.221, 1.946, -0.272, -6.216, -0.046, 1
7390, 0.497, -0.117, 2.797, -0.212, -7.137, -0.694, 1
7410, 2.151, -0.145, 4.355, -0.424, -9.062, -0.704, 1
7430, 2.115, -0.061, 4.917, -0.872, -11.164, -0.437, 1
7450, 1.09, 1.402, 5.303, -1.501, -13.29, -0.59, 1
7470, -2.328, 6.372, 3.715, -1.775, -14.492, -0.846, 1
7490, -6.066, 2.072, -0.416, -1.003, -12.993, -1.175, 1
7510, -6.394, 1.78, -3.035, 0.189, -9.349, -1.598, 1
7530, -4.838, 1.613, -2.329, 1.193, -5.254, -1.839, 1
7550, -1.354, 0.461, -0.821, 1.305, -2.541, -1.72, 1
7570, -0.079, 0.619, -0.903, 0.989, -1.69, -1.547, 1
7590, -0.383, 1.017, -1.132, 0.867, -1.016, -1.279, 1
7610, 1.2, 0.529, -0.555, 0.853, -0.148, -0.656, 1
7630, 0.67, 0.488, -0.485, 0.604, 0.001, 0.128, 1
7650, -0.121, 0.646, -0.71, 0.298, 0.169, 0.548, 1
7670, -1.383, 1.397, -1.679, 0.148, 0.563, 0.43, 1
7690, -2.133, 1.914, -1.727, 0.343, 1.461, 0.235, 1
7710, -2.148, 2.082, -1.745, 0.569, 2.793, 0.13, 1
7730, -1.384, 2.71, -1.761, 0.953, 4.312, 0.16, 1
7750, -0.636, 2.416, -1.211, 1.373, 5.632, 0.446, 1
7770, -0.593, 2.075, -0.708, 1.37, 6.975, 0.766, 1
7790, -0.848, 5.015, 0.87, 1.053, 8.606, 0.953, 1
7810, 0.873, 4.177, 5.009, 0.415, 9.772, 0.382, 1
7830, -0.222, 2.213, 5.635, -0.69, 10.39, -0.607, 1
7850, 1.819, 2.273, 5.264, -0.601, 11.063, 0.9, 1
7870, 2.952, -1.478, 5.767, -1.032, 11.034, 1.963, 1
7890, 3.948, -2.58, 5.483, -1.865, 10.476, 2.344, 1
7910, 4.978, -0.836, 2.626, -2.079, 8.704, 2.38, 1
7930, 4.269, 1.033, -1.164, -1.205, 5.512, 1.346, 1
7950, 2.865, 1.042, -2.057, -0.377, 2.464, 0.811, 1
7970, 1.402, 0.78, -2.004, -0.195, 0.703, 0.814, 1
7990, -0.795, 0.202, -2.423, -0.445, 0.453, 0.895, 1
8015, -2.101, 0.435, -2.416, -0.756, 1.196, 1.055, 1
8035, -1.792, 0.243, -2.241, -1.343, 1.511, 1.292, 1
8055, -2.321, 1.292, -3.345, -1.538, 1.055, 1.106, 1
8075, -2.413, 0.983, -3.129, -1.354, 0.326, 0.844, 1
8095, -3.042, 0.985, -2.819, -1.06, 0.11, 0.756, 1
8115, -2.262, 0.169, -2.305, -0.828, 0.116, 0.639, 1
8135, -1.155, -0.104, -2.055, -0.579, -0.091, 0.485, 1
8155, -0.598, -0.013, -2.24, -0.232, -0.602, 0.389, 1
8175, -1.129, 0.112, -1.811, 0.084, -0.721, 0.381, 1
8195, -1.983, -0.466, -1.498, 0.37, -0.333, 0.323, 1
8215, -1.521, -0.792, -1.046, 0.441, -0.01, 0.163, 1
8235, -1.287, -0.732, -1.061, 0.34, -0.002, -0.028, 1
8255, -0.856, -0.28, -1.643, 0.33, -0.241, -0.183, 1
8275, -1.09, 0.085, -1.972, 0.39, -0.325, -0.339, 1
8295, -0.836, 0.06, -1.935, 0.356, -0.438, -0.499, 1
8315, -0.812, 0.222, -1.892, 0.321, -0.49, -0.651, 1
8335, -0.506, 0.194, -1.659, 0.271, -0.502, -0.74, 1
8355, 0.024, 0.252, -1.522, 0.207, -0.535, -0.844, 1
8375, -0.222, 1.054, -1.924, 0.337, -0.919, -1.13, 1
8395, -0.515, 0.977, -1.892, 0.591, -1.067, -1.232, 1
8415, -0.077, 0.509, -1.311, 0.753, -0.968, -1.244, 1
8435, 0.591, 0.114, -0.561, 0.682, -1.143, -1.262, 1
8455, 0.342, 0.148, -0.336, 0.477, -1.374, -1.342, 1
8475, 0.844, 0.262, 0.112, 0.293, -1.474, -1.5, 1
8495, 0.724, 0.295, 0.197, 0.175, -1.726, -1.662, 1
8515, 0.854, 0.202, 0.173, 0.125, -1.74, -1.773, 1
8535, 1.236, 0.176, 0.285, 0.02, -1.799, -1.901, 1
8555, 2.798, -0.01, 0.618, -0.13, -2.276, -1.961, 1
8575, 1.52, 0.498, 0.098, -0.388, -3.059, -1.762, 1
8595, 0.372, 0.644, -0.477, -0.319, -2.685, -1.373, 1
8615, 0.404, 0.447, -0.311, 0.011, -1.806, -1.318, 1
8635, 1.212, 0.486, 0.124, 0.356, -1.178, -1.391, 1
8655, 2.052, 0.464, 0.692, 0.633, -1.006, -1.456, 1
8675, 1.853, 0.246, 1.007, 0.656, -1.052, -1.328, 1
8695, 1.522, 0.082, 1.354, 0.313, -0.938, -1.127, 1
8715, 1.238, 0.509, 1.045, -0.053, -0.651, -0.907, 1
8735, 0.812, 0.745, 0.433, -0.087, -0.182, -0.691, 1
8755, 1.484, 0.847, 0.405, 0.073, -0.017, -0.64, 1
8775, 1.513, 0.523, 0.48, 0.169, -0.294, -0.649, 1
8795, 1.976, 0.238, 0.817, 0.04, -0.715, -0.505, 1
8815, 1.08, 0.411, 0.44, -0.213, -1.042, -0.295, 1
8835, 0.581, 0.891, -0.003, -0.153, -1.11, -0.477, 1
8855, 0.67, 0.967, -0.262, 0.058, -1.089, -0.478, 1
8875, 0.216, 0.899, -0.266, 0.195, -1.086, -0.5, 1
8895, -0.207, 0.796, -0.044, 0.21, -0.897, -0.561, 1
8915, -0.111, 0.677, 0.031, 0.087, -0.54, -0.332, 1
8935, -0.501, 0.656, 0.145, -0.075, -0.152, -0.195, 1
8955, 0.137, 1.005, 0.235, -0.08, -0.218, -0.178, 1
8975, 0.042, 1.289, -0.208, 0.161, -0.446, -0.254, 1
8995, -0.14, 1.237, -0.213, 0.359, -0.477, -0.288, 1
9015, -0.443, 0.939, -0.105, 0.255, -0.22, -0.194, 1
9035, -0.354, 1.016, 0.053, 0.122, 0.095, -0.081, 1
9055, -0.262, 1.322, 0.142, 0.081, 0.173, -0.047, 1
9075, 0.403, 1.464, 0.345, 0.132, -0.091, -0.072, 1
9095, 0.578, 1.409, 0.358, 0.061, -0.48, -0.113, 1
9115, 0.194, 1.677, 0.231, 0.056, -0.686, -0.089, 1
9135, -0.12, 1.729, -0.074, 0.058, -0.635, -0.051, 1
9155, -0.215, 1.766, 0.02, 0.019, -0.232, 0.081, 1
9175, 0.448, 1.729, 0.392, -0.067, -0.205, -0.007, 1
9195, 1.045, 1.952, 0.547, -0.138, -0.709, 0.003, 1
9215, 0.419, 2.25, 0.067, -0.023, -1.021, 0.006, 1
9235, -0.443, 2.281, -0.439, 0.156, -0.829, -0.139, 1
9255, -0.537, 2.316, -0.214, 0.307, -0.376, -0.059, 1
9275, -0.352, 1.935, 0.101, 0.245, 0.162, 0.076, 1
9295, 0.834, 1.626, 0.889, -0.059, 0.108, 0.171, 1
9315, 0.729, 2.203, 0.496, -0.216, -0.546, 0.095, 1
9335, -1.033, 2.898, -0.131, -0.009, -0.348, 0.071, 1
9355, -1.029, 2.307, 0.18, 0.225, 0.221, 0.07, 1
9375, -0.409, 1.92, 0.685, 0.077, 0.585, 0.066, 1
9395, -0.049, 2.025, 0.734, -0.244, 0.671, 0.153, 1
9415, 0.156, 2.3, 0.488, -0.337, 0.65, 0.169, 1
9435, 0.397, 2.372, 0.346, -0.202, 0.594, 0.166, 1
9455, -0.209, -0.555, -0.069, 0.164, 0.599, 0.053, 1
9475, -0.127, 2.082, 0.034, 0.174, 0.668, 0.235, 1
9495, -0.383, 2.391, 0.156, 0.219, 0.946, 0.392, 1
9515, -0.286, 1.308, 0.696, -0.022, 1.224, 0.417, 1
9535, -0.591, 2.587, 0.666, -0.318, 1.404, 0.397, 1
9555, -0.172, 0.985, 0.301, -0.167, 1.342, 0.229, 1
9575, 0.043, 1.163, 0.404, -0.238, 1.133, 0.291, 1
9595, 0.049, 1.207, 0.477, -0.376, 1.08, 0.355, 1
9615, -0.092, 0.967, 0.482, -0.458, 1.087, 0.48, 1
9635, -0.353, 1.113, 0.221, -0.495, 1.273, 0.487, 1
9655, -0.86, 0.891, -0.003, -0.304, 1.596, 0.361, 1
9675, -0.683, 0.321, 0.337, -0.127, 2.227, 0.332, 1
9695, 0.091, -0.516, 1.252, -0.227, 2.841, 0.48, 1
9715, 0.233, -0.12, 1.36, -0.631, 2.996, 0.667, 1
9735, 0.801, 0.011, 1.147, -0.689, 2.899, 0.591, 1
9755, 0.907, -0.394, 1.246, -0.741, 2.439, 0.616, 1
9775, 0.427, -0.514, 1.105, -1.075, 1.977, 0.677, 1
9795, -0.108, -0.012, 0.322, -1.423, 1.763, 0.762, 1
9815, -0.623, 0.586, -0.541, -0.903, 1.733, 0.401, 1
9835, 0.548, 0.278, -0.228, -0.546, 1.687, 0.425, 1
9855, -0.153, 0.294, -0.257, -0.402, 1.778, 0.577, 1
9875, -0.368, -0.1, 0.159, -0.588, 1.912, 0.825, 1
9895, -0.868, 0.031, -0.062, -0.827, 1.828, 0.543, 1
9915, 0.672, 0.561, -0.68, -0.595, 1.153, 0.379, 1
9935, 1.065, 0.054, -1.02, -0.447, 0.411, 0.468, 1
9955, 0.369, -0.3, -0.812, -0.416, 0.266, 0.593, 1
9975, -0.109, -0.266, -0.18, -0.565, 0.573, 0.775, 1
9995, -0.823, 0.5, -0.334, -0.37, 0.778, 0.534, 1
10015, -0.026, 0.753, -0.283, -0.032, 0.478, 0.375, 1
10035, -0.285, 0.358, 0.033, -0.012, 0.087, 0.298, 1
10055, -0.59, 0.001, 0.683, -0.161, -0.016, 0.323, 1
10075, -0.576, -0.09, 0.669, -0.278, 0.106, 0.417, 1
10095, -0.055, -0.268, 0.608, -0.447, 0.237, 0.662, 1
10115, 0.266, -0.419, 0.703, -0.742, 0.256, 0.77, 1
10135, 0.032, 0.2, 0.095, -0.665, 0.23, 0.648, 1
10155, 0.235, 0.079, -0.016, -0.448, 0.125, 0.512, 1
10175, -0.312, 0.454, -0.257, -0.31, 0.067, 0.29, 1
10195, -0.156, 0.41, -0.256, -0.306, -0.016, 0.334, 1
10215, -0.204, 0.227, -0.269, -0.232, -0.044, 0.433, 1
10235, 0.015, -0.097, -0.092, -0.196, -0.136, 0.442, 1
10255, -0.029, 0.081, -0.315, -0.221, -0.453, 0.357, 1
10275, 0.271, 0.529, -0.76, -0.055, -0.937, 0.159, 1
10295, 0.379, -0.046, -0.297, -0.259, -1.425, 0.185, 1
10315, 0.566, -0.599, 0.344, -0.473, -1.776, 0.12, 1
10335, 0.66, -0.2, -0.104, -0.719, -2.756, -0.051, 1
10355, -0.127, -0.071, -0.563, -0.827, -3.708, -0.014, 1
10375, -1.405, -0.244, -0.956, -0.693, -3.707, 0.047, 1
10395, -1.273, -0.453, -0.948, -0.396, -3.217, 0.01, 1
10415, -0.689, -1.402, -0.246, -0.213, -2.822, 0.012, 1
10435, 0.422, -2.035, 1.061, -0.433, -2.895, -0.084, 1
10455, 1.39, -2.595, 1.833, -0.974, -3.458, -0.097, 1
10475, -0.129, -2.262, 1.259, -1.594, -4.364, -0.091, 1
10495, -1.815, -1.847, -0.294, -1.659, -4.189, -0.103, 1
10515, -1.613, -2.255, -0.894, -1.147, -3.295, -0.256, 1
10535, 0.586, -3.52, 0.031, -0.686, -2.506, -0.311, 1
10555, 2.506, -4.647, 0.779, -0.853, -3.207, -0.209, 1
10575, 0.567, -4.807, 0.188, -1.332, -4.748, -0.172, 1
10595, -2.076, -5.175, -1.508, -1.23, -4.795, -0.106, 1
10615, -1.927, -6.181, -1.791, -0.54, -3.419, -0.117, 1
10635, -0.47, -7.588, -0.747, 0.015, -2.207, -0.119, 1
10655, 0.511, -8.289, 0.172, 0.023, -1.753, 0.011, 1
10675, -0.099, -8.519, 0.334, -0.058, -1.59, 0.139, 1
10695, -0.19, -8.338, 0.004, -0.113, -1.176, 0.208, 1
10715, -0.124, -8.095, -0.353, -0.066, -0.943, 0.113, 1
10735, -0.623, -7.89, -0.706, 0.07, -0.852, 0.092, 1
10755, -0.81, -7.725, -0.719, 0.202, -0.624, 0.108, 1
10775, -0.653, -7.654, -0.535, 0.348, -0.26, 0.132, 1
10795, -0.555, -8.068, -0.294, 0.389, 0.017, 0.098, 1
10815, -0.001, -8.362, 0.126, 0.144, -0.028, 0.006, 1
10835, 0.39, -8.348, 0.123, -0.254, -0.298, 0.011, 1
10855, -0.182, -7.772, -0.311, -0.312, -0.244, 0.072, 1
10875, -0.724, -7.304, -0.722, 0.054, 0.185, 0.089, 1
10895, -0.679, -7.686, -0.466, 0.392, 0.64, -0.02, 1
10915, -0.085, -7.936, 0.1, 0.467, 0.82, 0.002, 1
10935, 0.015, -8.168, 0.45, 0.372, 0.871, 0.059, 1
10955, -0.356, -7.944, 0.408, 0.324, 0.98, 0.058, 1
10975, -1.457, -7.053, 0.189, 0.516, 1.506, 0.003, 1
10995, -2.137, -5.735, 0.182, 0.901, 2.396, -0.132, 1
11015, -2.801, -4.43, 0.755, 1.221, 3.641, -0.236, 1
11035, -2.455, -3.468, 1.902, 1.183, 4.638, -0.389, 1
11055, -2.439, -2.111, 2.516, 1.219, 5.47, -0.536, 1
11075, -2.898, -0.585, 1.941, 1.539, 6.52, -0.633, 1
11095, -2.744, -0.526, 2.754, 1.729, 7.552, -0.674, 1
11115, -0.667, -0.875, 3.48, 1.387, 7.191, -0.733, 1
11135, 0.668, -0.714, 2.696, 0.893, 5.884, -0.687, 1
11155, -0.225, -0.258, 1.34, 0.749, 5.145, -0.651, 1
11175, -0.96, 0.082, 0.497, 0.854, 5.094, -0.467, 1
11195, -0.062, -0.68, 1.111, 0.679, 4.743, -0.413, 1
11215, 1.52, -1.107, 1.373, 0.327, 3.596, -0.361, 1
11235, 1.682, -0.84, 0.99, 0.089, 2.241, -0.283, 1
11255, 1.129, -0.752, 0.352, -0.118, 1.501, -0.202, 1
11275, 0.182, -0.409, 0.066, -0.129, 1.304, -0.146, 1
11295, -0.158, -0.209, 0.097, -0.125, 1.219, -0.018, 1
11315, -0.239, 0.151, 0.527, -0.327, 1.046, -0.012, 1
11335, -0.394, 0.497, 0.211, -0.427, 0.621, -0.051, 1
11355, -0.688, 0.564, -0.029, -0.289, 0.228, -0.127, 1
11375, -0.79, 0.174, 0.007, -0.048, 0.202, -0.091, 1
11395, -0.325, -0.448, 0.608, -0.032, 0.487, -0.119, 1
11415, 0.341, -0.43, 0.926, -0.303, 0.627, -0.125, 1
11435, 0.144, 0.072, 0.421, -0.516, 0.46, -0.045, 1
11455, -0.234, 0.288, -0.082, -0.477, 0.379, 0.003, 1
11475, -0.028, -0.128, -0.048, -0.375, 0.319, 0.023, 1
11495, 0.198, -0.139, -0.063, -0.554, 0.171, -0.001, 1
11515, -0.087, -0.067, -0.047, -0.602, -0.002, 0.01, 1
11535, -0.342, -0.258, -0.432, -0.421, 0.087, 0.046, 1
11555, 0.052, -0.024, -0.311, -0.092, 0.245, 0.11, 1
11575, 0.122, -0.101, -0.307, 0.18, 0.242, 0.248, 1
11595, -0.064, -0.239, 0.037, 0.218, 0.189, 0.288, 1
11615, 0.016, -0.118, -0.089, 0.113, 0.063, 0.222, 1
11635, -0.276, 0.105, -0.346, -0.011, -0.097, 0.178, 1
11655, -0.867, 0.263, -0.495, -0.161, -0.06, 0.234, 1
11675, -0.824, 0.365, -0.673, -0.18, 0.232, 0.218, 1
11695, -0.345, 0.285, -0.693, -0.147, 0.356, 0.147, 1
11715, -0.059, 0.06, -0.665, -0.05, 0.111, 0.065, 1
11735, -0.238, -0.104, -0.265, -0.042, -0.085, 0.073, 1
11755, -0.176, -0.286, -0.031, -0.194, 0.043, 0.145, 1
11775, -0.028, -0.098, -0.157, -0.228, 0.119, 0.149, 1
11795, -0.079, 0.058, -0.287, -0.173, 0.141, 0.095, 1
11815, 0.005, -0.063, -0.157, -0.176, 0.057, 0.097, 1
11835, -0.132, 0.067, -0.397, -0.11, 0.045, 0.07, 1
11855, -0.079, 0.058, -0.36, 0.017, 0.065, 0.035, 1
11875, -0.03, -0.135, -0.268, 0.001, 0.126, 0.026, 1
11895, -0.035, 0.007, -0.374, 0.062, 0.1, 0.066, 1
11915, -0.165, 0.011, -0.345, 0.113, 0.123, 0.004, 1
11935, -0.076, -0.068, -0.168, 0.086, 0.102, -0.04, 1
11955, 0.036, -0.022, -0.174, 0.087, 0.037, -0.031, 1
11975, -0.01, 0.012, -0.164, 0.073, 0.015, 0.015, 1
11995, -0.282, 0.163, -0.216, 0.187, 0.042, 0.007, 1
12015, -0.184, -0.115, -0.108, 0.197, 0.159, -0.072, 1
12035, 0.228, -0.294, 0.138, 0.08, 0.102, 0.024, 1
12055, 0.043, -0.252, 0.158, -0.062, 0.062, 0.086, 1
12075, -0.037, -0.022, 0.01, -0.116, 0.045, 0.131, 1
12095, -0.054, -0.022, 0.097, -0.124, 0.036, 0.16, 1
12115, -0.078, -0.274, 0.145, -0.202, 0.077, 0.143, 1
12135, -0.045, -0.06, 0.291, -0.271, 0.087, 0.128, 1
12155, -0.045, 0.149, -0.05, -0.148, 0.095, 0.132, 1
12175, -0.011, 0.034, -0.058, -0.035, 0.145, 0.143, 1
12195, -0.001, -0.212, 0.168, -0.076, 0.152, 0.088, 1
12215, 0.125, -0.012, 0.201, -0.008, 0.061, 0.053, 1
12235, 0.118, -0.094, 0.203, -0.058, 0.08, 0.139, 1
12255, -0.119, -0.075, 0.447, -0.114, 0.167, 0.166, 1
12275, -0.059, -0.142, 0.457, -0.121, 0.154, 0.209, 1
12295, -0.007, -0.099, 0.242, -0.139, 0.103, 0.186, 1
12315, -0.267, -0.02, 0.103, -0.131, 0.061, 0.147, 1
12335, -0.082, -0.021, 0.023, -0.13, 0.115, 0.126, 1
12355, -0.084, -0.142, 0.072, -0.175, 0.131, 0.13, 1
12375, -0.011, -0.103, 0.005, -0.228, 0.169, 0.147, 1
12395, 0.051, -0.054, -0.168, -0.226, 0.15, 0.111, 1
12415, 0.008, -0.007, -0.295, -0.16, 0.131, 0.098, 1
12435, -0.059, -0.082, -0.02, -0.121, 0.172, 0.107, 1
12455, 0.039, -0.046, 0.0, -0.142, 0.183, 0.101, 1
12475, 0.07, -0.042, 0.048, -0.197, 0.107, 0.121, 1
12495, -0.063, 0.071, 0.057, -0.251, -0.003, 0.169, 1
12515, -0.556, 0.328, 0.134, -0.216, -0.007, 0.185, 1
12535, -0.273, -0.015, 0.555, -0.08, 0.083, 0.128, 1
12555, -0.045, -0.102, 0.624, -0.135, 0.017, 0.104, 1
12575, 0.031, -0.008, 0.503, -0.248, -0.014, 0.109, 1
12595, -0.073, 0.109, 0.38, -0.301, -0.02, 0.131, 1
12615, -0.271, -0.152, 0.407, -0.246, 0.02, 0.119, 1
12635, 0.197, -0.353, 0.497, -0.197, -0.005, 0.02, 1
12655, 0.051, -0.295, 0.332, -0.224, -0.103, 0.042, 1
12675, -0.046, -0.384, 0.431, -0.237, 0.007, 0.07, 1
12695, -0.026, -0.318, 0.412, -0.284, 0.109, 0.086, 1
12715, 0.3, -0.522, 0.079, -0.317, 0.103, 0.095, 1
12735, 0.376, -0.351, -0.537, -0.233, 0.012, 0.102, 1
12755, 0.087, -0.276, -0.801, -0.271, 0.03, 0.15, 1
12775, -0.197, -0.214, -0.998, -0.251, -0.025, -0.007, 1
12795, 0.213, -0.121, -0.998, -0.215, -0.116, 0.023, 1
12815, -0.021, -0.087, -1.124, -0.122, -0.126, 0.072, 1
12835, -0.342, -0.037, -1.193, 0.015, -0.042, 0.069, 1
12855, -0.368, 0.11, -1.292, 0.067, 0.059, 0.081, 1
12875, -0.184, -0.027, -1.155, -0.034, 0.081, 0.119, 1
12895, -0.037, 0.004, -0.942, -0.166, -0.043, 0.152, 1
12915, -0.225, 0.004, -0.879, -0.291, -0.172, 0.168, 1
12935, -0.349, -0.025, -0.936, -0.335, -0.139, 0.243, 1
12955, -0.423, -0.104, -0.962, -0.324, -0.007, 0.248, 1
12975, -0.399, -0.003, -0.869, -0.231, 0.159, 0.182, 1
12995, -0.17, -0.08, -0.448, -0.197, 0.252, 0.125, 1
13015, 0.231, -0.247, -0.149, -0.274, 0.145, 0.047, 1
13035, 0.213, -0.223, -0.029, -0.262, -0.006, 0.032, 1
13055, 0.108, -0.042, -0.35, -0.128, -0.042, 0.012, 1
13075, -0.098, 0.182, -0.404, -0.001, 0.089, 0.041, 1
13095, -0.3, 0.402, -0.407, 0.106, 0.243, 0.045, 1
13115, -0.042, 0.011, 0.062, 0.034, 0.175, 0.036, 1
13135, 0.083, -0.192, 0.204, -0.072, -0.031, -0.031, 1
13155, 0.187, -0.079, 0.078, -0.099, -0.165, -0.065, 1
13175, 0.192, 0.053, -0.05, -0.083, -0.125, 0.004, 1
13195, 0.134, 0.175, 0.025, 0.02, 0.046, 0.103, 1
13215, 0.294, -0.035, 0.556, 0.03, -0.006, 0.082, 1
13235, 0.417, -0.189, 0.538, -0.065, -0.147, 0.067, 1
13255, 0.159, 0.142, 0.16, -0.058, -0.133, 0.053, 1
13275, 0.265, -0.07, 0.213, 0.116, 0.032, 0.125, 1
13295, 0.556, -0.687, 0.631, 0.102, 0.049, 0.147, 1
13315, 0.312, -0.81, 0.595, -0.098, -0.115, 0.173, 1
13335, 0.195, -0.824, 0.265, -0.161, -0.195, 0.149, 1
13355, -0.017, -0.666, -0.123, -0.088, -0.191, 0.113, 1
13375, -0.071, -0.873, -0.305, 0.046, 0.001, 0.141, 1
13395, 0.304, -1.12, -0.39, 0.053, 0.114, 0.169, 1
13415, 0.268, -0.973, -0.574, -0.136, 0.064, 0.253, 1
13435, -0.424, -0.424, -1.074, -0.233, 0.05, 0.342, 1
13455, -0.583, -0.296, -1.172, -0.094, 0.142, 0.362, 1
13475, -0.418, -0.275, -0.906, -0.029, 0.117, 0.297, 1
13495, -0.368, -0.214, -0.729, -0.042, 0.017, 0.279, 1
13515, -0.79, 0.001, -0.622, -0.047, 0.043, 0.268, 1
13535, -0.737, 0.108, -0.447, 0.006, 0.17, 0.232, 1
13555, -0.476, 0.084, -0.3, 0.042, 0.202, 0.188, 1
13575, -0.308, 0.113, -0.243, 0.0, 0.153, 0.177, 1
13595, -0.318, 0.148, -0.119, 0.004, 0.052, 0.141, 1
13615, -0.367, 0.128, -0.015, -0.01, 0.016, 0.122, 1
13635, -0.154, 0.307, -0.028, -0.023, 0.023, 0.108, 1
13655, -0.047, 0.043, 0.054, -0.045, -0.028, 0.103, 1
13675, -0.19, -0.058, 0.254, -0.14, -0.096, 0.072, 1
13695, -0.196, -0.065, 0.111, -0.102, 0.002, 0.075, 1
13715, 0.058, -0.224, 0.213, -0.156, 0.038, 0.064, 1
13735, 0.039, 0.154, -0.094, -0.055, -0.042, 0.015, 1
13755, -0.068, -0.108, -0.094, -0.03, -0.059, 0.042, 0
13775, 0.055, -0.19, -0.256, -0.06, 0.02, 0.019, 0
13795, 0.156, -0.066, -0.408, -0.049, -0.004, 0.025, 0
13815, 0.207, 0.236, -0.741, 0.175, -0.163, -0.002, 0
13835, 0.045, 0.311, -0.994, 0.516, -0.169, -0.006, 0
13855, 0.112, -0.261, -0.527, 0.414, -0.028, -0.045, 0
13875, 0.131, 0.088, -0.424, 0.285, 0.002, 0.011, 0
13895, 0.021, 0.261, -0.649, 0.291, 0.076, 0.118, 0
13915, -0.19, 0.057, -0.61, 0.185, 0.229, 0.102, 0
13935, 0.084, 0.234, -0.792, 0.224, 0.279, 0.083, 0
13955, 0.165, 0.044, -0.504, 0.104, 0.214, 0.114, 0
13975, 0.02, 0.355, -0.612, 0.075, 0.158, 0.091, 0
13995, -0.349, 0.723, -0.839, 0.145, 0.241, 0.123, 0
14015, -0.106, 0.592, -0.408, 0.231, 0.244, 0.108, 0
14035, 0.087, 0.321, 0.033, 0.281, 0.072, 0.062, 0
14055, -0.293, -0.104, 0.417, 0.169, 0.089, 0.065, 0
14075, -0.322, -0.061, 0.554, 0.088, 0.225, 0.056, 0
14095, 0.259, 0.144, 0.683, 0.124, 0.092, 0.058, 0
14115, -0.019, 0.24, 0.682, 0.219, 0.008, -0.01, 0
14135, 0.11, 0.028, 1.134, 0.22, 0.014, -0.022, 0
14155, -0.022, -0.456, 1.558, 0.085, 0.124, 0.048, 0
14175, 0.215, -0.435, 1.627, 0.01, 0.133, 0.085, 0
14195, 0.382, -1.301, 2.343, -0.243, 0.021, 0.163, 0
14215, 0.177, -0.932, 2.215, -0.411, -0.043, 0.166, 0
14235, -0.274, -0.94, 2.402, -0.426, 0.105, 0.202, 0
14255, 0.059, -1.323, 2.96, -0.601, 0.246, 0.197, 0
14275, -0.183, -1.332, 2.948, -0.948, 0.123, 0.244, 0
14295, -0.705, -1.205, 2.012, -1.035, 0.071, 0.334, 0
14315, -0.281, -1.283, 1.448, -0.995, 0.115, 0.262, 0
14335, -0.055, -1.56, 1.372, -1.115, -0.003, 0.22, 0
14355, -0.473, -1.804, 1.026, -1.276, -0.069, 0.246, 0
14375, -0.579, -1.963, 0.54, -1.294, -0.055, 0.276, 0
14395, -0.108, -1.696, -0.134, -1.244, -0.191, 0.253, 0
14415, -0.629, -1.382, -0.555, -1.153, -0.196, 0.348, 0
14435, -1.081, -1.118, -0.549, -1.122, -0.148, 0.343, 0
14455, -2.012, -0.838, -1.023, -1.119, -0.226, 0.249, 0
14475, -1.696, -1.181, -1.19, -1.031, -0.196, 0.085, 0
14495, -1.532, -1.479, -1.231, -1.007, -0.204, -0.014, 0
14515, -1.422, -0.987, -1.929, -0.965, -0.089, -0.095, 0
14535, -1.181, -1.245, -2.116, -0.758, 0.085, -0.122, 0
14555, -0.591, -1.544, -1.819, -0.777, 0.142, -0.189, 0
14575, -0.17, -1.396, -1.955, -0.813, 0.138, -0.255, 0
14595, -0.098, -1.064, -2.147, -0.57, 0.209, -0.311, 0
14615, 0.452, -1.132, -1.862, -0.434, 0.332, -0.319, 0
14635, 0.571, -0.668, -2.05, -0.431, 0.276, -0.335, 0
14655, 0.16, -0.333, -2.212, -0.313, 0.257, -0.312, 0
14675, 0.722, -0.604, -1.837, -0.285, 0.285, -0.174, 0
14695, 0.416, -0.069, -2.099, -0.249, 0.332, -0.119, 0
14715, 0.459, -0.018, -2.102, -0.102, 0.335, -0.081, 0
14735, 0.486, 0.337, -2.287, -0.074, 0.266, -0.036, 0
14755, -0.332, 1.157, -2.855, -0.05, 0.372, -0.028, 0
14775, -0.427, 1.509, -3.096, 0.026, 0.326, -0.095, 0
14795, -0.186, 1.434, -3.291, 0.177, 0.131, -0.125, 0
14815, 0.075, 1.053, -3.181, 0.241, 0.018, -0.139, 0
14835, 0.286, 0.675, -2.699, 0.301, 0.017, -0.115, 0
14855, 0.348, 0.633, -2.416, 0.386, 0.14, -0.087, 0
14875, 0.524, 0.872, -2.325, 0.531, 0.138, 0.0, 0
14895, 0.16, 0.801, -2.091, 0.609, 0.109, 0.032, 0
14915, -0.045, 0.977, -1.941, 0.627, 0.043, 0.015, 0
14935, -0.076, 0.981, -1.875, 0.737, 0.009, 0.048, 0
14955, 0.141, 0.667, -1.475, 0.816, 0.04, 0.048, 0
14975, 0.095, 0.606, -1.241, 0.907, 0.152, 0.109, 0
14995, 0.17, 0.718, -0.684, 0.946, 0.197, 0.119, 0
15015, 0.112, 0.922, -0.344, 0.929, 0.106, 0.165, 0
15035, -0.17, 1.117, 0.004, 0.877, 0.085, 0.189, 0
15055, -0.032, 1.468, 0.098, 0.921, 0.023, 0.203, 0
15075, -0.352, 1.523, 0.322, 0.951, -0.005, 0.21, 0
15095, -0.572, 1.772, 0.496, 0.926, -0.031, 0.208, 0
15115, -0.461, 1.657, 0.727, 0.929, -0.086, 0.214, 0
15135, -0.662, 1.345, 1.221, 0.858, -0.035, 0.196, 0
15155, -0.591, 1.278, 1.476, 0.77, 0.022, 0.109, 0
15175, -0.43, 0.286, 2.309, 0.654, 0.01, 0.124, 0
15195, -0.714, -0.103, 2.34, 0.471, 0.031, 0.132, 0
15215, -0.674, 0.006, 2.001, 0.24, 0.13, 0.097, 0
15235, -0.828, -0.02, 1.515, 0.194, 0.126, 0.069, 0
15255, -0.836, -0.554, 1.395, 0.207, 0.12, 0.07, 0
15275, -0.385, -1.095, 1.461, 0.21, 0.113, 0.029, 0
15295, -0.218, -1.073, 1.289, 0.113, 0.109, 0.054, 0
15315, -0.091, -0.653, 0.978, -0.004, 0.079, 0.053, 0
15335, 0.107, -1.141, 0.686, -0.04, -0.062, 0.053, 0
15355, 0.064, -1.323, 0.473, -0.079, -0.145, 0.095, 0
15375, -0.234, -1.448, 0.484, -0.089, -0.018, 0.192, 0
15395, 0.298, -1.875, 0.818, -0.125, 0.008, 0.167, 0
15415, -0.059, -2.415, 0.937, -0.248, -0.163, 0.145, 0
15435, -0.042, -2.919, 0.977, -0.253, -0.182, 0.107, 0
15455, -0.138, -3.313, 1.184, -0.243, -0.147, 0.124, 0
15475, -0.488, -3.06, 0.841, -0.291, -0.054, 0.174, 0
15495, -0.124, -2.937, 0.448, -0.315, 0.108, 0.112, 0
15515, 0.276, -2.747, 0.243, -0.317, -0.078, 0.047, 0
15535, 0.034, -2.493, 0.272, -0.348, -0.12, 0.072, 0
15555, 0.314, -2.224, 0.37, -0.419, -0.034, 0.151, 0
15575, 0.042, -1.597, 0.037, -0.408, -0.067, 0.255, 0
15595, -0.179, -0.924, -0.138, -0.266, -0.032, 0.299, 0
15615, -0.267, -0.4, -0.314, -0.144, -0.062, 0.31, 0
15635, -0.532, 0.297, -0.854, 0.355, -0.23, 0.276, 1
15655, -0.881, 0.028, -0.975, 0.685, -0.119, 0.209, 1
15675, -0.843, -0.941, 0.177, 0.296, 0.112, 0.134, 1
15695, -0.211, -0.718, 0.233, -0.145, -0.05, 0.026, 1
15715, -0.364, -0.183, -0.318, -0.155, -0.152, -0.063, 1
15735, -0.201, -0.313, -0.174, -0.133, -0.093, -0.04, 1
15755, 0.0, -0.336, -0.069, -0.113, -0.029, -0.029, 1
15775, 0.047, -0.266, -0.092, -0.069, 0.022, 0.01, 1
15795, 0.023, -0.256, -0.093, -0.124, 0.134, 0.034, 1
15815, 0.376, -0.233, -0.375, -0.186, 0.091, 0.054, 1
15835, 0.238, -0.194, -0.58, -0.169, 0.01, 0.046, 1
15855, 0.184, -0.143, -0.53, -0.144, -0.063, 0.082, 1
15875, -0.274, 0.053, -0.578, -0.059, 0.003, 0.118, 1
15895, -0.241, -0.034, -0.393, -0.009, 0.071, 0.099, 1
15915, -0.06, -0.162, -0.064, -0.046, -0.028, 0.047, 1
15935, 0.063, -0.123, 0.079, -0.091, -0.103, 0.029, 1
15955, 0.0, -0.027, -0.068, -0.069, -0.064, 0.051, 1
15975, -0.163, 0.085, -0.047, -0.026, 0.056, 0.071, 1
15995, -0.015, -0.014, 0.118, -0.082, 0.05, 0.035, 1
16015, 0.054, -0.066, 0.117, -0.121, -0.056, 0.013, 1
16035, -0.05, -0.069, -0.051, -0.128, 0.015, 0.032, 1
16055, -0.007, -0.088, -0.1, -0.165, 0.144, 0.066, 1
16075, 0.156, -0.047, -0.32, -0.171, 0.1, 0.048, 1
16095, 0.146, -0.039, -0.444, -0.122, -0.007, 0.034, 1
16115, -0.033, -0.122, -0.359, -0.136, -0.004, 0.089, 1
16135, -0.243, -0.054, -0.418, -0.106, 0.06, 0.098, 1
16155, -0.081, 0.0, -0.298, -0.07, 0.053, 0.067, 1
16175, 0.01, -0.076, -0.232, -0.036, -0.009, 0.041, 1
16195, 0.108, -0.208, -0.109, -0.012, -0.031, 0.037, 1
16215, 0.02, -0.107, -0.084, -0.029, -0.017, 0.062, 1
16235, -0.015, -0.01, -0.043, -0.051, 0.048, 0.072, 1
16255, -0.02, -0.016, 0.016, -0.087, 0.062, 0.059, 1
16275, -0.004, -0.024, 0.035, -0.093, 0.023, 0.057, 1
16295, 0.03, -0.083, 0.1, -0.076, -0.025, 0.042, 1
16315, -0.129, 0.058, -0.062, -0.157, 0.007, 0.076, 1
16335, -0.06, 0.02, -0.223, -0.16, 0.094, 0.086, 1
16355, -0.055, -0.08, -0.176, -0.116, 0.072, 0.095, 1
16375, -0.001, -0.082, -0.08, -0.116, 0.03, 0.076, 1
16395, -0.015, -0.065, -0.142, -0.109, -0.043, 0.064, 1
16415, 0.0, -0.047, -0.268, -0.131, -0.026, 0.061, 1
16435, 0.085, -0.098, -0.218, -0.1, 0.021, 0.061, 1
16455, 0.115, -0.143, -0.103, -0.048, -0.005, 0.082, 1
16475, -0.023, -0.131, 0.038, -0.043, -0.042, 0.106, 1
16495, -0.14, -0.111, 0.042, -0.025, -0.04, 0.082, 1
16515, -0.165, -0.166, 0.076, -0.094, 0.018, 0.086, 1
16535, -0.079, -0.084, -0.101, -0.196, 0.054, 0.084, 1
16555, -0.038, -0.356, -0.234, -0.128, -0.021, 0.021, 1
16575, -0.257, -0.785, -0.183, -0.067, -0.1, -0.012, 1
16595, -0.152, -0.893, -0.132, -0.038, 0.073, 0.02, 1
16615, 0.35, -0.985, 0.109, -0.085, 0.191, 0.038, 1
16635, 0.13, -0.492, -0.149, -0.113, 0.143, 0.046, 1
16655, -0.201, -0.114, -0.424, -0.116, 0.202, 0.031, 1
16675, 0.078, -0.031, -0.318, -0.133, 0.147, 0.026, 1
16695, 0.156, 0.133, -0.258, -0.135, 0.051, 0.002, 1
16715, 0.03, 0.389, -0.237, -0.112, 0.058, 0.049, 1
16735, -0.165, 0.624, -0.288, -0.065, 0.137, 0.086, 1
16755, -0.008, 0.379, -0.241, -0.01, 0.087, 0.029, 1
16775, 0.153, 0.396, -0.166, -0.05, -0.006, 0.024, 1
16795, 0.072, 0.514, -0.268, -0.009, -0.041, -0.01, 1
16815, -0.297, 0.657, -0.254, 0.001, 0.089, 0.061, 1
16835, -0.278, 0.692, -0.279, 0.001, 0.139, 0.038, 1
16855, -0.137, 0.173, -0.13, -0.034, -0.003, -0.028, 1
16875, -0.035, -0.051, -0.003, -0.186, -0.052, -0.017, 1
16895, -0.138, 0.323, -0.441, -0.069, 0.047, -0.022, 1
16915, 0.115, 0.053, -0.311, 0.014, 0.072, -0.04, 1
16935, 0.276, -0.066, -0.124, 0.0, -0.043, -0.054, 1
16955, 0.159, -0.152, -0.057, -0.005, -0.07, -0.016, 1
16975, -0.023, -0.229, -0.021, -0.026, -0.023, 0.014, 1
16995, 0.072, -0.155, -0.082, -0.015, -0.038, 0.026, 1
17015, 0.051, -0.222, -0.056, -0.064, -0.064, 0.051, 1
17035, -0.023, -0.19, 0.008, -0.112, -0.041, 0.091, 1
17055, -0.05, -0.169, 0.015, -0.136, -0.023, 0.072, 1
17075, 0.022, -0.026, -0.219, -0.045, -0.068, 0.059, 1
17095, -0.002, -0.406, -0.005, -0.285, -0.009, 0.097, 1
17115, 0.075, 0.281, -0.458, -0.309, -0.105, 0.087, 0
17135, -0.36, 0.367, -0.849, -0.023, -0.251, 0.125, 0
17155, -0.254, 0.077, -0.5, 0.177, -0.116, 0.113, 0
17175, 0.01, -0.075, -0.368, 0.181, -0.048, 0.117, 0
17195, 0.012, 0.064, -0.75, 0.205, -0.091, 0.142, 0
17215, -0.019, -0.002, -0.656, 0.224, -0.042, 0.136, 0
17235, -0.001, -0.019, -0.569, 0.134, -0.02, 0.081, 0
17255, 0.016, 0.095, -0.652, -0.025, 0.051, 0.127, 0
17275, -0.027, 0.532, -0.92, -0.119, 0.124, 0.217, 0
17295, -0.516, 0.889, -0.965, -0.067, 0.173, 0.172, 0
17315, -0.716, 0.505, -0.61, -0.002, 0.183, 0.111, 0
17335, -0.425, 0.333, -0.511, -0.04, 0.205, 0.092, 0
17355, -0.138, 0.057, -0.304, -0.001, 0.169, 0.035, 0
17375, 0.159, 0.134, 0.189, -0.031, 0.133, -0.048, 0
17395, 0.04, 0.343, 0.192, 0.002, 0.094, 0.056, 0
17415, 0.126, 0.095, 0.615, 0.129, 0.141, 0.075, 0
17435, 0.001, -0.216, 0.966, 0.271, 0.04, -0.004, 0
17455, -0.243, -0.68, 1.58, 0.155, 0.028, -0.01, 0
17475, -0.063, -0.498, 1.656, -0.069, 0.131, -0.01, 0
17495, 0.07, -0.108, 1.546, -0.112, 0.076, 0.006, 0
17515, -0.078, -0.32, 1.75, -0.12, 0.092, 0.053, 0
17535, 0.009, -1.14, 2.101, -0.224, 0.105, 0.087, 0
17555, -0.331, -1.464, 2.416, -0.481, 0.125, 0.139, 0
17575, -0.738, -1.023, 2.273, -0.724, 0.163, 0.185, 0
17595, -0.526, -0.965, 2.06, -0.745, 0.025, 0.064, 0
17615, -0.182, -0.806, 2.082, -0.77, -0.087, 0.023, 0
17635, -0.398, -1.21, 2.212, -0.872, -0.002, 0.048, 0
17655, -0.365, -1.719, 2.459, -1.125, 0.076, 0.111, 0
17675, -0.526, -1.802, 2.047, -1.332, 0.051, 0.153, 0
17695, -0.514, -1.588, 1.286, -1.373, -0.053, 0.079, 0
17715, -0.581, -1.639, 0.679, -1.269, -0.146, -0.01, 0
17735, -0.688, -2.218, 0.636, -1.322, -0.113, -0.004, 0
17755, -0.734, -2.378, 0.276, -1.391, -0.028, -0.01, 0
17775, -0.818, -2.024, -0.394, -1.463, -0.001, -0.066, 0
17795, -1.074, -1.216, -1.648, -1.342, -0.011, -0.139, 0
17815, -1.008, -1.012, -2.526, -1.138, -0.009, -0.226, 0
17835, -0.599, -1.294, -2.743, -0.99, -0.021, -0.285, 0
17855, 0.017, -1.495, -2.854, -0.792, -0.078, -0.306, 0
17875, 0.201, -1.297, -2.968, -0.598, 0.021, -0.259, 0
17895, 0.398, -1.142, -2.984, -0.35, 0.05, -0.223, 0
17915, 0.351, -1.206, -2.712, -0.218, 0.055, -0.207, 0
17935, 0.598, -1.399, -2.477, -0.113, -0.018, -0.235, 0
17955, 0.212, -0.628, -2.845, 0.053, 0.024, -0.166, 0
17975, -0.209, -0.066, -3.068, 0.326, 0.188, -0.16, 0
17995, 0.592, -0.573, -2.438, 0.436, 0.067, -0.24, 0
18015, 0.317, 0.025, -2.567, 0.436, -0.052, -0.246, 0
18035, 0.325, 0.416, -2.651, 0.594, -0.013, -0.136, 0
18055, -0.048, 0.734, -2.586, 0.612, 0.145, -0.014, 0
18075, 0.479, 0.352, -1.949, 0.505, -0.036, 0.025, 0
18095, 0.647, 0.727, -1.99, 0.674, 0.0, 0.079, 0
18115, 0.749, 1.195, -2.052, 0.734, 0.107, 0.136, 0
18135, 0.609, 1.219, -1.695, 0.656, 0.126, 0.254, 0
18155, 0.333, 1.512, -1.516, 0.624, 0.135, 0.292, 0
18175, 0.171, 1.715, -1.484, 0.678, 0.117, 0.265, 0
18195, -0.549, 2.379, -1.854, 0.659, 0.202, 0.313, 0
18215, -0.502, 2.038, -1.391, 0.693, 0.251, 0.295, 0
18235, -0.262, 1.838, -0.919, 0.666, 0.173, 0.265, 0
18255, -0.258, 1.776, -0.662, 0.719, 0.085, 0.244, 0
18275, -0.348, 1.798, -0.258, 0.747, 0.085, 0.235, 0
18295, -0.315, 1.742, 0.075, 0.7, 0.145, 0.247, 0
18315, -0.273, 1.739, 0.32, 0.668, 0.096, 0.228, 0
18335, -0.313, 1.818, 0.615, 0.639, 0.022, 0.198, 0
18355, -0.415, 2.02, 0.753, 0.613, 0.0, 0.198, 0
18375, -0.628, 1.861, 1.145, 0.559, 0.013, 0.197, 0
18395, -0.707, 1.344, 1.567, 0.509, -0.004, 0.132, 0
18415, -0.632, 1.026, 1.735, 0.362, -0.012, 0.083, 0
18435, -0.67, 0.761, 1.607, 0.289, 0.019, 0.073, 0
18455, -0.918, 0.45, 1.627, 0.314, 0.082, 0.046, 0
18475, -0.925, 0.116, 1.548, 0.172, 0.136, -0.037, 0
18495, -0.308, 0.227, 1.027, 0.113, -0.015, -0.183, 0
18515, -0.327, -0.164, 1.024, 0.104, -0.112, -0.168, 0
18535, -0.074, -0.731, 1.121, -0.035, 0.01, -0.063, 0
18555, -0.056, -1.245, 1.208, -0.27, 0.078, 0.058, 0
18575, -0.201, -1.027, 0.972, -0.279, 0.071, 0.034, 0
18595, 0.244, -1.4, 1.089, -0.194, -0.031, -0.041, 0
18615, 0.662, -2.473, 1.363, -0.292, -0.076, 0.002, 0
18635, 0.702, -3.222, 0.911, -0.329, -0.03, 0.091, 0
18655, 0.786, -2.903, 0.322, -0.24, -0.016, 0.158, 0
18675, 0.42, -2.774, 0.173, -0.123, -0.034, 0.239, 0
18695, 0.114, -2.82, 0.218, -0.008, -0.086, 0.275, 0
18715, -0.098, -2.777, 0.073, 0.138, -0.133, 0.28, 0
18735, 0.071, -2.336, 0.011, 0.421, -0.249, 0.285, 1
18755, -0.155, -2.284, 0.358, 0.441, -0.233, 0.307, 1
18775, -0.5, -2.512, 0.74, 0.079, -0.034, 0.317, 1
18795, -0.522, -1.671, 0.441, -0.172, 0.058, 0.293, 1
18815, -0.409, -1.246, 0.212, -0.249, 0.025, 0.24, 1
18835, -0.584, -0.662, 0.062, -0.252, -0.008, 0.213, 1
18855, -0.672, -0.347, -0.077, -0.202, 0.029, 0.163, 1
18875, -0.567, -0.2, -0.109, -0.192, 0.016, 0.149, 1
18895, -0.591, -0.217, -0.27, -0.137, 0.019, 0.121, 1
18915, -0.451, -0.355, -0.207, -0.179, 0.015, 0.07, 1
18935, -0.146, -0.199, -0.391, -0.144, -0.044, 0.019, 1
18955, 0.0, -0.199, -0.397, -0.115, -0.071, 0.003, 1
18975, 0.04, -0.191, -0.274, -0.108, -0.051, -0.003, 1
18995, 0.192, -0.36, -0.05, -0.152, -0.032, -0.004, 1
19015, 0.237, -0.269, -0.118, -0.15, -0.02, 0.0, 1
19035, 0.179, -0.128, -0.24, -0.106, 0.046, 0.021, 1
19055, 0.128, -0.113, -0.248, -0.074, 0.032, 0.034, 1
19075, 0.1, -0.165, -0.142, -0.094, -0.001, 0.04, 1
19095, 0.118, -0.174, -0.095, -0.124, 0.004, 0.043, 1
19115, 0.042, -0.067, -0.008, -0.126, -0.022, 0.047, 1
19135, -0.095, 0.032, -0.062, -0.107, -0.045, 0.048, 1
19155, -0.044, -0.027, -0.004, -0.106, 0.025, 0.071, 1
19175, 0.02, -0.032, -0.055, -0.144, 0.075, 0.095, 1
19195, -0.02, -0.013, -0.096, -0.142, 0.036, 0.095, 1
19215, -0.102, -0.018, -0.154, -0.1, 0.011, 0.081, 1
19235, -0.09, -0.044, -0.127, -0.088, 0.034, 0.078, 1
19255, -0.056, -0.045, -0.097, -0.164, 0.092, 0.108, 1
19275, -0.091, -0.022, -0.249, -0.157, 0.066, 0.094, 1
19295, -0.067, -0.099, -0.207, -0.109, 0.003, 0.064, 1
19315, -0.028, -0.061, -0.18, -0.138, -0.007, 0.047, 1
19335, 0.045, -0.093, -0.225, -0.131, 0.04, 0.065, 1
19355, 0.082, -0.254, -0.179, -0.112, 0.04, 0.075, 1
19375, 0.124, -0.263, -0.249, -0.112, 0.019, 0.06, 1
19395, 0.056, -0.104, -0.344, -0.125, 0.003, 0.067, 1
19415, 0.005, -0.093, -0.24, -0.072, 0.025, 0.076, 1
19435, -0.053, -0.109, -0.16, -0.049, 0.017, 0.073, 1
19455, -0.065, -0.225, -0.092, -0.018, 0.009, 0.034, 1
19475, -0.117, -0.113, -0.108, -0.109, 0.064, 0.043, 1
19495, -0.082, 0.009, -0.33, -0.172, 0.14, 0.064, 1
19515, -0.084, -0.097, -0.305, -0.109, 0.106, 0.045, 1
19535, -0.056, -0.163, -0.285, -0.055, 0.032, -0.011, 1
19555, -0.031, -0.103, -0.309, -0.087, 0.073, 0.023, 1
19575, -0.044, -0.044, -0.319, -0.084, 0.136, 0.058, 1
19595, -0.002, -0.053, -0.152, -0.053, 0.111, 0.047, 1
19615, 0.017, -0.027, -0.086, 0.014, -0.004, -0.01, 1
19635, 0.11, -0.184, 0.118, 0.047, -0.043, 0.001, 1
19655, 0.2, -0.419, 0.363, -0.019, -0.045, 0.042, 1
19675, 0.022, -0.235, 0.346, -0.15, 0.043, 0.087, 1
19695, -0.164, 0.24, 0.007, -0.142, 0.144, 0.093, 1
19715, -0.041, 0.177, -0.038, -0.067, 0.075, 0.052, 1
19735, -0.016, -0.039, 0.109, -0.041, -0.026, 0.028, 1
19755, 0.121, -0.273, 0.24, -0.111, -0.035, 0.051, 1
19775, 0.002, -0.098, 0.058, -0.152, 0.064, 0.078, 1
19795, 0.094, 0.035, -0.046, -0.134, 0.056, 0.065, 1
19815, -0.033, 0.407, -0.229, -0.073, 0.031, 0.059, 1
19835, -0.08, 0.145, -0.218, -0.092, 0.021, 0.102, 1
19855, -0.121, 0.006, -0.28, -0.118, 0.017, 0.1, 1
19875, -0.065, 0.025, -0.289, -0.201, 0.017, 0.089, 1
19895, -0.028, 0.217, -0.472, -0.189, 0.026, 0.133, 1
19915, -0.037, 0.231, -0.551, -0.098, -0.021, 0.108, 1
19935, -0.138, 0.531, -0.644, 0.016, -0.141, 0.076, 0
19955, -0.185, 0.347, -0.524, 0.024, -0.138, 0.106, 0
19975, -0.037, -0.038, -0.772, 0.081, -0.108, 0.075, 0
19995, -0.066, 0.141, -0.604, 0.172, -0.102, 0.053, 0
20015, 0.048, 0.298, -0.792, 0.408, -0.138, 0.01, 0
20035, 0.055, 0.16, -0.681, 0.257, -0.014, 0.075, 0
20055, 0.0, -0.028, -0.743, 0.255, -0.007, 0.11, 0
20075, -0.049, -0.025, -0.566, 0.099, 0.054, 0.152, 0
20095, -0.196, 0.187, -0.729, 0.033, 0.092, 0.147, 0
20115, -0.296, 0.178, -0.637, -0.004, 0.186, 0.164, 0
20135, -0.084, 0.211, -0.444, 0.004, 0.2, 0.112, 0
20155, -0.035, 0.243, -0.253, 0.089, 0.065, 0.051, 0
20175, 0.05, 0.193, 0.142, 0.181, 0.043, 0.027, 0
20195, -0.103, -0.022, 0.734, 0.161, 0.12, 0.024, 0
20215, -0.228, -0.301, 1.091, 0.047, 0.209, 0.065, 0
20235, -0.315, -0.08, 1.284, -0.042, 0.205, 0.045, 0
20255, -0.491, -0.171, 1.603, -0.047, 0.151, 0.023, 0
20275, -0.097, -0.505, 1.863, -0.084, 0.15, -0.032, 0
20295, 0.194, -0.436, 1.727, -0.238, 0.176, -0.018, 0
20315, 0.445, -0.6, 1.711, -0.338, 0.176, -0.042, 0
20335, 0.387, -1.119, 1.763, -0.425, 0.145, 0.05, 0
20355, 0.011, -1.768, 2.091, -0.484, 0.24, 0.174, 0
20375, -0.88, -1.527, 2.47, -0.643, 0.308, 0.225, 0
20395, -0.914, -1.651, 2.624, -0.805, 0.222, 0.12, 0
20415, -0.765, -1.653, 2.306, -0.897, -0.028, -0.022, 0
20435, -0.625, -2.032, 2.223, -0.993, -0.038, -0.055, 0
20455, -0.353, -2.295, 2.357, -1.316, 0.09, -0.036, 0
20475, -0.544, -2.416, 1.585, -1.485, -0.017, -0.015, 0
20495, -0.254, -2.74, 0.63, -1.488, -0.129, -0.112, 0
20515, 0.068, -2.904, 0.338, -1.485, -0.145, -0.16, 0
20535, -0.041, -2.757, 0.15, -1.45, -0.075, -0.119, 0
20555, -0.069, -2.719, -0.355, -1.41, -0.135, -0.144, 0
20575, -0.242, -2.178, -1.295, -1.253, -0.213, -0.203, 0
20595, -0.524, -1.991, -1.881, -1.104, -0.111, -0.167, 0
20615, -0.089, -1.988, -1.895, -0.952, -0.098, -0.184, 0
20635, 0.484, -2.135, -1.835, -0.703, -0.15, -0.218, 0
20655, 0.825, -2.039, -1.631, -0.54, -0.025, -0.145, 0
20675, 0.984, -1.882, -1.524, -0.558, 0.152, -0.087, 0
20695, 1.566, -1.595, -1.725, -0.576, -0.042, -0.016, 0
20715, 1.099, -1.269, -1.778, -0.538, -0.087, 0.083, 0
20735, 0.437, -0.465, -2.22, -0.439, 0.097, 0.169, 0
20755, 0.622, -0.041, -2.511, -0.203, 0.085, 0.136, 0
20775, 0.589, -0.21, -2.124, -0.18, 0.073, 0.173, 0
20795, -0.016, 0.464, -2.459, -0.175, 0.167, 0.224, 0
20815, -0.632, 1.195, -3.232, 0.057, 0.328, 0.274, 0
20835, 0.118, 0.381, -2.721, 0.163, 0.207, 0.216, 0
20855, 0.643, -0.032, -2.298, 0.136, -0.141, 0.219, 0
20875, -0.487, 1.01, -3.032, 0.357, 0.004, 0.248, 0
20895, -1.074, 1.555, -3.211, 0.513, 0.434, 0.292, 0
20915, -0.154, 0.848, -2.571, 0.492, 0.259, 0.232, 0
20935, -0.357, 0.683, -2.434, 0.572, -0.006, 0.147, 0
20955, -0.123, 0.43, -1.913, 0.607, -0.056, 0.103, 0
20975, -0.377, 1.34, -1.965, 0.671, 0.141, 0.243, 0
20995, -1.058, 1.95, -1.599, 0.848, 0.352, 0.183, 0
21015, -0.197, 0.869, -0.992, 0.828, 0.061, 0.11, 0
21035, -0.388, 1.07, -0.818, 0.791, -0.015, 0.05, 0
21055, -0.207, 1.364, -0.634, 0.794, 0.129, 0.094, 0
21075, -0.026, 1.204, -0.422, 0.781, 0.116, 0.106, 0
21095, -0.265, 1.261, -0.455, 0.831, 0.051, 0.094, 0
21115, -0.193, 1.342, -0.361, 0.855, 0.04, 0.062, 0
21135, -0.088, 1.224, -0.042, 0.846, -0.007, 0.039, 0
21155, 0.031, 1.002, 0.402, 0.868, -0.069, 0.017, 0
21175, 0.181, 0.694, 1.023, 0.814, -0.065, 0.025, 0
21195, 0.248, 0.788, 1.212, 0.71, -0.02, 0.059, 0
21215, 0.079, 0.861, 1.145, 0.722, -0.021, 0.024, 0
21235, 0.035, 0.259, 1.479, 0.694, -0.012, 0.004, 0
21255, -0.063, 0.006, 1.538, 0.486, -0.026, 0.049, 0
21275, -0.362, -0.052, 1.3, 0.379, -0.048, 0.059, 0
21295, -0.076, -0.361, 1.424, 0.337, 0.035, 0.039, 0
21315, -0.05, -0.31, 1.292, 0.226, -0.043, 0.029, 0
21335, -0.281, -0.079, 1.051, 0.156, -0.017, 0.026, 0
21355, 0.0, -0.297, 1.193, 0.141, 0.005, -0.014, 0
21375, -0.025, -1.101, 1.725, 0.108, -0.085, -0.02, 0
21395, -0.343, -1.37, 1.857, -0.048, -0.019, 0.038, 0
21415, -0.001, -1.338, 1.609, -0.177, 0.07, 0.028, 0
21435, 0.379, -1.532, 1.293, -0.227, -0.025, -0.032, 0
21455, 0.406, -2.13, 1.234, -0.376, -0.097, 0.014, 0
21475, 0.328, -2.235, 0.931, -0.464, 0.009, 0.154, 0
21495, 0.352, -2.501, 0.854, -0.378, 0.086, 0.138, 0
21515, 0.758, -2.844, 1.051, -0.414, -0.055, 0.043, 0
21535, 0.358, -2.898, 0.668, -0.397, -0.197, 0.084, 0
21555, -0.048, -2.685, 0.313, -0.336, -0.052, 0.158, 0
21575, 0.056, -2.526, 0.323, -0.364, 0.026, 0.248, 0
21595, 0.118, -2.1, 0.243, -0.309, -0.072, 0.197, 0
21615, -0.109, -2.087, 0.239, -0.264, -0.144, 0.189, 0
21635, -0.299, -1.78, 0.236, -0.258, -0.045, 0.251, 0
21655, -0.492, -1.326, 0.046, -0.19, 0.094, 0.277, 0
21675, -0.279, -1.049, 0.151, -0.264, 0.036, 0.22, 0
21695, -0.41, -0.517, -0.076, -0.32, -0.045, 0.152, 0
21715, -0.426, -0.182, -0.443, -0.229, -0.124, 0.116, 0
21735, -0.254, -0.102, -0.608, -0.091, -0.189, 0.092, 0
21755, -0.268, 0.088, -0.891, 0.179, -0.144, 0.1, 1
21775, -0.117, -0.306, -0.827, 0.355, -0.009, 0.116, 1
21795, 0.134, -0.622, -0.238, 0.207, 0.063, 0.054, 1
21815, 0.375, -0.618, 0.223, -0.218, -0.026, 0.058, 1
21835, 0.087, -0.222, -0.147, -0.294, -0.035, 0.043, 1
21855, 0.017, -0.104, -0.425, -0.162, 0.025, 0.018, 1
21875, 0.177, -0.238, -0.326, -0.086, 0.043, 0.034, 1
21895, 0.145, -0.245, -0.289, -0.071, 0.018, 0.06, 1
21915, 0.058, -0.256, -0.146, -0.122, 0.019, 0.081, 1
21935, 0.014, -0.118, -0.265, -0.12, 0.019, 0.095, 1
21955, -0.004, -0.123, -0.25, -0.105, 0.029, 0.12, 1
21975, -0.205, 0.048, -0.219, -0.053, 0.029, 0.1, 1
21995, -0.181, 0.018, -0.162, -0.012, -0.003, 0.062, 1
22015, -0.07, 0.003, -0.122, -0.045, 0.014, 0.047, 1
22035, -0.011, -0.071, -0.069, -0.091, 0.01, 0.048, 1
22055, 0.039, -0.043, -0.091, -0.135, 0.052, 0.073, 1
22075, -0.024, -0.037, -0.131, -0.089, 0.02, 0.072, 1
22095, 0.016, -0.072, -0.088, -0.036, -0.026, 0.043, 1
22115, -0.062, -0.15, 0.038, -0.05, 0.006, 0.057, 1
22135, -0.011, -0.035, 0.02, -0.152, 0.065, 0.078, 1
22155, -0.151, 0.088, -0.195, -0.178, 0.062, 0.074, 1
22175, -0.037, -0.036, -0.231, -0.086, 0.032, 0.044, 1
22195, 0.046, -0.207, -0.117, -0.085, 0.042, 0.047, 1
22215, 0.118, -0.161, -0.134, -0.144, 0.048, 0.067, 1
22235, 0.012, -0.075, -0.152, -0.141, 0.04, 0.089, 1
22255, -0.042, -0.032, -0.314, -0.089, -0.001, 0.075, 1
22275, -0.09, -0.034, -0.269, -0.009, -0.01, 0.059, 1
22295, -0.051, -0.136, 0.024, -0.029, 0.026, 0.072, 1
22315, -0.054, -0.064, 0.018, -0.113, 0.02, 0.087, 1
22335, -0.013, -0.082, -0.066, -0.11, 0.008, 0.061, 1
22355, -0.039, -0.071, -0.064, -0.078, 0.005, 0.052, 1
22375, 0.019, -0.04, -0.021, -0.112, 0.065, 0.051, 1
22395, -0.007, -0.037, -0.128, -0.167, 0.048, 0.043, 1
22415, -0.033, -0.051, -0.303, -0.168, 0.061, 0.059, 1
22435, 0.099, -0.079, -0.257, -0.108, 0.075, 0.051, 1
22455, 0.0, -0.073, -0.194, -0.049, -0.015, 0.051, 1
22475, -0.035, -0.086, -0.104, -0.08, 0.014, 0.069, 1
22495, -0.117, -0.087, -0.089, -0.122, 0.051, 0.083, 1
22515, -0.042, -0.004, -0.19, -0.098, 0.014, 0.069, 1
22535, -0.026, -0.05, -0.148, -0.056, -0.018, 0.05, 1
22555, -0.094, -0.209, 0.058, -0.113, 0.015, 0.054, 1
22575, -0.015, -0.038, -0.011, -0.141, 0.031, 0.067, 1
22595, 0.02, 0.026, -0.145, -0.105, 0.02, 0.058, 1
22615, -0.017, -0.052, -0.157, -0.098, 0.021, 0.064, 1
22635, -0.016, -0.083, -0.066, -0.092, 0.02, 0.064, 1
22655, 0.023, -0.104, 0.005, -0.098, -0.032, 0.029, 1
22675, -0.02, -0.034, -0.038, -0.093, -0.032, 0.02, 1
22695, -0.041, -0.057, 0.064, -0.168, 0.067, 0.061, 1
22715, 0.007, 0.002, -0.087, -0.169, 0.062, 0.061, 1
22735, -0.015, 0.008, -0.232, -0.132, 0.025, 0.047, 1
22755, -0.025, -0.056, -0.322, -0.125, 0.02, 0.061, 1
22775, -0.04, -0.069, -0.395, -0.051, 0.009, 0.025, 1
22795, 0.027, -0.136, -0.263, -0.064, -0.018, 0.02, 1
22815, -0.017, -0.061, -0.366, -0.082, -0.001, 0.056, 1
22835, 0.001, -0.074, -0.316, -0.07, 0.0, 0.071, 1
22855, -0.034, -0.059, -0.273, -0.047, -0.023, 0.055, 1
22875, -0.025, -0.074, -0.212, -0.064, -0.01, 0.06, 1
22895, 0.002, -0.035, -0.101, -0.097, 0.006, 0.078, 1
22915, -0.026, -0.009, -0.182, -0.047, 0.02, 0.087, 1
22935, -0.064, -0.013, -0.219, -0.025, 0.085, 0.096, 1
22955, -0.039, -0.008, -0.172, -0.092, 0.065, 0.082, 1
22975, -0.193, 0.164, -0.313, -0.106, 0.015, 0.055, 1
22995, -0.224, 0.035, -0.293, -0.056, 0.067, 0.069, 1
23015, -0.045, -0.076, -0.17, -0.07, 0.091, 0.034, 1
23035, -0.041, -0.061, -0.121, -0.205, 0.059, 0.027, 1
23055, -0.121, 0.152, -0.452, -0.24, 0.061, 0.027, 1
23075, -0.1, 0.262, -0.667, -0.157, 0.07, 0.005, 1
23095, 0.095, 0.531, -0.766, -0.004, -0.004, -0.029, 0
23115, 0.11, 0.022, -0.629, 0.264, -0.115, 0.029, 0
23135, -0.031, -0.02, -0.259, 0.241, -0.062, 0.051, 0
23155, 0.16, 0.149, -0.274, 0.229, 0.03, 0.072, 0
23175, -0.09, -0.041, -0.112, 0.255, 0.026, 0.081, 0
23195, 0.272, 0.032, 0.038, 0.133, 0.076, 0.023, 0
23215, 0.037, 0.296, -0.041, 0.018, 0.001, 0.043, 0
23235, -0.141, 0.08, 0.294, -0.092, 0.101, 0.068, 0
23255, 0.366, 0.314, 0.564, -0.249, 0.125, 0.026, 0
23275, 0.398, 0.483, 0.636, -0.276, 0.008, 0.048, 0
23295, 0.111, 0.047, 1.096, -0.259, 0.064, 0.106, 0
23315, 0.309, -0.21, 1.356, -0.327, 0.161, 0.148, 0
23335, -0.2, -0.339, 1.62, -0.376, 0.09, 0.174, 0
23355, -0.415, -0.284, 1.789, -0.523, 0.093, 0.178, 0
23375, -0.682, -0.194, 1.605, -0.622, 0.058, 0.18, 0
23395, -0.305, -0.499, 1.743, -0.649, 0.094, 0.129, 0
23415, -0.04, -0.7, 2.08, -0.855, 0.053, 0.115, 0
23435, -0.088, -1.066, 2.407, -0.991, 0.04, 0.11, 0
23455, -0.83, -1.385, 2.722, -1.171, 0.131, 0.158, 0
23475, -1.389, -1.369, 2.738, -1.236, 0.157, 0.073, 0
23495, -1.043, -1.629, 2.23, -1.368, 0.046, -0.075, 0
23515, -0.441, -2.086, 2.097, -1.66, -0.027, -0.183, 0
23535, 0.019, -2.168, 1.732, -1.779, -0.102, -0.181, 0
23555, 0.219, -2.506, 1.106, -1.739, -0.075, -0.128, 0
23575, 0.312, -2.544, 0.398, -1.701, 0.034, -0.024, 0
23595, -0.38, -1.518, -0.687, -1.621, 0.174, 0.012, 0
23615, -0.817, -0.867, -1.649, -1.421, 0.135, -0.078, 0
23635, -0.819, -1.273, -1.971, -1.258, -0.026, -0.176, 0
23655, -0.419, -1.749, -2.076, -1.257, 0.004, -0.182, 0
23675, 0.032, -1.487, -2.556, -1.092, 0.091, -0.203, 0
23695, 0.234, -0.979, -2.906, -0.811, 0.087, -0.162, 0
23715, -0.039, -0.539, -3.026, -0.508, 0.163, -0.135, 0
23735, -0.115, -0.424, -2.964, -0.41, 0.224, -0.15, 0
23755, 0.222, -0.369, -2.921, -0.338, 0.113, -0.171, 0
23775, 0.324, -0.467, -2.799, -0.155, 0.151, -0.131, 0
23795, 0.269, 0.314, -3.014, 0.045, 0.266, -0.093, 0
23815, -0.05, 0.843, -3.272, 0.248, 0.309, -0.103, 0
23835, 0.044, 0.353, -2.836, 0.386, 0.189, -0.161, 0
23855, 0.461, -0.175, -2.386, 0.306, 0.111, -0.102, 0
23875, 0.07, 0.766, -2.713, 0.319, 0.182, 0.021, 0
23895, -0.164, 1.353, -2.872, 0.595, 0.191, 0.001, 0
23915, -0.028, 0.864, -2.142, 0.753, 0.107, -0.006, 0
23935, 0.212, 0.687, -1.89, 0.632, 0.144, 0.053, 0
23955, -0.145, 1.1, -2.017, 0.7, 0.094, 0.061, 0
23975, 0.27, 1.217, -1.97, 0.866, 0.146, 0.101, 0
23995, 0.6, 1.038, -2.021, 0.85, 0.037, 0.191, 0
24015, -0.366, 1.262, -2.076, 0.801, -0.082, 0.276, 0
24035, -0.337, 1.402, -1.718, 0.894, 0.043, 0.255, 0
24055, -0.304, 1.056, -0.937, 1.004, -0.037, 0.218, 0
24075, -0.665, 1.102, -0.285, 0.955, 0.05, 0.223, 0
24095, -0.73, 1.695, -0.177, 0.829, 0.224, 0.208, 0
24115, -0.166, 1.774, -0.139, 0.845, 0.196, 0.116, 0
24135, 0.038, 1.313, 0.074, 0.846, -0.016, 0.068, 0
24155, 0.025, 1.307, 0.169, 0.814, 0.003, 0.1, 0
24175, 0.288, 1.374, 0.41, 0.83, 0.056, 0.131, 0
24195, 0.383, 1.46, 0.641, 0.863, -0.004, 0.155, 0
24215, -0.047, 1.235, 1.038, 0.85, -0.047, 0.184, 0
24235, -0.362, 1.162, 1.267, 0.758, 0.023, 0.192, 0
24255, -0.287, 0.769, 1.466, 0.667, 0.007, 0.152, 0
24275, -0.355, 0.364, 1.467, 0.587, -0.049, 0.121, 0
24295, -0.263, 0.055, 1.489, 0.55, 0.009, 0.139, 0
24315, -0.394, -0.019, 1.44, 0.525, 0.05, 0.153, 0
24335, -0.398, -0.176, 1.556, 0.438, 0.055, 0.145, 0
24355, -0.234, -0.336, 1.523, 0.303, -0.013, 0.167, 0
24375, -0.428, -0.163, 1.272, 0.259, -0.103, 0.138, 0
24395, -0.272, -0.241, 1.274, 0.227, -0.15, 0.089, 0
24415, -0.524, -0.849, 1.198, 0.169, -0.097, 0.108, 0
24435, -0.522, -1.226, 1.073, 0.122, -0.048, 0.055, 0
24455, -0.284, -1.237, 1.076, -0.038, -0.059, 0.044, 0
24475, 0.066, -1.042, 1.168, -0.105, -0.18, -0.021, 0
24495, 0.075, -0.859, 1.21, -0.12, -0.184, -0.019, 0
24515, 0.198, -1.381, 1.186, -0.151, -0.054, 0.083, 0
24535, 0.194, -2.531, 1.304, -0.33, 0.063, 0.111, 0
24555, 0.095, -2.348, 0.903, -0.442, 0.007, 0.125, 0
24575, 0.103, -2.003, 0.323, -0.376, -0.096, 0.106, 0
24595, 0.045, -2.324, 0.4, -0.365, -0.054, 0.092, 0
24615, 0.141, -2.228, 0.075, -0.285, -0.05, 0.18, 0
24635, -0.006, -2.274, -0.047, -0.106, -0.023, 0.208, 0
24655, -0.212, -2.397, 0.348, -0.149, -0.051, 0.174, 0
24675, -0.233, -2.166, 0.214, -0.196, -0.135, 0.138, 0
24695, -0.123, -2.158, 0.199, -0.233, -0.122, 0.142, 0
24715, -0.09, -2.182, 0.255, -0.291, -0.03, 0.202, 0
24735, 0.142, -1.97, 0.087, -0.338, -0.042, 0.24, 0
24755, 0.036, -1.282, -0.437, -0.225, -0.112, 0.192, 0
24775, 0.03, -0.714, -0.585, -0.037, -0.185, 0.193, 1
24795, -0.458, -0.378, -0.412, 0.076, -0.027, 0.202, 1
24815, -0.359, -0.119, 0.049, 0.0, 0.095, 0.202, 1
24835, -0.154, -0.327, 0.141, -0.209, 0.042, 0.089, 1
24855, -0.103, -0.063, -0.067, -0.276, -0.051, 0.061, 1
24875, -0.244, 0.138, -0.328, -0.144, 0.0, 0.05, 1
24895, 0.089, -0.213, -0.11, -0.155, 0.039, 0.022, 1
24915, 0.212, -0.353, -0.283, -0.205, 0.01, 0.028, 1
24935, 0.161, -0.18, -0.518, -0.236, 0.016, 0.032, 1
24955, 0.083, -0.046, -0.604, -0.154, 0.025, 0.047, 1
24975, -0.065, -0.06, -0.466, -0.061, 0.049, 0.062, 1
24995, 0.051, -0.099, -0.287, -0.048, 0.025, 0.056, 1
25015, -0.043, -0.084, -0.245, -0.064, -0.001, 0.076, 1
25035, -0.017, -0.053, -0.349, -0.063, -0.004, 0.085, 1
25055, -0.159, -0.085, -0.262, 0.025, -0.024, 0.058, 1
25075, 0.045, -0.153, 0.015, -0.004, 0.0, 0.062, 1
25095, 0.008, -0.037, -0.061, -0.091, -0.007, 0.086, 1
25115, -0.019, -0.01, -0.064, -0.119, 0.018, 0.097, 1
25135, -0.008, -0.018, -0.006, -0.082, 0.016, 0.089, 1
25155, -0.17, -0.044, 0.055, -0.07, 0.011, 0.087, 1
25175, -0.192, -0.058, 0.008, -0.071, 0.039, 0.076, 1
25195, -0.059, -0.029, -0.057, -0.171, 0.116, 0.092, 1
25215, 0.0, -0.013, -0.307, -0.161, 0.089, 0.074, 1
25235, 0.059, -0.162, -0.306, -0.086, 0.008, 0.048, 1
25255, -0.004, -0.188, -0.233, -0.096, 0.01, 0.064, 1
25275, -0.044, -0.199, -0.132, -0.083, 0.048, 0.084, 1
25295, -0.012, -0.048, -0.204, -0.109, 0.056, 0.09, 1
25315, -0.036, -0.08, -0.183, -0.035, 0.007, 0.068, 1
25335, -0.086, -0.13, -0.057, -0.03, 0.009, 0.061, 1
25355, -0.083, -0.09, -0.034, -0.141, 0.051, 0.094, 1
25375, -0.06, -0.006, -0.193, -0.128, 0.067, 0.059, 1
25395, -0.026, -0.057, -0.184, -0.117, 0.026, 0.04, 1
25415, 0.019, -0.061, -0.258, -0.072, -0.004, 0.032, 1
25435, 0.024, -0.09, -0.265, -0.083, 0.018, 0.049, 1
25455, -0.044, -0.055, -0.169, -0.13, 0.083, 0.069, 1
25475, -0.032, -0.007, -0.208, -0.068, 0.062, 0.045, 1
25495, -0.029, -0.058, -0.08, -0.025, 0.019, 0.034, 1
25515, 0.027, -0.145, 0.089, -0.065, 0.0, 0.02, 1
25535, -0.068, -0.041, 0.024, -0.111, 0.042, 0.047, 1
25555, -0.126, 0.039, -0.038, -0.136, 0.101, 0.067, 1
25575, -0.091, 0.092, -0.235, -0.097, 0.048, 0.02, 1
25595, -0.065, 0.01, -0.231, -0.078, -0.004, -0.008, 1
25615, -0.05, -0.109, -0.141, -0.062, 0.016, 0.005, 1
25635, 0.024, -0.169, -0.055, -0.111, 0.053, 0.032, 1
25655, 0.074, -0.059, -0.184, -0.098, 0.07, 0.036, 1
25675, -0.008, 0.041, -0.27, -0.086, 0.066, 0.047, 1
25695, -0.06, -0.09, -0.227, -0.108, 0.06, 0.051, 1
25715, 0.015, -0.082, -0.176, -0.126, 0.006, 0.056, 1
25735, -0.033, -0.055, -0.199, -0.103, 0.028, 0.058, 1
25755, -0.01, -0.033, -0.224, -0.021, 0.036, 0.048, 1
25775, -0.079, -0.285, -0.016, -0.118, 0.048, 0.049, 1
25795, -0.052, -0.057, -0.195, -0.13, 0.045, 0.067, 1
25815, -0.055, 0.003, -0.256, -0.064, 0.067, 0.1, 1
25835, -0.032, -0.035, -0.171, -0.041, 0.034, 0.066, 1
25855, -0.025, -0.026, -0.156, -0.089, 0.032, 0.07, 1
25875, -0.034, -0.14, -0.055, -0.097, 0.048, 0.081, 1
25895, 0.022, -0.084, 0.032, -0.153, 0.026, 0.073, 1
25915, -0.08, -0.007, -0.186, -0.191, 0.02, 0.053, 1
25935, 0.01, 0.219, -0.439, -0.123, -0.026, 0.013, 1
25955, -0.254, 0.393, -0.671, 0.048, -0.047, -0.004, 0
25975, 0.099, 0.0, -0.404, 0.123, -0.097, -0.065, 0
25995, 0.0, 0.432, -0.993, 0.282, -0.193, -0.015, 0
26015, -0.137, -0.141, -0.686, 0.533, -0.162, 0.002, 0
26035, 0.018, -0.146, -0.286, 0.225, 0.026, 0.059, 0
26055, 0.08, 0.352, -0.697, 0.064, 0.066, 0.104, 0
26075, -0.007, 0.323, -0.695, 0.033, 0.099, 0.119, 0
26095, 0.019, 0.491, -0.723, -0.004, 0.053, 0.065, 0
26115, -0.125, 0.411, -0.568, -0.015, 0.009, 0.076, 0
26135, -0.098, 0.479, -0.484, 0.092, 0.009, 0.059, 0
26155, 0.003, 0.364, 0.089, 0.149, 0.029, 0.029, 0
26175, -0.065, 0.257, 0.432, 0.179, -0.01, 0.032, 0
26195, 0.033, -0.127, 0.942, 0.103, 0.059, 0.053, 0
26215, 0.021, -0.196, 1.072, -0.032, 0.087, 0.053, 0
26235, 0.008, -0.084, 1.191, -0.086, 0.03, 0.037, 0
26255, -0.056, -0.357, 1.595, -0.11, 0.028, 0.05, 0
26275, 0.112, -0.469, 1.916, -0.263, 0.075, 0.058, 0
26295, 0.147, -0.186, 2.014, -0.403, 0.019, 0.026, 0
26315, 0.172, -0.472, 2.293, -0.544, 0.058, 0.103, 0
26335, 0.194, -0.664, 2.694, -0.815, -0.018, 0.134, 0
26355, -0.271, -0.552, 2.624, -0.978, -0.017, 0.12, 0
26375, -0.293, -0.845, 2.508, -1.166, 0.029, 0.103, 0
26395, 0.072, -1.03, 2.363, -1.326, 0.009, 0.078, 0
26415, 0.086, -1.213, 2.236, -1.467, 0.032, 0.077, 0
26435, -0.123, -1.119, 1.71, -1.439, -0.003, 0.056, 0
26455, -0.205, -1.672, 1.532, -1.493, -0.031, 0.046, 0
26475, -0.291, -2.05, 1.505, -1.654, -0.058, 0.02, 0
26495, -0.074, -1.976, 0.834, -1.663, -0.108, 0.018, 0
26515, -0.164, -1.863, 0.236, -1.619, -0.089, 0.039, 0
26535, -0.569, -1.398, -0.425, -1.59, 0.073, 0.054, 0
26555, -0.467, -1.179, -1.188, -1.52, 0.047, 0.015, 0
26575, -0.513, -1.124, -1.552, -1.362, -0.089, -0.036, 0
26595, -0.794, -1.422, -1.493, -1.153, -0.047, -0.066, 0
26615, -0.72, -1.212, -1.86, -1.027, 0.025, -0.102, 0
26635, -0.768, -0.897, -2.116, -0.895, 0.078, -0.144, 0
26655, -0.426, -0.673, -2.402, -0.734, 0.082, -0.188, 0
26675, 0.328, -1.01, -2.217, -0.51, -0.021, -0.221, 0
26695, 0.849, -1.49, -1.822, -0.36, -0.081, -0.146, 0
26715, -0.149, -0.743, -2.141, -0.286, 0.332, -0.001, 0
26735, -0.237, 0.227, -2.651, -0.174, 0.476, 0.004, 0
26755, 0.234, 0.094, -2.44, -0.094, 0.147, -0.12, 0
26775, 0.377, 0.03, -2.2, 0.058, -0.075, -0.14, 0
26795, -0.208, 0.518, -2.372, 0.298, 0.169, -0.021, 0
26815, -0.249, 0.967, -2.479, 0.379, 0.553, 0.135, 0
26835, 0.693, 0.812, -2.266, 0.348, 0.268, 0.028, 0
26855, 0.159, 0.858, -2.522, 0.412, 0.031, 0.036, 0
26875, 0.362, 1.084, -2.399, 0.591, 0.178, 0.053, 0
26895, 0.206, 1.278, -2.118, 0.753, 0.251, 0.128, 0
26915, 0.418, 1.148, -1.927, 0.657, 0.338, 0.233, 0
26935, 0.224, 1.139, -1.948, 0.626, 0.099, 0.211, 0
26955, -0.274, 1.425, -2.007, 0.751, -0.04, 0.153, 0
26975, -0.598, 1.612, -1.761, 0.776, 0.175, 0.234, 0
26995, -0.501, 1.773, -1.448, 0.707, 0.279, 0.262, 0
27015, -0.45, 1.699, -1.243, 0.76, 0.127, 0.186, 0
27035, -0.602, 1.424, -0.84, 0.859, 0.081, 0.124, 0
27055, -0.391, 1.547, -0.547, 0.81, 0.161, 0.139, 0
27075, -0.638, 1.572, -0.226, 0.743, 0.197, 0.142, 0
27095, -0.51, 1.659, -0.073, 0.674, 0.255, 0.111, 0
27115, -0.224, 1.598, -0.048, 0.729, 0.187, 0.021, 0
27135, -0.158, 1.432, 0.181, 0.696, 0.154, 0.032, 0
27155, 0.041, 1.256, 0.45, 0.653, 0.153, 0.065, 0
27175, 0.213, 0.966, 0.816, 0.658, 0.072, 0.063, 0
27195, 0.177, 0.8, 1.143, 0.644, -0.011, 0.095, 0
27215, 0.109, 0.684, 1.311, 0.552, -0.023, 0.143, 0
27235, -0.348, 0.572, 1.166, 0.511, -0.053, 0.18, 0
27255, -0.606, 0.43, 0.981, 0.535, -0.047, 0.142, 0
27275, -0.66, 0.455, 0.785, 0.473, -0.084, 0.102, 0
27295, -1.0, 0.167, 0.657, 0.564, -0.218, -0.026, 0
27315, -0.601, -0.449, 0.979, 0.501, -0.221, -0.091, 0
27335, -0.568, -0.515, 0.748, 0.436, -0.227, -0.078, 0
27355, -0.343, -0.665, 0.712, 0.384, -0.204, -0.04, 0
27375, -0.156, -1.004, 1.068, 0.276, -0.208, -0.02, 0
27395, -0.078, -1.07, 1.127, 0.263, -0.236, -0.06, 0
27415, 0.283, -1.236, 1.293, 0.296, -0.244, -0.104, 0
27435, 0.402, -2.034, 1.638, 0.097, -0.152, 0.009, 0
27455, 0.549, -2.083, 1.398, -0.071, -0.113, 0.115, 0
27475, 0.603, -2.071, 1.215, -0.058, -0.152, 0.149, 0
27495, 0.162, -2.055, 1.159, -0.096, -0.105, 0.122, 0
27515, 0.265, -1.886, 1.105, -0.161, -0.094, 0.156, 0
27535, 0.141, -1.905, 1.021, -0.119, -0.059, 0.175, 0
27555, 0.146, -2.076, 1.302, -0.186, 0.033, 0.211, 0
27575, 0.235, -2.685, 1.439, -0.359, -0.043, 0.252, 0
27595, 0.174, -2.505, 1.224, -0.536, -0.117, 0.321, 0
27615, -0.351, -2.094, 0.822, -0.544, -0.061, 0.379, 0
27635, -0.688, -2.171, 0.579, -0.574, 0.019, 0.315, 0
27655, -0.275, -1.751, 0.337, -0.617, 0.034, 0.29, 0
27675, -0.424, -1.195, -0.221, -0.463, 0.059, 0.259, 0
27695, -0.358, -1.093, -0.205, -0.332, 0.007, 0.266, 0
27715, -0.414, -0.802, -0.26, -0.291, -0.059, 0.27, 0
27735, -0.538, -0.308, -0.821, -0.088, -0.098, 0.202, 1
27755, -0.401, -0.375, -0.848, 0.088, -0.158, 0.171, 1
27775, -0.48, -1.037, -0.25, -0.118, -0.073, 0.153, 1
27795, -0.4, -0.859, -0.347, -0.196, -0.047, 0.1, 1
27815, -0.097, -0.409, -0.561, -0.095, -0.064, 0.073, 1
27835, -0.036, -0.314, -0.391, -0.048, 0.002, 0.082, 1
27855, -0.043, -0.086, -0.327, -0.172, 0.044, 0.071, 1
27875, -0.186, 0.103, -0.576, -0.186, 0.0, 0.036, 1
27895, -0.083, -0.088, -0.508, -0.104, 0.035, 0.027, 1
27915, -0.013, -0.137, -0.368, -0.093, 0.056, 0.018, 1
27935, -0.012, -0.087, -0.324, -0.13, 0.02, 0.028, 1
27955, -0.036, -0.011, -0.335, -0.086, -0.01, 0.006, 1
27975, -0.065, -0.057, -0.216, -0.047, 0.026, 0.017, 1
27995, 0.072, -0.093, -0.093, -0.044, 0.07, 0.028, 1
28015, -0.026, -0.012, -0.108, -0.079, 0.025, 0.033, 1
28035, -0.095, -0.026, -0.166, -0.053, -0.007, 0.026, 1
28055, -0.063, -0.034, -0.183, -0.053, 0.001, 0.025, 1
28075, 0.034, -0.078, -0.064, -0.036, 0.036, 0.027, 1
28095, 0.111, -0.21, 0.12, -0.065, 0.036, 0.036, 1
28115, 0.04, -0.068, 0.025, -0.114, 0.014, 0.039, 1
28135, -0.009, -0.001, -0.094, -0.109, -0.004, 0.033, 1
28155, -0.044, -0.045, -0.015, -0.072, 0.001, 0.043, 1
28175, -0.083, -0.166, 0.101, -0.063, 0.023, 0.047, 1
28195, -0.095, -0.077, -0.024, -0.125, 0.05, 0.051, 1
28215, -0.069, -0.06, -0.204, -0.166, 0.058, 0.062, 1
28235, -0.129, -0.128, -0.282, -0.157, 0.028, 0.069, 1
28255, -0.194, -0.051, -0.541, -0.103, 0.032, 0.062, 1
28275, -0.1, -0.152, -0.383, -0.072, 0.017, 0.025, 1
28295, -0.071, 0.054, -0.452, -0.068, -0.012, -0.011, 1
28315, 0.014, 0.034, -0.44, -0.036, -0.018, -0.022, 1
28335, 0.111, -0.056, -0.225, -0.037, 0.014, -0.004, 1
28355, 0.13, -0.091, -0.131, 0.0, 0.03, -0.001, 1
28375, 0.182, -0.166, 0.034, -0.004, -0.034, -0.002, 1
28395, 0.009, -0.148, 0.036, -0.034, -0.006, 0.001, 1
28415, 0.055, -0.057, 0.079, -0.108, 0.034, 0.027, 1
28435, -0.075, 0.076, -0.049, -0.106, 0.076, 0.044, 1
28455, -0.039, 0.07, -0.012, -0.073, 0.049, 0.026, 1
28475, -0.048, -0.05, -0.07, -0.07, 0.0, 0.011, 1
28495, 0.01, -0.096, -0.091, -0.092, 0.014, 0.018, 1
28515, 0.05, -0.064, -0.056, -0.106, 0.029, 0.043, 1
28535, -0.036, 0.009, -0.105, -0.111, 0.073, 0.069, 1
28555, -0.001, -0.007, -0.164, -0.06, 0.032, 0.065, 1
28575, -0.046, -0.11, -0.105, -0.069, -0.004, 0.072, 1
28595, 0.022, -0.157, -0.012, -0.098, -0.015, 0.078, 1
28615, -0.042, -0.119, 0.008, -0.102, 0.006, 0.1, 1
28635, -0.154, -0.116, 0.048, -0.108, 0.047, 0.111, 1
28655, -0.154, -0.059, -0.078, -0.101, 0.023, 0.084, 1
28675, -0.156, -0.085, -0.107, -0.124, 0.015, 0.072, 1
28695, -0.066, -0.062, -0.267, -0.13, 0.051, 0.071, 1
28715, 0.066, -0.141, -0.251, -0.12, 0.047, 0.068, 1
28735, -0.059, -0.135, -0.295, -0.114, 0.054, 0.072, 1
28755, -0.034, -0.111, -0.328, -0.08, 0.016, 0.037, 1
28775, -0.119, -0.224, -0.337, -0.092, 0.063, 0.061, 1
28795, -0.079, -0.236, -0.334, -0.089, 0.114, 0.072, 1
28815, -0.082, -0.08, -0.433, -0.073, 0.078, 0.043, 1
28835, -0.121, -0.122, -0.34, 0.018, 0.054, 0.009, 1
28855, 0.011, -0.297, -0.116, 0.068, 0.056, 0.003, 1
28875, 0.027, -0.338, 0.029, 0.0, 0.065, 0.015, 1
28895, -0.054, 0.026, -0.151, -0.105, 0.114, 0.04, 1
28915, 0.101, 0.181, -0.191, -0.059, 0.108, 0.039, 1
28935, 0.019, 0.013, 0.021, -0.014, 0.025, 0.061, 1
28955, -0.067, 0.028, 0.038, -0.028, 0.023, 0.074, 1
28975, -0.278, 0.311, -0.208, -0.075, 0.058, 0.087, 1
28995, -0.141, 0.328, -0.284, -0.032, 0.1, 0.074, 1
29015, -0.001, 0.307, -0.234, 0.02, 0.007, 0.04, 1
29035, -0.255, 0.314, -0.163, 0.009, -0.018, 0.047, 1
29055, -0.109, 0.095, 0.064, -0.058, 0.072, 0.074, 1
29075, 0.008, 0.055, 0.009, -0.124, 0.064, 0.063, 1
29095, 0.034, 0.03, 0.041, -0.148, 0.006, 0.062, 1
29115, -0.088, 0.001, -0.024, -0.208, 0.072, 0.089, 1
29135, -0.177, -0.054, -0.053, -0.309, 0.135, 0.084, 1
29155, -0.07, 0.524, -0.576, -0.346, 0.141, 0.03, 0
29175, -0.064, 0.295, -0.875, 0.05, -0.045, -0.094, 0
29195, 0.109, 0.317, -0.782, 0.222, -0.093, -0.106, 0
29215, 0.251, 0.015, -0.752, 0.388, -0.097, -0.057, 0
29235, 0.119, -0.114, -0.431, 0.252, -0.07, 0.007, 0
29255, 0.182, 0.2, -0.755, 0.067, 0.012, 0.092, 0
29275, 0.191, 0.455, -1.014, 0.2, -0.034, 0.139, 0
29295, -0.397, 0.433, -0.808, 0.15, 0.076, 0.183, 0
29315, -0.19, 0.286, -0.421, -0.014, 0.094, 0.161, 0
29335, -0.13, 0.354, -0.222, -0.012, 0.0, 0.098, 0
29355, -0.141, 0.138, 0.177, 0.057, 0.098, 0.101, 0
29375, 0.281, -0.427, 0.977, -0.084, 0.194, 0.125, 0
29395, 0.522, -0.438, 1.285, -0.155, 0.031, 0.118, 0
29415, 0.307, -0.61, 1.498, -0.155, -0.07, 0.149, 0
29435, -0.287, -0.95, 1.828, -0.276, 0.051, 0.161, 0
29455, 0.039, -1.048, 2.161, -0.424, 0.056, 0.169, 0
29475, -0.079, -1.129, 2.2, -0.475, 0.013, 0.151, 0
29495, -0.094, -1.296, 2.409, -0.615, 0.083, 0.161, 0
29515, 0.003, -1.526, 2.689, -0.785, 0.075, 0.168, 0
29535, 0.001, -1.478, 2.474, -0.778, -0.058, 0.123, 0
29555, -0.209, -1.979, 2.662, -0.905, -0.023, 0.152, 0
29575, -0.391, -2.348, 2.752, -1.172, -0.007, 0.15, 0
29595, -0.704, -2.537, 2.767, -1.388, -0.103, 0.125, 0
29615, -0.823, -2.542, 2.581, -1.547, -0.073, 0.09, 0
29635, -0.386, -2.59, 1.909, -1.654, -0.075, 0.065, 0
29655, -0.7, -1.831, 0.574, -1.62, 0.026, 0.105, 0
29675, -1.186, -1.612, -0.252, -1.485, 0.178, 0.072, 0
29695, -0.887, -1.622, -0.78, -1.411, 0.02, -0.044, 0
29715, -0.844, -1.727, -0.969, -1.325, -0.083, -0.127, 0
29735, -0.694, -1.57, -1.455, -1.161, 0.03, -0.153, 0
29755, -0.264, -0.965, -2.448, -0.995, 0.196, -0.153, 0
29775, 0.165, -1.367, -1.906, -0.818, 0.129, -0.171, 0
29795, 0.277, -1.319, -1.827, -0.764, 0.034, -0.167, 0
29815, -0.118, -0.686, -2.431, -0.682, 0.114, -0.145, 0
29835, -0.086, -0.293, -2.716, -0.467, 0.353, -0.113, 0
29855, 0.464, -0.608, -2.409, -0.332, 0.373, -0.108, 0
29875, 0.35, -0.791, -2.096, -0.344, 0.221, -0.107, 0
29895, -0.242, 0.174, -2.611, -0.41, 0.259, -0.029, 0
29915, -0.363, 0.808, -3.189, -0.223, 0.664, 0.086, 0
29935, -0.19, 0.37, -2.955, 0.087, 0.707, 0.059, 0
29955, 0.332, -0.22, -2.375, 0.243, 0.69, 0.052, 0
29975, 0.605, 0.311, -2.279, 0.243, 0.617, 0.114, 0
29995, 0.492, 1.237, -2.699, 0.252, 0.56, 0.252, 0
30015, 0.25, 1.404, -2.733, 0.516, 0.394, 0.201, 0
30035, -0.201, 1.405, -2.505, 0.748, 0.211, 0.162, 0
30055, -0.247, 1.178, -1.856, 0.727, 0.185, 0.143, 0
30075, -0.462, 1.919, -2.106, 0.554, 0.184, 0.171, 0
30095, -0.565, 1.842, -2.056, 0.724, 0.155, 0.153, 0
30115, -0.304, 1.638, -1.364, 0.898, 0.149, 0.076, 0
30135, -0.133, 1.593, -0.722, 0.914, 0.062, 0.069, 0
30155, -0.16, 1.48, -0.445, 0.866, -0.019, 0.083, 0
30175, -0.457, 1.809, -0.492, 0.901, 0.061, 0.092, 0
30195, -0.458, 1.697, -0.207, 0.907, 0.152, 0.13, 0
30215, -0.367, 1.78, -0.06, 0.853, 0.063, 0.091, 0
30235, -0.455, 1.471, 0.25, 0.798, 0.014, 0.093, 0
30255, -0.45, 1.261, 0.512, 0.803, 0.017, 0.053, 0
30275, 0.022, 0.7, 0.978, 0.736, -0.075, 0.067, 0
30295, -0.223, 0.738, 1.09, 0.675, -0.077, 0.1, 0
30315, -0.555, 1.056, 0.731, 0.763, -0.009, 0.067, 0
30335, -0.63, 0.828, 0.785, 0.835, -0.003, 0.048, 0
30355, -0.435, 0.019, 1.496, 0.678, -0.005, 0.029, 0
30375, -0.324, -0.018, 1.535, 0.48, -0.08, 0.094, 0
30395, -0.271, -0.06, 1.082, 0.484, -0.165, 0.007, 0
30415, -0.408, -0.212, 0.921, 0.502, -0.171, -0.05, 0
30435, -0.316, -0.464, 1.111, 0.474, -0.099, -0.081, 0
30455, -0.115, -0.543, 0.996, 0.405, -0.072, -0.096, 0
30475, 0.354, -0.897, 1.116, 0.252, -0.158, -0.117, 0
30495, 0.427, -0.872, 1.139, 0.145, -0.202, -0.041, 0
30515, -0.106, -0.93, 1.171, 0.111, 0.034, 0.023, 0
30535, 0.333, -1.143, 1.379, 0.078, -0.023, 0.006, 0
30555, 0.338, -1.404, 1.491, -0.07, -0.139, -0.034, 0
30575, 0.358, -1.352, 1.249, -0.074, -0.128, -0.009, 0
30595, 0.498, -1.676, 1.36, -0.078, -0.097, 0.021, 0
30615, 0.728, -2.576, 1.582, -0.197, -0.145, 0.114, 0
30635, 0.355, -2.803, 1.237, -0.321, -0.064, 0.175, 0
30655, 0.339, -2.563, 0.806, -0.391, -0.04, 0.227, 0
30675, 0.122, -2.243, 0.589, -0.384, -0.08, 0.256, 0
30695, -0.004, -2.495, 0.509, -0.397, -0.165, 0.28, 0
30715, 0.105, -2.482, 0.239, -0.297, -0.191, 0.327, 0
30735, 0.103, -1.683, -0.118, -0.19, -0.12, 0.376, 0
30755, -0.4, -1.354, -0.376, -0.023, -0.182, 0.347, 0
30775, -0.626, -0.928, -0.418, -0.076, -0.182, 0.292, 1
30795, -0.948, -0.455, -0.702, -0.108, -0.054, 0.299, 1
30815, -0.679, -0.342, -0.552, -0.144, 0.023, 0.255, 1
30835, -0.523, -0.236, -0.455, -0.124, -0.102, 0.133, 1
30855, -0.37, -0.363, -0.224, -0.107, -0.174, 0.074, 1
30875, -0.112, -0.357, -0.076, -0.192, -0.04, 0.099, 1
30895, -0.034, -0.132, -0.309, -0.229, 0.043, 0.103, 1
30915, -0.081, -0.069, -0.399, -0.147, -0.007, 0.061, 1
30935, -0.006, -0.107, -0.336, -0.111, 0.036, 0.046, 1
30955, 0.015, -0.085, -0.23, -0.171, 0.026, 0.035, 1
30975, 0.144, -0.244, -0.149, -0.199, -0.007, 0.039, 1
30995, 0.13, -0.12, -0.228, -0.189, -0.01, 0.047, 1
31015, 0.095, -0.117, -0.321, -0.081, 0.012, 0.057, 1
31035, -0.052, -0.102, -0.173, -0.05, 0.018, 0.075, 1
31055, -0.072, -0.048, -0.178, -0.096, 0.051, 0.089, 1
31075, -0.118, -0.074, -0.185, -0.111, 0.03, 0.076, 1
31095, -0.087, -0.043, -0.228, -0.117, 0.012, 0.061, 1
31115, -0.028, -0.037, -0.208, -0.059, -0.005, 0.042, 1
31135, -0.06, -0.036, -0.08, -0.059, 0.004, 0.051, 1
31155, 0.055, -0.093, -0.046, -0.116, 0.059, 0.047, 1
31175, 0.123, -0.012, -0.248, -0.147, 0.023, 0.034, 1
31195, 0.167, -0.118, -0.165, -0.047, -0.001, 0.044, 1
31215, 0.04, -0.187, -0.014, -0.067, 0.003, 0.061, 1
31235, -0.039, -0.07, -0.099, -0.095, 0.054, 0.07, 1
31255, -0.025, -0.048, -0.072, -0.119, 0.057, 0.071, 1
31275, -0.023, -0.034, -0.064, -0.13, 0.02, 0.069, 1
31295, -0.024, -0.033, -0.132, -0.102, 0.007, 0.075, 1
31315, -0.033, -0.028, -0.198, -0.065, 0.0, 0.072, 1
31335, -0.179, -0.011, -0.183, -0.061, 0.026, 0.07, 1
31355, -0.148, -0.081, -0.141, -0.133, 0.051, 0.063, 1
31375, -0.048, -0.023, -0.231, -0.136, 0.015, 0.06, 1
31395, 0.0, -0.093, -0.203, -0.092, -0.002, 0.047, 1
31415, 0.032, -0.142, -0.148, -0.078, -0.022, 0.025, 1
31435, 0.143, -0.244, -0.062, -0.092, -0.034, 0.024, 1
31455, -0.013, -0.17, -0.166, -0.088, 0.042, 0.045, 1
31475, 0.148, -0.276, -0.009, -0.111, 0.072, 0.069, 1
31495, 0.007, -0.376, -0.056, -0.1, 0.036, 0.054, 1
31515, -0.095, -0.458, -0.115, -0.105, 0.039, 0.023, 1
31535, -0.152, -0.404, -0.301, -0.112, 0.094, 0.017, 1
31555, -0.054, -0.423, -0.277, -0.138, 0.138, 0.031, 1
31575, -0.145, -0.292, -0.325, -0.104, 0.144, 0.023, 1
31595, 0.054, -0.296, -0.186, -0.036, 0.087, -0.005, 1
31615, 0.086, -0.386, 0.029, -0.032, 0.08, 0.024, 1
31635, -0.177, -0.115, -0.018, -0.085, 0.128, 0.056, 1
31655, -0.189, 0.011, -0.124, -0.092, 0.084, 0.058, 1
31675, -0.158, 0.12, -0.153, -0.065, 0.067, -0.009, 1
31695, -0.131, 0.385, -0.151, -0.037, 0.01, -0.018, 1
31715, 0.067, 0.168, 0.138, -0.049, 0.014, 0.008, 1
31735, 0.098, 0.262, 0.057, -0.083, 0.019, 0.016, 1
31755, 0.057, 0.493, -0.114, -0.045, 0.002, -0.009, 1
31775, -0.174, 0.681, -0.219, -0.058, 0.018, 0.029, 1
31795, -0.228, 0.564, -0.149, -0.066, 0.107, 0.053, 1
31815, -0.223, 0.677, -0.3, -0.127, 0.173, 0.08, 1
31835, 0.087, 0.417, -0.217, -0.102, 0.067, 0.006, 1
31855, -0.122, 0.202, -0.241, -0.102, -0.08, 0.0, 1
31875, -0.007, -0.015, -0.124, -0.124, 0.028, 0.0, 1
31895, 0.146, -0.006, -0.13, -0.175, 0.117, 0.053, 1
31915, 0.162, -0.056, -0.051, -0.186, 0.064, 0.032, 1
31935, -0.004, -0.017, -0.209, -0.179, -0.028, 0.017, 1
31955, -0.086, -0.269, -0.188, -0.063, -0.024, 0.029, 1
31975, 0.015, -0.484, 0.041, -0.091, 0.012, 0.049, 1
31995, 0.118, -0.401, -0.008, -0.195, 0.001, 0.058, 1
32015, -0.024, -0.121, -0.284, -0.225, 0.003, 0.087, 1
32035, -0.039, -0.16, -0.267, -0.2, 0.047, 0.093, 1
32055, -0.086, -0.067, -0.465, -0.131, -0.017, 0.08, 1
32075, -0.119, -0.235, -0.388, -0.011, -0.062, 0.054, 1
32095, -0.02, -0.137, -0.198, -0.102, -0.037, 0.079, 0
32115, -0.251, 0.008, -0.358, -0.086, 0.003, 0.081, 0
32135, -0.041, 0.11, -0.509, 0.069, -0.034, 0.057, 0
32155, -0.252, -0.391, -0.442, 0.292, -0.13, 0.035, 0
32175, -0.028, -0.271, -0.025, -0.12, 0.075, 0.108, 0
32195, -0.045, 0.178, -0.669, -0.031, 0.132, 0.138, 0
32215, 0.084, 0.163, -0.726, 0.028, 0.08, 0.094, 0
32235, -0.136, 0.266, -0.739, 0.058, 0.042, 0.071, 0
32255, -0.167, 0.107, -0.468, -0.075, 0.103, 0.095, 0
32275, -0.153, 0.398, -0.507, -0.119, 0.105, 0.113, 0
32295, -0.152, 0.71, -0.55, 0.041, 0.045, 0.06, 0
32315, -0.154, 0.691, -0.116, 0.099, -0.009, 0.025, 0
32335, 0.031, 0.564, 0.355, 0.138, -0.084, -0.04, 0
32355, 0.115, 0.281, 0.771, 0.066, -0.035, -0.028, 0
32375, 0.199, 0.219, 0.898, 0.021, 0.06, 0.045, 0
32395, 0.153, -0.159, 1.144, -0.035, 0.163, 0.051, 0
32415, 0.421, -0.675, 1.49, -0.191, 0.084, 0.086, 0
32435, 0.153, -0.87, 1.607, -0.332, 0.012, 0.106, 0
32455, -0.175, -0.66, 1.606, -0.428, 0.05, 0.2, 0
32475, -0.451, -0.759, 1.438, -0.366, 0.147, 0.163, 0
32495, 0.109, -0.905, 1.713, -0.384, 0.01, 0.13, 0
32515, 0.066, -1.453, 2.312, -0.665, -0.083, 0.15, 0
32535, -0.154, -1.485, 2.453, -0.916, -0.008, 0.282, 0
32555, -0.385, -1.433, 2.192, -1.015, 0.089, 0.28, 0
32575, -0.2, -1.388, 1.752, -0.984, 0.02, 0.145, 0
32595, -0.1, -1.82, 1.831, -1.174, -0.037, 0.143, 0
32615, 0.048, -1.966, 1.68, -1.321, -0.13, 0.144, 0
32635, -0.231, -2.391, 1.583, -1.378, -0.103, 0.19, 0
32655, -0.12, -2.755, 1.355, -1.47, -0.081, 0.211, 0
32675, -1.092, -1.656, -0.068, -1.528, 0.032, 0.24, 0
32695, -1.338, -1.323, -0.791, -1.453, 0.085, 0.153, 0
32715, -0.73, -1.716, -1.257, -1.284, -0.06, 0.012, 0
32735, -0.665, -2.115, -1.368, -1.078, -0.077, -0.037, 0
32755, -0.734, -1.745, -1.63, -1.059, 0.165, 0.014, 0
32775, -0.365, -1.5, -1.968, -1.016, 0.204, -0.035, 0
32795, -0.088, -1.429, -2.08, -0.858, 0.018, -0.12, 0
32815, -0.071, -1.015, -2.371, -0.648, 0.026, -0.114, 0
32835, -0.128, -1.031, -2.2, -0.441, 0.202, -0.044, 0
32855, 0.024, -0.669, -2.106, -0.479, 0.302, 0.002, 0
32875, -0.245, 0.126, -2.565, -0.438, 0.192, -0.05, 0
32895, -0.314, 0.32, -2.646, -0.219, 0.207, -0.066, 0
32915, 0.004, 0.237, -2.339, -0.066, 0.18, -0.056, 0
32935, -0.134, 0.511, -2.303, -0.061, 0.2, 0.005, 0
32955, -0.335, 0.814, -2.51, 0.028, 0.219, -0.01, 0
32975, -0.241, 0.604, -2.219, 0.232, 0.207, -0.1, 0
32995, 0.626, 0.232, -1.657, 0.322, 0.174, -0.136, 0
33015, 0.108, 0.655, -1.839, 0.282, 0.111, 0.001, 0
33035, -0.297, 0.945, -2.152, 0.326, 0.375, 0.133, 0
33055, 0.064, 0.674, -1.699, 0.466, 0.351, 0.037, 0
33075, 0.156, 0.561, -1.377, 0.441, 0.101, -0.011, 0
33095, -0.092, 0.8, -1.668, 0.466, 0.085, 0.011, 0
33115, -0.288, 1.201, -2.143, 0.54, 0.315, 0.14, 0
33135, 0.164, 1.138, -1.955, 0.649, 0.28, 0.09, 0
33155, 0.008, 0.929, -1.356, 0.744, -0.085, 0.08, 0
33175, -0.601, 1.283, -1.146, 0.796, 0.098, 0.122, 0
33195, -0.428, 1.242, -1.025, 0.817, 0.156, 0.091, 0
33215, 0.038, 1.117, -0.894, 0.864, -0.06, 0.05, 0
33235, -0.005, 0.701, -0.284, 0.88, -0.076, 0.07, 0
33255, -0.142, 0.481, 0.217, 0.863, 0.115, 0.108, 0
33275, -0.096, 0.716, 0.236, 0.799, 0.147, 0.14, 0
33295, -0.08, 0.588, 0.351, 0.747, 0.018, 0.137, 0
33315, -0.209, 0.462, 0.425, 0.703, -0.004, 0.156, 0
33335, -0.587, 0.467, 0.315, 0.693, 0.145, 0.148, 0
33355, -0.209, 0.373, 0.379, 0.656, 0.135, 0.156, 0
33375, -0.298, 0.282, 0.324, 0.606, 0.068, 0.196, 0
33395, -0.599, 0.333, 0.279, 0.615, 0.095, 0.182, 0
33415, -0.459, 0.075, 0.381, 0.622, 0.026, 0.124, 0
33435, -0.161, -0.218, 0.807, 0.587, -0.1, 0.095, 0
33455, -0.358, -0.359, 1.051, 0.507, -0.069, 0.157, 0
33475, -0.558, -0.419, 1.186, 0.494, 0.026, 0.128, 0
33495, -0.492, -0.502, 1.289, 0.439, -0.01, 0.031, 0
33515, -0.211, -0.683, 1.381, 0.353, -0.08, -0.028, 0
33535, -0.01, -0.779, 1.404, 0.21, -0.07, -0.001, 0
33555, -0.11, -0.879, 1.417, 0.149, -0.004, 0.026, 0
33575, 0.198, -0.887, 1.499, 0.158, -0.054, 0.004, 0
33595, 0.023, -0.918, 1.381, 0.138, -0.13, -0.059, 0
33615, 0.09, -1.1, 1.47, 0.022, -0.13, -0.045, 0
33635, 0.301, -1.634, 1.712, -0.207, -0.058, 0.04, 0
33655, 0.466, -2.179, 1.298, -0.254, -0.047, 0.072, 0
33675, 0.164, -2.264, 0.979, -0.211, -0.119, 0.067, 0
33695, 0.33, -2.129, 0.644, -0.34, -0.084, 0.105, 0
33715, 0.142, -2.061, 0.318, -0.332, -0.1, 0.153, 0
33735, 0.147, -2.257, 0.372, -0.218, -0.128, 0.172, 0
33755, 0.219, -2.641, 0.563, -0.221, -0.129, 0.165, 0
33775, 0.312, -2.49, 0.366, -0.395, -0.098, 0.2, 0
33795, 0.353, -2.538, 0.358, -0.502, -0.084, 0.263, 0
33815, 0.518, -2.344, 0.313, -0.609, -0.088, 0.342, 0
33835, 0.328, -1.841, -0.018, -0.541, -0.127, 0.334, 0
33855, 0.084, -1.12, -0.335, -0.342, -0.167, 0.321, 0
33875, -0.359, -0.629, -0.659, -0.117, -0.07, 0.334, 1
33895, -0.539, -0.438, -0.629, -0.083, 0.009, 0.334, 1
33915, -0.641, -0.123, -0.549, -0.193, -0.061, 0.23, 1
33935, -0.944, 0.079, -0.527, -0.218, -0.108, 0.165, 1
33955, -0.629, -0.121, -0.234, -0.118, -0.059, 0.094, 1
33975, -0.283, -0.413, -0.05, -0.12, -0.086, 0.016, 1
33995, -0.083, -0.334, -0.244, -0.191, -0.061, 0.02, 1
34015, 0.154, -0.246, -0.383, -0.189, -0.003, 0.033, 1
34035, 0.174, -0.191, -0.432, -0.178, 0.018, 0.058, 1
34055, 0.371, -0.194, -0.452, -0.128, -0.015, 0.032, 1
34075, 0.304, -0.377, -0.233, -0.106, -0.032, 0.039, 1
34095, 0.254, -0.315, -0.228, -0.142, 0.028, 0.083, 1
34115, -0.025, -0.147, -0.248, -0.124, 0.059, 0.119, 1
34135, -0.115, -0.107, -0.267, -0.095, 0.025, 0.071, 1
34155, -0.103, -0.13, -0.276, -0.115, 0.002, 0.058, 1
34175, -0.033, -0.107, -0.19, -0.156, 0.023, 0.065, 1
34195, -0.075, -0.038, -0.231, -0.131, 0.037, 0.063, 1
34215, -0.02, 0.023, -0.203, -0.065, -0.001, 0.025, 1
34235, -0.024, -0.024, -0.167, 0.0, -0.018, 0.008, 1
34255, 0.041, -0.219, 0.062, -0.078, -0.007, 0.035, 1
34275, 0.023, -0.129, 0.011, -0.134, 0.003, 0.048, 1
34295, -0.029, 0.028, -0.254, -0.062, 0.012, 0.025, 1
34315, -0.013, -0.023, -0.267, -0.028, 0.006, 0.039, 1
34335, -0.016, -0.104, -0.25, -0.039, 0.014, 0.05, 1
34355, -0.08, -0.13, -0.209, -0.068, 0.061, 0.09, 1
34375, -0.043, -0.124, -0.154, -0.113, 0.079, 0.107, 1
34395, -0.022, -0.041, -0.161, -0.107, 0.015, 0.084, 1
34415, -0.084, 0.012, -0.257, -0.073, -0.005, 0.081, 1
34435, -0.263, 0.048, -0.397, -0.032, 0.07, 0.098, 1
34455, -0.138, -0.09, -0.21, -0.063, 0.073, 0.099, 1
34475, -0.126, -0.042, -0.148, -0.098, 0.054, 0.078, 1
34495, -0.026, -0.063, -0.152, -0.091, 0.003, 0.034, 1
34515, 0.006, -0.038, -0.136, -0.077, 0.006, 0.039, 1
34535, 0.081, -0.076, -0.129, -0.044, 0.06, 0.056, 1
34555, 0.075, -0.101, -0.048, -0.066, 0.036, 0.068, 1
34575, -0.072, -0.077, -0.077, -0.095, 0.034, 0.049, 1
34595, -0.018, -0.041, -0.143, -0.095, 0.015, 0.042, 1
34615, -0.027, -0.02, -0.146, -0.069, 0.054, 0.061, 1
34635, -0.032, -0.037, -0.111, -0.069, 0.041, 0.058, 1
34655, 0.006, -0.075, -0.081, -0.108, 0.042, 0.073, 1
34675, -0.095, 0.017, -0.272, -0.104, 0.032, 0.094, 1
34695, -0.084, 0.008, -0.269, -0.049, 0.043, 0.078, 1
34715, -0.056, -0.04, -0.161, -0.015, 0.02, 0.054, 1
34735, 0.021, -0.164, 0.01, -0.051, 0.028, 0.061, 1
34755, 0.051, -0.104, -0.027, -0.109, 0.036, 0.069, 1
34775, -0.042, -0.015, -0.178, -0.102, 0.028, 0.08, 1
34795, -0.056, -0.022, -0.163, -0.04, 0.034, 0.072, 1
34815, -0.11, -0.072, -0.047, -0.03, 0.034, 0.081, 1
34835, -0.059, -0.047, -0.055, -0.086, 0.065, 0.078, 1
34855, -0.004, -0.018, -0.112, -0.114, 0.037, 0.055, 1
34875, -0.068, 0.02, -0.222, -0.108, 0.046, 0.059, 1
34895, 0.022, -0.154, -0.096, -0.076, 0.054, 0.074, 1
34915, -0.044, -0.122, -0.075, -0.094, 0.02, 0.048, 1
34935, -0.055, -0.087, -0.135, -0.084, -0.029, 0.027, 1
34955, 0.045, -0.085, -0.025, -0.096, 0.02, 0.033, 1
34975, 0.009, -0.013, -0.083, -0.105, 0.026, 0.047, 1
34995, -0.018, -0.009, -0.031, -0.083, 0.028, 0.037, 1
35015, -0.027, -0.1, 0.115, -0.074, 0.003, 0.029, 1
35035, -0.06, -0.168, 0.183, -0.113, 0.016, 0.04, 1
35055, 0.01, -0.17, 0.19, -0.186, 0.07, 0.054, 1
35075, 0.004, 0.058, -0.124, -0.225, 0.078, 0.044, 1
35095, -0.004, 0.025, -0.184, -0.226, 0.076, 0.042, 1
35115, 0.034, 0.006, -0.275, -0.222, 0.07, 0.06, 1
35135, -0.077, -0.184, -0.133, -0.182, 0.047, 0.083, 1
35155, 0.008, -0.23, 0.0, -0.161, 0.029, 0.072, 1
35175, -0.063, -0.045, -0.215, -0.15, 0.047, 0.065, 1
35195, -0.15, 0.218, -0.428, -0.173, 0.098, 0.086, 1
35215, -0.275, 0.139, -0.473, -0.159, 0.058, 0.066, 1
35235, -0.201, -0.083, -0.245, -0.161, 0.003, 0.059, 1
35255, -0.152, -0.268, -0.296, -0.054, -0.037, 0.018, 1
35275, -0.065, -0.584, -0.016, -0.163, 0.036, 0.007, 1
35295, 0.005, -0.173, -0.148, -0.229, 0.128, 0.007, 1
35315, 0.104, 0.027, -0.338, -0.163, 0.084, -0.031, 1
35335, 0.287, 0.076, -0.307, -0.077, -0.036, -0.007, 0
35355, 0.198, 0.11, -0.329, 0.133, -0.025, 0.011, 0
35375, 0.18, -0.113, 0.028, -0.026, 0.072, 0.042, 0
35395, 0.276, 0.365, -0.295, 0.053, 0.029, 0.075, 0
35415, 0.045, 0.584, -0.517, 0.312, 0.023, 0.128, 0
35435, 0.008, 0.062, -0.141, 0.2, 0.034, 0.145, 0
35455, -0.047, 0.372, -0.132, -0.067, 0.071, 0.18, 0
35475, -0.687, 1.096, -0.783, -0.027, 0.163, 0.206, 0
35495, -0.672, 1.05, -0.81, 0.08, 0.119, 0.136, 0
35515, -0.686, 0.561, -0.41, 0.034, 0.02, 0.043, 0
35535, -0.514, 0.586, -0.352, 0.045, 0.016, 0.02, 0
35555, -0.286, 0.434, -0.087, 0.067, 0.051, 0.034, 0
35575, -0.031, 0.072, 0.314, -0.04, 0.049, 0.015, 0
35595, 0.035, -0.084, 0.752, -0.085, 0.048, 0.072, 0
35615, -0.114, -0.46, 1.082, -0.125, 0.119, 0.131, 0
35635, -0.114, -0.609, 1.236, -0.177, 0.085, 0.113, 0
35655, -0.395, -0.696, 1.554, -0.254, 0.024, 0.095, 0
35675, -0.39, -0.78, 1.905, -0.39, 0.054, 0.095, 0
35695, -0.538, -0.719, 1.911, -0.459, 0.035, 0.104, 0
35715, -0.523, -0.69, 2.036, -0.566, 0.056, 0.056, 0
35735, -0.278, -0.744, 1.994, -0.652, -0.022, -0.01, 0
35755, -0.144, -1.606, 2.208, -0.776, -0.082, -0.037, 0
35775, 0.001, -2.288, 2.228, -1.004, -0.093, 0.006, 0
35795, 0.249, -2.039, 1.953, -1.219, -0.109, 0.025, 0
35815, 0.524, -2.03, 1.799, -1.297, -0.299, -0.007, 0
35835, 0.348, -2.166, 1.609, -1.284, -0.367, 0.025, 0
35855, 0.48, -2.72, 1.726, -1.348, -0.161, 0.119, 0
35875, 0.354, -2.088, 0.741, -1.599, -0.065, 0.185, 0
35895, -0.36, -1.519, -0.272, -1.47, -0.113, 0.12, 0
35915, -0.463, -1.498, -0.855, -1.276, -0.08, 0.066, 0
35935, -0.11, -1.63, -1.353, -1.172, -0.025, 0.044, 0
35955, 0.01, -1.585, -1.606, -1.12, -0.036, 0.031, 0
35975, -0.484, -0.906, -2.058, -1.083, 0.029, 0.043, 0
35995, -0.772, -0.604, -2.399, -0.887, 0.135, -0.012, 0
36015, -0.01, -0.884, -2.244, -0.726, 0.165, -0.11, 0
36035, 0.407, -0.943, -1.994, -0.663, -0.009, -0.12, 0
36055, -0.235, -0.292, -2.151, -0.55, 0.142, 0.031, 0
36075, -0.32, 0.257, -2.559, -0.439, 0.562, 0.007, 0
36095, 0.325, 0.13, -2.504, -0.353, 0.226, -0.103, 0
36115, 0.141, -0.092, -2.311, -0.321, 0.093, -0.072, 0
36135, -0.066, 0.195, -2.37, -0.324, 0.355, 0.091, 0
36155, -0.22, 0.893, -3.031, -0.064, 0.469, 0.089, 0
36175, -0.251, 0.788, -2.872, 0.149, 0.375, 0.059, 0
36195, -0.257, 0.533, -2.398, 0.171, 0.409, 0.054, 0
36215, -0.214, 0.726, -2.128, 0.126, 0.466, 0.137, 0
36235, -0.525, 1.582, -2.636, 0.342, 0.495, 0.046, 0
36255, -0.183, 1.546, -2.558, 0.559, 0.307, 0.0, 0
36275, -0.208, 1.012, -2.078, 0.577, 0.285, 0.001, 0
36295, 0.049, 1.064, -1.717, 0.504, 0.305, 0.109, 0
36315, -0.129, 1.489, -1.784, 0.661, 0.263, 0.043, 0
36335, -0.157, 1.795, -1.513, 0.806, 0.169, 0.024, 0
36355, -0.327, 1.847, -1.172, 0.858, 0.225, 0.063, 0
36375, -0.447, 2.101, -0.89, 0.877, 0.236, 0.072, 0
36395, -0.345, 2.103, -0.57, 0.896, 0.139, 0.042, 0
36415, -0.415, 1.962, -0.309, 0.909, 0.045, -0.017, 0
36435, -0.319, 1.67, 0.067, 0.898, 0.047, -0.036, 0
36455, -0.127, 1.533, 0.324, 0.842, 0.056, -0.006, 0
36475, -0.094, 1.478, 0.413, 0.81, 0.056, 0.001, 0
36495, 0.027, 1.276, 0.579, 0.82, -0.026, -0.012, 0
36515, 0.211, 0.993, 0.852, 0.798, -0.073, 0.017, 0
36535, 0.143, 0.554, 1.27, 0.709, -0.096, 0.114, 0
36555, -0.168, 0.347, 1.403, 0.689, -0.07, 0.11, 0
36575, -0.705, -0.161, 1.206, 0.665, -0.135, 0.126, 0
36595, -0.964, -0.286, 1.154, 0.639, -0.061, 0.108, 0
36615, -0.806, -0.366, 1.188, 0.663, -0.097, 0.011, 0
36635, -0.698, -0.474, 1.188, 0.712, -0.23, -0.054, 0
36655, -0.583, -1.086, 1.489, 0.631, -0.229, -0.115, 0
36675, -0.078, -1.365, 1.543, 0.423, -0.218, -0.092, 0
36695, 0.026, -1.407, 1.567, 0.235, -0.16, -0.045, 0
36715, 0.19, -1.6, 1.522, 0.166, -0.149, -0.051, 0
36735, -0.071, -2.185, 1.613, 0.08, -0.133, -0.032, 0
36755, 0.275, -2.035, 1.336, -0.127, -0.049, -0.009, 0
36775, 0.289, -1.236, 0.557, -0.125, -0.097, -0.004, 0
36795, 0.278, -1.634, 0.688, -0.018, -0.139, 0.021, 0
36815, 0.425, -2.2, 1.047, -0.114, -0.103, 0.053, 0
36835, 0.599, -2.512, 1.143, -0.257, -0.105, 0.131, 0
36855, 0.385, -2.405, 0.924, -0.316, -0.136, 0.25, 0
36875, -0.124, -1.946, 0.361, -0.231, -0.056, 0.193, 0
36895, -0.422, -1.969, 0.129, -0.136, -0.089, 0.133, 0
36915, -0.467, -2.268, 0.094, -0.137, 0.018, 0.144, 0
36935, -0.116, -2.246, 0.133, -0.26, 0.096, 0.185, 0
36955, -0.168, -1.432, -0.408, -0.274, 0.017, 0.237, 1
36975, -0.047, -1.252, -0.663, -0.02, -0.11, 0.137, 1
36995, -0.247, -1.415, -0.246, 0.095, -0.199, 0.155, 1
37015, -0.259, -1.302, 0.018, -0.091, -0.091, 0.185, 1
37035, -0.229, -0.651, -0.166, -0.193, -0.052, 0.155, 1
37055, -0.165, -0.23, -0.211, -0.055, -0.167, 0.097, 1
37075, -0.268, -0.286, -0.197, -0.012, -0.091, 0.124, 1
37095, -0.185, -0.399, -0.15, -0.031, -0.006, 0.141, 1
37115, -0.132, -0.435, 0.007, -0.15, 0.009, 0.127, 1
37135, -0.078, -0.107, -0.12, -0.162, 0.001, 0.081, 1
37155, -0.125, 0.002, -0.353, -0.103, -0.001, 0.052, 1
37175, -0.024, -0.05, -0.258, -0.108, 0.003, 0.055, 1
37195, -0.015, -0.074, -0.159, -0.127, 0.028, 0.084, 1
37215, 0.038, -0.131, -0.002, -0.16, 0.028, 0.083, 1
37235, -0.032, 0.01, -0.257, -0.065, -0.015, 0.038, 1
37255, -0.101, -0.035, -0.322, -0.044, 0.014, 0.038, 1
37275, -0.071, -0.041, -0.307, -0.055, 0.014, 0.02, 1
37295, -0.048, -0.248, -0.116, -0.145, 0.054, 0.036, 1
37315, 0.038, -0.096, -0.228, -0.106, 0.027, 0.014, 1
37335, 0.211, -0.136, -0.193, -0.056, -0.018, 0.027, 1
37355, 0.112, -0.079, -0.178, -0.037, -0.016, 0.049, 1
37375, -0.073, -0.103, -0.08, -0.086, 0.038, 0.075, 1
37395, -0.027, -0.069, -0.027, -0.135, 0.034, 0.067, 1
37415, 0.027, -0.06, -0.036, -0.127, -0.018, 0.049, 1
37435, 0.037, -0.032, 0.025, -0.102, -0.024, 0.066, 1
37455, -0.02, 0.003, -0.011, -0.056, 0.006, 0.077, 1
37475, -0.234, 0.053, -0.111, -0.056, 0.067, 0.074, 1
37495, -0.222, -0.092, -0.012, -0.13, 0.063, 0.064, 1
37515, -0.171, 0.0, -0.122, -0.132, 0.054, 0.036, 1
37535, -0.042, -0.037, -0.251, -0.092, 0.042, 0.032, 1
37555, 0.081, -0.135, -0.217, -0.077, 0.032, 0.029, 1
37575, 0.014, -0.126, -0.208, -0.096, 0.015, 0.05, 1
37595, 0.034, -0.084, -0.154, -0.114, 0.042, 0.074, 1
37615, -0.046, 0.001, -0.109, -0.098, 0.024, 0.066, 1
37635, -0.143, -0.009, 0.048, -0.083, -0.02, 0.038, 1
37655, -0.07, -0.043, 0.029, -0.104, 0.023, 0.039, 1
37675, 0.04, -0.116, 0.077, -0.107, 0.052, 0.058, 1
37695, 0.114, -0.082, 0.034, -0.108, 0.032, 0.048, 1
37715, 0.063, -0.177, 0.048, -0.091, -0.023, 0.019, 1
37735, -0.027, -0.052, -0.083, -0.145, 0.009, 0.067, 1
37755, -0.077, 0.031, -0.227, -0.152, 0.072, 0.1, 1
37775, -0.027, 0.001, -0.291, -0.13, 0.048, 0.077, 1
37795, -0.052, -0.068, -0.288, -0.067, 0.007, 0.057, 1
37815, 0.004, -0.262, -0.09, -0.071, 0.017, 0.056, 1
37835, -0.037, -0.133, -0.154, -0.149, 0.036, 0.077, 1
37855, -0.076, 0.014, -0.307, -0.174, 0.077, 0.092, 1
37875, -0.066, -0.008, -0.327, -0.094, 0.054, 0.075, 1
37895, -0.078, -0.081, -0.19, -0.052, 0.028, 0.058, 1
37915, -0.093, -0.205, -0.084, -0.048, 0.016, 0.06, 1
37935, 0.029, -0.318, 0.075, -0.109, 0.031, 0.062, 1
37955, -0.033, -0.042, -0.084, -0.149, 0.017, 0.037, 1
37975, 0.008, -0.035, -0.125, -0.08, 0.04, 0.045, 1
37995, -0.009, -0.03, -0.074, -0.072, 0.046, 0.07, 1
38015, -0.148, -0.131, 0.025, -0.158, 0.065, 0.091, 1
38035, -0.139, 0.136, -0.19, -0.154, 0.04, 0.073, 1
38055, -0.182, 0.181, -0.281, -0.089, 0.02, 0.042, 1
38075, -0.181, 0.073, -0.251, -0.056, 0.034, 0.033, 1
38095, -0.142, -0.055, -0.152, -0.075, 0.057, 0.033, 1
38115, -0.042, -0.063, -0.127, -0.12, 0.039, 0.031, 1
38135, -0.025, -0.046, -0.229, -0.099, 0.02, 0.002, 1
38155, 0.038, -0.015, -0.198, -0.053, 0.019, -0.009, 1
38175, -0.002, -0.064, -0.108, -0.054, 0.076, 0.014, 1
38195, 0.071, -0.183, -0.038, -0.124, 0.081, 0.047, 1
38215, 0.024, -0.176, -0.124, -0.193, 0.077, 0.042, 1
38235, 0.101, -0.045, -0.267, -0.18, 0.029, 0.03, 1
38255, -0.047, -0.034, -0.343, -0.16, 0.055, 0.031, 1
38275, -0.063, -0.111, -0.307, -0.191, 0.064, 0.065, 1
38295, -0.208, -0.162, -0.241, -0.279, 0.095, 0.108, 1
38315, -0.013, 0.173, -0.394, -0.164, 0.017, 0.098, 1
38335, -0.108, 0.367, -0.588, 0.12, -0.11, 0.012, 0
38355, -0.407, 0.429, -0.308, 0.166, -0.061, 0.018, 0
38375, -0.207, -0.17, -0.183, -0.059, -0.016, 0.027, 0
38395, -0.044, 0.117, -0.362, -0.076, -0.072, 0.025, 0
38415, -0.259, 0.063, -0.555, 0.017, -0.027, -0.031, 0
38435, 0.119, 0.298, -0.571, 0.26, -0.136, -0.066, 0
38455, 0.039, 0.201, -0.614, 0.537, -0.14, -0.02, 0
38475, -0.017, -0.462, 0.066, 0.322, -0.002, 0.032, 0
38495, -0.015, -0.205, 0.199, -0.062, 0.167, 0.161, 0
38515, 0.096, 0.192, 0.081, -0.097, 0.203, 0.127, 0
38535, 0.201, 0.136, 0.373, -0.103, 0.125, 0.056, 0
38555, 0.053, -0.043, 0.441, -0.119, 0.073, 0.082, 0
38575, 0.096, -0.309, 0.793, -0.188, 0.149, 0.132, 0
38595, -0.039, -0.115, 0.663, -0.236, 0.139, 0.135, 0
38615, -0.075, -0.108, 0.824, -0.248, 0.059, 0.089, 0
38635, -0.182, 0.003, 0.938, -0.299, 0.039, 0.086, 0
38655, -0.137, 0.029, 1.092, -0.275, 0.062, 0.112, 0
38675, -0.113, -0.469, 1.795, -0.285, 0.123, 0.138, 0
38695, 0.138, -0.457, 2.309, -0.514, 0.111, 0.112, 0
38715, -0.261, -0.371, 2.359, -0.711, -0.009, 0.098, 0
38735, -0.082, -0.275, 2.066, -0.82, -0.014, 0.083, 0
38755, -0.024, -0.835, 2.148, -0.819, -0.004, 0.086, 0
38775, 0.202, -1.363, 2.539, -1.067, -0.011, 0.095, 0
38795, -0.147, -1.232, 2.451, -1.37, -0.197, 0.11, 0
38815, -0.528, -1.379, 2.377, -1.488, -0.175, 0.128, 0
38835, -0.11, -1.843, 2.116, -1.569, -0.125, 0.105, 0
38855, -0.05, -1.779, 1.115, -1.654, -0.141, 0.094, 0
38875, -0.388, -1.309, 0.156, -1.699, -0.028, 0.131, 0
38895, -0.789, -1.235, -0.172, -1.52, -0.018, 0.102, 0
38915, -0.421, -1.703, -0.412, -1.29, -0.121, -0.073, 0
38935, 0.393, -2.045, -0.567, -1.357, -0.044, -0.098, 0
38955, 0.612, -1.323, -1.436, -1.462, 0.114, -0.036, 0
38975, 0.066, -0.436, -2.511, -1.127, 0.285, -0.08, 0
38995, -0.103, -0.494, -2.677, -0.824, 0.315, -0.131, 0
39015, 0.174, -0.979, -2.021, -0.861, 0.345, -0.105, 0
39035, 0.457, -0.432, -2.114, -0.875, 0.327, -0.089, 0
39055, 0.417, 0.374, -2.691, -0.621, 0.245, -0.111, 0
39075, 0.022, 0.452, -2.671, -0.415, 0.353, -0.043, 0
39095, 0.4, 0.162, -2.372, -0.368, 0.374, 0.009, 0
39115, 0.496, 0.434, -2.651, -0.169, 0.24, -0.051, 0
39135, 0.286, 0.564, -2.512, 0.018, 0.345, -0.012, 0
39155, 0.097, 0.685, -2.182, 0.094, 0.513, 0.092, 0
39175, 0.691, 0.328, -1.759, 0.099, 0.265, 0.096, 0
39195, 0.257, 0.466, -1.971, 0.042, 0.188, 0.241, 0
39215, -0.275, 1.154, -2.363, 0.146, 0.4, 0.266, 0
39235, -0.346, 1.383, -2.255, 0.351, 0.42, 0.251, 0
39255, 0.093, 1.088, -1.703, 0.434, 0.204, 0.25, 0
39275, -0.07, 0.507, -1.178, 0.274, 0.193, 0.348, 0
39295, -0.714, 1.211, -1.605, 0.196, 0.348, 0.417, 0
39315, -1.506, 2.666, -2.683, 0.576, 0.425, 0.243, 0
39335, -0.978, 2.242, -2.107, 0.725, 0.127, 0.153, 0
39355, -1.133, 1.555, -1.357, 0.628, 0.039, 0.16, 0
39375, -1.257, 1.662, -1.212, 0.728, 0.137, 0.11, 0
39395, -0.936, 2.071, -1.345, 0.976, 0.068, -0.051, 0
39415, -0.697, 1.726, -0.922, 0.947, 0.065, -0.039, 0
39435, -0.527, 1.66, -0.544, 0.837, 0.116, 0.014, 0
39455, -0.106, 1.518, -0.335, 0.817, 0.075, 0.061, 0
39475, 0.101, 1.556, 0.01, 0.84, -0.048, 0.059, 0
39495, -0.121, 1.244, 0.453, 0.802, -0.078, 0.083, 0
39515, -0.382, 1.383, 0.442, 0.738, -0.022, 0.119, 0
39535, -0.027, 0.88, 0.843, 0.737, -0.005, 0.098, 0
39555, 0.09, 0.407, 1.164, 0.736, -0.161, 0.058, 0
39575, -0.243, 0.138, 1.279, 0.617, -0.217, 0.084, 0
39595, -0.519, -0.205, 1.357, 0.493, -0.124, 0.115, 0
39615, -0.451, 0.019, 1.116, 0.476, -0.105, 0.056, 0
39635, -0.669, 0.054, 1.07, 0.545, -0.139, -0.007, 0
39655, -0.462, -0.426, 1.545, 0.415, -0.086, 0.003, 0
39675, -0.115, -0.694, 1.45, 0.209, -0.135, -0.001, 0
39695, 0.023, -0.477, 1.018, 0.259, -0.28, -0.083, 0
39715, 0.102, -0.452, 1.028, 0.426, -0.283, -0.109, 0
39735, 0.218, -0.966, 1.488, 0.368, -0.171, -0.078, 0
39755, 0.596, -1.642, 1.732, 0.113, -0.174, -0.058, 0
39775, 0.362, -1.767, 1.307, -0.127, -0.21, 0.035, 0
39795, 0.629, -1.795, 1.109, -0.22, -0.166, 0.088, 0
39815, 0.51, -1.99, 1.117, -0.173, -0.12, 0.084, 0
39835, 0.301, -2.757, 1.232, -0.138, -0.16, 0.083, 0
39855, 0.322, -2.763, 0.906, -0.253, -0.086, 0.166, 0
39875, 0.158, -2.241, 0.416, -0.307, 0.018, 0.235, 0
39895, -0.03, -2.229, 0.278, -0.263, -0.017, 0.234, 0
39915, -0.358, -2.303, 0.156, -0.185, -0.057, 0.262, 0
39935, -0.082, -2.403, 0.254, -0.224, 0.066, 0.293, 0
39955, 0.127, -1.682, -0.05, -0.296, -0.043, 0.263, 0
39975, -0.414, -1.317, -0.103, -0.248, -0.059, 0.251, 0
39995, -0.626, -1.039, -0.02, -0.243, 0.0, 0.245, 0
40015, -0.588, -0.498, -0.439, -0.086, 0.014, 0.194, 0
40035, -0.338, -0.217, -0.764, 0.18, -0.02, 0.125, 1
40055, -0.377, -0.691, -0.351, 0.081, 0.02, 0.121, 1
40075, -0.379, -0.396, -0.033, -0.214, 0.096, 0.133, 1
40095, -0.299, -0.076, -0.333, -0.232, 0.035, 0.076, 1
40115, -0.21, 0.076, -0.466, -0.086, -0.053, -0.007, 1
40135, -0.026, -0.067, -0.397, -0.033, -0.042, -0.02, 1
40155, 0.198, -0.251, -0.205, -0.098, 0.027, 0.031, 1
40175, 0.259, -0.194, -0.276, -0.09, 0.005, 0.044, 1
40195, 0.17, -0.053, -0.338, -0.026, -0.049, 0.036, 1
40215, -0.024, -0.016, -0.346, 0.023, -0.045, 0.038, 1
40235, -0.103, -0.033, -0.268, 0.063, -0.025, 0.034, 1
40255, -0.022, -0.268, 0.108, -0.032, 0.02, 0.054, 1
40275, -0.01, -0.22, 0.115, -0.137, 0.055, 0.077, 1
40295, 0.063, -0.038, -0.122, -0.076, 0.018, 0.032, 1
40315, 0.038, 0.014, -0.213, -0.003, -0.033, 0.028, 1
40335, -0.068, 0.018, -0.207, 0.036, 0.0, 0.065, 1
40355, -0.052, -0.299, 0.112, -0.104, 0.083, 0.105, 1
40375, -0.027, -0.006, -0.127, -0.106, 0.031, 0.073, 1
40395, -0.073, -0.068, -0.155, -0.058, -0.016, 0.047, 1
40415, -0.023, -0.083, -0.14, -0.049, 0.001, 0.056, 1
40435, 0.085, -0.225, 0.066, -0.119, 0.043, 0.087, 1
40455, 0.0, -0.045, -0.134, -0.122, 0.039, 0.065, 1
40475, -0.097, -0.02, -0.265, -0.084, 0.014, 0.067, 1
40495, -0.028, -0.043, -0.178, -0.069, 0.024, 0.077, 1
40515, -0.13, -0.107, -0.059, -0.1, 0.024, 0.095, 1
40535, -0.047, -0.038, -0.156, -0.132, 0.083, 0.095, 1
40555, 0.001, -0.008, -0.242, -0.127, 0.065, 0.065, 1
40575, -0.046, -0.034, -0.246, -0.064, 0.004, 0.046, 1
40595, 0.051, -0.161, -0.071, -0.042, 0.003, 0.048, 1
40615, 0.075, -0.123, -0.097, -0.102, 0.03, 0.074, 1
40635, -0.062, 0.003, -0.288, -0.084, 0.05, 0.076, 1
40655, -0.144, -0.02, -0.353, -0.027, 0.026, 0.054, 1
40675, -0.035, -0.041, -0.209, -0.031, 0.014, 0.042, 1
40695, -0.031, -0.028, -0.173, -0.058, 0.006, 0.066, 1
40715, 0.025, -0.187, 0.019, -0.032, 0.035, 0.067, 1
40735, -0.025, -0.035, -0.041, -0.105, 0.043, 0.078, 1
40755, -0.103, 0.089, -0.165, -0.089, 0.036, 0.067, 1
40775, -0.028, -0.007, -0.118, -0.032, -0.023, 0.039, 1
40795, -0.056, -0.124, -0.049, -0.009, 0.006, 0.046, 1
40815, 0.121, -0.108, 0.026, -0.113, 0.055, 0.064, 1
40835, -0.09, 0.051, -0.156, -0.137, 0.029, 0.071, 1
40855, -0.059, -0.003, -0.156, -0.073, 0.043, 0.038, 1
40875, 0.031, -0.252, 0.006, -0.051, 0.018, 0.023, 1
40895, 0.052, -0.223, -0.023, -0.111, 0.023, 0.047, 1
40915, 0.079, -0.132, -0.096, -0.167, 0.055, 0.078, 1
40935, 0.003, 0.029, -0.311, -0.105, 0.022, 0.051, 1
40955, -0.094, -0.08, -0.289, -0.055, 0.041, 0.061, 1
40975, 0.083, -0.196, -0.032, -0.106, 0.054, 0.081, 1
40995, 0.02, -0.081, -0.041, -0.128, 0.013, 0.067, 1
41015, -0.062, -0.064, -0.106, -0.118, 0.023, 0.08, 1
41035, -0.11, 0.0, -0.157, -0.089, 0.069, 0.089, 1
41055, -0.052, -0.015, -0.116, -0.125, 0.055, 0.074, 1
41075, -0.033, -0.013, -0.131, -0.13, 0.022, 0.062, 1
41095, -0.076, -0.173, 0.039, -0.166, 0.029, 0.065, 1
41115, -0.027, -0.014, -0.161, -0.091, 0.02, 0.064, 1
41135, -0.011, -0.051, -0.044, -0.062, 0.048, 0.067, 1
41155, 0.116, -0.029, 0.013, -0.116, 0.017, 0.063, 1
41175, -0.069, -0.014, -0.157, -0.066, 0.001, 0.069, 1
41195, -0.053, -0.291, 0.132, -0.193, 0.047, 0.07, 1
41215, -0.039, 0.044, -0.088, -0.128, 0.01, 0.051, 1
41235, -0.054, -0.07, -0.104, -0.105, 0.01, 0.039, 1
41255, 0.019, -0.07, -0.002, -0.175, 0.01, 0.047, 1
41275, -0.031, 0.015, -0.262, -0.083, -0.012, 0.04, 1
41295, -0.082, -0.117, -0.278, -0.065, 0.034, 0.032, 1
41315, 0.066, -0.259, -0.255, -0.155, 0.061, 0.021, 1
41335, 0.155, -0.117, -0.382, -0.204, 0.045, 0.034, 1
41355, 0.052, -0.07, -0.305, -0.163, 0.012, 0.076, 1
41375, -0.117, 0.017, -0.416, -0.001, 0.0, 0.059, 1
41395, -0.133, -0.478, -0.108, -0.064, 0.022, 0.063, 1
41415, -0.001, -0.216, -0.177, -0.172, 0.058, 0.112, 1
41435, -0.1, 0.111, -0.318, -0.119, 0.065, 0.091, 1
41455, -0.241, -0.154, -0.24, 0.022, -0.005, 0.05, 1
41475, -0.101, -0.408, -0.19, 0.06, 0.006, 0.043, 1
41495, 0.076, -0.426, -0.114, -0.068, 0.044, 0.06, 1
41515, 0.043, -0.109, -0.333, -0.104, 0.081, 0.062, 1
41535, -0.109, -0.079, -0.38, -0.041, 0.054, 0.05, 1
41555, -0.076, -0.089, -0.32, 0.061, 0.042, 0.014, 1
41575, 0.068, -0.362, -0.082, 0.08, 0.064, 0.05, 1
41595, 0.089, -0.289, 0.034, -0.081, 0.107, 0.111, 1
41615, -0.055, 0.028, -0.279, -0.067, 0.084, 0.115, 1
41635, -0.086, 0.054, -0.17, 0.044, 0.071, 0.08, 1
41655, -0.089, 0.092, 0.05, -0.012, 0.133, 0.13, 1
41675, -0.13, 0.162, 0.125, -0.117, 0.133, 0.155, 1
41695, -0.254, 0.236, -0.028, -0.116, 0.054, 0.111, 1
41715, -0.087, 0.024, -0.044, -0.018, -0.022, 0.035, 1
41735, 0.012, 0.009, 0.04, -0.039, 0.028, 0.034, 1
41755, 0.055, 0.063, 0.131, -0.16, 0.089, 0.073, 1
41775, -0.112, 0.149, -0.01, -0.208, 0.075, 0.073, 1
41795, -0.176, 0.163, -0.265, -0.109, -0.003, 0.032, 0
41815, 0.004, -0.088, -0.21, 0.073, -0.062, -0.045, 0
41835, 0.116, -0.568, 0.167, -0.046, -0.042, -0.007, 0
41855, 0.161, -0.007, -0.242, -0.199, 0.031, 0.064, 0
41875, 0.303, 0.02, -0.389, -0.039, 0.058, 0.128, 0
41895, 0.066, 0.111, -0.659, 0.241, -0.011, 0.13, 0
41915, -0.171, -0.179, -0.449, 0.047, 0.122, 0.153, 0
41935, -0.089, 0.214, -0.686, -0.142, 0.097, 0.154, 0
41955, -0.457, 0.562, -1.147, -0.015, 0.017, 0.084, 0
41975, -0.488, 0.354, -1.043, 0.122, -0.01, 0.021, 0
41995, -0.211, 0.08, -0.538, 0.061, 0.008, 0.045, 0
42015, -0.071, 0.092, -0.255, 0.08, -0.018, 0.064, 0
42035, -0.189, -0.035, 0.147, 0.009, 0.027, 0.042, 0
42055, 0.002, 0.211, 0.296, 0.031, 0.014, 0.014, 0
42075, 0.119, 0.041, 0.822, 0.008, 0.056, 0.023, 0
42095, 0.298, -0.128, 1.397, -0.08, 0.076, 0.034, 0
42115, 0.566, -0.382, 2.092, -0.283, 0.12, 0.087, 0
42135, 0.307, -0.558, 2.182, -0.385, 0.053, 0.077, 0
42155, -0.026, -0.667, 2.408, -0.519, 0.092, 0.105, 0
42175, -0.023, -0.965, 2.793, -0.785, 0.102, 0.125, 0
42195, -0.2, -0.549, 2.249, -0.769, -0.022, 0.054, 0
42215, -0.136, -0.906, 2.274, -0.772, -0.056, 0.039, 0
42235, -0.195, -1.61, 2.517, -1.056, 0.023, 0.064, 0
42255, 0.117, -1.71, 2.247, -1.294, -0.059, 0.097, 0
42275, -0.115, -2.117, 1.795, -1.401, -0.092, 0.085, 0
42295, 0.092, -2.465, 1.329, -1.457, -0.101, 0.093, 0
42315, 0.357, -2.635, 0.956, -1.501, -0.147, 0.111, 0
42335, 0.005, -2.394, 0.489, -1.5, -0.105, 0.168, 0
42355, -0.698, -1.957, -0.458, -1.332, 0.005, 0.17, 0
42375, -0.712, -2.145, -1.188, -1.151, -0.018, 0.004, 0
42395, -0.61, -2.492, -0.873, -1.171, -0.078, -0.032, 0
42415, -1.189, -1.222, -1.678, -1.062, 0.05, -0.031, 0
42435, -0.673, -1.107, -2.091, -0.822, 0.247, -0.084, 0
42455, 0.132, -1.481, -1.864, -0.727, 0.094, -0.183, 0
42475, -0.031, -1.142, -1.903, -0.693, 0.015, -0.179, 0
42495, 0.198, -1.076, -1.675, -0.515, 0.195, -0.153, 0
42515, 0.453, -0.503, -1.853, -0.383, 0.263, -0.087, 0
42535, -0.352, 0.15, -2.296, -0.321, 0.335, 0.021, 0
42555, -0.059, 0.254, -2.218, -0.252, 0.364, -0.029, 0
42575, -0.065, 0.275, -2.115, -0.241, 0.085, -0.111, 0
42595, -0.354, 0.909, -2.646, -0.103, 0.061, -0.189, 0
42615, -0.606, 1.258, -2.794, 0.032, 0.35, -0.023, 0
42635, 0.204, 0.99, -2.389, 0.084, 0.412, 0.068, 0
42655, -0.106, 0.679, -2.189, 0.098, 0.1, 0.04, 0
42675, 0.225, 0.421, -1.858, 0.232, 0.007, -0.08, 0
42695, 0.154, 0.406, -1.393, 0.279, 0.058, -0.013, 0
42715, 0.054, 0.996, -1.542, 0.233, 0.306, 0.13, 0
42735, -0.081, 1.248, -1.888, 0.279, 0.369, 0.179, 0
42755, 0.014, 1.164, -1.689, 0.414, 0.232, 0.051, 0
42775, -0.132, 1.153, -1.333, 0.441, 0.078, 0.05, 0
42795, -0.392, 1.235, -1.269, 0.492, 0.098, 0.111, 0
42815, -0.262, 1.311, -1.292, 0.532, 0.228, 0.18, 0
42835, -0.111, 1.559, -1.539, 0.563, 0.209, 0.174, 0
42855, -0.257, 1.416, -1.4, 0.661, 0.042, 0.162, 0
42875, -0.704, 1.295, -1.118, 0.762, -0.01, 0.155, 0
42895, -0.869, 0.992, -0.629, 0.766, 0.067, 0.125, 0
42915, -0.394, 0.767, -0.213, 0.744, 0.032, 0.093, 0
42935, -0.495, 0.899, -0.071, 0.764, 0.065, 0.08, 0
42955, -0.488, 0.718, 0.236, 0.751, 0.142, 0.088, 0
42975, -0.196, 0.37, 0.472, 0.72, 0.116, 0.039, 0
42995, 0.198, 0.193, 0.585, 0.654, 0.029, 0.056, 0
43015, -0.126, 0.449, 0.464, 0.64, 0.101, 0.137, 0
43035, -0.036, 0.085, 0.865, 0.631, 0.133, 0.134, 0
43055, -0.007, -0.297, 1.241, 0.546, 0.002, 0.088, 0
43075, 0.069, -0.536, 1.396, 0.45, -0.11, 0.093, 0
43095, -0.433, -0.309, 1.061, 0.411, -0.01, 0.134, 0
43115, -0.453, -0.537, 1.334, 0.318, 0.069, 0.164, 0
43135, -0.648, -0.491, 1.31, 0.273, 0.07, 0.112, 0
43155, -0.398, -0.571, 1.235, 0.188, 0.029, 0.084, 0
43175, -0.043, -0.815, 1.092, 0.116, -0.057, 0.041, 0
43195, 0.222, -0.618, 0.978, 0.119, -0.149, 0.054, 0
43215, 0.014, -0.809, 1.079, 0.182, -0.067, 0.082, 0
43235, -0.017, -1.331, 1.493, 0.047, 0.04, 0.152, 0
43255, 0.036, -1.431, 1.19, -0.002, 0.029, 0.148, 0
43275, 0.208, -1.785, 1.181, -0.04, -0.059, 0.147, 0
43295, 0.143, -1.959, 1.052, -0.076, -0.132, 0.144, 0
43315, -0.216, -1.967, 0.873, -0.122, -0.105, 0.17, 0
43335, -0.279, -1.735, 0.714, -0.144, -0.004, 0.197, 0
43355, -0.139, -2.081, 0.654, -0.244, -0.027, 0.22, 0
43375, -0.016, -1.967, 0.29, -0.301, -0.065, 0.204, 0
43395, -0.298, -1.899, 0.11, -0.276, -0.19, 0.169, 0
43415, -0.44, -1.809, -0.246, -0.264, -0.127, 0.188, 0
43435, -0.27, -1.911, -0.209, -0.196, -0.009, 0.219, 0
43455, -0.267, -1.591, -0.211, -0.193, 0.002, 0.244, 0
43475, -0.451, -1.1, -0.362, -0.194, -0.056, 0.238, 0
43495, -0.724, -0.699, -0.536, -0.166, -0.062, 0.229, 0
43515, -0.594, -0.459, -0.573, -0.06, -0.05, 0.138, 0
43535, -0.257, -0.414, -0.374, -0.014, -0.022, 0.117, 1
43555, -0.096, -0.164, -0.114, -0.059, 0.045, 0.114, 1
43575, 0.002, -0.534, -0.049, -0.078, -0.014, 0.072, 1
43595, -0.102, -0.26, -0.123, -0.208, -0.056, 0.079, 1
43615, -0.067, -0.08, -0.316, -0.198, -0.039, 0.083, 1
43635, 0.056, 0.024, -0.397, -0.112, -0.093, 0.036, 1
43655, -0.024, -0.079, -0.285, -0.047, -0.104, 0.029, 1
43675, 0.064, -0.247, -0.12, -0.069, -0.031, 0.039, 1
43695, 0.091, -0.187, -0.117, -0.141, 0.001, 0.064, 1
43715, 0.003, -0.017, -0.275, -0.139, 0.025, 0.075, 1
43735, 0.091, 0.055, -0.346, -0.036, -0.04, 0.014, 1
43755, -0.068, -0.101, -0.247, 0.066, -0.075, 0.004, 1
43775, -0.013, -0.171, -0.104, -0.026, 0.009, 0.051, 1
43795, -0.086, 0.033, -0.335, -0.141, 0.058, 0.095, 1
43815, -0.064, 0.003, -0.238, -0.084, -0.002, 0.064, 1
43835, -0.038, 0.004, -0.248, -0.03, -0.03, 0.05, 1
43855, 0.13, -0.246, -0.002, -0.01, 0.004, 0.086, 1
43875, -0.006, -0.364, 0.231, -0.136, 0.108, 0.13, 1
43895, -0.023, -0.09, 0.044, -0.165, 0.074, 0.089, 1
43915, -0.024, -0.021, -0.197, -0.13, -0.004, 0.057, 1
43935, -0.046, -0.015, -0.35, -0.069, 0.033, 0.08, 1
43955, -0.023, -0.189, -0.135, -0.102, 0.068, 0.116, 1
43975, -0.157, -0.106, -0.062, -0.152, 0.069, 0.113, 1
43995, -0.111, -0.044, -0.108, -0.131, 0.017, 0.067, 1
44015, -0.075, -0.014, -0.23, -0.07, 0.001, 0.049, 1
44035, -0.042, -0.012, -0.276, -0.034, 0.034, 0.059, 1
44055, 0.013, -0.157, -0.128, -0.084, 0.048, 0.069, 1
44075, -0.048, -0.091, -0.121, -0.122, 0.053, 0.062, 1
44095, 0.006, -0.057, -0.196, -0.064, 0.014, 0.05, 1
44115, 0.016, -0.06, -0.183, -0.025, 0.025, 0.058, 1
44135, 0.028, -0.116, -0.115, -0.047, 0.03, 0.076, 1
44155, -0.003, -0.212, 0.0, -0.157, 0.045, 0.102, 1
44175, -0.095, 0.02, -0.223, -0.117, 0.054, 0.081, 1
44195, -0.058, -0.001, -0.204, -0.046, 0.022, 0.059, 1
44215, -0.068, -0.062, -0.074, -0.054, 0.034, 0.067, 1
44235, -0.013, -0.049, -0.005, -0.118, 0.052, 0.086, 1
44255, -0.021, -0.036, -0.079, -0.147, 0.062, 0.086, 1
44275, -0.014, -0.014, -0.2, -0.089, 0.017, 0.058, 1
44295, -0.017, -0.023, -0.114, -0.046, -0.007, 0.056, 1
44315, 0.026, -0.121, 0.03, -0.051, -0.009, 0.056, 1
44335, 0.02, -0.127, 0.184, -0.133, 0.009, 0.072, 1
44355, -0.098, 0.011, -0.043, -0.134, 0.02, 0.066, 1
44375, -0.018, 0.043, -0.221, -0.122, 0.031, 0.068, 1
44395, -0.059, -0.027, -0.167, -0.081, 0.029, 0.075, 1
44415, -0.056, -0.114, -0.074, -0.08, 0.017, 0.073, 1
44435, -0.079, -0.133, -0.09, -0.117, 0.036, 0.075, 1
44455, -0.026, -0.054, -0.213, -0.155, 0.047, 0.076, 1
44475, 0.016, 0.016, -0.38, -0.147, 0.007, 0.06, 1
44495, -0.051, -0.082, -0.334, -0.096, 0.0, 0.069, 1
44515, -0.047, -0.047, -0.296, -0.088, 0.025, 0.073, 1
44535, -0.045, -0.115, -0.163, -0.049, 0.042, 0.075, 1
44555, 0.033, -0.094, -0.094, -0.066, 0.01, 0.047, 1
44575, -0.028, -0.033, -0.145, -0.105, -0.005, 0.048, 1
44595, 0.009, 0.008, -0.223, -0.12, 0.045, 0.072, 1
44615, -0.048, -0.026, -0.204, -0.1, 0.033, 0.062, 1
44635, -0.104, -0.114, -0.084, -0.08, 0.03, 0.061, 1
44655, -0.054, -0.203, 0.0, -0.128, 0.067, 0.072, 1
44675, -0.028, -0.049, -0.046, -0.218, 0.065, 0.039, 1
44695, -0.079, 0.097, -0.275, -0.187, 0.04, 0.029, 1
44715, -0.09, -0.006, -0.227, -0.117, 0.068, 0.032, 1
44735, 0.027, -0.062, -0.111, -0.153, 0.073, 0.03, 1
44755, -0.105, -0.066, -0.246, -0.089, 0.032, 0.063, 1
44775, -0.004, -0.127, -0.247, 0.042, 0.031, 0.045, 1
44795, -0.047, -0.219, -0.225, 0.094, -0.006, 0.003, 1
44815, -0.049, -0.107, -0.166, -0.151, 0.119, 0.054, 1
44835, 0.006, 0.1, -0.193, -0.199, 0.105, 0.092, 1
44855, -0.111, 0.282, -0.317, -0.03, 0.039, 0.072, 1
44875, -0.057, 0.042, -0.183, 0.085, -0.018, 0.017, 1
44895, 0.0, -0.403, 0.365, -0.217, 0.078, 0.054, 1
44915, -0.049, -0.04, -0.041, -0.309, 0.127, 0.058, 0
44935, 0.094, 0.208, -0.031, -0.321, 0.067, 0.044, 0
44955, -0.039, 0.543, -0.431, -0.144, -0.065, -0.015, 0
44975, -0.033, 0.558, -0.913, 0.27, -0.118, 0.001, 0
44995, 0.133, -0.211, -0.374, 0.299, -0.056, 0.018, 0
45015, 0.31, -0.425, 0.119, -0.049, 0.018, 0.117, 0
45035, 0.016, 0.168, -0.54, -0.02, 0.097, 0.152, 0
45055, 0.038, 0.453, -0.79, 0.091, 0.037, 0.086, 0
45075, -0.275, 0.661, -1.164, 0.2, -0.001, 0.045, 0
45095, -0.368, 0.283, -0.962, 0.122, 0.04, 0.068, 0
45115, -0.343, 0.411, -1.033, 0.155, 0.017, 0.067, 0
45135, -0.171, 0.017, -0.649, 0.168, -0.025, 0.011, 0
45155, 0.007, 0.131, -0.47, 0.26, -0.041, -0.003, 0
45175, 0.008, -0.021, 0.089, 0.219, 0.065, 0.048, 0
45195, -0.04, 0.097, 0.303, 0.167, 0.105, 0.089, 0
45215, 0.061, 0.0, 0.707, 0.084, 0.105, 0.102, 0
45235, -0.022, -0.079, 1.027, 0.012, 0.12, 0.04, 0
45255, 0.321, -0.261, 1.48, -0.059, 0.052, 0.053, 0
45275, 0.204, -0.56, 1.892, -0.166, 0.075, 0.095, 0
45295, 0.413, -0.989, 2.573, -0.458, 0.08, 0.221, 0
45315, 0.156, -1.086, 2.628, -0.864, 0.145, 0.282, 0
45335, 0.3, -0.947, 2.704, -0.866, 0.183, 0.242, 0
45355, 0.314, -1.401, 3.1, -0.939, 0.067, 0.202, 0
45375, 0.236, -1.35, 2.867, -1.262, 0.048, 0.28, 0
45395, 0.044, -1.423, 2.335, -1.338, 0.071, 0.313, 0
45415, 0.046, -1.959, 2.338, -1.35, -0.028, 0.293, 0
45435, -0.346, -2.128, 2.048, -1.46, -0.146, 0.304, 0
45455, -0.793, -1.766, 1.299, -1.549, -0.077, 0.317, 0
45475, -1.303, -0.97, 0.129, -1.495, 0.02, 0.307, 0
45495, -1.36, -1.236, -0.384, -1.331, 0.028, 0.215, 0
45515, -1.219, -1.731, -0.303, -1.378, -0.035, 0.119, 0
45535, -1.016, -1.524, -0.944, -1.431, -0.069, 0.029, 0
45555, -0.831, -1.211, -1.483, -1.226, -0.084, -0.07, 0
45575, -0.639, -1.289, -1.445, -0.902, 0.12, -0.088, 0
45595, 0.068, -1.53, -1.232, -0.852, 0.216, -0.121, 0
45615, 0.105, -1.03, -1.76, -0.915, 0.102, -0.149, 0
45635, -0.061, -0.483, -2.285, -0.764, 0.053, -0.172, 0
45655, -0.111, -0.611, -1.963, -0.511, 0.101, -0.167, 0
45675, -0.174, -0.399, -1.837, -0.522, 0.218, -0.112, 0
45695, -0.714, 0.526, -2.707, -0.532, 0.286, -0.122, 0
45715, -0.514, 0.617, -2.918, -0.271, 0.33, -0.168, 0
45735, -0.409, 0.441, -2.471, -0.029, 0.227, -0.231, 0
45755, -0.235, 0.154, -1.632, -0.157, 0.302, -0.173, 0
45775, -0.009, 0.662, -2.086, -0.306, 0.362, -0.06, 0
45795, -0.081, 1.51, -2.865, 0.111, 0.343, -0.215, 0
45815, 0.508, 0.99, -2.44, 0.224, 0.231, -0.186, 0
45835, 0.766, 0.473, -1.752, 0.065, 0.212, -0.073, 0
45855, 0.142, 1.343, -2.354, 0.171, 0.307, -0.004, 0
45875, 0.041, 1.585, -2.502, 0.457, 0.409, -0.02, 0
45895, 0.666, 1.021, -1.932, 0.511, 0.181, -0.073, 0
45915, 0.611, 0.835, -1.589, 0.341, 0.072, 0.039, 0
45935, -0.352, 1.724, -2.192, 0.464, 0.235, 0.085, 0
45955, -0.234, 1.816, -2.189, 0.659, 0.241, 0.051, 0
45975, 0.191, 1.411, -1.692, 0.724, 0.018, 0.022, 0
45995, -0.119, 1.231, -1.382, 0.74, 0.019, 0.059, 0
46015, -0.406, 1.401, -1.327, 0.743, 0.142, 0.051, 0
46035, -0.373, 1.836, -1.249, 0.854, 0.121, 0.033, 0
46055, -0.404, 1.876, -0.834, 0.933, 0.01, -0.036, 0
46075, -0.21, 1.547, -0.335, 0.915, -0.157, -0.082, 0
46095, -0.5, 1.3, -0.072, 0.897, -0.091, -0.075, 0
46115, -0.32, 1.194, 0.246, 0.839, 0.007, -0.075, 0
46135, 0.156, 1.111, 0.437, 0.872, -0.157, -0.143, 0
46155, -0.211, 0.902, 0.558, 0.862, -0.136, -0.139, 0
46175, -0.257, 0.679, 0.676, 0.778, 0.0, -0.051, 0
46195, -0.158, 0.494, 0.694, 0.733, 0.089, -0.009, 0
46215, 0.004, 0.093, 0.803, 0.736, 0.006, -0.053, 0
46235, 0.236, -0.266, 1.119, 0.696, -0.124, -0.036, 0
46255, 0.074, -0.539, 1.39, 0.527, -0.083, 0.096, 0
46275, -0.267, -0.279, 1.066, 0.555, 0.012, 0.121, 0
46295, 0.0, -0.79, 1.448, 0.497, -0.03, 0.02, 0
46315, -0.246, -0.927, 1.697, 0.476, -0.106, 0.044, 0
46335, -0.347, -1.302, 1.993, 0.367, -0.007, 0.098, 0
46355, 0.303, -1.244, 1.769, 0.156, 0.016, 0.102, 0
46375, 0.119, -0.948, 1.396, 0.061, -0.072, 0.043, 0
46395, 0.243, -0.95, 1.297, 0.098, 0.0, 0.07, 0
46415, 0.341, -1.241, 1.591, 0.076, 0.022, 0.132, 0
46435, -0.008, -1.907, 1.687, -0.072, 0.01, 0.214, 0
46455, 0.072, -1.759, 1.324, -0.228, 0.036, 0.206, 0
46475, 0.103, -1.525, 1.058, -0.294, -0.06, 0.174, 0
46495, -0.256, -1.482, 0.936, -0.311, -0.171, 0.184, 0
46515, -0.123, -1.465, 0.855, -0.341, -0.118, 0.198, 0
46535, 0.127, -1.738, 0.786, -0.37, -0.039, 0.26, 0
46555, -0.114, -2.435, 0.983, -0.474, -0.023, 0.287, 0
46575, 0.151, -2.053, 0.511, -0.629, -0.217, 0.226, 0
46595, -0.399, -1.787, 0.103, -0.554, -0.33, 0.255, 0
46615, -0.618, -1.543, -0.254, -0.295, -0.127, 0.326, 0
46635, -0.326, -1.816, -0.108, -0.303, 0.037, 0.359, 0
46655, -0.288, -0.911, -0.748, -0.497, -0.073, 0.302, 0
46675, -0.63, -0.439, -1.207, -0.375, -0.114, 0.282, 0
46695, -0.647, -0.222, -1.276, -0.181, -0.13, 0.223, 0
46715, -0.495, -0.154, -1.1, -0.054, -0.093, 0.166, 0
46735, -0.534, -0.077, -0.837, 0.046, -0.062, 0.14, 0
46755, -0.371, 0.0, -0.603, 0.108, -0.032, 0.113, 0
46775, -0.218, -0.073, -0.514, 0.236, 0.059, 0.127, 1
46795, 0.237, -0.715, -0.07, 0.114, 0.092, 0.094, 1
46815, 0.232, -0.665, 0.278, -0.158, 0.147, 0.125, 1
46835, 0.191, -0.245, 0.171, -0.353, 0.142, 0.098, 1
46855, 0.112, 0.272, -0.457, -0.165, 0.02, 0.041, 1
46875, -0.103, 0.173, -0.542, -0.02, 0.045, 0.076, 1
46895, -0.085, -0.028, -0.418, -0.031, 0.05, 0.092, 1
46915, -0.144, -0.198, -0.316, -0.097, 0.034, 0.1, 1
46935, -0.084, -0.123, -0.231, -0.138, 0.039, 0.08, 1
46955, 0.024, -0.014, -0.284, -0.032, -0.032, 0.04, 1
46975, 0.035, -0.074, -0.068, 0.003, -0.061, 0.053, 1
46995, 0.012, -0.116, 0.104, -0.015, -0.031, 0.073, 1
47015, -0.038, -0.116, 0.168, -0.083, 0.04, 0.089, 1
47035, 0.056, -0.112, 0.172, -0.169, 0.051, 0.072, 1
47055, 0.066, 0.039, -0.132, -0.114, -0.006, 0.038, 1
47075, -0.039, -0.035, -0.137, -0.086, 0.012, 0.053, 1
47095, -0.002, -0.102, -0.096, -0.106, 0.053, 0.079, 1
47115, -0.095, -0.007, -0.216, -0.114, 0.064, 0.069, 1
47135, -0.1, 0.0, -0.258, -0.124, 0.043, 0.036, 1
47155, -0.051, -0.017, -0.38, -0.108, 0.026, 0.039, 1
47175, -0.02, -0.077, -0.387, -0.06, 0.018, 0.038, 1
47195, 0.028, -0.177, -0.151, -0.056, 0.025, 0.053, 1
47215, -0.029, -0.11, -0.103, -0.097, 0.05, 0.06, 1
47235, -0.038, -0.041, -0.144, -0.128, 0.044, 0.061, 1
47255, -0.084, 0.04, -0.233, -0.053, 0.032, 0.05, 1
47275, -0.038, -0.048, -0.052, -0.023, 0.007, 0.041, 1
47295, -0.036, -0.126, 0.07, -0.056, 0.031, 0.043, 1
47315, -0.028, -0.036, -0.082, -0.152, 0.07, 0.054, 1
47335, 0.033, 0.078, -0.23, -0.116, 0.046, 0.033, 1
47355, 0.046, -0.101, -0.061, -0.056, -0.003, 0.031, 1
47375, 0.058, -0.241, 0.044, -0.035, -0.006, 0.043, 1
47395, 0.073, -0.26, 0.094, -0.153, 0.058, 0.081, 1
47415, -0.103, 0.037, -0.254, -0.178, 0.088, 0.109, 1
47435, -0.022, 0.023, -0.267, -0.059, 0.066, 0.07, 1
47455, -0.223, -0.097, -0.247, -0.018, -0.016, 0.061, 1
47475, -0.118, -0.142, -0.155, -0.039, 0.026, 0.061, 1
47495, -0.051, -0.08, -0.168, -0.122, 0.051, 0.083, 1
47515, -0.082, 0.012, -0.361, -0.125, 0.066, 0.082, 1
47535, -0.046, -0.015, -0.318, -0.062, 0.031, 0.034, 1
47555, -0.169, -0.017, -0.346, -0.04, -0.001, 0.034, 1
47575, -0.012, -0.251, -0.073, -0.03, 0.034, 0.05, 1
47595, 0.111, -0.355, 0.025, -0.094, 0.034, 0.05, 1
47615, 0.124, -0.33, -0.081, -0.124, 0.02, 0.05, 1
47635, 0.165, -0.179, -0.202, -0.102, 0.04, 0.045, 1
47655, 0.153, -0.274, -0.083, -0.048, 0.05, 0.069, 1
47675, 0.061, -0.383, -0.026, -0.037, 0.039, 0.067, 1
47695, -0.022, -0.739, 0.046, -0.057, 0.039, 0.078, 1
47715, -0.095, -0.718, -0.055, -0.136, 0.066, 0.078, 1
47735, -0.028, -0.448, -0.116, -0.118, 0.1, 0.047, 1
47755, 0.091, -0.378, 0.056, -0.069, 0.045, 0.072, 1
47775, 0.011, -0.272, 0.178, -0.045, 0.051, 0.097, 1
47795, 0.062, -0.257, 0.232, -0.048, 0.067, 0.11, 1
47815, -0.216, 0.073, 0.165, -0.115, 0.144, 0.131, 1
47835, -0.481, 0.607, -0.139, -0.127, 0.192, 0.171, 1
47855, -0.59, 0.75, -0.36, -0.033, 0.131, 0.053, 1
47875, -0.275, 0.5, -0.17, -0.011, 0.018, 0.02, 1
47895, -0.411, 0.66, -0.244, -0.075, 0.084, 0.051, 1
47915, -0.463, 0.831, -0.424, -0.103, 0.137, 0.083, 1
47935, -0.278, 0.591, -0.449, -0.084, 0.082, 0.048, 1
47955, -0.024, 0.378, -0.405, -0.049, -0.015, -0.02, 1
47975, -0.073, 0.336, -0.382, -0.018, 0.025, 0.009, 1
47995, -0.045, 0.11, -0.308, -0.003, 0.116, 0.039, 1
48015, 0.053, 0.026, -0.231, -0.046, 0.097, 0.032, 1
48035, 0.052, 0.067, -0.421, -0.052, 0.004, 0.032, 1
48055, -0.038, -0.015, -0.45, 0.015, -0.005, 0.029, 1
48075, -0.087, -0.214, -0.219, 0.013, 0.007, 0.032, 1
48095, -0.135, -0.136, -0.175, 0.003, 0.034, 0.038, 1
48115, -0.049, -0.221, -0.022, -0.012, 0.02, 0.008, 1
48135, 0.007, -0.107, 0.004, -0.02, -0.018, -0.001, 1
48155, -0.048, -0.18, 0.018, 0.0, 0.015, 0.029, 1
48175, 0.051, -0.258, 0.163, -0.023, 0.062, 0.057, 1
48195, 0.026, -0.069, 0.094, -0.03, 0.048, 0.019, 1
48215, -0.031, -0.042, 0.0, -0.027, 0.003, 0.017, 1
48235, -0.077, -0.174, 0.073, -0.08, 0.073, 0.051, 1
48255, 0.005, -0.051, -0.012, -0.119, 0.065, 0.049, 1
48275, -0.057, -0.025, -0.064, -0.114, 0.02, 0.049, 1
48295, -0.091, -0.009, -0.114, -0.141, 0.04, 0.059, 1
48315, -0.099, -0.002, -0.162, -0.174, 0.073, 0.083, 1
48335, -0.036, -0.028, -0.218, -0.103, 0.039, 0.034, 1
48355, 0.054, -0.079, -0.174, -0.098, 0.0, 0.006, 1
48375, -0.01, -0.091, -0.185, -0.111, 0.007, 0.031, 1
48395, -0.027, -0.033, -0.21, -0.118, 0.046, 0.051, 1
48415, -0.037, -0.026, -0.199, -0.081, 0.056, 0.042, 1
48435, -0.036, -0.011, -0.304, -0.064, -0.005, 0.017, 1
48455, -0.042, -0.144, -0.191, -0.047, 0.018, 0.022, 1
48475, 0.038, -0.108, -0.15, -0.086, 0.032, 0.042, 1
48495, -0.076, -0.096, -0.215, -0.076, 0.032, 0.046, 1
48515, 0.022, -0.177, -0.05, -0.076, 0.049, 0.032, 1
48535, -0.006, -0.093, -0.079, -0.163, 0.059, 0.064, 1
48555, 0.074, 0.066, -0.175, -0.216, 0.061, 0.033, 1
48575, -0.008, -0.06, 0.003, -0.289, 0.009, 0.027, 1
48595, -0.143, 0.1, -0.157, -0.352, 0.047, 0.053, 0
48615, 0.123, -0.348, -0.292, -0.181, 0.053, 0.052, 0
48635, -0.029, -0.088, -0.243, -0.19, 0.033, 0.098, 0
48655, 0.002, 0.369, -0.601, -0.071, -0.006, 0.073, 0
48675, -0.444, 0.146, -0.5, 0.149, -0.045, 0.067, 0
48695, -0.357, 0.344, -0.638, 0.08, 0.053, 0.086, 0
48715, -0.544, 0.372, -0.777, 0.021, 0.104, 0.087, 0
48735, -0.262, 0.492, -0.814, -0.001, 0.082, 0.078, 0
48755, -0.22, 0.528, -0.931, 0.125, 0.021, 0.035, 0
48775, -0.105, 0.322, -0.489, 0.091, 0.025, 0.043, 0
48795, -0.098, 0.124, -0.135, -0.015, 0.108, 0.058, 0
48815, 0.234, 0.313, 0.048, -0.07, 0.118, 0.08, 0
48835, 0.32, 0.496, 0.259, -0.026, 0.099, 0.051, 0
48855, 0.158, 0.147, 0.696, -0.045, 0.143, 0.05, 0
48875, 0.342, -0.228, 1.301, -0.215, 0.144, 0.124, 0
48895, 0.094, -0.118, 1.197, -0.193, 0.114, 0.172, 0
48915, -0.061, -0.32, 1.138, -0.035, 0.077, 0.153, 0
48935, 0.095, -0.879, 1.785, -0.145, 0.051, 0.125, 0
48955, 0.1, -1.229, 2.041, -0.422, 0.033, 0.163, 0
48975, -0.3, -1.014, 1.864, -0.656, 0.102, 0.214, 0
48995, -0.254, -0.879, 1.794, -0.707, 0.084, 0.219, 0
49015, -0.248, -1.103, 1.899, -0.702, 0.007, 0.167, 0
49035, -0.49, -1.417, 2.405, -0.791, 0.018, 0.134, 0
49055, -0.58, -1.563, 2.654, -0.931, 0.0, 0.093, 0
49075, -0.543, -1.727, 2.37, -1.13, 0.033, 0.067, 0
49095, 0.078, -1.926, 1.889, -1.211, -0.047, -0.02, 0
49115, 0.629, -2.494, 1.696, -1.335, -0.191, 0.005, 0
49135, 0.243, -2.746, 1.352, -1.422, -0.064, 0.102, 0
49155, -0.381, -2.255, 0.946, -1.428, 0.114, 0.174, 0
49175, -1.102, -1.768, 0.249, -1.389, 0.202, 0.094, 0
49195, -0.463, -1.611, -0.577, -1.3, -0.081, -0.068, 0
49215, -0.566, -1.691, -1.314, -1.204, -0.058, -0.026, 0
49235, -0.705, -1.195, -1.686, -1.098, 0.117, 0.016, 0
49255, -1.023, -0.515, -2.337, -1.031, 0.156, -0.001, 0
49275, -0.681, -0.427, -2.745, -0.925, 0.109, -0.111, 0
49295, -0.134, -0.823, -2.36, -0.74, -0.102, -0.233, 0
49315, -0.476, -0.779, -2.158, -0.576, -0.156, -0.222, 0
49335, -0.265, -1.039, -1.631, -0.437, 0.003, -0.171, 0
49355, -0.116, -0.285, -1.691, -0.494, 0.166, -0.104, 0
49375, -0.559, 0.679, -2.333, -0.42, 0.208, -0.083, 0
49395, -0.567, 0.434, -2.153, -0.173, 0.257, -0.162, 0
49415, 0.032, -0.096, -1.616, -0.147, 0.227, -0.167, 0
49435, 0.224, 0.192, -1.559, -0.176, 0.223, -0.14, 0
