timestamp, accX, accY, accZ, gyroX, gyroY, gyroZ, button
372956, 0.3, -0.014, -0.734, -0.029, -0.183, -0.562, 1
372976, 0.227, 0.025, -0.746, -0.084, -0.301, -0.661, 1
372996, -0.386, 0.249, -0.572, -0.093, -0.376, -0.701, 1
373016, -0.825, 0.248, -0.349, -0.004, -0.25, -0.629, 1
373036, -0.784, -0.234, -0.313, -0.064, 0.042, -0.51, 1
373056, -0.301, -0.208, -0.264, -0.145, -0.034, -0.453, 1
373076, -0.285, -0.161, 0.093, -0.168, -0.169, -0.428, 1
373096, -0.253, -0.119, 0.182, -0.134, -0.304, -0.431, 1
373116, -0.353, -0.19, 0.252, -0.095, -0.379, -0.401, 1
373136, -0.466, -0.458, 0.05, -0.089, -0.339, -0.362, 1
373156, -0.307, -0.426, -0.011, -0.116, -0.249, -0.304, 1
373176, -0.065, -0.293, 0.045, -0.092, -0.224, -0.221, 1
373196, 0.064, -0.16, -0.062, -0.021, -0.229, -0.191, 1
373216, 0.004, -0.201, -0.126, 0.018, -0.233, -0.157, 1
373236, 0.038, -0.332, -0.358, -0.068, -0.23, -0.124, 1
373256, 0.083, -0.146, -0.421, -0.138, -0.15, -0.104, 1
373276, 0.174, 0.03, -0.328, -0.134, -0.077, -0.067, 1
373296, 0.232, 0.213, -0.234, -0.084, -0.07, -0.036, 1
373316, 0.19, 0.047, -0.111, -0.057, -0.09, -0.011, 1
373336, 0.38, 0.003, -0.107, -0.1, -0.165, -0.009, 1
373356, 0.236, 0.025, -0.205, -0.139, -0.173, -0.02, 1
373376, 0.066, -0.041, -0.214, -0.171, -0.088, -0.018, 1
373396, 0.126, 0.025, -0.271, -0.18, -0.012, 0.012, 1
373416, 0.263, -0.043, -0.253, -0.137, -0.031, 0.022, 1
373436, 0.166, -0.175, -0.273, -0.162, -0.049, -0.012, 1
373456, -0.056, -0.087, -0.14, -0.249, -0.018, 0.036, 1
373476, -0.173, 0.008, 0.178, -0.251, 0.075, 0.098, 1
373496, 0.139, 0.015, 0.241, -0.153, 0.084, 0.138, 1
373516, 0.496, -0.196, 0.091, -0.138, -0.076, -0.003, 1
373536, 0.147, -0.062, -0.368, -0.145, -0.064, -0.053, 1
373556, 0.172, -0.145, -0.486, -0.12, -0.02, -0.016, 1
373576, 0.173, -0.181, -0.544, -0.152, 0.0, -0.014, 1
373596, 0.011, -0.279, -0.438, -0.196, 0.104, -0.098, 1
373616, 0.089, 0.001, -0.196, -0.251, 0.215, -0.1, 1
373636, 0.101, -0.092, -0.051, -0.173, 0.148, -0.064, 1
373656, 0.218, -0.288, -0.126, -0.127, 0.042, -0.096, 1
373676, 0.015, -0.21, -0.118, -0.162, -0.007, -0.117, 1
373696, 0.069, -0.059, 0.041, -0.204, 0.036, -0.094, 1
373716, 0.103, -0.014, 0.013, -0.241, 0.093, -0.13, 1
373736, 0.023, -0.021, 0.029, -0.257, 0.059, -0.196, 1
373756, -0.176, 0.152, 0.043, -0.268, -0.025, -0.291, 1
373776, -0.203, -0.145, -0.097, -0.295, -0.116, -0.342, 1
373796, -0.329, 0.252, -0.075, -0.406, -0.172, -0.409, 1
373816, -0.502, 0.311, 0.226, -0.265, -0.155, -0.401, 1
373836, -0.551, -0.055, 0.01, -0.047, -0.056, -0.433, 1
373856, -0.48, -0.167, 0.026, 0.0, -0.034, -0.397, 1
373876, -0.574, -0.259, -0.217, -0.051, -0.133, -0.236, 1
373896, -0.565, -0.185, -0.257, -0.075, -0.095, -0.216, 1
373916, -0.394, -0.401, -0.317, -0.023, 0.012, -0.161, 1
373936, -0.327, -0.627, -0.58, -0.047, 0.086, -0.141, 1
373956, -0.357, -0.38, -0.313, -0.091, 0.184, -0.086, 1
373976, -0.172, -0.478, -0.154, -0.116, 0.247, -0.072, 1
373996, -0.105, -0.123, 0.201, -0.135, 0.206, -0.063, 1
374016, 0.036, 0.024, 0.174, 0.006, 0.077, -0.083, 1
374036, -0.039, -0.001, -0.032, 0.091, 0.119, -0.178, 1
374056, 0.038, -0.066, -0.205, 0.065, 0.161, -0.241, 1
374076, 0.033, -0.021, -0.215, -0.091, 0.103, -0.227, 1
374096, -0.049, 0.179, -0.067, -0.088, 0.025, -0.183, 1
374116, 0.003, 0.146, 0.106, -0.057, -0.052, -0.215, 1
374136, 0.042, -0.026, -0.034, -0.061, -0.138, -0.258, 1
374156, -0.055, 0.19, -0.039, -0.003, -0.111, -0.267, 1
374176, -0.086, 0.023, -0.059, 0.08, 0.04, -0.246, 1
374196, 0.126, -0.024, -0.146, 0.07, 0.058, -0.227, 1
374216, 0.281, -0.198, -0.148, 0.035, -0.091, -0.241, 1
374236, 0.366, -0.258, -0.34, -0.026, -0.233, -0.306, 1
374256, 0.107, -0.058, -0.288, -0.035, -0.168, -0.328, 1
374276, 0.116, 0.257, -0.12, 0.05, -0.023, -0.28, 1
374296, 0.316, 0.2, 0.08, 0.105, 0.018, -0.259, 1
374316, 0.849, 0.054, 0.027, 0.049, -0.067, -0.309, 1
374336, 1.239, 0.515, 0.476, 0.037, -0.067, -0.422, 1
374356, 1.72, 1.038, 0.394, 0.253, -0.062, -0.621, 1
374376, 2.009, 0.975, -0.034, 0.309, -0.203, -0.83, 1
374396, 1.679, 1.225, -0.458, 0.282, -0.26, -1.001, 1
374416, 1.575, 0.896, -1.079, 0.169, -0.232, -1.184, 1
374436, 1.336, 0.668, -1.316, 0.053, -0.23, -1.378, 1
374456, 0.522, 1.122, -1.308, 0.008, -0.188, -1.493, 1
374476, -0.376, 1.368, -1.168, -0.022, -0.07, -1.397, 1
374496, -0.983, 1.415, -0.863, -0.09, -0.005, -1.406, 1
374516, -1.388, 1.422, -2.546, -0.091, -0.46, -1.44, 1
374536, -2.867, 1.336, -3.672, -0.297, -0.966, -1.469, 1
374556, -4.745, 1.147, -4.116, -0.587, -1.169, -1.171, 1
374576, -5.814, 0.647, -3.953, -0.822, -0.894, -0.682, 1
374596, -6.475, -0.172, -3.292, -0.973, -0.452, -0.156, 1
374616, -6.734, -1.217, -2.597, -1.046, -0.067, 0.428, 1
374636, -6.178, -2.653, -2.22, -1.083, -0.026, 1.05, 1
374656, -5.742, -4.111, -2.036, -1.106, -0.291, 1.527, 1
374676, -5.599, -5.539, -1.568, -1.111, -0.513, 1.852, 1
374696, -5.348, -6.789, -0.945, -1.131, -0.578, 2.123, 1
374716, -4.95, -7.636, -0.201, -1.138, -0.477, 2.338, 1
374736, -4.134, -8.052, 0.355, -1.065, -0.352, 2.543, 1
374756, -3.474, -8.297, 0.76, -0.918, -0.391, 2.684, 1
374776, -3.183, -8.389, 1.076, -0.733, -0.493, 2.701, 1
374796, -3.121, -8.502, 1.152, -0.59, -0.591, 2.721, 1
374816, -3.071, -8.302, 1.307, -0.585, -0.538, 2.721, 1
374836, -2.65, -7.905, 1.785, -0.538, -0.388, 2.743, 1
374856, -1.884, -7.563, 2.179, -0.441, -0.387, 2.804, 1
374876, -0.971, -7.285, 2.485, -0.278, -0.568, 2.785, 1
374896, -0.3, -7.085, 2.535, -0.07, -0.684, 2.718, 1
374916, 0.514, -7.261, 2.178, 0.086, -0.69, 2.554, 1
374936, 1.528, -6.692, 2.074, 0.111, -0.74, 2.33, 1
374956, 2.296, -6.164, 2.032, 0.186, -0.927, 2.214, 1
374976, 2.992, -5.664, 2.346, 0.394, -0.947, 2.079, 1
374996, 4.345, -4.875, 2.397, 0.795, -0.682, 1.892, 1
375016, 6.149, -4.498, 1.605, 1.07, -0.923, 1.497, 1
375036, 7.012, -4.87, -0.026, 1.028, -1.194, 0.959, 1
375056, 6.67, -4.347, -0.875, 0.86, -1.032, 0.707, 1
375076, 6.407, -2.222, -0.259, 0.849, -0.362, 0.767, 1
375096, 8.098, -1.087, 0.214, 1.172, 0.05, 0.576, 1
375116, 10.277, -0.369, -0.151, 1.535, -0.213, -0.134, 1
375136, 10.199, -0.63, -1.958, 1.546, -0.566, -1.081, 1
375156, 7.805, 0.118, -3.014, 1.183, -0.299, -1.47, 1
375176, 6.296, 2.023, -2.816, 0.946, 0.389, -1.227, 1
375196, 7.374, 2.979, -3.088, 1.016, 0.728, -1.533, 1
375216, 6.945, 3.243, -4.167, 1.004, 0.502, -2.295, 1
375236, 4.448, 2.642, -5.341, 0.491, 0.302, -2.613, 1
375256, 2.143, 3.015, -4.968, -0.048, 0.736, -2.459, 1
375276, 1.675, 3.141, -4.292, -0.089, 1.367, -2.357, 1
375296, 2.131, 1.772, -4.494, -0.066, 1.329, -2.698, 1
375316, 0.495, -0.117, -4.853, -0.395, 0.82, -3.086, 1
375336, -2.413, -1.292, -4.39, -0.808, 0.742, -3.178, 1
375356, -4.664, -1.857, -3.676, -1.014, 0.93, -2.981, 1
375376, -6.401, -2.52, -2.965, -1.065, 1.036, -2.604, 1
375396, -8.021, -3.199, -2.099, -1.009, 1.123, -2.223, 1
375416, -9.08, -3.684, -1.035, -0.899, 1.182, -1.791, 1
375436, -9.157, -4.235, 0.039, -0.789, 1.056, -1.357, 1
375456, -8.355, -4.742, 0.472, -0.625, 0.616, -0.895, 1
375476, -7.467, -5.177, 0.286, -0.524, -0.07, -0.353, 1
375496, -5.77, -4.876, 0.053, -0.463, -0.245, -0.039, 1
375516, -4.22, -4.312, 0.067, -0.311, -0.233, 0.169, 1
375536, -2.231, -3.96, 0.017, -0.094, -0.256, 0.288, 1
375556, -0.874, -3.685, -0.078, -0.021, -0.381, 0.274, 1
375576, -0.26, -3.082, 0.041, -0.035, -0.48, 0.169, 1
375596, 0.264, -2.244, 0.294, 0.083, -0.454, 0.103, 1
375616, 0.715, -1.853, 0.317, 0.248, -0.402, 0.021, 1
375636, 1.202, -1.385, 0.451, 0.336, -0.386, -0.043, 1
375656, 1.283, -1.301, 0.213, 0.351, -0.474, -0.127, 1
375676, 0.976, -0.84, 0.07, 0.268, -0.458, -0.279, 1
375696, 0.753, -0.177, 0.046, 0.227, -0.426, -0.339, 1
375716, 0.726, 0.093, -0.034, 0.287, -0.288, -0.343, 1
375736, 1.105, 0.049, -0.169, 0.309, -0.15, -0.381, 1
375756, 1.127, 0.067, -0.293, 0.252, -0.182, -0.467, 1
375776, 0.952, 0.18, -0.513, 0.179, -0.268, -0.547, 1
375796, 0.865, 0.287, -0.842, 0.146, -0.241, -0.605, 1
375816, 1.001, 0.291, -1.071, 0.114, -0.081, -0.663, 1
375836, 1.062, 0.239, -1.294, 0.079, 0.008, -0.778, 1
375856, 0.897, 0.448, -1.487, 0.014, -0.001, -0.952, 1
375876, 0.526, 1.14, -1.572, -0.054, -0.02, -1.084, 1
375896, -0.087, 1.231, -2.163, -0.045, 0.107, -1.153, 1
375916, -1.172, 0.945, -2.554, -0.126, 0.207, -1.295, 1
375936, -2.711, 1.682, -2.289, -0.353, 0.087, -1.391, 1
375956, -4.024, 1.857, -2.069, -0.572, -0.171, -1.144, 1
375976, -4.953, 1.179, -2.092, -0.847, -0.75, -0.841, 1
375996, -6.321, 0.659, -2.309, -0.929, -0.86, -0.474, 1
376016, -7.138, 0.103, -2.2, -1.033, -0.663, 0.102, 1
376036, -7.17, -0.998, -2.202, -0.996, -0.295, 0.766, 1
376056, -6.359, -2.813, -2.384, -0.99, -0.091, 1.33, 1
376076, -5.278, -4.189, -2.408, -1.025, -0.208, 1.672, 1
376096, -4.866, -5.085, -2.067, -1.037, -0.365, 1.901, 1
376116, -4.45, -6.016, -1.719, -1.008, -0.653, 2.087, 1
376136, -4.337, -6.885, -1.404, -0.95, -0.996, 2.232, 1
376156, -4.777, -7.624, -1.266, -0.921, -1.115, 2.419, 1
376176, -5.083, -7.956, -0.891, -0.925, -0.858, 2.621, 1
376196, -4.811, -7.781, -0.365, -0.742, -0.521, 2.836, 1
376216, -4.314, -7.77, -0.034, -0.501, -0.316, 2.97, 1
376236, -3.465, -8.018, 0.012, -0.358, -0.398, 2.999, 1
376256, -2.78, -8.087, -0.092, -0.359, -0.628, 2.828, 1
376276, -2.521, -7.822, -0.142, -0.445, -0.703, 2.611, 1
376296, -2.83, -7.532, 0.119, -0.614, -0.475, 2.628, 1
376316, -2.547, -6.501, 0.84, -0.517, -0.105, 2.745, 1
376336, -1.605, -6.198, 1.414, -0.323, -0.013, 2.802, 1
376356, -0.343, -6.492, 1.417, -0.239, -0.28, 2.685, 1
376376, 0.295, -6.331, 1.465, -0.216, -0.472, 2.474, 1
376396, 0.756, -5.719, 1.829, -0.092, -0.381, 2.295, 1
376416, 1.894, -5.405, 1.738, 0.124, -0.384, 2.136, 1
376436, 3.121, -5.302, 1.166, 0.211, -0.744, 1.823, 1
376456, 3.478, -5.347, 0.756, 0.117, -1.175, 1.422, 1
376476, 2.924, -4.027, 1.12, 0.194, -0.771, 1.117, 1
376496, 3.873, -3.063, 1.514, 0.449, -0.28, 0.91, 1
376516, 5.125, -2.863, 1.333, 0.723, -0.235, 0.695, 1
376536, 6.048, -2.962, 0.667, 0.791, -0.557, 0.379, 1
376556, 5.944, -2.699, 0.058, 0.681, -0.737, 0.014, 1
376576, 5.212, -1.474, 0.048, 0.671, -0.578, -0.32, 1
376596, 4.618, -0.029, 0.192, 0.872, -0.025, -0.658, 1
376616, 4.821, 0.54, -0.314, 1.178, 0.118, -0.83, 1
376636, 3.791, 0.436, -1.691, 1.208, -0.227, -1.027, 1
376656, 2.27, 0.685, -2.573, 0.871, -0.249, -1.218, 1
376676, 1.505, 1.504, -2.215, 0.58, 0.315, -1.236, 1
376696, 2.083, 1.803, -1.473, 0.617, 0.893, -1.254, 1
376716, 2.557, 1.509, -1.406, 0.742, 0.89, -1.421, 1
376736, 1.456, 1.404, -2.385, 0.784, 0.488, -1.814, 1
376756, -0.857, 1.176, -3.576, 0.549, 0.171, -2.075, 1
376776, -2.614, 1.545, -3.702, 0.161, 0.334, -1.986, 1
376796, -2.655, 1.248, -3.173, -0.01, 0.875, -1.684, 1
376816, -1.302, 0.556, -2.497, -0.039, 1.299, -1.544, 1
376836, -1.238, 0.184, -2.516, 0.03, 1.259, -1.747, 1
376856, -2.622, -0.305, -2.529, -0.1, 0.863, -1.914, 1
376876, -4.041, -0.293, -2.221, -0.356, 0.643, -1.758, 1
376896, -4.626, -0.229, -1.697, -0.485, 0.755, -1.496, 1
376916, -4.589, -0.677, -1.48, -0.379, 0.843, -1.274, 1
376936, -4.63, -1.211, -1.388, -0.372, 0.767, -1.04, 1
376956, -4.798, -1.808, -1.208, -0.451, 0.55, -0.981, 1
376976, -5.016, -2.18, -0.84, -0.565, 0.43, -0.816, 1
376996, -4.672, -2.333, -0.603, -0.536, 0.331, -0.609, 1
377016, -4.03, -2.793, -0.74, -0.403, 0.217, -0.433, 1
377036, -3.553, -2.958, -0.656, -0.208, 0.221, -0.324, 1
377056, -2.912, -3.511, -0.803, 0.0, 0.225, -0.292, 1
377076, -2.573, -4.246, -1.082, -0.158, 0.188, -0.096, 1
377096, -2.168, -4.128, -0.945, -0.439, 0.153, 0.131, 1
377116, -1.759, -3.447, -0.35, -0.389, 0.219, 0.183, 1
377136, -1.381, -3.092, 0.019, -0.208, 0.298, 0.182, 1
377156, -0.879, -2.866, 0.312, -0.124, 0.271, 0.147, 1
377176, -0.481, -2.532, 0.612, -0.072, 0.099, 0.067, 1
377196, -0.229, -2.099, 0.668, -0.005, -0.133, -0.025, 1
377216, -0.299, -1.843, 0.549, 0.064, -0.306, -0.105, 1
377236, -0.556, -1.608, 0.404, 0.126, -0.325, -0.13, 1
377256, -0.601, -1.381, 0.248, 0.155, -0.273, -0.115, 1
377276, -0.727, -1.092, 0.059, 0.143, -0.196, -0.065, 1
377296, -0.61, -0.79, -0.081, 0.17, -0.161, 0.01, 1
377316, -0.304, -0.685, -0.294, 0.172, -0.183, 0.023, 1
377336, -0.168, -0.668, -0.502, 0.114, -0.145, 0.0, 1
377356, -0.052, -0.47, -0.509, 0.088, -0.067, -0.017, 1
377376, 0.191, -0.355, -0.67, 0.091, -0.067, -0.018, 1
377396, 0.096, -0.453, -0.855, 0.01, -0.131, -0.009, 1
377416, -0.378, -0.247, -0.799, -0.063, -0.088, 0.006, 1
377436, -0.597, -0.085, -0.522, -0.084, 0.04, 0.092, 1
377456, 0.054, -0.484, -0.722, -0.091, -0.048, 0.08, 1
377476, -0.115, -0.566, -0.781, -0.135, -0.062, 0.052, 1
377496, -0.435, -0.472, -0.537, -0.195, 0.023, 0.099, 1
377516, -0.422, -0.36, -0.05, -0.197, 0.132, 0.147, 1
377536, 0.058, -0.524, 0.1, -0.166, 0.131, 0.177, 1
377556, 0.386, -0.691, 0.064, -0.178, -0.02, 0.135, 1
377576, 0.711, -0.694, -0.077, -0.211, -0.131, 0.058, 1
377596, 0.616, -0.674, -0.043, -0.194, -0.124, -0.036, 1
377616, 0.718, -0.4, 0.139, -0.12, 0.035, -0.094, 1
377636, 1.455, -0.187, 0.196, 0.008, 0.171, -0.118, 1
377656, 2.469, -0.269, 0.051, 0.093, 0.074, -0.263, 1
377676, 2.328, -0.153, -0.261, 0.094, -0.155, -0.598, 1
377696, 1.503, 0.398, -0.315, 0.073, -0.26, -0.857, 1
377716, 0.895, 1.524, -0.339, 0.098, -0.072, -0.893, 1
377736, 1.199, 2.084, -0.625, 0.252, 0.297, -0.877, 1
377756, 1.59, 1.702, -1.218, 0.277, 0.307, -1.087, 1
377776, 1.037, 2.402, -1.427, 0.051, -0.086, -1.419, 1
377796, -0.439, 3.59, -2.03, -0.035, -0.511, -1.621, 1
377816, -2.454, 3.78, -3.252, -0.054, -0.657, -1.552, 1
377836, -3.707, 2.703, -4.742, -0.288, -0.659, -1.162, 1
377856, -4.323, 2.176, -5.251, -0.715, -0.687, -0.879, 1
377876, -5.422, 2.865, -4.749, -1.063, -0.601, -0.593, 1
377896, -5.989, 1.48, -4.897, -1.153, -0.484, -0.098, 1
377916, -7.014, -0.504, -4.84, -1.299, -0.421, 1.01, 1
377936, -8.089, -2.243, -4.209, -1.23, 0.202, 1.836, 1
377956, -8.109, -4.438, -3.063, -1.167, 0.839, 2.517, 1
377976, -6.778, -6.538, -1.673, -1.243, 1.005, 2.856, 1
377996, -4.968, -8.228, -0.465, -1.428, 0.443, 2.839, 1
378016, -4.4, -8.545, 0.588, -1.526, -0.452, 2.712, 1
378036, -5.114, -8.036, 1.52, -1.291, -0.985, 2.668, 1
378056, -6.052, -7.698, 2.018, -0.826, -0.941, 2.872, 1
378076, -5.911, -8.658, 1.778, -0.568, -0.483, 2.844, 1
378096, -4.795, -9.052, 1.643, -0.807, -0.133, 2.513, 1
378116, -3.578, -8.168, 2.001, -0.937, -0.378, 2.487, 1
378136, -2.922, -7.645, 2.569, -0.846, -0.646, 2.458, 1
378156, -2.044, -7.366, 3.062, -0.62, -0.742, 2.34, 1
378176, -0.946, -7.351, 3.202, -0.367, -0.745, 2.1, 1
378196, 0.089, -7.148, 2.929, -0.216, -0.85, 1.848, 1
378216, 0.824, -6.668, 2.91, -0.105, -1.048, 1.656, 1
378236, 1.272, -5.873, 3.174, 0.153, -1.11, 1.459, 1
378256, 2.024, -5.177, 3.226, 0.465, -0.998, 1.344, 1
378276, 3.171, -4.911, 2.71, 0.747, -0.894, 1.18, 1
378296, 4.652, -5.013, 1.93, 0.89, -1.095, 0.924, 1
378316, 5.54, -4.859, 1.195, 0.901, -1.325, 0.614, 1
378336, 5.799, -3.835, 0.73, 0.896, -1.042, 0.314, 1
378356, 6.466, -2.148, 0.777, 1.224, -0.585, 0.16, 1
378376, 8.028, -1.467, -0.249, 1.651, -0.565, -0.185, 1
378396, 8.701, -1.935, -1.874, 1.507, -0.784, -0.822, 1
378416, 7.537, -1.65, -2.941, 0.919, -0.601, -1.379, 1
378436, 5.971, 2.062, -2.319, 1.094, -0.034, -1.379, 1
378456, 6.488, 1.335, -3.433, 1.393, 0.141, -1.725, 1
378476, 5.613, 0.1, -4.547, 1.049, -0.139, -2.174, 1
378496, 3.63, 0.195, -4.743, 0.417, -0.058, -2.582, 1
378516, 1.121, 1.183, -4.611, 0.219, 0.299, -2.834, 1
378536, -1.537, 1.744, -5.184, 0.189, 0.536, -2.998, 1
378556, -3.855, 1.422, -4.889, -0.089, 0.475, -2.982, 1
378576, -5.468, 1.423, -3.75, -0.579, 0.536, -2.794, 1
378596, -5.439, 1.218, -2.579, -0.772, 0.784, -2.368, 1
378616, -5.718, 0.586, -2.398, -0.665, 0.966, -2.003, 1
378636, -6.362, -0.265, -2.337, -0.609, 0.951, -1.742, 1
378656, -6.641, -1.108, -1.481, -0.741, 0.748, -1.412, 1
378676, -6.4, -1.653, -0.389, -0.888, 0.596, -1.081, 1
378696, -5.401, -2.387, 0.44, -0.872, 0.452, -0.689, 1
378716, -3.956, -2.844, 0.833, -0.747, 0.279, -0.345, 1
378736, -2.875, -3.499, 0.89, -0.458, 0.196, -0.177, 1
378756, -2.115, -3.691, 0.507, -0.29, 0.232, -0.193, 1
378776, -1.352, -3.35, 0.35, -0.248, 0.226, -0.24, 1
378796, -0.604, -2.581, 0.432, -0.235, 0.086, -0.236, 1
378816, 0.009, -2.044, 0.437, -0.124, -0.017, -0.277, 1
378836, 0.112, -1.967, 0.123, 0.042, -0.123, -0.354, 1
378856, -0.072, -1.753, -0.245, 0.15, -0.141, -0.468, 1
378876, -0.333, -1.125, -0.399, 0.135, -0.059, -0.466, 1
378896, -0.11, -0.339, -0.265, 0.186, 0.417, -0.408, 1
378916, 0.715, 0.072, -0.159, 0.254, 0.433, -0.514, 1
378936, 0.631, 1.166, -0.483, 0.29, 0.388, -0.636, 1
378956, 0.577, 2.49, -0.796, 0.301, 0.45, -0.653, 1
378976, 0.758, 3.363, -1.285, 0.315, 0.415, -0.67, 1
378996, 0.408, 4.216, -2.038, 0.244, 0.147, -0.847, 1
379016, -1.366, 4.517, -2.9, -0.047, -0.035, -0.866, 1
379036, -3.036, 3.959, -3.47, -0.508, -0.073, -0.591, 1
379056, -3.855, 2.767, -3.584, -0.951, -0.232, -0.19, 1
379076, -4.478, 1.639, -3.405, -1.188, -0.488, 0.154, 1
379096, -5.502, 0.557, -3.183, -1.254, -0.568, 0.622, 1
379116, -5.863, -1.134, -2.87, -1.323, -0.602, 1.101, 1
379136, -5.926, -2.873, -2.395, -1.434, -0.826, 1.521, 1
379156, -7.104, -4.485, -1.887, -1.533, -0.663, 1.995, 1
379176, -6.999, -5.455, -1.102, -1.254, -0.329, 2.489, 1
379196, -6.479, -6.92, -0.882, -0.839, -0.022, 2.776, 1
379216, -5.886, -8.488, -0.966, -0.631, 0.101, 2.976, 1
379236, -4.81, -9.704, -0.922, -0.651, -0.015, 2.995, 1
379256, -3.25, -10.034, -0.412, -0.743, -0.361, 2.667, 1
379276, -3.104, -9.321, 0.118, -0.657, -0.634, 2.36, 1
379296, -3.733, -8.564, 0.538, -0.504, -0.58, 2.278, 1
379316, -3.775, -8.226, 1.309, -0.421, -0.343, 2.254, 1
379336, -3.14, -8.036, 2.294, -0.413, -0.221, 2.12, 1
379356, -2.139, -7.591, 3.177, -0.365, -0.389, 1.97, 1
379376, -1.459, -7.265, 3.394, -0.26, -0.636, 1.82, 1
379396, -0.797, -6.685, 3.149, 0.036, -0.896, 1.723, 1
379416, 0.897, -6.486, 2.358, 0.395, -0.971, 1.528, 1
379436, 2.119, -6.441, 1.679, 0.466, -0.885, 1.303, 1
379456, 3.798, -5.823, 1.512, 0.412, -0.923, 1.103, 1
379476, 5.189, -5.857, 0.737, 0.501, -1.12, 0.843, 1
379496, 6.164, -4.876, 0.331, 0.55, -1.172, 0.499, 1
379516, 6.802, -3.692, 0.293, 0.707, -0.977, 0.203, 1
379536, 7.827, -3.406, -0.716, 1.019, -0.762, -0.155, 1
379556, 7.703, -2.785, -1.927, 1.101, -0.72, -0.729, 1
379576, 6.396, -1.054, -2.148, 0.919, -0.517, -1.072, 1
379596, 6.357, 1.018, -1.828, 0.881, 0.0, -1.049, 1
379616, 7.617, 1.061, -2.864, 1.141, 0.219, -1.214, 1
379636, 6.658, 1.189, -4.385, 1.02, -0.103, -1.688, 1
379656, 4.212, 1.195, -4.907, 0.627, -0.153, -2.069, 1
379676, 2.357, 1.601, -4.288, 0.169, 0.48, -2.081, 1
379696, 2.115, 2.148, -3.592, -0.021, 1.081, -1.992, 1
379716, 1.101, 1.381, -3.228, -0.05, 1.083, -2.171, 1
379736, -0.364, 0.477, -2.55, -0.32, 0.914, -2.322, 1
379756, -1.43, 0.237, -1.746, -0.506, 0.941, -2.411, 1
379776, -2.535, -0.085, -1.784, -0.456, 0.844, -2.363, 1
379796, -4.418, -0.459, -2.178, -0.458, 0.566, -2.282, 1
379816, -6.318, -0.771, -1.983, -0.589, 0.402, -2.037, 1
379836, -7.165, -1.355, -1.57, -0.709, 0.508, -1.631, 1
379856, -7.292, -1.866, -1.045, -0.759, 0.615, -1.247, 1
379876, -7.147, -2.113, -0.749, -0.602, 0.462, -0.711, 1
379896, -6.834, -2.736, -0.701, -0.508, 0.296, -0.368, 1
379916, -5.924, -3.568, -0.819, -0.562, 0.246, -0.123, 1
379936, -4.616, -3.617, -0.593, -0.595, 0.219, 0.106, 1
379956, -3.282, -3.419, -0.471, -0.461, 0.218, 0.293, 1
379976, -1.846, -3.308, -0.361, -0.277, 0.217, 0.326, 1
379996, -0.776, -3.225, -0.06, -0.151, 0.133, 0.274, 1
380016, -0.283, -3.097, 0.233, -0.109, 0.043, 0.135, 1
380036, 0.073, -2.824, 0.439, -0.105, -0.048, -0.01, 1
380056, 0.333, -2.399, 0.716, -0.067, -0.185, -0.12, 1
380076, 0.253, -2.119, 0.899, 0.007, -0.24, -0.197, 1
380096, 0.317, -1.354, 1.051, 0.143, -0.139, -0.179, 1
380116, 0.637, -1.058, 0.843, 0.32, 0.051, -0.187, 1
380136, 1.227, -1.143, 0.433, 0.299, 0.086, -0.306, 1
380156, 1.644, -0.267, 0.431, 0.271, -0.061, -0.421, 1
380176, 1.183, 1.139, 0.129, 0.458, 0.12, -0.451, 1
380196, 0.869, 1.861, -0.546, 0.656, 0.587, -0.396, 1
380216, 1.317, 1.848, -1.384, 0.783, 0.949, -0.392, 1
380236, 2.166, 1.673, -2.346, 0.601, 0.861, -0.654, 1
380256, 2.669, 2.259, -2.675, 0.036, 0.23, -0.986, 1
380276, 1.199, 2.873, -2.971, -0.351, -0.382, -1.273, 1
380296, -1.216, 2.552, -3.576, -0.552, -0.582, -1.262, 1
380316, -3.406, 2.5, -3.64, -0.779, -0.27, -0.909, 1
380336, -4.375, 2.504, -3.239, -0.81, 0.309, -0.368, 1
380356, -4.037, 1.113, -3.185, -0.766, 0.479, 0.242, 1
380376, -3.93, -0.582, -3.679, -0.897, 0.131, 0.534, 1
380396, -5.166, -3.445, -3.669, -1.089, 0.124, 0.897, 1
380416, -5.183, -4.924, -3.193, -1.445, -0.025, 1.214, 1
380436, -6.008, -5.791, -2.452, -1.669, -0.205, 1.428, 1
380456, -6.289, -6.514, -1.667, -1.649, -0.218, 1.775, 1
380476, -6.054, -7.132, -1.135, -1.485, -0.145, 2.11, 1
380496, -5.457, -7.625, -0.806, -1.249, -0.156, 2.306, 1
380516, -5.225, -7.839, -0.302, -1.014, -0.315, 2.408, 1
380536, -4.994, -7.973, 0.091, -0.813, -0.428, 2.379, 1
380556, -4.951, -7.855, 0.338, -0.715, -0.543, 2.27, 1
380576, -5.012, -7.403, 0.754, -0.765, -0.656, 2.268, 1
380596, -4.97, -6.54, 1.443, -0.816, -0.728, 2.303, 1
380616, -4.557, -6.422, 2.015, -0.678, -0.765, 2.419, 1
380636, -3.252, -6.452, 2.403, -0.438, -0.72, 2.638, 1
380656, -1.405, -7.374, 2.317, -0.211, -0.871, 2.656, 1
380676, -0.361, -7.22, 2.051, -0.221, -1.117, 2.324, 1
380696, -0.16, -6.603, 2.012, -0.15, -1.118, 2.032, 1
380716, 0.678, -6.41, 2.037, 0.048, -0.797, 1.946, 1
380736, 2.624, -6.726, 2.054, 0.28, -0.701, 1.844, 1
380756, 3.498, -7.199, 1.575, 0.442, -1.052, 1.531, 1
380776, 3.098, -6.749, 1.628, 0.458, -1.241, 1.149, 1
380796, 3.15, -4.725, 2.33, 0.559, -0.728, 0.941, 1
380816, 4.861, -3.84, 2.228, 1.017, -0.084, 0.859, 1
380836, 7.275, -4.403, 0.773, 1.417, -0.37, 0.699, 1
380856, 7.238, -5.362, -0.956, 1.151, -1.317, -0.109, 1
380876, 6.055, -3.553, -1.087, 0.79, -0.715, -0.584, 1
380896, 5.82, -1.226, -0.865, 1.051, 0.061, -0.733, 1
380916, 6.721, -0.218, -1.637, 1.465, 0.053, -0.924, 1
380936, 6.399, -0.512, -3.292, 1.299, -0.342, -1.246, 1
380956, 4.566, -0.647, -4.042, 0.773, -0.182, -1.481, 1
380976, 3.623, 0.635, -3.421, 0.475, 0.576, -1.578, 1
380996, 3.8, 1.65, -3.333, 0.667, 0.894, -1.769, 1
381016, 2.754, 0.905, -4.25, 0.55, 0.56, -2.105, 1
381036, 0.395, 0.328, -4.639, 0.009, 0.443, -2.328, 1
381056, -1.593, 0.087, -3.783, -0.436, 0.805, -2.171, 1
381076, -2.12, 0.378, -2.631, -0.471, 1.2, -2.084, 1
381096, -2.569, 0.281, -2.44, -0.323, 1.103, -2.231, 1
381116, -4.41, -0.027, -2.548, -0.348, 0.734, -2.375, 1
381136, -6.716, -0.879, -2.295, -0.671, 0.623, -2.304, 1
381156, -7.592, -1.101, -1.695, -0.985, 0.557, -1.602, 1
381176, -7.335, -1.147, -0.705, -0.875, 0.544, -1.026, 1
381196, -6.381, -1.631, -0.31, -0.514, 0.466, -0.752, 1
381216, -5.78, -2.42, -0.416, -0.269, 0.434, -0.58, 1
381236, -4.938, -3.647, -0.729, -0.463, 0.348, -0.5, 1
381256, -3.657, -3.747, -1.014, -0.884, 0.042, -0.272, 1
381276, -2.859, -2.749, -0.102, -0.753, -0.098, -0.211, 1
381296, -2.058, -2.067, 0.303, -0.331, -0.079, -0.167, 1
381316, -1.269, -2.411, 0.265, -0.08, -0.067, -0.192, 1
381336, -0.312, -2.49, 0.3, -0.018, -0.262, -0.209, 1
381356, -0.302, -2.137, -0.059, 0.096, -0.351, -0.309, 1
381376, -0.555, -2.051, -0.348, 0.15, -0.356, -0.301, 1
381396, -0.411, -1.841, -0.584, 0.032, -0.336, -0.334, 1
381416, -0.361, -1.544, -0.237, 0.02, -0.264, -0.278, 1
381436, -0.332, -1.502, -0.157, 0.105, -0.136, -0.199, 1
381456, -0.176, -1.329, -0.131, 0.197, 0.021, -0.084, 1
381476, 0.077, -1.429, -0.362, 0.254, 0.051, -0.092, 1
381496, -0.053, -1.664, -1.015, 0.082, -0.064, -0.205, 1
381516, -0.6, -1.14, -0.834, -0.039, -0.083, -0.218, 1
381536, -0.705, -0.979, -0.481, 0.017, 0.127, -0.128, 1
381556, -0.169, -0.693, -0.028, 0.032, 0.25, -0.091, 1
381576, -0.069, -1.024, -0.131, 0.078, 0.126, -0.086, 1
381596, -0.262, -1.111, -0.514, -0.072, -0.05, -0.054, 1
381616, -0.256, -1.236, -0.645, -0.153, -0.011, -0.159, 1
381636, -0.004, -0.969, -0.574, -0.263, 0.015, -0.178, 1
381656, -0.235, -0.21, 0.092, -0.136, -0.025, -0.09, 1
381676, -0.2, -0.608, 0.121, 0.1, -0.006, -0.075, 1
381696, 0.145, -1.277, -0.354, 0.043, -0.041, -0.07, 1
381716, 0.239, -0.871, -0.655, -0.211, -0.126, -0.135, 1
381736, -0.105, -0.158, 0.354, -0.123, -0.13, -0.105, 1
381756, -0.011, -0.101, 0.524, 0.171, -0.076, -0.093, 1
381776, 0.233, -0.771, -0.014, 0.306, 0.002, -0.109, 1
381796, 0.595, -1.346, -0.509, 0.067, 0.068, -0.173, 1
381816, 1.335, -0.221, -0.167, -0.193, -0.007, -0.205, 0
381836, 1.282, 0.128, 0.492, 0.263, -0.116, -0.345, 0
381856, 1.194, 0.073, 0.206, 0.398, 0.012, -0.2, 0
381876, 1.485, -0.487, -0.323, 0.116, 0.26, -0.336, 0
381896, 1.682, -0.859, -1.29, -0.277, 0.662, -0.781, 0
381916, 2.722, 1.399, -0.675, -0.311, 0.499, -0.927, 0
381936, 2.196, 3.037, -0.856, -0.114, 0.362, -1.002, 0
381956, 1.878, 3.65, -1.083, 0.025, 0.513, -0.901, 0
381976, 2.95, 7.938, -2.762, -0.018, 0.31, -1.198, 0
381996, 0.922, 3.713, -3.322, -0.415, 0.025, -1.555, 0
382016, -1.41, 5.761, -2.56, -0.503, 0.089, -1.486, 0
382036, -2.932, 5.222, -2.366, -0.521, -0.137, -0.979, 0
382056, -5.096, 1.886, -2.219, -0.767, -0.153, -0.56, 0
382076, -6.593, 2.209, -3.387, -0.852, -0.072, -0.316, 0
382096, -8.336, 1.025, -3.683, -1.108, 0.205, 0.238, 0
382116, -8.995, 0.338, -3.295, -1.012, 0.278, 1.048, 0
382136, -8.576, -1.775, -3.301, -0.907, 0.189, 1.685, 0
382156, -8.271, -4.043, -3.459, -1.023, -0.031, 2.141, 0
382176, -8.162, -5.685, -3.216, -1.088, -0.095, 2.41, 0
382196, -7.566, -7.54, -2.93, -1.219, -0.082, 2.615, 0
382216, -6.782, -8.346, -2.416, -1.298, -0.286, 2.781, 0
382236, -6.778, -8.501, -1.437, -1.205, -0.305, 2.858, 0
382256, -6.208, -9.188, -1.06, -1.174, -0.219, 2.811, 0
382276, -5.494, -9.368, -0.672, -1.238, -0.103, 2.69, 0
382296, -4.783, -8.367, 0.727, -1.087, -0.19, 2.623, 0
382316, -4.336, -7.798, 1.59, -0.858, -0.417, 2.621, 0
382336, -3.456, -7.406, 3.053, -0.684, -0.723, 2.633, 0
382356, -3.081, -7.715, 2.975, -0.406, -0.856, 2.442, 0
382376, -2.008, -7.099, 3.166, -0.365, -0.947, 2.331, 0
382396, -0.794, -7.265, 2.947, -0.127, -1.092, 2.295, 0
382416, 0.66, -7.304, 2.313, 0.15, -1.145, 2.091, 0
382436, 1.608, -7.652, 1.463, 0.265, -1.141, 1.842, 0
382456, 2.221, -6.986, 1.985, 0.213, -1.091, 1.616, 0
382476, 3.943, -7.13, 1.913, 0.337, -1.026, 1.434, 0
382496, 5.301, -6.32, 0.927, 0.48, -1.052, 1.184, 0
382516, 5.79, -6.512, -0.298, 0.641, -0.905, 0.822, 0
382536, 6.499, -5.072, 0.722, 0.569, -0.508, 0.496, 0
382556, 7.873, -4.187, 1.318, 0.789, -0.381, 0.133, 0
382576, 9.307, -2.748, 0.554, 0.871, -0.688, -0.254, 0
382596, 8.514, -2.44, -1.565, 1.041, -0.795, -0.72, 0
382616, 7.669, -1.158, -1.953, 0.991, -0.362, -1.102, 0
382636, 7.768, 0.291, -2.206, 1.04, 0.009, -1.317, 0
382656, 7.836, 1.426, -3.142, 1.02, 0.095, -1.466, 0
382676, 6.728, 1.797, -4.575, 1.016, 0.2, -1.723, 0
382696, 4.324, 1.642, -5.78, 0.783, 0.434, -2.034, 0
382716, 2.262, 2.447, -5.007, 0.356, 0.781, -2.189, 0
382736, 1.29, 2.644, -4.06, 0.167, 1.102, -2.221, 0
382756, -0.372, 2.095, -4.508, 0.034, 1.078, -2.37, 0
382776, -2.752, 1.957, -3.991, -0.319, 0.836, -2.441, 0
382796, -4.851, 1.137, -2.992, -0.515, 0.797, -2.323, 0
382816, -6.349, 0.216, -2.765, -0.732, 0.824, -1.929, 0
382836, -8.306, 0.687, -2.005, -0.691, 0.656, -1.62, 0
382856, -10.028, 0.672, -0.953, -0.608, 0.667, -1.051, 0
382876, -9.567, -0.382, -0.108, -0.576, 0.659, -0.558, 0
382896, -7.897, -1.139, 0.294, -0.33, 0.569, -0.202, 0
382916, -6.145, -2.26, 0.366, -0.14, 0.479, 0.013, 0
382936, -4.36, -2.796, 0.318, -0.017, 0.21, 0.067, 0
382956, -3.507, -3.004, -0.382, -0.042, 0.083, 0.069, 0
382976, -2.355, -2.749, -0.569, -0.076, -0.026, 0.052, 0
382996, -1.34, -2.496, -0.604, -0.112, -0.186, -0.033, 0
383016, -0.879, -1.879, -0.497, -0.004, -0.268, -0.087, 0
383036, -1.002, -1.588, 0.097, 0.141, -0.172, -0.056, 0
383056, -0.692, -1.394, 0.382, 0.223, -0.073, -0.046, 0
383076, -0.383, -1.759, -0.049, 0.056, 0.009, -0.086, 0
383096, 0.464, -2.182, -0.62, -0.335, -0.01, -0.312, 1
383116, 0.878, -1.486, -0.049, -0.508, -0.282, -0.426, 1
383136, 0.198, -0.865, 0.762, -0.458, -0.359, -0.505, 1
383156, 0.139, -0.72, 0.301, -0.355, -0.306, -0.494, 1
383176, 0.222, -0.406, -0.149, -0.211, -0.32, -0.361, 1
383196, -0.189, -0.417, -0.147, -0.025, -0.224, -0.277, 1
383216, -0.114, -0.567, -0.27, -0.089, -0.14, -0.258, 1
383236, 0.066, -0.292, -0.105, -0.172, -0.155, -0.312, 1
383256, -0.145, -0.153, -0.126, -0.164, -0.199, -0.255, 1
383276, -0.249, -0.034, -0.206, -0.116, -0.189, -0.224, 1
383296, -0.388, -0.273, -0.268, 0.0, -0.112, -0.148, 1
383316, -0.185, -0.415, -0.064, -0.014, 0.031, -0.061, 1
383336, 0.035, -0.427, 0.027, -0.005, -0.003, -0.013, 1
383356, 0.182, -0.417, 0.028, -0.013, -0.09, -0.081, 1
383376, 0.063, -0.19, -0.188, 0.009, -0.169, -0.175, 1
383396, 0.104, -0.163, -0.381, 0.051, -0.051, -0.217, 1
383416, 0.703, 0.362, -0.08, 0.089, 0.055, -0.14, 1
383436, 1.29, 0.389, -0.191, 0.221, 0.042, -0.16, 1
383456, 1.718, -0.071, -0.535, 0.223, -0.054, -0.325, 1
383476, 1.804, 0.274, -0.672, 0.127, -0.102, -0.56, 1
383496, 1.449, 0.697, -0.832, 0.249, 0.035, -0.582, 1
383516, 1.944, 0.512, -0.736, 0.285, 0.233, -0.674, 1
383536, 2.114, 1.923, -0.681, 0.399, 0.085, -0.664, 0
383556, 1.856, 1.88, -1.736, 0.631, 0.399, -0.704, 0
383576, 2.694, 1.499, -2.826, 0.439, 0.813, -0.925, 0
383596, 3.424, 2.845, -3.586, 0.073, 0.445, -1.454, 0
383616, -0.041, 2.413, -3.602, -0.183, -0.212, -1.918, 0
383636, -3.677, 5.042, -3.781, -0.745, -0.211, -1.719, 0
383656, -4.801, 4.816, -5.031, -0.803, 0.4, -1.273, 0
383676, -5.268, 3.462, -6.594, -0.982, 0.695, -0.804, 0
383696, -6.399, 1.915, -5.993, -1.196, 0.594, -0.232, 0
383716, -7.412, 0.507, -4.942, -1.439, 0.559, 0.276, 0
383736, -7.338, -0.544, -3.416, -1.56, 0.649, 0.86, 0
383756, -7.027, -2.848, -2.977, -1.475, 0.807, 1.337, 0
383776, -5.921, -4.552, -2.696, -1.595, 0.832, 1.61, 0
383796, -5.761, -5.833, -1.861, -1.921, 0.164, 1.671, 0
383816, -6.485, -6.038, -0.588, -2.059, -0.24, 1.653, 0
383836, -6.544, -4.663, -0.141, -1.844, -0.463, 1.701, 0
383856, -6.406, -6.175, 0.283, -1.455, -0.634, 1.951, 0
383876, -6.019, -6.996, -0.161, -1.32, -0.737, 2.016, 0
383896, -5.535, -7.136, -0.314, -1.363, -0.818, 2.016, 0
383916, -5.814, -6.874, 0.241, -1.271, -0.781, 2.166, 0
383936, -5.422, -6.069, 1.11, -0.917, -0.704, 2.375, 0
383956, -5.029, -5.903, 1.363, -0.648, -0.755, 2.496, 0
383976, -4.809, -5.903, 1.719, -0.467, -0.797, 2.591, 0
383996, -4.403, -7.366, 1.333, -0.525, -0.59, 2.555, 0
384016, -2.371, -6.496, 1.931, -0.486, -0.775, 2.51, 0
384036, -1.677, -6.633, 2.12, -0.259, -1.014, 2.441, 0
384056, -1.121, -6.531, 2.021, 0.007, -1.103, 2.302, 0
384076, -0.391, -7.169, 1.686, 0.087, -0.893, 2.064, 0
384096, 1.136, -7.214, 1.961, -0.036, -1.023, 1.755, 0
384116, 1.66, -5.824, 2.351, 0.086, -1.4, 1.565, 0
384136, 1.002, -4.186, 1.844, 0.573, -1.346, 1.717, 0
384156, 1.647, -4.915, -0.26, 0.87, -0.825, 1.891, 0
384176, 4.212, -6.869, -0.705, 0.689, -0.328, 1.489, 0
384196, 7.0, -6.498, 0.659, 0.297, -0.663, 0.831, 0
384216, 6.304, -3.849, 1.634, 0.42, -1.055, 0.507, 0
384236, 6.663, 0.472, -0.135, 1.001, -0.764, 0.424, 0
384256, 7.623, -3.629, -1.401, 1.111, -0.54, 0.07, 0
384276, 7.861, -3.906, -1.74, 0.634, -0.412, -0.687, 0
384296, 7.387, -0.373, -0.878, 0.833, -0.368, -0.925, 0
384316, 6.847, -0.223, -2.583, 1.081, -0.207, -1.192, 0
384336, 5.759, -0.28, -3.642, 1.068, 0.009, -1.44, 0
384356, 4.411, 0.144, -3.674, 0.786, 0.261, -1.722, 0
384376, 3.6, 1.291, -2.286, 0.571, 0.549, -1.938, 0
384396, 3.974, 2.013, -1.772, 0.747, 0.736, -2.021, 0
384416, 1.961, 1.25, -4.317, 0.872, 0.463, -2.288, 0
384436, -1.487, 2.249, -5.027, 0.329, 0.372, -2.457, 0
384456, -2.969, 2.695, -3.989, 0.053, 0.759, -2.293, 0
384476, -1.908, 1.776, -2.631, 0.073, 1.187, -2.028, 0
384496, -1.791, 0.242, -2.816, 0.234, 1.15, -1.95, 0
384516, -3.534, 0.094, -3.203, 0.038, 0.841, -1.933, 0
384536, -5.992, 0.202, -2.624, -0.186, 0.678, -1.798, 0
384556, -7.038, 0.155, -1.387, -0.353, 0.785, -1.488, 0
384576, -7.224, 0.119, -0.596, -0.341, 0.839, -1.138, 0
384596, -7.151, -0.142, -0.126, -0.229, 0.64, -0.754, 0
384616, -6.806, -0.785, 0.189, -0.128, 0.459, -0.393, 0
384636, -5.489, -1.405, 0.151, -0.153, 0.326, -0.128, 0
384656, -4.053, -1.62, -0.035, -0.233, 0.195, -0.039, 0
384676, -2.922, -1.502, -0.211, -0.157, 0.017, 0.062, 0
384696, -2.107, -2.011, -0.583, -0.025, -0.142, 0.131, 0
384716, -1.319, -2.114, -0.703, -0.051, -0.174, 0.105, 0
384736, -0.804, -1.737, -0.555, -0.119, -0.105, 0.069, 0
384756, -0.112, -1.613, -0.411, -0.036, -0.131, 0.02, 0
384776, -0.031, -1.401, -0.241, -0.067, -0.279, -0.076, 0
384796, -0.176, -1.066, 0.063, -0.075, -0.241, -0.101, 0
384816, -0.166, -0.784, 0.343, -0.045, -0.144, -0.093, 0
384836, 0.094, -0.624, 0.292, -0.05, -0.159, -0.145, 0
384856, 0.14, -0.828, -0.081, -0.221, -0.162, -0.314, 0
384876, 0.287, -0.749, -0.167, -0.31, -0.144, -0.326, 1
384896, 0.341, -0.771, -0.058, -0.324, -0.157, -0.294, 1
384916, 0.3, -0.685, 0.144, -0.309, -0.293, -0.332, 1
384936, 0.857, -0.973, 0.039, -0.387, -0.53, -0.392, 1
384956, 0.584, -0.533, 0.22, -0.324, -0.64, -0.456, 1
384976, 0.017, -0.48, 0.122, -0.165, -0.533, -0.481, 1
384996, -0.18, -0.583, 0.067, -0.098, -0.315, -0.436, 1
385016, 0.122, 0.07, 0.531, 0.131, -0.204, -0.39, 1
385036, 0.445, 0.111, 0.742, 0.35, -0.197, -0.458, 1
385056, 0.807, -0.093, 0.676, 0.436, -0.3, -0.597, 1
385076, 0.864, 0.072, 0.505, 0.569, -0.395, -0.731, 1
385096, 0.752, 0.3, 0.052, 0.62, -0.469, -0.807, 1
385116, 0.407, -0.038, -0.706, 0.551, -0.321, -0.844, 1
385136, 1.001, 0.766, -0.619, 0.857, -0.211, -0.734, 1
385156, 1.217, 0.426, -0.815, 1.068, -0.117, -0.719, 1
385176, 0.98, 0.829, -1.226, 1.202, 0.12, -0.785, 0
385196, 0.442, 1.442, -1.016, 1.199, 0.215, -0.728, 0
385216, 0.263, 1.033, -1.255, 0.846, 0.242, -0.919, 0
385236, 0.694, 1.452, -1.626, 0.425, 0.1, -1.152, 0
385256, -0.331, 2.127, -2.499, -0.03, -0.241, -1.216, 0
385276, -4.775, 4.135, -5.527, -0.571, -0.199, -1.084, 0
385296, -6.316, 4.554, -5.865, -0.696, 0.331, -0.476, 0
385316, -6.344, 3.163, -5.833, -0.915, 0.753, 0.16, 0
385336, -6.242, 1.322, -5.136, -1.314, 0.831, 0.688, 0
385356, -6.423, 0.009, -3.388, -1.531, 0.82, 1.2, 0
385376, -5.986, -2.37, -2.668, -1.571, 0.836, 1.575, 0
385396, -5.776, -4.337, -2.15, -1.689, 0.572, 1.787, 0
385416, -6.545, -5.072, -1.964, -1.861, 0.337, 1.879, 0
385436, -7.172, -4.994, -1.517, -1.888, 0.24, 2.128, 0
385456, -7.132, -5.47, -1.187, -1.744, 0.406, 2.318, 0
385476, -6.595, -5.959, -0.953, -1.499, 0.459, 2.458, 0
385496, -6.237, -6.331, -1.043, -1.321, 0.241, 2.633, 0
385516, -6.694, -6.349, -0.643, -1.275, -0.048, 2.708, 0
385536, -6.717, -6.123, 0.31, -1.216, 0.058, 2.652, 0
385556, -6.209, -5.976, 0.997, -1.056, 0.042, 2.673, 0
385576, -5.732, -6.469, 1.429, -0.887, -0.142, 2.723, 0
385596, -5.201, -6.852, 2.013, -0.84, -0.333, 2.667, 0
385616, -4.016, -6.298, 2.778, -0.714, -0.356, 2.574, 0
385636, -3.242, -5.925, 2.775, -0.522, -0.654, 2.453, 0
385656, -2.982, -6.232, 2.042, -0.312, -0.958, 2.389, 0
385676, -1.897, -7.111, 1.697, -0.229, -0.948, 2.229, 0
385696, 0.192, -6.691, 2.416, -0.322, -0.898, 1.955, 0
385716, 0.885, -5.401, 2.749, -0.238, -1.234, 1.735, 0
385736, 1.714, -5.527, 1.778, 0.134, -1.408, 1.576, 0
385756, 3.307, -6.521, 0.72, 0.326, -1.152, 1.23, 0
385776, 4.995, -6.611, 0.859, 0.191, -1.163, 0.699, 0
385796, 5.746, -4.049, 2.099, 0.226, -1.381, 0.366, 0
385816, 5.816, -3.029, 1.184, 0.722, -1.319, 0.277, 0
385836, 7.059, -3.511, -1.239, 0.971, -0.984, -0.025, 0
385856, 7.513, -3.861, -2.395, 0.736, -0.66, -0.541, 0
385876, 6.927, -1.808, -1.167, 0.661, -0.447, -0.853, 0
385896, 6.909, -0.439, -0.904, 0.781, -0.425, -1.065, 0
385916, 6.381, -0.236, -2.197, 0.879, -0.31, -1.288, 0
385936, 5.023, 0.184, -3.591, 0.822, -0.02, -1.494, 0
385956, 3.593, 0.113, -3.573, 0.537, 0.318, -1.713, 0
385976, 2.872, 0.656, -1.904, 0.398, 0.522, -1.837, 0
385996, 3.299, 0.905, -0.825, 0.478, 0.466, -2.047, 0
386016, 1.954, 0.354, -2.084, 0.414, 0.282, -2.275, 0
386036, -0.262, 0.803, -3.26, 0.277, 0.254, -2.368, 0
386056, -2.439, 1.466, -3.297, 0.102, 0.525, -2.258, 0
386076, -3.423, 1.995, -2.855, 0.087, 0.725, -2.061, 0
386096, -4.237, 2.018, -2.953, -0.043, 0.755, -1.9, 0
386116, -5.405, 2.218, -2.72, -0.191, 0.58, -1.571, 0
386136, -6.25, 1.726, -2.035, -0.335, 0.557, -1.251, 0
386156, -5.754, 1.064, -0.77, -0.302, 0.693, -0.985, 0
386176, -4.73, -0.33, -0.068, -0.22, 0.625, -0.849, 0
386196, -4.579, -1.428, -1.06, -0.284, 0.191, -0.779, 0
386216, -5.953, -1.586, -1.833, -0.49, 0.048, -0.555, 0
386236, -6.41, -1.478, -1.409, -0.409, 0.251, -0.066, 0
386256, -4.583, -2.583, -0.134, -0.266, 0.312, 0.13, 0
386276, -3.105, -2.681, 0.416, -0.178, 0.291, 0.204, 0
386296, -2.151, -2.972, 0.357, -0.132, 0.087, 0.21, 0
386316, -1.892, -2.497, 0.35, -0.199, -0.162, 0.116, 0
386336, -1.768, -1.755, 0.563, -0.151, -0.229, 0.106, 0
386356, -0.966, -1.33, 0.773, -0.024, -0.202, 0.148, 0
386376, -0.472, -1.388, 0.522, 0.163, -0.281, 0.165, 0
386396, -0.263, -1.756, -0.17, 0.235, -0.353, 0.135, 0
386416, -0.215, -1.614, -0.259, 0.104, -0.282, 0.058, 0
386436, 0.209, -0.965, 0.099, 0.0, -0.189, 0.001, 0
386456, 0.443, -1.125, -0.015, -0.032, -0.171, -0.078, 0
386476, 0.439, -1.201, -0.255, -0.183, -0.238, -0.207, 0
386496, 0.287, -1.035, -0.287, -0.297, -0.241, -0.295, 1
386516, 0.283, -1.036, -0.232, -0.368, -0.208, -0.412, 1
386536, 0.623, -1.04, -0.045, -0.502, -0.228, -0.555, 1
386556, 0.587, -0.601, 0.127, -0.648, -0.46, -0.632, 1
386576, 0.106, 0.078, 0.188, -0.529, -0.686, -0.609, 1
386596, -0.425, 0.476, -0.087, -0.25, -0.648, -0.545, 1
386616, -0.235, 0.201, -0.293, 0.062, -0.317, -0.479, 1
386636, 0.408, 0.144, -0.209, 0.253, 0.117, -0.498, 1
386656, 1.08, -0.371, -0.421, 0.31, 0.246, -0.547, 1
386676, 1.518, -0.346, -0.188, 0.218, 0.02, -0.477, 1
386696, 1.964, -0.524, -0.203, 0.202, -0.158, -0.634, 1
386716, 1.998, -0.703, -0.204, 0.235, -0.245, -0.976, 1
386736, 1.721, -0.627, -0.558, 0.307, -0.254, -1.178, 1
386756, 0.495, -0.33, -1.155, 0.256, -0.174, -0.982, 1
386776, 0.01, 0.094, -0.988, 0.216, 0.055, -1.122, 1
386796, 0.389, 0.219, -0.867, 0.105, -0.087, -1.299, 1
386816, -0.497, 1.492, -0.939, 0.357, -0.266, -1.125, 1
386836, -2.617, 2.288, -0.884, 0.731, -0.065, -0.748, 1
386856, -3.894, 2.515, -2.049, 0.678, 0.614, -0.419, 0
386876, -4.517, 2.227, -3.652, 0.425, 1.314, -0.421, 0
386896, -3.0, 2.446, -4.358, 0.029, 1.067, -0.171, 0
386916, -2.367, 1.732, -4.574, -0.681, -0.028, -0.055, 0
386936, -5.136, 2.021, -4.842, -1.294, -0.19, 0.205, 0
386956, -7.943, 2.432, -4.878, -1.218, 0.751, 0.885, 0
386976, -8.268, 0.695, -5.1, -1.182, 1.833, 1.513, 0
386996, -5.647, -1.067, -4.365, -1.13, 1.762, 2.005, 0
387016, -4.75, -3.984, -4.109, -1.72, 1.086, 1.895, 0
387036, -5.028, -5.012, -3.16, -2.312, 0.301, 1.698, 0
387056, -6.834, -4.996, -2.07, -2.39, -0.026, 1.783, 0
387076, -8.032, -5.105, -1.186, -2.057, 0.155, 2.147, 0
387096, -7.789, -5.576, -0.286, -1.557, 0.307, 2.44, 0
387116, -6.921, -6.283, 0.128, -1.184, 0.169, 2.646, 0
387136, -6.564, -7.473, -0.071, -1.229, -0.107, 2.522, 0
387156, -6.667, -7.177, 0.704, -1.407, -0.321, 2.458, 0
387176, -6.887, -6.133, 1.685, -1.165, -0.448, 2.584, 0
387196, -6.439, -5.503, 2.492, -0.77, -0.325, 2.772, 0
387216, -4.758, -6.695, 2.654, -0.566, -0.723, 2.69, 0
387236, -2.886, -7.3, 2.667, -0.614, -0.949, 2.409, 0
387256, -0.997, -7.22, 3.308, -0.496, -1.174, 2.229, 0
387276, -0.461, -7.046, 3.011, -0.254, -1.471, 1.924, 0
387296, -0.068, -5.636, 3.001, -0.067, -1.547, 1.759, 0
387316, 0.555, -5.888, 1.789, 0.257, -1.585, 1.77, 0
387336, 2.88, -7.135, 0.44, 0.364, -1.401, 1.647, 0
387356, 5.471, -7.079, 0.732, 0.288, -1.28, 1.279, 0
387376, 6.566, -6.214, 1.101, 0.366, -1.416, 0.808, 0
387396, 6.587, -5.327, 0.438, 0.679, -1.453, 0.354, 0
387416, 6.738, -5.19, -0.706, 0.919, -1.233, 0.015, 0
387436, 6.363, -4.435, -1.377, 0.837, -0.939, -0.44, 0
387456, 6.236, -2.69, -1.069, 0.673, -0.744, -0.742, 0
387476, 6.594, -1.433, -1.002, 0.81, -0.601, -0.89, 0
387496, 6.91, -1.255, -2.63, 0.988, -0.458, -1.104, 0
387516, 5.213, -0.706, -4.364, 0.971, -0.199, -1.365, 0
387536, 4.186, -0.078, -4.367, 0.767, 0.353, -1.542, 0
387556, 3.634, 0.206, -3.142, 0.502, 0.664, -1.697, 0
387576, 3.532, 0.332, -1.795, 0.379, 0.718, -1.916, 0
387596, 2.404, 0.322, -2.186, 0.412, 0.634, -2.207, 0
387616, -0.364, 1.081, -3.665, 0.254, 0.448, -2.372, 0
387636, -2.735, 1.989, -3.74, 0.014, 0.549, -2.306, 0
387656, -3.304, 2.024, -2.893, -0.126, 0.766, -2.09, 0
387676, -3.363, 1.205, -2.558, -0.075, 0.83, -1.88, 0
387696, -3.855, 0.576, -2.801, -0.291, 0.778, -1.734, 0
387716, -5.498, 0.978, -2.225, -0.425, 0.596, -1.488, 0
387736, -6.109, 1.207, -1.017, -0.415, 0.69, -1.15, 0
387756, -5.568, 0.435, -0.231, -0.32, 0.68, -0.896, 0
387776, -4.757, -0.448, -0.348, -0.204, 0.555, -0.707, 0
387796, -4.26, -1.078, -0.325, -0.167, 0.285, -0.534, 0
387816, -3.829, -1.387, -0.315, -0.157, 0.15, -0.423, 0
387836, -3.714, -1.945, -0.679, -0.239, 0.135, -0.378, 0
387856, -3.414, -2.023, -0.808, -0.275, 0.13, -0.306, 0
387876, -3.015, -2.27, -0.623, -0.249, 0.098, -0.223, 0
387896, -2.389, -2.394, -0.062, -0.232, 0.048, -0.147, 0
387916, -1.842, -2.22, 0.678, -0.116, -0.043, -0.102, 0
387936, -1.344, -1.93, 0.649, 0.0, -0.177, -0.073, 0
387956, -1.286, -2.076, 0.081, 0.02, -0.187, -0.086, 0
387976, -0.98, -1.879, 0.018, -0.035, -0.127, -0.101, 0
387996, -0.712, -1.765, 0.149, -0.033, -0.12, -0.082, 0
388016, -0.427, -1.356, 0.532, 0.048, -0.1, -0.054, 0
388036, -0.131, -1.162, 0.611, 0.186, -0.144, -0.038, 0
388056, 0.014, -1.193, 0.442, 0.191, -0.161, -0.061, 0
388076, 0.016, -1.287, 0.213, 0.083, -0.162, -0.108, 0
388096, 0.384, -1.616, 0.04, -0.13, -0.161, -0.22, 0
388116, 0.73, -1.922, -0.173, -0.464, -0.191, -0.43, 1
388136, 0.948, -1.668, -0.112, -0.693, -0.297, -0.638, 1
388156, 0.823, -0.651, 0.017, -0.609, -0.47, -0.85, 1
388176, 0.45, -0.423, 0.054, -0.471, -0.574, -0.921, 1
388196, 0.232, -0.382, -0.024, -0.356, -0.464, -0.964, 1
388216, 0.366, -0.213, -0.23, -0.284, -0.385, -1.039, 1
388236, 0.748, 0.324, 0.13, -0.05, -0.342, -1.128, 1
388256, 0.911, 0.142, 0.452, 0.296, -0.265, -1.096, 1
388276, 1.249, 0.02, -0.096, 0.546, -0.209, -1.255, 1
388296, 1.091, 0.023, -0.948, 0.685, -0.284, -1.477, 1
388316, 0.159, 0.312, -0.842, 0.863, -0.387, -1.389, 1
388336, 0.484, 0.434, -0.909, 0.767, -0.262, -1.144, 1
388356, 0.84, 0.979, -1.686, 0.678, -0.109, -1.169, 1
388376, 0.323, 1.448, -1.519, 1.085, 0.018, -1.351, 0
388396, 0.113, 0.628, -2.557, 1.105, 0.103, -1.357, 0
388416, 0.195, 0.878, -3.285, 0.496, 0.183, -1.301, 0
388436, 0.023, 1.612, -3.568, -0.121, 0.039, -1.386, 0
388456, -2.129, 1.918, -4.103, -0.362, -0.284, -1.442, 0
388476, -4.268, 1.97, -4.867, -0.766, -0.413, -0.99, 0
388496, -6.649, 1.948, -4.51, -1.191, -0.067, -0.676, 0
388516, -7.367, 2.118, -3.58, -1.411, 0.578, -0.169, 0
388536, -6.585, 0.92, -2.54, -1.317, 0.714, 0.607, 0
388556, -5.765, -1.393, -2.398, -1.31, 0.443, 1.091, 0
388576, -6.105, -3.261, -2.205, -1.608, 0.15, 1.288, 0
388596, -6.921, -3.736, -1.665, -1.787, 0.194, 1.503, 0
388616, -7.223, -4.744, -1.097, -1.599, 0.301, 2.054, 0
388636, -6.833, -5.9, -0.602, -1.354, 0.37, 2.411, 0
388656, -6.375, -7.082, -0.194, -1.227, 0.409, 2.624, 0
388676, -5.836, -8.132, -0.047, -1.291, 0.415, 2.491, 0
388696, -4.842, -8.08, 0.253, -1.285, 0.149, 2.444, 0
388716, -4.878, -7.863, 0.483, -1.277, -0.332, 2.387, 0
388736, -6.014, -7.211, 0.961, -1.219, -0.357, 2.566, 0
388756, -5.563, -6.362, 2.329, -0.887, -0.304, 2.738, 0
388776, -5.053, -6.947, 2.491, -0.729, -0.336, 2.742, 0
388796, -4.434, -6.646, 2.246, -0.618, -0.516, 2.817, 0
388816, -3.115, -6.706, 2.805, -0.458, -0.742, 2.836, 0
388836, -2.05, -7.2, 2.332, -0.242, -0.937, 2.663, 0
388856, -1.357, -7.291, 1.366, -0.243, -0.915, 2.437, 0
388876, -0.529, -6.741, 1.371, -0.155, -0.882, 2.347, 0
388896, 0.875, -6.392, 1.764, 0.025, -0.945, 2.246, 0
388916, 2.028, -6.036, 1.844, 0.233, -1.147, 2.073, 0
388936, 1.987, -5.821, 1.18, 0.43, -1.096, 2.06, 0
388956, 2.671, -6.161, 0.285, 0.506, -0.73, 1.971, 0
388976, 4.967, -6.0, 0.64, 0.481, -0.519, 1.709, 0
388996, 6.676, -5.952, 0.956, 0.571, -0.615, 1.299, 0
389016, 7.444, -5.38, 1.253, 0.71, -0.698, 0.729, 0
389036, 7.43, -4.602, 1.254, 0.774, -0.758, 0.139, 0
389056, 6.65, -3.786, 0.272, 0.819, -0.842, -0.29, 0
389076, 5.567, -2.689, -0.561, 0.79, -0.707, -0.583, 0
389096, 5.226, -1.413, -0.709, 0.884, -0.474, -0.768, 0
389116, 5.465, -1.403, -1.401, 0.91, -0.395, -0.993, 0
389136, 5.086, -1.223, -2.748, 0.819, -0.27, -1.328, 0
389156, 3.683, 0.017, -3.308, 0.75, -0.005, -1.517, 0
389176, 2.839, 0.59, -3.163, 0.674, 0.345, -1.603, 0
389196, 2.29, 1.029, -4.061, 0.648, 0.42, -1.706, 0
389216, 0.89, 0.826, -4.701, 0.508, 0.541, -1.814, 0
389236, -0.231, 0.763, -4.334, 0.254, 0.748, -1.872, 0
389256, -1.147, 0.961, -3.746, 0.05, 0.881, -1.901, 0
389276, -1.934, 0.92, -2.963, -0.113, 0.932, -1.861, 0
389296, -2.267, 0.556, -1.889, -0.116, 0.966, -1.765, 0
389316, -2.491, -0.275, -1.51, -0.07, 0.935, -1.75, 0
389336, -4.292, -0.218, -1.563, -0.192, 0.682, -1.787, 0
389356, -6.024, 0.424, -1.092, -0.352, 0.532, -1.605, 0
389376, -6.538, 0.419, -0.406, -0.291, 0.509, -1.232, 0
389396, -6.396, -0.242, -0.343, -0.174, 0.457, -0.85, 0
389416, -5.948, -1.408, -0.587, -0.138, 0.326, -0.562, 0
389436, -5.237, -1.765, -0.447, -0.246, 0.264, -0.409, 0
389456, -4.373, -1.791, -0.009, -0.264, 0.178, -0.265, 0
389476, -3.441, -2.063, 0.051, -0.124, 0.086, -0.089, 0
389496, -2.47, -2.593, -0.149, -0.045, 0.014, 0.0, 0
389516, -1.685, -2.629, -0.164, -0.072, -0.043, -0.032, 0
389536, -1.252, -2.241, -0.06, -0.113, -0.113, -0.072, 0
389556, -1.058, -1.938, 0.074, -0.054, -0.151, -0.06, 0
389576, -0.524, -1.778, 0.254, 0.026, -0.118, -0.029, 0
389596, -0.138, -1.987, 0.06, 0.041, -0.188, -0.065, 0
389616, -0.362, -1.665, -0.159, -0.08, -0.255, -0.141, 0
389636, -0.286, -1.121, 0.119, -0.102, -0.23, -0.107, 0
389656, -0.076, -1.227, 0.175, -0.081, -0.145, -0.07, 0
389676, 0.124, -1.254, 0.238, -0.076, -0.12, -0.099, 0
389696, 0.113, -1.427, -0.012, -0.161, -0.113, -0.143, 0
389716, 0.164, -1.645, -0.164, -0.378, -0.185, -0.234, 1
389736, -0.107, -1.449, -0.097, -0.558, -0.211, -0.265, 1
389756, -0.015, -1.114, -0.052, -0.602, -0.186, -0.276, 1
389776, 0.023, -0.693, 0.337, -0.466, -0.259, -0.258, 1
389796, 0.138, -0.994, 0.2, -0.404, -0.419, -0.236, 1
389816, 0.853, -1.325, -0.022, -0.54, -0.69, -0.31, 1
389836, 0.772, -0.86, 0.291, -0.518, -0.741, -0.513, 1
389856, 0.502, -0.245, 0.423, -0.231, -0.575, -0.685, 1
389876, 0.432, 0.017, 0.205, 0.143, -0.261, -0.716, 1
389896, 0.95, 0.172, 0.503, 0.37, -0.054, -0.61, 1
389916, 1.812, 0.69, 0.421, 0.648, -0.086, -0.681, 1
389936, 2.119, 0.665, -0.117, 0.779, -0.266, -0.839, 1
389956, 1.598, 1.517, -1.012, 1.037, -0.171, -0.919, 1
389976, 0.955, 1.722, -0.935, 1.284, 0.182, -0.686, 1
389996, 2.625, -0.322, -2.595, 0.68, 0.249, -0.802, 1
390016, 2.937, -0.523, -2.917, -0.051, -0.096, -1.467, 0
390036, 1.595, 2.279, -2.586, 0.313, -0.411, -1.624, 0
390056, -1.844, 3.755, -1.629, 1.094, 0.252, -1.117, 0
390076, -2.704, 2.804, -2.787, 0.993, 1.058, -0.731, 0
390096, -2.7, 1.549, -5.031, 0.108, 1.127, -0.648, 0
390116, -3.327, 1.304, -6.126, -0.937, 0.662, -0.58, 0
390136, -4.727, 1.414, -4.971, -1.672, 0.105, -0.202, 0
390156, -7.726, 1.856, -3.575, -1.565, 0.726, 0.602, 0
390176, -7.376, -1.461, -3.569, -1.394, 1.482, 1.313, 0
390196, -5.456, -3.194, -3.187, -1.546, 1.348, 1.673, 0
390216, -5.48, -4.978, -3.054, -1.858, 0.702, 1.656, 0
390236, -6.136, -4.901, -2.143, -2.118, 0.332, 1.615, 0
390256, -6.79, -5.322, -1.806, -2.096, 0.246, 1.734, 0
390276, -6.405, -5.186, -1.476, -2.021, 0.232, 1.899, 0
390296, -6.093, -5.313, -0.81, -1.803, 0.042, 2.112, 0
390316, -5.51, -5.652, -0.388, -1.689, -0.16, 2.148, 0
390336, -5.728, -5.281, 0.223, -1.629, -0.423, 2.177, 0
390356, -6.053, -5.415, 0.684, -1.453, -0.477, 2.249, 0
390376, -5.607, -5.423, 1.257, -1.266, -0.384, 2.459, 0
390396, -4.296, -5.756, 2.106, -1.007, -0.389, 2.614, 0
390416, -3.04, -6.281, 2.567, -0.778, -0.644, 2.594, 0
390436, -2.833, -6.035, 2.896, -0.729, -1.08, 2.463, 0
390456, -3.147, -6.58, 2.305, -0.505, -1.136, 2.426, 0
390476, -1.734, -6.586, 2.032, -0.416, -0.838, 2.338, 0
390496, -0.278, -6.443, 2.536, -0.407, -0.996, 2.203, 0
390516, 0.231, -5.805, 3.113, -0.271, -1.26, 2.046, 0
390536, 0.747, -5.988, 2.495, 0.105, -1.298, 1.956, 0
390556, 1.193, -7.036, 1.225, 0.288, -1.146, 1.737, 0
390576, 2.516, -6.305, 2.016, 0.131, -0.996, 1.42, 0
390596, 3.054, -4.982, 3.161, 0.255, -1.139, 1.166, 0
390616, 3.633, -4.323, 2.353, 0.678, -1.23, 1.02, 0
390636, 4.294, -4.765, -0.012, 1.004, -0.983, 0.755, 0
390656, 5.251, -5.393, -1.129, 0.832, -0.788, 0.364, 0
390676, 5.861, -4.512, 0.08, 0.682, -0.772, -0.056, 0
390696, 6.162, -2.518, 1.032, 0.957, -0.876, -0.342, 0
390716, 5.304, -1.849, -0.886, 1.171, -0.797, -0.51, 0
390736, 4.269, -1.388, -2.84, 1.156, -0.376, -0.634, 0
390756, 4.516, -1.229, -3.136, 0.923, -0.087, -0.814, 0
390776, 4.842, -0.166, -2.239, 0.898, -0.025, -1.0, 0
390796, 4.915, -0.351, -2.584, 0.962, 0.034, -1.219, 0
390816, 4.152, -0.269, -3.633, 0.885, 0.197, -1.501, 0
390836, 2.843, 0.406, -4.027, 0.683, 0.404, -1.687, 0
390856, 1.982, 0.937, -3.931, 0.544, 0.53, -1.801, 0
390876, 0.777, 1.207, -3.879, 0.443, 0.666, -1.841, 0
390896, 0.222, 1.092, -3.75, 0.37, 0.825, -1.871, 0
390916, -0.121, 0.442, -3.359, 0.2, 0.819, -1.974, 0
390936, -1.908, 0.725, -3.512, -0.004, 0.763, -1.984, 0
390956, -3.244, 1.398, -2.962, -0.106, 0.844, -1.884, 0
390976, -4.294, 1.478, -2.454, -0.183, 0.88, -1.673, 0
390996, -4.583, 1.239, -1.33, -0.172, 0.882, -1.448, 0
391016, -4.428, 0.595, -0.417, -0.072, 0.751, -1.269, 0
391036, -4.795, 0.089, -0.699, -0.141, 0.356, -1.146, 0
391056, -5.9, -0.263, -0.838, -0.238, 0.218, -0.973, 0
391076, -5.919, -0.715, -0.682, -0.294, 0.389, -0.729, 0
391096, -4.582, -0.93, 0.134, -0.122, 0.329, -0.543, 0
391116, -3.762, -1.602, 0.117, -0.026, 0.132, -0.426, 0
391136, -3.257, -1.77, -0.113, -0.105, -0.133, -0.362, 0
391156, -2.815, -1.363, -0.175, -0.133, -0.201, -0.265, 0
391176, -2.265, -1.647, -0.572, -0.046, -0.188, -0.158, 0
391196, -1.453, -2.101, -0.84, -0.021, -0.104, -0.078, 0
391216, -0.684, -2.18, -0.438, -0.073, -0.086, -0.067, 0
391236, -0.784, -1.593, -0.295, -0.135, -0.152, -0.131, 0
391256, -1.208, -1.229, -0.11, -0.11, -0.161, -0.081, 0
391276, -1.026, -1.15, -0.058, -0.009, -0.067, 0.025, 0
391296, -0.475, -1.528, 0.08, 0.065, 0.051, 0.103, 0
391316, 0.086, -1.529, 0.595, 0.022, 0.04, 0.09, 0
391336, 0.37, -1.574, 0.748, -0.025, -0.055, 0.057, 0
391356, 0.457, -2.284, 0.718, -0.196, -0.087, -0.018, 0
391376, 0.604, -2.281, 0.258, -0.612, -0.106, -0.25, 1
391396, 0.558, -1.686, 0.375, -0.891, -0.315, -0.512, 1
391416, 0.661, -0.857, 0.682, -0.975, -0.616, -0.67, 1
391436, 0.848, -0.525, 1.18, -0.717, -0.871, -0.775, 1
391456, 0.56, -0.705, 0.775, -0.312, -1.074, -0.76, 1
391476, 0.028, -1.298, -0.185, -0.103, -0.929, -0.802, 1
391496, 0.633, -0.597, -0.13, -0.13, -0.448, -1.01, 1
391516, 1.142, 0.633, 0.35, 0.069, -0.364, -1.041, 1
391536, 0.725, 0.879, -0.028, 0.586, -0.353, -0.896, 1
391556, 0.477, 0.915, -0.341, 1.084, -0.169, -0.73, 1
391576, 1.255, -0.256, -1.484, 1.18, 0.119, -0.855, 1
391596, 1.993, 1.136, -1.935, 1.001, 0.185, -1.036, 0
391616, 1.977, 1.472, -0.406, 1.319, 0.364, -1.23, 0
391636, 2.42, 0.677, -1.935, 0.766, -0.031, -1.155, 0
391656, 0.967, 0.716, -2.982, 0.284, 0.046, -1.515, 0
391676, 0.363, 2.01, -2.921, -0.065, 0.085, -1.496, 0
391696, -0.766, 1.79, -4.643, -0.596, -0.041, -1.609, 0
391716, -2.99, 1.535, -5.291, -1.216, 0.092, -1.397, 0
391736, -5.476, 2.704, -4.837, -1.246, 0.547, -0.698, 0
391756, -7.065, 2.213, -4.953, -1.196, 1.222, 0.092, 0
391776, -7.517, 0.567, -4.65, -1.299, 1.552, 0.742, 0
391796, -7.075, -1.397, -4.227, -1.552, 1.582, 1.261, 0
391816, -6.42, -3.788, -3.188, -1.916, 1.403, 1.419, 0
391836, -5.857, -4.985, -2.017, -2.248, 0.864, 1.474, 0
391856, -6.391, -5.304, -1.441, -2.344, 0.314, 1.584, 0
391876, -7.133, -4.903, -0.826, -1.998, 0.027, 2.013, 0
391896, -7.693, -5.094, -0.522, -1.561, -0.11, 2.499, 0
391916, -8.115, -6.007, -0.761, -1.34, -0.062, 2.773, 0
391936, -7.536, -6.484, -0.379, -1.403, -0.025, 2.903, 0
391956, -6.581, -6.235, 0.383, -1.364, -0.434, 2.866, 0
391976, -7.208, -5.304, 1.117, -1.155, -0.766, 3.028, 0
391996, -7.64, -5.016, 1.974, -0.605, -0.577, 3.276, 0
392016, -7.191, -6.727, 1.258, -0.506, 0.04, 3.241, 0
392036, -4.008, -6.845, 1.619, -0.611, -0.307, 3.021, 0
392056, -2.409, -7.103, 1.713, -0.699, -1.157, 2.702, 0
392076, -2.957, -6.585, 1.955, -0.447, -1.376, 2.549, 0
392096, -2.507, -6.736, 2.168, -0.163, -1.131, 2.326, 0
392116, -0.476, -6.687, 1.55, -0.001, -1.241, 2.077, 0
392136, 1.697, -7.201, 1.606, 0.066, -1.186, 1.894, 0
392156, 3.411, -8.009, 1.448, 0.27, -1.296, 1.557, 0
392176, 4.388, -7.612, 1.325, 0.245, -1.378, 0.988, 0
392196, 4.878, -6.826, 1.0, 0.31, -1.41, 0.544, 0
392216, 5.274, -5.987, 0.265, 0.51, -1.313, 0.232, 0
392236, 6.018, -5.53, -0.6, 0.594, -1.133, -0.089, 0
392256, 6.393, -4.728, -0.525, 0.594, -0.958, -0.486, 0
392276, 6.272, -3.597, -0.291, 0.594, -0.847, -0.876, 0
392296, 5.435, -2.948, -0.837, 0.709, -0.77, -1.14, 0
392316, 5.011, -2.705, -1.413, 0.849, -0.444, -1.321, 0
392336, 5.581, -1.543, -0.978, 0.831, -0.167, -1.484, 0
392356, 4.951, -0.505, -1.736, 0.894, -0.1, -1.729, 0
392376, 3.181, 0.701, -3.487, 0.834, -0.036, -1.879, 0
392396, 1.473, 1.529, -4.553, 0.722, 0.265, -1.893, 0
392416, 1.103, 1.905, -4.087, 0.519, 0.682, -1.809, 0
392436, 0.96, 1.634, -3.196, 0.34, 0.829, -1.753, 0
392456, 1.014, 1.339, -2.987, 0.215, 0.869, -1.831, 0
392476, -0.959, 1.038, -4.119, 0.113, 0.682, -1.947, 0
392496, -3.11, 1.343, -4.073, -0.181, 0.713, -1.91, 0
392516, -3.95, 1.014, -3.017, -0.332, 0.926, -1.702, 0
392536, -4.062, 0.372, -1.862, -0.443, 1.061, -1.56, 0
392556, -4.134, 0.021, -0.882, -0.406, 0.975, -1.42, 0
392576, -4.885, -0.576, -1.175, -0.393, 0.69, -1.29, 0
392596, -5.22, -0.437, -0.638, -0.462, 0.349, -0.943, 0
392616, -5.608, -1.122, -0.666, -0.375, 0.462, -0.709, 0
392636, -4.555, -1.666, -0.464, -0.311, 0.394, -0.533, 0
392656, -4.213, -2.373, -0.372, -0.285, 0.229, -0.419, 0
392676, -4.016, -2.412, 0.126, -0.228, 0.151, -0.311, 0
392696, -3.412, -2.616, 0.532, -0.135, 0.043, -0.224, 0
392716, -2.479, -2.617, 0.464, -0.063, -0.084, -0.189, 0
392736, -1.976, -2.591, 0.171, -0.013, -0.128, -0.143, 0
392756, -1.249, -2.631, 0.033, 0.007, -0.132, -0.147, 0
392776, -0.773, -2.484, -0.183, -0.052, -0.201, -0.193, 0
392796, -0.959, -2.079, -0.372, -0.113, -0.166, -0.182, 0
392816, -0.926, -1.673, -0.308, -0.108, -0.113, -0.122, 0
392836, -0.839, -1.51, 0.195, -0.026, -0.059, -0.028, 0
392856, -0.321, -1.614, 0.4, -0.034, -0.08, 0.014, 0
392876, 0.059, -1.776, 0.369, -0.077, -0.169, -0.024, 0
392896, -0.385, -1.542, 0.005, 0.022, -0.078, -0.158, 0
392916, 0.124, -0.471, 0.412, 0.184, -0.167, -0.053, 0
392936, -0.048, -0.878, 0.107, 0.172, -0.189, -0.02, 0
392956, -0.122, -1.123, -0.074, 0.003, -0.069, -0.028, 0
392976, 0.212, -1.073, 0.041, -0.141, -0.03, -0.018, 0
392996, 0.578, -0.857, -0.226, -0.186, -0.12, -0.058, 0
393016, 0.383, -0.832, 0.001, -0.18, -0.208, -0.104, 0
393036, 0.118, -0.837, -0.003, -0.21, -0.186, -0.128, 0
393056, 0.0, -0.994, -0.154, -0.281, -0.168, -0.128, 0
393076, -0.003, -1.078, 0.095, -0.499, -0.131, -0.185, 0
393096, 0.828, -0.838, 0.336, -0.526, -0.139, -0.361, 1
393116, 0.894, -0.371, 0.257, -0.41, -0.362, -0.48, 1
393136, 0.811, -0.171, 0.279, -0.157, -0.47, -0.529, 1
393156, 0.976, -0.432, -0.076, -0.009, -0.543, -0.563, 1
393176, 0.833, -0.485, -0.63, 0.036, -0.492, -0.631, 1
393196, 0.686, -0.463, -1.201, 0.009, -0.23, -0.84, 1
393216, 1.163, 0.699, -1.307, -0.065, -0.034, -0.877, 1
393236, 1.289, 1.641, -0.667, 0.172, -0.007, -0.831, 1
393256, 1.145, 1.666, -1.336, 0.328, -0.139, -0.831, 1
393276, 1.053, 1.066, -1.988, 0.284, -0.08, -0.856, 1
393296, 1.34, 0.896, -2.199, -0.095, 0.084, -1.039, 1
393316, 1.258, 1.998, -2.652, -0.317, 0.039, -1.26, 1
393336, -0.866, 3.37, -1.206, 0.253, -0.001, -0.981, 1
393356, -1.748, 2.331, -1.776, 0.537, 0.354, -0.725, 0
393376, -2.399, 1.532, -4.027, 0.054, 0.719, -0.563, 0
393396, -3.106, 1.818, -5.295, -0.443, 1.28, -0.588, 0
393416, -1.95, 1.14, -4.91, -0.75, 1.149, -0.453, 0
393436, -4.045, -0.091, -5.467, -1.444, 0.372, -0.467, 0
393456, -7.576, -0.754, -5.468, -2.081, 0.463, -0.197, 0
393476, -8.167, -0.872, -4.822, -2.254, 1.284, 0.545, 0
393496, -6.746, -2.361, -3.469, -1.7, 1.635, 1.489, 0
393516, -5.477, -5.739, -3.393, -1.594, 1.374, 1.772, 0
393536, -5.58, -6.454, -2.343, -2.151, 0.687, 1.498, 0
393556, -7.471, -5.545, -0.863, -2.466, 0.222, 1.309, 0
393576, -7.828, -4.481, 0.562, -1.894, 0.164, 1.858, 0
393596, -6.895, -4.604, 1.299, -1.302, -0.025, 2.233, 0
393616, -6.219, -5.254, 1.004, -0.896, -0.318, 2.5, 0
393636, -5.716, -7.415, -0.045, -1.172, -0.287, 2.335, 0
393656, -4.676, -6.298, 0.575, -1.371, -0.5, 2.153, 0
393676, -4.187, -5.418, 1.316, -1.123, -0.891, 2.199, 0
393696, -3.991, -5.314, 1.603, -0.805, -1.15, 2.296, 0
393716, -3.3, -4.796, 2.322, -0.456, -1.507, 2.501, 0
393736, -3.533, -6.462, 1.847, -0.364, -1.422, 2.468, 0
393756, -2.173, -6.906, 1.661, -0.576, -1.13, 2.227, 0
393776, -0.463, -5.172, 2.546, -0.208, -1.488, 2.143, 0
393796, -0.772, -5.123, 2.629, 0.353, -1.47, 2.206, 0
393816, 0.292, -6.84, 2.209, 0.408, -1.224, 1.948, 0
393836, 1.329, -6.193, 2.297, 0.327, -1.22, 1.623, 0
393856, 1.752, -5.561, 1.661, 0.427, -1.134, 1.445, 0
393876, 3.016, -5.53, 0.515, 0.516, -1.025, 1.18, 0
393896, 3.71, -5.693, 0.617, 0.57, -0.97, 0.929, 0
393916, 4.257, -5.205, 1.455, 0.689, -0.841, 0.672, 0
393936, 5.296, -4.643, 1.161, 0.866, -0.833, 0.377, 0
393956, 6.062, -4.05, -0.248, 1.002, -0.789, 0.069, 0
393976, 6.693, -3.94, -0.894, 1.065, -0.633, -0.317, 0
393996, 7.395, -3.283, -0.192, 1.021, -0.654, -0.802, 0
394016, 6.194, -1.781, -1.153, 1.047, -0.707, -1.092, 0
394036, 4.68, -0.439, -2.541, 1.099, -0.374, -1.173, 0
394056, 4.494, -0.098, -3.217, 0.96, 0.031, -1.323, 0
394076, 3.994, 0.484, -3.446, 0.773, 0.152, -1.591, 0
394096, 2.209, 1.527, -3.449, 0.72, 0.274, -1.682, 0
394116, 1.506, 1.696, -3.941, 0.718, 0.573, -1.643, 0
394136, 0.376, 1.396, -3.948, 0.59, 0.689, -1.626, 0
394156, -0.578, 1.312, -3.54, 0.345, 0.83, -1.66, 0
394176, -1.089, 1.01, -2.286, 0.144, 0.801, -1.674, 0
394196, -1.948, 0.769, -1.476, 0.128, 0.693, -1.681, 0
394216, -3.387, 0.824, -1.826, 0.13, 0.529, -1.654, 0
394236, -5.945, 1.198, -2.071, -0.034, 0.386, -1.517, 0
394256, -6.61, 1.329, -1.219, -0.155, 0.599, -1.18, 0
394276, -5.245, 0.35, -0.593, -0.143, 0.634, -0.833, 0
394296, -4.393, -0.528, -0.13, -0.075, 0.348, -0.591, 0
394316, -3.999, -1.282, -0.414, 0.013, 0.164, -0.5, 0
394336, -4.122, -1.31, -0.812, -0.05, 0.1, -0.447, 0
394356, -3.793, -0.784, -0.458, -0.078, 0.152, -0.297, 0
394376, -2.486, -1.489, -0.715, 0.029, 0.183, -0.114, 0
394396, -1.988, -1.718, -0.81, -0.053, 0.014, -0.1, 0
394416, -1.905, -1.533, -0.472, -0.133, -0.012, -0.087, 0
394436, -1.378, -1.233, 0.148, -0.136, 0.0, -0.058, 0
394456, -1.123, -1.218, 0.16, -0.071, -0.038, -0.014, 0
394476, -0.863, -1.289, 0.004, 0.038, -0.061, 0.033, 0
394496, -0.579, -1.654, -0.203, 0.009, -0.107, 0.019, 0
394516, -0.605, -1.389, 0.248, -0.118, -0.165, -0.046, 0
394536, -0.39, -1.24, 0.551, -0.167, -0.153, -0.062, 0
394556, -0.27, -1.499, 0.36, -0.386, -0.102, -0.182, 0
394576, 0.217, -1.463, 0.014, -0.623, -0.197, -0.241, 0
394596, 0.614, -1.055, 0.326, -0.654, -0.387, -0.296, 1
394616, 0.745, -0.801, 0.627, -0.477, -0.463, -0.318, 1
394636, 1.299, -0.996, 0.633, -0.307, -0.496, -0.375, 1
394656, 1.742, -1.042, 0.634, -0.194, -0.647, -0.503, 1
394676, 1.825, -1.128, 0.698, -0.088, -0.812, -0.656, 1
394696, 1.44, -1.064, 0.095, -0.093, -0.854, -0.85, 1
394716, 1.13, -0.54, -0.091, -0.032, -0.685, -0.925, 1
394736, 1.272, 0.225, 0.076, 0.253, -0.475, -0.972, 1
394756, 1.515, 0.256, 0.092, 0.501, -0.292, -1.065, 1
394776, 2.335, -0.074, -0.33, 0.574, -0.442, -1.326, 1
394796, 1.972, -0.498, -1.284, 0.306, -0.77, -1.343, 1
394816, 1.185, 0.677, -1.855, 0.282, -0.587, -1.359, 1
394836, 0.87, 1.292, -2.167, 0.508, -0.281, -1.219, 1
394856, 0.835, 1.5, -2.089, 0.736, 0.186, -1.243, 1
394876, 1.169, 1.038, -3.307, 0.661, 0.462, -1.414, 1
394896, 0.87, 1.035, -4.42, 0.424, 0.061, -0.997, 0
394916, -0.306, 2.375, -3.777, 0.112, -0.009, -1.328, 0
394936, -2.196, 2.536, -4.667, -0.263, 0.249, -1.224, 0
394956, -4.197, 2.977, -5.106, -0.329, 0.93, -0.695, 0
394976, -4.002, 2.554, -5.462, -0.613, 0.963, -0.222, 0
394996, -4.234, 0.381, -6.452, -1.5, 0.635, -0.161, 0
395016, -6.245, -0.734, -6.084, -2.392, 0.653, -0.092, 0
395036, -7.17, -0.716, -4.566, -2.371, 0.818, 0.726, 0
395056, -7.522, -3.693, -2.196, -2.007, 0.972, 1.442, 0
395076, -6.847, -5.556, -2.028, -1.993, 1.051, 1.756, 0
395096, -6.554, -6.564, -1.625, -2.44, 0.79, 1.659, 0
395116, -6.848, -5.56, -0.531, -2.816, 0.323, 1.441, 0
395136, -7.54, -4.765, 0.572, -2.58, -0.012, 1.654, 0
395156, -7.902, -4.997, 1.368, -1.969, -0.06, 2.119, 0
395176, -7.633, -5.771, 1.541, -1.507, -0.02, 2.544, 0
395196, -6.619, -6.605, 1.64, -1.359, 0.094, 2.679, 0
395216, -5.585, -6.957, 1.547, -1.358, -0.132, 2.701, 0
395236, -4.84, -6.663, 2.073, -1.205, -0.434, 2.763, 0
395256, -3.982, -7.25, 2.474, -0.879, -0.773, 2.847, 0
395276, -3.446, -7.685, 2.734, -0.653, -0.943, 2.799, 0
395296, -2.419, -7.611, 2.35, -0.553, -0.922, 2.571, 0
395316, -1.342, -7.176, 2.493, -0.452, -1.121, 2.458, 0
395336, -0.242, -7.369, 2.641, -0.211, -1.249, 2.269, 0
395356, 1.116, -6.79, 3.361, 0.065, -1.518, 2.123, 0
395376, 0.419, -6.837, 2.275, 0.433, -1.738, 1.929, 0
395396, 1.153, -7.028, 1.461, 0.534, -1.439, 1.866, 0
395416, 3.719, -7.161, 1.573, 0.532, -1.196, 1.692, 0
395436, 4.991, -6.231, 1.858, 0.572, -1.313, 1.226, 0
395456, 4.502, -5.319, 1.423, 0.825, -1.459, 0.852, 0
395476, 4.932, -4.817, 0.309, 1.056, -1.293, 0.659, 0
395496, 5.204, -5.393, -0.738, 1.165, -1.166, 0.407, 0
395516, 5.943, -5.222, -0.533, 0.965, -0.903, -0.241, 0
395536, 6.704, -3.213, 0.655, 1.026, -0.988, -0.682, 0
395556, 5.751, -2.498, -0.669, 1.247, -1.131, -0.932, 0
395576, 4.22, -2.01, -2.58, 1.312, -0.813, -1.098, 0
395596, 3.239, -1.651, -3.95, 1.097, -0.301, -1.244, 0
395616, 3.122, -0.802, -3.554, 0.821, 0.023, -1.353, 0
395636, 3.826, 0.338, -2.876, 0.834, 0.005, -1.494, 0
395656, 2.682, 0.867, -4.345, 0.836, -0.03, -1.641, 0
395676, 0.396, 1.423, -5.613, 0.654, 0.409, -1.57, 0
395696, 0.241, 1.312, -5.095, 0.403, 0.779, -1.492, 0
395716, 0.678, 0.935, -4.054, 0.283, 0.835, -1.524, 0
395736, 0.426, 0.565, -3.651, 0.287, 0.846, -1.694, 0
395756, -1.029, 0.661, -4.431, -0.01, 0.749, -1.751, 0
395776, -3.195, 1.544, -3.878, -0.218, 0.81, -1.647, 0
395796, -4.144, 1.848, -2.94, -0.351, 0.939, -1.432, 0
395816, -4.622, 1.783, -2.237, -0.39, 0.866, -1.207, 0
395836, -5.259, 1.772, -1.376, -0.332, 0.788, -0.932, 0
395856, -5.566, 0.967, -0.774, -0.257, 0.67, -0.645, 0
395876, -5.278, -0.399, -0.48, -0.353, 0.546, -0.502, 0
395896, -4.815, -1.03, -0.084, -0.431, 0.444, -0.403, 0
395916, -4.162, -1.096, 0.311, -0.354, 0.262, -0.29, 0
395936, -3.963, -1.325, 0.251, -0.249, 0.161, -0.164, 0
395956, -3.28, -1.778, 0.118, -0.186, 0.066, -0.067, 0
395976, -2.471, -2.177, 0.014, -0.248, 0.014, -0.046, 0
395996, -1.562, -2.255, 0.176, -0.313, -0.109, -0.085, 0
396016, -1.324, -1.909, 0.423, -0.164, -0.199, -0.071, 0
396036, -1.014, -1.916, 0.266, -0.095, -0.208, -0.05, 0
396056, -0.668, -1.935, 0.358, -0.078, -0.145, -0.043, 0
396076, -0.292, -1.829, 0.289, -0.103, -0.117, -0.053, 0
396096, -0.085, -1.673, 0.28, -0.148, -0.188, -0.084, 0
396116, -0.381, -1.346, 0.325, -0.109, -0.241, -0.084, 0
396136, -0.319, -1.342, 0.444, -0.073, -0.189, -0.049, 0
396156, -0.097, -1.428, 0.48, -0.081, -0.125, -0.058, 0
396176, 0.306, -1.654, 0.228, -0.178, -0.132, -0.119, 0
396196, 0.05, -1.514, 0.088, -0.354, -0.201, -0.202, 0
396216, 0.093, -1.153, 0.074, -0.429, -0.193, -0.214, 0
396236, 0.216, -0.885, 0.1, -0.393, -0.258, -0.2, 1
396256, -0.118, -1.03, 0.3, -0.354, -0.342, -0.218, 1
396276, 0.285, -0.729, 0.209, -0.353, -0.347, -0.262, 1
396296, 0.387, -0.776, 0.392, -0.407, -0.401, -0.266, 1
396316, 0.923, 0.232, 0.619, -0.405, -0.496, -0.388, 1
396336, 1.015, 0.108, 0.559, 0.139, -0.651, -0.479, 1
396356, 0.753, -0.42, -0.374, 0.426, -0.462, -0.577, 1
396376, 1.506, -0.216, -0.667, 0.434, -0.053, -0.808, 1
396396, 2.012, 0.308, -0.6, 0.522, -0.004, -0.925, 1
396416, 2.217, 1.057, -0.775, 0.781, -0.086, -0.94, 1
396436, 1.588, 0.749, -1.47, 1.386, 0.028, -0.915, 1
396456, 1.726, -0.2, -2.165, 1.524, 0.304, -0.748, 1
396476, 1.947, 0.914, -2.455, 1.263, 0.448, -0.757, 1
396496, 1.678, 0.788, -2.34, 1.267, 0.709, -1.237, 0
396516, 1.048, 1.014, -2.875, 0.791, 0.234, -1.081, 0
396536, -1.128, 1.98, -3.306, 0.431, 0.207, -0.978, 0
396556, -2.027, 1.743, -4.437, -0.223, 0.333, -0.794, 0
396576, -2.75, 1.144, -5.138, -0.959, 0.356, -0.714, 0
396596, -4.428, 1.045, -5.689, -1.651, 0.465, -0.544, 0
396616, -6.035, 1.979, -4.878, -1.659, 0.617, 0.006, 0
396636, -7.651, 0.73, -3.934, -1.597, 0.904, 0.707, 0
396656, -7.463, -1.242, -3.313, -1.792, 1.233, 1.105, 0
396676, -6.49, -3.317, -3.09, -2.177, 1.169, 1.214, 0
396696, -6.164, -4.425, -2.969, -2.54, 0.78, 1.266, 0
396716, -6.873, -3.817, -1.914, -2.367, 0.415, 1.502, 0
396736, -8.367, -4.589, -1.749, -2.189, 0.565, 1.784, 0
396756, -8.5, -5.134, -1.574, -2.106, 0.892, 2.089, 0
396776, -7.715, -4.743, -0.721, -1.846, 0.948, 2.297, 0
396796, -7.047, -5.365, 0.006, -1.615, 0.695, 2.435, 0
396816, -5.777, -5.633, 0.884, -1.514, 0.054, 2.453, 0
396836, -5.963, -5.514, 1.559, -1.348, -0.537, 2.442, 0
396856, -7.162, -5.933, 1.255, -1.126, -0.428, 2.554, 0
396876, -5.759, -6.37, 1.586, -0.94, -0.266, 2.625, 0
396896, -3.671, -6.688, 2.555, -0.713, -0.578, 2.494, 0
396916, -1.902, -7.394, 2.813, -0.643, -1.084, 2.166, 0
396936, -1.474, -6.278, 2.967, -0.39, -1.582, 1.991, 0
396956, -2.425, -6.852, 2.133, -0.123, -1.353, 1.881, 0
396976, -0.824, -7.176, 1.766, -0.068, -1.131, 1.677, 0
396996, 0.631, -6.996, 2.666, 0.04, -1.276, 1.298, 0
397016, 3.048, -5.518, 2.966, 0.257, -1.536, 1.125, 0
397036, 4.39, -5.776, 1.472, 0.681, -1.569, 1.01, 0
397056, 5.412, -6.805, 0.19, 0.795, -1.453, 0.627, 0
397076, 6.246, -5.087, 0.975, 0.649, -1.28, 0.113, 0
397096, 6.127, -3.532, 0.469, 0.735, -1.332, -0.24, 0
397116, 5.102, -2.157, -1.53, 0.911, -1.191, -0.461, 0
397136, 4.668, -1.812, -2.758, 1.021, -0.761, -0.516, 0
397156, 5.102, -2.024, -2.297, 0.921, -0.339, -0.638, 0
397176, 5.185, -1.095, -1.216, 0.799, -0.23, -0.873, 0
397196, 4.907, -0.59, -1.513, 0.872, -0.169, -1.104, 0
397216, 4.138, -0.171, -2.599, 0.905, -0.163, -1.309, 0
397236, 2.923, -0.082, -3.398, 0.838, -0.027, -1.469, 0
397256, 1.549, 0.652, -3.99, 0.673, 0.183, -1.62, 0
397276, 0.157, 1.693, -3.416, 0.448, 0.436, -1.628, 0
397296, 0.134, 2.006, -2.943, 0.381, 0.709, -1.51, 0
397316, 0.271, 1.056, -2.963, 0.407, 0.728, -1.469, 0
397336, -0.582, 0.594, -3.579, 0.25, 0.682, -1.59, 0
397356, -2.444, 0.939, -3.423, 0.03, 0.611, -1.648, 0
397376, -3.825, 0.995, -2.669, -0.186, 0.646, -1.554, 0
397396, -4.569, 0.936, -1.781, -0.235, 0.673, -1.354, 0
397416, -5.1, 0.643, -1.132, -0.217, 0.55, -1.126, 0
397436, -6.123, 0.291, -0.696, -0.166, 0.459, -0.883, 0
397456, -5.996, -0.6, -0.582, -0.159, 0.446, -0.585, 0
397476, -5.078, -1.093, -0.218, -0.262, 0.355, -0.282, 0
397496, -4.276, -1.559, -0.196, -0.219, 0.13, -0.16, 0
397516, -3.284, -2.07, -0.552, -0.188, 0.021, -0.116, 0
397536, -2.994, -2.041, -0.555, -0.207, -0.005, -0.077, 0
397556, -2.401, -1.764, -0.188, -0.182, 0.041, 0.004, 0
397576, -1.426, -1.583, 0.248, -0.103, -0.018, 0.042, 0
397596, -0.599, -1.679, 0.108, -0.075, -0.191, -0.021, 0
397616, -0.512, -1.825, -0.159, -0.07, -0.23, -0.061, 0
397636, -0.282, -1.71, -0.322, -0.092, -0.188, -0.082, 0
397656, -0.339, -1.459, -0.291, -0.146, -0.149, -0.083, 0
397676, -0.14, -0.882, 0.247, -0.054, -0.164, -0.049, 0
397696, -0.258, -1.049, 0.287, 0.006, -0.163, -0.025, 0
397716, -0.099, -0.983, 0.431, 0.028, -0.191, -0.016, 0
397736, -0.404, -1.173, 0.322, -0.05, -0.133, -0.037, 0
397756, -0.358, -0.936, 0.261, -0.117, -0.104, -0.022, 0
397776, -0.356, -1.014, 0.121, -0.178, -0.08, -0.019, 0
397796, -0.253, -0.85, 0.115, -0.199, -0.012, -0.014, 0
397816, 0.254, -0.832, 0.513, -0.189, -0.078, 0.012, 0
397836, 0.46, -0.763, 0.65, -0.138, -0.265, 0.018, 1
397856, 0.342, -0.635, 0.567, -0.106, -0.395, 0.001, 1
397876, 0.242, -1.303, 0.249, -0.324, -0.504, -0.119, 1
397896, 0.807, -1.837, -0.626, -0.81, -0.488, -0.459, 1
397916, 1.251, -1.144, -0.121, -0.955, -0.587, -0.654, 1
397936, 1.138, -0.546, 0.073, -0.708, -0.558, -0.784, 1
397956, 1.095, -0.24, 0.16, -0.272, -0.328, -0.798, 1
397976, 1.964, -0.083, 0.412, 0.342, -0.316, -0.966, 1
397996, 2.305, -0.619, -0.515, 0.645, -0.575, -1.227, 1
398016, 1.727, 0.242, -1.656, 0.737, -0.385, -1.451, 1
398036, 1.009, 1.031, -1.459, 1.017, -0.133, -1.387, 1
398056, 1.078, 0.841, -1.959, 0.976, 0.119, -1.219, 1
398076, 2.401, 1.497, -3.706, 0.771, 0.147, -1.434, 1
398096, 0.383, 0.986, -2.302, 1.228, -0.271, -1.485, 1
398116, -1.013, 0.736, -3.253, 0.999, 0.003, -1.594, 0
398136, -1.47, 0.257, -4.076, 0.445, 0.499, -1.593, 0
398156, -2.293, 1.664, -4.562, -0.325, 0.422, -1.478, 0
398176, -4.937, 3.29, -5.022, -0.615, 0.238, -1.21, 0
398196, -6.721, 2.561, -5.485, -0.633, 0.537, -0.5, 0
398216, -6.934, 0.835, -5.85, -0.988, 1.028, -0.003, 0
398236, -6.815, -0.319, -5.483, -1.641, 1.35, 0.291, 0
398256, -6.063, 0.047, -4.546, -2.142, 1.353, 0.632, 0
398276, -7.098, -1.667, -3.2, -1.803, 0.973, 1.197, 0
398296, -7.734, -3.669, -2.85, -1.797, 1.254, 1.532, 0
398316, -7.128, -4.925, -2.235, -2.021, 1.609, 1.709, 0
398336, -6.101, -4.823, -0.598, -2.155, 1.406, 1.791, 0
398356, -6.587, -5.099, 0.186, -2.097, 0.777, 1.798, 0
398376, -7.141, -5.05, 0.537, -2.061, 0.393, 1.899, 0
398396, -7.362, -4.932, 1.189, -1.941, 0.26, 2.076, 0
398416, -7.109, -4.803, 1.607, -1.738, 0.32, 2.301, 0
398436, -6.133, -5.207, 1.635, -1.385, 0.358, 2.48, 0
398456, -4.532, -5.817, 2.04, -0.948, 0.161, 2.583, 0
398476, -3.942, -6.638, 1.509, -1.185, -0.574, 2.318, 0
398496, -4.442, -5.728, 2.153, -1.291, -0.707, 2.171, 0
398516, -4.421, -4.82, 2.43, -1.065, -0.751, 2.295, 0
398536, -3.934, -4.894, 2.333, -0.64, -0.779, 2.492, 0
398556, -2.749, -6.012, 2.059, -0.447, -0.745, 2.58, 0
398576, -0.462, -7.011, 2.096, -0.467, -1.005, 2.301, 0
398596, 0.462, -6.989, 1.989, -0.508, -1.425, 1.938, 0
398616, -0.259, -6.646, 1.838, -0.313, -1.279, 1.782, 0
398636, 0.192, -6.163, 2.363, -0.023, -1.081, 1.731, 0
398656, 1.59, -5.655, 3.326, 0.281, -1.069, 1.594, 0
398676, 2.945, -5.763, 2.601, 0.556, -1.277, 1.397, 0
398696, 3.865, -6.187, 0.746, 0.486, -1.389, 1.0, 0
398716, 3.937, -6.336, 0.531, 0.422, -1.205, 0.605, 0
398736, 4.95, -4.821, 1.815, 0.543, -1.133, 0.379, 0
398756, 6.06, -3.956, 1.891, 0.935, -1.238, 0.166, 0
398776, 6.274, -3.788, -0.096, 1.178, -1.13, -0.087, 0
398796, 6.004, -4.19, -1.919, 1.018, -0.754, -0.45, 0
398816, 6.492, -2.935, -1.574, 0.796, -0.583, -0.858, 0
398836, 5.772, -1.876, -0.91, 0.871, -0.567, -1.066, 0
398856, 5.876, -1.072, -0.849, 1.189, -0.408, -1.251, 0
398876, 5.32, -1.281, -3.122, 1.215, -0.317, -1.51, 0
398896, 3.533, -0.609, -4.166, 0.905, -0.013, -1.75, 0
398916, 2.967, 0.038, -3.086, 0.677, 0.235, -1.909, 0
398936, 2.634, 0.956, -2.693, 0.709, 0.062, -2.065, 0
398956, 0.278, 1.375, -3.702, 0.675, 0.356, -2.005, 0
398976, -1.425, 0.595, -3.633, 0.496, 0.615, -1.971, 0
398996, -1.585, 0.674, -2.57, 0.307, 0.654, -1.994, 0
399016, -3.825, 1.306, -3.255, 0.175, 0.318, -2.037, 0
399036, -6.459, 2.408, -2.867, -0.136, 0.151, -1.786, 0
399056, -7.383, 2.667, -1.786, -0.16, 0.394, -1.312, 0
399076, -6.447, 1.559, -1.159, -0.087, 0.645, -0.86, 0
399096, -4.896, 0.495, -0.577, -0.076, 0.551, -0.59, 0
399116, -3.859, -0.506, -0.44, -0.114, 0.218, -0.535, 0
399136, -4.0, -0.464, -0.484, -0.142, -0.083, -0.492, 0
399156, -3.986, -0.488, -1.099, -0.12, -0.061, -0.364, 0
399176, -3.176, -0.733, -1.288, -0.089, 0.04, -0.156, 0
399196, -2.174, -1.264, -1.306, -0.127, 0.095, -0.024, 0
399216, -1.244, -1.438, -0.669, -0.172, 0.035, -0.015, 0
399236, -0.96, -1.51, -0.384, -0.189, -0.021, -0.042, 0
399256, -0.713, -1.614, -0.173, -0.191, 0.009, -0.032, 0
399276, -0.03, -1.626, 0.286, -0.207, -0.035, -0.048, 0
399296, -0.296, -1.526, 0.49, -0.213, -0.193, -0.106, 0
399316, -0.362, -1.21, 0.587, -0.15, -0.187, -0.149, 0
399336, -0.672, -1.17, 0.49, -0.083, -0.202, -0.109, 0
399356, -0.558, -1.161, 0.615, -0.113, -0.145, -0.065, 0
399376, -0.106, -1.616, 0.577, -0.25, -0.098, -0.102, 0
399396, 0.254, -1.683, 0.515, -0.54, -0.175, -0.194, 0
399416, -0.019, -1.246, 0.494, -0.766, -0.332, -0.306, 1
399436, -0.04, -1.081, 0.426, -0.82, -0.406, -0.489, 1
399456, -0.188, -0.771, 0.631, -0.707, -0.623, -0.525, 1
399476, 0.24, -1.095, 0.421, -0.717, -0.778, -0.497, 1
399496, 0.294, -0.279, 0.946, -0.423, -0.81, -0.52, 1
399516, 0.668, -0.345, 1.117, -0.07, -0.926, -0.451, 1
399536, 0.573, -0.636, 0.96, 0.161, -0.839, -0.525, 1
399556, 0.623, -0.519, 0.291, 0.288, -0.472, -0.706, 1
399576, 1.247, -0.156, 0.223, 0.496, -0.307, -0.671, 1
399596, 1.857, 0.121, -0.019, 0.57, -0.412, -0.797, 1
399616, 2.201, 0.362, -0.221, 0.681, -0.615, -0.874, 1
399636, 1.721, 0.979, -0.413, 1.2, -0.574, -0.606, 1
399656, 0.975, 0.326, -1.137, 1.343, -0.065, -0.676, 1
399676, 2.109, 0.285, -3.167, 1.241, 0.289, -0.764, 0
399696, 2.901, 1.713, -1.774, 1.579, 0.176, -1.007, 0
399716, 3.03, -0.444, -2.46, 0.974, -0.309, -1.184, 0
399736, 1.696, -0.288, -3.729, 0.328, -0.17, -1.523, 0
399756, 0.181, 1.185, -3.914, 0.152, 0.299, -1.577, 0
399776, -0.521, 1.778, -4.175, -0.006, 0.69, -1.513, 0
399796, -1.34, 1.657, -4.806, -0.398, 0.917, -1.433, 0
399816, -1.152, 1.145, -5.19, -1.104, 0.72, -1.591, 0
399836, -2.144, 1.914, -5.001, -1.682, 0.159, -1.462, 0
399856, -5.707, 2.967, -4.051, -1.62, 0.346, -0.97, 0
399876, -7.068, 2.831, -3.579, -1.299, 1.307, -0.182, 0
399896, -5.603, 0.465, -3.716, -1.2, 1.718, 0.367, 0
399916, -4.39, -2.058, -4.246, -1.678, 1.47, 0.483, 0
399936, -4.754, -2.72, -2.948, -2.332, 0.856, 0.499, 0
399956, -7.2, -2.784, -1.413, -2.285, 0.847, 0.955, 0
399976, -6.838, -3.661, -0.578, -1.855, 1.031, 1.5, 0
399996, -6.347, -5.108, -0.71, -1.651, 0.915, 1.768, 0
400016, -6.367, -5.82, -0.584, -1.893, 0.661, 1.702, 0
400036, -6.263, -5.738, -0.142, -2.183, 0.218, 1.668, 0
400056, -7.047, -4.741, 0.807, -2.178, -0.29, 1.841, 0
400076, -7.801, -4.22, 2.099, -1.843, -0.486, 2.212, 0
400096, -7.268, -4.359, 2.48, -1.248, -0.409, 2.626, 0
400116, -6.677, -6.218, 1.068, -0.895, -0.328, 2.808, 0
400136, -4.207, -6.256, 1.116, -1.061, -0.268, 2.695, 0
400156, -3.846, -5.852, 1.58, -1.087, -0.764, 2.505, 0
400176, -4.836, -4.963, 1.54, -0.965, -0.875, 2.404, 0
400196, -4.079, -4.912, 1.433, -0.648, -0.583, 2.509, 0
400216, -2.54, -5.97, 1.239, -0.473, -0.423, 2.498, 0
400236, -0.437, -6.029, 1.837, -0.571, -0.566, 2.287, 0
400256, 0.263, -5.833, 1.885, -0.489, -1.015, 2.039, 0
400276, 0.732, -6.337, 2.033, -0.243, -1.144, 1.857, 0
400296, 1.914, -6.186, 2.253, -0.049, -1.044, 1.589, 0
400316, 3.177, -5.758, 1.907, 0.224, -1.097, 1.402, 0
400336, 4.478, -5.921, 0.978, 0.38, -1.253, 1.153, 0
400356, 5.907, -6.149, 0.555, 0.408, -1.315, 0.778, 0
400376, 6.167, -5.719, 0.806, 0.38, -1.408, 0.243, 0
400396, 5.139, -3.989, 0.912, 0.479, -1.382, -0.196, 0
400416, 4.973, -3.046, 0.251, 0.871, -0.937, -0.33, 0
400436, 5.617, -2.617, -0.391, 0.993, -0.782, -0.41, 0
400456, 5.442, -2.617, -0.878, 0.946, -0.657, -0.668, 0
400476, 5.123, -1.881, -0.971, 0.79, -0.511, -0.999, 0
400496, 4.497, -0.395, -0.701, 0.822, -0.336, -1.105, 0
400516, 5.062, 0.549, -0.889, 1.101, -0.276, -1.183, 0
400536, 4.511, -0.022, -2.426, 1.121, -0.233, -1.346, 0
400556, 2.857, -0.019, -3.71, 0.91, 0.047, -1.477, 0
400576, 1.883, 0.244, -3.396, 0.636, 0.434, -1.592, 0
400596, 1.898, 0.869, -2.259, 0.527, 0.487, -1.7, 0
400616, 0.716, 1.257, -2.71, 0.547, 0.351, -1.758, 0
400636, -0.806, 1.621, -2.851, 0.551, 0.44, -1.706, 0
400656, -2.199, 1.299, -3.16, 0.411, 0.6, -1.638, 0
400676, -2.84, 0.993, -2.497, 0.197, 0.654, -1.616, 0
400696, -3.584, 1.331, -1.745, 0.164, 0.433, -1.494, 0
400716, -4.629, 1.002, -1.471, 0.124, 0.187, -1.334, 0
400736, -5.634, 0.567, -1.665, 0.018, 0.155, -1.106, 0
400756, -6.082, 0.289, -1.745, -0.069, 0.227, -0.838, 0
400776, -5.789, 0.097, -1.422, -0.12, 0.224, -0.571, 0
400796, -5.199, -0.267, -1.001, -0.092, 0.216, -0.33, 0
400816, -4.148, -0.479, -0.623, -0.036, 0.067, -0.145, 0
400836, -3.598, -1.027, -0.704, -0.09, 0.015, -0.05, 0
400856, -3.16, -1.371, -0.72, -0.203, 0.077, -0.015, 0
400876, -2.351, -1.179, -0.376, -0.26, 0.131, 0.048, 0
400896, -1.603, -1.677, -0.449, -0.359, 0.171, -0.055, 0
400916, -0.849, -2.57, -0.585, -0.879, 0.149, -0.225, 0
400936, -0.368, -1.662, -0.159, -0.992, 0.006, -0.321, 1
400956, -0.345, -1.257, 0.432, -0.904, -0.217, -0.342, 1
400976, -0.406, -1.421, 0.643, -0.76, -0.293, -0.323, 1
400996, 0.028, -1.215, 0.673, -0.653, -0.348, -0.277, 1
401016, 0.375, -1.264, 0.735, -0.575, -0.508, -0.277, 1
401036, 0.078, -1.062, 0.76, -0.414, -0.719, -0.372, 1
401056, 0.012, -0.798, 0.962, -0.182, -0.729, -0.452, 1
401076, 0.257, -0.656, 1.028, 0.024, -0.66, -0.444, 1
401096, 0.509, -0.643, 1.022, 0.261, -0.633, -0.413, 1
401116, 1.021, -0.946, 0.887, 0.479, -0.638, -0.425, 1
401136, 1.442, -1.015, 0.742, 0.563, -0.807, -0.469, 1
401156, 1.099, -1.078, 0.184, 0.596, -0.861, -0.649, 1
401176, 0.88, -0.596, -0.49, 0.513, -0.602, -0.744, 1
401196, 1.461, 0.351, -0.422, 0.724, -0.232, -0.671, 1
401216, 2.041, 0.6, -0.549, 1.126, -0.124, -0.615, 1
401236, 2.278, 0.516, -1.311, 1.418, -0.247, -0.647, 1
401256, 0.979, 0.677, -3.67, 1.523, -0.237, -0.844, 1
401276, 0.353, 0.796, -2.941, 1.606, 0.495, -0.833, 0
401296, 3.485, -0.429, -3.624, 1.172, 0.939, -0.971, 0
401316, 3.485, 0.524, -4.541, 0.219, 0.028, -1.408, 0
401336, -0.632, 2.497, -4.089, -0.194, -0.503, -1.542, 0
401356, -2.649, 2.547, -4.818, -0.334, -0.023, -1.358, 0
401376, -3.29, 2.342, -5.032, -0.712, 0.61, -1.126, 0
401396, -3.285, 2.539, -4.356, -1.243, 1.026, -0.836, 0
401416, -3.157, 1.845, -3.765, -1.409, 0.714, -0.548, 0
401436, -3.701, 0.696, -3.046, -1.635, 0.45, -0.324, 0
401456, -5.177, -0.166, -3.101, -1.827, 0.618, 0.011, 0
401476, -6.123, -0.568, -2.663, -1.855, 0.949, 0.447, 0
401496, -5.788, -1.035, -2.025, -1.771, 1.071, 0.893, 0
401516, -5.298, -2.524, -1.912, -1.857, 0.902, 1.124, 0
401536, -5.57, -3.791, -1.853, -2.054, 0.869, 1.161, 0
401556, -5.734, -4.647, -1.725, -2.186, 0.901, 1.291, 0
401576, -5.88, -4.594, -0.774, -1.997, 0.815, 1.558, 0
401596, -5.876, -5.101, 0.01, -1.72, 0.695, 1.808, 0
401616, -5.581, -5.646, 0.245, -1.554, 0.582, 1.919, 0
401636, -5.17, -6.105, 0.148, -1.428, 0.427, 1.933, 0
401656, -4.941, -5.874, 0.414, -1.366, 0.168, 1.952, 0
401676, -5.409, -5.024, 0.723, -1.244, -0.095, 2.037, 0
401696, -5.668, -4.852, 1.444, -0.98, -0.182, 2.295, 0
401716, -5.023, -4.765, 2.183, -0.671, -0.216, 2.375, 0
401736, -4.323, -5.701, 1.742, -0.655, -0.318, 2.262, 0
401756, -3.094, -5.844, 1.55, -0.714, -0.576, 2.078, 0
401776, -2.86, -5.378, 1.292, -0.561, -0.793, 2.081, 0
401796, -2.758, -5.207, 1.653, -0.35, -0.699, 2.128, 0
401816, -1.572, -5.33, 2.448, -0.21, -0.609, 2.036, 0
401836, -0.006, -5.515, 2.695, -0.197, -0.766, 1.742, 0
401856, 0.511, -5.377, 2.171, -0.125, -0.996, 1.546, 0
401876, 1.687, -4.87, 2.86, 0.044, -1.173, 1.329, 0
401896, 2.084, -4.698, 1.794, 0.453, -1.255, 1.185, 0
401916, 3.764, -5.611, 1.455, 0.623, -1.006, 1.115, 0
401936, 5.567, -5.24, 1.741, 0.7, -0.91, 0.742, 0
401956, 5.795, -3.885, 1.922, 0.77, -1.117, 0.348, 0
401976, 4.861, -2.649, 0.621, 0.836, -1.263, 0.085, 0
401996, 5.072, -2.718, -0.888, 1.001, -0.879, -0.022, 0
402016, 6.705, -2.875, -1.311, 0.946, -0.529, -0.256, 0
402036, 6.504, -1.478, -0.81, 0.775, -0.664, -0.667, 0
402056, 4.902, -0.119, -1.977, 0.791, -0.733, -0.908, 0
402076, 4.322, 0.109, -3.159, 0.857, -0.456, -0.906, 0
402096, 4.157, -0.595, -3.661, 0.836, -0.073, -0.956, 0
402116, 4.447, -1.147, -3.093, 0.634, 0.148, -1.19, 0
402136, 3.371, -0.385, -2.45, 0.395, 0.056, -1.555, 0
402156, 1.051, 0.581, -3.114, 0.353, -0.003, -1.731, 0
402176, -0.939, 1.158, -3.531, 0.335, 0.193, -1.649, 0
402196, -1.983, 1.021, -3.338, 0.319, 0.604, -1.464, 0
402216, -1.859, 0.663, -2.334, 0.276, 0.891, -1.314, 0
402236, -2.05, 0.313, -1.943, 0.216, 0.811, -1.307, 0
402256, -3.555, 0.615, -1.956, 0.012, 0.456, -1.316, 0
402276, -5.34, 1.143, -1.825, -0.058, 0.332, -1.159, 0
402296, -5.686, 0.802, -1.795, 0.007, 0.577, -0.894, 0
402316, -4.848, 0.4, -1.164, -0.031, 0.718, -0.676, 0
402336, -4.127, -0.052, -0.67, -0.059, 0.512, -0.54, 0
402356, -3.947, -0.25, -0.667, -0.146, 0.163, -0.478, 0
402376, -4.52, -0.335, -0.626, -0.182, -0.003, -0.274, 0
402396, -3.918, -0.564, -0.311, -0.236, 0.164, -0.131, 0
402416, -2.541, -0.556, 0.374, -0.181, 0.012, -0.056, 0
402436, -1.793, -0.754, 0.664, -0.031, -0.169, -0.012, 0
402456, -1.112, -1.257, 0.482, -0.018, -0.281, -0.037, 0
402476, -0.879, -1.437, 0.316, -0.048, -0.299, -0.098, 0
402496, -0.642, -1.452, 0.107, -0.124, -0.25, -0.1, 0
402516, -0.355, -1.956, -0.212, -0.431, -0.228, -0.145, 0
402536, -0.059, -2.42, -0.447, -1.046, -0.183, -0.331, 0
402556, 0.441, -1.471, -0.103, -1.252, -0.409, -0.497, 1
402576, 0.241, -0.507, 0.111, -1.006, -0.718, -0.565, 1
402596, -0.361, -0.426, 0.176, -0.742, -0.842, -0.472, 1
402616, -0.095, -0.593, 0.03, -0.649, -1.0, -0.278, 1
402636, 0.101, -0.536, 0.301, -0.527, -1.09, -0.171, 1
402656, -0.493, -0.836, 0.036, -0.319, -0.759, -0.202, 1
402676, -0.252, -0.555, 0.222, -0.051, -0.193, -0.224, 1
402696, 0.38, -0.229, 0.796, 0.282, 0.131, -0.104, 1
402716, 1.437, -0.096, 1.067, 0.59, 0.026, -0.08, 1
402736, 1.926, 0.251, 1.175, 0.991, -0.223, -0.075, 1
402756, 1.615, 0.745, 0.528, 1.522, -0.092, -0.037, 1
402776, 1.341, 0.812, 0.472, 2.134, 0.477, -0.003, 1
402796, 3.576, -0.5, 0.469, 2.074, 0.616, -0.104, 0
402816, 6.708, -0.951, 0.025, 1.632, -0.307, -0.597, 0
402836, 6.224, -2.193, -1.302, 1.328, -1.029, -1.056, 0
402856, 4.043, -1.812, -2.344, 1.005, -0.634, -1.746, 0
402876, 2.119, -1.19, -3.819, 0.388, -0.181, -2.017, 0
402896, -0.056, 0.788, -4.767, -0.133, -0.056, -2.166, 0
402916, -1.733, 2.216, -5.048, -0.583, 0.095, -2.144, 0
402936, -3.567, 3.649, -4.896, -0.87, 0.117, -1.879, 0
402956, -4.562, 3.851, -4.68, -1.044, 0.167, -1.388, 0
402976, -6.137, 3.174, -5.068, -1.312, 0.241, -0.932, 0
402996, -7.001, 3.07, -4.718, -1.788, 0.529, -0.469, 0
403016, -6.735, 2.333, -4.097, -1.983, 0.797, 0.147, 0
403036, -6.146, 0.306, -3.677, -1.836, 0.802, 0.82, 0
403056, -6.367, -2.112, -3.944, -1.807, 0.808, 1.232, 0
403076, -6.727, -3.513, -3.21, -1.902, 0.979, 1.548, 0
403096, -6.815, -4.973, -2.559, -2.031, 1.189, 1.825, 0
403116, -5.673, -5.989, -1.29, -2.109, 1.042, 2.012, 0
403136, -5.992, -5.984, -0.059, -2.047, 0.441, 2.18, 0
403156, -6.908, -6.51, 0.868, -1.805, 0.23, 2.345, 0
403176, -6.663, -6.724, 1.861, -1.561, 0.408, 2.442, 0
403196, -5.803, -6.787, 2.243, -1.434, 0.489, 2.403, 0
403216, -4.846, -6.277, 3.035, -1.37, 0.059, 2.315, 0
403236, -5.051, -5.83, 3.414, -1.311, -0.552, 2.244, 0
403256, -5.321, -5.603, 3.117, -1.061, -0.72, 2.25, 0
403276, -4.262, -6.033, 2.649, -0.752, -0.392, 2.196, 0
403296, -2.5, -5.66, 2.849, -0.604, -0.492, 2.171, 0
403316, -1.997, -5.886, 1.976, -0.521, -0.904, 1.971, 0
403336, -1.466, -5.32, 1.811, -0.502, -1.131, 1.856, 0
403356, -1.02, -4.874, 2.342, -0.072, -1.055, 1.878, 0
403376, 0.111, -5.265, 2.254, 0.171, -1.029, 1.839, 0
403396, 1.456, -5.634, 1.749, 0.327, -0.996, 1.689, 0
403416, 3.686, -5.953, 1.718, 0.425, -1.204, 1.433, 0
403436, 4.97, -6.609, 1.157, 0.408, -1.399, 0.944, 0
403456, 5.084, -5.935, 0.841, 0.406, -1.329, 0.517, 0
403476, 5.307, -5.151, 0.693, 0.544, -1.216, 0.261, 0
403496, 5.57, -3.818, 0.74, 0.83, -0.974, 0.048, 0
403516, 6.015, -3.578, -0.29, 0.957, -0.844, -0.196, 0
403536, 5.69, -3.037, -1.135, 0.88, -0.726, -0.477, 0
403556, 4.857, -2.268, -1.173, 0.777, -0.612, -0.646, 0
403576, 4.547, -1.308, -0.768, 0.868, -0.461, -0.781, 0
403596, 4.208, -0.914, -1.528, 0.872, -0.294, -0.91, 0
403616, 3.498, -0.395, -2.01, 0.857, -0.189, -0.984, 0
403636, 2.63, -0.409, -2.148, 0.744, 0.103, -1.067, 0
403656, 2.683, -0.132, -1.841, 0.708, 0.235, -1.152, 0
403676, 2.312, 0.229, -2.682, 0.661, 0.226, -1.296, 0
403696, 0.477, 0.711, -3.468, 0.484, 0.32, -1.354, 0
403716, -0.506, 1.099, -3.001, 0.34, 0.608, -1.307, 0
403736, -0.366, 1.105, -2.157, 0.369, 0.7, -1.237, 0
403756, -0.12, 0.138, -1.953, 0.318, 0.587, -1.276, 0
403776, -0.675, -0.006, -2.34, 0.232, 0.437, -1.348, 0
403796, -1.964, -0.107, -2.423, 0.114, 0.5, -1.307, 0
403816, -2.457, 0.178, -2.086, 0.011, 0.551, -1.226, 0
403836, -2.878, 0.488, -1.442, -0.009, 0.494, -1.068, 0
403856, -3.457, 0.573, -0.658, -0.084, 0.455, -0.952, 0
403876, -3.663, 0.563, -0.274, -0.059, 0.364, -0.795, 0
403896, -3.397, 0.243, -0.396, 0.038, 0.272, -0.629, 0
403916, -3.399, -0.332, -0.869, 0.031, 0.186, -0.481, 0
403936, -3.469, -0.748, -1.098, -0.012, 0.236, -0.389, 0
403956, -2.841, -1.129, -0.846, -0.173, 0.21, -0.299, 0
403976, -2.885, -1.112, -0.412, -0.293, 0.085, -0.257, 0
403996, -2.613, -1.381, -0.118, -0.268, 0.112, -0.185, 0
404016, -1.966, -1.757, 0.112, -0.26, 0.139, -0.149, 0
404036, -1.411, -2.157, 0.284, -0.346, 0.078, -0.169, 0
404056, -1.028, -2.432, 0.437, -0.529, -0.009, -0.235, 1
404076, -0.379, -2.338, 0.299, -0.858, -0.149, -0.303, 1
404096, -0.058, -1.325, 0.863, -1.08, -0.442, -0.348, 1
404116, 0.333, -1.071, 1.223, -1.01, -0.769, -0.37, 1
404136, 0.621, -0.779, 1.391, -0.684, -1.057, -0.411, 1
404156, 0.599, -0.97, 1.038, -0.179, -1.28, -0.401, 1
404176, 0.349, -1.662, 0.229, 0.069, -1.06, -0.442, 1
404196, 1.069, -1.341, 0.015, 0.111, -0.739, -0.547, 1
404216, 1.135, -0.75, 0.043, 0.214, -0.742, -0.624, 1
404236, 0.958, -0.32, 0.305, 0.455, -0.757, -0.51, 1
404256, 1.409, -0.451, 0.12, 0.653, -0.617, -0.44, 1
404276, 1.145, -0.41, -1.003, 0.898, -0.365, -0.523, 1
404296, 1.613, 0.241, -0.414, 1.631, 0.303, -0.387, 1
404316, 3.943, -0.877, -0.263, 1.626, 0.5, -0.358, 1
404336, 5.006, -0.649, -0.471, 1.385, -0.511, -0.759, 0
404356, 1.693, -0.528, -1.652, 1.207, -0.133, -1.056, 0
404376, 1.455, 0.036, -2.386, 0.84, 0.602, -1.169, 0
404396, 2.155, 1.136, -1.716, 0.734, 0.653, -1.243, 0
404416, 2.487, 1.23, -2.276, 0.559, 0.27, -1.306, 0
404436, 1.483, 1.298, -2.858, 0.387, -0.126, -1.376, 0
404456, -0.789, 0.837, -4.317, -0.138, 0.04, -1.523, 0
404476, -2.884, 1.743, -5.071, -0.696, 0.497, -1.424, 0
404496, -4.156, 2.928, -4.726, -0.97, 0.772, -1.105, 0
404516, -4.597, 2.929, -4.719, -0.944, 0.948, -0.458, 0
404536, -4.501, 0.935, -4.747, -1.299, 0.803, -0.039, 0
404556, -4.866, -0.413, -4.634, -1.902, 0.619, 0.161, 0
404576, -6.132, -1.012, -3.815, -2.319, 0.692, 0.405, 0
404596, -6.41, -1.22, -3.168, -2.148, 0.875, 1.023, 0
404616, -6.083, -2.417, -2.455, -1.797, 0.957, 1.489, 0
404636, -5.385, -4.424, -2.659, -1.875, 0.8, 1.755, 0
404656, -5.483, -5.211, -2.245, -2.088, 0.536, 1.711, 0
404676, -6.166, -5.469, -1.898, -2.274, 0.405, 1.787, 0
404696, -6.498, -4.798, -0.954, -2.024, 0.384, 2.103, 0
404716, -6.88, -5.051, 0.064, -1.693, 0.543, 2.434, 0
404736, -6.528, -5.427, 0.147, -1.519, 0.64, 2.57, 0
404756, -5.999, -5.374, 0.563, -1.409, 0.552, 2.61, 0
404776, -5.436, -5.792, 0.825, -1.404, 0.167, 2.606, 0
404796, -5.12, -5.975, 1.427, -1.5, -0.28, 2.549, 0
404816, -5.418, -5.416, 2.553, -0.949, -0.292, 2.568, 0
404836, -2.99, -6.552, 3.517, -0.716, -0.186, 2.475, 0
404856, -2.014, -6.55, 3.064, -0.559, -0.47, 2.218, 0
404876, -1.587, -6.672, 2.734, -0.426, -0.636, 2.024, 0
404896, -0.393, -6.485, 3.086, -0.247, -0.693, 1.8, 0
404916, 0.826, -6.295, 3.581, -0.093, -0.819, 1.549, 0
404936, 1.491, -5.988, 2.7, 0.048, -1.058, 1.289, 0
404956, 1.665, -5.767, 1.686, 0.143, -1.152, 1.055, 0
404976, 2.561, -5.051, 2.184, 0.205, -1.134, 0.835, 0
404996, 2.798, -4.118, 2.642, 0.28, -1.224, 0.612, 0
405016, 3.101, -3.285, 2.089, 0.535, -1.269, 0.499, 0
405036, 3.615, -3.463, 0.273, 0.75, -1.214, 0.432, 0
405056, 4.233, -3.508, -0.548, 0.791, -1.034, 0.28, 0
405076, 4.758, -3.212, -0.638, 0.735, -0.859, 0.009, 0
405096, 4.653, -2.339, -0.846, 0.708, -0.78, -0.22, 0
405116, 4.758, -1.841, -1.78, 0.807, -0.618, -0.354, 0
405136, 4.388, -1.998, -2.569, 0.821, -0.402, -0.529, 0
405156, 4.174, -1.835, -2.023, 0.67, -0.223, -0.789, 0
405176, 4.041, -1.233, -1.165, 0.563, -0.178, -1.049, 0
405196, 3.104, -0.586, -1.806, 0.592, -0.282, -1.285, 0
405216, 1.482, -0.255, -2.725, 0.583, -0.234, -1.388, 0
405236, 0.693, -0.283, -3.043, 0.549, 0.025, -1.389, 0
405256, 0.491, -0.188, -2.861, 0.398, 0.232, -1.426, 0
405276, -0.646, -0.215, -2.486, 0.337, 0.2, -1.463, 0
405296, -1.277, -0.168, -1.636, 0.337, 0.324, -1.42, 0
405316, -1.041, -0.527, -0.752, 0.414, 0.526, -1.433, 0
405336, -1.009, -0.428, -0.993, 0.331, 0.309, -1.541, 0
405356, -2.433, 0.291, -1.689, 0.197, 0.091, -1.542, 0
405376, -4.249, 1.235, -1.986, 0.178, 0.203, -1.313, 0
405396, -4.868, 1.157, -1.875, 0.172, 0.499, -1.008, 0
405416, -3.883, 0.443, -1.246, 0.104, 0.551, -0.852, 0
405436, -3.201, 0.268, -0.57, 0.071, 0.407, -0.764, 0
405456, -2.785, -0.168, -0.413, 0.022, 0.164, -0.715, 0
405476, -3.152, -0.118, -0.524, -0.058, 0.058, -0.636, 0
405496, -3.443, 0.065, -0.688, -0.079, 0.135, -0.507, 0
405516, -3.117, 0.085, -0.554, -0.061, 0.26, -0.346, 0
405536, -2.397, -0.171, -0.227, -0.08, 0.359, -0.259, 0
405556, -1.504, -0.639, 0.0, -0.191, 0.298, -0.262, 0
405576, -0.962, -0.944, -0.224, -0.408, 0.114, -0.311, 1
405596, -1.243, -0.857, -0.306, -0.546, 0.056, -0.285, 1
405616, -1.328, -0.717, 0.344, -0.615, 0.119, -0.258, 1
405636, -0.358, -1.343, -0.167, -0.769, 0.02, -0.277, 1
405656, 0.306, -1.198, 0.039, -0.883, -0.295, -0.356, 1
405676, 0.118, -0.701, 0.305, -0.858, -0.548, -0.309, 1
405696, 0.073, -0.131, 0.279, -0.613, -0.713, -0.246, 1
405716, 0.014, 0.077, 0.476, -0.16, -0.79, -0.169, 1
405736, 0.045, -0.539, 0.436, 0.12, -0.648, -0.152, 1
405756, 0.832, -0.451, 0.815, 0.261, -0.601, -0.188, 1
405776, 1.377, -0.388, 0.764, 0.455, -0.803, -0.161, 1
405796, 1.726, 0.26, 0.934, 0.987, -0.828, -0.158, 1
405816, 1.43, -0.764, -0.726, 1.194, -0.458, -0.117, 1
405836, 1.947, 0.199, -0.884, 1.386, -0.088, -0.178, 1
405856, 2.563, 0.831, 0.171, 1.689, -0.16, 0.048, 1
405876, 2.889, -1.703, -0.586, 1.795, -0.223, -0.096, 0
405896, 4.053, -2.055, -1.874, 0.992, 0.079, -0.67, 0
405916, 3.442, -0.936, -2.589, 0.351, 0.09, -1.083, 0
405936, 2.759, 0.755, -2.208, 0.226, -0.054, -1.217, 0
405956, 1.685, 0.25, -3.134, 0.384, -0.07, -1.103, 0
405976, 1.433, -0.237, -4.206, 0.087, 0.222, -1.102, 0
405996, -0.361, -0.182, -6.129, -0.59, 0.311, -1.397, 0
406016, -1.245, 2.108, -5.577, -1.46, 0.465, -1.513, 0
406036, -3.271, 2.883, -4.963, -1.631, 0.386, -1.266, 0
406056, -4.844, 2.036, -4.829, -1.493, 0.939, -0.741, 0
406076, -4.826, 0.401, -4.621, -1.64, 1.679, -0.337, 0
406096, -4.232, 0.041, -3.608, -2.03, 1.667, -0.028, 0
406116, -5.23, -1.174, -2.564, -2.003, 1.086, 0.392, 0
406136, -6.274, -2.759, -2.388, -2.045, 1.058, 0.658, 0
406156, -5.72, -3.854, -1.934, -2.192, 1.201, 0.897, 0
406176, -5.989, -4.386, -2.001, -2.499, 1.104, 0.897, 0
406196, -5.574, -3.388, -0.785, -2.508, 0.718, 1.021, 0
406216, -6.803, -4.08, -0.002, -1.993, 0.229, 1.417, 0
406236, -7.19, -4.532, -0.127, -1.721, 0.098, 1.798, 0
406256, -7.561, -5.232, -0.325, -1.677, 0.13, 1.992, 0
406276, -6.564, -5.002, 0.583, -1.7, 0.111, 2.078, 0
406296, -6.158, -4.909, 1.3, -1.365, -0.293, 2.246, 0
406316, -5.351, -4.85, 2.035, -0.981, -0.521, 2.403, 0
406336, -4.481, -6.344, 1.165, -0.957, -0.731, 2.238, 0
406356, -3.79, -6.727, 0.973, -1.26, -0.881, 1.938, 0
406376, -3.407, -5.128, 2.228, -0.899, -0.953, 1.968, 0
406396, -2.341, -5.664, 2.436, -0.526, -1.107, 1.962, 0
406416, -1.636, -6.013, 2.386, -0.213, -1.226, 1.884, 0
406436, -0.791, -7.115, 1.513, -0.287, -1.238, 1.682, 0
406456, 0.564, -6.255, 2.602, -0.35, -1.493, 1.339, 0
406476, 0.428, -5.434, 2.792, -0.034, -1.592, 1.224, 0
406496, 0.757, -5.672, 1.79, 0.243, -1.396, 1.118, 0
406516, 1.862, -6.191, 1.343, 0.263, -1.318, 0.938, 0
406536, 2.648, -6.382, 1.814, 0.186, -1.462, 0.668, 0
406556, 2.693, -4.735, 2.281, 0.372, -1.489, 0.532, 0
406576, 2.852, -4.228, 1.123, 0.731, -1.208, 0.515, 0
406596, 4.046, -4.715, 0.09, 0.934, -0.952, 0.328, 0
406616, 5.004, -4.838, 0.279, 0.823, -0.826, 0.007, 0
406636, 5.85, -3.37, 0.789, 0.877, -0.985, -0.271, 0
406656, 5.194, -1.893, -0.946, 1.018, -0.821, -0.382, 0
406676, 5.359, -1.62, -2.458, 1.094, -0.526, -0.419, 0
406696, 5.613, -2.033, -2.755, 1.012, -0.227, -0.643, 0
406716, 6.074, -2.108, -2.057, 0.794, -0.149, -1.04, 0
406736, 4.989, -1.073, -2.036, 0.633, -0.171, -1.384, 0
406756, 3.251, 0.518, -2.206, 0.783, -0.082, -1.406, 0
406776, 2.139, 0.604, -3.061, 0.737, 0.222, -1.385, 0
406796, 1.395, 0.492, -2.967, 0.61, 0.359, -1.407, 0
406816, 1.383, 0.193, -2.485, 0.46, 0.391, -1.521, 0
406836, 0.248, 0.269, -2.677, 0.434, 0.276, -1.678, 0
406856, -2.161, 1.273, -3.549, 0.3, 0.277, -1.701, 0
406876, -3.513, 1.916, -2.808, 0.126, 0.505, -1.497, 0
406896, -3.097, 1.84, -1.434, 0.04, 0.661, -1.249, 0
406916, -3.043, 1.407, -0.695, 0.113, 0.539, -1.085, 0
406936, -3.197, 0.157, -1.127, 0.183, 0.39, -0.976, 0
406956, -3.637, -0.207, -1.25, 0.044, 0.25, -0.915, 0
406976, -4.261, -0.269, -1.094, -0.084, 0.139, -0.827, 0
406996, -4.946, -0.548, -1.222, -0.133, 0.147, -0.682, 0
407016, -5.003, -0.409, -0.754, -0.191, 0.206, -0.462, 0
407036, -4.428, -0.876, -0.337, -0.16, 0.241, -0.243, 0
407056, -3.485, -1.505, 0.078, -0.196, 0.247, -0.111, 0
407076, -2.618, -2.05, 0.26, -0.359, 0.136, -0.06, 0
407096, -2.258, -2.499, 0.239, -0.62, 0.023, -0.069, 1
407116, -1.667, -2.293, 0.29, -0.9, -0.124, -0.089, 1
407136, -0.889, -2.004, 0.787, -0.921, -0.403, -0.132, 1
407156, -0.514, -1.814, 1.142, -0.788, -0.8, -0.207, 1
407176, -0.719, -1.711, 0.984, -0.609, -1.178, -0.202, 1
407196, -0.977, -1.957, 0.536, -0.436, -1.331, -0.067, 1
407216, -0.959, -1.821, -0.08, -0.434, -0.974, -0.142, 1
407236, 0.248, -1.278, 0.492, -0.266, -0.507, -0.304, 1
407256, 1.124, -1.01, 0.573, 0.042, -0.495, -0.263, 1
407276, 0.719, -1.019, 0.272, 0.262, -0.585, -0.22, 1
407296, 0.946, -0.626, 0.322, 0.497, -0.414, -0.16, 1
407316, 1.341, -0.417, 0.319, 0.665, -0.178, -0.177, 1
407336, 1.723, 0.763, -0.016, 1.423, 0.018, -0.039, 1
407356, 0.528, 1.459, 0.753, 2.465, 0.486, 0.277, 1
407376, 4.036, -1.98, -0.457, 1.894, 0.409, -0.02, 1
407396, 6.202, -2.73, -1.724, 0.987, -0.417, -0.748, 0
407416, 4.169, -0.678, -1.265, 0.97, -0.481, -1.047, 0
407436, 3.423, -1.11, -2.738, 0.903, -0.005, -1.288, 0
407456, 3.402, -0.8, -2.8, 0.558, 0.245, -1.491, 0
407476, 2.898, -0.187, -3.086, 0.424, 0.477, -1.585, 0
407496, 2.708, -0.38, -3.284, 0.251, 0.156, -1.612, 0
407516, 1.207, -1.221, -4.497, -0.78, -0.186, -2.015, 0
407536, -1.908, 0.802, -3.926, -1.566, -0.101, -2.081, 0
407556, -4.138, 2.626, -3.508, -1.812, 0.098, -1.85, 0
407576, -5.748, 4.265, -3.049, -1.651, 0.355, -1.167, 0
407596, -6.339, 3.52, -3.044, -1.436, 0.612, -0.426, 0
407616, -7.092, 1.843, -3.351, -1.463, 1.158, 0.15, 0
407636, -6.157, 0.959, -3.288, -1.411, 1.257, 0.773, 0
407656, -6.278, -0.734, -2.905, -1.439, 1.111, 1.202, 0
407676, -6.593, -2.525, -2.812, -1.767, 1.126, 1.554, 0
407696, -5.966, -3.777, -1.7, -2.046, 1.035, 1.699, 0
407716, -6.215, -4.44, -1.314, -2.164, 0.877, 1.787, 0
407736, -6.512, -3.859, -0.91, -1.88, 0.654, 1.983, 0
407756, -7.212, -4.139, -0.395, -1.481, 0.704, 2.367, 0
407776, -6.955, -5.163, -0.509, -1.525, 0.982, 2.457, 0
407796, -5.699, -4.803, 0.333, -1.627, 0.736, 2.509, 0
407816, -6.014, -4.767, 1.153, -1.426, 0.242, 2.483, 0
407836, -6.216, -4.913, 1.336, -1.059, 0.13, 2.577, 0
407856, -5.092, -5.673, 0.912, -0.911, 0.188, 2.577, 0
407876, -3.681, -6.023, 0.815, -1.041, 0.058, 2.392, 0
407896, -2.965, -5.708, 1.362, -1.006, -0.324, 2.234, 0
407916, -2.18, -6.201, 1.967, -0.781, -0.671, 2.079, 0
407936, -1.939, -6.819, 2.037, -0.565, -0.822, 1.842, 0
407956, -1.072, -6.506, 1.823, -0.569, -0.886, 1.593, 0
407976, -0.469, -6.626, 1.95, -0.498, -1.039, 1.423, 0
407996, 0.385, -6.191, 2.195, -0.36, -1.072, 1.207, 0
408016, 0.612, -5.329, 2.861, -0.152, -1.216, 1.031, 0
408036, 0.954, -4.946, 2.599, 0.155, -1.237, 0.949, 0
408056, 2.135, -5.222, 1.489, 0.354, -1.216, 0.917, 0
408076, 2.943, -5.79, 0.547, 0.354, -1.173, 0.681, 0
408096, 3.387, -4.446, 1.605, 0.244, -1.184, 0.309, 0
408116, 3.043, -2.985, 2.133, 0.456, -1.236, 0.171, 0
408136, 3.355, -2.87, 0.545, 0.838, -1.133, 0.2, 0
408156, 4.451, -3.481, -1.104, 0.956, -0.907, 0.144, 0
408176, 5.381, -3.781, -1.168, 0.773, -0.715, -0.161, 0
408196, 5.402, -2.274, -0.194, 0.518, -0.78, -0.571, 0
408216, 4.111, -0.869, -0.55, 0.763, -0.788, -0.744, 0
408236, 3.859, -1.021, -2.194, 1.144, -0.502, -0.769, 0
408256, 3.516, -1.436, -2.979, 0.943, -0.044, -0.955, 0
408276, 3.88, -0.733, -2.081, 0.725, 0.095, -1.204, 0
408296, 3.668, -0.037, -1.916, 0.651, -0.01, -1.403, 0
408316, 2.336, 0.879, -2.458, 0.734, 0.056, -1.496, 0
408336, 0.913, 0.834, -3.906, 0.604, 0.247, -1.509, 0
408356, 0.161, 0.643, -3.651, 0.372, 0.433, -1.559, 0
408376, -0.026, 0.209, -2.56, 0.182, 0.517, -1.627, 0
408396, -0.103, 0.053, -1.376, 0.213, 0.363, -1.685, 0
408416, -1.837, 0.238, -1.658, 0.238, 0.252, -1.672, 0
408436, -3.899, 0.713, -1.728, 0.186, 0.396, -1.498, 0
408456, -4.785, 0.894, -1.352, 0.048, 0.568, -1.26, 0
408476, -4.677, 1.095, -0.68, 0.03, 0.514, -1.059, 0
408496, -5.194, 1.008, -1.06, 0.049, 0.318, -0.796, 0
408516, -5.526, 0.652, -1.301, -0.014, 0.294, -0.499, 0
408536, -5.368, 0.115, -1.027, -0.072, 0.419, -0.277, 0
408556, -4.461, -0.584, -0.742, -0.185, 0.408, -0.152, 0
408576, -3.971, -1.178, -0.632, -0.361, 0.374, -0.105, 0
408596, -3.446, -2.118, -0.582, -0.756, 0.409, -0.177, 0
408616, -2.118, -2.374, -0.448, -1.215, 0.208, -0.337, 1
408636, -1.541, -1.856, 0.302, -1.219, -0.128, -0.438, 1
408656, -1.233, -1.347, 0.215, -0.987, -0.332, -0.483, 1
408676, -0.854, -2.132, -0.163, -0.886, -0.599, -0.429, 1
408696, -0.48, -1.77, -0.068, -0.827, -0.857, -0.354, 1
408716, -0.537, -1.248, 0.305, -0.609, -1.049, -0.243, 1
408736, -0.626, -1.134, 0.546, -0.227, -0.922, -0.219, 1
408756, -0.482, -1.432, 0.525, -0.026, -0.679, -0.216, 1
408776, -0.027, -1.111, 0.517, 0.096, -0.44, -0.114, 1
408796, 0.915, -1.363, 0.766, 0.289, -0.27, -0.133, 1
408816, 1.391, -1.309, 1.044, 0.458, -0.307, -0.15, 1
408836, 1.717, -1.149, 0.624, 0.685, -0.421, -0.171, 1
408856, 1.742, -0.876, 0.425, 0.933, -0.456, -0.087, 1
408876, 2.062, -0.989, 0.222, 1.229, -0.067, -0.124, 1
408896, 3.851, -0.811, 0.32, 1.473, 0.117, -0.263, 1
408916, 4.696, -1.511, -0.074, 1.442, -0.38, -0.402, 0
408936, 3.647, -2.14, -0.967, 1.265, -0.923, -0.762, 0
408956, 2.717, -1.268, -2.508, 0.886, -0.497, -1.127, 0
408976, 3.271, -0.357, -2.787, 0.557, -0.042, -1.368, 0
408996, 3.569, -0.216, -3.106, 0.339, -0.123, -1.54, 0
409016, 2.534, -0.299, -3.868, -0.07, -0.233, -1.809, 0
409036, 1.371, 0.492, -3.689, -0.449, -0.143, -1.973, 0
409056, -0.344, 1.008, -4.104, -0.776, -0.094, -2.057, 0
409076, -2.639, 1.901, -3.825, -0.978, 0.035, -1.906, 0
409096, -4.084, 2.592, -3.287, -1.075, 0.456, -1.54, 0
409116, -4.706, 2.659, -2.807, -0.888, 0.848, -0.977, 0
409136, -5.009, 1.512, -3.19, -0.94, 0.999, -0.571, 0
409156, -5.433, 0.995, -2.841, -1.241, 0.937, -0.326, 0
409176, -5.774, 0.379, -2.532, -1.616, 0.928, -0.136, 0
409196, -6.009, -0.311, -2.387, -1.788, 1.034, 0.161, 0
409216, -5.34, -0.924, -1.97, -1.514, 1.171, 0.802, 0
409236, -5.215, -2.774, -2.54, -1.605, 1.062, 1.071, 0
409256, -5.091, -3.271, -1.791, -1.657, 0.949, 1.284, 0
409276, -5.55, -4.338, -1.7, -1.864, 1.065, 1.331, 0
409296, -4.181, -4.758, -1.022, -2.01, 0.761, 1.33, 0
409316, -3.664, -4.585, -0.368, -1.897, -0.022, 1.276, 0
409336, -5.337, -4.323, -0.159, -1.821, -0.232, 1.428, 0
409356, -7.153, -4.136, -0.192, -1.574, 0.159, 1.833, 0
409376, -6.949, -4.299, -0.298, -1.354, 0.613, 2.219, 0
409396, -5.194, -4.022, 0.941, -0.959, 0.256, 2.436, 0
409416, -4.287, -5.161, 0.669, -0.91, -0.384, 2.412, 0
409436, -4.781, -6.068, 0.215, -1.094, -0.627, 2.24, 0
409456, -5.267, -5.14, 1.134, -0.886, -0.265, 2.3, 0
409476, -3.958, -5.407, 1.785, -0.561, -0.239, 2.417, 0
409496, -2.425, -6.135, 2.177, -0.398, -0.61, 2.311, 0
409516, -1.505, -6.306, 2.691, -0.242, -0.978, 2.036, 0
409536, -1.355, -7.176, 1.753, -0.401, -0.966, 1.595, 0
409556, -0.912, -6.09, 2.172, -0.33, -1.025, 1.424, 0
409576, -0.384, -5.502, 2.328, -0.003, -1.083, 1.467, 0
409596, 0.461, -5.728, 2.208, 0.347, -1.117, 1.478, 0
409616, 1.409, -7.576, 0.844, 0.146, -1.044, 1.138, 0
409636, 2.189, -6.945, 1.662, -0.171, -1.035, 0.667, 0
409656, 2.178, -4.954, 2.968, 0.207, -1.094, 0.599, 0
409676, 2.55, -3.937, 3.023, 0.8, -0.992, 0.777, 0
409696, 4.111, -4.73, 1.49, 1.112, -0.724, 0.789, 0
409716, 5.765, -5.872, 0.285, 0.87, -0.665, 0.086, 0
409736, 5.678, -3.01, 1.529, 0.78, -0.829, -0.376, 0
409756, 5.175, -1.618, 0.467, 1.086, -0.948, -0.504, 0
409776, 4.734, -1.699, -2.076, 1.442, -0.775, -0.533, 0
409796, 4.663, -1.536, -3.353, 1.31, -0.439, -0.675, 0
409816, 4.39, -0.567, -2.824, 0.941, -0.207, -0.92, 0
409836, 4.584, 0.901, -2.111, 0.751, -0.103, -1.083, 0
409856, 4.118, 1.04, -3.128, 0.975, -0.156, -1.204, 0
409876, 2.52, 1.036, -4.637, 0.979, -0.082, -1.29, 0
409896, 1.291, 0.956, -4.919, 0.758, 0.175, -1.39, 0
409916, 0.581, 0.872, -4.028, 0.363, 0.385, -1.495, 0
409936, -0.717, 1.705, -3.414, 0.15, 0.412, -1.553, 0
409956, -2.658, 2.133, -2.738, 0.122, 0.37, -1.4, 0
409976, -4.359, 1.88, -2.311, 0.116, 0.51, -1.134, 0
409996, -4.536, 1.468, -1.283, 0.032, 0.733, -0.857, 0
410016, -4.544, 0.717, -1.03, -0.031, 0.75, -0.703, 0
410036, -4.32, 0.14, -1.173, -0.155, 0.579, -0.587, 0
410056, -4.576, -0.649, -1.006, -0.227, 0.42, -0.492, 0
410076, -3.898, -1.227, -0.545, -0.326, 0.409, -0.403, 0
410096, -3.125, -1.814, -0.483, -0.414, 0.296, -0.361, 1
410116, -2.505, -2.433, -0.654, -0.591, 0.171, -0.408, 1
410136, -1.957, -2.429, -0.195, -0.933, -0.144, -0.456, 1
410156, -1.199, -2.119, 0.113, -1.105, -0.5, -0.55, 1
410176, -0.854, -1.575, 0.722, -0.929, -0.803, -0.528, 1
410196, -0.718, -1.845, 0.883, -0.539, -1.081, -0.399, 1
410216, -0.737, -2.063, 0.677, -0.417, -1.136, -0.522, 1
410236, -0.766, -1.934, 0.292, -0.395, -0.767, -0.64, 1
410256, -0.057, -1.139, 0.586, -0.204, -0.506, -0.588, 1
410276, 0.909, -1.114, 0.856, 0.003, -0.511, -0.554, 1
410296, 1.302, -1.211, 0.891, 0.115, -0.525, -0.555, 1
410316, 2.161, -0.686, 1.149, 0.434, -0.535, -0.607, 1
410336, 1.827, -0.083, 0.708, 1.042, -0.435, -0.559, 1
410356, 1.423, -0.349, 0.032, 1.222, -0.169, -0.598, 1
410376, 2.102, 0.166, -1.704, 1.54, -0.076, -0.403, 1
410396, 1.334, 0.555, -1.172, 2.13, 0.34, -0.448, 1
410416, 1.782, -1.445, -2.588, 1.691, 0.884, -0.452, 1
410436, 4.267, -1.723, -3.162, 0.97, 0.548, -0.977, 0
410456, 3.762, -0.577, -3.444, 0.357, -0.167, -1.257, 0
410476, 1.68, 0.25, -3.487, 0.048, 0.01, -1.388, 0
410496, 1.199, 0.671, -4.87, -0.115, 0.343, -1.485, 0
410516, -0.57, 1.401, -4.82, -0.106, 0.833, -1.374, 0
410536, -1.619, 0.633, -5.511, -0.675, 1.298, -1.335, 0
410556, -0.835, 0.254, -4.963, -1.701, 0.962, -1.483, 0
410576, -2.287, 0.977, -3.532, -2.444, 0.591, -1.585, 0
410596, -2.923, 2.2, -2.494, -2.224, 0.376, -1.23, 0
410616, -4.69, 0.883, -2.036, -1.988, 0.488, -0.742, 0
410636, -5.671, 0.046, -2.024, -2.009, 0.891, -0.295, 0
410656, -5.893, -0.803, -2.232, -1.983, 1.083, 0.113, 0
410676, -5.461, -1.265, -1.553, -1.618, 0.803, 0.58, 0
410696, -5.949, -2.604, -1.247, -1.377, 0.525, 1.144, 0
410716, -6.423, -4.282, -1.633, -1.403, 0.328, 1.42, 0
410736, -6.297, -4.356, -1.224, -1.532, 0.315, 1.536, 0
410756, -6.315, -4.235, -0.43, -1.447, 0.12, 1.701, 0
410776, -6.776, -4.696, -0.088, -1.324, -0.007, 1.872, 0
410796, -6.497, -4.871, 0.454, -1.189, 0.003, 2.058, 0
410816, -6.553, -5.037, 0.747, -0.995, -0.059, 2.214, 0
410836, -6.198, -5.63, 0.561, -0.942, -0.048, 2.308, 0
410856, -5.333, -5.142, 1.775, -1.001, -0.184, 2.393, 0
410876, -4.157, -5.892, 2.328, -0.657, -0.321, 2.5, 0
410896, -3.068, -6.672, 2.114, -0.441, -0.629, 2.426, 0
410916, -3.01, -6.969, 1.646, -0.466, -0.846, 2.192, 0
410936, -2.02, -6.981, 1.683, -0.489, -0.819, 1.982, 0
410956, -1.272, -6.901, 2.062, -0.421, -0.978, 1.841, 0
410976, -0.353, -6.791, 3.123, -0.194, -1.017, 1.772, 0
410996, 1.319, -6.908, 3.655, 0.205, -1.07, 1.627, 0
411016, 1.72, -7.592, 2.916, 0.286, -1.182, 1.257, 0
411036, 2.366, -6.217, 2.242, 0.158, -1.354, 0.992, 0
411056, 2.124, -5.985, 1.455, 0.376, -1.416, 0.852, 0
411076, 3.116, -6.156, 1.595, 0.568, -1.183, 0.675, 0
411096, 3.824, -4.732, 2.452, 0.566, -1.198, 0.401, 0
411116, 4.213, -3.69, 2.001, 0.833, -1.227, 0.241, 0
411136, 5.429, -3.907, -0.134, 1.1, -1.133, 0.124, 0
411156, 5.411, -3.859, -1.831, 1.122, -1.027, -0.161, 0
411176, 5.774, -2.574, -1.603, 0.955, -0.703, -0.611, 0
411196, 5.731, -1.472, -1.636, 0.996, -0.675, -0.82, 0
411216, 5.006, -0.87, -2.641, 1.137, -0.492, -0.946, 0
411236, 4.491, -1.089, -4.147, 1.095, -0.189, -1.074, 0
411256, 3.962, -0.884, -4.561, 0.759, 0.093, -1.284, 0
411276, 3.457, 0.165, -3.536, 0.626, 0.241, -1.427, 0
411296, 2.395, 0.467, -3.672, 0.591, 0.369, -1.56, 0
411316, 0.911, 0.769, -4.134, 0.516, 0.46, -1.576, 0
411336, -0.339, 0.616, -4.119, 0.321, 0.676, -1.563, 0
411356, -0.647, 0.349, -3.122, 0.136, 0.746, -1.631, 0
411376, -1.805, 0.828, -2.795, -0.012, 0.608, -1.665, 0
411396, -4.07, 1.735, -2.718, -0.124, 0.477, -1.442, 0
411416, -6.247, 2.348, -2.05, -0.182, 0.658, -1.014, 0
411436, -6.392, 1.735, -1.085, -0.233, 0.785, -0.647, 0
411456, -5.891, 0.87, -0.158, -0.26, 0.766, -0.395, 0
411476, -4.951, -0.3, 0.331, -0.315, 0.647, -0.328, 0
411496, -4.118, -1.789, 0.038, -0.66, 0.359, -0.358, 0
411516, -3.874, -2.546, -0.376, -1.16, 0.138, -0.431, 1
411536, -3.328, -2.28, -0.376, -1.399, -0.045, -0.421, 1
411556, -2.429, -1.841, -0.229, -1.344, -0.438, -0.437, 1
411576, -1.92, -2.022, 0.232, -1.134, -0.899, -0.353, 1
411596, -1.648, -1.463, 0.523, -0.72, -1.07, -0.232, 1
411616, -1.214, -1.452, 0.491, -0.282, -1.096, -0.065, 1
411636, -1.279, -1.853, -0.225, -0.118, -0.933, -0.023, 1
411656, -0.641, -1.547, -0.005, 0.001, -0.829, -0.001, 1
411676, -0.087, -1.371, 1.016, 0.289, -0.789, 0.08, 1
411696, 0.581, -1.548, 0.906, 0.552, -0.696, 0.177, 1
411716, 1.104, -2.499, -0.338, 0.483, -0.511, 0.04, 1
411736, 1.654, -1.126, 0.018, 0.16, -0.468, -0.08, 1
411756, 1.349, 0.098, 0.53, 0.736, -0.34, -0.057, 1
411776, 1.451, -0.825, 0.456, 1.486, 0.067, 0.211, 1
411796, 2.799, -1.775, -1.35, 1.568, 0.381, 0.135, 1
411816, 3.612, -2.201, -0.982, 1.43, 0.451, -0.09, 0
411836, 4.188, -2.023, -0.971, 1.116, 0.365, -0.322, 0
411856, 4.651, -1.424, -0.823, 0.758, 0.073, -0.654, 0
411876, 3.39, -1.412, -1.313, 0.768, -0.138, -0.917, 0
411896, 3.01, -1.892, -2.035, 0.696, 0.04, -1.171, 0
411916, 1.979, -1.379, -2.915, 0.111, -0.026, -1.486, 0
411936, 0.062, -0.076, -3.346, -0.545, 0.023, -1.775, 0
411956, -0.787, 1.54, -2.762, -0.718, 0.279, -1.797, 0
411976, -1.248, 1.896, -2.906, -0.585, 0.459, -1.518, 0
411996, -2.028, 1.498, -3.272, -0.588, 0.534, -1.25, 0
412016, -2.897, 1.182, -3.458, -0.918, 0.476, -1.056, 0
412036, -3.165, 1.305, -3.016, -1.296, 0.339, -0.932, 0
412056, -4.185, 1.081, -2.707, -1.378, 0.222, -0.577, 0
412076, -4.382, 0.269, -2.59, -1.26, 0.5, -0.206, 0
412096, -4.455, -1.074, -2.871, -1.237, 0.81, 0.111, 0
412116, -4.286, -1.597, -2.569, -1.374, 1.054, 0.253, 0
412136, -4.255, -2.002, -2.205, -1.489, 0.976, 0.44, 0
412156, -4.724, -2.202, -1.424, -1.383, 0.71, 0.833, 0
412176, -5.331, -2.975, -1.195, -1.343, 0.896, 1.112, 0
412196, -4.652, -3.3, -0.613, -1.258, 0.872, 1.307, 0
412216, -4.581, -3.951, -0.705, -1.43, 0.562, 1.342, 0
412236, -4.723, -3.805, -0.416, -1.555, 0.205, 1.428, 0
412256, -5.334, -3.339, 0.261, -1.387, 0.098, 1.629, 0
412276, -5.588, -3.502, 0.383, -1.101, 0.259, 1.873, 0
412296, -5.077, -3.774, 0.187, -0.945, 0.249, 2.05, 0
412316, -5.248, -4.335, -0.223, -0.979, 0.221, 2.16, 0
412336, -4.341, -5.04, 0.09, -1.199, 0.009, 2.163, 0
412356, -3.967, -4.978, 0.989, -1.224, -0.313, 2.146, 0
412376, -4.661, -4.807, 1.533, -0.96, -0.229, 2.263, 0
412396, -4.395, -4.95, 1.796, -0.604, -0.003, 2.412, 0
412416, -3.028, -6.054, 1.602, -0.519, -0.036, 2.382, 0
412436, -1.475, -6.516, 1.774, -0.578, -0.378, 2.146, 0
412456, -1.085, -6.741, 2.035, -0.614, -0.623, 1.919, 0
412476, -0.943, -6.359, 2.51, -0.468, -0.679, 1.776, 0
412496, -0.421, -5.801, 2.915, -0.232, -0.72, 1.687, 0
412516, 0.529, -5.756, 2.686, 0.05, -0.871, 1.62, 0
412536, 1.825, -6.457, 2.051, 0.108, -1.044, 1.356, 0
412556, 2.506, -6.846, 1.498, 0.025, -1.291, 0.948, 0
412576, 1.515, -6.184, 1.483, -0.053, -1.131, 0.675, 0
412596, 2.198, -4.45, 2.484, 0.294, -1.046, 0.778, 0
412616, 3.882, -4.776, 2.309, 0.634, -1.048, 0.701, 0
412636, 5.393, -5.034, 1.191, 0.803, -1.124, 0.235, 0
412656, 6.285, -5.628, 0.707, 0.721, -0.979, -0.174, 0
412676, 6.463, -3.582, 0.954, 0.742, -1.014, -0.557, 0
412696, 5.69, -2.333, -0.441, 0.966, -1.053, -0.831, 0
412716, 4.755, -2.352, -2.22, 1.175, -0.887, -0.978, 0
412736, 4.772, -2.009, -2.778, 1.1, -0.533, -1.151, 0
412756, 4.39, -1.126, -2.609, 0.901, -0.303, -1.434, 0
412776, 3.354, 0.635, -2.718, 0.745, -0.163, -1.622, 0
412796, 1.964, 1.167, -3.426, 0.805, -0.065, -1.648, 0
412816, 1.394, 0.92, -3.787, 0.784, 0.189, -1.577, 0
412836, 0.89, 0.153, -3.877, 0.561, 0.314, -1.596, 0
412856, 0.018, 0.251, -3.686, 0.251, 0.444, -1.731, 0
412876, -1.477, 0.901, -2.961, 0.095, 0.425, -1.742, 0
412896, -2.758, 1.532, -2.09, 0.076, 0.451, -1.627, 0
412916, -3.778, 1.12, -1.624, 0.149, 0.52, -1.414, 0
412936, -4.122, 0.748, -1.568, 0.038, 0.494, -1.255, 0
412956, -4.996, 0.68, -1.558, -0.104, 0.401, -1.059, 0
412976, -4.64, 0.832, -0.781, -0.158, 0.346, -0.81, 0
412996, -4.627, -0.058, -0.402, -0.047, 0.208, -0.568, 0
413016, -3.9, -0.653, 0.024, -0.03, 0.218, -0.405, 0
413036, -3.175, -1.303, 0.216, -0.017, 0.161, -0.309, 0
413056, -2.786, -1.94, -0.216, -0.078, 0.027, -0.268, 0
413076, -2.76, -2.49, -0.684, -0.414, -0.091, -0.268, 1
413096, -2.17, -2.611, -0.827, -0.909, -0.192, -0.302, 1
413116, -1.766, -2.137, -0.162, -1.318, -0.488, -0.334, 1
413136, -1.334, -1.652, 0.487, -1.12, -0.97, -0.375, 1
413156, -1.515, -1.11, 0.81, -0.672, -1.032, -0.199, 1
413176, -1.134, -1.429, 0.774, -0.362, -1.023, -0.015, 1
413196, -0.94, -2.256, 0.359, -0.368, -0.862, -0.035, 1
413216, -0.928, -2.036, 0.096, -0.379, -0.427, -0.131, 1
413236, 0.258, -1.216, 0.707, -0.069, -0.317, -0.059, 1
413256, 0.934, -1.55, 0.818, 0.1, -0.437, -0.011, 1
413276, 1.192, -1.511, 0.782, 0.227, -0.496, -0.046, 1
413296, 1.289, -1.089, 0.578, 0.568, -0.332, -0.007, 1
413316, 1.1, -0.026, 0.477, 1.411, 0.136, 0.263, 1
413336, 2.166, -0.051, 0.611, 2.131, 0.355, 0.382, 1
413356, 4.034, -2.276, -0.31, 1.81, 0.243, 0.188, 1
413376, 5.099, -2.605, -0.093, 1.364, -0.262, -0.227, 0
413396, 4.531, -1.638, -0.008, 1.271, -0.43, -0.601, 0
413416, 4.067, -0.874, -1.564, 1.16, -0.199, -0.799, 0
413436, 4.417, -1.32, -2.444, 0.803, -0.163, -1.072, 0
413456, 3.742, -0.991, -3.122, 0.365, -0.039, -1.404, 0
413476, 3.599, -0.611, -3.246, 0.048, 0.004, -1.595, 0
413496, 2.923, -1.371, -3.831, -0.685, -0.196, -1.955, 0
413516, 0.446, 0.224, -3.373, -1.17, -0.078, -2.095, 0
413536, -1.335, 1.666, -2.983, -1.239, 0.153, -2.032, 0
413556, -3.228, 2.403, -3.202, -1.173, 0.61, -1.634, 0
413576, -3.939, 3.166, -2.61, -0.742, 0.883, -1.018, 0
413596, -3.574, 1.181, -3.442, -1.026, 0.916, -0.706, 0
413616, -3.924, 0.134, -3.685, -1.807, 0.714, -0.467, 0
413636, -6.054, 0.276, -2.548, -1.679, 0.685, 0.0, 0
413656, -6.314, 0.003, -2.141, -1.41, 0.885, 0.58, 0
413676, -6.037, -1.493, -2.036, -1.136, 1.004, 1.107, 0
413696, -6.113, -3.29, -2.577, -1.221, 1.085, 1.394, 0
413716, -5.455, -4.029, -2.14, -1.523, 1.083, 1.52, 0
413736, -4.847, -4.581, -1.407, -1.919, 0.626, 1.449, 0
413756, -5.979, -4.137, -0.146, -2.045, 0.124, 1.363, 0
413776, -7.143, -3.845, 0.322, -1.833, 0.169, 1.613, 0
413796, -6.63, -4.437, 0.338, -1.585, 0.534, 1.908, 0
413816, -5.43, -4.149, 1.253, -1.359, 0.501, 2.14, 0
413836, -4.668, -5.252, 1.013, -1.204, 0.12, 2.2, 0
413856, -4.409, -5.277, 1.566, -1.244, -0.299, 2.155, 0
413876, -4.063, -5.846, 1.687, -1.167, -0.481, 2.075, 0
413896, -4.048, -5.267, 2.5, -1.042, -0.696, 2.039, 0
413916, -3.496, -5.549, 2.844, -0.695, -0.637, 2.127, 0
413936, -1.825, -6.363, 2.958, -0.321, -0.703, 2.156, 0
413956, -0.792, -7.289, 2.36, -0.203, -1.002, 2.014, 0
413976, -0.536, -7.136, 2.017, -0.365, -1.213, 1.65, 0
413996, -0.114, -6.164, 2.513, -0.321, -1.167, 1.437, 0
414016, 0.691, -5.88, 2.857, -0.014, -1.144, 1.361, 0
414036, 1.286, -5.837, 2.366, 0.288, -1.258, 1.331, 0
414056, 1.814, -6.248, 1.422, 0.426, -1.228, 1.217, 0
414076, 2.982, -6.542, 0.876, 0.359, -1.105, 0.958, 0
414096, 3.575, -5.824, 1.215, 0.289, -1.106, 0.64, 0
414116, 4.549, -4.265, 1.673, 0.663, -1.073, 0.435, 0
414136, 5.634, -3.989, 0.765, 1.025, -1.037, 0.325, 0
414156, 6.327, -4.854, -0.896, 1.069, -0.847, 0.003, 0
414176, 6.284, -4.931, -2.07, 0.747, -0.673, -0.436, 0
414196, 5.564, -2.732, -1.22, 0.673, -0.47, -0.692, 0
414216, 5.716, -1.416, -0.374, 0.94, -0.357, -0.778, 0
414236, 6.31, -1.618, -1.032, 1.017, -0.419, -1.023, 0
414256, 4.912, -1.103, -2.933, 0.937, -0.276, -1.226, 0
414276, 3.401, -0.739, -3.857, 0.645, 0.113, -1.368, 0
414296, 2.885, 0.46, -2.97, 0.579, 0.364, -1.436, 0
414316, 2.17, 0.927, -3.155, 0.585, 0.455, -1.469, 0
414336, 0.771, 1.416, -3.455, 0.51, 0.556, -1.431, 0
414356, -0.125, 1.027, -3.605, 0.313, 0.701, -1.414, 0
414376, -0.557, 0.711, -3.103, 0.078, 0.682, -1.471, 0
414396, -1.416, 1.053, -2.168, 0.08, 0.632, -1.436, 0
414416, -2.939, 1.174, -1.765, 0.207, 0.678, -1.277, 0
414436, -4.415, 1.308, -1.834, 0.152, 0.703, -1.046, 0
414456, -5.286, 0.876, -1.493, 0.0, 0.792, -0.847, 0
414476, -4.774, 0.34, -0.96, -0.183, 0.605, -0.693, 0
414496, -5.084, 0.073, -0.331, -0.253, 0.394, -0.555, 0
414516, -5.281, -0.32, -0.39, -0.258, 0.425, -0.404, 0
414536, -4.8, -0.875, -0.304, -0.348, 0.477, -0.252, 0
414556, -3.938, -2.069, -0.543, -0.667, 0.45, -0.225, 1
414576, -2.904, -2.928, -0.632, -1.224, 0.273, -0.376, 1
414596, -2.161, -2.028, -0.044, -1.284, -0.172, -0.476, 1
414616, -2.005, -1.06, 0.329, -1.021, -0.574, -0.337, 1
414636, -1.08, -1.628, 0.121, -0.695, -0.62, -0.142, 1
414656, -0.666, -1.683, -0.091, -0.54, -0.883, -0.043, 1
414676, -1.319, -1.78, -0.396, -0.435, -0.809, -0.13, 1
414696, -1.161, -1.104, 0.076, -0.311, -0.552, -0.041, 1
414716, -1.014, -1.462, 0.322, -0.105, -0.374, 0.145, 1
414736, -0.335, -1.556, 0.84, -0.035, -0.245, 0.276, 1
414756, 0.656, -1.189, 1.572, 0.062, -0.336, 0.31, 1
414776, 0.728, -0.884, 1.846, 0.324, -0.64, 0.385, 1
414796, 0.377, -0.753, 1.425, 0.868, -0.57, 0.594, 1
414816, 1.186, -1.226, 0.934, 1.346, -0.216, 0.805, 1
414836, 2.437, -1.824, 0.045, 1.615, 0.118, 0.841, 1
414856, 4.254, -2.507, 0.869, 1.589, 0.157, 0.778, 1
414876, 5.048, -3.388, 0.223, 1.197, -0.433, 0.337, 0
414896, 3.899, -1.635, 0.266, 0.938, -0.64, -0.087, 0
414916, 5.039, -1.966, -0.183, 1.094, -0.125, -0.302, 0
414936, 6.198, -3.795, -1.291, 0.902, -0.175, -0.745, 0
414956, 5.703, -3.01, -2.227, 0.228, -0.359, -1.369, 0
414976, 4.011, -1.694, -2.325, 0.144, -0.36, -1.659, 0
414996, 3.2, -0.798, -2.429, 0.051, -0.171, -1.911, 0
415016, 2.11, -0.581, -3.03, -0.073, 0.012, -2.097, 0
415036, 2.197, -0.239, -2.833, -0.23, 0.174, -2.211, 0
415056, 1.79, -0.105, -3.305, -0.364, 0.015, -2.32, 0
415076, 0.073, -0.149, -4.281, -0.751, -0.333, -2.5, 0
415096, -3.195, 1.302, -4.662, -1.417, -0.237, -2.397, 0
415116, -5.247, 2.494, -4.604, -1.56, 0.288, -1.963, 0
415136, -5.509, 2.959, -4.214, -1.561, 0.607, -1.406, 0
415156, -5.789, 2.496, -3.784, -1.525, 0.824, -0.886, 0
415176, -5.365, 1.877, -3.326, -1.456, 0.815, -0.386, 0
415196, -5.674, 0.605, -3.398, -1.577, 0.811, -0.008, 0
415216, -6.434, -0.616, -3.208, -1.793, 1.085, 0.328, 0
415236, -6.054, -1.367, -2.584, -1.816, 1.22, 0.71, 0
415256, -5.929, -1.916, -1.206, -1.603, 1.079, 1.114, 0
415276, -5.695, -3.275, -1.036, -1.621, 0.931, 1.305, 0
415296, -5.226, -4.047, -0.67, -1.757, 0.61, 1.324, 0
415316, -5.345, -4.218, -0.088, -1.762, 0.226, 1.467, 0
415336, -5.899, -3.712, 0.982, -1.483, -0.039, 1.7, 0
415356, -6.355, -4.155, 1.33, -1.182, -0.051, 1.97, 0
415376, -5.656, -4.403, 1.478, -0.959, -0.148, 2.101, 0
415396, -5.729, -5.142, 0.424, -0.951, -0.215, 2.138, 0
415416, -5.347, -5.267, 0.502, -0.988, -0.135, 2.13, 0
415436, -4.091, -5.437, 0.925, -0.975, -0.352, 2.103, 0
415456, -3.889, -5.686, 1.293, -0.844, -0.507, 2.1, 0
415476, -3.712, -5.631, 1.419, -0.597, -0.494, 2.153, 0
415496, -2.946, -6.155, 2.002, -0.4, -0.426, 2.112, 0
415516, -1.537, -6.514, 2.191, -0.336, -0.58, 1.922, 0
415536, -0.809, -6.002, 2.368, -0.219, -0.897, 1.742, 0
415556, -0.981, -5.887, 2.022, -0.058, -0.9, 1.668, 0
415576, -0.266, -6.41, 1.709, -0.002, -0.802, 1.342, 0
415596, 0.235, -5.511, 1.896, -0.105, -0.986, 1.091, 0
415616, 0.257, -5.26, 2.008, 0.122, -0.915, 1.073, 0
415636, 2.098, -5.72, 1.754, 0.413, -0.801, 1.091, 0
415656, 3.437, -6.142, 1.182, 0.489, -0.767, 0.873, 0
415676, 4.163, -5.433, 1.546, 0.408, -0.849, 0.485, 0
415696, 3.685, -3.83, 1.453, 0.414, -1.118, 0.23, 0
415716, 3.896, -2.941, 0.346, 0.72, -0.988, 0.157, 0
415736, 4.477, -2.769, -0.737, 0.995, -0.767, 0.053, 0
415756, 4.878, -1.795, -0.824, 0.929, -0.565, -0.143, 0
