timestamp, accX, accY, accZ, gyroX, gyroY, gyroZ, button
834, -0.1746031746031746, -0.007326007326007326, -0.2600732600732601, -0.09375, 0.25, -0.125, 0.0
835, 0.03418803418803419, -0.05128205128205128, -0.231990231990232, -0.0625, 0.15625, -0.25, 0.0
836, 0.2271062271062271, -0.2454212454212454, -0.38095238095238093, -0.125, -0.03125, -0.40625, 0.0
1, 0.13553113553113552, -0.28327228327228327, -0.45787545787545786, -0.21875, -0.28125, -0.625, 0.0
2, -0.3663003663003663, -0.18192918192918192, -0.5286935286935287, -0.28125, -0.34375, -0.71875, 0.0
3, -1.006105006105006, -0.030525030525030524, -0.5494505494505495, -0.25, -0.0625, -0.46875, 0.0
4, -0.6813186813186813, -0.12454212454212454, -0.2612942612942613, -0.1875, 0.125, -0.28125, 0.0
5, -0.12332112332112333, -0.4017094017094017, -0.31746031746031744, -0.125, 0.1875, -0.1875, 0.0
6, 0.10500610500610501, -0.6837606837606838, -0.37606837606837606, -0.15625, 0.0625, -0.21875, 0.0
7, 0.03296703296703297, -0.5995115995115995, -0.2869352869352869, -0.25, 0.0, -0.34375, 0.0
8, 0.08058608058608059, -0.47496947496947495, -0.09768009768009768, -0.28125, -0.03125, -0.40625, 0.0
9, 0.4590964590964591, -0.39194139194139194, 0.007326007326007326, -0.25, -0.125, -0.53125, 0.0
10, 0.6434676434676435, -0.36752136752136755, -0.052503052503052504, -0.21875, -0.40625, -0.78125, 0.0
11, -0.015873015873015872, -0.040293040293040296, -0.040293040293040296, -0.3125, -0.71875, -1.03125, 0.0
12, -0.39316239316239315, 0.1282051282051282, 0.03418803418803419, -0.28125, -0.6875, -1.03125, 0.0
13, 0.03540903540903541, 0.0, 0.006105006105006105, -0.25, -0.5625, -0.875, 0.0
14, 0.10134310134310134, 0.013431013431013432, -0.09768009768009768, -0.1875, -0.5, -0.78125, 0.0
15, 0.054945054945054944, -0.06837606837606838, -0.3162393162393162, -0.125, -0.375, -0.78125, 0.0
16, 0.14774114774114774, 0.004884004884004884, -0.4175824175824176, -0.15625, -0.25, -0.75, 0.0
17, 0.17338217338217338, -0.24053724053724054, -0.4358974358974359, -0.25, -0.3125, -0.71875, 0.0
18, 0.0231990231990232, -0.17338217338217338, -0.15018315018315018, -0.34375, -0.28125, -0.6875, 0.0
19, -0.27228327228327226, -0.11965811965811966, 0.2771672771672772, -0.3125, -0.0625, -0.53125, 0.0
20, -0.11355311355311355, -0.3797313797313797, 0.5372405372405372, -0.21875, 0.21875, -0.375, 0.0
21, 0.3125763125763126, -0.5885225885225885, 0.684981684981685, -0.1875, 0.3125, -0.40625, 0.0
22, 0.514041514041514, -0.6483516483516484, 0.6910866910866911, -0.21875, 0.125, -0.59375, 0.0
23, 0.10256410256410256, -0.5079365079365079, 0.746031746031746, -0.3125, -0.09375, -0.6875, 0.0
24, -0.833943833943834, -0.0757020757020757, 0.7802197802197802, -0.28125, -0.15625, -0.71875, 0.0
25, -1.3174603174603174, -0.04884004884004884, 0.8034188034188035, -0.1875, 0.09375, -0.5625, 0.0
26, -1.0415140415140416, -0.1282051282051282, 0.8461538461538461, -0.09375, 0.40625, -0.3125, 0.0
27, -0.42246642246642246, -0.4908424908424908, 0.8412698412698413, -0.03125, 0.53125, -0.25, 0.0
28, -0.07936507936507936, -0.6666666666666666, 0.9255189255189256, -0.125, 0.21875, -0.25, 0.0
29, -0.6495726495726496, -0.4017094017094017, 0.8290598290598291, -0.0625, 0.28125, -0.3125, 0.0
30, -0.5299145299145299, -0.3528693528693529, 0.7155067155067155, -0.03125, 0.34375, -0.3125, 0.0
31, -0.6752136752136753, -0.2087912087912088, 0.851037851037851, -0.03125, 0.3125, -0.25, 0.0
32, -0.8925518925518926, -0.042735042735042736, 1.0317460317460319, 0.0625, 0.375, -0.15625, 0.0
33, -0.45665445665445664, -0.22466422466422467, 1.1477411477411477, 0.125, 0.25, -0.09375, 0.0
34, -0.452991452991453, -0.07326007326007326, 1.0634920634920635, 0.15625, 0.0625, -0.09375, 0.0
35, -0.8656898656898657, 0.13553113553113552, 0.8522588522588522, 0.21875, 0.125, -0.0625, 0.0
36, -0.7032967032967034, 0.19658119658119658, 0.706959706959707, 0.28125, 0.15625, 0.0, 0.0
37, -0.4297924297924298, 0.17826617826617827, 0.5934065934065934, 0.3125, 0.0625, 0.0625, 0.0
38, -0.4065934065934066, 0.115995115995116, 0.43833943833943834, 0.34375, 0.03125, 0.125, 0.0
39, -0.4358974358974359, 0.27472527472527475, 0.2893772893772894, 0.4375, 0.0625, 0.21875, 0.0
40, -0.32112332112332115, 0.03418803418803419, 0.013431013431013432, 0.46875, 0.1875, 0.34375, 0.0
41, -0.28327228327228327, -0.052503052503052504, -0.0927960927960928, 0.4375, 0.34375, 0.4375, 0.0
42, -0.09645909645909646, 0.15018315018315018, 0.10989010989010989, 0.46875, 0.40625, 0.59375, 0.0
43, -0.05982905982905983, 0.32722832722832723, 0.2783882783882784, 0.59375, 0.46875, 0.75, 0.0
44, 0.24664224664224665, 0.16117216117216118, 0.10744810744810745, 0.6875, 0.5, 0.84375, 0.0
45, 0.026862026862026864, 0.12087912087912088, -0.0757020757020757, 0.6875, 0.625, 0.90625, 0.0
46, 0.020757020757020756, 0.358974358974359, -0.08913308913308914, 0.75, 0.84375, 1.125, 0.0
47, 0.5763125763125763, 0.05372405372405373, -0.4175824175824176, 0.8125, 0.9375, 1.3125, 0.0
48, 1.4224664224664225, -0.568986568986569, -0.8608058608058609, 0.75, 0.90625, 1.3125, 0.0
49, 2.028083028083028, -0.9963369963369964, -1.0048840048840049, 0.59375, 0.78125, 1.125, 0.0
50, 2.1648351648351647, -1.1062271062271063, -0.9206349206349206, 0.40625, 0.71875, 0.90625, 0.0
51, 2.094017094017094, -1.0598290598290598, -0.6923076923076923, 0.1875, 0.53125, 0.71875, 0.0
52, 1.9511599511599511, -0.6825396825396826, -0.38095238095238093, 0.09375, 0.25, 0.40625, 0.0
53, 1.5067155067155067, -0.36752136752136755, -0.18681318681318682, 0.0625, 0.09375, 0.21875, 0.0
54, 1.0866910866910866, -0.33455433455433453, -0.16727716727716727, 0.0, 0.0, 0.125, 0.0
55, 1.032967032967033, -0.26373626373626374, -0.1391941391941392, -0.0625, 0.0, 0.0625, 0.0
56, 1.0561660561660562, -0.3882783882783883, -0.15262515262515264, -0.09375, 0.03125, 0.09375, 0.0
57, 1.0317460317460319, -0.3553113553113553, -0.020757020757020756, -0.125, 0.09375, 0.0625, 0.0
58, 1.0952380952380953, -0.304029304029304, 0.15995115995115994, -0.09375, 0.125, 0.0, 0.0
59, 1.1123321123321124, -0.463980463980464, 0.19413919413919414, 0.0, 0.09375, 0.0, 0.0
60, 1.1184371184371185, -0.7411477411477412, 0.03296703296703297, 0.0, 0.0, -0.09375, 0.0
61, 1.0293040293040292, -0.7838827838827839, -0.08302808302808302, -0.09375, -0.09375, -0.25, 0.0
62, 0.8901098901098901, -0.8192918192918193, -0.28815628815628813, -0.15625, -0.15625, -0.375, 0.0
63, 0.07203907203907203, -0.21855921855921856, -0.16117216117216118, -0.09375, 0.0, 0.03125, 0.0
64, 0.003663003663003663, -0.030525030525030524, -0.028083028083028084, -0.0625, 0.03125, 0.03125, 0.0
65, -0.019536019536019536, -0.04151404151404151, -0.05860805860805861, -0.0625, 0.09375, 0.03125, 0.0
66, 0.13064713064713065, -0.050061050061050064, -0.020757020757020756, -0.09375, 0.0625, 0.03125, 0.0
67, -0.03418803418803419, 0.03907203907203907, -0.02564102564102564, -0.03125, 0.03125, 0.0, 0.0
68, 0.028083028083028084, -0.03296703296703297, -0.13553113553113552, 0.0, 0.0, 0.0, 0.0
69, -0.14163614163614163, 0.18803418803418803, 0.0, 0.0, 0.0, 0.0, 0.0
70, -0.12698412698412698, 0.028083028083028084, -0.21733821733821734, 0.0625, 0.0, 0.0, 0.0
71, -0.03785103785103785, -0.007326007326007326, -0.23931623931623933, 0.0, 0.0, 0.0, 0.0
72, -0.14041514041514042, 0.03785103785103785, -0.17216117216117216, 0.0, 0.0, 0.0, 0.0
73, 0.02442002442002442, 0.01098901098901099, -0.2087912087912088, 0.0, 0.09375, -0.03125, 1.0
74, 0.46153846153846156, 0.1514041514041514, -0.013431013431013432, 0.09375, 0.03125, 0.03125, 1.0
75, -0.028083028083028084, 0.040293040293040296, 0.10500610500610501, 0.28125, -0.21875, 0.0625, 1.0
76, -0.1391941391941392, -0.4884004884004884, -0.5702075702075702, 0.15625, 0.0, 0.0625, 1.0
77, 0.2148962148962149, -0.1916971916971917, -0.452991452991453, -0.21875, 0.125, 0.0625, 1.0
78, -0.3333333333333333, 0.20757020757020758, -0.23809523809523808, -0.40625, 0.03125, 0.03125, 1.0
79, -0.4554334554334554, 0.442002442002442, -0.19291819291819293, -0.375, 0.125, 0.03125, 1.0
80, -0.47619047619047616, 0.2979242979242979, -0.590964590964591, -0.40625, 0.09375, 0.09375, 1.0
81, -0.7448107448107448, 0.23443223443223443, -1.0952380952380953, -0.5625, 0.0, 0.125, 1.0
82, -1.474969474969475, 0.8144078144078144, -1.2197802197802199, -0.6875, -0.03125, 0.15625, 1.0
83, -1.656898656898657, 0.7496947496947497, -1.1526251526251525, -0.625, 0.0625, 0.28125, 1.0
84, -1.6056166056166057, 0.5470085470085471, -1.0293040293040292, -0.625, 0.0625, 0.4375, 1.0
85, -2.0964590964590966, 0.6495726495726496, -0.7106227106227107, -0.625, 0.0, 0.625, 1.0
86, -2.340659340659341, 0.03540903540903541, -0.6373626373626373, -0.65625, 0.0, 0.78125, 1.0
87, -2.5518925518925517, -0.5848595848595849, -0.6874236874236874, -0.84375, 0.0, 0.9375, 1.0
88, -2.0720390720390722, -1.137973137973138, -0.575091575091575, -1.0, 0.0, 1.125, 1.0
89, -2.2051282051282053, -1.5433455433455434, -0.6068376068376068, -0.90625, -0.125, 1.25, 1.0
90, -2.208791208791209, -2.114774114774115, -0.7716727716727717, -0.65625, 0.0, 1.375, 1.0
91, -1.448107448107448, -2.9926739926739927, -0.7509157509157509, -0.65625, 0.15625, 1.46875, 1.0
92, -1.0708180708180708, -2.8595848595848596, 0.020757020757020756, -0.875, -0.09375, 1.46875, 1.0
93, -1.1904761904761905, -2.768009768009768, 0.7203907203907204, -0.6875, -0.15625, 1.53125, 1.0
94, -0.7472527472527473, -3.142857142857143, 1.0537240537240538, -0.46875, -0.15625, 1.46875, 1.0
95, -0.5335775335775336, -3.2808302808302807, 1.2820512820512822, -0.375, -0.15625, 1.40625, 1.0
96, -0.27106227106227104, -3.335775335775336, 1.592185592185592, -0.28125, -0.21875, 1.375, 1.0
97, 0.12698412698412698, -3.341880341880342, 1.7301587301587302, -0.125, -0.3125, 1.375, 1.0
98, 0.8083028083028083, -3.4822954822954824, 1.8437118437118436, 0.03125, -0.40625, 1.3125, 1.0
99, 1.6007326007326008, -3.772893772893773, 1.9682539682539681, 0.15625, -0.5, 1.21875, 1.0
100, 2.8632478632478633, -3.769230769230769, 2.2222222222222223, 0.3125, -0.59375, 1.0625, 1.0
101, 3.8693528693528694, -3.6263736263736264, 2.398046398046398, 0.5, -0.625, 0.8125, 1.0
102, 4.186813186813187, -2.9450549450549453, 2.2393162393162394, 0.6875, -0.65625, 0.59375, 1.0
103, 4.444444444444445, -2.7435897435897436, 1.619047619047619, 0.90625, -0.78125, 0.34375, 1.0
104, 3.7142857142857144, -2.357753357753358, 0.8376068376068376, 1.03125, -0.6875, 0.1875, 1.0
105, 4.086691086691086, -2.197802197802198, 0.4517704517704518, 1.125, -0.59375, 0.09375, 1.0
106, 4.462759462759463, -1.818070818070818, 0.7924297924297924, 1.1875, -0.46875, -0.09375, 1.0
107, 5.328449328449328, -1.164835164835165, 1.037851037851038, 1.375, -0.5, -0.3125, 1.0
108, 5.5054945054945055, -0.9365079365079365, 0.1916971916971917, 1.53125, -0.625, -0.59375, 1.0
109, 4.542124542124542, -0.8034188034188035, -0.8595848595848596, 1.53125, -0.375, -0.875, 1.0
110, 4.568986568986569, -0.29304029304029305, -1.7802197802197801, 1.40625, -0.09375, -1.0, 1.0
111, 4.688644688644689, 0.46642246642246643, -2.0964590964590966, 1.3125, 0.0, -1.21875, 1.0
112, 4.148962148962149, 1.3614163614163615, -2.785103785103785, 1.21875, 0.0, -1.5, 1.0
113, 3.4761904761904763, 1.7887667887667889, -3.4126984126984126, 1.09375, 0.0, -1.6875, 1.0
114, 2.8315018315018317, 1.706959706959707, -3.3956043956043955, 0.90625, 0.0, -1.84375, 1.0
115, 2.2002442002442004, 1.2832722832722834, -3.557997557997558, 0.71875, 0.03125, -1.9375, 1.0
116, 0.7521367521367521, 1.6336996336996337, -3.894993894993895, 0.53125, 0.25, -2.0625, 1.0
117, -0.3089133089133089, 1.6324786324786325, -3.525030525030525, 0.0625, 0.40625, -2.0625, 1.0
118, -1.5763125763125763, 1.78998778998779, -3.3394383394383396, -0.1875, 0.34375, -2.09375, 1.0
119, -2.9206349206349205, 2.221001221001221, -2.8644688644688645, -0.375, 0.34375, -1.96875, 1.0
120, -3.31013431013431, 2.2051282051282053, -2.051282051282051, -0.65625, 0.375, -1.75, 1.0
121, -3.1123321123321124, 1.3748473748473748, -1.465201465201465, -0.90625, 0.21875, -1.5, 1.0
122, -3.4334554334554332, 1.1074481074481075, -1.144078144078144, -1.125, 0.09375, -1.25, 1.0
123, -2.8595848595848596, 0.27594627594627597, -1.2515262515262515, -1.09375, 0.0625, -0.90625, 1.0
124, -2.916971916971917, -0.057387057387057384, -0.6752136752136753, -1.1875, 0.0, -0.71875, 1.0
125, -3.7496947496947497, 0.017094017094017096, 0.231990231990232, -1.25, 0.09375, -0.5625, 1.0
126, -3.879120879120879, -0.463980463980464, 0.4139194139194139, -1.03125, 0.28125, -0.3125, 1.0
127, -2.584859584859585, -2.0317460317460316, -0.2039072039072039, -0.9375, -0.125, 0.0, 1.0
128, -4.032967032967033, -2.2002442002442004, -0.9145299145299145, -0.9375, -0.5625, 0.21875, 1.0
129, -4.462759462759463, -2.1880341880341883, -0.746031746031746, -0.75, 0.0, 0.40625, 1.0
130, -2.4432234432234434, -3.0415140415140414, 0.2087912087912088, -0.84375, 0.25, 0.625, 1.0
131, -2.9206349206349205, -2.4725274725274726, 0.9157509157509157, -1.03125, -0.28125, 0.71875, 1.0
132, -3.7313797313797314, -2.2698412698412698, 0.612942612942613, -0.6875, -0.28125, 0.9375, 1.0
133, -2.326007326007326, -3.1697191697191696, 0.27228327228327226, -0.5, -0.15625, 1.0625, 1.0
134, -2.6312576312576312, -2.8253968253968256, 0.3907203907203907, -0.5, -0.25, 1.03125, 1.0
135, -2.062271062271062, -2.8095238095238093, 0.4700854700854701, -0.40625, 0.0, 1.125, 1.0
136, -0.18437118437118438, -3.7094017094017095, 0.5494505494505495, -0.40625, -0.15625, 1.25, 1.0
137, -0.3247863247863248, -3.3235653235653237, 0.5128205128205128, -0.40625, -0.375, 1.21875, 1.0
138, 0.46153846153846156, -3.0537240537240535, 1.0366300366300367, -0.09375, -0.0625, 1.28125, 1.0
139, 2.451770451770452, -3.374847374847375, 1.3821733821733821, 0.0, 0.0, 1.1875, 1.0
140, 2.562881562881563, -2.177045177045177, 1.7655677655677655, -0.125, -0.21875, 1.0625, 1.0
141, 2.2002442002442004, -1.7887667887667889, 1.503052503052503, 0.09375, -0.09375, 0.90625, 1.0
142, 3.557997557997558, -2.7643467643467643, 0.503052503052503, -0.0625, -0.125, 0.75, 1.0
143, 3.5054945054945055, -2.0085470085470085, 0.49206349206349204, -0.09375, -0.15625, 0.53125, 1.0
144, 2.965811965811966, -1.2026862026862026, 0.746031746031746, 0.125, 0.0, 0.40625, 1.0
145, 2.7094017094017095, -1.5836385836385836, 0.3601953601953602, 0.1875, 0.0625, 0.28125, 1.0
146, 2.3345543345543347, -2.155067155067155, -0.49572649572649574, -0.21875, 0.0, 0.125, 0.0
147, 1.0134310134310134, -1.192918192918193, -0.7472527472527473, -0.5625, 0.0, 0.125, 0.0
148, 0.4603174603174603, -0.231990231990232, -0.47374847374847373, -0.4375, 0.125, 0.1875, 0.0
149, 0.6288156288156288, 0.4188034188034188, 0.3516483516483517, 0.25, 0.03125, 0.1875, 0.0
150, 0.6117216117216118, -1.0085470085470085, -0.4236874236874237, 0.21875, 0.0625, 0.125, 0.0
151, 1.1404151404151404, -1.6385836385836385, -0.6642246642246642, -0.21875, 0.03125, 0.0, 0.0
152, 0.6666666666666666, -1.15995115995116, -0.24786324786324787, -0.46875, 0.0, -0.125, 0.0
153, 0.08913308913308914, -0.2271062271062271, 0.13797313797313798, -0.21875, 0.03125, -0.15625, 0.0
154, -0.06349206349206349, -0.336996336996337, 0.12087912087912088, -0.0625, 0.0, -0.15625, 0.0
155, -0.10989010989010989, -0.6935286935286935, -0.2857142857142857, -0.15625, 0.0, -0.21875, 0.0
156, -0.41025641025641024, -0.48473748473748474, -0.3894993894993895, -0.3125, 0.0625, -0.21875, 0.0
157, -0.8156288156288156, -0.12332112332112333, -0.5238095238095238, -0.3125, 0.1875, -0.125, 0.0
158, -0.36385836385836384, -0.07448107448107448, -0.25518925518925517, -0.25, 0.125, -0.03125, 0.0
159, -0.2503052503052503, -0.115995115995116, 0.015873015873015872, -0.15625, 0.0, -0.03125, 0.0
160, -0.3724053724053724, -0.13797313797313798, 0.10866910866910867, -0.0625, 0.0625, 0.0, 0.0
161, 0.03540903540903541, -0.4261294261294261, 0.08791208791208792, -0.09375, 0.125, 0.0, 0.0
162, 0.030525030525030524, -0.32234432234432236, -0.03907203907203907, -0.1875, 0.03125, -0.03125, 0.0
163, -0.4163614163614164, 0.09523809523809523, -0.24053724053724054, -0.15625, 0.0, 0.0, 0.0
164, -0.14774114774114774, -0.10622710622710622, -0.047619047619047616, -0.0625, 0.0, 0.0, 0.0
165, -0.1221001221001221, -0.2686202686202686, -0.1221001221001221, -0.09375, 0.03125, 0.03125, 0.0
166, 0.42246642246642246, -0.5042735042735043, -0.009768009768009768, -0.21875, 0.0, 0.03125, 0.0
167, 0.24786324786324787, -0.32722832722832723, 0.2026862026862027, -0.1875, -0.0625, 0.0, 0.0
168, 0.03418803418803419, -0.21978021978021978, -0.05128205128205128, -0.0625, 0.0, 0.0, 0.0
169, -0.03296703296703297, -0.17216117216117216, -0.28327228327228327, -0.125, 0.0, 0.0, 0.0
170, -0.2503052503052503, -0.06471306471306472, -0.3064713064713065, -0.21875, 0.0, 0.0, 0.0
171, -0.21001221001221002, 0.009768009768009768, -0.19536019536019536, -0.21875, 0.09375, 0.0, 0.0
172, -0.015873015873015872, 0.0, -0.07448107448107448, -0.15625, 0.15625, 0.0, 0.0
173, 0.1221001221001221, -0.1623931623931624, 0.0, -0.15625, 0.0625, 0.03125, 0.0
174, 0.06105006105006105, -0.14896214896214896, 0.2503052503052503, -0.125, 0.0, 0.03125, 0.0
175, 0.028083028083028084, -0.1807081807081807, 0.24786324786324787, -0.0625, 0.0625, 0.03125, 0.0
176, 0.07081807081807082, -0.1575091575091575, 0.057387057387057384, -0.09375, 0.0625, 0.0, 0.0
177, 0.10744810744810745, -0.07814407814407814, 0.030525030525030524, -0.09375, 0.0, 0.0, 0.0
178, -0.020757020757020756, -0.040293040293040296, -0.040293040293040296, -0.0625, -0.03125, 0.0, 0.0
179, -0.19413919413919414, -0.04395604395604396, -0.2893772893772894, 0.0, 0.03125, 0.0, 0.0
180, 0.045177045177045176, -0.0757020757020757, -0.25396825396825395, 0.0, 0.0625, 0.0, 0.0
181, -0.08424908424908426, 0.007326007326007326, -0.10134310134310134, -0.0625, 0.0, 0.0, 0.0
182, -0.019536019536019536, 0.006105006105006105, 0.03296703296703297, -0.125, 0.09375, 0.0, 0.0
183, 0.015873015873015872, -0.08547008547008547, 0.08669108669108669, -0.125, 0.0625, 0.0, 0.0
184, -0.17094017094017094, 0.10744810744810745, 0.09035409035409035, -0.15625, 0.03125, 0.0, 0.0
185, -0.20757020757020758, -0.03663003663003663, 0.12454212454212454, -0.09375, 0.03125, 0.0, 0.0
186, -0.3724053724053724, 0.21978021978021978, -0.020757020757020756, -0.09375, 0.125, 0.0625, 0.0
187, -0.07081807081807082, 0.02442002442002442, 0.1452991452991453, 0.0, 0.09375, 0.15625, 1.0
188, -0.1221001221001221, -0.1330891330891331, -0.14041514041514042, 0.0, 0.0, 0.1875, 1.0
189, -0.4945054945054945, 0.41025641025641024, -0.11721611721611722, 0.03125, 0.0, 0.15625, 1.0
190, -0.2271062271062271, -0.5958485958485958, -0.42002442002442003, -0.03125, 0.09375, 0.40625, 1.0
191, -0.008547008547008548, -1.1746031746031746, -1.010989010989011, -0.71875, 0.09375, 0.34375, 1.0
192, -0.5506715506715507, -0.06227106227106227, -0.5225885225885226, -0.875, 0.03125, 0.40625, 1.0
193, -1.0488400488400489, 0.46886446886446886, 0.29304029304029305, -0.625, 0.03125, 0.46875, 1.0
194, -0.8400488400488401, 0.2087912087912088, 0.4468864468864469, -0.4375, -0.0625, 0.5625, 1.0
195, -1.9694749694749696, 0.2600732600732601, -0.33943833943833945, -0.34375, 0.0, 0.65625, 1.0
196, -2.0036630036630036, -0.2576312576312576, -0.9206349206349206, -0.3125, 0.09375, 0.8125, 1.0
197, -1.2063492063492063, -0.8864468864468864, -0.7826617826617827, -0.40625, -0.03125, 0.84375, 1.0
198, -1.763125763125763, -0.7423687423687424, -0.5885225885225885, -0.34375, 0.0625, 0.90625, 1.0
199, -1.188034188034188, -1.0451770451770452, -0.4590964590964591, -0.21875, 0.09375, 0.96875, 1.0
200, -0.47374847374847373, -1.7997557997557998, -0.5262515262515263, -0.34375, -0.09375, 0.875, 1.0
201, -0.8766788766788767, -1.42002442002442, -0.1330891330891331, -0.34375, -0.09375, 0.90625, 1.0
202, -0.8876678876678876, -1.2136752136752136, 0.47619047619047616, -0.21875, -0.03125, 0.96875, 1.0
203, -0.4188034188034188, -1.6336996336996337, 0.5787545787545788, -0.21875, -0.21875, 1.0, 1.0
204, -0.44078144078144077, -1.7191697191697193, 0.6898656898656899, -0.21875, -0.34375, 0.96875, 1.0
205, -0.09645909645909646, -1.8803418803418803, 0.7338217338217338, -0.09375, -0.28125, 1.0, 1.0
206, 1.017094017094017, -2.5225885225885225, 0.9047619047619048, -0.125, -0.4375, 0.9375, 1.0
207, 1.9084249084249085, -3.1514041514041513, 0.5409035409035409, -0.3125, -0.625, 0.84375, 1.0
208, 2.126984126984127, -2.6043956043956045, 0.7851037851037851, -0.25, -0.65625, 0.6875, 1.0
209, 2.525030525030525, -2.4896214896214897, 1.1294261294261294, -0.09375, -0.625, 0.5625, 1.0
210, 3.3968253968253967, -2.5604395604395602, 1.4053724053724053, 0.0, -0.75, 0.4375, 1.0
211, 3.3956043956043955, -2.0634920634920637, 1.5738705738705738, 0.21875, -0.75, 0.1875, 1.0
212, 3.057387057387057, -1.5018315018315018, 1.4017094017094016, 0.53125, -0.65625, 0.03125, 1.0
213, 2.9511599511599513, -0.9462759462759462, 1.3186813186813187, 0.8125, -0.5, -0.0625, 1.0
214, 3.2393162393162394, -0.9047619047619048, 1.0744810744810744, 1.03125, -0.53125, -0.1875, 1.0
215, 3.7875457875457874, -0.6214896214896215, 1.0708180708180708, 1.15625, -0.40625, -0.28125, 1.0
216, 4.295482295482295, -0.5787545787545788, 1.0317460317460319, 1.3125, -0.3125, -0.46875, 1.0
217, 4.4664224664224665, -0.8559218559218559, -0.20512820512820512, 1.46875, -0.28125, -0.75, 1.0
218, 3.5824175824175826, -0.18803418803418803, -1.3113553113553114, 1.34375, -0.3125, -0.96875, 1.0
219, 3.4017094017094016, 0.16971916971916973, -1.783882783882784, 1.28125, -0.21875, -1.15625, 1.0
220, 3.1367521367521367, 0.4700854700854701, -2.3553113553113554, 1.1875, -0.09375, -1.3125, 1.0
221, 2.365079365079365, 1.3406593406593406, -2.826617826617827, 1.09375, 0.0, -1.4375, 1.0
222, 2.2527472527472527, 1.4334554334554335, -2.9145299145299144, 1.03125, 0.0625, -1.46875, 1.0
223, 2.0097680097680097, 1.3919413919413919, -2.7423687423687424, 0.84375, 0.125, -1.59375, 1.0
224, 0.706959706959707, 2.3003663003663, -2.42002442002442, 0.78125, 0.53125, -1.75, 1.0
225, 1.2405372405372406, 1.1684981684981686, -2.833943833943834, 0.78125, 0.8125, -1.8125, 1.0
226, 0.8168498168498168, 0.5934065934065934, -2.982905982905983, 0.21875, 0.28125, -1.84375, 1.0
227, -1.2808302808302807, 1.778998778998779, -2.4554334554334556, -0.21875, 0.0625, -1.875, 1.0
228, -0.9133089133089133, 1.3186813186813187, -1.8913308913308913, -0.125, 0.4375, -1.71875, 1.0
229, -0.927960927960928, 0.5897435897435898, -1.9023199023199022, -0.25, 0.375, -1.65625, 1.0
230, -2.166056166056166, 0.7692307692307693, -1.956043956043956, -0.46875, 0.28125, -1.53125, 1.0
231, -1.7619047619047619, 0.231990231990232, -1.9426129426129426, -0.59375, 0.34375, -1.34375, 1.0
232, -1.8815628815628815, -0.1562881562881563, -1.8144078144078144, -0.84375, 0.125, -1.1875, 1.0
233, -3.032967032967033, 0.19291819291819293, -1.2380952380952381, -0.96875, 0.21875, -1.0625, 1.0
234, -3.3174603174603177, 0.1684981684981685, -0.9181929181929182, -0.84375, 0.4375, -0.875, 1.0
235, -2.9975579975579976, -1.15018315018315, -1.5091575091575091, -0.96875, 0.1875, -0.625, 1.0
236, -3.84004884004884, -1.0341880341880343, -1.36996336996337, -1.25, -0.03125, -0.40625, 1.0
237, -4.239316239316239, -0.960927960927961, -0.8705738705738706, -1.15625, 0.1875, -0.09375, 1.0
238, -3.3076923076923075, -1.6275946275946276, -0.5567765567765568, -1.09375, 0.40625, 0.09375, 1.0
239, -3.3772893772893773, -1.5738705738705738, -0.08302808302808302, -1.21875, 0.03125, 0.3125, 1.0
240, -3.758241758241758, -1.3162393162393162, 0.5421245421245421, -1.03125, 0.125, 0.53125, 1.0
241, -3.087912087912088, -2.004884004884005, 0.6373626373626373, -0.9375, 0.0625, 0.6875, 1.0
242, -2.4554334554334556, -2.5555555555555554, 0.557997557997558, -0.96875, -0.1875, 0.8125, 1.0
243, -2.978021978021978, -2.0964590964590966, 0.7423687423687424, -0.78125, -0.125, 0.9375, 1.0
244, -2.0036630036630036, -2.6764346764346763, 0.5653235653235653, -0.625, -0.09375, 1.0625, 1.0
245, -1.1452991452991452, -3.0134310134310134, 0.6544566544566545, -0.625, -0.3125, 1.03125, 1.0
246, -1.84981684981685, -2.5103785103785103, 0.8693528693528694, -0.53125, -0.15625, 1.09375, 1.0
247, -0.8351648351648352, -2.982905982905983, 0.5470085470085471, -0.4375, -0.125, 1.21875, 1.0
248, -0.23687423687423687, -3.2466422466422467, 0.4700854700854701, -0.4375, -0.25, 1.21875, 1.0
249, -0.8449328449328449, -2.5238095238095237, 0.8363858363858364, -0.25, 0.0, 1.28125, 1.0
250, 0.6788766788766789, -3.064713064713065, 1.2002442002442002, -0.28125, 0.0, 1.28125, 1.0
251, 1.4737484737484738, -2.9328449328449326, 1.3186813186813187, -0.375, -0.3125, 1.21875, 1.0
252, 0.6324786324786325, -1.9584859584859584, 1.0195360195360195, -0.0625, -0.125, 1.25, 1.0
253, 2.543345543345543, -2.357753357753358, 1.1391941391941391, 0.03125, 0.0, 1.15625, 1.0
254, 3.6825396825396823, -1.9035409035409034, 1.4444444444444444, 0.03125, -0.1875, 0.90625, 1.0
255, 3.0744810744810747, -1.120879120879121, 1.3284493284493284, 0.1875, -0.125, 0.75, 1.0
256, 3.3882783882783882, -1.5665445665445665, 0.6434676434676435, 0.21875, -0.15625, 0.5625, 1.0
257, 3.2905982905982905, -1.5995115995115996, 0.24297924297924298, 0.15625, -0.25, 0.34375, 1.0
258, 2.271062271062271, -1.1697191697191698, -0.07936507936507936, 0.15625, -0.125, 0.21875, 1.0
259, 1.4700854700854702, -0.8388278388278388, -0.0927960927960928, 0.15625, 0.03125, 0.25, 1.0
260, 1.4126984126984128, -0.8864468864468864, -0.23565323565323565, 0.15625, 0.09375, 0.1875, 1.0
261, 1.5738705738705738, -1.1391941391941391, -0.47496947496947495, 0.0, -0.0625, 0.125, 0.0
262, 0.8595848595848596, -0.6336996336996337, -0.5470085470085471, -0.0625, -0.09375, 0.0625, 0.0
263, 0.22466422466422467, -0.5775335775335775, -0.7509157509157509, -0.1875, 0.25, 0.03125, 0.0
264, 0.514041514041514, -0.9804639804639804, -0.9853479853479854, -0.4375, 0.21875, 0.0, 0.0
265, 0.014652014652014652, -0.09157509157509157, -0.3992673992673993, -0.5625, 0.09375, -0.09375, 0.0
266, -0.15506715506715507, 0.1807081807081807, 0.20512820512820512, -0.1875, 0.125, -0.09375, 0.0
267, 0.05372405372405373, -0.5164835164835165, -0.09035409035409035, 0.125, 0.15625, -0.125, 0.0
268, 0.24664224664224665, -1.0097680097680097, -0.6007326007326007, 0.03125, 0.03125, -0.125, 0.0
269, -0.2039072039072039, -0.3992673992673993, -0.4163614163614164, -0.21875, -0.09375, -0.125, 0.0
270, -0.8070818070818071, 0.2783882783882784, -0.14407814407814407, -0.15625, 0.0, -0.125, 0.0
271, -0.36874236874236876, -0.16117216117216118, -0.1978021978021978, 0.0, 0.09375, -0.03125, 0.0
272, -0.14163614163614163, -0.49572649572649574, -0.4004884004884005, -0.0625, 0.0, -0.03125, 0.0
273, -0.3504273504273504, -0.2087912087912088, -0.36507936507936506, -0.21875, 0.0, 0.0, 0.0
274, -0.15506715506715507, -0.1343101343101343, -0.19658119658119658, -0.25, 0.15625, -0.03125, 0.0
275, 0.020757020757020756, -0.11965811965811966, -0.07448107448107448, -0.21875, 0.125, 0.0, 0.0
276, -0.1221001221001221, -0.1855921855921856, -0.15873015873015872, -0.1875, 0.0625, 0.0, 0.0
277, -0.05860805860805861, -0.12942612942612944, -0.19658119658119658, -0.21875, 0.09375, 0.0, 0.0
278, -0.02197802197802198, -0.07326007326007326, -0.09768009768009768, -0.28125, 0.0625, 0.03125, 0.0
279, -0.03907203907203907, -0.06227106227106227, 0.08058608058608059, -0.25, 0.03125, 0.03125, 0.0
280, 0.0989010989010989, -0.15384615384615385, 0.24053724053724054, -0.15625, 0.03125, 0.0625, 0.0
281, 0.1343101343101343, -0.2783882783882784, 0.13797313797313798, -0.125, 0.0625, 0.03125, 0.0
282, 0.11233211233211234, -0.25518925518925517, 0.07448107448107448, -0.15625, 0.0625, 0.0, 0.0
283, 0.01221001221001221, -0.15995115995115994, 0.10256410256410256, -0.15625, 0.03125, 0.0, 0.0
284, 0.047619047619047616, -0.052503052503052504, 0.12454212454212454, -0.09375, 0.0, 0.0, 0.0
285, -0.003663003663003663, -0.031746031746031744, -0.0757020757020757, -0.0625, 0.0, 0.0, 0.0
286, -0.21611721611721613, -0.03540903540903541, -0.19536019536019536, -0.125, -0.03125, 0.0, 0.0
287, -0.18315018315018314, -0.01221001221001221, -0.07203907203907203, -0.125, 0.0625, 0.0, 0.0
288, 0.27472527472527475, -0.0757020757020757, 0.06349206349206349, -0.09375, 0.09375, 0.0, 0.0
289, 0.09645909645909646, -0.030525030525030524, 0.017094017094017096, -0.09375, -0.03125, 0.0, 0.0
290, -0.29914529914529914, -0.001221001221001221, -0.12087912087912088, -0.09375, 0.0, 0.0, 0.0
291, -0.2588522588522589, 0.03540903540903541, 0.009768009768009768, -0.09375, 0.09375, 0.03125, 0.0
292, 0.045177045177045176, -0.10744810744810745, 0.06349206349206349, -0.09375, 0.0625, 0.0, 0.0
293, 0.05372405372405373, -0.08058608058608059, -0.028083028083028084, -0.09375, 0.0, 0.03125, 0.0
294, 0.030525030525030524, -0.11355311355311355, -0.05616605616605617, -0.0625, -0.03125, 0.0, 0.0
295, -0.06837606837606838, -0.23809523809523808, -0.23931623931623933, -0.125, 0.0, 0.0, 0.0
296, 0.030525030525030524, -0.02197802197802198, -0.01098901098901099, -0.09375, 0.0625, 0.0, 0.0
297, -0.03907203907203907, 0.0463980463980464, 0.09645909645909646, -0.03125, 0.0625, 0.0, 0.0
298, 0.007326007326007326, -0.08302808302808302, 0.026862026862026864, -0.0625, 0.0, 0.0, 0.0
299, 0.050061050061050064, -0.05372405372405373, -0.06471306471306472, -0.09375, 0.0, 0.0, 0.0
300, -0.10256410256410256, 0.02564102564102564, -0.019536019536019536, -0.0625, 0.03125, 0.0, 0.0
301, -0.06349206349206349, -0.002442002442002442, -0.06471306471306472, 0.0, 0.0625, 0.0, 0.0
302, 0.014652014652014652, -0.03907203907203907, -0.14407814407814407, 0.0, 0.03125, 0.0, 0.0
303, 0.04395604395604396, -0.019536019536019536, -0.21611721611721613, 0.0, 0.0, 0.0, 0.0
304, -0.10989010989010989, 0.1575091575091575, -0.1343101343101343, 0.03125, 0.0625, 0.0, 0.0
305, -0.004884004884004884, 0.019536019536019536, -0.06715506715506715, 0.0625, 0.0625, 0.0, 0.0
306, -0.009768009768009768, 0.04151404151404151, 0.05982905982905983, 0.09375, 0.0, 0.0, 1.0
307, -0.115995115995116, -0.02442002442002442, -0.01098901098901099, 0.0625, 0.0, 0.0, 1.0
308, -0.08302808302808302, -0.6752136752136753, -0.4236874236874237, -0.09375, 0.09375, -0.03125, 1.0
309, -0.15873015873015872, -0.2039072039072039, -0.43833943833943834, -0.21875, 0.0625, 0.03125, 1.0
310, -0.4908424908424908, -0.006105006105006105, -0.5506715506715507, -0.40625, 0.0625, 0.03125, 1.0
311, -0.9304029304029304, 0.38705738705738707, -0.6373626373626373, -0.4375, 0.1875, 0.125, 1.0
312, -0.8632478632478633, 0.48717948717948717, -0.5482295482295483, -0.34375, 0.125, 0.1875, 1.0
313, -1.4810744810744811, 0.2954822954822955, -0.663003663003663, -0.3125, 0.0, 0.3125, 1.0
314, -1.9316239316239316, 0.08302808302808302, -0.6788766788766789, -0.28125, 0.0, 0.4375, 1.0
315, -1.8693528693528694, -0.32112332112332115, -0.6092796092796092, -0.40625, 0.09375, 0.5625, 1.0
316, -1.8962148962148961, -0.2515262515262515, -0.002442002442002442, -0.5625, 0.03125, 0.65625, 1.0
317, -2.255189255189255, -0.42124542124542125, 0.2503052503052503, -0.4375, 0.0, 0.78125, 1.0
318, -1.774114774114774, -1.1013431013431014, 0.3992673992673993, -0.3125, 0.0625, 0.875, 1.0
319, -1.531135531135531, -1.6117216117216118, 0.5201465201465202, -0.21875, 0.0, 0.9375, 1.0
320, -1.4493284493284493, -1.8205128205128205, 0.6910866910866911, -0.15625, 0.0, 0.96875, 1.0
321, -0.6886446886446886, -2.2637362637362637, 0.8803418803418803, -0.15625, 0.0, 1.0, 1.0
322, -0.36874236874236876, -2.167277167277167, 1.3064713064713065, -0.21875, -0.25, 0.96875, 1.0
323, -0.014652014652014652, -2.133089133089133, 1.3308913308913308, -0.09375, -0.375, 1.0, 1.0
324, 0.5067155067155067, -2.3492063492063493, 1.0024420024420024, 0.0625, -0.40625, 1.0, 1.0
325, 1.1587301587301588, -2.492063492063492, 0.8400488400488401, 0.125, -0.40625, 0.96875, 1.0
326, 1.8083028083028083, -2.536019536019536, 0.9902319902319903, 0.1875, -0.375, 0.875, 1.0
327, 2.192918192918193, -2.3968253968253967, 1.3345543345543345, 0.25, -0.40625, 0.75, 1.0
328, 2.4676434676434678, -2.0183150183150182, 1.5995115995115996, 0.34375, -0.40625, 0.625, 1.0
329, 2.9267399267399266, -1.818070818070818, 1.7643467643467643, 0.5, -0.53125, 0.53125, 1.0
330, 2.923076923076923, -1.3284493284493284, 1.5225885225885225, 0.625, -0.625, 0.40625, 1.0
331, 2.7106227106227108, -1.0598290598290598, 1.1892551892551892, 0.84375, -0.59375, 0.28125, 1.0
332, 2.9206349206349205, -1.0415140415140416, 0.7802197802197802, 0.90625, -0.4375, 0.1875, 1.0
333, 3.6666666666666665, -1.0305250305250304, 0.5433455433455433, 1.0, -0.375, 0.0625, 1.0
334, 4.152625152625153, -0.9804639804639804, 0.23931623931623933, 1.125, -0.375, -0.03125, 1.0
335, 4.997557997557998, -1.1391941391941391, 0.25274725274725274, 1.1875, -0.3125, -0.25, 1.0
336, 5.046398046398046, -0.7521367521367521, 0.17094017094017094, 1.1875, -0.3125, -0.6875, 1.0
337, 4.626373626373627, 0.047619047619047616, -0.39194139194139194, 1.34375, -0.3125, -0.875, 1.0
338, 4.3699633699633695, 0.25274725274725274, -0.8754578754578755, 1.40625, -0.53125, -1.09375, 1.0
339, 3.2527472527472527, 0.5152625152625152, -1.7057387057387057, 1.375, -0.375, -1.34375, 1.0
340, 2.7594627594627594, 0.7032967032967034, -2.468864468864469, 1.34375, -0.15625, -1.46875, 1.0
341, 2.717948717948718, 0.46764346764346765, -3.225885225885226, 1.0, -0.15625, -1.5625, 1.0
342, 2.001221001221001, 0.6056166056166056, -3.457875457875458, 0.65625, -0.09375, -1.71875, 1.0
343, 1.5286935286935286, 0.2625152625152625, -3.402930402930403, 0.375, 0.125, -1.84375, 1.0
344, 0.8693528693528694, 0.06349206349206349, -3.2515262515262515, 0.09375, 0.1875, -2.0, 1.0
345, -0.9035409035409036, 0.8998778998778999, -3.6153846153846154, 0.0, 0.34375, -2.0625, 1.0
346, -1.2222222222222223, 1.0256410256410255, -3.838827838827839, -0.25, 0.28125, -1.90625, 1.0
347, -1.8656898656898657, 1.133089133089133, -3.440781440781441, -0.53125, 0.21875, -1.84375, 1.0
348, -3.0036630036630036, 1.7912087912087913, -2.5335775335775335, -0.5625, 0.5, -1.65625, 1.0
349, -2.04029304029304, 0.8669108669108669, -1.9841269841269842, -0.75, 0.5, -1.4375, 1.0
350, -1.663003663003663, 0.29426129426129427, -1.496947496947497, -1.0625, 0.125, -1.28125, 1.0
351, -2.282051282051282, 0.3894993894993895, -1.2380952380952381, -1.125, 0.0, -1.09375, 1.0
352, -2.9096459096459095, 0.08547008547008547, -1.3223443223443223, -0.9375, 0.25, -0.96875, 1.0
353, -2.3272283272283274, -0.7277167277167277, -1.15018315018315, -1.0, 0.3125, -0.8125, 1.0
354, -2.5982905982905984, -0.9340659340659341, -0.7777777777777778, -1.1875, 0.125, -0.625, 1.0
355, -3.474969474969475, -0.7619047619047619, -0.5934065934065934, -1.25, 0.0, -0.34375, 1.0
356, -3.9035409035409034, -1.1025641025641026, -0.6678876678876678, -1.3125, -0.03125, -0.125, 1.0
357, -3.7216117216117217, -1.4908424908424909, -0.7203907203907204, -1.21875, -0.03125, 0.09375, 1.0
358, -4.065934065934066, -1.4114774114774116, -0.34065934065934067, -0.96875, 0.125, 0.28125, 1.0
359, -3.496947496947497, -1.7875457875457876, -0.05372405372405373, -0.96875, 0.125, 0.5, 1.0
360, -3.017094017094017, -1.9694749694749696, 0.45054945054945056, -1.15625, -0.15625, 0.625, 1.0
361, -3.3601953601953602, -1.459096459096459, 1.032967032967033, -0.75, -0.125, 0.8125, 1.0
362, -1.4285714285714286, -3.221001221001221, 0.03540903540903541, -0.59375, -0.09375, 0.90625, 1.0
363, -1.442002442002442, -2.94993894993895, -0.27594627594627597, -0.71875, -0.1875, 0.96875, 1.0
364, -1.3724053724053724, -2.5396825396825395, 0.09523809523809523, -0.78125, -0.0625, 1.125, 1.0
365, -0.7423687423687424, -2.578754578754579, 0.6800976800976801, -0.65625, 0.09375, 1.21875, 1.0
366, 0.06715506715506715, -2.557997557997558, 1.3333333333333333, -0.5625, 0.03125, 1.28125, 1.0
367, 0.25396825396825395, -2.989010989010989, 1.2063492063492063, -0.40625, -0.0625, 1.21875, 1.0
368, 0.5384615384615384, -3.0488400488400487, 1.155067155067155, -0.34375, 0.0, 1.09375, 1.0
369, 0.4945054945054945, -2.6105006105006106, 1.5555555555555556, -0.3125, 0.03125, 1.03125, 1.0
370, 1.0134310134310134, -1.982905982905983, 2.081807081807082, -0.25, 0.0, 1.03125, 1.0
371, 1.4188034188034189, -1.5372405372405373, 2.0305250305250304, -0.15625, -0.09375, 0.96875, 1.0
372, 1.6056166056166057, -1.3846153846153846, 1.5494505494505495, 0.0, -0.125, 0.90625, 1.0
373, 2.4664224664224665, -1.8266178266178266, 1.0390720390720392, 0.0625, -0.125, 0.8125, 1.0
374, 2.6043956043956045, -1.5238095238095237, 0.9413919413919414, 0.0625, -0.25, 0.6875, 1.0
375, 2.562881562881563, -1.0317460317460319, 0.7435897435897436, 0.125, -0.1875, 0.59375, 1.0
376, 2.5616605616605614, -1.1526251526251525, 0.29914529914529914, 0.15625, -0.09375, 0.46875, 1.0
377, 2.343101343101343, -1.2820512820512822, -0.1562881562881563, 0.09375, -0.0625, 0.3125, 0.0
378, 1.706959706959707, -1.177045177045177, -0.6434676434676435, -0.09375, 0.0, 0.15625, 0.0
379, 1.0695970695970696, -0.5921855921855922, -0.7350427350427351, -0.34375, 0.125, 0.0625, 0.0
380, 0.7533577533577533, -0.2588522588522589, -0.5787545787545788, -0.4375, 0.25, 0.0625, 0.0
381, 0.6715506715506715, -0.1343101343101343, -0.10622710622710622, -0.09375, 0.21875, 0.0625, 0.0
382, 0.23565323565323565, -0.3504273504273504, -0.358974358974359, 0.09375, 0.09375, 0.0625, 0.0
383, 0.06715506715506715, -0.57997557997558, -0.6373626373626373, 0.0625, 0.09375, 0.0, 0.0
384, -0.21855921855921856, -0.4932844932844933, -0.7435897435897436, -0.0625, 0.15625, 0.0, 0.0
385, -0.07448107448107448, -0.38461538461538464, -0.5567765567765568, -0.21875, 0.125, -0.03125, 0.0
386, -0.06105006105006105, -0.12698412698412698, -0.26495726495726496, -0.125, 0.03125, -0.0625, 0.0
387, -0.27106227106227104, -0.05372405372405373, -0.08913308913308914, 0.0, 0.0625, -0.09375, 0.0
388, -0.3553113553113553, -0.13797313797313798, -0.17094017094017094, -0.03125, 0.125, -0.09375, 0.0
389, -0.28205128205128205, -0.231990231990232, -0.25274725274725274, -0.15625, 0.09375, -0.09375, 0.0
390, -0.36874236874236876, -0.07448107448107448, -0.008547008547008548, -0.21875, 0.0625, -0.0625, 0.0
391, -0.15262515262515264, -0.10866910866910867, 0.1562881562881563, -0.125, 0.0, -0.03125, 0.0
392, -0.1514041514041514, -0.14652014652014653, 0.0757020757020757, -0.0625, 0.0, -0.03125, 0.0
393, -0.015873015873015872, -0.23809523809523808, -0.05860805860805861, -0.0625, 0.0, -0.0625, 0.0
394, -0.12576312576312576, -0.14285714285714285, 0.03296703296703297, -0.09375, 0.0, -0.09375, 0.0
395, -0.2026862026862027, 0.03785103785103785, 0.20634920634920634, -0.0625, 0.0625, -0.0625, 0.0
396, -0.015873015873015872, -0.006105006105006105, 0.3125763125763126, -0.03125, 0.0, -0.03125, 0.0
397, -0.001221001221001221, -0.047619047619047616, 0.24786324786324787, -0.0625, -0.125, 0.0, 0.0
398, -0.08302808302808302, -0.0231990231990232, 0.07936507936507936, -0.03125, -0.0625, 0.0, 0.0
399, 0.020757020757020756, -0.028083028083028084, -0.08913308913308914, -0.03125, 0.0, 0.0, 0.0
400, 0.05616605616605617, -0.029304029304029304, -0.2698412698412698, -0.09375, 0.0, 0.0, 0.0
401, -0.020757020757020756, 0.04151404151404151, -0.28205128205128205, -0.0625, -0.03125, 0.0, 0.0
402, 0.07936507936507936, -0.042735042735042736, -0.3162393162393162, 0.0, 0.0, 0.0, 0.0
403, 0.0695970695970696, -0.1562881562881563, -0.47619047619047616, -0.03125, 0.0, 0.0, 0.0
404, 0.007326007326007326, -0.09401709401709402, -0.4822954822954823, -0.15625, 0.03125, 0.0, 0.0
405, -0.07326007326007326, 0.14407814407814407, -0.1746031746031746, -0.125, 0.0625, 0.0625, 0.0
406, 0.020757020757020756, 0.0989010989010989, 0.18315018315018314, -0.03125, 0.0625, 0.0625, 0.0
407, 0.2490842490842491, -0.2271062271062271, 0.03907203907203907, -0.0625, 0.0, 0.0625, 0.0
408, 0.042735042735042736, -0.11721611721611722, -0.01098901098901099, -0.125, -0.03125, 0.03125, 0.0
409, -0.10989010989010989, -0.01221001221001221, -0.003663003663003663, -0.09375, 0.03125, 0.03125, 0.0
410, 0.06837606837606838, -0.031746031746031744, -0.01221001221001221, -0.09375, 0.0, 0.03125, 0.0
411, -0.04884004884004884, 0.030525030525030524, -0.015873015873015872, 0.0, 0.0, 0.0625, 0.0
412, 0.08791208791208792, -0.1916971916971917, -0.17704517704517705, 0.0, 0.0, 0.0625, 0.0
413, 0.11355311355311355, -0.24053724053724054, -0.3882783882783883, -0.09375, 0.03125, 0.03125, 0.0
414, 0.01098901098901099, -0.03785103785103785, -0.3052503052503053, -0.15625, 0.03125, 0.03125, 0.0
415, 0.08669108669108669, 0.018315018315018316, -0.08791208791208792, -0.125, 0.03125, 0.03125, 0.0
416, 0.09035409035409035, -0.047619047619047616, -0.057387057387057384, -0.03125, 0.0, 0.03125, 0.0
417, -0.01098901098901099, -0.06837606837606838, -0.12332112332112333, -0.0625, 0.0, 0.0, 0.0
418, -0.019536019536019536, -0.05982905982905983, -0.1978021978021978, -0.09375, 0.03125, 0.0, 0.0
419, 0.028083028083028084, -0.05372405372405373, -0.21855921855921856, -0.15625, 0.0, 0.0, 0.0
420, -0.08791208791208792, 0.0463980463980464, -0.09157509157509157, -0.15625, 0.0, 0.0, 0.0
421, -0.11355311355311355, 0.0695970695970696, -0.0757020757020757, -0.09375, 0.03125, 0.0, 0.0
422, 0.007326007326007326, -0.026862026862026864, -0.06349206349206349, -0.03125, 0.09375, 0.0, 0.0
423, 0.01221001221001221, -0.05128205128205128, -0.07692307692307693, -0.09375, 0.0625, 0.0, 0.0
424, -0.003663003663003663, -0.042735042735042736, 0.08913308913308914, -0.1875, 0.0, -0.03125, 0.0
425, -0.1807081807081807, 0.17094017094017094, 0.1746031746031746, -0.09375, -0.03125, -0.125, 0.0
426, -0.054945054945054944, 0.06471306471306472, 0.14285714285714285, 0.09375, -0.03125, -0.09375, 0.0
427, 0.003663003663003663, -0.1330891330891331, -0.11965811965811966, 0.25, -0.03125, -0.0625, 1.0
428, -0.21733821733821734, -0.6837606837606838, -0.7948717948717948, 0.03125, 0.03125, -0.15625, 1.0
429, -0.15384615384615385, -0.2698412698412698, -0.5946275946275946, -0.40625, 0.09375, -0.125, 1.0
430, -0.27228327228327226, -0.0757020757020757, -0.5470085470085471, -0.53125, 0.03125, -0.0625, 1.0
431, -0.1221001221001221, -0.0695970695970696, -0.5006105006105006, -0.53125, 0.0, 0.0, 1.0
432, -0.6239316239316239, -0.04884004884004884, -0.4652014652014652, -0.5, -0.03125, 0.0625, 1.0
433, -1.021978021978022, 0.1623931623931624, -0.4725274725274725, -0.5, 0.0625, 0.15625, 1.0
434, -1.1758241758241759, 0.03296703296703297, -0.6691086691086691, -0.4375, 0.09375, 0.34375, 1.0
435, -1.7997557997557998, 0.10744810744810745, -0.6275946275946276, -0.34375, 0.0, 0.46875, 1.0
436, -2.282051282051282, 0.14774114774114774, -0.5873015873015873, -0.25, 0.125, 0.625, 1.0
437, -2.155067155067155, -0.46886446886446886, -0.6959706959706959, -0.3125, 0.15625, 0.75, 1.0
438, -1.678876678876679, -0.7350427350427351, -0.2039072039072039, -0.375, 0.03125, 0.84375, 1.0
439, -1.8107448107448108, -0.8327228327228328, 0.3052503052503053, -0.28125, 0.0, 0.9375, 1.0
440, -1.4053724053724053, -1.3284493284493284, 0.5335775335775336, -0.21875, 0.0, 1.0, 1.0
441, -0.7387057387057387, -1.7863247863247864, 0.7057387057387058, -0.1875, -0.125, 1.0, 1.0
442, -0.40415140415140416, -2.363858363858364, 0.503052503052503, -0.1875, -0.28125, 0.9375, 1.0
443, -0.34554334554334554, -2.230769230769231, 0.7032967032967034, -0.125, -0.25, 0.90625, 1.0
444, -0.08913308913308914, -2.15995115995116, 1.1294261294261294, 0.0, -0.21875, 0.90625, 1.0
445, 0.36752136752136755, -2.391941391941392, 1.2503052503052503, -0.03125, -0.21875, 0.875, 1.0
446, 0.8986568986568987, -2.305250305250305, 1.4395604395604396, 0.0, -0.3125, 0.90625, 1.0
447, 1.4786324786324787, -2.241758241758242, 1.873015873015873, 0.15625, -0.375, 0.84375, 1.0
448, 2.2503052503052503, -2.3882783882783882, 2.1001221001221, 0.34375, -0.4375, 0.71875, 1.0
449, 2.7667887667887667, -2.4285714285714284, 2.04029304029304, 0.46875, -0.4375, 0.53125, 1.0
450, 3.183150183150183, -2.122100122100122, 1.9377289377289377, 0.5625, -0.40625, 0.375, 1.0
451, 3.485958485958486, -1.7704517704517704, 1.8717948717948718, 0.71875, -0.46875, 0.25, 1.0
452, 3.896214896214896, -1.6275946275946276, 1.4273504273504274, 0.90625, -0.59375, 0.0625, 1.0
453, 3.9255189255189253, -1.5616605616605617, 0.6324786324786325, 1.0, -0.53125, -0.125, 1.0
454, 4.137973137973138, -0.8754578754578755, 0.38095238095238093, 1.0625, -0.28125, -0.34375, 1.0
455, 4.74969474969475, -0.07936507936507936, 0.3785103785103785, 1.21875, -0.0625, -0.40625, 1.0
456, 5.953601953601954, -0.07081807081807082, 0.17338217338217338, 1.21875, -0.1875, -0.625, 1.0
457, 5.808302808302808, 0.19291819291819293, -0.47496947496947495, 1.15625, -0.21875, -0.96875, 1.0
458, 4.648351648351649, 0.8693528693528694, -1.1391941391941391, 1.1875, 0.0, -1.28125, 1.0
459, 4.21001221001221, 1.2063492063492063, -1.8131868131868132, 1.0625, 0.09375, -1.5625, 1.0
460, 2.2967032967032965, 1.8888888888888888, -2.326007326007326, 1.0625, 0.15625, -1.65625, 1.0
461, 1.8363858363858363, 1.3162393162393162, -3.3455433455433456, 0.96875, 0.03125, -1.6875, 1.0
462, 0.8656898656898657, 1.1623931623931625, -3.673992673992674, 0.59375, 0.0, -1.71875, 1.0
463, 0.9194139194139194, 0.8864468864468864, -3.098901098901099, 0.28125, 0.25, -1.75, 1.0
464, 0.6263736263736264, 0.9487179487179487, -2.750915750915751, 0.0625, 0.34375, -1.8125, 1.0
465, 0.017094017094017096, 0.9584859584859585, -2.498168498168498, -0.09375, 0.28125, -1.84375, 1.0
466, -0.5152625152625152, 1.0622710622710623, -1.713064713064713, -0.25, 0.09375, -1.8125, 1.0
467, -1.5213675213675213, 1.0341880341880343, -1.6642246642246643, -0.3125, 0.09375, -1.78125, 1.0
468, -1.3919413919413919, 0.4456654456654457, -2.0097680097680097, -0.34375, 0.125, -1.59375, 1.0
469, -1.5286935286935286, -0.22954822954822954, -2.4554334554334556, -0.5625, -0.0625, -1.4375, 1.0
470, -2.547008547008547, -0.21611721611721613, -2.8485958485958487, -0.71875, -0.125, -1.34375, 1.0
471, -3.1477411477411477, -0.0989010989010989, -2.568986568986569, -0.78125, -0.03125, -1.09375, 1.0
472, -3.335775335775336, -0.14407814407814407, -2.001221001221001, -0.875, 0.09375, -0.84375, 1.0
473, -3.3028083028083026, 0.0, -1.0598290598290598, -1.09375, 0.0, -0.5, 1.0
474, -3.3846153846153846, -0.927960927960928, -1.1013431013431014, -1.15625, -0.15625, -0.1875, 1.0
475, -3.614163614163614, -1.6642246642246643, -1.6691086691086692, -1.09375, -0.15625, -0.03125, 1.0
476, -3.365079365079365, -2.1306471306471306, -1.7179487179487178, -1.0625, 0.0625, 0.15625, 1.0
477, -2.6825396825396823, -2.36996336996337, -1.0268620268620268, -1.21875, 0.15625, 0.3125, 1.0
478, -2.7655677655677655, -1.7875457875457876, 0.21855921855921856, -1.4375, 0.09375, 0.4375, 1.0
479, -2.5103785103785103, -1.4981684981684982, 1.089133089133089, -1.3125, 0.0, 0.5625, 1.0
480, -1.9401709401709402, -2.5409035409035408, 0.6971916971916972, -1.0, -0.28125, 0.6875, 1.0
481, -1.9902319902319903, -2.6434676434676434, 0.2661782661782662, -0.84375, -0.3125, 0.75, 1.0
482, -1.47985347985348, -2.385836385836386, 0.6251526251526252, -0.78125, -0.0625, 0.8125, 1.0
483, -1.0976800976800978, -1.7936507936507937, 1.5335775335775337, -0.78125, -0.125, 0.90625, 1.0
484, -0.9706959706959707, -1.5335775335775337, 2.10989010989011, -0.71875, -0.34375, 1.0625, 1.0
485, -0.8437118437118437, -1.971916971916972, 1.6886446886446886, -0.5625, -0.46875, 1.125, 1.0
486, -1.0390720390720392, -2.2686202686202686, 1.1196581196581197, -0.375, -0.25, 1.21875, 1.0
487, -0.09401709401709402, -2.6556776556776556, 1.0732600732600732, -0.28125, -0.15625, 1.34375, 1.0
488, 0.4065934065934066, -2.5714285714285716, 1.2637362637362637, -0.21875, -0.1875, 1.3125, 1.0
489, 0.967032967032967, -2.7667887667887667, 1.3064713064713065, -0.125, -0.15625, 1.28125, 1.0
490, 2.1758241758241756, -2.984126984126984, 1.0952380952380953, -0.03125, -0.28125, 1.15625, 1.0
491, 2.0952380952380953, -2.6715506715506714, 0.6288156288156288, 0.0, -0.1875, 1.03125, 1.0
492, 1.8827838827838828, -2.1074481074481075, 0.32722832722832723, 0.0, 0.09375, 0.96875, 1.0
493, 2.8986568986568986, -1.9694749694749696, 0.6398046398046398, -0.0625, 0.03125, 0.90625, 1.0
494, 3.1135531135531136, -1.606837606837607, 0.9731379731379731, -0.09375, -0.125, 0.75, 1.0
495, 2.5641025641025643, -0.9719169719169719, 0.8937728937728938, 0.125, 0.0, 0.625, 1.0
496, 3.023199023199023, -1.3125763125763126, 0.5409035409035409, 0.15625, 0.0, 0.46875, 1.0
497, 3.1880341880341883, -1.2893772893772895, 0.5201465201465202, 0.09375, -0.09375, 0.375, 1.0
498, 2.4615384615384617, -0.4981684981684982, 0.44932844932844934, 0.15625, -0.0625, 0.25, 1.0
499, 1.6080586080586081, -0.2612942612942613, -0.09157509157509157, 0.25, 0.0, 0.1875, 1.0
500, 1.192918192918193, -0.2954822954822955, -0.4004884004884005, 0.21875, 0.0, 0.15625, 1.0
501, 0.9169719169719169, -0.6068376068376068, -0.746031746031746, 0.125, -0.03125, 0.125, 0.0
502, 0.3614163614163614, -0.6605616605616605, -1.0842490842490842, -0.03125, 0.125, 0.09375, 0.0
503, 0.37362637362637363, -0.6385836385836385, -1.0146520146520146, -0.25, 0.21875, 0.125, 0.0
504, 0.2967032967032967, -0.27350427350427353, -0.7509157509157509, -0.25, 0.21875, 0.0625, 0.0
505, 0.003663003663003663, -0.028083028083028084, -0.21733821733821734, -0.03125, 0.15625, 0.0625, 0.0
506, -0.1282051282051282, -0.20146520146520147, -0.37362637362637363, -0.03125, 0.1875, 0.03125, 0.0
507, 0.1391941391941392, -0.536019536019536, -0.5164835164835165, -0.1875, 0.125, -0.03125, 0.0
508, 0.1330891330891331, -0.4884004884004884, -0.336996336996337, -0.28125, 0.125, -0.0625, 0.0
509, -0.1330891330891331, -0.07448107448107448, -0.24297924297924298, -0.21875, 0.125, -0.03125, 0.0
510, -0.1794871794871795, -0.1916971916971917, -0.24786324786324787, -0.125, 0.0625, -0.03125, 0.0
511, -0.004884004884004884, -0.3028083028083028, -0.2588522588522589, -0.125, 0.03125, -0.03125, 0.0
512, -0.045177045177045176, -0.045177045177045176, -0.047619047619047616, -0.1875, 0.0625, -0.03125, 0.0
513, -0.1855921855921856, 0.052503052503052504, -0.013431013431013432, -0.1875, 0.125, -0.03125, 0.0
514, -0.14407814407814407, 0.1452991452991453, 0.11355311355311355, -0.1875, 0.125, 0.0, 0.0
515, -0.21978021978021978, 0.0757020757020757, 0.12942612942612944, -0.09375, 0.0, 0.0, 0.0
516, -0.2271062271062271, -0.1794871794871795, -0.2271062271062271, -0.0625, 0.03125, 0.0, 0.0
517, -0.02442002442002442, -0.18925518925518925, -0.2661782661782662, -0.1875, 0.09375, 0.03125, 0.0
518, 0.04395604395604396, -0.10989010989010989, -0.03663003663003663, -0.25, 0.0625, 0.0625, 0.0
519, 0.13553113553113552, 0.007326007326007326, 0.37362637362637363, -0.1875, 0.03125, 0.0625, 0.0
520, 0.03540903540903541, -0.07081807081807082, 0.35775335775335776, -0.03125, 0.03125, 0.03125, 0.0
521, 0.06349206349206349, -0.3064713064713065, -0.02564102564102564, -0.03125, 0.03125, 0.03125, 0.0
522, -0.018315018315018316, -0.17338217338217338, -0.052503052503052504, -0.15625, -0.03125, 0.03125, 0.0
523, -0.1221001221001221, -0.1746031746031746, -0.09523809523809523, -0.15625, 0.0, 0.03125, 0.0
524, 0.020757020757020756, -0.08180708180708181, -0.10989010989010989, -0.15625, 0.09375, 0.03125, 0.0
525, 0.1111111111111111, -0.0927960927960928, -0.10866910866910867, -0.1875, 0.0, 0.03125, 0.0
526, -0.16727716727716727, 0.013431013431013432, 0.008547008547008548, -0.15625, -0.0625, 0.03125, 0.0
527, -0.19291819291819293, 0.018315018315018316, 0.09401709401709402, -0.0625, 0.03125, 0.03125, 0.0
528, 0.057387057387057384, -0.06715506715506715, 0.18192918192918192, 0.0, 0.15625, 0.03125, 0.0
529, 0.03540903540903541, -0.09401709401709402, 0.08791208791208792, -0.03125, 0.03125, 0.0, 0.0
530, -0.29181929181929184, 0.05616605616605617, 0.04884004884004884, -0.0625, -0.0625, 0.0, 0.0
531, -0.2026862026862027, 0.03296703296703297, -0.019536019536019536, -0.03125, 0.0, 0.03125, 0.0
532, -0.0231990231990232, -0.013431013431013432, -0.045177045177045176, 0.0, 0.03125, 0.03125, 0.0
533, 0.08180708180708181, -0.06593406593406594, -0.18803418803418803, -0.0625, 0.0, 0.03125, 0.0
534, 0.0231990231990232, -0.002442002442002442, -0.14407814407814407, -0.0625, -0.0625, 0.03125, 0.0
535, -0.008547008547008548, -0.05982905982905983, -0.2576312576312576, -0.03125, 0.0, 0.03125, 0.0
536, 0.10744810744810745, -0.15018315018315018, -0.3907203907203907, -0.09375, 0.0625, 0.03125, 0.0
537, 0.28205128205128205, -0.20634920634920634, -0.33943833943833945, -0.15625, 0.0, 0.03125, 0.0
538, 0.007326007326007326, 0.04884004884004884, -0.09401709401709402, -0.125, 0.0, 0.0, 0.0
539, 0.020757020757020756, 0.05982905982905983, 0.11355311355311355, 0.0, 0.09375, 0.0, 0.0
540, 0.06105006105006105, -0.05372405372405373, -0.052503052503052504, -0.0625, 0.09375, 0.0, 0.0
541, 0.003663003663003663, -0.0231990231990232, -0.08913308913308914, -0.125, 0.0, 0.0, 0.0
542, -0.029304029304029304, -0.04151404151404151, -0.05372405372405373, -0.09375, 0.0, 0.0, 0.0
543, -0.03296703296703297, 0.001221001221001221, -0.001221001221001221, -0.03125, 0.0625, 0.0, 0.0
544, 0.10866910866910867, -0.0927960927960928, 0.03907203907203907, 0.0, 0.0, 0.0, 0.0
545, -0.014652014652014652, -0.06105006105006105, -0.06593406593406594, -0.0625, 0.0, 0.0, 0.0
546, 0.004884004884004884, -0.007326007326007326, 0.1330891330891331, -0.0625, 0.0, 0.0, 0.0
547, 0.001221001221001221, -0.03907203907203907, 0.02564102564102564, -0.03125, 0.0, 0.0, 0.0
548, -0.11233211233211234, 0.15384615384615385, 0.07203907203907203, 0.0625, 0.0, -0.03125, 1.0
549, 0.008547008547008548, 0.028083028083028084, 0.0757020757020757, 0.21875, -0.0625, -0.0625, 1.0
550, -0.06227106227106227, -0.5946275946275946, -0.5482295482295483, 0.0, -0.03125, -0.1875, 1.0
551, -0.5763125763125763, -0.2844932844932845, -1.054945054945055, -0.46875, 0.28125, -0.125, 1.0
552, -0.5091575091575091, -0.3956043956043956, -0.7533577533577533, -0.84375, 0.40625, -0.0625, 1.0
553, -0.7582417582417582, 0.1111111111111111, -0.5128205128205128, -0.90625, 0.3125, 0.0, 1.0
554, -0.7948717948717948, 0.5164835164835165, -0.2503052503052503, -0.625, 0.09375, 0.0625, 1.0
555, -1.393162393162393, 0.4139194139194139, -0.3162393162393162, -0.34375, 0.0, 0.1875, 1.0
556, -1.6532356532356531, 0.09035409035409035, -0.6153846153846154, -0.25, 0.0, 0.4375, 1.0
557, -2.2612942612942613, -0.4297924297924298, -0.8778998778998779, -0.375, 0.0, 0.53125, 1.0
558, -2.2735042735042734, -0.3785103785103785, -0.452991452991453, -0.3125, 0.03125, 0.75, 1.0
559, -1.5421245421245422, -1.021978021978022, -0.1623931623931624, -0.21875, -0.03125, 0.875, 1.0
560, -1.862026862026862, -1.873015873015873, -0.5286935286935287, -0.3125, -0.1875, 0.78125, 1.0
561, -1.7216117216117217, -1.7814407814407816, -0.3235653235653236, -0.4375, 0.15625, 0.71875, 1.0
562, -0.7472527472527473, -1.8827838827838828, 0.2893772893772894, -0.46875, 0.1875, 0.78125, 1.0
563, -0.7667887667887668, -1.5164835164835164, 0.7521367521367521, -0.46875, -0.0625, 0.875, 1.0
564, -0.8522588522588522, -1.4774114774114775, 0.9438339438339438, -0.28125, -0.15625, 0.9375, 1.0
565, -0.315018315018315, -2.029304029304029, 0.8717948717948718, -0.09375, -0.09375, 0.96875, 1.0
566, 0.5616605616605617, -2.4285714285714284, 0.905982905982906, -0.125, -0.15625, 0.96875, 1.0
567, 0.8705738705738706, -2.1294261294261294, 1.293040293040293, -0.125, -0.34375, 0.90625, 1.0
568, 1.4517704517704517, -2.1257631257631258, 1.7094017094017093, 0.03125, -0.3125, 0.875, 1.0
569, 2.2857142857142856, -2.2612942612942613, 2.166056166056166, 0.1875, -0.28125, 0.75, 1.0
570, 2.6727716727716726, -2.021978021978022, 2.385836385836386, 0.28125, -0.375, 0.59375, 1.0
571, 2.8693528693528694, -2.0317460317460316, 2.1355311355311355, 0.4375, -0.5, 0.46875, 1.0
572, 3.128205128205128, -1.757020757020757, 1.884004884004884, 0.625, -0.53125, 0.28125, 1.0
573, 3.628815628815629, -1.9609279609279608, 1.1172161172161172, 0.78125, -0.4375, 0.03125, 1.0
574, 4.174603174603175, -1.9841269841269842, 0.326007326007326, 0.8125, -0.34375, -0.1875, 1.0
575, 3.934065934065934, -0.8168498168498168, 0.031746031746031744, 0.71875, -0.125, -0.40625, 1.0
576, 4.031746031746032, 0.22832722832722832, 0.0, 0.78125, 0.0, -0.46875, 1.0
577, 3.9853479853479854, 0.5738705738705738, -0.42857142857142855, 0.90625, -0.15625, -0.5, 1.0
578, 3.3235653235653237, 0.9462759462759462, -0.851037851037851, 1.0625, -0.34375, -0.53125, 1.0
579, 2.989010989010989, 0.7936507936507936, -1.3418803418803418, 1.15625, 0.0, -0.71875, 1.0
580, 4.123321123321123, 0.5506715506715507, -1.0976800976800978, 1.0625, 0.34375, -0.96875, 1.0
581, 4.105006105006105, 0.5763125763125763, -1.2332112332112333, 0.9375, 0.15625, -1.34375, 1.0
582, 2.6788766788766787, 1.0512820512820513, -2.064713064713065, 0.9375, 0.15625, -1.5, 1.0
583, 1.6288156288156288, 1.3724053724053724, -2.4676434676434678, 0.84375, 0.15625, -1.6875, 1.0
584, 0.4822954822954823, 1.5067155067155067, -2.5286935286935286, 0.65625, 0.34375, -1.78125, 1.0
585, 0.5531135531135531, 1.2185592185592184, -2.311355311355311, 0.40625, 0.4375, -1.71875, 1.0
586, 0.5921855921855922, 1.0427350427350428, -1.894993894993895, 0.125, 0.3125, -1.78125, 1.0
587, -0.2686202686202686, 1.3553113553113554, -1.5213675213675213, 0.09375, 0.28125, -1.78125, 1.0
588, -1.1086691086691087, 1.5238095238095237, -1.7863247863247864, 0.09375, 0.15625, -1.6875, 1.0
589, -1.8131868131868132, 1.352869352869353, -2.098901098901099, -0.15625, 0.03125, -1.5625, 1.0
590, -2.0744810744810747, 1.6031746031746033, -1.5274725274725274, -0.3125, 0.09375, -1.40625, 1.0
591, -1.7448107448107448, 1.1514041514041513, -1.1672771672771673, -0.34375, 0.1875, -1.3125, 1.0
592, -1.0317460317460319, 0.16971916971916973, -1.3675213675213675, -0.46875, 0.0, -1.21875, 1.0
593, -1.9377289377289377, -0.16117216117216118, -2.122100122100122, -0.65625, -0.15625, -1.0625, 1.0
594, -2.722832722832723, 0.02564102564102564, -2.0634920634920637, -0.75, 0.03125, -0.9375, 1.0
595, -2.326007326007326, -0.2258852258852259, -1.2808302808302807, -0.875, 0.03125, -0.71875, 1.0
596, -2.8656898656898657, -0.41025641025641024, -0.8327228327228328, -0.90625, -0.0625, -0.53125, 1.0
597, -3.746031746031746, -0.4908424908424908, -0.8107448107448108, -0.8125, 0.0, -0.25, 1.0
598, -3.572649572649573, -1.5335775335775337, -1.4884004884004884, -0.8125, -0.0625, -0.03125, 1.0
599, -3.4053724053724053, -2.128205128205128, -1.5054945054945055, -0.96875, 0.03125, 0.15625, 1.0
600, -3.039072039072039, -1.9487179487179487, -0.5848595848595849, -1.0625, 0.03125, 0.3125, 1.0
601, -3.062271062271062, -1.264957264957265, 0.3064713064713065, -0.84375, -0.03125, 0.5, 1.0
602, -2.8034188034188032, -1.5482295482295483, 0.49694749694749696, -0.71875, -0.1875, 0.65625, 1.0
603, -2.7423687423687424, -1.9242979242979243, 0.5384615384615384, -0.75, -0.21875, 0.6875, 1.0
604, -2.468864468864469, -2.012210012210012, 0.7057387057387058, -0.65625, -0.125, 0.78125, 1.0
605, -1.5714285714285714, -2.2905982905982905, 0.5042735042735043, -0.59375, -0.3125, 0.875, 1.0
606, -1.7155067155067154, -1.9768009768009769, -0.7521367521367521, -0.40625, -0.4375, 1.0625, 1.0
607, -0.36385836385836384, -3.070818070818071, -0.6642246642246642, -0.53125, -0.1875, 1.1875, 1.0
608, -0.5152625152625152, -2.501831501831502, 0.26373626373626374, -0.75, -0.25, 1.1875, 1.0
609, -0.8253968253968254, -2.0463980463980462, 1.1135531135531136, -0.65625, -0.15625, 1.25, 1.0
610, -0.09157509157509157, -2.542124542124542, 1.3894993894993894, -0.34375, -0.03125, 1.28125, 1.0
611, 0.2625152625152625, -3.1746031746031744, 1.0305250305250304, -0.21875, -0.03125, 1.21875, 1.0
612, 0.7203907203907204, -3.647130647130647, 0.6800976800976801, -0.25, -0.09375, 1.21875, 1.0
613, 1.1660561660561661, -3.6117216117216118, 0.6996336996336996, -0.28125, -0.09375, 1.15625, 1.0
614, 1.0512820512820513, -2.982905982905983, 1.1135531135531136, -0.21875, -0.0625, 1.03125, 1.0
615, 0.978021978021978, -2.525030525030525, 1.1074481074481075, -0.03125, 0.0, 1.0, 1.0
616, 0.9536019536019537, -2.0366300366300365, 0.7765567765567766, 0.0, 0.03125, 0.9375, 1.0
617, 1.5848595848595848, -2.006105006105006, 0.6495726495726496, 0.0, -0.03125, 0.9375, 1.0
618, 1.6373626373626373, -1.4334554334554335, 0.8266178266178266, -0.0625, -0.15625, 0.875, 1.0
619, 1.910866910866911, -0.9694749694749695, 0.8046398046398047, 0.0625, -0.03125, 0.78125, 1.0
620, 2.238095238095238, -0.7667887667887668, 0.6910866910866911, 0.125, 0.0, 0.6875, 1.0
621, 2.617826617826618, -0.9072039072039072, 0.5409035409035409, 0.0625, -0.0625, 0.59375, 1.0
622, 2.238095238095238, -0.7655677655677655, 0.41147741147741146, 0.03125, -0.1875, 0.46875, 1.0
623, 2.0085470085470085, -0.5665445665445665, 0.2490842490842491, 0.0625, -0.09375, 0.34375, 1.0
624, 1.8547008547008548, -0.4896214896214896, -0.07936507936507936, 0.09375, -0.03125, 0.21875, 1.0
625, 1.0195360195360195, -0.14163614163614163, -0.6361416361416361, 0.09375, -0.03125, 0.15625, 0.0
626, 0.26495726495726496, -0.24053724053724054, -1.2466422466422467, 0.1875, 0.0625, 0.125, 0.0
627, 0.47863247863247865, -0.0927960927960928, -1.2722832722832722, 0.09375, 0.1875, 0.1875, 0.0
628, 0.6813186813186813, -0.7155067155067155, -1.0671550671550671, -0.0625, 0.125, 0.125, 0.0
629, 0.2844932844932845, -0.2869352869352869, -0.7350427350427351, -0.1875, 0.125, 0.09375, 0.0
630, 0.15262515262515264, -0.10866910866910867, -0.5042735042735043, -0.09375, 0.15625, 0.03125, 0.0
631, -0.01221001221001221, -0.22344322344322345, -0.5311355311355311, -0.09375, 0.09375, 0.0, 0.0
632, -0.42735042735042733, -0.09523809523809523, -0.5311355311355311, -0.125, 0.0625, -0.03125, 0.0
633, -0.21367521367521367, -0.44078144078144077, -0.5921855921855922, -0.25, 0.0, -0.03125, 0.0
634, -0.12942612942612944, -0.3894993894993895, -0.47374847374847373, -0.28125, -0.09375, -0.0625, 0.0
635, -0.6275946275946276, -0.27350427350427353, -0.4542124542124542, -0.1875, 0.03125, -0.09375, 0.0
636, -0.4554334554334554, -0.2490842490842491, -0.41025641025641024, -0.15625, 0.15625, -0.09375, 0.0
637, -0.358974358974359, -0.16361416361416362, -0.18437118437118438, -0.1875, 0.0, -0.0625, 0.0
638, -0.652014652014652, 0.16605616605616605, -0.03785103785103785, -0.1875, 0.0, 0.0, 0.0
639, -0.46153846153846156, 0.0927960927960928, 0.06471306471306472, -0.15625, 0.09375, 0.0, 0.0
640, -0.02564102564102564, -0.0989010989010989, 0.19291819291819293, -0.15625, 0.0, 0.0, 0.0
641, -0.10378510378510379, -0.115995115995116, 0.02564102564102564, -0.125, -0.0625, 0.0, 0.0
642, -0.25396825396825395, 0.06715506715506715, 0.12087912087912088, 0.0, 0.0, 0.0, 0.0
643, -0.03418803418803419, -0.020757020757020756, 0.13186813186813187, 0.03125, 0.0625, 0.0, 0.0
644, 0.042735042735042736, -0.19047619047619047, 0.04151404151404151, -0.03125, 0.0, 0.0, 0.0
645, -0.17826617826617827, -0.06593406593406594, 0.009768009768009768, -0.125, 0.0, 0.0, 0.0
646, -0.09768009768009768, -0.10134310134310134, -0.05372405372405373, -0.15625, 0.0625, 0.0, 0.0
647, 0.03785103785103785, -0.0231990231990232, 0.10500610500610501, -0.125, 0.03125, 0.03125, 0.0
648, 0.017094017094017096, -0.06349206349206349, 0.09157509157509157, -0.03125, 0.0, 0.03125, 0.0
649, 0.09157509157509157, -0.18803418803418803, -0.07936507936507936, -0.03125, 0.03125, 0.03125, 0.0
650, 0.11843711843711843, -0.16117216117216118, -0.12454212454212454, -0.125, 0.03125, 0.0, 0.0
651, -0.06471306471306472, -0.001221001221001221, -0.05982905982905983, -0.15625, 0.0, 0.0, 0.0
652, -0.1684981684981685, 0.17582417582417584, 0.042735042735042736, -0.09375, 0.0, 0.03125, 0.0
653, -0.14407814407814407, 0.15018315018315018, 0.12576312576312576, 0.0, 0.0, 0.0625, 0.0
654, 0.03296703296703297, -0.12087912087912088, -0.0695970695970696, -0.03125, 0.0, 0.0625, 0.0
655, 0.1111111111111111, -0.2442002442002442, -0.31868131868131866, -0.125, 0.0, 0.0, 0.0
656, 0.06227106227106227, -0.08058608058608059, -0.19658119658119658, -0.15625, 0.03125, 0.0, 0.0
657, 0.009768009768009768, -0.007326007326007326, -0.04884004884004884, -0.125, 0.0, 0.0, 0.0
658, -0.031746031746031744, -0.06593406593406594, -0.10256410256410256, -0.0625, 0.0, 0.0, 0.0
659, -0.007326007326007326, -0.0757020757020757, -0.13064713064713065, -0.0625, 0.03125, 0.0, 0.0
660, 0.040293040293040296, -0.08424908424908426, -0.12454212454212454, -0.125, 0.03125, 0.0, 0.0
661, 0.015873015873015872, -0.028083028083028084, -0.040293040293040296, -0.1875, 0.03125, 0.0, 0.0
662, -0.14407814407814407, 0.13675213675213677, 0.1575091575091575, -0.09375, 0.03125, 0.0, 0.0
663, -0.026862026862026864, -0.042735042735042736, 0.06105006105006105, 0.0, 0.03125, 0.0625, 0.0
664, -0.013431013431013432, -0.06715506715506715, 0.002442002442002442, -0.03125, 0.0625, 0.03125, 0.0
665, 0.018315018315018316, -0.054945054945054944, 0.052503052503052504, -0.09375, 0.09375, 0.03125, 0.0
666, 0.18681318681318682, -0.09768009768009768, 0.15995115995115994, -0.09375, 0.0625, 0.03125, 0.0
667, 0.031746031746031744, -0.02442002442002442, 0.19047619047619047, -0.0625, 0.0, 0.0, 0.0
668, -0.08547008547008547, 0.007326007326007326, 0.1111111111111111, 0.0, 0.0, 0.0, 0.0
669, -0.05860805860805861, -0.0231990231990232, -0.019536019536019536, -0.03125, 0.03125, 0.0, 0.0
670, -0.07203907203907203, 0.001221001221001221, -0.031746031746031744, -0.0625, 0.0, 0.0, 0.0
671, -0.13797313797313798, -0.006105006105006105, -0.1807081807081807, -0.03125, 0.0, 0.0, 0.0
672, -0.026862026862026864, -0.052503052503052504, -0.20512820512820512, 0.0, 0.0, 0.0, 0.0
673, 0.003663003663003663, -0.05616605616605617, -0.2222222222222222, -0.03125, 0.0, 0.0, 0.0
674, -0.047619047619047616, 0.042735042735042736, -0.16971916971916973, -0.03125, 0.03125, 0.0, 0.0
675, 0.17216117216117216, -0.013431013431013432, -0.1391941391941392, 0.0, 0.03125, 0.03125, 0.0
676, 0.047619047619047616, -0.05372405372405373, -0.2271062271062271, 0.0, -0.0625, 0.0, 0.0
677, -0.09401709401709402, -0.04884004884004884, -0.31868131868131866, 0.0, 0.0, 0.0, 0.0
678, 0.017094017094017096, -0.04151404151404151, -0.32844932844932845, 0.0, 0.03125, 0.03125, 1.0
679, -0.1916971916971917, -0.002442002442002442, -0.3516483516483517, -0.1875, 0.0625, 0.0, 1.0
680, -0.25274725274725274, 0.10134310134310134, -0.2271062271062271, -0.1875, 0.03125, 0.03125, 1.0
681, -0.3137973137973138, 0.21123321123321123, -0.221001221001221, -0.0625, -0.03125, 0.09375, 1.0
682, -0.5115995115995116, 0.08547008547008547, -0.3797313797313797, 0.03125, -0.09375, 0.1875, 1.0
683, -0.7216117216117216, -0.4468864468864469, -0.7081807081807082, -0.0625, 0.0, 0.25, 1.0
684, -0.7008547008547008, -0.7643467643467643, -0.8424908424908425, -0.4375, 0.03125, 0.25, 1.0
685, -1.2087912087912087, -0.4981684981684982, -0.7411477411477412, -0.625, 0.0625, 0.34375, 1.0
686, -1.363858363858364, -0.2442002442002442, -0.5824175824175825, -0.5625, 0.0625, 0.4375, 1.0
687, -1.404151404151404, -0.25274725274725274, -0.4139194139194139, -0.34375, 0.03125, 0.5, 1.0
688, -1.4908424908424909, -0.608058608058608, -0.5787545787545788, -0.25, 0.09375, 0.59375, 1.0
689, -1.2515262515262515, -1.0134310134310134, -0.4700854700854701, -0.3125, 0.125, 0.65625, 1.0
690, -0.8888888888888888, -1.4896214896214897, -0.23443223443223443, -0.375, 0.0625, 0.71875, 1.0
691, -0.3772893772893773, -1.9487179487179487, 0.08791208791208792, -0.4375, 0.0, 0.6875, 1.0
692, -0.32967032967032966, -1.7423687423687424, 0.7362637362637363, -0.34375, -0.03125, 0.6875, 1.0
693, 0.003663003663003663, -1.7533577533577533, 1.3076923076923077, -0.15625, -0.0625, 0.65625, 1.0
694, 0.24175824175824176, -1.9487179487179487, 1.3675213675213675, -0.0625, -0.125, 0.65625, 1.0
695, 0.6361416361416361, -2.2112332112332114, 1.2808302808302807, -0.0625, -0.15625, 0.65625, 1.0
696, 1.0341880341880343, -2.1355311355311355, 1.4871794871794872, -0.125, -0.1875, 0.59375, 1.0
697, 1.4639804639804639, -1.9768009768009769, 1.5665445665445665, -0.09375, -0.21875, 0.53125, 1.0
698, 1.7973137973137974, -1.4835164835164836, 1.9682539682539681, 0.125, -0.28125, 0.46875, 1.0
699, 2.2222222222222223, -1.4236874236874237, 1.9474969474969475, 0.40625, -0.3125, 0.375, 1.0
700, 2.786324786324786, -1.3821733821733821, 1.6593406593406594, 0.53125, -0.34375, 0.28125, 1.0
701, 3.32967032967033, -1.1807081807081807, 1.702075702075702, 0.71875, -0.34375, 0.125, 1.0
702, 3.3675213675213675, -1.061050061050061, 1.6898656898656899, 0.84375, -0.28125, 0.0, 1.0
703, 3.5665445665445668, -0.6422466422466423, 1.7582417582417582, 1.125, -0.21875, -0.125, 1.0
704, 3.1477411477411477, 1.1172161172161172, 1.2954822954822955, 1.40625, -0.03125, -0.1875, 1.0
705, 3.758241758241758, 0.7728937728937729, 0.6898656898656899, 1.625, 0.09375, -0.125, 1.0
706, 4.366300366300366, 0.5396825396825397, 0.20634920634920634, 1.65625, 0.1875, -0.21875, 1.0
707, 5.134310134310135, 0.3199023199023199, -0.4053724053724054, 1.65625, 0.1875, -0.34375, 1.0
708, 5.267399267399267, 0.26495726495726496, -1.1660561660561661, 1.5, 0.03125, -0.65625, 1.0
709, 4.191697191697192, 0.7643467643467643, -2.139194139194139, 1.34375, 0.0, -0.96875, 1.0
710, 3.312576312576313, 0.8852258852258852, -2.9145299145299144, 1.25, 0.0625, -1.25, 1.0
711, 2.7826617826617825, 0.49206349206349204, -3.583638583638584, 1.0625, 0.0625, -1.4375, 1.0
712, 2.1648351648351647, 0.39316239316239315, -3.8522588522588523, 0.59375, 0.09375, -1.625, 1.0
713, 1.5604395604395604, 0.5018315018315018, -3.3772893772893773, 0.1875, 0.15625, -1.75, 1.0
714, 0.8266178266178266, 0.4358974358974359, -2.5347985347985347, 0.0625, 0.0625, -1.875, 1.0
715, -0.8778998778998779, 0.41147741147741146, -2.8632478632478633, 0.0, 0.0, -2.03125, 1.0
716, -1.5592185592185592, 0.3443223443223443, -3.103785103785104, -0.21875, 0.0, -2.03125, 1.0
717, -1.9548229548229548, 0.5177045177045178, -2.807081807081807, -0.5, -0.09375, -1.9375, 1.0
718, -2.7045177045177047, 0.4249084249084249, -2.7753357753357752, -0.5625, -0.125, -1.875, 1.0
719, -2.3272283272283274, 0.018315018315018316, -2.543345543345543, -0.53125, 0.09375, -1.71875, 1.0
720, -1.9536019536019535, -0.5616605616605617, -2.4652014652014653, -0.625, 0.0, -1.5625, 1.0
721, -2.6227106227106227, -0.5555555555555556, -2.357753357753358, -0.84375, -0.15625, -1.40625, 1.0
722, -2.8864468864468864, -0.3516483516483517, -1.9023199023199022, -0.9375, -0.03125, -1.25, 1.0
723, -3.335775335775336, -0.25274725274725274, -1.5616605616605617, -1.03125, 0.0, -1.03125, 1.0
724, -3.7643467643467643, -0.31135531135531136, -1.291819291819292, -1.1875, 0.0, -0.75, 1.0
725, -3.8473748473748475, -0.2967032967032967, -0.4945054945054945, -1.3125, -0.0625, -0.46875, 1.0
726, -4.087912087912088, -0.12332112332112333, 0.21367521367521367, -1.34375, -0.03125, -0.1875, 1.0
727, -3.8473748473748475, -0.14896214896214896, 0.5421245421245421, -1.21875, -0.03125, 0.21875, 1.0
728, -3.6483516483516483, -0.9169719169719169, 0.05616605616605617, -1.0, -0.21875, 0.5, 1.0
729, -3.4835164835164836, -1.387057387057387, -0.07203907203907203, -0.90625, -0.125, 0.6875, 1.0
730, -3.2564102564102564, -1.547008547008547, 0.18192918192918192, -0.8125, 0.09375, 0.84375, 1.0
731, -2.7045177045177047, -1.6898656898656899, 0.6105006105006106, -0.78125, 0.21875, 1.03125, 1.0
732, -1.4444444444444444, -2.288156288156288, 1.0146520146520146, -0.90625, -0.15625, 1.15625, 1.0
733, -1.6947496947496947, -1.884004884004884, 1.5018315018315018, -0.875, -0.40625, 1.21875, 1.0
734, -1.9841269841269842, -1.7912087912087913, 1.6324786324786325, -0.59375, -0.21875, 1.3125, 1.0
735, -0.9536019536019537, -2.735042735042735, 1.2454212454212454, -0.34375, -0.125, 1.34375, 1.0
736, -0.3321123321123321, -3.2283272283272284, 0.9548229548229549, -0.3125, -0.125, 1.34375, 1.0
737, 0.10500610500610501, -3.4554334554334556, 0.6532356532356532, -0.34375, -0.125, 1.34375, 1.0
738, 0.001221001221001221, -2.862026862026862, 0.8302808302808303, -0.3125, 0.0, 1.34375, 1.0
739, 0.37606837606837606, -2.3174603174603177, 1.4676434676434675, -0.09375, 0.15625, 1.3125, 1.0
740, 2.2014652014652016, -3.1526251526251525, 1.105006105006105, -0.21875, -0.21875, 1.28125, 1.0
741, 1.873015873015873, -2.5335775335775335, 0.57997557997558, -0.28125, -0.5, 1.1875, 1.0
742, 1.4822954822954824, -1.8510378510378511, 0.2869352869352869, -0.09375, -0.1875, 1.125, 1.0
743, 2.2747252747252746, -1.5152625152625152, 0.4603174603174603, 0.0, 0.0, 1.03125, 1.0
744, 2.6910866910866913, -1.1465201465201464, 0.8485958485958486, 0.03125, -0.03125, 0.9375, 1.0
745, 2.8693528693528694, -1.1086691086691087, 0.7753357753357754, 0.0625, -0.0625, 0.8125, 1.0
746, 3.2246642246642248, -1.4236874236874237, 0.3711843711843712, -0.03125, -0.1875, 0.65625, 1.0
747, 2.929181929181929, -1.1697191697191698, 0.221001221001221, -0.03125, -0.1875, 0.53125, 1.0
748, 2.716727716727717, -0.8705738705738706, 0.4700854700854701, 0.0, -0.0625, 0.40625, 1.0
749, 2.230769230769231, -0.5567765567765568, 0.4822954822954823, 0.0, 0.0, 0.25, 0.0
750, 1.4810744810744811, -0.5213675213675214, 0.0695970695970696, -0.0625, 0.03125, 0.21875, 0.0
751, 1.221001221001221, -1.253968253968254, -0.7728937728937729, -0.46875, 0.03125, 0.15625, 0.0
752, 0.9328449328449329, -0.9413919413919414, -0.7814407814407814, -0.28125, 0.03125, 0.15625, 0.0
753, 0.4810744810744811, -0.3882783882783883, -0.3321123321123321, 0.09375, 0.09375, 0.125, 0.0
754, 0.5225885225885226, -0.6471306471306472, -0.4517704517704518, 0.0625, 0.15625, 0.0625, 0.0
755, 0.47496947496947495, -0.5836385836385837, -0.4078144078144078, 0.0, 0.1875, 0.0, 0.0
756, 0.09035409035409035, -0.32112332112332115, -0.46153846153846156, -0.03125, 0.0625, 0.0, 0.0
757, -0.14652014652014653, -0.07326007326007326, -0.3235653235653236, -0.0625, 0.03125, -0.03125, 0.0
758, -0.09401709401709402, -0.06227106227106227, -0.14163614163614163, -0.03125, 0.09375, -0.0625, 0.0
759, -0.18681318681318682, -0.15506715506715507, -0.22466422466422467, -0.0625, 0.125, -0.09375, 0.0
760, -0.1746031746031746, 0.0, -0.1684981684981685, -0.125, 0.125, -0.09375, 0.0
761, -0.09523809523809523, -0.03785103785103785, -0.11233211233211234, -0.0625, 0.03125, -0.0625, 0.0
762, -0.13553113553113552, -0.03907203907203907, -0.05372405372405373, 0.0, 0.03125, -0.0625, 0.0
763, -0.11477411477411477, -0.019536019536019536, -0.1452991452991453, 0.0, 0.0625, -0.09375, 0.0
764, -0.0463980463980464, -0.020757020757020756, -0.2271062271062271, -0.09375, 0.0625, -0.0625, 0.0
765, 0.03296703296703297, -0.05860805860805861, -0.20024420024420025, -0.15625, 0.03125, -0.03125, 0.0
766, -0.017094017094017096, 0.003663003663003663, -0.018315018315018316, -0.125, 0.0, 0.0, 0.0
767, 0.030525030525030524, -0.09645909645909646, -0.050061050061050064, 0.0, 0.0, 0.0, 0.0
768, -0.040293040293040296, -0.15018315018315018, -0.2222222222222222, -0.03125, 0.0, -0.03125, 0.0
769, -0.030525030525030524, -0.07326007326007326, -0.20757020757020758, -0.125, 0.03125, -0.03125, 0.0
770, -0.020757020757020756, 0.05128205128205128, 0.09523809523809523, -0.125, 0.0625, 0.0, 0.0
771, 0.08424908424908426, -0.08424908424908426, 0.1343101343101343, -0.03125, 0.0625, 0.0, 0.0
772, 0.06227106227106227, -0.12087912087912088, -0.007326007326007326, -0.0625, 0.0, 0.0, 0.0
773, 0.0, -0.05372405372405373, 0.04395604395604396, -0.125, -0.03125, 0.0, 0.0
774, 0.018315018315018316, -0.02442002442002442, 0.18437118437118438, -0.09375, 0.0, 0.0, 0.0
775, 0.05982905982905983, -0.09523809523809523, -0.1330891330891331, -0.0625, 0.0, 0.0, 0.0
776, 0.013431013431013432, -0.06471306471306472, -0.45054945054945056, -0.09375, 0.0, 0.0, 0.0
777, -0.057387057387057384, -0.040293040293040296, -0.5103785103785103, -0.09375, 0.03125, 0.0, 0.0
778, 0.05372405372405373, -0.03663003663003663, -0.4358974358974359, -0.125, 0.0625, 0.0, 0.0
779, 0.04151404151404151, 0.015873015873015872, -0.18681318681318682, -0.125, 0.09375, 0.0, 0.0
780, -0.0927960927960928, 0.1514041514041514, 0.01098901098901099, -0.0625, 0.09375, 0.0, 0.0
781, -0.11721611721611722, 0.0757020757020757, 0.11233211233211234, 0.0, 0.09375, 0.03125, 0.0
782, 0.07081807081807082, -0.10622710622710622, 0.07326007326007326, -0.0625, 0.0625, 0.03125, 0.0
783, 0.13797313797313798, -0.27106227106227104, 0.03785103785103785, -0.1875, 0.0, 0.0, 0.0
784, -0.018315018315018316, -0.05616605616605617, 0.10866910866910867, -0.15625, 0.0, 0.0, 0.0
785, -0.006105006105006105, -0.01221001221001221, 0.1391941391941392, -0.0625, 0.0, 0.0, 0.0
786, 0.001221001221001221, -0.05982905982905983, -0.003663003663003663, -0.03125, -0.03125, 0.0, 0.0
787, 0.02442002442002442, -0.14896214896214896, -0.1111111111111111, -0.0625, -0.03125, 0.0, 0.0
788, 0.05616605616605617, -0.08058608058608059, -0.1807081807081807, -0.09375, -0.03125, 0.0, 0.0
789, -0.006105006105006105, -0.030525030525030524, -0.2612942612942613, -0.0625, 0.0, 0.0, 0.0
790, 0.06227106227106227, -0.01098901098901099, -0.1221001221001221, -0.03125, 0.0, 0.0, 0.0
791, 0.09401709401709402, -0.10134310134310134, -0.15873015873015872, -0.0625, 0.0, 0.0, 0.0
792, 0.09645909645909646, -0.05128205128205128, -0.1391941391941392, -0.09375, 0.0, 0.0, 0.0
793, -0.014652014652014652, 0.006105006105006105, -0.018315018315018316, -0.09375, 0.03125, -0.03125, 0.0
794, -0.08913308913308914, 0.07081807081807082, 0.11477411477411477, -0.09375, 0.03125, 0.0, 0.0
795, -0.03907203907203907, 0.0, 0.18803418803418803, -0.0625, 0.0, 0.0, 0.0
796, -0.026862026862026864, -0.031746031746031744, 0.07692307692307693, -0.03125, 0.0, 0.0, 0.0
797, -0.11233211233211234, -0.10256410256410256, -0.1221001221001221, 0.0, 0.0, -0.03125, 0.0
798, -0.15506715506715507, 0.015873015873015872, -0.21367521367521367, 0.0, 0.09375, -0.03125, 1.0
799, -0.020757020757020756, 0.03663003663003663, -0.028083028083028084, 0.0625, 0.125, 0.0, 1.0
800, -0.04395604395604396, -0.1684981684981685, -0.22466422466422467, 0.0, 0.09375, 0.0625, 1.0
801, -0.1221001221001221, 0.02197802197802198, -0.47985347985347987, -0.1875, 0.0, 0.0625, 1.0
802, -0.57997557997558, 0.15384615384615385, -0.27350427350427353, -0.15625, 0.0, 0.0625, 1.0
803, -0.652014652014652, -0.16117216117216118, -0.4603174603174603, -0.125, -0.03125, 0.125, 1.0
804, -1.0940170940170941, -0.0695970695970696, -0.6862026862026862, -0.34375, -0.03125, 0.21875, 1.0
805, -1.0818070818070817, 0.10744810744810745, -0.33577533577533575, -0.4375, 0.0, 0.28125, 1.0
806, -1.3003663003663004, 0.1111111111111111, -0.12454212454212454, -0.34375, 0.0, 0.34375, 1.0
807, -1.5274725274725274, -0.1391941391941392, -0.10866910866910867, -0.21875, 0.0, 0.4375, 1.0
808, -1.794871794871795, -0.6092796092796092, -0.42735042735042733, -0.1875, 0.03125, 0.5, 1.0
809, -1.7545787545787546, -0.9902319902319903, -0.6593406593406593, -0.25, 0.0625, 0.625, 1.0
810, -1.474969474969475, -1.4224664224664225, -0.6568986568986569, -0.34375, 0.0, 0.71875, 1.0
811, -1.7533577533577533, -1.1404151404151404, -0.07326007326007326, -0.40625, -0.15625, 0.8125, 1.0
812, -1.9206349206349207, -1.1282051282051282, 0.19413919413919414, -0.25, -0.0625, 0.875, 1.0
813, -1.431013431013431, -1.5702075702075702, 0.27472527472527475, -0.125, 0.03125, 0.9375, 1.0
814, -0.9865689865689866, -2.2393162393162394, -0.015873015873015872, -0.09375, -0.0625, 1.03125, 1.0
815, -0.5592185592185592, -2.9328449328449326, -0.03296703296703297, -0.34375, -0.3125, 1.03125, 1.0
816, -0.6813186813186813, -2.326007326007326, 0.8021978021978022, -0.4375, -0.3125, 1.0, 1.0
817, 0.23076923076923078, -2.0097680097680097, 1.783882783882784, -0.09375, -0.0625, 1.0, 1.0
818, 1.8327228327228327, -2.6385836385836385, 1.8131868131868132, 0.15625, -0.125, 1.0, 1.0
819, 2.8131868131868134, -3.076923076923077, 1.5006105006105006, 0.0625, -0.5, 0.9375, 1.0
820, 3.1575091575091574, -2.58974358974359, 1.4517704517704517, 0.0, -0.71875, 0.78125, 1.0
821, 3.681318681318681, -2.2527472527472527, 1.5677655677655677, 0.1875, -0.65625, 0.625, 1.0
822, 4.2796092796092795, -2.10989010989011, 1.4761904761904763, 0.53125, -0.53125, 0.40625, 1.0
823, 4.743589743589744, -2.1062271062271063, 1.105006105006105, 0.75, -0.5, 0.21875, 1.0
824, 5.00976800976801, -1.9658119658119657, 0.8974358974358975, 0.6875, -0.5625, 0.0, 1.0
825, 4.327228327228327, -1.061050061050061, 0.568986568986569, 0.78125, -0.59375, -0.28125, 1.0
826, 3.623931623931624, -0.37606837606837606, 0.10744810744810745, 0.9375, -0.3125, -0.40625, 1.0
827, 3.9255189255189253, -0.2844932844932845, -0.34798534798534797, 1.0, -0.21875, -0.53125, 1.0
828, 4.410256410256411, -0.536019536019536, -0.5677655677655677, 0.78125, -0.21875, -0.625, 1.0
829, 4.557997557997558, -0.29304029304029305, -0.2612942612942613, 0.53125, -0.125, -0.84375, 1.0
830, 4.9914529914529915, 0.20024420024420025, -0.21367521367521367, 0.375, -0.28125, -0.96875, 1.0
831, 6.128205128205129, -0.6947496947496947, -1.3614163614163615, -0.03125, -0.84375, -1.1875, 1.0
832, 3.9194139194139193, -0.047619047619047616, -1.5885225885225884, -0.21875, -0.71875, -1.5625, 1.0
833, 1.2295482295482296, 1.7094017094017093, -0.7936507936507936, 0.28125, 0.4375, -1.9375, 1.0
834, 1.4896214896214897, 1.894993894993895, -0.8046398046398047, 0.71875, 0.8125, -1.96875, 1.0
835, 1.2673992673992673, 1.4774114774114775, -1.8376068376068375, 0.53125, 0.21875, -2.0, 1.0
836, -0.49694749694749696, 2.0366300366300365, -2.5103785103785103, 0.46875, 0.375, -2.0, 1.0
837, -0.8302808302808303, 1.7216117216117217, -2.664224664224664, 0.46875, 0.875, -2.03125, 1.0
838, -0.5628815628815629, 1.750915750915751, -2.336996336996337, 0.3125, 0.9375, -2.03125, 1.0
839, 0.42246642246642246, 0.7655677655677655, -1.901098901098901, -0.125, 0.34375, -1.96875, 1.0
840, -1.188034188034188, 1.9584859584859584, -1.0793650793650793, -0.21875, 0.15625, -2.0, 1.0
841, -2.208791208791209, 1.9401709401709402, -1.9633699633699633, -0.09375, 0.3125, -1.78125, 1.0
842, -0.938949938949939, 0.5457875457875457, -2.6092796092796093, -0.46875, -0.21875, -1.625, 1.0
843, -1.9584859584859584, 0.49694749694749696, -2.5604395604395602, -0.625, -0.21875, -1.53125, 1.0
844, -2.641025641025641, 0.8095238095238095, -2.1086691086691087, -0.46875, 0.28125, -1.34375, 1.0
845, -0.8901098901098901, -0.5445665445665445, -1.5970695970695972, -0.875, -0.125, -1.125, 1.0
846, -2.440781440781441, 0.1794871794871795, -0.9218559218559218, -1.0625, -0.5625, -0.9375, 1.0
847, -4.920634920634921, 0.8424908424908425, -1.1697191697191698, -0.5, 0.09375, -0.65625, 1.0
848, -3.896214896214896, -0.8608058608058609, -1.6141636141636142, -0.46875, 0.5, -0.28125, 1.0
849, -1.982905982905983, -2.2783882783882783, -1.4114774114774116, -1.21875, -0.1875, 0.0, 1.0
850, -3.9511599511599513, -0.5726495726495726, -0.08669108669108669, -0.84375, 0.03125, 0.34375, 1.0
851, -2.711843711843712, -3.148962148962149, -0.5042735042735043, -0.5, 0.5, 0.625, 1.0
852, -2.139194139194139, -3.3345543345543347, 0.1111111111111111, -0.96875, -0.0625, 0.78125, 1.0
853, -3.3882783882783882, -2.1062271062271063, 0.9816849816849816, -1.125, -0.28125, 0.8125, 1.0
854, -2.5653235653235655, -2.8058608058608057, 0.9474969474969475, -0.75, 0.09375, 0.9375, 1.0
855, -1.5763125763125763, -3.78021978021978, 0.7411477411477412, -0.5625, -0.125, 1.0625, 1.0
856, -1.7887667887667889, -3.4664224664224665, 0.5763125763125763, -0.625, -0.40625, 1.09375, 1.0
857, -2.1941391941391943, -2.7020757020757022, 0.6361416361416361, -0.5, -0.15625, 1.09375, 1.0
858, -1.5995115995115996, -2.73992673992674, 0.6666666666666666, -0.3125, 0.09375, 1.25, 1.0
859, -0.6923076923076923, -3.304029304029304, 0.5592185592185592, -0.34375, 0.0, 1.375, 1.0
860, -0.21733821733821734, -4.087912087912088, -0.02564102564102564, -0.375, -0.25, 1.4375, 1.0
861, 0.5274725274725275, -4.037851037851038, -0.17094017094017094, -0.375, -0.21875, 1.4375, 1.0
862, 0.9401709401709402, -3.2466422466422467, 0.4065934065934066, -0.21875, 0.0, 1.3125, 1.0
863, 1.3418803418803418, -2.9450549450549453, 0.8192918192918193, -0.125, 0.125, 1.21875, 1.0
864, 1.9902319902319903, -3.0317460317460316, 0.8559218559218559, -0.25, 0.03125, 1.1875, 1.0
865, 1.844932844932845, -2.092796092796093, 1.236874236874237, -0.40625, -0.1875, 1.09375, 1.0
866, 1.5091575091575091, -1.352869352869353, 1.2942612942612943, -0.125, -0.09375, 1.03125, 1.0
867, 2.365079365079365, -1.5494505494505495, 1.028083028083028, 0.0625, 0.03125, 0.90625, 1.0
868, 2.6996336996337, -1.2442002442002442, 1.1135531135531136, 0.03125, -0.03125, 0.84375, 1.0
869, 2.3846153846153846, -0.7484737484737485, 0.9328449328449329, 0.0, -0.09375, 0.71875, 1.0
870, 2.625152625152625, -0.7667887667887668, 0.7045177045177046, 0.0625, -0.0625, 0.625, 1.0
871, 2.52014652014652, -0.7948717948717948, 0.5262515262515263, 0.1875, -0.125, 0.5, 1.0
872, 2.0134310134310134, -0.8791208791208791, -0.08180708180708181, 0.25, -0.125, 0.40625, 1.0
873, 1.7374847374847375, -0.7728937728937729, -0.47863247863247865, 0.1875, 0.0, 0.3125, 1.0
874, 1.5836385836385836, -0.7936507936507936, -0.7619047619047619, 0.0, 0.03125, 0.25, 1.0
875, 1.0268620268620268, -0.6971916971916972, -0.938949938949939, -0.125, 0.09375, 0.1875, 0.0
876, 0.6605616605616605, -1.0073260073260073, -1.2185592185592184, -0.375, 0.3125, 0.15625, 0.0
877, 0.46764346764346765, -0.4188034188034188, -0.8644688644688645, -0.375, 0.3125, 0.125, 0.0
878, 0.28205128205128205, -0.10256410256410256, -0.05128205128205128, -0.15625, 0.25, 0.0625, 0.0
879, 0.14041514041514042, -0.36507936507936506, -0.11965811965811966, 0.0, 0.15625, 0.0, 0.0
880, 0.05982905982905983, -0.6275946275946276, -0.46642246642246643, -0.125, 0.09375, 0.0, 0.0
881, -0.20146520146520147, -0.41025641025641024, -0.442002442002442, -0.1875, 0.09375, -0.0625, 0.0
882, -0.2490842490842491, -0.3247863247863248, -0.3308913308913309, -0.15625, 0.15625, -0.0625, 0.0
883, -0.2490842490842491, -0.15018315018315018, -0.13797313797313798, -0.125, 0.125, -0.09375, 0.0
884, -0.4297924297924298, 0.11477411477411477, 0.09523809523809523, -0.03125, 0.0625, -0.0625, 0.0
885, -0.4175824175824176, -0.09645909645909646, 0.017094017094017096, -0.03125, 0.03125, -0.0625, 0.0
886, -0.19536019536019536, -0.32967032967032966, -0.07203907203907203, -0.1875, 0.0, -0.0625, 0.0
887, -0.2600732600732601, -0.16483516483516483, 0.07326007326007326, -0.15625, 0.0, -0.0625, 0.0
888, -0.2612942612942613, -0.08180708180708181, 0.03418803418803419, -0.03125, 0.0, -0.0625, 0.0
889, -0.2954822954822955, -0.028083028083028084, -0.02197802197802198, 0.0, -0.03125, -0.03125, 0.0
890, -0.4139194139194139, -0.10256410256410256, -0.22832722832722832, -0.03125, 0.0, 0.0, 0.0
891, -0.221001221001221, 0.0231990231990232, -0.03540903540903541, -0.03125, 0.0625, 0.0, 0.0
892, 0.02442002442002442, -0.3199023199023199, -0.25274725274725274, -0.09375, 0.0625, 0.03125, 0.0
893, 0.17704517704517705, -0.23809523809523808, -0.14041514041514042, -0.125, 0.0, 0.0, 0.0
894, -0.007326007326007326, -0.13797313797313798, -0.07081807081807082, -0.09375, 0.0, 0.0, 0.0
895, 0.12698412698412698, -0.13797313797313798, 0.028083028083028084, -0.03125, 0.03125, 0.0, 0.0
896, 0.12454212454212454, -0.12454212454212454, -0.018315018315018316, -0.0625, 0.03125, 0.0, 0.0
897, -0.21123321123321123, 0.15018315018315018, -0.04151404151404151, -0.09375, 0.03125, 0.0, 0.0
898, -0.03418803418803419, -0.04151404151404151, -0.09401709401709402, -0.09375, 0.0, 0.0, 0.0
899, 0.05128205128205128, -0.04884004884004884, -0.16361416361416362, -0.0625, -0.03125, 0.0, 0.0
900, 0.029304029304029304, -0.12087912087912088, -0.3443223443223443, -0.03125, 0.09375, 0.0, 0.0
901, 0.01221001221001221, -0.05128205128205128, -0.37362637362637363, -0.09375, 0.09375, 0.0, 0.0
902, 0.009768009768009768, -0.013431013431013432, -0.16605616605616605, -0.15625, 0.03125, 0.0, 0.0
903, -0.03785103785103785, 0.01098901098901099, -0.042735042735042736, -0.125, 0.0, 0.0, 0.0
904, 0.018315018315018316, -0.09035409035409035, -0.10378510378510379, -0.0625, 0.0625, 0.0, 0.0
905, 0.13186813186813187, -0.34065934065934067, -0.27472527472527475, -0.09375, 0.0, 0.0, 0.0
906, -0.02564102564102564, -0.10744810744810745, -0.21001221001221002, -0.1875, 0.0, 0.0, 0.0
907, 0.008547008547008548, -0.019536019536019536, 0.007326007326007326, -0.125, 0.09375, 0.0, 0.0
908, 0.06227106227106227, 0.026862026862026864, 0.15384615384615385, -0.09375, 0.09375, 0.0, 0.0
909, 0.014652014652014652, -0.11355311355311355, 0.004884004884004884, -0.0625, 0.0, 0.0, 0.0
910, -0.09157509157509157, 0.028083028083028084, 0.06227106227106227, -0.125, 0.0, 0.0, 0.0
911, -0.11721611721611722, 0.06715506715506715, 0.25396825396825395, -0.09375, 0.0, 0.0, 0.0
912, -0.06227106227106227, -0.05860805860805861, 0.14896214896214896, -0.0625, 0.03125, 0.0, 0.0
913, 0.026862026862026864, -0.16727716727716727, -0.0463980463980464, -0.125, 0.0, 0.0, 0.0
914, -0.1575091575091575, -0.002442002442002442, -0.017094017094017096, -0.09375, -0.03125, 0.0, 0.0
915, -0.008547008547008548, 0.01098901098901099, 0.020757020757020756, -0.03125, 0.03125, 0.0, 0.0
916, 0.03540903540903541, -0.052503052503052504, -0.06349206349206349, 0.0, 0.09375, 0.0, 1.0
917, 0.009768009768009768, 0.22466422466422467, 0.07936507936507936, 0.03125, 0.03125, 0.0, 1.0
918, 0.02197802197802198, -0.1623931623931624, 0.1221001221001221, 0.25, -0.09375, 0.0, 1.0
919, -0.31013431013431014, -0.4884004884004884, -0.5592185592185592, 0.1875, 0.0, 0.0, 1.0
920, -0.2271062271062271, -0.645909645909646, -0.9536019536019537, -0.15625, 0.25, 0.0, 1.0
921, -0.3882783882783883, -0.3064713064713065, -0.9010989010989011, -0.71875, 0.28125, 0.0, 1.0
922, -0.9658119658119658, 0.8693528693528694, -0.12332112332112333, -0.84375, 0.09375, 0.03125, 1.0
923, -1.4871794871794872, 0.7374847374847375, -0.1855921855921856, -0.09375, 0.0, 0.25, 1.0
924, -1.7008547008547008, -0.23687423687423687, -0.9829059829059829, -0.15625, 0.0625, 0.375, 1.0
925, -1.667887667887668, -0.38705738705738707, -0.9877899877899878, -0.3125, 0.03125, 0.4375, 1.0
926, -1.7765567765567765, -0.3199023199023199, -0.6886446886446886, -0.34375, 0.03125, 0.53125, 1.0
927, -1.8424908424908424, -0.45787545787545786, -0.42857142857142855, -0.34375, 0.0, 0.65625, 1.0
928, -1.7472527472527473, -0.9365079365079365, -0.3064713064713065, -0.34375, 0.0, 0.71875, 1.0
929, -1.4505494505494505, -1.448107448107448, -0.23443223443223443, -0.375, -0.03125, 0.78125, 1.0
930, -1.1306471306471306, -1.667887667887668, 0.06227106227106227, -0.34375, -0.0625, 0.8125, 1.0
931, -0.6141636141636142, -1.7045177045177045, 0.6556776556776557, -0.25, -0.125, 0.8125, 1.0
932, -0.17216117216117216, -1.8131868131868132, 1.15018315018315, -0.125, -0.21875, 0.8125, 1.0
933, 0.2612942612942613, -2.2393162393162394, 1.2820512820512822, -0.125, -0.3125, 0.78125, 1.0
934, 0.9023199023199023, -2.452991452991453, 1.3833943833943834, -0.125, -0.40625, 0.6875, 1.0
935, 1.4737484737484738, -2.501831501831502, 1.435897435897436, 0.0, -0.5, 0.5625, 1.0
936, 1.7094017094017093, -2.249084249084249, 1.4578754578754578, 0.25, -0.46875, 0.5, 1.0
937, 2.427350427350427, -2.4004884004884004, 1.2124542124542124, 0.40625, -0.5, 0.34375, 1.0
938, 3.083028083028083, -2.7643467643467643, 0.5836385836385837, 0.375, -0.53125, 0.15625, 1.0
939, 3.357753357753358, -2.173382173382173, 0.746031746031746, 0.4375, -0.4375, 0.0, 1.0
940, 3.4774114774114775, -1.5445665445665446, 0.9047619047619048, 0.5625, -0.28125, -0.1875, 1.0
941, 3.5347985347985347, -0.6568986568986569, 1.2075702075702075, 0.71875, -0.25, -0.34375, 1.0
942, 3.371184371184371, -0.23931623931623933, 1.1343101343101343, 0.8125, -0.375, -0.46875, 1.0
943, 2.590964590964591, 0.6275946275946276, 0.9401709401709402, 0.9375, -0.25, -0.59375, 1.0
944, 2.3724053724053724, 1.105006105006105, 0.8070818070818071, 1.09375, -0.03125, -0.65625, 1.0
945, 2.9816849816849818, 1.0134310134310134, 0.518925518925519, 1.1875, 0.0, -0.71875, 1.0
946, 3.2124542124542126, 1.0256410256410255, 0.04151404151404151, 1.125, -0.03125, -0.90625, 1.0
947, 2.8290598290598292, 1.4578754578754578, -0.41147741147741146, 1.15625, 0.09375, -1.0625, 1.0
948, 3.42002442002442, 1.2722832722832722, -0.8290598290598291, 1.125, 0.0625, -1.28125, 1.0
949, 3.347985347985348, 0.6202686202686203, -1.6043956043956045, 1.09375, 0.0, -1.53125, 1.0
950, 2.4114774114774113, 0.4652014652014652, -2.7496947496947497, 0.96875, 0.03125, -1.75, 1.0
951, 1.6031746031746033, 0.63003663003663, -3.0976800976800978, 0.5625, 0.125, -1.875, 1.0
952, 0.6556776556776557, 1.4737484737484738, -2.7875457875457874, 0.28125, 0.21875, -1.96875, 1.0
953, -0.028083028083028084, 1.5384615384615385, -2.8290598290598292, 0.28125, 0.28125, -1.96875, 1.0
954, -0.5592185592185592, 1.2612942612942613, -3.083028083028083, 0.25, 0.25, -1.96875, 1.0
955, -1.0561660561660562, 1.0415140415140416, -3.05006105006105, 0.0, 0.21875, -1.90625, 1.0
956, -1.8376068376068375, 1.4017094017094016, -2.711843711843712, -0.34375, 0.3125, -1.84375, 1.0
957, -2.2075702075702077, 1.6593406593406594, -2.1965811965811968, -0.5, 0.34375, -1.6875, 1.0
958, -1.9267399267399268, 0.7142857142857143, -2.318681318681319, -0.53125, 0.21875, -1.46875, 1.0
959, -1.5604395604395604, -1.1233211233211233, -3.2637362637362637, -0.65625, 0.0625, -1.28125, 1.0
960, -2.1257631257631258, -1.380952380952381, -3.645909645909646, -0.96875, 0.125, -1.1875, 1.0
961, -2.028083028083028, -1.0793650793650793, -2.8705738705738706, -1.125, 0.34375, -1.03125, 1.0
962, -2.1892551892551895, -0.8901098901098901, -1.8656898656898657, -1.15625, 0.40625, -0.90625, 1.0
963, -3.311355311355311, -0.12454212454212454, -0.36385836385836384, -1.21875, 0.375, -0.75, 1.0
964, -3.4297924297924296, -0.17704517704517705, 0.4590964590964591, -1.1875, 0.1875, -0.4375, 1.0
965, -3.7985347985347984, -0.9401709401709402, 0.3516483516483517, -1.09375, -0.21875, -0.1875, 1.0
966, -4.04029304029304, -1.5836385836385836, -0.221001221001221, -1.0625, -0.25, -0.03125, 1.0
967, -3.724053724053724, -1.4102564102564104, 0.34065934065934067, -0.9375, -0.03125, 0.125, 1.0
968, -3.31013431013431, -1.133089133089133, 1.1367521367521367, -0.78125, 0.03125, 0.3125, 1.0
969, -2.8742368742368742, -1.4090354090354091, 1.271062271062271, -0.875, -0.25, 0.5625, 1.0
970, -3.3846153846153846, -1.9413919413919414, 0.47741147741147744, -0.96875, -0.65625, 0.75, 1.0
971, -3.2466422466422467, -2.2173382173382175, 0.1575091575091575, -0.84375, -0.46875, 0.9375, 1.0
972, -2.641025641025641, -2.0134310134310134, 0.7948717948717948, -0.625, -0.125, 1.1875, 1.0
973, -1.452991452991453, -2.3846153846153846, 1.2503052503052503, -0.59375, -0.375, 1.28125, 1.0
974, -1.170940170940171, -3.092796092796093, 0.6105006105006106, -0.53125, -0.59375, 1.40625, 1.0
975, -1.6349206349206349, -3.2673992673992673, 0.14407814407814407, -0.46875, -0.40625, 1.53125, 1.0
976, -1.2808302808302807, -3.177045177045177, 0.6483516483516484, -0.375, -0.125, 1.53125, 1.0
977, -0.14407814407814407, -3.6373626373626373, 0.9242979242979243, -0.375, -0.125, 1.59375, 1.0
978, 1.0671550671550671, -4.207570207570208, 0.7289377289377289, -0.46875, -0.40625, 1.53125, 1.0
979, 0.6654456654456654, -3.6117216117216118, 0.46886446886446886, -0.28125, -0.28125, 1.5, 1.0
980, 0.5091575091575091, -2.943833943833944, 0.6593406593406593, -0.0625, 0.125, 1.46875, 1.0
981, 1.807081807081807, -3.133089133089133, 1.188034188034188, -0.125, 0.0625, 1.40625, 1.0
982, 1.7973137973137974, -2.6984126984126986, 1.5238095238095237, -0.1875, -0.1875, 1.28125, 1.0
983, 1.192918192918193, -1.8595848595848596, 1.4395604395604396, 0.03125, -0.0625, 1.21875, 1.0
984, 2.2393162393162394, -2.1794871794871793, 0.9133089133089133, 0.125, -0.09375, 1.125, 1.0
985, 2.5604395604395602, -1.9609279609279608, 0.6227106227106227, 0.125, -0.1875, 0.96875, 1.0
986, 2.4945054945054945, -1.4603174603174602, 0.4456654456654457, 0.21875, -0.0625, 0.8125, 1.0
987, 2.5995115995115996, -1.054945054945055, 0.2564102564102564, 0.1875, 0.0, 0.65625, 1.0
988, 2.6336996336996337, -0.6788766788766789, 0.27350427350427353, 0.1875, -0.09375, 0.59375, 1.0
989, 2.547008547008547, -0.7155067155067155, 0.026862026862026864, 0.21875, -0.1875, 0.46875, 1.0
990, 2.2576312576312576, -0.7203907203907204, -0.398046398046398, 0.21875, -0.09375, 0.34375, 1.0
991, 1.7496947496947497, -0.4713064713064713, -0.78998778998779, 0.1875, 0.03125, 0.28125, 0.0
992, 1.540903540903541, -0.7118437118437119, -1.0671550671550671, 0.0, 0.09375, 0.21875, 0.0
993, 1.3015873015873016, -0.8107448107448108, -1.021978021978022, -0.28125, 0.125, 0.1875, 0.0
994, 1.122100122100122, -0.5115995115995116, -0.7619047619047619, -0.28125, 0.09375, 0.09375, 0.0
995, 0.6947496947496947, -0.4078144078144078, -0.63003663003663, -0.25, 0.125, 0.0, 0.0
996, 0.2564102564102564, -0.25274725274725274, -0.6031746031746031, -0.15625, 0.125, 0.0, 0.0
997, -0.002442002442002442, -0.3711843711843712, -0.5482295482295483, -0.15625, 0.1875, -0.03125, 0.0
998, -0.10989010989010989, -0.3492063492063492, -0.6251526251526252, -0.15625, 0.125, -0.03125, 0.0
999, -0.48473748473748474, -0.2673992673992674, -0.800976800976801, -0.15625, 0.0625, -0.03125, 0.0
1000, -0.4822954822954823, -0.047619047619047616, -0.47863247863247865, -0.125, 0.09375, -0.03125, 0.0
1001, -0.21855921855921856, -0.24297924297924298, -0.23076923076923078, -0.03125, 0.15625, -0.03125, 0.0
1002, -0.2783882783882784, -0.19536019536019536, -0.22466422466422467, -0.125, 0.125, -0.0625, 0.0
1003, -0.3601953601953602, -0.1452991452991453, -0.12698412698412698, -0.15625, 0.0625, -0.0625, 0.0
1004, -0.5201465201465202, 0.040293040293040296, 0.07814407814407814, -0.15625, 0.03125, -0.0625, 0.0
1005, -0.33455433455433453, 0.05128205128205128, 0.32112332112332115, -0.0625, 0.03125, -0.03125, 0.0
1006, -0.2490842490842491, -0.09401709401709402, 0.12332112332112333, 0.0, 0.03125, 0.0, 0.0
1007, -0.057387057387057384, -0.15873015873015872, -0.03785103785103785, -0.03125, 0.0, 0.0, 0.0
1008, -0.02564102564102564, -0.21733821733821734, -0.02564102564102564, -0.09375, 0.0, 0.0, 0.0
1009, -0.003663003663003663, -0.14407814407814407, 0.08180708180708181, -0.125, 0.0, 0.0, 0.0
1010, 0.11477411477411477, -0.13675213675213677, 0.19047619047619047, -0.09375, 0.03125, 0.0, 0.0
1011, 0.10500610500610501, -0.15384615384615385, -0.01098901098901099, -0.03125, 0.0, 0.0, 0.0
1012, -0.10134310134310134, -0.15018315018315018, -0.3247863247863248, -0.0625, -0.0625, 0.0, 0.0
1013, -0.07203907203907203, -0.1330891330891331, -0.2893772893772894, -0.0625, 0.0, 0.0, 0.0
1014, 0.08058608058608059, -0.11477411477411477, -0.2783882783882784, -0.0625, 0.09375, 0.0, 0.0
1015, 0.08058608058608059, 0.002442002442002442, -0.13186813186813187, -0.0625, 0.0625, 0.0, 0.0
1016, -0.013431013431013432, -0.013431013431013432, -0.28083028083028083, -0.0625, 0.0, 0.0, 0.0
1017, -0.042735042735042736, 0.07326007326007326, -0.10012210012210013, -0.09375, 0.03125, 0.0, 0.0
1018, -0.002442002442002442, -0.006105006105006105, 0.13553113553113552, -0.0625, 0.0625, 0.0, 0.0
1019, -0.052503052503052504, -0.045177045177045176, 0.042735042735042736, -0.09375, 0.03125, 0.0, 0.0
1020, -0.009768009768009768, -0.05616605616605617, -0.0989010989010989, -0.15625, 0.0, -0.03125, 0.0
1021, -0.08791208791208792, -0.14896214896214896, -0.2771672771672772, -0.09375, 0.0, 0.0, 0.0
1022, -0.02442002442002442, -0.13186813186813187, -0.3137973137973138, -0.09375, 0.03125, 0.0, 0.0
1023, -0.013431013431013432, -0.006105006105006105, -0.21245421245421245, -0.09375, 0.09375, 0.0, 0.0
1024, -0.05128205128205128, -0.03418803418803419, -0.17826617826617827, -0.15625, 0.0625, 0.0, 0.0
1025, -0.05860805860805861, 0.02564102564102564, 0.03907203907203907, -0.15625, 0.0625, 0.03125, 0.0
1026, -0.02564102564102564, -0.03418803418803419, 0.17216117216117216, -0.125, 0.09375, 0.03125, 0.0
1027, 0.10012210012210013, -0.09401709401709402, 0.2893772893772894, -0.125, 0.0625, 0.03125, 0.0
1028, 0.07081807081807082, -0.10256410256410256, 0.28205128205128205, -0.125, 0.0, 0.03125, 0.0
1029, 0.007326007326007326, -0.1111111111111111, 0.1330891330891331, -0.125, 0.0, 0.0, 0.0
1030, -0.05616605616605617, -0.009768009768009768, 0.01098901098901099, -0.09375, 0.03125, 0.0, 0.0
1031, -0.008547008547008548, 0.03540903540903541, 0.18437118437118438, -0.03125, 0.0, 0.03125, 0.0
1032, 0.10866910866910867, -0.18437118437118438, -0.02564102564102564, 0.0, 0.0, 0.03125, 0.0
1033, 0.23565323565323565, -0.3663003663003663, -0.17826617826617827, -0.03125, 0.0, 0.0, 0.0
1034, 0.2490842490842491, -0.27106227106227104, -0.17582417582417584, 0.0, 0.0, 0.0, 0.0
1035, 0.16483516483516483, -0.33577533577533575, -0.2698412698412698, 0.0, 0.03125, -0.03125, 0.0
1036, 0.23565323565323565, -0.3626373626373626, -0.34798534798534797, -0.0625, 0.09375, -0.0625, 0.0
1037, 0.05616605616605617, -0.10378510378510379, -0.23809523809523808, -0.125, 0.09375, -0.09375, 0.0
1038, 0.009768009768009768, 0.1575091575091575, -0.031746031746031744, -0.09375, 0.03125, -0.09375, 0.0
1039, -0.13675213675213677, 0.18315018315018314, 0.11233211233211234, -0.0625, 0.0, -0.09375, 0.0
1040, -0.33577533577533575, 0.2612942612942613, 0.16971916971916973, 0.0, 0.0, -0.0625, 0.0
1041, -0.4236874236874237, 0.24786324786324787, 0.12942612942612944, 0.03125, 0.0, -0.03125, 0.0
1042, -0.18681318681318682, 0.06105006105006105, -0.015873015873015872, 0.0625, 0.0, -0.03125, 1.0
1043, -0.0463980463980464, -0.030525030525030524, -0.11477411477411477, 0.125, -0.03125, -0.0625, 1.0
1044, -0.2893772893772894, -0.1746031746031746, -0.3724053724053724, 0.0, 0.0, -0.0625, 1.0
1045, -0.18681318681318682, -0.4053724053724054, -0.5738705738705738, -0.375, 0.0625, 0.0, 1.0
1046, -0.3601953601953602, 0.0757020757020757, -0.3626373626373626, -0.5625, 0.125, 0.03125, 1.0
1047, -0.6483516483516484, 0.2588522588522589, -0.24053724053724054, -0.4375, 0.0625, 0.09375, 1.0
1048, -0.7423687423687424, 0.01221001221001221, -0.4188034188034188, -0.1875, 0.0, 0.1875, 1.0
1049, -1.1538461538461537, -0.19291819291819293, -0.9218559218559218, -0.15625, 0.0, 0.21875, 1.0
1050, -1.5152625152625152, -0.009768009768009768, -0.8571428571428571, -0.28125, 0.0, 0.34375, 1.0
1051, -1.8253968253968254, -0.14774114774114774, -0.724053724053724, -0.3125, -0.03125, 0.46875, 1.0
1052, -1.844932844932845, -0.37484737484737485, -0.6019536019536019, -0.3125, 0.0, 0.59375, 1.0
1053, -1.2857142857142858, -0.9438339438339438, -0.5995115995115995, -0.3125, 0.03125, 0.6875, 1.0
1054, -1.0732600732600732, -1.3443223443223444, -0.5567765567765568, -0.375, 0.0, 0.71875, 1.0
1055, -1.0537240537240538, -1.5433455433455434, -0.3492063492063492, -0.46875, 0.0, 0.78125, 1.0
1056, -0.9536019536019537, -1.3846153846153846, 0.2588522588522589, -0.4375, 0.03125, 0.8125, 1.0
1057, -0.7411477411477412, -1.6996336996336996, 0.42735042735042733, -0.34375, 0.0, 0.8125, 1.0
1058, -0.6190476190476191, -1.811965811965812, 0.5274725274725275, -0.34375, -0.09375, 0.84375, 1.0
1059, -0.4590964590964591, -1.7484737484737485, 0.7753357753357754, -0.34375, -0.125, 0.875, 1.0
1060, -0.047619047619047616, -1.9401709401709402, 0.9255189255189256, -0.3125, -0.15625, 0.875, 1.0
1061, 0.23443223443223443, -2.083028083028083, 0.8302808302808303, -0.1875, -0.21875, 0.90625, 1.0
1062, 0.7716727716727717, -2.128205128205128, 0.7741147741147741, -0.03125, -0.1875, 0.90625, 1.0
1063, 1.4261294261294262, -2.2673992673992673, 0.5885225885225885, 0.0625, -0.15625, 0.84375, 1.0
1064, 2.0537240537240535, -2.173382173382173, 0.5995115995115995, 0.0625, -0.15625, 0.75, 1.0
1065, 2.7252747252747254, -2.3015873015873014, 0.57997557997558, 0.0, -0.25, 0.65625, 1.0
1066, 2.95970695970696, -1.8693528693528694, 1.0415140415140416, 0.09375, -0.34375, 0.53125, 1.0
1067, 3.0903540903540905, -1.5213675213675213, 1.3443223443223444, 0.3125, -0.28125, 0.375, 1.0
1068, 3.376068376068376, -1.231990231990232, 1.684981684981685, 0.46875, -0.21875, 0.1875, 1.0
1069, 3.807081807081807, -0.8290598290598291, 2.045177045177045, 0.4375, -0.375, 0.0625, 1.0
1070, 4.0, -0.398046398046398, 2.1404151404151404, 0.59375, -0.71875, -0.1875, 1.0
1071, 3.051282051282051, 0.20146520146520147, 1.866910866910867, 0.9375, -0.65625, -0.375, 1.0
1072, 2.437118437118437, 0.4188034188034188, 1.249084249084249, 1.21875, -0.34375, -0.5, 1.0
1073, 2.6971916971916974, 0.14896214896214896, 0.5433455433455433, 1.25, -0.125, -0.625, 1.0
1074, 2.9914529914529915, 0.28815628815628813, -0.2222222222222222, 1.1875, -0.15625, -0.6875, 1.0
1075, 2.9474969474969477, 0.6019536019536019, -0.6605616605616605, 1.1875, -0.21875, -0.8125, 1.0
1076, 2.5665445665445668, 0.8608058608058609, -0.9438339438339438, 1.125, -0.03125, -0.96875, 1.0
1077, 2.669108669108669, 0.8888888888888888, -1.308913308913309, 1.03125, 0.1875, -1.0, 1.0
1078, 3.330891330891331, 0.8217338217338217, -1.5775335775335775, 0.84375, 0.3125, -1.125, 1.0
1079, 3.42002442002442, 0.8913308913308914, -1.4212454212454213, 0.6875, 0.375, -1.375, 1.0
1080, 2.7948717948717947, 1.3968253968253967, -1.0708180708180708, 0.78125, 0.625, -1.59375, 1.0
1081, 2.2905982905982905, 1.619047619047619, -1.6227106227106227, 0.875, 0.71875, -1.71875, 1.0
1082, 2.039072039072039, 1.10989010989011, -2.496947496947497, 0.59375, 0.375, -1.78125, 1.0
1083, 0.8205128205128205, 0.7057387057387058, -3.288156288156288, 0.28125, 0.1875, -1.875, 1.0
1084, -0.6263736263736264, 0.8266178266178266, -3.3882783882783882, 0.0, 0.34375, -1.9375, 1.0
1085, -1.7216117216117217, 1.304029304029304, -3.2063492063492065, -0.09375, 0.5, -1.875, 1.0
1086, -1.4517704517704517, 0.8547008547008547, -3.231990231990232, -0.40625, 0.3125, -1.6875, 1.0
1087, -1.5494505494505495, 0.608058608058608, -2.694749694749695, -0.71875, 0.15625, -1.5625, 1.0
1088, -1.5836385836385836, 0.10989010989010989, -1.9914529914529915, -0.6875, 0.28125, -1.53125, 1.0
1089, -0.38583638583638585, -0.7374847374847375, -1.4212454212454213, -0.71875, 0.125, -1.53125, 1.0
1090, -0.8412698412698413, -0.6007326007326007, -0.778998778998779, -0.8125, -0.03125, -1.53125, 1.0
1091, -2.051282051282051, -0.23443223443223443, -0.5506715506715507, -0.71875, -0.03125, -1.40625, 1.0
1092, -2.0976800976800978, -1.192918192918193, -1.431013431013431, -0.71875, -0.21875, -1.25, 1.0
1093, -2.330891330891331, -2.1587301587301586, -2.416361416361416, -0.875, -0.375, -1.125, 1.0
1094, -3.3162393162393164, -1.8742368742368742, -2.7643467643467643, -0.90625, -0.15625, -0.8125, 1.0
1095, -3.572649572649573, -0.4884004884004884, -1.2185592185592184, -0.9375, 0.21875, -0.46875, 1.0
1096, -3.8315018315018317, -0.20024420024420025, 0.052503052503052504, -1.21875, -0.15625, -0.1875, 1.0
1097, -4.781440781440781, -0.4004884004884005, 0.16117216117216118, -1.28125, -0.59375, 0.15625, 1.0
1098, -4.847374847374847, -1.0158730158730158, -0.4554334554334554, -1.0625, -0.40625, 0.40625, 1.0
1099, -3.5409035409035408, -1.7887667887667889, -0.2771672771672772, -0.875, -0.09375, 0.65625, 1.0
1100, -3.404151404151404, -1.4432234432234432, 0.5738705738705738, -0.8125, -0.09375, 0.84375, 1.0
1101, -2.3882783882783882, -2.3516483516483517, 0.5958485958485958, -0.78125, -0.25, 1.0625, 1.0
1102, -2.5042735042735043, -2.67032967032967, 0.41514041514041516, -0.875, -0.5625, 1.21875, 1.0
1103, -2.553113553113553, -2.4444444444444446, 0.7094017094017094, -0.78125, -0.34375, 1.3125, 1.0
1104, -2.249084249084249, -2.4285714285714284, 1.2747252747252746, -0.5625, 0.03125, 1.3125, 1.0
1105, -0.9658119658119658, -3.1404151404151404, 1.3797313797313797, -0.46875, 0.125, 1.40625, 1.0
1106, -0.800976800976801, -3.4542124542124544, 1.1843711843711844, -0.65625, -0.40625, 1.53125, 1.0
1107, -1.1782661782661783, -3.2918192918192917, 1.122100122100122, -0.5625, -0.5, 1.625, 1.0
1108, 0.06837606837606838, -3.9023199023199022, 1.0488400488400489, -0.21875, -0.125, 1.625, 1.0
1109, 0.7411477411477412, -4.0195360195360195, 0.8302808302808303, -0.03125, 0.0, 1.46875, 1.0
1110, 1.2380952380952381, -3.7484737484737485, 0.757020757020757, -0.09375, -0.125, 1.46875, 1.0
1111, 1.0647130647130647, -3.0305250305250304, 0.5848595848595849, -0.21875, -0.25, 1.4375, 1.0
1112, 1.6996336996336996, -2.7838827838827838, 0.43956043956043955, -0.15625, -0.0625, 1.375, 1.0
1113, 2.36996336996337, -2.2625152625152625, 0.6752136752136753, 0.0, -0.0625, 1.21875, 1.0
1114, 2.462759462759463, -1.6581196581196582, 0.7741147741147741, 0.03125, -0.125, 1.09375, 1.0
1115, 2.7142857142857144, -1.15995115995116, 0.9401709401709402, 0.0625, -0.15625, 1.0, 1.0
1116, 2.8937728937728937, -1.120879120879121, 0.9694749694749695, 0.09375, -0.15625, 0.875, 1.0
1117, 2.752136752136752, -1.089133089133089, 0.6532356532356532, 0.125, -0.125, 0.71875, 1.0
1118, 2.8974358974358974, -0.9413919413919414, 0.6495726495726496, 0.125, -0.0625, 0.59375, 1.0
1119, 2.7753357753357752, -0.6947496947496947, 0.5787545787545788, 0.09375, -0.1875, 0.375, 1.0
1120, 2.2344322344322345, -0.49206349206349204, 0.16483516483516483, 0.09375, -0.21875, 0.25, 1.0
1121, 1.592185592185592, -0.42246642246642246, -0.3772893772893773, 0.125, -0.125, 0.1875, 1.0
1122, 0.905982905982906, -0.44078144078144077, -0.9145299145299145, 0.125, 0.0, 0.125, 0.0
1123, 0.5555555555555556, -0.5347985347985348, -1.2673992673992673, -0.03125, 0.15625, 0.125, 0.0
1124, 0.6654456654456654, -0.612942612942613, -1.4285714285714286, -0.34375, 0.1875, 0.15625, 0.0
1125, 0.3894993894993895, -0.2258852258852259, -1.2112332112332111, -0.375, 0.1875, 0.09375, 0.0
1126, 0.3308913308913309, 0.0, -0.4175824175824176, 0.0, 0.15625, 0.03125, 0.0
1127, 0.1978021978021978, -0.452991452991453, -0.6715506715506715, 0.0, 0.1875, 0.0, 0.0
1128, -0.002442002442002442, -0.2844932844932845, -0.47985347985347987, -0.15625, 0.21875, -0.03125, 0.0
1129, -0.43833943833943834, -0.030525030525030524, -0.4053724053724054, -0.1875, 0.1875, 0.0, 0.0
1130, -0.115995115995116, -0.22832722832722832, -0.2503052503052503, -0.15625, 0.03125, 0.0, 0.0
1131, -0.11721611721611722, -0.20512820512820512, -0.11233211233211234, -0.09375, 0.0, -0.03125, 0.0
1132, -0.231990231990232, -0.16117216117216118, 0.002442002442002442, -0.03125, 0.0625, -0.09375, 0.0
1133, -0.11965811965811966, -0.20512820512820512, 0.03663003663003663, -0.15625, 0.0625, -0.125, 0.0
1134, -0.1282051282051282, -0.031746031746031744, 0.11721611721611722, -0.1875, -0.03125, -0.125, 0.0
1135, -0.5079365079365079, 0.20024420024420025, 0.10866910866910867, -0.0625, 0.0, -0.125, 0.0
1136, -0.2490842490842491, -0.029304029304029304, 0.01221001221001221, 0.0, 0.0, -0.09375, 0.0
1137, -0.01098901098901099, -0.17704517704517705, -0.07692307692307693, -0.0625, -0.09375, -0.09375, 0.0
1138, -0.4517704517704518, 0.026862026862026864, -0.2026862026862027, -0.125, 0.0, -0.09375, 0.0
1139, -0.5286935286935287, 0.14407814407814407, -0.07814407814407814, -0.09375, 0.03125, -0.03125, 0.0
1140, -0.4481074481074481, 0.12942612942612944, 0.12454212454212454, -0.03125, 0.03125, 0.0, 0.0
1141, -0.018315018315018316, -0.398046398046398, -0.08791208791208792, -0.09375, 0.0, 0.0, 0.0
1142, 0.13553113553113552, -0.5213675213675214, -0.2454212454212454, -0.15625, 0.0, 0.0, 0.0
1143, -0.01221001221001221, -0.2503052503052503, -0.2271062271062271, -0.09375, 0.125, -0.03125, 0.0
1144, -0.03296703296703297, -0.02442002442002442, 0.2258852258852259, -0.0625, 0.09375, 0.0, 0.0
1145, -0.009768009768009768, -0.06349206349206349, 0.18315018315018314, -0.0625, 0.03125, 0.0, 0.0
1146, -0.18803418803418803, 0.01098901098901099, -0.04151404151404151, -0.09375, 0.0, 0.0, 0.0
1147, -0.12332112332112333, -0.1282051282051282, -0.19291819291819293, -0.0625, 0.03125, 0.0, 0.0
1148, 0.10866910866910867, -0.27350427350427353, -0.23565323565323565, -0.0625, 0.03125, 0.0, 0.0
1149, 0.1623931623931624, -0.22954822954822954, -0.21245421245421245, -0.0625, 0.03125, 0.0, 0.0
1150, 0.08058608058608059, -0.05860805860805861, -0.23076923076923078, -0.0625, 0.03125, 0.0, 0.0
1151, 0.031746031746031744, -0.028083028083028084, -0.2442002442002442, -0.125, 0.0625, 0.0, 0.0
1152, -0.05616605616605617, 0.042735042735042736, -0.08180708180708181, -0.125, 0.03125, 0.0, 0.0
1153, -0.03418803418803419, 0.029304029304029304, -0.08547008547008547, -0.0625, 0.0, 0.0, 0.0
1154, 0.0927960927960928, -0.10012210012210013, -0.1794871794871795, -0.03125, 0.0, 0.0, 0.0
1155, -0.007326007326007326, -0.052503052503052504, -0.15384615384615385, -0.0625, 0.0, 0.0, 0.0
1156, 0.07448107448107448, -0.1221001221001221, -0.16971916971916973, -0.125, 0.03125, 0.0, 0.0
1157, 0.042735042735042736, -0.018315018315018316, -0.0989010989010989, -0.125, 0.0, 0.0, 0.0
1158, 0.004884004884004884, -0.040293040293040296, -0.221001221001221, -0.09375, 0.0, 0.0, 0.0
1159, 0.06593406593406594, -0.03785103785103785, -0.16117216117216118, -0.0625, 0.0, 0.0, 0.0
1160, -0.008547008547008548, 0.0, -0.050061050061050064, -0.09375, 0.03125, 0.0, 0.0
1161, -0.0231990231990232, 0.03418803418803419, 0.17094017094017094, -0.09375, 0.03125, 0.0, 0.0
1162, -0.221001221001221, 0.06349206349206349, 0.07081807081807082, -0.03125, 0.03125, -0.03125, 0.0
1163, -0.115995115995116, 0.0, 0.03907203907203907, -0.03125, 0.03125, 0.0, 0.0
1164, -0.0463980463980464, -0.25274725274725274, -0.1221001221001221, -0.0625, 0.0, 0.0, 0.0
1165, 0.028083028083028084, -0.2673992673992674, -0.21001221001221002, -0.15625, 0.0, 0.0, 0.0
1166, 0.05860805860805861, -0.09035409035409035, -0.01221001221001221, -0.15625, 0.03125, 0.0, 0.0
1167, 0.017094017094017096, -0.009768009768009768, 0.16483516483516483, -0.125, 0.0, 0.0, 0.0
1168, -0.05982905982905983, -0.07448107448107448, 0.054945054945054944, -0.0625, 0.0, 0.0, 0.0
1169, 0.017094017094017096, -0.03663003663003663, 0.10989010989010989, -0.0625, 0.0, 0.0, 0.0
1170, 0.05860805860805861, -0.15018315018315018, -0.007326007326007326, -0.0625, -0.03125, -0.03125, 0.0
1171, -0.17582417582417584, 0.14163614163614163, 0.030525030525030524, 0.0, -0.03125, -0.0625, 0.0
1172, -0.3956043956043956, 0.4017094017094017, 0.10744810744810745, 0.21875, -0.03125, -0.03125, 1.0
1173, -0.25396825396825395, 0.08547008547008547, -0.06593406593406594, 0.21875, -0.03125, 0.0, 1.0
1174, -0.05616605616605617, -0.1514041514041514, -0.21367521367521367, 0.03125, -0.125, 0.03125, 1.0
1175, -0.5201465201465202, -0.21001221001221002, -0.6068376068376068, -0.25, -0.03125, 0.0625, 1.0
1176, -0.8229548229548229, 0.14407814407814407, -0.463980463980464, -0.34375, 0.0625, 0.1875, 1.0
1177, -0.34065934065934067, 0.5702075702075702, 0.33455433455433453, 0.0625, -0.09375, 0.28125, 1.0
1178, -0.7350427350427351, -0.18315018315018314, -0.2515262515262515, 0.15625, -0.15625, 0.34375, 1.0
1179, -0.9169719169719169, -0.8070818070818071, -1.0512820512820513, -0.25, 0.0, 0.375, 1.0
1180, -1.1294261294261294, -0.5409035409035409, -1.1172161172161172, -0.59375, 0.125, 0.4375, 1.0
1181, -0.9352869352869353, -0.32844932844932845, -0.7521367521367521, -0.5625, 0.0625, 0.53125, 1.0
1182, -0.9658119658119658, -0.5494505494505495, -0.7582417582417582, -0.4375, -0.03125, 0.5625, 1.0
1183, -1.3028083028083028, -0.78998778998779, -0.9035409035409036, -0.375, 0.0, 0.625, 1.0
1184, -1.448107448107448, -0.7557997557997558, -0.6959706959706959, -0.3125, 0.09375, 0.65625, 1.0
1185, -1.3577533577533578, -0.9010989010989011, -0.3028083028083028, -0.3125, 0.125, 0.71875, 1.0
1186, -1.0879120879120878, -1.043956043956044, -0.007326007326007326, -0.375, 0.03125, 0.78125, 1.0
1187, -1.0488400488400489, -1.2307692307692308, 0.2673992673992674, -0.375, 0.0, 0.84375, 1.0
1188, -0.7753357753357754, -1.4395604395604396, 0.6324786324786325, -0.28125, -0.03125, 0.875, 1.0
1189, -0.5274725274725275, -1.8168498168498168, 0.7533577533577533, -0.1875, 0.0, 0.90625, 1.0
1190, -0.08424908424908426, -2.05006105006105, 1.1575091575091576, -0.09375, -0.03125, 0.90625, 1.0
1191, 0.26373626373626374, -2.1013431013431014, 1.63003663003663, -0.0625, -0.09375, 0.90625, 1.0
1192, 1.0146520146520146, -2.283272283272283, 1.8974358974358974, -0.09375, -0.25, 0.8125, 1.0
1193, 2.023199023199023, -2.199023199023199, 2.496947496947497, 0.0, -0.34375, 0.6875, 1.0
1194, 2.503052503052503, -2.006105006105006, 2.498168498168498, 0.25, -0.40625, 0.5625, 1.0
1195, 3.0537240537240535, -2.192918192918193, 1.901098901098901, 0.5, -0.59375, 0.4375, 1.0
1196, 2.8986568986568986, -1.7960927960927962, 1.3601953601953602, 0.53125, -0.59375, 0.28125, 1.0
1197, 3.1709401709401708, -1.3284493284493284, 1.0793650793650793, 0.6875, -0.5, 0.15625, 1.0
1198, 3.144078144078144, -1.1184371184371185, 0.27594627594627597, 0.78125, -0.4375, 0.03125, 1.0
1199, 3.371184371184371, -0.5848595848595849, -0.03907203907203907, 0.71875, -0.40625, -0.03125, 1.0
1200, 3.7826617826617825, -0.09768009768009768, 0.12454212454212454, 0.6875, -0.53125, -0.125, 1.0
1201, 4.16971916971917, 0.32234432234432236, 0.39194139194139194, 0.84375, -0.5, -0.3125, 1.0
1202, 6.511599511599512, -1.1123321123321124, 0.045177045177045176, 0.875, -0.5625, -0.5, 1.0
1203, 7.614163614163614, -1.6923076923076923, -0.5372405372405372, 0.34375, -1.4375, -0.78125, 1.0
1204, 4.568986568986569, 0.6214896214896215, -0.6752136752136753, 0.15625, -1.625, -1.28125, 1.0
1205, 3.873015873015873, 1.6495726495726495, -0.9731379731379731, 0.84375, -0.5, -1.6875, 1.0
1206, 4.294261294261294, 0.4517704517704518, -2.31013431013431, 1.3125, -0.25, -2.0, 1.0
1207, 2.3076923076923075, 0.5934065934065934, -3.3846153846153846, 1.0, -0.5625, -2.25, 1.0
1208, 1.1147741147741148, 0.9194139194139194, -3.4297924297924296, 0.6875, -0.15625, -2.375, 1.0
1209, 0.4444444444444444, 1.4627594627594627, -2.943833943833944, 0.46875, 0.375, -2.5, 1.0
1210, -0.1391941391941392, 1.1587301587301588, -2.8998778998779, 0.25, 0.3125, -2.40625, 1.0
1211, -1.6007326007326008, 1.9792429792429793, -2.6312576312576312, 0.0, 0.125, -2.3125, 1.0
1212, -2.133089133089133, 2.266178266178266, -2.4957264957264957, 0.03125, 0.46875, -2.1875, 1.0
1213, -1.2576312576312576, 1.4932844932844933, -2.1245421245421245, 0.0, 0.75, -2.0, 1.0
1214, -1.347985347985348, 1.0744810744810744, -1.315018315018315, -0.40625, 0.28125, -1.84375, 1.0
1215, -3.343101343101343, 1.5592185592185592, -1.6617826617826619, -0.46875, 0.0625, -1.6875, 1.0
1216, -2.5457875457875456, 0.336996336996337, -2.4822954822954824, -0.3125, 0.34375, -1.3125, 1.0
1217, -1.9792429792429793, -0.3833943833943834, -2.695970695970696, -0.75, 0.28125, -1.15625, 1.0
1218, -2.6556776556776556, -0.001221001221001221, -2.1355311355311355, -0.84375, 0.46875, -0.96875, 1.0
1219, -3.286935286935287, 0.4236874236874237, -1.2075702075702075, -0.875, 0.5625, -0.6875, 1.0
1220, -3.139194139194139, 0.03540903540903541, -0.5836385836385837, -1.0, 0.40625, -0.375, 1.0
1221, -2.989010989010989, -0.6764346764346765, -0.7533577533577533, -1.1875, 0.09375, -0.09375, 1.0
1222, -3.451770451770452, -1.4261294261294262, -1.6654456654456655, -1.125, 0.125, 0.125, 1.0
1223, -3.142857142857143, -2.3076923076923075, -2.032967032967033, -1.09375, 0.15625, 0.34375, 1.0
1224, -2.727716727716728, -2.04029304029304, -1.1391941391941391, -1.0625, 0.15625, 0.5, 1.0
1225, -2.976800976800977, -1.6947496947496947, -0.23076923076923078, -1.03125, 0.375, 0.53125, 1.0
1226, -2.998778998778999, -1.42002442002442, 0.5262515262515263, -1.125, 0.34375, 0.65625, 1.0
1227, -1.7997557997557998, -2.376068376068376, 0.7692307692307693, -1.15625, -0.40625, 0.84375, 1.0
1228, -2.6117216117216118, -2.9157509157509156, 0.04884004884004884, -1.09375, -0.5, 0.9375, 1.0
1229, -2.7045177045177047, -2.404151404151404, 0.2967032967032967, -0.75, 0.125, 1.0625, 1.0
1230, -1.253968253968254, -2.6153846153846154, 0.8693528693528694, -0.65625, 0.15625, 1.125, 1.0
1231, -0.7875457875457875, -2.537240537240537, 1.4432234432234432, -0.75, -0.21875, 1.25, 1.0
1232, -1.1367521367521367, -2.358974358974359, 1.811965811965812, -0.65625, -0.3125, 1.28125, 1.0
1233, -1.0915750915750915, -2.860805860805861, 1.407814407814408, -0.5, -0.0625, 1.34375, 1.0
1234, 0.28083028083028083, -3.548229548229548, 1.2698412698412698, -0.46875, -0.1875, 1.34375, 1.0
1235, 0.5567765567765568, -3.221001221001221, 1.36996336996337, -0.34375, -0.25, 1.28125, 1.0
1236, 0.2967032967032967, -2.838827838827839, 1.0903540903540903, -0.1875, -0.09375, 1.28125, 1.0
1237, 0.9963369963369964, -3.2014652014652016, 0.7106227106227107, -0.1875, -0.125, 1.28125, 1.0
1238, 1.6263736263736264, -3.2454212454212454, 0.6923076923076923, -0.28125, -0.3125, 1.25, 1.0
1239, 1.0952380952380953, -2.542124542124542, 0.7362637362637363, -0.09375, -0.125, 1.1875, 1.0
1240, 1.8962148962148961, -2.4603174603174605, 0.8571428571428571, -0.03125, 0.0, 1.09375, 1.0
1241, 2.374847374847375, -1.9242979242979243, 1.0842490842490842, -0.03125, -0.125, 0.9375, 1.0
1242, 2.7045177045177047, -0.5848595848595849, 1.3199023199023199, 0.0625, -0.15625, 0.84375, 1.0
1243, 2.7924297924297923, -0.7130647130647131, 0.9597069597069597, 0.1875, -0.15625, 0.71875, 1.0
