timestamp, accX, accY, accZ, gyroX, gyroY, gyroZ, button
5788, 6.288, -10.384, -10.48, -0.109, -0.01, -0.072, 1
5808, 6.394, -10.401, -10.307, -0.14, -0.042, -0.083, 1
5828, 6.255, -10.298, -10.351, -0.177, -0.083, -0.087, 1
5848, 6.138, -10.059, -10.407, -0.138, 0.001, -0.114, 1
5868, 6.595, -10.35, -10.013, -0.045, 0.046, -0.158, 1
5888, 6.698, -10.58, -9.772, -0.054, -0.047, -0.152, 1
5908, 6.65, -10.523, -9.728, -0.111, -0.069, -0.124, 1
5928, 6.668, -10.446, -9.613, -0.167, -0.083, -0.112, 1
5948, 6.551, -10.388, -9.501, -0.186, -0.079, -0.129, 1
5968, 6.593, -10.408, -9.387, -0.223, -0.051, -0.142, 1
5988, 6.525, -10.358, -9.227, -0.295, -0.021, -0.136, 1
6008, 6.622, -10.563, -9.187, -0.325, -0.009, -0.121, 1
6028, 6.827, -10.836, -9.056, -0.383, -0.023, -0.113, 1
6048, 6.656, -10.728, -8.985, -0.515, -0.062, -0.084, 1
6068, 6.286, -10.58, -8.793, -0.619, 0.027, -0.057, 1
6088, 6.486, -10.648, -8.583, -0.711, 0.018, -0.058, 1
6108, 6.018, -10.076, -10.286, -0.466, 0.151, -0.093, 1
6128, 5.732, -9.45, -10.824, 0.189, 0.363, -0.275, 1
6148, 6.595, -11.136, -10.47, 0.248, 0.147, -0.244, 1
6168, 6.341, -9.66, -10.065, 0.073, -0.081, -0.293, 1
6188, 5.512, -7.893, -11.642, -0.026, -0.715, -0.102, 1
6208, 2.964, -6.5, -15.104, 1.696, -0.12, -0.642, 1
6228, 6.531, -11.356, -9.835, 1.599, -0.33, -0.788, 1
6248, 7.766, -13.559, -7.568, 0.48, -1.067, -0.618, 1
6268, 7.288, -13.31, -6.73, -0.257, -0.967, -0.598, 1
6288, 7.066, -12.513, -6.669, -0.491, -0.371, -0.422, 1
6308, 7.846, -12.79, -6.222, -0.608, 0.094, -0.309, 1
6328, 8.58, -13.023, -5.929, -0.818, 0.272, -0.27, 1
6348, 9.093, -12.648, -6.023, -0.915, 0.279, -0.252, 1
6368, 9.397, -12.785, -5.725, -0.974, 0.145, -0.189, 1
6388, 9.102, -12.327, -5.783, -1.144, 0.082, -0.075, 1
6408, 8.394, -11.625, -6.013, -1.422, 0.329, 0.111, 1
6428, 7.843, -10.608, -6.823, -1.69, 0.665, 0.337, 1
6448, 7.111, -9.661, -8.005, -1.702, 1.029, 0.362, 1
6468, 7.524, -9.784, -8.196, -1.569, 1.039, 0.239, 1
6488, 8.144, -9.682, -8.355, -1.624, 0.648, 0.287, 1
6508, 7.174, -8.53, -9.955, -1.82, 0.735, 0.439, 1
6528, 7.019, -7.459, -10.139, -1.817, 0.951, 0.324, 1
6548, 7.449, -7.446, -9.932, -1.71, 0.913, 0.245, 1
6568, 8.031, -7.386, -10.202, -1.463, 0.642, 0.231, 1
6588, 7.676, -6.966, -10.897, -1.168, 0.356, 0.26, 1
6608, 7.673, -6.689, -10.796, -0.812, 0.403, 0.236, 1
6628, 8.082, -6.922, -10.512, -0.583, 0.482, 0.192, 1
6648, 8.366, -6.973, -10.201, -0.446, 0.447, 0.171, 1
6668, 8.459, -7.037, -9.808, -0.329, 0.346, 0.22, 1
6688, 8.56, -7.148, -9.517, -0.263, 0.228, 0.27, 1
6708, 8.219, -7.063, -9.292, -0.268, 0.126, 0.298, 1
6728, 7.684, -6.789, -9.197, -0.271, 0.183, 0.34, 1
6748, 7.613, -6.835, -8.968, -0.251, 0.332, 0.343, 1
6768, 7.542, -6.696, -8.866, -0.241, 0.402, 0.292, 1
6788, 7.436, -6.195, -8.883, -0.172, 0.419, 0.213, 1
6808, 7.759, -6.146, -8.508, 0.037, 0.521, 0.167, 1
6828, 8.117, -6.277, -8.328, 0.241, 0.196, 0.156, 1
6848, 7.537, -6.052, -7.929, 0.419, -0.102, 0.085, 1
6868, 7.69, -6.142, -7.467, 0.556, -0.047, 0.072, 1
6888, 8.169, -6.292, -7.092, 0.538, -0.086, 0.06, 1
6908, 8.16, -6.133, -6.735, 0.475, -0.283, 0.05, 1
6928, 7.58, -5.753, -6.474, 0.543, -0.509, 0.023, 1
6948, 7.463, -5.649, -6.112, 0.787, -0.722, -0.062, 1
6968, 7.652, -5.683, -5.552, 1.021, -1.194, -0.158, 1
6988, 7.627, -6.186, -4.979, 1.013, -2.036, -0.247, 1
7008, 7.34, -6.365, -5.005, 0.944, -2.699, -0.433, 1
7028, 8.482, -7.227, -4.523, 0.793, -4.177, -0.833, 1
7048, 7.769, -7.841, -4.939, 0.412, -5.878, -0.903, 1
7068, 4.921, -8.102, -6.034, 0.143, -6.281, -0.844, 1
7088, 3.734, -8.245, -6.391, -0.029, -5.937, -0.85, 1
7108, 2.698, -8.385, -6.521, -0.213, -5.475, -1.08, 1
7128, 3.415, -7.785, -5.857, -0.225, -5.852, -1.375, 1
7148, 3.074, -7.281, -6.901, -0.222, -7.008, -1.309, 1
7168, 0.068, -6.773, -8.621, -0.552, -7.313, -0.941, 1
7188, -2.184, -6.546, -9.102, -1.18, -6.54, -0.572, 1
7208, -2.363, -4.892, -8.658, -1.591, -6.108, -0.171, 1
7228, -4.238, -3.48, -9.442, -1.51, -5.978, 0.094, 1
7248, -7.537, -3.39, -10.771, -0.812, -4.621, 0.088, 1
7268, -7.184, -3.744, -10.24, -0.27, -3.013, 0.052, 1
7288, -5.947, -4.301, -8.72, -0.475, -2.351, 0.197, 1
7308, -6.019, -3.845, -8.703, -0.706, -2.185, 0.291, 1
7328, -6.927, -3.157, -8.507, -0.7, -1.568, 0.417, 1
7348, -6.662, -3.02, -8.551, -0.626, -0.951, 0.455, 1
7368, -6.754, -2.746, -9.001, -0.38, -0.257, 0.416, 1
7388, -7.011, -2.246, -9.022, 0.076, 0.862, 0.335, 1
7408, -7.474, -1.866, -8.503, 0.67, 2.666, 0.283, 1
7428, -6.912, -2.414, -7.396, 1.046, 4.893, 0.205, 1
7448, -5.554, -3.302, -6.285, 1.0, 6.72, 0.126, 1
7468, -3.933, -4.218, -5.171, 0.488, 8.032, 0.213, 1
7488, -1.968, -5.274, -6.333, 0.356, 9.03, 0.114, 1
7508, 1.874, -8.608, -5.473, 0.266, 9.843, 0.014, 1
7528, 6.47, -11.991, -3.631, -0.365, 9.733, 0.359, 1
7548, 11.705, -12.03, -1.996, -1.77, 8.206, 1.418, 1
7568, 11.095, -9.045, -4.886, -3.29, 5.064, 2.703, 1
7588, 6.583, -6.468, -7.823, -3.293, 2.817, 2.485, 1
7608, 5.552, -5.523, -8.609, -2.591, 1.479, 1.403, 1
7628, 4.942, -3.443, -9.11, -1.875, 0.349, 0.891, 1
7648, 4.58, -4.277, -8.893, -1.128, -0.277, 0.593, 1
7668, 3.714, -4.132, -8.698, -0.673, -0.31, 0.438, 1
7688, 4.301, -4.684, -8.123, -0.376, 0.089, 0.471, 1
7708, 4.96, -5.206, -7.592, -0.32, 0.2, 0.586, 1
7728, 5.01, -5.247, -7.558, -0.356, -0.049, 0.376, 1
7748, 5.657, -4.794, -7.654, -0.276, -0.244, 0.153, 1
7768, 5.927, -4.779, -8.108, -0.136, -0.671, 0.161, 1
7788, 4.898, -4.675, -8.175, 0.076, -0.964, 0.116, 1
7808, 4.318, -4.868, -7.971, 0.357, -0.759, 0.097, 1
7828, 4.892, -5.06, -7.494, 0.529, -0.518, 0.029, 1
7848, 5.47, -5.702, -7.321, 0.56, -0.788, 0.007, 1
7868, 5.056, -6.445, -7.004, 0.432, -1.389, -0.119, 1
7888, 4.661, -6.547, -7.079, 0.111, -1.825, -0.378, 1
7908, 4.262, -6.315, -7.728, 0.018, -2.011, -0.455, 1
7928, 3.845, -6.418, -7.889, 0.141, -1.785, -0.395, 1
7948, 3.842, -7.075, -7.839, 0.235, -1.509, -0.222, 1
7968, 3.532, -6.622, -8.019, 0.207, -1.563, -0.036, 1
7988, 2.827, -7.162, -7.774, 0.158, -1.62, -0.214, 1
8014, 3.029, -7.098, -7.695, -0.029, -1.784, -0.207, 1
8034, 2.137, -7.16, -8.009, -0.062, -1.638, -0.007, 1
8054, 1.108, -7.003, -8.345, 0.064, -1.089, 0.045, 1
8074, 0.942, -7.013, -8.193, 0.145, -0.518, 0.047, 1
8094, 1.18, -7.308, -8.016, 0.231, -0.125, -0.059, 1
8114, 2.032, -7.325, -7.648, 0.35, -0.064, -0.13, 1
8134, 2.63, -7.775, -7.057, 0.332, -0.412, -0.138, 1
8154, 3.079, -8.318, -6.621, 0.04, -1.142, -0.188, 1
8174, 2.516, -8.215, -6.424, -0.381, -1.77, -0.304, 1
8194, 1.631, -7.68, -6.434, -0.572, -1.825, -0.322, 1
8214, 1.24, -7.246, -6.616, -0.542, -1.586, -0.331, 1
8234, 1.62, -7.312, -6.278, -0.59, -1.732, -0.509, 1
8254, 3.581, -7.707, -5.489, -1.138, -3.107, -0.662, 1
8274, 1.707, -6.164, -6.134, -1.48, -4.128, -0.586, 1
8294, -0.947, -4.324, -7.221, -1.117, -3.533, -0.46, 1
8314, -1.101, -4.316, -7.049, -0.675, -2.543, -0.452, 1
8334, -0.198, -4.374, -6.047, -0.654, -2.373, -0.474, 1
8354, -0.57, -3.982, -5.848, -0.753, -2.304, -0.379, 1
8374, -1.996, -3.172, -6.273, -0.634, -1.564, -0.298, 1
8394, -2.245, -3.056, -6.215, -0.429, -0.596, -0.379, 1
8414, -0.686, -3.179, -6.005, -0.376, -0.474, -0.444, 1
8434, -0.332, -3.294, -6.155, -0.412, -0.691, -0.331, 1
8454, -0.825, -3.095, -6.536, -0.419, -0.481, -0.149, 1
8474, -1.31, -2.873, -6.825, -0.259, 0.038, -0.143, 1
8494, -0.69, -3.327, -6.527, -0.102, 0.145, -0.075, 1
8514, -0.632, -3.561, -6.48, -0.006, 0.129, -0.064, 1
8534, -0.619, -3.969, -6.258, -0.083, 0.096, -0.021, 1
8554, -1.049, -3.857, -6.334, -0.216, 0.113, 0.02, 1
8574, -1.303, -3.825, -6.465, -0.172, 0.306, 0.135, 1
8594, -1.719, -3.721, -6.609, -0.003, 0.688, 0.211, 1
8614, -2.209, -3.855, -6.482, 0.324, 1.364, 0.285, 1
8634, -2.546, -5.774, -5.982, 0.8, 2.089, 0.241, 1
8654, -1.039, -5.865, -5.309, 0.81, 2.401, 0.277, 1
8674, -1.557, -6.198, -5.286, 0.616, 2.412, 0.225, 1
8694, -2.155, -7.737, -5.719, 0.683, 2.801, 0.063, 1
8714, -0.746, -7.506, -5.667, 0.926, 3.506, 0.285, 1
8734, -1.073, -7.357, -5.787, 1.431, 4.438, 0.419, 1
8754, 0.731, -7.868, -4.397, 2.005, 5.688, 0.5, 1
8774, 2.649, -7.395, -2.987, 2.014, 6.139, 0.547, 1
8794, 4.243, -6.309, -2.934, 1.795, 5.762, 0.656, 1
8814, 5.261, -5.973, -3.574, 1.651, 4.929, 0.82, 1
8834, 3.671, -4.749, -4.314, 1.531, 4.456, 1.0, 1
8854, 3.689, -4.157, -3.491, 1.751, 4.593, 0.928, 1
8874, 5.065, -5.153, -1.874, 1.725, 4.042, 0.934, 1
8894, 5.721, -5.375, -1.02, 0.977, 2.446, 0.849, 1
8914, 4.61, -4.812, -1.435, 0.037, 0.781, 0.6, 1
8934, 2.61, -3.113, -2.66, -0.141, 0.309, 0.541, 1
8954, 1.148, -2.858, -3.241, 0.403, 1.445, 0.532, 1
8974, 3.219, -3.132, -2.06, 0.618, 1.671, 0.572, 1
8994, 4.347, -3.538, -1.17, 0.263, 0.858, 0.525, 1
9014, 3.283, -2.984, -1.386, -0.07, 0.266, 0.426, 1
9034, 2.629, -2.546, -1.635, -0.095, 0.248, 0.361, 1
9054, 2.593, -2.752, -1.511, -0.167, 0.331, 0.332, 1
9074, 2.316, -2.549, -1.622, -0.092, 0.557, 0.258, 1
9094, 3.058, -2.415, -1.298, -0.06, 0.481, 0.212, 1
9114, 3.051, -3.081, -0.831, -0.317, 0.249, 0.173, 1
9134, 3.03, -3.132, -0.826, -0.472, 0.095, 0.207, 1
9154, 2.867, -2.507, -1.305, -0.351, 0.11, 0.335, 1
9174, 2.682, -2.377, -1.456, -0.151, 0.299, 0.456, 1
9194, 2.726, -2.436, -1.459, 0.156, 0.323, 0.345, 1
9214, 3.153, -2.624, -1.126, 0.393, -0.003, 0.144, 1
9234, 3.147, -2.704, -0.779, 0.472, -0.326, 0.153, 1
9254, 2.503, -2.899, -0.473, 0.409, -0.25, 0.26, 1
9274, 1.951, -2.974, 0.121, 0.185, 0.069, 0.369, 1
9294, 2.069, -3.303, 0.311, -0.133, 0.159, 0.402, 1
9314, 2.121, -3.141, -0.057, -0.332, 0.031, 0.344, 1
9334, 2.046, -2.699, -0.662, -0.21, -0.112, 0.213, 1
9354, 0.951, -2.079, -1.069, 0.108, 0.167, 0.223, 1
9374, 1.583, -2.915, -0.621, 0.069, 0.268, 0.192, 1
9394, 1.811, -3.041, -0.451, -0.156, 0.056, 0.163, 1
9414, 1.716, -2.971, -0.684, -0.273, -0.037, 0.096, 1
9434, 1.463, -2.768, -0.862, -0.238, 0.07, 0.17, 1
9454, 1.29, -3.135, -0.455, -0.28, 0.262, 0.156, 1
9474, 1.43, -3.274, -0.445, -0.331, 0.227, 0.081, 1
9494, 1.501, -3.191, -0.657, -0.347, 0.125, 0.029, 1
9514, 1.512, -2.901, -0.887, -0.335, 0.159, 0.037, 1
9534, 1.563, -2.776, -0.913, -0.215, 0.196, 0.045, 1
9554, 1.35, -2.661, -0.514, -0.115, 0.158, 0.052, 1
9574, 1.03, -2.79, -0.121, -0.191, 0.147, 0.032, 1
9594, 1.292, -2.228, -0.364, -0.392, 0.178, -0.015, 1
9614, 1.044, -1.892, -0.785, -0.392, 0.169, 0.025, 1
9634, 1.009, -2.057, -0.729, -0.248, 0.151, 0.036, 1
9654, 0.923, -2.094, -0.474, -0.2, 0.177, 0.04, 1
9674, 1.176, -2.269, -0.28, -0.254, 0.232, 0.015, 1
9694, 1.39, -1.975, -0.67, -0.282, 0.09, -0.018, 1
9714, 1.174, -1.774, -0.814, -0.207, 0.029, 0.027, 1
9734, 1.063, -1.896, -0.463, -0.16, 0.108, 0.065, 1
9754, 1.263, -2.012, -0.253, -0.222, 0.11, 0.057, 1
9774, 0.985, -1.726, -0.434, -0.334, -0.033, 0.023, 1
9794, 0.677, -1.54, -0.632, -0.257, -0.003, 0.036, 1
9814, 0.651, -1.604, -0.487, -0.131, 0.118, 0.069, 1
9834, 0.675, -1.667, -0.322, -0.138, 0.177, 0.025, 1
9854, 1.029, -1.631, -0.316, -0.156, 0.142, -0.045, 1
9874, 0.736, -1.351, -0.541, -0.221, 0.016, -0.032, 1
9894, 0.411, -1.388, -0.646, -0.167, 0.097, -0.034, 1
9914, 0.716, -1.315, -0.577, -0.072, 0.256, 0.01, 1
9934, 0.99, -1.538, -0.579, -0.067, 0.143, -0.015, 1
9954, 0.482, -1.643, -0.21, -0.123, 0.245, -0.102, 1
9974, 0.761, -1.591, -0.272, -0.306, 0.186, -0.169, 1
9994, 1.189, -1.377, -0.507, -0.365, -0.023, -0.09, 1
10014, 0.382, -1.016, -0.692, -0.174, 0.119, 0.008, 1
10034, 0.431, -0.811, -0.853, 0.197, 0.226, -0.004, 1
10054, 0.785, -1.144, -0.398, 0.232, 0.173, 0.046, 1
10074, 0.899, -1.73, 0.338, -0.086, -0.023, 0.025, 1
10094, 0.442, -1.36, 0.193, -0.292, -0.195, -0.002, 1
10114, 0.019, -0.929, -0.164, -0.242, -0.051, 0.011, 1
10134, 0.21, -1.023, -0.064, -0.36, 0.078, 0.055, 1
10154, 0.219, -0.476, -0.55, -0.259, 0.126, 0.022, 1
10174, 0.496, -0.874, -0.378, -0.216, 0.035, 0.021, 1
10194, 0.275, -0.848, -0.207, -0.287, -0.004, 0.036, 1
10214, 0.142, -0.617, -0.495, -0.199, 0.068, 0.07, 1
10234, 0.206, -0.858, -0.12, -0.306, 0.007, 0.1, 1
10254, 0.229, -0.852, -0.072, -0.442, -0.042, 0.102, 1
10274, 0.27, -0.678, -0.31, -0.426, -0.08, 0.127, 1
10294, 0.102, -0.469, -0.503, -0.301, 0.032, 0.19, 1
10314, 0.069, -0.511, -0.477, -0.192, 0.159, 0.215, 1
10334, 0.148, -0.543, -0.266, -0.179, 0.105, 0.158, 1
10354, 0.189, -0.328, -0.454, -0.09, 0.002, 0.094, 1
10374, -0.004, -0.194, -0.609, 0.065, 0.021, 0.089, 1
10394, -0.056, -0.4, -0.186, 0.067, 0.132, 0.103, 1
10414, 0.421, -0.413, -0.53, 0.079, -0.092, 0.04, 1
10434, 0.021, -0.176, -0.814, 0.09, -0.194, 0.051, 1
10454, 0.179, -0.195, -0.814, 0.124, -0.052, 0.116, 1
10474, 0.167, -0.165, -0.698, 0.126, -0.045, 0.146, 1
10494, -0.014, -0.035, -0.543, 0.105, -0.123, 0.167, 1
10514, -0.14, -0.085, -0.226, 0.035, -0.115, 0.166, 1
10534, -0.231, 0.134, -0.309, -0.056, -0.105, 0.175, 1
10554, -0.431, 0.244, -0.274, -0.006, -0.09, 0.167, 1
10574, -0.428, 0.159, -0.041, 0.094, -0.045, 0.13, 1
10594, -0.133, -0.012, 0.29, 0.076, -0.049, 0.099, 1
10614, -0.188, 0.065, 0.293, -0.032, -0.036, 0.102, 1
10634, 0.014, -0.059, 0.372, -0.06, -0.02, 0.081, 1
10654, -0.292, -0.154, 0.154, -0.028, -0.127, 0.033, 1
10674, -0.036, 0.037, 0.138, 0.047, -0.021, 0.005, 1
10694, 0.137, -0.153, 0.257, 0.154, 0.072, 0.025, 1
10714, 0.237, -0.686, 0.521, 0.11, 0.062, 0.064, 1
10734, 0.41, -0.521, 0.38, -0.055, 0.008, 0.109, 1
10754, 0.55, -0.408, -0.009, -0.152, -0.14, 0.104, 1
10774, 0.119, -0.081, -0.194, -0.131, -0.227, 0.138, 1
10794, 0.054, -0.1, 0.043, -0.046, -0.134, 0.162, 1
10814, -0.066, -0.085, -0.103, -0.025, -0.073, 0.224, 1
10834, 0.035, -0.01, -0.101, 0.018, -0.082, 0.168, 1
10854, 0.063, -0.059, -0.137, 0.102, -0.188, 0.189, 1
10874, -0.157, -0.149, -0.08, 0.052, -0.192, 0.188, 1
10894, -0.145, 0.023, -0.114, 0.0, 0.045, 0.111, 1
10914, 0.242, -0.106, -0.275, -0.004, 0.016, 0.153, 1
10934, 0.143, -0.028, -0.165, -0.051, -0.095, 0.196, 1
10954, -0.115, -0.231, -0.088, -0.194, -0.086, 0.16, 1
10974, -0.273, 0.023, -0.183, -0.207, 0.029, 0.104, 1
10994, -0.275, -0.009, -0.158, -0.177, 0.146, 0.035, 1
11014, 0.078, -0.208, -0.134, -0.269, 0.091, 0.028, 1
11034, 0.187, 0.001, -0.33, -0.255, -0.019, 0.047, 1
11054, -0.006, -0.039, -0.281, -0.216, -0.019, 0.097, 1
11074, -0.081, -0.018, -0.198, -0.161, 0.046, 0.111, 1
11094, 0.01, -0.072, -0.059, -0.194, 0.007, 0.08, 1
11114, 0.001, 0.056, -0.133, -0.105, -0.063, 0.105, 1
11134, -0.06, -0.058, -0.221, -0.032, -0.039, 0.117, 1
11154, 0.011, -0.062, -0.179, -0.046, -0.027, 0.128, 1
11174, -0.038, 0.018, -0.213, -0.052, -0.006, 0.135, 1
11194, -0.177, -0.026, -0.012, -0.087, 0.075, 0.117, 1
11214, -0.082, -0.045, 0.032, -0.175, 0.116, 0.078, 1
11234, 0.194, 0.039, -0.297, -0.098, 0.017, 0.055, 1
11254, 0.005, -0.01, -0.313, 0.008, -0.008, 0.062, 1
11274, 0.108, -0.077, -0.238, 0.033, -0.05, 0.075, 1
11294, 0.005, -0.093, -0.264, 0.032, -0.098, 0.041, 1
11314, -0.043, 0.022, -0.287, 0.087, -0.081, 0.048, 1
11334, -0.194, -0.121, -0.198, 0.113, 0.048, 0.091, 1
11354, -0.065, -0.228, 0.001, -0.015, 0.142, 0.057, 1
11374, 0.114, -0.15, 0.044, -0.189, 0.019, 0.062, 1
11394, -0.041, -0.038, -0.224, -0.227, 0.006, 0.067, 1
11414, -0.037, 0.016, -0.335, -0.179, 0.063, 0.061, 1
11434, -0.003, -0.016, -0.225, -0.163, 0.083, 0.071, 1
11454, -0.057, -0.029, -0.257, -0.156, 0.059, 0.087, 1
11474, -0.078, 0.0, -0.243, -0.094, 0.051, 0.076, 1
11494, -0.034, 0.002, -0.27, -0.01, 0.048, 0.044, 1
11514, 0.033, -0.138, -0.03, -0.042, 0.07, 0.048, 1
11534, 0.025, -0.09, -0.143, -0.08, 0.061, 0.086, 1
11554, 0.101, -0.205, -0.168, -0.094, 0.058, 0.098, 1
11574, -0.084, 0.045, -0.183, -0.189, 0.057, 0.061, 1
11594, -0.064, 0.081, -0.306, -0.127, 0.089, 0.039, 1
11614, 0.14, -0.186, -0.026, -0.081, 0.096, 0.057, 1
11634, 0.029, -0.239, 0.016, -0.176, 0.076, 0.086, 1
11654, -0.101, -0.223, 0.045, -0.295, 0.082, 0.108, 1
11674, -0.045, -0.122, 0.043, -0.414, 0.103, 0.084, 1
11694, -0.046, -0.029, -0.211, -0.433, 0.065, 0.1, 1
11714, -0.019, -0.062, -0.251, -0.302, 0.035, 0.07, 1
11734, -0.026, -0.085, -0.104, -0.312, 0.067, 0.046, 1
11754, -0.042, -0.023, -0.114, -0.302, 0.057, 0.047, 1
11774, -0.037, -0.052, -0.117, -0.257, 0.073, 0.077, 1
11794, -0.045, -0.026, -0.16, -0.185, 0.085, 0.094, 1
11814, 0.021, -0.214, -0.106, -0.158, 0.105, 0.098, 1
11834, 0.086, -0.09, -0.124, -0.252, 0.103, 0.049, 1
11854, -0.08, 0.054, -0.283, -0.267, 0.046, 0.04, 1
11874, -0.123, -0.043, -0.16, -0.207, 0.101, 0.04, 1
11894, -0.046, -0.09, 0.024, -0.257, 0.105, 0.031, 1
11914, -0.03, -0.007, -0.14, -0.202, 0.089, 0.05, 1
11934, 0.013, -0.008, -0.245, -0.095, 0.064, 0.079, 1
11954, -0.075, -0.104, -0.211, -0.053, 0.081, 0.074, 1
11974, -0.032, -0.141, -0.205, -0.084, 0.087, 0.051, 1
11994, 0.094, 0.024, -0.38, -0.061, 0.004, 0.031, 1
12014, -0.006, 0.044, -0.477, 0.002, -0.028, 0.071, 1
12034, -0.195, -0.013, -0.3, 0.013, 0.021, 0.075, 1
12054, -0.103, -0.107, -0.082, -0.039, 0.009, 0.065, 1
12074, -0.037, -0.023, -0.129, -0.014, -0.008, 0.051, 1
12094, 0.135, -0.068, -0.133, 0.003, -0.007, 0.106, 1
12114, 0.063, -0.037, -0.245, 0.022, 0.036, 0.191, 1
12134, -0.007, -0.006, -0.269, 0.069, 0.052, 0.204, 1
12154, 0.021, -0.05, 0.078, 0.001, 0.028, 0.227, 1
12174, -0.106, -0.107, 0.137, -0.098, 0.016, 0.21, 1
12194, -0.211, 0.12, -0.016, -0.106, 0.039, 0.173, 1
12214, -0.101, 0.211, -0.258, -0.014, 0.06, 0.177, 1
12234, 0.001, 0.085, -0.426, 0.084, 0.026, 0.245, 1
12254, -0.357, -0.731, -0.088, -0.071, 0.036, 0.179, 1
12274, -0.22, -0.467, -0.038, -0.251, 0.057, 0.17, 1
12294, -0.085, 0.281, -0.411, -0.19, 0.035, 0.094, 1
12314, -0.319, 0.262, -0.564, 0.036, 0.056, 0.07, 0
12334, -0.163, -0.446, -0.224, 0.015, 0.098, 0.097, 0
12354, -0.132, -0.566, -0.025, -0.24, 0.068, 0.142, 0
12374, -0.049, 0.078, -0.745, -0.005, -0.036, 0.156, 0
12394, -0.226, -0.192, -0.593, 0.167, -0.073, 0.138, 0
12414, -0.174, -0.208, -0.46, 0.182, 0.0, 0.128, 0
12434, -0.329, -0.405, -0.25, 0.069, 0.105, 0.104, 0
12454, -0.324, -0.168, -0.535, -0.067, 0.138, 0.015, 0
12474, -0.276, 0.117, -0.846, -0.127, 0.102, -0.029, 0
12494, -0.297, 0.429, -1.146, -0.012, 0.097, -0.018, 0
12514, -0.184, 0.179, -1.029, 0.235, 0.142, 0.022, 0
12534, -0.153, -0.122, -0.609, 0.308, 0.12, 0.034, 0
12554, -0.391, -0.011, -0.473, 0.222, 0.045, 0.001, 0
12574, -0.706, 0.053, -0.467, 0.222, 0.056, -0.032, 0
12594, -0.716, -0.045, -0.097, 0.22, 0.098, -0.162, 0
12614, -0.575, 0.172, 0.005, 0.097, 0.077, -0.238, 0
12634, -0.711, 0.26, 0.105, 0.099, 0.029, -0.285, 0
12654, -0.737, 0.282, 0.317, 0.117, 0.167, -0.318, 0
12674, -0.136, 0.241, 0.197, 0.145, 0.185, -0.383, 0
12694, 0.019, 0.027, 0.27, 0.16, 0.064, -0.439, 0
12714, -0.013, 0.036, 0.392, 0.143, 0.026, -0.477, 0
12734, 0.043, 0.042, 0.57, 0.144, 0.084, -0.497, 0
12754, 0.196, -0.133, 0.776, 0.089, 0.091, -0.545, 0
12774, 0.353, -0.044, 0.745, 0.047, 0.048, -0.522, 0
12794, 0.17, -0.174, 1.085, 0.069, 0.086, -0.493, 0
12814, 0.114, -0.1, 1.54, -0.036, 0.158, -0.515, 0
12834, 0.057, -0.106, 1.6, -0.252, 0.232, -0.582, 0
12854, 0.08, 0.137, 1.399, -0.235, 0.376, -0.576, 0
12874, 0.867, -0.202, 1.183, -0.237, 0.366, -0.592, 0
12894, 1.202, -0.473, 0.993, -0.389, 0.23, -0.605, 0
12914, 1.201, 0.062, 0.622, -0.344, 0.127, -0.516, 0
12934, 0.806, -0.157, 0.928, -0.277, 0.087, -0.469, 0
12954, 0.211, -0.194, 1.253, -0.268, 0.122, -0.577, 0
12974, 0.006, -0.007, 1.455, -0.265, 0.263, -0.557, 0
12994, 0.134, -0.322, 1.838, -0.362, 0.437, -0.614, 0
13014, 1.22, -0.758, 1.959, -0.671, 0.241, -0.648, 0
13034, 1.003, -0.358, 1.358, -0.796, 0.153, -0.627, 0
13054, 1.069, -0.352, 1.058, -0.745, 0.219, -0.563, 0
13074, 1.417, -0.644, 1.002, -0.773, 0.199, -0.539, 0
13094, 1.758, -0.521, 0.626, -0.819, 0.175, -0.414, 0
13114, 1.508, -0.338, 0.502, -0.777, 0.23, -0.361, 0
13134, 1.346, -0.093, 0.247, -0.709, 0.184, -0.325, 0
13154, 1.345, -0.43, 0.06, -0.726, 0.213, -0.237, 0
13174, 1.789, -0.515, -0.152, -0.854, 0.18, -0.144, 0
13194, 1.492, -0.182, -0.44, -0.876, 0.142, -0.085, 0
13214, 1.08, -0.069, -0.621, -0.787, 0.175, -0.057, 0
13234, 1.309, -0.255, -0.633, -0.729, 0.145, 0.018, 0
13254, 1.471, -0.358, -0.874, -0.806, 0.122, 0.105, 0
13274, 1.376, 0.057, -1.238, -0.798, 0.054, 0.169, 0
13294, 0.865, -0.294, -1.339, -0.817, 0.057, 0.273, 0
13314, 0.442, -0.304, -1.533, -0.893, 0.103, 0.181, 0
13334, 0.818, 0.181, -1.996, -0.819, 0.065, 0.208, 0
13354, 0.369, 0.466, -2.112, -0.703, -0.019, 0.452, 0
13374, 0.199, 0.496, -1.836, -0.601, 0.046, 0.547, 0
13394, 0.244, 0.331, -1.496, -0.596, 0.019, 0.584, 0
13414, -0.309, 0.246, -1.401, -0.563, -0.203, 0.557, 0
13434, -0.566, 0.197, -1.549, -0.47, -0.084, 0.618, 0
13454, -0.011, 0.493, -1.925, -0.406, 0.117, 0.724, 0
13474, 0.184, 0.173, -1.672, -0.326, 0.1, 0.74, 0
13494, -0.168, -0.362, -1.461, -0.335, -0.001, 0.761, 0
13514, -0.291, -0.319, -1.88, -0.372, 0.012, 0.8, 0
13534, -0.841, 0.101, -2.276, -0.37, 0.072, 0.835, 0
13554, -0.342, 0.51, -2.652, -0.299, 0.135, 0.826, 0
13574, -0.127, 0.584, -3.132, -0.075, -0.038, 0.869, 0
13594, -0.556, 0.41, -2.883, 0.198, -0.221, 0.855, 0
13614, -1.3, 0.376, -2.459, 0.237, -0.278, 0.893, 0
13634, -1.28, 0.331, -2.401, 0.183, -0.305, 0.872, 0
13654, -1.72, 0.691, -2.674, 0.177, -0.29, 0.875, 0
13674, -1.506, 0.634, -2.542, 0.322, -0.083, 0.806, 0
13694, -1.368, 0.442, -2.286, 0.412, -0.134, 0.757, 0
13714, -1.497, 0.607, -2.198, 0.437, -0.203, 0.729, 0
13734, -1.966, 0.5, -1.861, 0.563, -0.161, 0.744, 0
13754, -1.909, 0.483, -1.466, 0.651, -0.051, 0.649, 0
13774, -1.708, 0.459, -1.152, 0.692, -0.053, 0.56, 0
13794, -1.692, 0.659, -1.004, 0.743, -0.145, 0.475, 0
13814, -1.999, 0.69, -0.696, 0.901, -0.221, 0.356, 0
13834, -1.933, 0.545, -0.255, 0.91, -0.155, 0.294, 0
13854, -1.862, 0.397, 0.033, 0.883, -0.103, 0.22, 0
13874, -1.651, 0.221, 0.444, 0.784, -0.105, 0.144, 0
13894, -1.356, 0.166, 0.459, 0.743, -0.112, 0.055, 0
13914, -0.994, 0.021, 0.53, 0.744, -0.149, -0.014, 0
13934, -0.84, -0.011, 0.763, 0.656, -0.14, -0.01, 0
13954, -1.001, 0.247, 0.786, 0.695, -0.087, -0.022, 0
13974, -0.876, 0.103, 1.18, 0.695, -0.078, -0.108, 0
13994, -0.419, -0.152, 1.562, 0.568, -0.2, -0.157, 0
14014, -0.627, -0.051, 1.694, 0.485, -0.185, -0.169, 0
14034, -0.923, -0.054, 1.991, 0.458, -0.029, -0.244, 0
14054, -0.313, -0.349, 2.257, 0.329, -0.098, -0.317, 0
14074, -0.249, -0.274, 2.305, 0.227, -0.152, -0.387, 0
14094, -0.111, -0.439, 2.363, 0.13, -0.025, -0.426, 0
14114, 0.606, -0.512, 2.247, 0.023, -0.036, -0.455, 0
14134, 0.873, -0.495, 1.965, -0.092, -0.101, -0.455, 0
14154, 0.986, -0.266, 1.476, -0.103, -0.108, -0.411, 0
14174, 1.193, -0.314, 1.369, -0.158, -0.142, -0.398, 0
14194, 1.119, -0.244, 1.351, -0.273, -0.168, -0.383, 0
14214, 1.268, -0.075, 1.136, -0.348, -0.154, -0.377, 0
14234, 1.713, -0.123, 0.821, -0.359, -0.262, -0.404, 0
14254, 1.816, 0.044, 0.359, -0.324, -0.312, -0.328, 0
14274, 1.691, 0.074, 0.025, -0.171, -0.208, -0.213, 0
14294, 1.828, -0.13, 0.142, -0.212, -0.139, -0.1, 0
14314, 0.759, -0.319, 0.013, -0.386, 0.02, -0.045, 0
14334, 1.249, -0.045, -0.55, -0.494, 0.156, -0.032, 0
14354, 0.991, 0.302, -1.263, -0.35, 0.037, -0.056, 1
14374, 0.896, -0.091, -1.167, -0.072, -0.055, -0.035, 1
14394, 0.529, 0.034, -1.01, 0.106, -0.073, 0.039, 1
14414, 0.346, -0.403, -0.487, 0.14, -0.05, 0.083, 1
14434, 0.155, -0.493, -0.083, -0.047, -0.037, 0.1, 1
14454, -0.079, -0.143, -0.228, -0.19, -0.028, 0.093, 1
14474, -0.107, -0.107, -0.431, -0.128, -0.064, 0.048, 1
14494, -0.168, 0.043, -0.537, -0.059, -0.077, 0.053, 1
14514, -0.035, -0.08, -0.261, -0.032, 0.009, 0.076, 1
14534, -0.078, -0.079, -0.151, -0.076, 0.021, 0.089, 1
14554, -0.119, 0.011, -0.259, -0.078, 0.003, 0.083, 1
14574, -0.005, -0.013, -0.24, -0.083, 0.018, 0.061, 1
14594, 0.014, -0.034, -0.21, -0.113, -0.028, 0.054, 1
14614, -0.262, 0.085, -0.269, -0.068, -0.117, 0.007, 1
14634, -0.052, -0.164, -0.091, -0.017, -0.043, 0.012, 1
14654, 0.13, -0.307, -0.06, -0.083, 0.006, 0.057, 1
14674, 0.089, -0.272, -0.06, -0.134, -0.017, 0.089, 1
14694, -0.029, -0.074, -0.177, -0.172, -0.018, 0.096, 1
14714, -0.029, 0.042, -0.306, -0.117, -0.012, 0.081, 1
14734, -0.028, -0.013, -0.287, -0.056, 0.006, 0.08, 1
14754, 0.014, -0.046, -0.188, -0.092, 0.025, 0.059, 1
14774, 0.008, 0.001, -0.268, -0.139, 0.009, 0.059, 1
14794, -0.005, -0.056, -0.238, -0.084, 0.022, 0.064, 1
14814, -0.031, -0.084, -0.247, -0.054, -0.004, 0.043, 1
14834, 0.03, -0.052, -0.314, -0.032, 0.012, 0.042, 1
14854, 0.014, -0.049, -0.236, -0.072, 0.065, 0.066, 1
14874, -0.007, -0.027, -0.147, -0.105, 0.044, 0.062, 1
14894, -0.031, -0.007, -0.187, -0.127, 0.009, 0.067, 1
14914, -0.009, -0.012, -0.188, -0.119, 0.0, 0.07, 1
14934, -0.052, 0.01, -0.13, -0.11, 0.029, 0.062, 1
14954, -0.035, -0.005, -0.082, -0.069, 0.064, 0.06, 1
14974, 0.061, -0.117, -0.081, -0.066, 0.054, 0.059, 1
14994, 0.023, -0.035, -0.051, -0.097, 0.058, 0.072, 1
15014, -0.011, -0.003, -0.052, -0.101, 0.048, 0.062, 1
15034, -0.056, -0.016, -0.17, -0.066, 0.022, 0.05, 1
15054, -0.01, -0.064, -0.159, -0.044, 0.032, 0.045, 1
15074, 0.06, -0.141, -0.04, -0.067, 0.021, 0.047, 1
15094, 0.075, -0.106, -0.109, -0.091, 0.002, 0.049, 1
15114, 0.023, -0.115, -0.059, -0.12, 0.017, 0.076, 1
15134, -0.091, -0.018, -0.157, -0.102, 0.062, 0.079, 1
15154, -0.035, 0.002, -0.217, -0.078, 0.032, 0.056, 1
15174, 0.008, -0.013, -0.168, -0.069, -0.018, 0.05, 1
15194, -0.003, -0.041, -0.099, -0.084, 0.012, 0.059, 1
15214, -0.026, -0.053, -0.03, -0.108, 0.064, 0.084, 1
15234, 0.01, -0.031, -0.059, -0.102, 0.059, 0.083, 1
15254, -0.037, -0.024, -0.069, -0.139, 0.043, 0.062, 1
15274, -0.01, -0.017, -0.119, -0.114, 0.04, 0.065, 1
15294, 0.091, -0.118, -0.119, -0.111, 0.064, 0.096, 1
15314, -0.011, -0.06, -0.04, -0.177, 0.046, 0.104, 1
15334, -0.116, 0.071, -0.149, -0.175, 0.006, 0.086, 1
15354, -0.071, -0.04, -0.149, -0.116, 0.021, 0.083, 1
15374, -0.006, -0.118, -0.109, -0.13, 0.079, 0.105, 1
15394, 0.009, -0.019, -0.228, -0.148, 0.061, 0.097, 1
15414, -0.038, -0.009, -0.278, -0.124, 0.038, 0.112, 1
15434, -0.018, -0.037, -0.277, -0.11, 0.056, 0.097, 1
15454, -0.072, 0.059, -0.348, -0.094, 0.052, 0.084, 1
15474, -0.022, -0.009, -0.269, -0.033, 0.072, 0.078, 1
15494, 0.012, -0.04, -0.199, -0.097, 0.073, 0.047, 1
15514, -0.015, 0.034, -0.427, -0.04, -0.017, 0.028, 1
15534, -0.073, -0.256, -0.16, 0.042, -0.007, 0.07, 1
15554, -0.006, -0.178, 0.056, -0.108, 0.118, 0.095, 1
15574, 0.013, 0.032, -0.288, -0.141, 0.038, 0.069, 1
15594, 0.001, 0.009, -0.572, 0.004, -0.064, 0.061, 1
15614, -0.051, -0.309, -0.295, 0.085, -0.061, 0.077, 1
15634, -0.055, -0.211, -0.167, -0.066, 0.051, 0.097, 1
15654, -0.062, -0.041, -0.315, -0.184, 0.099, 0.106, 0
15674, -0.146, -0.091, -0.482, -0.097, 0.085, 0.081, 0
15694, -0.009, 0.007, -0.462, -0.021, 0.036, -0.03, 0
15714, -0.093, 0.083, -0.317, -0.086, 0.018, -0.019, 0
15734, -0.06, 0.228, -0.623, 0.059, -0.018, 0.012, 0
15754, 0.012, 0.116, -0.641, 0.529, -0.162, 0.058, 0
15774, -0.366, -0.913, 0.232, 0.223, 0.072, 0.056, 0
15794, -0.102, -0.619, 0.37, -0.144, 0.16, 0.056, 0
15814, -0.394, -0.079, -0.16, -0.105, 0.125, 0.03, 0
15834, -0.519, -0.179, -0.073, -0.086, 0.115, -0.014, 0
15854, -0.487, -0.095, -0.046, -0.043, 0.075, -0.034, 0
15874, -0.629, -0.186, 0.117, -0.075, 0.106, -0.015, 0
15894, -0.672, -0.04, 0.193, -0.073, 0.117, -0.069, 0
15914, -0.775, 0.061, 0.289, -0.009, 0.122, -0.139, 0
15934, -0.647, 0.108, 0.442, 0.086, 0.094, -0.206, 0
15954, -0.372, -0.051, 0.751, 0.094, 0.032, -0.252, 0
15974, -0.411, -0.095, 0.943, 0.014, 0.082, -0.269, 0
15994, -0.367, -0.201, 1.195, -0.087, 0.13, -0.347, 0
16014, -0.297, -0.137, 1.533, -0.182, 0.07, -0.449, 0
16034, -0.197, -0.037, 1.499, -0.289, 0.079, -0.502, 0
16054, 0.109, 0.143, 1.197, -0.257, 0.09, -0.521, 0
16074, 0.334, -0.103, 1.556, -0.331, 0.047, -0.594, 0
16094, 0.182, -0.091, 1.893, -0.458, 0.004, -0.624, 0
16114, 0.199, -0.143, 1.65, -0.612, 0.093, -0.712, 0
16134, 0.912, 0.011, 0.592, -0.593, 0.15, -0.717, 0
16154, 1.397, -0.155, 0.279, -0.55, 0.167, -0.702, 0
16174, 1.472, -0.112, 0.561, -0.549, 0.061, -0.685, 0
16194, 1.293, 0.207, 0.496, -0.49, 0.024, -0.657, 0
16214, 1.402, 0.068, 0.481, -0.47, 0.054, -0.648, 0
16234, 1.718, -0.105, 0.6, -0.538, 0.042, -0.558, 0
16254, 2.156, -0.054, 0.97, -0.616, 0.082, -0.529, 0
16274, 1.73, 0.244, 1.169, -0.623, 0.048, -0.477, 0
16294, 1.674, 0.326, 1.136, -0.75, 0.123, -0.406, 0
16314, 2.0, 0.177, 0.754, -0.825, 0.208, -0.315, 0
16334, 2.194, -0.176, 0.407, -0.896, 0.116, -0.247, 0
16354, 1.761, -0.148, 0.122, -0.998, 0.001, -0.202, 0
16374, 1.316, 0.235, -0.299, -0.999, 0.023, -0.155, 0
16394, 1.563, -0.208, -0.522, -0.959, 0.069, -0.105, 0
16414, 1.828, -0.374, -0.714, -1.097, 0.017, -0.02, 0
16434, 1.823, 0.055, -1.271, -1.206, -0.133, 0.026, 0
16454, 1.471, 0.092, -1.704, -1.076, -0.219, 0.205, 0
16474, 1.007, 0.053, -1.797, -0.943, -0.081, 0.386, 0
16494, 1.024, -0.042, -1.878, -0.885, 0.083, 0.418, 0
16514, 1.051, 0.029, -2.216, -0.808, -0.053, 0.39, 0
16534, 0.797, 0.115, -2.453, -0.725, -0.196, 0.48, 0
16554, 0.399, 0.068, -2.47, -0.633, -0.141, 0.643, 0
16574, 0.312, 0.054, -2.362, -0.516, -0.103, 0.704, 0
16594, 0.014, 0.154, -2.056, -0.51, -0.067, 0.731, 0
16614, -0.165, -0.173, -1.563, -0.494, -0.01, 0.792, 0
16634, -0.7, -0.06, -1.776, -0.401, 0.058, 0.915, 0
16654, -0.885, 0.085, -2.072, -0.289, 0.088, 0.842, 0
16674, -1.054, 0.494, -2.217, -0.28, 0.097, 0.722, 0
16694, -0.861, 0.548, -1.971, -0.257, 0.116, 0.685, 0
16714, -0.404, 0.221, -1.825, -0.2, -0.021, 0.682, 0
16734, -0.602, -0.032, -1.904, -0.109, -0.16, 0.676, 0
16754, -0.767, -0.272, -1.828, -0.103, -0.039, 0.709, 0
16774, -0.347, -0.16, -1.732, -0.15, -0.102, 0.758, 0
16794, -0.653, 0.019, -1.738, -0.029, -0.225, 0.819, 0
16814, -0.972, -0.09, -1.457, 0.039, -0.215, 0.799, 0
16834, -1.185, 0.306, -1.558, 0.18, -0.149, 0.795, 0
16854, -1.025, 0.062, -1.495, 0.252, -0.067, 0.795, 0
16874, -0.955, 0.17, -1.62, 0.262, -0.067, 0.855, 0
16894, -0.972, 0.431, -1.694, 0.357, -0.144, 0.861, 0
16914, -1.621, 0.531, -1.551, 0.459, -0.078, 0.784, 0
16934, -1.406, 0.548, -1.483, 0.549, -0.109, 0.722, 0
16954, -1.393, 0.356, -1.283, 0.467, -0.116, 0.704, 0
16974, -1.844, 0.451, -1.274, 0.461, -0.02, 0.633, 0
16994, -1.814, 0.59, -1.284, 0.522, 0.007, 0.541, 0
17014, -1.451, 0.522, -1.263, 0.563, -0.068, 0.473, 0
17034, -1.614, 0.591, -1.213, 0.634, -0.069, 0.413, 0
17054, -1.528, 0.46, -0.858, 0.665, -0.072, 0.345, 0
17074, -1.471, 0.591, -0.622, 0.75, -0.1, 0.244, 0
17094, -1.351, 0.446, -0.259, 0.786, -0.103, 0.165, 0
17114, -1.467, 0.499, 0.08, 0.819, -0.041, 0.071, 0
17134, -1.363, 0.424, 0.516, 0.824, 0.01, -0.021, 0
17154, -1.049, 0.23, 0.772, 0.786, 0.003, -0.097, 0
17174, -0.856, 0.105, 0.975, 0.714, 0.033, -0.15, 0
17194, -0.696, 0.061, 1.193, 0.582, 0.053, -0.199, 0
17214, -0.55, 0.264, 1.169, 0.51, -0.001, -0.324, 0
17234, 0.017, 0.116, 1.297, 0.45, -0.106, -0.347, 0
17254, 0.034, 0.011, 1.543, 0.469, -0.116, -0.36, 0
17274, 0.047, -0.212, 1.968, 0.484, -0.089, -0.4, 0
17294, 0.22, -0.255, 2.136, 0.357, -0.094, -0.464, 0
17314, 0.29, -0.267, 2.057, 0.211, -0.06, -0.477, 0
17334, 0.622, -0.366, 1.994, 0.101, -0.012, -0.533, 0
17354, 1.352, -0.521, 1.743, 0.009, -0.063, -0.621, 0
17374, 2.032, -0.567, 1.136, -0.097, -0.163, -0.579, 0
17394, 2.337, -0.518, 0.833, -0.135, -0.163, -0.485, 0
17414, 1.848, -0.337, 1.0, -0.095, -0.175, -0.392, 0
17434, 1.533, -0.461, 1.237, -0.088, -0.114, -0.336, 0
17454, 1.907, -0.523, 0.952, -0.157, -0.119, -0.32, 0
17474, 1.817, -0.625, 0.676, -0.24, -0.156, -0.279, 0
17494, 1.589, -0.495, 0.292, -0.242, -0.109, -0.216, 0
17514, 1.479, -0.39, -0.013, -0.205, -0.061, -0.154, 0
17534, 1.359, -0.278, -0.231, -0.249, -0.024, -0.098, 0
17554, 1.259, -0.336, -0.334, -0.288, 0.023, -0.029, 0
17574, 0.856, -0.108, -0.585, -0.328, 0.054, 0.029, 0
17594, 0.749, -0.197, -0.659, -0.26, 0.059, 0.034, 0
17614, 0.37, -0.15, -0.693, -0.23, 0.021, 0.064, 0
17634, 0.088, -0.146, -0.731, -0.174, 0.058, 0.091, 0
17654, 0.119, -0.171, -0.711, -0.119, 0.076, 0.105, 0
17674, 0.014, -0.113, -0.531, -0.147, 0.044, 0.105, 0
17694, -0.089, -0.01, -0.53, -0.177, 0.005, 0.13, 0
17714, -0.312, 0.104, -0.586, -0.003, -0.042, 0.119, 0
17734, -0.307, 0.105, -0.542, 0.182, -0.048, 0.113, 1
17754, -0.173, -0.107, -0.385, 0.297, -0.066, 0.093, 1
17774, -0.203, -0.218, 0.052, 0.139, -0.01, 0.103, 1
17794, -0.158, -0.459, 0.202, -0.105, 0.043, 0.125, 1
17814, -0.131, -0.102, -0.061, -0.158, 0.011, 0.113, 1
17834, -0.172, -0.039, -0.266, -0.059, -0.031, 0.069, 1
17854, -0.034, -0.081, -0.273, -0.021, -0.024, 0.068, 1
17874, -0.016, -0.033, -0.282, -0.051, 0.05, 0.098, 1
17894, 0.027, -0.095, -0.192, -0.118, 0.038, 0.103, 1
17914, -0.07, -0.024, -0.193, -0.149, 0.011, 0.072, 1
17934, -0.011, 0.06, -0.324, -0.059, -0.023, 0.041, 1
17954, 0.027, -0.102, -0.213, -0.059, 0.006, 0.059, 1
17974, -0.047, -0.069, -0.104, -0.086, 0.045, 0.059, 1
17994, 0.037, -0.076, -0.093, -0.095, 0.033, 0.039, 1
18014, 0.04, -0.061, -0.171, -0.124, 0.045, 0.056, 1
18034, 0.069, 0.003, -0.193, -0.1, 0.035, 0.045, 1
18054, 0.066, -0.045, -0.154, -0.097, -0.015, 0.048, 1
18074, -0.012, -0.03, -0.163, -0.089, -0.002, 0.06, 1
18094, -0.045, -0.119, 0.024, -0.125, 0.07, 0.08, 1
18114, 0.013, -0.014, -0.076, -0.145, 0.027, 0.064, 1
18134, -0.012, 0.059, -0.235, -0.105, -0.023, 0.056, 1
18154, -0.108, 0.034, -0.148, -0.056, 0.015, 0.07, 1
18174, -0.055, -0.108, -0.018, -0.042, 0.061, 0.075, 1
18194, 0.039, -0.116, 0.051, -0.141, 0.015, 0.06, 1
18214, -0.061, 0.002, -0.195, -0.139, 0.006, 0.059, 1
18234, 0.017, -0.032, -0.204, -0.105, 0.005, 0.053, 1
18254, -0.003, -0.012, -0.234, -0.101, 0.037, 0.071, 1
18274, -0.012, -0.052, -0.174, -0.12, 0.061, 0.087, 1
18294, -0.068, 0.018, -0.255, -0.135, 0.025, 0.067, 1
18314, -0.013, 0.024, -0.326, -0.094, -0.003, 0.045, 1
18334, 0.003, -0.033, -0.226, -0.048, 0.017, 0.06, 1
18354, 0.017, -0.189, -0.057, -0.06, 0.065, 0.073, 1
18374, -0.026, -0.14, -0.075, -0.102, 0.061, 0.061, 1
18394, -0.017, -0.031, -0.192, -0.13, 0.05, 0.05, 1
18414, -0.009, -0.005, -0.244, -0.12, 0.07, 0.054, 1
18434, 0.014, -0.003, -0.285, -0.095, 0.052, 0.044, 1
18454, -0.069, -0.029, -0.244, -0.058, 0.021, 0.053, 1
18474, -0.007, -0.088, -0.085, -0.073, 0.037, 0.061, 1
18494, -0.005, -0.038, -0.066, -0.125, 0.033, 0.071, 1
18514, 0.03, -0.028, -0.057, -0.133, 0.01, 0.058, 1
18534, -0.058, -0.06, -0.046, -0.094, -0.03, 0.053, 1
18554, -0.071, -0.052, 0.003, -0.103, 0.043, 0.069, 1
18574, 0.023, 0.0, -0.058, -0.128, 0.073, 0.071, 1
18594, -0.003, -0.027, -0.059, -0.141, 0.025, 0.061, 1
18614, -0.056, -0.037, -0.137, -0.138, 0.01, 0.054, 1
18634, -0.012, -0.047, -0.214, -0.103, 0.03, 0.061, 1
18654, 0.005, -0.035, -0.194, -0.124, 0.039, 0.063, 1
18674, 0.039, -0.007, -0.294, -0.12, 0.005, 0.067, 1
18694, -0.004, -0.009, -0.246, -0.105, 0.015, 0.091, 1
18714, -0.043, -0.023, -0.235, -0.084, 0.012, 0.076, 1
18734, -0.027, 0.0, -0.226, -0.083, 0.004, 0.078, 1
18754, 0.0, -0.132, -0.166, -0.119, 0.04, 0.081, 1
18774, 0.079, -0.097, -0.146, -0.152, 0.028, 0.082, 1
18794, 0.008, -0.065, -0.165, -0.152, 0.031, 0.079, 1
18814, -0.017, -0.031, -0.067, -0.128, 0.025, 0.084, 1
18834, -0.034, -0.051, -0.017, -0.135, 0.032, 0.09, 1
18854, -0.002, -0.024, -0.127, -0.163, 0.042, 0.092, 1
18874, -0.047, 0.121, -0.366, -0.109, 0.047, 0.103, 1
18894, -0.004, 0.035, -0.399, -0.058, 0.015, 0.086, 1
18914, -0.01, 0.004, -0.261, -0.041, -0.028, 0.07, 1
18934, -0.03, -0.077, -0.102, -0.054, -0.045, 0.055, 1
18954, -0.052, -0.097, -0.119, -0.082, -0.045, 0.051, 0
18974, -0.326, 0.062, -0.043, -0.089, 0.022, 0.043, 0
18994, -0.005, -0.035, -0.159, -0.074, 0.032, 0.054, 0
19014, 0.045, -0.031, -0.275, 0.006, 0.007, 0.045, 0
19034, 0.019, 0.039, -0.449, 0.167, -0.067, 0.043, 0
19054, -0.089, -0.23, -0.152, 0.06, 0.026, 0.093, 0
19074, -0.185, -0.159, -0.151, -0.092, 0.114, 0.087, 0
19094, -0.1, -0.023, -0.338, -0.103, 0.047, 0.057, 0
19114, -0.371, 0.007, -0.428, -0.075, 0.069, 0.036, 0
19134, -0.222, -0.027, -0.42, -0.078, 0.064, 0.038, 0
19154, -0.298, 0.048, -0.442, -0.048, 0.067, 0.027, 0
19174, -0.254, -0.097, -0.316, -0.047, 0.078, 0.018, 0
19194, -0.406, 0.112, -0.192, 0.02, 0.06, -0.075, 0
19214, -0.645, 0.018, 0.108, 0.069, 0.017, -0.127, 0
19234, -0.681, 0.022, 0.458, 0.027, 0.086, -0.162, 0
19254, -0.43, 0.027, 0.65, 0.0, 0.073, -0.237, 0
19274, -0.387, 0.008, 0.792, -0.032, 0.031, -0.274, 0
19294, -0.268, -0.138, 1.062, -0.08, 0.081, -0.315, 0
19314, -0.166, 0.089, 1.144, -0.153, 0.072, -0.361, 0
19334, -0.169, 0.054, 1.382, -0.145, 0.083, -0.405, 0
19354, 0.108, -0.109, 1.461, -0.245, 0.119, -0.5, 0
19374, 0.381, -0.098, 1.17, -0.326, 0.064, -0.555, 0
19394, 0.324, -0.107, 1.085, -0.365, 0.104, -0.544, 0
19414, 0.32, -0.048, 1.301, -0.362, 0.152, -0.581, 0
19434, 0.358, -0.163, 1.39, -0.411, 0.171, -0.594, 0
19454, 0.579, -0.15, 1.318, -0.527, 0.181, -0.628, 0
19474, 0.906, -0.06, 0.966, -0.61, 0.204, -0.645, 0
19494, 1.304, -0.079, 0.819, -0.579, 0.189, -0.627, 0
19514, 1.245, -0.063, 1.052, -0.575, 0.176, -0.585, 0
19534, 1.235, -0.078, 1.143, -0.626, 0.235, -0.564, 0
19554, 2.044, -0.028, 0.65, -0.709, 0.223, -0.587, 0
19574, 2.381, -0.035, 0.4, -0.709, 0.078, -0.519, 0
19594, 2.196, -0.216, 0.609, -0.717, 0.018, -0.355, 0
19614, 1.63, -0.208, 0.686, -0.745, 0.034, -0.241, 0
19634, 1.533, -0.215, 0.403, -0.835, 0.093, -0.196, 0
19654, 1.551, 0.004, -0.139, -0.855, 0.041, -0.117, 0
19674, 1.493, -0.068, -0.238, -0.784, -0.039, -0.042, 0
19694, 1.106, -0.367, -0.26, -0.833, -0.018, 0.019, 0
19714, 0.98, -0.41, -0.482, -0.886, 0.049, 0.069, 0
19734, 1.055, -0.138, -0.673, -0.902, 0.088, 0.141, 0
19754, 1.219, 0.011, -1.07, -0.831, 0.017, 0.175, 0
19774, 1.261, -0.192, -1.409, -0.791, -0.069, 0.268, 0
19794, 1.117, -0.424, -1.565, -0.789, -0.095, 0.35, 0
19814, 0.873, -0.014, -1.722, -0.746, -0.108, 0.486, 0
19834, 0.303, 0.116, -1.735, -0.642, -0.044, 0.53, 0
19854, 0.419, -0.366, -1.696, -0.653, -0.099, 0.56, 0
19874, 0.248, -0.464, -1.937, -0.667, -0.158, 0.596, 0
19894, -0.017, 0.056, -2.271, -0.571, -0.14, 0.66, 0
19914, -0.339, 0.65, -2.263, -0.387, -0.083, 0.698, 0
19934, -0.368, 0.639, -1.694, -0.26, -0.111, 0.65, 0
19954, -0.303, 0.181, -1.112, -0.256, -0.182, 0.638, 0
19974, -0.677, -0.088, -0.898, -0.313, -0.078, 0.631, 0
19994, -0.328, 0.348, -1.174, -0.296, 0.012, 0.78, 0
20014, -0.194, 0.188, -1.364, -0.232, -0.025, 0.797, 0
20034, -0.174, 0.02, -1.315, -0.233, -0.067, 0.841, 0
20054, -0.388, 0.002, -1.405, -0.222, -0.045, 0.825, 0
20074, -0.406, 0.313, -1.641, -0.151, -0.064, 0.793, 0
20094, -0.567, 0.387, -1.61, -0.063, -0.08, 0.875, 0
20114, -0.656, 0.194, -1.475, -0.01, -0.063, 0.893, 0
20134, -0.947, 0.262, -1.631, 0.065, -0.03, 0.805, 0
20154, -0.798, 0.504, -1.968, 0.039, -0.038, 0.761, 0
20174, -0.878, 0.37, -2.139, 0.12, -0.111, 0.803, 0
20194, -1.051, 0.448, -2.255, 0.232, -0.108, 0.789, 0
20214, -1.169, 0.576, -2.113, 0.35, -0.108, 0.749, 0
20234, -1.337, 0.588, -1.82, 0.453, -0.172, 0.684, 0
20254, -1.433, 0.545, -1.487, 0.499, -0.205, 0.615, 0
20274, -1.17, 0.365, -1.271, 0.529, -0.166, 0.551, 0
20294, -1.332, 0.448, -1.156, 0.559, -0.128, 0.532, 0
20314, -1.146, 0.503, -0.954, 0.613, -0.076, 0.444, 0
20334, -1.071, 0.44, -0.761, 0.667, -0.128, 0.362, 0
20354, -0.979, 0.207, -0.439, 0.703, -0.145, 0.283, 0
20374, -1.079, 0.26, -0.232, 0.659, -0.103, 0.243, 0
20394, -0.938, 0.394, -0.215, 0.676, -0.067, 0.175, 0
20414, -0.856, 0.388, -0.122, 0.675, -0.065, 0.136, 0
20434, -0.7, 0.209, 0.097, 0.701, -0.11, 0.058, 0
20454, -0.809, 0.095, 0.405, 0.695, -0.102, 0.013, 0
20474, -0.687, 0.107, 0.59, 0.66, -0.023, -0.033, 0
20494, -0.346, 0.173, 0.573, 0.627, -0.05, -0.108, 0
20514, -0.323, 0.156, 0.622, 0.6, -0.072, -0.16, 0
20534, -0.151, 0.011, 0.937, 0.602, -0.069, -0.238, 0
20554, 0.036, -0.028, 1.179, 0.549, -0.059, -0.301, 0
20574, 0.097, -0.074, 1.26, 0.439, -0.034, -0.315, 0
20594, 0.148, -0.064, 1.232, 0.378, -0.012, -0.358, 0
20614, 0.377, -0.11, 1.362, 0.389, -0.05, -0.405, 0
20634, 0.331, -0.504, 1.649, 0.271, -0.108, -0.455, 0
20654, 0.574, -0.434, 1.588, 0.109, -0.074, -0.477, 0
20674, 0.608, -0.158, 1.26, 0.117, -0.024, -0.488, 0
20694, 0.775, -0.242, 1.286, 0.152, 0.001, -0.524, 0
20714, 1.012, -0.486, 1.389, 0.037, 0.007, -0.499, 0
20734, 1.284, -0.441, 1.195, -0.088, 0.008, -0.448, 0
20754, 1.417, -0.452, 1.019, -0.119, -0.04, -0.412, 0
20774, 1.469, -0.518, 0.892, -0.153, -0.072, -0.381, 0
20794, 1.517, -0.437, 0.568, -0.136, -0.059, -0.357, 0
20814, 1.459, -0.429, 0.43, -0.155, -0.017, -0.313, 0
20834, 1.51, -0.481, 0.321, -0.171, -0.026, -0.253, 0
20854, 1.386, -0.382, 0.142, -0.189, 0.012, -0.186, 0
20874, 1.327, -0.069, -0.116, -0.163, 0.01, -0.133, 0
20894, 1.08, -0.109, -0.228, -0.139, 0.019, -0.075, 0
20914, 0.909, -0.283, -0.144, -0.191, 0.039, -0.015, 0
20934, 0.74, -0.33, -0.159, -0.24, 0.039, 0.031, 0
20954, 0.456, -0.274, -0.223, -0.254, 0.042, 0.065, 0
20974, 0.184, -0.228, -0.471, -0.227, 0.051, 0.078, 0
20994, 0.031, -0.026, -0.589, -0.167, 0.084, 0.093, 0
21014, 0.008, -0.009, -0.558, -0.117, 0.077, 0.116, 0
21034, -0.048, -0.122, -0.436, -0.145, 0.049, 0.139, 0
21054, -0.181, -0.045, -0.423, -0.107, 0.026, 0.138, 0
21074, -0.136, -0.012, -0.418, -0.024, 0.005, 0.137, 0
21094, -0.16, 0.088, -0.589, 0.145, -0.064, 0.088, 1
21114, -0.169, 0.038, -0.563, 0.22, -0.052, 0.089, 1
21134, -0.182, -0.793, 0.341, -0.187, 0.045, 0.134, 1
21154, -0.39, -0.002, -0.15, -0.279, 0.04, 0.114, 1
21174, -0.303, 0.074, -0.347, -0.114, -0.02, 0.041, 1
21194, -0.251, -0.23, -0.137, -0.022, 0.014, 0.055, 1
21214, -0.036, -0.373, 0.091, -0.112, 0.072, 0.072, 1
21234, -0.025, -0.14, -0.113, -0.199, 0.049, 0.08, 1
21254, 0.0, -0.003, -0.332, -0.165, 0.007, 0.064, 1
21274, -0.025, -0.021, -0.33, -0.062, -0.04, 0.047, 1
21294, 0.058, -0.151, -0.092, -0.05, -0.009, 0.047, 1
21314, 0.112, -0.152, -0.1, -0.094, -0.006, 0.053, 1
21334, 0.062, -0.052, -0.219, -0.118, -0.003, 0.056, 1
21354, 0.014, -0.019, -0.257, -0.069, -0.012, 0.048, 1
21374, 0.0, -0.021, -0.119, -0.07, 0.009, 0.054, 1
21394, 0.024, -0.01, -0.179, -0.092, 0.0, 0.058, 1
21414, -0.035, -0.033, -0.129, -0.097, 0.003, 0.069, 1
21434, -0.021, -0.033, -0.079, -0.126, 0.036, 0.076, 1
21454, -0.049, 0.012, -0.159, -0.114, 0.012, 0.062, 1
21474, -0.026, -0.013, -0.111, -0.094, 0.008, 0.048, 1
21494, -0.048, 0.0, -0.181, -0.108, 0.037, 0.061, 1
21514, -0.001, -0.02, -0.201, -0.13, 0.065, 0.064, 1
21534, 0.014, -0.005, -0.263, -0.123, 0.046, 0.045, 1
21554, 0.058, -0.09, -0.241, -0.078, -0.001, 0.034, 1
21574, 0.032, -0.134, -0.16, -0.067, 0.003, 0.049, 1
21594, -0.008, -0.079, -0.08, -0.115, 0.028, 0.048, 1
21614, -0.012, 0.005, -0.161, -0.119, 0.026, 0.04, 1
21634, 0.03, -0.001, -0.242, -0.075, 0.026, 0.037, 1
21654, 0.078, -0.055, -0.271, -0.047, -0.001, 0.062, 1
21674, -0.005, -0.139, -0.17, -0.084, 0.0, 0.087, 1
21694, -0.083, -0.062, -0.139, -0.118, 0.034, 0.095, 1
21714, -0.071, 0.035, -0.18, -0.082, 0.015, 0.072, 1
21734, -0.116, 0.02, -0.229, -0.06, 0.021, 0.056, 1
21754, -0.034, -0.051, -0.149, -0.094, 0.041, 0.062, 1
21774, -0.007, -0.021, -0.159, -0.125, 0.049, 0.063, 1
21794, 0.032, -0.054, -0.188, -0.108, 0.012, 0.05, 1
21814, -0.003, -0.03, -0.255, -0.061, 0.015, 0.054, 1
21834, -0.002, -0.073, -0.146, -0.081, 0.061, 0.08, 1
21854, 0.014, -0.047, -0.087, -0.118, 0.051, 0.086, 1
21874, -0.081, 0.044, -0.118, -0.119, 0.012, 0.066, 1
21894, -0.021, 0.012, -0.13, -0.109, 0.004, 0.051, 1
21914, 0.006, -0.005, -0.21, -0.07, 0.028, 0.062, 1
21934, -0.017, -0.058, -0.041, -0.096, 0.058, 0.069, 1
21954, -0.028, -0.01, -0.072, -0.121, 0.028, 0.048, 1
21974, -0.048, 0.0, -0.21, -0.098, 0.031, 0.042, 1
21994, 0.112, -0.084, -0.18, -0.078, 0.026, 0.05, 1
22014, 0.088, -0.151, -0.159, -0.098, 0.023, 0.064, 1
22034, 0.025, -0.072, -0.198, -0.124, 0.034, 0.077, 1
22054, -0.036, 0.0, -0.239, -0.129, 0.05, 0.083, 1
22074, -0.006, 0.001, -0.211, -0.084, 0.025, 0.062, 1
22094, -0.002, -0.128, -0.16, -0.11, 0.029, 0.077, 1
22114, 0.033, -0.082, -0.081, -0.132, 0.042, 0.075, 1
22134, -0.079, 0.017, -0.132, -0.138, 0.022, 0.07, 1
22154, -0.03, -0.114, -0.041, -0.1, 0.029, 0.07, 1
22174, -0.005, -0.119, -0.068, -0.109, 0.027, 0.065, 1
22194, 0.014, -0.062, -0.079, -0.176, 0.044, 0.072, 1
22214, -0.109, 0.097, -0.269, -0.237, 0.059, 0.117, 1
22234, -0.111, 0.132, -0.431, -0.171, 0.073, 0.101, 1
22254, 0.061, 0.152, -0.496, -0.097, -0.009, 0.031, 1
22274, -0.087, 0.007, -0.533, 0.018, -0.16, 0.01, 1
22294, -0.115, -0.223, -0.146, -0.006, -0.069, 0.025, 0
22314, -0.034, -0.438, -0.328, -0.036, 0.01, 0.059, 0
22334, -0.087, -0.446, -0.051, -0.079, 0.039, 0.036, 0
22354, 0.016, -0.052, -0.286, -0.207, 0.07, 0.031, 0
22374, -0.028, 0.051, -0.506, -0.105, 0.027, 0.045, 0
22394, -0.034, 0.015, -0.562, 0.078, 0.018, 0.062, 0
22414, -0.076, -0.209, -0.351, 0.133, 0.051, 0.073, 0
22434, -0.134, -0.182, -0.309, 0.054, 0.078, 0.078, 0
22454, -0.266, -0.136, -0.23, -0.045, 0.063, 0.065, 0
22474, -0.494, 0.14, -0.448, -0.072, 0.039, 0.041, 0
22494, -0.573, 0.309, -0.49, -0.002, 0.055, 0.005, 0
22514, -0.608, 0.165, -0.236, 0.106, 0.065, -0.011, 0
22534, -0.539, 0.073, 0.006, 0.115, 0.044, -0.049, 0
22554, -0.639, -0.034, 0.22, 0.072, 0.062, -0.078, 0
22574, -0.408, -0.075, 0.404, 0.018, 0.067, -0.211, 0
22594, -0.303, -0.083, 0.539, -0.03, 0.055, -0.263, 0
22614, -0.175, -0.191, 0.616, -0.068, 0.099, -0.29, 0
22634, -0.051, -0.177, 0.676, -0.124, 0.125, -0.294, 0
22654, 0.08, -0.047, 0.64, -0.111, 0.109, -0.323, 0
22674, -0.049, -0.051, 0.864, -0.1, 0.125, -0.311, 0
22694, -0.183, -0.006, 1.282, -0.119, 0.116, -0.342, 0
22714, -0.173, 0.081, 1.521, -0.21, 0.092, -0.411, 0
22734, -0.062, -0.048, 1.632, -0.295, 0.106, -0.449, 0
22754, 0.296, -0.168, 1.791, -0.388, 0.023, -0.494, 0
22774, 0.41, -0.222, 1.575, -0.474, -0.032, -0.511, 0
22794, 0.61, -0.264, 1.427, -0.508, -0.02, -0.537, 0
22814, 0.881, -0.263, 1.491, -0.552, -0.089, -0.543, 0
22834, 0.53, -0.288, 1.799, -0.629, -0.011, -0.518, 0
22854, 0.305, -0.267, 2.041, -0.768, 0.119, -0.541, 0
22874, 0.508, 0.042, 1.734, -0.839, 0.13, -0.598, 0
22894, 0.563, 0.239, 1.354, -0.78, 0.173, -0.598, 0
22914, 1.245, -0.155, 1.307, -0.86, 0.174, -0.591, 0
22934, 1.512, -0.016, 1.125, -0.916, 0.156, -0.575, 0
22954, 1.752, 0.097, 0.798, -0.991, 0.204, -0.515, 0
22974, 1.881, 0.258, 0.267, -1.039, 0.218, -0.448, 0
22994, 1.804, 0.475, -0.124, -1.033, 0.191, -0.44, 0
23014, 1.741, 0.429, -0.345, -1.042, 0.197, -0.358, 0
23034, 1.923, 0.231, -0.708, -1.084, 0.188, -0.321, 0
23054, 2.349, 0.025, -1.247, -1.064, 0.116, -0.078, 0
23074, 2.177, 0.114, -1.847, -1.049, 0.133, 0.033, 0
23094, 1.997, 0.365, -2.282, -1.024, 0.058, 0.056, 0
23114, 2.104, 0.569, -2.8, -0.934, -0.082, 0.108, 0
23134, 1.778, 0.233, -2.702, -0.789, -0.221, 0.263, 0
23154, 1.118, 0.112, -2.501, -0.693, -0.271, 0.428, 0
23174, 0.691, 0.236, -2.287, -0.587, -0.243, 0.53, 0
23194, 0.417, 0.403, -1.917, -0.458, -0.255, 0.571, 0
23214, 0.209, 0.176, -1.378, -0.403, -0.303, 0.584, 0
23234, 0.151, 0.206, -1.244, -0.436, -0.285, 0.624, 0
23254, 0.203, 0.313, -1.293, -0.318, -0.25, 0.744, 0
23274, -0.304, 0.332, -1.261, -0.21, -0.146, 0.813, 0
23294, -0.313, 0.646, -1.334, -0.1, -0.116, 0.712, 0
23314, -0.443, 0.496, -1.164, -0.076, -0.135, 0.693, 0
23334, 0.046, -0.355, -0.95, -0.164, -0.124, 0.795, 0
23354, 0.305, -0.805, -1.488, -0.362, -0.097, 1.03, 0
23374, 0.023, -0.046, -2.494, -0.353, -0.096, 1.13, 0
23394, -0.098, 0.496, -2.668, -0.025, -0.337, 1.021, 0
23414, -0.859, 0.299, -2.088, 0.126, -0.563, 1.04, 0
23434, -1.666, 0.053, -1.716, 0.174, -0.468, 1.155, 0
23454, -1.759, -0.148, -1.564, 0.19, -0.24, 1.156, 0
23474, -1.877, 0.387, -1.766, 0.145, -0.142, 1.064, 0
23494, -1.844, 0.575, -1.796, 0.27, -0.153, 0.948, 0
23514, -1.921, 0.457, -1.748, 0.408, -0.131, 0.921, 0
23534, -1.937, 0.16, -1.521, 0.461, 0.028, 0.891, 0
23554, -1.803, 0.409, -1.488, 0.398, 0.01, 0.803, 0
23574, -1.817, 0.542, -1.556, 0.537, -0.099, 0.703, 0
23594, -2.14, 0.434, -1.363, 0.667, -0.04, 0.631, 0
23614, -1.914, 0.337, -1.114, 0.675, -0.007, 0.546, 0
23634, -1.812, 0.469, -1.052, 0.725, -0.05, 0.467, 0
23654, -1.871, 0.486, -0.737, 0.763, -0.004, 0.423, 0
23674, -1.825, 0.594, -0.407, 0.773, 0.029, 0.31, 0
23694, -1.772, 0.609, -0.247, 0.772, 0.018, 0.212, 0
23714, -1.56, 0.489, -0.041, 0.724, 0.02, 0.17, 0
23734, -1.312, 0.367, 0.151, 0.714, 0.002, 0.133, 0
23754, -1.328, 0.322, 0.246, 0.745, -0.026, 0.0, 0
23774, -1.168, 0.355, 0.485, 0.769, -0.066, -0.079, 0
23794, -1.172, 0.246, 0.73, 0.723, -0.065, -0.147, 0
23814, -1.083, 0.169, 0.981, 0.626, -0.032, -0.216, 0
23834, -0.77, 0.269, 1.001, 0.596, -0.025, -0.323, 0
23854, -0.332, 0.113, 1.068, 0.578, -0.112, -0.4, 0
23874, -0.3, 0.059, 1.212, 0.516, -0.078, -0.457, 0
23894, -0.137, 0.031, 1.352, 0.451, 0.061, -0.441, 0
23914, 0.188, -0.042, 1.459, 0.364, 0.057, -0.464, 0
23934, 0.288, -0.066, 1.302, 0.346, -0.025, -0.544, 0
23954, 0.247, -0.091, 1.34, 0.296, 0.001, -0.58, 0
23974, 0.435, -0.217, 1.437, 0.211, 0.025, -0.594, 0
23994, 0.774, -0.264, 1.256, 0.145, -0.014, -0.596, 0
24014, 0.953, -0.33, 1.024, 0.089, -0.001, -0.598, 0
24034, 1.099, -0.351, 1.017, 0.034, 0.006, -0.58, 0
24054, 1.445, -0.581, 0.999, -0.012, -0.052, -0.546, 0
24074, 1.578, -0.558, 0.814, -0.053, -0.071, -0.497, 0
24094, 1.48, -0.459, 0.686, -0.045, -0.055, -0.426, 0
24114, 1.418, -0.519, 0.823, -0.072, -0.043, -0.387, 0
24134, 1.34, -0.428, 0.645, -0.133, -0.112, -0.37, 0
24154, 1.208, -0.494, 0.526, -0.16, -0.083, -0.302, 0
24174, 1.145, -0.394, 0.325, -0.244, 0.004, -0.224, 0
24194, 1.095, -0.413, 0.075, -0.259, 0.037, -0.193, 0
24214, 1.058, -0.318, -0.283, -0.263, 0.016, -0.148, 0
24234, 0.993, -0.26, -0.515, -0.248, 0.051, -0.072, 0
24254, 0.629, -0.205, -0.66, -0.249, 0.075, -0.008, 0
24274, 0.445, -0.245, -0.666, -0.212, 0.054, 0.011, 0
24294, 0.175, -0.137, -0.707, -0.199, -0.002, 0.032, 0
24314, 0.016, -0.069, -0.654, -0.142, -0.007, 0.068, 0
24334, -0.132, -0.137, -0.501, -0.106, 0.021, 0.121, 0
24354, -0.316, -0.185, -0.484, -0.006, 0.004, 0.12, 0
24374, -0.16, -0.048, -0.429, 0.007, -0.012, 0.073, 0
24394, -0.231, -0.128, -0.384, -0.004, -0.012, 0.087, 0
24414, -0.412, -0.109, -0.341, -0.061, 0.037, 0.11, 1
24434, -0.248, -0.105, -0.297, 0.003, 0.004, 0.064, 1
24454, -0.277, -0.065, -0.057, 0.014, -0.035, 0.014, 1
24474, -0.16, -0.221, 0.082, -0.095, 0.032, 0.072, 1
24494, -0.182, -0.223, 0.026, -0.148, 0.055, 0.087, 1
24514, -0.071, -0.066, -0.207, -0.135, 0.045, 0.052, 1
24534, 0.13, -0.063, -0.306, -0.103, -0.092, 0.044, 1
24554, -0.147, -0.075, -0.235, -0.1, -0.048, 0.07, 1
24574, -0.088, -0.093, -0.135, -0.081, 0.003, 0.071, 1
24594, 0.016, -0.061, -0.124, -0.072, -0.032, 0.053, 1
24614, 0.019, -0.012, -0.212, -0.075, -0.038, 0.039, 1
24634, 0.015, -0.07, -0.201, -0.097, -0.019, 0.062, 1
24654, -0.016, -0.026, -0.211, -0.108, 0.041, 0.084, 1
24674, 0.011, -0.019, -0.173, -0.111, 0.028, 0.068, 1
24694, -0.022, -0.005, -0.144, -0.113, 0.021, 0.054, 1
24714, -0.028, -0.019, -0.135, -0.125, 0.071, 0.058, 1
24734, 0.075, -0.019, -0.284, -0.121, 0.08, 0.06, 1
24754, 0.068, 0.016, -0.307, -0.105, 0.031, 0.054, 1
24774, -0.006, 0.006, -0.278, -0.053, -0.001, 0.044, 1
24794, -0.003, -0.137, -0.177, -0.045, 0.003, 0.062, 1
24814, -0.04, -0.093, -0.067, -0.069, 0.021, 0.073, 1
24834, -0.068, -0.019, -0.037, -0.117, 0.041, 0.069, 1
24854, -0.042, 0.04, -0.186, -0.07, -0.005, 0.024, 1
24874, 0.003, -0.086, -0.145, -0.064, 0.004, 0.022, 1
24894, 0.117, -0.099, -0.086, -0.083, 0.023, 0.039, 1
24914, 0.024, -0.055, -0.067, -0.125, 0.037, 0.078, 1
24934, -0.015, 0.007, -0.098, -0.108, 0.044, 0.069, 1
24954, 0.011, -0.008, -0.119, -0.061, 0.012, 0.061, 1
24974, -0.009, -0.106, -0.039, -0.083, 0.026, 0.064, 1
24994, 0.001, -0.031, -0.078, -0.135, 0.031, 0.067, 1
25014, -0.035, -0.014, -0.196, -0.111, 0.042, 0.065, 1
25034, 0.03, -0.116, -0.146, -0.097, 0.047, 0.064, 1
25054, -0.012, -0.039, -0.194, -0.111, 0.024, 0.084, 1
25074, -0.042, -0.004, -0.185, -0.128, 0.023, 0.09, 1
25094, -0.101, 0.022, -0.264, -0.106, 0.025, 0.087, 1
25114, -0.056, -0.056, -0.164, -0.072, 0.04, 0.068, 1
25134, 0.041, -0.126, -0.114, -0.12, 0.051, 0.061, 1
25154, 0.009, -0.027, -0.194, -0.152, 0.043, 0.07, 1
25174, -0.031, 0.003, -0.274, -0.114, 0.036, 0.068, 1
25194, -0.007, -0.062, -0.145, -0.078, 0.014, 0.061, 1
25214, -0.021, -0.034, -0.085, -0.114, 0.049, 0.069, 1
25234, 0.067, -0.071, -0.076, -0.123, 0.058, 0.073, 1
25254, 0.003, -0.027, -0.127, -0.169, 0.048, 0.065, 1
25274, 0.001, -0.016, -0.188, -0.149, 0.015, 0.056, 1
25294, 0.01, -0.037, -0.129, -0.135, 0.026, 0.06, 1
25314, 0.06, -0.125, -0.071, -0.145, 0.047, 0.078, 1
25334, 0.032, -0.027, -0.114, -0.2, 0.034, 0.103, 1
25354, 0.012, -0.031, -0.089, -0.226, 0.028, 0.123, 1
25374, -0.082, -0.168, -0.008, -0.246, -0.018, 0.157, 1
25394, -0.176, 0.041, -0.305, -0.287, -0.031, 0.175, 1
25414, -0.208, 0.251, -0.426, -0.095, -0.032, 0.151, 0
25434, -0.136, -0.071, -0.491, -0.012, 0.013, 0.191, 0
25454, -0.106, -0.293, -0.232, -0.045, 0.058, 0.145, 0
25474, -0.15, 0.18, -0.589, -0.111, -0.017, 0.109, 0
25494, -0.204, 0.151, -0.763, 0.279, -0.11, 0.065, 0
25514, -0.309, -0.54, -0.238, 0.119, 0.062, 0.098, 0
25534, -0.157, -0.324, -0.176, -0.062, 0.162, 0.12, 0
25554, -0.169, -0.164, -0.361, -0.11, 0.111, 0.082, 0
25574, -0.382, 0.022, -0.431, -0.073, 0.122, 0.043, 0
25594, -0.245, 0.033, -0.451, 0.02, 0.134, 0.008, 0
25614, -0.125, -0.092, -0.273, 0.004, 0.087, -0.013, 0
25634, -0.16, -0.028, -0.205, -0.008, 0.036, -0.034, 0
25654, -0.376, -0.074, -0.04, -0.013, 0.042, -0.084, 0
25674, -0.443, 0.072, -0.033, 0.004, 0.035, -0.131, 0
25694, -0.294, 0.074, -0.035, 0.077, 0.029, -0.179, 0
25714, -0.025, -0.033, 0.151, 0.094, -0.003, -0.2, 0
25734, 0.027, -0.106, 0.271, 0.033, 0.02, -0.21, 0
25754, 0.205, -0.016, 0.313, 0.019, -0.017, -0.228, 0
25774, 0.302, 0.005, 0.423, 0.056, -0.163, -0.221, 0
25794, -0.018, -0.069, 0.568, 0.065, -0.18, -0.216, 0
25814, -0.184, -0.118, 1.142, -0.09, -0.089, -0.26, 0
25834, 0.006, -0.004, 1.353, -0.183, -0.119, -0.301, 0
25854, -0.076, 0.077, 1.444, -0.21, -0.069, -0.354, 0
25874, 0.201, -0.117, 1.701, -0.304, -0.068, -0.395, 0
25894, 0.363, -0.135, 1.614, -0.424, -0.04, -0.396, 0
25914, 0.384, -0.04, 1.427, -0.423, -0.007, -0.359, 0
25934, 0.355, -0.177, 1.484, -0.481, -0.013, -0.349, 0
25954, 0.063, -0.124, 1.524, -0.529, 0.073, -0.377, 0
25974, 0.068, -0.257, 1.711, -0.685, 0.113, -0.469, 0
25994, 0.497, -0.156, 1.179, -0.731, 0.122, -0.483, 0
26014, 0.853, 0.106, 0.887, -0.773, 0.171, -0.464, 0
26034, 1.089, 0.093, 0.668, -0.811, 0.127, -0.448, 0
26054, 1.182, 0.096, 0.396, -0.838, 0.051, -0.397, 0
26074, 1.417, 0.012, 0.288, -0.826, 0.021, -0.363, 0
26094, 1.512, -0.014, 0.068, -0.858, -0.024, -0.295, 0
26114, 1.208, -0.112, 0.003, -0.841, -0.011, -0.2, 0
26134, 1.002, -0.082, -0.155, -0.89, 0.091, -0.155, 0
26154, 1.172, 0.094, -0.714, -0.926, 0.177, -0.149, 0
26174, 1.624, -0.051, -1.145, -0.899, 0.185, -0.103, 0
26194, 1.949, 0.068, -1.521, -0.901, 0.158, -0.003, 0
26214, 1.983, 0.137, -1.738, -0.819, 0.065, 0.07, 0
26234, 1.745, -0.082, -1.583, -0.711, -0.029, 0.19, 0
26254, 1.241, -0.297, -1.337, -0.715, -0.039, 0.31, 0
26274, 1.007, 0.02, -1.517, -0.724, -0.05, 0.365, 0
26294, 0.679, 0.157, -1.735, -0.615, -0.076, 0.481, 0
26314, 0.825, -0.018, -1.68, -0.492, -0.046, 0.552, 0
26334, 0.673, -0.318, -1.535, -0.478, -0.145, 0.686, 0
26354, 0.034, -0.13, -1.567, -0.494, -0.236, 0.789, 0
26374, -0.592, 0.286, -1.55, -0.472, -0.228, 0.817, 0
26394, -0.675, 0.66, -1.468, -0.317, -0.164, 0.756, 0
26414, -0.468, 0.188, -0.994, -0.179, -0.114, 0.767, 0
26434, -0.527, -0.357, -0.828, -0.234, -0.033, 0.837, 0
26454, -0.702, -0.056, -1.131, -0.381, 0.033, 0.871, 0
26474, -1.033, 0.537, -1.602, -0.254, 0.017, 0.751, 0
26494, -0.747, -0.019, -1.592, -0.161, -0.052, 0.733, 0
26514, -0.401, -0.518, -1.942, -0.208, -0.053, 0.852, 0
26534, -0.654, -0.203, -2.364, -0.222, -0.004, 0.97, 0
26554, -0.854, 0.412, -2.667, -0.006, -0.158, 0.916, 0
26574, -1.187, 0.289, -2.267, 0.212, -0.346, 0.859, 0
26594, -1.631, -0.099, -1.812, 0.206, -0.223, 0.877, 0
26614, -1.565, -0.112, -1.748, 0.131, -0.104, 0.856, 0
26634, -1.587, 0.088, -1.916, 0.203, -0.105, 0.766, 0
26654, -1.454, 0.009, -1.773, 0.324, -0.13, 0.696, 0
26674, -1.502, -0.026, -1.779, 0.347, -0.042, 0.696, 0
26694, -1.443, 0.17, -2.019, 0.408, 0.036, 0.681, 0
26714, -1.438, 0.327, -1.888, 0.455, 0.042, 0.631, 0
26734, -1.339, 0.565, -1.754, 0.59, -0.049, 0.547, 0
26754, -1.678, 0.532, -1.491, 0.676, -0.003, 0.519, 0
26774, -1.485, 0.332, -1.054, 0.664, 0.007, 0.448, 0
26794, -1.436, 0.351, -0.942, 0.695, -0.029, 0.347, 0
26814, -1.313, 0.434, -0.713, 0.765, -0.032, 0.268, 0
26834, -1.063, 0.342, -0.35, 0.776, -0.075, 0.229, 0
26854, -1.104, 0.31, -0.137, 0.743, -0.079, 0.178, 0
26874, -1.136, 0.418, 0.06, 0.75, -0.067, 0.098, 0
26894, -1.063, 0.438, 0.325, 0.775, -0.096, 0.019, 0
26914, -1.11, 0.477, 0.548, 0.784, -0.077, -0.056, 0
26934, -1.005, 0.266, 0.827, 0.712, -0.037, -0.121, 0
26954, -0.549, 0.233, 0.767, 0.654, -0.119, -0.239, 0
26974, -0.366, 0.155, 0.94, 0.615, -0.076, -0.284, 0
26994, -0.184, 0.062, 1.181, 0.567, -0.023, -0.302, 0
27014, -0.06, 0.027, 1.212, 0.498, -0.05, -0.345, 0
27034, 0.009, 0.099, 1.358, 0.445, -0.056, -0.394, 0
27054, -0.1, -0.029, 1.641, 0.359, -0.021, -0.433, 0
27074, 0.4, -0.06, 1.493, 0.242, -0.042, -0.552, 0
27094, 0.598, -0.132, 1.284, 0.171, -0.108, -0.588, 0
27114, 0.798, -0.256, 1.398, 0.114, -0.064, -0.593, 0
27134, 0.812, -0.353, 1.493, 0.115, -0.054, -0.606, 0
27154, 1.134, -0.412, 1.39, 0.039, 0.011, -0.585, 0
27174, 1.495, -0.398, 1.159, -0.047, -0.005, -0.548, 0
27194, 1.577, -0.463, 1.132, -0.103, -0.078, -0.566, 0
27214, 1.558, -0.42, 0.986, -0.141, -0.115, -0.561, 0
27234, 1.632, -0.419, 0.722, -0.144, -0.092, -0.505, 0
27254, 1.937, -0.561, 0.508, -0.138, -0.015, -0.43, 0
27274, 2.187, -0.68, 0.233, -0.218, 0.011, -0.343, 0
27294, 1.845, -0.691, 0.017, -0.243, -0.065, -0.288, 0
27314, 1.527, -0.589, -0.023, -0.26, -0.038, -0.241, 0
27334, 1.55, -0.568, -0.24, -0.222, 0.014, -0.145, 0
27354, 1.298, -0.648, -0.418, -0.182, 0.027, -0.037, 0
27374, 0.966, -0.593, -0.399, -0.177, 0.05, 0.032, 0
27394, 0.576, -0.363, -0.363, -0.231, 0.042, 0.057, 0
27414, 0.28, -0.202, -0.453, -0.205, 0.036, 0.07, 0
27434, -0.019, -0.237, -0.422, -0.152, 0.064, 0.125, 0
27454, -0.112, -0.206, -0.292, -0.179, 0.138, 0.13, 0
27474, -0.068, 0.069, -0.616, -0.032, 0.056, 0.098, 0
27494, -0.206, -0.072, -0.494, 0.095, 0.032, 0.076, 1
27514, -0.275, -0.473, -0.05, -0.091, 0.138, 0.094, 1
27534, -0.176, -0.214, 0.057, -0.254, 0.099, 0.074, 1
27554, -0.247, 0.002, -0.334, -0.199, 0.037, 0.061, 1
27574, -0.226, -0.018, -0.305, -0.086, 0.018, 0.067, 1
27594, -0.116, -0.255, -0.096, -0.1, 0.001, 0.072, 1
27614, -0.105, -0.138, -0.056, -0.128, 0.026, 0.069, 1
27634, 0.026, -0.094, -0.074, -0.083, -0.014, 0.055, 1
27654, 0.007, -0.145, -0.043, -0.068, -0.017, 0.047, 1
27674, 0.017, -0.118, -0.061, -0.052, 0.0, 0.053, 1
27694, 0.119, -0.127, -0.031, -0.093, 0.008, 0.064, 1
27714, 0.001, -0.055, -0.051, -0.152, 0.036, 0.062, 1
27734, 0.047, -0.009, -0.249, -0.134, -0.009, 0.051, 1
27754, 0.029, -0.006, -0.299, -0.102, -0.034, 0.051, 1
27774, -0.059, -0.007, -0.191, -0.086, 0.009, 0.064, 1
27794, -0.084, -0.069, -0.102, -0.106, 0.051, 0.063, 1
27814, -0.043, -0.045, -0.16, -0.106, 0.051, 0.043, 1
27834, 0.097, -0.037, -0.278, -0.095, 0.044, 0.055, 1
27854, 0.09, -0.124, -0.22, -0.155, 0.037, 0.089, 1
27874, -0.004, -0.029, -0.377, -0.136, 0.008, 0.076, 1
27894, -0.031, 0.022, -0.456, -0.072, 0.017, 0.08, 1
27914, -0.023, -0.045, -0.249, -0.084, 0.039, 0.091, 1
27934, -0.029, -0.03, -0.189, -0.094, 0.006, 0.077, 1
27954, -0.022, 0.026, -0.259, -0.07, 0.012, 0.067, 1
27974, 0.008, -0.032, -0.131, -0.034, 0.034, 0.068, 1
27994, -0.009, -0.078, -0.042, -0.091, 0.046, 0.079, 1
28014, -0.022, -0.036, -0.159, -0.13, 0.052, 0.07, 1
28034, -0.01, 0.003, -0.18, -0.095, 0.023, 0.042, 1
28054, 0.063, -0.027, -0.269, -0.091, 0.016, 0.043, 1
28074, 0.035, -0.042, -0.269, -0.076, 0.03, 0.062, 1
28094, 0.061, -0.151, -0.161, -0.048, 0.022, 0.069, 1
28114, -0.024, -0.053, -0.14, -0.08, -0.004, 0.067, 1
28134, -0.079, 0.037, -0.17, -0.097, 0.016, 0.064, 1
28154, -0.061, -0.026, -0.061, -0.108, 0.044, 0.072, 1
28174, -0.01, -0.022, -0.111, -0.127, 0.04, 0.076, 1
28194, -0.019, -0.087, -0.13, -0.104, 0.049, 0.082, 1
28214, 0.003, -0.024, -0.199, -0.127, 0.045, 0.079, 1
28234, -0.001, 0.026, -0.23, -0.101, 0.004, 0.064, 1
28254, -0.006, -0.019, -0.083, -0.063, 0.004, 0.059, 1
28274, -0.001, -0.094, -0.033, -0.103, 0.042, 0.081, 1
28294, 0.013, -0.08, -0.052, -0.121, 0.033, 0.073, 1
28314, 0.003, -0.068, -0.072, -0.187, 0.032, 0.082, 1
28334, -0.003, -0.001, -0.201, -0.165, 0.017, 0.07, 1
28354, -0.029, -0.085, -0.092, -0.121, 0.01, 0.078, 1
28374, -0.02, -0.077, -0.071, -0.103, 0.029, 0.089, 1
28394, 0.023, -0.031, -0.111, -0.114, 0.042, 0.076, 1
28414, 0.005, -0.007, -0.23, -0.08, -0.006, 0.07, 1
28434, -0.037, -0.062, -0.15, -0.12, 0.047, 0.093, 1
28454, -0.005, -0.038, -0.072, -0.176, 0.048, 0.098, 1
28474, -0.104, 0.065, -0.172, -0.171, 0.021, 0.089, 1
28494, -0.208, 0.114, -0.311, -0.104, 0.01, 0.058, 1
28514, -0.013, -0.015, -0.33, -0.054, -0.028, 0.029, 1
28534, -0.012, -0.221, -0.171, -0.125, 0.008, 0.067, 0
28554, -0.089, -0.034, -0.299, -0.152, 0.061, 0.093, 0
28574, 0.0, -0.031, -0.396, -0.065, 0.028, 0.069, 0
28594, -0.063, -0.151, -0.16, -0.097, 0.018, 0.065, 0
28614, -0.053, -0.054, -0.385, -0.004, 0.001, 0.061, 0
28634, -0.08, -0.256, -0.285, -0.056, 0.076, 0.081, 0
28654, -0.041, -0.018, -0.423, -0.11, 0.089, 0.058, 0
28674, -0.245, 0.065, -0.64, -0.059, 0.054, 0.026, 0
28694, -0.375, 0.102, -0.691, -0.011, 0.089, 0.007, 0
28714, -0.216, 0.006, -0.546, -0.032, 0.065, -0.017, 0
28734, -0.32, 0.129, -0.637, 0.051, 0.0, -0.064, 0
28754, -0.33, 0.113, -0.473, 0.152, -0.016, -0.083, 0
28774, -0.402, -0.061, -0.141, 0.154, 0.05, -0.114, 0
28794, -0.217, -0.135, 0.082, 0.125, 0.066, -0.158, 0
28814, -0.098, -0.081, 0.296, 0.067, 0.054, -0.193, 0
28834, -0.082, 0.032, 0.39, 0.042, 0.049, -0.219, 0
28854, 0.007, -0.013, 0.517, 0.028, 0.046, -0.238, 0
28874, 0.163, -0.077, 0.746, -0.029, 0.011, -0.262, 0
28894, 0.093, -0.045, 1.003, -0.124, -0.045, -0.277, 0
28914, -0.537, 0.098, 1.577, -0.207, 0.004, -0.284, 0
28934, -0.304, 0.307, 1.828, -0.2, 0.064, -0.371, 0
28954, -0.094, 0.012, 2.147, -0.222, 0.064, -0.418, 0
28974, 0.142, -0.107, 2.203, -0.386, 0.073, -0.488, 0
28994, 0.561, -0.054, 1.834, -0.546, 0.04, -0.548, 0
29014, 0.378, -0.006, 1.529, -0.602, 0.018, -0.524, 0
29034, 0.501, 0.088, 1.525, -0.627, 0.072, -0.543, 0
29054, 0.414, 0.128, 1.388, -0.701, 0.147, -0.555, 0
29074, 0.723, 0.094, 1.211, -0.732, 0.218, -0.597, 0
29094, 1.243, 0.243, 0.891, -0.768, 0.196, -0.618, 0
29114, 1.416, 0.423, 0.548, -0.742, 0.174, -0.537, 0
29134, 1.84, 0.171, 0.41, -0.72, 0.133, -0.535, 0
29154, 2.138, -0.028, 0.198, -0.803, 0.067, -0.511, 0
29174, 2.518, -0.009, 0.106, -0.932, 0.054, -0.432, 0
29194, 2.236, 0.078, -0.009, -0.923, 0.007, -0.303, 0
29214, 1.946, -0.118, -0.024, -0.807, -0.02, -0.235, 0
29234, 1.9, -0.066, -0.093, -0.835, -0.02, -0.167, 0
29254, 1.488, 0.227, 0.131, -0.864, 0.042, -0.053, 0
29274, 1.596, 0.355, 0.048, -0.858, 0.091, -0.026, 0
29294, 1.812, 0.105, -0.459, -0.924, 0.009, -0.005, 0
29314, 1.568, 0.102, -0.854, -0.956, 0.01, 0.119, 0
29334, 1.783, 0.169, -1.067, -0.958, 0.059, 0.187, 0
29354, 1.769, 0.09, -1.502, -0.921, -0.061, 0.245, 0
29374, 1.682, -0.317, -1.847, -0.874, -0.133, 0.327, 0
29394, 1.606, -0.667, -2.179, -0.882, -0.133, 0.576, 0
29414, 1.418, -0.235, -2.74, -0.816, -0.213, 0.701, 0
29434, 0.905, 0.366, -3.004, -0.571, -0.337, 0.735, 0
29454, 0.495, 0.343, -2.487, -0.453, -0.392, 0.83, 0
29474, 0.132, -0.247, -2.014, -0.431, -0.309, 0.936, 0
29494, 0.152, -0.421, -1.945, -0.417, -0.163, 1.039, 0
29514, 0.331, 0.138, -2.029, -0.313, -0.183, 1.113, 0
29534, -0.242, 0.596, -1.929, -0.149, -0.296, 1.072, 0
29554, -0.254, 0.351, -1.773, -0.128, -0.281, 1.118, 0
29574, -0.166, -0.077, -1.721, -0.138, -0.232, 1.255, 0
29594, -0.512, 0.14, -1.683, -0.13, -0.298, 1.238, 0
29614, -1.162, 0.5, -1.985, -0.108, -0.353, 1.203, 0
29634, -1.667, 0.789, -2.245, -0.004, -0.311, 1.167, 0
29654, -1.962, 0.641, -2.259, 0.156, -0.219, 1.143, 0
29674, -2.062, 0.459, -2.413, 0.264, -0.136, 1.097, 0
29694, -2.319, 0.616, -2.516, 0.327, -0.111, 1.067, 0
29714, -2.691, 0.945, -2.665, 0.463, -0.07, 0.96, 0
29734, -2.344, 0.683, -2.375, 0.539, -0.149, 0.839, 0
29754, -2.012, 0.613, -2.198, 0.623, -0.291, 0.767, 0
29774, -2.261, 0.376, -1.805, 0.671, -0.299, 0.706, 0
29794, -2.339, 0.39, -1.524, 0.679, -0.291, 0.629, 0
29814, -2.093, 0.642, -1.459, 0.789, -0.265, 0.57, 0
29834, -2.23, 0.564, -1.11, 0.875, -0.185, 0.517, 0
29854, -2.249, 0.506, -0.514, 0.795, -0.114, 0.442, 0
29874, -2.302, 0.928, -0.351, 0.913, -0.202, 0.187, 0
29894, -2.433, 0.536, 0.39, 0.979, -0.164, 0.065, 0
29914, -2.215, 0.207, 0.88, 0.868, -0.017, -0.012, 0
29934, -1.843, 0.242, 0.98, 0.737, 0.054, -0.094, 0
29954, -1.607, 0.278, 1.143, 0.664, 0.067, -0.207, 0
29974, -1.302, 0.146, 1.295, 0.68, 0.028, -0.317, 0
29994, -1.092, 0.006, 1.435, 0.605, 0.068, -0.323, 0
30014, -0.486, 0.115, 1.256, 0.518, 0.182, -0.35, 0
30034, -0.244, 0.23, 1.181, 0.53, 0.059, -0.417, 0
30054, -0.132, -0.068, 1.669, 0.584, -0.136, -0.498, 0
30074, -0.308, -0.204, 2.044, 0.433, -0.124, -0.527, 0
30094, 0.105, -0.241, 2.08, 0.276, -0.04, -0.574, 0
30114, 0.299, -0.207, 1.854, 0.156, -0.003, -0.599, 0
30134, 0.782, -0.292, 1.783, 0.142, 0.055, -0.7, 0
30154, 1.548, -0.51, 1.672, 0.038, 0.097, -0.662, 0
30174, 1.796, -0.742, 1.441, -0.096, 0.043, -0.53, 0
30194, 1.682, -0.356, 0.933, -0.169, 0.012, -0.478, 0
30214, 1.703, -0.293, 0.827, -0.053, -0.025, -0.521, 0
30234, 1.591, -0.584, 0.938, -0.028, -0.082, -0.521, 0
30254, 1.755, -0.546, 0.723, -0.17, 0.006, -0.421, 0
30274, 1.958, -0.439, 0.232, -0.233, 0.042, -0.331, 0
30294, 1.714, -0.428, -0.033, -0.18, -0.028, -0.257, 0
30314, 1.399, -0.2, -0.241, -0.187, -0.031, -0.18, 0
30334, 1.154, -0.249, -0.116, -0.22, 0.014, -0.119, 0
30354, 0.887, -0.141, -0.316, -0.296, 0.017, -0.06, 0
30374, 0.6, -0.06, -0.527, -0.262, -0.029, -0.023, 0
30394, 0.205, 0.089, -0.749, -0.116, 0.006, -0.001, 0
30414, 0.155, -0.199, -0.532, -0.092, 0.051, 0.006, 0
30434, 0.134, -0.329, -0.354, -0.175, 0.014, 0.033, 0
30454, -0.101, -0.249, -0.449, -0.185, 0.017, 0.061, 0
30474, -0.137, -0.08, -0.515, -0.122, 0.042, 0.078, 0
30494, -0.16, -0.134, -0.384, -0.112, 0.045, 0.092, 0
30514, -0.204, -0.104, -0.372, -0.07, 0.003, 0.087, 0
30534, -0.361, -0.197, -0.114, -0.103, 0.043, 0.073, 0
30554, -0.232, -0.111, -0.035, -0.145, 0.043, 0.061, 0
30574, -0.165, 0.018, -0.193, -0.086, 0.018, 0.046, 0
30594, -0.127, -0.083, -0.112, -0.056, 0.006, 0.053, 0
30614, -0.183, -0.087, -0.014, -0.066, 0.024, 0.07, 0
30634, -0.14, -0.022, -0.034, -0.055, 0.029, 0.052, 0
30654, -0.068, -0.06, -0.159, 0.012, 0.005, 0.032, 0
30674, -0.005, -0.088, -0.283, 0.062, 0.015, 0.036, 1
30694, 0.128, -0.057, -0.232, 0.07, 0.007, 0.009, 1
30714, 0.182, -0.096, -0.073, -0.02, -0.006, 0.036, 1
30734, -0.068, 0.133, -0.096, -0.04, 0.026, 0.051, 1
30754, -0.067, -0.235, -0.064, -0.045, 0.036, 0.064, 1
30774, 0.049, -0.132, -0.18, -0.054, 0.014, 0.048, 1
30794, 0.044, -0.098, -0.287, -0.074, 0.017, 0.048, 1
30814, 0.083, -0.122, -0.11, -0.176, 0.045, 0.078, 1
30834, -0.009, -0.024, -0.16, -0.16, 0.032, 0.088, 1
30854, -0.049, 0.005, -0.181, -0.084, 0.03, 0.075, 1
30874, -0.017, -0.024, -0.112, -0.079, 0.02, 0.052, 1
30894, -0.024, -0.046, -0.101, -0.086, 0.0, 0.04, 1
30914, 0.015, -0.02, -0.18, -0.105, 0.031, 0.062, 1
30934, -0.024, -0.01, -0.161, -0.114, 0.038, 0.073, 1
30954, -0.015, -0.033, -0.073, -0.119, 0.037, 0.065, 1
30974, -0.04, -0.071, -0.062, -0.1, 0.007, 0.051, 1
30994, 0.008, -0.023, -0.17, -0.12, 0.007, 0.046, 1
31014, 0.009, -0.023, -0.161, -0.104, 0.001, 0.038, 1
31034, -0.008, -0.035, -0.092, -0.147, 0.029, 0.056, 1
31054, -0.003, 0.012, -0.222, -0.134, 0.02, 0.06, 1
31074, -0.011, -0.001, -0.242, -0.045, -0.024, 0.043, 1
31094, 0.016, -0.076, -0.064, -0.04, -0.01, 0.036, 1
31114, -0.05, -0.126, 0.054, -0.162, 0.034, 0.067, 1
31134, -0.048, 0.006, -0.232, -0.195, 0.073, 0.083, 1
31154, 0.077, 0.005, -0.38, -0.08, 0.023, 0.051, 1
31174, 0.071, -0.138, -0.202, -0.054, -0.028, 0.05, 1
31194, -0.037, -0.103, -0.102, -0.122, -0.007, 0.082, 1
31214, -0.042, -0.036, -0.201, -0.15, 0.022, 0.102, 1
31234, -0.05, 0.102, -0.351, -0.103, 0.02, 0.076, 1
31254, 0.006, -0.03, -0.261, -0.023, -0.023, 0.06, 1
31274, -0.028, -0.143, -0.024, -0.075, -0.001, 0.083, 1
31294, 0.002, -0.066, -0.043, -0.159, 0.007, 0.085, 1
31314, -0.123, 0.094, -0.154, -0.158, 0.001, 0.071, 1
31334, -0.072, -0.043, -0.115, -0.028, 0.012, 0.029, 1
31354, 0.057, -0.211, 0.033, -0.105, 0.058, 0.059, 1
31374, 0.166, -0.175, 0.024, -0.197, 0.045, 0.086, 1
31394, 0.023, -0.001, -0.173, -0.142, -0.005, 0.076, 1
31414, -0.026, 0.016, -0.282, -0.042, -0.02, 0.058, 1
31434, 0.019, -0.119, -0.113, -0.076, 0.028, 0.088, 1
31454, 0.008, -0.132, 0.063, -0.188, 0.073, 0.131, 1
31474, -0.047, 0.04, -0.125, -0.172, 0.039, 0.106, 1
31494, -0.084, 0.103, -0.374, -0.089, 0.005, 0.081, 1
31514, -0.031, -0.064, -0.235, -0.083, 0.031, 0.089, 1
31534, 0.025, -0.096, -0.067, -0.153, 0.02, 0.097, 1
31554, -0.072, -0.033, -0.108, -0.158, 0.012, 0.085, 1
31574, -0.111, -0.045, -0.129, -0.14, 0.034, 0.07, 1
31594, 0.024, -0.14, -0.117, -0.158, 0.043, 0.073, 1
31614, 0.132, -0.088, -0.273, -0.149, 0.022, 0.084, 1
31634, 0.031, -0.062, -0.194, -0.136, 0.018, 0.091, 1
31654, -0.114, -0.07, -0.136, -0.165, 0.018, 0.073, 1
31674, -0.22, 0.09, -0.287, -0.153, 0.031, 0.067, 1
31694, -0.08, 0.077, -0.457, -0.065, 0.02, 0.05, 1
31714, 0.017, -0.182, -0.346, -0.088, -0.003, 0.024, 1
31734, 0.063, -0.225, -0.139, -0.218, -0.009, 0.044, 0
31754, -0.066, -0.292, -0.442, -0.165, -0.007, 0.059, 0
31774, -0.143, 0.052, -0.357, -0.131, 0.02, 0.02, 0
31794, -0.008, 0.019, -0.525, -0.048, -0.038, 0.014, 0
31814, 0.021, 0.25, -0.88, 0.24, -0.076, 0.026, 0
31834, -0.299, -0.354, 0.084, 0.156, 0.023, 0.063, 0
31854, -0.214, -0.396, -0.11, -0.163, 0.138, 0.103, 0
31874, -0.337, -0.059, -0.506, -0.221, 0.109, 0.08, 0
31894, -0.445, -0.045, -0.577, -0.037, 0.037, 0.023, 0
31914, -0.515, -0.289, -0.273, 0.036, 0.136, 0.048, 0
31934, -0.379, -0.236, -0.077, -0.045, 0.183, 0.062, 0
31954, -0.541, 0.041, -0.159, -0.046, 0.123, 0.001, 0
31974, -0.513, 0.073, -0.045, 0.053, 0.053, -0.103, 0
31994, -0.665, 0.068, 0.206, 0.145, 0.075, -0.109, 0
32014, -0.494, -0.267, 0.685, 0.183, 0.13, -0.13, 0
32034, -0.096, -0.243, 0.881, 0.069, 0.072, -0.224, 0
32054, -0.045, -0.192, 0.868, -0.025, -0.045, -0.284, 0
32074, -0.022, -0.184, 1.061, -0.098, -0.011, -0.306, 0
32094, 0.159, -0.106, 1.164, -0.197, 0.045, -0.308, 0
32114, 0.331, 0.151, 1.108, -0.219, -0.014, -0.356, 0
32134, 0.063, 0.075, 1.506, -0.133, -0.03, -0.337, 0
32154, -0.112, -0.008, 2.196, -0.196, 0.085, -0.313, 0
32174, 0.153, 0.091, 2.065, -0.433, 0.108, -0.401, 0
32194, 0.295, 0.273, 1.588, -0.537, 0.014, -0.496, 0
32214, 0.595, 0.255, 1.718, -0.549, 0.023, -0.514, 0
32234, 0.227, 0.167, 1.664, -0.547, -0.062, -0.512, 0
32254, 0.087, -0.22, 1.706, -0.492, 0.067, -0.521, 0
32274, 0.541, -0.494, 1.92, -0.637, 0.237, -0.561, 0
32294, 1.134, -0.262, 1.444, -0.886, 0.26, -0.62, 0
32314, 1.776, -0.157, 0.589, -0.982, 0.225, -0.62, 0
32334, 2.443, -0.005, -0.345, -0.843, 0.194, -0.515, 0
32354, 2.89, -0.024, -0.359, -0.759, 0.101, -0.375, 0
32374, 2.687, 0.057, -0.164, -0.825, 0.037, -0.218, 0
32394, 2.512, 0.093, -0.299, -0.902, -0.073, -0.122, 0
32414, 2.255, 0.344, -0.994, -0.795, -0.166, -0.088, 0
32434, 2.154, 0.137, -1.234, -0.724, -0.13, -0.013, 0
32454, 2.108, -0.074, -1.073, -0.742, -0.133, 0.073, 0
32474, 1.718, 0.079, -0.995, -0.75, -0.113, 0.172, 0
32494, 1.132, 0.43, -1.332, -0.679, 0.023, 0.25, 0
32514, 0.962, 0.578, -1.478, -0.535, 0.062, 0.241, 0
32534, 1.004, 0.147, -1.254, -0.529, -0.029, 0.233, 0
32554, 0.982, -0.218, -1.418, -0.595, -0.089, 0.318, 0
32574, 1.094, -0.228, -1.872, -0.562, -0.122, 0.384, 0
32594, 0.96, -0.146, -1.891, -0.509, -0.188, 0.458, 0
32614, 0.68, -0.302, -1.681, -0.384, -0.198, 0.547, 0
32634, 0.493, -0.493, -1.657, -0.312, -0.267, 0.624, 0
32654, -0.141, -0.161, -1.768, -0.295, -0.189, 0.723, 0
32674, -0.25, 0.085, -1.55, -0.314, -0.133, 0.794, 0
32694, -0.392, -0.011, -1.309, -0.237, -0.136, 0.858, 0
32714, -0.645, -0.245, -1.351, -0.201, -0.07, 0.866, 0
32734, -0.573, 0.042, -1.705, -0.15, -0.037, 0.826, 0
32754, -0.634, 0.135, -1.641, -0.152, 0.028, 0.825, 0
32774, -0.659, -0.11, -1.337, -0.12, 0.061, 0.851, 0
32794, -0.758, -0.446, -1.361, -0.08, 0.053, 0.837, 0
32814, -0.973, -0.066, -2.042, -0.014, 0.01, 0.831, 0
32834, -0.986, -0.231, -1.846, 0.042, 0.032, 0.803, 0
32854, -0.935, -0.142, -1.903, 0.091, 0.069, 0.797, 0
32874, -0.984, -0.081, -1.888, 0.176, 0.097, 0.799, 0
32894, -1.002, 0.119, -1.725, 0.252, 0.039, 0.766, 0
32914, -1.266, 0.014, -1.422, 0.317, -0.031, 0.732, 0
32934, -1.479, -0.032, -1.259, 0.334, 0.035, 0.702, 0
32954, -1.535, 0.238, -1.186, 0.38, 0.116, 0.666, 0
32974, -1.685, 0.134, -1.0, 0.511, 0.121, 0.585, 0
32994, -1.394, -0.105, -0.833, 0.511, 0.18, 0.514, 0
33014, -1.006, 0.051, -1.141, 0.439, 0.153, 0.473, 0
33034, -0.914, 0.474, -1.452, 0.522, 0.137, 0.446, 0
33054, -0.647, 0.273, -0.998, 0.728, 0.108, 0.377, 0
33074, -0.44, -0.039, -0.491, 0.751, 0.016, 0.319, 0
33094, -0.436, 0.117, -0.322, 0.602, -0.035, 0.3, 0
33114, -0.644, 0.244, -0.267, 0.555, 0.006, 0.304, 0
33134, -0.591, 0.305, -0.222, 0.613, 0.037, 0.23, 0
33154, -0.554, 0.15, -0.059, 0.629, 0.034, 0.164, 0
33174, -0.734, 0.281, 0.009, 0.561, 0.038, 0.153, 0
33194, -0.748, 0.402, 0.114, 0.528, 0.073, 0.12, 0
33214, -0.677, 0.573, 0.061, 0.551, 0.012, 0.014, 0
33234, -0.594, 0.218, 0.363, 0.621, -0.075, -0.097, 0
33254, -0.542, 0.159, 0.593, 0.521, -0.065, -0.102, 0
33274, -0.408, 0.176, 0.672, 0.449, -0.04, -0.192, 0
33294, -0.226, 0.242, 0.612, 0.45, -0.084, -0.297, 0
33314, 0.088, 0.08, 0.83, 0.469, -0.138, -0.37, 0
33334, 0.097, -0.01, 1.226, 0.359, -0.086, -0.356, 0
33354, 0.133, -0.123, 1.517, 0.197, -0.026, -0.372, 0
33374, 0.296, -0.096, 1.444, 0.111, -0.062, -0.441, 0
33394, 0.401, -0.045, 1.311, 0.117, -0.042, -0.507, 0
33414, 0.494, -0.243, 1.503, 0.049, 0.043, -0.505, 0
33434, 1.185, -0.3, 1.252, -0.046, 0.006, -0.478, 0
33454, 1.532, -0.301, 0.743, -0.139, -0.045, -0.422, 0
33474, 1.528, -0.151, 0.47, -0.08, -0.113, -0.453, 0
33494, 1.321, -0.311, 0.707, -0.01, -0.216, -0.45, 0
33514, 0.773, -0.452, 1.16, -0.072, -0.091, -0.384, 0
33534, 0.861, -0.543, 1.151, -0.166, 0.014, -0.357, 0
33554, 1.249, -0.534, 0.818, -0.198, -0.035, -0.37, 0
33574, 1.459, -0.687, 0.533, -0.234, -0.072, -0.353, 0
33594, 1.556, -0.538, 0.061, -0.164, -0.113, -0.279, 0
33614, 1.328, -0.63, 0.129, -0.178, -0.042, -0.184, 0
33634, 1.073, -0.449, 0.098, -0.218, -0.018, -0.144, 0
33654, 0.943, -0.324, -0.089, -0.226, -0.061, -0.128, 0
33674, 0.539, -0.248, -0.17, -0.21, -0.007, -0.1, 0
33694, 0.544, -0.23, -0.223, -0.195, 0.054, -0.026, 0
33714, 0.664, -0.295, -0.364, -0.184, 0.021, 0.003, 0
33734, 0.516, -0.329, -0.475, -0.194, -0.029, 0.038, 0
33754, 0.198, -0.206, -0.555, -0.173, -0.023, 0.068, 0
33774, 0.004, -0.109, -0.346, -0.178, -0.028, 0.099, 0
33794, -0.357, -0.11, -0.333, -0.148, -0.034, 0.071, 0
33814, -0.426, -0.052, -0.291, -0.181, -0.01, 0.067, 0
33834, -0.341, -0.012, -0.398, -0.193, 0.048, 0.071, 0
33854, -0.232, -0.027, -0.544, -0.124, 0.064, 0.079, 0
33874, -0.04, -0.061, -0.561, -0.04, 0.004, 0.081, 0
33894, -0.07, 0.016, -0.627, 0.067, -0.075, 0.089, 0
33914, -0.233, -0.145, -0.309, 0.146, -0.108, 0.1, 0
33934, -0.301, -0.3, 0.065, 0.032, -0.029, 0.071, 1
33954, -0.007, -0.109, -0.08, -0.064, 0.017, 0.057, 1
33974, 0.026, -0.158, -0.079, -0.011, -0.021, 0.042, 1
33994, -0.03, 0.192, -0.031, -0.036, -0.039, 0.058, 1
34014, -0.034, -0.129, 0.018, -0.028, -0.025, 0.035, 1
34034, -0.034, -0.086, 0.0, -0.119, 0.029, 0.043, 1
34054, 0.019, -0.087, -0.03, -0.13, 0.072, 0.055, 1
34074, 0.023, -0.069, -0.069, -0.141, 0.047, 0.052, 1
34094, 0.004, 0.01, -0.227, -0.131, 0.011, 0.016, 1
34114, -0.034, -0.014, -0.276, -0.091, 0.006, 0.034, 1
34134, 0.066, -0.067, -0.168, -0.106, 0.054, 0.062, 1
34154, 0.089, -0.122, -0.08, -0.135, 0.031, 0.076, 1
34174, -0.096, -0.11, -0.04, -0.168, 0.015, 0.091, 1
34194, -0.079, -0.053, -0.099, -0.156, 0.02, 0.073, 1
34214, -0.015, -0.035, -0.128, -0.146, 0.017, 0.059, 1
34234, 0.032, 0.004, -0.267, -0.157, 0.026, 0.062, 1
34254, -0.018, -0.018, -0.247, -0.104, 0.027, 0.072, 1
34274, -0.04, -0.129, -0.031, -0.145, 0.023, 0.057, 1
34294, -0.048, -0.013, -0.13, -0.138, 0.016, 0.049, 1
34314, -0.01, -0.04, -0.12, -0.128, 0.051, 0.06, 1
34334, 0.05, -0.005, -0.179, -0.106, 0.035, 0.059, 1
34354, 0.009, -0.114, -0.08, -0.135, 0.042, 0.056, 1
34374, 0.046, -0.016, -0.131, -0.147, 0.023, 0.056, 1
34394, -0.049, 0.013, -0.22, -0.101, 0.006, 0.054, 1
34414, -0.06, -0.071, -0.151, -0.108, 0.034, 0.073, 1
34434, 0.002, -0.121, -0.15, -0.142, 0.042, 0.081, 1
34454, 0.041, -0.005, -0.318, -0.103, -0.014, 0.072, 1
34474, -0.082, -0.07, -0.209, -0.113, -0.024, 0.065, 1
34494, -0.225, 0.097, -0.308, -0.076, 0.026, 0.059, 1
34514, -0.015, -0.044, -0.219, -0.073, 0.054, 0.055, 1
34534, 0.087, -0.098, -0.228, -0.079, 0.019, 0.064, 1
34554, -0.004, -0.075, -0.198, -0.086, 0.022, 0.081, 1
34574, -0.105, -0.044, -0.158, -0.09, 0.037, 0.078, 1
34594, -0.109, 0.006, -0.14, -0.107, 0.051, 0.062, 1
34614, 0.04, -0.018, -0.111, -0.113, 0.013, 0.04, 1
34634, 0.082, -0.054, -0.071, -0.116, -0.022, 0.052, 1
34654, -0.007, -0.027, -0.071, -0.089, -0.021, 0.058, 1
34674, -0.12, 0.025, -0.082, -0.07, 0.02, 0.051, 1
34694, -0.003, -0.148, -0.022, -0.133, 0.038, 0.045, 1
34714, 0.043, -0.062, -0.09, -0.143, 0.021, 0.043, 1
34734, 0.001, -0.013, -0.19, -0.115, 0.009, 0.047, 1
34754, 0.001, -0.009, -0.357, -0.083, 0.019, 0.061, 1
34774, -0.028, -0.124, -0.169, -0.079, 0.023, 0.078, 1
34794, -0.017, -0.007, -0.248, -0.13, 0.007, 0.077, 1
34814, -0.103, 0.0, -0.269, -0.086, -0.017, 0.071, 1
34834, -0.065, -0.107, -0.062, -0.086, 0.033, 0.079, 1
34854, 0.009, -0.126, 0.016, -0.13, 0.051, 0.069, 1
34874, 0.034, -0.105, -0.041, -0.17, 0.047, 0.056, 1
34894, 0.089, -0.032, -0.13, -0.178, 0.032, 0.048, 1
34914, 0.0, 0.038, -0.25, -0.169, 0.027, 0.076, 1
34934, -0.033, -0.021, -0.123, -0.12, 0.043, 0.084, 1
34954, -0.043, -0.058, -0.044, -0.1, 0.01, 0.077, 1
34974, -0.014, -0.062, 0.004, -0.154, -0.001, 0.07, 1
34994, 0.021, 0.015, -0.252, -0.153, 0.004, 0.085, 1
35014, -0.006, -0.178, -0.191, -0.055, -0.031, 0.083, 1
35034, -0.064, -0.16, -0.072, -0.135, -0.003, 0.094, 1
35054, -0.067, 0.001, -0.105, -0.233, 0.021, 0.072, 1
35074, -0.129, 0.072, -0.355, -0.237, 0.039, 0.064, 0
35094, -0.05, -0.005, -0.649, -0.07, -0.015, 0.046, 0
35114, -0.067, -0.012, -0.717, 0.127, -0.083, 0.034, 0
35134, 0.053, -0.247, -0.174, -0.017, 0.032, 0.044, 0
35154, -0.051, -0.067, -0.389, -0.107, 0.062, 0.083, 0
35174, -0.057, -0.006, -0.429, -0.07, 0.072, 0.118, 0
35194, -0.139, -0.069, -0.331, 0.055, 0.055, 0.067, 0
35214, -0.133, -0.008, -0.244, 0.01, 0.109, 0.056, 0
35234, -0.14, -0.071, -0.167, -0.093, 0.149, 0.04, 0
35254, -0.182, 0.048, -0.288, -0.093, 0.108, 0.0, 0
35274, -0.096, 0.044, -0.408, 0.015, 0.053, -0.057, 0
35294, -0.227, 0.019, -0.332, 0.137, 0.048, -0.064, 0
35314, -0.312, -0.238, 0.039, 0.113, 0.128, -0.082, 0
35334, -0.062, -0.195, 0.324, -0.043, 0.092, -0.128, 0
35354, -0.03, 0.031, 0.105, 0.043, 0.007, -0.193, 0
35374, 0.063, 0.009, 0.176, 0.177, -0.097, -0.193, 0
35394, -0.24, -0.1, 0.317, 0.322, -0.113, -0.219, 0
35414, -0.368, -0.726, 1.167, 0.04, 0.005, -0.255, 0
35434, -0.1, -0.376, 1.065, -0.188, -0.041, -0.279, 0
35454, -0.134, -0.06, 0.678, -0.197, 0.034, -0.307, 0
35474, 0.238, 0.087, 0.606, -0.158, 0.021, -0.355, 0
35494, 0.115, 0.204, 0.579, -0.121, 0.003, -0.331, 0
35514, -0.035, 0.037, 1.055, -0.216, 0.055, -0.336, 0
35534, 0.071, -0.006, 1.474, -0.399, 0.047, -0.39, 0
35554, 0.165, 0.326, 1.117, -0.401, -0.03, -0.461, 0
35574, 0.249, 0.283, 1.172, -0.29, -0.045, -0.492, 0
35594, 0.157, 0.035, 1.782, -0.362, 0.017, -0.494, 0
35614, 0.095, 0.003, 1.928, -0.514, 0.158, -0.532, 0
35634, 0.652, 0.055, 1.658, -0.594, 0.217, -0.574, 0
35654, 1.261, 0.233, 1.249, -0.536, 0.129, -0.571, 0
35674, 1.232, -0.24, 1.622, -0.679, 0.165, -0.527, 0
35694, 0.963, -0.205, 1.818, -0.918, 0.301, -0.513, 0
35714, 1.36, 0.081, 0.899, -0.957, 0.378, -0.535, 0
35734, 2.426, 0.275, -0.139, -0.868, 0.323, -0.505, 0
35754, 2.455, 0.263, -0.414, -0.774, 0.244, -0.381, 0
35774, 2.677, -0.088, -0.604, -0.811, 0.179, -0.244, 0
35794, 2.585, 0.125, -1.057, -0.918, 0.004, -0.119, 0
35814, 2.344, 0.007, -1.037, -0.833, -0.155, -0.039, 0
35834, 1.874, -0.263, -0.534, -0.756, -0.219, 0.042, 0
35854, 1.304, -0.229, -0.434, -0.76, -0.164, 0.086, 0
35874, 1.439, -0.188, -0.83, -0.791, -0.003, 0.08, 0
35894, 2.102, -0.301, -1.354, -0.804, 0.015, 0.077, 0
35914, 2.005, -0.587, -1.671, -0.818, -0.057, 0.284, 0
35934, 1.683, -0.44, -1.754, -0.835, -0.048, 0.422, 0
35954, 1.236, -0.132, -1.903, -0.784, -0.153, 0.517, 0
35974, 0.565, -0.07, -1.891, -0.7, -0.177, 0.609, 0
35994, 0.579, -0.255, -1.747, -0.629, -0.117, 0.67, 0
36014, 0.104, -0.107, -2.186, -0.529, -0.202, 0.693, 0
36034, -0.278, -0.121, -2.369, -0.361, -0.167, 0.662, 0
36054, -0.012, -0.205, -1.913, -0.339, -0.127, 0.668, 0
36074, -0.123, 0.402, -1.727, -0.434, -0.244, 0.719, 0
36094, -0.58, 0.327, -1.748, -0.29, -0.298, 0.914, 0
36114, -0.781, -0.086, -1.696, -0.148, -0.23, 0.99, 0
36134, -0.754, -0.183, -1.586, -0.152, -0.158, 1.015, 0
36154, -0.889, -0.199, -1.478, -0.164, -0.144, 0.992, 0
36174, -0.991, -0.246, -1.498, -0.161, -0.129, 0.903, 0
36194, -1.256, -0.182, -1.644, -0.098, -0.073, 0.792, 0
36214, -1.376, -0.138, -1.652, -0.032, 0.112, 0.771, 0
36234, -1.146, -0.184, -1.766, -0.031, 0.147, 0.813, 0
36254, -0.772, -0.146, -2.125, 0.047, 0.062, 0.777, 0
36274, -0.686, -0.069, -2.223, 0.138, -0.028, 0.777, 0
36294, -1.01, 0.115, -1.98, 0.188, -0.051, 0.81, 0
36314, -1.207, 0.31, -1.816, 0.272, -0.097, 0.77, 0
36334, -1.231, 0.315, -1.762, 0.422, -0.161, 0.718, 0
36354, -1.257, 0.325, -1.662, 0.568, -0.177, 0.674, 0
36374, -1.319, 0.225, -1.406, 0.605, -0.176, 0.661, 0
36394, -1.521, 0.169, -1.068, 0.562, -0.144, 0.626, 0
36414, -1.656, 0.477, -1.056, 0.64, -0.147, 0.527, 0
36434, -1.549, 0.465, -1.011, 0.77, -0.145, 0.408, 0
36454, -1.395, 0.242, -0.559, 0.718, -0.109, 0.34, 0
36474, -1.312, 0.357, -0.378, 0.646, -0.1, 0.332, 0
36494, -1.324, 0.486, -0.299, 0.654, -0.056, 0.293, 0
36514, -0.955, 0.457, -0.278, 0.766, -0.128, 0.156, 0
36534, -0.706, 0.082, 0.133, 0.728, -0.189, 0.087, 0
36554, -0.806, 0.126, 0.451, 0.669, -0.153, 0.053, 0
36574, -0.75, 0.11, 0.776, 0.621, -0.093, 0.011, 0
36594, -0.813, 0.364, 0.833, 0.725, -0.135, -0.212, 0
36614, -0.758, 0.223, 1.222, 0.708, -0.108, -0.345, 0
36634, -0.446, 0.015, 1.413, 0.637, -0.003, -0.411, 0
36654, 0.075, -0.255, 1.524, 0.423, 0.04, -0.433, 0
36674, 0.201, -0.144, 1.292, 0.322, 0.07, -0.417, 0
36694, 0.149, 0.003, 1.21, 0.226, 0.062, -0.434, 0
36714, 0.423, 0.069, 0.892, 0.155, -0.04, -0.402, 0
36734, 0.159, -0.018, 1.122, 0.124, -0.007, -0.385, 0
36754, 0.29, -0.117, 1.453, 0.147, 0.017, -0.496, 0
36774, 0.319, -0.36, 1.519, 0.111, 0.004, -0.569, 0
36794, 0.986, -0.299, 1.192, -0.025, 0.093, -0.57, 0
36814, 1.182, -0.12, 0.853, -0.088, 0.077, -0.507, 0
36834, 0.823, -0.134, 0.856, -0.036, 0.006, -0.483, 0
36854, 0.711, -0.237, 0.957, -0.001, 0.014, -0.527, 0
36874, 0.894, -0.205, 0.802, -0.118, 0.049, -0.541, 0
36894, 0.825, -0.069, 0.586, -0.215, 0.078, -0.473, 0
36914, 1.214, -0.251, 0.349, -0.238, 0.097, -0.465, 0
36934, 1.373, -0.278, -0.025, -0.252, 0.016, -0.409, 0
36954, 1.258, -0.455, -0.017, -0.222, 0.027, -0.351, 0
36974, 1.075, -0.199, -0.079, -0.249, 0.054, -0.292, 0
36994, 1.118, -0.139, -0.339, -0.18, 0.051, -0.257, 0
37014, 1.156, -0.346, -0.342, -0.158, 0.085, -0.178, 0
37034, 0.957, -0.363, -0.23, -0.211, 0.097, -0.106, 0
37054, 0.643, -0.157, -0.374, -0.229, 0.07, -0.092, 0
37074, 0.473, -0.185, -0.547, -0.193, 0.055, -0.058, 0
37094, 0.202, -0.22, -0.509, -0.134, 0.046, -0.004, 0
37114, -0.062, -0.166, -0.368, -0.15, 0.062, 0.032, 0
37134, -0.105, -0.012, -0.405, -0.178, 0.054, 0.047, 0
37154, -0.113, -0.016, -0.433, -0.159, 0.034, 0.047, 0
37174, -0.184, -0.071, -0.379, -0.072, 0.003, 0.063, 0
37194, -0.28, -0.259, -0.022, -0.158, 0.026, 0.08, 0
37214, -0.229, -0.143, -0.069, -0.174, 0.021, 0.079, 0
37234, -0.142, -0.145, -0.193, -0.117, 0.021, 0.083, 0
37254, -0.062, -0.058, -0.394, -0.006, 0.01, 0.073, 0
37274, -0.002, -0.04, -0.351, 0.042, -0.025, 0.086, 0
37294, -0.081, 0.007, -0.298, 0.099, -0.029, 0.087, 0
37314, 0.029, -0.043, -0.284, 0.161, -0.087, 0.081, 0
37334, -0.085, -0.187, -0.123, 0.076, -0.094, 0.076, 0
37354, -0.144, -0.003, -0.073, 0.014, -0.043, 0.084, 1
37374, -0.164, -0.044, -0.014, -0.041, 0.004, 0.075, 1
37394, 0.069, -0.253, -0.051, -0.078, 0.003, 0.058, 1
37414, 0.048, -0.148, -0.001, -0.056, 0.022, 0.064, 1
37434, 0.008, -0.169, -0.011, -0.159, 0.058, 0.095, 1
37454, -0.09, 0.064, -0.238, -0.142, 0.083, 0.073, 1
37474, -0.022, 0.079, -0.377, -0.089, 0.023, -0.01, 1
37494, -0.004, 0.002, -0.495, -0.072, 0.001, 0.021, 1
37514, 0.045, -0.021, -0.524, -0.034, 0.033, 0.067, 1
37534, 0.057, -0.091, -0.258, -0.05, 0.001, 0.078, 1
37554, -0.063, -0.104, -0.061, -0.089, -0.023, 0.064, 1
37574, -0.044, -0.002, -0.149, -0.054, -0.012, 0.025, 1
37594, -0.005, -0.053, -0.05, -0.076, 0.036, 0.067, 1
37614, -0.005, -0.03, -0.001, -0.089, 0.063, 0.086, 1
37634, 0.015, -0.069, 0.106, -0.142, 0.042, 0.089, 1
37654, -0.006, -0.016, -0.08, -0.127, 0.02, 0.07, 1
37674, -0.058, 0.006, -0.032, -0.097, 0.037, 0.044, 1
37694, 0.039, -0.054, -0.072, -0.162, 0.007, 0.053, 1
37714, 0.037, -0.063, -0.19, -0.186, -0.001, 0.072, 1
37734, -0.043, -0.019, -0.21, -0.171, -0.006, 0.085, 1
37754, -0.062, 0.047, -0.251, -0.087, 0.0, 0.067, 1
37774, -0.033, -0.052, -0.073, -0.049, 0.009, 0.056, 1
37794, -0.057, -0.147, -0.082, -0.111, 0.012, 0.062, 1
37814, -0.026, -0.024, -0.23, -0.164, 0.054, 0.064, 1
37834, 0.081, 0.0, -0.378, -0.125, 0.059, 0.037, 1
37854, 0.072, -0.039, -0.368, -0.061, 0.007, 0.026, 1
37874, -0.022, -0.081, -0.161, -0.07, 0.016, 0.069, 1
37894, -0.013, -0.082, -0.042, -0.106, 0.035, 0.08, 1
37914, -0.009, 0.017, -0.211, -0.157, 0.043, 0.08, 1
37934, 0.009, 0.021, -0.302, -0.091, 0.015, 0.051, 1
37954, -0.054, -0.081, -0.123, -0.041, -0.02, 0.054, 1
37974, -0.045, -0.071, -0.044, -0.093, 0.0, 0.072, 1
37994, -0.001, -0.072, -0.063, -0.135, 0.036, 0.103, 1
38014, -0.031, -0.036, -0.053, -0.102, 0.015, 0.082, 1
38034, -0.05, -0.015, -0.034, -0.087, -0.009, 0.061, 1
38054, 0.015, -0.012, -0.084, -0.131, 0.018, 0.072, 1
38074, 0.02, -0.035, -0.055, -0.144, 0.006, 0.069, 1
38094, -0.029, -0.124, -0.054, -0.135, -0.001, 0.065, 1
38114, -0.014, -0.047, -0.132, -0.119, -0.006, 0.057, 1
38134, 0.036, -0.039, -0.161, -0.102, 0.031, 0.07, 1
38154, 0.07, -0.006, -0.055, -0.197, -0.021, 0.08, 1
38174, -0.06, -0.057, -0.075, -0.152, -0.007, 0.104, 1
38194, -0.179, -0.103, -0.016, -0.176, 0.049, 0.108, 1
38214, -0.036, -0.132, -0.064, -0.214, 0.053, 0.097, 1
38234, 0.113, -0.157, -0.133, -0.269, 0.052, 0.137, 1
38254, 0.039, -0.104, -0.095, -0.307, 0.018, 0.139, 1
38274, -0.07, 0.196, -0.452, -0.158, -0.052, 0.083, 1
38294, -0.202, -0.022, -0.297, -0.205, 0.088, 0.139, 0
38314, -0.052, -0.177, -0.218, -0.285, 0.106, 0.181, 0
38334, -0.269, 0.159, -0.469, -0.252, 0.059, 0.174, 0
38354, -0.274, 0.067, -0.745, -0.064, 0.047, 0.114, 0
38374, 0.004, 0.047, -0.733, 0.078, -0.059, 0.061, 0
38394, -0.139, -0.062, -0.496, 0.071, -0.069, 0.049, 0
38414, -0.374, -0.144, -0.397, 0.058, 0.047, 0.074, 0
38434, -0.264, -0.087, -0.338, 0.031, 0.086, 0.085, 0
38454, -0.351, 0.0, -0.397, 0.101, 0.08, 0.018, 0
38474, -0.204, -0.058, -0.182, 0.095, 0.045, 0.0, 0
38494, -0.447, 0.065, -0.154, 0.119, 0.131, 0.05, 0
38514, -0.473, -0.207, 0.179, 0.076, 0.237, -0.008, 0
38534, -0.024, -0.164, 0.21, 0.005, 0.058, -0.069, 0
38554, -0.242, 0.027, 0.195, 0.015, -0.048, -0.138, 0
38574, -0.232, 0.021, 0.416, 0.043, -0.016, -0.081, 0
38594, -0.271, -0.087, 0.774, 0.004, -0.016, -0.081, 0
38614, -0.285, -0.008, 1.07, -0.001, -0.083, -0.167, 0
38634, 0.001, -0.039, 1.374, -0.084, -0.188, -0.285, 0
38654, 0.274, -0.187, 1.827, -0.237, -0.138, -0.302, 0
38674, 0.041, -0.098, 1.894, -0.367, -0.121, -0.326, 0
38694, 0.096, -0.021, 1.861, -0.402, -0.117, -0.437, 0
38714, -0.001, 0.061, 1.818, -0.407, -0.043, -0.486, 0
38734, 0.231, 0.071, 1.832, -0.47, 0.136, -0.516, 0
38754, 0.44, 0.205, 1.643, -0.603, 0.258, -0.577, 0
38774, 0.977, 0.306, 1.169, -0.707, 0.335, -0.662, 0
38794, 1.798, 0.414, 0.535, -0.74, 0.32, -0.681, 0
38814, 2.221, 0.108, 0.401, -0.665, 0.282, -0.642, 0
38834, 2.35, 0.113, 0.642, -0.762, 0.283, -0.558, 0
38854, 2.376, 0.287, 0.415, -0.82, 0.213, -0.492, 0
38874, 2.471, -0.061, 0.079, -0.787, 0.149, -0.419, 0
38894, 2.656, 0.068, -0.356, -0.743, 0.079, -0.319, 0
38914, 2.59, -0.118, -0.157, -0.72, 0.039, -0.23, 0
38934, 2.301, -0.049, -0.249, -0.808, -0.042, -0.125, 0
38954, 1.916, 0.034, -0.553, -0.878, -0.028, -0.025, 0
38974, 1.888, 0.387, -0.807, -0.902, 0.047, 0.029, 0
38994, 1.821, 0.305, -0.901, -0.802, -0.039, -0.034, 0
39014, 1.566, -0.071, -1.048, -0.75, -0.054, 0.026, 0
39034, 1.75, -0.524, -1.348, -0.742, 0.066, 0.108, 0
39054, 1.687, -0.365, -1.721, -0.777, 0.099, 0.199, 0
39074, 1.863, 0.217, -2.198, -0.745, -0.014, 0.235, 0
39094, 1.425, 0.025, -2.151, -0.624, -0.24, 0.437, 0
39114, 0.905, 0.01, -1.902, -0.59, -0.244, 0.588, 0
39134, 0.557, -0.073, -1.54, -0.549, -0.107, 0.733, 0
39154, 0.233, 0.087, -1.46, -0.441, -0.129, 0.639, 0
39174, 0.141, -0.381, -1.235, -0.397, -0.184, 0.594, 0
39194, 0.048, -0.604, -1.141, -0.455, -0.095, 0.613, 0
39214, 0.506, -0.246, -1.396, -0.449, -0.167, 0.753, 0
39234, -0.108, 0.081, -1.59, -0.355, -0.164, 0.841, 0
39254, -0.741, -0.074, -1.413, -0.26, 0.016, 0.806, 0
39274, -0.243, -0.264, -1.481, -0.374, -0.007, 0.905, 0
39294, -0.136, 0.165, -1.963, -0.4, -0.145, 1.03, 0
39314, -0.644, 0.622, -2.35, -0.142, -0.235, 0.977, 0
39334, -0.549, 0.41, -2.192, 0.13, -0.342, 0.93, 0
39354, -0.78, -0.2, -1.686, 0.032, -0.222, 0.964, 0
39374, -0.822, 0.075, -1.615, -0.073, -0.075, 0.993, 0
39394, -0.797, 0.385, -1.849, -0.031, -0.137, 1.015, 0
39414, -1.338, 0.525, -2.038, 0.119, -0.201, 0.899, 0
39434, -1.573, 0.578, -1.857, 0.268, -0.179, 0.833, 0
39454, -1.701, 0.347, -1.501, 0.259, -0.06, 0.811, 0
39474, -1.495, 0.356, -1.519, 0.235, -0.086, 0.759, 0
39494, -1.703, 0.394, -1.431, 0.252, -0.115, 0.722, 0
39514, -1.959, 0.343, -1.392, 0.257, -0.078, 0.61, 0
39534, -1.381, 0.312, -1.442, 0.245, -0.177, 0.573, 0
39554, -1.335, 0.876, -1.647, 0.408, -0.285, 0.631, 0
39574, -1.698, 0.901, -1.088, 0.642, -0.275, 0.547, 0
39594, -1.73, 0.562, -0.251, 0.72, -0.372, 0.399, 0
39614, -1.716, 0.239, 0.257, 0.665, -0.353, 0.257, 0
39634, -1.68, 0.337, 0.437, 0.638, -0.195, 0.164, 0
39654, -1.695, 0.214, 0.647, 0.693, -0.116, 0.101, 0
39674, -1.293, 0.177, 0.882, 0.599, -0.013, 0.003, 0
39694, -1.147, 0.216, 0.866, 0.545, 0.008, -0.08, 0
39714, -1.038, 0.256, 0.891, 0.608, 0.055, -0.18, 0
39734, -0.826, 0.125, 0.957, 0.656, 0.107, -0.24, 0
39754, -0.33, -0.066, 0.771, 0.647, 0.113, -0.32, 0
39774, -0.029, -0.25, 0.925, 0.605, 0.051, -0.439, 0
39794, -0.129, -0.167, 0.91, 0.486, 0.081, -0.407, 0
39814, -0.052, -0.31, 1.096, 0.445, 0.183, -0.448, 0
39834, 0.098, -0.252, 0.949, 0.306, 0.248, -0.455, 0
39854, 0.742, -0.121, 0.533, 0.209, 0.234, -0.542, 0
39874, 0.949, -0.138, 0.271, 0.251, 0.109, -0.557, 0
39894, 0.85, -0.281, 0.51, 0.255, 0.128, -0.523, 0
39914, 0.772, -0.132, 0.559, 0.171, 0.191, -0.463, 0
39934, 1.041, 0.009, 0.545, 0.113, 0.167, -0.469, 0
39954, 0.787, 0.129, 0.353, 0.112, 0.084, -0.447, 0
39974, 0.955, -0.167, 0.664, 0.249, 0.039, -0.538, 0
39994, 0.998, -0.291, 1.002, 0.156, 0.028, -0.51, 0
40014, 1.154, -0.119, 0.856, 0.042, 0.036, -0.483, 0
40034, 1.147, -0.262, 0.75, 0.042, 0.066, -0.421, 0
40054, 1.397, -0.406, 0.858, -0.025, 0.061, -0.397, 0
40074, 1.419, -0.305, 0.739, -0.053, -0.083, -0.375, 0
40094, 1.193, -0.307, 0.621, -0.042, -0.174, -0.274, 0
40114, 1.011, -0.414, 0.6, -0.124, -0.04, -0.166, 0
40134, 0.695, -0.348, 0.529, -0.157, -0.001, -0.105, 0
40154, 0.522, -0.237, 0.349, -0.21, 0.01, -0.071, 0
40174, 0.429, -0.049, -0.097, -0.156, -0.016, -0.085, 0
40194, 0.369, -0.113, -0.218, -0.135, -0.069, -0.062, 0
40214, 0.091, -0.159, -0.149, -0.156, -0.048, -0.007, 0
40234, -0.008, -0.11, -0.225, -0.207, 0.0, 0.033, 0
40254, -0.083, -0.042, -0.352, -0.249, 0.053, 0.072, 0
40274, -0.048, 0.013, -0.616, -0.171, -0.012, 0.02, 0
40294, -0.145, -0.016, -0.604, -0.114, -0.048, 0.039, 0
40314, -0.182, -0.013, -0.484, -0.087, 0.048, 0.084, 0
40334, -0.06, -0.13, -0.285, -0.112, 0.026, 0.097, 0
40354, -0.173, -0.195, -0.302, -0.112, 0.028, 0.106, 0
40374, -0.215, -0.202, -0.221, -0.138, 0.043, 0.076, 0
40394, -0.112, -0.082, -0.24, -0.158, -0.015, 0.058, 0
40414, -0.343, 0.006, -0.318, -0.089, 0.01, 0.07, 0
40434, -0.24, -0.079, -0.18, -0.057, 0.033, 0.077, 1
40454, -0.141, -0.083, -0.277, -0.064, 0.002, 0.054, 1
40474, 0.021, 0.038, -0.436, -0.001, -0.097, 0.018, 1
40494, -0.071, -0.075, -0.464, -0.01, -0.062, 0.037, 1
40514, -0.092, -0.116, -0.245, 0.033, 0.04, 0.067, 1
40534, 0.053, -0.145, 0.002, -0.027, 0.018, 0.055, 1
40554, 0.039, -0.132, 0.101, -0.151, -0.001, 0.026, 1
40574, 0.076, -0.078, 0.023, -0.246, -0.034, 0.016, 1
40594, -0.151, 0.14, -0.294, -0.104, 0.023, 0.072, 1
40614, 0.076, -0.057, -0.243, -0.05, 0.01, 0.057, 1
40634, 0.065, -0.059, -0.124, -0.07, -0.034, 0.023, 1
40654, -0.021, -0.11, 0.023, -0.127, -0.018, 0.049, 1
40674, -0.042, -0.025, -0.105, -0.175, 0.051, 0.076, 1
40694, -0.037, 0.009, -0.167, -0.145, 0.046, 0.059, 1
40714, -0.076, -0.018, -0.091, -0.129, 0.019, 0.042, 1
40734, 0.028, -0.021, -0.15, -0.131, 0.014, 0.033, 1
40754, 0.019, -0.151, -0.138, -0.114, 0.026, 0.054, 1
40774, 0.041, -0.047, -0.255, -0.153, 0.064, 0.097, 1
40794, -0.033, -0.009, -0.188, -0.117, 0.015, 0.078, 1
40814, -0.066, -0.037, -0.081, -0.091, -0.023, 0.05, 1
40834, -0.07, -0.064, -0.071, -0.083, -0.014, 0.064, 1
40854, -0.05, -0.032, -0.072, -0.119, 0.045, 0.086, 1
40874, 0.011, 0.012, -0.173, -0.144, 0.048, 0.086, 1
40894, -0.015, -0.018, -0.145, -0.114, -0.008, 0.056, 1
40914, -0.005, -0.031, -0.115, -0.125, 0.004, 0.052, 1
40934, -0.006, -0.051, -0.065, -0.138, 0.029, 0.06, 1
40954, 0.009, -0.045, -0.142, -0.169, 0.062, 0.086, 1
40974, 0.047, 0.01, -0.37, -0.131, 0.047, 0.056, 1
40994, -0.003, -0.069, -0.298, -0.069, -0.019, 0.048, 1
41014, -0.054, -0.066, -0.13, -0.08, 0.011, 0.075, 1
41034, -0.029, -0.028, -0.082, -0.128, 0.047, 0.098, 1
41054, -0.065, -0.013, -0.174, -0.163, 0.034, 0.088, 1
41074, -0.02, 0.038, -0.383, -0.053, -0.015, 0.03, 1
41094, -0.038, -0.005, -0.353, -0.009, 0.019, 0.07, 1
41114, 0.003, -0.22, -0.055, -0.111, 0.047, 0.081, 1
41134, -0.015, -0.123, 0.014, -0.218, 0.053, 0.087, 1
41154, -0.028, -0.022, -0.232, -0.147, 0.051, 0.034, 1
41174, 0.034, 0.016, -0.233, -0.102, 0.014, 0.031, 1
41194, 0.032, -0.048, -0.164, -0.145, 0.023, 0.058, 1
41214, 0.156, -0.051, -0.008, -0.193, 0.003, 0.092, 1
41234, -0.048, -0.084, -0.067, -0.199, 0.026, 0.106, 1
41254, -0.024, -0.026, -0.117, -0.153, 0.059, 0.114, 1
41274, 0.009, -0.027, -0.089, -0.147, 0.026, 0.067, 1
41294, 0.146, -0.041, -0.119, -0.131, -0.061, 0.091, 1
41314, -0.126, -0.122, -0.128, -0.175, -0.028, 0.158, 1
41334, -0.31, -0.019, -0.191, -0.209, 0.065, 0.173, 1
41354, -0.148, 0.007, -0.166, -0.178, 0.064, 0.124, 0
41374, 0.067, -0.349, -0.271, -0.195, -0.035, 0.111, 0
41394, 0.004, -0.104, -0.105, -0.318, -0.047, 0.182, 0
41414, -0.066, 0.392, -0.954, 0.074, -0.074, 0.191, 0
41434, -0.019, 0.063, -0.817, 0.386, -0.062, 0.184, 0
41454, -0.066, -0.505, -0.095, 0.163, -0.023, 0.19, 0
41474, -0.35, -0.321, -0.006, -0.075, 0.027, 0.186, 0
41494, -0.52, -0.015, -0.371, -0.05, 0.054, 0.153, 0
41514, -0.543, 0.045, -0.54, 0.069, 0.062, 0.111, 0
41534, -0.607, -0.042, -0.512, 0.14, 0.063, 0.095, 0
41554, -0.658, -0.004, -0.415, 0.16, 0.102, 0.049, 0
41574, -0.553, -0.016, -0.044, 0.109, 0.113, -0.008, 0
41594, -0.492, 0.12, -0.087, 0.116, 0.035, -0.092, 0
41614, -0.479, -0.092, 0.164, 0.205, 0.067, -0.087, 0
41634, -0.293, -0.32, 0.714, 0.143, 0.132, -0.117, 0
41654, -0.361, -0.027, 0.807, -0.025, 0.092, -0.161, 0
41674, -0.164, 0.114, 0.762, -0.002, 0.033, -0.255, 0
41694, -0.077, 0.019, 0.756, 0.058, 0.023, -0.256, 0
41714, -0.114, -0.231, 1.206, 0.013, 0.113, -0.276, 0
41734, 0.158, 0.035, 1.415, -0.18, 0.154, -0.355, 0
41754, 0.089, 0.053, 1.224, -0.236, 0.015, -0.373, 0
41774, 0.12, 0.047, 1.2, -0.215, -0.011, -0.43, 0
41794, 0.061, -0.204, 1.705, -0.176, -0.006, -0.415, 0
41814, -0.019, -0.046, 2.028, -0.384, 0.124, -0.447, 0
41834, 0.404, -0.065, 1.745, -0.478, 0.134, -0.56, 0
41854, 0.803, 0.073, 1.352, -0.461, 0.095, -0.612, 0
41874, 1.029, -0.282, 1.62, -0.398, 0.155, -0.604, 0
41894, 1.48, -0.34, 1.804, -0.612, 0.262, -0.611, 0
41914, 1.826, -0.025, 1.196, -0.779, 0.257, -0.593, 0
41934, 1.902, 0.161, 0.896, -0.794, 0.243, -0.516, 0
41954, 1.96, 0.133, 0.79, -0.739, 0.233, -0.459, 0
41974, 1.916, -0.026, 0.584, -0.695, 0.15, -0.417, 0
41994, 2.065, -0.367, 0.569, -0.82, 0.211, -0.369, 0
42014, 2.254, -0.014, 0.039, -1.034, 0.253, -0.259, 0
42034, 2.549, 0.113, -0.443, -0.985, 0.108, -0.219, 0
42054, 2.276, -0.076, -0.513, -0.888, -0.053, 0.0, 0
42074, 2.141, -0.189, -0.409, -1.073, -0.09, 0.138, 0
42094, 2.027, 0.099, -1.173, -1.07, -0.169, 0.183, 0
42114, 1.73, 0.315, -1.862, -0.9, -0.105, 0.234, 0
42134, 1.801, -0.021, -1.88, -0.853, -0.055, 0.343, 0
42154, 1.846, -0.017, -1.977, -0.837, -0.165, 0.461, 0
42174, 1.336, 0.033, -2.083, -0.858, -0.221, 0.562, 0
42194, 0.939, 0.126, -2.451, -0.718, -0.202, 0.587, 0
42214, 0.774, 0.016, -2.45, -0.566, -0.194, 0.642, 0
42234, 0.598, -0.145, -2.089, -0.517, -0.255, 0.704, 0
42254, 0.059, 0.14, -1.868, -0.486, -0.272, 0.631, 0
42274, 0.084, 0.35, -1.608, -0.417, -0.282, 0.641, 0
42294, 0.047, 0.4, -1.741, -0.295, -0.227, 0.868, 0
42314, -0.152, 0.137, -1.508, -0.251, -0.099, 0.971, 0
42334, -0.213, 0.193, -1.221, -0.248, -0.12, 1.001, 0
42354, -1.326, 0.866, -1.687, 0.081, 0.163, 0.908, 0
42374, -0.104, -0.231, -1.078, 0.116, 0.18, 0.891, 0
42394, 0.573, -0.77, -0.966, -0.108, -0.074, 0.992, 0
42414, -0.128, -0.461, -1.561, -0.228, -0.156, 1.103, 0
42434, -0.701, 0.149, -2.162, -0.075, -0.152, 1.036, 0
42454, -0.746, 0.156, -2.06, 0.019, -0.307, 0.96, 0
42474, -1.212, 0.151, -1.922, 0.026, -0.307, 0.921, 0
42494, -1.405, 0.372, -2.025, 0.032, -0.141, 0.996, 0
42514, -1.808, 0.744, -2.565, 0.215, 0.005, 0.976, 0
42534, -1.634, 0.74, -2.735, 0.443, -0.119, 0.906, 0
42554, -1.871, 0.403, -2.111, 0.439, -0.252, 0.849, 0
42574, -2.091, 0.53, -1.926, 0.549, -0.207, 0.794, 0
42594, -2.01, 0.505, -1.6, 0.693, -0.204, 0.69, 0
42614, -2.045, 0.408, -1.127, 0.745, -0.229, 0.601, 0
42634, -2.137, 0.32, -0.775, 0.752, -0.167, 0.535, 0
42654, -1.867, 0.403, -0.634, 0.75, -0.083, 0.457, 0
42674, -1.664, 0.404, -0.367, 0.802, -0.111, 0.342, 0
42694, -1.749, 0.456, 0.06, 0.744, -0.13, 0.252, 0
42714, -1.784, 0.526, 0.267, 0.706, -0.076, 0.195, 0
42734, -1.841, 0.502, 0.473, 0.726, -0.052, 0.135, 0
42754, -1.622, 0.369, 0.676, 0.707, -0.032, 0.029, 0
42774, -1.078, 0.415, 0.736, 0.616, -0.038, -0.106, 0
42794, -0.9, 0.254, 0.863, 0.58, -0.103, -0.143, 0
42814, -0.837, 0.13, 1.211, 0.494, -0.113, -0.157, 0
42834, -0.662, 0.291, 1.24, 0.423, -0.157, -0.249, 0
42854, -1.049, 0.321, 1.231, 0.544, -0.214, -0.376, 0
42874, -0.567, 0.011, 1.472, 0.606, 0.034, -0.418, 0
42894, 0.087, -0.222, 1.74, 0.508, 0.1, -0.453, 0
42914, 0.219, -0.057, 1.594, 0.286, 0.042, -0.476, 0
42934, 0.044, 0.023, 1.197, 0.185, 0.026, -0.494, 0
42954, 0.261, -0.193, 1.335, 0.187, 0.028, -0.587, 0
42974, 0.494, -0.348, 1.45, 0.026, -0.014, -0.61, 0
42994, 0.843, -0.331, 1.1, -0.142, -0.119, -0.625, 0
43014, 0.744, -0.262, 0.721, -0.159, -0.144, -0.643, 0
43034, 1.043, -0.312, 0.696, -0.048, -0.076, -0.591, 0
43054, 1.032, -0.326, 0.72, -0.065, -0.002, -0.497, 0
43074, 1.138, -0.339, 0.665, -0.092, 0.048, -0.493, 0
43094, 1.221, -0.394, 0.747, -0.162, 0.018, -0.531, 0
43114, 1.365, -0.214, 0.572, -0.102, -0.103, -0.512, 0
43134, 1.077, -0.501, 0.663, -0.085, -0.028, -0.463, 0
43154, 1.294, -0.652, 0.547, -0.197, 0.048, -0.39, 0
43174, 1.641, -0.589, 0.232, -0.303, 0.018, -0.319, 0
43194, 1.684, -0.415, -0.209, -0.251, -0.045, -0.225, 0
43214, 1.42, -0.246, -0.406, -0.153, -0.091, -0.139, 0
43234, 0.59, -0.237, -0.182, -0.186, -0.035, -0.104, 0
43254, 0.422, -0.094, -0.419, -0.196, -0.023, -0.104, 0
43274, 0.622, -0.188, -0.578, -0.193, -0.045, -0.056, 0
43294, 0.457, -0.326, -0.53, -0.185, -0.03, 0.006, 0
43314, 0.165, -0.24, -0.284, -0.183, -0.026, 0.035, 0
43334, -0.214, -0.21, -0.302, -0.192, 0.023, 0.041, 0
43354, -0.141, -0.096, -0.448, -0.166, 0.076, 0.049, 0
43374, 0.008, -0.128, -0.437, -0.159, 0.087, 0.076, 0
43394, -0.132, -0.129, -0.308, -0.193, 0.087, 0.081, 0
43414, -0.354, -0.018, -0.417, -0.185, 0.115, 0.095, 0
43434, -0.153, 0.001, -0.516, -0.176, 0.127, 0.087, 0
43454, 0.001, 0.024, -0.589, -0.143, 0.017, 0.078, 0
43474, -0.216, -0.037, -0.481, -0.099, -0.024, 0.09, 0
43494, -0.384, -0.133, -0.235, -0.112, 0.021, 0.094, 0
43514, -0.292, -0.15, -0.137, -0.106, 0.023, 0.057, 0
43534, -0.241, -0.306, -0.027, -0.043, -0.017, 0.04, 0
43554, -0.07, -0.186, 0.082, -0.125, 0.019, 0.056, 0
43574, -0.128, -0.099, -0.045, -0.105, 0.037, 0.069, 0
43594, 0.015, -0.096, 0.006, -0.119, 0.083, 0.065, 0
43614, -0.027, -0.02, -0.141, -0.098, 0.038, 0.048, 0
43634, 0.018, -0.023, -0.198, -0.058, 0.038, 0.047, 0
43654, 0.025, -0.013, -0.265, -0.029, 0.025, 0.072, 0
43674, -0.087, 0.044, -0.325, 0.036, -0.004, 0.093, 0
43694, -0.048, 0.118, -0.307, 0.171, -0.023, 0.116, 1
43714, 0.083, -0.726, 0.109, 0.244, -0.012, 0.058, 1
43734, 0.103, -0.27, 0.278, -0.118, 0.081, 0.073, 1
43754, -0.064, 0.028, -0.127, -0.243, 0.048, 0.077, 1
43774, -0.042, 0.013, -0.308, -0.163, 0.026, 0.067, 1
43794, 0.059, -0.085, -0.168, -0.063, 0.008, 0.047, 1
43814, -0.025, -0.115, -0.088, -0.084, 0.003, 0.055, 1
43834, -0.042, -0.15, -0.067, -0.123, 0.027, 0.062, 1
43854, -0.034, -0.017, -0.236, -0.175, 0.042, 0.064, 1
43874, 0.023, 0.071, -0.484, -0.097, 0.001, 0.009, 1
43894, -0.068, -0.012, -0.406, -0.012, -0.039, 0.016, 1
43914, 0.037, -0.261, -0.148, -0.04, 0.034, 0.047, 1
43934, 0.165, -0.171, -0.273, -0.135, 0.056, 0.069, 1
43954, 0.097, -0.037, -0.37, -0.109, 0.015, 0.053, 1
43974, -0.009, 0.013, -0.273, -0.015, -0.046, 0.034, 1
43994, -0.099, -0.09, 0.011, -0.014, -0.02, 0.063, 1
44014, -0.112, -0.16, 0.237, -0.13, 0.051, 0.098, 1
44034, -0.091, -0.073, 0.108, -0.189, 0.087, 0.09, 1
44054, 0.0, 0.018, -0.266, -0.1, 0.02, 0.03, 1
44074, 0.0, 0.011, -0.344, -0.029, -0.017, 0.029, 1
44094, -0.011, -0.066, -0.146, -0.057, 0.018, 0.058, 1
44114, 0.023, -0.145, 0.09, -0.137, 0.032, 0.085, 1
44134, -0.037, -0.084, 0.08, -0.183, 0.055, 0.092, 1
44154, -0.018, 0.029, -0.167, -0.089, 0.017, 0.051, 1
44174, 0.005, -0.041, -0.204, -0.061, -0.001, 0.051, 1
44194, 0.002, -0.088, -0.163, -0.104, 0.012, 0.078, 1
44214, -0.036, -0.127, -0.104, -0.173, 0.033, 0.091, 1
44234, -0.047, -0.005, -0.293, -0.135, 0.013, 0.054, 1
44254, 0.011, 0.008, -0.43, -0.062, -0.008, 0.042, 1
44274, 0.0, -0.028, -0.311, -0.084, 0.028, 0.087, 1
44294, -0.07, -0.056, -0.252, -0.095, 0.051, 0.106, 1
44314, -0.091, -0.029, -0.205, -0.115, 0.031, 0.062, 1
44334, -0.004, -0.012, -0.255, -0.092, -0.03, 0.029, 1
44354, 0.009, -0.023, -0.185, -0.102, -0.004, 0.049, 1
44374, 0.003, -0.043, -0.105, -0.108, 0.045, 0.097, 1
44394, -0.02, -0.041, -0.105, -0.133, 0.059, 0.087, 1
44414, -0.012, -0.021, -0.125, -0.131, 0.021, 0.073, 1
44434, -0.024, -0.007, -0.138, -0.143, 0.042, 0.065, 1
44454, 0.021, -0.004, -0.226, -0.116, 0.043, 0.105, 1
44474, -0.033, -0.008, -0.189, -0.093, 0.041, 0.092, 1
44494, -0.134, -0.095, -0.052, -0.089, 0.02, 0.07, 1
44514, 0.005, -0.003, -0.162, -0.155, 0.032, 0.065, 1
44534, -0.009, -0.007, -0.291, -0.124, 0.017, 0.065, 1
44554, -0.102, -0.141, -0.182, -0.08, -0.012, 0.059, 1
44574, -0.079, -0.137, -0.161, -0.093, 0.039, 0.076, 1
44594, 0.076, -0.134, -0.06, -0.149, 0.073, 0.084, 1
44614, -0.029, -0.112, -0.06, -0.237, 0.055, 0.08, 1
44634, -0.022, 0.028, -0.261, -0.219, 0.018, 0.067, 1
44654, -0.053, -0.172, -0.171, -0.069, -0.069, 0.007, 1
44674, -0.074, -0.26, -0.052, -0.108, -0.031, 0.042, 1
44694, -0.022, -0.185, -0.061, -0.222, 0.05, 0.098, 1
44714, 0.03, -0.047, -0.043, -0.318, 0.065, 0.061, 0
44734, -0.008, 0.067, -0.471, -0.264, -0.069, 0.039, 0
44754, -0.327, 0.181, -0.683, -0.051, -0.12, 0.051, 0
44774, -0.092, -0.087, -0.493, 0.165, -0.072, 0.063, 0
44794, -0.243, -0.361, -0.019, 0.07, 0.021, 0.099, 0
44814, -0.342, -0.089, -0.277, -0.064, 0.073, 0.127, 0
44834, -0.54, -0.223, -0.122, -0.036, 0.073, 0.076, 0
44854, -0.503, -0.036, -0.263, -0.073, 0.105, 0.012, 0
44874, -0.352, 0.085, -0.394, -0.066, 0.158, 0.017, 0
44894, -0.438, 0.048, -0.388, -0.003, 0.18, 0.042, 0
44914, -0.275, 0.026, -0.302, 0.081, 0.156, -0.037, 0
44934, -0.384, -0.129, -0.059, 0.177, 0.02, -0.105, 0
44954, -0.52, -0.153, 0.172, 0.141, 0.027, -0.135, 0
44974, -0.388, -0.205, 0.424, -0.009, 0.139, -0.18, 0
44994, -0.379, 0.132, 0.409, 0.072, 0.137, -0.254, 0
45014, -0.158, 0.044, 0.815, 0.135, 0.059, -0.315, 0
45034, -0.289, -0.306, 1.469, -0.038, 0.114, -0.345, 0
45054, -0.252, -0.308, 1.799, -0.295, 0.224, -0.383, 0
45074, 0.009, 0.007, 1.48, -0.326, 0.201, -0.402, 0
45094, -0.333, 0.105, 1.416, -0.241, 0.283, -0.511, 0
45114, 0.182, -0.221, 1.964, -0.377, 0.324, -0.614, 0
45134, 0.62, -0.267, 1.834, -0.574, 0.216, -0.653, 0
45154, 0.979, -0.123, 1.464, -0.598, 0.161, -0.618, 0
45174, 1.025, -0.019, 1.456, -0.449, 0.113, -0.592, 0
45194, 0.657, -0.301, 2.054, -0.566, 0.18, -0.585, 0
45214, 1.145, -0.34, 1.92, -0.799, 0.221, -0.577, 0
45234, 1.599, -0.073, 1.436, -0.86, 0.202, -0.53, 0
45254, 1.732, 0.093, 1.32, -0.833, 0.203, -0.525, 0
45274, 1.817, 0.378, 1.003, -0.783, 0.165, -0.459, 0
45294, 2.387, 0.099, 0.573, -0.879, 0.123, -0.398, 0
45314, 2.583, 0.434, -0.361, -0.879, 0.115, -0.23, 0
45334, 2.671, 0.299, -0.58, -0.801, 0.042, -0.152, 0
45354, 2.439, 0.222, -0.383, -0.863, -0.092, -0.054, 0
45374, 1.718, 0.459, -0.793, -0.913, -0.104, -0.022, 0
45394, 1.413, 0.497, -1.265, -0.888, -0.028, -0.009, 0
45414, 1.459, 0.027, -1.411, -0.917, 0.026, -0.017, 0
45434, 1.5, 0.107, -1.837, -0.944, 0.062, 0.133, 0
45454, 1.209, 0.147, -2.238, -0.853, 0.124, 0.276, 0
45474, 1.38, 0.553, -2.774, -0.738, -0.048, 0.268, 0
45494, 1.128, 0.31, -2.397, -0.525, -0.257, 0.326, 0
45514, 0.382, -0.004, -1.66, -0.46, -0.235, 0.427, 0
45534, 0.343, 0.129, -1.163, -0.505, -0.124, 0.461, 0
45554, 0.217, 0.368, -1.254, -0.42, -0.141, 0.533, 0
45574, 0.684, 0.017, -1.018, -0.257, -0.166, 0.496, 0
45594, 0.404, -0.133, -0.859, -0.262, -0.255, 0.635, 0
45614, -0.025, 0.114, -0.783, -0.35, -0.111, 0.803, 0
45634, 0.044, 0.033, -0.726, -0.348, -0.04, 0.839, 0
45654, -0.046, -0.09, -0.913, -0.282, -0.195, 0.758, 0
45674, -0.251, 0.002, -1.406, -0.276, -0.211, 0.828, 0
45694, -0.19, 0.14, -1.64, -0.315, 0.027, 0.976, 0
45714, -0.125, 0.375, -1.933, -0.284, 0.021, 1.021, 0
45734, -0.558, 0.339, -2.108, -0.143, -0.183, 0.964, 0
45754, -1.359, 0.282, -2.326, -0.001, -0.141, 1.02, 0
45774, -1.167, -0.099, -2.414, 0.061, 0.218, 1.037, 0
45794, -0.424, 0.368, -2.946, -0.007, 0.212, 1.034, 0
45814, -0.913, 0.917, -3.085, 0.222, -0.169, 0.946, 0
45834, -1.754, 0.879, -2.387, 0.538, -0.116, 0.971, 0
45854, -1.183, 0.21, -1.403, 0.579, 0.178, 1.036, 0
45874, -1.11, 0.141, -1.263, 0.381, 0.084, 1.021, 0
45894, -1.452, 0.648, -1.647, 0.389, -0.16, 0.916, 0
45914, -2.058, 0.621, -1.484, 0.528, -0.183, 0.821, 0
45934, -1.958, 0.495, -1.228, 0.525, 0.049, 0.788, 0
45954, -1.846, 0.477, -1.055, 0.492, 0.11, 0.718, 0
45974, -1.869, 0.759, -1.162, 0.633, -0.02, 0.573, 0
45994, -2.101, 0.801, -0.884, 0.722, -0.087, 0.486, 0
46014, -2.375, 0.756, -0.373, 0.744, -0.047, 0.372, 0
46034, -2.619, 0.696, 0.027, 0.768, 0.032, 0.252, 0
46054, -2.3, 0.569, 0.319, 0.785, 0.038, 0.106, 0
46074, -1.844, 0.455, 0.443, 0.807, -0.036, -0.017, 0
46094, -1.621, 0.348, 0.719, 0.731, -0.041, -0.058, 0
46114, -1.524, 0.217, 1.059, 0.652, 0.016, -0.113, 0
46134, -1.034, 0.18, 1.034, 0.633, -0.033, -0.212, 0
46154, -0.835, 0.153, 1.145, 0.642, -0.086, -0.31, 0
46174, -0.685, 0.063, 1.554, 0.507, -0.098, -0.282, 0
46194, -0.881, 0.071, 1.628, 0.441, -0.076, -0.35, 0
46214, -0.557, 0.02, 1.68, 0.383, -0.12, -0.436, 0
46234, -0.468, 0.035, 1.514, 0.363, -0.07, -0.561, 0
46254, -0.009, -0.146, 1.665, 0.25, 0.016, -0.611, 0
46274, 0.554, -0.245, 1.485, 0.121, -0.054, -0.588, 0
46294, 0.566, -0.147, 1.038, 0.051, -0.069, -0.553, 0
46314, 0.525, -0.01, 0.883, 0.045, -0.047, -0.614, 0
46334, 0.507, 0.049, 0.924, 0.057, -0.059, -0.64, 0
46354, 0.725, -0.007, 0.838, 0.101, -0.077, -0.662, 0
46374, 0.845, -0.257, 0.939, 0.058, -0.01, -0.669, 0
46394, 1.389, -0.293, 1.019, -0.06, -0.036, -0.656, 0
46414, 1.639, -0.279, 0.822, -0.133, -0.138, -0.585, 0
46434, 1.66, -0.22, 0.537, -0.095, -0.18, -0.49, 0
46454, 1.345, -0.176, 0.664, -0.108, -0.116, -0.478, 0
46474, 1.627, -0.445, 0.791, -0.108, -0.098, -0.475, 0
46494, 1.76, -0.711, 0.603, -0.189, -0.129, -0.423, 0
46514, 1.764, -0.497, 0.08, -0.297, -0.086, -0.316, 0
46534, 1.927, -0.581, -0.08, -0.274, -0.045, -0.235, 0
46554, 1.545, -0.58, -0.377, -0.28, -0.071, -0.12, 0
46574, 1.327, -0.324, -0.676, -0.281, -0.07, -0.068, 0
46594, 0.714, -0.158, -0.75, -0.249, -0.064, -0.003, 0
46614, 0.286, -0.085, -0.715, -0.213, 0.015, 0.075, 0
46634, 0.062, -0.126, -0.586, -0.153, 0.013, 0.07, 0
46654, -0.036, -0.227, -0.573, -0.177, 0.006, 0.068, 0
46674, -0.014, -0.081, -0.738, -0.232, 0.041, 0.077, 0
46694, -0.028, -0.062, -0.727, -0.237, 0.067, 0.09, 0
46714, -0.025, -0.006, -0.707, -0.191, 0.045, 0.113, 0
46734, -0.123, -0.058, -0.546, -0.086, 0.008, 0.113, 0
46754, -0.254, -0.007, -0.299, -0.064, 0.039, 0.135, 0
46774, -0.326, 0.043, -0.259, -0.053, 0.043, 0.128, 0
46794, -0.069, -0.03, -0.08, -0.014, 0.016, 0.063, 1
46814, -0.031, -0.18, -0.017, -0.02, -0.061, 0.047, 1
46834, -0.281, 0.16, -0.029, -0.067, -0.088, 0.058, 1
46854, -0.161, -0.051, -0.066, 0.003, -0.02, 0.071, 1
46874, 0.069, -0.153, 0.065, 0.045, -0.016, 0.036, 1
46894, 0.074, -0.239, -0.058, 0.039, -0.07, 0.048, 1
46914, -0.023, -0.222, 0.002, -0.128, -0.043, 0.092, 1
46934, 0.031, -0.119, -0.026, -0.178, 0.029, 0.099, 1
46954, -0.082, -0.02, -0.183, -0.114, 0.008, 0.062, 1
46974, 0.023, -0.006, -0.272, -0.067, -0.004, 0.048, 1
46994, 0.127, -0.114, -0.242, -0.129, -0.015, 0.065, 1
47014, 0.025, -0.031, -0.389, -0.135, -0.003, 0.08, 1
47034, -0.058, 0.0, -0.312, -0.122, 0.023, 0.092, 1
47054, -0.097, 0.032, -0.206, -0.093, 0.015, 0.072, 1
47074, -0.023, -0.034, -0.078, -0.086, -0.027, 0.042, 1
47094, 0.011, -0.011, -0.195, -0.07, -0.011, 0.054, 1
47114, 0.073, -0.105, -0.253, -0.099, 0.046, 0.076, 1
47134, 0.077, -0.028, -0.166, -0.14, 0.003, 0.07, 1
47154, -0.133, 0.062, -0.246, -0.078, -0.04, 0.035, 1
47174, -0.125, -0.041, -0.196, -0.044, 0.038, 0.063, 1
47194, 0.009, -0.114, -0.106, -0.059, 0.047, 0.075, 1
47214, -0.025, -0.101, -0.036, -0.145, 0.043, 0.075, 1
47234, -0.105, 0.069, -0.147, -0.13, 0.024, 0.042, 1
47254, -0.011, 0.022, -0.15, -0.087, 0.037, 0.035, 1
47274, 0.156, -0.124, -0.129, -0.067, 0.035, 0.06, 1
47294, 0.085, -0.205, 0.01, -0.091, 0.079, 0.106, 1
47314, 0.006, -0.09, 0.069, -0.147, 0.062, 0.084, 1
47334, -0.049, 0.035, -0.168, -0.125, -0.029, 0.041, 1
47354, 0.009, -0.025, -0.333, -0.08, -0.026, 0.051, 1
47374, -0.003, -0.059, -0.312, -0.076, 0.042, 0.088, 1
47394, 0.027, -0.064, -0.223, -0.12, 0.058, 0.116, 1
47414, 0.001, -0.019, -0.175, -0.128, -0.012, 0.082, 1
47434, -0.041, -0.019, -0.145, -0.093, -0.004, 0.074, 1
47454, -0.002, -0.041, -0.056, -0.117, 0.007, 0.085, 1
47474, -0.06, 0.035, -0.206, -0.127, 0.029, 0.092, 1
47494, 0.054, -0.022, -0.158, -0.098, 0.018, 0.068, 1
47514, -0.065, -0.05, -0.108, -0.098, -0.013, 0.07, 1
47534, -0.05, -0.056, -0.029, -0.079, 0.004, 0.078, 1
47554, -0.019, -0.035, -0.048, -0.108, 0.037, 0.106, 1
47574, -0.009, -0.021, -0.049, -0.122, 0.033, 0.098, 1
47594, 0.018, -0.042, -0.078, -0.127, 0.018, 0.066, 1
47614, -0.037, -0.035, -0.176, -0.105, -0.018, 0.067, 1
47634, -0.036, -0.02, -0.186, -0.1, 0.026, 0.084, 1
47654, 0.01, -0.054, -0.116, -0.114, 0.032, 0.074, 1
47674, -0.01, -0.014, -0.246, -0.143, 0.017, 0.075, 1
47694, 0.021, -0.058, -0.167, -0.169, 0.066, 0.078, 1
47714, 0.014, -0.001, -0.327, -0.19, 0.04, 0.083, 1
47734, 0.013, -0.105, -0.394, -0.119, -0.023, 0.064, 1
47754, 0.012, -0.074, -0.265, -0.175, -0.031, 0.082, 1
47774, -0.001, -0.012, -0.279, -0.227, -0.006, 0.089, 1
47794, -0.011, -0.078, -0.22, -0.246, -0.013, 0.087, 1
47814, -0.186, 0.148, -0.579, -0.202, -0.059, 0.043, 0
47834, -0.158, 0.119, -0.534, -0.064, -0.113, 0.012, 0
47854, -0.052, 0.121, -0.88, 0.051, -0.015, 0.096, 0
47874, -0.021, -0.423, -0.402, 0.186, 0.073, 0.185, 0
47894, -0.136, -0.288, -0.349, -0.025, 0.103, 0.161, 0
47914, -0.171, -0.071, -0.719, 0.061, 0.138, 0.156, 0
47934, -0.259, -0.107, -0.55, 0.084, 0.243, 0.151, 0
47954, -0.308, -0.147, -0.292, 0.119, 0.262, 0.094, 0
47974, -0.333, -0.165, -0.037, 0.061, 0.161, 0.071, 0
47994, -0.549, -0.102, 0.001, 0.037, 0.14, 0.036, 0
48014, -0.693, -0.062, 0.118, 0.016, 0.178, -0.019, 0
48034, -0.682, 0.121, 0.224, 0.051, 0.142, -0.108, 0
48054, -0.812, 0.148, 0.438, 0.098, 0.16, -0.164, 0
48074, -0.701, 0.021, 0.74, 0.104, 0.184, -0.21, 0
48094, -0.353, -0.195, 1.014, 0.008, 0.188, -0.252, 0
48114, -0.025, -0.304, 1.182, -0.143, 0.121, -0.313, 0
48134, 0.0, -0.104, 1.092, -0.188, 0.062, -0.343, 0
48154, 0.096, -0.046, 1.006, -0.133, 0.017, -0.354, 0
48174, -0.014, -0.174, 1.261, -0.193, 0.075, -0.401, 0
48194, 0.231, -0.124, 1.559, -0.319, 0.054, -0.413, 0
48214, 0.032, 0.156, 1.458, -0.306, 0.055, -0.425, 0
48234, -0.044, -0.049, 1.56, -0.395, 0.141, -0.477, 0
48254, 0.118, 0.066, 1.594, -0.513, 0.17, -0.521, 0
48274, 0.192, 0.105, 1.408, -0.53, 0.166, -0.547, 0
48294, 0.126, 0.053, 1.513, -0.569, 0.237, -0.558, 0
48314, 0.482, 0.021, 1.451, -0.586, 0.249, -0.602, 0
48334, 1.095, -0.244, 1.163, -0.664, 0.149, -0.614, 0
48354, 1.542, -0.317, 0.821, -0.741, 0.09, -0.522, 0
48374, 1.496, -0.171, 0.857, -0.787, 0.103, -0.414, 0
48394, 1.887, 0.085, 0.099, -0.641, -0.018, -0.416, 0
48414, 2.151, 0.131, 0.028, -0.572, -0.122, -0.361, 0
48434, 1.818, 0.032, 0.442, -0.654, -0.149, -0.268, 0
48454, 1.279, 0.105, 0.485, -0.784, -0.148, -0.188, 0
48474, 0.865, 0.361, 0.331, -0.79, -0.079, -0.161, 0
48494, 1.06, 0.437, -0.309, -0.701, -0.042, -0.24, 0
48514, 1.611, -0.002, -0.609, -0.659, -0.045, -0.241, 0
48534, 1.878, -0.119, -0.747, -0.903, 0.015, -0.065, 0
48554, 1.685, -0.114, -1.005, -1.058, 0.015, 0.083, 0
48574, 1.368, -0.052, -1.578, -1.082, -0.031, 0.2, 0
48594, 0.934, 0.141, -2.287, -0.951, -0.132, 0.263, 0
48614, 0.883, 0.019, -2.433, -0.785, -0.047, 0.343, 0
48634, 1.124, 0.018, -2.171, -0.773, -0.075, 0.44, 0
48654, 0.643, 0.108, -2.05, -0.795, -0.262, 0.513, 0
48674, 0.218, 0.225, -1.91, -0.668, -0.35, 0.507, 0
48694, -0.159, 0.342, -1.614, -0.528, -0.24, 0.469, 0
48714, -0.055, 0.424, -1.278, -0.43, -0.04, 0.51, 0
48734, 0.429, 0.151, -1.013, -0.443, 0.045, 0.605, 0
48754, 0.59, -0.067, -1.143, -0.496, -0.152, 0.829, 0
48774, 0.015, -0.001, -1.38, -0.451, -0.271, 0.941, 0
48794, -0.077, 0.091, -1.446, -0.273, -0.332, 0.887, 0
48814, -0.239, -0.027, -1.442, -0.241, -0.301, 0.945, 0
48834, -0.246, 0.0, -1.621, -0.299, -0.207, 0.99, 0
48854, -0.426, 0.301, -2.089, -0.302, -0.117, 1.103, 0
48874, -0.434, 0.21, -2.326, -0.132, -0.139, 1.13, 0
48894, -0.868, 0.323, -2.513, -0.062, -0.183, 1.137, 0
48914, -1.426, 0.636, -2.887, 0.043, -0.045, 1.144, 0
48934, -1.332, 0.629, -2.824, 0.119, 0.001, 1.11, 0
48954, -1.347, 0.559, -2.522, 0.158, -0.127, 1.087, 0
48974, -1.723, 0.588, -2.559, 0.245, -0.166, 1.047, 0
48994, -1.738, 0.775, -2.667, 0.39, -0.218, 0.981, 0
49014, -2.25, 0.594, -2.234, 0.437, -0.213, 0.94, 0
49034, -2.736, 0.768, -2.0, 0.498, -0.083, 0.797, 0
49054, -2.212, 1.002, -2.066, 0.758, -0.167, 0.612, 0
49074, -2.148, 0.802, -1.706, 0.896, -0.195, 0.547, 0
49094, -1.989, 0.586, -1.142, 0.913, -0.158, 0.513, 0
49114, -1.907, 0.516, -0.791, 0.871, -0.147, 0.478, 0
49134, -1.823, 0.714, -0.826, 0.93, -0.127, 0.379, 0
49154, -1.746, 0.883, -0.635, 1.078, -0.13, 0.289, 0
49174, -1.533, 0.649, 0.149, 1.078, -0.246, 0.182, 0
49194, -1.959, 0.496, 0.605, 1.008, -0.253, 0.016, 0
49214, -1.591, 0.581, 0.64, 0.955, -0.196, -0.026, 0
49234, -1.33, 0.458, 0.721, 0.937, -0.102, -0.003, 0
49254, -0.911, 0.027, 1.346, 0.778, -0.039, -0.006, 0
49274, -0.987, 0.054, 1.652, 0.685, -0.004, -0.086, 0
49294, -0.904, 0.246, 1.543, 0.682, 0.026, -0.205, 0
49314, -0.761, 0.247, 1.559, 0.66, 0.035, -0.364, 0
49334, -0.478, 0.135, 1.779, 0.573, 0.066, -0.409, 0
49354, -0.236, 0.088, 1.839, 0.476, 0.07, -0.431, 0
49374, -0.156, -0.049, 1.889, 0.402, 0.071, -0.505, 0
49394, 0.053, -0.123, 2.07, 0.361, 0.117, -0.609, 0
49414, 0.535, -0.234, 2.001, 0.17, 0.163, -0.66, 0
49434, 1.007, -0.361, 1.605, -0.015, 0.092, -0.652, 0
49454, 0.903, -0.209, 1.149, -0.083, 0.065, -0.624, 0
49474, 1.156, -0.108, 1.046, 0.008, 0.085, -0.662, 0
49494, 1.206, -0.27, 1.089, 0.064, 0.024, -0.668, 0
49514, 1.248, -0.374, 1.199, 0.037, -0.074, -0.679, 0
49534, 0.919, -0.337, 1.309, -0.1, -0.087, -0.574, 0
49554, 0.955, -0.168, 1.172, -0.146, -0.013, -0.588, 0
49574, 1.079, -0.343, 0.908, -0.151, -0.002, -0.59, 0
49594, 1.325, -0.361, 0.622, -0.233, -0.026, -0.601, 0
49614, 1.371, -0.43, 0.582, -0.301, -0.047, -0.541, 0
49634, 1.776, -0.407, -0.067, -0.35, -0.087, -0.511, 0
49654, 1.997, -0.503, -0.629, -0.276, -0.139, -0.442, 0
