timestamp, accX, accY, accZ, gyroX, gyroY, gyroZ, button
5089, 2.713, 7.636, -9.105, -0.078, 0.025, 0.073, 1
5109, 2.714, 7.695, -8.916, -0.057, 0.047, 0.067, 1
5129, 2.691, 7.666, -8.66, -0.061, 0.033, 0.049, 1
5149, 2.747, 7.586, -8.501, -0.076, 0.006, 0.046, 1
5169, 2.614, 7.594, -8.534, -0.091, 0.027, 0.036, 1
5189, 2.752, 7.521, -8.448, -0.084, 0.061, 0.028, 1
5209, 2.845, 7.516, -8.363, -0.092, 0.029, 0.05, 1
5229, 2.722, 7.539, -8.396, -0.083, 0.055, 0.053, 1
5249, 2.723, 7.562, -8.352, -0.064, 0.07, 0.032, 1
5269, 2.833, 7.516, -8.184, -0.069, 0.017, 0.036, 1
5289, 2.707, 7.468, -8.008, -0.067, 0.008, 0.033, 1
5309, 2.57, 7.557, -8.017, -0.058, 0.047, 0.026, 1
5329, 2.723, 7.41, -7.769, -0.066, 0.045, 0.01, 1
5349, 2.79, 7.476, -7.667, -0.117, -0.05, 0.01, 1
5369, 2.577, 7.466, -7.674, -0.05, -0.034, -0.027, 1
5389, 2.523, 7.337, -7.641, -0.025, 0.044, -0.051, 1
5409, 2.736, 7.276, -7.439, -0.028, 0.065, -0.018, 1
5429, 2.795, 7.252, -7.314, -0.055, 0.014, -0.01, 1
5449, 2.569, 7.304, -7.311, -0.083, 0.038, -0.018, 1
5469, 2.509, 7.403, -7.331, -0.091, 0.095, -0.011, 1
5489, 2.607, 7.471, -7.371, -0.114, 0.033, -0.009, 1
5509, 2.29, 7.668, -7.44, -0.082, -0.007, -0.006, 1
5529, 2.25, 7.388, -7.377, -0.012, -0.027, -0.104, 1
5549, 2.15, 7.459, -7.362, 0.096, -0.034, -0.174, 1
5569, 2.057, 7.146, -7.084, 0.244, 0.017, -0.224, 1
5589, 2.195, 7.084, -7.06, 0.22, 0.117, -0.272, 1
5609, 2.369, 7.142, -6.811, 0.111, 0.13, -0.274, 1
5629, 2.264, 7.245, -6.726, 0.016, 0.067, -0.266, 1
5649, 2.209, 6.69, -6.238, 0.0, 0.062, -0.315, 1
5669, 2.421, 6.121, -5.721, -0.056, 0.078, -0.384, 1
5689, 2.662, 5.95, -5.962, -0.207, 0.221, -0.368, 1
5709, 2.94, 6.201, -6.286, -0.545, 0.332, -0.27, 1
5729, 3.308, 6.616, -5.846, -0.909, 0.268, -0.153, 1
5749, 2.848, 7.393, -6.365, -1.015, 0.039, -0.073, 1
5769, 2.521, 7.364, -6.14, -0.739, 0.026, -0.117, 1
5789, 2.988, 7.0, -5.201, -0.491, 0.048, -0.135, 1
5809, 2.464, 7.386, -5.548, -0.532, -0.073, -0.053, 1
5829, 2.092, 8.244, -6.384, -0.29, -0.018, -0.146, 1
5849, 1.707, 9.047, -7.174, 0.341, -0.139, -0.196, 1
5869, 1.498, 7.442, -7.013, 1.224, -0.034, -0.301, 1
5889, 2.645, 5.882, -5.226, 1.343, -0.163, -0.515, 1
5909, 2.174, 5.377, -4.384, 0.708, -0.488, -0.326, 1
5929, 1.883, 5.347, -4.04, 0.119, -0.472, -0.202, 1
5949, 1.457, 6.108, -4.065, -0.288, -0.241, -0.179, 1
5969, 1.546, 6.344, -4.179, -0.557, 0.023, -0.121, 1
5989, 1.595, 6.431, -4.072, -0.737, 0.123, -0.186, 1
6009, 1.548, 6.511, -3.879, -0.695, 0.053, -0.279, 1
6029, 1.521, 6.425, -3.54, -0.69, -0.089, -0.301, 1
6049, 0.713, 6.504, -3.445, -0.854, -0.121, -0.294, 1
6069, 0.328, 6.035, -3.333, -1.154, -0.07, -0.35, 1
6089, 0.618, 5.637, -3.277, -1.417, -0.122, -0.367, 1
6109, 0.706, 5.613, -3.39, -1.577, -0.119, -0.415, 1
6129, 0.706, 5.994, -3.639, -1.563, -0.11, -0.554, 1
6149, 0.851, 6.312, -3.725, -1.45, -0.096, -0.63, 1
6169, 0.992, 6.537, -3.789, -1.195, 0.029, -0.623, 1
6189, 0.703, 6.528, -3.483, -0.806, 0.379, -0.646, 1
6209, 2.153, 6.245, -3.233, -0.632, 0.108, -0.644, 1
6229, 1.856, 6.019, -2.911, -0.651, -0.025, -0.755, 1
6249, 2.099, 5.908, -2.377, -0.805, -0.051, -0.849, 1
6269, 2.185, 6.389, -2.545, -0.953, -0.042, -0.86, 1
6289, 2.347, 6.703, -2.626, -0.752, -0.129, -0.437, 1
6309, 2.402, 5.921, -2.427, -0.519, -0.237, -0.218, 1
6329, 2.376, 5.658, -2.05, -0.401, -0.326, -0.196, 1
6349, 2.201, 5.762, -1.957, -0.415, -0.307, -0.117, 1
6369, 2.182, 5.077, -1.784, -0.533, -0.281, 0.01, 1
6389, 1.929, 4.68, -1.465, -0.732, -0.252, 0.062, 1
6409, 1.807, 4.766, -1.436, -0.781, -0.167, 0.204, 1
6429, 1.148, 4.772, -1.772, -0.747, 0.04, 0.606, 1
6449, 0.736, 4.175, -1.903, -0.723, 0.223, 0.728, 1
6469, 0.789, 3.978, -1.152, -0.747, -0.012, 0.591, 1
6489, 0.402, 4.514, -2.093, -0.47, -0.194, 0.311, 1
6509, 0.45, 4.318, -2.231, -0.168, -0.272, 0.324, 1
6529, 0.271, 3.977, -2.053, -0.004, -0.091, 0.449, 1
6549, 0.522, 3.95, -1.893, -0.018, 0.207, 0.53, 1
6569, 0.844, 3.565, -1.807, -0.152, 0.313, 0.547, 1
6589, 0.986, 3.288, -1.63, -0.21, 0.305, 0.552, 1
6609, 1.114, 3.714, -1.528, -0.166, 0.27, 0.558, 1
6629, 0.466, 4.531, -1.745, 0.017, 0.28, 0.697, 1
6649, -0.865, 5.971, -2.363, 0.229, 0.549, 0.777, 1
6669, -0.914, 5.186, -2.157, 0.522, 0.894, 0.793, 1
6689, -0.084, 4.324, -1.39, 0.597, 0.829, 0.577, 1
6709, 0.335, 3.679, -0.518, 0.541, 0.233, 0.388, 1
6729, -0.378, 4.008, -0.333, 0.388, -0.342, 0.235, 1
6749, -0.695, 4.29, -0.21, 0.382, -0.373, 0.142, 1
6769, -0.944, 4.606, -0.09, 0.409, -0.09, 0.127, 1
6789, -0.494, 4.105, 0.476, 0.47, 0.186, 0.094, 1
6809, -0.286, 4.231, 0.898, 0.448, 0.166, -0.029, 1
6829, 0.113, 4.188, 0.842, 0.35, 0.015, -0.211, 1
6849, 1.042, 4.463, 0.586, 0.074, -0.18, -0.337, 1
6869, 1.241, 4.016, 0.515, -0.254, -0.554, -0.313, 1
6889, 1.311, 3.756, 0.227, -0.515, -0.701, -0.293, 1
6909, 1.766, 3.61, -0.295, -0.572, -0.738, -0.379, 1
6929, 2.02, 3.606, -0.563, -0.518, -0.797, -0.433, 1
6949, 2.069, 3.707, -1.034, -0.346, -0.635, -0.072, 1
6969, 1.966, 3.754, -1.059, -0.116, -0.2, 0.031, 1
6989, 1.887, 3.92, -0.84, 0.032, -0.02, 0.145, 1
7009, 1.708, 3.635, -0.741, -0.04, 0.068, 0.254, 1
7029, 1.503, 3.501, -0.509, -0.21, 0.07, 0.273, 1
7049, 1.689, 3.428, -0.568, -0.241, -0.126, 0.166, 1
7069, 1.79, 3.164, -0.46, -0.327, -0.419, 0.197, 1
7089, 1.536, 2.854, -0.452, -0.536, -0.586, 0.306, 1
7109, 1.003, 2.699, -0.389, -0.748, -0.7, 0.419, 1
7129, 0.769, 2.699, -0.383, -0.784, -0.937, 0.256, 1
7149, 0.867, 2.797, -0.474, -0.731, -1.483, 0.091, 1
7169, 0.065, 3.124, -0.893, -0.455, -1.507, 0.24, 1
7189, -0.678, 2.957, -1.255, -0.083, -1.028, 0.287, 1
7209, -0.601, 2.574, -0.82, 0.094, -0.428, 0.285, 1
7229, -0.035, 1.971, -0.152, 0.146, -0.051, 0.406, 1
7249, -0.078, 1.188, 0.288, 0.004, 0.25, 0.339, 1
7269, 0.643, 1.142, 0.549, -0.18, 0.159, 0.321, 1
7289, 0.267, 1.722, 0.108, -0.227, -0.12, 0.262, 1
7309, -0.233, 1.662, 0.015, -0.193, 0.06, 0.274, 1
7329, -0.176, 1.275, 0.198, -0.3, 0.277, 0.287, 1
7349, -0.06, 0.999, 0.415, -0.394, 0.363, 0.258, 1
7369, 0.314, 1.124, -0.091, -0.356, 0.282, 0.176, 1
7389, 0.059, 1.322, -0.625, -0.148, 0.215, 0.1, 1
7409, 0.171, 1.275, -0.543, -0.021, 0.174, 0.063, 1
7429, 0.207, 1.135, -0.533, 0.06, 0.084, 0.105, 1
7449, 0.316, 0.723, -0.009, 0.034, -0.021, 0.174, 1
7469, -0.025, 0.667, -0.296, -0.021, -0.015, 0.156, 1
7489, -0.382, 0.954, -0.946, 0.13, 0.217, 0.182, 1
7509, -0.248, 0.075, -0.359, 0.319, 0.542, 0.177, 1
7529, 0.829, -0.081, 0.189, 0.131, 0.712, 0.079, 1
7549, 0.915, -0.082, 0.235, -0.133, 0.389, 0.149, 1
7569, 0.512, 0.063, -0.12, -0.274, 0.136, 0.166, 1
7589, 0.313, 0.146, -0.343, -0.101, 0.012, 0.134, 1
7609, 0.331, 0.141, -0.111, -0.009, 0.11, 0.11, 1
7629, 0.266, -0.099, -0.244, 0.016, 0.172, 0.221, 1
7649, 0.191, 0.215, -0.376, 0.059, 0.142, 0.242, 1
7669, -0.159, 0.264, -0.511, 0.192, 0.172, 0.264, 1
7689, -0.398, 0.046, -0.694, 0.324, 0.223, 0.111, 1
7709, -0.014, 0.012, -0.143, 0.35, 0.134, 0.108, 1
7729, -0.096, -0.253, 0.036, 0.191, -0.017, 0.115, 1
7749, -0.017, 0.478, -0.517, -0.125, -0.219, 0.181, 1
7769, -0.297, 0.542, -0.925, -0.228, -0.295, 0.246, 1
7789, -0.336, 0.496, -0.765, -0.234, -0.202, 0.298, 1
7809, -0.893, 0.518, -0.664, 0.009, -0.213, 0.145, 1
7829, -0.431, 0.264, 0.038, 0.16, -0.175, -0.032, 1
7849, -0.019, 0.04, 0.305, 0.136, -0.238, -0.042, 1
7869, -0.101, 0.014, 0.334, 0.07, -0.234, -0.006, 1
7889, -0.119, 0.083, 0.259, 0.011, -0.111, -0.019, 1
7909, -0.024, -0.12, 0.467, 0.02, 0.165, 0.036, 1
7929, 0.342, -0.319, 0.54, -0.037, 0.318, 0.056, 1
7949, 0.483, -0.237, 0.332, -0.138, 0.243, 0.046, 1
7969, 0.582, 0.04, 0.106, 0.0, 0.069, 0.107, 1
7989, 0.382, -0.114, 0.202, 0.113, -0.043, 0.152, 1
8014, 0.217, -0.347, 0.327, 0.058, -0.171, 0.171, 1
8034, 0.21, -0.406, 0.227, -0.07, -0.3, 0.143, 1
8054, 1.218, -0.631, 0.525, -0.437, -1.019, 0.09, 1
8074, 0.719, -0.361, 0.18, -0.728, -1.722, 0.17, 1
8094, -0.355, -0.183, -0.419, -0.758, -1.767, 0.233, 1
8114, 0.278, -0.873, -0.074, -0.921, -1.887, 0.197, 1
8134, 0.767, -0.934, 0.141, -1.365, -2.357, 0.194, 1
8154, 0.342, -0.66, -0.263, -1.693, -2.698, 0.112, 1
8174, 0.385, -0.598, -0.467, -1.854, -2.898, 0.01, 1
8194, 0.551, -0.872, -0.196, -2.092, -3.321, -0.026, 1
8214, 0.104, -0.756, -0.568, -2.196, -3.512, 0.015, 1
8234, -0.932, -1.079, -0.88, -2.067, -3.158, -0.004, 1
8254, 0.357, -1.847, -0.618, -2.158, -3.159, -0.094, 1
8274, 0.876, -2.118, -0.636, -2.289, -3.434, -0.015, 1
8294, -0.024, -2.689, -0.611, -2.238, -3.431, -0.02, 1
8314, 0.259, -3.138, -0.62, -2.18, -3.523, -0.169, 1
8334, -0.966, -2.92, -1.317, -1.699, -3.008, -0.204, 1
8354, -0.585, -3.54, -1.135, -1.269, -2.316, -0.293, 1
8374, -0.419, -3.695, -0.968, -0.898, -1.844, -0.255, 1
8394, -0.457, -4.013, -0.715, -0.521, -1.39, -0.147, 1
8414, 0.116, -4.718, -0.254, -0.326, -1.17, -0.234, 1
8434, 0.664, -5.56, 0.635, -0.328, -1.158, -0.246, 1
8454, 0.782, -5.754, 0.61, -0.524, -1.32, -0.238, 1
8474, -0.316, -5.634, -0.048, -0.577, -1.2, -0.121, 1
8494, -0.471, -5.724, -0.151, -0.384, -0.605, -0.051, 1
8514, 0.288, -5.81, 0.047, -0.224, -0.208, -0.043, 1
8534, 0.139, -5.804, 0.002, -0.145, -0.163, 0.0, 1
8554, 0.007, -5.834, -0.222, -0.104, -0.137, 0.007, 1
8574, -0.436, -5.54, -0.369, -0.058, 0.152, 0.063, 1
8594, -0.179, -5.657, -0.109, 0.08, 0.529, 0.109, 1
8614, 0.224, -5.543, 0.124, 0.083, 0.61, 0.124, 1
8634, -0.459, -4.69, -0.454, 0.178, 0.627, 0.197, 1
8654, -1.884, -3.781, -0.943, 0.699, 1.343, 0.298, 1
8674, -1.923, -3.835, -0.52, 1.47, 2.601, 0.386, 1
8694, -0.985, -3.655, 0.577, 1.861, 3.595, 0.315, 1
8714, -0.106, -2.844, 0.867, 1.882, 3.911, 0.346, 1
8734, -0.698, -2.21, 0.475, 1.957, 3.992, 0.437, 1
8754, -0.568, -1.288, 0.25, 2.262, 4.287, 0.213, 1
8774, -0.201, -0.557, 0.491, 2.568, 4.538, 0.173, 1
8794, -0.21, -0.245, 1.222, 2.725, 4.429, 0.103, 1
8814, 0.125, -0.366, 1.522, 2.474, 3.861, 0.158, 1
8834, -0.341, -0.411, 1.352, 1.974, 3.235, 0.2, 1
8854, -0.703, -0.713, 1.306, 1.364, 2.95, 0.079, 1
8874, 0.339, -0.291, 1.192, 0.645, 2.678, -0.039, 1
8894, 0.717, -0.155, 0.794, 0.113, 1.922, 0.27, 1
8914, -1.25, 0.727, -0.486, 0.481, 1.553, 0.32, 1
8934, -1.788, 0.975, -0.703, 0.962, 2.23, 0.27, 1
8954, -1.18, 0.591, -0.359, 1.274, 2.689, 0.405, 1
8974, 0.156, -0.557, 0.707, 1.066, 2.343, 0.232, 1
8994, 1.141, -0.761, 1.515, 0.354, 1.173, 0.166, 1
9014, -0.729, 0.581, 0.366, -0.053, 0.667, 0.175, 1
9034, -2.354, 0.944, -0.815, 0.158, 1.494, 0.061, 1
9054, -2.243, 0.683, -0.521, 0.366, 2.284, -0.082, 1
9074, -0.334, -0.22, 0.302, 0.143, 2.051, -0.27, 1
9094, 1.022, -0.351, 0.187, -0.276, 1.115, -0.235, 1
9114, -0.896, 0.696, -1.224, -0.026, 1.175, -0.179, 1
9134, -0.385, 0.542, -1.087, 0.354, 1.536, -0.18, 1
9154, 0.532, -0.209, 0.101, 0.205, 1.398, 0.012, 1
9174, 0.811, -0.709, 1.134, -0.393, 0.833, 0.014, 1
9194, 0.347, -0.289, 1.057, -0.678, 0.284, -0.065, 1
9214, 0.72, 0.057, 0.2, -0.552, -0.168, -0.249, 1
9234, -0.348, 1.108, -0.696, -0.062, -0.04, -0.13, 1
9254, -0.251, 0.395, -0.456, 0.205, 0.4, -0.118, 1
9274, 0.467, -0.147, 0.355, 0.015, 0.357, -0.098, 1
9294, 0.723, -0.051, 0.401, -0.242, -0.054, 0.03, 1
9314, -0.267, -0.066, -0.073, -0.26, -0.131, 0.051, 1
9334, -0.15, -0.121, -0.213, -0.298, -0.202, -0.062, 1
9354, -0.231, -0.082, -0.348, -0.401, -0.263, -0.029, 1
9374, -0.211, -0.078, -0.483, -0.397, -0.286, 0.0, 1
9394, 0.016, -0.09, -0.353, -0.358, -0.361, -0.009, 1
9414, -0.052, -0.29, -0.593, -0.423, -0.669, -0.068, 1
9434, -0.567, -0.051, -0.692, -0.275, -0.782, -0.089, 1
9454, -0.487, 0.019, -0.421, -0.146, -0.569, 0.017, 1
9474, -0.948, -0.214, -0.204, 0.02, -0.288, 0.172, 1
9494, -0.714, -0.809, 0.58, 0.185, -0.04, 0.17, 1
9514, -0.067, -1.251, 0.981, 0.004, -0.123, 0.128, 1
9534, -0.31, -1.142, 0.645, -0.361, -0.284, 0.149, 1
9554, -0.23, -0.785, -0.098, -0.587, -0.2, 0.27, 1
9574, -0.792, 0.042, -1.11, -0.372, 0.078, 0.273, 1
9594, -0.271, -0.103, -0.875, 0.061, 0.299, 0.171, 1
9614, -0.136, -0.487, -0.225, 0.063, 0.293, 0.161, 1
9634, 0.294, -0.442, 0.102, -0.22, 0.091, 0.167, 1
9654, -0.476, 0.082, -0.54, -0.383, -0.259, 0.255, 1
9674, -0.961, 0.236, -0.582, -0.213, -0.069, 0.209, 1
9694, -0.329, -0.211, -0.07, -0.1, 0.181, 0.16, 1
9714, 0.125, -0.28, 0.004, -0.202, 0.116, 0.128, 1
9734, 0.391, -0.317, 0.054, -0.293, -0.002, 0.164, 1
9754, 0.004, 0.09, -0.267, -0.289, -0.089, 0.243, 1
9774, -0.337, -0.286, -0.09, -0.109, -0.029, 0.193, 1
9794, 0.12, -0.102, 0.147, -0.174, 0.034, 0.087, 1
9814, -0.072, 0.51, -0.41, -0.23, -0.073, 0.032, 1
9834, -0.455, 0.566, -0.512, -0.062, 0.004, 0.031, 1
9854, -0.104, 0.025, -0.011, 0.109, 0.103, -0.027, 1
9874, 0.266, -0.455, 0.453, -0.221, -0.137, -0.039, 1
9894, -0.03, 0.012, -0.137, -0.304, -0.165, 0.022, 1
9914, -0.441, 0.164, -0.532, -0.163, 0.172, 0.032, 1
9934, 0.025, 0.051, -0.612, -0.048, 0.185, -0.054, 1
9954, 0.211, 0.122, -0.616, 0.07, -0.006, -0.111, 1
9974, 0.12, -0.201, -0.212, -0.02, -0.014, -0.024, 1
9994, 0.262, -0.603, 0.222, -0.293, 0.001, 0.007, 1
10014, 0.503, -0.47, 0.224, -0.499, -0.199, 0.043, 1
10034, 0.173, -0.087, -0.112, -0.447, -0.361, -0.005, 1
10054, -0.712, 0.519, -0.655, -0.095, -0.003, 0.047, 1
10074, -0.25, 0.102, -0.225, 0.081, 0.346, 0.111, 1
10094, 0.34, -0.406, 0.21, -0.001, 0.292, 0.103, 1
10114, 0.524, -0.516, 0.235, -0.155, 0.0, 0.1, 1
10134, -0.009, -0.094, -0.2, -0.113, -0.094, 0.079, 1
10154, -0.101, 0.01, -0.404, -0.021, -0.047, 0.08, 1
10174, -0.197, -0.098, -0.234, -0.063, 0.066, 0.136, 1
10194, -0.243, 0.053, -0.185, -0.126, 0.082, 0.172, 1
10214, -0.338, -0.094, -0.13, -0.157, 0.186, 0.152, 1
10234, 0.088, -0.251, -0.184, -0.261, 0.086, 0.13, 1
10254, 0.033, -0.049, -0.388, -0.213, -0.056, 0.1, 1
10274, -0.066, 0.017, -0.468, -0.12, -0.062, 0.115, 1
10294, -0.079, 0.026, -0.478, -0.065, -0.037, 0.064, 1
10314, -0.032, 0.119, -0.459, 0.022, -0.074, -0.025, 1
10334, 0.012, -0.023, -0.311, 0.034, -0.068, 0.033, 1
10354, -0.192, -0.357, 0.034, -0.23, 0.124, 0.055, 1
10374, 0.096, -0.194, -0.16, -0.309, -0.026, 0.056, 1
10394, -0.091, 0.082, -0.381, -0.343, -0.078, 0.123, 1
10414, -0.209, 0.012, -0.329, -0.313, 0.022, 0.043, 0
10434, -0.133, -0.333, 0.031, -0.396, 0.143, 0.101, 0
10454, -0.117, 0.02, -0.224, -0.495, 0.152, 0.202, 0
10474, 0.013, -0.156, -0.263, -0.388, 0.151, 0.143, 0
10494, 0.172, 0.191, -0.781, -0.153, -0.131, 0.042, 0
10514, -0.243, 0.298, -1.08, 0.369, -0.321, 0.046, 0
10534, -0.507, -0.883, -0.097, 0.639, -0.127, 0.036, 0
10554, -0.023, -0.872, 0.285, 0.127, 0.178, 0.094, 0
10574, -0.322, -0.743, 0.005, -0.198, 0.071, 0.078, 0
10594, -0.437, -0.095, -0.603, -0.323, 0.095, 0.075, 0
10614, -0.351, 0.525, -1.517, 0.079, 0.05, 0.037, 0
10634, -0.477, -0.065, -0.857, 0.439, 0.283, 0.053, 0
10654, -0.078, -0.174, -0.176, 0.193, 0.421, 0.103, 0
10674, -0.512, 0.389, -0.325, -0.031, 0.073, 0.036, 0
10694, -1.257, 0.776, -0.64, 0.058, -0.053, -0.037, 0
10714, -1.16, 0.638, -0.435, 0.296, 0.032, -0.152, 0
10734, -1.034, 0.653, -0.055, 0.26, 0.125, -0.218, 0
10754, -0.887, 0.689, -0.168, 0.194, 0.152, -0.233, 0
10774, -0.654, 0.463, -0.028, 0.129, 0.091, -0.363, 0
10794, -0.476, 0.841, -0.255, 0.072, 0.052, -0.452, 0
10814, -0.282, 0.834, -0.342, 0.14, 0.09, -0.448, 0
10834, -0.372, 0.699, -0.241, 0.144, 0.136, -0.605, 0
10854, -0.332, 0.901, -0.08, 0.119, 0.232, -0.675, 0
10874, -0.104, 0.646, 0.19, 0.102, 0.309, -0.72, 0
10894, 0.431, 0.32, 0.351, 0.058, 0.21, -0.8, 0
10914, 0.816, -0.008, 0.283, 0.04, 0.042, -0.879, 0
10934, 1.167, -0.163, 0.38, -0.006, 0.004, -0.805, 0
10954, 0.882, -0.053, 0.401, 0.037, 0.141, -0.775, 0
10974, 0.636, 0.139, 0.151, 0.178, 0.31, -0.846, 0
10994, 1.052, -0.054, 0.372, 0.088, 0.378, -0.874, 0
11014, 1.377, -0.231, 0.692, -0.089, 0.291, -0.859, 0
11034, 1.4, -0.51, 0.746, -0.127, 0.135, -0.86, 0
11054, 1.305, -0.531, 0.7, -0.161, 0.138, -0.832, 0
11074, 1.445, -0.602, 0.555, -0.167, 0.187, -0.793, 0
11094, 1.819, -0.779, 0.487, -0.211, 0.14, -0.734, 0
11114, 1.431, -0.443, 0.21, -0.246, 0.251, -0.648, 0
11134, 1.15, -0.461, 0.129, -0.223, 0.293, -0.532, 0
11154, 0.962, -0.793, 0.363, -0.263, 0.224, -0.556, 0
11174, 1.246, -0.948, 0.24, -0.357, 0.11, -0.532, 0
11194, 1.277, -0.319, -0.2, -0.323, 0.133, -0.455, 0
11214, 1.62, -0.706, -0.068, -0.208, 0.153, -0.379, 0
11234, 1.434, -2.074, 0.328, -0.378, 0.208, -0.311, 0
11254, 1.63, -2.089, 0.001, -0.572, 0.189, -0.213, 0
11274, 2.002, -1.656, -0.623, -0.593, 0.105, -0.05, 0
11294, 1.781, -1.498, -1.094, -0.42, 0.067, 0.106, 0
11314, 1.749, -1.505, -0.862, -0.281, -0.039, 0.308, 0
11334, 1.148, -2.045, -0.6, -0.387, -0.117, 0.461, 0
11354, 0.842, -1.884, -0.505, -0.442, -0.127, 0.634, 0
11374, 0.653, -1.908, -0.184, -0.457, -0.108, 0.718, 0
11394, 0.675, -2.094, -0.255, -0.445, -0.143, 0.792, 0
11414, 0.447, -2.206, -0.359, -0.343, -0.208, 0.961, 0
11434, -0.166, -2.242, -0.257, -0.33, -0.059, 1.15, 0
11454, -0.591, -1.036, -0.88, -0.508, 0.126, 1.224, 0
11474, -1.171, -0.447, -1.583, -0.495, 0.065, 1.275, 0
11494, -1.27, -0.996, -1.77, -0.385, 0.101, 1.28, 0
11514, -0.898, -1.229, -1.745, -0.271, -0.001, 1.207, 0
11534, -1.217, -0.743, -1.686, -0.174, -0.094, 1.238, 0
11554, -1.965, 0.084, -1.661, -0.078, -0.023, 1.243, 0
11574, -2.212, 0.184, -1.402, -0.045, 0.09, 1.199, 0
11594, -1.969, -0.04, -1.189, -0.034, 0.006, 1.104, 0
11614, -2.008, -0.226, -0.912, 0.05, -0.147, 1.039, 0
11634, -1.883, -0.105, -0.695, 0.097, -0.123, 1.021, 0
11654, -1.844, 0.529, -0.53, 0.115, -0.171, 0.924, 0
11674, -2.406, 0.838, -0.564, 0.088, -0.204, 0.85, 0
11694, -2.959, 1.172, -0.748, 0.095, -0.083, 0.682, 0
11714, -2.408, 0.975, -0.468, 0.204, -0.034, 0.535, 0
11734, -2.092, 0.659, -0.06, 0.186, -0.167, 0.505, 0
11754, -2.193, 1.006, -0.065, 0.207, -0.293, 0.359, 0
11774, -2.468, 1.137, -0.012, 0.27, -0.295, 0.282, 0
11794, -2.23, 0.968, 0.363, 0.24, -0.032, 0.138, 0
11814, -1.629, 0.491, 0.9, 0.105, -0.05, -0.003, 0
11834, -1.269, 0.089, 1.237, -0.061, -0.08, -0.114, 0
11854, -1.45, 0.59, 0.963, -0.072, 0.141, -0.141, 0
11874, -1.372, 0.888, 0.78, 0.043, 0.412, -0.235, 0
11894, -0.402, 0.689, 0.679, -0.024, 0.236, -0.328, 0
11914, -0.138, 0.274, 0.638, -0.207, 0.069, -0.414, 0
11934, 0.22, 0.063, 0.597, -0.292, 0.009, -0.466, 0
11954, 0.825, -0.166, 0.402, -0.257, -0.086, -0.475, 0
11974, 1.237, -0.373, 0.053, -0.263, -0.044, -0.435, 0
11994, 1.703, -0.368, -0.364, -0.268, 0.058, -0.348, 0
12014, 2.064, -0.37, -0.359, -0.195, -0.009, -0.303, 0
12034, 2.281, -0.678, -0.31, -0.136, -0.194, -0.227, 0
12054, 1.781, -0.749, -0.444, -0.078, -0.083, -0.129, 0
12074, 1.695, -0.846, -0.197, -0.118, 0.087, -0.023, 0
12094, 1.263, -0.674, -0.219, -0.213, 0.083, 0.067, 0
12114, 0.607, -0.348, -0.523, -0.16, 0.103, 0.086, 0
12134, 0.419, -0.483, -0.682, -0.104, 0.064, 0.114, 0
12154, 0.079, -0.307, -0.728, -0.026, 0.052, 0.132, 0
12174, -0.408, -0.153, -0.637, 0.063, 0.126, 0.119, 0
12194, -0.356, 0.003, -0.777, 0.225, 0.108, 0.087, 1
12214, -0.209, 0.043, -0.978, 0.412, 0.01, 0.06, 1
12234, -0.29, -0.541, -0.484, 0.313, 0.001, 0.108, 1
12254, -0.32, -0.718, 0.066, -0.011, 0.037, 0.138, 1
12274, -0.432, -0.496, 0.033, -0.109, 0.009, 0.172, 1
12294, -0.421, -0.236, -0.351, 0.012, -0.084, 0.004, 1
12314, -0.315, -0.404, 0.11, 0.057, -0.186, 0.003, 1
12334, -0.551, -0.408, 0.223, 0.009, -0.073, 0.03, 1
12354, -0.131, -0.21, 0.053, -0.048, 0.048, 0.047, 1
12374, 0.1, -0.168, -0.105, -0.046, -0.017, 0.059, 1
12394, 0.064, -0.195, 0.008, -0.075, -0.076, 0.063, 1
12414, -0.066, -0.087, -0.009, -0.111, -0.087, 0.087, 1
12434, -0.001, -0.07, -0.065, -0.13, -0.004, 0.107, 1
12454, 0.011, -0.025, -0.134, -0.147, -0.01, 0.082, 1
12474, -0.028, 0.023, -0.258, -0.114, -0.048, 0.054, 1
12494, 0.004, 0.016, -0.298, -0.08, -0.009, 0.065, 1
12514, -0.04, -0.07, -0.224, -0.09, 0.031, 0.069, 1
12534, 0.005, -0.058, -0.173, -0.174, 0.076, 0.061, 1
12554, 0.048, 0.105, -0.352, -0.2, 0.035, 0.064, 1
12574, -0.037, -0.025, -0.283, -0.15, 0.011, 0.084, 1
12594, -0.118, -0.138, -0.151, -0.11, 0.07, 0.084, 1
12614, 0.156, -0.254, -0.145, -0.056, 0.034, 0.063, 1
12634, 0.051, -0.149, -0.188, -0.095, 0.004, 0.09, 1
12654, 0.042, -0.089, -0.233, -0.093, -0.002, 0.108, 1
12674, -0.168, -0.042, -0.165, -0.095, 0.012, 0.133, 1
12694, -0.062, 0.021, -0.084, -0.127, 0.048, 0.141, 1
12714, -0.187, 0.114, -0.102, -0.111, -0.008, 0.124, 1
12734, -0.248, 0.21, -0.133, -0.136, 0.036, 0.123, 1
12754, -0.133, 0.033, -0.129, -0.087, 0.087, 0.127, 1
12774, -0.03, -0.141, -0.065, -0.124, 0.059, 0.07, 1
12794, -0.006, 0.001, -0.279, -0.103, 0.03, 0.038, 1
12814, 0.074, -0.036, -0.277, -0.109, 0.037, 0.049, 1
12834, 0.023, -0.104, -0.213, -0.15, 0.036, 0.089, 1
12854, -0.071, 0.035, -0.354, -0.059, 0.064, 0.094, 1
12874, -0.021, -0.082, -0.083, -0.06, 0.064, 0.057, 1
12894, 0.12, -0.087, -0.098, -0.079, -0.06, 0.053, 1
12914, -0.166, -0.073, -0.284, -0.105, 0.018, 0.096, 1
12934, -0.078, -0.102, -0.25, -0.103, 0.117, 0.128, 1
12954, -0.022, 0.023, -0.216, -0.058, 0.044, 0.095, 1
12974, -0.089, -0.166, -0.075, -0.127, -0.028, 0.072, 1
12994, 0.038, 0.414, -0.555, 0.007, -0.105, 0.083, 1
13014, -0.175, 0.163, -0.489, 0.139, -0.038, 0.197, 0
13034, -0.226, -0.475, -0.032, -0.056, 0.05, 0.167, 0
13054, -0.23, 0.105, -0.004, -0.171, 0.029, 0.163, 0
13074, -0.453, 0.167, -0.528, 0.018, 0.057, 0.133, 0
13094, -0.165, 0.208, -0.396, 0.166, -0.035, 0.068, 0
13114, -0.15, 0.166, -0.505, 0.299, -0.173, 0.036, 0
13134, -0.709, -0.278, -0.169, 0.113, 0.06, -0.011, 0
13154, -0.392, 0.08, -0.302, -0.021, 0.139, -0.12, 0
13174, -0.486, 0.444, -0.687, -0.098, 0.052, -0.218, 0
13194, -0.645, 0.675, -0.828, -0.101, 0.065, -0.237, 0
13214, -0.577, 0.543, -0.674, -0.036, 0.038, -0.291, 0
13234, -0.438, 0.516, -0.654, 0.162, -0.075, -0.395, 0
13254, -0.171, 0.203, -0.522, 0.223, 0.021, -0.507, 0
13274, -0.058, 0.025, 0.339, 0.003, 0.094, -0.605, 0
13294, -0.008, 0.051, 0.347, -0.084, 0.143, -0.681, 0
13314, 0.388, 0.126, 0.438, -0.109, 0.201, -0.726, 0
13334, 0.477, -0.041, 0.622, -0.039, 0.143, -0.806, 0
13354, 0.793, -0.342, 0.779, -0.074, 0.097, -0.856, 0
13374, 1.199, -0.078, 0.262, -0.182, 0.105, -0.817, 0
13394, 1.193, -0.029, -0.251, -0.079, 0.106, -0.781, 0
13414, 1.453, -0.049, -0.096, 0.023, 0.097, -0.778, 0
13434, 1.241, -0.413, 0.401, -0.015, 0.01, -0.748, 0
13454, 0.873, -0.38, 0.534, -0.105, 0.014, -0.738, 0
13474, 0.904, -0.323, 0.361, -0.15, 0.164, -0.722, 0
13494, 1.191, -0.44, 0.248, -0.147, 0.215, -0.711, 0
13514, 1.431, -0.447, 0.27, -0.156, 0.239, -0.648, 0
13534, 1.172, -0.87, 0.351, -0.188, 0.172, -0.541, 0
13554, 0.889, -0.921, 0.293, -0.282, 0.22, -0.479, 0
13574, 1.063, -0.757, 0.043, -0.373, 0.246, -0.481, 0
13594, 1.291, -0.53, -0.358, -0.434, 0.189, -0.467, 0
13614, 1.19, -0.296, -0.651, -0.362, 0.045, -0.39, 0
13634, 1.002, -0.618, -0.44, -0.293, 0.028, -0.346, 0
13654, 1.074, -0.823, -0.372, -0.235, -0.032, -0.312, 0
13674, 1.252, -1.119, -0.166, -0.216, -0.02, -0.24, 0
13694, 1.463, -1.437, -0.073, -0.335, 0.056, -0.131, 0
13714, 0.955, -1.181, -0.186, -0.404, -0.019, 0.01, 0
13734, 0.784, -1.005, -0.229, -0.368, -0.047, 0.12, 0
13754, 0.619, -0.945, -0.232, -0.39, -0.069, 0.196, 0
13774, 0.234, -0.787, -0.391, -0.388, 0.006, 0.282, 0
13794, 0.371, -0.703, -0.296, -0.384, 0.006, 0.342, 0
13814, 0.183, -0.99, -0.238, -0.375, -0.028, 0.377, 0
13834, 0.074, -1.375, -0.122, -0.442, 0.043, 0.469, 0
13854, 0.403, -1.361, -0.08, -0.497, 0.051, 0.555, 0
13874, 0.542, -1.112, -0.468, -0.439, 0.002, 0.685, 0
13894, 0.277, -1.39, -0.694, -0.376, 0.04, 0.831, 0
13914, 0.236, -1.397, -0.608, -0.411, 0.036, 0.927, 0
13934, -0.073, -0.996, -0.716, -0.391, 0.002, 1.01, 0
13954, -0.598, -0.84, -0.901, -0.379, 0.067, 1.085, 0
13974, -0.636, -0.616, -1.046, -0.343, 0.081, 1.116, 0
13994, -0.884, -0.092, -1.367, -0.194, 0.058, 1.122, 0
14014, -1.238, 0.064, -1.355, -0.136, 0.072, 1.086, 0
14034, -1.468, 0.049, -1.306, -0.203, 0.099, 1.056, 0
14054, -1.318, 0.043, -1.41, -0.106, 0.019, 0.962, 0
14074, -1.18, -0.339, -1.154, -0.027, -0.09, 0.93, 0
14094, -1.454, -0.365, -0.988, -0.032, -0.029, 0.947, 0
14114, -1.465, 0.116, -1.002, -0.012, -0.032, 0.872, 0
14134, -1.559, 0.354, -0.898, 0.065, -0.102, 0.806, 0
14154, -1.472, 0.088, -0.672, 0.144, -0.158, 0.744, 0
14174, -1.401, -0.032, -0.495, 0.163, -0.174, 0.717, 0
14194, -1.278, -0.043, -0.485, 0.174, -0.13, 0.662, 0
14214, -0.928, 0.175, -0.398, 0.23, -0.127, 0.673, 0
14234, -1.133, 0.503, -0.446, 0.145, -0.117, 0.628, 0
14254, -1.801, 1.216, -0.444, 0.235, -0.128, 0.464, 0
14274, -1.614, 0.587, 0.067, 0.216, -0.179, 0.352, 0
14294, -1.412, 0.41, 0.379, 0.069, -0.205, 0.353, 0
14314, -1.148, 0.649, 0.265, 0.07, -0.185, 0.224, 0
14334, -0.768, 0.302, 0.525, 0.097, -0.149, 0.189, 0
14354, -0.802, 0.625, 0.572, -0.041, -0.095, 0.133, 0
14374, -0.63, 0.91, 0.146, -0.071, -0.067, 0.074, 0
14394, -0.743, 0.694, 0.271, -0.025, 0.0, 0.012, 0
14414, -0.184, 0.624, 0.473, -0.034, 0.026, -0.09, 0
14434, -0.424, 0.44, 0.338, -0.094, -0.051, -0.087, 0
14454, -0.623, 0.942, 0.087, -0.079, 0.097, -0.157, 0
14474, -0.214, 0.851, 0.212, -0.001, 0.201, -0.262, 0
14494, 0.274, 0.463, 0.241, -0.003, 0.095, -0.39, 0
14514, 0.742, 0.174, 0.001, -0.102, -0.034, -0.441, 0
14534, 0.932, -0.053, -0.035, -0.057, -0.031, -0.436, 0
14554, 1.521, -0.272, -0.001, -0.051, 0.038, -0.4, 0
14574, 1.563, -0.244, -0.251, -0.043, 0.015, -0.366, 0
14594, 1.675, -0.528, -0.078, -0.026, 0.012, -0.31, 0
14614, 1.71, -0.651, 0.149, -0.114, -0.004, -0.259, 0
14634, 1.455, -0.885, 0.111, -0.191, -0.007, -0.22, 0
14654, 1.459, -0.916, -0.27, -0.221, 0.071, -0.127, 0
14674, 1.604, -0.883, -0.483, -0.13, 0.164, 0.014, 0
14694, 0.991, -0.748, -0.368, -0.056, 0.095, 0.099, 0
14714, 0.253, -0.615, -0.222, -0.122, 0.087, 0.1, 0
14734, -0.078, -0.305, -0.377, -0.035, 0.095, 0.08, 0
14754, -0.003, -0.016, -0.642, 0.234, 0.064, 0.013, 1
14774, 0.108, -0.33, -0.316, 0.333, -0.009, 0.025, 1
14794, -0.011, -0.601, -0.091, 0.234, 0.009, 0.056, 1
14814, -0.18, -0.592, 0.102, -0.078, 0.107, 0.085, 1
14834, -0.236, -0.255, -0.186, -0.116, 0.069, 0.096, 1
14854, -0.318, -0.35, -0.27, -0.127, 0.018, 0.056, 1
14874, -0.1, -0.108, -0.391, -0.045, -0.088, 0.029, 1
14894, -0.133, -0.208, -0.392, 0.012, -0.056, 0.048, 1
14914, -0.209, -0.294, -0.161, -0.055, 0.04, 0.076, 1
14934, -0.04, -0.143, -0.069, -0.152, 0.019, 0.089, 1
14954, -0.044, 0.02, -0.173, -0.118, -0.018, 0.064, 1
14974, -0.022, -0.006, -0.115, -0.055, -0.04, 0.048, 1
14994, -0.054, -0.168, 0.104, -0.145, 0.026, 0.066, 1
15014, 0.017, -0.046, -0.052, -0.16, 0.061, 0.083, 1
15034, 0.071, -0.033, -0.18, -0.133, 0.047, 0.086, 1
15054, 0.007, 0.012, -0.309, -0.102, 0.017, 0.03, 1
15074, 0.114, -0.026, -0.23, -0.099, -0.032, 0.053, 1
15094, 0.019, -0.088, -0.207, -0.123, -0.025, 0.074, 1
15114, -0.085, -0.028, -0.196, -0.106, 0.029, 0.1, 1
15134, 0.006, -0.024, -0.039, -0.098, -0.007, 0.075, 1
15154, 0.02, 0.009, -0.132, -0.074, -0.079, 0.072, 1
15174, -0.031, -0.091, -0.059, -0.058, -0.059, 0.111, 1
15194, -0.262, -0.158, 0.04, -0.116, 0.056, 0.114, 1
15214, -0.018, -0.014, -0.196, -0.15, 0.076, 0.125, 1
15234, -0.01, -0.008, -0.228, -0.162, 0.04, 0.108, 1
15254, -0.082, -0.035, -0.316, -0.105, -0.05, 0.099, 1
15274, -0.09, 0.025, -0.309, -0.093, 0.009, 0.123, 1
15294, -0.027, 0.008, -0.204, -0.076, 0.05, 0.138, 1
15314, -0.048, -0.045, -0.077, -0.131, -0.004, 0.114, 1
15334, -0.034, -0.04, -0.109, -0.18, -0.04, 0.104, 1
15354, -0.02, -0.023, -0.105, -0.188, -0.004, 0.116, 1
15374, -0.02, -0.065, 0.031, -0.164, 0.007, 0.113, 1
15394, -0.048, -0.024, -0.089, -0.138, 0.036, 0.11, 1
15414, 0.063, -0.115, -0.083, -0.116, 0.093, 0.096, 1
15434, 0.071, -0.102, -0.139, -0.164, 0.054, 0.088, 1
15454, -0.042, -0.016, -0.28, -0.197, 0.031, 0.099, 1
15474, 0.0, -0.121, -0.168, -0.158, 0.034, 0.083, 1
15494, 0.035, -0.107, -0.164, -0.175, -0.017, 0.059, 1
15514, -0.093, 0.034, -0.274, -0.241, -0.003, 0.108, 1
15534, -0.107, 0.06, -0.461, -0.188, 0.098, 0.119, 1
15554, 0.005, 0.051, -0.464, -0.104, 0.034, 0.059, 1
15574, -0.456, 0.401, -0.658, 0.055, -0.07, 0.036, 0
15594, -0.294, -0.158, -0.258, 0.116, 0.015, 0.089, 0
15614, -0.379, -0.014, -0.225, -0.171, 0.165, 0.112, 0
15634, -0.244, 0.162, -0.59, -0.149, 0.086, 0.073, 0
15654, -0.184, 0.199, -0.754, 0.062, -0.072, 0.009, 0
15674, -0.32, 0.017, -0.784, 0.39, -0.133, 0.086, 0
15694, -0.538, -0.609, -0.361, 0.139, 0.175, 0.127, 0
15714, -0.511, -0.172, -0.467, -0.053, 0.215, 0.01, 0
15734, -0.603, 0.465, -0.947, 0.054, 0.026, -0.206, 0
15754, -0.514, 0.455, -0.876, 0.119, -0.003, -0.229, 0
15774, -0.408, 0.278, -0.491, 0.075, 0.085, -0.242, 0
15794, -0.309, 0.163, -0.226, 0.008, 0.086, -0.3, 0
15814, -0.331, 0.457, -0.217, 0.04, 0.036, -0.337, 0
15834, -0.202, 0.475, 0.036, 0.07, 0.005, -0.389, 0
15854, -0.245, 0.468, 0.33, 0.114, 0.022, -0.437, 0
15874, -0.475, 0.66, 0.596, 0.14, 0.078, -0.507, 0
15894, -0.311, 0.511, 0.782, 0.018, 0.188, -0.508, 0
15914, 0.238, 0.107, 0.884, -0.151, 0.197, -0.654, 0
15934, 0.734, 0.205, 0.5, -0.208, 0.128, -0.688, 0
15954, 0.954, 0.506, 0.244, -0.084, 0.095, -0.664, 0
15974, 1.12, 0.307, 0.17, -0.007, 0.084, -0.631, 0
15994, 0.962, 0.106, 0.235, -0.025, 0.177, -0.66, 0
16014, 1.497, -0.083, 0.298, -0.129, 0.15, -0.723, 0
16034, 1.601, 0.061, 0.316, -0.217, 0.144, -0.652, 0
16054, 0.928, 0.232, 0.391, -0.188, 0.319, -0.609, 0
16074, 1.314, -0.073, 0.609, -0.082, 0.274, -0.753, 0
16094, 1.38, -1.005, 0.673, -0.189, 0.169, -0.779, 0
16114, 1.447, -0.787, 0.242, -0.234, 0.191, -0.751, 0
16134, 1.46, -0.857, 0.038, -0.21, 0.313, -0.685, 0
16154, 1.888, -1.466, 0.115, -0.296, 0.242, -0.767, 0
16174, 2.227, -1.401, -0.229, -0.529, 0.176, -0.756, 0
16194, 1.787, -0.305, -0.526, -0.387, 0.124, -0.624, 0
16214, 1.757, -0.678, -0.113, -0.084, 0.104, -0.609, 0
16234, 2.287, -1.352, 0.102, -0.116, 0.204, -0.5, 0
16254, 2.691, -2.095, 0.154, -0.356, 0.101, -0.374, 0
16274, 2.162, -2.135, -0.256, -0.474, -0.098, -0.232, 0
16294, 1.652, -1.772, -0.87, -0.398, -0.058, -0.029, 0
16314, 1.728, -1.552, -0.814, -0.307, -0.042, 0.084, 0
16334, 1.32, -0.908, -0.986, -0.329, -0.119, 0.177, 0
16354, 0.985, -1.252, -0.893, -0.198, -0.174, 0.279, 0
16374, 0.585, -1.933, -0.523, -0.224, -0.106, 0.394, 0
16394, 0.463, -1.719, -0.553, -0.368, -0.026, 0.503, 0
16414, 0.144, -1.544, -0.495, -0.391, 0.017, 0.605, 0
16434, 0.561, -1.546, -0.447, -0.371, 0.014, 0.618, 0
16454, 0.862, -1.33, -0.594, -0.334, -0.167, 0.631, 0
16474, 0.657, -1.782, -0.305, -0.283, -0.199, 0.782, 0
16494, 0.486, -1.848, -0.226, -0.34, -0.072, 0.97, 0
16514, 0.318, -1.247, -0.686, -0.357, -0.087, 1.074, 0
16534, -0.565, -0.62, -1.101, -0.294, -0.17, 1.188, 0
16554, -0.92, -0.483, -0.961, -0.3, -0.08, 1.173, 0
16574, -0.895, -0.646, -0.732, -0.306, -0.128, 1.134, 0
16594, -0.912, -1.146, -0.814, -0.286, -0.13, 1.109, 0
16614, -0.99, -0.554, -1.333, -0.327, -0.081, 1.109, 0
16634, -1.707, 0.878, -2.087, -0.257, -0.071, 1.089, 0
16654, -1.91, 0.744, -2.081, 0.083, -0.097, 0.916, 0
16674, -1.477, -0.123, -1.461, 0.087, -0.136, 0.856, 0
16694, -1.101, -0.718, -0.946, 0.091, -0.168, 0.893, 0
16714, -1.155, -0.679, -0.453, 0.051, -0.092, 0.861, 0
16734, -1.373, 0.525, -0.909, 0.164, -0.087, 0.781, 0
16754, -1.678, 0.465, -1.018, 0.287, -0.062, 0.681, 0
16774, -1.246, -0.173, -0.466, 0.249, -0.116, 0.616, 0
16794, -1.277, -0.747, 0.063, 0.119, -0.086, 0.547, 0
16814, -0.842, -0.441, 0.03, 0.032, -0.097, 0.549, 0
16834, -1.382, 1.06, -0.736, 0.175, -0.049, 0.553, 0
16854, -1.698, 1.019, -0.635, 0.328, -0.004, 0.437, 0
16874, -1.548, 0.002, 0.299, 0.178, -0.023, 0.388, 0
16894, -1.487, 0.139, 0.61, 0.02, 0.028, 0.355, 0
16914, -1.368, 0.772, 0.282, 0.125, 0.006, 0.169, 0
16934, -1.135, 0.786, 0.471, 0.104, -0.086, 0.105, 0
16954, -1.119, 0.475, 0.522, 0.033, -0.083, 0.032, 0
16974, -0.813, 0.509, 0.423, 0.0, 0.014, 0.01, 0
16994, -0.545, 0.532, 0.274, -0.006, 0.026, -0.099, 0
17014, -0.213, 0.653, 0.22, 0.021, -0.073, -0.241, 0
17034, -0.028, 0.671, 0.088, 0.016, -0.12, -0.277, 0
17054, -0.013, 0.428, 0.113, 0.036, -0.05, -0.28, 0
17074, 0.28, 0.043, 0.347, -0.023, -0.039, -0.298, 0
17094, 0.524, -0.031, 0.308, -0.072, -0.075, -0.338, 0
17114, 0.693, 0.021, 0.073, -0.075, -0.041, -0.348, 0
17134, 0.929, -0.076, 0.2, -0.127, -0.037, -0.324, 0
17154, 1.223, -0.456, 0.447, -0.158, -0.026, -0.306, 0
17174, 1.393, -0.497, 0.342, -0.135, 0.006, -0.273, 0
17194, 1.645, -0.604, 0.178, -0.126, 0.076, -0.21, 0
17214, 1.691, -0.664, -0.034, -0.152, 0.075, -0.16, 0
17234, 1.497, -0.349, -0.301, -0.192, 0.069, -0.097, 0
17254, 1.378, -0.504, -0.321, -0.183, 0.05, -0.067, 0
17274, 0.872, -0.615, -0.437, -0.199, 0.012, -0.013, 0
17294, 0.607, -0.566, -0.571, -0.18, 0.062, 0.05, 0
17314, 0.455, -0.678, -0.458, -0.194, 0.141, 0.107, 0
17334, 0.213, -0.288, -0.6, -0.136, 0.102, 0.155, 0
17354, -0.003, -0.385, -0.748, 0.129, -0.018, 0.182, 1
17374, -0.16, -0.417, -0.524, 0.171, -0.009, 0.147, 1
17394, -0.44, -0.191, -0.252, 0.013, 0.045, 0.164, 1
17414, -0.486, -0.422, -0.205, -0.04, 0.007, 0.111, 1
17434, -0.43, -0.367, -0.376, -0.085, -0.011, 0.075, 1
17454, -0.15, -0.403, -0.475, -0.046, -0.02, 0.069, 1
17474, -0.182, -0.398, -0.34, -0.081, -0.001, 0.104, 1
17494, -0.27, -0.27, -0.315, -0.081, -0.009, 0.111, 1
17514, -0.216, -0.272, -0.249, -0.017, -0.021, 0.118, 1
17534, -0.178, -0.226, -0.214, -0.023, -0.034, 0.097, 1
17554, -0.101, -0.19, -0.149, -0.037, -0.034, 0.074, 1
17574, -0.035, -0.221, -0.005, -0.064, 0.011, 0.083, 1
17594, -0.011, -0.053, -0.051, -0.122, 0.047, 0.081, 1
17614, -0.027, 0.135, -0.316, -0.069, 0.019, 0.046, 1
17634, 0.011, 0.072, -0.408, 0.01, -0.024, 0.07, 1
17654, -0.044, -0.093, -0.089, -0.045, 0.002, 0.091, 1
17674, -0.089, -0.1, 0.078, -0.094, -0.01, 0.08, 1
17694, -0.091, -0.081, 0.078, -0.11, -0.002, 0.059, 1
17714, 0.016, -0.147, -0.024, -0.119, 0.028, 0.051, 1
17734, 0.16, -0.111, -0.069, -0.095, 0.041, 0.053, 1
17754, 0.072, -0.178, 0.013, -0.148, 0.021, 0.078, 1
17774, -0.082, -0.014, -0.235, -0.155, 0.045, 0.091, 1
17794, -0.019, 0.034, -0.444, -0.084, 0.022, 0.08, 1
17814, 0.049, -0.031, -0.322, -0.057, -0.031, 0.076, 1
17834, 0.063, -0.098, -0.141, -0.076, -0.053, 0.081, 1
17854, -0.111, -0.131, 0.007, -0.114, -0.01, 0.082, 1
17874, -0.063, -0.087, 0.026, -0.177, 0.031, 0.089, 1
17894, -0.065, 0.155, -0.238, -0.098, 0.021, 0.082, 1
17914, -0.066, 0.025, -0.097, -0.054, 0.064, 0.072, 1
17934, -0.016, -0.144, 0.103, -0.139, 0.084, 0.075, 1
17954, -0.055, 0.041, -0.093, -0.155, 0.065, 0.071, 1
17974, -0.093, 0.034, -0.142, -0.143, 0.073, 0.051, 1
17994, -0.037, 0.04, -0.325, -0.064, 0.045, 0.064, 1
18014, -0.019, -0.105, -0.181, -0.115, 0.08, 0.078, 1
18034, 0.074, -0.187, -0.118, -0.18, 0.037, 0.083, 1
18054, 0.02, -0.228, -0.182, -0.166, -0.058, 0.061, 1
18074, -0.099, -0.112, -0.249, -0.129, -0.021, 0.05, 1
18094, 0.002, 0.002, -0.334, -0.064, 0.039, 0.074, 1
18114, 0.0, -0.057, -0.26, -0.097, 0.034, 0.054, 1
18134, -0.031, 0.051, -0.442, -0.057, -0.041, 0.043, 1
18154, -0.053, -0.042, -0.205, -0.064, -0.001, 0.064, 1
18174, -0.008, -0.077, -0.132, -0.12, 0.033, 0.073, 1
18194, -0.076, -0.027, -0.233, -0.18, 0.072, 0.087, 0
18214, 0.034, -0.002, -0.353, -0.21, 0.103, 0.144, 0
18234, -0.142, -0.336, -0.289, -0.109, 0.014, 0.155, 0
18254, -0.212, 0.014, -0.344, -0.142, 0.02, 0.156, 0
18274, -0.116, 0.421, -0.882, 0.116, -0.061, 0.191, 0
18294, -0.776, -0.178, -0.533, 0.307, -0.091, 0.221, 0
18314, -0.878, 0.133, -0.477, 0.084, 0.05, 0.165, 0
18334, -1.111, 0.585, -0.787, 0.07, -0.01, 0.049, 0
18354, -1.182, 0.643, -0.715, 0.108, -0.014, -0.145, 0
18374, -1.129, 0.689, -0.702, 0.061, 0.095, -0.218, 0
18394, -0.941, 0.659, -0.661, 0.092, 0.053, -0.279, 0
18414, -0.904, 0.705, -0.727, 0.135, 0.018, -0.332, 0
18434, -0.534, 0.536, -0.499, 0.164, 0.056, -0.44, 0
18454, -0.348, 0.632, -0.341, 0.09, 0.05, -0.518, 0
18474, -0.316, 0.887, -0.213, 0.116, -0.012, -0.563, 0
18494, -0.411, 0.505, 0.485, 0.182, 0.026, -0.656, 0
18514, -0.5, 0.344, 1.192, 0.083, 0.102, -0.698, 0
18534, -0.243, 0.231, 1.183, 0.01, 0.175, -0.819, 0
18554, 0.418, 0.167, 0.915, -0.04, 0.3, -0.91, 0
18574, 1.105, 0.442, 0.541, -0.04, 0.324, -0.973, 0
18594, 1.176, 0.344, 0.627, -0.018, 0.212, -1.047, 0
18614, 1.154, 0.38, 0.67, -0.058, 0.19, -1.043, 0
18634, 1.507, 0.229, 0.624, -0.166, 0.218, -1.05, 0
18654, 2.032, 0.145, 0.292, -0.171, 0.137, -1.095, 0
18674, 2.056, 0.026, 0.079, -0.116, 0.132, -0.998, 0
18694, 1.71, -0.262, 0.331, -0.078, 0.261, -0.954, 0
18714, 1.738, -0.406, 0.344, -0.153, 0.262, -0.965, 0
18734, 2.119, -0.964, 0.177, -0.332, 0.223, -0.883, 0
18754, 2.501, -1.258, -0.248, -0.392, 0.111, -0.72, 0
18774, 2.004, -1.29, -0.651, -0.297, 0.093, -0.613, 0
18794, 2.019, -1.013, -0.553, -0.23, 0.052, -0.515, 0
18814, 1.796, -0.959, -0.407, -0.266, 0.001, -0.419, 0
18834, 1.956, -0.673, -0.438, -0.178, -0.085, -0.342, 0
18854, 1.739, -0.972, -0.249, -0.119, -0.094, -0.28, 0
18874, 1.812, -1.476, 0.202, -0.213, -0.056, -0.196, 0
18894, 1.729, -1.998, 0.268, -0.354, -0.036, -0.055, 0
18914, 1.785, -1.799, 0.038, -0.408, -0.042, 0.101, 0
18934, 1.62, -1.214, -0.385, -0.266, -0.115, 0.233, 0
18954, 1.189, -1.181, -0.481, -0.226, -0.137, 0.355, 0
18974, 1.025, -1.164, -0.617, -0.233, -0.196, 0.472, 0
18994, 0.66, -1.462, -0.485, -0.251, -0.188, 0.573, 0
19014, 0.41, -1.956, -0.181, -0.379, -0.111, 0.662, 0
19034, 0.351, -1.622, -0.297, -0.359, -0.103, 0.731, 0
19054, 0.019, -0.844, -0.627, -0.255, 0.012, 0.799, 0
19074, -0.058, -0.767, -0.673, -0.282, 0.086, 0.874, 0
19094, -0.121, -0.636, -0.467, -0.356, 0.094, 0.935, 0
19114, -0.288, -0.558, -0.465, -0.343, 0.04, 0.932, 0
19134, -0.25, -0.284, -0.622, -0.334, 0.011, 0.915, 0
19154, -0.348, -0.325, -0.814, -0.233, -0.033, 0.974, 0
19174, -0.301, -0.679, -0.619, -0.102, -0.075, 0.981, 0
19194, -0.373, -1.044, -0.365, -0.123, -0.09, 1.003, 0
19214, -0.442, -0.968, -0.418, -0.202, -0.108, 0.998, 0
19234, -0.662, -0.448, -0.759, -0.22, -0.102, 1.079, 0
19254, -0.886, -0.209, -1.062, -0.142, 0.026, 1.094, 0
19274, -0.742, -0.318, -1.108, -0.127, 0.023, 1.062, 0
19294, -0.706, -0.428, -1.073, -0.065, -0.037, 0.976, 0
19314, -0.309, -0.492, -0.848, 0.012, -0.011, 0.965, 0
19334, -0.117, -0.62, -0.487, -0.001, -0.023, 1.005, 0
19354, -0.627, -0.439, -0.404, -0.081, 0.0, 1.078, 0
19374, -0.91, 0.195, -0.563, -0.053, 0.034, 0.987, 0
19394, -1.513, 0.841, -0.939, 0.018, -0.014, 0.886, 0
19414, -1.441, 0.717, -0.852, 0.123, -0.081, 0.739, 0
19434, -1.456, 0.117, -0.488, 0.163, -0.154, 0.728, 0
19454, -1.509, 0.187, -0.41, 0.107, -0.158, 0.668, 0
19474, -1.6, 0.587, -0.57, 0.13, -0.081, 0.663, 0
19494, -1.204, 0.531, -0.602, 0.175, -0.055, 0.565, 0
19514, -0.764, 0.021, -0.24, 0.208, -0.191, 0.458, 0
19534, -0.658, 0.002, 0.135, 0.084, -0.239, 0.425, 0
19554, -1.01, 0.685, 0.084, -0.017, -0.171, 0.38, 0
19574, -1.381, 1.265, -0.14, 0.08, -0.094, 0.214, 0
19594, -1.152, 1.079, 0.182, 0.08, -0.102, 0.129, 0
19614, -1.151, 1.267, 0.199, 0.054, -0.105, 0.078, 0
19634, -1.225, 1.102, 0.268, 0.069, 0.008, 0.0, 0
19654, -0.842, 0.95, 0.425, 0.015, 0.109, -0.075, 0
19674, -0.593, 0.881, 0.442, 0.003, 0.022, -0.226, 0
19694, -0.395, 0.623, 0.459, -0.018, 0.045, -0.312, 0
19714, 0.1, 0.733, 0.187, 0.009, 0.12, -0.394, 0
19734, 0.267, 0.635, 0.034, -0.033, 0.1, -0.439, 0
19754, 0.501, 0.601, 0.058, -0.073, 0.04, -0.519, 0
19774, 0.826, 0.445, 0.047, -0.053, 0.028, -0.515, 0
19794, 1.339, -0.142, 0.279, -0.067, 0.02, -0.49, 0
19814, 1.8, -0.614, 0.354, -0.114, -0.059, -0.456, 0
19834, 1.85, -0.76, 0.3, -0.166, -0.01, -0.393, 0
19854, 2.235, -0.934, 0.264, -0.253, 0.064, -0.31, 0
19874, 2.656, -0.835, -0.274, -0.18, -0.128, -0.262, 0
19894, 2.22, -0.98, -0.26, -0.11, -0.171, -0.147, 0
19914, 1.784, -1.026, 0.196, -0.131, -0.116, -0.058, 0
19934, 1.277, -0.954, 0.445, -0.203, 0.0, 0.014, 0
19954, 1.021, -0.847, 0.263, -0.239, 0.128, 0.048, 0
19974, 1.062, -0.659, -0.106, -0.235, 0.131, 0.104, 0
19994, 0.79, -0.468, -0.495, -0.175, 0.12, 0.165, 0
20014, 0.378, -0.731, -0.49, -0.232, 0.18, 0.191, 0
20034, 0.241, -0.513, -0.507, -0.276, 0.178, 0.24, 0
20054, -0.076, -0.225, -0.776, -0.194, 0.132, 0.224, 0
20074, -0.289, -0.021, -0.774, -0.073, 0.087, 0.244, 0
20094, -0.39, -0.122, -0.617, 0.127, 0.053, 0.248, 1
20114, 0.047, -0.873, -0.376, 0.135, 0.057, 0.219, 1
20134, -0.165, -0.171, -0.682, 0.004, 0.039, 0.198, 1
20154, -0.367, -0.132, -0.531, 0.007, 0.039, 0.18, 1
20174, -0.418, -0.236, -0.271, 0.051, -0.023, 0.067, 1
20194, -0.277, -0.453, -0.06, -0.032, -0.059, 0.01, 1
20214, -0.011, -0.318, -0.192, -0.138, -0.003, 0.023, 1
20234, 0.047, -0.349, -0.127, -0.132, 0.026, 0.054, 1
20254, -0.093, -0.12, -0.194, -0.119, 0.01, 0.091, 1
20274, -0.039, -0.057, -0.239, -0.065, 0.042, 0.113, 1
20294, 0.027, -0.106, -0.057, -0.09, 0.054, 0.123, 1
20314, 0.017, -0.055, 0.011, -0.194, 0.034, 0.133, 1
20334, -0.059, 0.034, -0.078, -0.207, -0.003, 0.119, 1
20354, -0.158, 0.095, -0.214, -0.122, 0.012, 0.079, 1
20374, 0.006, -0.006, -0.144, -0.077, 0.082, 0.037, 1
20394, 0.143, -0.056, -0.113, -0.103, 0.051, 0.041, 1
20414, -0.014, -0.096, -0.148, -0.117, 0.043, 0.082, 1
20434, 0.039, -0.046, -0.242, -0.078, 0.016, 0.072, 1
20454, -0.029, -0.036, -0.2, -0.073, -0.036, 0.054, 1
20474, -0.09, 0.006, -0.127, -0.114, -0.008, 0.065, 1
20494, -0.041, -0.063, 0.021, -0.123, 0.077, 0.085, 1
20514, 0.041, -0.003, -0.155, -0.12, 0.105, 0.076, 1
20534, 0.045, -0.014, -0.29, -0.061, 0.012, 0.069, 1
20554, -0.012, -0.004, -0.229, -0.059, -0.014, 0.057, 1
20574, -0.058, -0.027, -0.112, -0.084, 0.005, 0.089, 1
20594, -0.094, -0.087, -0.013, -0.116, 0.076, 0.104, 1
20614, -0.012, -0.021, -0.08, -0.094, 0.05, 0.086, 1
20634, 0.009, -0.048, -0.125, -0.05, 0.026, 0.072, 1
20654, -0.007, -0.012, -0.181, -0.05, 0.048, 0.088, 1
20674, -0.063, -0.084, -0.053, -0.194, 0.08, 0.097, 1
20694, -0.105, 0.225, -0.241, -0.203, 0.043, 0.069, 1
20714, -0.119, 0.115, -0.474, -0.078, 0.004, 0.065, 1
20734, -0.135, -0.06, -0.316, -0.049, 0.015, 0.048, 1
20754, 0.056, -0.059, -0.3, -0.044, 0.004, 0.054, 1
20774, -0.034, -0.086, -0.159, -0.094, 0.059, 0.086, 1
20794, -0.025, -0.058, -0.136, -0.119, 0.045, 0.089, 1
20814, -0.04, -0.002, -0.22, -0.136, -0.01, 0.065, 1
20834, -0.162, -0.047, -0.128, -0.247, 0.076, 0.112, 1
20854, -0.079, -0.022, -0.164, -0.225, 0.105, 0.131, 1
20874, -0.089, -0.137, -0.242, -0.191, -0.011, 0.004, 1
20894, 0.021, 0.298, -0.585, 0.01, -0.151, -0.028, 0
20914, -0.128, -0.083, -0.375, -0.018, 0.034, 0.042, 0
20934, -0.035, -0.029, -0.098, -0.028, 0.013, 0.06, 0
20954, -0.337, -0.093, -0.219, -0.045, -0.042, 0.043, 0
20974, -0.388, 0.166, -0.443, 0.003, -0.014, 0.013, 0
20994, -0.245, 0.129, -0.529, 0.074, -0.061, 0.013, 0
21014, -0.837, 0.081, -0.339, -0.028, 0.081, -0.131, 0
21034, -0.942, 0.706, -0.663, -0.043, 0.07, -0.178, 0
21054, -1.059, 0.49, -0.662, 0.021, 0.042, -0.299, 0
21074, -0.648, 0.67, -0.497, -0.039, 0.076, -0.447, 0
21094, -0.44, 0.919, -0.47, -0.066, 0.053, -0.474, 0
21114, -0.438, 0.741, -0.393, 0.037, 0.046, -0.485, 0
21134, -0.01, 0.693, -0.194, 0.081, 0.041, -0.623, 0
21154, 0.044, 0.483, 0.169, 0.099, -0.001, -0.709, 0
21174, 0.046, 0.389, 0.501, -0.015, 0.017, -0.765, 0
21194, 0.201, 0.271, 0.417, -0.04, 0.111, -0.827, 0
21214, 0.628, 0.158, 0.474, -0.036, 0.249, -0.891, 0
21234, 1.132, 0.23, 0.521, -0.028, 0.261, -1.004, 0
21254, 1.155, 0.135, 0.362, -0.01, 0.151, -1.004, 0
21274, 1.056, 0.234, 0.415, -0.026, 0.136, -1.043, 0
21294, 1.331, 0.281, 0.358, -0.089, 0.14, -1.086, 0
21314, 1.536, -0.228, -0.021, -0.174, 0.116, -0.968, 0
21334, 1.712, -0.408, -0.145, -0.163, 0.114, -0.931, 0
21354, 1.577, -0.661, 0.204, -0.088, 0.014, -0.888, 0
21374, 1.556, -0.6, 0.502, -0.105, 0.007, -0.833, 0
21394, 1.435, -0.648, 0.369, -0.125, 0.051, -0.668, 0
21414, 1.622, -1.025, 0.394, -0.142, 0.103, -0.642, 0
21434, 1.655, -1.345, 0.493, -0.288, 0.106, -0.605, 0
21454, 1.331, -0.955, 0.303, -0.386, 0.091, -0.491, 0
21474, 1.158, -0.834, 0.369, -0.346, 0.109, -0.411, 0
21494, 1.177, -0.895, 0.348, -0.288, 0.073, -0.304, 0
21514, 1.438, -1.135, 0.284, -0.398, 0.127, -0.216, 0
21534, 1.724, -1.315, 0.184, -0.541, 0.078, -0.101, 0
21554, 1.639, -1.342, -0.481, -0.491, -0.023, 0.001, 0
21574, 1.551, -1.416, -0.82, -0.409, -0.019, 0.152, 0
21594, 1.078, -0.99, -0.825, -0.362, -0.018, 0.233, 0
21614, 0.606, -0.814, -0.455, -0.382, -0.032, 0.303, 0
21634, 0.515, -0.646, -0.363, -0.412, -0.003, 0.36, 0
21654, 0.428, -1.446, -0.368, -0.48, 0.083, 0.475, 0
21674, 0.496, -1.526, -0.756, -0.459, 0.087, 0.524, 0
21694, 0.313, -1.26, -1.159, -0.362, 0.089, 0.583, 0
21714, 0.275, -0.968, -1.325, -0.286, 0.137, 0.686, 0
21734, 0.235, -1.384, -1.072, -0.365, 0.197, 0.801, 0
21754, 0.265, -1.499, -1.358, -0.395, 0.087, 0.864, 0
21774, -0.268, -1.253, -1.074, -0.31, 0.281, 0.963, 0
21794, -0.029, -1.209, -1.093, -0.306, 0.123, 1.012, 0
21814, -0.478, -0.611, -1.391, -0.262, 0.036, 1.001, 0
21834, -0.992, -0.346, -1.581, -0.129, 0.087, 1.043, 0
21854, -0.733, -0.845, -1.121, -0.102, 0.102, 1.05, 0
21874, -0.481, -0.672, -1.048, -0.032, -0.032, 1.017, 0
21894, -0.738, -0.031, -1.218, 0.163, -0.123, 1.035, 0
21914, -1.081, -0.444, -0.818, 0.174, -0.105, 1.062, 0
21934, -1.291, -0.721, -0.501, 0.052, -0.086, 1.066, 0
21954, -1.295, -0.778, -0.468, 0.082, -0.119, 0.948, 0
21974, -0.724, -0.557, -0.598, 0.209, -0.226, 0.955, 0
21994, -1.307, 0.238, -0.492, 0.194, -0.097, 1.011, 0
22014, -1.923, 1.013, -0.822, 0.124, -0.099, 0.917, 0
22034, -2.007, 1.084, -0.363, 0.305, -0.344, 0.656, 0
22054, -1.663, -0.346, 0.588, 0.266, -0.381, 0.65, 0
22074, -1.381, -0.173, 0.566, -0.149, -0.359, 0.666, 0
22094, -1.85, 0.593, -0.058, -0.215, -0.262, 0.676, 0
22114, -1.704, 1.491, -0.193, -0.014, -0.103, 0.492, 0
22134, -1.721, 1.502, -0.03, 0.166, -0.169, 0.417, 0
22154, -2.352, 1.146, 0.244, 0.311, -0.13, 0.36, 0
22174, -1.935, 0.732, 0.715, 0.241, 0.054, 0.257, 0
22194, -1.348, 0.532, 0.986, 0.097, 0.047, 0.145, 0
22214, -1.017, 0.637, 0.711, -0.039, -0.013, 0.009, 0
22234, -1.282, 1.458, -0.055, -0.079, -0.036, -0.065, 0
22254, -1.253, 1.426, -0.222, -0.032, 0.072, -0.148, 0
22274, -0.748, 1.074, -0.028, -0.039, 0.028, -0.245, 0
22294, -0.453, 0.822, 0.015, -0.061, -0.062, -0.359, 0
22314, -0.157, 0.358, 0.118, -0.036, -0.033, -0.395, 0
22334, 0.256, 0.053, 0.411, -0.057, 0.108, -0.366, 0
22354, 0.664, -0.019, 0.344, -0.112, 0.094, -0.386, 0
22374, 1.074, -0.052, 0.071, -0.109, -0.013, -0.48, 0
22394, 1.463, -0.461, 0.104, -0.117, -0.039, -0.451, 0
22414, 1.647, -0.484, 0.085, -0.191, -0.018, -0.353, 0
22434, 1.728, -0.383, -0.022, -0.175, 0.04, -0.265, 0
22454, 1.762, -0.6, -0.019, -0.131, 0.073, -0.137, 0
22474, 1.579, -0.649, -0.068, -0.197, 0.031, -0.117, 0
22494, 1.357, -0.298, -0.402, -0.158, -0.039, -0.11, 0
22514, 1.035, -0.197, -0.452, -0.13, -0.034, -0.062, 0
22534, 0.608, -0.44, -0.37, -0.126, 0.007, 0.015, 0
22554, 0.406, -0.711, -0.258, -0.217, 0.116, 0.083, 0
22574, 0.47, -0.528, -0.335, -0.204, 0.132, 0.138, 0
22594, 0.244, -0.273, -0.39, -0.146, 0.088, 0.125, 0
22614, -0.1, -0.415, -0.179, -0.197, 0.108, 0.139, 0
22634, -0.257, -0.2, -0.167, -0.192, 0.119, 0.183, 0
22654, -0.416, -0.091, -0.204, -0.056, 0.15, 0.235, 1
22674, -0.225, -0.067, -0.311, 0.119, 0.065, 0.174, 1
22694, 0.02, -0.318, -0.402, 0.246, -0.117, 0.115, 1
22714, -0.393, -0.531, -0.116, 0.093, -0.031, 0.129, 1
22734, -0.4, -0.325, 0.072, -0.135, 0.08, 0.137, 1
22754, -0.359, -0.052, -0.079, -0.186, 0.063, 0.139, 1
22774, -0.31, 0.089, -0.213, -0.123, 0.018, 0.082, 1
22794, -0.194, -0.082, -0.202, -0.081, -0.018, 0.086, 1
22814, -0.199, -0.159, -0.198, -0.045, -0.005, 0.092, 1
22834, -0.055, -0.245, -0.104, -0.096, 0.018, 0.121, 1
22854, -0.025, -0.217, -0.284, -0.119, 0.012, 0.063, 1
22874, 0.026, -0.025, -0.505, -0.079, -0.02, 0.059, 1
22894, -0.003, -0.043, -0.384, -0.127, 0.0, 0.062, 1
22914, -0.029, -0.006, -0.308, -0.174, 0.031, 0.076, 1
22934, -0.01, -0.125, -0.178, -0.227, 0.092, 0.126, 1
22954, 0.038, 0.113, -0.41, -0.033, -0.028, 0.028, 1
22974, 0.034, -0.034, -0.297, -0.016, -0.031, 0.051, 1
22994, 0.0, -0.07, -0.173, -0.039, 0.023, 0.078, 1
23014, -0.021, 0.019, -0.265, -0.076, 0.058, 0.081, 1
23034, -0.013, 0.006, -0.236, -0.061, -0.009, 0.055, 1
23054, -0.048, 0.011, -0.19, -0.078, -0.026, 0.058, 1
23074, -0.003, -0.01, -0.12, -0.058, -0.021, 0.073, 1
23094, -0.035, -0.052, -0.078, -0.058, 0.003, 0.092, 1
23114, 0.022, 0.003, -0.157, -0.083, 0.001, 0.081, 1
23134, 0.01, 0.006, -0.141, -0.08, -0.033, 0.07, 1
23154, -0.107, -0.053, -0.073, -0.085, -0.034, 0.094, 1
23174, 0.018, -0.084, 0.088, -0.068, 0.034, 0.097, 1
23194, -0.027, -0.159, 0.103, -0.067, 0.027, 0.11, 1
23214, -0.005, -0.164, 0.107, -0.161, 0.058, 0.104, 1
23234, 0.013, -0.009, -0.084, -0.173, 0.034, 0.124, 1
23254, -0.092, -0.039, -0.039, -0.179, 0.054, 0.15, 1
23274, -0.141, 0.018, -0.222, -0.166, 0.039, 0.139, 1
23294, -0.026, 0.063, -0.427, -0.071, -0.008, 0.122, 1
23314, -0.063, -0.095, -0.012, -0.124, 0.05, 0.128, 1
23334, -0.199, -0.035, -0.048, -0.189, 0.056, 0.139, 1
23354, -0.187, 0.04, -0.322, -0.174, 0.04, 0.114, 1
23374, -0.136, 0.062, -0.477, -0.122, 0.108, 0.106, 1
23394, 0.196, -0.1, -0.441, -0.075, 0.03, 0.045, 1
23414, -0.078, -0.28, -0.338, -0.131, -0.028, 0.078, 1
23434, 0.021, -0.334, -0.1, -0.291, 0.075, 0.077, 1
23454, -0.1, -0.068, -0.078, -0.307, 0.09, 0.045, 0
23474, -0.344, 0.069, -0.245, -0.198, 0.124, 0.02, 0
23494, 0.156, 0.031, -0.228, -0.136, -0.009, -0.044, 0
23514, -0.058, 0.22, -0.764, 0.167, -0.133, -0.031, 0
23534, -0.388, -0.172, -0.458, 0.299, 0.04, -0.023, 0
23554, -0.126, -0.364, -0.034, 0.101, 0.152, 0.017, 0
23574, -0.069, 0.059, -0.409, 0.046, 0.026, 0.04, 0
23594, -0.442, 0.129, -0.582, -0.023, 0.036, 0.047, 0
23614, -0.606, 0.241, -0.514, -0.136, 0.106, -0.003, 0
23634, -0.755, 0.582, -0.73, -0.039, 0.099, -0.143, 0
23654, -0.597, 0.469, -0.484, 0.034, 0.047, -0.249, 0
23674, -0.611, 0.206, -0.131, -0.001, 0.0, -0.337, 0
23694, -0.58, 0.519, -0.163, 0.016, -0.007, -0.414, 0
23714, -0.528, 0.764, -0.223, 0.079, 0.024, -0.462, 0
23734, -0.419, 0.825, -0.095, 0.156, 0.0, -0.51, 0
23754, -0.527, 0.576, 0.423, 0.059, 0.051, -0.604, 0
23774, -0.231, 0.481, 0.517, -0.061, 0.12, -0.696, 0
23794, 0.183, 0.373, 0.283, -0.13, 0.176, -0.825, 0
23814, 0.828, 0.632, 0.172, -0.132, 0.156, -0.895, 0
23834, 1.105, 0.694, 0.209, -0.109, 0.114, -0.908, 0
23854, 1.095, 0.279, 0.317, -0.134, 0.094, -0.952, 0
23874, 1.206, 0.195, 0.18, -0.193, 0.178, -1.005, 0
23894, 1.377, 0.349, -0.063, -0.154, 0.23, -0.984, 0
23914, 1.218, 0.343, -0.099, -0.107, 0.36, -0.955, 0
23934, 1.492, -0.656, 0.037, -0.103, 0.302, -0.87, 0
23954, 1.796, -1.061, 0.065, -0.159, 0.27, -0.849, 0
23974, 1.913, -0.832, -0.069, -0.221, 0.186, -0.799, 0
23994, 1.987, -0.542, -0.148, -0.205, 0.126, -0.749, 0
24014, 1.958, -0.833, 0.04, -0.153, 0.106, -0.668, 0
24034, 2.218, -1.362, 0.16, -0.208, 0.084, -0.563, 0
24054, 2.12, -1.898, 0.032, -0.298, -0.017, -0.432, 0
24074, 1.821, -1.51, -0.048, -0.327, -0.073, -0.354, 0
24094, 1.537, -1.142, -0.245, -0.262, -0.037, -0.194, 0
24114, 1.611, -1.239, -0.223, -0.189, -0.021, -0.113, 0
24134, 1.869, -1.596, -0.172, -0.223, -0.103, -0.095, 0
24154, 1.725, -1.979, -0.271, -0.301, -0.141, 0.061, 0
24174, 1.577, -1.808, -0.341, -0.333, -0.155, 0.237, 0
24194, 1.296, -1.453, -0.38, -0.291, -0.155, 0.368, 0
24214, 1.032, -1.345, -0.341, -0.32, -0.099, 0.527, 0
24234, 0.846, -1.504, -0.107, -0.366, -0.078, 0.64, 0
24254, 0.973, -1.583, 0.056, -0.405, -0.105, 0.707, 0
24274, 0.795, -1.237, -0.169, -0.338, -0.206, 0.771, 0
24294, 0.623, -1.475, -0.077, -0.254, -0.161, 0.916, 0
24314, 0.62, -1.641, 0.099, -0.351, -0.13, 1.042, 0
24334, 0.321, -1.376, -0.149, -0.483, -0.05, 1.173, 0
24354, 0.061, -1.33, -0.375, -0.417, -0.026, 1.22, 0
24374, -0.418, -0.978, -0.806, -0.377, -0.026, 1.202, 0
24394, -0.63, -0.938, -0.99, -0.346, 0.004, 1.245, 0
24414, -0.86, -0.386, -1.5, -0.27, 0.119, 1.226, 0
24434, -0.836, -0.043, -1.871, -0.154, 0.087, 1.159, 0
24454, -0.33, -0.15, -1.704, -0.091, -0.048, 1.194, 0
24474, -0.328, -0.279, -1.389, -0.071, -0.113, 1.279, 0
24494, -0.856, -0.343, -1.029, -0.084, 0.004, 1.362, 0
24514, -2.047, 1.14, -1.452, 0.065, 0.173, 1.271, 0
24534, -2.282, 1.372, -1.447, 0.257, 0.133, 1.031, 0
24554, -1.837, 0.708, -1.037, 0.233, -0.077, 0.883, 0
24574, -1.746, -0.004, -0.696, 0.106, -0.105, 0.855, 0
24594, -1.604, -0.155, -0.444, 0.099, -0.013, 0.838, 0
24614, -1.537, 0.529, -0.45, 0.184, -0.027, 0.782, 0
24634, -2.074, 1.209, -0.477, 0.238, -0.058, 0.579, 0
24654, -2.247, 1.408, -0.473, 0.297, -0.1, 0.45, 0
24674, -1.99, 0.733, -0.272, 0.281, -0.091, 0.345, 0
24694, -1.641, 0.272, 0.082, 0.164, -0.086, 0.329, 0
24714, -1.28, 0.195, 0.18, 0.12, -0.084, 0.263, 0
24734, -1.132, 0.373, 0.129, 0.134, -0.095, 0.125, 0
24754, -0.799, 0.354, 0.184, 0.155, -0.134, 0.006, 0
24774, -0.584, 0.238, 0.366, 0.167, -0.133, 0.015, 0
24794, -0.774, 0.179, 0.617, 0.118, -0.006, 0.031, 0
24814, -0.8, 0.43, 0.668, 0.037, 0.07, -0.028, 0
24834, -0.59, 0.499, 0.304, 0.003, 0.051, -0.186, 0
24854, -0.068, 0.17, 0.083, -0.031, -0.02, -0.253, 0
24874, 0.07, -0.088, 0.235, -0.086, 0.0, -0.231, 0
24894, 0.118, -0.069, 0.2, -0.084, 0.023, -0.242, 0
24914, 0.166, 0.254, 0.015, -0.036, 0.036, -0.291, 0
24934, 0.239, 0.018, 0.151, -0.082, 0.06, -0.303, 0
24954, 0.393, -0.142, 0.27, -0.154, 0.042, -0.322, 0
24974, 0.393, -0.186, 0.164, -0.164, -0.005, -0.342, 0
24994, 0.605, -0.083, -0.061, -0.133, -0.015, -0.353, 0
25014, 0.487, -0.016, -0.131, -0.131, -0.032, -0.332, 0
25034, 0.527, -0.12, -0.084, -0.164, -0.039, -0.312, 0
25054, 0.536, -0.153, -0.203, -0.184, -0.012, -0.332, 0
25074, 0.827, -0.404, -0.15, -0.106, 0.017, -0.341, 0
25094, 1.07, -0.471, -0.069, -0.099, 0.003, -0.303, 0
25114, 0.939, -0.601, -0.145, -0.128, 0.018, -0.223, 0
25134, 0.948, -0.609, -0.232, -0.15, 0.05, -0.183, 0
25154, 0.726, -0.63, -0.277, -0.119, 0.01, -0.131, 0
25174, 0.686, -0.64, -0.302, -0.125, 0.031, -0.086, 0
25194, 0.419, -0.818, -0.277, -0.156, 0.04, -0.042, 0
25214, 0.047, -0.407, -0.441, -0.227, 0.134, 0.042, 0
25234, 0.131, -0.095, -0.627, -0.182, 0.167, 0.065, 0
25254, -0.145, -0.255, -0.482, -0.103, 0.105, 0.086, 0
25274, -0.351, -0.117, -0.157, -0.126, 0.152, 0.094, 0
25294, -0.296, 0.206, -0.36, -0.058, 0.147, 0.096, 1
25314, -0.252, -0.173, -0.169, 0.158, 0.048, 0.036, 1
25334, -0.159, -0.565, 0.224, 0.032, 0.022, 0.033, 1
25354, -0.041, -0.496, 0.182, -0.131, -0.023, 0.037, 1
25374, -0.084, -0.17, 0.067, -0.196, -0.154, 0.088, 1
25394, -0.278, -0.059, -0.089, -0.103, -0.145, 0.081, 1
25414, -0.312, -0.336, 0.042, -0.124, -0.06, 0.106, 1
25434, -0.324, -0.15, -0.192, -0.121, 0.045, 0.114, 1
25454, -0.203, -0.145, -0.2, -0.152, 0.111, 0.103, 1
25474, -0.057, -0.116, -0.275, -0.169, 0.051, 0.1, 1
25494, -0.073, -0.025, -0.45, -0.147, 0.044, 0.097, 1
25514, 0.068, -0.077, -0.505, -0.133, 0.048, 0.124, 1
25534, -0.015, 0.033, -0.527, -0.136, 0.012, 0.145, 1
25554, -0.204, 0.014, -0.317, -0.174, 0.029, 0.109, 1
25574, -0.241, 0.172, -0.317, -0.125, 0.005, 0.063, 1
25594, -0.208, 0.127, -0.363, -0.028, -0.012, 0.02, 1
25614, 0.002, -0.039, -0.315, -0.001, 0.011, 0.032, 1
25634, 0.089, -0.186, -0.258, -0.065, 0.07, 0.065, 1
25654, 0.179, -0.197, -0.195, -0.122, 0.02, 0.078, 1
25674, -0.018, -0.03, -0.163, -0.105, -0.003, 0.072, 1
25694, -0.023, 0.049, -0.191, -0.035, -0.021, 0.061, 1
25714, 0.089, -0.036, -0.04, -0.019, -0.038, 0.08, 1
25734, -0.138, -0.198, 0.15, -0.06, 0.03, 0.094, 1
25754, -0.018, -0.27, 0.195, -0.127, 0.081, 0.106, 1
25774, 0.022, -0.055, 0.048, -0.163, 0.056, 0.089, 1
25794, -0.011, 0.127, -0.071, -0.135, 0.021, 0.081, 1
25814, -0.147, 0.057, -0.129, -0.133, 0.064, 0.094, 1
25834, -0.036, 0.018, -0.234, -0.123, 0.075, 0.098, 1
25854, -0.005, -0.057, -0.153, -0.153, 0.015, 0.069, 1
25874, 0.008, -0.004, -0.26, -0.123, -0.01, 0.067, 1
25894, 0.029, -0.098, -0.214, -0.094, 0.019, 0.09, 1
25914, 0.078, -0.056, -0.182, -0.114, 0.009, 0.091, 1
25934, -0.087, 0.041, -0.286, -0.106, -0.035, 0.094, 1
25954, -0.183, -0.017, -0.248, -0.071, -0.007, 0.103, 1
25974, -0.067, -0.088, -0.077, -0.076, 0.029, 0.094, 1
25994, -0.009, -0.048, -0.017, -0.136, 0.014, 0.079, 1
26014, -0.113, -0.096, -0.143, -0.122, -0.007, 0.079, 1
26034, 0.006, -0.139, -0.148, -0.146, 0.062, 0.09, 1
26054, -0.029, -0.017, -0.237, -0.167, 0.053, 0.105, 1
26074, -0.037, -0.106, -0.135, -0.166, 0.052, 0.097, 1
26094, -0.019, -0.016, -0.23, -0.237, 0.05, 0.079, 1
26114, -0.053, 0.079, -0.439, -0.165, 0.031, 0.073, 1
26134, -0.08, -0.058, -0.182, -0.125, 0.086, 0.103, 1
26154, -0.034, -0.027, -0.078, -0.175, 0.105, 0.124, 1
26174, -0.022, -0.003, -0.222, -0.178, 0.037, 0.127, 1
26194, -0.083, -0.087, -0.231, -0.189, 0.047, 0.132, 1
26214, -0.007, 0.04, -0.337, -0.152, 0.07, 0.095, 1
26234, 0.023, -0.003, -0.323, -0.07, -0.006, 0.073, 1
26254, -0.165, -0.224, -0.102, -0.08, 0.015, 0.083, 1
26274, 0.049, -0.235, -0.04, -0.28, 0.144, 0.109, 0
26294, -0.077, -0.081, -0.138, -0.417, 0.146, 0.052, 0
26314, -0.24, 0.257, -0.399, -0.499, 0.141, 0.101, 0
26334, -0.349, 0.8, -1.112, 0.17, -0.008, 0.045, 0
26354, -0.44, 0.249, -0.884, 0.496, -0.094, -0.012, 0
26374, -0.546, -0.512, -0.038, 0.133, 0.155, 0.046, 0
26394, -0.408, -0.053, -0.158, -0.073, 0.134, 0.015, 0
26414, -0.779, 0.309, -0.549, -0.038, 0.042, -0.111, 0
26434, -0.794, 0.593, -0.704, 0.048, 0.037, -0.189, 0
26454, -0.472, 0.461, -0.625, 0.065, 0.053, -0.215, 0
26474, -0.347, 0.368, -0.468, 0.036, 0.083, -0.208, 0
26494, -0.196, 0.274, -0.448, 0.133, 0.004, -0.329, 0
26514, -0.021, 0.164, -0.279, 0.163, -0.054, -0.415, 0
26534, 0.007, 0.143, -0.034, 0.083, -0.022, -0.439, 0
26554, -0.067, 0.212, 0.118, 0.038, 0.032, -0.395, 0
26574, -0.166, 0.105, 0.312, 0.018, 0.087, -0.459, 0
26594, 0.061, 0.199, 0.398, 0.021, 0.053, -0.541, 0
26614, 0.165, -0.062, 0.281, 0.053, 0.054, -0.618, 0
26634, 0.32, -0.22, 0.228, 0.047, 0.113, -0.64, 0
26654, 0.458, -0.25, 0.105, 0.009, 0.149, -0.77, 0
26674, 0.886, -0.236, 0.104, -0.023, 0.065, -0.749, 0
26694, 0.79, -0.381, 0.21, -0.092, 0.099, -0.698, 0
26714, 0.474, -0.304, 0.386, -0.062, 0.175, -0.637, 0
26734, 0.431, -0.009, 0.378, -0.073, 0.289, -0.622, 0
26754, 0.637, -0.016, 0.56, -0.192, 0.281, -0.668, 0
26774, 0.625, 0.296, 0.291, -0.271, 0.236, -0.623, 0
26794, 0.291, -0.014, -0.013, -0.302, 0.339, -0.617, 0
26814, 0.586, -0.161, 0.016, -0.312, 0.32, -0.58, 0
26834, 0.201, -0.089, 0.09, -0.143, 0.274, -0.629, 0
26854, 0.285, -0.616, 0.074, -0.21, 0.255, -0.632, 0
26874, 0.633, -0.364, -0.216, -0.288, 0.251, -0.598, 0
26894, 0.821, -0.519, -0.252, -0.273, 0.213, -0.549, 0
26914, 0.885, -0.351, -0.355, -0.181, 0.076, -0.59, 0
26934, 0.931, -0.447, -0.412, -0.108, -0.075, -0.541, 0
26954, 0.992, -0.68, -0.313, -0.15, -0.096, -0.453, 0
26974, 1.373, -1.162, -0.038, -0.193, -0.072, -0.396, 0
26994, 1.325, -1.631, 0.156, -0.276, -0.119, -0.262, 0
27014, 1.307, -0.753, -0.164, -0.315, -0.124, -0.18, 0
27034, 1.138, -0.551, -0.17, -0.24, -0.092, -0.027, 0
27054, 0.616, -1.034, 0.066, -0.252, -0.07, 0.059, 0
27074, 0.389, -1.448, 0.028, -0.346, -0.075, 0.087, 0
27094, 0.141, -1.103, -0.43, -0.347, -0.111, 0.173, 0
27114, 0.253, -0.863, -0.485, -0.273, -0.061, 0.231, 0
27134, 0.214, -0.606, -0.511, -0.287, -0.064, 0.314, 0
27154, 0.12, -0.929, -0.371, -0.316, -0.048, 0.405, 0
27174, 0.047, -1.215, -0.397, -0.342, -0.08, 0.491, 0
27194, 0.042, -1.583, -0.266, -0.318, -0.096, 0.587, 0
27214, 0.209, -1.397, -0.43, -0.349, -0.081, 0.668, 0
27234, 0.35, -1.376, -0.427, -0.287, -0.1, 0.756, 0
27254, 0.268, -1.294, -0.217, -0.291, -0.073, 0.87, 0
27274, -0.247, -0.821, -0.531, -0.401, 0.058, 1.03, 0
27294, -0.452, -0.464, -0.804, -0.353, 0.025, 1.014, 0
27314, -1.194, -0.074, -1.176, -0.226, -0.01, 1.02, 0
27334, -0.957, -0.286, -0.985, -0.213, -0.021, 1.016, 0
27354, -0.673, -0.39, -0.92, -0.189, -0.021, 1.063, 0
27374, -0.639, -0.019, -0.993, -0.09, 0.018, 1.082, 0
27394, -1.104, 0.284, -1.119, -0.038, 0.086, 1.082, 0
27414, -1.216, 0.22, -1.126, -0.032, 0.047, 0.996, 0
27434, -1.145, -0.097, -0.846, -0.059, 0.018, 0.941, 0
27454, -0.837, -0.411, -0.543, -0.051, 0.02, 0.877, 0
27474, -0.338, -0.366, -0.5, 0.026, -0.012, 0.925, 0
27494, -0.332, -0.19, -0.479, 0.04, 0.047, 1.02, 0
27514, -0.478, 0.133, -0.507, -0.01, 0.029, 1.063, 0
27534, -0.774, 0.262, -0.572, 0.043, -0.095, 0.927, 0
27554, -0.832, -0.063, -0.387, 0.097, -0.177, 0.778, 0
27574, -0.702, 0.426, -0.385, 0.136, -0.177, 0.822, 0
27594, -0.933, 0.823, -0.443, 0.197, -0.132, 0.873, 0
27614, -1.185, 0.488, -0.128, 0.119, -0.166, 0.806, 0
27634, -1.448, 0.421, -0.177, 0.1, -0.267, 0.607, 0
27654, -1.624, 0.917, -0.296, 0.158, -0.274, 0.467, 0
27674, -2.082, 1.317, -0.288, 0.188, -0.101, 0.425, 0
27694, -1.434, 1.072, 0.118, 0.092, -0.05, 0.391, 0
27714, -1.274, 0.62, 0.1, 0.025, -0.154, 0.273, 0
27734, -1.167, 1.025, -0.045, 0.073, -0.175, 0.141, 0
27754, -1.259, 1.081, 0.13, 0.043, -0.109, 0.147, 0
27774, -1.479, 1.226, 0.207, 0.034, -0.046, 0.045, 0
27794, -1.286, 1.013, 0.205, -0.004, -0.006, -0.149, 0
27814, -0.572, 0.825, 0.092, -0.048, 0.018, -0.23, 0
27834, -0.478, 0.73, 0.0, -0.023, 0.13, -0.27, 0
27854, -0.049, 0.567, 0.014, -0.014, 0.1, -0.351, 0
27874, 0.036, 0.338, 0.097, -0.006, 0.014, -0.416, 0
27894, 0.429, 0.053, 0.109, -0.014, 0.011, -0.491, 0
27914, 1.061, -0.173, 0.046, -0.048, 0.04, -0.516, 0
27934, 1.63, -0.475, 0.121, -0.069, 0.01, -0.472, 0
27954, 1.427, -0.442, 0.126, -0.063, -0.065, -0.411, 0
27974, 1.539, -0.308, 0.159, -0.053, -0.04, -0.387, 0
27994, 1.577, -0.535, 0.185, -0.037, -0.01, -0.317, 0
28014, 1.614, -0.715, 0.297, -0.12, 0.044, -0.263, 0
28034, 1.603, -0.673, -0.004, -0.138, 0.028, -0.224, 0
28054, 1.619, -0.849, -0.197, -0.133, 0.05, -0.178, 0
28074, 1.537, -0.714, -0.431, -0.187, 0.076, -0.081, 0
28094, 1.038, -0.575, -0.615, -0.15, 0.051, 0.02, 0
28114, 0.348, -0.6, -0.489, -0.119, 0.07, 0.061, 0
28134, 0.044, -0.256, -0.368, -0.246, 0.193, 0.022, 0
28154, 0.152, 0.094, -0.605, -0.215, 0.178, 0.031, 0
28174, -0.033, -0.133, -0.532, 0.031, 0.11, 0.102, 1
28194, -0.126, -0.562, -0.114, 0.087, 0.117, 0.141, 1
28214, -0.157, -0.405, -0.062, -0.005, 0.067, 0.106, 1
28234, -0.198, -0.329, -0.093, -0.086, 0.029, 0.11, 1
28254, -0.274, -0.204, -0.206, -0.109, 0.056, 0.157, 1
28274, -0.233, -0.109, -0.286, 0.027, -0.002, 0.056, 1
28294, -0.165, -0.302, -0.071, -0.054, -0.066, 0.053, 1
28314, -0.342, -0.172, -0.089, -0.108, 0.037, 0.081, 1
28334, -0.157, -0.131, -0.016, -0.066, 0.026, 0.086, 1
28354, -0.069, -0.096, -0.078, -0.041, -0.013, 0.065, 1
28374, 0.119, -0.14, -0.237, -0.02, -0.033, 0.08, 1
28394, 0.092, -0.409, 0.09, -0.184, 0.019, 0.123, 1
28414, -0.061, -0.083, -0.009, -0.251, 0.02, 0.122, 1
28434, -0.19, 0.133, -0.344, -0.176, 0.013, 0.114, 1
28454, -0.096, 0.054, -0.543, -0.081, 0.03, 0.072, 1
28474, 0.1, -0.053, -0.401, -0.08, -0.02, 0.058, 1
28494, 0.121, -0.142, -0.269, -0.131, -0.038, 0.075, 1
28514, 0.001, 0.018, -0.223, -0.076, -0.04, 0.089, 1
28534, -0.025, -0.014, -0.104, -0.055, -0.02, 0.079, 1
28554, -0.007, -0.03, 0.005, -0.078, -0.02, 0.091, 1
28574, 0.02, -0.173, -0.008, -0.122, -0.007, 0.094, 1
28594, 0.033, -0.103, 0.063, -0.153, -0.01, 0.098, 1
28614, 0.012, -0.036, 0.077, -0.15, -0.059, 0.076, 1
28634, -0.034, -0.008, -0.026, -0.119, -0.043, 0.09, 1
28654, -0.059, -0.122, 0.025, -0.164, 0.063, 0.112, 1
28674, -0.011, -0.037, 0.042, -0.26, 0.082, 0.156, 1
28694, -0.086, 0.081, -0.324, -0.183, 0.026, 0.117, 1
28714, -0.115, 0.002, -0.375, -0.106, 0.007, 0.087, 1
28734, -0.005, 0.027, -0.431, -0.091, -0.002, 0.075, 1
28754, -0.024, -0.021, -0.215, -0.182, 0.061, 0.116, 1
28774, -0.112, 0.147, -0.297, -0.092, -0.017, 0.1, 1
28794, -0.041, 0.034, -0.306, -0.006, -0.064, 0.07, 1
28814, -0.03, -0.216, -0.033, -0.077, -0.015, 0.065, 1
28834, 0.009, -0.09, -0.185, -0.149, 0.037, 0.081, 1
28854, 0.03, -0.265, -0.128, -0.1, 0.065, 0.085, 1
28874, 0.034, -0.042, -0.24, -0.089, 0.026, 0.05, 1
28894, 0.013, 0.009, -0.305, -0.05, -0.009, 0.061, 1
28914, -0.12, -0.117, -0.028, -0.135, 0.073, 0.115, 1
28934, -0.215, -0.006, -0.127, -0.271, 0.144, 0.12, 0
28954, -0.161, 0.082, -0.493, -0.237, 0.103, 0.056, 0
28974, -0.373, 0.003, -0.373, -0.215, 0.165, 0.05, 0
28994, 0.072, 0.255, -0.574, -0.188, 0.122, 0.004, 0
29014, -0.035, 0.204, -0.885, 0.085, -0.079, 0.009, 0
29034, -0.221, -0.552, -0.317, 0.232, -0.038, 0.059, 0
29054, -0.261, -0.308, -0.23, 0.032, 0.02, 0.045, 0
29074, -0.672, 0.1, -0.55, -0.047, -0.008, -0.001, 0
29094, -0.66, 0.272, -0.694, 0.019, -0.012, -0.103, 0
29114, -0.569, 0.186, -0.776, 0.045, 0.056, -0.127, 0
29134, -0.114, 0.137, -0.673, 0.059, 0.089, -0.169, 0
29154, -0.138, 0.132, -0.541, 0.106, -0.046, -0.2, 0
29174, -0.608, 0.108, -0.348, 0.173, -0.072, -0.218, 0
29194, -0.416, 0.236, -0.227, 0.139, 0.026, -0.284, 0
29214, -0.101, 0.149, 0.007, 0.119, -0.003, -0.393, 0
29234, -0.118, 0.292, 0.103, 0.097, -0.028, -0.411, 0
29254, -0.112, 0.307, 0.279, 0.102, 0.08, -0.428, 0
29274, 0.021, 0.163, 0.307, 0.043, 0.032, -0.553, 0
29294, 0.085, 0.071, 0.431, -0.062, 0.01, -0.586, 0
29314, 0.257, 0.147, 0.319, -0.057, 0.047, -0.59, 0
29334, 0.307, 0.024, -0.03, 0.1, 0.084, -0.648, 0
29354, 0.812, -0.237, 0.2, 0.087, 0.023, -0.682, 0
29374, 0.625, -0.079, 0.285, -0.067, 0.072, -0.641, 0
29394, 0.62, -0.092, 0.038, -0.032, 0.064, -0.714, 0
29414, 0.688, 0.139, -0.187, 0.125, 0.072, -0.648, 0
29434, 0.729, -0.005, -0.014, 0.189, 0.205, -0.657, 0
29454, 1.25, -0.6, 0.418, 0.018, 0.137, -0.637, 0
29474, 0.995, -0.458, 0.549, -0.191, 0.067, -0.582, 0
29494, 0.539, 0.262, 0.022, -0.166, 0.108, -0.521, 0
29514, 0.245, 0.263, -0.143, -0.101, 0.161, -0.589, 0
29534, 0.29, -0.378, 0.029, -0.17, 0.217, -0.584, 0
29554, 0.809, -0.525, -0.134, -0.218, 0.252, -0.506, 0
29574, 1.337, -0.726, -0.534, -0.178, 0.185, -0.425, 0
29594, 1.355, -0.541, -0.718, -0.127, 0.073, -0.428, 0
29614, 1.167, -0.828, -0.362, -0.148, -0.081, -0.494, 0
29634, 0.613, -0.768, 0.033, -0.202, -0.09, -0.525, 0
29654, 0.473, -0.324, 0.268, -0.169, -0.006, -0.466, 0
29674, 0.741, -0.642, 0.535, -0.141, 0.024, -0.403, 0
29694, 0.845, -1.481, 1.026, -0.299, 0.097, -0.341, 0
29714, 1.059, -1.081, 0.862, -0.402, 0.091, -0.259, 0
29734, 0.927, -1.065, 0.354, -0.441, 0.103, -0.124, 0
29754, 0.807, -1.19, -0.29, -0.463, 0.086, -0.032, 0
29774, 0.827, -0.78, -0.708, -0.392, 0.059, 0.058, 0
29794, 0.781, -0.769, -0.819, -0.298, 0.037, 0.156, 0
29814, 0.458, -0.976, -0.594, -0.331, 0.0, 0.235, 0
29834, 0.198, -0.757, -0.762, -0.391, -0.014, 0.326, 0
29854, 0.221, -0.815, -0.838, -0.302, -0.013, 0.386, 0
29874, 0.218, -0.853, -0.805, -0.255, -0.027, 0.424, 0
29894, 0.125, -0.601, -0.881, -0.279, 0.037, 0.494, 0
29914, 0.373, -0.384, -0.833, -0.25, 0.018, 0.558, 0
29934, 0.068, -0.209, -0.698, -0.178, -0.118, 0.656, 0
29954, -0.191, -0.604, -0.196, -0.084, -0.074, 0.752, 0
29974, -0.354, -1.136, 0.214, -0.149, -0.075, 0.813, 0
29994, -0.438, -0.963, -0.074, -0.295, -0.039, 0.924, 0
30014, -0.266, -0.602, -0.423, -0.281, -0.006, 0.972, 0
30034, -0.413, -0.107, -0.743, -0.192, -0.03, 0.978, 0
30054, -0.3, 0.046, -0.827, -0.09, -0.039, 0.991, 0
30074, -0.522, -0.278, -0.909, -0.144, 0.0, 1.094, 0
30094, -0.795, -0.458, -1.063, -0.204, 0.016, 1.128, 0
30114, -0.723, -0.406, -1.193, -0.115, -0.034, 1.019, 0
30134, -0.519, -0.453, -1.006, 0.033, -0.095, 0.998, 0
30154, -1.05, 0.254, -1.315, 0.089, -0.029, 1.069, 0
30174, -1.355, 0.242, -1.349, 0.115, 0.027, 1.064, 0
30194, -1.092, -0.002, -1.087, 0.12, -0.054, 0.929, 0
30214, -1.036, -0.378, -0.735, 0.147, -0.168, 0.858, 0
30234, -0.851, -0.376, -0.51, 0.209, -0.139, 0.894, 0
30254, -0.992, -0.067, -0.562, 0.253, -0.073, 0.895, 0
30274, -1.086, 0.294, -0.491, 0.22, -0.055, 0.855, 0
30294, -1.754, 0.829, -0.657, 0.235, -0.099, 0.718, 0
30314, -1.889, 0.721, -0.441, 0.28, -0.188, 0.56, 0
30334, -1.771, 0.37, -0.136, 0.294, -0.206, 0.521, 0
30354, -1.446, -0.114, 0.392, 0.169, -0.101, 0.489, 0
30374, -1.012, 0.03, 0.495, 0.037, -0.056, 0.474, 0
30394, -1.622, 0.863, 0.049, 0.094, 0.028, 0.309, 0
30414, -1.548, 0.918, 0.073, 0.135, 0.0, 0.13, 0
30434, -1.263, 0.588, 0.429, 0.048, -0.059, 0.102, 0
30454, -1.121, 0.38, 0.919, -0.059, -0.064, 0.058, 0
30474, -0.827, 0.211, 0.859, -0.128, -0.026, -0.012, 0
30494, -0.655, 0.381, 0.483, -0.172, 0.064, -0.152, 0
30514, -0.696, 0.802, 0.577, -0.228, 0.09, -0.308, 0
30534, -0.284, 1.072, 0.54, -0.262, -0.026, -0.176, 0
30554, -0.549, 0.757, 0.111, -0.159, -0.045, -0.255, 0
30574, -0.057, 0.302, 0.172, -0.117, -0.069, -0.313, 0
30594, 0.171, -0.054, 0.434, -0.18, -0.038, -0.312, 0
30614, 0.305, 0.1, 0.445, -0.242, 0.014, -0.298, 0
30634, 0.239, 0.258, 0.258, -0.207, 0.114, -0.321, 0
30654, 0.344, 0.612, 0.031, -0.142, 0.095, -0.42, 0
30674, 0.625, 0.185, -0.011, -0.188, 0.026, -0.466, 0
30694, 1.016, 0.078, -0.248, -0.204, 0.039, -0.42, 0
30714, 1.721, -0.239, -0.117, -0.158, 0.083, -0.387, 0
30734, 1.752, -0.574, -0.27, -0.156, 0.08, -0.332, 0
30754, 2.037, -0.67, -0.561, -0.188, 0.078, -0.29, 0
30774, 1.98, -0.583, -0.765, -0.194, 0.003, -0.205, 0
30794, 1.713, -0.571, -0.605, -0.132, -0.047, -0.089, 0
30814, 1.003, -0.704, -0.273, -0.061, -0.053, -0.015, 0
30834, 0.396, -0.725, -0.242, -0.047, 0.012, 0.003, 0
30854, 0.26, -0.22, -0.544, 0.001, 0.115, 0.089, 1
30874, 0.593, -0.419, -0.606, 0.186, 0.196, 0.054, 1
30894, 0.507, -0.758, -0.371, 0.243, 0.171, 0.064, 1
30914, 0.454, -0.78, -0.147, -0.045, 0.195, 0.117, 1
30934, 0.127, -0.373, -0.28, -0.226, 0.099, 0.142, 1
30954, -0.121, 0.025, -0.578, -0.179, -0.003, 0.087, 1
30974, -0.156, -0.12, -0.482, -0.022, -0.042, 0.091, 1
30994, -0.219, -0.332, -0.188, 0.043, -0.045, 0.121, 1
31014, -0.188, -0.553, 0.172, -0.039, 0.005, 0.145, 1
31034, -0.153, -0.264, 0.067, -0.185, 0.011, 0.152, 1
31054, -0.176, -0.123, -0.129, -0.168, -0.032, 0.136, 1
31074, -0.186, -0.215, -0.047, -0.09, -0.054, 0.116, 1
31094, -0.144, -0.195, -0.043, -0.036, -0.057, 0.164, 1
31114, -0.13, -0.266, 0.039, -0.091, 0.028, 0.182, 1
31134, -0.071, -0.067, -0.148, -0.225, 0.098, 0.158, 1
31154, -0.133, 0.07, -0.463, -0.204, 0.059, 0.133, 1
31174, -0.039, 0.045, -0.516, -0.095, 0.023, 0.05, 1
31194, -0.002, -0.058, -0.392, -0.048, -0.032, 0.036, 1
31214, -0.028, -0.235, -0.239, -0.117, 0.002, 0.052, 1
31234, -0.072, -0.158, -0.382, -0.152, 0.087, 0.081, 1
31254, 0.211, -0.058, -0.545, -0.122, 0.042, 0.063, 1
31274, 0.177, 0.024, -0.66, -0.044, -0.04, 0.067, 1
31294, -0.011, 0.068, -0.551, 0.037, 0.001, 0.089, 1
31314, -0.106, -0.072, -0.097, -0.035, 0.045, 0.095, 1
31334, -0.083, -0.043, 0.017, -0.119, 0.038, 0.089, 1
31354, -0.065, -0.041, -0.043, -0.108, 0.026, 0.068, 1
31374, -0.017, -0.005, -0.094, -0.08, 0.039, 0.068, 1
31394, 0.104, -0.011, -0.053, -0.045, 0.063, 0.1, 1
31414, 0.056, -0.079, 0.088, -0.087, 0.043, 0.117, 1
31434, -0.03, -0.047, 0.038, -0.122, 0.013, 0.125, 1
31454, -0.051, 0.002, -0.133, -0.094, -0.006, 0.092, 1
31474, 0.009, 0.015, -0.099, -0.048, -0.05, 0.053, 1
31494, 0.013, -0.105, -0.006, -0.122, -0.026, 0.074, 1
31514, -0.057, -0.159, -0.012, -0.149, 0.056, 0.108, 1
31534, -0.005, -0.101, -0.096, -0.113, 0.073, 0.098, 1
31554, 0.051, -0.137, -0.041, -0.089, 0.006, 0.087, 1
31574, -0.066, -0.136, 0.0, -0.098, 0.004, 0.098, 1
31594, -0.073, -0.093, -0.048, -0.165, 0.044, 0.132, 1
31614, -0.239, -0.095, -0.074, -0.319, 0.108, 0.128, 1
31634, -0.09, 0.386, -0.46, -0.199, 0.001, 0.075, 1
31654, -0.226, 0.111, -0.585, -0.077, 0.039, 0.113, 1
31674, -0.1, -0.181, -0.287, -0.126, 0.036, 0.096, 1
31694, -0.12, -0.081, -0.221, -0.178, -0.013, 0.089, 1
31714, -0.223, 0.211, -0.374, -0.291, 0.064, 0.073, 1
31734, -0.025, 0.247, -0.603, -0.183, 0.045, 0.002, 0
31754, -0.129, 0.035, -0.454, -0.152, 0.067, 0.026, 0
31774, -0.191, -0.006, -0.521, 0.065, -0.056, -0.009, 0
31794, -0.241, -0.175, -0.3, 0.159, -0.08, -0.001, 0
31814, -0.186, -0.158, -0.149, 0.013, 0.026, 0.006, 0
31834, -0.313, 0.089, -0.356, -0.126, 0.075, 0.028, 0
31854, -0.419, 0.369, -0.711, -0.015, 0.05, -0.061, 0
31874, -0.413, 0.474, -0.721, 0.025, 0.091, -0.127, 0
31894, -0.423, 0.429, -0.722, 0.03, 0.059, -0.188, 0
31914, -0.529, 0.355, -0.537, 0.052, 0.017, -0.249, 0
31934, -0.686, 0.466, -0.419, 0.092, 0.02, -0.279, 0
31954, -0.486, 0.23, 0.083, 0.152, 0.056, -0.446, 0
31974, -0.351, 0.236, 0.305, 0.01, 0.045, -0.462, 0
31994, -0.297, 0.282, 0.233, 0.033, 0.044, -0.556, 0
32014, 0.009, 0.101, 0.083, 0.102, 0.117, -0.604, 0
32034, 0.491, -0.074, 0.324, -0.017, 0.222, -0.705, 0
32054, 0.681, 0.391, -0.044, -0.117, 0.195, -0.69, 0
32074, 0.878, 0.078, 0.054, 0.006, 0.161, -0.705, 0
32094, 0.973, -0.007, 0.302, 0.047, 0.137, -0.729, 0
32114, 0.735, -0.074, 0.626, -0.006, 0.178, -0.722, 0
32134, 0.922, -0.055, 0.945, -0.12, 0.222, -0.741, 0
32154, 0.949, 0.084, 0.836, -0.245, 0.246, -0.77, 0
32174, 1.314, 0.128, 0.228, -0.174, 0.224, -0.769, 0
32194, 1.417, 0.058, -0.179, -0.09, 0.207, -0.792, 0
32214, 1.427, -0.492, 0.155, -0.205, 0.19, -0.737, 0
32234, 1.388, -0.378, 0.143, -0.281, 0.156, -0.598, 0
32254, 0.884, -0.393, -0.08, -0.193, 0.201, -0.591, 0
32274, 1.175, -0.305, 0.017, -0.153, 0.185, -0.606, 0
32294, 1.253, -0.741, 0.135, -0.213, 0.147, -0.565, 0
32314, 1.194, -0.763, -0.041, -0.217, 0.128, -0.416, 0
32334, 0.865, -1.043, 0.154, -0.265, 0.224, -0.395, 0
32354, 0.921, -1.108, 0.288, -0.363, 0.161, -0.44, 0
32374, 1.051, -0.802, -0.003, -0.407, 0.079, -0.404, 0
32394, 1.24, -0.701, -0.188, -0.366, 0.026, -0.259, 0
32414, 1.212, -0.921, -0.31, -0.304, 0.007, -0.169, 0
32434, 1.137, -1.278, -0.313, -0.318, -0.026, -0.058, 0
32454, 1.056, -0.899, -0.57, -0.288, -0.13, -0.022, 0
32474, 0.688, -0.87, -0.658, -0.28, -0.113, 0.062, 0
32494, 0.743, -1.075, -0.51, -0.288, -0.124, 0.152, 0
32514, 0.547, -1.167, -0.563, -0.199, -0.158, 0.276, 0
32534, 0.379, -1.065, -0.515, -0.131, -0.123, 0.381, 0
32554, 0.259, -0.812, -0.362, -0.209, -0.123, 0.451, 0
32574, -0.062, -0.554, -0.355, -0.241, -0.168, 0.458, 0
32594, -0.274, -0.614, -0.152, -0.226, -0.175, 0.497, 0
32614, -0.318, -0.999, -0.078, -0.263, -0.135, 0.544, 0
32634, -0.23, -0.993, -0.142, -0.281, -0.065, 0.682, 0
32654, -0.534, -0.518, -0.599, -0.237, -0.038, 0.727, 0
32674, -0.55, -0.362, -0.604, -0.158, -0.103, 0.652, 0
32694, -0.306, -0.325, -0.483, -0.221, -0.039, 0.698, 0
32714, -0.052, -0.131, -0.421, -0.257, -0.004, 0.742, 0
32734, -0.232, -0.409, -0.495, -0.228, -0.065, 0.8, 0
32754, -0.227, -0.572, -0.558, -0.163, -0.056, 0.824, 0
32774, 0.03, -0.387, -0.689, -0.157, -0.01, 0.86, 0
32794, 0.11, -0.154, -0.627, -0.163, -0.045, 0.916, 0
32814, -0.071, -0.078, -0.484, -0.126, -0.102, 0.964, 0
32834, -0.154, 0.029, -0.443, -0.059, -0.138, 0.951, 0
32854, -0.418, -0.057, -0.362, -0.045, -0.097, 0.975, 0
32874, -0.946, 0.237, -0.553, -0.127, -0.042, 1.005, 0
32894, -1.024, 0.309, -0.793, -0.1, -0.036, 0.919, 0
32914, -0.727, -0.122, -0.671, 0.042, -0.091, 0.826, 0
32934, -0.48, -0.65, -0.309, 0.037, -0.041, 0.816, 0
32954, -0.25, -0.095, -0.416, -0.102, 0.092, 0.888, 0
32974, -0.689, 0.903, -1.015, -0.087, 0.074, 0.912, 0
32994, -1.181, 0.855, -1.204, 0.117, -0.004, 0.799, 0
33014, -1.307, 0.196, -0.849, 0.179, -0.05, 0.708, 0
33034, -1.119, -0.191, -0.474, 0.095, -0.006, 0.665, 0
33054, -0.721, -0.073, -0.366, 0.052, -0.008, 0.608, 0
33074, -0.578, 0.157, -0.427, 0.117, -0.06, 0.571, 0
33094, -0.607, 0.034, -0.328, 0.223, -0.067, 0.544, 0
33114, -0.647, 0.242, -0.066, 0.21, -0.076, 0.478, 0
33134, -1.095, 0.547, -0.132, 0.095, -0.052, 0.362, 0
33154, -0.895, 0.601, -0.043, 0.065, -0.072, 0.252, 0
33174, -0.589, 0.45, 0.171, 0.087, -0.121, 0.216, 0
33194, -0.785, 0.633, 0.357, 0.1, -0.073, 0.196, 0
33214, -0.619, 0.515, 0.424, 0.077, -0.021, 0.156, 0
33234, -0.356, 0.123, 0.48, -0.058, 0.007, 0.036, 0
33254, -0.119, 0.477, 0.218, -0.067, -0.051, -0.042, 0
33274, -0.186, 0.387, -0.003, -0.001, -0.081, -0.045, 0
33294, -0.21, 0.342, 0.04, 0.008, -0.024, -0.046, 0
33314, -0.28, 0.443, 0.023, -0.055, 0.023, -0.129, 0
33334, -0.235, 0.527, -0.152, -0.084, 0.003, -0.24, 0
33354, 0.147, 0.403, -0.408, -0.071, -0.04, -0.317, 0
33374, 0.175, 0.18, -0.447, -0.021, -0.016, -0.371, 0
33394, 0.402, -0.072, -0.259, -0.033, -0.001, -0.389, 0
33414, 0.707, -0.128, -0.143, -0.053, -0.012, -0.39, 0
33434, 0.931, -0.094, -0.204, -0.062, -0.016, -0.383, 0
33454, 0.907, -0.16, -0.069, -0.045, -0.045, -0.37, 0
33474, 0.897, -0.261, 0.21, -0.088, -0.062, -0.383, 0
33494, 0.875, -0.273, 0.381, -0.127, -0.056, -0.381, 0
33514, 0.763, -0.243, 0.308, -0.114, 0.002, -0.347, 0
33534, 0.796, -0.423, 0.276, -0.144, 0.13, -0.319, 0
33554, 1.069, -0.469, 0.017, -0.157, 0.154, -0.335, 0
33574, 1.525, -0.6, -0.339, -0.136, 0.068, -0.318, 0
33594, 1.572, -0.701, -0.501, -0.146, 0.041, -0.225, 0
33614, 1.32, -0.725, -0.311, -0.169, 0.054, -0.097, 0
33634, 1.129, -0.786, -0.384, -0.141, 0.056, -0.04, 0
33654, 0.908, -0.853, -0.337, -0.113, 0.037, 0.004, 0
33674, 0.607, -0.708, -0.251, -0.109, 0.064, 0.059, 0
33694, 0.325, -0.545, -0.234, -0.142, 0.114, 0.087, 0
33714, 0.256, -0.37, -0.297, -0.165, 0.106, 0.122, 0
33734, -0.062, -0.221, -0.466, -0.101, 0.095, 0.192, 0
33754, -0.125, -0.057, -0.523, 0.095, 0.046, 0.19, 0
33774, -0.205, -0.235, -0.388, 0.272, -0.029, 0.213, 1
33794, -0.362, -0.679, 0.076, 0.188, 0.004, 0.193, 1
33814, -0.155, -0.563, 0.247, -0.182, 0.124, 0.173, 1
33834, -0.43, -0.135, -0.052, -0.296, 0.114, 0.183, 1
33854, -0.456, 0.112, -0.394, -0.195, 0.102, 0.126, 1
33874, -0.101, 0.002, -0.343, -0.001, -0.01, 0.032, 1
33894, -0.209, -0.328, -0.148, 0.035, -0.017, 0.084, 1
33914, -0.135, -0.407, 0.151, -0.108, 0.084, 0.113, 1
33934, -0.182, -0.03, -0.062, -0.216, 0.045, 0.11, 1
33954, -0.232, 0.039, -0.257, -0.167, 0.025, 0.073, 1
33974, 0.0, -0.121, -0.249, -0.051, 0.049, 0.035, 1
33994, 0.272, -0.336, -0.192, -0.041, 0.06, 0.04, 1
34014, 0.259, -0.345, -0.283, -0.098, 0.026, 0.063, 1
34034, 0.159, -0.269, -0.259, -0.174, 0.033, 0.095, 1
34054, 0.059, 0.063, -0.462, -0.175, 0.008, 0.114, 1
34074, -0.119, -0.007, -0.306, -0.056, -0.014, 0.118, 1
34094, -0.038, -0.013, -0.158, -0.062, 0.017, 0.109, 1
34114, -0.064, -0.036, -0.12, -0.102, -0.001, 0.097, 1
34134, -0.095, -0.018, -0.124, -0.13, 0.032, 0.094, 1
34154, -0.028, 0.014, -0.227, -0.084, 0.042, 0.089, 1
34174, 0.013, -0.048, -0.231, -0.08, 0.03, 0.08, 1
34194, -0.055, -0.029, -0.21, -0.102, 0.072, 0.094, 1
34214, -0.04, -0.072, -0.109, -0.142, 0.09, 0.08, 1
34234, 0.012, -0.006, -0.236, -0.123, 0.035, 0.065, 1
34254, 0.036, -0.008, -0.35, -0.066, 0.018, 0.063, 1
34274, 0.05, -0.064, -0.344, -0.051, 0.021, 0.076, 1
34294, -0.038, -0.175, -0.084, -0.113, 0.043, 0.092, 1
34314, -0.075, -0.062, -0.016, -0.133, 0.047, 0.095, 1
34334, -0.051, 0.009, -0.169, -0.109, 0.059, 0.103, 1
34354, -0.009, 0.002, -0.17, -0.075, 0.017, 0.086, 1
34374, -0.017, -0.005, -0.18, -0.067, -0.023, 0.091, 1
34394, -0.127, -0.103, 0.084, -0.126, 0.058, 0.097, 1
34414, -0.049, -0.031, 0.018, -0.179, 0.089, 0.078, 1
34434, 0.042, 0.109, -0.332, -0.132, 0.056, 0.054, 1
34454, 0.053, 0.081, -0.394, -0.059, 0.004, 0.072, 1
34474, -0.009, -0.015, -0.155, -0.046, 0.009, 0.086, 1
34494, -0.035, -0.136, -0.022, -0.092, 0.005, 0.08, 1
34514, -0.118, -0.17, -0.089, -0.169, 0.064, 0.089, 1
34534, 0.032, 0.004, -0.238, -0.131, 0.039, 0.087, 1
34554, 0.001, 0.022, -0.185, -0.071, -0.007, 0.097, 1
34574, -0.129, -0.054, -0.046, -0.031, 0.028, 0.12, 1
34594, -0.044, -0.174, 0.117, -0.049, 0.139, 0.125, 1
34614, -0.001, -0.108, 0.092, -0.142, 0.122, 0.114, 1
34634, -0.045, -0.018, -0.108, -0.144, -0.002, 0.064, 1
34654, -0.113, 0.014, -0.31, -0.15, -0.009, 0.067, 1
34674, -0.047, 0.047, -0.481, -0.072, 0.065, 0.086, 1
34694, 0.094, -0.172, -0.188, -0.027, 0.07, 0.088, 1
34714, 0.036, -0.195, -0.143, -0.111, 0.038, 0.08, 1
34734, -0.074, -0.069, -0.317, -0.119, 0.004, 0.083, 1
34754, -0.094, -0.026, -0.281, -0.141, 0.045, 0.076, 1
34774, -0.057, 0.012, -0.24, -0.178, 0.08, 0.055, 1
34794, -0.036, -0.007, -0.322, -0.208, 0.084, 0.056, 1
34814, -0.076, -0.077, -0.331, -0.183, 0.041, 0.011, 1
34834, -0.033, -0.004, -0.418, -0.16, 0.066, 0.04, 0
34854, 0.033, -0.127, -0.218, -0.214, 0.125, 0.043, 0
34874, -0.298, 0.221, -0.38, -0.302, 0.125, 0.051, 0
34894, -0.564, 0.672, -0.842, -0.1, 0.112, 0.028, 0
34914, -0.4, 0.335, -0.674, 0.352, 0.025, -0.026, 0
34934, -0.74, -0.216, -0.045, 0.386, 0.099, 0.027, 0
34954, -0.548, 0.097, -0.209, 0.188, 0.305, 0.129, 0
34974, -0.439, 0.264, -0.387, 0.183, 0.246, 0.058, 0
34994, -0.408, 0.287, -0.4, 0.195, 0.06, -0.153, 0
35014, -0.446, 0.263, -0.415, 0.127, -0.016, -0.232, 0
35034, -0.338, 0.311, -0.433, 0.117, -0.006, -0.257, 0
35054, -0.48, 0.281, -0.371, 0.087, 0.031, -0.426, 0
35074, -0.077, 0.097, -0.195, 0.03, 0.003, -0.461, 0
35094, -0.14, 0.111, -0.195, -0.005, 0.042, -0.481, 0
35114, -0.06, 0.164, -0.299, -0.007, 0.199, -0.5, 0
35134, 0.123, 0.169, -0.026, -0.093, 0.237, -0.592, 0
35154, 0.156, 0.45, -0.062, -0.007, 0.086, -0.687, 0
35174, -0.146, 0.231, 0.055, 0.054, 0.163, -0.76, 0
35194, 0.221, 0.109, 0.449, -0.001, 0.246, -0.794, 0
35214, 0.561, 0.258, 0.653, -0.08, 0.176, -0.838, 0
35234, 0.25, 0.186, 0.86, -0.093, 0.186, -0.953, 0
35254, 0.656, 0.001, 1.035, -0.139, 0.181, -1.025, 0
35274, 0.853, 0.098, 0.97, -0.23, 0.251, -1.014, 0
35294, 0.869, 0.242, 0.842, -0.286, 0.354, -1.007, 0
35314, 1.326, -0.181, 0.631, -0.257, 0.318, -1.025, 0
35334, 1.648, -0.686, 0.501, -0.274, 0.277, -0.995, 0
35354, 1.762, -1.082, 0.314, -0.271, 0.301, -0.921, 0
35374, 2.032, -1.222, -0.015, -0.362, 0.284, -0.781, 0
35394, 1.788, -1.053, -0.513, -0.393, 0.249, -0.723, 0
35414, 2.031, -0.874, -0.914, -0.358, 0.086, -0.664, 0
35434, 2.067, -1.046, -0.947, -0.267, -0.069, -0.549, 0
35454, 1.982, -1.456, -0.584, -0.226, -0.18, -0.487, 0
35474, 1.877, -1.602, -0.126, -0.343, -0.201, -0.368, 0
35494, 1.698, -1.108, -0.368, -0.353, -0.124, -0.237, 0
35514, 1.871, -1.106, -0.459, -0.249, -0.16, -0.067, 0
35534, 1.617, -1.73, -0.427, -0.224, -0.227, 0.008, 0
35554, 1.539, -1.626, -0.385, -0.222, -0.221, 0.199, 0
35574, 0.949, -1.255, -0.175, -0.233, -0.204, 0.303, 0
35594, 0.67, -1.48, -0.309, -0.273, -0.221, 0.385, 0
35614, 0.796, -1.505, -0.667, -0.249, -0.215, 0.467, 0
35634, 0.921, -1.573, -0.563, -0.213, -0.2, 0.577, 0
35654, 0.867, -1.595, -0.314, -0.238, -0.157, 0.728, 0
35674, 0.666, -1.51, -0.349, -0.265, -0.15, 0.817, 0
35694, 0.302, -1.761, -0.324, -0.26, -0.141, 0.921, 0
35714, -0.003, -1.673, -0.302, -0.344, -0.082, 1.009, 0
35734, -0.326, -0.863, -0.642, -0.335, -0.064, 1.005, 0
35754, -0.446, -0.492, -0.795, -0.26, -0.041, 1.039, 0
35774, -0.419, -0.527, -0.759, -0.197, -0.02, 1.075, 0
35794, -0.565, -0.718, -0.831, -0.193, -0.032, 1.101, 0
35814, -0.932, -0.491, -0.892, -0.098, -0.131, 1.041, 0
35834, -0.991, -0.68, -0.718, -0.097, -0.019, 1.064, 0
35854, -0.524, -0.636, -0.81, -0.182, 0.064, 1.058, 0
35874, -0.461, -0.552, -1.067, -0.132, 0.022, 1.045, 0
35894, -0.518, -0.569, -0.792, -0.029, -0.034, 1.01, 0
35914, -0.545, -0.583, -0.586, -0.055, -0.023, 1.035, 0
35934, -0.719, -0.346, -0.551, -0.072, -0.025, 1.009, 0
35954, -1.094, 0.486, -0.926, -0.006, -0.099, 0.951, 0
35974, -1.433, 0.12, -0.715, 0.123, -0.155, 0.899, 0
35994, -1.155, -0.135, -0.318, 0.07, -0.098, 0.86, 0
36014, -1.186, -0.079, -0.179, 0.003, -0.118, 0.822, 0
36034, -1.491, 0.51, -0.476, 0.074, -0.07, 0.739, 0
36054, -1.633, 0.815, -0.575, 0.167, -0.053, 0.623, 0
36074, -1.942, 0.746, -0.369, 0.185, -0.079, 0.491, 0
36094, -1.991, 0.478, -0.165, 0.082, -0.022, 0.387, 0
36114, -1.429, 0.231, -0.15, 0.012, 0.028, 0.338, 0
36134, -0.832, 0.245, -0.175, 0.032, 0.003, 0.262, 0
36154, -0.959, 0.861, -0.261, 0.102, -0.036, 0.2, 0
36174, -1.342, 0.954, -0.121, 0.104, 0.004, 0.111, 0
36194, -1.056, 0.522, 0.135, 0.029, 0.039, 0.029, 0
36214, -0.725, 0.192, 0.361, -0.014, 0.005, -0.099, 0
36234, -0.415, 0.321, 0.487, 0.016, 0.031, -0.094, 0
36254, -0.144, -0.013, 0.535, -0.037, 0.128, -0.112, 0
36274, 0.119, 0.242, 0.17, -0.097, 0.072, -0.127, 0
36294, 0.0, 0.377, 0.046, -0.08, 0.029, -0.183, 0
36314, -0.039, 0.474, 0.137, -0.036, 0.0, -0.296, 0
36334, 0.281, 0.29, 0.068, -0.072, 0.018, -0.334, 0
36354, 0.828, -0.021, -0.112, -0.032, 0.029, -0.326, 0
36374, 1.001, -0.42, -0.005, -0.048, 0.012, -0.295, 0
36394, 0.786, -0.316, 0.107, -0.114, 0.03, -0.279, 0
36414, 0.665, -0.269, 0.102, -0.106, 0.008, -0.317, 0
36434, 0.775, -0.291, -0.098, -0.112, 0.078, -0.293, 0
36454, 1.425, -0.43, -0.282, -0.135, 0.1, -0.22, 0
36474, 1.451, -0.633, -0.21, -0.149, 0.087, -0.165, 0
36494, 1.483, -0.642, -0.138, -0.103, 0.042, -0.108, 0
36514, 1.133, -0.505, -0.396, -0.03, 0.046, -0.114, 0
36534, 1.074, -0.804, -0.261, -0.062, 0.043, -0.041, 0
36554, 0.611, -0.614, -0.165, -0.061, 0.031, 0.018, 0
36574, 0.263, -0.482, -0.183, -0.014, 0.029, 0.066, 0
36594, 0.173, -0.361, -0.355, 0.066, 0.002, 0.084, 1
36614, 0.18, -0.435, -0.378, 0.158, -0.072, 0.111, 1
36634, -0.067, -0.8, 0.058, 0.098, -0.025, 0.16, 1
36654, -0.215, -0.446, -0.002, -0.094, 0.045, 0.173, 1
36674, -0.289, -0.186, -0.244, -0.099, 0.06, 0.18, 1
36694, -0.262, -0.243, -0.063, -0.098, 0.073, 0.123, 1
36714, -0.18, -0.246, 0.009, -0.154, 0.007, 0.084, 1
36734, -0.275, -0.346, -0.133, -0.108, -0.034, 0.086, 1
36754, -0.182, -0.248, -0.245, -0.067, 0.016, 0.136, 1
36774, -0.135, -0.171, -0.239, -0.061, 0.042, 0.125, 1
36794, -0.002, -0.045, -0.352, -0.099, -0.007, 0.108, 1
36814, -0.164, -0.113, -0.302, -0.114, -0.045, 0.122, 1
36834, -0.104, 0.142, -0.459, -0.109, -0.026, 0.123, 1
36854, 0.264, -0.012, -0.556, -0.074, -0.017, 0.124, 1
36874, 0.342, -0.151, -0.406, -0.093, -0.144, 0.114, 1
36894, 0.111, -0.074, -0.109, -0.12, -0.231, 0.127, 1
36914, -0.114, -0.089, 0.144, -0.089, -0.219, 0.105, 1
36934, -0.122, -0.266, 0.235, -0.106, -0.114, 0.123, 1
36954, -0.14, -0.335, 0.258, -0.133, -0.001, 0.144, 1
36974, -0.082, -0.15, 0.132, -0.181, 0.08, 0.152, 1
36994, 0.061, -0.027, -0.123, -0.156, 0.082, 0.117, 1
37014, -0.021, -0.007, -0.182, -0.113, 0.049, 0.138, 1
37034, -0.038, -0.114, -0.131, -0.209, 0.075, 0.159, 1
37054, -0.017, 0.007, -0.192, -0.242, 0.034, 0.164, 1
37074, -0.144, 0.102, -0.37, -0.188, -0.011, 0.124, 1
37094, -0.148, 0.24, -0.607, -0.038, -0.054, 0.09, 1
37114, -0.172, -0.05, -0.515, -0.008, 0.0, 0.094, 1
37134, -0.031, -0.237, -0.137, -0.158, 0.041, 0.105, 1
37154, -0.048, -0.074, -0.147, -0.208, 0.025, 0.105, 1
37174, -0.089, 0.011, -0.193, -0.109, 0.026, 0.084, 1
37194, -0.072, 0.0, -0.146, -0.016, 0.01, 0.05, 1
37214, -0.018, -0.16, 0.065, -0.103, 0.042, 0.048, 1
37234, 0.036, -0.06, -0.058, -0.15, 0.068, 0.062, 1
37254, 0.153, -0.125, -0.19, -0.132, 0.047, 0.064, 1
37274, 0.048, -0.043, -0.351, -0.064, 0.009, 0.048, 1
37294, -0.083, -0.034, -0.339, -0.076, 0.043, 0.054, 1
37314, -0.077, -0.003, -0.178, -0.129, 0.102, 0.076, 1
37334, -0.003, -0.09, -0.106, -0.208, 0.104, 0.069, 1
37354, 0.039, 0.011, -0.229, -0.205, 0.037, 0.045, 1
37374, -0.022, 0.046, -0.414, -0.112, 0.021, 0.051, 1
37394, 0.064, 0.018, -0.372, -0.059, 0.029, 0.054, 1
37414, 0.104, -0.117, -0.151, -0.095, 0.0, 0.047, 1
37434, -0.041, -0.058, -0.051, -0.116, 0.014, 0.068, 1
37454, -0.04, 0.084, -0.169, -0.038, 0.043, 0.084, 1
37474, -0.012, -0.26, -0.025, -0.12, 0.086, 0.095, 1
37494, 0.06, -0.091, 0.063, -0.201, 0.008, 0.089, 1
37514, -0.182, 0.023, -0.138, -0.105, 0.0, 0.09, 1
37534, 0.068, -0.124, -0.112, -0.048, 0.028, 0.092, 1
37554, 0.016, -0.081, -0.087, -0.103, 0.034, 0.119, 1
37574, -0.016, -0.018, 0.008, -0.22, 0.06, 0.123, 1
37594, -0.315, 0.135, -0.277, -0.203, 0.015, 0.12, 1
37614, -0.263, -0.023, -0.24, -0.069, 0.004, 0.091, 1
37634, -0.091, 0.003, -0.277, 0.003, 0.006, 0.082, 1
37654, -0.017, -0.238, -0.051, 0.004, 0.024, 0.083, 1
37674, -0.027, -0.225, 0.1, -0.181, 0.065, 0.094, 1
37694, -0.091, 0.027, -0.188, -0.247, 0.05, 0.081, 1
37714, 0.023, -0.015, -0.37, -0.103, 0.068, 0.101, 1
37734, -0.014, 0.207, -0.546, 0.012, 0.031, 0.158, 1
37754, -0.305, -0.273, -0.262, 0.118, -0.031, 0.144, 1
37774, -0.34, -0.489, -0.015, -0.218, 0.092, 0.118, 0
37794, -0.378, 0.063, -0.607, -0.324, 0.073, 0.08, 0
37814, -0.406, 0.013, -0.632, -0.152, 0.034, -0.005, 0
37834, -0.219, 0.234, -0.714, -0.103, 0.127, -0.037, 0
37854, -0.174, 0.118, -0.755, 0.014, 0.123, -0.015, 0
37874, -0.144, 0.122, -0.769, 0.207, 0.017, -0.043, 0
37894, -0.325, -0.253, -0.356, 0.192, 0.031, -0.036, 0
37914, -0.297, 0.127, -0.537, 0.059, 0.098, -0.058, 0
37934, -0.259, 0.22, -0.361, 0.009, 0.081, -0.127, 0
37954, -0.469, 0.385, -0.44, 0.017, 0.012, -0.186, 0
37974, -0.423, 0.293, -0.272, 0.075, 0.083, -0.204, 0
37994, -0.254, 0.104, 0.013, 0.025, 0.133, -0.243, 0
38014, -0.439, 0.258, 0.257, -0.026, 0.127, -0.356, 0
38034, -0.621, 0.579, 0.372, 0.005, 0.082, -0.501, 0
38054, -0.593, 0.648, 0.282, -0.014, 0.156, -0.585, 0
38074, -0.257, 0.584, 0.328, -0.093, 0.248, -0.686, 0
38094, -0.02, 0.541, 0.394, -0.113, 0.244, -0.768, 0
38114, 0.184, 0.174, 0.36, -0.092, 0.238, -0.855, 0
38134, 0.333, -0.309, 0.334, -0.209, 0.39, -0.86, 0
38154, 0.876, -0.296, 0.25, -0.309, 0.381, -0.944, 0
38174, 1.289, -0.269, 0.09, -0.397, 0.236, -0.967, 0
38194, 1.258, -0.041, -0.122, -0.408, 0.24, -0.927, 0
38214, 1.485, 0.048, -0.096, -0.275, 0.274, -0.872, 0
38234, 1.577, -0.108, -0.037, -0.169, 0.26, -0.83, 0
38254, 1.608, -0.447, 0.512, -0.187, 0.216, -0.808, 0
38274, 1.355, -0.4, 0.66, -0.343, 0.207, -0.747, 0
38294, 1.047, -0.488, 0.512, -0.43, 0.248, -0.738, 0
38314, 1.194, -0.573, 0.363, -0.427, 0.19, -0.745, 0
38334, 1.296, -0.596, 0.285, -0.356, 0.109, -0.687, 0
38354, 1.024, -0.58, 0.15, -0.336, 0.167, -0.608, 0
38374, 0.928, -0.676, 0.04, -0.442, 0.229, -0.532, 0
38394, 1.439, -0.442, -0.689, -0.392, 0.087, -0.497, 0
38414, 1.502, -0.453, -1.222, -0.221, -0.082, -0.42, 0
38434, 1.381, -0.768, -1.088, -0.084, -0.144, -0.263, 0
38454, 1.233, -1.198, -0.73, -0.18, -0.144, -0.107, 0
38474, 1.025, -1.269, -0.612, -0.282, -0.084, 0.021, 0
38494, 1.004, -0.784, -0.582, -0.246, -0.205, 0.047, 0
38514, 0.322, -0.644, -0.321, -0.05, -0.347, 0.114, 0
38534, 0.392, -1.103, 0.283, -0.005, -0.192, 0.196, 0
38554, 0.751, -1.208, 0.395, -0.216, -0.121, 0.258, 0
38574, 0.838, -1.061, -0.109, -0.367, -0.081, 0.354, 0
38594, 0.949, -0.735, -0.407, -0.306, -0.112, 0.394, 0
38614, 0.583, -0.801, -0.303, -0.186, -0.167, 0.483, 0
38634, 0.46, -1.053, -0.229, -0.219, -0.114, 0.602, 0
38654, 0.331, -1.017, -0.35, -0.228, -0.109, 0.696, 0
38674, 0.339, -1.134, -0.434, -0.274, -0.124, 0.81, 0
38694, 0.049, -0.637, -0.801, -0.303, -0.197, 0.85, 0
38714, 0.27, -0.783, -0.813, -0.22, -0.2, 0.857, 0
38734, -1.004, -0.11, -1.387, -0.194, -0.32, 0.935, 0
38754, -0.704, 0.087, -1.188, -0.109, -0.141, 0.99, 0
38774, -1.308, 0.104, -1.119, -0.136, -0.186, 1.052, 0
38794, -1.214, -0.1, -0.889, -0.059, -0.191, 0.963, 0
38814, -0.929, -0.615, -0.68, 0.01, -0.216, 0.89, 0
38834, -0.611, -0.85, -0.637, 0.006, -0.132, 0.896, 0
38854, -0.76, -0.42, -0.853, -0.011, -0.058, 0.973, 0
38874, -1.181, -0.041, -0.963, 0.094, -0.038, 0.956, 0
38894, -1.478, -0.139, -0.768, 0.167, -0.002, 0.893, 0
38914, -1.161, -0.45, -0.64, 0.13, 0.047, 0.825, 0
38934, -1.027, -0.431, -0.61, 0.109, -0.006, 0.748, 0
38954, -0.896, -0.187, -0.739, 0.157, 0.035, 0.735, 0
38974, -0.492, -0.438, -0.519, 0.187, -0.051, 0.682, 0
38994, -0.297, -0.606, -0.133, 0.15, -0.121, 0.66, 0
39014, -0.57, 0.236, -0.193, 0.137, -0.08, 0.7, 0
39034, -1.449, 1.289, -0.558, 0.227, -0.004, 0.642, 0
39054, -1.653, 1.022, -0.382, 0.248, -0.039, 0.489, 0
39074, -1.377, 0.629, -0.06, 0.262, -0.191, 0.342, 0
39094, -1.29, 0.179, 0.389, 0.227, -0.245, 0.287, 0
39114, -0.802, -0.18, 0.643, 0.176, -0.182, 0.287, 0
39134, -0.551, -0.331, 0.898, 0.119, -0.092, 0.297, 0
39154, -1.007, 0.603, 0.665, 0.098, 0.023, 0.236, 0
39174, -0.847, 1.024, 0.156, 0.148, -0.025, 0.069, 0
39194, -0.607, 0.589, 0.252, 0.061, -0.095, 0.029, 0
39214, -0.453, 0.422, 0.462, -0.016, -0.11, 0.031, 0
39234, -0.544, 0.32, 0.496, -0.047, -0.009, -0.01, 0
39254, -0.17, 0.43, 0.403, -0.026, 0.0, -0.083, 0
39274, -0.161, 0.427, 0.394, -0.158, 0.01, -0.13, 0
39294, -0.055, 0.493, 0.296, -0.191, 0.035, -0.149, 0
39314, 0.104, 0.283, 0.039, -0.127, 0.121, -0.191, 0
39334, 0.742, -0.128, -0.004, -0.174, 0.103, -0.23, 0
39354, 1.081, 0.026, -0.142, -0.22, 0.02, -0.224, 0
39374, 0.944, 0.281, -0.362, -0.171, -0.052, -0.197, 0
39394, 0.634, 0.224, -0.327, -0.154, -0.009, -0.214, 0
39414, 0.83, 0.01, -0.316, -0.166, 0.053, -0.21, 0
39434, 1.209, -0.245, -0.137, -0.144, 0.012, -0.177, 0
39454, 1.255, -0.575, -0.191, -0.156, 0.031, -0.139, 0
39474, 1.057, -0.633, -0.371, -0.16, 0.042, -0.09, 0
39494, 0.937, -0.619, -0.414, -0.154, 0.043, -0.032, 0
39514, 0.661, -0.511, -0.535, -0.147, 0.047, 0.047, 0
39534, 0.479, -0.447, -0.398, -0.094, 0.046, 0.036, 0
39554, 0.238, -0.436, -0.25, -0.072, 0.032, 0.053, 0
39574, 0.212, -0.381, -0.142, -0.092, 0.075, 0.064, 0
39594, 0.218, -0.301, -0.211, -0.089, 0.072, 0.128, 0
39614, 0.224, -0.194, -0.279, 0.026, -0.017, 0.156, 0
39634, -0.373, -0.533, -0.079, 0.102, -0.07, 0.209, 1
39654, -0.412, -0.379, 0.171, -0.058, 0.023, 0.174, 1
39674, -0.61, -0.381, 0.022, -0.2, 0.023, 0.178, 1
39694, -0.778, -0.216, -0.217, -0.207, 0.064, 0.157, 1
39714, -0.286, 0.009, -0.515, -0.125, 0.105, 0.081, 1
39734, -0.026, -0.186, -0.552, -0.009, 0.054, 0.065, 1
39754, -0.061, -0.495, -0.218, -0.051, 0.011, 0.051, 1
39774, -0.054, -0.171, -0.263, -0.194, 0.059, 0.083, 1
39794, -0.11, -0.075, -0.311, -0.153, 0.051, 0.119, 1
39814, -0.14, 0.005, -0.225, -0.039, -0.001, 0.069, 1
39834, -0.054, -0.086, -0.177, 0.025, -0.025, 0.075, 1
39854, -0.018, -0.239, 0.017, -0.034, 0.023, 0.09, 1
39874, -0.045, -0.123, 0.186, -0.171, 0.103, 0.084, 1
39894, -0.087, 0.02, -0.113, -0.257, 0.099, 0.089, 1
39914, -0.037, 0.113, -0.508, -0.1, 0.012, 0.028, 1
39934, -0.015, 0.07, -0.554, -0.024, 0.036, 0.051, 1
39954, 0.032, -0.111, -0.153, -0.081, 0.053, 0.089, 1
39974, -0.102, -0.102, -0.132, -0.156, 0.089, 0.113, 1
39994, 0.058, -0.052, -0.286, -0.172, 0.053, 0.083, 1
40014, 0.11, 0.051, -0.434, -0.095, -0.025, 0.045, 1
40034, 0.012, 0.009, -0.224, -0.023, -0.055, 0.025, 1
40054, 0.04, -0.129, 0.077, -0.061, -0.01, 0.047, 1
40074, 0.051, -0.121, 0.131, -0.113, 0.042, 0.094, 1
40094, -0.007, -0.118, 0.271, -0.145, 0.017, 0.108, 1
40114, -0.068, -0.09, 0.152, -0.153, -0.02, 0.105, 1
40134, -0.181, 0.002, -0.059, -0.092, -0.011, 0.105, 1
40154, -0.192, -0.168, 0.116, -0.169, 0.056, 0.105, 1
40174, -0.097, -0.048, -0.008, -0.21, 0.075, 0.119, 1
40194, -0.057, -0.039, -0.34, -0.2, 0.088, 0.111, 1
40214, 0.085, 0.179, -0.671, -0.089, 0.02, 0.083, 1
40234, -0.019, 0.158, -0.642, -0.028, -0.014, 0.078, 1
40254, -0.139, -0.04, -0.221, -0.101, 0.019, 0.099, 1
40274, -0.261, -0.005, -0.102, -0.15, 0.047, 0.099, 1
40294, -0.204, 0.016, -0.276, -0.128, 0.073, 0.072, 1
40314, -0.04, 0.037, -0.43, -0.054, 0.041, 0.041, 1
40334, 0.022, -0.047, -0.351, -0.018, 0.017, 0.047, 1
40354, 0.029, -0.073, -0.195, -0.053, 0.044, 0.061, 1
40374, -0.042, -0.08, -0.083, -0.119, 0.083, 0.08, 1
40394, -0.021, 0.017, -0.188, -0.113, 0.083, 0.062, 1
40414, 0.023, -0.038, -0.229, -0.041, 0.009, 0.031, 1
40434, -0.027, -0.052, -0.164, -0.054, 0.017, 0.046, 1
40454, -0.024, -0.079, -0.089, -0.08, 0.053, 0.072, 1
40474, -0.001, -0.007, -0.11, -0.117, 0.068, 0.09, 1
40494, -0.018, 0.003, -0.135, -0.087, 0.021, 0.076, 1
40514, -0.116, 0.036, -0.083, -0.057, -0.011, 0.064, 1
40534, -0.243, -0.035, 0.077, -0.077, 0.026, 0.062, 1
40554, -0.049, -0.055, 0.036, -0.136, 0.068, 0.056, 1
40574, 0.003, -0.049, -0.136, -0.167, 0.066, 0.043, 1
40594, 0.02, 0.044, -0.392, -0.087, 0.025, 0.017, 1
40614, -0.009, -0.161, -0.244, -0.006, 0.031, 0.036, 1
40634, 0.081, -0.089, -0.093, -0.161, 0.098, 0.043, 1
40654, -0.027, 0.018, -0.309, -0.173, 0.022, 0.037, 1
40674, -0.045, -0.135, -0.264, -0.119, 0.009, 0.054, 1
40694, 0.029, -0.034, -0.116, -0.155, 0.026, 0.037, 1
40714, -0.114, -0.222, 0.236, -0.287, 0.128, 0.085, 1
40734, -0.12, -0.088, 0.141, -0.436, 0.194, 0.136, 1
40754, -0.056, 0.096, -0.321, -0.34, 0.111, 0.125, 1
40774, -0.232, 0.102, -0.42, -0.12, 0.01, 0.064, 0
40794, -0.053, -0.207, -0.357, 0.062, 0.014, 0.076, 0
40814, -0.148, -0.598, 0.202, -0.064, 0.11, 0.108, 0
40834, -0.358, 0.219, -0.21, -0.334, 0.117, 0.108, 0
40854, -0.542, 0.509, -0.659, -0.163, 0.026, 0.083, 0
40874, -0.42, 0.42, -0.769, 0.254, -0.035, 0.018, 0
40894, -0.461, -0.133, -0.495, 0.182, 0.0, -0.019, 0
40914, -0.63, 0.012, -0.392, -0.087, 0.122, -0.065, 0
40934, -0.653, 0.378, -0.698, -0.037, 0.059, -0.155, 0
40954, -0.806, 0.613, -0.807, 0.039, 0.008, -0.246, 0
40974, -0.888, 0.54, -0.728, 0.025, 0.127, -0.306, 0
40994, -0.679, 0.838, -0.73, 0.032, 0.111, -0.38, 0
41014, -0.527, 0.899, -0.897, 0.149, 0.021, -0.489, 0
41034, -0.377, 0.642, -0.651, 0.211, -0.031, -0.595, 0
41054, -0.092, 0.529, -0.123, 0.148, -0.011, -0.626, 0
41074, -0.124, 0.67, 0.22, 0.186, 0.017, -0.631, 0
41094, -0.188, 0.738, 0.615, 0.226, 0.045, -0.784, 0
41114, -0.093, 0.46, 1.105, 0.179, 0.009, -1.04, 0
41134, 0.148, -0.263, 1.573, -0.168, 0.064, -1.136, 0
41154, 0.907, -0.566, 0.974, -0.442, 0.059, -1.162, 0
41174, 1.421, -0.022, -0.565, -0.297, 0.065, -1.099, 0
41194, 1.533, -0.047, -1.319, 0.027, 0.342, -0.947, 0
41214, 1.873, -0.395, -0.824, 0.072, 0.42, -0.852, 0
41234, 1.444, -0.459, -0.436, -0.041, 0.23, -0.816, 0
41254, 1.042, -0.428, -0.179, -0.12, 0.2, -0.842, 0
41274, 1.145, -0.717, 0.166, -0.092, 0.188, -0.785, 0
41294, 1.283, -1.065, 0.503, -0.072, 0.186, -0.804, 0
41314, 1.346, -1.019, 0.806, -0.183, 0.238, -0.763, 0
41334, 1.512, -0.826, 0.68, -0.314, 0.263, -0.684, 0
41354, 1.757, -0.747, 0.364, -0.31, 0.185, -0.552, 0
41374, 1.828, -0.963, 0.54, -0.284, 0.066, -0.498, 0
41394, 1.966, -1.332, 0.411, -0.305, -0.01, -0.412, 0
41414, 1.557, -1.125, 0.205, -0.269, 0.043, -0.209, 0
41434, 1.606, -1.248, 0.353, -0.254, 0.145, -0.124, 0
41454, 1.355, -0.767, 0.034, -0.335, -0.01, -0.069, 0
41474, 0.942, -0.528, -0.48, -0.331, -0.048, 0.055, 0
41494, 0.603, -0.888, -0.519, -0.315, -0.035, 0.211, 0
41514, 0.448, -0.726, -0.697, -0.367, -0.006, 0.251, 0
41534, 0.72, -0.64, -0.649, -0.29, -0.073, 0.262, 0
41554, 0.664, -0.763, -0.636, -0.245, -0.125, 0.338, 0
41574, 0.762, -1.328, -0.408, -0.279, -0.138, 0.442, 0
41594, 0.638, -1.319, -0.377, -0.324, -0.194, 0.521, 0
41614, 0.439, -1.306, 0.0, -0.273, -0.235, 0.619, 0
41634, -0.041, -0.905, 0.169, -0.307, -0.126, 0.744, 0
41654, -0.155, -0.762, 0.035, -0.32, -0.047, 0.79, 0
41674, -0.131, -0.749, -0.207, -0.331, -0.06, 0.797, 0
41694, -0.181, -0.81, -0.304, -0.362, -0.022, 0.824, 0
41714, -0.432, -0.482, -0.65, -0.402, 0.004, 0.893, 0
41734, -0.79, -0.377, -0.75, -0.294, 0.081, 0.954, 0
41754, -0.544, -0.579, -0.689, -0.262, 0.151, 0.972, 0
41774, -0.127, -0.552, -0.567, -0.256, 0.028, 0.857, 0
41794, -0.143, -0.342, -0.611, -0.256, -0.097, 0.863, 0
41814, -0.279, -0.325, -0.508, -0.193, -0.062, 0.945, 0
41834, -0.525, -0.482, -0.406, -0.206, 0.083, 1.064, 0
41854, -0.952, 0.2, -0.971, -0.168, 0.102, 0.969, 0
41874, -1.146, 0.501, -1.096, -0.125, 0.103, 0.918, 0
41894, -1.026, 0.413, -1.013, -0.07, 0.065, 0.874, 0
41914, -0.828, -0.088, -0.697, -0.067, 0.007, 0.878, 0
41934, -0.746, -0.185, -0.605, -0.048, 0.045, 0.839, 0
41954, -1.128, 0.556, -0.738, -0.028, 0.163, 0.847, 0
41974, -1.525, 0.696, -0.832, -0.006, 0.255, 0.748, 0
41994, -0.968, 0.539, -0.602, 0.006, 0.098, 0.684, 0
42014, -1.132, 0.177, -0.369, -0.009, 0.113, 0.623, 0
42034, -0.853, 0.099, -0.27, 0.021, 0.17, 0.554, 0
42054, -0.724, 0.475, -0.55, 0.053, 0.199, 0.51, 0
42074, -0.785, 0.557, -0.654, 0.058, 0.136, 0.381, 0
42094, -0.799, 0.855, -0.817, 0.123, -0.028, 0.249, 0
42114, -1.051, 0.376, -0.698, 0.137, -0.05, 0.125, 0
42134, -0.727, -0.017, -0.516, 0.116, -0.017, 0.026, 0
42154, -0.165, -0.062, -0.334, 0.164, 0.023, 0.05, 0
42174, 0.327, -0.665, 0.126, 0.138, 0.051, 0.061, 0
42194, 0.434, -0.105, 0.194, 0.124, -0.04, 0.095, 0
42214, -0.272, 0.579, 0.007, 0.103, 0.006, 0.081, 0
42234, -0.345, 0.534, 0.212, 0.053, 0.025, 0.035, 0
42254, -0.297, 0.132, 0.591, -0.05, 0.017, -0.014, 0
42274, -0.164, 0.316, 0.457, -0.011, -0.034, -0.15, 0
42294, 0.08, 0.428, 0.395, 0.056, -0.015, -0.144, 0
42314, 0.035, 0.385, 0.3, 0.015, -0.007, -0.162, 0
42334, -0.002, 0.197, 0.424, -0.128, 0.017, -0.216, 0
42354, 0.488, -0.113, -0.045, -0.122, -0.024, -0.268, 0
42374, 0.989, -0.424, -0.087, -0.047, 0.045, -0.272, 0
42394, 1.439, -0.578, 0.035, -0.082, 0.083, -0.221, 0
42414, 1.508, -0.37, -0.161, -0.137, -0.003, -0.161, 0
42434, 1.238, -0.41, -0.141, -0.132, -0.028, -0.106, 0
42454, 1.338, -0.546, -0.062, -0.138, -0.015, -0.068, 0
42474, 1.28, -0.644, -0.021, -0.12, -0.056, -0.031, 0
42494, 1.051, -0.725, 0.077, -0.175, 0.013, 0.051, 0
42514, 0.766, -0.361, -0.261, -0.26, 0.12, 0.119, 0
42534, 0.372, -0.028, -0.428, -0.237, 0.095, 0.138, 0
42554, 0.08, 0.007, -0.564, -0.163, 0.086, 0.153, 0
42574, 0.155, -0.178, -0.329, -0.053, 0.042, 0.11, 0
42594, -0.041, -0.338, -0.305, -0.033, -0.021, 0.133, 0
42614, -0.02, -0.313, -0.213, -0.042, 0.029, 0.147, 0
42634, 0.054, -0.354, -0.097, -0.127, 0.058, 0.184, 1
42654, -0.187, -0.178, -0.218, -0.16, 0.014, 0.163, 1
42674, -0.271, -0.148, -0.18, -0.048, -0.028, 0.122, 1
42694, -0.534, 0.229, -0.273, -0.052, -0.01, 0.141, 1
42714, -0.055, 0.012, -0.458, -0.001, 0.02, 0.15, 1
42734, -0.026, -0.174, -0.337, -0.01, -0.026, 0.155, 1
42754, -0.19, -0.17, -0.239, -0.037, -0.069, 0.1, 1
42774, -0.15, -0.068, -0.108, -0.08, -0.044, 0.089, 1
42794, -0.125, -0.039, -0.143, -0.036, -0.067, 0.07, 1
42814, -0.078, -0.118, -0.043, 0.018, -0.062, 0.084, 1
42834, -0.052, -0.249, 0.122, -0.063, -0.01, 0.076, 1
42854, 0.019, -0.138, 0.02, -0.144, 0.008, 0.05, 1
42874, 0.025, 0.013, -0.221, -0.139, -0.012, 0.047, 1
42894, 0.0, -0.013, -0.304, -0.099, 0.009, 0.074, 1
42914, -0.07, -0.002, -0.3, -0.069, 0.085, 0.103, 1
42934, 0.123, 0.004, -0.252, -0.072, 0.039, 0.115, 1
42954, -0.034, -0.057, -0.208, -0.132, 0.019, 0.079, 1
42974, -0.011, 0.002, -0.213, -0.158, -0.009, 0.061, 1
42994, 0.002, 0.009, -0.19, -0.13, -0.024, 0.059, 1
43014, 0.011, 0.031, -0.171, -0.072, -0.019, 0.047, 1
43034, 0.023, -0.047, -0.027, -0.041, -0.026, 0.047, 1
43054, -0.107, -0.151, 0.017, -0.1, 0.026, 0.049, 1
43074, 0.122, -0.15, -0.039, -0.189, 0.01, 0.065, 1
43094, 0.063, 0.018, -0.274, -0.189, -0.021, 0.087, 1
43114, 0.049, 0.027, -0.261, -0.133, -0.122, 0.086, 1
43134, -0.37, 0.08, -0.359, -0.007, -0.035, 0.095, 1
43154, -0.12, -0.387, 0.238, -0.086, 0.026, 0.095, 1
43174, -0.035, -0.242, 0.193, -0.202, 0.009, 0.097, 1
43194, -0.043, -0.077, 0.005, -0.236, 0.051, 0.117, 1
43214, -0.03, 0.104, -0.363, -0.15, 0.008, 0.075, 1
43234, -0.056, 0.077, -0.521, -0.062, 0.007, 0.086, 1
43254, -0.045, -0.015, -0.366, -0.048, 0.077, 0.097, 1
43274, 0.058, -0.147, -0.135, -0.13, 0.051, 0.094, 1
43294, -0.002, -0.056, -0.16, -0.152, 0.023, 0.097, 1
43314, -0.003, 0.012, -0.191, -0.089, -0.018, 0.087, 1
43334, -0.153, 0.08, -0.296, -0.089, 0.006, 0.097, 1
43354, -0.057, 0.116, -0.391, -0.14, 0.119, 0.133, 1
43374, -0.188, 0.214, -0.513, -0.112, 0.05, 0.093, 1
43394, -0.117, 0.091, -0.419, -0.032, -0.051, -0.006, 1
43414, -0.059, -0.03, -0.291, 0.024, -0.093, -0.012, 1
43434, -0.001, -0.284, 0.131, -0.047, 0.003, 0.017, 1
43454, 0.027, -0.085, 0.015, -0.175, 0.122, 0.067, 1
43474, 0.081, -0.086, -0.148, -0.16, 0.138, 0.063, 1
43494, 0.139, -0.094, -0.166, -0.131, 0.05, 0.003, 1
43514, 0.071, -0.036, -0.237, -0.202, 0.015, 0.023, 1
43534, -0.092, -0.123, -0.077, -0.205, 0.077, 0.08, 1
43554, -0.043, -0.068, 0.066, -0.209, 0.148, 0.09, 1
43574, 0.048, 0.05, -0.115, -0.156, 0.097, 0.065, 1
43594, 0.078, -0.087, -0.108, -0.06, -0.017, 0.05, 1
43614, -0.047, -0.228, 0.084, -0.16, 0.047, 0.073, 1
43634, -0.171, 0.222, -0.353, -0.165, 0.034, 0.076, 1
43654, -0.272, 0.011, -0.292, -0.029, 0.026, 0.07, 1
43674, -0.001, 0.041, -0.227, -0.032, 0.021, 0.043, 1
43694, -0.063, -0.043, -0.207, 0.023, -0.069, 0.028, 1
43714, 0.045, -0.191, -0.059, -0.042, 0.001, 0.06, 1
43734, 0.0, -0.1, -0.026, -0.167, 0.059, 0.087, 1
43754, 0.033, 0.08, -0.201, -0.157, 0.013, 0.06, 1
43774, -0.044, 0.101, -0.243, -0.068, -0.044, 0.051, 1
43794, -0.077, -0.04, -0.138, -0.037, 0.073, 0.08, 1
43814, -0.007, -0.243, 0.083, -0.175, 0.138, 0.092, 1
43834, -0.019, -0.034, -0.178, -0.164, 0.053, 0.072, 1
43854, 0.021, 0.059, -0.322, -0.056, -0.021, 0.041, 1
43874, 0.0, 0.005, -0.275, -0.021, -0.018, 0.059, 1
43894, -0.084, -0.087, -0.111, -0.082, 0.067, 0.086, 1
43914, 0.118, -0.091, -0.014, -0.171, 0.034, 0.081, 1
43934, 0.022, -0.001, -0.167, -0.16, -0.023, 0.095, 1
43954, -0.25, -0.075, -0.215, -0.108, 0.035, 0.054, 1
43974, -0.191, -0.219, 0.154, -0.313, 0.161, 0.122, 0
43994, -0.062, -0.171, -0.006, -0.41, 0.222, 0.13, 0
44014, -0.02, -0.042, -0.252, -0.386, 0.158, 0.139, 0
44034, -0.294, -0.145, -0.326, -0.347, 0.121, 0.08, 0
44054, -0.107, 0.505, -0.939, -0.023, -0.064, 0.088, 0
44074, -0.25, 0.099, -0.779, 0.206, -0.094, 0.097, 0
44094, -0.46, -0.124, -0.258, 0.113, -0.042, 0.113, 0
44114, -0.649, 0.052, -0.114, -0.025, 0.045, 0.105, 0
44134, -0.856, 0.229, -0.218, -0.058, 0.094, -0.012, 0
44154, -0.678, 0.338, -0.353, -0.005, 0.036, -0.103, 0
44174, -0.861, 0.446, -0.67, 0.08, 0.134, -0.131, 0
44194, -0.464, 0.269, -0.682, 0.091, 0.146, -0.155, 0
44214, -0.407, 0.21, -0.579, 0.028, 0.086, -0.214, 0
44234, -0.425, 0.378, -0.51, 0.053, -0.004, -0.332, 0
44254, -0.482, 0.299, -0.283, 0.045, -0.017, -0.398, 0
44274, -0.534, 0.455, -0.098, 0.054, 0.074, -0.489, 0
44294, -0.293, 0.501, 0.252, 0.087, 0.092, -0.566, 0
44314, -0.15, 0.644, 0.222, 0.112, 0.144, -0.616, 0
44334, 0.157, 0.406, 0.261, 0.061, 0.158, -0.695, 0
44354, 0.257, 0.503, 0.112, -0.007, 0.136, -0.762, 0
44374, 0.295, 0.52, 0.307, 0.03, 0.129, -0.849, 0
44394, 0.199, 0.593, 0.549, 0.036, 0.132, -0.961, 0
44414, 0.202, 0.626, 0.474, -0.021, 0.196, -1.039, 0
44434, 0.711, 0.492, 0.156, -0.026, 0.313, -1.089, 0
44454, 1.663, -0.1, -0.208, -0.019, 0.337, -1.111, 0
44474, 2.199, -0.729, -0.303, 0.014, 0.209, -1.067, 0
44494, 1.89, -0.666, -0.178, -0.051, 0.134, -0.939, 0
44514, 1.19, -0.4, -0.18, -0.054, 0.196, -0.823, 0
44534, 1.428, -0.416, -0.065, -0.01, 0.211, -0.846, 0
44554, 1.295, -0.723, 0.013, -0.016, 0.119, -0.813, 0
44574, 1.358, -0.956, 0.088, -0.115, 0.168, -0.728, 0
44594, 1.484, -0.947, 0.039, -0.21, 0.177, -0.673, 0
44614, 1.227, -0.687, -0.091, -0.261, 0.142, -0.589, 0
44634, 1.296, -0.673, -0.142, -0.204, 0.171, -0.54, 0
44654, 1.47, -0.851, -0.124, -0.191, 0.126, -0.469, 0
44674, 1.472, -0.823, -0.128, -0.237, 0.087, -0.415, 0
44694, 1.686, -1.048, -0.152, -0.241, 0.048, -0.326, 0
44714, 1.555, -1.234, -0.23, -0.189, 0.047, -0.193, 0
44734, 1.408, -1.146, -0.282, -0.243, 0.058, -0.067, 0
44754, 1.133, -1.041, -0.295, -0.289, -0.051, 0.031, 0
44774, 0.73, -0.572, -0.565, -0.137, -0.15, 0.086, 0
44794, 0.839, -1.135, -0.274, -0.156, -0.139, 0.192, 0
44814, 0.743, -1.46, 0.003, -0.273, -0.128, 0.334, 0
44834, 0.361, -1.328, -0.071, -0.282, -0.065, 0.432, 0
44854, 0.303, -1.147, -0.202, -0.238, -0.076, 0.521, 0
44874, 0.231, -1.393, -0.176, -0.232, -0.081, 0.602, 0
44894, 0.133, -1.761, -0.095, -0.368, -0.094, 0.7, 0
44914, -0.19, -1.576, -0.222, -0.411, -0.072, 0.787, 0
44934, -0.221, -1.255, -0.149, -0.364, -0.155, 0.848, 0
44954, -0.445, -0.929, -0.454, -0.299, -0.283, 0.912, 0
44974, -1.01, -0.319, -1.379, -0.177, -0.303, 0.857, 0
44994, -0.814, -0.295, -1.291, -0.086, 0.0, 0.866, 0
45014, 0.109, -0.66, -0.655, -0.232, -0.299, 0.759, 0
45034, -0.572, -0.086, -0.91, -0.332, -0.621, 0.79, 0
45054, -1.444, 0.096, -1.008, -0.119, -0.242, 0.873, 0
45074, -0.984, -0.888, -0.302, -0.059, -0.082, 0.863, 0
45094, -0.594, -1.025, -0.24, -0.053, -0.111, 0.828, 0
45114, -0.396, -0.687, -0.306, -0.041, -0.007, 0.902, 0
45134, -0.622, -0.215, -0.447, -0.031, 0.033, 0.927, 0
45154, -0.939, -0.089, -0.561, -0.004, 0.089, 0.892, 0
45174, -0.48, -0.437, -0.323, 0.029, 0.068, 0.865, 0
45194, -0.234, -0.831, -0.174, -0.045, -0.009, 0.871, 0
45214, -0.067, -0.589, -0.32, -0.062, -0.07, 0.901, 0
45234, -0.46, 0.373, -0.715, 0.076, -0.089, 0.882, 0
45254, -1.057, 0.737, -0.276, 0.113, -0.054, 0.793, 0
45274, -0.975, -0.112, -0.197, -0.033, -0.152, 0.771, 0
45294, -0.549, -0.147, -0.245, -0.046, -0.118, 0.709, 0
45314, -0.197, -0.058, -0.133, 0.029, -0.163, 0.704, 0
45334, -0.425, 0.415, -0.093, 0.046, -0.162, 0.693, 0
45354, -1.021, 0.742, -0.074, 0.018, -0.113, 0.703, 0
45374, -1.285, 0.501, -0.053, -0.016, -0.048, 0.634, 0
45394, -0.659, 0.424, 0.025, 0.044, -0.084, 0.443, 0
45414, -0.459, 0.157, 0.213, 0.056, -0.178, 0.411, 0
45434, -0.341, 0.418, 0.392, -0.032, -0.142, 0.387, 0
45454, -0.908, 1.134, -0.224, -0.078, -0.044, 0.392, 0
45474, -0.93, 1.107, -0.32, -0.075, 0.003, 0.268, 0
45494, -0.875, 1.211, -0.399, -0.054, -0.077, 0.124, 0
45514, -0.932, 1.03, -0.191, 0.004, -0.143, -0.025, 0
45534, -0.789, 0.632, 0.064, -0.039, -0.071, -0.053, 0
45554, -0.46, 0.704, -0.086, -0.117, 0.051, -0.107, 0
45574, -0.076, 0.547, -0.176, -0.084, 0.072, -0.211, 0
45594, -0.1, 0.484, -0.305, -0.067, 0.093, -0.288, 0
45614, 0.448, 0.361, -0.346, -0.026, 0.15, -0.359, 0
45634, 0.507, 0.25, -0.471, -0.018, 0.119, -0.406, 0
45654, 0.952, -0.029, -0.363, -0.003, 0.155, -0.423, 0
45674, 1.216, -0.239, -0.197, -0.035, 0.073, -0.422, 0
45694, 1.229, -0.499, -0.05, -0.044, 0.015, -0.395, 0
45714, 1.16, -0.737, 0.118, -0.033, 0.048, -0.351, 0
45734, 1.287, -0.828, 0.077, -0.128, 0.127, -0.26, 0
45754, 1.574, -0.819, -0.188, -0.089, 0.133, -0.185, 0
45774, 1.445, -0.867, -0.326, -0.057, 0.103, -0.111, 0
45794, 1.132, -0.86, -0.296, -0.059, 0.101, -0.082, 0
45814, 1.057, -0.814, -0.237, -0.056, 0.037, -0.057, 0
45834, 0.772, -0.809, -0.179, -0.104, 0.028, 0.001, 0
45854, 0.517, -0.776, -0.149, -0.1, 0.062, 0.075, 0
45874, 0.234, -0.644, -0.157, -0.08, 0.12, 0.133, 0
45894, 0.251, -0.433, -0.047, -0.037, 0.087, 0.12, 0
45914, -0.09, -0.439, -0.071, 0.001, 0.036, 0.102, 0
45934, -0.098, -0.219, -0.113, 0.086, 0.036, 0.122, 1
45954, 0.11, -0.102, -0.406, 0.225, -0.053, 0.186, 1
45974, -0.218, -0.314, -0.299, 0.186, -0.029, 0.215, 1
45994, -0.219, -0.536, 0.056, 0.014, 0.018, 0.178, 1
46014, -0.075, -0.419, 0.19, -0.167, -0.036, 0.19, 1
46034, -0.631, -0.128, 0.049, -0.175, -0.047, 0.145, 1
46054, -0.594, 0.086, -0.132, -0.1, -0.004, 0.072, 1
46074, -0.295, 0.032, -0.293, -0.077, 0.002, 0.057, 1
46094, -0.061, -0.07, -0.307, -0.106, -0.034, 0.058, 1
46114, -0.091, -0.084, -0.235, -0.122, -0.028, 0.061, 1
46134, -0.046, -0.148, -0.044, -0.138, 0.007, 0.077, 1
46154, -0.015, -0.088, -0.048, -0.13, 0.043, 0.077, 1
46174, 0.213, -0.061, -0.222, -0.08, 0.058, 0.092, 1
46194, 0.289, -0.227, -0.216, -0.086, 0.004, 0.103, 1
46214, 0.076, -0.194, -0.18, -0.113, -0.012, 0.102, 1
46234, -0.129, -0.061, -0.171, -0.172, 0.094, 0.092, 1
46254, 0.022, 0.107, -0.509, -0.202, 0.065, 0.098, 1
46274, -0.022, 0.041, -0.507, -0.1, 0.012, 0.095, 1
46294, -0.094, -0.058, -0.267, -0.051, -0.01, 0.109, 1
46314, -0.123, -0.004, -0.141, -0.061, -0.014, 0.113, 1
46334, -0.11, -0.007, -0.08, -0.163, 0.053, 0.13, 1
46354, 0.001, 0.071, -0.243, -0.177, 0.047, 0.122, 1
46374, -0.051, 0.009, -0.214, -0.05, -0.027, 0.083, 1
46394, -0.028, -0.187, 0.051, 0.003, -0.052, 0.056, 1
46414, -0.035, -0.202, 0.138, -0.058, -0.034, 0.059, 1
46434, 0.057, -0.151, 0.064, -0.167, 0.038, 0.087, 1
46454, 0.081, 0.049, -0.344, -0.175, 0.072, 0.105, 1
46474, 0.053, -0.055, -0.289, -0.084, 0.026, 0.095, 1
46494, -0.011, -0.029, -0.137, -0.05, -0.07, 0.08, 1
46514, -0.123, -0.166, 0.111, -0.097, -0.038, 0.098, 1
46534, -0.085, -0.087, 0.04, -0.197, 0.018, 0.122, 1
46554, -0.025, -0.021, -0.097, -0.21, 0.048, 0.108, 1
46574, -0.029, 0.048, -0.163, -0.2, 0.079, 0.108, 1
46594, -0.065, 0.0, -0.05, -0.205, 0.078, 0.088, 1
46614, -0.071, -0.016, -0.14, -0.238, 0.067, 0.075, 1
46634, -0.042, -0.056, -0.314, -0.235, 0.108, 0.105, 1
46654, 0.105, -0.032, -0.324, -0.199, 0.103, 0.062, 1
46674, 0.081, -0.153, -0.28, -0.171, -0.002, 0.049, 1
46694, -0.064, -0.147, -0.177, -0.185, 0.039, 0.107, 1
46714, -0.003, -0.039, -0.078, -0.161, 0.06, 0.099, 1
46734, 0.024, -0.067, -0.133, -0.145, 0.034, 0.076, 1
46754, 0.0, -0.059, -0.245, -0.15, 0.0, 0.048, 1
46774, -0.021, -0.057, -0.299, -0.133, -0.006, 0.078, 1
46794, -0.152, 0.014, -0.342, -0.133, 0.102, 0.13, 1
46814, -0.023, 0.018, -0.308, -0.174, 0.095, 0.106, 1
46834, -0.055, 0.1, -0.289, -0.211, -0.018, 0.058, 1
46854, -0.291, 0.236, -0.451, -0.146, -0.028, 0.074, 1
46874, -0.513, -0.02, -0.29, -0.148, 0.121, 0.057, 1
46894, -0.064, -0.093, -0.188, -0.207, 0.11, 0.069, 0
46914, 0.0, -0.146, -0.259, -0.155, 0.067, 0.053, 0
46934, -0.039, -0.019, -0.249, -0.155, 0.017, -0.036, 0
46954, 0.128, 0.299, -0.461, -0.08, -0.133, -0.076, 0
46974, -0.241, 0.517, -0.962, 0.349, -0.18, -0.059, 0
46994, -0.381, -0.118, -0.246, 0.407, -0.097, -0.039, 0
47014, -0.294, -0.264, -0.029, 0.138, -0.019, -0.012, 0
47034, -0.385, -0.174, -0.002, -0.135, 0.13, -0.007, 0
47054, -0.4, 0.214, -0.33, -0.145, 0.097, -0.081, 0
47074, -0.764, 0.445, -0.491, -0.102, 0.137, -0.169, 0
47094, -0.341, 0.381, -0.567, -0.111, 0.113, -0.222, 0
47114, -0.051, 0.403, -0.782, -0.062, -0.071, -0.252, 0
47134, -0.067, 0.381, -0.792, 0.003, -0.192, -0.274, 0
47154, -0.633, 0.579, -0.791, 0.145, 0.045, -0.378, 0
47174, -0.146, 0.298, -0.214, 0.124, 0.056, -0.456, 0
47194, -0.298, 0.256, 0.046, 0.043, 0.086, -0.522, 0
47214, -0.065, 0.324, 0.219, 0.022, 0.163, -0.563, 0
47234, -0.037, 0.385, 0.36, -0.013, 0.194, -0.607, 0
47254, 0.043, 0.303, 0.316, -0.052, 0.252, -0.67, 0
47274, 0.239, 0.105, 0.457, -0.064, 0.271, -0.781, 0
47294, 0.708, -0.28, 0.729, -0.143, 0.291, -0.853, 0
47314, 1.058, -0.28, 0.657, -0.301, 0.242, -0.87, 0
47334, 0.846, -0.061, 0.597, -0.293, 0.075, -0.938, 0
47354, 0.33, 0.004, 0.256, -0.286, 0.064, -0.948, 0
47374, 0.685, -0.258, -0.087, -0.283, 0.237, -0.99, 0
47394, 1.183, -0.757, -0.33, -0.315, 0.28, -0.934, 0
47414, 1.34, -0.678, -0.604, -0.286, 0.24, -0.86, 0
47434, 1.383, -0.697, -0.491, -0.176, 0.202, -0.808, 0
47454, 1.474, -0.492, -0.545, -0.131, 0.177, -0.772, 0
47474, 1.477, -0.503, -0.361, -0.067, 0.156, -0.725, 0
47494, 1.498, -1.149, 0.116, -0.138, 0.18, -0.613, 0
47514, 1.435, -0.984, -0.01, -0.227, 0.169, -0.496, 0
47534, 1.415, -1.18, 0.017, -0.095, 0.142, -0.384, 0
47554, 1.229, -1.117, 0.313, -0.026, 0.04, -0.391, 0
47574, 1.096, -1.232, 0.309, -0.161, 0.067, -0.291, 0
47594, 1.408, -1.157, -0.204, -0.315, 0.088, -0.152, 0
47614, 1.335, -1.329, -0.616, -0.265, 0.0, -0.02, 0
47634, 1.185, -1.506, -0.587, -0.122, -0.129, 0.036, 0
47654, 0.718, -1.582, -0.351, -0.15, -0.127, 0.17, 0
47674, 0.835, -1.369, 0.029, -0.351, -0.051, 0.348, 0
47694, 0.671, -0.663, -0.306, -0.293, -0.087, 0.364, 0
47714, 0.44, -0.723, -0.293, -0.252, -0.087, 0.464, 0
47734, 0.397, -1.271, -0.039, -0.389, -0.095, 0.564, 0
47754, 0.196, -1.023, -0.416, -0.292, -0.19, 0.601, 0
47774, -0.079, -1.006, -0.51, -0.128, -0.171, 0.66, 0
47794, -0.201, -1.242, -0.14, -0.264, -0.083, 0.718, 0
47814, -0.074, -0.889, -0.149, -0.372, -0.058, 0.794, 0
47834, -0.074, -0.58, -0.232, -0.286, -0.097, 0.826, 0
47854, -0.157, -0.616, -0.163, -0.188, -0.084, 0.872, 0
47874, -0.408, -0.903, 0.028, -0.261, -0.027, 0.966, 0
47894, -0.505, -0.973, -0.089, -0.4, 0.007, 0.997, 0
47914, -0.536, -0.556, -0.511, -0.359, -0.047, 0.972, 0
47934, -0.684, -0.057, -0.855, -0.21, -0.081, 0.962, 0
47954, -0.851, 0.187, -0.925, -0.094, -0.066, 0.98, 0
47974, -0.836, -0.259, -0.756, -0.178, -0.04, 0.992, 0
47994, -0.765, -0.256, -1.117, -0.213, -0.097, 1.004, 0
48014, -0.774, -0.247, -1.488, -0.003, -0.06, 1.011, 0
48034, -0.385, -0.675, -1.007, 0.094, -0.137, 0.985, 0
48054, -0.048, -0.797, -0.636, 0.03, -0.281, 0.96, 0
48074, -0.472, -0.228, -0.714, -0.003, -0.144, 1.073, 0
48094, -0.659, -0.211, -0.567, 0.043, -0.01, 1.109, 0
48114, -0.533, -0.204, -0.311, 0.09, -0.096, 1.094, 0
48134, -0.256, -0.272, 0.113, 0.095, -0.323, 1.008, 0
48154, -0.255, -0.357, 0.564, -0.198, -0.397, 1.12, 0
48174, -1.298, 0.738, 0.214, -0.193, -0.355, 1.101, 0
48194, -2.11, 1.167, 0.124, -0.258, -0.554, 0.877, 0
48214, -2.487, 1.812, -0.503, -0.372, -0.486, 0.776, 0
48234, -2.539, 2.126, -1.026, -0.19, -0.287, 0.654, 0
48254, -1.697, 1.348, -0.547, 0.084, -0.182, 0.458, 0
48274, -1.365, 0.456, -0.136, 0.045, -0.16, 0.383, 0
48294, -0.692, 0.155, 0.097, -0.007, -0.058, 0.282, 0
48314, -0.581, 0.563, 0.18, 0.026, 0.002, 0.226, 0
48334, -0.683, 0.97, 0.353, 0.103, 0.0, 0.138, 0
48354, -0.872, 0.971, 0.352, -0.003, -0.106, 0.053, 0
48374, -1.432, 1.331, -0.219, -0.117, -0.021, -0.01, 0
48394, -0.884, 1.331, -0.478, 0.043, 0.213, -0.162, 0
48414, -0.264, 0.919, -0.23, 0.147, 0.279, -0.218, 0
48434, -0.198, 0.631, 0.025, 0.129, 0.281, -0.26, 0
48454, -0.068, 0.55, 0.199, 0.036, 0.337, -0.299, 0
48474, -0.078, 0.429, 0.096, 0.024, 0.302, -0.397, 0
48494, 0.226, -0.039, 0.176, 0.025, 0.27, -0.501, 0
48514, 0.936, -0.143, 0.069, -0.019, 0.233, -0.513, 0
48534, 0.88, 0.005, -0.13, -0.037, 0.219, -0.457, 0
48554, 0.605, 0.337, -0.386, -0.01, 0.208, -0.453, 0
48574, 0.388, 0.119, -0.147, 0.027, 0.208, -0.499, 0
48594, 0.422, 0.041, -0.055, 0.001, 0.236, -0.522, 0
48614, 1.179, -0.266, -0.31, 0.009, 0.246, -0.489, 0
48634, 1.489, -0.615, -0.515, -0.005, 0.138, -0.456, 0
48654, 1.429, -0.636, -0.58, 0.054, 0.054, -0.356, 0
48674, 1.502, -0.902, -0.145, 0.041, 0.1, -0.235, 0
48694, 1.394, -1.242, 0.225, -0.079, 0.073, -0.127, 0
48714, 1.073, -1.274, 0.18, -0.2, 0.081, -0.067, 0
48734, 0.964, -0.948, -0.033, -0.205, 0.02, -0.014, 0
48754, 0.346, -0.405, -0.214, -0.172, 0.043, 0.018, 0
48774, -0.119, -0.138, -0.343, -0.136, 0.095, 0.021, 0
48794, -0.071, -0.082, -0.41, -0.076, 0.111, 0.059, 0
48814, 0.01, -0.122, -0.38, 0.106, 0.057, 0.027, 1
48834, -0.01, -0.341, -0.344, 0.217, -0.039, 0.047, 1
48854, -0.191, -0.594, -0.104, 0.204, -0.034, 0.103, 1
48874, -0.415, -0.606, 0.204, 0.026, 0.087, 0.119, 1
48894, -0.271, -0.475, 0.28, -0.149, 0.054, 0.113, 1
48914, -0.433, 0.052, -0.231, -0.047, -0.045, 0.078, 1
48934, -0.256, -0.061, -0.156, 0.036, -0.067, 0.084, 1
48954, -0.211, -0.25, 0.08, 0.021, -0.084, 0.084, 1
48974, -0.335, -0.367, 0.175, -0.058, -0.01, 0.105, 1
48994, -0.202, -0.241, -0.053, -0.099, 0.122, 0.144, 1
49014, 0.059, -0.176, -0.289, -0.096, 0.069, 0.103, 1
