timestamp, accX, accY, accZ, gyroX, gyroY, gyroZ, button
10754, -0.137, -0.057, 0.339, -0.13, 0.208, 0.161, 1
10774, -0.141, 0.091, 0.087, -0.195, 0.174, 0.159, 1
10794, -0.087, 0.024, -0.067, -0.15, 0.08, 0.105, 1
10814, -0.167, -0.021, -0.178, -0.079, 0.008, 0.087, 1
10834, -0.058, -0.151, -0.11, -0.045, 0.067, 0.078, 1
10854, 0.047, -0.107, -0.117, -0.07, 0.1, 0.09, 1
10874, 0.068, -0.054, -0.164, -0.059, 0.086, 0.091, 1
10894, -0.071, 0.072, -0.311, 0.004, -0.05, 0.095, 1
10914, -0.153, 0.027, -0.369, 0.075, -0.032, 0.061, 1
10934, 0.067, 0.165, -0.507, 0.275, -0.179, -0.015, 1
10954, -0.239, 0.211, -0.82, 0.611, -0.274, -0.02, 1
10974, -0.088, -0.09, -0.453, 0.679, -0.294, 0.01, 1
10994, -0.062, -0.448, -0.182, 0.51, -0.313, -0.002, 1
11014, 0.109, -0.596, -0.102, 0.204, -0.534, -0.077, 1
11034, 0.099, -0.349, -0.236, 0.015, -0.777, -0.111, 1
11054, -0.633, -0.012, -0.486, -0.016, -0.742, -0.07, 1
11074, -1.069, -0.084, -0.432, 0.05, -0.403, -0.22, 1
11094, -0.891, -0.271, -0.177, 0.034, -0.193, -0.4, 1
11114, -0.075, -0.308, 0.041, -0.001, -0.231, -0.357, 1
11134, 0.019, -0.26, -0.248, -0.01, -0.394, -0.341, 1
11154, -0.165, -0.142, -0.239, -0.008, -0.426, -0.421, 1
11174, -0.02, 0.0, -0.203, -0.01, -0.434, -0.412, 1
11194, -0.041, 0.038, -0.171, 0.025, -0.307, -0.418, 1
11214, 0.126, 0.011, -0.089, 0.029, -0.211, -0.444, 1
11234, 0.668, 0.441, -0.427, 0.179, -0.39, -0.487, 1
11254, 1.38, 0.322, -0.358, 0.28, -0.944, -0.537, 1
11274, 1.926, -0.078, -0.027, 0.089, -1.802, -0.471, 1
11294, 0.635, 0.184, -0.077, -0.073, -2.321, -0.557, 1
11314, 0.411, 0.613, -0.615, 0.017, -2.366, -0.493, 1
11334, 0.311, 0.996, -0.88, 0.42, -2.502, -0.636, 1
11354, 1.123, 0.264, -0.253, 0.454, -3.058, -0.646, 1
11374, 1.427, -0.314, 0.205, -0.052, -3.423, -0.309, 1
11394, -0.236, 0.252, 0.028, -0.18, -3.315, -0.296, 1
11414, 1.23, 0.473, 0.288, 0.067, -3.423, -0.522, 1
11434, 1.492, 0.448, 0.906, 0.134, -4.505, -0.858, 1
11454, 0.586, 0.905, 0.64, 0.118, -5.164, -0.689, 1
11474, 1.018, 0.791, 0.918, 0.102, -5.015, -0.245, 1
11494, 0.274, 2.249, 0.575, -0.207, -4.927, -0.035, 1
11514, 0.3, 4.01, 0.342, -0.202, -4.702, 0.033, 1
11534, -0.175, 5.824, 0.152, -0.107, -4.451, -0.063, 1
11554, 0.268, 6.756, 0.358, -0.05, -4.214, -0.076, 1
11574, 0.204, 6.895, 0.14, -0.15, -3.932, 0.051, 1
11594, 0.443, 5.335, 0.517, -0.302, -3.516, 0.25, 1
11614, -0.767, 4.979, -0.051, -0.613, -3.07, 0.402, 1
11634, -1.306, 4.493, -0.413, -0.53, -2.257, 0.249, 1
11654, -0.11, 4.208, -0.426, -0.272, -1.52, -0.02, 1
11674, -0.051, 3.53, -0.441, -0.199, -1.475, 0.079, 1
11694, -0.109, 3.309, -0.521, -0.159, -1.325, 0.138, 1
11714, -0.093, 3.024, -0.675, -0.219, -1.307, 0.235, 1
11734, -0.999, 3.242, -0.577, -0.146, -0.996, 0.185, 1
11754, 0.138, 2.991, -0.378, 0.077, -0.473, 0.097, 1
11774, 0.023, 2.698, -0.095, 0.092, -0.335, 0.032, 1
11794, -0.254, 2.991, -0.092, 0.023, -0.078, -0.026, 1
11814, -0.107, 3.235, -0.016, 0.04, 0.453, -0.026, 1
11834, 0.54, 3.56, 0.104, 0.073, 0.864, 0.08, 1
11854, 0.729, 3.307, 0.319, -0.019, 0.714, 0.13, 1
11874, 0.063, 3.881, -0.119, -0.036, 0.734, 0.184, 1
11894, -1.154, 4.465, 0.027, 0.175, 1.416, 0.291, 1
11914, -1.332, 5.12, 0.299, 0.51, 2.386, 0.31, 1
11934, -1.052, 6.101, 0.666, 0.814, 3.317, 0.468, 1
11954, -0.915, 6.965, 1.258, 0.893, 4.247, 0.702, 1
11974, -0.657, 7.567, 2.03, 0.821, 4.755, 0.571, 1
11994, 0.782, 6.377, 1.735, 0.667, 4.385, 0.479, 1
12014, -2.61, 5.111, 0.926, 0.979, 5.423, 0.524, 1
12034, -3.251, 2.352, 2.442, 1.192, 7.346, 0.334, 1
12054, -1.959, 0.687, 4.246, 0.823, 8.391, 0.132, 1
12074, -1.113, 0.163, 4.629, 0.282, 8.695, 0.025, 1
12094, -0.925, 0.722, 4.289, 0.283, 8.607, -0.357, 1
12114, 0.306, 0.491, 3.789, 0.568, 8.258, -0.084, 1
12134, 2.507, -1.425, 3.948, 0.164, 7.043, 0.517, 1
12154, 2.868, -2.025, 3.527, -0.808, 5.602, 1.023, 1
12174, 2.441, -1.259, 1.828, -1.754, 3.798, 0.988, 1
12194, 1.856, 0.342, -0.006, -1.904, 1.506, 0.337, 1
12214, -0.406, 1.809, -1.693, -1.497, 0.481, 0.339, 1
12234, -1.401, 1.757, -1.904, -0.913, 0.759, 0.434, 1
12254, -0.4, 1.071, -0.899, -0.59, 0.901, 0.569, 1
12274, -0.15, 0.853, -0.032, -0.64, 0.786, 0.758, 1
12294, 0.063, 0.998, 0.623, -0.844, 0.473, 0.856, 1
12314, 0.391, 1.152, 0.914, -0.926, -0.131, 0.723, 1
12334, 0.076, 2.039, 0.83, -0.572, -0.833, 0.072, 1
12354, 1.407, 2.222, 2.128, 0.271, -1.833, -0.017, 1
12374, 1.666, 0.936, 2.816, 0.293, -2.442, 0.055, 1
12394, 1.776, 0.673, 3.364, 0.126, -2.602, 0.18, 1
12414, 2.095, 0.438, 3.743, -0.007, -2.45, 0.425, 1
12434, 2.264, 0.058, 3.569, -0.07, -2.159, 0.644, 1
12454, 2.959, -0.24, 3.077, -0.139, -1.768, 0.72, 1
12474, 3.057, -0.342, 2.272, -0.233, -1.253, 1.088, 1
12494, 1.893, -0.583, 1.242, -0.409, -0.361, 1.837, 1
12514, 0.866, -0.648, 0.376, -0.624, 0.555, 2.117, 1
12534, 0.418, -0.532, -0.294, -0.728, 1.01, 1.982, 1
12554, 0.123, -0.028, -1.138, -0.855, 0.955, 1.929, 1
12574, -0.325, 0.378, -2.159, -0.997, 0.711, 2.185, 1
12594, -0.412, 0.742, -2.875, -1.034, 0.494, 2.31, 1
12614, 0.206, 0.591, -2.802, -0.823, 0.261, 2.339, 1
12634, -1.107, 1.425, -3.114, -0.599, 0.07, 2.565, 1
12654, -2.307, 2.556, -3.632, -0.163, 0.075, 2.544, 1
12674, -1.204, 1.416, -2.404, 0.362, -0.247, 2.174, 1
12694, -0.705, 0.992, -1.267, 0.543, -0.985, 2.089, 1
12714, -0.485, 0.286, -0.006, 0.561, -1.704, 2.172, 1
12734, -0.72, 0.317, 0.413, 0.201, -2.436, 2.251, 1
12754, -0.502, 0.05, 0.369, -0.221, -3.023, 2.347, 1
12774, -0.75, 0.967, 0.012, -0.677, -3.349, 2.484, 1
12794, 0.404, 0.32, 0.324, -1.056, -4.124, 2.73, 1
12814, -0.036, 1.184, 0.838, -1.357, -5.199, 2.924, 1
12834, -1.104, 2.08, 1.856, -1.088, -6.687, 2.961, 1
12854, -1.025, 2.535, 3.184, -0.505, -8.064, 2.643, 1
12874, -1.993, 2.506, 5.108, 0.517, -9.394, 2.116, 1
12894, -2.625, 0.605, 7.44, 1.62, -10.049, 1.246, 1
12914, -3.554, -1.463, 8.771, 2.425, -9.648, -0.047, 1
12934, -5.583, -0.669, 7.782, 3.353, -7.073, -0.966, 1
12954, -6.111, -1.34, 7.037, 3.941, -2.838, -1.505, 1
12974, -7.503, -1.255, 7.904, 3.83, 2.112, -1.655, 1
12994, -4.905, -1.824, 10.129, 2.837, 5.321, -1.339, 1
13014, -2.576, -2.481, 10.681, 1.259, 6.172, -1.184, 1
13034, -1.286, -2.423, 9.304, -0.332, 5.41, -1.423, 1
13054, -1.333, -1.819, 6.623, -1.646, 4.087, -1.951, 1
13074, -1.842, -0.288, 4.036, -2.29, 3.309, -2.021, 1
13094, -2.264, 0.688, 2.435, -2.048, 3.406, -1.506, 1
13114, -3.068, 0.332, 1.701, -1.41, 4.255, -1.023, 1
13134, -2.372, -0.618, 2.375, -0.933, 4.696, -1.184, 1
13154, 0.792, -1.637, 1.812, -1.014, 3.538, -1.348, 1
13174, 1.5, -1.141, 0.318, -0.997, 1.943, -1.332, 1
13194, 0.584, -0.779, -0.24, -0.793, 1.071, -1.329, 1
13214, 0.472, -0.744, -0.036, -0.58, 0.784, -1.189, 1
13234, -0.228, -0.576, 0.191, -0.457, 0.948, -0.93, 1
13254, -0.897, -0.518, 0.699, -0.37, 1.312, -0.781, 1
13274, -0.838, -1.013, 1.221, -0.386, 1.538, -0.821, 1
13294, -0.03, -1.229, 1.173, -0.539, 1.556, -0.89, 1
13314, 0.535, -1.179, 0.928, -0.809, 1.449, -0.835, 1
13334, 1.175, -0.656, 0.044, -0.885, 0.695, -0.621, 1
13354, 0.016, -0.347, -0.178, -0.602, 0.415, -0.532, 1
13374, -0.063, -0.708, 0.083, -0.207, 0.499, -0.481, 1
13394, 0.315, -1.093, 0.416, -0.073, 0.616, -0.454, 1
13414, 0.418, -1.07, 0.487, -0.138, 0.718, -0.328, 1
13434, 0.394, -0.964, 0.445, -0.233, 0.76, -0.163, 1
13454, 0.025, -0.714, 0.353, -0.307, 0.635, -0.097, 1
13474, 0.029, -0.603, 0.28, -0.341, 0.336, -0.105, 1
13494, -0.448, -0.543, 0.013, -0.405, -0.047, -0.065, 1
13514, -1.129, -0.363, -0.331, -0.407, -0.076, -0.031, 1
13534, -1.236, -0.475, -0.351, -0.313, 0.172, -0.001, 1
13554, -1.35, -0.475, -0.332, -0.262, 0.385, 0.035, 1
13574, -1.276, -0.528, -0.258, -0.248, 0.434, 0.02, 1
13594, -1.077, -0.726, -0.292, -0.318, 0.28, -0.037, 1
13614, -0.961, -0.525, -0.621, -0.348, 0.125, -0.065, 1
13634, -1.032, -0.385, -0.919, -0.288, -0.052, -0.076, 1
13654, -1.126, -0.259, -1.018, -0.124, -0.029, -0.064, 1
13674, -0.789, -0.303, -0.735, 0.051, 0.006, -0.048, 1
13694, -0.71, -0.407, -0.318, 0.205, -0.059, -0.031, 1
13714, -0.756, -0.428, -0.048, 0.279, -0.126, -0.059, 1
13734, -0.434, -0.622, 0.217, 0.261, -0.076, -0.103, 1
13754, -0.133, -0.764, 0.469, 0.205, -0.012, -0.107, 1
13774, 0.082, -1.277, 0.787, 0.182, 0.056, -0.087, 1
13794, -0.218, -0.985, 0.497, 0.036, 0.225, -0.039, 1
13814, 0.07, -0.68, 0.265, -0.064, 0.459, -0.033, 1
13834, 0.185, -0.494, 0.195, -0.018, 0.353, 0.014, 1
13854, 0.167, -0.517, 0.257, 0.056, 0.24, 0.07, 1
13874, 0.162, -0.466, 0.356, 0.102, 0.149, 0.186, 1
13894, -0.234, -0.224, 0.261, 0.085, 0.103, 0.331, 1
13914, -0.499, -0.175, 0.272, 0.113, 0.04, 0.396, 1
13934, -0.587, -0.122, 0.391, 0.157, -0.138, 0.37, 1
13954, -0.589, -0.322, 0.619, 0.13, -0.328, 0.323, 1
13974, -0.633, -0.525, 0.75, 0.056, -0.393, 0.283, 1
13994, -0.912, -0.373, 0.596, 0.037, -0.265, 0.22, 1
14014, -1.062, -0.271, 0.455, 0.089, -0.035, 0.092, 1
14034, -0.534, -0.593, 0.428, 0.053, 0.034, 0.01, 1
14054, -0.316, -0.853, 0.287, -0.083, -0.001, 0.027, 1
14074, -0.33, -0.941, 0.102, -0.224, 0.036, 0.034, 1
14094, -0.265, -0.828, -0.362, -0.267, 0.039, 0.026, 1
14114, -0.288, -0.573, -0.755, -0.206, -0.001, -0.014, 1
14134, -0.05, -0.445, -0.874, -0.048, -0.061, -0.074, 1
14154, 0.069, -0.51, -0.767, 0.097, -0.08, -0.036, 1
14174, 0.042, -0.527, -0.493, 0.17, -0.002, -0.011, 1
14194, 0.354, -0.693, -0.059, 0.149, -0.061, -0.001, 1
14214, 0.144, -0.532, 0.107, 0.145, -0.108, -0.009, 1
14234, 0.095, -0.522, 0.378, 0.166, -0.105, -0.028, 1
14254, 0.126, -0.577, 0.436, 0.134, -0.058, 0.012, 1
14274, 0.14, -0.711, 0.605, 0.084, 0.02, 0.039, 1
14294, 0.178, -0.93, 0.618, -0.116, 0.124, 0.083, 1
14314, 0.26, -0.768, 0.183, -0.252, 0.097, 0.108, 1
14334, 0.2, -0.576, -0.122, -0.234, 0.08, 0.119, 1
14354, 0.003, -0.526, -0.25, -0.118, 0.128, 0.161, 1
14374, -0.146, -0.651, -0.167, -0.049, 0.241, 0.212, 1
14394, -0.042, -0.787, -0.036, -0.07, 0.337, 0.232, 1
14414, -0.053, -0.733, -0.045, -0.152, 0.276, 0.215, 1
14434, -0.049, -0.593, -0.153, -0.177, 0.131, 0.168, 1
14454, -0.139, -0.489, -0.194, -0.117, 0.05, 0.147, 1
14474, -0.437, -0.487, -0.281, -0.002, 0.096, 0.166, 1
14494, -0.439, -0.592, -0.1, 0.051, 0.211, 0.194, 1
14514, -0.363, -0.756, -0.012, 0.065, 0.261, 0.171, 1
14534, -0.119, -0.933, 0.317, -0.038, 0.152, 0.208, 1
14554, -0.326, -0.81, 0.171, -0.124, 0.065, 0.224, 1
14574, -0.601, -0.534, -0.043, -0.121, 0.026, 0.212, 1
14594, -0.764, -0.4, -0.183, -0.003, 0.074, 0.175, 1
14614, -0.758, -0.53, -0.094, 0.062, 0.128, 0.138, 1
14634, -0.524, -0.59, -0.146, 0.015, 0.1, 0.056, 1
14654, -0.526, -0.643, -0.179, -0.064, -0.067, 0.003, 1
14674, -0.794, -0.457, -0.38, -0.106, -0.131, -0.002, 1
14694, -0.747, -0.446, -0.419, -0.053, -0.122, -0.062, 1
14714, -0.664, -0.349, -0.508, 0.025, -0.145, -0.119, 1
14734, -0.514, -0.408, -0.471, 0.066, -0.269, -0.195, 1
14754, -0.693, -0.433, -0.671, 0.072, -0.476, -0.255, 1
14774, -0.566, -0.584, -0.705, 0.017, -0.591, -0.342, 1
14794, -0.282, -0.574, -0.821, -0.038, -0.909, -0.405, 1
14814, -0.357, -0.322, -1.12, 0.059, -1.235, -0.563, 1
14834, -0.23, -0.235, -1.172, 0.332, -1.664, -0.737, 1
14854, -0.02, -0.69, -0.965, 0.418, -2.081, -0.687, 1
14874, -0.154, -0.927, -0.894, 0.254, -2.271, -0.552, 1
14894, -0.462, -0.77, -1.081, 0.037, -2.404, -0.55, 1
14914, -0.639, -0.372, -1.205, 0.087, -2.362, -0.674, 1
14934, -0.348, -0.525, -0.972, 0.03, -2.577, -0.686, 1
14954, -0.531, -0.701, -1.028, -0.072, -2.714, -0.579, 1
14974, -0.71, -0.884, -0.898, -0.228, -2.586, -0.602, 1
14994, -0.482, -1.071, -0.806, -0.439, -2.458, -0.612, 1
15014, 1.02, -1.573, -0.035, -0.726, -2.643, -0.549, 1
15034, 1.23, -1.718, -0.157, -1.077, -3.411, -0.485, 1
15054, -0.678, -1.519, -1.057, -0.833, -3.315, -0.717, 1
15074, -1.687, -1.186, -1.544, -0.29, -2.291, -0.846, 1
15094, 0.243, -2.627, -0.228, -0.129, -1.729, -0.786, 1
15114, 2.797, -4.199, 0.617, -0.639, -2.703, -0.499, 1
15134, 1.466, -5.93, 0.472, -1.09, -3.268, -0.193, 1
15154, 0.103, -8.023, -0.461, -1.153, -2.988, -0.235, 1
15174, -0.449, -8.475, -0.945, -0.861, -2.411, -0.619, 1
15194, 0.061, -7.209, -1.216, -0.422, -1.767, -0.689, 1
15214, 0.841, -6.234, -0.835, -0.293, -1.492, -0.544, 1
15234, 0.84, -4.42, -0.444, -0.377, -1.226, -0.429, 1
15254, 0.875, -2.805, -0.469, -0.554, -0.963, -0.217, 1
15274, 0.695, -1.855, -0.537, -0.486, -0.548, -0.368, 1
15294, 0.658, -1.251, -0.539, -0.213, -0.215, -0.464, 1
15314, 0.708, -0.543, -0.127, -0.046, 0.188, -0.437, 1
15334, 1.86, -0.341, 0.464, -0.171, 0.425, -0.317, 1
15354, 1.868, 0.313, 0.209, -0.613, 0.12, -0.052, 1
15374, 0.584, 1.118, -0.477, -0.868, -0.081, 0.192, 1
15394, -0.929, 1.515, -0.984, -0.707, 0.473, 0.202, 1
15414, -1.078, 2.03, -0.672, -0.255, 1.542, 0.053, 1
15434, -0.311, 7.959, 0.177, -0.015, 2.386, -0.088, 1
15454, -0.077, 5.335, 1.164, -0.116, 2.733, -0.111, 1
15474, -2.058, 2.719, 1.248, -0.309, 3.089, 0.026, 1
15494, -3.173, 1.461, 1.726, -0.028, 4.442, 0.053, 1
15514, -3.903, 0.67, 2.294, 0.585, 6.52, -0.19, 1
15534, -1.115, 0.138, 4.02, 0.698, 8.018, -0.74, 1
15554, 1.987, -0.161, 4.708, 0.457, 7.834, -0.762, 1
15574, 1.666, 0.447, 2.728, 0.264, 6.814, -0.015, 1
15594, 0.633, -0.453, 2.333, 0.459, 6.442, 0.909, 1
15614, -0.226, -1.831, 1.361, 0.193, 6.069, 0.936, 1
15634, 0.465, -0.505, 0.777, -0.154, 4.996, 0.043, 1
15654, -0.301, 1.953, 0.243, 0.012, 3.731, -0.357, 1
15674, 0.874, 0.195, 1.273, 0.144, 3.045, -0.277, 1
15694, 1.354, -0.276, 1.992, -0.216, 1.579, -0.122, 1
15714, -0.48, -0.172, 1.557, -0.774, 0.466, -0.216, 1
15734, -1.839, 1.754, 0.203, -1.278, 0.26, -0.357, 1
15754, -2.39, 2.687, -0.489, -1.131, 1.041, -0.252, 1
15774, -1.379, 2.014, -0.136, -0.922, 1.346, -0.244, 1
15794, -0.989, 1.228, 0.228, -0.85, 1.236, -0.623, 1
15814, 0.765, 0.826, 0.514, -0.786, 0.707, -0.985, 1
15834, 1.876, -0.075, 0.33, -0.795, 0.396, -0.835, 1
15854, 1.843, -0.781, 0.027, -0.769, 0.485, -0.516, 1
15874, 1.108, 1.845, -0.366, -0.309, 1.012, -0.406, 1
15894, 1.034, 0.674, -1.006, 0.09, 1.249, -0.243, 1
15914, 1.736, -0.546, -0.424, -0.064, 0.816, -0.21, 1
15934, 1.429, -0.789, -0.173, -0.513, 0.411, -0.078, 1
15954, 0.186, 0.065, -1.195, -0.475, 0.271, -0.007, 1
15974, -0.386, 1.239, -0.599, -0.387, 0.417, -0.119, 1
15994, 0.177, -0.549, 0.062, -0.795, 0.357, 0.123, 1
16014, -0.053, -0.145, -0.155, -1.012, 0.248, 0.242, 1
16034, -0.72, 0.153, -0.798, -0.721, 0.304, 0.221, 1
16054, -0.629, 0.119, -0.743, -0.327, 0.222, 0.063, 1
16074, -0.358, -0.221, -0.721, -0.155, 0.036, 0.056, 1
16094, -0.872, -0.438, -0.415, -0.107, 0.206, 0.061, 1
16114, -0.608, -0.486, -0.171, -0.296, 0.298, 0.104, 1
16134, -0.667, 0.005, -0.826, -0.246, 0.285, 0.085, 1
16154, -0.298, -0.341, -0.753, -0.204, 0.188, 0.075, 1
16174, -1.495, 1.399, -2.102, 0.399, 0.232, -0.028, 1
16194, -1.422, 0.662, -1.725, 1.141, 0.496, -0.118, 1
16214, -0.272, -0.957, -0.286, 0.949, 0.418, -0.094, 1
16234, -0.893, -0.834, -0.009, 0.62, 0.619, 0.018, 1
16254, -0.68, -1.0, 0.612, 0.299, 0.803, 0.077, 1
16274, -0.344, -0.94, 0.956, 0.164, 1.011, 0.093, 1
16294, 0.025, -1.07, 1.654, -0.105, 0.877, 0.139, 1
16314, -0.46, -0.463, 1.671, -0.324, 0.56, 0.133, 1
16334, -1.268, 0.238, 1.173, -0.343, 0.643, 0.079, 1
16354, -1.466, 0.402, 1.171, -0.306, 0.863, 0.171, 1
16374, -0.802, -0.145, 1.499, -0.536, 0.954, 0.153, 1
16394, -1.167, 0.065, 0.864, -0.953, 0.726, 0.176, 1
16414, -1.27, 0.221, 0.342, -0.907, 0.697, 0.046, 1
16434, -1.026, 0.18, 0.462, -0.649, 0.682, 0.013, 1
16454, -1.174, -0.683, 1.127, -0.609, 0.821, 0.094, 1
16474, -0.707, -0.688, 0.722, -0.827, 1.014, 0.087, 1
16494, -0.219, -0.726, 0.418, -0.875, 1.009, 0.075, 1
16514, 0.78, -1.065, 0.121, -0.941, 0.759, 0.084, 1
16534, -0.24, -0.639, -0.559, -1.02, 0.384, -0.056, 1
16554, 0.923, -0.185, -1.309, -0.746, 0.261, -0.257, 1
16574, 0.697, -0.131, -1.378, -0.463, 0.251, -0.097, 1
16594, 0.736, -0.26, -1.067, -0.359, 0.435, 0.01, 1
16614, 1.141, -0.528, -0.884, -0.411, 0.308, 0.019, 1
16634, 0.407, 0.071, -1.208, -0.475, 0.063, 0.035, 1
16654, 0.031, 0.461, -1.321, -0.341, 0.144, -0.014, 1
16674, 0.024, -0.058, -0.664, -0.138, 0.31, 0.025, 1
16694, -0.026, -0.109, -0.349, -0.138, 0.285, 0.029, 1
16714, -0.432, -0.001, -0.461, -0.167, 0.306, 0.007, 1
16734, 0.337, -0.421, -0.296, -0.314, 0.246, -0.058, 1
16754, 0.836, -1.454, 0.949, -0.58, 0.047, -0.082, 1
16774, 0.895, -0.931, 0.482, -0.405, -0.169, -0.083, 1
16794, -0.544, 0.343, -0.92, -0.144, 0.086, -0.083, 1
16814, -0.299, -0.316, -0.233, -0.161, 0.116, -0.142, 1
16834, 0.027, -2.097, -0.214, -0.372, 0.031, -0.05, 1
16854, -0.729, 1.788, -0.404, 0.102, -0.029, -0.304, 1
16874, -0.699, 0.154, -0.666, 0.348, 0.041, -0.413, 1
16894, -1.031, 0.032, -0.467, 0.295, 0.225, -0.145, 1
16914, -0.361, 1.465, -0.735, 0.55, 0.004, -0.185, 1
16934, -0.359, -0.107, -1.103, 0.666, -0.261, -0.28, 1
16954, -0.031, -0.79, -0.74, 0.298, -0.468, -0.356, 1
16974, 0.022, -1.372, -0.463, -0.061, -0.492, -0.098, 1
16994, 0.237, -0.389, -0.256, 0.041, -0.241, 0.037, 1
17014, 0.319, -0.451, 0.063, 0.06, -0.196, 0.006, 1
17034, 0.205, -0.307, 0.423, -0.107, -0.343, -0.137, 1
17054, 0.294, -1.434, 0.328, -0.227, -0.293, -0.076, 1
17074, -0.027, -0.26, 0.03, -0.337, -0.146, -0.054, 1
17094, -0.419, 0.472, -0.469, -0.166, 0.003, 0.01, 1
17114, -0.135, 0.187, -0.392, -0.16, 0.092, 0.026, 1
17134, 0.083, -0.156, -0.482, -0.296, 0.086, -0.023, 1
17154, 0.046, 0.17, -0.792, -0.359, 0.081, 0.042, 1
17174, -0.103, 0.071, -0.571, -0.366, 0.139, 0.095, 1
17194, -0.008, -0.265, -0.131, -0.399, -0.014, -0.051, 1
17214, 0.014, -0.254, -0.143, -0.408, -0.37, -0.122, 1
17234, 0.065, -0.764, 1.09, -0.465, -0.267, 0.012, 1
17254, 0.365, -0.111, 0.086, -0.535, -0.205, -0.097, 1
17274, 2.888, -0.976, -0.626, -0.285, -0.37, -0.259, 1
17294, 2.497, -0.116, -2.048, -0.08, -0.766, -0.182, 1
17314, 3.356, 0.915, -2.732, 0.205, -1.015, 0.05, 1
17334, 2.184, 1.169, -3.191, 0.81, -1.207, 0.191, 1
17354, 2.053, 0.611, -2.276, 1.296, -1.123, 0.284, 1
17374, 2.555, 0.616, -1.664, 1.268, -1.486, 0.23, 1
17394, 1.711, 0.248, -1.173, 1.05, -2.254, 0.405, 1
17414, 0.882, 0.052, -0.837, 0.632, -2.595, 0.527, 1
17434, 0.34, 0.496, -1.41, 0.416, -2.955, 0.406, 1
17454, -0.804, 0.689, -1.331, 0.509, -3.259, 0.303, 1
17474, -0.856, 0.303, -0.833, 0.564, -3.141, 0.274, 1
17494, -1.29, -0.031, -0.274, 0.527, -2.988, 0.185, 1
17514, -0.747, -0.306, 0.407, 0.325, -2.802, 0.061, 1
17534, -0.858, -0.189, 0.689, 0.065, -2.849, 0.059, 1
17554, -1.11, -0.43, 0.955, -0.128, -2.825, 0.087, 1
17574, -0.947, -0.804, 1.586, -0.343, -2.623, 0.122, 1
17594, -0.23, -1.276, 2.127, -0.814, -2.646, 0.07, 1
17614, -1.279, -0.833, 1.823, -1.274, -2.608, 0.101, 1
17634, -0.712, -1.17, 1.56, -1.357, -2.26, 0.07, 1
17654, 0.226, -1.653, 1.914, -1.442, -2.293, -0.061, 1
17674, 1.238, -2.221, 2.116, -1.761, -2.919, -0.136, 1
17694, -0.536, -1.915, 1.433, -1.911, -3.284, -0.028, 1
17714, -1.756, -1.352, 0.486, -1.175, -1.589, -0.071, 1
17734, -0.533, -1.634, 0.275, -0.427, -0.568, -0.07, 1
17754, 0.585, -2.178, 0.848, -0.069, -0.254, 0.078, 1
17774, 0.55, -2.456, 0.973, -0.046, -0.276, 0.043, 1
17794, 0.404, -2.461, 1.06, -0.123, -0.233, -0.017, 1
17814, 0.429, -2.207, 0.785, -0.138, -0.233, -0.02, 1
17834, 0.058, -1.913, 0.414, 0.085, 0.051, 0.021, 1
17854, 0.096, -2.146, 0.563, 0.331, 0.354, 0.03, 1
17874, 0.852, -2.65, 0.949, 0.156, 0.327, 0.039, 1
17894, 1.391, -2.798, 0.907, -0.273, -0.031, 0.062, 1
17914, 0.653, -2.371, 0.2, -0.403, -0.137, 0.071, 1
17934, 0.316, -1.992, -0.38, -0.311, 0.078, 0.119, 1
17954, 0.651, -2.171, -0.335, -0.243, 0.102, 0.011, 1
17974, 0.809, -1.919, -0.554, -0.245, -0.255, 0.004, 1
17994, 0.368, -1.984, -0.731, -0.18, -0.259, 0.094, 1
18014, -0.017, -1.807, -0.786, -0.042, 0.097, 0.232, 1
18034, -0.52, -1.805, -0.451, -0.023, 0.528, 0.27, 1
18054, 0.115, -2.015, 0.16, -0.251, 0.359, 0.087, 1
18074, 0.285, -1.853, -0.127, -0.34, -0.075, 0.042, 1
18094, -0.511, -1.733, -0.518, -0.307, -0.103, 0.028, 1
18114, -0.182, -1.89, -0.222, -0.305, -0.076, 0.017, 1
18134, -0.071, -2.089, 0.043, -0.335, -0.087, -0.014, 1
18154, 0.3, -2.052, 0.172, -0.408, -0.317, -0.057, 1
18174, -0.546, -1.669, -0.33, -0.226, -0.184, -0.067, 1
18194, -0.732, -1.543, -0.399, 0.183, 0.421, 0.058, 1
18214, -0.935, -1.415, -0.319, 0.356, 0.783, 0.166, 1
18234, -1.453, -1.079, -0.247, 0.652, 1.434, 0.246, 1
18254, -1.191, -1.091, 0.232, 0.989, 2.08, 0.287, 1
18274, -0.939, -1.172, 0.66, 1.178, 2.493, 0.266, 1
18294, -0.583, -1.311, 0.892, 1.167, 2.599, 0.257, 1
18314, -1.578, -0.747, 0.577, 1.095, 2.805, 0.37, 1
18334, -2.199, -0.038, 0.116, 1.375, 3.742, 0.568, 1
18354, -1.151, -0.738, 0.795, 1.836, 4.856, 0.697, 1
18374, 0.59, -1.374, 1.604, 1.922, 4.976, 0.56, 1
18394, 1.658, -1.51, 1.386, 1.594, 4.28, 0.451, 1
18414, 0.628, -0.896, 0.04, 1.161, 3.671, 0.584, 1
18434, 0.203, 0.303, -0.915, 1.075, 3.751, 0.744, 1
18454, 0.06, -0.647, 0.489, 1.359, 4.022, 1.073, 1
18474, 2.658, -1.959, 2.228, 0.859, 2.563, 0.72, 1
18494, -0.381, -0.79, 1.193, -0.252, -0.088, 0.333, 1
18514, -2.086, 0.872, -0.328, -0.612, -0.717, -0.042, 1
18534, -2.677, 0.612, -0.63, -0.232, 0.08, 0.0, 1
18554, -0.926, -0.242, 0.232, 0.01, 0.816, -0.116, 1
18574, 0.634, -1.074, 0.944, -0.302, 0.635, -0.288, 1
18594, 0.457, -0.406, 0.174, -0.722, 0.174, -0.412, 1
18614, 0.261, 0.355, -1.09, -0.646, 0.346, -0.327, 1
18634, 0.136, 0.53, -1.332, -0.301, 0.821, -0.193, 1
18654, 0.586, 0.007, -0.688, -0.083, 0.979, -0.208, 1
18674, 0.409, -0.373, -0.332, -0.077, 0.507, -0.289, 1
18694, 0.199, -0.306, -0.567, -0.104, 0.43, -0.252, 1
18714, -0.204, 0.071, -0.904, -0.085, 0.713, -0.126, 1
18734, -0.421, 0.542, -0.873, 0.098, 0.913, -0.001, 1
18754, 0.473, -0.174, -0.359, 0.106, 0.57, -0.029, 1
18774, 0.299, 0.025, -0.268, -0.051, 0.152, -0.031, 1
18794, -0.588, 0.822, -0.489, -0.062, 0.21, 0.003, 1
18814, -0.535, 0.683, -0.074, -0.08, 0.312, -0.023, 1
18834, -0.537, 0.618, 0.281, -0.097, 0.252, -0.072, 1
18854, -0.007, 0.726, 0.361, 0.054, 0.091, -0.065, 1
18874, -0.073, 0.305, 0.475, 0.098, -0.048, -0.012, 1
18894, -0.193, 0.208, 0.424, 0.021, -0.058, -0.001, 1
18914, -0.114, 0.39, 0.046, 0.049, -0.079, 0.04, 1
18934, -0.129, 0.072, -0.014, 0.163, -0.176, 0.029, 1
18954, -0.124, -0.142, -0.027, 0.274, -0.279, 0.019, 1
18974, -0.181, -0.676, 0.131, 0.155, -0.193, -0.01, 1
18994, -0.06, -0.984, 0.479, -0.171, -0.142, 0.054, 1
19014, 0.045, -1.13, 0.381, -0.444, -0.206, 0.115, 1
19034, -0.249, -0.874, -0.292, -0.321, -0.214, -0.05, 1
19054, -0.208, -0.958, -0.503, -0.113, -0.158, -0.055, 1
19074, 0.044, -1.016, -0.273, -0.145, -0.105, 0.099, 1
19094, 0.159, -1.358, -0.068, -0.444, -0.052, 0.23, 1
19114, -0.209, -0.933, -0.558, -0.377, 0.101, 0.231, 1
19134, 0.087, -0.599, -0.897, -0.09, 0.03, 0.028, 1
19154, 0.406, -0.323, -0.89, 0.257, -0.174, 0.0, 1
19174, -0.297, -0.149, 0.133, 0.165, 0.201, 0.1, 1
19194, -0.165, -0.239, 0.508, -0.048, 0.326, 0.122, 1
19214, -0.044, 0.002, 0.208, -0.221, 0.197, 0.121, 1
19234, 0.125, -0.108, 0.176, -0.243, 0.037, 0.13, 1
19254, -0.284, 0.097, 0.123, -0.264, 0.01, 0.225, 1
19274, -0.402, 0.087, 0.169, -0.127, 0.203, 0.286, 1
19294, 0.056, -0.379, 0.573, -0.1, 0.259, 0.293, 1
19314, 0.18, -0.279, 0.542, -0.257, 0.031, 0.219, 1
19334, -0.308, 0.101, 0.117, -0.245, -0.121, 0.183, 1
19354, -0.404, -0.061, 0.098, -0.074, -0.036, 0.196, 1
19374, -0.53, -0.227, 0.228, -0.042, 0.091, 0.23, 1
19394, -0.09, -0.423, 0.28, -0.185, 0.193, 0.209, 1
19414, -0.334, -0.205, -0.26, -0.314, 0.028, 0.207, 1
19434, -0.377, 0.034, -0.736, -0.287, -0.047, 0.095, 1
19454, -0.254, -0.103, -0.824, -0.172, -0.095, 0.092, 1
19474, -0.286, -0.269, -0.841, -0.032, -0.135, 0.124, 1
19494, -0.238, -0.436, -0.788, -0.001, -0.08, 0.107, 1
19514, -0.247, -0.388, -0.912, -0.061, 0.11, 0.02, 1
19534, 0.147, -0.326, -0.87, -0.172, 0.106, -0.009, 1
19554, -0.085, -0.035, -1.106, -0.177, 0.0, 0.04, 1
19574, 0.114, -0.373, -0.838, -0.089, 0.005, 0.017, 1
19594, 0.183, -0.339, -0.856, -0.213, 0.002, 0.015, 1
19614, 0.049, -0.044, -0.924, -0.203, 0.111, 0.01, 1
19634, 0.273, -0.111, -0.659, -0.127, 0.145, 0.026, 1
19654, 0.099, 0.014, -0.581, -0.034, -0.039, 0.024, 1
19674, -0.087, -0.035, -0.353, -0.02, 0.041, -0.001, 1
19694, -0.114, 0.056, -0.218, -0.018, 0.095, 0.018, 1
19714, -0.066, 0.052, -0.151, -0.003, 0.09, 0.0, 1
19734, -0.063, 0.13, -0.222, 0.1, -0.014, -0.109, 1
19754, -0.133, 0.176, -0.204, 0.185, -0.054, -0.102, 1
19774, -0.286, 0.052, 0.118, 0.117, 0.069, -0.033, 1
19794, 0.034, -0.098, 0.288, -0.045, 0.029, -0.045, 1
19814, -0.007, -0.009, 0.079, -0.082, -0.029, -0.053, 1
19834, -0.066, -0.155, 0.257, -0.103, 0.024, -0.022, 1
19854, -0.116, -0.115, 0.374, -0.17, 0.058, -0.001, 1
19874, -0.149, 0.025, 0.33, -0.122, 0.053, 0.015, 1
19894, -0.162, -0.311, 0.575, -0.229, 0.086, -0.009, 1
19914, -0.034, -0.066, 0.307, -0.234, 0.078, -0.082, 1
19934, 0.095, 0.268, -0.117, 0.02, -0.002, -0.094, 1
19954, 0.141, -0.025, 0.014, 0.131, -0.012, -0.059, 1
19974, 0.092, -0.418, 0.402, -0.033, 0.064, -0.063, 1
19994, 0.464, -0.279, 0.247, -0.17, -0.04, -0.019, 1
20014, 0.06, 0.006, -0.126, -0.101, -0.027, -0.018, 1
20034, 0.17, -0.153, -0.222, -0.062, 0.008, -0.023, 1
20054, 0.337, -0.181, -0.064, -0.158, -0.006, 0.001, 1
20074, 0.038, -0.093, -0.153, -0.261, 0.087, 0.05, 1
20094, -0.013, 0.057, -0.297, -0.238, 0.122, 0.082, 1
20114, 0.018, 0.023, -0.44, -0.177, 0.05, 0.025, 1
20134, -0.017, 0.015, -0.423, -0.119, 0.0, -0.015, 1
20154, -0.033, -0.071, -0.468, -0.063, 0.026, 0.039, 1
20174, -0.09, -0.288, -0.278, -0.075, 0.081, 0.073, 1
20194, -0.031, -0.267, -0.275, -0.118, 0.069, 0.076, 1
20214, -0.015, -0.197, -0.194, -0.158, 0.068, 0.088, 1
20234, -0.03, 0.028, -0.443, -0.139, 0.068, 0.062, 1
20254, -0.075, -0.209, -0.35, 0.03, -0.007, 0.053, 1
20274, -0.305, -0.23, -0.298, 0.037, 0.017, 0.087, 1
20294, -0.045, -0.124, -0.343, -0.009, 0.153, 0.149, 1
20314, 0.007, -0.04, -0.332, -0.029, 0.091, 0.119, 1
20334, -0.494, 0.246, -0.393, -0.062, 0.01, 0.127, 1
20354, -0.376, 0.134, -0.306, 0.012, 0.211, 0.152, 1
20374, 0.013, -0.07, -0.029, -0.034, 0.234, 0.107, 1
20394, 0.062, -0.041, -0.049, -0.098, 0.089, 0.017, 1
20414, 0.028, -0.033, -0.06, -0.113, 0.006, 0.019, 1
20434, 0.028, -0.17, 0.117, -0.146, 0.047, 0.048, 1
20454, -0.007, -0.039, 0.019, -0.164, 0.008, 0.085, 1
20474, -0.189, 0.037, 0.076, -0.128, 0.027, 0.059, 1
20494, -0.038, 0.171, -0.143, -0.049, 0.01, 0.03, 1
20514, -0.019, -0.03, -0.198, 0.095, -0.026, 0.021, 1
20534, -0.096, -0.253, 0.04, 0.053, 0.016, 0.017, 1
20554, -0.071, -0.259, -0.055, -0.103, 0.104, 0.048, 1
20574, 0.007, 0.008, -0.343, -0.208, 0.122, 0.043, 1
20594, -0.095, 0.1, -0.601, -0.113, 0.063, 0.063, 1
20614, 0.0, -0.091, -0.363, -0.016, 0.046, 0.014, 1
20634, -0.009, -0.039, -0.302, -0.009, -0.017, 0.015, 1
20654, -0.057, -0.159, -0.153, -0.064, 0.087, 0.044, 1
20674, 0.089, -0.147, -0.064, -0.123, 0.071, 0.044, 1
20694, -0.071, 0.112, -0.321, -0.022, 0.019, 0.014, 1
20714, -0.146, 0.095, -0.35, 0.078, 0.105, 0.006, 1
20734, 0.145, -0.193, -0.015, -0.015, 0.07, 0.024, 1
20754, 0.081, -0.108, -0.025, -0.086, -0.006, 0.038, 1
20774, -0.069, -0.066, -0.171, -0.086, 0.024, 0.029, 1
20794, -0.013, -0.038, -0.121, -0.131, 0.059, 0.003, 1
20814, 0.129, 0.284, -0.31, 0.007, -0.036, 0.065, 1
20834, 0.089, 0.146, -0.311, 0.234, -0.104, 0.085, 1
20854, -0.035, -0.349, 0.005, 0.131, -0.065, 0.058, 1
20874, -0.16, -0.232, 0.301, -0.158, 0.063, 0.081, 1
20894, -0.11, -0.014, 0.162, -0.257, 0.1, 0.083, 1
20914, -0.077, 0.026, -0.183, -0.17, 0.08, 0.067, 1
20934, 0.023, 0.007, -0.311, -0.031, 0.04, 0.037, 1
20954, 0.039, -0.255, -0.231, -0.068, 0.047, 0.048, 1
20974, -0.02, -0.248, -0.122, -0.141, 0.108, 0.1, 1
20994, 0.014, -0.31, -0.013, -0.247, 0.077, 0.093, 1
21014, -0.092, 0.018, -0.279, -0.175, 0.002, 0.004, 1
21034, 0.027, 0.03, -0.321, -0.055, -0.036, -0.004, 1
21054, 0.025, -0.241, 0.003, -0.158, 0.012, 0.029, 1
21074, -0.122, 0.065, -0.213, -0.124, 0.045, 0.069, 1
21094, -0.066, -0.034, -0.251, -0.028, 0.027, 0.072, 1
21114, -0.035, -0.116, -0.22, -0.048, -0.033, -0.034, 1
21134, -0.001, -0.032, -0.113, -0.169, 0.0, -0.001, 1
21154, 0.003, 0.0, -0.243, -0.126, -0.02, 0.01, 0
21174, 0.101, -0.614, -0.152, -0.022, 0.029, -0.018, 0
21194, 0.196, -0.191, -0.093, -0.174, 0.064, 0.012, 0
21214, 0.018, -0.071, -0.074, -0.205, 0.045, 0.021, 0
21234, 0.003, -0.001, -0.303, -0.23, 0.048, 0.113, 0
21254, 0.021, 0.118, -0.63, -0.001, 0.007, 0.089, 0
21274, 0.179, -0.219, -0.381, 0.156, 0.03, 0.059, 0
21294, 0.364, -0.285, -0.303, 0.053, 0.053, 0.056, 0
21314, 0.362, 0.015, -0.521, -0.017, 0.015, 0.114, 0
21334, 0.294, -0.024, -0.573, 0.023, 0.006, 0.177, 0
21354, 0.522, 0.067, -0.762, 0.081, -0.009, 0.182, 0
21374, 0.751, 0.218, -0.834, 0.149, -0.062, 0.208, 0
21394, 0.852, -0.201, -0.425, 0.22, -0.051, 0.287, 0
21414, 0.772, -0.139, -0.193, 0.102, -0.032, 0.37, 0
21434, 0.643, 0.314, -0.356, 0.098, -0.014, 0.43, 0
21454, 0.876, 0.453, -0.225, 0.28, 0.044, 0.497, 0
21474, 1.33, 0.025, 0.59, 0.213, 0.09, 0.53, 0
21494, 1.337, -0.022, 0.835, -0.018, 0.121, 0.631, 0
21514, 1.346, 0.011, 0.773, -0.103, 0.163, 0.751, 0
21534, 1.19, 0.291, 0.632, 0.001, 0.161, 0.85, 0
21554, 0.775, 0.015, 1.085, 0.003, 0.272, 0.985, 0
21574, 0.538, -0.033, 1.213, -0.181, 0.269, 1.103, 0
21594, -0.195, 0.413, 0.961, -0.316, 0.195, 1.221, 0
21614, -0.503, 0.752, 0.967, -0.289, 0.194, 1.203, 0
21634, -0.706, 0.857, 1.003, -0.165, 0.201, 1.23, 0
21654, -0.787, 0.151, 1.641, -0.244, 0.274, 1.309, 0
21674, -0.982, -0.427, 2.25, -0.561, 0.244, 1.395, 0
21694, -1.63, 0.079, 2.055, -0.753, 0.133, 1.39, 0
21714, -2.924, 1.268, 1.531, -0.646, 0.164, 1.27, 0
21734, -3.454, 1.178, 1.867, -0.578, 0.273, 1.17, 0
21754, -3.582, 0.028, 2.535, -0.775, 0.255, 1.025, 0
21774, -3.969, -0.024, 2.156, -0.974, 0.32, 0.912, 0
21794, -3.782, 0.227, 1.424, -1.072, 0.391, 0.799, 0
21814, -3.699, 0.1, 0.825, -1.163, 0.32, 0.72, 0
21834, -3.79, 0.122, 0.009, -1.151, 0.205, 0.633, 0
21854, -4.269, 0.204, -0.692, -1.14, 0.192, 0.503, 0
21874, -4.457, 0.331, -0.955, -1.078, 0.18, 0.304, 0
21894, -4.447, 0.156, -0.818, -1.112, 0.059, 0.102, 0
21914, -4.852, 0.403, -1.121, -1.138, 0.105, -0.028, 0
21934, -4.642, 0.357, -1.542, -1.171, 0.224, -0.196, 0
21954, -4.226, 0.31, -1.937, -1.128, 0.286, -0.383, 0
21974, -3.944, 0.426, -2.256, -0.926, 0.315, -0.621, 0
21994, -3.387, 0.019, -2.092, -0.867, 0.327, -0.783, 0
22014, -2.84, -0.211, -2.364, -0.924, 0.332, -0.915, 0
22034, -2.014, -0.079, -3.15, -0.875, 0.333, -0.989, 0
22054, -1.91, 0.203, -3.462, -0.64, 0.383, -1.124, 0
22074, -1.532, -0.058, -2.833, -0.553, 0.367, -1.227, 0
22094, -0.471, -0.085, -3.124, -0.469, 0.477, -1.275, 0
22114, -0.647, 0.47, -2.968, -0.309, 0.6, -1.266, 0
22134, 0.1, 0.378, -2.602, -0.095, 0.615, -1.458, 0
22154, 0.6, 0.335, -2.993, -0.102, 0.37, -1.467, 0
22174, 0.56, 0.561, -3.089, 0.036, 0.385, -1.412, 0
22194, 1.206, 0.267, -2.753, 0.178, 0.507, -1.332, 0
22214, 1.759, 0.237, -2.888, 0.215, 0.309, -1.319, 0
22234, 1.317, 0.385, -3.065, 0.384, 0.221, -1.229, 0
22254, 1.687, 0.333, -2.57, 0.599, 0.367, -1.208, 0
22274, 2.447, -0.176, -2.031, 0.681, 0.227, -1.152, 0
22294, 1.886, -0.089, -2.028, 0.585, 0.089, -0.995, 0
22314, 1.64, 0.179, -1.975, 0.693, 0.243, -0.923, 0
22334, 1.993, 0.032, -1.595, 0.853, 0.252, -0.874, 0
22354, 2.195, -0.24, -1.276, 0.838, 0.128, -0.777, 0
22374, 1.946, -0.066, -1.255, 0.818, 0.063, -0.631, 0
22394, 1.418, 0.322, -1.091, 0.926, 0.121, -0.469, 0
22414, 1.351, 0.345, -0.468, 1.011, 0.103, -0.414, 0
22434, 1.085, 0.216, -0.015, 1.011, 0.027, -0.298, 0
22454, 0.788, 0.1, 0.264, 0.994, 0.109, -0.172, 0
22474, 0.718, 0.2, 0.427, 0.988, 0.18, -0.036, 0
22494, 0.608, 0.13, 0.668, 1.036, 0.122, 0.009, 0
22514, 0.54, -0.003, 1.037, 1.04, -0.006, 0.085, 0
22534, 0.298, 0.102, 1.25, 0.929, -0.027, 0.199, 0
22554, 0.243, 0.214, 1.438, 0.788, -0.054, 0.304, 0
22574, 0.085, -0.001, 1.625, 0.569, -0.169, 0.41, 0
22594, -0.218, 0.177, 1.467, 0.574, -0.186, 0.411, 0
22614, 0.289, -0.142, 1.741, 0.537, -0.161, 0.496, 0
22634, 0.432, -0.446, 2.184, 0.393, -0.212, 0.64, 0
22654, -0.237, -0.65, 2.19, 0.307, -0.131, 0.765, 0
22674, -0.481, -0.795, 2.255, 0.134, -0.058, 0.82, 0
22694, -0.897, -0.333, 2.093, -0.02, -0.03, 0.782, 0
22714, -1.065, 0.086, 1.872, -0.109, -0.02, 0.825, 0
22734, -0.965, -0.064, 1.639, -0.327, 0.009, 0.837, 0
22754, -1.249, 0.153, 1.061, -0.411, 0.009, 0.899, 0
22774, -1.651, -0.027, 0.524, -0.361, -0.03, 0.864, 0
22794, -1.882, 0.003, 0.373, -0.306, -0.154, 0.805, 0
22814, -2.39, 0.032, 0.317, -0.307, -0.145, 0.808, 0
22834, -2.975, -0.016, 0.023, -0.261, -0.055, 0.788, 0
22854, -3.092, -0.173, -0.007, -0.255, 0.008, 0.681, 0
22874, -2.966, -0.22, -0.047, -0.277, -0.078, 0.543, 0
22894, -2.979, -0.156, -0.128, -0.291, -0.066, 0.473, 0
22914, -2.908, -0.026, -0.367, -0.184, 0.009, 0.405, 0
22934, -2.201, -0.278, -0.486, -0.11, -0.074, 0.293, 0
22954, -1.743, -0.037, -0.663, -0.003, -0.201, 0.175, 0
22974, -1.537, -0.017, -0.612, 0.17, -0.26, 0.13, 1
22994, -1.483, 0.068, -0.648, 0.509, -0.332, 0.128, 1
23014, -1.641, 0.278, -0.686, 0.833, -0.254, 0.108, 1
23034, -1.227, -0.616, -0.211, 0.63, -0.071, 0.044, 1
23054, -0.718, -1.311, 0.554, -0.291, 0.051, 0.095, 1
23074, -0.723, 0.004, -0.699, -0.353, -0.083, 0.022, 1
23094, -0.78, 0.014, -0.717, -0.091, -0.06, 0.0, 1
23114, -0.408, -0.326, -0.235, 0.057, 0.007, -0.006, 1
23134, -0.356, -0.549, 0.048, -0.018, 0.004, 0.012, 1
23154, -0.479, -0.281, -0.039, -0.171, 0.024, 0.012, 1
23174, -0.401, -0.091, -0.295, -0.141, 0.04, -0.023, 1
23194, -0.185, -0.173, -0.276, -0.035, 0.025, -0.056, 1
23214, -0.003, -0.277, -0.198, -0.019, 0.018, -0.042, 1
23234, 0.216, -0.427, -0.169, -0.066, -0.006, -0.004, 1
23254, 0.114, -0.225, -0.316, -0.105, -0.063, -0.003, 1
23274, -0.109, -0.141, -0.318, -0.053, -0.015, 0.018, 1
23294, 0.026, -0.258, 0.013, -0.029, 0.091, 0.032, 1
23314, 0.048, -0.208, 0.1, -0.151, 0.069, 0.032, 1
23334, -0.054, -0.028, -0.201, -0.218, -0.001, 0.015, 1
23354, -0.177, 0.006, -0.358, -0.165, 0.033, 0.059, 1
23374, -0.154, -0.034, -0.369, -0.112, 0.089, 0.061, 1
23394, -0.033, -0.038, -0.242, -0.087, 0.096, 0.048, 1
23414, -0.06, -0.058, -0.135, -0.127, 0.051, 0.038, 1
23434, -0.12, 0.118, -0.311, -0.131, 0.058, 0.049, 1
23454, -0.05, 0.074, -0.369, -0.043, 0.072, 0.045, 1
23474, 0.03, -0.144, -0.084, -0.018, 0.031, 0.015, 1
23494, 0.003, -0.205, 0.12, -0.135, 0.024, 0.007, 1
23514, -0.03, -0.066, 0.061, -0.198, 0.033, -0.015, 1
23534, -0.007, -0.027, -0.104, -0.148, 0.04, -0.009, 1
23554, 0.09, -0.156, -0.112, -0.095, 0.11, -0.005, 1
23574, 0.265, -0.239, -0.072, -0.11, 0.046, 0.019, 1
23594, 0.045, -0.112, -0.18, -0.101, 0.006, 0.033, 1
23614, -0.125, -0.141, -0.113, -0.121, 0.073, 0.037, 1
23634, 0.058, -0.059, -0.063, -0.15, 0.023, 0.026, 1
23654, 0.005, -0.028, -0.15, -0.127, -0.009, 0.034, 1
23674, -0.14, 0.046, -0.199, -0.061, 0.023, 0.045, 1
23694, -0.193, -0.062, -0.092, -0.127, 0.09, 0.027, 1
23714, -0.014, -0.046, -0.081, -0.211, 0.078, 0.024, 1
23734, 0.047, -0.016, -0.295, -0.153, 0.034, 0.037, 1
23754, -0.103, -0.137, -0.247, -0.106, 0.049, 0.047, 1
23774, -0.077, -0.22, -0.003, -0.179, 0.082, 0.057, 1
23794, -0.046, -0.064, -0.189, -0.21, 0.088, 0.039, 1
23814, 0.035, 0.006, -0.335, -0.141, 0.041, 0.029, 1
23834, -0.001, -0.007, -0.344, -0.076, 0.011, 0.037, 1
23854, 0.022, -0.049, -0.216, -0.06, -0.015, 0.044, 1
23874, -0.063, -0.118, -0.178, -0.058, -0.021, 0.051, 1
23894, -0.249, -0.159, -0.13, -0.061, 0.026, 0.039, 1
23914, 0.013, -0.01, -0.121, -0.014, -0.045, 0.005, 1
23934, 0.042, -0.116, -0.044, -0.038, -0.118, -0.034, 1
23954, -0.095, -0.215, 0.189, -0.187, -0.053, -0.045, 1
23974, -0.035, 0.043, -0.103, -0.215, -0.026, 0.001, 1
23994, -0.018, 0.472, -0.73, 0.078, -0.08, -0.003, 0
24014, -0.072, 0.152, -0.623, 0.28, -0.011, 0.003, 0
24034, 0.323, -0.052, -0.376, 0.082, -0.05, 0.049, 0
24054, 0.203, -0.06, -0.198, -0.178, -0.006, 0.07, 0
24074, 0.4, 0.258, -0.756, 0.04, -0.081, 0.138, 0
24094, 0.493, 0.167, -0.816, 0.502, -0.162, 0.199, 0
24114, 0.785, -0.823, 0.062, 0.634, -0.08, 0.243, 0
24134, 1.222, -0.977, 0.431, 0.208, -0.015, 0.351, 0
24154, 1.132, -0.379, 0.097, -0.125, -0.049, 0.412, 0
24174, 0.745, 0.547, -0.4, -0.032, -0.023, 0.432, 0
24194, 0.906, 0.738, -0.167, 0.4, 0.072, 0.453, 0
24214, 1.682, -0.143, 1.119, 0.479, 0.134, 0.481, 0
24234, 2.323, 0.202, 1.42, 0.008, 0.029, 0.606, 0
24254, 1.794, 0.749, 0.999, -0.192, -0.033, 0.726, 0
24274, 1.699, 0.995, 1.018, -0.093, 0.025, 0.805, 0
24294, 1.314, 0.716, 1.399, 0.048, -0.052, 0.949, 0
24314, 0.48, 0.25, 1.935, -0.028, -0.04, 1.072, 0
24334, 0.104, 0.093, 2.51, -0.244, 0.075, 1.236, 0
24354, -0.2, -0.134, 3.157, -0.392, 0.028, 1.295, 0
24374, -1.016, -0.44, 3.44, -0.597, -0.105, 1.357, 0
24394, -2.445, -0.099, 3.231, -0.756, 0.103, 1.458, 0
24414, -2.973, 0.232, 3.084, -0.89, 0.488, 1.478, 0
24434, -3.541, 0.514, 2.746, -1.204, 0.543, 1.332, 0
24454, -4.503, 1.2, 1.613, -1.494, 0.502, 1.165, 0
24474, -4.799, 1.258, 0.608, -1.448, 0.54, 0.959, 0
24494, -4.719, 0.967, 0.104, -1.433, 0.576, 0.733, 0
24514, -4.678, 0.475, -0.299, -1.488, 0.508, 0.456, 0
24534, -4.841, 0.254, -0.663, -1.522, 0.464, 0.313, 0
24554, -5.382, 0.578, -1.25, -1.425, 0.475, 0.058, 0
24574, -5.559, 0.363, -1.487, -1.326, 0.53, -0.208, 0
24594, -4.963, -0.015, -1.787, -1.339, 0.452, -0.391, 0
24614, -5.117, 0.231, -2.522, -1.238, 0.541, -0.557, 0
24634, -4.894, 0.29, -2.752, -1.028, 0.675, -0.844, 0
24654, -3.756, -0.001, -2.719, -1.053, 0.591, -1.035, 0
24674, -2.979, -0.189, -3.078, -1.077, 0.493, -1.19, 0
24694, -2.874, 0.524, -3.772, -0.846, 0.589, -1.258, 0
24714, -2.579, 0.394, -3.574, -0.544, 0.762, -1.455, 0
24734, -0.957, -0.18, -3.223, -0.534, 0.591, -1.607, 0
24754, -0.49, 0.316, -3.587, -0.391, 0.54, -1.615, 0
24774, -0.43, 0.816, -3.459, -0.054, 0.689, -1.614, 0
24794, 0.694, 0.206, -2.876, -0.032, 0.572, -1.631, 0
24814, 1.768, 0.139, -3.211, -0.023, 0.363, -1.583, 0
24834, 1.861, 0.294, -3.523, 0.177, 0.419, -1.489, 0
24854, 1.785, 0.427, -2.994, 0.367, 0.464, -1.4, 0
24874, 2.158, 0.255, -2.307, 0.412, 0.297, -1.29, 0
24894, 1.928, 0.354, -2.209, 0.445, 0.249, -1.154, 0
24914, 1.727, 0.468, -2.086, 0.612, 0.464, -1.04, 0
24934, 2.322, -0.006, -1.55, 0.637, 0.354, -0.921, 0
24954, 2.002, 0.003, -1.475, 0.645, 0.224, -0.842, 0
24974, 1.983, 0.05, -1.352, 0.693, 0.24, -0.729, 0
24994, 2.115, -0.04, -1.222, 0.664, 0.128, -0.441, 0
25014, 1.493, 0.616, -1.05, 0.907, 0.119, -0.318, 0
25034, 1.484, 0.251, -0.776, 0.963, 0.068, -0.243, 0
25054, 1.056, 0.756, -0.849, 0.912, 0.001, -0.136, 0
25074, 0.93, 0.695, -0.558, 0.978, -0.001, -0.031, 0
25094, 0.66, 0.335, -0.089, 1.004, -0.069, 0.042, 0
25114, 0.465, 0.395, 0.066, 0.943, -0.072, 0.102, 0
25134, 0.502, 0.655, 0.18, 0.94, -0.042, 0.179, 0
25154, 0.62, 0.37, 0.665, 0.964, -0.053, 0.289, 0
25174, 0.438, 0.153, 0.988, 0.926, -0.258, 0.35, 0
25194, -0.369, 0.367, 0.948, 0.998, -0.42, 0.412, 0
25214, -0.58, 0.079, 1.362, 1.079, -0.299, 0.464, 0
25234, -0.399, -0.09, 1.725, 0.91, -0.161, 0.509, 0
25254, -0.316, -0.409, 1.901, 0.765, -0.173, 0.543, 0
25274, -0.38, -0.407, 2.102, 0.649, -0.223, 0.61, 0
25294, -0.593, -0.656, 2.368, 0.536, -0.202, 0.679, 0
25314, -0.661, -0.64, 2.317, 0.306, -0.198, 0.693, 0
25334, -0.712, -0.567, 2.078, 0.183, -0.176, 0.734, 0
25354, -0.727, -0.652, 1.847, 0.122, -0.106, 0.801, 0
25374, -1.053, -0.617, 1.665, 0.062, -0.089, 0.828, 0
25394, -1.099, -0.456, 1.661, -0.028, -0.128, 0.783, 0
25414, -1.536, -0.5, 1.492, -0.163, -0.22, 0.78, 0
25434, -2.264, -0.254, 1.136, -0.234, -0.111, 0.819, 0
25454, -2.303, -0.014, 0.944, -0.171, 0.029, 0.831, 0
25474, -2.554, -0.205, 0.889, -0.13, -0.048, 0.745, 0
25494, -2.937, -0.215, 0.501, -0.29, -0.095, 0.508, 0
25514, -2.587, 0.012, 0.123, -0.381, -0.18, 0.427, 0
25534, -2.959, 0.482, -0.581, -0.28, -0.064, 0.395, 0
25554, -2.679, 0.11, -0.551, -0.124, 0.067, 0.298, 0
25574, -1.911, -0.462, -0.12, -0.107, -0.024, 0.171, 0
25594, -1.287, -0.634, -0.073, -0.142, -0.072, 0.124, 0
25614, -0.783, -0.595, -0.232, -0.128, -0.091, 0.113, 0
25634, -0.48, -0.223, -0.561, 0.082, -0.131, 0.124, 1
25654, -0.603, 0.053, -0.94, 0.367, -0.075, 0.122, 1
25674, -0.194, -0.039, -0.526, 0.387, -0.003, 0.12, 1
25694, -0.046, -0.78, 0.068, -0.021, 0.018, 0.097, 1
25714, -0.195, -0.46, 0.095, -0.32, -0.007, 0.083, 1
25734, -0.568, -0.05, -0.279, -0.297, -0.006, -0.026, 1
25754, -0.363, 0.08, -0.459, -0.145, -0.031, -0.098, 1
25774, -0.112, 0.0, -0.364, -0.061, 0.03, -0.064, 1
25794, 0.059, -0.36, -0.158, -0.12, 0.067, -0.033, 1
25814, 0.173, -0.54, -0.088, -0.24, 0.023, -0.006, 1
25834, 0.023, -0.235, -0.293, -0.253, 0.008, -0.004, 1
25854, -0.061, 0.029, -0.456, -0.094, 0.044, 0.022, 1
25874, 0.004, -0.126, -0.23, -0.026, 0.087, 0.037, 1
25894, 0.065, -0.352, -0.006, -0.084, 0.05, 0.044, 1
25914, -0.021, -0.253, -0.086, -0.131, 0.049, 0.03, 1
25934, -0.041, -0.01, -0.328, -0.094, 0.048, 0.013, 1
25954, 0.018, -0.066, -0.317, -0.047, 0.014, 0.018, 1
25974, -0.113, -0.146, -0.194, -0.103, 0.05, 0.067, 1
25994, -0.083, 0.008, -0.202, -0.149, 0.046, 0.042, 1
26014, -0.12, 0.012, -0.371, -0.106, -0.005, 0.014, 1
26034, -0.076, -0.058, -0.249, -0.028, 0.02, 0.02, 1
26054, 0.045, -0.224, 0.035, -0.061, 0.072, 0.043, 1
26074, 0.036, -0.127, 0.016, -0.163, 0.043, 0.045, 1
26094, -0.003, -0.036, -0.086, -0.172, 0.045, 0.038, 1
26114, -0.034, -0.032, -0.163, -0.121, 0.08, 0.051, 1
26134, -0.01, -0.025, -0.197, -0.091, 0.074, 0.054, 1
26154, -0.021, -0.03, -0.169, -0.087, 0.015, 0.02, 1
26174, -0.036, -0.123, -0.124, -0.116, -0.021, 0.01, 1
26194, -0.135, -0.068, -0.196, -0.125, 0.051, 0.05, 1
26214, 0.105, -0.157, -0.124, -0.104, 0.105, 0.062, 1
26234, -0.013, -0.036, -0.123, -0.105, 0.023, 0.048, 1
26254, -0.039, -0.041, -0.059, -0.111, -0.012, 0.017, 1
26274, -0.163, -0.088, -0.015, -0.098, 0.03, 0.034, 1
26294, -0.03, -0.051, -0.026, -0.104, 0.086, 0.049, 1
26314, -0.009, -0.029, -0.061, -0.134, 0.058, 0.03, 1
26334, -0.127, 0.037, -0.188, -0.139, 0.04, 0.01, 1
26354, -0.07, -0.006, -0.208, -0.089, 0.059, 0.004, 1
26374, 0.014, -0.198, -0.081, -0.097, 0.079, 0.014, 1
26394, 0.05, -0.127, -0.088, -0.162, 0.048, 0.0, 1
26414, 0.029, -0.137, -0.166, -0.169, 0.007, -0.014, 1
26434, -0.002, -0.042, -0.307, -0.189, 0.043, 0.007, 1
26454, 0.099, -0.038, -0.369, -0.119, 0.078, 0.023, 1
26474, 0.068, -0.08, -0.141, -0.137, -0.018, 0.012, 1
26494, -0.077, -0.05, -0.094, -0.188, 0.012, 0.017, 1
26514, -0.141, -0.042, -0.214, -0.163, 0.035, -0.006, 1
26534, 0.05, 0.176, -0.357, -0.037, -0.048, -0.05, 1
26554, 0.038, -0.062, -0.22, -0.01, -0.044, -0.051, 1
26574, 0.069, -0.23, -0.084, -0.074, -0.034, -0.06, 1
26594, 0.233, -0.457, 0.121, -0.262, -0.072, -0.075, 1
26614, 0.06, -0.009, -0.186, -0.332, -0.084, -0.017, 1
26634, -0.032, 0.357, -0.79, -0.084, 0.017, 0.072, 0
26654, 0.347, -0.057, -1.053, 0.139, 0.031, 0.056, 0
26674, 0.761, -0.243, -0.699, 0.13, -0.136, 0.029, 0
26694, 0.393, -0.079, -0.641, 0.147, -0.204, 0.08, 0
26714, 0.323, -0.402, 0.171, -0.102, -0.081, 0.191, 0
26734, 0.052, 0.218, -0.148, 0.039, -0.034, 0.328, 0
26754, 0.028, 0.111, -0.118, 0.313, 0.059, 0.418, 0
26774, 0.169, -0.249, 0.112, 0.335, 0.189, 0.444, 0
26794, 0.838, -0.745, 0.463, 0.015, 0.221, 0.548, 0
26814, 0.709, -0.48, 0.16, -0.247, 0.257, 0.671, 0
26834, 0.585, 0.191, -0.396, -0.188, 0.254, 0.742, 0
26854, 0.709, 0.63, -0.651, 0.141, 0.1, 0.673, 0
26874, 0.917, 0.385, -0.035, 0.18, -0.094, 0.733, 0
26894, 0.621, 0.556, 0.434, 0.152, -0.061, 0.8, 0
26914, 0.448, 0.501, 0.992, 0.15, 0.025, 0.888, 0
26934, 0.214, 0.116, 1.656, 0.073, -0.003, 0.948, 0
26954, -0.11, 0.254, 1.797, 0.153, -0.138, 0.785, 0
26974, -1.208, 0.49, 2.538, -0.097, -0.095, 0.838, 0
26994, -1.476, 0.324, 2.67, -0.383, 0.238, 0.922, 0
27014, -1.301, 0.088, 2.752, -0.588, 0.329, 0.951, 0
27034, -1.685, -0.011, 2.676, -0.756, 0.263, 0.981, 0
27054, -2.167, -0.172, 2.587, -0.89, 0.347, 0.994, 0
27074, -2.394, -0.238, 2.317, -1.052, 0.472, 0.991, 0
27094, -2.617, -0.067, 1.707, -1.208, 0.479, 0.946, 0
27114, -2.962, 0.082, 1.169, -1.251, 0.431, 0.84, 0
27134, -3.583, -0.096, 0.819, -1.309, 0.42, 0.764, 0
27154, -4.059, -0.111, 0.502, -1.331, 0.379, 0.626, 0
27174, -4.026, -0.184, 0.155, -1.434, 0.299, 0.428, 0
27194, -4.024, -0.079, -0.319, -1.522, 0.222, 0.257, 0
27214, -4.006, -0.191, -0.496, -1.447, 0.273, 0.111, 0
27234, -3.983, -0.374, -0.393, -1.383, 0.282, -0.043, 0
27254, -4.105, -0.085, -0.486, -1.41, 0.273, -0.252, 0
27274, -4.685, 0.47, -0.537, -1.37, 0.321, -0.471, 0
27294, -5.028, 0.577, -0.371, -1.204, 0.618, -0.714, 0
27314, -3.229, -0.218, -1.081, -1.245, 0.767, -1.036, 0
27334, -2.175, 0.066, -2.596, -1.37, 0.746, -1.182, 0
27354, -1.353, 0.253, -3.32, -1.203, 0.813, -1.299, 0
27374, -1.18, 0.321, -3.66, -1.055, 0.791, -1.374, 0
27394, -0.619, 0.138, -4.081, -0.915, 0.763, -1.436, 0
27414, 0.687, -0.291, -4.598, -0.785, 0.66, -1.469, 0
27434, 0.511, -0.07, -4.62, -0.383, 0.543, -1.364, 0
27454, -0.028, 0.267, -4.05, -0.111, 0.661, -1.362, 0
27474, 0.54, 0.182, -3.819, -0.046, 0.569, -1.394, 0
27494, 0.726, 0.498, -3.846, 0.085, 0.514, -1.338, 0
27514, 0.735, 0.656, -3.409, 0.271, 0.494, -1.313, 0
27534, 1.064, 0.553, -2.826, 0.367, 0.402, -1.298, 0
27554, 0.933, 0.536, -2.492, 0.474, 0.397, -1.233, 0
27574, 1.017, 0.542, -2.067, 0.613, 0.475, -1.173, 0
27594, 2.191, -0.038, -1.779, 0.528, 0.344, -1.052, 0
27614, 2.206, 0.123, -2.167, 0.565, 0.213, -0.875, 0
27634, 1.213, 0.626, -2.013, 0.864, 0.351, -0.766, 0
27654, 1.459, 0.578, -1.302, 0.979, 0.323, -0.664, 0
27674, 1.47, 0.419, -0.9, 0.954, 0.232, -0.577, 0
27694, 1.48, 0.371, -0.582, 0.931, 0.147, -0.486, 0
27714, 1.236, 0.627, -0.632, 0.95, 0.059, -0.381, 0
27734, 1.095, 0.974, -0.734, 1.058, 0.048, -0.271, 0
27754, 1.194, 0.834, -0.328, 1.085, 0.081, -0.164, 0
27774, 1.124, 0.678, 0.072, 1.039, 0.07, -0.071, 0
27794, 1.139, 0.459, 0.342, 0.952, -0.007, 0.051, 0
27814, 0.915, 0.57, 0.431, 0.934, -0.081, 0.142, 0
27834, 0.443, 0.607, 0.626, 1.008, -0.052, 0.22, 0
27854, 0.16, 0.256, 1.168, 0.943, -0.004, 0.303, 0
27874, 0.016, -0.008, 1.413, 0.818, 0.0, 0.398, 0
27894, -0.065, -0.217, 1.43, 0.712, -0.018, 0.51, 0
27914, -0.671, 0.162, 1.274, 0.718, 0.043, 0.623, 0
27934, -0.443, 0.05, 1.543, 0.703, -0.155, 0.656, 0
27954, -0.481, -0.619, 1.617, 0.544, -0.323, 0.689, 0
27974, -0.582, -0.446, 1.619, 0.461, -0.353, 0.723, 0
27994, -0.932, -0.27, 1.518, 0.42, -0.277, 0.787, 0
28014, -0.824, -0.515, 1.538, 0.37, -0.106, 0.799, 0
28034, -0.439, -0.731, 1.573, 0.259, -0.12, 0.767, 0
28054, -0.399, -0.699, 1.362, 0.084, -0.186, 0.777, 0
28074, -0.359, -0.314, 0.848, -0.029, -0.166, 0.824, 0
28094, -0.559, -0.132, 0.599, 0.015, -0.141, 0.858, 0
28114, -0.762, -0.234, 0.75, 0.05, -0.124, 0.894, 0
28134, -1.19, -0.347, 1.009, -0.041, -0.113, 0.922, 0
28154, -1.604, -0.243, 0.866, -0.154, -0.127, 0.899, 0
28174, -1.967, -0.408, 0.682, -0.19, -0.091, 0.857, 0
28194, -2.365, -0.233, 0.595, -0.149, -0.01, 0.816, 0
28214, -2.558, -0.267, 0.713, -0.117, 0.084, 0.761, 0
28234, -2.56, -0.517, 0.665, -0.248, 0.103, 0.643, 0
28254, -2.486, -0.335, 0.037, -0.357, 0.067, 0.534, 0
28274, -2.299, -0.149, -0.335, -0.259, 0.045, 0.453, 0
28294, -1.919, -0.148, -0.454, -0.162, 0.004, 0.352, 0
28314, -1.49, -0.191, -0.457, -0.06, -0.092, 0.236, 0
28334, -1.394, -0.456, -0.275, 0.036, -0.163, 0.189, 0
28354, -1.269, -0.641, -0.044, -0.062, -0.031, 0.146, 1
28374, -0.764, -0.4, -0.223, -0.193, 0.085, 0.105, 1
28394, -0.384, -0.012, -0.414, -0.185, 0.006, 0.042, 1
28414, -0.418, -0.356, -0.546, 0.018, 0.01, 0.042, 1
28434, -0.204, -0.447, -0.362, 0.016, 0.047, 0.047, 1
28454, 0.061, -0.623, -0.086, -0.188, 0.086, 0.065, 1
28474, -0.001, -0.364, -0.369, -0.261, 0.068, 0.078, 1
28494, -0.094, -0.013, -0.636, -0.115, 0.018, 0.065, 1
28514, -0.209, 0.072, -0.553, 0.045, -0.018, 0.024, 1
28534, -0.21, -0.069, -0.265, 0.032, 0.009, 0.003, 1
28554, 0.03, -0.286, -0.156, -0.089, 0.042, -0.002, 1
28574, 0.134, -0.249, -0.318, -0.15, 0.075, 0.041, 1
28594, 0.104, -0.157, -0.284, -0.12, 0.073, 0.053, 1
28614, 0.049, -0.09, -0.115, -0.096, 0.009, 0.041, 1
28634, -0.075, -0.019, -0.021, -0.063, 0.01, 0.039, 1
28654, -0.087, -0.153, 0.092, -0.108, 0.052, 0.039, 1
28674, -0.026, -0.156, 0.072, -0.174, 0.075, 0.039, 1
28694, 0.129, -0.064, -0.166, -0.177, 0.053, 0.041, 1
28714, 0.031, 0.04, -0.436, -0.076, 0.024, 0.05, 1
28734, -0.039, -0.174, -0.212, -0.065, 0.048, 0.063, 1
28754, -0.004, -0.124, -0.164, -0.09, -0.004, 0.065, 1
28774, -0.112, -0.019, -0.227, -0.085, 0.0, 0.058, 1
28794, -0.087, -0.035, -0.142, -0.115, 0.044, 0.044, 1
28814, -0.071, -0.007, -0.252, -0.059, 0.041, 0.038, 1
28834, 0.004, -0.17, -0.086, -0.099, 0.015, 0.04, 1
28854, -0.065, -0.052, -0.12, -0.104, 0.02, 0.031, 1
28874, -0.011, -0.021, -0.195, -0.094, 0.024, 0.014, 1
28894, -0.01, -0.04, -0.202, -0.095, 0.033, 0.021, 1
28914, -0.07, -0.118, -0.107, -0.121, 0.061, 0.025, 1
28934, -0.014, -0.037, -0.154, -0.127, 0.025, 0.006, 1
28954, -0.001, -0.038, -0.152, -0.1, -0.009, 0.003, 1
28974, -0.033, -0.021, -0.135, -0.065, 0.039, 0.025, 1
28994, -0.004, -0.015, -0.08, -0.083, 0.092, 0.026, 1
29014, -0.054, 0.017, -0.206, -0.113, 0.05, 0.0, 1
29034, 0.008, -0.083, -0.138, -0.068, 0.01, -0.017, 1
29054, 0.109, -0.239, 0.078, -0.092, 0.016, 0.0, 1
29074, -0.008, -0.073, -0.068, -0.133, 0.046, 0.025, 1
29094, -0.002, -0.065, -0.087, -0.113, 0.053, 0.043, 1
29114, -0.06, -0.012, -0.118, -0.12, 0.026, 0.043, 1
29134, -0.028, -0.016, -0.146, -0.12, 0.017, 0.03, 1
29154, -0.095, -0.056, -0.19, -0.089, 0.009, 0.03, 1
29174, -0.033, -0.086, -0.144, -0.073, 0.036, 0.037, 1
29194, 0.038, -0.135, 0.003, -0.122, 0.037, 0.023, 1
29214, -0.021, -0.013, -0.091, -0.199, 0.014, 0.023, 1
29234, -0.093, 0.034, -0.207, -0.175, 0.08, 0.031, 1
29254, -0.093, -0.128, -0.159, -0.188, 0.13, 0.0, 1
29274, 0.037, -0.021, -0.241, -0.267, 0.054, -0.106, 1
29294, 0.052, 0.197, -0.571, -0.227, -0.05, -0.125, 1
29314, 0.013, 0.276, -0.884, 0.02, -0.083, -0.097, 1
29334, 0.066, -0.46, -0.317, 0.245, -0.034, -0.094, 1
29354, 0.32, -0.513, -0.041, 0.036, -0.004, -0.009, 1
29374, 0.021, -0.083, -0.275, -0.139, -0.017, 0.039, 1
29394, -0.163, 0.12, -0.541, -0.032, -0.003, -0.03, 0
29414, 0.107, 0.187, -0.608, 0.304, -0.081, -0.052, 0
29434, -0.135, -0.34, -0.162, 0.275, 0.045, 0.006, 0
29454, 0.311, -0.736, 0.299, -0.082, 0.07, 0.08, 0
29474, 0.32, -0.247, -0.031, -0.12, -0.012, 0.156, 0
29494, 0.187, 0.031, -0.304, 0.156, 0.022, 0.218, 0
29514, 0.44, -0.363, -0.031, 0.189, 0.119, 0.23, 0
29534, 1.007, -0.838, 0.254, -0.114, 0.116, 0.313, 0
29554, 0.856, -0.412, -0.085, -0.267, 0.128, 0.433, 0
29574, 0.632, 0.126, -0.435, -0.142, 0.084, 0.42, 0
29594, 0.464, 0.489, -0.649, 0.141, 0.054, 0.507, 0
29614, 0.569, 0.081, -0.18, 0.201, 0.095, 0.566, 0
29634, 0.753, -0.37, 0.583, -0.092, 0.042, 0.629, 0
29654, 0.221, 0.419, 0.292, -0.138, 0.062, 0.714, 0
29674, -0.028, 0.474, 0.461, 0.008, 0.152, 0.756, 0
29694, 0.142, 0.137, 1.137, 0.028, 0.069, 0.737, 0
29714, 0.097, -0.099, 1.644, -0.107, -0.012, 0.778, 0
29734, -0.254, -0.053, 1.637, -0.272, 0.084, 0.89, 0
29754, -0.394, 0.133, 1.691, -0.455, 0.097, 0.949, 0
29774, -0.973, 0.721, 1.439, -0.46, 0.07, 0.919, 0
29794, -1.172, 0.849, 1.519, -0.41, 0.076, 0.849, 0
29814, -1.068, 0.32, 1.979, -0.546, 0.03, 0.866, 0
29834, -1.582, -0.039, 2.319, -0.749, 0.137, 0.88, 0
29854, -1.961, -0.03, 2.575, -0.953, 0.233, 0.817, 0
29874, -2.162, 0.08, 2.697, -1.103, 0.209, 0.646, 0
29894, -2.7, -0.381, 2.313, -1.196, 0.277, 0.563, 0
29914, -2.583, -0.344, 1.91, -1.348, 0.334, 0.488, 0
29934, -2.922, -0.012, 1.298, -1.458, 0.296, 0.406, 0
29954, -3.226, -0.233, 0.639, -1.474, 0.283, 0.285, 0
29974, -3.28, -0.298, -0.286, -1.563, 0.286, 0.144, 0
29994, -3.012, -0.046, -1.31, -1.557, 0.235, -0.009, 0
30014, -3.34, 0.146, -1.857, -1.469, 0.15, -0.138, 0
30034, -3.852, -0.129, -1.812, -1.297, 0.18, -0.29, 0
30054, -3.468, -0.63, -1.724, -1.216, 0.288, -0.483, 0
30074, -2.672, -0.504, -2.191, -1.28, 0.36, -0.679, 0
30094, -2.365, -0.093, -2.744, -1.183, 0.42, -0.806, 0
30114, -2.035, -0.014, -3.138, -1.024, 0.455, -0.935, 0
30134, -1.524, -0.007, -3.591, -0.814, 0.392, -1.104, 0
30154, -1.464, 0.13, -3.432, -0.649, 0.484, -1.164, 0
30174, -1.201, 0.356, -3.0, -0.534, 0.622, -1.257, 0
30194, -0.333, 0.3, -3.064, -0.495, 0.494, -1.42, 0
30214, -0.423, 0.452, -3.11, -0.365, 0.429, -1.445, 0
30234, 0.123, 0.344, -2.414, -0.221, 0.681, -1.458, 0
30254, 1.148, 0.311, -2.565, -0.246, 0.602, -1.469, 0
30274, 1.203, 0.746, -3.234, -0.164, 0.397, -1.444, 0
30294, 1.654, 0.555, -2.969, 0.133, 0.516, -1.403, 0
30314, 2.068, 0.364, -2.598, 0.272, 0.51, -1.222, 0
30334, 2.15, 0.375, -2.364, 0.334, 0.334, -1.107, 0
30354, 1.855, 0.284, -2.027, 0.423, 0.244, -0.994, 0
30374, 1.842, 0.318, -1.803, 0.544, 0.298, -0.868, 0
30394, 2.382, 0.014, -1.894, 0.558, 0.163, -0.703, 0
30414, 2.431, 0.05, -1.945, 0.599, 0.0, -0.57, 0
30434, 1.792, 0.449, -1.67, 0.758, -0.011, -0.419, 0
30454, 1.165, 0.286, -1.192, 0.871, 0.009, -0.345, 0
30474, 0.99, 0.324, -0.799, 0.888, -0.015, -0.331, 0
30494, 1.044, 0.321, -0.445, 0.824, -0.009, -0.245, 0
30514, 0.906, 0.273, -0.281, 0.795, -0.011, -0.154, 0
30534, 0.66, 0.402, -0.288, 0.865, 0.077, -0.046, 0
30554, 0.742, 0.618, -0.335, 0.986, 0.069, 0.019, 0
30574, 0.628, 0.543, -0.147, 1.048, 0.01, 0.079, 0
30594, 0.448, 0.058, 0.333, 0.93, 0.045, 0.17, 0
30614, 0.412, 0.107, 0.403, 0.853, 0.048, 0.256, 0
30634, 0.268, 0.327, 0.377, 0.876, 0.058, 0.327, 0
30654, 0.013, 0.249, 0.643, 0.886, 0.046, 0.388, 0
30674, -0.096, 0.06, 0.946, 0.838, 0.034, 0.466, 0
30694, -0.106, 0.028, 1.052, 0.759, 0.032, 0.537, 0
30714, -0.161, 0.047, 1.271, 0.668, 0.011, 0.574, 0
30734, -0.254, 0.048, 1.401, 0.596, -0.018, 0.633, 0
30754, -0.67, 0.068, 1.402, 0.59, 0.067, 0.692, 0
30774, -0.599, -0.191, 1.636, 0.486, 0.068, 0.694, 0
30794, -0.518, -0.191, 1.702, 0.35, -0.026, 0.686, 0
30814, -0.619, 0.006, 1.384, 0.318, -0.059, 0.718, 0
30834, -0.745, -0.247, 1.467, 0.29, -0.054, 0.733, 0
30854, -0.919, -0.397, 1.695, 0.103, -0.056, 0.706, 0
30874, -1.343, -0.601, 1.637, -0.008, -0.078, 0.689, 0
30894, -1.273, -0.974, 1.49, -0.189, -0.042, 0.642, 0
30914, -1.144, -0.606, 0.931, -0.342, -0.099, 0.541, 0
30934, -1.723, -0.386, 0.39, -0.197, -0.12, 0.583, 0
30954, -2.021, -0.864, 0.595, -0.024, 0.074, 0.637, 0
30974, -1.821, -0.683, 0.358, -0.145, 0.142, 0.599, 0
30994, -1.798, -0.696, 0.239, -0.185, 0.097, 0.527, 0
31014, -1.779, -0.753, 0.295, -0.27, 0.064, 0.465, 0
31034, -1.491, -0.746, -0.001, -0.262, 0.031, 0.409, 0
31054, -1.278, -0.66, -0.171, -0.219, 0.067, 0.423, 0
31074, -1.41, -0.359, -0.566, -0.138, 0.148, 0.394, 0
31094, -0.765, -0.237, -0.638, 0.142, -0.016, 0.221, 0
31114, -0.629, -0.458, -0.526, 0.277, -0.191, 0.182, 1
31134, -0.56, -0.836, -0.05, 0.1, -0.08, 0.147, 1
31154, -0.46, -0.711, 0.093, -0.232, 0.062, 0.158, 1
31174, -0.452, -0.206, -0.353, -0.258, 0.031, 0.114, 1
31194, -0.525, -0.102, -0.36, -0.125, -0.037, 0.017, 1
31214, -0.118, -0.251, -0.226, -0.079, 0.011, -0.01, 1
31234, 0.094, -0.377, -0.203, -0.152, 0.071, 0.032, 1
31254, 0.038, -0.336, -0.278, -0.209, 0.079, 0.056, 1
31274, -0.054, -0.137, -0.493, -0.174, 0.046, 0.042, 1
31294, -0.017, -0.054, -0.518, -0.108, 0.031, 0.015, 1
31314, 0.081, -0.189, -0.348, -0.128, 0.059, 0.027, 1
31334, -0.08, -0.051, -0.35, -0.148, 0.073, 0.065, 1
31354, -0.12, 0.004, -0.383, -0.078, 0.069, 0.023, 1
31374, -0.041, -0.098, -0.226, -0.104, 0.059, 0.007, 1
31394, 0.003, -0.064, -0.172, -0.12, 0.1, 0.006, 1
31414, 0.055, -0.092, -0.089, -0.111, 0.075, 0.009, 1
31434, 0.019, -0.004, -0.163, -0.07, 0.031, -0.001, 1
31454, 0.01, -0.036, -0.229, -0.051, 0.021, 0.011, 1
31474, -0.037, -0.084, -0.152, -0.066, 0.058, 0.04, 1
31494, -0.049, -0.062, -0.037, -0.086, 0.05, 0.064, 1
31514, -0.08, -0.045, 0.007, -0.115, 0.026, 0.037, 1
31534, -0.052, 0.015, -0.141, -0.086, -0.02, 0.0, 1
31554, -0.041, 0.005, -0.171, -0.037, 0.02, 0.014, 1
31574, -0.004, -0.118, -0.062, -0.072, 0.089, 0.052, 1
31594, 0.038, -0.129, -0.1, -0.114, 0.021, 0.031, 1
31614, -0.03, -0.027, -0.202, -0.084, -0.044, 0.008, 1
31634, -0.041, -0.029, -0.147, -0.068, -0.007, 0.018, 1
31654, -0.012, -0.046, -0.108, -0.048, 0.039, 0.029, 1
31674, 0.109, -0.149, -0.095, -0.09, 0.02, 0.024, 1
31694, 0.106, -0.068, -0.149, -0.101, -0.009, 0.028, 1
31714, -0.028, -0.039, -0.112, -0.106, 0.018, 0.017, 1
31734, -0.058, -0.033, -0.115, -0.097, 0.039, 0.021, 1
31754, 0.073, -0.061, -0.11, -0.136, 0.061, 0.055, 1
31774, 0.074, -0.001, -0.152, -0.17, 0.037, 0.043, 1
31794, -0.102, -0.013, -0.213, -0.156, 0.024, 0.008, 1
31814, -0.149, 0.075, -0.401, -0.092, 0.051, -0.017, 1
31834, 0.05, 0.031, -0.357, -0.02, 0.001, -0.029, 1
31854, 0.008, -0.039, -0.316, -0.089, -0.038, -0.047, 1
31874, -0.072, 0.473, -0.579, -0.037, -0.009, -0.001, 0
31894, 0.189, -0.209, -0.313, 0.128, -0.039, 0.05, 0
31914, 0.297, -0.427, -0.207, 0.161, -0.113, 0.084, 0
31934, 0.478, -0.208, -0.057, -0.033, -0.031, 0.111, 0
31954, 0.476, 0.005, -0.415, -0.069, 0.025, 0.217, 0
31974, 0.429, 0.068, -0.54, 0.089, 0.014, 0.301, 0
31994, 0.644, -0.341, -0.188, 0.225, 0.021, 0.367, 0
32014, 0.843, -0.503, 0.282, 0.02, 0.063, 0.421, 0
32034, 0.626, -0.032, 0.177, -0.143, 0.031, 0.483, 0
32054, 0.412, 0.251, 0.189, -0.083, -0.024, 0.492, 0
32074, 0.26, 0.41, 0.309, 0.042, -0.018, 0.526, 0
32094, 0.355, 0.0, 0.857, 0.108, 0.098, 0.601, 0
32114, 0.239, 0.008, 1.248, -0.007, 0.133, 0.67, 0
32134, 0.03, 0.034, 1.444, -0.109, 0.124, 0.704, 0
32154, -0.078, -0.02, 1.533, -0.226, 0.08, 0.745, 0
32174, -0.351, 0.198, 1.448, -0.328, 0.08, 0.783, 0
32194, -0.665, 0.493, 1.509, -0.293, 0.167, 0.825, 0
32214, -0.771, 0.344, 2.039, -0.279, 0.245, 0.825, 0
32234, -1.277, 0.145, 2.274, -0.444, 0.262, 0.826, 0
32254, -1.5, 0.312, 1.762, -0.631, 0.251, 0.783, 0
32274, -1.545, 0.247, 1.442, -0.68, 0.284, 0.773, 0
32294, -1.291, -0.281, 1.612, -0.718, 0.315, 0.757, 0
32314, -1.407, -0.684, 1.66, -1.017, 0.227, 0.774, 0
32334, -1.921, -0.53, 1.26, -1.116, 0.2, 0.719, 0
32354, -2.502, -0.045, 0.736, -1.089, 0.229, 0.653, 0
32374, -2.829, 0.04, 0.57, -1.073, 0.288, 0.516, 0
32394, -2.77, -0.258, 0.593, -1.171, 0.229, 0.382, 0
32414, -2.887, -0.286, 0.334, -1.257, 0.187, 0.266, 0
32434, -2.902, -0.355, -0.108, -1.285, 0.237, 0.147, 0
32454, -2.681, -0.387, -0.439, -1.276, 0.17, 0.0, 0
32474, -2.833, -0.316, -0.654, -1.208, 0.199, -0.12, 0
32494, -2.979, -0.699, -0.637, -1.225, 0.303, -0.232, 0
32514, -2.664, -0.803, -1.027, -1.253, 0.29, -0.37, 0
32534, -2.467, -0.619, -1.492, -1.155, 0.302, -0.521, 0
32554, -2.033, -0.704, -1.556, -1.132, 0.276, -0.646, 0
32574, -1.955, -0.423, -1.897, -1.121, 0.298, -0.755, 0
32594, -2.087, 0.048, -2.069, -0.993, 0.388, -0.831, 0
32614, -1.966, -0.035, -1.945, -0.856, 0.517, -0.965, 0
32634, -0.761, -0.405, -2.096, -0.919, 0.422, -1.079, 0
32654, -0.26, 0.121, -2.841, -0.785, 0.376, -1.133, 0
32674, -0.143, 0.399, -2.775, -0.582, 0.444, -1.165, 0
32694, 0.186, 0.215, -2.528, -0.514, 0.35, -1.218, 0
32714, 0.597, 0.069, -2.776, -0.541, 0.291, -1.202, 0
32734, 0.863, 0.339, -3.07, -0.461, 0.262, -1.178, 0
32754, 0.641, 0.986, -3.128, -0.234, 0.281, -1.166, 0
32774, 0.542, 0.933, -2.781, 0.021, 0.409, -1.148, 0
32794, 1.298, 0.223, -2.277, 0.012, 0.415, -1.059, 0
32814, 1.575, 0.652, -2.392, 0.113, 0.385, -1.014, 0
32834, 1.534, 0.61, -2.066, 0.247, 0.364, -0.929, 0
32854, 1.396, 0.578, -1.989, 0.354, 0.264, -0.842, 0
32874, 1.115, 0.248, -1.928, 0.467, 0.266, -0.7, 0
32894, 1.359, 0.088, -1.855, 0.538, 0.199, -0.641, 0
32914, 0.996, 0.51, -1.826, 0.571, 0.025, -0.576, 0
32934, 0.743, 0.587, -1.391, 0.741, 0.015, -0.499, 0
32954, 1.042, 0.22, -0.707, 0.803, -0.029, -0.437, 0
32974, 0.985, 0.213, -0.496, 0.706, -0.156, -0.351, 0
32994, 0.851, 0.382, -0.682, 0.701, -0.238, -0.296, 0
33014, 0.894, 0.473, -0.72, 0.784, -0.202, -0.255, 0
33034, 0.853, 0.509, -0.648, 0.879, -0.097, -0.163, 0
33054, 0.974, 0.518, -0.352, 0.962, -0.038, -0.056, 0
33074, 0.73, 0.536, -0.051, 0.971, -0.081, 0.025, 0
33094, 0.315, 0.416, 0.242, 0.97, -0.099, 0.086, 0
33114, 0.074, 0.27, 0.332, 0.912, -0.031, 0.149, 0
33134, 0.19, 0.285, 0.236, 0.865, 0.051, 0.208, 0
33154, 0.092, 0.215, 0.344, 0.895, 0.017, 0.286, 0
33174, -0.156, 0.17, 0.546, 0.918, 0.011, 0.356, 0
33194, -0.123, 0.002, 0.853, 0.897, 0.029, 0.426, 0
33214, -0.249, -0.041, 0.986, 0.8, 0.024, 0.5, 0
33234, -0.471, -0.01, 1.043, 0.719, 0.011, 0.53, 0
33254, -0.604, 0.042, 1.067, 0.673, 0.021, 0.565, 0
33274, -0.507, -0.111, 1.236, 0.615, -0.012, 0.574, 0
33294, -0.6, -0.158, 1.314, 0.547, -0.082, 0.581, 0
33314, -0.633, -0.33, 1.498, 0.491, -0.067, 0.616, 0
33334, -0.831, -0.746, 1.621, 0.367, -0.015, 0.656, 0
33354, -0.748, -0.811, 1.652, 0.24, -0.018, 0.7, 0
33374, -0.869, -0.602, 1.604, 0.208, -0.065, 0.697, 0
33394, -1.083, -0.677, 1.73, 0.135, -0.081, 0.646, 0
33414, -1.119, -0.795, 1.874, 0.056, -0.091, 0.642, 0
33434, -1.449, -0.842, 1.841, -0.043, -0.026, 0.654, 0
33454, -1.488, -0.756, 1.691, -0.141, 0.004, 0.621, 0
33474, -1.385, -0.835, 1.402, -0.206, -0.037, 0.563, 0
33494, -1.315, -0.75, 1.023, -0.256, -0.058, 0.508, 0
33514, -1.239, -0.859, 0.605, -0.323, -0.054, 0.481, 0
33534, -1.126, -0.623, 0.136, -0.377, -0.075, 0.478, 0
33554, -1.402, -0.118, -0.265, -0.303, -0.108, 0.412, 0
33574, -1.503, -0.029, -0.335, -0.207, -0.103, 0.337, 0
33594, -1.374, -0.293, -0.297, -0.186, -0.081, 0.297, 0
33614, -1.091, -0.199, -0.524, -0.06, -0.068, 0.28, 0
33634, -0.722, 0.037, -0.92, 0.222, -0.196, 0.23, 1
33654, -0.498, -0.153, -0.709, 0.351, -0.251, 0.128, 1
33674, -0.497, -0.593, -0.266, 0.1, -0.069, 0.111, 1
33694, -0.143, -0.965, 0.011, -0.274, 0.141, 0.14, 1
33714, 0.017, -0.136, -0.489, -0.23, 0.067, 0.089, 1
33734, -0.02, -0.016, -0.552, -0.034, -0.072, 0.049, 1
33754, -0.34, -0.405, -0.117, -0.091, 0.028, 0.036, 1
33774, -0.11, -0.465, 0.051, -0.294, 0.152, 0.059, 1
33794, 0.061, 0.008, -0.545, -0.213, 0.047, 0.073, 1
33814, -0.076, -0.124, -0.342, -0.071, -0.023, 0.06, 1
33834, -0.04, -0.099, -0.176, -0.053, -0.006, 0.066, 1
33854, 0.041, -0.194, -0.094, -0.073, 0.007, 0.064, 1
33874, -0.032, -0.107, -0.152, -0.165, 0.045, 0.083, 1
33894, -0.082, -0.009, -0.236, -0.14, 0.012, 0.067, 1
33914, -0.037, -0.013, -0.212, -0.037, -0.049, 0.031, 1
33934, -0.03, -0.073, -0.097, -0.029, -0.031, 0.036, 1
33954, 0.115, -0.181, -0.002, -0.085, 0.03, 0.052, 1
33974, 0.008, -0.123, 0.02, -0.171, 0.059, 0.084, 1
33994, -0.095, -0.007, -0.074, -0.165, 0.043, 0.072, 1
34014, -0.122, 0.043, -0.169, -0.102, 0.02, 0.046, 1
34034, 0.001, -0.091, -0.085, -0.109, 0.072, 0.053, 1
34054, 0.025, -0.09, -0.046, -0.191, 0.095, 0.07, 1
34074, -0.105, 0.049, -0.234, -0.202, 0.076, 0.07, 1
34094, -0.048, -0.012, -0.377, -0.078, 0.01, 0.023, 1
34114, -0.078, -0.07, -0.273, -0.048, 0.0, 0.015, 1
34134, 0.055, -0.099, -0.137, -0.111, 0.058, 0.03, 1
34154, -0.038, -0.032, -0.203, -0.127, 0.032, 0.05, 1
34174, -0.036, -0.015, -0.25, -0.067, -0.002, 0.034, 1
34194, -0.079, -0.099, -0.226, -0.01, -0.03, 0.019, 1
34214, -0.07, -0.225, -0.032, -0.062, 0.04, 0.038, 1
34234, -0.031, -0.042, -0.067, -0.147, 0.095, 0.064, 1
34254, -0.082, -0.003, -0.169, -0.154, 0.063, 0.041, 1
34274, -0.103, 0.023, -0.274, -0.085, 0.014, 0.04, 1
34294, -0.043, -0.029, -0.214, -0.055, 0.026, 0.05, 1
34314, 0.0, -0.113, -0.093, -0.102, 0.032, 0.051, 1
34334, 0.004, -0.058, -0.136, -0.131, 0.023, 0.051, 1
34354, -0.049, -0.09, -0.118, -0.128, 0.022, 0.048, 1
34374, -0.039, -0.023, -0.141, -0.097, 0.021, 0.047, 1
34394, -0.04, 0.013, -0.228, -0.026, 0.0, 0.049, 1
34414, -0.08, -0.092, -0.067, -0.075, 0.02, 0.041, 1
34434, -0.042, -0.075, -0.069, -0.143, 0.043, 0.043, 1
34454, -0.042, -0.019, -0.165, -0.128, 0.048, 0.056, 1
34474, -0.008, 0.005, -0.189, -0.066, -0.009, 0.031, 1
34494, -0.087, -0.08, -0.157, -0.059, -0.018, 0.026, 1
34514, -0.042, -0.214, -0.031, -0.109, 0.021, 0.039, 1
34534, -0.042, -0.078, -0.031, -0.177, 0.078, 0.051, 1
34554, -0.028, -0.023, -0.105, -0.173, 0.053, 0.041, 1
34574, -0.037, 0.001, -0.126, -0.153, 0.01, 0.017, 1
34594, -0.064, 0.035, -0.237, -0.071, 0.004, 0.029, 1
34614, -0.135, -0.182, -0.045, -0.084, 0.064, 0.042, 1
34634, -0.08, -0.316, 0.208, -0.211, 0.083, 0.027, 1
34654, -0.032, -0.102, 0.032, -0.252, 0.076, 0.006, 1
34674, 0.107, -0.03, -0.084, -0.204, 0.05, 0.02, 1
34694, -0.036, -0.012, -0.236, -0.114, 0.043, -0.001, 1
34714, -0.03, -0.076, -0.241, -0.147, 0.054, 0.009, 1
34734, -0.024, -0.073, -0.352, -0.177, 0.061, 0.04, 1
34754, -0.124, -0.057, -0.417, -0.194, 0.059, -0.025, 1
34774, -0.163, 0.508, -0.499, -0.08, -0.036, -0.083, 0
34794, -0.096, -0.104, -0.289, 0.0, -0.064, -0.018, 0
34814, 0.155, -0.389, -0.097, -0.054, 0.044, 0.016, 0
34834, 0.302, -0.015, -0.429, -0.125, 0.078, 0.072, 0
34854, 0.264, -0.033, -0.498, 0.07, 0.02, 0.105, 0
34874, 0.193, -0.182, -0.383, 0.153, 0.025, 0.122, 0
34894, 0.439, -0.148, -0.374, 0.026, 0.076, 0.16, 0
34914, 0.483, 0.078, -0.531, -0.055, 0.094, 0.207, 0
34934, 0.339, 0.12, -0.622, 0.001, 0.067, 0.244, 0
34954, 0.477, 0.088, -0.546, 0.068, 0.062, 0.276, 0
34974, 0.644, 0.123, -0.502, 0.153, 0.01, 0.338, 0
34994, 0.528, -0.096, -0.026, 0.211, 0.013, 0.415, 0
35014, 0.528, 0.079, 0.252, 0.159, 0.066, 0.471, 0
35034, 0.568, 0.161, 0.589, 0.136, 0.019, 0.496, 0
35054, 0.408, -0.098, 1.052, 0.072, 0.001, 0.561, 0
35074, 0.185, 0.038, 1.271, -0.017, 0.047, 0.651, 0
35094, 0.064, 0.096, 1.488, -0.037, 0.113, 0.704, 0
35114, -0.024, -0.009, 1.841, -0.132, 0.113, 0.756, 0
35134, -0.309, -0.044, 1.986, -0.246, 0.098, 0.805, 0
35154, -0.505, 0.078, 2.111, -0.332, 0.122, 0.842, 0
35174, -0.761, 0.288, 2.215, -0.411, 0.139, 0.849, 0
35194, -1.116, 0.378, 2.347, -0.485, 0.236, 0.858, 0
35214, -1.154, 0.07, 2.556, -0.587, 0.338, 0.853, 0
35234, -1.082, -0.25, 2.485, -0.831, 0.276, 0.825, 0
35254, -1.448, -0.11, 2.075, -0.939, 0.238, 0.787, 0
35274, -1.883, 0.015, 1.602, -0.957, 0.371, 0.75, 0
35294, -1.711, -0.158, 1.184, -1.015, 0.42, 0.772, 0
35314, -1.864, -0.713, 1.162, -1.131, 0.364, 0.762, 0
35334, -2.093, -1.021, 1.356, -1.304, 0.18, 0.7, 0
35354, -2.403, -1.035, 1.142, -1.448, -0.007, 0.593, 0
35374, -2.953, -0.452, 0.254, -1.401, 0.066, 0.533, 0
35394, -3.217, -0.278, -0.352, -1.344, 0.179, 0.414, 0
35414, -3.038, -0.134, -0.566, -1.354, 0.105, 0.242, 0
35434, -3.475, 0.267, -0.857, -1.324, 0.032, 0.07, 0
35454, -4.384, 0.497, -1.175, -1.223, 0.204, -0.127, 0
35474, -4.342, 0.638, -1.36, -1.1, 0.442, -0.321, 0
35494, -3.671, 0.455, -1.344, -1.141, 0.51, -0.578, 0
35514, -2.983, 0.452, -2.179, -1.194, 0.436, -0.817, 0
35534, -2.942, 0.86, -3.059, -1.019, 0.569, -0.954, 0
35554, -2.401, 0.8, -3.118, -0.856, 0.673, -1.128, 0
35574, -0.989, 0.248, -3.632, -0.806, 0.558, -1.298, 0
35594, -0.124, 0.327, -4.408, -0.607, 0.526, -1.351, 0
35614, 0.174, 0.361, -4.169, -0.35, 0.605, -1.367, 0
35634, 0.486, 0.045, -3.483, -0.256, 0.563, -1.32, 0
35654, 0.561, 0.128, -3.475, -0.141, 0.524, -1.284, 0
35674, 0.489, 0.361, -2.999, 0.062, 0.683, -1.265, 0
35694, 0.874, 0.37, -2.315, 0.167, 0.72, -1.316, 0
35714, 1.548, 0.128, -2.288, 0.13, 0.609, -1.209, 0
35734, 1.588, 0.335, -2.274, 0.273, 0.643, -1.178, 0
35754, 2.032, 0.454, -2.199, 0.391, 0.524, -1.115, 0
35774, 1.597, 0.35, -2.098, 0.492, 0.284, -0.992, 0
35794, 1.0, 0.416, -1.706, 0.623, 0.312, -0.88, 0
35814, 1.537, 0.3, -1.354, 0.7, 0.37, -0.784, 0
35834, 1.67, 0.327, -1.292, 0.702, 0.218, -0.67, 0
35854, 1.591, 0.385, -1.042, 0.794, 0.105, -0.621, 0
35874, 1.519, 0.22, -0.567, 0.863, 0.041, -0.564, 0
35894, 1.371, 0.434, -0.55, 0.844, 0.037, -0.444, 0
35914, 1.398, 0.777, -0.686, 0.88, 0.065, -0.306, 0
35934, 1.376, 0.569, -0.268, 0.999, 0.076, -0.202, 0
35954, 1.135, 0.237, 0.263, 0.971, 0.061, -0.107, 0
35974, 1.156, 0.185, 0.424, 0.891, 0.055, -0.03, 0
35994, 1.15, 0.336, 0.354, 0.857, 0.023, 0.087, 0
36014, 0.711, 0.28, 0.447, 0.868, 0.017, 0.201, 0
36034, 0.418, 0.214, 0.546, 0.872, 0.062, 0.299, 0
36054, 0.397, 0.074, 0.85, 0.857, 0.058, 0.335, 0
36074, 0.271, 0.104, 0.961, 0.78, 0.008, 0.401, 0
36094, -0.006, -0.002, 1.073, 0.734, -0.059, 0.482, 0
36114, -0.364, -0.198, 1.108, 0.719, -0.045, 0.606, 0
36134, -0.261, -0.276, 1.236, 0.666, -0.012, 0.684, 0
36154, -0.726, -0.303, 1.42, 0.621, -0.083, 0.767, 0
36174, -0.794, -0.357, 1.766, 0.526, -0.045, 0.787, 0
36194, -0.604, -0.194, 1.804, 0.43, -0.086, 0.786, 0
36214, -0.796, -0.615, 1.909, 0.334, -0.091, 0.904, 0
36234, -1.006, -0.895, 2.001, 0.15, -0.008, 0.922, 0
36254, -1.158, -0.439, 1.769, -0.01, -0.014, 0.929, 0
36274, -1.445, -0.047, 1.468, -0.037, -0.091, 0.886, 0
36294, -1.904, -0.108, 1.273, -0.051, -0.122, 0.787, 0
36314, -2.226, 0.105, 0.99, -0.042, -0.118, 0.82, 0
36334, -2.651, 0.033, 0.921, -0.059, -0.004, 0.799, 0
36354, -2.733, -0.24, 0.911, -0.169, -0.001, 0.72, 0
36374, -2.677, -0.312, 0.428, -0.244, -0.058, 0.565, 0
36394, -2.253, -0.076, 0.023, -0.194, -0.127, 0.457, 0
36414, -2.177, -0.055, -0.146, -0.081, -0.107, 0.412, 0
36434, -2.057, -0.38, -0.023, -0.014, -0.081, 0.345, 0
36454, -1.695, -0.461, 0.041, -0.047, -0.072, 0.29, 0
36474, -1.405, -0.307, -0.013, -0.08, -0.05, 0.24, 0
36494, -1.227, -0.159, -0.127, -0.034, -0.065, 0.171, 1
36514, -1.102, -0.328, -0.124, -0.015, -0.058, 0.111, 1
36534, -0.903, -0.29, -0.14, -0.017, -0.039, 0.108, 1
36554, -0.5, -0.486, -0.233, -0.081, 0.023, 0.067, 1
36574, -0.213, -0.502, -0.078, -0.244, 0.037, 0.047, 1
36594, -0.116, -0.252, -0.247, -0.28, 0.004, 0.024, 1
36614, -0.19, -0.117, -0.499, -0.205, -0.005, 0.018, 1
36634, -0.103, -0.068, -0.494, -0.133, 0.012, 0.024, 1
36654, 0.015, -0.068, -0.371, -0.095, -0.003, 0.014, 1
36674, -0.015, -0.131, -0.252, -0.114, 0.0, 0.021, 1
36694, -0.146, -0.104, -0.237, -0.169, 0.067, 0.05, 1
36714, -0.105, 0.139, -0.483, -0.133, 0.058, 0.02, 1
36734, -0.041, -0.06, -0.383, -0.054, 0.015, 0.005, 1
36754, 0.025, -0.238, -0.214, -0.076, 0.012, 0.014, 1
36774, 0.13, -0.174, -0.207, -0.119, 0.04, 0.024, 1
36794, 0.041, -0.077, -0.25, -0.124, 0.035, 0.048, 1
36814, -0.082, -0.006, -0.246, -0.07, 0.028, 0.039, 1
36834, -0.017, -0.061, -0.127, -0.064, 0.027, 0.034, 1
36854, 0.033, -0.146, -0.075, -0.106, 0.046, 0.048, 1
36874, -0.084, -0.032, -0.128, -0.16, 0.063, 0.066, 1
36894, -0.113, 0.06, -0.288, -0.127, 0.057, 0.056, 1
36914, -0.142, 0.037, -0.324, -0.047, 0.015, 0.058, 1
36934, -0.12, -0.199, -0.062, -0.043, 0.019, 0.049, 1
36954, -0.076, -0.089, -0.066, -0.143, 0.047, 0.06, 1
36974, -0.1, 0.007, -0.15, -0.161, 0.056, 0.051, 1
36994, -0.018, 0.001, -0.156, -0.104, 0.048, 0.014, 1
37014, 0.077, -0.09, -0.13, -0.043, -0.004, -0.004, 1
37034, 0.011, -0.24, 0.027, -0.047, 0.006, 0.021, 1
37054, 0.038, -0.173, 0.021, -0.139, 0.082, 0.044, 1
37074, -0.019, -0.064, -0.111, -0.188, 0.08, 0.055, 1
37094, -0.039, -0.02, -0.247, -0.158, 0.043, 0.037, 1
37114, -0.045, -0.031, -0.144, -0.087, 0.004, 0.045, 1
37134, -0.137, -0.101, 0.026, -0.064, 0.028, 0.053, 1
37154, -0.137, -0.164, 0.149, -0.145, 0.067, 0.045, 1
37174, -0.054, -0.024, -0.202, -0.202, 0.104, 0.025, 1
37194, 0.006, 0.07, -0.393, -0.089, 0.034, 0.013, 1
37214, -0.045, -0.017, -0.297, -0.072, -0.001, 0.01, 1
37234, -0.046, -0.063, -0.133, -0.108, 0.002, 0.001, 1
37254, -0.034, -0.129, -0.112, -0.133, 0.051, 0.012, 1
37274, -0.096, -0.245, -0.035, -0.164, 0.08, 0.006, 1
37294, -0.075, -0.047, -0.099, -0.151, 0.037, -0.016, 1
37314, -0.259, 0.037, -0.177, -0.086, 0.011, -0.065, 1
37334, -0.282, -0.1, -0.048, -0.087, 0.04, -0.087, 1
37354, -0.131, -0.112, -0.082, -0.135, 0.093, -0.084, 1
37374, -0.061, -0.057, -0.102, -0.161, 0.118, -0.088, 1
37394, -0.064, -0.039, -0.096, -0.187, 0.102, -0.116, 1
37414, -0.04, 0.014, -0.21, -0.138, 0.059, -0.152, 1
37434, -0.073, -0.058, -0.193, -0.113, 0.069, -0.168, 1
37454, -0.026, -0.121, -0.131, -0.143, 0.064, -0.193, 1
37474, 0.073, -0.105, -0.259, -0.177, 0.049, -0.204, 1
37494, 0.144, -0.018, -0.396, -0.16, 0.032, -0.191, 1
37514, 0.049, -0.023, -0.466, -0.109, 0.055, -0.154, 1
37534, -0.004, -0.123, -0.244, -0.13, 0.117, -0.137, 1
37554, 0.145, -0.077, -0.167, -0.139, 0.043, -0.171, 1
37574, -0.006, -0.037, -0.183, -0.127, 0.034, -0.159, 1
37594, -0.057, -0.026, -0.107, -0.117, 0.094, -0.139, 1
37614, -0.02, 0.034, -0.123, -0.116, 0.11, -0.144, 1
37634, 0.198, 0.05, -0.282, -0.127, 0.076, -0.149, 1
37654, 0.295, -0.027, -0.374, -0.12, 0.031, -0.135, 1
37674, 0.068, -0.072, -0.3, -0.101, 0.059, -0.106, 1
37694, 0.163, 0.047, -0.364, -0.051, 0.009, -0.092, 1
37714, 0.167, 0.0, -0.164, -0.037, 0.02, -0.075, 1
37734, 0.188, -0.08, -0.032, -0.076, 0.043, -0.028, 1
37754, 0.129, -0.021, -0.019, -0.101, 0.045, 0.003, 1
37774, 0.005, -0.041, 0.021, -0.092, 0.029, 0.012, 1
37794, -0.065, -0.148, 0.08, -0.078, 0.054, 0.053, 1
37814, -0.189, -0.217, 0.039, -0.091, 0.083, 0.081, 1
37834, -0.196, -0.105, -0.099, -0.133, 0.078, 0.073, 1
37854, -0.266, -0.018, -0.28, -0.141, 0.04, 0.085, 1
37874, -0.268, 0.023, -0.294, -0.147, 0.04, 0.088, 1
37894, -0.227, 0.11, -0.309, -0.094, 0.014, 0.039, 1
37914, -0.3, -0.113, -0.304, -0.036, -0.014, 0.073, 1
37934, -0.333, -0.134, -0.152, -0.047, -0.017, 0.077, 1
37954, -0.236, -0.146, -0.001, -0.094, -0.003, 0.07, 1
37974, -0.236, -0.275, 0.073, -0.095, 0.055, 0.088, 1
37994, -0.062, -0.278, 0.172, -0.137, 0.097, 0.08, 1
38014, -0.028, -0.02, -0.121, -0.171, 0.062, 0.06, 1
38034, -0.033, -0.028, -0.179, -0.124, 0.048, 0.04, 1
38054, -0.056, -0.117, -0.15, -0.138, 0.06, 0.047, 1
38074, -0.045, -0.067, -0.188, -0.186, 0.086, 0.06, 1
38094, -0.001, -0.076, -0.202, -0.188, 0.108, 0.075, 1
38114, 0.059, 0.039, -0.208, -0.228, 0.073, 0.007, 1
38134, -0.018, 0.053, -0.308, -0.153, -0.026, -0.014, 1
38154, -0.122, -0.07, -0.057, -0.089, 0.05, 0.055, 1
38174, -0.097, -0.129, 0.059, -0.182, 0.138, 0.025, 0
38194, 0.239, -0.18, -0.257, -0.149, 0.05, 0.025, 0
38214, 0.059, 0.125, -0.637, 0.053, 0.001, 0.037, 0
38234, -0.135, 0.008, -0.588, 0.172, 0.153, 0.048, 0
38254, 0.253, -0.092, -0.296, 0.062, 0.16, 0.072, 0
38274, 0.521, -0.134, -0.526, -0.003, 0.052, 0.119, 0
38294, 0.479, -0.156, -0.569, -0.014, 0.136, 0.205, 0
38314, 0.742, -0.22, -0.428, -0.023, 0.173, 0.281, 0
38334, 0.793, -0.047, -0.464, 0.064, 0.138, 0.309, 0
38354, 1.003, -0.09, -0.217, 0.091, 0.083, 0.387, 0
38374, 0.938, -0.047, 0.097, 0.05, 0.178, 0.513, 0
38394, 0.941, -0.159, 0.489, 0.012, 0.189, 0.608, 0
38414, 0.541, 0.175, 0.625, 0.098, 0.156, 0.635, 0
38434, 0.431, 0.065, 0.956, 0.152, 0.164, 0.693, 0
38454, 0.374, 0.013, 1.393, 0.054, 0.197, 0.752, 0
38474, 0.206, 0.03, 1.641, -0.148, 0.263, 0.823, 0
38494, 0.054, 0.356, 1.537, -0.188, 0.291, 0.891, 0
38514, -0.203, -0.063, 1.76, -0.275, 0.347, 0.973, 0
38534, -0.42, 0.194, 1.679, -0.307, 0.299, 0.97, 0
38554, -0.511, 0.143, 1.853, -0.39, 0.202, 0.968, 0
38574, -0.685, 0.097, 2.114, -0.558, 0.189, 1.006, 0
38594, -1.001, -0.108, 2.215, -0.701, 0.243, 1.056, 0
38614, -1.08, -0.301, 2.137, -0.849, 0.127, 1.026, 0
38634, -1.467, -0.203, 1.8, -0.97, -0.014, 0.942, 0
38654, -1.793, 0.261, 1.557, -0.748, 0.245, 0.882, 0
38674, -1.619, -0.668, 1.932, -0.865, 0.24, 0.904, 0
38694, -2.489, -0.357, 1.333, -1.161, 0.147, 0.948, 0
38714, -3.528, 0.452, 0.221, -1.301, 0.127, 0.858, 0
38734, -4.223, 0.919, -0.621, -1.229, 0.133, 0.656, 0
38754, -4.443, 0.717, -0.62, -1.103, 0.15, 0.423, 0
38774, -4.461, 0.433, -0.786, -1.199, 0.26, 0.258, 0
38794, -3.963, 0.541, -1.797, -1.31, 0.289, 0.057, 0
38814, -3.479, 0.869, -2.82, -1.236, 0.227, -0.153, 0
38834, -3.146, 0.781, -2.882, -1.025, 0.208, -0.327, 0
38854, -3.37, 0.429, -2.341, -0.9, 0.24, -0.45, 0
38874, -3.286, 0.067, -1.661, -0.871, 0.292, -0.605, 0
38894, -2.885, 0.084, -1.738, -0.853, 0.317, -0.82, 0
38914, -1.697, -0.151, -2.198, -0.813, 0.358, -1.006, 0
38934, -1.057, -0.135, -2.527, -0.712, 0.363, -1.058, 0
38954, -0.969, -0.271, -2.067, -0.552, 0.428, -1.066, 0
38974, -1.294, -0.262, -1.516, -0.545, 0.441, -1.145, 0
38994, -0.931, 0.027, -1.805, -0.646, 0.431, -1.277, 0
39014, -0.714, 0.529, -2.52, -0.58, 0.444, -1.315, 0
39034, -0.531, 0.746, -2.463, -0.373, 0.607, -1.371, 0
39054, 0.335, 0.379, -2.283, -0.216, 0.675, -1.455, 0
39074, 0.858, 0.198, -2.618, -0.236, 0.505, -1.467, 0
39094, 1.104, 0.445, -2.965, -0.207, 0.452, -1.437, 0
39114, 1.272, 0.552, -2.833, -0.059, 0.442, -1.378, 0
39134, 1.415, 0.496, -2.334, 0.162, 0.307, -1.311, 0
39154, 1.394, 0.345, -2.13, 0.281, 0.359, -1.229, 0
39174, 1.605, 0.372, -1.769, 0.347, 0.447, -1.086, 0
39194, 1.895, 0.347, -1.749, 0.406, 0.443, -0.99, 0
39214, 2.054, 0.507, -1.94, 0.533, 0.318, -0.943, 0
39234, 1.881, 0.473, -1.781, 0.654, 0.265, -0.877, 0
39254, 1.973, 0.393, -1.399, 0.689, 0.211, -0.756, 0
39274, 2.303, 0.429, -1.329, 0.751, 0.081, -0.628, 0
39294, 2.06, 0.435, -1.247, 0.85, 0.036, -0.437, 0
39314, 1.528, 0.398, -0.765, 0.904, 0.117, -0.337, 0
39334, 1.627, 0.324, -0.348, 0.871, 0.072, -0.238, 0
39354, 1.792, 0.191, -0.267, 0.845, -0.001, -0.139, 0
39374, 1.336, 0.256, -0.132, 0.867, 0.081, -0.004, 0
39394, 1.296, 0.272, 0.263, 0.897, 0.092, 0.109, 0
39414, 0.865, 0.199, 0.603, 0.847, 0.065, 0.211, 0
39434, 0.58, 0.047, 1.043, 0.736, 0.102, 0.301, 0
39454, 0.424, 0.071, 1.252, 0.681, 0.061, 0.328, 0
39474, 0.105, 0.076, 1.691, 0.655, 0.05, 0.453, 0
39494, -0.296, -0.223, 2.186, 0.5, 0.145, 0.507, 0
39514, 0.122, -0.531, 2.027, 0.26, 0.046, 0.553, 0
39534, -0.045, -0.485, 1.587, 0.128, -0.07, 0.602, 0
39554, -0.356, -0.36, 1.368, 0.096, -0.018, 0.705, 0
39574, -0.443, -0.322, 1.255, 0.105, -0.001, 0.778, 0
39594, -0.798, -0.311, 1.133, 0.152, -0.024, 0.807, 0
39614, -1.036, -0.19, 1.109, 0.225, -0.053, 0.904, 0
39634, -2.095, -0.342, 1.466, 0.196, -0.009, 0.891, 0
39654, -2.095, -0.31, 1.424, 0.004, 0.007, 0.811, 0
39674, -2.42, -0.298, 1.176, -0.08, -0.078, 0.746, 0
39694, -2.824, -0.109, 0.788, -0.094, -0.026, 0.703, 0
39714, -2.637, -0.205, 0.556, -0.052, 0.073, 0.616, 0
39734, -2.237, -0.321, 0.286, -0.076, 0.045, 0.521, 0
39754, -2.052, -0.261, -0.307, -0.078, -0.05, 0.463, 0
39774, -1.739, -0.052, -0.77, 0.108, -0.142, 0.412, 1
39794, -1.681, -0.377, -0.64, 0.271, -0.152, 0.375, 1
39814, -1.79, -0.415, -0.222, 0.101, -0.087, 0.302, 1
39834, -1.436, -0.401, -0.279, -0.14, 0.014, 0.177, 1
39854, -1.047, -0.219, -0.574, -0.164, -0.055, 0.128, 1
39874, -0.991, -0.33, -0.493, -0.05, -0.124, 0.109, 1
39894, -0.782, -0.508, -0.116, 0.023, -0.088, 0.092, 1
39914, -0.798, -0.496, 0.11, -0.042, -0.034, 0.086, 1
39934, -0.533, -0.372, -0.026, -0.13, -0.022, 0.043, 1
39954, -0.214, -0.354, -0.201, -0.137, -0.025, 0.03, 1
39974, -0.065, -0.263, -0.256, -0.103, -0.025, 0.039, 1
39994, -0.073, -0.216, -0.203, -0.018, -0.042, 0.036, 1
40014, -0.153, -0.315, -0.103, -0.05, -0.023, 0.035, 1
40034, -0.029, -0.158, -0.169, -0.152, 0.076, 0.039, 1
40054, -0.08, -0.097, -0.218, -0.204, 0.103, 0.047, 1
40074, -0.153, 0.062, -0.351, -0.148, 0.042, 0.029, 1
40094, -0.047, -0.001, -0.45, -0.086, 0.032, 0.044, 1
40114, 0.181, -0.164, -0.337, -0.068, 0.034, 0.06, 1
40134, 0.086, -0.252, -0.049, -0.143, 0.032, 0.082, 1
40154, -0.092, -0.052, -0.071, -0.136, 0.023, 0.065, 1
40174, -0.102, 0.016, -0.164, -0.065, 0.029, 0.046, 1
40194, -0.038, -0.014, -0.172, 0.001, 0.054, 0.064, 1
40214, 0.051, -0.161, -0.069, -0.031, 0.043, 0.061, 1
40234, 0.005, -0.192, 0.03, -0.163, 0.045, 0.057, 1
40254, -0.108, 0.151, -0.24, -0.113, 0.016, 0.035, 1
40274, -0.107, 0.016, -0.146, -0.085, 0.025, 0.042, 1
40294, 0.012, -0.044, -0.114, -0.072, 0.028, 0.041, 1
40314, 0.075, -0.078, -0.159, -0.081, 0.009, 0.044, 1
40334, 0.016, -0.04, -0.108, -0.117, 0.016, 0.037, 1
40354, -0.037, 0.001, -0.113, -0.122, 0.0, 0.03, 1
40374, -0.084, -0.097, -0.093, -0.11, 0.02, 0.032, 1
40394, -0.02, 0.003, -0.24, -0.053, 0.052, 0.05, 1
40414, 0.103, -0.028, -0.227, -0.017, 0.029, 0.043, 1
40434, 0.043, -0.169, 0.001, -0.105, 0.0, 0.026, 1
40454, -0.07, -0.066, -0.019, -0.139, 0.007, 0.034, 1
40474, -0.09, -0.015, -0.199, -0.105, 0.065, 0.047, 1
40494, 0.037, -0.033, -0.177, -0.125, 0.061, 0.051, 1
40514, 0.024, -0.021, -0.195, -0.129, 0.009, 0.042, 1
40534, -0.056, -0.088, -0.117, -0.149, 0.007, 0.04, 1
40554, -0.101, 0.049, -0.269, -0.098, 0.022, 0.046, 1
40574, -0.03, 0.003, -0.271, -0.062, 0.022, 0.052, 1
40594, 0.009, -0.028, -0.161, -0.083, -0.01, 0.041, 1
40614, -0.028, -0.067, -0.072, -0.075, -0.019, 0.02, 1
40634, -0.009, -0.094, -0.119, -0.109, 0.0, 0.034, 1
40654, 0.01, -0.028, -0.176, -0.116, 0.037, 0.069, 1
40674, -0.05, -0.059, -0.039, -0.119, 0.057, 0.079, 1
40694, -0.054, 0.049, -0.162, -0.142, 0.032, 0.04, 1
40714, -0.029, -0.014, -0.281, -0.112, 0.026, 0.048, 1
40734, 0.04, -0.047, -0.316, -0.092, 0.064, 0.066, 1
40754, -0.04, -0.016, -0.288, -0.103, 0.04, 0.068, 1
40774, -0.019, 0.006, -0.271, -0.103, 0.029, 0.042, 1
40794, -0.019, -0.049, -0.19, -0.065, 0.021, 0.046, 1
40814, 0.005, -0.081, -0.06, -0.103, 0.035, 0.058, 1
40834, -0.122, -0.009, -0.181, -0.112, 0.049, 0.072, 1
40854, -0.073, -0.049, -0.094, -0.082, 0.058, 0.068, 1
40874, -0.041, -0.021, -0.096, -0.106, 0.05, 0.05, 1
40894, -0.022, -0.029, -0.106, -0.122, 0.051, 0.041, 1
40914, -0.023, -0.013, -0.243, -0.117, 0.04, 0.049, 1
40934, 0.001, -0.074, -0.2, -0.104, 0.053, 0.043, 1
40954, -0.016, -0.016, -0.191, -0.124, 0.04, 0.04, 1
40974, -0.019, -0.021, -0.152, -0.105, 0.025, 0.045, 1
40994, -0.017, -0.011, -0.124, -0.1, 0.021, 0.034, 1
41014, -0.015, 0.001, -0.205, -0.074, 0.005, 0.04, 1
41034, 0.024, -0.114, -0.015, -0.103, 0.032, 0.045, 1
41054, -0.081, 0.016, -0.139, -0.153, 0.023, 0.048, 1
41074, -0.03, 0.021, -0.163, -0.039, 0.003, 0.01, 1
41094, -0.005, -0.105, -0.071, -0.076, 0.011, 0.018, 1
41114, 0.137, -0.126, -0.136, -0.122, 0.025, 0.021, 1
41134, 0.091, -0.154, -0.172, -0.174, 0.012, 0.001, 1
41154, -0.053, 0.053, -0.344, -0.116, 0.007, -0.015, 1
41174, -0.022, -0.002, -0.306, -0.091, 0.021, -0.017, 1
41194, 0.035, -0.089, -0.135, -0.149, 0.051, 0.01, 1
41214, 0.095, -0.169, -0.122, -0.188, 0.061, 0.048, 1
41234, 0.01, -0.087, -0.188, -0.157, 0.082, 0.07, 1
41254, -0.022, -0.025, -0.187, -0.102, 0.055, 0.051, 0
41274, -0.005, -0.048, -0.332, -0.058, 0.013, 0.034, 0
41294, -0.056, 0.102, -0.404, -0.009, 0.04, 0.061, 0
41314, -0.136, -0.222, -0.412, -0.105, 0.109, 0.015, 0
41334, 0.241, 0.161, -0.609, -0.053, -0.058, -0.018, 0
41354, 0.049, 0.368, -1.072, 0.232, -0.148, 0.033, 0
41374, 0.003, 0.152, -0.863, 0.425, -0.083, 0.094, 0
41394, 0.021, -0.262, -0.394, 0.306, 0.091, 0.193, 0
41414, 0.484, -0.491, -0.086, 0.009, 0.146, 0.271, 0
41434, 0.535, -0.117, -0.506, 0.011, 0.048, 0.257, 0
41454, 0.431, -0.007, -0.584, 0.117, 0.029, 0.29, 0
41474, 0.434, -0.116, -0.289, 0.161, 0.098, 0.365, 0
41494, 0.653, -0.18, 0.024, 0.097, 0.094, 0.431, 0
41514, 0.729, 0.139, 0.022, 0.13, 0.009, 0.466, 0
41534, 0.546, 0.329, 0.127, 0.185, 0.02, 0.494, 0
41554, 0.628, 0.402, 0.496, 0.15, 0.028, 0.562, 0
41574, 0.705, 0.646, 0.974, 0.166, -0.012, 0.645, 0
41594, 0.371, -0.428, 1.217, 0.097, 0.004, 0.759, 0
41614, 0.099, -0.287, 0.922, -0.03, -0.048, 0.854, 0
41634, -0.274, 0.087, 0.652, -0.101, -0.1, 0.929, 0
41654, -0.748, 0.525, 0.695, -0.076, -0.126, 0.969, 0
41674, -0.956, 0.868, 0.932, 0.031, -0.07, 0.988, 0
41694, -0.728, 0.38, 1.621, 0.078, -0.034, 0.975, 0
41714, -0.501, 0.038, 2.211, -0.128, -0.098, 0.948, 0
41734, -0.646, -0.157, 2.446, -0.378, -0.136, 0.933, 0
41754, -0.903, -0.309, 2.316, -0.488, -0.13, 0.917, 0
41774, -1.164, -0.193, 1.997, -0.51, -0.115, 0.924, 0
41794, -1.338, -0.042, 1.794, -0.523, -0.07, 0.883, 0
41814, -1.762, -0.297, 1.793, -0.69, -0.01, 0.88, 0
41834, -2.299, -0.328, 1.561, -0.841, 0.05, 0.897, 0
41854, -2.63, -0.209, 1.354, -0.907, 0.086, 0.825, 0
41874, -2.726, -0.115, 1.004, -0.969, 0.029, 0.71, 0
41894, -2.836, -0.057, 0.815, -1.004, 0.055, 0.584, 0
41914, -2.385, -0.279, 0.808, -1.064, 0.164, 0.461, 0
41934, -2.112, -0.629, 0.628, -1.135, 0.089, 0.312, 0
41954, -2.475, -0.678, 0.079, -1.176, 0.091, 0.225, 0
41974, -2.687, -0.262, -0.542, -1.173, 0.287, 0.149, 0
41994, -2.715, -0.081, -0.813, -1.123, 0.437, 0.031, 0
42014, -2.46, -0.263, -1.05, -1.179, 0.4, -0.146, 0
42034, -2.427, 0.05, -1.628, -1.2, 0.371, -0.279, 0
42054, -2.342, 0.375, -2.044, -1.043, 0.432, -0.481, 0
42074, -2.125, 0.382, -2.176, -0.991, 0.367, -0.623, 0
42094, -2.301, 0.385, -2.459, -0.899, 0.433, -0.768, 0
42114, -1.928, 0.463, -2.655, -0.811, 0.558, -0.918, 0
42134, -1.381, 0.678, -2.885, -0.736, 0.579, -1.043, 0
42154, -0.551, 0.485, -3.171, -0.591, 0.546, -1.156, 0
42174, 0.036, 0.267, -3.155, -0.522, 0.517, -1.166, 0
42194, 0.163, 0.403, -2.971, -0.372, 0.514, -1.184, 0
42214, 0.333, 0.372, -2.613, -0.226, 0.496, -1.21, 0
42234, 0.697, 0.191, -2.453, -0.197, 0.434, -1.187, 0
42254, 0.722, 0.417, -2.486, -0.116, 0.504, -1.135, 0
42274, 0.749, 0.643, -2.136, 0.007, 0.538, -1.124, 0
42294, 0.543, 0.669, -1.898, 0.128, 0.506, -1.089, 0
42314, 0.734, 0.457, -1.803, 0.167, 0.403, -1.145, 0
42334, 0.891, 0.264, -1.506, 0.117, 0.357, -1.137, 0
42354, 0.963, 0.396, -1.439, 0.143, 0.354, -1.094, 0
42374, 0.82, 0.479, -1.267, 0.297, 0.307, -1.036, 0
42394, 0.545, 0.479, -1.176, 0.434, 0.371, -0.988, 0
42414, 1.23, 0.033, -1.11, 0.427, 0.365, -0.948, 0
42434, 1.679, -0.086, -1.118, 0.395, 0.248, -0.809, 0
42454, 1.581, 0.214, -1.261, 0.495, 0.199, -0.74, 0
42474, 1.499, 0.233, -1.088, 0.579, 0.166, -0.629, 0
42494, 1.48, 0.244, -0.956, 0.602, 0.145, -0.477, 0
42514, 1.633, 0.226, -1.001, 0.649, 0.18, -0.359, 0
42534, 1.904, 0.089, -0.761, 0.684, 0.044, -0.252, 0
42554, 0.913, 0.364, -0.485, 0.766, -0.007, -0.148, 0
42574, 1.026, 0.451, -0.299, 0.841, 0.089, -0.018, 0
42594, 0.838, 0.28, -0.083, 0.88, 0.095, 0.106, 0
42614, 0.584, 0.112, 0.295, 0.852, 0.061, 0.196, 0
42634, 0.237, 0.175, 0.428, 0.756, 0.005, 0.254, 0
42654, 0.027, 0.412, 0.488, 0.728, -0.012, 0.312, 0
42674, -0.306, 0.449, 0.654, 0.849, 0.045, 0.398, 0
42694, -0.158, 0.006, 1.094, 0.918, 0.115, 0.452, 0
42714, -0.131, -0.337, 1.642, 0.838, 0.082, 0.487, 0
42734, -0.135, -0.348, 1.838, 0.615, -0.004, 0.509, 0
42754, -0.509, -0.168, 1.582, 0.488, -0.036, 0.599, 0
42774, -0.773, -0.275, 1.507, 0.53, 0.156, 0.683, 0
42794, -0.622, -0.324, 1.358, 0.487, 0.339, 0.77, 0
42814, -0.419, -0.242, 1.364, 0.374, 0.249, 0.738, 0
42834, -0.783, -0.288, 1.353, 0.142, -0.01, 0.747, 0
42854, -1.486, -0.282, 1.125, -0.007, -0.047, 0.754, 0
42874, -1.158, -0.368, 1.053, -0.053, -0.058, 0.673, 0
42894, -2.098, -0.413, 1.177, -0.095, -0.138, 0.686, 0
42914, -2.498, -0.306, 1.612, -0.177, -0.038, 0.596, 0
42934, -2.333, -0.159, 1.311, -0.284, -0.115, 0.51, 0
42954, -2.589, -0.085, 0.841, -0.337, -0.069, 0.465, 0
42974, -2.104, -0.304, 0.556, -0.322, 0.152, 0.42, 0
42994, -1.5, -0.21, 0.103, -0.318, 0.106, 0.349, 0
43014, -1.618, -0.02, -0.269, -0.232, -0.02, 0.312, 0
43034, -1.484, -0.172, -0.054, -0.115, -0.047, 0.216, 0
43054, -1.144, -0.461, -0.005, -0.211, -0.07, 0.167, 0
43074, -0.61, -0.394, -0.281, -0.207, -0.134, 0.166, 0
43094, -0.705, -0.354, -0.361, -0.117, -0.119, 0.167, 0
43114, -0.536, -0.17, -0.391, 0.057, -0.149, 0.15, 0
43134, -0.256, -0.178, -0.499, 0.155, -0.184, 0.115, 0
43154, -0.264, -0.868, -0.213, -0.142, 0.0, 0.1, 0
43174, 0.013, -0.357, -0.3, -0.37, 0.108, 0.116, 1
43194, 0.101, 0.188, -0.735, -0.238, -0.045, 0.047, 1
43214, -0.1, 0.069, -0.751, -0.058, -0.118, 0.045, 1
43234, -0.09, -0.219, -0.553, -0.033, -0.05, 0.067, 1
43254, 0.167, -0.47, -0.441, -0.088, 0.031, 0.097, 1
43274, 0.214, -0.247, -0.496, -0.169, 0.029, 0.137, 1
43294, -0.015, 0.013, -0.644, -0.091, -0.025, 0.095, 1
43314, -0.101, -0.028, -0.479, 0.015, -0.063, 0.075, 1
43334, -0.124, -0.312, -0.242, -0.061, -0.002, 0.075, 1
43354, 0.141, -0.256, -0.219, -0.128, 0.029, 0.105, 1
43374, -0.024, -0.016, -0.298, -0.06, 0.025, 0.107, 1
43394, -0.129, 0.041, -0.135, 0.007, -0.015, 0.089, 1
43414, -0.082, -0.079, 0.0, 0.0, -0.031, 0.077, 1
43434, -0.083, -0.088, 0.047, -0.083, 0.048, 0.091, 1
43454, -0.041, -0.082, 0.067, -0.133, 0.07, 0.077, 1
43474, -0.028, -0.026, 0.083, -0.135, 0.017, 0.056, 1
43494, -0.005, -0.037, -0.031, -0.109, 0.061, 0.067, 1
43514, 0.102, -0.118, -0.017, -0.126, 0.063, 0.08, 1
43534, -0.034, -0.027, -0.088, -0.2, 0.072, 0.087, 1
43554, -0.025, -0.01, -0.323, -0.139, 0.072, 0.081, 1
43574, -0.035, -0.032, -0.332, -0.09, 0.046, 0.076, 1
43594, -0.056, 0.003, -0.335, -0.097, 0.039, 0.066, 1
43614, -0.026, -0.011, -0.327, -0.134, 0.016, 0.05, 1
43634, -0.086, 0.009, -0.411, -0.128, 0.009, 0.045, 1
43654, -0.041, -0.026, -0.312, -0.058, 0.044, 0.04, 1
43674, 0.094, -0.179, -0.11, -0.039, 0.048, 0.03, 1
43694, 0.153, -0.237, -0.106, -0.1, 0.021, 0.036, 1
43714, 0.091, -0.143, -0.181, -0.133, 0.023, 0.049, 1
43734, 0.021, -0.119, -0.159, -0.098, 0.036, 0.064, 1
43754, -0.013, -0.017, -0.159, -0.083, 0.034, 0.07, 1
43774, -0.11, 0.081, -0.163, -0.085, 0.006, 0.061, 1
43794, -0.115, -0.028, -0.068, -0.065, 0.018, 0.057, 1
43814, -0.116, -0.124, -0.001, -0.089, 0.016, 0.059, 1
43834, -0.022, -0.072, -0.05, -0.115, 0.027, 0.042, 1
43854, 0.009, -0.008, -0.118, -0.116, 0.0, 0.024, 1
43874, -0.044, -0.008, -0.131, -0.09, -0.004, 0.026, 1
43894, 0.021, -0.234, 0.028, -0.076, 0.055, 0.037, 1
43914, 0.084, -0.085, -0.085, -0.147, 0.075, 0.043, 1
43934, 0.023, -0.004, -0.202, -0.133, 0.015, 0.021, 1
43954, -0.041, -0.003, -0.264, -0.109, -0.021, 0.015, 1
43974, -0.015, -0.082, -0.213, -0.073, 0.013, 0.026, 1
43994, -0.019, -0.153, -0.123, -0.113, 0.063, 0.061, 1
44014, 0.01, -0.015, -0.249, -0.144, 0.052, 0.056, 1
44034, -0.108, 0.057, -0.283, -0.1, 0.029, 0.034, 1
44054, -0.042, 0.012, -0.277, -0.073, 0.007, 0.02, 1
44074, -0.045, -0.151, -0.196, -0.096, 0.062, 0.032, 1
44094, 0.069, -0.174, -0.133, -0.123, 0.075, 0.04, 1
44114, 0.043, -0.071, -0.121, -0.128, 0.042, 0.03, 1
44134, -0.007, -0.007, -0.297, -0.078, 0.002, 0.038, 1
44154, -0.125, -0.056, -0.278, -0.061, 0.064, 0.075, 1
44174, -0.035, -0.07, -0.121, -0.101, 0.064, 0.081, 1
44194, -0.174, -0.018, -0.164, -0.125, 0.029, 0.041, 1
44214, -0.101, 0.043, -0.198, -0.086, 0.019, 0.021, 1
44234, 0.006, -0.118, -0.175, -0.101, 0.052, 0.042, 1
44254, 0.005, -0.072, -0.192, -0.115, 0.088, 0.055, 1
44274, 0.003, -0.002, -0.21, -0.094, 0.047, 0.045, 1
44294, -0.017, -0.001, -0.241, -0.077, 0.017, 0.032, 1
44314, -0.028, -0.131, -0.121, -0.11, 0.041, 0.053, 1
44334, -0.032, -0.028, -0.073, -0.096, 0.06, 0.064, 1
44354, -0.012, -0.028, -0.082, -0.116, 0.047, 0.045, 1
44374, -0.017, -0.052, -0.12, -0.152, 0.037, 0.046, 1
44394, -0.038, -0.042, -0.16, -0.134, 0.061, 0.054, 1
44414, -0.031, -0.093, -0.09, -0.165, 0.091, 0.053, 1
44434, -0.039, -0.037, -0.083, -0.251, 0.097, 0.021, 1
44454, -0.018, 0.298, -0.43, -0.144, 0.033, -0.02, 1
44474, -0.053, 0.047, -0.424, -0.045, 0.006, 0.0, 1
44494, 0.02, -0.269, -0.078, -0.188, 0.062, 0.046, 1
44514, 0.165, 0.015, -0.351, -0.103, 0.038, 0.058, 1
44534, 0.335, -0.221, -0.199, 0.028, 0.056, 0.08, 0
44554, 0.252, -0.219, 0.0, -0.028, 0.072, 0.044, 0
44574, 0.163, 0.027, -0.333, -0.078, 0.034, 0.096, 0
44594, 0.03, 0.047, -0.539, 0.057, -0.047, 0.147, 0
44614, 0.027, -0.133, -0.338, 0.21, -0.036, 0.185, 0
44634, 0.206, -0.257, -0.09, 0.106, 0.042, 0.207, 0
44654, 0.186, -0.011, -0.395, -0.025, 0.025, 0.243, 0
44674, 0.222, 0.246, -0.769, -0.004, -0.004, 0.267, 0
44694, 0.211, 0.009, -0.651, 0.125, -0.024, 0.31, 0
44714, 0.304, 0.022, -0.436, 0.095, -0.067, 0.35, 0
44734, 0.158, 0.097, -0.379, 0.098, -0.135, 0.408, 0
44754, 0.192, 0.084, -0.184, 0.171, -0.142, 0.45, 0
44774, 0.138, 0.086, 0.08, 0.257, -0.21, 0.47, 0
44794, 0.121, 0.022, 0.59, 0.216, -0.164, 0.51, 0
44814, 0.357, 0.198, 0.97, 0.106, -0.158, 0.546, 0
44834, 0.109, 0.237, 1.205, 0.065, -0.178, 0.612, 0
44854, 0.045, 0.03, 1.439, 0.119, -0.107, 0.688, 0
44874, 0.122, -0.178, 1.839, 0.091, -0.004, 0.758, 0
44894, 0.227, -0.26, 2.237, -0.081, 0.022, 0.817, 0
44914, -0.098, 0.04, 2.078, -0.265, 0.001, 0.897, 0
44934, -0.341, 0.126, 2.047, -0.328, 0.078, 0.943, 0
44954, -0.427, 0.029, 2.212, -0.397, 0.135, 0.998, 0
44974, -1.203, -0.01, 2.17, -0.549, 0.2, 1.122, 0
44994, -1.969, -0.161, 1.996, -0.618, 0.386, 1.165, 0
45014, -2.228, -0.011, 1.75, -0.749, 0.337, 1.09, 0
45034, -2.655, 0.207, 1.305, -0.82, 0.224, 1.006, 0
45054, -4.256, 0.702, 0.456, -0.55, 0.631, 0.986, 0
45074, -4.519, 0.339, 0.429, -0.318, 1.079, 0.863, 0
45094, -3.122, -0.666, 0.568, -0.583, 0.805, 0.625, 0
45114, -3.005, -0.519, 0.053, -0.988, 0.389, 0.461, 0
45134, -3.278, -0.179, -0.349, -1.053, 0.384, 0.368, 0
45154, -3.308, -0.249, -0.355, -1.092, 0.312, 0.226, 0
45174, -3.593, -0.043, -0.267, -1.105, 0.238, 0.021, 0
45194, -3.974, 0.14, -0.147, -1.08, 0.369, -0.178, 0
45214, -3.36, -0.176, -0.139, -1.106, 0.397, -0.318, 0
45234, -3.141, -0.504, -0.168, -1.153, 0.45, -0.436, 0
45254, -3.039, -0.541, -0.051, -1.26, 0.518, -0.621, 0
45274, -2.584, -0.298, -0.613, -1.334, 0.481, -0.758, 0
45294, -2.512, 0.14, -1.887, -1.191, 0.544, -0.851, 0
45314, -1.985, -0.107, -2.114, -1.064, 0.613, -0.93, 0
45334, -1.658, -0.188, -2.201, -1.059, 0.467, -1.039, 0
45354, -1.724, 0.093, -2.7, -1.006, 0.377, -1.139, 0
45374, -1.375, 0.249, -3.09, -0.888, 0.409, -1.244, 0
45394, -0.878, 0.401, -3.124, -0.753, 0.353, -1.3, 0
45414, -0.301, 0.079, -3.138, -0.736, 0.252, -1.356, 0
45434, 0.349, 0.163, -3.54, -0.7, 0.096, -1.401, 0
45454, 0.312, 0.612, -3.716, -0.576, 0.068, -1.445, 0
45474, 1.772, 0.602, -3.633, -0.377, -0.067, -1.398, 0
45494, 1.306, 0.623, -3.795, -0.202, -0.009, -1.25, 0
45514, 1.492, 0.757, -3.144, 0.073, 0.298, -1.179, 0
45534, 2.122, 0.621, -2.614, 0.221, 0.284, -1.15, 0
45554, 1.834, 0.551, -2.657, 0.282, 0.251, -1.01, 0
45574, 1.806, 0.29, -2.37, 0.461, 0.345, -0.912, 0
45594, 1.728, 0.117, -2.037, 0.562, 0.258, -0.845, 0
45614, 1.492, 0.317, -2.079, 0.568, 0.04, -0.757, 0
45634, 0.911, 0.698, -2.118, 0.678, 0.077, -0.601, 0
45654, 1.095, 0.543, -1.327, 0.874, 0.207, -0.485, 0
45674, 1.11, 0.583, -0.885, 0.936, 0.125, -0.414, 0
45694, 1.477, 0.496, -0.602, 0.941, -0.045, -0.382, 0
45714, 0.96, 0.517, -0.277, 0.949, -0.177, -0.252, 0
45734, 0.579, 0.242, 0.333, 1.031, -0.012, -0.122, 0
45754, 0.83, 0.125, 0.831, 1.018, 0.097, -0.041, 0
45774, 0.669, 0.265, 0.978, 1.004, 0.012, -0.01, 0
45794, 0.613, 0.296, 1.131, 1.022, -0.014, 0.039, 0
45814, 0.554, -0.01, 1.243, 0.959, 0.023, 0.144, 0
45834, 0.345, -0.113, 1.32, 0.835, 0.015, 0.251, 0
45854, 0.153, -0.088, 1.427, 0.777, 0.029, 0.34, 0
45874, 0.19, -0.385, 1.668, 0.712, -0.005, 0.414, 0
45894, -0.026, -0.393, 1.549, 0.628, -0.098, 0.489, 0
45914, -0.403, -0.279, 1.492, 0.601, -0.116, 0.624, 0
45934, -0.65, -0.422, 1.705, 0.583, -0.063, 0.725, 0
45954, -0.889, -0.416, 1.616, 0.351, -0.099, 0.777, 0
45974, -1.138, -0.35, 1.267, 0.257, -0.031, 0.833, 0
45994, -1.197, -0.297, 1.19, 0.21, 0.009, 0.893, 0
46014, -1.31, -0.196, 1.191, 0.163, -0.095, 0.811, 0
46034, -1.438, -0.328, 1.229, 0.055, -0.171, 0.792, 0
46054, -1.637, -0.244, 0.97, -0.009, -0.098, 0.791, 0
46074, -1.87, -0.071, 0.787, -0.01, -0.027, 0.776, 0
46094, -1.973, -0.264, 0.898, -0.049, -0.031, 0.737, 0
46114, -2.346, -0.565, 0.861, -0.136, -0.017, 0.689, 0
46134, -2.37, -0.34, 0.429, -0.167, 0.017, 0.616, 0
46154, -2.204, -0.146, -0.012, -0.141, 0.053, 0.544, 0
46174, -2.001, -0.251, 0.026, -0.136, 0.07, 0.495, 0
46194, -1.874, -0.445, 0.212, -0.126, -0.043, 0.427, 0
46214, -1.876, -0.602, 0.151, -0.208, -0.089, 0.35, 0
46234, -1.819, -0.189, -0.321, -0.135, -0.072, 0.285, 0
46254, -1.613, -0.27, -0.216, -0.124, -0.026, 0.201, 0
46274, -1.347, -0.258, -0.121, -0.104, -0.076, 0.131, 0
46294, -0.922, -0.358, -0.368, -0.054, -0.057, 0.138, 0
46314, -0.345, -0.117, -0.729, 0.13, -0.081, 0.189, 0
46334, -0.246, -0.018, -0.705, 0.362, -0.098, 0.219, 1
46354, -0.266, -0.33, -0.102, 0.292, -0.038, 0.183, 1
46374, -0.226, -0.938, 0.4, -0.076, 0.084, 0.192, 1
46394, -0.392, -0.288, 0.093, -0.198, 0.119, 0.155, 1
46414, -0.316, 0.152, -0.237, -0.104, 0.007, 0.02, 1
46434, -0.234, 0.096, -0.255, -0.036, -0.058, 0.014, 1
46454, -0.052, -0.423, 0.004, -0.136, 0.139, 0.032, 1
46474, -0.022, -0.072, -0.296, -0.174, 0.084, 0.014, 1
46494, -0.034, -0.016, -0.326, -0.107, -0.007, -0.02, 1
46514, -0.062, -0.024, -0.308, -0.009, -0.03, -0.014, 1
46534, -0.03, -0.265, -0.03, 0.041, 0.017, -0.006, 1
46554, 0.17, -0.315, 0.073, -0.086, 0.073, 0.015, 1
46574, 0.09, -0.195, 0.018, -0.192, 0.053, 0.03, 1
46594, -0.025, -0.009, -0.19, -0.184, 0.02, 0.027, 1
46614, -0.081, -0.023, -0.234, -0.092, 0.001, 0.016, 1
46634, -0.031, -0.007, -0.243, -0.067, 0.04, 0.014, 1
46654, 0.091, -0.135, -0.198, -0.106, 0.063, 0.025, 1
46674, 0.068, -0.193, -0.184, -0.163, 0.036, 0.046, 1
46694, -0.098, -0.001, -0.308, -0.116, -0.017, 0.03, 1
46714, -0.068, -0.018, -0.291, -0.028, 0.003, 0.007, 1
46734, 0.031, -0.093, -0.217, -0.057, 0.048, 0.008, 1
46754, 0.108, -0.114, -0.222, -0.153, 0.054, 0.031, 1
46774, -0.024, -0.056, -0.328, -0.174, 0.046, 0.083, 1
46794, -0.051, 0.046, -0.419, -0.106, 0.045, 0.081, 1
46814, 0.007, -0.043, -0.259, -0.01, 0.002, 0.047, 1
46834, -0.04, -0.021, -0.133, -0.053, 0.011, 0.06, 1
46854, -0.05, -0.15, 0.112, -0.098, 0.059, 0.073, 1
46874, -0.031, -0.015, -0.077, -0.155, 0.04, 0.076, 1
46894, -0.12, 0.038, -0.289, -0.067, -0.02, 0.051, 1
46914, -0.103, -0.113, -0.094, -0.015, 0.03, 0.066, 1
46934, -0.05, -0.083, -0.064, -0.127, 0.088, 0.084, 1
46954, -0.018, -0.048, -0.257, -0.152, 0.048, 0.077, 1
46974, -0.053, 0.142, -0.506, -0.054, 0.0, 0.064, 1
46994, -0.069, 0.017, -0.285, -0.011, -0.028, 0.047, 1
47014, -0.153, -0.054, -0.066, -0.067, -0.012, 0.043, 1
47034, -0.104, -0.144, -0.038, -0.11, 0.052, 0.045, 1
47054, 0.07, -0.074, -0.081, -0.107, 0.028, 0.028, 1
47074, 0.094, -0.079, -0.174, -0.061, -0.013, 0.026, 1
47094, 0.026, -0.109, -0.121, -0.06, 0.01, 0.037, 1
47114, -0.011, -0.051, -0.059, -0.087, 0.067, 0.061, 1
47134, -0.02, -0.036, 0.009, -0.12, 0.072, 0.058, 1
47154, -0.158, 0.078, -0.065, -0.095, 0.015, 0.024, 1
47174, -0.072, 0.012, -0.197, -0.083, 0.031, 0.025, 1
47194, 0.004, -0.1, -0.154, -0.121, 0.073, 0.043, 1
47214, 0.017, -0.051, -0.091, -0.143, 0.051, 0.037, 1
47234, -0.081, 0.021, -0.253, -0.092, 0.028, 0.028, 1
47254, -0.048, -0.02, -0.292, -0.051, 0.04, 0.025, 1
47274, 0.05, -0.067, -0.179, -0.082, 0.031, 0.027, 1
47294, -0.046, -0.154, -0.022, -0.183, 0.037, 0.033, 1
47314, -0.181, 0.058, -0.107, -0.167, 0.067, 0.029, 1
47334, -0.054, 0.105, -0.346, -0.018, 0.01, -0.005, 1
47354, -0.028, -0.102, -0.177, -0.004, -0.004, -0.013, 1
47374, -0.063, -0.224, 0.0, -0.089, 0.06, 0.007, 1
47394, 0.001, -0.168, -0.026, -0.165, 0.064, 0.009, 1
47414, -0.007, -0.018, -0.208, -0.142, 0.078, 0.017, 1
47434, 0.063, -0.119, -0.096, -0.128, 0.053, 0.012, 1
47454, 0.003, -0.012, -0.134, -0.146, 0.024, 0.006, 1
47474, -0.07, 0.004, -0.286, -0.1, 0.01, 0.036, 1
47494, -0.031, -0.081, -0.118, -0.095, 0.043, 0.039, 1
47514, 0.071, 0.002, -0.105, -0.163, 0.061, 0.011, 1
47534, -0.023, -0.099, -0.182, -0.098, 0.006, 0.029, 1
47554, -0.09, 0.085, -0.158, -0.178, 0.065, -0.004, 0
47574, 0.122, 0.156, -0.54, -0.13, 0.042, -0.036, 0
47594, 0.183, -0.1, -0.456, -0.039, 0.01, 0.0, 0
47614, 0.14, -0.075, -0.491, -0.001, 0.003, 0.067, 0
47634, 0.204, -0.062, -0.545, 0.11, -0.024, 0.123, 0
47654, 0.31, -0.311, -0.344, 0.103, 0.03, 0.189, 0
47674, 0.529, -0.142, -0.438, 0.012, 0.1, 0.232, 0
47694, 0.556, 0.075, -0.496, 0.008, 0.057, 0.26, 0
47714, 0.534, 0.115, -0.465, 0.113, 0.012, 0.324, 0
47734, 0.483, 0.114, -0.268, 0.155, 0.008, 0.388, 0
47754, 0.463, 0.25, -0.21, 0.155, 0.028, 0.442, 0
47774, 0.562, 0.245, 0.044, 0.207, 0.007, 0.513, 0
47794, 0.547, 0.303, 0.435, 0.209, -0.044, 0.563, 0
47814, 0.501, 0.317, 0.846, 0.252, -0.074, 0.571, 0
47834, 0.622, 0.26, 1.393, 0.183, -0.054, 0.618, 0
47854, 0.507, -0.347, 1.892, 0.07, -0.022, 0.715, 0
47874, 0.113, -0.511, 1.861, -0.143, 0.035, 0.888, 0
47894, -0.47, -0.073, 1.54, -0.191, 0.104, 1.04, 0
47914, -0.956, -0.079, 1.825, -0.32, 0.108, 1.035, 0
47934, -1.505, 0.382, 1.942, -0.443, 0.098, 1.002, 0
47954, -1.865, 0.617, 2.047, -0.476, 0.159, 0.959, 0
47974, -1.875, 0.595, 2.159, -0.523, 0.163, 0.906, 0
47994, -2.256, 0.043, 2.317, -0.681, 0.271, 0.893, 0
48014, -2.338, -0.359, 2.197, -0.831, 0.342, 0.877, 0
48034, -2.431, -0.269, 1.768, -0.949, 0.24, 0.81, 0
48054, -2.951, 0.204, 1.05, -0.89, 0.246, 0.72, 0
48074, -3.06, -0.135, 1.057, -0.88, 0.312, 0.616, 0
48094, -2.935, -0.803, 1.437, -1.122, 0.218, 0.518, 0
48114, -3.607, -0.445, 1.246, -1.296, 0.141, 0.351, 0
48134, -4.342, -0.075, 0.674, -1.31, 0.295, 0.131, 0
48154, -4.076, 0.229, -0.103, -1.128, 0.443, -0.063, 0
48174, -3.792, 0.038, -0.489, -1.031, 0.654, -0.21, 0
48194, -2.476, -0.851, -0.662, -1.335, 0.54, -0.359, 0
48214, -2.181, -0.36, -1.671, -1.437, 0.237, -0.485, 0
48234, -2.769, 0.213, -2.392, -1.213, 0.198, -0.621, 0
48254, -3.176, 0.211, -2.789, -1.024, 0.392, -0.759, 0
48274, -2.061, -0.192, -3.062, -0.995, 0.466, -0.885, 0
48294, -1.531, -0.109, -3.164, -0.96, 0.418, -1.0, 0
48314, -1.239, 0.107, -3.013, -0.833, 0.332, -1.115, 0
48334, -1.395, 0.306, -3.135, -0.648, 0.39, -1.221, 0
48354, -1.039, 0.239, -3.103, -0.519, 0.668, -1.269, 0
48374, 0.75, -0.001, -3.29, -0.492, 0.562, -1.26, 0
48394, 1.169, 0.176, -3.3, -0.181, 0.284, -1.199, 0
48414, 0.143, 0.483, -2.459, -0.026, 0.34, -1.137, 0
48434, 0.272, 0.532, -1.902, -0.043, 0.362, -1.177, 0
48454, 0.553, 0.618, -1.967, -0.094, 0.376, -1.15, 0
48474, 0.787, 0.764, -2.013, 0.091, 0.491, -1.138, 0
48494, 1.078, 0.547, -1.449, 0.275, 0.539, -1.117, 0
48514, 1.067, 0.386, -1.521, 0.264, 0.449, -1.049, 0
48534, 1.129, 0.64, -1.701, 0.348, 0.42, -0.97, 0
48554, 1.088, 0.635, -1.439, 0.564, 0.459, -0.87, 0
48574, 1.367, 0.192, -0.852, 0.696, 0.442, -0.806, 0
48594, 1.813, 0.14, -0.853, 0.59, 0.289, -0.711, 0
48614, 1.811, 0.203, -0.998, 0.531, 0.163, -0.58, 0
48634, 1.558, 0.274, -0.953, 0.629, 0.147, -0.457, 0
48654, 1.759, 0.175, -0.615, 0.665, 0.151, -0.368, 0
48674, 1.824, 0.414, -0.516, 0.64, -0.041, -0.285, 0
48694, 1.292, 0.398, -0.243, 0.661, -0.089, -0.154, 0
48714, 1.343, 0.128, 0.002, 0.696, -0.001, -0.001, 0
48734, 1.296, 0.043, 0.159, 0.707, -0.04, 0.139, 0
48754, 0.744, 0.129, 0.309, 0.667, -0.045, 0.269, 0
48774, 0.223, 0.146, 0.47, 0.64, -0.026, 0.341, 0
48794, -0.157, 0.128, 0.692, 0.626, -0.023, 0.373, 0
48814, -0.216, 0.091, 0.731, 0.591, -0.024, 0.424, 0
48834, -0.236, -0.22, 0.837, 0.576, -0.062, 0.475, 0
48854, -0.474, -0.396, 0.978, 0.472, -0.089, 0.524, 0
48874, -0.608, -0.488, 1.159, 0.265, -0.105, 0.588, 0
48894, -0.858, -0.297, 1.013, 0.279, -0.141, 0.602, 0
48914, -1.242, -0.368, 1.015, 0.394, -0.113, 0.681, 0
48934, -1.263, -0.608, 1.175, 0.411, -0.086, 0.755, 0
48954, -1.354, -0.471, 1.36, 0.346, -0.149, 0.729, 0
48974, -1.416, -0.427, 1.5, 0.205, -0.226, 0.642, 0
48994, -1.508, -0.251, 1.382, 0.138, -0.205, 0.611, 0
49014, -1.502, -0.335, 1.291, 0.096, -0.154, 0.599, 0
49034, -1.507, -0.325, 1.109, 0.079, -0.136, 0.521, 0
49054, -1.485, -0.636, 1.025, -0.023, -0.086, 0.477, 0
49074, -1.353, -0.643, 0.762, -0.087, -0.056, 0.483, 0
49094, -1.34, -0.518, 0.517, -0.087, -0.088, 0.485, 0
49114, -1.458, -0.576, 0.427, -0.172, -0.064, 0.417, 0
49134, -1.386, -0.618, 0.219, -0.205, -0.03, 0.339, 0
49154, -1.117, -0.49, 0.058, -0.234, -0.037, 0.361, 0
49174, -1.099, -0.355, -0.122, -0.163, -0.097, 0.336, 0
49194, -1.256, -0.33, -0.087, -0.109, -0.093, 0.284, 0
49214, -1.101, -0.293, -0.198, -0.052, -0.083, 0.236, 0
49234, -0.771, -0.304, -0.385, 0.045, -0.095, 0.225, 0
49254, -0.664, -0.4, -0.375, 0.045, -0.037, 0.166, 0
49274, -0.269, -0.447, -0.324, -0.031, -0.08, 0.087, 0
49294, -0.271, -0.265, -0.521, -0.018, -0.102, 0.061, 1
49314, -0.233, -0.319, -0.401, -0.014, -0.006, 0.073, 1
49334, -0.057, -0.297, -0.367, -0.058, 0.015, 0.102, 1
49354, 0.028, -0.219, -0.428, 0.039, 0.004, 0.083, 1
49374, -0.281, -0.061, -0.198, 0.091, -0.104, 0.07, 1
49394, -0.113, -0.452, 0.235, -0.064, 0.05, 0.045, 1
49414, -0.036, -0.03, -0.119, -0.263, 0.133, 0.065, 1
49434, 0.034, 0.171, -0.474, -0.135, 0.052, 0.009, 1
49454, 0.025, -0.05, -0.43, 0.03, -0.103, -0.056, 1
49474, 0.033, -0.148, -0.366, 0.087, -0.12, -0.054, 1
49494, 0.038, -0.198, -0.105, 0.037, 0.025, 0.02, 1
49514, 0.148, -0.159, -0.02, -0.085, 0.059, 0.059, 1
49534, -0.004, -0.05, -0.106, -0.114, -0.015, 0.054, 1
49554, -0.008, -0.141, 0.08, -0.065, -0.035, 0.033, 1
49574, -0.058, -0.125, 0.196, -0.102, 0.006, 0.059, 1
49594, -0.091, -0.028, 0.161, -0.184, 0.094, 0.062, 1
49614, -0.038, -0.014, -0.144, -0.208, 0.113, 0.051, 1
49634, 0.016, -0.013, -0.404, -0.149, 0.063, 0.037, 1
49654, 0.045, -0.071, -0.438, -0.103, 0.039, 0.059, 1
49674, -0.043, -0.049, -0.328, -0.135, 0.063, 0.08, 1
49694, -0.178, 0.13, -0.414, -0.145, 0.051, 0.083, 1
49714, -0.217, 0.097, -0.314, -0.08, 0.034, 0.053, 1
49734, -0.108, -0.068, -0.15, -0.054, 0.018, 0.037, 1
49754, -0.019, -0.052, -0.166, -0.079, 0.018, 0.043, 1
49774, 0.047, -0.163, -0.072, -0.089, 0.058, 0.054, 1
49794, 0.022, -0.081, -0.048, -0.122, 0.051, 0.054, 1
49814, -0.093, 0.055, -0.114, -0.102, 0.003, 0.038, 1
49834, -0.151, 0.022, -0.083, -0.072, 0.004, 0.031, 1
49854, -0.067, -0.044, -0.114, -0.078, 0.053, 0.022, 1
49874, 0.117, -0.212, -0.04, -0.156, 0.036, 0.034, 1
49894, 0.08, -0.056, -0.211, -0.152, 0.025, 0.033, 1
49914, 0.012, -0.002, -0.257, -0.075, -0.003, 0.024, 1
49934, -0.06, -0.104, -0.119, -0.081, 0.016, 0.032, 1
49954, -0.032, -0.05, -0.148, -0.114, 0.05, 0.041, 1
49974, -0.018, -0.024, -0.147, -0.145, 0.042, 0.045, 1
49994, -0.09, 0.082, -0.232, -0.096, 0.021, 0.021, 1
50014, -0.083, -0.038, -0.157, -0.061, 0.001, 0.026, 1
50034, -0.123, -0.06, -0.141, -0.081, 0.064, 0.034, 1
50054, 0.01, -0.106, -0.067, -0.124, 0.081, 0.03, 1
50074, 0.015, -0.031, -0.161, -0.139, 0.032, 0.002, 1
50094, -0.032, -0.006, -0.271, -0.096, 0.012, -0.015, 1
50114, -0.018, 0.006, -0.288, -0.04, 0.017, 0.009, 1
50134, -0.053, -0.122, -0.187, -0.048, 0.045, 0.032, 1
50154, 0.058, -0.247, 0.003, -0.141, 0.061, 0.044, 1
50174, 0.035, -0.047, -0.003, -0.161, 0.016, 0.04, 1
50194, -0.019, 0.021, -0.125, -0.08, -0.007, 0.048, 1
50214, -0.011, -0.049, -0.005, -0.092, 0.042, 0.076, 1
50234, -0.008, -0.031, -0.005, -0.096, 0.006, 0.079, 1
50254, -0.187, -0.151, 0.039, -0.164, 0.028, 0.07, 1
50274, -0.187, 0.026, -0.076, -0.196, 0.053, 0.054, 1
50294, -0.137, 0.066, -0.358, -0.115, 0.072, 0.051, 1
50314, -0.031, 0.023, -0.531, -0.031, 0.047, 0.045, 1
50334, 0.089, -0.171, -0.456, -0.088, 0.014, 0.054, 1
50354, -0.059, -0.145, -0.307, -0.11, 0.02, 0.08, 1
50374, -0.143, -0.036, -0.233, -0.083, 0.021, 0.075, 1
50394, -0.035, 0.003, -0.217, -0.062, 0.017, 0.046, 1
50414, -0.024, -0.118, -0.164, -0.018, 0.004, 0.05, 1
50434, -0.05, -0.256, 0.053, -0.073, 0.045, 0.069, 1
50454, -0.066, 0.002, -0.128, -0.144, 0.062, 0.072, 1
50474, -0.078, 0.06, -0.272, -0.061, 0.04, 0.043, 1
50494, -0.026, -0.009, -0.143, -0.026, 0.038, 0.047, 1
50514, -0.021, -0.128, 0.027, -0.05, 0.049, 0.055, 1
50534, 0.049, -0.147, 0.11, -0.108, 0.043, 0.051, 1
50554, -0.029, -0.001, -0.061, -0.132, 0.024, 0.036, 1
50574, -0.03, -0.003, -0.181, -0.079, 0.026, 0.032, 1
50594, 0.051, -0.156, 0.01, -0.057, 0.036, 0.019, 1
50614, 0.006, -0.05, -0.034, -0.129, 0.031, 0.032, 1
50634, -0.069, -0.034, -0.098, -0.135, 0.039, 0.034, 1
50654, -0.028, -0.055, -0.145, -0.147, 0.068, 0.049, 1
50674, -0.008, -0.015, -0.173, -0.175, 0.052, 0.045, 1
50694, -0.062, 0.031, -0.337, -0.11, 0.01, 0.036, 1
50714, -0.036, -0.147, -0.089, -0.066, 0.018, 0.02, 1
50734, -0.087, -0.139, -0.099, -0.12, 0.034, 0.034, 1
50754, -0.016, -0.103, -0.105, -0.169, 0.077, 0.034, 1
50774, 0.01, -0.025, -0.209, -0.165, 0.087, 0.021, 0
50794, 0.139, -0.034, -0.283, -0.135, 0.081, 0.022, 0
50814, 0.001, 0.004, -0.33, -0.079, 0.023, 0.024, 0
50834, 0.001, -0.173, -0.09, -0.113, 0.052, 0.041, 0
50854, 0.003, -0.007, -0.246, -0.1, 0.025, 0.036, 0
50874, -0.027, -0.043, -0.244, -0.057, 0.009, 0.056, 0
50894, -0.036, 0.038, -0.442, 0.03, 0.025, 0.083, 0
50914, 0.099, -0.124, -0.347, 0.004, 0.051, 0.11, 0
50934, 0.229, 0.017, -0.501, -0.063, 0.05, 0.108, 0
50954, 0.251, 0.19, -0.804, 0.01, 0.037, 0.146, 0
50974, 0.573, 0.087, -0.909, 0.095, 0.002, 0.196, 0
50994, 0.897, -0.047, -0.915, 0.162, -0.055, 0.293, 0
51014, 0.744, 0.069, -0.863, 0.24, -0.036, 0.376, 0
51034, 0.478, -0.056, -0.634, 0.257, 0.007, 0.462, 0
51054, 0.589, -0.052, -0.387, 0.196, -0.072, 0.502, 0
51074, 0.468, 0.192, -0.466, 0.209, -0.131, 0.557, 0
51094, 0.137, 0.513, -0.466, 0.361, -0.044, 0.634, 0
51114, 0.085, 0.262, 0.053, 0.439, 0.056, 0.709, 0
51134, 0.245, -0.112, 0.79, 0.323, -0.006, 0.744, 0
51154, 0.043, -0.03, 1.123, 0.153, -0.068, 0.765, 0
51174, -0.082, 0.132, 1.33, 0.047, -0.034, 0.794, 0
51194, -0.194, 0.296, 1.574, 0.021, 0.027, 0.805, 0
51214, -0.204, -0.095, 1.939, -0.006, 0.082, 0.856, 0
51234, -0.279, -0.093, 1.969, -0.042, 0.141, 0.927, 0
51254, -0.271, -0.175, 2.165, -0.2, 0.189, 0.99, 0
51274, -0.372, -0.058, 2.331, -0.395, 0.178, 1.004, 0
51294, -0.629, -0.055, 2.455, -0.511, 0.118, 0.999, 0
51314, -1.399, 0.08, 2.244, -0.483, 0.32, 1.023, 0
51334, -1.73, -0.206, 2.405, -0.556, 0.427, 0.999, 0
51354, -1.501, -0.951, 2.779, -0.805, 0.286, 0.902, 0
51374, -1.877, -1.116, 2.409, -1.137, 0.108, 0.906, 0
51394, -2.468, -0.441, 1.709, -1.164, 0.16, 0.864, 0
51414, -2.937, 0.126, 1.238, -1.094, 0.314, 0.803, 0
51434, -3.149, 0.33, 1.103, -1.136, 0.307, 0.635, 0
51454, -3.408, 0.292, 0.781, -1.284, 0.248, 0.512, 0
51474, -3.637, 0.667, 0.077, -1.315, 0.315, 0.357, 0
51494, -3.638, 0.835, -0.362, -1.378, 0.323, 0.202, 0
51514, -4.237, 1.284, -0.95, -1.401, 0.265, 0.0, 0
51534, -4.167, 0.858, -0.95, -1.301, 0.388, -0.227, 0
51554, -3.391, 0.449, -1.306, -1.271, 0.444, -0.446, 0
51574, -2.946, 0.359, -1.627, -1.28, 0.503, -0.596, 0
51594, -2.896, 0.533, -1.706, -1.232, 0.686, -0.701, 0
51614, -1.861, 0.452, -1.911, -1.18, 0.731, -0.918, 0
51634, -1.705, 0.612, -2.459, -1.136, 0.581, -1.067, 0
51654, -1.502, 0.783, -2.556, -0.99, 0.673, -1.171, 0
51674, -0.825, 0.498, -2.379, -0.893, 0.778, -1.281, 0
51694, 0.766, 0.343, -3.344, -0.933, 0.642, -1.409, 0
51714, 1.135, 0.548, -4.071, -0.766, 0.481, -1.37, 0
51734, 0.88, 0.776, -3.918, -0.464, 0.601, -1.268, 0
51754, 1.095, 0.682, -3.4, -0.295, 0.613, -1.264, 0
51774, 1.051, 0.794, -3.153, -0.217, 0.409, -1.304, 0
51794, 1.057, 0.642, -2.752, -0.033, 0.535, -1.249, 0
51814, 2.008, 0.311, -2.48, -0.09, 0.508, -1.224, 0
51834, 2.977, 0.209, -2.806, -0.162, 0.222, -1.108, 0
51854, 2.055, 0.869, -3.358, 0.147, 0.343, -0.927, 0
51874, 1.606, 0.789, -2.692, 0.528, 0.6, -0.824, 0
51894, 1.799, 0.31, -1.658, 0.518, 0.354, -0.755, 0
51914, 1.28, 0.243, -1.382, 0.492, 0.233, -0.66, 0
51934, 1.376, 0.153, -1.331, 0.522, 0.204, -0.59, 0
51954, 1.336, 0.384, -1.519, 0.635, 0.095, -0.528, 0
51974, 1.006, 0.629, -1.465, 0.817, 0.111, -0.427, 0
51994, 1.298, 0.518, -1.088, 0.883, 0.058, -0.364, 0
52014, 1.547, 0.506, -0.695, 0.915, -0.086, -0.251, 0
52034, 1.313, 0.263, -0.146, 0.924, -0.106, -0.147, 0
52054, 1.039, 0.364, 0.199, 0.951, -0.163, -0.104, 0
52074, 0.816, 0.256, 0.637, 0.912, -0.183, -0.045, 0
52094, 0.474, 0.355, 0.751, 0.918, -0.095, 0.08, 0
52114, 0.477, -0.154, 1.182, 0.837, -0.009, 0.181, 0
52134, 0.343, -0.438, 1.457, 0.725, -0.054, 0.252, 0
52154, 0.085, -0.221, 1.387, 0.702, -0.1, 0.32, 0
52174, -0.192, -0.32, 1.52, 0.656, -0.031, 0.448, 0
52194, -0.335, -0.619, 1.693, 0.494, 0.06, 0.546, 0
52214, -0.411, -0.531, 1.507, 0.368, 0.015, 0.56, 0
52234, -0.535, -0.233, 1.267, 0.401, -0.115, 0.644, 0
52254, -1.042, -0.252, 1.281, 0.405, -0.092, 0.674, 0
52274, -0.869, -0.373, 1.263, 0.318, -0.123, 0.723, 0
52294, -1.211, -0.365, 0.923, 0.152, -0.038, 0.769, 0
52314, -1.671, -0.206, 0.895, 0.141, -0.118, 0.726, 0
52334, -1.754, -0.175, 0.796, 0.103, -0.181, 0.675, 0
52354, -1.795, -0.298, 0.639, 0.094, -0.191, 0.649, 0
52374, -1.723, -0.408, 0.646, 0.047, -0.164, 0.613, 0
52394, -1.834, -0.434, 0.679, -0.021, -0.123, 0.577, 0
52414, -1.809, -0.296, 0.445, -0.053, -0.109, 0.521, 0
52434, -1.81, -0.497, 0.221, -0.076, -0.078, 0.482, 0
52454, -1.564, -0.48, 0.024, -0.119, -0.032, 0.442, 0
52474, -1.268, -0.327, -0.123, -0.119, -0.073, 0.383, 0
52494, -1.25, -0.261, -0.134, -0.086, -0.146, 0.324, 0
52514, -1.41, -0.371, -0.077, -0.05, -0.092, 0.312, 0
52534, -1.12, -0.408, -0.008, -0.061, 0.009, 0.289, 0
52554, -0.92, -0.144, -0.227, -0.067, -0.013, 0.24, 0
52574, -0.732, 0.013, -0.288, 0.053, -0.037, 0.226, 0
52594, -0.628, -0.304, -0.018, 0.153, -0.009, 0.191, 1
52614, -0.313, -0.501, 0.134, 0.02, 0.044, 0.117, 1
52634, -0.272, -0.223, -0.1, -0.122, 0.027, 0.105, 1
52654, -0.245, -0.036, -0.253, -0.111, 0.028, 0.102, 1
52674, -0.158, -0.122, -0.242, -0.046, 0.004, 0.065, 1
52694, -0.19, -0.086, -0.271, 0.058, -0.033, 0.02, 1
52714, -0.099, -0.192, -0.126, 0.065, 0.052, 0.038, 1
52734, 0.17, -0.334, 0.041, -0.05, 0.121, 0.035, 1
52754, 0.206, -0.216, -0.04, -0.18, 0.075, 0.014, 1
52774, 0.134, -0.02, -0.292, -0.139, 0.013, 0.031, 1
52794, 0.113, -0.036, -0.346, -0.057, 0.026, 0.062, 1
52814, 0.069, -0.085, -0.123, -0.034, 0.031, 0.086, 1
52834, 0.011, -0.238, 0.126, -0.135, 0.018, 0.086, 1
52854, -0.065, -0.067, 0.014, -0.17, 0.007, 0.076, 1
52874, -0.136, -0.01, -0.197, -0.144, 0.061, 0.08, 1
52894, 0.007, 0.088, -0.32, -0.082, 0.02, 0.047, 1
52914, 0.024, 0.05, -0.389, -0.026, -0.047, 0.051, 1
52934, -0.126, -0.107, -0.221, -0.064, 0.009, 0.066, 1
52954, -0.131, -0.18, -0.122, -0.175, 0.074, 0.084, 1
52974, -0.053, 0.028, -0.289, -0.172, 0.043, 0.083, 1
52994, -0.032, 0.047, -0.365, -0.062, -0.025, 0.056, 1
53014, -0.037, -0.09, -0.194, -0.023, -0.042, 0.051, 1
53034, -0.103, -0.192, 0.014, -0.087, 0.048, 0.072, 1
53054, -0.019, -0.134, 0.077, -0.17, 0.081, 0.071, 1
53074, -0.015, -0.012, -0.082, -0.125, 0.05, 0.048, 1
53094, 0.026, 0.0, -0.146, -0.004, -0.015, 0.025, 1
53114, -0.064, -0.107, -0.209, 0.021, 0.017, 0.069, 1
53134, -0.041, -0.265, -0.096, -0.128, 0.092, 0.076, 1
53154, -0.027, -0.026, -0.292, -0.198, 0.038, 0.07, 1
53174, -0.085, 0.172, -0.587, -0.08, -0.026, 0.031, 1
53194, -0.078, 0.023, -0.46, 0.015, 0.007, 0.051, 1
53214, -0.048, -0.261, -0.042, -0.071, 0.042, 0.061, 1
53234, -0.076, -0.107, -0.033, -0.174, 0.045, 0.051, 1
53254, -0.092, 0.011, -0.139, -0.119, 0.046, 0.007, 1
53274, -0.043, 0.008, -0.249, -0.048, 0.042, 0.023, 1
53294, 0.095, -0.096, -0.133, -0.049, 0.064, 0.03, 1
53314, 0.116, -0.123, -0.097, -0.105, 0.059, 0.04, 1
53334, 0.058, -0.023, -0.144, -0.128, 0.034, 0.034, 1
53354, -0.062, 0.074, -0.182, -0.061, -0.026, 0.018, 1
53374, -0.144, -0.054, -0.028, -0.029, 0.006, 0.036, 1
53394, -0.022, -0.058, 0.012, -0.1, 0.039, 0.044, 1
53414, -0.003, -0.028, -0.065, -0.13, 0.009, 0.025, 1
53434, -0.01, -0.046, -0.023, -0.108, 0.008, 0.021, 1
53454, 0.017, -0.023, -0.003, -0.099, 0.0, 0.016, 1
53474, -0.048, -0.093, -0.001, -0.089, 0.001, 0.024, 1
53494, -0.034, -0.073, -0.029, -0.151, 0.061, 0.05, 1
53514, -0.033, 0.023, -0.214, -0.163, 0.059, 0.034, 1
53534, -0.056, 0.026, -0.263, -0.155, 0.018, 0.006, 1
53554, -0.076, 0.008, -0.386, -0.097, -0.009, 0.016, 1
53574, 0.02, -0.211, -0.24, -0.033, 0.028, 0.022, 1
53594, 0.065, -0.138, -0.253, -0.107, 0.062, 0.036, 1
53614, -0.005, -0.019, -0.279, -0.128, 0.03, 0.029, 1
53634, -0.032, 0.028, -0.297, -0.108, 0.006, 0.035, 1
53654, -0.066, -0.045, -0.139, -0.042, 0.001, 0.032, 1
53674, -0.115, -0.251, 0.04, -0.039, 0.01, 0.023, 1
53694, -0.066, -0.124, 0.06, -0.141, 0.066, 0.03, 1
53714, -0.021, 0.0, -0.111, -0.175, 0.069, 0.024, 1
53734, -0.025, 0.011, -0.224, -0.13, 0.054, 0.006, 1
53754, -0.021, -0.086, -0.179, -0.07, 0.053, 0.02, 1
53774, 0.046, -0.368, -0.056, -0.255, 0.112, 0.047, 1
53794, -0.018, 0.0, -0.315, -0.235, 0.091, 0.036, 1
53814, -0.011, 0.033, -0.367, -0.083, 0.002, 0.024, 1
53834, -0.074, -0.052, -0.228, -0.035, -0.014, 0.028, 1
53854, -0.033, -0.151, -0.056, -0.094, 0.035, 0.048, 1
53874, 0.002, -0.13, -0.062, -0.163, 0.019, 0.047, 1
53894, -0.129, -0.038, -0.167, -0.181, 0.02, 0.034, 1
53914, -0.168, 0.029, -0.186, -0.144, 0.055, 0.038, 1
53934, -0.015, -0.001, -0.139, -0.108, 0.048, 0.04, 1
53954, 0.011, -0.018, -0.202, -0.051, 0.01, 0.039, 1
53974, 0.054, -0.11, -0.147, -0.06, -0.001, 0.028, 1
53994, -0.023, -0.07, -0.163, -0.134, 0.025, 0.018, 1
54014, -0.077, 0.016, -0.258, -0.106, 0.058, 0.061, 0
54034, 0.119, -0.084, -0.183, -0.051, 0.042, 0.057, 0
54054, 0.018, -0.116, -0.05, -0.12, 0.019, 0.039, 0
54074, -0.092, -0.008, -0.164, -0.128, 0.037, 0.051, 0
54094, -0.07, 0.002, -0.15, -0.088, 0.071, 0.071, 0
54114, -0.046, 0.042, -0.331, -0.009, 0.075, 0.061, 0
54134, 0.183, -0.097, -0.41, -0.003, 0.053, 0.05, 0
54154, 0.228, -0.15, -0.433, -0.075, 0.051, 0.081, 0
54174, 0.186, 0.009, -0.537, -0.039, 0.034, 0.111, 0
54194, 0.163, -0.02, -0.581, 0.014, 0.016, 0.12, 0
54214, 0.288, 0.04, -0.675, 0.031, 0.02, 0.157, 0
54234, 0.284, 0.062, -0.799, 0.081, 0.018, 0.241, 0
54254, 0.292, 0.216, -0.836, 0.169, -0.031, 0.268, 0
54274, 0.1, 0.094, -0.556, 0.288, -0.081, 0.3, 0
54294, 0.216, 0.01, -0.128, 0.242, 0.012, 0.356, 0
54314, 0.175, 0.264, -0.151, 0.149, -0.018, 0.403, 0
54334, 0.091, 0.409, -0.194, 0.172, -0.095, 0.439, 0
54354, 0.003, 0.454, -0.175, 0.327, -0.081, 0.474, 0
54374, 0.191, 0.038, 0.378, 0.367, 0.02, 0.54, 0
54394, -0.008, -0.007, 0.747, 0.318, 0.059, 0.615, 0
54414, 0.045, -0.154, 1.291, 0.266, 0.139, 0.67, 0
54434, 0.124, -0.15, 1.488, 0.139, 0.114, 0.703, 0
54454, 0.234, -0.296, 1.909, 0.059, 0.022, 0.665, 0
54474, 0.122, -0.641, 2.234, -0.113, -0.067, 0.724, 0
54494, -0.209, -0.486, 2.276, -0.274, -0.077, 0.824, 0
54514, -0.594, -0.186, 2.325, -0.384, 0.014, 0.918, 0
54534, -0.965, 0.024, 2.518, -0.411, 0.127, 0.962, 0
54554, -1.232, 0.113, 2.964, -0.45, 0.232, 0.97, 0
54574, -1.271, -0.298, 3.368, -0.616, 0.28, 0.935, 0
54594, -1.728, -0.509, 3.117, -0.927, 0.289, 0.951, 0
54614, -2.277, 0.201, 2.248, -1.055, 0.47, 0.973, 0
54634, -2.593, 0.641, 1.639, -0.991, 0.51, 0.851, 0
54654, -2.86, 0.5, 1.465, -1.088, 0.411, 0.747, 0
54674, -3.268, 0.07, 1.3, -1.318, 0.245, 0.665, 0
54694, -4.211, 0.137, 0.85, -1.409, 0.256, 0.601, 0
54714, -4.579, 0.311, 0.269, -1.254, 0.518, 0.365, 0
54734, -3.797, 0.401, -0.203, -1.323, 0.39, 0.061, 0
54754, -3.596, 0.345, -0.825, -1.442, 0.251, -0.121, 0
54774, -3.499, 0.12, -1.205, -1.392, 0.384, -0.232, 0
54794, -3.14, -0.077, -1.372, -1.345, 0.415, -0.365, 0
