timestamp, accX, accY, accZ, gyroX, gyroY, gyroZ, button
8835, -0.336996336996337, 0.15262515262515264, -1.3015873015873016, 1.125, -1.125, -1.25, 0.0
8836, -0.38583638583638585, 0.07814407814407814, -1.3846153846153846, 1.15625, -0.9375, -1.125, 0.0
8837, 0.3797313797313797, 0.08424908424908426, -1.7533577533577533, 0.96875, -0.9375, -1.03125, 0.0
1, 0.43833943833943834, 0.33943833943833945, -1.6642246642246643, 0.84375, -0.96875, -0.90625, 0.0
2, 0.3553113553113553, 0.3247863247863248, -1.6275946275946276, 0.5625, -0.9375, -0.6875, 0.0
3, 0.5225885225885226, 0.3199023199023199, -1.6117216117216118, 0.125, -0.84375, -0.375, 0.0
4, 0.047619047619047616, 0.5506715506715507, -1.5067155067155067, -0.1875, -0.40625, -0.0625, 0.0
5, -0.452991452991453, 1.3064713064713065, -0.49206349206349204, -0.25, 0.40625, 0.21875, 0.0
6, -0.2967032967032967, 2.012210012210012, 1.0, -0.125, 1.1875, 0.375, 0.0
7, 0.6324786324786325, 1.8632478632478633, 2.4053724053724053, -0.125, 1.25, 0.6875, 0.0
8, 3.173382173382173, 0.7826617826617827, 2.346764346764347, -0.4375, 0.71875, 0.71875, 0.0
9, 3.647130647130647, 1.0024420024420024, 2.1855921855921854, -0.59375, 0.15625, 0.40625, 0.0
10, 3.8864468864468864, 1.221001221001221, 1.9438339438339438, -0.53125, -0.28125, 0.21875, 0.0
11, 4.118437118437118, 0.9084249084249084, 1.347985347985348, -0.4375, -0.65625, 0.09375, 0.0
12, 4.562881562881563, -0.07692307692307693, 0.11721611721611722, -0.46875, -1.09375, -0.03125, 0.0
13, 4.117216117216117, -0.4725274725274725, -0.8913308913308914, -0.625, -1.40625, -0.15625, 0.0
14, 2.652014652014652, -0.35775335775335776, -1.1904761904761905, -0.65625, -1.21875, -0.1875, 0.0
15, 2.0476190476190474, -0.16361416361416362, -1.4346764346764347, -0.6875, -0.625, -0.1875, 0.0
16, 1.3174603174603174, 0.03663003663003663, -1.1746031746031746, -0.5, 0.0625, 0.0, 0.0
17, 1.442002442002442, -0.2698412698412698, -0.8302808302808303, -0.3125, 0.65625, 0.09375, 0.0
18, 1.5592185592185592, -0.44078144078144077, -0.48595848595848595, -0.3125, 0.875, 0.125, 0.0
19, 1.7191697191697193, -0.7045177045177046, -0.24786324786324787, -0.53125, 0.59375, 0.0, 0.0
20, 1.4273504273504274, -0.5702075702075702, -0.03663003663003663, -0.59375, 0.25, -0.09375, 0.0
21, 0.5836385836385837, -0.47741147741147744, -0.057387057387057384, -0.5625, 0.15625, -0.21875, 0.0
22, -0.20512820512820512, -0.34676434676434675, -0.0757020757020757, -0.5625, 0.28125, -0.25, 0.0
23, -0.6214896214896215, -0.41025641025641024, 0.028083028083028084, -0.625, 0.5, -0.1875, 0.0
24, -0.6556776556776557, -0.3431013431013431, 0.3076923076923077, -0.75, 0.5625, -0.15625, 0.0
25, -0.6703296703296703, -0.12087912087912088, 0.7741147741147741, -0.8125, 0.4375, -0.1875, 0.0
26, -1.0463980463980465, 0.21245421245421245, 1.2075702075702075, -0.6875, 0.3125, -0.25, 0.0
27, -1.242979242979243, 0.1746031746031746, 1.4639804639804639, -0.59375, 0.15625, -0.34375, 0.0
28, -1.0366300366300367, -0.27350427350427353, 1.0390720390720392, -0.65625, -0.375, -0.3125, 0.0
29, -1.916971916971917, 0.23809523809523808, 0.4139194139194139, -0.78125, -1.09375, -0.34375, 0.0
30, -3.3223443223443225, 0.5616605616605617, -0.20757020757020758, -0.6875, -1.34375, -0.15625, 0.0
31, -4.798534798534798, 0.6031746031746031, -1.1538461538461537, -0.53125, -0.90625, 0.28125, 0.0
32, -3.213675213675214, -0.5543345543345544, -0.7191697191697192, -0.4375, -0.46875, 0.6875, 0.0
33, -1.4090354090354091, -0.702075702075702, -0.0927960927960928, -0.5, -0.5, 0.8125, 0.0
34, -1.192918192918193, -0.938949938949939, 0.2844932844932845, -0.46875, -0.78125, 0.8125, 0.0
35, -1.5787545787545787, -0.960927960927961, 0.7667887667887668, -0.34375, -0.8125, 0.84375, 0.0
36, -0.9035409035409036, -1.448107448107448, 1.2332112332112333, -0.25, -0.5, 0.9375, 0.0
37, 0.26373626373626374, -1.4493284493284493, 1.7167277167277166, -0.34375, -0.4375, 1.0, 0.0
38, 1.706959706959707, -1.684981684981685, 1.9694749694749696, -0.4375, -0.6875, 0.875, 0.0
39, 1.1233211233211233, -0.9218559218559218, 2.0195360195360195, -0.46875, -1.1875, 0.5, 0.0
40, 0.1807081807081807, -0.3894993894993895, 1.873015873015873, -0.21875, -1.3125, 0.1875, 0.0
41, -0.3956043956043956, -0.1916971916971917, 1.4407814407814408, 0.09375, -1.21875, 0.21875, 0.0
42, -0.35775335775335776, 0.0, 1.017094017094017, 0.53125, -0.8125, 0.71875, 0.0
43, -0.4175824175824176, 0.3504273504273504, 0.6239316239316239, 0.96875, -0.25, 1.03125, 0.0
44, 0.08424908424908426, 0.16605616605616605, 0.0757020757020757, 1.3125, 0.3125, 1.34375, 0.0
45, 0.40415140415140416, 0.575091575091575, -0.5421245421245421, 1.71875, 1.09375, 1.84375, 0.0
46, 0.46886446886446886, 0.43345543345543347, -1.1074481074481075, 2.1875, 2.34375, 2.40625, 0.0
47, 1.0097680097680097, 0.009768009768009768, -0.9768009768009768, 2.59375, 3.78125, 2.9375, 0.0
48, 2.0354090354090353, -0.19413919413919414, -0.536019536019536, 3.03125, 5.09375, 3.40625, 0.0
49, 2.8766788766788767, -0.8302808302808303, 0.2893772893772894, 3.375, 6.3125, 3.84375, 0.0
50, 3.2356532356532357, -1.2576312576312576, 1.271062271062271, 3.59375, 7.28125, 4.0, 0.0
51, 2.5103785103785103, -0.2271062271062271, 2.244200244200244, 4.09375, 8.28125, 4.25, 0.0
52, 2.9743589743589745, -0.5103785103785103, 3.1807081807081805, 4.59375, 9.15625, 4.34375, 0.0
53, 5.495726495726496, -2.0525030525030523, 3.625152625152625, 4.625, 9.09375, 4.125, 0.0
54, 6.822954822954823, -2.905982905982906, 5.633699633699634, 4.40625, 7.875, 3.15625, 0.0
55, 6.819291819291819, -3.1452991452991452, 4.87057387057387, 4.40625, 6.71875, 2.40625, 0.0
56, 5.997557997557998, -3.559218559218559, 4.177045177045177, 4.3125, 5.40625, 1.625, 0.0
57, 4.0927960927960925, -3.8095238095238093, 3.7667887667887667, 4.1875, 4.3125, 1.125, 0.0
58, 2.9743589743589745, -3.8351648351648353, 3.485958485958486, 4.25, 3.625, 0.78125, 0.0
59, 1.7863247863247864, -3.7594627594627594, 2.9096459096459095, 4.40625, 3.09375, 0.65625, 0.0
60, 1.452991452991453, -3.937728937728938, 2.572649572649573, 4.65625, 2.65625, 0.5625, 0.0
61, 1.5702075702075702, -4.428571428571429, 2.0598290598290596, 4.8125, 2.09375, 0.4375, 0.0
62, 1.8021978021978022, -0.7448107448107448, -1.6251526251526252, 2.5, 6.09375, 1.71875, 0.0
63, 1.7118437118437118, -0.4249084249084249, -0.7533577533577533, 2.59375, 6.625, 1.4375, 0.0
64, -0.4432234432234432, 1.2808302808302807, 0.4627594627594628, 3.0625, 7.3125, 1.3125, 0.0
65, -1.5152625152625152, 1.5445665445665446, 1.452991452991453, 3.9375, 8.53125, 1.65625, 0.0
66, 0.5958485958485958, 0.7142857142857143, 1.6459096459096458, 4.40625, 9.25, 2.0, 0.0
67, 2.7313797313797314, 0.3882783882783883, 1.3199023199023199, 4.1875, 8.875, 1.75, 0.0
68, 3.244200244200244, 0.6825396825396826, 0.9963369963369964, 3.78125, 7.8125, 1.21875, 0.0
69, 2.641025641025641, 0.38583638583638585, 0.9548229548229549, 3.625, 6.84375, 0.6875, 0.0
70, 2.070818070818071, 0.14652014652014653, 1.1343101343101343, 3.65625, 6.1875, 0.40625, 0.0
71, 1.5360195360195361, 0.12942612942612944, 0.9181929181929182, 3.875, 5.59375, 0.25, 0.0
72, 1.9401709401709402, -0.7484737484737485, 0.36874236874236876, 4.125, 4.5, 0.125, 0.0
73, 1.0537240537240538, -1.6996336996336996, -0.2844932844932845, 4.125, 3.78125, 0.15625, 0.0
74, 0.6898656898656899, -2.15995115995116, -0.6678876678876678, 4.03125, 3.34375, 0.0625, 0.0
75, 0.8327228327228328, -2.6849816849816848, -0.7631257631257631, 3.8125, 2.84375, -0.0625, 0.0
76, 0.7728937728937729, -2.5763125763125765, -0.7948717948717948, 3.65625, 2.375, -0.15625, 0.0
77, 0.9841269841269841, -2.6324786324786325, -0.9010989010989011, 3.46875, 1.6875, -0.34375, 0.0
78, 0.6141636141636142, -2.6092796092796093, -1.1916971916971917, 3.1875, 0.96875, -0.46875, 0.0
79, 0.029304029304029304, -2.4346764346764345, -1.9352869352869353, 2.9375, 0.5, -0.625, 0.0
80, -0.9438339438339438, -2.84981684981685, -2.658119658119658, 2.5625, 0.40625, -0.875, 0.0
81, -1.205128205128205, -2.376068376068376, -2.78021978021978, 2.25, 0.375, -1.0625, 0.0
82, -1.3223443223443223, -1.1758241758241759, -2.503052503052503, 2.15625, 0.125, -0.90625, 0.0
83, -1.0866910866910866, -0.73992673992674, -2.8058608058608057, 2.125, -0.15625, -0.6875, 0.0
84, -1.4517704517704517, -1.376068376068376, -4.142857142857143, 1.84375, -0.4375, -0.78125, 0.0
85, -2.057387057387057, -0.8363858363858364, -4.622710622710622, 1.4375, -0.53125, -1.0, 0.0
86, -2.5128205128205128, -0.27472527472527475, -4.6642246642246645, 1.125, -0.5, -1.0, 0.0
87, -2.663003663003663, 0.1978021978021978, -4.589743589743589, 0.875, -0.46875, -0.78125, 0.0
88, -2.9279609279609278, 0.16727716727716727, -4.611721611721611, 0.71875, -0.4375, -0.46875, 0.0
89, -2.700854700854701, -0.2442002442002442, -4.305250305250305, 0.5, -0.34375, -0.25, 0.0
90, -2.006105006105006, -0.2026862026862027, -3.68986568986569, 0.125, -0.25, -0.125, 0.0
91, -1.873015873015873, -0.25396825396825395, -2.912087912087912, -0.1875, -0.15625, -0.03125, 0.0
92, -1.5787545787545787, -0.05860805860805861, -1.9462759462759462, -0.3125, 0.0, 0.0, 0.0
93, -1.170940170940171, -0.13553113553113552, -1.0451770451770452, -0.25, 0.1875, 0.03125, 0.0
94, -0.36874236874236876, -0.32112332112332115, -0.33577533577533575, -0.21875, 0.34375, 0.0, 0.0
95, 0.16361416361416362, -0.47741147741147744, 0.1391941391941392, -0.25, 0.21875, -0.03125, 0.0
96, -0.06227106227106227, -0.07203907203907203, 0.3882783882783883, -0.21875, 0.0, -0.0625, 0.0
97, -0.21855921855921856, -0.015873015873015872, 0.326007326007326, -0.0625, 0.0, -0.03125, 0.0
98, 0.10378510378510379, -0.11721611721611722, 0.21367521367521367, 0.0, 0.0, 0.0, 0.0
99, 0.02197802197802198, -0.398046398046398, -0.0463980463980464, 0.0, -0.03125, -0.03125, 0.0
100, -0.008547008547008548, -0.5372405372405372, -0.1794871794871795, -0.0625, -0.03125, -0.0625, 0.0
101, -0.06227106227106227, -0.13675213675213677, -0.07448107448107448, -0.09375, 0.0, -0.0625, 0.0
102, 0.19291819291819293, 0.06593406593406594, 0.1916971916971917, -0.0625, -0.03125, -0.0625, 0.0
103, 0.1562881562881563, -0.09157509157509157, 0.15873015873015872, 0.0, -0.09375, -0.03125, 0.0
104, -0.050061050061050064, -0.13553113553113552, -0.008547008547008548, 0.03125, -0.09375, -0.03125, 0.0
105, -0.1746031746031746, -0.27594627594627597, -0.15384615384615385, 0.03125, -0.03125, -0.0625, 0.0
106, -0.2026862026862027, -0.24786324786324787, -0.18192918192918192, 0.0, 0.0, -0.0625, 0.0
107, -0.007326007326007326, -0.03785103785103785, -0.006105006105006105, 0.0, 0.0, -0.0625, 0.0
108, 0.11721611721611722, -0.14163614163614163, -0.2796092796092796, 0.03125, -0.125, -0.09375, 0.0
109, -0.22466422466422467, -0.21855921855921856, -0.3614163614163614, 0.0, -0.15625, -0.125, 0.0
110, -0.336996336996337, -0.24175824175824176, -0.24786324786324787, -0.0625, -0.09375, -0.15625, 0.0
111, -0.3064713064713065, -0.1282051282051282, -0.08180708180708181, -0.0625, -0.0625, -0.125, 0.0
112, -0.24053724053724054, -0.10866910866910867, -0.06227106227106227, 0.0, -0.03125, -0.09375, 0.0
113, -0.11477411477411477, -0.16971916971916973, -0.10500610500610501, 0.0625, 0.0, -0.0625, 0.0
114, -0.05616605616605617, -0.11477411477411477, -0.06227106227106227, 0.03125, 0.0, -0.09375, 0.0
115, -0.03296703296703297, -0.1575091575091575, -0.042735042735042736, 0.03125, 0.0, -0.0625, 0.0
116, -0.01098901098901099, -0.12576312576312576, -0.10378510378510379, 0.0625, -0.0625, -0.03125, 0.0
117, -0.11965811965811966, -0.23565323565323565, -0.11965811965811966, 0.09375, 0.0, 0.0, 0.0
118, 0.001221001221001221, -0.1807081807081807, -0.01098901098901099, 0.09375, 0.0, -0.03125, 0.0
119, -0.02442002442002442, -0.20512820512820512, -0.03785103785103785, 0.15625, 0.0, 0.0, 0.0
120, -0.04395604395604396, -0.37484737484737485, -0.10622710622710622, 0.15625, 0.0, 0.0, 0.0
121, 0.03296703296703297, -0.221001221001221, -0.020757020757020756, 0.15625, 0.03125, 0.0, 0.0
122, 0.020757020757020756, -0.2686202686202686, 0.029304029304029304, 0.1875, 0.0, -0.03125, 0.0
123, 0.028083028083028084, -0.2222222222222222, -0.17704517704517705, 0.28125, -0.03125, -0.03125, 0.0
124, -0.28327228327228327, -0.39438339438339437, -0.5543345543345544, 0.28125, -0.03125, 0.0, 0.0
125, -0.4603174603174603, -0.3785103785103785, -0.73992673992674, 0.21875, 0.0, -0.0625, 0.0
126, -0.4627594627594628, -0.3724053724053724, -0.7887667887667887, 0.125, 0.03125, -0.0625, 0.0
127, -0.518925518925519, -0.4175824175824176, -0.8473748473748474, 0.03125, 0.0, -0.03125, 0.0
128, -0.7106227106227107, -0.452991452991453, -1.0622710622710623, -0.03125, -0.0625, 0.0, 0.0
129, -0.7533577533577533, -0.3894993894993895, -1.1282051282051282, -0.15625, 0.0, 0.0, 0.0
130, -0.9133089133089133, -0.4078144078144078, -1.1794871794871795, -0.4375, 0.09375, 0.0, 0.0
131, 0.08058608058608059, -0.6764346764346765, -1.0976800976800978, -0.625, 0.15625, -0.0625, 0.0
132, 0.20634920634920634, -0.2588522588522589, -0.8925518925518926, -0.5, -0.03125, -0.34375, 0.0
133, -1.021978021978022, -0.3516483516483517, -1.623931623931624, -0.3125, -0.25, -0.40625, 1.0
134, -1.3174603174603174, -1.3357753357753357, -3.142857142857143, -0.375, -0.375, -0.34375, 1.0
135, -2.851037851037851, -0.5860805860805861, -4.286935286935287, -0.84375, -0.875, -0.3125, 1.0
136, -3.498168498168498, 0.3308913308913309, -4.180708180708181, -1.125, -1.34375, -0.25, 1.0
137, -3.7326007326007327, 0.3199023199023199, -3.761904761904762, -1.46875, -2.5625, 0.0, 1.0
138, -6.147741147741148, -0.1562881562881563, -4.00976800976801, -2.09375, -3.96875, 0.125, 1.0
139, -8.291819291819293, 0.9487179487179487, -4.31990231990232, -2.46875, -4.15625, 0.78125, 1.0
140, -5.010989010989011, -0.5836385836385837, -3.6544566544566544, -2.53125, -3.90625, 1.8125, 1.0
141, 1.2808302808302807, -0.026862026862026864, -0.41147741147741146, -3.0625, -5.09375, 1.84375, 1.0
142, 3.3174603174603177, 1.2344322344322345, 2.768009768009768, -3.59375, -9.28125, 0.0625, 1.0
143, 0.2661782661782662, 4.912087912087912, 3.7216117216117217, -3.46875, -10.78125, -0.46875, 1.0
144, -5.892551892551893, 7.766788766788767, 2.8876678876678876, -2.65625, -9.84375, 0.125, 1.0
145, -5.041514041514041, 3.9743589743589745, 0.6227106227106227, -2.25, -8.3125, 0.78125, 1.0
146, 2.2783882783882783, 0.5201465201465202, 1.0622710622710623, -2.4375, -8.71875, 0.40625, 1.0
147, 3.8986568986568986, -1.1672771672771673, 2.313797313797314, -2.65625, -9.78125, -0.4375, 1.0
148, 1.0073260073260073, -1.221001221001221, 1.2954822954822955, -2.46875, -9.5, -0.9375, 1.0
149, 0.6996336996336996, -0.3125763125763126, 0.4652014652014652, -2.125, -9.0, -1.1875, 1.0
150, -1.4847374847374848, 1.404151404151404, 0.514041514041514, -1.625, -8.5, -1.1875, 1.0
151, -4.216117216117216, 3.2466422466422467, -0.07448107448107448, -0.75, -7.3125, -0.375, 1.0
152, -5.023199023199023, 3.142857142857143, -1.9291819291819292, 0.28125, -5.4375, 0.34375, 1.0
153, -5.002442002442002, 1.5213675213675213, -4.128205128205129, 0.90625, -3.125, 0.8125, 1.0
154, 0.9304029304029304, -0.5225885225885226, -3.4603174603174605, 0.8125, -2.3125, 0.84375, 1.0
155, -0.2979242979242979, -0.22832722832722832, -3.937728937728938, 0.625, -2.5625, 0.71875, 1.0
156, -0.29426129426129427, 0.09768009768009768, -4.465201465201465, 0.65625, -2.15625, 0.75, 1.0
157, -0.26495726495726496, 0.14163614163614163, -4.62026862026862, 0.75, -1.5, 0.875, 1.0
158, -0.052503052503052504, 0.4358974358974359, -4.450549450549451, 0.78125, -1.0, 0.9375, 1.0
159, 0.054945054945054944, 0.989010989010989, -4.153846153846154, 0.6875, -0.6875, 1.0625, 1.0
160, 0.5958485958485958, 0.4884004884004884, -3.9194139194139193, 0.59375, -0.625, 1.1875, 1.0
161, 1.485958485958486, 0.054945054945054944, -3.4590964590964592, 0.4375, -0.65625, 1.1875, 1.0
162, 1.2197802197802199, 0.2148962148962149, -3.0378510378510377, 0.375, -0.4375, 1.09375, 1.0
163, 2.1013431013431014, -0.10256410256410256, -2.8253968253968256, 0.40625, -0.15625, 1.09375, 1.0
164, 1.8925518925518925, 0.09768009768009768, -2.568986568986569, 0.3125, -0.125, 0.9375, 1.0
165, 1.6935286935286935, 0.3785103785103785, -1.9987789987789988, 0.1875, -0.03125, 0.78125, 1.0
166, 2.2893772893772892, 0.32967032967032966, -1.1953601953601953, 0.1875, 0.0, 0.65625, 1.0
167, 2.227106227106227, -0.16483516483516483, -1.2148962148962148, 0.09375, 0.0, 0.4375, 1.0
168, 1.6312576312576312, -0.14285714285714285, -1.1758241758241759, -0.03125, 0.125, 0.21875, 1.0
169, 1.343101343101343, 0.29304029304029305, -0.7631257631257631, -0.03125, 0.15625, 0.125, 1.0
170, 1.2820512820512822, 0.27106227106227104, -0.315018315018315, 0.0, 0.03125, 0.09375, 1.0
171, 0.514041514041514, 0.2503052503052503, -0.24053724053724054, 0.0, 0.0, 0.0625, 1.0
172, 0.10989010989010989, 0.057387057387057384, -0.29304029304029305, -0.03125, 0.09375, 0.0625, 1.0
173, 0.02564102564102564, 0.08424908424908426, -0.2564102564102564, -0.03125, 0.125, 0.0625, 1.0
174, -0.315018315018315, 0.10134310134310134, -0.16605616605616605, 0.0, 0.1875, 0.125, 1.0
175, 0.11477411477411477, -0.2258852258852259, -0.017094017094017096, -0.0625, 0.125, 0.09375, 1.0
176, -0.09035409035409035, -0.14407814407814407, 0.0231990231990232, -0.09375, 0.0625, 0.0625, 1.0
177, -0.4603174603174603, 0.057387057387057384, 0.2576312576312576, -0.0625, 0.25, 0.125, 1.0
178, -0.28205128205128205, 0.031746031746031744, 0.27472527472527475, 0.0, 0.25, 0.15625, 1.0
179, 0.5531135531135531, -0.46886446886446886, 0.21978021978021978, 0.0, 0.15625, 0.125, 1.0
180, -0.03785103785103785, -0.1807081807081807, -0.015873015873015872, -0.09375, -0.03125, 0.0, 1.0
181, -0.7277167277167277, 0.08180708180708181, -0.21367521367521367, -0.125, 0.03125, 0.0, 1.0
182, -0.32844932844932845, 0.018315018315018316, -0.2588522588522589, -0.09375, 0.28125, 0.09375, 1.0
183, 0.3247863247863248, 0.21855921855921856, -0.040293040293040296, -0.09375, 0.25, 0.09375, 1.0
184, 0.28083028083028083, -0.06227106227106227, -0.004884004884004884, 0.0, 0.0, 0.03125, 1.0
185, 0.09645909645909646, -0.12942612942612944, -0.1562881562881563, -0.03125, -0.125, 0.0, 1.0
186, -0.463980463980464, 0.009768009768009768, -0.25396825396825395, -0.03125, -0.09375, -0.03125, 1.0
187, -0.575091575091575, -0.03785103785103785, -0.40293040293040294, -0.09375, 0.125, 0.0625, 0.0
188, -0.2222222222222222, -0.029304029304029304, -0.4993894993894994, -0.21875, 0.28125, 0.1875, 0.0
189, 0.5897435897435898, -0.2588522588522589, -0.19536019536019536, -0.28125, 0.21875, 0.125, 0.0
190, 0.13553113553113552, -0.2686202686202686, -0.42857142857142855, -0.4375, 0.0, 0.0625, 0.0
191, -0.503052503052503, 0.16483516483516483, -0.32234432234432236, -0.34375, 0.15625, 0.0625, 0.0
192, -0.7912087912087912, 0.4444444444444444, -0.0989010989010989, -0.0625, 0.40625, 0.125, 0.0
193, -0.3247863247863248, 0.20634920634920634, -0.10134310134310134, 0.0625, 0.46875, 0.1875, 0.0
194, 0.24175824175824176, -0.2771672771672772, -0.2503052503052503, 0.03125, 0.34375, 0.1875, 0.0
195, 0.7130647130647131, -0.5811965811965812, -0.3052503052503053, -0.125, 0.0, 0.0, 0.0
196, -0.115995115995116, -0.07692307692307693, -0.34798534798534797, -0.1875, 0.0, -0.0625, 0.0
197, -0.5396825396825397, 0.08669108669108669, -0.2869352869352869, -0.125, 0.1875, -0.03125, 0.0
198, -0.2954822954822955, 0.26495726495726496, -0.054945054945054944, 0.0, 0.28125, 0.0, 0.0
199, 0.35775335775335776, -0.14285714285714285, 0.030525030525030524, -0.03125, 0.125, 0.0, 0.0
200, 0.09401709401709402, 0.16483516483516483, 0.10744810744810745, 0.0, 0.09375, 0.0625, 0.0
201, -0.11721611721611722, -0.15384615384615385, -0.003663003663003663, 0.0, 0.15625, 0.09375, 0.0
202, 0.0231990231990232, -0.029304029304029304, 0.2515262515262515, 0.0, 0.15625, 0.03125, 0.0
203, 0.14896214896214896, -0.03540903540903541, 0.26495726495726496, 0.0, 0.0625, 0.0, 0.0
204, -0.0231990231990232, -0.16971916971916973, 0.08058608058608059, 0.0, 0.0, 0.0, 0.0
205, -0.326007326007326, 0.12087912087912088, 0.050061050061050064, -0.0625, -0.03125, 0.0, 0.0
206, -0.5311355311355311, 0.23931623931623933, -0.07692307692307693, 0.0, 0.09375, 0.0625, 0.0
207, 0.3199023199023199, -0.2564102564102564, -0.10256410256410256, 0.0, 0.15625, 0.0625, 0.0
208, 0.3321123321123321, -0.15384615384615385, -0.07936507936507936, -0.0625, 0.0, 0.0, 0.0
209, -0.14407814407814407, 0.052503052503052504, -0.04151404151404151, -0.0625, -0.0625, -0.03125, 0.0
210, -0.326007326007326, 0.2271062271062271, 0.0463980463980464, 0.0, 0.0, 0.0, 0.0
211, -0.25518925518925517, 0.1855921855921856, -0.031746031746031744, 0.0625, 0.09375, 0.0625, 0.0
212, 0.9572649572649573, -0.7814407814407814, -0.23687423687423687, -0.0625, -0.09375, -0.0625, 0.0
213, 0.41514041514041516, -0.17216117216117216, -0.32234432234432236, -0.15625, -0.21875, -0.1875, 0.0
214, -0.15018315018315018, 0.2600732600732601, -0.6898656898656899, 0.0, 0.0, -0.125, 0.0
215, 0.3089133089133089, 0.32844932844932845, -1.5726495726495726, 0.125, 0.34375, -0.0625, 0.0
216, 0.1684981684981685, 0.24786324786324787, -2.1013431013431014, 0.21875, 0.78125, -0.03125, 0.0
217, -0.6166056166056166, 1.2405372405372406, -1.901098901098901, 0.53125, 1.625, 0.15625, 0.0
218, -2.9365079365079363, 3.230769230769231, -1.9194139194139195, 1.5625, 3.40625, 0.84375, 0.0
219, -1.6251526251526252, 2.231990231990232, -1.916971916971917, 2.4375, 4.875, 1.65625, 0.0
220, 1.231990231990232, -0.06349206349206349, -2.3394383394383396, 2.71875, 5.59375, 1.65625, 0.0
221, 2.1086691086691087, -0.5641025641025641, -2.606837606837607, 2.53125, 5.84375, 1.375, 0.0
222, 1.170940170940171, -0.01221001221001221, -2.7020757020757022, 2.5625, 6.53125, 1.25, 0.0
223, -0.19536019536019536, 1.0036630036630036, -2.0463980463980462, 3.0625, 7.6875, 1.625, 0.0
224, 1.5396825396825398, 1.0134310134310134, 1.2393162393162394, 3.59375, 8.59375, 1.75, 0.0
225, 2.3833943833943834, 0.315018315018315, 1.4224664224664225, 3.9375, 8.625, 1.875, 0.0
226, 3.2002442002442004, 0.4358974358974359, 1.595848595848596, 3.9375, 8.34375, 1.625, 0.0
227, 3.9902319902319903, 0.7301587301587301, 1.884004884004884, 3.875, 7.71875, 0.96875, 0.0
228, 3.3089133089133087, 0.8827838827838828, 1.7142857142857142, 3.9375, 6.71875, 0.375, 0.0
229, 1.5714285714285714, 0.8962148962148963, 1.534798534798535, 4.1875, 5.875, 0.0625, 0.0
230, 0.5396825396825397, 0.3162393162393162, 0.9719169719169719, 4.5, 5.3125, 0.15625, 0.0
231, 0.4700854700854701, -0.5665445665445665, 0.43833943833943834, 4.9375, 5.03125, 0.25, 0.0
232, 0.7142857142857143, -1.73992673992674, -0.31013431013431014, 5.0, 4.5, 0.28125, 0.0
233, 0.6202686202686203, -3.032967032967033, -0.8754578754578755, 4.6875, 3.8125, 0.34375, 0.0
234, 1.531135531135531, -2.415140415140415, -1.1367521367521367, 4.25, 3.0625, 0.09375, 0.0
235, 1.0634920634920635, -2.705738705738706, -1.3882783882783882, 3.625, 1.84375, -0.28125, 0.0
236, 0.32112332112332115, -3.034188034188034, -1.3308913308913308, 3.21875, 1.15625, -0.46875, 0.0
237, 1.1123321123321124, -2.04029304029304, -1.3736263736263736, 3.0, 0.34375, -0.84375, 0.0
238, -0.14041514041514042, -2.73992673992674, -2.4004884004884004, 2.65625, -0.21875, -1.125, 0.0
239, -1.7777777777777777, -2.7106227106227108, -3.2747252747252746, 2.28125, -0.4375, -1.21875, 0.0
240, -2.415140415140415, -1.8058608058608059, -3.4126984126984126, 2.03125, -0.40625, -1.09375, 0.0
241, -2.318681318681319, -0.818070818070818, -3.462759462759463, 1.875, -0.28125, -0.90625, 0.0
242, -1.8021978021978022, -0.5738705738705738, -3.8803418803418803, 1.6875, -0.34375, -0.8125, 0.0
243, -2.105006105006105, -0.7008547008547008, -4.3931623931623935, 1.40625, -0.5625, -0.8125, 0.0
244, -2.4615384615384617, -0.4444444444444444, -4.6642246642246645, 1.21875, -0.71875, -0.71875, 0.0
245, -3.203907203907204, -0.5433455433455433, -4.938949938949939, 0.96875, -0.65625, -0.5, 0.0
246, -3.3076923076923075, -0.5482295482295483, -4.691086691086691, 0.65625, -0.46875, -0.3125, 0.0
247, -2.440781440781441, -0.525030525030525, -3.404151404151404, 0.25, -0.34375, 0.0, 0.0
248, -2.043956043956044, -0.463980463980464, -2.4896214896214897, 0.03125, -0.21875, 0.09375, 0.0
249, -1.6617826617826619, -0.28205128205128205, -1.4945054945054945, -0.0625, 0.0, 0.15625, 0.0
250, -0.8461538461538461, -0.2844932844932845, -0.5384615384615384, -0.09375, 0.21875, 0.15625, 0.0
251, 0.03663003663003663, -0.14163614163614163, -0.06105006105006105, 0.0, 0.15625, 0.0, 0.0
252, -0.008547008547008548, -0.23565323565323565, 0.0463980463980464, 0.03125, -0.09375, -0.0625, 0.0
253, -0.17582417582417584, 0.0, -0.13186813186813187, 0.03125, -0.21875, -0.0625, 0.0
254, -0.3772893772893773, -0.21978021978021978, -0.3724053724053724, 0.03125, -0.125, -0.0625, 0.0
255, -0.5238095238095238, -0.326007326007326, -0.536019536019536, 0.03125, 0.0, -0.03125, 0.0
256, -0.26373626373626374, -0.2771672771672772, -0.3724053724053724, 0.03125, 0.09375, 0.0, 0.0
257, 0.06105006105006105, -0.46764346764346765, -0.2271062271062271, 0.03125, 0.03125, 0.0, 0.0
258, 0.13553113553113552, -0.42246642246642246, -0.2893772893772894, -0.0625, -0.125, -0.125, 0.0
259, -0.36752136752136755, -0.4163614163614164, -0.5396825396825397, -0.125, -0.1875, -0.15625, 0.0
260, -0.7545787545787546, -0.37484737484737485, -0.5567765567765568, -0.1875, -0.03125, -0.0625, 0.0
261, -0.43345543345543347, 0.031746031746031744, -0.03785103785103785, -0.15625, 0.125, 0.0, 0.0
262, 0.13797313797313798, -0.14652014652014653, 0.1807081807081807, -0.09375, 0.125, 0.0, 0.0
263, 0.14896214896214896, -0.25396825396825395, 0.23565323565323565, -0.03125, -0.03125, 0.0, 0.0
264, -0.2612942612942613, -0.31746031746031744, -0.042735042735042736, 0.0, -0.09375, 0.0, 0.0
265, -0.3528693528693529, -0.23076923076923078, 0.0, 0.03125, 0.0, 0.0, 0.0
266, -0.13553113553113552, -0.25518925518925517, -0.03296703296703297, 0.0, 0.0625, 0.0, 0.0
267, 0.050061050061050064, -0.1746031746031746, 0.020757020757020756, 0.0625, 0.0, 0.0, 0.0
268, -0.05128205128205128, -0.2442002442002442, -0.2148962148962149, 0.09375, -0.0625, 0.0, 0.0
269, -0.2258852258852259, -0.221001221001221, -0.2844932844932845, 0.0625, -0.0625, 0.0, 0.0
270, -0.06837606837606838, -0.29304029304029305, -0.2698412698412698, -0.03125, 0.0, -0.0625, 0.0
271, -0.2454212454212454, -0.2039072039072039, -0.33577533577533575, -0.125, 0.0, -0.03125, 0.0
272, 0.001221001221001221, 0.057387057387057384, -0.15384615384615385, -0.0625, -0.0625, -0.0625, 0.0
273, -0.0463980463980464, -0.22466422466422467, -0.23321123321123322, 0.0, -0.1875, 0.0, 0.0
274, -0.09157509157509157, -0.17216117216117216, -0.3052503052503053, 0.0, -0.3125, -0.03125, 0.0
275, -0.7716727716727717, -0.3125763125763126, -0.46764346764346765, 0.0, -0.5625, -0.09375, 1.0
276, -1.1538461538461537, -1.3821733821733821, -1.0415140415140416, -0.09375, -0.5625, -0.125, 1.0
277, -1.822954822954823, -1.1831501831501832, -1.9694749694749696, -0.5, -0.375, -0.09375, 1.0
278, -1.9352869352869353, -0.46886446886446886, -2.404151404151404, -0.96875, -0.40625, -0.25, 1.0
279, -1.36996336996337, 0.612942612942613, -2.2783882783882783, -1.15625, -0.75, -0.15625, 1.0
280, -1.1062271062271063, 0.4822954822954823, -1.934065934065934, -1.1875, -2.0, 0.125, 1.0
281, -1.9645909645909645, 0.30036630036630035, -2.15995115995116, -1.28125, -3.5, 0.09375, 1.0
282, -2.578754578754579, 0.38217338217338215, -2.083028083028083, -1.46875, -5.21875, -0.28125, 1.0
283, -4.107448107448107, 0.11233211233211234, -2.087912087912088, -1.875, -6.34375, -0.125, 1.0
284, -5.96947496947497, 0.7350427350427351, -1.57997557997558, -2.4375, -6.9375, 0.3125, 1.0
285, -6.843711843711843, 2.5885225885225887, -0.6678876678876678, -2.6875, -6.78125, 0.90625, 1.0
286, -5.757020757020757, 5.208791208791209, -0.3772893772893773, -2.59375, -6.15625, 1.34375, 1.0
287, -0.17704517704517705, 6.295482295482295, 0.1575091575091575, -3.03125, -6.8125, 0.90625, 1.0
288, 1.2173382173382172, 3.2735042735042734, 2.32967032967033, -3.84375, -8.25, 0.15625, 1.0
289, -1.7448107448107448, 2.3223443223443225, 3.0903540903540905, -3.71875, -8.4375, 0.09375, 1.0
290, -2.860805860805861, 2.590964590964591, 1.8217338217338217, -2.84375, -7.375, 0.625, 1.0
291, 0.9255189255189256, 0.45054945054945056, 0.6398046398046398, -2.28125, -6.71875, 0.875, 1.0
292, 3.7191697191697193, -2.7838827838827838, 0.2625152625152625, -2.59375, -6.90625, 0.0, 1.0
293, 3.7887667887667886, -3.0525030525030523, 2.0366300366300365, -3.46875, -8.28125, -1.59375, 1.0
294, -4.266178266178266, 2.4957264957264957, 2.1343101343101343, -2.625, -7.8125, -1.625, 1.0
295, -4.5054945054945055, 2.156288156288156, -0.42124542124542125, -1.09375, -6.0625, -0.84375, 1.0
296, -2.8974358974358974, 0.3663003663003663, -1.94993894993895, -0.03125, -4.15625, -0.21875, 1.0
297, -1.0793650793650793, 0.1514041514041514, -1.9413919413919414, 0.21875, -3.0625, -0.03125, 1.0
298, -0.4517704517704518, 1.0305250305250304, -1.5274725274725274, 0.28125, -2.8125, -0.125, 1.0
299, -0.9096459096459096, 1.3919413919413919, -2.600732600732601, 0.625, -2.78125, 0.0, 1.0
300, -0.7997557997557998, 1.1953601953601953, -3.5445665445665444, 0.875, -2.3125, 0.15625, 1.0
301, -1.2747252747252746, 1.291819291819292, -3.971916971916972, 0.9375, -1.71875, 0.40625, 1.0
302, -0.15018315018315018, 1.1391941391941391, -3.5054945054945055, 0.875, -1.21875, 0.59375, 1.0
303, 0.6275946275946276, 1.525030525030525, -2.608058608058608, 0.875, -1.125, 0.65625, 1.0
304, 0.3772893772893773, 1.0842490842490842, -2.695970695970696, 0.96875, -1.125, 0.78125, 1.0
305, 1.534798534798535, 0.8778998778998779, -3.380952380952381, 1.09375, -0.9375, 0.9375, 1.0
306, 1.6080586080586081, 0.008547008547008548, -4.091575091575091, 0.84375, -0.71875, 0.875, 1.0
307, 2.326007326007326, 0.27472527472527475, -4.123321123321123, 0.625, -0.625, 0.65625, 1.0
308, 1.9120879120879122, 0.6398046398046398, -3.7667887667887667, 0.5, -0.46875, 0.5625, 1.0
309, 1.8717948717948718, 0.8693528693528694, -3.3003663003663, 0.4375, -0.375, 0.5, 1.0
310, 1.9474969474969475, 0.702075702075702, -3.0744810744810747, 0.3125, -0.28125, 0.375, 1.0
311, 1.3467643467643469, 0.78998778998779, -2.989010989010989, 0.21875, -0.0625, 0.3125, 1.0
312, 1.3052503052503053, 0.5409035409035409, -2.4481074481074483, 0.0625, 0.0625, 0.21875, 1.0
313, 1.1013431013431014, 0.6422466422466423, -1.7582417582417582, 0.0, 0.09375, 0.15625, 1.0
314, 0.7289377289377289, 0.6800976800976801, -0.9218559218559218, 0.0, 0.09375, 0.15625, 1.0
315, 0.3833943833943834, 0.4139194139194139, -0.5763125763125763, 0.0, 0.125, 0.125, 1.0
316, 0.05372405372405373, 0.15995115995115994, -0.24297924297924298, -0.03125, 0.125, 0.09375, 1.0
317, -0.007326007326007326, 0.009768009768009768, -0.14774114774114774, -0.0625, 0.125, 0.09375, 1.0
318, 0.052503052503052504, -0.12942612942612944, -0.16361416361416362, -0.0625, 0.0625, 0.03125, 1.0
319, -0.10622710622710622, -0.007326007326007326, -0.13797313797313798, -0.0625, 0.03125, 0.03125, 1.0
320, -0.14407814407814407, -0.2673992673992674, -0.20024420024420025, -0.03125, 0.0625, 0.03125, 1.0
321, -0.15262515262515264, -0.19536019536019536, -0.07814407814407814, -0.09375, 0.0625, 0.0, 1.0
322, -0.10500610500610501, -0.04151404151404151, 0.1221001221001221, -0.0625, 0.09375, 0.0, 1.0
323, -0.003663003663003663, -0.009768009768009768, 0.2503052503052503, -0.0625, 0.0625, 0.0, 1.0
324, -0.40293040293040294, 0.12454212454212454, 0.1282051282051282, -0.03125, 0.0625, 0.0, 1.0
325, -0.2796092796092796, 0.115995115995116, -0.050061050061050064, 0.0, 0.125, 0.0625, 1.0
326, 0.004884004884004884, -0.057387057387057384, -0.08669108669108669, -0.03125, 0.0625, 0.09375, 1.0
327, -0.07448107448107448, 0.0231990231990232, 0.0, -0.0625, 0.03125, 0.03125, 1.0
328, -0.03663003663003663, -0.007326007326007326, -0.028083028083028084, 0.0, 0.125, 0.0625, 1.0
329, 0.16727716727716727, -0.045177045177045176, -0.12942612942612944, 0.0, 0.03125, 0.0, 1.0
330, -0.1282051282051282, 0.07814407814407814, -0.054945054945054944, 0.0625, 0.0, 0.0, 1.0
331, 0.12332112332112333, -0.08302808302808302, -0.03296703296703297, 0.03125, 0.0, 0.0, 1.0
332, -0.018315018315018316, -0.10866910866910867, -0.03663003663003663, -0.03125, 0.0, 0.03125, 0.0
333, -0.304029304029304, -0.25396825396825395, -0.19658119658119658, -0.21875, 0.15625, 0.15625, 0.0
334, 0.1343101343101343, -0.015873015873015872, -0.45665445665445664, -0.28125, 0.25, 0.1875, 0.0
335, 0.6227106227106227, -0.35775335775335776, -0.29914529914529914, -0.28125, 0.1875, 0.125, 0.0
336, -0.052503052503052504, -0.047619047619047616, -0.304029304029304, -0.28125, 0.09375, 0.09375, 0.0
337, -0.009768009768009768, 0.1978021978021978, -0.07448107448107448, -0.1875, 0.09375, 0.15625, 0.0
338, -0.23565323565323565, 0.07081807081807082, 0.029304029304029304, 0.0, 0.09375, 0.0625, 0.0
339, 0.4468864468864469, 0.03907203907203907, 0.18192918192918192, 0.03125, 0.0, -0.03125, 0.0
340, -0.1282051282051282, -0.1330891330891331, -0.17582417582417584, 0.09375, 0.0, -0.0625, 0.0
341, 0.13186813186813187, -0.10256410256410256, -0.21123321123321123, 0.03125, 0.0, -0.03125, 0.0
342, -0.045177045177045176, 0.03663003663003663, -0.24175824175824176, 0.0, 0.0, -0.03125, 0.0
343, -0.21978021978021978, 0.1111111111111111, -0.1282051282051282, 0.0, 0.03125, 0.0, 0.0
344, -0.052503052503052504, 0.017094017094017096, -0.04151404151404151, 0.03125, 0.0625, 0.03125, 0.0
345, 0.1221001221001221, -0.07326007326007326, 0.01098901098901099, 0.03125, 0.0625, 0.0, 0.0
346, 0.28815628815628813, -0.15018315018315018, -0.1221001221001221, 0.0, 0.0, 0.0, 0.0
347, -0.03663003663003663, -0.006105006105006105, -0.24297924297924298, 0.0, -0.03125, -0.0625, 0.0
348, -0.10134310134310134, 0.07203907203907203, -0.16727716727716727, -0.03125, 0.0, -0.0625, 0.0
349, -0.06837606837606838, 0.12942612942612944, -0.03907203907203907, 0.0, 0.0, -0.03125, 0.0
350, -0.03296703296703297, 0.03418803418803419, 0.007326007326007326, 0.0, 0.0, 0.0, 0.0
351, -0.004884004884004884, 0.0, -0.030525030525030524, 0.03125, 0.0, 0.0, 0.0
352, 0.22344322344322345, -0.16727716727716727, -0.047619047619047616, 0.0, -0.0625, 0.0, 0.0
353, 0.02197802197802198, -0.09645909645909646, -0.08913308913308914, -0.03125, -0.0625, -0.03125, 0.0
354, -0.19291819291819293, 0.10866910866910867, -0.07326007326007326, 0.0, 0.0, 0.0, 0.0
355, -0.03907203907203907, 0.031746031746031744, -0.12454212454212454, 0.0, 0.0, 0.03125, 0.0
356, 0.14774114774114774, -0.047619047619047616, -0.18925518925518925, 0.0, -0.03125, 0.0, 0.0
357, 0.06471306471306472, 0.031746031746031744, -0.19536019536019536, 0.0, -0.0625, 0.0, 0.0
358, -0.04884004884004884, -0.014652014652014652, -0.23931623931623933, 0.03125, 0.0, 0.0, 0.0
359, 0.17704517704517705, -0.1282051282051282, -0.20634920634920634, 0.0, 0.0, -0.03125, 0.0
360, -0.018315018315018316, 0.020757020757020756, -0.16727716727716727, -0.03125, -0.03125, -0.03125, 0.0
361, -0.19658119658119658, 0.1282051282051282, -0.09401709401709402, 0.0, 0.0, 0.0, 0.0
362, 0.0, 0.009768009768009768, -0.10256410256410256, 0.0, -0.03125, 0.0, 0.0
363, 0.01098901098901099, -0.03785103785103785, -0.07448107448107448, 0.0, -0.09375, -0.03125, 0.0
364, 0.18437118437118438, -0.16605616605616605, -0.17216117216117216, 0.0, -0.15625, -0.0625, 0.0
365, -0.03663003663003663, 0.020757020757020756, -0.1391941391941392, -0.0625, -0.15625, -0.09375, 0.0
366, -0.25274725274725274, 0.24786324786324787, -0.19291819291819293, 0.0, -0.0625, -0.03125, 0.0
367, 0.2844932844932845, -0.045177045177045176, -0.33455433455433453, 0.03125, 0.0, 0.0, 0.0
368, 0.040293040293040296, 0.07936507936507936, -0.45787545787545786, 0.0, -0.03125, 0.0, 0.0
369, -0.08058608058608059, 0.06105006105006105, -0.612942612942613, 0.03125, 0.0625, 0.0, 0.0
370, -0.08302808302808302, 0.14285714285714285, -0.568986568986569, 0.0625, 0.25, 0.125, 0.0
371, -0.06227106227106227, 0.4603174603174603, -0.5616605616605617, 0.125, 0.375, 0.21875, 0.0
372, -1.3101343101343101, 1.2832722832722834, -0.8815628815628815, 0.3125, 0.59375, 0.4375, 0.0
373, -2.8595848595848596, 2.664224664224664, -1.5946275946275947, 0.84375, 1.5625, 1.15625, 0.0
374, -2.4871794871794872, 1.8388278388278387, -2.1355311355311355, 1.75, 3.125, 2.25, 0.0
375, -0.7252747252747253, 0.9731379731379731, -2.061050061050061, 2.75, 5.125, 3.3125, 0.0
376, 1.7252747252747254, -1.0195360195360195, -2.2393162393162394, 3.0, 5.84375, 3.1875, 0.0
377, 2.768009768009768, -1.829059829059829, -2.131868131868132, 3.09375, 6.46875, 2.75, 0.0
378, 2.9804639804639805, -1.8937728937728937, -1.4261294261294262, 3.125, 7.0, 2.1875, 0.0
379, 2.1623931623931623, -0.42002442002442003, -0.5433455433455433, 3.46875, 7.4375, 2.0625, 0.0
380, 1.5982905982905984, 0.054945054945054944, -0.17216117216117216, 3.90625, 7.90625, 2.03125, 0.0
381, 2.4078144078144077, 0.2271062271062271, 0.06227106227106227, 4.125, 8.03125, 1.875, 0.0
382, 3.7301587301587302, -0.3052503052503053, 0.23931623931623933, 4.09375, 7.71875, 1.34375, 0.0
383, 4.656898656898657, 0.03663003663003663, 0.6105006105006106, 4.0, 6.90625, 0.59375, 0.0
384, 3.7594627594627594, 0.8266178266178266, 0.5311355311355311, 4.125, 6.125, 0.21875, 0.0
385, 1.5128205128205128, 0.7777777777777778, 0.2661782661782662, 4.625, 5.96875, 0.375, 0.0
386, 1.2686202686202686, -0.778998778998779, 0.3235653235653236, 5.1875, 5.875, 0.46875, 0.0
387, 1.9474969474969475, -2.2893772893772892, 0.8266178266178266, 5.1875, 5.0, 0.3125, 0.0
388, 0.38461538461538464, -1.8656898656898657, 0.23809523809523808, 4.96875, 4.21875, 0.3125, 0.0
389, 0.06105006105006105, -1.8510378510378511, 0.042735042735042736, 5.03125, 3.9375, 0.375, 0.0
390, 1.496947496947497, -3.0036630036630036, -0.6019536019536019, 5.0625, 3.5, 0.375, 0.0
391, 2.642246642246642, -4.516483516483516, -1.6825396825396826, 4.6875, 2.375, -0.1875, 0.0
392, 1.5006105006105006, -4.495726495726496, -2.6923076923076925, 3.90625, 0.875, -1.0, 0.0
393, -1.286935286935287, -3.1575091575091574, -2.894993894993895, 3.03125, -0.1875, -1.53125, 0.0
394, -3.214896214896215, -1.2417582417582418, -2.768009768009768, 2.6875, -0.4375, -1.40625, 0.0
395, -2.9963369963369964, -1.5457875457875458, -3.5396825396825395, 2.96875, -0.28125, -1.0, 0.0
396, -1.6007326007326008, -2.5702075702075704, -4.516483516483516, 2.90625, -0.28125, -1.0, 0.0
397, -1.9413919413919414, -3.324786324786325, -5.411477411477412, 2.125, -0.75, -1.3125, 0.0
398, -3.0207570207570207, -0.6691086691086691, -5.518925518925519, 1.21875, -1.0625, -1.34375, 0.0
399, -4.1330891330891335, 0.7753357753357754, -5.750915750915751, 1.375, -0.65625, -0.78125, 0.0
400, -2.934065934065934, -0.4297924297924298, -6.186813186813187, 1.1875, -0.375, -0.40625, 0.0
401, -1.592185592185592, -1.321123321123321, -5.953601953601954, 0.53125, -0.53125, -0.40625, 0.0
402, -1.9548229548229548, -0.9413919413919414, -5.097680097680097, 0.0, -0.65625, -0.40625, 0.0
403, -2.3772893772893773, -0.25518925518925517, -4.162393162393163, -0.1875, -0.53125, -0.25, 0.0
404, -2.5873015873015874, 0.4993894993894994, -3.004884004884005, -0.0625, -0.21875, -0.03125, 0.0
405, -1.901098901098901, -0.4822954822954823, -2.253968253968254, -0.0625, -0.0625, 0.125, 0.0
406, -1.2881562881562882, -1.0732600732600732, -1.5543345543345544, -0.28125, -0.0625, 0.03125, 0.0
407, -0.7716727716727717, -0.37484737484737485, -0.7289377289377289, -0.375, -0.15625, -0.125, 0.0
408, -1.0146520146520146, 0.10500610500610501, -0.1855921855921856, -0.34375, -0.21875, -0.125, 0.0
409, -0.9255189255189256, 0.575091575091575, 0.0231990231990232, -0.125, -0.1875, 0.09375, 0.0
410, -0.5641025641025641, -0.3418803418803419, -0.17826617826617827, 0.0625, 0.0, 0.21875, 0.0
411, -0.17582417582417584, -0.33455433455433453, 0.045177045177045176, -0.03125, 0.03125, 0.15625, 0.0
412, -0.05128205128205128, -0.07936507936507936, 0.31013431013431014, -0.125, 0.0, 0.0625, 0.0
413, 0.001221001221001221, 0.16117216117216118, 0.23565323565323565, -0.03125, -0.09375, 0.0, 0.0
414, -0.452991452991453, -0.3247863247863248, 0.042735042735042736, 0.09375, -0.25, 0.125, 0.0
415, -0.11233211233211234, -0.6935286935286935, -0.36752136752136755, 0.15625, -0.21875, 0.25, 0.0
416, 0.663003663003663, -0.8046398046398047, -0.6593406593406593, 0.125, -0.5, 0.03125, 1.0
417, 0.9487179487179487, -0.9645909645909646, -1.0512820512820513, -0.03125, -1.21875, -0.28125, 1.0
418, -0.8021978021978022, -0.7545787545787546, -1.8681318681318682, -0.375, -1.96875, -0.5625, 1.0
419, -0.6837606837606838, -1.7753357753357752, -2.73992673992674, -0.96875, -2.6875, -0.75, 1.0
420, -3.1538461538461537, -0.3833943833943834, -2.057387057387057, -1.9375, -3.84375, -0.8125, 1.0
421, -4.981684981684982, 0.525030525030525, -1.6141636141636142, -2.28125, -4.125, -0.40625, 1.0
422, -3.7326007326007327, 0.4432234432234432, -0.8485958485958486, -2.25, -4.5, 0.15625, 1.0
423, -1.315018315018315, 0.6446886446886447, 0.3199023199023199, -2.3125, -5.78125, 0.21875, 1.0
424, 0.6752136752136753, -0.326007326007326, 1.4456654456654456, -2.78125, -7.75, -0.21875, 1.0
425, 1.2466422466422467, -1.8315018315018314, 2.3772893772893773, -3.8125, -9.71875, -1.3125, 1.0
426, -2.642246642246642, -5.6068376068376065, 5.073260073260073, -4.5625, -10.59375, -2.03125, 1.0
427, -5.454212454212454, -3.774114774114774, 5.556776556776557, -4.1875, -9.65625, -1.78125, 1.0
428, -4.087912087912088, -1.1355311355311355, 4.802197802197802, -2.8125, -8.125, -0.90625, 1.0
429, -0.7777777777777778, -0.4700854700854701, 4.912087912087912, -1.75, -8.0, -0.40625, 1.0
430, -1.1526251526251525, -1.9633699633699633, 4.496947496947497, -1.46875, -8.3125, -0.5625, 1.0
431, -3.586080586080586, -3.4652014652014653, 2.862026862026862, -1.875, -7.71875, -0.84375, 1.0
432, -3.3882783882783882, -0.5128205128205128, 2.311355311355311, -1.40625, -6.59375, -0.65625, 1.0
433, -3.9462759462759465, 0.8901098901098901, 0.6385836385836385, 0.25, -4.34375, 0.03125, 1.0
434, -0.967032967032967, -1.4017094017094016, 0.09768009768009768, 0.59375, -3.46875, 0.1875, 1.0
435, -0.33577533577533575, -1.1697191697191698, -0.2271062271062271, 0.28125, -3.5625, -0.1875, 1.0
436, -1.4639804639804639, 0.5421245421245421, -1.028083028083028, 0.28125, -3.84375, -0.375, 1.0
437, -2.283272283272283, 0.8351648351648352, -1.4114774114774116, 0.84375, -3.25, -0.28125, 1.0
438, -2.3614163614163615, 0.1807081807081807, -1.564102564102564, 1.21875, -2.28125, 0.0, 1.0
439, -0.8461538461538461, -0.21123321123321123, -1.4676434676434675, 1.1875, -1.5625, 0.0625, 1.0
440, -0.2454212454212454, 0.5567765567765568, -1.3614163614163615, 1.0625, -1.6875, 0.125, 1.0
441, -0.9426129426129426, 0.7619047619047619, -2.05006105006105, 1.3125, -1.96875, 0.25, 1.0
442, -0.7533577533577533, 0.2698412698412698, -3.126984126984127, 1.53125, -1.53125, 0.375, 1.0
443, 0.0231990231990232, 0.21855921855921856, -3.6202686202686203, 1.40625, -1.25, 0.46875, 1.0
444, -0.04884004884004884, 0.6117216117216118, -3.8253968253968256, 1.0625, -1.28125, 0.46875, 1.0
445, -0.5177045177045178, 1.3943833943833943, -3.183150183150183, 1.15625, -1.0625, 0.625, 1.0
446, 0.21855921855921856, 1.3284493284493284, -2.868131868131868, 1.28125, -0.90625, 0.78125, 1.0
447, 1.1978021978021978, 0.08058608058608059, -4.293040293040293, 1.15625, -1.0, 0.78125, 1.0
448, 1.2075702075702075, 0.14774114774114774, -5.113553113553113, 0.84375, -0.78125, 0.6875, 1.0
449, 1.3223443223443223, 0.3028083028083028, -4.822954822954823, 0.65625, -0.5, 0.625, 1.0
450, 1.927960927960928, 0.33821733821733824, -4.095238095238095, 0.5, -0.4375, 0.53125, 1.0
451, 1.9023199023199022, 0.7203907203907204, -3.5824175824175826, 0.46875, -0.40625, 0.40625, 1.0
452, 1.2246642246642248, 0.7521367521367521, -3.612942612942613, 0.40625, -0.25, 0.40625, 1.0
453, 1.1623931623931625, 0.6373626373626373, -3.1306471306471306, 0.3125, 0.0, 0.4375, 1.0
454, 1.4554334554334554, -0.04884004884004884, -2.4932844932844933, 0.09375, 0.125, 0.34375, 1.0
455, 1.5103785103785103, 0.2442002442002442, -1.6495726495726495, 0.0, 0.09375, 0.21875, 1.0
456, 0.8827838827838828, 0.7216117216117216, -0.9645909645909646, 0.0, 0.09375, 0.1875, 1.0
457, 0.27228327228327226, 0.31868131868131866, -0.7387057387057387, 0.0, 0.1875, 0.1875, 1.0
458, 0.2673992673992674, -0.02442002442002442, -0.4835164835164835, -0.03125, 0.25, 0.125, 1.0
459, 0.16483516483516483, 0.14774114774114774, -0.1111111111111111, -0.15625, 0.1875, 0.0625, 1.0
460, -0.1978021978021978, 0.18437118437118438, 0.028083028083028084, -0.0625, 0.1875, 0.03125, 1.0
461, -0.24786324786324787, 0.03540903540903541, 0.06471306471306472, 0.0, 0.21875, 0.125, 1.0
462, -0.10256410256410256, -0.17582417582417584, 0.015873015873015872, -0.03125, 0.21875, 0.15625, 1.0
463, -0.1684981684981685, -0.18681318681318682, 0.0695970695970696, -0.09375, 0.15625, 0.125, 1.0
464, -0.0695970695970696, 0.02442002442002442, 0.32112332112332115, -0.03125, 0.125, 0.0625, 1.0
465, -0.09645909645909646, -0.026862026862026864, 0.10866910866910867, 0.03125, 0.15625, 0.03125, 1.0
466, -0.16483516483516483, -0.15506715506715507, -0.0927960927960928, 0.0, 0.15625, 0.09375, 1.0
467, 0.054945054945054944, -0.1111111111111111, 0.01098901098901099, -0.03125, 0.125, 0.09375, 1.0
468, -0.0463980463980464, -0.020757020757020756, 0.0757020757020757, -0.03125, 0.125, 0.09375, 1.0
469, 0.13064713064713065, 0.015873015873015872, 0.15506715506715507, 0.03125, 0.09375, 0.03125, 1.0
470, -0.031746031746031744, 0.004884004884004884, -0.05982905982905983, 0.03125, 0.0625, 0.03125, 1.0
471, -0.11721611721611722, -0.013431013431013432, -0.2515262515262515, 0.0, 0.09375, 0.0625, 1.0
472, -0.10744810744810745, -0.19291819291819293, -0.5921855921855922, -0.125, 0.1875, 0.09375, 0.0
473, -0.2271062271062271, -0.12942612942612944, -0.6715506715506715, -0.34375, 0.375, 0.1875, 0.0
474, 0.017094017094017096, 0.12332112332112333, -0.4297924297924298, -0.34375, 0.4375, 0.21875, 0.0
475, 0.4652014652014652, -0.014652014652014652, 0.029304029304029304, -0.25, 0.34375, 0.21875, 0.0
476, 0.10744810744810745, 0.1343101343101343, -0.2588522588522589, -0.09375, 0.25, 0.1875, 0.0
477, -0.06105006105006105, -0.13797313797313798, -0.4908424908424908, -0.0625, 0.25, 0.21875, 0.0
478, 0.08791208791208792, -0.2612942612942613, -0.4554334554334554, -0.09375, 0.21875, 0.125, 0.0
479, 0.2625152625152625, 0.028083028083028084, -0.14285714285714285, -0.0625, 0.125, 0.0625, 0.0
480, 0.06105006105006105, -0.08669108669108669, -0.08058608058608059, -0.0625, 0.09375, 0.09375, 0.0
481, -0.16483516483516483, 0.03540903540903541, -0.06105006105006105, -0.15625, 0.0, 0.03125, 0.0
482, -0.37362637362637363, 0.2783882783882784, 0.026862026862026864, -0.125, 0.0625, 0.03125, 0.0
483, -0.27350427350427353, 0.39316239316239315, 0.09768009768009768, -0.03125, 0.125, 0.09375, 0.0
484, 0.030525030525030524, 0.06105006105006105, 0.12332112332112333, 0.0, 0.09375, 0.125, 0.0
485, 0.03663003663003663, -0.026862026862026864, 0.12454212454212454, -0.0625, -0.03125, 0.09375, 0.0
486, -0.15506715506715507, 0.057387057387057384, 0.10989010989010989, -0.09375, -0.09375, 0.0625, 0.0
487, -0.3137973137973138, 0.09523809523809523, -0.040293040293040296, -0.0625, 0.0, 0.09375, 0.0
488, -0.1343101343101343, 0.08180708180708181, -0.2564102564102564, 0.0, 0.125, 0.1875, 0.0
489, 0.8754578754578755, -0.4053724053724054, -0.48595848595848595, -0.03125, 0.0625, 0.1875, 0.0
490, 0.27106227106227104, -0.13064713064713065, -0.5604395604395604, -0.125, -0.125, 0.09375, 0.0
491, -0.2796092796092796, 0.1562881562881563, -0.5921855921855922, -0.0625, 0.09375, 0.15625, 0.0
492, -0.1282051282051282, -0.004884004884004884, -0.8620268620268621, 0.0, 0.34375, 0.25, 0.0
493, -0.2026862026862027, -0.08180708180708181, -1.032967032967033, 0.0, 0.5625, 0.3125, 0.0
494, -0.9438339438339438, 0.9438339438339438, -0.7118437118437119, 0.15625, 0.96875, 0.65625, 0.0
495, -0.7619047619047619, 0.8559218559218559, -1.010989010989011, 0.5, 1.46875, 1.03125, 0.0
496, 1.5164835164835164, -0.645909645909646, -1.6117216117216118, 0.3125, 1.3125, 0.9375, 0.0
497, 1.5531135531135531, -0.30158730158730157, -2.253968253968254, 0.1875, 1.3125, 0.6875, 0.0
498, -1.413919413919414, 2.045177045177045, -2.330891330891331, 0.75, 2.5, 1.1875, 0.0
499, -2.5567765567765566, 3.094017094017094, -1.9523809523809523, 2.0, 4.53125, 1.96875, 0.0
500, -0.0231990231990232, 0.6898656898656899, -1.7692307692307692, 2.65625, 5.75, 2.3125, 0.0
501, 1.4493284493284493, -0.5103785103785103, -1.8315018315018314, 2.59375, 6.125, 2.28125, 0.0
502, 1.170940170940171, -0.29914529914529914, -1.7960927960927962, 2.5625, 6.46875, 2.1875, 0.0
503, -0.03907203907203907, 0.6874236874236874, 1.236874236874237, 3.21875, 7.9375, 2.53125, 0.0
504, 1.42002442002442, 0.9010989010989011, 2.173382173382173, 3.71875, 8.625, 2.71875, 0.0
505, 2.6678876678876677, 0.8400488400488401, 2.2612942612942613, 3.9375, 8.46875, 2.6875, 0.0
506, 3.6227106227106227, 0.8449328449328449, 2.2246642246642248, 3.9375, 7.875, 2.34375, 0.0
507, 3.7264957264957266, 1.061050061050061, 2.3394383394383396, 4.03125, 7.21875, 1.8125, 0.0
508, 3.227106227106227, 0.851037851037851, 2.1855921855921854, 4.34375, 6.625, 1.375, 0.0
509, 2.6153846153846154, 0.7130647130647131, 1.6459096459096458, 4.65625, 5.90625, 1.0, 0.0
510, 2.8644688644688645, -0.4835164835164835, 0.7814407814407814, 4.875, 5.125, 0.84375, 0.0
511, 2.440781440781441, -1.3748473748473748, -0.040293040293040296, 4.8125, 4.1875, 0.625, 0.0
512, 2.52014652014652, -2.4395604395604398, -0.5995115995115995, 4.625, 3.34375, 0.375, 0.0
513, 2.3504273504273505, -2.84004884004884, -1.0964590964590966, 4.21875, 2.5, -0.03125, 0.0
514, 1.818070818070818, -2.9401709401709404, -1.3394383394383393, 3.5625, 1.46875, -0.78125, 0.0
515, 0.8461538461538461, -1.9658119658119657, -1.7057387057387057, 3.28125, 0.875, -1.03125, 0.0
516, -0.6813186813186813, -2.1404151404151404, -2.139194139194139, 3.1875, 0.65625, -1.0625, 0.0
517, -0.9731379731379731, -2.5702075702075704, -2.612942612942613, 2.96875, 0.53125, -1.09375, 0.0
518, -1.2576312576312576, -2.468864468864469, -2.7435897435897436, 2.5625, 0.40625, -1.1875, 0.0
519, -1.393162393162393, -2.0378510378510377, -2.7106227106227108, 2.28125, 0.25, -1.3125, 0.0
520, -1.6166056166056166, -2.231990231990232, -2.844932844932845, 2.125, -0.09375, -1.3125, 0.0
521, -2.313797313797314, -1.6935286935286935, -3.1416361416361416, 2.03125, -0.3125, -1.125, 0.0
522, -2.728937728937729, -1.8388278388278387, -3.1172161172161172, 1.8125, -0.375, -0.96875, 0.0
523, -2.2173382173382175, -1.9120879120879122, -3.5164835164835164, 1.5625, -0.53125, -0.90625, 0.0
524, -2.230769230769231, -1.8815628815628815, -4.283272283272283, 1.1875, -0.6875, -1.0, 0.0
525, -2.6849816849816848, -1.0598290598290598, -4.498168498168498, 0.90625, -0.65625, -0.96875, 0.0
526, -2.9902319902319903, -0.04395604395604396, -4.202686202686203, 0.65625, -0.5, -0.5, 0.0
527, -2.619047619047619, -0.20024420024420025, -3.6556776556776556, 0.5625, -0.21875, -0.21875, 0.0
528, -2.0024420024420024, -0.4884004884004884, -2.9694749694749696, 0.375, -0.09375, -0.0625, 0.0
529, -1.7728937728937728, -0.32967032967032966, -2.399267399267399, 0.25, -0.125, 0.0, 0.0
530, -1.7362637362637363, -0.3247863247863248, -1.9352869352869353, 0.1875, -0.21875, 0.03125, 0.0
531, -1.5299145299145298, -0.052503052503052504, -1.264957264957265, 0.125, -0.21875, 0.09375, 0.0
532, -1.2735042735042734, 0.006105006105006105, -0.8058608058608059, 0.09375, -0.09375, 0.125, 0.0
533, -0.7423687423687424, -0.15506715506715507, -0.5506715506715507, 0.125, 0.0, 0.15625, 0.0
534, -0.18315018315018314, -0.1514041514041514, -0.3137973137973138, 0.125, 0.0, 0.09375, 0.0
535, -0.2844932844932845, -0.013431013431013432, -0.1807081807081807, 0.09375, 0.0, 0.09375, 0.0
536, -0.047619047619047616, 0.1111111111111111, 0.007326007326007326, 0.0, 0.125, 0.09375, 0.0
537, 0.2783882783882784, 0.2271062271062271, 0.12698412698412698, 0.0, 0.125, 0.125, 0.0
538, 0.45665445665445664, -0.030525030525030524, 0.22954822954822954, 0.15625, 0.03125, 0.15625, 0.0
539, 0.4371184371184371, -0.34798534798534797, 0.2576312576312576, 0.21875, 0.03125, 0.09375, 0.0
540, 0.6361416361416361, -0.3199023199023199, 0.2039072039072039, 0.125, 0.03125, 0.03125, 0.0
541, 0.45787545787545786, -0.20024420024420025, -0.007326007326007326, 0.09375, 0.0, 0.0, 0.0
542, -0.18437118437118438, 0.008547008547008548, -0.03296703296703297, 0.1875, 0.0, 0.0, 0.0
543, -0.33455433455433453, 0.10378510378510379, -0.10378510378510379, 0.34375, 0.09375, 0.0, 0.0
544, -0.38217338217338215, -0.0231990231990232, -0.0695970695970696, 0.375, 0.0625, 0.0, 0.0
545, -0.3162393162393162, -0.42735042735042733, -0.3431013431013431, 0.25, 0.0, 0.0625, 0.0
546, -0.5616605616605617, -0.24786324786324787, -0.20634920634920634, 0.21875, 0.0, 0.0, 1.0
547, -0.16361416361416362, -0.09768009768009768, 0.050061050061050064, 0.34375, -0.25, -0.0625, 1.0
548, -0.463980463980464, -0.1978021978021978, -0.21611721611721613, 0.3125, -0.6875, 0.0, 1.0
549, -1.321123321123321, -0.7277167277167277, -1.0805860805860805, -0.125, -0.8125, -0.0625, 1.0
550, -3.4395604395604398, 0.8302808302808303, -2.2954822954822953, -0.5, -0.6875, 0.03125, 1.0
551, -3.5128205128205128, 0.9523809523809523, -2.68986568986569, -0.46875, -0.5, 0.34375, 1.0
552, -3.4786324786324787, 1.0244200244200243, -2.923076923076923, -0.46875, -0.4375, 0.65625, 1.0
553, -2.10989010989011, 1.0573870573870574, -2.5042735042735043, -0.53125, -0.21875, 1.03125, 1.0
554, 0.050061050061050064, -0.15873015873015872, -2.0134310134310134, -0.75, -0.375, 1.0, 1.0
555, 0.4065934065934066, -0.6422466422466423, -1.6080586080586081, -1.125, -1.0625, 0.5, 1.0
556, 1.0305250305250304, -1.3333333333333333, -0.9865689865689866, -1.53125, -2.25, -0.1875, 1.0
557, -1.1684981684981686, -0.811965811965812, -0.28205128205128205, -1.9375, -4.0, -0.875, 1.0
558, -3.2344322344322345, -0.5921855921855922, -0.10622710622710622, -2.15625, -5.25, -0.96875, 1.0
559, -5.018315018315018, 0.29304029304029305, 0.5409035409035409, -2.4375, -6.09375, -0.375, 1.0
560, -6.537240537240537, 2.288156288156288, 1.304029304029304, -2.4375, -6.40625, 0.3125, 1.0
561, -7.147741147741148, 2.688644688644689, 0.4810744810744811, -1.6875, -5.21875, 1.28125, 1.0
562, -3.741147741147741, 3.1575091575091574, 0.2588522588522589, -2.15625, -5.1875, 1.34375, 1.0
563, -1.2747252747252746, 7.395604395604396, 1.84004884004884, -2.75, -6.25, 0.78125, 1.0
564, -2.2686202686202686, 7.084249084249084, 2.387057387057387, -2.59375, -6.71875, 0.65625, 1.0
565, -1.0561660561660562, 3.8253968253968256, 2.1294261294261294, -2.6875, -7.375, 0.625, 1.0
566, 0.7728937728937729, 0.03907203907203907, 2.6398046398046398, -3.5625, -8.84375, -0.03125, 1.0
567, 0.5470085470085471, -0.7728937728937729, 5.024420024420024, -4.0625, -10.4375, -0.71875, 1.0
568, -1.2173382173382172, -0.7826617826617827, 4.56043956043956, -3.40625, -10.375, -1.1875, 1.0
569, -2.647130647130647, 0.29426129426129427, 2.542124542124542, -2.34375, -9.1875, -1.53125, 1.0
570, -5.394383394383395, 1.0976800976800978, 0.16117216117216118, -1.34375, -7.15625, -1.125, 1.0
571, -5.014652014652015, 1.7924297924297925, -1.393162393162393, -0.4375, -5.03125, -0.5, 1.0
572, -1.575091575091575, 1.9194139194139195, -2.2295482295482296, 0.625, -4.03125, -0.09375, 1.0
573, -2.1452991452991452, 0.0757020757020757, -6.222222222222222, 0.875, -3.5, -0.15625, 1.0
574, -2.3772893772893773, 0.8290598290598291, -6.493284493284493, 0.84375, -2.34375, 0.0625, 1.0
575, -0.9706959706959707, 1.0231990231990231, -5.457875457875458, 0.9375, -1.4375, 0.46875, 1.0
576, -0.042735042735042736, 1.2942612942612943, -5.228327228327228, 1.0625, -1.25, 0.625, 1.0
577, -0.8717948717948718, 0.9267399267399268, -5.1782661782661785, 1.03125, -1.28125, 0.78125, 1.0
578, -0.8229548229548229, 0.7191697191697192, -4.759462759462759, 0.9375, -0.9375, 0.96875, 1.0
579, -0.1330891330891331, 0.5738705738705738, -3.6825396825396823, 0.78125, -0.59375, 1.125, 1.0
580, 0.3443223443223443, 0.054945054945054944, -2.786324786324786, 0.78125, -0.4375, 1.15625, 1.0
581, 0.5677655677655677, 0.17216117216117216, -2.2808302808302807, 0.78125, -0.375, 1.15625, 1.0
582, 1.4114774114774116, -0.4932844932844933, -2.6837606837606836, 0.78125, -0.40625, 1.09375, 1.0
583, 1.5396825396825398, -0.6373626373626373, -3.2234432234432235, 0.625, -0.375, 0.875, 1.0
584, 1.4261294261294262, -0.3614163614163614, -3.2246642246642248, 0.40625, -0.09375, 0.59375, 1.0
585, 1.277167277167277, -0.16483516483516483, -2.9462759462759465, 0.3125, 0.0, 0.5, 1.0
586, 1.017094017094017, -0.14041514041514042, -2.507936507936508, 0.125, 0.03125, 0.375, 1.0
587, 0.6568986568986569, 0.0463980463980464, -1.877899877899878, 0.0, 0.125, 0.28125, 1.0
588, 0.3528693528693529, 0.36507936507936506, -1.0415140415140416, -0.0625, 0.125, 0.25, 1.0
589, 0.09401709401709402, 0.3431013431013431, -0.5201465201465202, -0.03125, 0.15625, 0.1875, 1.0
590, 0.003663003663003663, 0.21245421245421245, -0.11965811965811966, 0.0, 0.125, 0.1875, 1.0
591, -0.3052503052503053, 0.10622710622710622, -0.12942612942612944, 0.0, 0.21875, 0.1875, 1.0
592, 0.02197802197802198, -0.2612942612942613, -0.2454212454212454, -0.0625, 0.21875, 0.125, 1.0
593, 0.07203907203907203, -0.0927960927960928, -0.07326007326007326, -0.15625, 0.09375, 0.0625, 1.0
594, -0.2564102564102564, 0.09157509157509157, -0.014652014652014652, -0.125, 0.0, 0.03125, 1.0
595, -0.5225885225885226, 0.16361416361416362, 0.07081807081807082, -0.03125, 0.0625, 0.0625, 1.0
596, -0.12942612942612944, -0.18925518925518925, 0.018315018315018316, -0.03125, 0.15625, 0.125, 1.0
597, -0.07203907203907203, -0.03296703296703297, 0.04395604395604396, -0.09375, 0.0625, 0.0625, 1.0
598, -0.398046398046398, 0.0989010989010989, 0.06105006105006105, -0.09375, 0.0, 0.0625, 1.0
599, -0.6532356532356532, 0.1514041514041514, 0.0757020757020757, 0.0, 0.03125, 0.09375, 1.0
600, -0.38095238095238093, -0.08058608058608059, -0.03663003663003663, 0.0, 0.125, 0.15625, 1.0
601, 0.17826617826617827, -0.34676434676434675, -0.07326007326007326, 0.0, 0.125, 0.125, 1.0
602, 0.23076923076923078, -0.3724053724053724, -0.2771672771672772, -0.125, 0.0, 0.0, 1.0
603, -0.1562881562881563, -0.08302808302808302, -0.34065934065934067, -0.21875, -0.03125, 0.0, 1.0
604, -0.1452991452991453, -0.08791208791208792, -0.41025641025641024, -0.28125, 0.125, 0.0, 0.0
605, -0.15995115995115994, 0.042735042735042736, -0.21611721611721613, -0.34375, 0.25, 0.0625, 0.0
606, -0.11843711843711843, 0.3247863247863248, -0.028083028083028084, -0.28125, 0.40625, 0.1875, 0.0
607, 0.10866910866910867, -0.06227106227106227, -0.48595848595848595, -0.25, 0.40625, 0.21875, 0.0
608, 0.989010989010989, -0.5555555555555556, -0.5372405372405372, -0.34375, 0.125, 0.03125, 0.0
609, 0.19413919413919414, 0.006105006105006105, -0.21733821733821734, -0.25, 0.0625, -0.03125, 0.0
610, -0.4700854700854701, 0.08791208791208792, -0.2954822954822955, -0.0625, 0.3125, 0.0, 0.0
611, -0.4188034188034188, 0.05616605616605617, -0.3333333333333333, 0.03125, 0.5625, 0.09375, 0.0
612, -0.28815628815628813, 0.39316239316239315, -0.5934065934065934, 0.1875, 0.75, 0.3125, 0.0
613, -1.636141636141636, 0.9157509157509157, -1.2454212454212454, 0.53125, 1.4375, 0.78125, 0.0
614, -2.8058608058608057, 2.05006105006105, -2.1953601953601956, 1.125, 2.8125, 1.625, 0.0
615, -3.275946275946276, 2.3565323565323566, -2.1709401709401708, 2.0625, 4.5625, 2.65625, 0.0
616, -1.205128205128205, 0.8363858363858364, -1.8339438339438339, 2.75, 6.0, 3.15625, 0.0
617, 1.2551892551892552, -1.1538461538461537, -1.7728937728937728, 3.03125, 6.78125, 3.0625, 0.0
618, 2.3150183150183152, -1.8253968253968254, -1.5177045177045176, 2.84375, 7.0625, 2.65625, 0.0
619, 1.4285714285714286, -0.13064713064713065, 1.078144078144078, 2.875, 7.46875, 2.375, 0.0
620, 0.9755799755799756, 0.2222222222222222, 1.6996336996336996, 3.28125, 7.90625, 2.625, 0.0
621, 2.5714285714285716, -0.19291819291819293, 2.227106227106227, 3.59375, 8.125, 2.71875, 0.0
622, 3.7203907203907205, 0.6568986568986569, 2.3968253968253967, 3.53125, 7.53125, 2.15625, 0.0
623, 2.695970695970696, 1.5604395604395604, 2.197802197802198, 3.5, 6.5625, 1.5, 0.0
624, 1.6715506715506716, 1.4517704517704517, 1.9377289377289377, 3.65625, 5.9375, 1.125, 0.0
625, 1.5372405372405373, 1.592185592185592, 1.540903540903541, 3.84375, 5.40625, 0.875, 0.0
626, 1.1587301587301588, 1.2478632478632479, 0.811965811965812, 4.03125, 4.84375, 0.75, 0.0
627, 0.35653235653235654, 0.8620268620268621, 0.03907203907203907, 4.125, 4.25, 0.53125, 0.0
628, 0.4542124542124542, -0.37606837606837606, -0.3528693528693529, 4.09375, 3.9375, 0.59375, 0.0
629, 1.4102564102564104, -0.3321123321123321, -0.3614163614163614, 3.78125, 3.5, 0.40625, 0.0
630, 1.5457875457875458, -0.6507936507936508, -0.5470085470085471, 3.46875, 2.8125, 0.0, 0.0
631, 0.6422466422466423, -1.2527472527472527, -0.5726495726495726, 3.09375, 1.875, -0.15625, 0.0
632, -0.19658119658119658, -1.321123321123321, -0.42002442002442003, 2.96875, 1.59375, -0.28125, 0.0
633, 0.018315018315018316, -0.9755799755799756, -0.5299145299145299, 2.9375, 1.40625, -0.4375, 0.0
634, 0.25396825396825395, -1.2588522588522588, -0.5921855921855922, 2.6875, 0.96875, -0.625, 0.0
635, -0.3663003663003663, -1.387057387057387, -0.645909645909646, 2.40625, 0.5, -0.71875, 0.0
636, -1.1843711843711844, -1.2344322344322345, -0.5238095238095238, 2.28125, 0.25, -0.78125, 0.0
637, -0.8485958485958486, -0.24786324786324787, -0.5457875457875457, 2.40625, 0.0, -0.75, 0.0
638, -1.3540903540903542, -1.2148962148962148, -1.0695970695970696, 2.34375, -0.125, -0.75, 0.0
639, -1.7179487179487178, -1.2356532356532357, -1.691086691086691, 2.15625, -0.28125, -0.78125, 0.0
640, -1.794871794871795, -0.7338217338217338, -2.3455433455433456, 1.90625, -0.5, -0.78125, 0.0
641, -1.8095238095238095, 0.11355311355311355, -2.8290598290598292, 1.6875, -0.65625, -0.75, 0.0
642, -2.2576312576312576, 0.57997557997558, -3.2673992673992673, 1.4375, -0.53125, -0.59375, 0.0
643, -1.9133089133089134, 0.02442002442002442, -4.4774114774114775, 1.09375, -0.53125, -0.46875, 0.0
644, -1.8388278388278387, 0.2588522588522589, -4.437118437118437, 0.625, -0.5625, -0.5, 0.0
645, -1.7216117216117217, 1.3247863247863247, -3.9902319902319903, 0.28125, -0.5, -0.46875, 0.0
646, -1.7252747252747254, 1.1794871794871795, -3.590964590964591, 0.25, -0.34375, -0.3125, 0.0
647, -1.4297924297924298, 0.8351648351648352, -3.5238095238095237, 0.1875, -0.25, -0.1875, 0.0
648, -1.3186813186813187, 0.2698412698412698, -3.47008547008547, 0.0, -0.28125, -0.21875, 0.0
649, -2.203907203907204, 0.11965811965811966, -2.9865689865689866, -0.28125, -0.1875, -0.1875, 0.0
650, -2.0073260073260073, 0.6654456654456654, -1.8595848595848596, -0.5, 0.15625, -0.15625, 0.0
651, -1.0073260073260073, 0.9169719169719169, -0.9523809523809523, -0.46875, 0.3125, -0.0625, 0.0
652, -1.0537240537240538, 0.2686202686202686, -0.6715506715506715, -0.34375, 0.21875, 0.0, 0.0
653, -1.010989010989011, 0.018315018315018316, -0.3614163614163614, -0.3125, 0.125, 0.03125, 0.0
654, -0.7912087912087912, -0.1282051282051282, 0.1562881562881563, -0.375, 0.15625, 0.03125, 0.0
655, -0.22832722832722832, 0.21123321123321123, 0.5726495726495726, -0.28125, 0.09375, 0.0, 0.0
656, -0.2454212454212454, 0.4053724053724054, 0.5616605616605617, -0.125, 0.0625, 0.03125, 0.0
657, -0.3137973137973138, 0.3125763125763126, 0.32234432234432236, 0.0, 0.09375, 0.0625, 0.0
658, -0.07203907203907203, 0.01098901098901099, 0.2661782661782662, -0.0625, 0.1875, 0.03125, 0.0
659, 0.3089133089133089, 0.1330891330891331, 0.4188034188034188, -0.09375, 0.15625, 0.0, 0.0
660, 0.4444444444444444, 0.3089133089133089, 0.5164835164835165, -0.03125, 0.0, 0.0, 0.0
661, 0.2148962148962149, 0.18315018315018314, 0.04884004884004884, 0.0, -0.125, 0.0, 0.0
662, -0.1794871794871795, 0.13797313797313798, -0.16483516483516483, 0.0625, -0.125, 0.03125, 0.0
663, -0.2588522588522589, -0.12942612942612944, -0.4884004884004884, 0.0, -0.0625, 0.0625, 0.0
664, -0.15262515262515264, 0.004884004884004884, -0.4981684981684982, -0.03125, -0.03125, 0.0, 0.0
665, -0.28205128205128205, 0.17094017094017094, -0.5518925518925519, 0.0, -0.03125, 0.0, 0.0
666, -0.23565323565323565, 0.05616605616605617, -0.35653235653235654, 0.0, 0.0, 0.0625, 0.0
667, -0.03540903540903541, 0.05616605616605617, -0.05616605616605617, -0.03125, 0.0, 0.03125, 0.0
668, -0.18925518925518925, 0.02442002442002442, -0.06837606837606838, 0.0, -0.03125, 0.0625, 0.0
669, -0.17216117216117216, -0.115995115995116, -0.02197802197802198, 0.03125, -0.03125, 0.0625, 0.0
670, -0.1562881562881563, 0.08547008547008547, 0.1391941391941392, 0.0625, 0.0, 0.09375, 0.0
671, -0.017094017094017096, 0.017094017094017096, 0.1514041514041514, 0.125, 0.0, 0.125, 0.0
672, -0.02197802197802198, -0.19047619047619047, -0.08669108669108669, 0.15625, -0.0625, 0.125, 0.0
673, 0.13797313797313798, -0.040293040293040296, 0.008547008547008548, 0.125, -0.21875, 0.0625, 0.0
674, 0.1391941391941392, 0.030525030525030524, -0.03296703296703297, 0.09375, -0.4375, 0.0, 1.0
675, -0.36385836385836384, 0.009768009768009768, -0.3540903540903541, 0.09375, -0.59375, -0.03125, 1.0
676, 0.39316239316239315, -0.3882783882783883, -0.503052503052503, 0.0625, -0.71875, -0.125, 1.0
677, -1.177045177045177, 0.08913308913308914, -1.1587301587301588, 0.03125, -0.84375, -0.0625, 1.0
678, -1.818070818070818, 0.17582417582417584, -2.1306471306471306, -0.09375, -0.71875, -0.03125, 1.0
679, -1.3076923076923077, 0.06227106227106227, -2.656898656898657, -0.375, -0.9375, 0.0, 1.0
680, -0.7777777777777778, -0.18192918192918192, -3.105006105006105, -0.84375, -1.6875, -0.09375, 1.0
681, 0.08913308913308914, -0.8559218559218559, -2.744810744810745, -1.5625, -3.15625, -0.625, 1.0
682, -1.105006105006105, -0.4188034188034188, -1.822954822954823, -2.21875, -4.8125, -1.34375, 1.0
683, -2.838827838827839, 0.4627594627594628, -0.31746031746031744, -2.75, -6.53125, -1.625, 1.0
684, -6.9914529914529915, 2.3345543345543347, 1.1001221001221002, -2.75, -7.21875, -1.125, 1.0
685, -9.123321123321123, 3.4603174603174605, 0.8034188034188035, -2.4375, -6.53125, 0.34375, 1.0
686, -4.7655677655677655, 3.7020757020757022, 1.3076923076923077, -2.71875, -6.65625, 1.0, 1.0
687, 0.03296703296703297, 5.473748473748474, 3.68009768009768, -3.40625, -8.125, 0.09375, 1.0
688, -2.5714285714285716, 3.608058608058608, 5.4322344322344325, -3.0625, -8.5, -0.53125, 1.0
689, -3.971916971916972, 2.2893772893772892, 0.35653235653235654, -1.34375, -6.65625, 0.40625, 1.0
690, -1.6984126984126984, 0.5934065934065934, 0.05128205128205128, -1.34375, -6.34375, 0.8125, 1.0
691, -1.7728937728937728, 0.7313797313797313, 0.326007326007326, -1.5, -6.28125, 0.4375, 1.0
692, -1.962148962148962, 0.5738705738705738, 0.20024420024420025, -1.3125, -5.875, 0.375, 1.0
693, -0.8424908424908425, -0.6092796092796092, -0.030525030525030524, -1.0625, -5.3125, 0.21875, 1.0
694, -1.293040293040293, 0.6324786324786325, -0.15262515262515264, -1.0, -5.15625, 0.09375, 1.0
695, -1.122100122100122, 0.7741147741147741, -1.1697191697191698, -0.5625, -4.65625, 0.1875, 1.0
696, 0.3028083028083028, -0.18192918192918192, -2.1123321123321124, -0.3125, -4.21875, 0.15625, 1.0
697, 1.126984126984127, -1.010989010989011, -1.993894993894994, -0.71875, -4.21875, -0.28125, 1.0
698, -1.7008547008547008, 2.166056166056166, -0.7326007326007326, -1.25, -4.59375, -0.8125, 1.0
699, -4.4664224664224665, 4.311355311355311, -1.7716727716727716, -0.34375, -3.6875, -0.375, 1.0
700, -0.7985347985347986, 1.6056166056166057, -3.7374847374847375, 1.0625, -1.8125, 0.875, 1.0
701, 4.024420024420024, -2.021978021978022, -4.532356532356532, 0.25, -2.5, 0.25, 1.0
702, 0.5641025641025641, -0.09645909645909646, -4.261294261294261, -0.28125, -2.46875, -0.1875, 1.0
703, -1.326007326007326, 2.357753357753358, -3.796092796092796, 0.125, -1.5625, 0.25, 1.0
704, 0.14652014652014653, 1.4578754578754578, -2.8302808302808304, 0.5, -1.0625, 0.59375, 1.0
705, 1.8754578754578755, -0.047619047619047616, -2.242979242979243, 0.25, -1.4375, 0.375, 1.0
706, 1.1575091575091576, 0.24175824175824176, -1.592185592185592, 0.0, -1.75, 0.09375, 1.0
707, -0.5213675213675214, 2.3394383394383396, -1.5286935286935286, 0.59375, -1.125, 0.53125, 1.0
708, 0.409035409035409, 1.3858363858363858, -3.087912087912088, 1.28125, -0.4375, 1.0625, 1.0
709, 2.9914529914529915, -0.8608058608058609, -4.64957264957265, 1.03125, -0.53125, 0.84375, 1.0
710, 2.3601953601953602, -0.8815628815628815, -5.503052503052503, 0.375, -0.46875, 0.4375, 1.0
711, 1.2197802197802199, 0.17216117216117216, -4.5054945054945055, 0.125, -0.0625, 0.375, 1.0
712, 1.6227106227106227, 0.7094017094017094, -1.9255189255189256, 0.25, 0.21875, 0.46875, 1.0
713, 2.064713064713065, -0.199023199023199, -1.8095238095238095, 0.1875, 0.15625, 0.34375, 1.0
714, 1.474969474969475, 0.12332112332112333, -1.3785103785103785, 0.0, 0.0625, 0.15625, 1.0
715, 0.9536019536019537, 0.05982905982905983, -0.8962148962148963, -0.125, 0.03125, 0.0, 1.0
716, 0.13064713064713065, 0.28205128205128205, -0.26373626373626374, -0.21875, 0.0625, -0.03125, 1.0
717, -0.31135531135531136, 0.4554334554334554, 0.28083028083028083, -0.15625, 0.125, 0.0625, 1.0
718, 0.007326007326007326, -0.013431013431013432, 0.47863247863247865, -0.0625, 0.1875, 0.15625, 1.0
719, 0.3418803418803419, -0.3431013431013431, 0.6166056166056166, -0.125, 0.03125, 0.0625, 1.0
720, -0.231990231990232, -0.24053724053724054, 0.5409035409035409, -0.1875, -0.15625, -0.09375, 1.0
721, -0.6398046398046398, 0.14163614163614163, 0.663003663003663, -0.125, -0.15625, -0.125, 1.0
722, -1.2820512820512822, 0.45054945054945056, 0.5299145299145299, 0.03125, -0.03125, 0.0, 1.0
723, 0.221001221001221, -0.5445665445665445, 0.045177045177045176, 0.21875, 0.1875, 0.25, 1.0
724, 0.6373626373626373, -0.7130647130647131, -0.1330891330891331, -0.09375, -0.21875, 0.0, 1.0
725, -0.24297924297924298, -0.09157509157509157, -0.2771672771672772, -0.125, -0.09375, 0.0, 1.0
726, -0.5824175824175825, 0.23931623931623933, -0.568986568986569, -0.0625, 0.21875, 0.25, 0.0
727, -0.2979242979242979, -0.004884004884004884, -0.9230769230769231, 0.0, 0.5, 0.4375, 0.0
728, 0.7521367521367521, 0.10256410256410256, -0.5836385836385837, 0.03125, 0.5625, 0.5, 0.0
729, -0.30036630036630035, 0.38095238095238093, -0.73992673992674, 0.1875, 0.71875, 0.5625, 0.0
730, -0.7423687423687424, 0.4163614163614164, -0.8998778998778999, 0.3125, 1.03125, 0.65625, 0.0
731, -1.5506715506715507, 1.0842490842490842, -0.5347985347985348, 0.65625, 1.65625, 0.96875, 0.0
732, -1.8424908424908424, 1.4444444444444444, 0.015873015873015872, 1.21875, 2.40625, 1.28125, 0.0
733, 0.8998778998778999, -1.4163614163614164, -0.7106227106227107, 1.0, 2.1875, 1.5, 0.0
734, 1.6800976800976801, -0.9462759462759462, -0.5091575091575091, 0.59375, 1.65625, 1.1875, 0.0
735, 0.6642246642246642, -0.5836385836385837, -0.7045177045177046, 0.5625, 1.875, 0.9375, 0.0
736, -0.9255189255189256, 1.2673992673992673, -0.23687423687423687, 1.25, 2.90625, 1.28125, 0.0
737, 0.796092796092796, -0.019536019536019536, -0.02442002442002442, 1.9375, 3.875, 1.40625, 0.0
738, 1.3553113553113554, -0.5445665445665445, -0.1855921855921856, 2.0625, 4.0625, 1.34375, 0.0
739, 0.19536019536019536, 0.6788766788766789, -0.5409035409035409, 2.03125, 4.1875, 1.40625, 0.0
740, 0.6410256410256411, 0.5995115995115995, -0.8547008547008547, 2.28125, 4.84375, 1.75, 0.0
741, 1.6593406593406594, 0.38461538461538464, -0.7191697191697192, 2.34375, 5.28125, 2.0625, 0.0
742, 2.105006105006105, 0.304029304029304, -0.49694749694749696, 2.28125, 5.375, 2.125, 0.0
743, 1.1452991452991452, 0.8693528693528694, -0.0463980463980464, 2.34375, 5.625, 2.28125, 0.0
744, 1.9242979242979243, 0.8437118437118437, 0.6825396825396826, 2.65625, 6.1875, 2.34375, 0.0
745, 3.057387057387057, 0.5372405372405372, 1.3186813186813187, 3.03125, 6.4375, 2.25, 0.0
746, 3.2002442002442004, 0.8803418803418803, 1.568986568986569, 3.40625, 6.1875, 1.84375, 0.0
747, 2.5616605616605614, 0.6263736263736264, 1.393162393162393, 3.84375, 5.5625, 1.09375, 0.0
748, 1.2796092796092795, -0.5958485958485958, 0.9413919413919414, 4.0625, 5.5, 1.125, 0.0
749, 1.177045177045177, -1.0293040293040292, 0.9304029304029304, 4.25, 5.5625, 1.15625, 0.0
750, 1.9841269841269842, -1.2002442002442002, 1.0097680097680097, 4.46875, 5.34375, 1.03125, 0.0
751, 2.614163614163614, -2.5811965811965814, 0.8351648351648352, 4.3125, 4.71875, 0.84375, 0.0
752, 2.354090354090354, -2.7472527472527473, 0.6178266178266179, 4.15625, 4.0, 0.65625, 0.0
753, 2.3943833943833943, -3.597069597069597, 0.5848595848595849, 3.9375, 3.1875, 0.4375, 0.0
754, 2.6336996336996337, -3.4542124542124544, 0.46153846153846156, 3.78125, 2.28125, 0.0, 0.0
755, 2.559218559218559, -3.669108669108669, 0.13797313797313798, 3.53125, 1.25, -0.5625, 0.0
756, 1.1355311355311355, -3.7838827838827838, -0.5103785103785103, 3.15625, 0.40625, -1.03125, 0.0
757, 0.2454212454212454, -2.4993894993894994, -0.8315018315018315, 2.84375, -0.125, -1.15625, 0.0
758, -1.0915750915750915, -1.901098901098901, -1.4285714285714286, 2.8125, -0.28125, -1.0625, 0.0
759, -1.492063492063492, -1.8424908424908424, -2.15995115995116, 2.78125, -0.25, -1.03125, 0.0
760, -0.8962148962148963, -1.2503052503052503, -2.230769230769231, 2.46875, -0.40625, -1.03125, 0.0
761, -1.2612942612942613, -1.0036630036630036, -2.716727716727717, 2.25, -0.84375, -1.0625, 0.0
762, -2.155067155067155, -0.6361416361416361, -3.023199023199023, 2.0625, -1.125, -1.09375, 0.0
763, -2.595848595848596, -0.4590964590964591, -3.199023199023199, 1.90625, -1.15625, -0.9375, 0.0
764, -2.1074481074481075, 0.11233211233211234, -3.547008547008547, 1.8125, -1.09375, -0.71875, 0.0
765, -2.2185592185592187, -0.33577533577533575, -4.267399267399267, 1.6875, -1.15625, -0.65625, 0.0
766, -2.299145299145299, 0.39194139194139194, -4.6007326007326, 1.375, -1.1875, -0.6875, 0.0
767, -2.9645909645909647, 0.5445665445665445, -4.90964590964591, 1.15625, -1.125, -0.59375, 0.0
768, -2.741147741147741, 0.4810744810744811, -5.301587301587301, 1.0, -0.84375, -0.40625, 0.0
769, -2.525030525030525, 0.32722832722832723, -5.467643467643468, 0.75, -0.65625, -0.3125, 0.0
770, -3.0683760683760686, 0.03296703296703297, -5.406593406593407, 0.34375, -0.5, -0.09375, 0.0
771, -3.05006105006105, 0.020757020757020756, -4.63980463980464, 0.0, -0.28125, 0.09375, 0.0
772, -2.619047619047619, -0.08913308913308914, -3.2735042735042734, -0.34375, -0.0625, 0.28125, 0.0
773, -1.89010989010989, 0.18925518925518925, -1.783882783882784, -0.4375, 0.09375, 0.34375, 0.0
774, -0.7582417582417582, 0.47374847374847373, -0.39194139194139194, -0.28125, 0.09375, 0.25, 0.0
775, -0.3052503052503053, 0.030525030525030524, 0.05860805860805861, -0.1875, 0.0, 0.15625, 0.0
776, -0.442002442002442, -0.14896214896214896, 0.42246642246642246, -0.1875, 0.0, 0.15625, 0.0
777, 0.17094017094017094, -0.2673992673992674, 0.6800976800976801, -0.25, 0.0, 0.15625, 0.0
778, 0.336996336996337, 0.16971916971916973, 1.0598290598290598, -0.125, 0.03125, 0.125, 0.0
779, 0.6239316239316239, 0.115995115995116, 0.9304029304029304, 0.09375, 0.0625, 0.03125, 0.0
780, 0.9499389499389499, -0.1221001221001221, 0.5665445665445665, 0.1875, -0.0625, 0.0, 0.0
781, 0.5738705738705738, -0.28205128205128205, -0.030525030525030524, 0.125, -0.15625, -0.09375, 0.0
782, -0.13064713064713065, -0.22344322344322345, -0.5201465201465202, 0.0, -0.125, -0.15625, 0.0
783, -0.17704517704517705, -0.002442002442002442, -0.231990231990232, -0.03125, -0.03125, -0.09375, 0.0
784, 0.09401709401709402, 0.026862026862026864, 0.06837606837606838, 0.0, 0.0, 0.0, 0.0
785, 0.22344322344322345, -0.19413919413919414, 0.042735042735042736, 0.03125, -0.0625, -0.03125, 0.0
786, -0.2698412698412698, -0.09157509157509157, -0.27594627594627597, 0.03125, -0.25, -0.09375, 0.0
787, -0.57997557997558, -0.03540903540903541, -0.43956043956043955, 0.0, -0.1875, -0.0625, 0.0
788, -0.25518925518925517, 0.115995115995116, -0.3125763125763126, 0.0, 0.0, -0.03125, 0.0
789, -0.19413919413919414, 0.07448107448107448, -0.24053724053724054, 0.0, 0.0, -0.03125, 0.0
790, -0.24053724053724054, -0.08424908424908426, -0.3308913308913309, 0.03125, -0.03125, -0.0625, 0.0
791, -0.31868131868131866, -0.07692307692307693, -0.34065934065934067, 0.0, -0.0625, -0.03125, 0.0
792, -0.008547008547008548, -0.1111111111111111, -0.29426129426129427, 0.0, -0.03125, 0.0, 0.0
793, -0.007326007326007326, -0.05982905982905983, -0.31135531135531136, -0.03125, -0.09375, -0.09375, 0.0
794, -0.23076923076923078, -0.07692307692307693, -0.31868131868131866, -0.03125, -0.0625, -0.125, 0.0
795, -0.07936507936507936, -0.06471306471306472, -0.20146520146520147, 0.0, -0.03125, -0.09375, 0.0
796, -0.1684981684981685, -0.07692307692307693, -0.2148962148962149, 0.0, -0.03125, -0.09375, 0.0
797, -0.3235653235653236, -0.10622710622710622, -0.3125763125763126, -0.03125, 0.0, -0.09375, 0.0
798, -0.16971916971916973, -0.12087912087912088, -0.2588522588522589, -0.0625, -0.03125, -0.09375, 0.0
799, -0.0463980463980464, -0.08424908424908426, -0.02564102564102564, -0.0625, -0.09375, -0.09375, 0.0
800, -0.4713064713064713, -0.32234432234432236, -0.14652014652014653, -0.125, -0.09375, -0.03125, 0.0
801, -0.25396825396825395, -0.09157509157509157, -0.16117216117216118, -0.0625, -0.125, 0.0, 0.0
802, -0.4078144078144078, -0.1452991452991453, -0.25518925518925517, -0.0625, -0.09375, 0.0, 0.0
803, 0.003663003663003663, 0.002442002442002442, -0.14041514041514042, -0.03125, -0.09375, 0.0, 0.0
804, 0.1684981684981685, -0.08424908424908426, -0.18803418803418803, 0.0, -0.21875, -0.09375, 1.0
805, -0.36752136752136755, -0.1684981684981685, -0.8034188034188035, 0.125, -0.53125, -0.25, 1.0
806, -1.3504273504273505, -1.0818070818070817, -1.5482295482295483, 0.0, -0.625, -0.28125, 1.0
807, -1.794871794871795, -0.8229548229548229, -2.241758241758242, -0.375, -0.90625, -0.34375, 1.0
808, -3.5054945054945055, -0.23321123321123322, -3.161172161172161, -0.65625, -1.28125, -0.21875, 1.0
809, -4.08058608058608, -0.17216117216117216, -4.048840048840049, -0.90625, -1.59375, 0.03125, 1.0
810, -4.706959706959707, 0.5201465201465202, -3.894993894993895, -1.46875, -2.21875, 0.34375, 1.0
811, -4.293040293040293, 1.205128205128205, -3.2735042735042734, -2.09375, -2.84375, 0.46875, 1.0
812, -4.7936507936507935, 2.659340659340659, -3.4493284493284495, -2.34375, -3.09375, 0.625, 1.0
813, -4.032967032967033, 2.313797313797314, -3.437118437118437, -2.34375, -3.09375, 0.9375, 1.0
814, -2.716727716727717, 2.597069597069597, -2.606837606837607, -2.625, -3.4375, 1.1875, 1.0
815, -0.1916971916971917, 2.7264957264957266, -0.9487179487179487, -3.03125, -4.375, 1.3125, 1.0
816, 2.0952380952380953, 4.388278388278389, 0.8315018315018315, -3.25, -6.09375, 0.84375, 1.0
817, 1.5274725274725274, 4.516483516483516, 2.221001221001221, -4.03125, -9.375, -0.53125, 1.0
818, -3.750915750915751, 2.717948717948718, 3.2564102564102564, -4.6875, -9.625, -0.9375, 1.0
819, -4.199023199023199, 2.178266178266178, 3.288156288156288, -4.375, -8.6875, -0.28125, 1.0
820, -1.1037851037851039, 1.9536019536019535, 3.1855921855921854, -3.21875, -7.875, 0.3125, 1.0
821, 1.5152625152625152, 0.2661782661782662, 2.9023199023199022, -2.28125, -7.75, 0.0, 1.0
822, 0.6556776556776557, -2.3504273504273505, 1.514041514041514, -2.375, -7.84375, -0.65625, 1.0
823, -0.3333333333333333, -1.6043956043956045, 1.4102564102564104, -2.71875, -7.75, -1.25, 1.0
824, -0.5018315018315018, -0.18803418803418803, 0.7985347985347986, -2.3125, -7.3125, -1.5, 1.0
825, -3.31990231990232, 1.938949938949939, -0.3089133089133089, -1.28125, -5.84375, -1.125, 1.0
826, -3.8144078144078146, 1.8913308913308913, -1.5934065934065933, -0.3125, -3.96875, -0.5, 1.0
827, -0.557997557997558, -0.43833943833943834, -2.0378510378510377, -0.15625, -3.125, -0.40625, 1.0
828, 1.0048840048840049, 0.27228327228327226, -1.0757020757020757, 0.0625, -3.34375, -0.75, 1.0
829, -1.9877899877899878, 1.993894993894994, -2.1196581196581197, 0.53125, -2.96875, -0.53125, 1.0
830, -1.380952380952381, 1.1318681318681318, -4.3357753357753355, 1.25, -2.15625, 0.0, 1.0
831, 0.6800976800976801, 0.12087912087912088, -6.12942612942613, 1.28125, -1.625, 0.25, 1.0
832, 0.2576312576312576, 0.8962148962148963, -6.617826617826617, 0.9375, -1.5, 0.1875, 1.0
833, -0.5445665445665445, 1.9572649572649572, -5.6361416361416365, 0.65625, -1.1875, 0.21875, 1.0
834, -0.40415140415140416, 2.0415140415140414, -4.222222222222222, 0.625, -0.9375, 0.34375, 1.0
835, -0.6800976800976801, 2.1575091575091574, -3.0903540903540905, 0.65625, -0.6875, 0.53125, 1.0
836, -0.4981684981684982, 1.8424908424908424, -2.3150183150183152, 0.75, -0.4375, 0.78125, 1.0
837, 0.9658119658119658, 0.684981684981685, -1.873015873015873, 0.78125, -0.40625, 0.875, 1.0
838, 0.6178266178266179, 0.2771672771672772, -1.702075702075702, 0.5625, -0.625, 0.71875, 1.0
839, 0.47741147741147744, 0.42124542124542125, -1.459096459096459, 0.5625, -0.5, 0.65625, 1.0
840, 1.343101343101343, -0.11355311355311355, -2.2405372405372406, 0.59375, -0.3125, 0.5625, 1.0
841, 1.36996336996337, -0.7191697191697192, -3.1941391941391943, 0.28125, -0.21875, 0.3125, 1.0
842, 1.0195360195360195, -0.2454212454212454, -3.3235653235653237, 0.03125, -0.125, 0.1875, 1.0
843, 0.26373626373626374, 0.17216117216117216, -2.7655677655677655, -0.03125, 0.0625, 0.15625, 1.0
844, 0.10378510378510379, 0.3418803418803419, -1.8021978021978022, -0.0625, 0.21875, 0.15625, 1.0
845, -0.336996336996337, 0.2796092796092796, -0.8681318681318682, -0.09375, 0.28125, 0.1875, 1.0
846, -0.6385836385836385, 0.4017094017094017, -0.03540903540903541, -0.0625, 0.46875, 0.28125, 1.0
847, -0.2576312576312576, -0.08058608058608059, 0.050061050061050064, -0.15625, 0.59375, 0.375, 0.0
848, 0.1514041514041514, -0.04884004884004884, 0.20512820512820512, -0.3125, 0.5, 0.3125, 0.0
849, -0.315018315018315, 0.6691086691086691, 0.7472527472527473, -0.125, 0.46875, 0.21875, 0.0
850, -0.20146520146520147, 0.05616605616605617, 0.43345543345543347, 0.03125, 0.34375, 0.21875, 0.0
851, -0.16117216117216118, -0.4126984126984127, 0.09157509157509157, 0.125, 0.34375, 0.1875, 0.0
852, -0.4590964590964591, -0.22954822954822954, -0.28327228327228327, 0.1875, 0.375, 0.21875, 0.0
853, 0.20757020757020758, -0.608058608058608, -0.43345543345543347, 0.1875, 0.40625, 0.25, 0.0
854, 0.3528693528693529, -0.6117216117216118, -0.32112332112332115, 0.0625, 0.21875, 0.15625, 0.0
855, 0.13186813186813187, -0.3907203907203907, -0.22344322344322345, 0.0, 0.0625, 0.03125, 0.0
856, -0.20024420024420025, -0.06471306471306472, -0.10378510378510379, -0.03125, 0.0625, 0.03125, 0.0
857, -0.518925518925519, 0.04884004884004884, -0.06715506715506715, 0.03125, 0.21875, 0.125, 0.0
858, -0.10378510378510379, 0.02564102564102564, -0.12942612942612944, 0.09375, 0.375, 0.21875, 0.0
859, 0.5653235653235653, -0.49694749694749696, -0.29914529914529914, 0.03125, 0.3125, 0.15625, 0.0
860, 0.5042735042735043, -0.13186813186813187, -0.2905982905982906, -0.09375, 0.09375, 0.0, 0.0
861, -0.015873015873015872, 0.32112332112332115, -0.6239316239316239, -0.09375, 0.03125, -0.0625, 0.0
862, -0.4481074481074481, 0.36507936507936506, -1.2466422466422467, 0.0, 0.25, 0.0, 0.0
863, -0.9072039072039072, 0.7533577533577533, -1.6178266178266179, 0.21875, 1.03125, 0.375, 0.0
864, -1.3247863247863247, 1.5787545787545787, -1.7753357753357752, 0.625, 1.78125, 0.90625, 0.0
865, -1.054945054945055, 1.192918192918193, -1.7924297924297925, 0.96875, 2.4375, 1.40625, 0.0
866, -1.4578754578754578, 1.8363858363858363, -1.5811965811965811, 1.5625, 3.375, 1.90625, 0.0
867, -0.5482295482295483, 0.9731379731379731, -1.564102564102564, 2.15625, 4.375, 2.09375, 0.0
868, 0.5457875457875457, 0.02564102564102564, -1.6056166056166057, 2.46875, 5.0625, 1.875, 0.0
869, 1.2124542124542124, -0.018315018315018316, -1.647130647130647, 2.71875, 5.40625, 1.78125, 0.0
870, 0.3907203907203907, -0.018315018315018316, -1.794871794871795, 2.9375, 6.0, 1.75, 0.0
871, 0.32967032967032966, 0.14407814407814407, -1.52014652014652, 3.03125, 6.53125, 1.6875, 0.0
872, 0.2564102564102564, 0.9584859584859585, -1.3101343101343101, 3.1875, 6.9375, 1.8125, 0.0
873, 0.32234432234432236, 1.2503052503052503, -1.347985347985348, 3.375, 7.34375, 1.9375, 0.0
874, 2.0598290598290596, 0.4822954822954823, -1.0940170940170941, 3.28125, 7.34375, 1.71875, 0.0
875, 1.5482295482295483, 1.9059829059829059, 1.407814407814408, 3.40625, 6.90625, 1.25, 0.0
876, 1.531135531135531, 1.6825396825396826, 1.3455433455433456, 3.84375, 6.78125, 1.15625, 0.0
877, 1.9242979242979243, 1.0915750915750915, 1.2637362637362637, 4.125, 6.40625, 1.0, 0.0
878, 1.1855921855921856, 0.4078144078144078, 1.0341880341880343, 4.34375, 5.875, 0.8125, 0.0
879, 0.9706959706959707, -0.20512820512820512, 0.8388278388278388, 4.59375, 5.53125, 0.8125, 0.0
880, 0.7619047619047619, -0.6092796092796092, 0.47496947496947495, 4.78125, 5.1875, 0.8125, 0.0
881, 1.4163614163614164, -1.8424908424908424, 0.009768009768009768, 4.78125, 4.6875, 0.8125, 0.0
882, 2.1941391941391943, -2.9328449328449326, -0.4627594627594628, 4.4375, 3.8125, 0.5625, 0.0
883, 2.286935286935287, -3.7716727716727716, -0.568986568986569, 3.75, 2.65625, 0.15625, 0.0
884, 2.4993894993894994, -2.8705738705738706, -0.5079365079365079, 3.09375, 1.40625, -0.46875, 0.0
885, 0.7448107448107448, -2.416361416361416, -0.8925518925518926, 2.6875, 0.25, -0.9375, 0.0
886, -0.9902319902319903, -1.8376068376068375, -1.4065934065934067, 2.625, -0.28125, -1.125, 0.0
887, -2.1001221001221, -1.967032967032967, -1.9133089133089134, 2.5, -0.125, -1.0, 0.0
888, -0.8278388278388278, -1.525030525030525, -2.0952380952380953, 2.3125, -0.1875, -1.0625, 0.0
889, -0.8913308913308914, -1.4334554334554335, -2.5567765567765566, 2.0625, -0.5625, -1.1875, 0.0
890, -1.835164835164835, -0.8107448107448108, -2.948717948717949, 1.84375, -0.6875, -1.125, 0.0
891, -2.2246642246642248, -0.4554334554334554, -3.3015873015873014, 1.65625, -0.59375, -0.96875, 0.0
892, -1.818070818070818, -0.1282051282051282, -3.3235653235653237, 1.53125, -0.5625, -0.84375, 0.0
893, -1.7216117216117217, -0.6654456654456654, -3.4896214896214897, 1.28125, -0.71875, -0.84375, 0.0
894, -1.9157509157509158, 0.08547008547008547, -3.3333333333333335, 1.09375, -0.84375, -0.78125, 0.0
895, -2.305250305250305, 0.20512820512820512, -3.4554334554334556, 0.9375, -0.8125, -0.59375, 0.0
896, -2.3894993894993894, 0.01098901098901099, -3.769230769230769, 0.75, -0.75, -0.40625, 0.0
897, -2.2234432234432235, 0.34065934065934067, -3.866910866910867, 0.59375, -0.6875, -0.3125, 0.0
898, -2.1001221001221, 0.5946275946275946, -3.6544566544566544, 0.5, -0.5, -0.09375, 0.0
899, -1.6153846153846154, 0.1807081807081807, -3.1953601953601956, 0.34375, -0.28125, 0.0, 0.0
900, -1.4224664224664225, -0.16971916971916973, -2.8522588522588523, 0.09375, -0.15625, 0.0, 0.0
901, -1.3028083028083028, 0.08913308913308914, -2.271062271062271, -0.09375, -0.0625, 0.0, 0.0
902, -0.8693528693528694, 0.38705738705738707, -1.6092796092796093, -0.125, 0.03125, 0.0, 0.0
903, -0.47985347985347987, 0.1452991452991453, -1.122100122100122, -0.15625, 0.09375, 0.0, 0.0
904, -0.40415140415140416, 0.05860805860805861, -0.7191697191697192, -0.25, 0.09375, -0.03125, 0.0
905, -0.7350427350427351, -0.33821733821733824, -0.43345543345543347, -0.25, 0.09375, 0.0, 0.0
906, -0.48473748473748474, -0.1807081807081807, 0.03418803418803419, -0.21875, 0.1875, 0.03125, 0.0
907, 0.06715506715506715, -0.10500610500610501, 0.4004884004884005, -0.15625, 0.25, 0.0, 0.0
908, 0.33821733821733824, -0.15262515262515264, 0.4700854700854701, -0.09375, 0.125, 0.0, 0.0
909, 0.41147741147741146, -0.10012210012210013, 0.2588522588522589, -0.03125, -0.0625, -0.03125, 0.0
910, -0.26373626373626374, -0.004884004884004884, -0.2087912087912088, 0.0, -0.09375, -0.03125, 0.0
911, -0.15018315018315018, 0.001221001221001221, -0.20146520146520147, 0.0, 0.0, -0.03125, 0.0
912, -0.2661782661782662, -0.001221001221001221, -0.14163614163614163, 0.0, 0.0625, 0.0, 0.0
913, 0.19658119658119658, 0.013431013431013432, 0.03296703296703297, -0.03125, 0.0, 0.0, 0.0
914, 0.11843711843711843, -0.07203907203907203, -0.03907203907203907, -0.03125, -0.15625, -0.0625, 0.0
915, -0.07081807081807082, 0.028083028083028084, -0.10500610500610501, -0.03125, -0.1875, -0.09375, 0.0
916, -0.2783882783882784, 0.08669108669108669, -0.19536019536019536, 0.0, -0.09375, -0.0625, 0.0
917, -0.3064713064713065, 0.054945054945054944, -0.21367521367521367, 0.0, 0.0, -0.03125, 0.0
918, -0.17826617826617827, -0.2588522588522589, -0.2869352869352869, -0.03125, 0.0, -0.03125, 0.0
919, -0.017094017094017096, -0.01221001221001221, -0.003663003663003663, -0.03125, -0.0625, -0.09375, 0.0
920, 0.17582417582417584, 0.13186813186813187, 0.2503052503052503, 0.0, -0.21875, -0.125, 0.0
921, -0.35653235653235654, -0.054945054945054944, -0.042735042735042736, 0.03125, -0.15625, -0.03125, 0.0
922, -0.2503052503052503, -0.11965811965811966, -0.23687423687423687, 0.03125, 0.0, -0.03125, 0.0
923, 0.08302808302808302, 0.06227106227106227, -0.07081807081807082, 0.0, 0.0, -0.0625, 0.0
924, 0.10500610500610501, 0.22466422466422467, 0.08424908424908426, 0.0, -0.125, -0.125, 0.0
925, -0.221001221001221, 0.08058608058608059, -0.07814407814407814, 0.0625, -0.25, -0.125, 0.0
926, -0.5115995115995116, -0.09645909645909646, -0.3601953601953602, 0.125, -0.25, -0.09375, 1.0
927, 0.14652014652014653, -0.2503052503052503, -0.32722832722832723, 0.09375, -0.28125, -0.125, 1.0
928, -1.115995115995116, -0.3528693528693529, -0.9719169719169719, -0.09375, -0.59375, -0.1875, 1.0
929, -1.6605616605616607, -0.08424908424908426, -1.291819291819292, -0.28125, -0.625, -0.25, 1.0
930, -1.7142857142857142, 0.568986568986569, -1.4322344322344323, -0.3125, -0.46875, -0.125, 1.0
931, -1.5286935286935286, 0.4590964590964591, -1.866910866910867, -0.21875, -0.4375, 0.0, 1.0
932, -1.4297924297924298, 0.1562881562881563, -2.365079365079365, -0.25, -0.59375, 0.09375, 1.0
933, -1.822954822954823, -0.014652014652014652, -2.901098901098901, -0.65625, -1.03125, 0.28125, 1.0
934, -1.5433455433455434, -0.16361416361416362, -2.855921855921856, -1.09375, -1.4375, 0.28125, 1.0
935, -3.871794871794872, 1.1562881562881564, -2.4346764346764345, -1.1875, -1.25, 0.6875, 1.0
936, -4.3760683760683765, 1.7045177045177045, -2.1526251526251525, -0.78125, -0.0625, 1.4375, 1.0
937, -0.5897435897435898, 0.3321123321123321, -1.126984126984127, -0.65625, 0.1875, 1.5625, 1.0
938, 2.1514041514041513, -1.1343101343101343, -0.6312576312576312, -1.03125, -0.59375, 0.8125, 1.0
939, 4.796092796092796, -2.1904761904761907, -0.4932844932844933, -2.0625, -2.75, -0.4375, 1.0
940, 0.5726495726495726, -1.0537240537240538, 0.16605616605616605, -2.90625, -4.59375, -1.34375, 1.0
941, -4.490842490842491, 1.9194139194139195, 0.8131868131868132, -2.5625, -4.40625, -1.09375, 1.0
942, -5.313797313797314, 3.402930402930403, 0.5543345543345544, -1.8125, -3.75, -0.28125, 1.0
943, -1.575091575091575, 2.894993894993895, 0.6056166056166056, -2.0, -4.65625, 0.21875, 1.0
944, 3.4188034188034186, 2.7203907203907205, 2.5665445665445668, -3.375, -7.96875, -0.96875, 1.0
945, -7.908424908424909, 7.431013431013431, 4.167277167277168, -4.46875, -10.03125, -1.65625, 1.0
946, -7.617826617826617, 5.131868131868132, 2.838827838827839, -3.3125, -8.1875, -1.03125, 1.0
947, -2.4713064713064714, 1.8547008547008548, 2.606837606837607, -2.5625, -7.5, -0.1875, 1.0
948, -0.9914529914529915, -0.9804639804639804, 3.6544566544566544, -2.8125, -8.6875, -0.40625, 1.0
949, -4.355311355311355, -1.2271062271062272, 3.509157509157509, -3.3125, -9.5625, -0.96875, 1.0
950, -5.796092796092796, 0.8864468864468864, 1.6923076923076923, -2.65625, -8.0, -1.15625, 1.0
951, -2.1013431013431014, 0.14896214896214896, 0.23931623931623933, -1.09375, -5.90625, -0.875, 1.0
952, -1.3455433455433456, -0.5152625152625152, 0.3235653235653236, -0.625, -5.59375, -0.71875, 1.0
953, -3.0085470085470085, 1.2002442002442002, -0.05982905982905983, -0.5, -5.5, -0.84375, 1.0
954, -3.144078144078144, 0.9377289377289377, -1.595848595848596, 0.1875, -4.4375, -0.71875, 1.0
955, -1.8363858363858363, 0.6092796092796092, -2.1013431013431014, 0.65625, -3.46875, -0.5, 1.0
956, -1.4114774114774116, 0.652014652014652, -2.2075702075702077, 0.8125, -3.1875, -0.53125, 1.0
957, -2.203907203907204, 1.9951159951159951, -3.462759462759463, 1.25, -2.59375, -0.125, 1.0
958, -1.192918192918193, 1.3565323565323566, -5.188034188034188, 1.6875, -1.8125, 0.28125, 1.0
959, 0.6263736263736264, 0.4078144078144078, -6.167277167277168, 1.4375, -1.625, 0.21875, 1.0
960, -0.6971916971916972, 1.0573870573870574, -6.199023199023199, 0.96875, -1.53125, 0.125, 1.0
961, -0.9096459096459096, 1.8302808302808302, -5.385836385836386, 0.6875, -1.28125, 0.28125, 1.0
962, -0.7228327228327228, 2.3907203907203907, -4.960927960927961, 0.875, -0.90625, 0.59375, 1.0
963, 0.13064713064713065, 1.6703296703296704, -4.885225885225886, 1.03125, -0.5, 0.8125, 1.0
964, 0.9938949938949939, 0.8547008547008547, -4.763125763125763, 0.78125, -0.4375, 0.78125, 1.0
965, 0.9584859584859585, 0.45665445665445664, -4.2905982905982905, 0.375, -0.4375, 0.59375, 1.0
966, 0.019536019536019536, 0.8315018315018315, -2.9096459096459095, 0.25, -0.25, 0.5625, 1.0
967, -0.1855921855921856, 1.315018315018315, -1.547008547008547, 0.46875, 0.0, 0.78125, 1.0
968, 1.8681318681318682, -0.9768009768009768, -2.531135531135531, 0.65625, 0.21875, 0.84375, 1.0
969, 1.2026862026862026, -0.8302808302808303, -2.5824175824175826, 0.1875, 0.0625, 0.46875, 1.0
970, 0.2039072039072039, -0.013431013431013432, -1.5909645909645909, -0.09375, 0.09375, 0.21875, 1.0
971, -0.14896214896214896, 0.28205128205128205, -0.5421245421245421, -0.09375, 0.28125, 0.21875, 1.0
972, -0.01098901098901099, 0.18681318681318682, 0.003663003663003663, 0.0, 0.28125, 0.28125, 1.0
973, -0.16483516483516483, -0.054945054945054944, -0.10989010989010989, 0.0, 0.21875, 0.3125, 1.0
974, 0.13186813186813187, -0.23687423687423687, -0.020757020757020756, -0.03125, 0.25, 0.28125, 1.0
975, 0.2698412698412698, -0.3064713064713065, 0.19047619047619047, -0.0625, 0.125, 0.15625, 1.0
976, -0.29426129426129427, -0.14652014652014653, 0.28815628815628813, -0.09375, 0.03125, 0.03125, 1.0
977, -0.32112332112332115, -0.004884004884004884, 0.4554334554334554, 0.0, 0.0625, 0.0625, 1.0
978, -0.5958485958485958, -0.06471306471306472, 0.47374847374847373, 0.0625, 0.09375, 0.125, 1.0
979, -0.07081807081807082, -0.4554334554334554, 0.33821733821733824, 0.03125, 0.09375, 0.15625, 1.0
980, 0.0, -0.32967032967032966, 0.08547008547008547, 0.0, 0.03125, 0.09375, 1.0
981, -0.07448107448107448, -0.08058608058608059, -0.1855921855921856, 0.03125, 0.09375, 0.125, 1.0
982, -0.13553113553113552, -0.12332112332112333, -0.38095238095238093, 0.03125, 0.1875, 0.125, 1.0
983, 0.2026862026862027, -0.08424908424908426, -0.2026862026862027, 0.0, 0.125, 0.125, 1.0
984, 0.10866910866910867, -0.14163614163614163, -0.26495726495726496, 0.0, 0.09375, 0.0625, 1.0
985, -0.04884004884004884, -0.028083028083028084, -0.14652014652014653, -0.09375, 0.125, 0.0, 0.0
986, -0.6166056166056166, 0.2564102564102564, -0.3125763125763126, -0.15625, 0.34375, 0.09375, 0.0
987, -1.15995115995116, 0.9584859584859585, -0.3956043956043956, -0.03125, 0.5625, 0.25, 0.0
988, -0.2442002442002442, 0.33943833943833945, -0.4627594627594628, -0.03125, 0.53125, 0.21875, 0.0
989, -0.398046398046398, 0.7130647130647131, -0.7509157509157509, 0.0625, 0.5625, 0.25, 0.0
990, -1.1172161172161172, 0.8681318681318682, -1.1978021978021978, 0.21875, 0.90625, 0.4375, 0.0
991, -1.3748473748473748, 1.26007326007326, -1.778998778998779, 0.59375, 1.71875, 0.9375, 0.0
992, -0.8156288156288156, 0.8205128205128205, -1.722832722832723, 0.875, 2.375, 1.5, 0.0
993, 0.48717948717948717, 0.31013431013431014, -1.6813186813186813, 0.96875, 2.78125, 1.65625, 0.0
994, -0.2673992673992674, 0.4822954822954823, -1.636141636141636, 1.03125, 3.03125, 1.625, 0.0
995, 0.21611721611721613, 0.6556776556776557, -1.3406593406593406, 1.46875, 3.90625, 1.5625, 0.0
996, 0.8888888888888888, -0.25518925518925517, -1.343101343101343, 2.09375, 4.84375, 1.5625, 0.0
997, 1.5714285714285714, -0.7985347985347986, -1.2002442002442002, 2.21875, 5.21875, 1.625, 0.0
998, 0.3724053724053724, -0.05860805860805861, -1.2039072039072038, 2.21875, 5.4375, 1.6875, 0.0
999, -0.5103785103785103, 0.21855921855921856, -0.9365079365079365, 2.5, 6.3125, 1.9375, 0.0
1000, -0.3333333333333333, 0.4932844932844933, -0.10012210012210013, 2.875, 7.3125, 2.375, 0.0
1001, 0.8327228327228328, 0.5299145299145299, 1.0512820512820513, 3.28125, 8.03125, 2.6875, 0.0
1002, 3.1636141636141635, 0.48473748473748474, 1.6043956043956045, 3.46875, 7.90625, 2.40625, 0.0
1003, 3.4065934065934065, 1.2356532356532357, 1.5189255189255189, 3.53125, 6.53125, 1.5625, 0.0
1004, 2.5128205128205128, 1.065934065934066, 1.1013431013431014, 3.75, 5.96875, 1.21875, 0.0
1005, 1.9768009768009769, 0.4297924297924298, 0.8998778998778999, 4.03125, 5.59375, 1.0625, 0.0
1006, 1.133089133089133, -0.13675213675213677, 0.7863247863247863, 4.40625, 5.4375, 1.0, 0.0
1007, 1.6385836385836385, -0.5592185592185592, 0.5641025641025641, 4.6875, 5.0625, 0.78125, 0.0
1008, 1.9242979242979243, -2.2246642246642248, 0.32967032967032966, 4.59375, 4.3125, 0.6875, 0.0
1009, 1.6862026862026862, -2.5567765567765566, -0.05982905982905983, 4.4375, 3.625, 0.5, 0.0
1010, 1.7203907203907205, -2.341880341880342, -0.10989010989010989, 4.25, 2.96875, 0.21875, 0.0
1011, 1.8864468864468864, -3.230769230769231, -0.47863247863247865, 3.90625, 2.25, -0.125, 0.0
1012, 1.4432234432234432, -3.0085470085470085, -0.5738705738705738, 3.625, 1.4375, -0.5625, 0.0
1013, 0.7094017094017094, -3.1196581196581197, -1.0012210012210012, 3.28125, 0.71875, -0.75, 0.0
1014, -0.5531135531135531, -3.15018315018315, -1.2673992673992673, 2.9375, 0.1875, -0.9375, 0.0
1015, -0.7973137973137974, -1.5677655677655677, -1.7619047619047619, 2.875, -0.0625, -1.0625, 0.0
1016, -1.2234432234432235, -1.424908424908425, -2.2673992673992673, 2.71875, -0.34375, -1.09375, 0.0
1017, -0.8241758241758241, -0.8827838827838828, -2.9365079365079363, 2.5, -0.625, -1.03125, 0.0
1018, -1.4163614163614164, -0.6068376068376068, -3.5946275946275947, 2.21875, -0.90625, -1.0625, 0.0
1019, -2.3174603174603177, -0.39438339438339437, -3.9755799755799757, 1.875, -0.90625, -1.09375, 0.0
1020, -2.4114774114774113, 0.1514041514041514, -3.948717948717949, 1.59375, -0.84375, -1.03125, 0.0
1021, -2.501831501831502, 0.19047619047619047, -3.7814407814407813, 1.4375, -0.90625, -0.78125, 0.0
1022, -2.242979242979243, 0.49694749694749696, -3.7484737484737485, 1.25, -0.9375, -0.65625, 0.0
1023, -2.888888888888889, 0.08302808302808302, -3.8473748473748475, 1.0625, -0.9375, -0.625, 0.0
1024, -3.148962148962149, 0.525030525030525, -3.8974358974358974, 0.9375, -0.90625, -0.5, 0.0
1025, -2.9462759462759465, 0.34798534798534797, -4.014652014652015, 0.8125, -0.75, -0.28125, 0.0
1026, -2.822954822954823, 0.03418803418803419, -3.9572649572649574, 0.46875, -0.53125, -0.09375, 0.0
1027, -2.7643467643467643, -0.14041514041514042, -3.641025641025641, 0.125, -0.34375, -0.09375, 0.0
1028, -2.426129426129426, 0.014652014652014652, -2.89010989010989, -0.09375, -0.15625, -0.03125, 0.0
1029, -2.103785103785104, 0.0927960927960928, -1.9804639804639805, -0.21875, -0.03125, 0.0625, 0.0
1030, -1.3345543345543345, 0.2087912087912088, -1.1672771672771673, -0.21875, 0.0, 0.15625, 0.0
1031, -0.5604395604395604, 0.14285714285714285, -0.48595848595848595, -0.1875, -0.0625, 0.1875, 0.0
1032, -0.4725274725274725, -0.05128205128205128, -0.25396825396825395, -0.125, 0.0, 0.1875, 0.0
1033, -0.3724053724053724, -0.4627594627594628, -0.04884004884004884, -0.0625, 0.125, 0.15625, 0.0
1034, 0.2979242979242979, -0.7887667887667887, 0.18315018315018314, -0.09375, 0.03125, 0.0625, 0.0
1035, 0.33577533577533575, -0.6263736263736264, 0.3614163614163614, -0.09375, -0.09375, 0.0, 0.0
1036, 0.304029304029304, -0.11965811965811966, 0.42002442002442003, -0.03125, -0.125, -0.03125, 0.0
1037, 0.1855921855921856, -0.08913308913308914, 0.1855921855921856, 0.03125, -0.125, -0.03125, 0.0
1038, -0.006105006105006105, -0.3601953601953602, -0.17582417582417584, 0.0, 0.0, -0.03125, 0.0
1039, 0.14407814407814407, -0.15384615384615385, -0.02197802197802198, -0.0625, -0.0625, -0.0625, 0.0
1040, -0.0231990231990232, 0.0463980463980464, 0.06715506715506715, -0.09375, -0.21875, -0.125, 0.0
1041, -0.6043956043956044, -0.01098901098901099, -0.07448107448107448, -0.03125, -0.28125, -0.0625, 0.0
1042, -0.6007326007326007, -0.12942612942612944, -0.21245421245421245, 0.0, -0.09375, 0.0, 0.0
1043, -0.22344322344322345, -0.398046398046398, -0.15873015873015872, 0.0, 0.0, 0.0, 0.0
1044, -0.08791208791208792, -0.06715506715506715, -0.003663003663003663, -0.09375, 0.0, 0.0, 0.0
1045, 0.06349206349206349, -0.013431013431013432, 0.10989010989010989, -0.09375, -0.0625, -0.03125, 0.0
1046, 0.07448107448107448, -0.10012210012210013, 0.10744810744810745, 0.0, -0.1875, -0.0625, 0.0
1047, -0.16605616605616605, -0.07203907203907203, -0.04884004884004884, 0.03125, -0.25, -0.125, 0.0
1048, -0.5067155067155067, -0.11233211233211234, -0.3614163614163614, 0.0625, -0.15625, -0.0625, 0.0
1049, -0.3516483516483517, -0.31746031746031744, -0.5018315018315018, 0.03125, 0.03125, 0.0, 0.0
1050, 0.001221001221001221, -0.11721611721611722, -0.2026862026862027, 0.0, 0.0625, -0.03125, 0.0
1051, 0.18315018315018314, 0.001221001221001221, 0.07692307692307693, 0.03125, 0.0, -0.09375, 0.0
1052, -0.1111111111111111, 0.0231990231990232, 0.018315018315018316, 0.09375, -0.03125, -0.0625, 0.0
1053, -0.30158730158730157, -0.35653235653235654, -0.19413919413919414, 0.09375, -0.0625, -0.03125, 0.0
1054, -0.38095238095238093, -0.35775335775335776, -0.32234432234432236, 0.0, 0.0, -0.03125, 0.0
1055, -0.4554334554334554, -0.0989010989010989, -0.13797313797313798, 0.0, 0.125, -0.0625, 0.0
1056, -0.19536019536019536, -0.12942612942612944, -0.06349206349206349, 0.03125, 0.0625, -0.0625, 0.0
1057, 0.019536019536019536, -0.0989010989010989, -0.0463980463980464, 0.125, -0.125, -0.03125, 0.0
1058, -0.7264957264957265, -0.4542124542124542, -0.5958485958485958, 0.125, -0.125, 0.0, 0.0
1059, -0.5091575091575091, -0.3528693528693529, -0.5836385836385837, 0.0, -0.03125, 0.0, 0.0
1060, -0.3614163614163614, -0.3418803418803419, -0.7814407814407814, -0.09375, -0.09375, -0.09375, 1.0
1061, -0.6654456654456654, 0.518925518925519, -0.6788766788766789, -0.1875, -0.46875, -0.15625, 1.0
1062, -1.4908424908424909, 0.5482295482295483, -1.0793650793650793, -0.03125, -0.5, -0.09375, 1.0
1063, -1.6007326007326008, -0.6361416361416361, -1.9035409035409034, 0.0, -0.375, -0.03125, 1.0
1064, -1.4102564102564104, -0.13675213675213677, -2.1135531135531136, -0.25, -0.375, 0.0, 1.0
1065, -1.8021978021978022, 0.009768009768009768, -2.67032967032967, -0.40625, -0.5, 0.0, 1.0
1066, -2.398046398046398, -0.0695970695970696, -3.501831501831502, -0.59375, -0.6875, 0.0, 1.0
1067, -2.634920634920635, -0.2612942612942613, -3.8705738705738706, -0.90625, -1.03125, 0.0, 1.0
1068, -1.4786324786324787, -1.1452991452991452, -3.474969474969475, -1.5625, -1.9375, -0.15625, 1.0
1069, -1.5286935286935286, -0.851037851037851, -2.311355311355311, -2.5625, -3.78125, -0.3125, 1.0
1070, -3.167277167277167, 0.6288156288156288, -0.663003663003663, -3.28125, -5.625, -0.46875, 1.0
1071, -4.035409035409035, 1.5677655677655677, 0.9194139194139194, -3.53125, -6.90625, -0.59375, 1.0
1072, -4.902319902319903, 4.162393162393163, 2.5702075702075704, -3.71875, -8.125, -0.25, 1.0
1073, -5.076923076923077, 8.575091575091575, 3.0073260073260073, -3.65625, -9.0, 0.09375, 1.0
1074, -7.13919413919414, 5.444444444444445, 2.901098901098901, -3.40625, -8.21875, 0.34375, 1.0
1075, -6.454212454212454, 3.3382173382173383, 1.9059829059829059, -2.625, -6.8125, 0.84375, 1.0
1076, -4.333333333333333, 2.0305250305250304, 1.6837606837606838, -1.8125, -5.96875, 1.4375, 1.0
1077, -0.36874236874236876, -0.7912087912087912, 1.321123321123321, -1.6875, -6.25, 1.53125, 1.0
1078, 1.5384615384615385, -1.1013431013431014, 1.304029304029304, -1.75, -6.8125, 0.96875, 1.0
1079, 0.22954822954822954, -0.9084249084249084, 0.22954822954822954, -1.375, -6.28125, 0.40625, 1.0
1080, 0.9792429792429792, -0.6800976800976801, -1.032967032967033, -1.0, -5.625, 0.0625, 1.0
1081, 1.728937728937729, -0.9462759462759462, -1.1843711843711844, -1.03125, -5.75, -0.25, 1.0
1082, -0.08180708180708181, 0.851037851037851, -1.2612942612942613, -0.65625, -5.21875, -0.15625, 1.0
1083, 0.35775335775335776, 1.144078144078144, -2.5042735042735043, 0.03125, -4.21875, 0.03125, 1.0
1084, 2.763125763125763, -0.32722832722832723, -3.6385836385836385, -0.21875, -4.5, -0.625, 1.0
1085, -2.9523809523809526, 2.1294261294261294, -3.0744810744810747, -0.53125, -4.15625, -0.90625, 1.0
1086, -2.9645909645909647, 4.385836385836386, -3.653235653235653, 0.1875, -2.90625, -0.21875, 1.0
1087, 0.8778998778998779, 0.590964590964591, -5.086691086691086, 1.15625, -1.71875, 0.625, 1.0
1088, 3.562881562881563, -1.0354090354090355, -5.074481074481074, 0.8125, -1.96875, 0.3125, 1.0
1089, 0.040293040293040296, 0.13553113553113552, -5.34065934065934, 0.1875, -2.25, -0.3125, 1.0
1090, -1.735042735042735, 2.3968253968253967, -3.9450549450549453, -0.03125, -1.59375, -0.1875, 1.0
1091, -1.2747252747252746, 2.63003663003663, -2.1514041514041513, 0.125, -1.09375, 0.15625, 1.0
1092, -0.33821733821733824, 2.5274725274725274, -1.884004884004884, 0.46875, -0.96875, 0.5, 1.0
1093, 0.21001221001221002, 0.9975579975579976, -3.584859584859585, 0.875, -0.5625, 0.90625, 1.0
1094, 1.8595848595848596, -0.15018315018315018, -4.6068376068376065, 0.71875, -0.21875, 0.9375, 1.0
1095, 2.1452991452991452, -0.2625152625152625, -4.304029304029304, 0.1875, -0.3125, 0.625, 1.0
1096, 1.6532356532356531, 0.33455433455433453, -2.851037851037851, -0.3125, -0.375, 0.21875, 1.0
1097, 0.6752136752136753, 1.2197802197802199, -1.5555555555555556, -0.125, -0.1875, 0.25, 1.0
1098, 0.18925518925518925, 1.1941391941391941, -0.9157509157509157, 0.0, 0.0, 0.375, 1.0
1099, 0.9853479853479854, 0.43956043956043955, -0.3663003663003663, 0.0, -0.0625, 0.3125, 1.0
1100, 0.557997557997558, 0.2600732600732601, 0.013431013431013432, 0.0, -0.125, 0.1875, 1.0
1101, 0.001221001221001221, 0.08180708180708181, 0.02564102564102564, 0.03125, -0.03125, 0.15625, 1.0
1102, -0.001221001221001221, 0.1807081807081807, -0.06471306471306472, 0.125, 0.03125, 0.1875, 1.0
1103, -0.17826617826617827, 0.14041514041514042, -0.4481074481074481, 0.21875, 0.125, 0.28125, 1.0
1104, -0.019536019536019536, -0.17338217338217338, -0.8754578754578755, 0.21875, 0.1875, 0.3125, 1.0
1105, 0.2490842490842491, -0.536019536019536, -1.155067155067155, 0.03125, 0.15625, 0.15625, 1.0
1106, 0.1111111111111111, -0.33943833943833945, -1.0488400488400489, -0.15625, 0.09375, 0.03125, 1.0
1107, -0.2576312576312576, 0.031746031746031744, -0.9914529914529915, -0.125, 0.1875, 0.09375, 1.0
1108, -0.1978021978021978, 0.10134310134310134, -0.6544566544566545, -0.0625, 0.375, 0.15625, 1.0
1109, -0.1684981684981685, -0.14407814407814407, -0.8058608058608059, -0.03125, 0.4375, 0.1875, 1.0
1110, 0.13675213675213677, -0.2796092796092796, -0.8693528693528694, -0.15625, 0.5, 0.125, 0.0
1111, -0.21245421245421245, -0.2026862026862027, -1.2893772893772895, -0.3125, 0.5625, 0.09375, 0.0
1112, -1.1721611721611722, 0.6923076923076923, -1.164835164835165, -0.4375, 0.78125, 0.15625, 0.0
1113, -0.6874236874236874, 0.905982905982906, -1.1086691086691087, -0.3125, 0.96875, 0.25, 0.0
1114, -0.8302808302808303, 0.5457875457875457, -1.3748473748473748, 0.0, 1.1875, 0.4375, 0.0
1115, -1.0012210012210012, 0.27106227106227104, -1.8705738705738706, 0.0625, 1.5, 0.5625, 0.0
1116, -0.9865689865689866, 0.6617826617826618, -1.757020757020757, 0.125, 1.9375, 0.71875, 0.0
1117, -1.0744810744810744, 1.4212454212454213, -1.778998778998779, 0.3125, 2.34375, 1.0625, 0.0
1118, -1.7240537240537241, 1.4188034188034189, -2.006105006105006, 0.8125, 3.0625, 1.65625, 0.0
1119, -1.7435897435897436, 1.4896214896214897, -1.7313797313797314, 1.84375, 4.8125, 2.34375, 0.0
1120, 1.1611721611721613, -0.11355311355311355, -1.6544566544566544, 2.375, 5.5625, 2.09375, 0.0
1121, 2.31990231990232, -0.7924297924297924, -1.7411477411477412, 2.4375, 5.59375, 1.59375, 0.0
1122, 0.9157509157509157, -0.028083028083028084, -1.5934065934065933, 2.59375, 5.90625, 1.46875, 0.0
1123, -0.8913308913308914, 1.144078144078144, -1.3174603174603174, 3.03125, 6.84375, 1.6875, 0.0
1124, -0.46153846153846156, 1.2112332112332111, -0.5531135531135531, 3.34375, 7.5625, 1.875, 0.0
1125, 0.4554334554334554, 1.6141636141636142, -0.014652014652014652, 3.40625, 7.65625, 1.8125, 0.0
1126, 1.2905982905982907, 1.910866910866911, 0.39316239316239315, 3.3125, 7.3125, 1.625, 0.0
1127, 0.8827838827838828, 2.330891330891331, 0.7142857142857143, 3.5, 7.09375, 1.53125, 0.0
1128, 0.9633699633699634, 2.142857142857143, 1.2173382173382172, 3.875, 7.03125, 1.28125, 0.0
1129, 1.6153846153846154, 1.0732600732600732, 1.3504273504273505, 4.125, 6.5, 1.0, 0.0
1130, 1.3626373626373627, 0.47741147741147744, 0.9694749694749695, 4.375, 5.875, 0.84375, 0.0
1131, 0.724053724053724, -0.24297924297924298, 1.1123321123321124, 4.46875, 4.84375, 0.6875, 0.0
1132, 0.20024420024420025, -0.9267399267399268, 0.4884004884004884, 4.34375, 4.1875, 0.59375, 0.0
1133, 0.2087912087912088, -1.1538461538461537, 0.10866910866910867, 4.1875, 3.71875, 0.46875, 0.0
1134, 0.706959706959707, -1.619047619047619, -0.23565323565323565, 3.96875, 3.15625, 0.28125, 0.0
1135, 1.404151404151404, -2.4114774114774113, -0.409035409035409, 3.5, 2.25, -0.03125, 0.0
1136, 0.9914529914529915, -3.0366300366300365, -0.8070818070818071, 2.78125, 1.125, -0.53125, 0.0
1137, 0.0231990231990232, -2.1343101343101343, -1.3406593406593406, 2.15625, 0.03125, -1.03125, 0.0
1138, -1.6862026862026862, -0.8058608058608059, -1.9023199023199022, 1.90625, -0.5625, -1.25, 0.0
1139, -2.440781440781441, 0.06593406593406594, -2.294261294261294, 1.9375, -0.53125, -1.1875, 0.0
1140, -1.8864468864468864, -0.358974358974359, -2.41025641025641, 1.96875, -0.3125, -0.90625, 0.0
1141, -1.3113553113553114, -0.5946275946275946, -2.7203907203907205, 1.8125, -0.40625, -0.78125, 0.0
1142, -1.3894993894993894, -0.5897435897435898, -2.885225885225885, 1.40625, -0.6875, -0.90625, 0.0
1143, -1.4151404151404152, 0.32234432234432236, -2.6275946275946276, 1.25, -0.90625, -0.90625, 0.0
1144, -2.2612942612942613, 0.5238095238095238, -2.761904761904762, 1.28125, -0.9375, -0.71875, 0.0
1145, -2.001221001221001, 0.47496947496947495, -3.2112332112332114, 1.25, -0.9375, -0.5, 0.0
1146, -2.075702075702076, -0.10866910866910867, -3.7423687423687424, 1.0, -0.96875, -0.4375, 0.0
1147, -2.426129426129426, 0.013431013431013432, -4.021978021978022, 0.65625, -0.9375, -0.4375, 0.0
1148, -2.9316239316239314, 0.2844932844932845, -4.12942612942613, 0.4375, -0.78125, -0.34375, 0.0
1149, -3.2673992673992673, 0.30036630036630035, -4.006105006105006, 0.28125, -0.53125, -0.15625, 0.0
1150, -2.7936507936507935, 0.13675213675213677, -3.3015873015873014, 0.03125, -0.25, 0.0, 0.0
1151, -2.275946275946276, 0.30036630036630035, -2.374847374847375, -0.09375, -0.0625, 0.0, 0.0
1152, -1.8681318681318682, 0.18315018315018314, -1.6593406593406594, -0.15625, 0.0, 0.125, 0.0
1153, -1.4346764346764347, 0.07081807081807082, -1.0744810744810744, -0.125, 0.0625, 0.15625, 0.0
1154, -0.3199023199023199, 0.03785103785103785, 0.32967032967032966, -0.1875, 0.09375, 0.1875, 0.0
1155, 0.0757020757020757, 0.07448107448107448, 0.6703296703296703, -0.125, 0.0625, 0.09375, 0.0
1156, 0.3418803418803419, -0.02564102564102564, 0.46886446886446886, 0.0, 0.0, 0.0625, 0.0
1157, 0.030525030525030524, -0.31013431013431014, 0.10256410256410256, 0.125, -0.0625, 0.03125, 0.0
1158, 0.017094017094017096, -0.1575091575091575, 0.05860805860805861, 0.15625, 0.0, 0.0, 0.0
1159, 0.31135531135531136, -0.014652014652014652, 0.05982905982905983, 0.125, 0.0, -0.03125, 0.0
1160, 0.221001221001221, -0.17704517704517705, -0.1514041514041514, 0.09375, -0.03125, -0.03125, 0.0
1161, 0.07081807081807082, -0.028083028083028084, -0.2673992673992674, 0.0625, -0.125, -0.09375, 0.0
1162, -0.1514041514041514, 0.10378510378510379, -0.32967032967032966, 0.03125, -0.21875, -0.15625, 0.0
1163, -0.409035409035409, 0.221001221001221, -0.33943833943833945, 0.0, -0.21875, -0.09375, 0.0
1164, -0.5531135531135531, 0.21245421245421245, -0.4884004884004884, 0.0, -0.09375, -0.03125, 0.0
1165, -0.6043956043956044, -0.24297924297924298, -0.5323565323565324, 0.03125, 0.0625, 0.0, 0.0
1166, -0.13797313797313798, -0.20512820512820512, -0.07081807081807082, -0.09375, 0.09375, 0.0, 0.0
1167, 0.2258852258852259, 0.06837606837606838, 0.3516483516483517, -0.125, -0.03125, -0.09375, 0.0
1168, 0.02197802197802198, 0.06715506715506715, 0.29426129426129427, -0.03125, -0.125, -0.125, 0.0
1169, -0.34798534798534797, -0.1391941391941392, -0.057387057387057384, 0.0, -0.125, -0.09375, 0.0
1170, -0.45665445665445664, -0.1343101343101343, -0.13797313797313798, 0.0, -0.03125, -0.0625, 0.0
1171, -0.08913308913308914, 0.02442002442002442, 0.12942612942612944, 0.0, 0.0, -0.0625, 0.0
1172, 0.14163614163614163, -0.05128205128205128, 0.08547008547008547, 0.0625, 0.0, -0.09375, 0.0
1173, 0.27106227106227104, -0.1282051282051282, 0.0231990231990232, 0.0625, -0.1875, -0.15625, 0.0
1174, -0.3089133089133089, -0.04151404151404151, -0.3076923076923077, 0.0625, -0.21875, -0.15625, 0.0
1175, -0.44078144078144077, 0.17094017094017094, -0.2515262515262515, 0.0625, -0.09375, -0.125, 0.0
1176, -0.23687423687423687, 0.1111111111111111, -0.2771672771672772, 0.03125, 0.0, -0.0625, 0.0
1177, -0.2026862026862027, -0.05616605616605617, -0.25274725274725274, 0.03125, -0.03125, -0.0625, 0.0
1178, -0.031746031746031744, -0.11477411477411477, -0.1452991452991453, 0.03125, -0.09375, -0.09375, 0.0
1179, -0.10012210012210013, -0.15018315018315018, -0.14041514041514042, 0.0, -0.125, -0.15625, 0.0
1180, -0.48717948717948717, -0.24175824175824176, -0.2612942612942613, 0.0, -0.125, -0.125, 0.0
1181, -0.08791208791208792, -0.14163614163614163, -0.07814407814407814, 0.0, -0.09375, -0.0625, 0.0
1182, -0.3443223443223443, -0.0231990231990232, -0.06593406593406594, 0.03125, -0.28125, -0.03125, 0.0
1183, -0.18803418803418803, -0.3308913308913309, -0.2515262515262515, 0.09375, -0.40625, -0.09375, 1.0
1184, -0.34065934065934067, -0.36996336996337, -0.4236874236874237, 0.09375, -0.6875, -0.25, 1.0
1185, -1.8656898656898657, 0.20757020757020758, -1.0964590964590966, -0.03125, -0.90625, -0.40625, 1.0
1186, -2.9694749694749696, -0.029304029304029304, -2.137973137973138, 0.0, -0.6875, -0.28125, 1.0
1187, -3.0976800976800978, 0.18925518925518925, -2.7313797313797314, 0.0, -0.3125, 0.0, 1.0
1188, -2.669108669108669, -0.42857142857142855, -3.496947496947497, -0.03125, -0.15625, 0.1875, 1.0
1189, -2.0720390720390722, -1.264957264957265, -4.069597069597069, -0.84375, -0.96875, 0.09375, 1.0
1190, -4.549450549450549, 0.9499389499389499, -4.012210012210012, -1.09375, -1.28125, 0.1875, 1.0
1191, -5.498168498168498, 1.5811965811965811, -4.061050061050061, -1.03125, -1.03125, 0.75, 1.0
1192, -4.391941391941392, 0.5177045177045178, -3.8376068376068377, -1.3125, -1.1875, 1.25, 1.0
1193, -1.0744810744810744, -1.4615384615384615, -2.4725274725274726, -2.1875, -2.46875, 1.0625, 1.0
1194, 0.11477411477411477, -1.702075702075702, -0.23565323565323565, -3.21875, -4.59375, 0.4375, 1.0
1195, -0.7411477411477412, 1.231990231990232, 2.3601953601953602, -3.71875, -6.40625, 0.0, 1.0
1196, -0.8498168498168498, 4.601953601953602, 3.6434676434676434, -3.6875, -7.90625, -0.1875, 1.0
1197, -0.8449328449328449, 5.910866910866911, 3.4358974358974357, -4.375, -9.40625, -0.3125, 1.0
1198, -3.1404151404151404, 3.1452991452991452, 4.5787545787545785, -4.9375, -9.875, -0.21875, 1.0
1199, -2.695970695970696, 1.3284493284493284, 5.371184371184371, -4.53125, -9.4375, -0.15625, 1.0
1200, -0.5616605616605617, -0.21611721611721613, 5.506715506715507, -3.40625, -9.125, -0.625, 1.0
1201, -2.5445665445665444, 0.0, 2.1953601953601956, -2.78125, -8.875, -0.75, 1.0
1202, -2.6214896214896215, 0.007326007326007326, 0.14652014652014653, -2.09375, -7.4375, -0.5, 1.0
1203, -1.586080586080586, 0.4188034188034188, -0.5604395604395604, -1.4375, -5.96875, -0.5, 1.0
1204, -1.1587301587301588, 0.4810744810744811, -0.9474969474969475, -0.84375, -5.0, -0.5625, 1.0
1205, -2.0720390720390722, 1.1013431013431014, -1.164835164835165, -0.28125, -4.1875, -0.40625, 1.0
1206, -1.706959706959707, 1.3992673992673992, -0.6764346764346765, 0.09375, -3.34375, -0.21875, 1.0
1207, -0.45054945054945056, 1.5702075702075702, -0.8253968253968254, 0.5625, -2.875, -0.0625, 1.0
1208, -0.30036630036630035, 0.4126984126984127, -2.614163614163614, 0.96875, -2.6875, 0.0, 1.0
1209, -0.536019536019536, 0.052503052503052504, -3.924297924297924, 0.8125, -2.53125, -0.0625, 1.0
1210, -0.45054945054945056, 1.0586080586080586, -3.5128205128205128, 0.5, -2.3125, -0.15625, 1.0
1211, -1.1452991452991452, 1.6349206349206349, -2.8034188034188032, 0.5, -2.09375, -0.09375, 1.0
1212, -1.7423687423687424, 2.4761904761904763, -2.5982905982905984, 1.1875, -1.21875, 0.5, 1.0
1213, 0.8876678876678876, 1.144078144078144, -4.496947496947497, 1.5, -1.125, 0.8125, 1.0
1214, 1.4212454212454213, -0.10012210012210013, -6.654456654456655, 1.09375, -1.0625, 0.65625, 1.0
1215, 1.1514041514041513, 0.02442002442002442, -6.788766788766789, 0.625, -0.6875, 0.46875, 1.0
1216, 0.8620268620268621, 0.8620268620268621, -5.302808302808303, 0.4375, -0.40625, 0.46875, 1.0
1217, 0.8901098901098901, 0.9682539682539683, -3.6666666666666665, 0.3125, -0.3125, 0.46875, 1.0
1218, 0.6727716727716728, 0.9413919413919414, -2.4615384615384617, 0.21875, -0.375, 0.5, 1.0
1219, 0.518925518925519, 1.0, -1.7667887667887667, 0.25, -0.34375, 0.625, 1.0
1220, 0.9133089133089133, 0.22954822954822954, -2.335775335775336, 0.34375, -0.15625, 0.65625, 1.0
1221, 1.5164835164835164, -0.5567765567765568, -2.393162393162393, 0.3125, 0.03125, 0.53125, 1.0
1222, 1.5262515262515262, -0.8363858363858364, -2.133089133089133, 0.15625, 0.15625, 0.34375, 1.0
1223, 1.2893772893772895, -0.8070818070818071, -1.4993894993894994, -0.03125, 0.09375, 0.125, 1.0
1224, -0.03663003663003663, 0.2893772893772894, -0.09401709401709402, -0.09375, 0.09375, 0.03125, 1.0
1225, -0.2698412698412698, 0.42735042735042733, 0.08791208791208792, 0.0, 0.1875, 0.125, 1.0
1226, -0.04395604395604396, 0.001221001221001221, -0.07692307692307693, 0.0625, 0.1875, 0.1875, 1.0
1227, 0.02442002442002442, -0.052503052503052504, -0.09523809523809523, 0.0, 0.125, 0.125, 1.0
1228, -0.054945054945054944, -0.1391941391941392, -0.23809523809523808, -0.0625, 0.0, 0.0625, 1.0
1229, -0.19658119658119658, 0.20024420024420025, -0.008547008547008548, -0.09375, 0.0, 0.0, 1.0
1230, -0.2967032967032967, 0.15995115995115994, -0.057387057387057384, 0.0, 0.09375, 0.03125, 1.0
1231, -0.05128205128205128, -0.029304029304029304, -0.2954822954822955, 0.03125, 0.09375, 0.0625, 1.0
1232, 0.14041514041514042, -0.27228327228327226, -0.4822954822954823, 0.0, 0.03125, 0.0, 1.0
1233, -0.12576312576312576, -0.013431013431013432, -0.33455433455433453, -0.15625, -0.0625, -0.03125, 1.0
1234, -0.31013431013431014, 0.18315018315018314, -0.19536019536019536, -0.125, 0.0, -0.03125, 1.0
1235, -0.514041514041514, 0.21611721611721613, -0.3333333333333333, 0.0625, 0.25, 0.125, 1.0
1236, 0.028083028083028084, -0.2905982905982906, -0.5665445665445665, 0.03125, 0.25, 0.15625, 1.0
1237, -0.11721611721611722, -0.21611721611721613, -0.8107448107448108, -0.09375, 0.28125, 0.125, 0.0
1238, -0.04395604395604396, -0.3553113553113553, -1.0183150183150182, -0.3125, 0.375, 0.09375, 0.0
1239, -0.21245421245421245, 0.2954822954822955, -0.8437118437118437, -0.28125, 0.46875, 0.09375, 0.0
1240, -0.2515262515262515, 0.5421245421245421, -0.5665445665445665, -0.15625, 0.46875, 0.21875, 0.0
1241, -0.9804639804639804, 0.7985347985347986, -1.1367521367521367, 0.125, 0.90625, 0.4375, 0.0
1242, -1.315018315018315, 1.264957264957265, -1.4957264957264957, 0.5, 1.53125, 0.8125, 0.0
1243, -2.4017094017094016, 2.5702075702075704, -1.9755799755799757, 1.21875, 2.59375, 1.5, 0.0
1244, -2.2063492063492065, 1.8754578754578755, -2.5238095238095237, 2.0625, 4.0, 2.0625, 0.0
