timestamp, accX, accY, accZ, gyroX, gyroY, gyroZ, button
8249, 0.23565323565323565, -0.040293040293040296, -0.32234432234432236, -0.0625, -0.21875, 0.0, 0.0
8250, 0.1575091575091575, 0.02442002442002442, -0.2625152625152625, -0.09375, -0.15625, 0.03125, 0.0
8251, 0.1282051282051282, 0.03540903540903541, -0.21611721611721613, -0.09375, -0.0625, 0.09375, 0.0
8252, 0.2087912087912088, -0.02564102564102564, -0.18315018315018314, -0.125, 0.0, 0.15625, 0.0
1, 0.25274725274725274, -0.06349206349206349, -0.1330891330891331, -0.15625, 0.03125, 0.15625, 0.0
2, 0.336996336996337, -0.1452991452991453, -0.09768009768009768, -0.21875, 0.0, 0.125, 0.0
3, 0.2686202686202686, -0.06471306471306472, 0.03907203907203907, -0.28125, -0.0625, 0.125, 0.0
4, 0.20146520146520147, 0.003663003663003663, 0.052503052503052504, -0.3125, -0.09375, 0.125, 0.0
5, 0.0989010989010989, -0.01098901098901099, -0.002442002442002442, -0.28125, -0.09375, 0.09375, 0.0
6, 0.08547008547008547, 0.06349206349206349, -0.01221001221001221, -0.28125, -0.0625, 0.09375, 0.0
7, -0.09768009768009768, 0.12576312576312576, 0.11355311355311355, -0.21875, -0.03125, 0.15625, 0.0
8, 0.07448107448107448, 0.04151404151404151, 0.0231990231990232, -0.15625, 0.03125, 0.1875, 0.0
9, 0.03785103785103785, 0.03663003663003663, -0.017094017094017096, -0.125, 0.03125, 0.1875, 0.0
10, -0.02564102564102564, 0.14407814407814407, 0.07936507936507936, -0.15625, 0.03125, 0.1875, 0.0
11, 0.0, 0.11233211233211234, 0.04884004884004884, -0.09375, 0.0625, 0.1875, 0.0
12, -0.16117216117216118, 0.18803418803418803, 0.06227106227106227, -0.03125, 0.125, 0.21875, 0.0
13, 0.07081807081807082, 0.05860805860805861, -0.06349206349206349, 0.0, 0.21875, 0.25, 0.0
14, 0.25396825396825395, 0.11477411477411477, -0.07814407814407814, -0.03125, 0.15625, 0.15625, 0.0
15, 0.115995115995116, 0.08791208791208792, -0.17094017094017094, 0.0, 0.125, 0.09375, 0.0
16, 0.09645909645909646, 0.12576312576312576, -0.15995115995115994, 0.0, 0.09375, 0.0625, 0.0
17, -0.015873015873015872, 0.10866910866910867, -0.2612942612942613, 0.0, 0.09375, 0.03125, 0.0
18, 0.18315018315018314, 0.04884004884004884, -0.3614163614163614, 0.0, 0.0625, 0.03125, 0.0
19, 0.22954822954822954, 0.02197802197802198, -0.45787545787545786, -0.03125, 0.03125, 0.0, 0.0
20, 0.2698412698412698, -0.030525030525030524, -0.4835164835164835, -0.125, 0.0, -0.0625, 0.0
21, 0.23809523809523808, -0.01221001221001221, -0.590964590964591, -0.1875, -0.0625, -0.0625, 0.0
22, 0.029304029304029304, 0.18437118437118438, -0.5433455433455433, -0.1875, 0.0, -0.03125, 0.0
23, -0.019536019536019536, 0.20634920634920634, -0.4017094017094017, -0.125, 0.125, 0.0, 0.0
24, 0.11843711843711843, -0.02197802197802198, -0.4835164835164835, -0.15625, 0.1875, 0.0, 0.0
25, 0.18192918192918192, -0.008547008547008548, -0.4053724053724054, -0.21875, 0.1875, 0.0, 0.0
26, 0.11965811965811966, 0.018315018315018316, -0.3528693528693529, -0.3125, 0.15625, 0.03125, 0.0
27, 0.11721611721611722, -0.004884004884004884, -0.2442002442002442, -0.28125, 0.25, 0.0, 0.0
28, 0.18192918192918192, -0.0989010989010989, -0.13553113553113552, -0.21875, 0.21875, -0.03125, 0.0
29, 0.09645909645909646, -0.1514041514041514, -0.09523809523809523, -0.21875, 0.15625, -0.09375, 0.0
30, -0.04395604395604396, -0.01221001221001221, 0.10012210012210013, -0.25, 0.09375, -0.09375, 0.0
31, -0.10989010989010989, -0.02442002442002442, 0.21123321123321123, -0.25, 0.03125, -0.09375, 0.0
32, 0.08424908424908426, -0.14163614163614163, 0.10256410256410256, -0.21875, 0.0, -0.125, 0.0
33, 0.10012210012210013, -0.23321123321123322, 0.10989010989010989, -0.28125, -0.1875, -0.125, 0.0
34, 0.1282051282051282, -0.2148962148962149, 0.0463980463980464, -0.40625, -0.40625, -0.21875, 0.0
35, -0.0757020757020757, -0.06105006105006105, -0.03418803418803419, -0.5, -0.65625, -0.1875, 0.0
36, -0.48473748473748474, 0.14652014652014653, 0.03540903540903541, -0.46875, -0.65625, -0.09375, 0.0
37, -0.3321123321123321, 0.13553113553113552, 0.20512820512820512, -0.25, -0.375, -0.03125, 0.0
38, -0.4346764346764347, 0.031746031746031744, 0.17216117216117216, -0.125, -0.25, 0.0625, 0.0
39, -0.4249084249084249, -0.02442002442002442, 0.10989010989010989, -0.09375, -0.125, 0.125, 0.0
40, -0.10744810744810745, -0.08547008547008547, 0.03663003663003663, -0.03125, -0.0625, 0.125, 0.0
41, 0.042735042735042736, -0.0757020757020757, 0.054945054945054944, 0.0, -0.0625, 0.09375, 0.0
42, -0.3553113553113553, 0.040293040293040296, -0.1111111111111111, 0.09375, 0.0625, 0.0625, 0.0
43, -0.2087912087912088, -0.09768009768009768, -0.03907203907203907, 0.15625, 0.21875, 0.03125, 0.0
44, -0.01221001221001221, 0.018315018315018316, -0.06593406593406594, 0.1875, 0.1875, 0.125, 0.0
45, -0.33821733821733824, -0.10500610500610501, -0.11477411477411477, 0.1875, 0.28125, 0.1875, 0.0
46, -0.10866910866910867, -0.16361416361416362, -0.09768009768009768, 0.15625, 0.28125, 0.15625, 0.0
47, 0.05128205128205128, -0.13553113553113552, -0.09401709401709402, 0.09375, 0.21875, 0.125, 0.0
48, 0.0, 0.028083028083028084, -0.052503052503052504, 0.09375, 0.1875, 0.09375, 0.0
49, -0.19047619047619047, -0.0695970695970696, -0.10256410256410256, 0.0625, 0.25, 0.09375, 0.0
50, 0.07081807081807082, -0.052503052503052504, -0.09645909645909646, 0.0, 0.3125, 0.15625, 0.0
51, 0.03418803418803419, 0.12576312576312576, -0.05860805860805861, 0.0, 0.34375, 0.1875, 0.0
52, 0.3162393162393162, 0.1575091575091575, 0.06593406593406594, 0.0625, 0.375, 0.1875, 0.0
53, 0.4542124542124542, 0.11721611721611722, 0.07936507936507936, 0.15625, 0.375, 0.125, 0.0
54, 0.4017094017094017, 0.06471306471306472, 0.08547008547008547, 0.125, 0.34375, 0.03125, 0.0
55, 0.3333333333333333, 0.32967032967032966, 0.1562881562881563, 0.15625, 0.3125, -0.0625, 0.0
56, 0.2564102564102564, 0.34065934065934067, 0.2271062271062271, 0.1875, 0.28125, -0.09375, 0.0
57, 0.24297924297924298, 0.24786324786324787, 0.21001221001221002, 0.1875, 0.25, -0.125, 0.0
58, 0.3553113553113553, 0.05616605616605617, 0.013431013431013432, 0.09375, 0.125, -0.28125, 0.0
59, -0.009768009768009768, 0.20757020757020758, -0.0231990231990232, 0.0, 0.0, -0.34375, 0.0
60, -0.13064713064713065, 0.40293040293040294, 0.0695970695970696, 0.0, 0.0625, -0.40625, 0.0
61, -0.03418803418803419, 0.39438339438339437, 0.12576312576312576, 0.03125, 0.125, -0.375, 0.0
62, -2.63003663003663, -1.083028083028083, -6.998778998778999, 1.8125, -0.625, -0.75, 1.0
63, -3.4395604395604398, -0.1794871794871795, -7.322344322344322, 1.4375, -0.78125, -0.53125, 1.0
64, -3.832722832722833, -0.7631257631257631, -7.468864468864469, 1.03125, -0.71875, -0.3125, 1.0
65, -3.800976800976801, -1.181929181929182, -7.046398046398046, 0.53125, -0.65625, -0.25, 1.0
66, -4.406593406593407, -0.5018315018315018, -5.652014652014652, 0.15625, -0.375, -0.0625, 1.0
67, -3.542124542124542, 0.07936507936507936, -4.498168498168498, 0.0, -0.1875, 0.09375, 1.0
68, -2.3968253968253967, 0.5763125763125763, -3.457875457875458, 0.03125, -0.15625, 0.21875, 1.0
69, -1.7814407814407816, -0.557997557997558, -3.3064713064713063, 0.0, -0.03125, 0.25, 1.0
70, -0.6691086691086691, -0.9951159951159951, -2.6398046398046398, -0.3125, 0.03125, 0.0, 1.0
71, -0.7326007326007326, -0.09645909645909646, -1.2893772893772895, -0.4375, 0.09375, -0.03125, 1.0
72, -0.23565323565323565, 0.41147741147741146, -0.717948717948718, -0.34375, 0.09375, 0.0, 1.0
73, -0.06227106227106227, 0.4139194139194139, -0.41514041514041516, -0.28125, 0.09375, -0.03125, 1.0
74, -0.042735042735042736, 0.02564102564102564, 0.008547008547008548, -0.3125, 0.125, -0.0625, 1.0
75, -0.05860805860805861, -0.41147741147741146, 0.18803418803418803, -0.5, 0.09375, -0.15625, 1.0
76, -0.4175824175824176, -0.12576312576312576, 1.1245421245421245, -0.34375, 0.09375, -0.0625, 1.0
77, -0.31013431013431014, -0.5860805860805861, 0.9169719169719169, -0.125, 0.03125, -0.0625, 1.0
78, -0.5921855921855922, -0.398046398046398, 0.6446886446886447, -0.125, 0.0, -0.0625, 1.0
79, -0.32112332112332115, -0.23809523809523808, 0.3907203907203907, -0.125, 0.0, -0.0625, 1.0
80, -0.057387057387057384, 0.10134310134310134, 0.41514041514041516, -0.125, -0.0625, -0.09375, 1.0
81, -0.5164835164835165, -0.07936507936507936, 0.12332112332112333, -0.0625, -0.15625, -0.09375, 1.0
82, -0.4236874236874237, -0.11843711843711843, -0.031746031746031744, -0.0625, -0.125, -0.0625, 1.0
83, -1.0390720390720392, -0.4163614163614164, -0.43101343101343104, -0.03125, -0.0625, -0.03125, 1.0
84, -0.1282051282051282, -0.14163614163614163, -0.2686202686202686, 0.0, 0.125, 0.0, 1.0
85, -0.1807081807081807, -0.11721611721611722, -0.45665445665445664, 0.0, 0.03125, 0.0, 1.0
86, -0.5238095238095238, -0.06837606837606838, -0.8998778998778999, 0.0, 0.0, 0.0, 1.0
87, -0.7838827838827839, -0.13553113553113552, -1.5018315018315018, -0.15625, 0.03125, 0.15625, 1.0
88, -0.9194139194139194, 0.42002442002442003, -1.934065934065934, -0.3125, 0.09375, 0.34375, 1.0
89, -0.07692307692307693, 0.796092796092796, -2.2124542124542126, -0.25, -0.21875, 0.28125, 0.0
90, -0.57997557997558, 1.170940170940171, -2.557997557997558, -0.09375, -0.625, 0.21875, 0.0
91, -0.6935286935286935, 0.3333333333333333, -3.628815628815629, -0.15625, -1.125, 0.1875, 0.0
92, -0.5262515262515263, -1.647130647130647, -3.9365079365079363, -0.625, -1.9375, 0.0, 0.0
93, -0.15873015873015872, -2.7326007326007327, -3.1868131868131866, -1.53125, -3.375, -0.15625, 0.0
94, -1.5128205128205128, -2.3235653235653237, -1.673992673992674, -2.28125, -4.65625, -0.125, 0.0
95, -2.7264957264957266, -0.9340659340659341, -0.3443223443223443, -2.5625, -5.4375, 0.125, 0.0
96, -3.3724053724053724, -0.2148962148962149, 0.33821733821733824, -2.46875, -5.8125, 0.34375, 0.0
97, -3.001221001221001, -0.08669108669108669, 0.5213675213675214, -2.34375, -6.21875, 0.25, 0.0
98, -3.1538461538461537, -0.8278388278388278, 0.8571428571428571, -2.53125, -6.78125, 0.0625, 0.0
99, -4.199023199023199, 0.14652014652014653, 0.8705738705738706, -2.6875, -6.59375, 0.5, 0.0
100, -1.7155067155067154, 3.652014652014652, 0.7814407814407814, -2.4375, -5.96875, 0.8125, 0.0
101, 2.382173382173382, 6.6642246642246645, 1.1477411477411477, -2.0625, -6.21875, 0.15625, 0.0
102, -0.031746031746031744, 5.445665445665446, 2.595848595848596, -2.15625, -7.65625, -0.6875, 0.0
103, -3.0305250305250304, 3.1196581196581197, 2.0207570207570207, -1.90625, -7.78125, -0.1875, 0.0
104, -0.9926739926739927, 1.3724053724053724, 0.5567765567765568, -1.25, -6.6875, 0.34375, 0.0
105, 1.9462759462759462, -0.4932844932844933, 0.5714285714285714, -1.15625, -6.6875, 0.0625, 0.0
106, 1.4188034188034189, -1.7155067155067154, 1.4737484737484738, -1.625, -7.46875, -1.03125, 0.0
107, -0.9499389499389499, 0.46153846153846156, 1.9926739926739927, -1.875, -8.0625, -1.75, 0.0
108, -2.3223443223443225, 1.6605616605616607, 0.3125763125763126, -0.96875, -7.5, -1.4375, 0.0
109, -2.982905982905983, 1.1575091575091576, -1.2515262515262515, -0.125, -6.3125, -1.15625, 0.0
110, -4.687423687423688, 0.6410256410256411, -2.6105006105006106, 0.40625, -3.8125, -0.375, 0.0
111, -2.8412698412698414, 0.3614163614163614, -2.8644688644688645, 0.40625, -2.4375, -0.0625, 0.0
112, 0.14774114774114774, 0.6605616605616605, -2.6056166056166057, 0.5625, -2.15625, 0.28125, 0.0
113, 0.7362637362637363, 0.4542124542124542, -2.1953601953601956, 0.53125, -2.25, 0.21875, 0.0
114, 0.23443223443223443, 0.9951159951159951, -1.8510378510378511, 0.6875, -2.21875, 0.25, 0.0
115, -0.9938949938949939, 1.0390720390720392, -1.647130647130647, 0.90625, -1.71875, 0.375, 0.0
116, -0.9743589743589743, 1.0268620268620268, -1.7557997557997558, 1.09375, -1.28125, 0.59375, 0.0
117, 0.3431013431013431, 1.2454212454212454, -2.087912087912088, 1.28125, -1.3125, 0.8125, 0.0
118, 0.2490842490842491, 0.3724053724053724, -2.822954822954823, 1.3125, -1.375, 0.875, 0.0
119, -0.31868131868131866, -0.16483516483516483, -2.84981684981685, 1.0625, -1.09375, 0.9375, 0.0
120, -1.120879120879121, -0.10256410256410256, -2.463980463980464, 0.8125, -0.46875, 1.0625, 0.0
121, -0.06227106227106227, 0.06105006105006105, -1.1562881562881564, 0.71875, -0.15625, 1.1875, 0.0
122, 2.126984126984127, 0.030525030525030524, -1.3162393162393162, 0.90625, -0.75, 1.09375, 0.0
123, 1.1355311355311355, -0.10012210012210013, -1.9926739926739927, 0.84375, -1.125, 1.0, 0.0
124, 0.0, -0.07692307692307693, -2.249084249084249, 0.75, -0.8125, 0.9375, 0.0
125, 0.5604395604395604, -0.21855921855921856, -1.9926739926739927, 0.625, -0.15625, 1.0, 0.0
126, 2.4957264957264957, 0.2686202686202686, -1.7484737484737485, 0.5, 0.0, 0.96875, 0.0
127, 2.473748473748474, 0.2600732600732601, -2.0903540903540905, 0.5, -0.40625, 0.8125, 0.0
128, 1.5482295482295483, 0.007326007326007326, -2.727716727716728, 0.46875, -0.59375, 0.625, 0.0
129, 0.5042735042735043, -0.003663003663003663, -2.9047619047619047, 0.21875, -0.3125, 0.53125, 0.0
130, 0.7142857142857143, 0.304029304029304, -2.249084249084249, 0.03125, 0.125, 0.5625, 0.0
131, 1.0598290598290598, 0.32234432234432236, -1.3052503052503053, 0.0, 0.34375, 0.5625, 0.0
132, 1.271062271062271, 0.2686202686202686, -0.7777777777777778, 0.0, 0.28125, 0.46875, 0.0
133, 1.42002442002442, -0.30036630036630035, -0.8388278388278388, -0.09375, -0.09375, 0.3125, 0.0
134, 0.6105006105006106, -0.3247863247863248, -0.7594627594627594, -0.25, -0.15625, 0.25, 0.0
135, -0.18192918192918192, -0.14285714285714285, -0.6581196581196581, -0.28125, 0.09375, 0.25, 0.0
136, 0.004884004884004884, -0.09768009768009768, -0.24053724053724054, -0.21875, 0.28125, 0.3125, 0.0
137, 0.5592185592185592, -0.5677655677655677, -0.13797313797313798, -0.21875, 0.15625, 0.28125, 0.0
138, 0.518925518925519, -0.5665445665445665, -0.007326007326007326, -0.25, 0.03125, 0.1875, 0.0
139, 0.15262515262515264, -0.5103785103785103, 0.08669108669108669, -0.21875, 0.09375, 0.0625, 0.0
140, -0.1282051282051282, -0.23565323565323565, 0.20757020757020758, -0.15625, 0.1875, 0.0625, 0.0
141, -0.0463980463980464, -0.31868131868131866, 0.326007326007326, -0.09375, 0.1875, 0.0625, 0.0
142, 0.4053724053724054, -0.46886446886446886, 0.29304029304029305, -0.15625, 0.0, 0.0, 0.0
143, 0.06837606837606838, -0.21367521367521367, 0.2661782661782662, -0.15625, -0.0625, -0.0625, 0.0
144, -0.21855921855921856, -0.10378510378510379, 0.2039072039072039, -0.15625, -0.03125, -0.0625, 0.0
145, -0.38705738705738707, 0.08180708180708181, 0.029304029304029304, -0.03125, 0.0625, -0.03125, 0.0
146, -0.015873015873015872, -0.115995115995116, -0.07814407814407814, -0.0625, 0.03125, 0.0, 0.0
147, -0.047619047619047616, -0.004884004884004884, -0.001221001221001221, -0.15625, -0.09375, -0.0625, 0.0
148, -0.3772893772893773, 0.13553113553113552, -0.02442002442002442, -0.15625, -0.125, -0.125, 0.0
149, -0.7106227106227107, 0.3724053724053724, 0.06837606837606838, -0.09375, -0.03125, -0.0625, 0.0
150, -0.4896214896214896, 0.23809523809523808, 0.10989010989010989, 0.0, 0.0625, 0.0, 0.0
151, -0.06837606837606838, 0.06349206349206349, 0.09401709401709402, 0.0, 0.0625, 0.09375, 0.0
152, 0.11843711843711843, -0.18437118437118438, -0.06715506715506715, -0.0625, -0.0625, 0.03125, 0.0
153, -0.1221001221001221, 0.014652014652014652, -0.05616605616605617, -0.15625, -0.15625, 0.0, 0.0
154, -0.3333333333333333, 0.23076923076923078, 0.10256410256410256, -0.125, -0.125, 0.0, 0.0
155, -0.15995115995115994, 0.1514041514041514, 0.14285714285714285, -0.03125, 0.0, 0.03125, 0.0
156, 0.1221001221001221, 0.015873015873015872, 0.14896214896214896, 0.0, 0.03125, 0.09375, 0.0
157, 0.3052503052503053, -0.07081807081807082, 0.199023199023199, 0.0, -0.0625, 0.0625, 0.0
158, -0.0989010989010989, 0.16727716727716727, 0.36507936507936506, 0.03125, 0.0, 0.0625, 0.0
159, -0.2673992673992674, 0.43833943833943834, 0.4908424908424908, 0.21875, 0.09375, 0.1875, 0.0
160, -0.5262515262515263, 0.6043956043956044, 0.47374847374847373, 0.53125, 0.375, 0.3125, 0.0
161, -1.4114774114774116, 1.037851037851038, 0.45665445665445664, 0.84375, 1.0625, 0.625, 1.0
162, -1.4297924297924298, 1.3076923076923077, 0.5531135531135531, 1.3125, 2.0625, 1.25, 1.0
163, -2.197802197802198, 1.6349206349206349, -0.050061050061050064, 2.0625, 3.3125, 1.9375, 1.0
164, -0.3956043956043956, 0.22466422466422467, -1.1489621489621489, 2.53125, 4.46875, 2.375, 1.0
165, 3.4993894993894994, -1.3418803418803418, -2.051282051282051, 2.46875, 4.625, 2.25, 1.0
166, 6.107448107448107, -3.0549450549450547, -2.896214896214896, 1.8125, 4.03125, 1.5625, 1.0
167, 4.548229548229548, -1.407814407814408, -3.128205128205128, 1.625, 4.03125, 1.0625, 1.0
168, 0.1562881562881563, 0.5238095238095238, -3.242979242979243, 3.1875, 7.21875, 1.53125, 1.0
169, 3.3626373626373627, -1.4676434676434675, 1.6166056166056166, 4.5, 9.09375, 1.71875, 1.0
170, 6.124542124542124, -2.8315018315018317, 2.542124542124542, 5.0, 9.4375, 1.65625, 1.0
171, 7.107448107448107, -3.028083028083028, 2.6923076923076925, 4.90625, 8.71875, 1.09375, 1.0
172, 6.230769230769231, -1.9743589743589745, 3.0268620268620268, 4.75, 7.71875, 0.1875, 1.0
173, 3.236874236874237, -1.3223443223443223, 3.1892551892551895, 5.09375, 7.25, -0.25, 1.0
174, 3.4493284493284495, -2.197802197802198, 3.1013431013431014, 5.5625, 7.15625, -0.28125, 1.0
175, 2.7704517704517704, -2.761904761904762, 2.1074481074481075, 5.625, 6.59375, -0.34375, 1.0
176, 3.192918192918193, -3.73992673992674, 1.1611721611721613, 5.4375, 5.71875, -0.40625, 1.0
177, 1.652014652014652, -3.6837606837606836, -0.30036630036630035, 5.0625, 4.78125, -0.5, 1.0
178, 1.343101343101343, -3.241758241758242, -0.7448107448107448, 4.9375, 4.21875, -0.53125, 1.0
179, 2.4114774114774113, -4.3760683760683765, -1.9194139194139195, 4.75, 3.5625, -0.65625, 1.0
180, 2.0427350427350426, -4.652014652014652, -2.4505494505494507, 3.78125, 1.9375, -1.0625, 1.0
181, 0.5445665445665445, -3.2918192918192917, -2.717948717948718, 3.53125, 1.15625, -1.1875, 1.0
182, -0.7557997557997558, -2.873015873015873, -3.0549450549450547, 3.53125, 0.84375, -1.0625, 1.0
183, -0.34798534798534797, -3.023199023199023, -3.6654456654456653, 3.4375, 0.46875, -1.0625, 1.0
184, -0.41147741147741146, -3.724053724053724, -4.349206349206349, 2.90625, -0.09375, -1.125, 1.0
185, -1.4334554334554335, -2.4835164835164836, -4.616605616605616, 2.46875, -0.53125, -1.03125, 1.0
186, -2.3894993894993894, -1.7936507936507937, -4.816849816849817, 2.40625, -0.625, -0.875, 1.0
187, -1.9120879120879122, -1.122100122100122, -5.2173382173382175, 2.3125, -0.9375, -0.71875, 1.0
188, -2.8876678876678876, -2.0793650793650795, -6.525030525030525, 1.78125, -1.03125, -0.75, 1.0
189, -3.365079365079365, -1.0390720390720392, -6.625152625152626, 1.21875, -0.9375, -0.625, 1.0
190, -4.042735042735043, 0.16483516483516483, -6.609279609279609, 1.0, -0.65625, -0.4375, 1.0
191, -3.7203907203907205, -0.006105006105006105, -6.771672771672772, 0.375, -0.46875, -0.15625, 1.0
192, -3.247863247863248, 0.08669108669108669, -4.713064713064713, -0.03125, -0.28125, 0.03125, 1.0
193, -2.5885225885225887, 0.3321123321123321, -2.8705738705738706, -0.25, -0.09375, 0.125, 1.0
194, -1.6153846153846154, 0.42246642246642246, -1.4407814407814408, -0.15625, 0.0, 0.1875, 1.0
195, -0.6214896214896215, -0.5726495726495726, -1.1282051282051282, 0.0, 0.03125, 0.25, 1.0
196, -0.40293040293040294, -0.47619047619047616, -0.8461538461538461, -0.125, 0.03125, 0.09375, 1.0
197, 0.13064713064713065, 0.304029304029304, -0.16483516483516483, -0.1875, 0.09375, 0.0, 1.0
198, 0.12332112332112333, 0.652014652014652, 0.1330891330891331, -0.125, 0.09375, 0.03125, 1.0
199, 0.34554334554334554, 0.0, 0.19413919413919414, 0.0, 0.09375, 0.0625, 1.0
200, 0.358974358974359, -0.7655677655677655, 0.08180708180708181, -0.03125, 0.09375, 0.0, 1.0
201, -0.2625152625152625, -0.20024420024420025, 0.2026862026862027, -0.15625, 0.03125, -0.15625, 1.0
202, -0.5555555555555556, 0.1807081807081807, 0.3663003663003663, -0.125, 0.09375, -0.09375, 1.0
203, -0.4297924297924298, 0.18925518925518925, 0.4004884004884005, 0.0625, 0.09375, 0.03125, 1.0
204, -0.36874236874236876, -0.28205128205128205, 0.11355311355311355, 0.125, 0.0, 0.09375, 1.0
205, -0.5726495726495726, -0.40293040293040294, -0.1221001221001221, 0.0625, 0.0, 0.125, 1.0
206, -0.2771672771672772, -0.5213675213675214, -0.08180708180708181, -0.09375, 0.0, 0.1875, 1.0
207, -0.3724053724053724, -0.27350427350427353, -0.2771672771672772, -0.25, 0.0, 0.25, 1.0
208, -0.38705738705738707, 0.19291819291819293, -0.4432234432234432, -0.1875, 0.0, 0.1875, 0.0
209, -0.9487179487179487, 0.5103785103785103, -0.5848595848595849, -0.0625, 0.1875, 0.09375, 0.0
210, -0.14041514041514042, -0.0927960927960928, -0.3797313797313797, -0.15625, 0.125, 0.15625, 0.0
211, -0.09523809523809523, -0.18315018315018314, -0.23931623931623933, -0.125, 0.15625, 0.09375, 0.0
212, -0.019536019536019536, -0.21245421245421245, -0.047619047619047616, -0.09375, 0.125, 0.03125, 0.0
213, -0.06715506715506715, -0.22954822954822954, 0.03418803418803419, -0.0625, 0.03125, 0.0, 0.0
214, -0.2576312576312576, 0.020757020757020756, 0.031746031746031744, 0.0, 0.09375, 0.03125, 0.0
215, -0.16727716727716727, -0.15384615384615385, -0.009768009768009768, 0.0625, 0.15625, 0.09375, 0.0
216, -0.15018315018315018, -0.27472527472527475, -0.15506715506715507, 0.0625, 0.125, 0.0625, 0.0
217, -0.050061050061050064, -0.15262515262515264, -0.20146520146520147, 0.0, 0.125, 0.03125, 0.0
218, 0.12087912087912088, 0.03907203907203907, -0.10500610500610501, 0.0, 0.0625, 0.03125, 0.0
219, 0.020757020757020756, -0.03418803418803419, -0.32844932844932845, 0.03125, 0.0, 0.0, 0.0
220, -0.3137973137973138, -0.27350427350427353, -0.6385836385836385, 0.03125, -0.0625, 0.03125, 0.0
221, -0.40415140415140416, -0.24175824175824176, -0.8791208791208791, 0.0, -0.03125, 0.03125, 0.0
222, -0.6007326007326007, -0.2503052503052503, -1.021978021978022, -0.03125, 0.0, 0.03125, 0.0
223, -0.32112332112332115, -0.21367521367521367, -0.7973137973137974, -0.09375, 0.0625, 0.09375, 0.0
224, 0.07203907203907203, -0.2661782661782662, -0.4053724053724054, -0.1875, 0.09375, 0.09375, 0.0
225, 0.07203907203907203, -0.231990231990232, -0.14652014652014653, -0.21875, 0.0, 0.03125, 0.0
226, -0.2783882783882784, -0.19291819291819293, -0.15873015873015872, -0.15625, -0.03125, 0.0, 0.0
227, 0.0, -0.3028083028083028, -0.199023199023199, -0.15625, -0.0625, 0.0, 0.0
228, -0.07448107448107448, -0.22954822954822954, -0.4456654456654457, -0.125, -0.1875, -0.03125, 0.0
229, -0.3431013431013431, -0.15506715506715507, -0.8485958485958486, -0.09375, -0.3125, -0.09375, 0.0
230, -0.6190476190476191, -0.10256410256410256, -1.4065934065934067, -0.15625, -0.5, -0.09375, 0.0
231, -0.5860805860805861, -0.08547008547008547, -1.794871794871795, -0.25, -0.8125, -0.125, 0.0
232, 0.040293040293040296, -0.4517704517704518, -2.1587301587301586, -0.5, -1.625, -0.375, 0.0
233, 1.5946275946275947, -1.1037851037851039, -1.962148962148962, -0.96875, -3.5, -0.96875, 0.0
234, -0.9401709401709402, -1.6507936507936507, -1.3797313797313797, -1.53125, -5.28125, -1.34375, 0.0
235, -4.135531135531136, -1.1782661782661783, -0.6727716727716728, -1.9375, -6.03125, -1.1875, 0.0
236, -5.775335775335775, -0.9145299145299145, -0.39438339438339437, -2.15625, -5.90625, -0.53125, 0.0
237, -3.8754578754578755, -0.4261294261294261, 0.14896214896214896, -2.21875, -6.09375, -0.28125, 0.0
238, -1.6874236874236874, -1.0866910866910866, 1.5054945054945055, -2.5, -8.34375, -1.25, 0.0
239, -6.8217338217338215, -1.6617826617826619, 2.399267399267399, -2.625, -9.3125, -1.4375, 0.0
240, -8.683760683760683, -7.47008547008547, 1.083028083028083, -2.125, -8.25, -0.40625, 0.0
241, -4.556776556776557, -2.531135531135531, -0.08058608058608059, -1.34375, -6.375, 0.71875, 0.0
242, -0.18192918192918192, -2.192918192918193, 0.5824175824175825, -1.25, -6.15625, 0.5, 0.0
243, -0.7387057387057387, -2.451770451770452, 1.2356532356532357, -1.75, -7.09375, -0.09375, 0.0
244, -2.68009768009768, -0.24664224664224665, 0.9938949938949939, -1.71875, -6.96875, -0.03125, 0.0
245, -1.884004884004884, -0.08424908424908426, -0.43345543345543347, -0.8125, -5.53125, 0.4375, 0.0
246, 1.205128205128205, -0.7997557997557998, -0.21978021978021978, -0.375, -4.78125, 0.21875, 0.0
247, 0.3956043956043956, -0.11477411477411477, 0.796092796092796, -0.4375, -5.375, -0.03125, 0.0
248, 0.16117216117216118, 0.7704517704517705, -0.04395604395604396, 0.0, -5.375, 0.21875, 0.0
249, 1.4273504273504274, -0.518925518925519, -1.028083028083028, 0.53125, -4.90625, 0.28125, 0.0
250, 1.2222222222222223, -2.0683760683760686, -1.7606837606837606, 0.0625, -4.875, -0.40625, 0.0
251, -0.29914529914529914, -0.36874236874236876, -1.7118437118437118, -0.28125, -4.5625, -0.34375, 0.0
252, -0.9023199023199023, 1.3956043956043955, -1.9072039072039073, 0.15625, -3.6875, -0.0625, 0.0
253, -0.41025641025641024, 1.293040293040293, -1.9413919413919414, 0.6875, -3.0625, 0.125, 0.0
254, 0.5042735042735043, 0.5763125763125763, -2.376068376068376, 0.9375, -2.90625, 0.34375, 0.0
255, -0.29426129426129427, 0.2600732600732601, -3.1892551892551895, 0.96875, -2.46875, 0.5, 0.0
256, -0.5225885225885226, 0.5006105006105006, -3.543345543345543, 1.125, -1.71875, 0.71875, 0.0
257, 0.2783882783882784, 0.6544566544566545, -3.6825396825396823, 1.28125, -1.1875, 0.96875, 0.0
258, 0.6227106227106227, 0.4065934065934066, -3.10989010989011, 1.28125, -0.9375, 1.125, 0.0
259, 0.4884004884004884, -0.09401709401709402, -2.5616605616605614, 1.15625, -0.6875, 1.0625, 0.0
260, 0.6349206349206349, -0.4713064713064713, -2.358974358974359, 0.84375, -0.53125, 0.9375, 0.0
261, 0.8168498168498168, 0.0231990231990232, -1.619047619047619, 0.65625, -0.5625, 0.90625, 0.0
262, 1.978021978021978, 0.6703296703296703, -1.89010989010989, 0.9375, -0.71875, 0.96875, 0.0
263, 1.6495726495726495, -0.48473748473748474, -3.2405372405372406, 1.0, -0.75, 0.8125, 0.0
264, 1.332112332112332, -0.48717948717948717, -3.4493284493284495, 0.65625, -0.46875, 0.65625, 0.0
265, 1.6153846153846154, -0.001221001221001221, -2.960927960927961, 0.3125, -0.125, 0.625, 0.0
266, 1.7448107448107448, 0.3992673992673993, -2.0915750915750917, 0.125, 0.0, 0.5625, 0.0
267, 1.5286935286935286, 0.5677655677655677, -1.4945054945054945, 0.09375, 0.0, 0.5, 0.0
268, 1.2356532356532357, 0.48595848595848595, -1.105006105006105, 0.125, 0.0, 0.375, 0.0
269, 0.8595848595848596, 0.21733821733821734, -0.873015873015873, 0.09375, 0.0, 0.28125, 0.0
270, 0.5274725274725275, 0.2515262515262515, -0.5482295482295483, 0.0, 0.03125, 0.3125, 0.0
271, 0.4884004884004884, 0.231990231990232, -0.21123321123321123, -0.03125, 0.09375, 0.3125, 0.0
272, 0.4713064713064713, 0.09768009768009768, -0.028083028083028084, 0.0, 0.0, 0.28125, 0.0
273, 0.2258852258852259, 0.009768009768009768, -0.2588522588522589, 0.0, -0.0625, 0.21875, 0.0
274, -0.1978021978021978, -0.10866910866910867, -0.4432234432234432, 0.03125, 0.0625, 0.1875, 0.0
275, -0.08913308913308914, -0.33577533577533575, -0.49206349206349204, -0.03125, 0.125, 0.1875, 0.0
276, 0.02442002442002442, -0.06227106227106227, -0.10866910866910867, -0.09375, 0.03125, 0.1875, 0.0
277, 0.0231990231990232, -0.0989010989010989, 0.03907203907203907, -0.0625, 0.0, 0.09375, 0.0
278, 0.08180708180708181, 0.07692307692307693, 0.019536019536019536, 0.0, -0.03125, 0.0, 0.0
279, -0.39194139194139194, -0.06349206349206349, -0.31746031746031744, 0.0, 0.0625, 0.0, 0.0
280, -0.12454212454212454, -0.07326007326007326, -0.28083028083028083, -0.03125, 0.125, 0.03125, 0.0
281, 0.002442002442002442, -0.07936507936507936, -0.20512820512820512, -0.09375, 0.0, 0.03125, 0.0
282, -0.12454212454212454, 0.05982905982905983, 0.02442002442002442, -0.09375, -0.0625, 0.0, 0.0
283, -0.2612942612942613, 0.20757020757020758, 0.017094017094017096, 0.0, -0.03125, 0.0, 0.0
284, -0.2979242979242979, 0.05982905982905983, -0.11233211233211234, 0.03125, 0.03125, 0.03125, 0.0
285, 0.2258852258852259, -0.2954822954822955, -0.28083028083028083, -0.03125, 0.0625, 0.03125, 0.0
286, 0.0, -0.07203907203907203, -0.17338217338217338, -0.15625, -0.0625, 0.0, 0.0
287, -0.18192918192918192, 0.28327228327228327, 0.10012210012210013, -0.15625, -0.0625, 0.0, 0.0
288, -0.1575091575091575, 0.14163614163614163, 0.08302808302808302, -0.03125, 0.0, 0.03125, 0.0
289, 0.06715506715506715, -0.06471306471306472, 0.01098901098901099, 0.03125, 0.0, 0.03125, 0.0
290, 0.09645909645909646, -0.14285714285714285, -0.07326007326007326, 0.0, -0.0625, 0.0, 0.0
291, 0.014652014652014652, -0.029304029304029304, -0.030525030525030524, -0.0625, -0.125, 0.0, 0.0
292, 0.014652014652014652, 0.09768009768009768, 0.20146520146520147, -0.09375, -0.15625, 0.0, 0.0
293, -0.1221001221001221, 0.19047619047619047, 0.34676434676434675, 0.0, -0.1875, 0.03125, 0.0
294, 0.09401709401709402, 0.19413919413919414, 0.47619047619047616, 0.125, -0.1875, 0.09375, 0.0
295, 0.030525030525030524, -0.07203907203907203, 0.4065934065934066, 0.125, -0.21875, 0.21875, 1.0
296, -0.10744810744810745, -0.10134310134310134, 0.15018315018315018, 0.15625, -0.0625, 0.28125, 1.0
297, -0.16483516483516483, 0.3162393162393162, -0.045177045177045176, 0.34375, 0.1875, 0.28125, 1.0
298, 0.12454212454212454, 0.38217338217338215, -0.9169719169719169, 0.40625, 0.46875, 0.21875, 1.0
299, -0.9963369963369964, 0.5665445665445665, -1.6813186813186813, 0.4375, 1.09375, 0.46875, 1.0
300, -0.6691086691086691, 1.1538461538461537, -2.1941391941391943, 0.5625, 1.84375, 0.90625, 1.0
301, -1.236874236874237, 2.456654456654457, -2.9633699633699635, 1.15625, 2.875, 1.59375, 1.0
302, -0.6092796092796092, 1.5702075702075702, -4.603174603174603, 2.0625, 4.4375, 2.3125, 1.0
303, 2.595848595848596, -1.7203907203907205, -5.227106227106227, 1.96875, 5.28125, 2.21875, 1.0
304, 5.175824175824176, -2.3443223443223444, -4.239316239316239, 1.34375, 5.0, 1.4375, 1.0
305, 3.485958485958486, -0.8363858363858364, -3.1452991452991452, 1.28125, 5.09375, 0.78125, 1.0
306, 0.9181929181929182, 0.3956043956043956, -2.496947496947497, 1.84375, 6.15625, 0.65625, 1.0
307, -0.08791208791208792, 1.4285714285714286, -0.8717948717948718, 2.78125, 7.4375, 0.53125, 1.0
308, 0.7423687423687424, -0.3443223443223443, 1.1123321123321124, 3.6875, 8.375, 0.65625, 1.0
309, 1.778998778998779, -0.3882783882783883, 1.3614163614163615, 3.84375, 8.78125, 0.71875, 1.0
310, 3.717948717948718, 0.2612942612942613, 2.161172161172161, 3.9375, 8.46875, 0.40625, 1.0
311, 2.3797313797313797, 1.5189255189255189, 2.4188034188034186, 4.21875, 7.6875, -0.0625, 1.0
312, 2.7326007326007327, 1.0305250305250304, 2.5115995115995116, 4.5625, 7.1875, -0.375, 1.0
313, 2.4896214896214897, 0.4993894993894994, 2.253968253968254, 4.78125, 6.34375, -0.59375, 1.0
314, 0.45665445665445664, -0.8229548229548229, 1.1843711843711844, 5.09375, 5.71875, -0.65625, 1.0
315, 0.47863247863247865, -2.0097680097680097, 1.0732600732600732, 5.3125, 5.625, -0.40625, 1.0
316, 0.9877899877899878, -2.984126984126984, 0.6092796092796092, 5.46875, 5.5625, -0.25, 1.0
317, 2.7032967032967035, -4.3528693528693525, 0.12698412698412698, 5.25, 5.21875, -0.1875, 1.0
318, 3.3272283272283274, -5.05982905982906, -0.5921855921855922, 4.5625, 4.15625, -0.375, 1.0
319, 2.7252747252747254, -4.3357753357753355, -0.9255189255189256, 3.75, 2.53125, -0.75, 1.0
320, 1.293040293040293, -4.525030525030525, -1.6556776556776556, 3.46875, 0.84375, -1.0625, 1.0
321, -0.4249084249084249, -4.362637362637362, -2.6495726495726495, 3.0625, 0.46875, -1.375, 1.0
322, -1.6483516483516483, -4.003663003663004, -3.711843711843712, 2.59375, 0.375, -1.25, 1.0
323, -1.774114774114774, -3.0805860805860807, -4.336996336996337, 2.3125, 0.09375, -1.03125, 1.0
324, -1.4273504273504274, -3.202686202686203, -5.278388278388278, 2.03125, -0.3125, -1.0625, 1.0
325, -2.78998778998779, -1.9120879120879122, -5.201465201465202, 1.75, -0.40625, -0.75, 1.0
326, -3.128205128205128, -1.8327228327228327, -5.722832722832723, 1.4375, -0.28125, -0.34375, 1.0
327, -2.0207570207570207, -0.5934065934065934, -5.111111111111111, 1.15625, -0.4375, -0.15625, 1.0
328, -1.9926739926739927, -0.44932844932844934, -4.8669108669108665, 1.09375, -0.75, -0.125, 1.0
329, -2.343101343101343, -0.9804639804639804, -5.261294261294261, 0.75, -0.8125, -0.1875, 1.0
330, -2.6837606837606836, -0.6825396825396826, -5.339438339438339, 0.28125, -0.6875, 0.0, 1.0
331, -1.3357753357753357, -0.4603174603174603, -3.9047619047619047, -0.03125, -0.25, 0.125, 1.0
332, -1.2271062271062272, -0.32844932844932845, -2.769230769230769, -0.125, -0.21875, 0.03125, 1.0
333, -0.7936507936507936, -0.7924297924297924, -1.8986568986568986, -0.03125, -0.1875, 0.03125, 1.0
334, -0.7704517704517705, -1.3028083028083028, -1.3101343101343101, -0.0625, -0.125, 0.0, 1.0
335, -0.8363858363858364, -0.8901098901098901, -0.6434676434676435, -0.09375, 0.03125, 0.0, 1.0
336, -0.16117216117216118, -0.717948717948718, -0.18681318681318682, -0.0625, 0.125, 0.0, 1.0
337, 0.03418803418803419, -0.7631257631257631, -0.15262515262515264, 0.0, 0.09375, -0.03125, 1.0
338, 0.18437118437118438, -0.45787545787545786, -0.10866910866910867, 0.0, 0.0, -0.1875, 1.0
339, -0.03785103785103785, -0.030525030525030524, -0.4627594627594628, 0.0, -0.0625, -0.1875, 1.0
340, 0.04884004884004884, -0.11843711843711843, -0.7973137973137974, -0.0625, -0.03125, -0.21875, 1.0
341, -0.3992673992673993, -0.12454212454212454, -0.6727716727716728, -0.09375, -0.03125, -0.1875, 1.0
342, -0.47741147741147744, -0.5714285714285714, -0.4993894993894994, -0.15625, 0.0, -0.0625, 1.0
343, -0.336996336996337, -0.9487179487179487, -0.08913308913308914, -0.3125, 0.0, -0.03125, 1.0
344, -0.02442002442002442, -0.5506715506715507, 0.5323565323565324, -0.25, -0.03125, -0.03125, 1.0
345, -0.3321123321123321, -0.4432234432234432, 0.7252747252747253, -0.125, 0.0, -0.03125, 1.0
346, -0.19291819291819293, -0.8205128205128205, 0.757020757020757, -0.09375, -0.03125, -0.03125, 1.0
347, -0.36752136752136755, -0.7057387057387058, 0.5311355311355311, -0.09375, -0.03125, -0.0625, 1.0
348, -0.3308913308913309, -0.2844932844932845, 0.4004884004884005, -0.03125, -0.03125, -0.03125, 1.0
349, -0.054945054945054944, -0.36874236874236876, -0.028083028083028084, 0.03125, -0.125, -0.0625, 1.0
350, -0.2039072039072039, -0.46764346764346765, -0.514041514041514, 0.0, -0.15625, -0.125, 1.0
351, -0.5775335775335775, -0.5494505494505495, -0.8791208791208791, -0.09375, -0.03125, -0.09375, 1.0
352, -0.19413919413919414, -0.2258852258852259, -0.5372405372405372, -0.0625, 0.03125, -0.03125, 1.0
353, -0.35653235653235654, -0.4346764346764347, -0.5714285714285714, -0.0625, 0.03125, 0.0, 1.0
354, -0.47619047619047616, -0.49694749694749696, -0.48473748473748474, -0.125, 0.1875, 0.09375, 1.0
355, -0.3308913308913309, -1.0744810744810744, -0.7924297924297924, -0.4375, 0.34375, 0.21875, 1.0
356, 0.001221001221001221, -0.026862026862026864, -0.16971916971916973, -0.53125, 0.46875, 0.25, 1.0
357, 0.32112332112332115, -0.08791208791208792, 0.4456654456654457, -0.21875, 0.28125, 0.21875, 0.0
358, -0.2490842490842491, -0.46764346764346765, -0.1391941391941392, 0.0625, 0.03125, 0.125, 0.0
359, -0.3504273504273504, -1.6434676434676434, -0.518925518925519, 0.0, 0.0, 0.0, 0.0
360, -0.25274725274725274, -0.4432234432234432, 0.2087912087912088, -0.21875, 0.09375, 0.0, 0.0
361, 0.2026862026862027, -0.0927960927960928, 0.3907203907203907, -0.1875, 0.0625, 0.09375, 0.0
362, 0.17338217338217338, -0.18437118437118438, 0.13553113553113552, -0.0625, 0.0, 0.125, 0.0
363, 0.13064713064713065, -0.6813186813186813, -0.3601953601953602, 0.0, 0.0, 0.0625, 0.0
364, -0.1807081807081807, -0.5470085470085471, -0.47863247863247865, 0.0, 0.03125, 0.03125, 0.0
365, 0.031746031746031744, -0.2698412698412698, -0.20757020757020758, -0.0625, 0.15625, 0.0, 0.0
366, -0.17216117216117216, -0.13797313797313798, -0.13186813186813187, -0.0625, 0.15625, 0.03125, 0.0
367, -0.014652014652014652, -0.25274725274725274, -0.08424908424908426, -0.03125, 0.03125, 0.03125, 0.0
368, -0.11843711843711843, -0.3443223443223443, -0.15018315018315018, -0.0625, 0.0, 0.03125, 0.0
369, -0.20634920634920634, -0.336996336996337, -0.22466422466422467, -0.0625, 0.0, 0.03125, 0.0
370, -0.1452991452991453, -0.25396825396825395, -0.27106227106227104, -0.09375, 0.0, 0.0, 0.0
371, -0.1330891330891331, -0.21733821733821734, -0.25518925518925517, -0.0625, 0.0, 0.03125, 0.0
372, -0.21245421245421245, -0.3333333333333333, -0.34798534798534797, -0.03125, 0.0, 0.03125, 0.0
373, -0.07203907203907203, -0.40415140415140416, -0.3028083028083028, 0.0, 0.03125, 0.03125, 0.0
374, 0.019536019536019536, -0.12332112332112333, -0.026862026862026864, 0.0, 0.0, 0.03125, 0.0
375, -0.15018315018315018, -0.36752136752136755, -0.25274725274725274, 0.0, 0.0, 0.03125, 0.0
376, -0.13553113553113552, -0.28815628815628813, -0.29181929181929184, -0.03125, 0.0, 0.03125, 0.0
377, -0.10378510378510379, -0.20757020757020758, -0.22466422466422467, 0.0, 0.0, 0.03125, 0.0
378, -0.015873015873015872, -0.2661782661782662, -0.43101343101343104, 0.03125, -0.03125, 0.0, 0.0
379, -0.38095238095238093, -0.2954822954822955, -0.46642246642246643, 0.0, -0.03125, 0.0, 0.0
380, 0.008547008547008548, -0.19413919413919414, -0.18437118437118438, -0.03125, 0.03125, 0.0, 0.0
381, 0.09645909645909646, -0.2564102564102564, -0.03296703296703297, -0.03125, 0.0, 0.0, 0.0
382, -0.07814407814407814, -0.2771672771672772, -0.21245421245421245, 0.0, -0.09375, -0.03125, 0.0
383, -0.3553113553113553, -0.3907203907203907, -0.6117216117216118, 0.0, -0.21875, -0.0625, 0.0
384, -0.4481074481074481, -0.42002442002442003, -0.7631257631257631, -0.03125, -0.21875, -0.03125, 0.0
385, -0.5177045177045178, -0.2857142857142857, -0.7631257631257631, -0.0625, -0.21875, 0.0, 0.0
386, -0.39438339438339437, -0.13797313797313798, -0.5616605616605617, -0.09375, -0.125, 0.0625, 0.0
387, -0.05616605616605617, -0.36874236874236876, -0.5592185592185592, -0.0625, -0.21875, 0.09375, 0.0
388, 0.4249084249084249, -0.5347985347985348, -0.73992673992674, -0.0625, -0.65625, 0.03125, 0.0
389, 1.065934065934066, -1.133089133089133, -1.155067155067155, -0.25, -2.3125, -0.3125, 0.0
390, 0.7912087912087912, -1.7863247863247864, -1.2832722832722834, -0.71875, -3.90625, -0.71875, 0.0
391, -1.5531135531135531, -1.8058608058608059, -1.236874236874237, -1.1875, -4.90625, -0.90625, 0.0
392, -3.0952380952380953, -1.468864468864469, -1.0293040293040292, -1.46875, -5.21875, -0.8125, 0.0
393, -4.0, -1.1855921855921856, -0.7948717948717948, -1.53125, -5.21875, -0.5, 0.0
394, -4.107448107448107, -1.4273504273504274, -0.6483516483516484, -1.4375, -5.1875, -0.3125, 0.0
395, -4.186813186813187, -2.3907203907203907, -0.5384615384615384, -1.4375, -5.34375, -0.21875, 0.0
396, -4.202686202686203, -3.2698412698412698, -0.05372405372405373, -1.59375, -5.59375, -0.09375, 0.0
397, -3.2161172161172162, -5.048840048840049, 0.45665445665445664, -1.875, -6.125, -0.15625, 0.0
398, -2.2356532356532357, -8.908424908424909, 1.818070818070818, -2.21875, -7.21875, -0.375, 0.0
399, -3.8656898656898657, -8.697191697191696, 3.0354090354090353, -2.28125, -7.6875, -0.28125, 0.0
400, -4.763125763125763, -4.601953601953602, 2.998778998778999, -1.9375, -7.1875, 0.0, 0.0
401, -1.73992673992674, -3.6776556776556775, 1.9072039072039073, -1.5, -6.71875, -0.0625, 0.0
402, -2.4786324786324787, -2.4615384615384617, 2.5445665445665444, -1.3125, -7.03125, -0.5, 0.0
403, -4.130647130647131, -0.8107448107448108, 2.144078144078144, -0.8125, -7.0, -0.40625, 0.0
404, -3.6605616605616604, -0.4554334554334554, 0.3833943833943834, 0.09375, -6.0625, 0.53125, 0.0
405, -0.03663003663003663, -2.1196581196581197, -0.028083028083028084, 0.5, -5.53125, 1.125, 0.0
406, 0.7032967032967034, -2.4285714285714284, 0.08058608058608059, 0.15625, -5.96875, 0.5625, 0.0
407, 0.0231990231990232, 0.14896214896214896, -1.0451770451770452, 0.15625, -6.03125, -0.125, 0.0
408, -2.001221001221001, 0.4236874236874237, -2.6617826617826617, 0.9375, -5.09375, -0.15625, 0.0
409, -2.330891330891331, 0.5848595848595849, -3.2893772893772892, 1.3125, -3.71875, 0.25, 0.0
410, -0.7680097680097681, -1.496947496947497, -3.393162393162393, 1.25, -2.65625, 0.71875, 0.0
411, 0.6422466422466423, -0.2905982905982906, -2.8424908424908426, 0.5625, -2.46875, 0.625, 0.0
412, 1.363858363858364, 0.45665445665445664, -2.7936507936507935, 0.40625, -3.0, 0.3125, 0.0
413, -0.8522588522588522, 2.2356532356532357, -3.26007326007326, 0.8125, -3.0625, 0.53125, 0.0
414, -2.5811965811965814, 1.5836385836385836, -4.075702075702075, 1.3125, -1.875, 0.90625, 0.0
415, -2.1355311355311355, 0.3992673992673993, -4.15995115995116, 1.34375, -0.59375, 1.15625, 0.0
416, 0.503052503052503, -0.2454212454212454, -3.363858363858364, 1.0625, -0.4375, 1.28125, 0.0
417, 2.5164835164835164, 0.9291819291819292, -2.6312576312576312, 0.9375, -1.21875, 1.15625, 0.0
418, 2.543345543345543, 1.5824175824175823, -3.606837606837607, 1.3125, -1.8125, 0.96875, 0.0
419, 0.47496947496947495, 0.09035409035409035, -5.661782661782662, 1.1875, -1.3125, 0.84375, 0.0
420, -0.663003663003663, -0.11233211233211234, -5.912087912087912, 0.71875, -0.15625, 0.875, 0.0
421, 0.851037851037851, 0.32967032967032966, -4.52014652014652, 0.40625, 0.3125, 0.96875, 0.0
422, 2.1257631257631258, 0.4517704517704518, -2.8937728937728937, 0.1875, 0.09375, 0.84375, 0.0
423, 1.7142857142857142, 0.49206349206349204, -1.8192918192918193, 0.0625, -0.15625, 0.65625, 0.0
424, 0.8791208791208791, 0.6996336996336996, -0.8400488400488401, 0.09375, -0.0625, 0.5625, 0.0
425, 1.0927960927960927, 0.28327228327228327, -0.7155067155067155, 0.125, 0.0, 0.53125, 0.0
426, 0.905982905982906, 0.08058608058608059, -0.5433455433455433, 0.0625, -0.0625, 0.40625, 0.0
427, 0.48595848595848595, 0.36385836385836384, -0.16117216117216118, 0.0, -0.125, 0.375, 0.0
428, 0.2905982905982906, 0.31135531135531136, 0.031746031746031744, 0.03125, -0.09375, 0.3125, 0.0
429, 0.47863247863247865, 0.0463980463980464, -0.16117216117216118, 0.125, -0.0625, 0.25, 0.0
430, 0.518925518925519, -0.2271062271062271, -0.4004884004884005, 0.15625, -0.03125, 0.15625, 0.0
431, 0.3882783882783883, -0.3553113553113553, -0.5128205128205128, 0.0625, -0.0625, 0.125, 0.0
432, 0.006105006105006105, 0.030525030525030524, -0.4652014652014652, -0.03125, -0.09375, 0.15625, 0.0
433, 0.05616605616605617, 0.01221001221001221, -0.42857142857142855, 0.0, -0.03125, 0.125, 0.0
434, 0.2026862026862027, -0.13797313797313798, -0.5860805860805861, 0.0625, 0.0, 0.15625, 0.0
435, 0.2503052503052503, -0.20024420024420025, -0.5885225885225885, 0.0, -0.0625, 0.0625, 0.0
436, -0.29181929181929184, 0.040293040293040296, -0.4017094017094017, 0.0, 0.03125, 0.0, 0.0
437, -0.35775335775335776, -0.05128205128205128, -0.14163614163614163, 0.0, 0.125, 0.0625, 0.0
438, -0.05616605616605617, -0.001221001221001221, 0.031746031746031744, 0.0, 0.125, 0.03125, 0.0
439, 0.13064713064713065, -0.06471306471306472, 0.17826617826617827, -0.0625, -0.0625, 0.0, 0.0
440, -0.40293040293040294, 0.04395604395604396, 0.13553113553113552, -0.09375, -0.125, 0.0, 0.0
441, -0.8327228327228328, 0.3247863247863248, 0.2625152625152625, 0.0, 0.0625, 0.0625, 0.0
442, -0.568986568986569, 0.4017094017094017, 0.0927960927960928, 0.21875, 0.15625, 0.21875, 0.0
443, -0.08913308913308914, 0.3882783882783883, 0.3076923076923077, 0.34375, 0.125, 0.34375, 0.0
444, 0.42857142857142855, -0.1978021978021978, -0.15018315018315018, 0.3125, 0.0, 0.3125, 1.0
445, -0.22954822954822954, -0.6141636141636142, -0.967032967032967, 0.125, 0.28125, 0.0625, 1.0
446, -0.8449328449328449, 0.47985347985347987, -2.1794871794871793, 0.1875, 1.03125, 0.21875, 1.0
447, -2.272283272283272, 2.735042735042735, -2.442002442002442, 1.125, 2.875, 1.625, 1.0
448, 0.2673992673992674, 0.5323565323565324, -4.781440781440781, 1.90625, 4.53125, 2.46875, 1.0
449, 3.4114774114774113, -2.0305250305250304, -5.183150183150183, 1.96875, 5.53125, 2.53125, 1.0
450, 4.181929181929182, -1.921855921855922, -4.38949938949939, 1.5, 5.6875, 1.8125, 1.0
451, 1.4346764346764347, 0.5311355311355311, -2.6166056166056166, 1.59375, 6.21875, 1.25, 1.0
452, -0.9682539682539683, 1.3186813186813187, -0.568986568986569, 2.96875, 8.21875, 1.34375, 1.0
453, 0.9926739926739927, -0.21367521367521367, 1.0207570207570207, 4.28125, 10.15625, 1.75, 1.0
454, 2.6923076923076925, -0.938949938949939, 1.3833943833943834, 4.6875, 10.65625, 1.6875, 1.0
455, 2.6434676434676434, -0.22832722832722832, 1.47985347985348, 4.59375, 10.40625, 1.34375, 1.0
456, 2.5604395604395602, 0.4346764346764347, 2.399267399267399, 4.78125, 10.1875, 1.125, 1.0
457, 3.3516483516483517, -0.7509157509157509, 2.3223443223443225, 5.0625, 9.65625, 0.9375, 1.0
458, 4.627594627594628, -2.371184371184371, 1.7692307692307692, 5.25, 8.3125, 0.5, 1.0
459, 2.6971916971916974, -2.8803418803418803, 0.4517704517704518, 5.0625, 6.4375, 0.03125, 1.0
460, 2.6446886446886446, -3.056166056166056, 0.09035409035409035, 4.78125, 5.375, 0.0625, 1.0
461, 3.1575091575091574, -3.681318681318681, -0.5970695970695971, 4.53125, 4.1875, -0.125, 1.0
462, 3.3601953601953602, -4.2344322344322345, -1.2942612942612943, 4.125, 2.8125, -0.59375, 1.0
463, 2.6825396825396823, -4.42979242979243, -2.0854700854700856, 3.65625, 1.71875, -0.9375, 1.0
464, 1.2515262515262515, -3.5567765567765566, -2.258852258852259, 3.46875, 1.09375, -1.25, 1.0
465, 0.4810744810744811, -3.098901098901099, -2.5665445665445668, 3.5, 0.6875, -1.25, 1.0
466, -0.2588522588522589, -4.174603174603175, -3.385836385836386, 3.1875, 0.375, -1.1875, 1.0
467, -0.9340659340659341, -4.035409035409035, -3.658119658119658, 2.90625, 0.0, -1.25, 1.0
468, -2.1709401709401708, -2.967032967032967, -3.901098901098901, 2.8125, -0.15625, -1.03125, 1.0
469, -1.7203907203907205, -2.6275946275946276, -4.462759462759463, 2.6875, -0.28125, -0.9375, 1.0
470, -2.0488400488400487, -2.2185592185592187, -4.609279609279609, 2.34375, -0.71875, -0.65625, 1.0
471, -2.354090354090354, -1.2905982905982907, -5.564102564102564, 1.8125, -0.8125, -0.5, 1.0
472, -2.8547008547008548, 0.45787545787545786, -5.362637362637362, 1.46875, -0.9375, -0.4375, 1.0
473, -3.0, 0.01098901098901099, -6.031746031746032, 1.40625, -0.75, -0.21875, 1.0
474, -2.1746031746031744, -0.8925518925518926, -6.221001221001221, 1.03125, -0.53125, -0.03125, 1.0
475, -2.5042735042735043, -0.5738705738705738, -5.684981684981685, 0.5625, -0.53125, -0.03125, 1.0
476, -2.52014652014652, -0.7435897435897436, -4.428571428571429, 0.15625, -0.25, 0.09375, 1.0
477, -1.5665445665445665, -0.16483516483516483, -2.41025641025641, 0.0, -0.03125, 0.28125, 1.0
478, -0.8571428571428571, -0.5836385836385837, -1.5787545787545787, 0.15625, -0.0625, 0.34375, 1.0
479, -0.7741147741147741, -2.452991452991453, -1.971916971916972, 0.15625, -0.125, 0.1875, 1.0
480, -0.938949938949939, -1.4603174603174602, -1.155067155067155, -0.09375, -0.03125, 0.0, 1.0
481, -0.38583638583638585, -0.4981684981684982, -0.2442002442002442, -0.15625, 0.125, 0.0625, 1.0
482, 0.32234432234432236, -0.02197802197802198, 0.031746031746031744, 0.0, 0.03125, 0.03125, 1.0
483, 0.36996336996337, -0.7924297924297924, -0.6361416361416361, 0.0, -0.03125, 0.0, 1.0
484, 0.35775335775335776, -1.1257631257631258, -1.0976800976800978, -0.1875, 0.0625, -0.09375, 1.0
485, 0.16483516483516483, -0.39194139194139194, -0.4981684981684982, -0.25, 0.125, -0.0625, 1.0
486, 0.16971916971916973, -0.358974358974359, 0.006105006105006105, -0.1875, 0.125, 0.0, 1.0
487, 0.19413919413919414, -0.5482295482295483, 0.15384615384615385, -0.09375, 0.0, -0.03125, 1.0
488, 0.08058608058608059, -1.0964590964590966, -0.03785103785103785, -0.1875, 0.0, -0.09375, 1.0
489, -0.30158730158730157, -0.8058608058608059, 0.008547008547008548, -0.3125, 0.03125, -0.125, 1.0
490, -0.08547008547008547, -0.17582417582417584, 0.5372405372405372, -0.25, 0.03125, -0.0625, 1.0
491, 0.006105006105006105, -0.37606837606837606, 0.4822954822954823, -0.0625, -0.03125, -0.09375, 1.0
492, -0.08791208791208792, -0.57997557997558, 0.3431013431013431, -0.03125, -0.125, -0.09375, 1.0
493, -0.4358974358974359, -0.7594627594627594, 0.1514041514041514, -0.125, -0.03125, -0.09375, 1.0
494, -0.2222222222222222, 0.08669108669108669, 0.5665445665445665, -0.0625, 0.0, -0.09375, 1.0
495, -0.2979242979242979, -0.35775335775335776, 0.031746031746031744, 0.0625, -0.0625, -0.125, 1.0
496, -0.2673992673992674, -0.6947496947496947, -0.38583638583638585, 0.0625, -0.0625, -0.125, 1.0
497, -0.4542124542124542, -0.2954822954822955, -0.4652014652014652, 0.0, 0.0, -0.15625, 1.0
498, -0.12332112332112333, -0.23931623931623933, -0.5152625152625152, -0.03125, 0.03125, -0.09375, 1.0
499, -0.44078144078144077, -0.25274725274725274, -0.6617826617826618, 0.0, -0.03125, -0.09375, 1.0
500, -0.35653235653235654, -0.3492063492063492, -0.6398046398046398, 0.0, 0.0, -0.03125, 1.0
501, -0.40415140415140416, -0.8241758241758241, -0.9096459096459096, -0.09375, 0.0, 0.0, 1.0
502, -0.2905982905982906, -0.3724053724053724, -0.5018315018315018, -0.21875, 0.09375, -0.03125, 1.0
503, -0.2783882783882784, -0.38461538461538464, -0.3601953601953602, -0.25, 0.15625, 0.03125, 1.0
504, 0.01221001221001221, -0.2612942612942613, -0.12087912087912088, -0.25, 0.21875, 0.0625, 1.0
505, -0.10378510378510379, -0.3540903540903541, -0.315018315018315, -0.21875, 0.21875, 0.125, 1.0
506, -0.28205128205128205, -0.09401709401709402, -0.3516483516483517, -0.125, 0.1875, 0.25, 1.0
507, -0.47863247863247865, 0.030525030525030524, -0.36874236874236876, 0.09375, 0.21875, 0.375, 0.0
508, -0.19047619047619047, -0.6019536019536019, -0.6251526251526252, 0.25, 0.28125, 0.34375, 0.0
509, 0.49206349206349204, -1.291819291819292, -0.8034188034188035, 0.0625, 0.1875, 0.1875, 0.0
510, 0.15506715506715507, -0.7667887667887668, -0.8656898656898657, -0.03125, 0.03125, 0.0625, 0.0
511, 0.13797313797313798, -0.4078144078144078, -0.8290598290598291, -0.125, -0.15625, 0.09375, 0.0
512, -0.5653235653235653, -0.1514041514041514, -0.7838827838827839, -0.125, -0.15625, 0.28125, 0.0
513, -0.17826617826617827, -0.34065934065934067, -0.5225885225885226, -0.1875, -0.1875, 0.4375, 0.0
514, -0.22344322344322345, -1.2661782661782661, -0.9206349206349206, -0.4375, -0.25, 0.28125, 0.0
515, -0.9181929181929182, -1.0683760683760684, -0.9352869352869353, -0.625, 0.0, 0.09375, 0.0
516, -0.336996336996337, -0.4517704517704518, -0.442002442002442, -0.6875, 0.03125, 0.0625, 0.0
517, -0.590964590964591, 0.16971916971916973, -0.03907203907203907, -0.53125, 0.15625, 0.15625, 0.0
518, -0.4896214896214896, -0.27472527472527475, -0.008547008547008548, -0.4375, 0.09375, 0.15625, 0.0
519, -0.09645909645909646, -0.2844932844932845, -0.08669108669108669, -0.3125, 0.03125, 0.125, 0.0
520, 0.4358974358974359, -0.7704517704517705, -0.38583638583638585, -0.3125, -0.1875, 0.0625, 0.0
521, 1.236874236874237, -1.3125763125763126, -0.8595848595848596, -0.5, -0.65625, -0.21875, 0.0
522, 1.277167277167277, -1.3553113553113554, -1.1416361416361416, -0.78125, -1.4375, -0.75, 0.0
523, 0.14285714285714285, -0.8437118437118437, -1.164835164835165, -1.09375, -2.34375, -1.15625, 0.0
524, -1.3003663003663004, -0.37484737484737485, -0.9157509157509157, -1.375, -2.9375, -1.15625, 0.0
525, -1.3284493284493284, -0.02442002442002442, -0.45054945054945056, -1.59375, -3.40625, -0.90625, 0.0
526, -0.22954822954822954, -0.221001221001221, 0.14652014652014653, -1.78125, -4.125, -0.8125, 0.0
527, -0.3247863247863248, -0.5860805860805861, 0.757020757020757, -1.96875, -5.3125, -1.15625, 0.0
528, -2.68009768009768, -0.09035409035409035, 1.253968253968254, -2.15625, -6.375, -1.5, 0.0
529, -4.188034188034188, 0.41025641025641024, 1.1721611721611722, -1.96875, -6.4375, -1.34375, 0.0
530, -3.6544566544566544, -0.8266178266178266, 1.0256410256410255, -1.90625, -6.5, -1.34375, 0.0
531, -2.9645909645909647, -4.336996336996337, 1.3113553113553114, -2.0625, -7.09375, -1.71875, 0.0
532, -3.6507936507936507, -10.874236874236875, 2.8412698412698414, -2.4375, -7.78125, -1.75, 0.0
533, -4.478632478632479, -4.945054945054945, 3.5103785103785103, -2.25, -7.5625, -1.125, 0.0
534, -4.103785103785103, -2.597069597069597, 2.923076923076923, -1.4375, -6.78125, -0.8125, 0.0
535, -1.586080586080586, -3.2673992673992673, 2.2576312576312576, -1.03125, -6.65625, -1.15625, 0.0
536, -1.4603174603174602, -3.4493284493284495, 2.7655677655677655, -1.125, -7.25, -1.84375, 0.0
537, -3.2612942612942613, -2.536019536019536, 3.907203907203907, -1.25, -7.75, -1.90625, 0.0
538, -5.877899877899878, 1.0634920634920635, 3.3284493284493286, -0.3125, -6.90625, -0.84375, 0.0
539, -4.965811965811966, 0.8070818070818071, 1.7606837606837606, 0.84375, -5.40625, -0.09375, 0.0
540, -4.089133089133089, -1.2478632478632479, 0.12576312576312576, 1.28125, -3.6875, 0.0, 0.0
541, -1.6288156288156288, 0.13797313797313798, -0.8461538461538461, 1.28125, -3.1875, 0.3125, 0.0
542, 0.6898656898656899, -0.2979242979242979, -2.750915750915751, 2.0, -2.71875, 0.96875, 0.0
543, 3.142857142857143, -1.8168498168498168, -3.5445665445665444, 2.125, -2.8125, 0.8125, 0.0
544, 1.9059829059829059, -2.126984126984127, -3.5995115995115996, 1.5625, -3.53125, 0.0625, 0.0
545, -1.1904761904761905, 0.706959706959707, -3.800976800976801, 0.96875, -3.5, -0.4375, 0.0
546, -1.442002442002442, 2.5653235653235655, -4.819291819291819, 1.25, -2.53125, -0.15625, 0.0
547, 1.3467643467643469, 1.768009768009768, -6.151404151404152, 1.75, -1.78125, 0.5, 0.0
548, 2.0891330891330893, 0.3614163614163614, -6.78998778998779, 1.59375, -1.75, 0.625, 0.0
549, 0.8217338217338217, 0.7924297924297924, -6.435897435897436, 1.09375, -1.5, 0.375, 0.0
550, 0.35653235653235654, 1.0463980463980465, -5.183150183150183, 0.71875, -0.75, 0.34375, 0.0
551, 1.1831501831501832, 1.2002442002442002, -3.183150183150183, 0.40625, -0.375, 0.4375, 0.0
552, 0.4468864468864469, 1.606837606837607, -1.6434676434676434, 0.3125, -0.53125, 0.4375, 0.0
553, -0.03785103785103785, 1.5164835164835164, -0.7533577533577533, 0.4375, -0.5, 0.53125, 0.0
554, 0.11355311355311355, 0.894993894993895, -0.6691086691086691, 0.46875, -0.4375, 0.59375, 0.0
555, 0.3076923076923077, 0.23809523809523808, -0.6031746031746031, 0.40625, -0.46875, 0.5625, 0.0
556, 0.4884004884004884, 0.02564102564102564, -0.6971916971916972, 0.28125, -0.5625, 0.53125, 0.0
557, 0.43345543345543347, 0.5641025641025641, -0.7606837606837606, 0.4375, -0.53125, 0.5, 0.0
558, 0.3137973137973138, 0.3052503052503053, -1.3846153846153846, 0.59375, -0.375, 0.5, 0.0
559, 0.4017094017094017, -0.29914529914529914, -2.1880341880341883, 0.5, -0.15625, 0.4375, 0.0
560, 0.7277167277167277, -0.4554334554334554, -2.3003663003663, 0.1875, -0.125, 0.40625, 0.0
561, 0.557997557997558, -0.019536019536019536, -1.7863247863247864, 0.0625, -0.0625, 0.34375, 0.0
562, 0.3833943833943834, 0.10378510378510379, -1.2234432234432235, 0.09375, 0.0, 0.28125, 0.0
563, 0.34798534798534797, -0.054945054945054944, -0.8400488400488401, 0.09375, 0.0, 0.25, 0.0
564, -0.029304029304029304, -0.34676434676434675, -0.4945054945054945, -0.03125, 0.03125, 0.15625, 0.0
565, -0.08913308913308914, 0.07081807081807082, 0.042735042735042736, -0.15625, 0.03125, 0.09375, 0.0
566, -0.3235653235653236, 0.5274725274725275, 0.3137973137973138, -0.125, 0.0, 0.125, 0.0
567, -0.22832722832722832, 0.1562881562881563, 0.29304029304029305, 0.03125, 0.0, 0.125, 0.0
568, 0.045177045177045176, -0.06471306471306472, 0.16971916971916973, 0.0625, 0.0, 0.125, 0.0
569, -0.02197802197802198, -0.0231990231990232, 0.014652014652014652, 0.03125, -0.0625, 0.09375, 0.0
570, -0.20024420024420025, 0.07814407814407814, 0.003663003663003663, 0.0, -0.0625, 0.09375, 0.0
571, -0.042735042735042736, 0.15995115995115994, -0.10866910866910867, 0.0, 0.0, 0.15625, 0.0
572, 0.09768009768009768, -0.015873015873015872, -0.38217338217338215, 0.09375, 0.0, 0.15625, 0.0
573, -0.03296703296703297, -0.031746031746031744, -0.5091575091575091, 0.0625, 0.0625, 0.1875, 0.0
574, 0.014652014652014652, -0.017094017094017096, -0.3663003663003663, 0.0, 0.125, 0.21875, 0.0
575, -0.40293040293040294, 0.7741147741147741, -0.01098901098901099, 0.1875, 0.21875, 0.34375, 0.0
576, -0.8095238095238095, 0.9621489621489622, -0.07936507936507936, 0.46875, 0.5625, 0.5625, 1.0
577, -2.3211233211233213, 1.170940170940171, -0.9401709401709402, 0.875, 1.5, 1.03125, 1.0
578, -3.293040293040293, 1.9181929181929183, -1.5335775335775337, 1.1875, 2.78125, 1.96875, 1.0
579, -2.2014652014652016, 1.3443223443223444, -2.5824175824175826, 1.40625, 4.0625, 2.8125, 1.0
580, -0.14896214896214896, 0.7692307692307693, -2.722832722832723, 1.53125, 4.84375, 3.21875, 1.0
581, 1.3015873015873016, -0.2771672771672772, -3.087912087912088, 1.71875, 5.5, 3.3125, 1.0
582, 0.8241758241758241, -0.38705738705738707, -2.9853479853479854, 2.125, 6.71875, 3.34375, 1.0
583, -0.6617826617826618, 0.5201465201465202, -1.442002442002442, 3.09375, 8.71875, 3.46875, 1.0
584, 0.6495726495726496, 0.3785103785103785, 0.6825396825396826, 4.125, 10.1875, 3.53125, 1.0
585, 2.995115995115995, 0.10134310134310134, 1.6507936507936507, 4.6875, 10.28125, 3.09375, 1.0
586, 5.091575091575091, -0.8315018315018315, 1.181929181929182, 4.78125, 9.8125, 2.21875, 1.0
587, 2.6837606837606836, 0.4017094017094017, 3.3504273504273505, 4.6875, 8.96875, 1.34375, 1.0
588, 2.628815628815629, -0.7094017094017094, 3.156288156288156, 5.25, 8.8125, 1.3125, 1.0
589, 3.202686202686203, -2.2014652014652016, 2.094017094017094, 5.375, 7.84375, 1.21875, 1.0
590, 4.114774114774114, -3.6849816849816848, 0.8998778998778999, 5.0, 6.46875, 0.75, 1.0
591, 3.393162393162393, -2.393162393162393, 0.04395604395604396, 4.5, 4.875, 0.28125, 1.0
592, 3.111111111111111, -2.365079365079365, -1.1037851037851039, 4.375, 3.71875, -0.09375, 1.0
593, 2.4542124542124544, -4.007326007326007, -2.1514041514041513, 3.96875, 2.78125, -0.46875, 1.0
594, 1.5482295482295483, -3.313797313797314, -2.0781440781440783, 3.25, 1.90625, -0.84375, 1.0
595, 0.3785103785103785, -2.0207570207570207, -1.5128205128205128, 2.78125, 1.3125, -1.0, 1.0
596, -0.45665445665445664, -2.5702075702075704, -0.7728937728937729, 2.6875, 1.0625, -0.90625, 1.0
597, 0.06471306471306472, -2.896214896214896, -0.4810744810744811, 2.75, 0.75, -0.90625, 1.0
598, -0.8034188034188035, -3.8412698412698414, -1.1953601953601953, 2.78125, 0.125, -1.09375, 1.0
599, -1.2197802197802199, -2.1343101343101343, -1.94993894993895, 2.5625, -0.3125, -1.1875, 1.0
600, -1.8510378510378511, -1.4542124542124542, -3.028083028083028, 2.53125, -0.46875, -1.1875, 1.0
601, -2.5775335775335777, -1.0463980463980465, -3.761904761904762, 2.40625, -0.4375, -0.90625, 1.0
602, -1.7472527472527473, -1.5714285714285714, -5.0256410256410255, 1.90625, -0.625, -0.9375, 1.0
603, -2.166056166056166, -0.1575091575091575, -5.3247863247863245, 1.59375, -0.75, -0.90625, 1.0
604, -2.451770451770452, 0.24297924297924298, -5.9804639804639805, 1.375, -0.8125, -0.78125, 1.0
605, -3.277167277167277, 0.45665445665445664, -6.938949938949939, 1.15625, -0.71875, -0.59375, 1.0
606, -3.5323565323565322, 0.07448107448107448, -7.57997557997558, 0.6875, -0.53125, -0.40625, 1.0
607, -3.6727716727716726, 0.02564102564102564, -7.3870573870573875, 0.0625, -0.28125, -0.125, 1.0
608, -3.4957264957264957, 0.612942612942613, -5.893772893772894, -0.25, -0.125, 0.0625, 1.0
609, -3.081807081807082, 0.4810744810744811, -4.21978021978022, -0.34375, -0.03125, 0.25, 1.0
610, -2.021978021978022, 0.48473748473748474, -2.1196581196581197, -0.25, -0.15625, 0.46875, 1.0
611, -1.0341880341880343, -1.6153846153846154, -1.5995115995115996, -0.5, 0.03125, 0.25, 1.0
612, -0.6666666666666666, -0.2979242979242979, -0.009768009768009768, -0.6875, 0.28125, 0.21875, 1.0
613, 0.34554334554334554, -0.36996336996337, 0.7765567765567766, -0.4375, 0.40625, 0.3125, 1.0
614, 0.746031746031746, -0.16483516483516483, 1.1953601953601953, -0.25, 0.25, 0.21875, 1.0
615, 0.12576312576312576, -0.8205128205128205, 0.8412698412698413, -0.125, 0.0625, 0.15625, 1.0
616, 0.3724053724053724, -0.5470085470085471, 0.8998778998778999, -0.25, 0.125, 0.0, 1.0
617, 0.2905982905982906, 0.11477411477411477, 0.9987789987789988, -0.21875, 0.0625, 0.0, 1.0
618, 0.22832722832722832, 0.24786324786324787, 0.7484737484737485, -0.03125, 0.03125, 0.0, 1.0
619, 0.23076923076923078, -0.045177045177045176, 0.4432234432234432, 0.0625, 0.0, 0.0, 1.0
620, 0.03296703296703297, -0.525030525030525, -0.040293040293040296, 0.03125, 0.0, 0.0, 1.0
621, -0.017094017094017096, -0.02197802197802198, 0.02442002442002442, -0.0625, 0.0, -0.0625, 1.0
622, -0.12576312576312576, 0.1794871794871795, 0.019536019536019536, 0.0625, -0.03125, 0.0, 1.0
623, 0.029304029304029304, -0.017094017094017096, -0.09645909645909646, 0.09375, -0.0625, 0.0, 1.0
624, -0.28327228327228327, -0.1111111111111111, -0.4053724053724054, 0.0625, -0.09375, 0.0, 1.0
625, -0.32967032967032966, 0.047619047619047616, -0.6153846153846154, -0.03125, -0.0625, -0.03125, 1.0
626, -0.2857142857142857, 0.31868131868131866, -0.57997557997558, -0.03125, -0.03125, -0.03125, 1.0
627, -0.20024420024420025, 0.3089133089133089, -0.5103785103785103, 0.0, -0.03125, 0.0, 1.0
628, -0.15506715506715507, 0.029304029304029304, -0.6288156288156288, -0.03125, -0.03125, -0.0625, 1.0
629, -0.39438339438339437, 0.2515262515262515, -0.6568986568986569, -0.03125, -0.0625, -0.03125, 1.0
630, -0.568986568986569, 0.02564102564102564, -0.9145299145299145, -0.0625, 0.0, 0.0, 1.0
631, -0.43833943833943834, 0.08791208791208792, -0.6324786324786325, -0.09375, 0.03125, 0.0625, 1.0
632, -0.2893772893772894, -0.08913308913308914, -0.48595848595848595, -0.09375, 0.0625, 0.03125, 1.0
633, -0.1623931623931624, 0.06349206349206349, -0.336996336996337, -0.09375, 0.09375, 0.0, 1.0
634, -0.25518925518925517, 0.09523809523809523, -0.2869352869352869, -0.09375, 0.0625, 0.03125, 1.0
635, -0.05616605616605617, 0.05616605616605617, -0.16117216117216118, -0.0625, 0.125, 0.09375, 1.0
636, 0.2271062271062271, 0.07081807081807082, 0.03418803418803419, -0.0625, 0.125, 0.09375, 1.0
637, -0.16483516483516483, 0.045177045177045176, -0.2783882783882784, 0.0, 0.0, 0.0625, 1.0
638, -0.36385836385836384, 0.03785103785103785, -0.7130647130647131, 0.0, 0.0, 0.125, 1.0
639, -0.5238095238095238, 0.0757020757020757, -0.8803418803418803, -0.0625, 0.21875, 0.28125, 1.0
640, 0.2954822954822955, -0.031746031746031744, -0.8131868131868132, -0.125, 0.375, 0.3125, 1.0
641, 0.3492063492063492, 0.1794871794871795, -0.9084249084249084, -0.28125, 0.1875, 0.28125, 1.0
642, -0.12576312576312576, 0.4590964590964591, -1.304029304029304, -0.3125, 0.0, 0.1875, 0.0
643, -0.9120879120879121, 0.8327228327228328, -1.7997557997557998, -0.1875, -0.15625, 0.15625, 0.0
644, -1.540903540903541, 0.4627594627594628, -2.4725274725274726, 0.0, -0.1875, 0.34375, 0.0
645, -1.3064713064713065, 0.03540903540903541, -2.9108669108669107, 0.0, -0.3125, 0.71875, 0.0
646, -0.015873015873015872, -0.518925518925519, -3.0415140415140414, -0.3125, -1.0, 0.59375, 0.0
647, -0.5079365079365079, -0.4835164835164835, -3.31013431013431, -0.65625, -1.90625, 0.4375, 0.0
648, -2.4542124542124544, 0.1111111111111111, -3.572649572649573, -1.03125, -2.28125, 0.46875, 0.0
649, -3.2918192918192917, 0.20146520146520147, -3.6923076923076925, -1.40625, -2.15625, 0.625, 0.0
650, -0.7130647130647131, -0.14041514041514042, -3.1855921855921854, -2.0625, -2.90625, 0.375, 0.0
651, 3.3516483516483517, -0.4175824175824176, -1.7863247863247864, -3.0625, -5.3125, -0.59375, 0.0
652, 1.5543345543345544, -0.73992673992674, 1.1196581196581197, -4.1875, -8.1875, -1.40625, 0.0
653, -4.785103785103785, 2.537240537240537, 3.131868131868132, -4.5625, -8.78125, -1.125, 0.0
654, -6.803418803418803, 5.967032967032967, 2.9853479853479854, -4.0625, -7.65625, -0.21875, 0.0
655, -2.531135531135531, 7.531135531135531, 2.7936507936507935, -3.59375, -7.3125, 0.0, 0.0
656, -0.8559218559218559, 5.394383394383395, 3.956043956043956, -3.40625, -7.9375, -0.09375, 0.0
657, -1.7032967032967032, 3.2051282051282053, 0.5421245421245421, -2.71875, -6.9375, 0.0, 0.0
658, 1.641025641025641, 1.4285714285714286, 0.6336996336996337, -2.4375, -6.34375, -0.625, 0.0
659, -0.1978021978021978, 1.5909645909645909, 1.9047619047619047, -2.3125, -6.9375, -1.5, 0.0
660, -3.1172161172161172, 2.4664224664224665, 1.2148962148962148, -1.53125, -6.875, -1.3125, 0.0
661, -2.7948717948717947, 0.0989010989010989, -1.9645909645909645, -0.5, -5.5625, 0.0, 0.0
662, 1.7057387057387057, -2.416361416361416, -3.4188034188034186, -0.5625, -4.53125, 0.84375, 0.0
663, 2.5445665445665444, -0.8656898656898657, -1.706959706959707, -1.3125, -4.6875, 0.0625, 0.0
664, -0.5067155067155067, 2.0195360195360195, -0.6239316239316239, -1.21875, -4.84375, -0.78125, 0.0
665, -1.120879120879121, 1.8363858363858363, -1.702075702075702, -0.34375, -4.15625, -0.40625, 0.0
666, -0.5274725274725275, 0.6312576312576312, -2.5213675213675213, 0.21875, -3.25, 0.1875, 0.0
667, 1.3394383394383393, -0.778998778998779, -2.4224664224664223, 0.1875, -2.875, 0.15625, 0.0
668, 0.5091575091575091, -0.4725274725274725, -1.768009768009768, -0.53125, -3.21875, -0.34375, 0.0
669, -1.722832722832723, 2.3785103785103785, -1.3028083028083028, -0.125, -2.59375, 0.0625, 0.0
670, 0.3064713064713065, 1.6825396825396826, -2.6764346764346763, 0.59375, -1.90625, 0.71875, 0.0
671, 2.554334554334554, -0.42002442002442003, -3.8595848595848596, 0.53125, -1.875, 0.625, 0.0
672, 2.6043956043956045, -1.7045177045177045, -4.326007326007326, 0.0, -1.84375, 0.0, 0.0
673, 1.253968253968254, -0.2271062271062271, -3.7301587301587302, -0.375, -1.53125, -0.21875, 0.0
674, 0.1391941391941392, 1.0354090354090355, -2.4590964590964592, -0.3125, -1.0625, -0.03125, 0.0
675, -0.045177045177045176, 1.1465201465201464, -1.3223443223443223, 0.0, -0.6875, 0.21875, 0.0
676, 0.7692307692307693, 0.6483516483516484, -0.6691086691086691, 0.15625, -0.65625, 0.34375, 0.0
677, 0.9291819291819292, 0.14652014652014653, -0.6959706959706959, 0.125, -0.71875, 0.3125, 0.0
678, 0.4358974358974359, 0.28205128205128205, -0.8266178266178266, 0.09375, -0.59375, 0.3125, 0.0
679, 0.9084249084249084, 0.2625152625152625, -0.7704517704517705, 0.09375, -0.53125, 0.3125, 0.0
680, 0.5946275946275946, 0.11721611721611722, -0.9267399267399268, 0.15625, -0.6875, 0.125, 0.0
681, 0.23809523809523808, 0.3553113553113553, -1.1758241758241759, 0.25, -0.40625, 0.21875, 0.0
682, 0.46886446886446886, 0.01098901098901099, -1.4004884004884004, 0.3125, -0.09375, 0.34375, 0.0
683, 0.3516483516483517, -0.09523809523809523, -1.4371184371184371, 0.1875, -0.03125, 0.375, 0.0
684, 0.49694749694749696, 0.01221001221001221, -1.1257631257631258, 0.0625, -0.03125, 0.3125, 0.0
685, 0.4444444444444444, 0.08791208791208792, -0.6764346764346765, 0.0, -0.0625, 0.28125, 0.0
686, 0.12576312576312576, 0.0231990231990232, -0.4945054945054945, 0.09375, 0.0, 0.25, 0.0
687, -0.01098901098901099, -0.21367521367521367, -0.645909645909646, 0.15625, 0.15625, 0.25, 0.0
688, 0.452991452991453, -0.5775335775335775, -0.7924297924297924, 0.03125, 0.1875, 0.1875, 0.0
689, 0.3626373626373626, -0.18315018315018314, -0.7155067155067155, -0.21875, 0.0, 0.0, 0.0
690, -0.42002442002442003, 0.38461538461538464, -0.568986568986569, -0.3125, -0.09375, -0.03125, 0.0
691, -0.6556776556776557, 0.49694749694749696, -0.336996336996337, -0.21875, 0.03125, 0.09375, 0.0
692, -0.057387057387057384, 0.26495726495726496, -0.16117216117216118, -0.03125, 0.15625, 0.125, 0.0
693, 0.02197802197802198, -0.026862026862026864, -0.1575091575091575, -0.03125, 0.03125, 0.09375, 0.0
694, -0.0463980463980464, -0.16605616605616605, -0.27106227106227104, -0.09375, -0.03125, 0.0, 0.0
695, -0.42735042735042733, -0.15018315018315018, -0.17826617826617827, -0.1875, -0.0625, 0.0, 0.0
696, -0.4627594627594628, 0.18192918192918192, 0.10378510378510379, -0.125, 0.0, -0.03125, 0.0
697, -0.5482295482295483, 0.12942612942612944, 0.23687423687423687, -0.03125, 0.0, 0.0, 0.0
698, -0.2954822954822955, -0.20757020757020758, 0.21733821733821734, 0.0, 0.03125, 0.03125, 0.0
699, -0.39194139194139194, -0.31746031746031744, 0.1111111111111111, -0.03125, 0.0, 0.0625, 0.0
700, -0.14041514041514042, -0.23076923076923078, 0.23931623931623933, -0.0625, 0.0, 0.03125, 0.0
701, -0.326007326007326, -0.014652014652014652, 0.2893772893772894, -0.03125, 0.0, 0.03125, 0.0
702, -0.07692307692307693, -0.040293040293040296, 0.326007326007326, 0.03125, 0.0, 0.0625, 0.0
703, -0.16605616605616605, -0.003663003663003663, 0.19413919413919414, 0.125, 0.0, 0.09375, 0.0
704, -0.1514041514041514, -0.2576312576312576, -0.21978021978021978, 0.03125, 0.0, 0.0625, 0.0
705, -0.017094017094017096, 0.07448107448107448, -0.008547008547008548, -0.03125, 0.0, 0.03125, 0.0
706, -0.13553113553113552, 0.11477411477411477, -0.004884004884004884, 0.03125, -0.03125, 0.03125, 0.0
707, -0.06837606837606838, 0.031746031746031744, -0.1684981684981685, 0.125, 0.0, 0.125, 0.0
708, 0.2258852258852259, -0.2271062271062271, -0.29426129426129427, 0.125, 0.03125, 0.125, 0.0
709, 0.5494505494505495, -0.37484737484737485, -0.2905982905982906, 0.03125, -0.03125, 0.03125, 0.0
710, 0.2442002442002442, -0.08791208791208792, -0.14774114774114774, -0.125, -0.1875, -0.0625, 0.0
711, -0.1807081807081807, 0.4444444444444444, 0.06471306471306472, -0.125, -0.25, 0.0, 0.0
712, 0.19413919413919414, 0.3553113553113553, 0.2258852258852259, 0.0, -0.1875, 0.0625, 0.0
713, 0.19291819291819293, -0.19658119658119658, -0.04884004884004884, 0.1875, -0.21875, 0.15625, 0.0
714, 0.7411477411477412, -0.5641025641025641, -0.02564102564102564, 0.03125, -0.28125, -0.03125, 1.0
715, -0.20512820512820512, 0.7228327228327228, -0.06227106227106227, 0.15625, -0.25, -0.1875, 1.0
716, -0.1746031746031746, 0.6642246642246642, -0.4053724053724054, 0.40625, 0.09375, -0.09375, 1.0
717, 0.006105006105006105, 0.2503052503052503, -1.6056166056166057, 0.40625, 0.40625, 0.09375, 1.0
718, 0.10500610500610501, 0.6373626373626373, -2.2063492063492065, 0.28125, 0.8125, 0.34375, 1.0
719, -0.18681318681318682, 1.1294261294261294, -3.2246642246642248, 0.375, 1.4375, 0.6875, 1.0
720, -1.120879120879121, 1.7728937728937728, -4.561660561660561, 0.65625, 2.65625, 1.40625, 1.0
721, -0.5299145299145299, 1.1587301587301588, -5.0256410256410255, 1.0, 3.90625, 2.0, 1.0
722, 0.6324786324786325, 0.884004884004884, -4.5677655677655675, 1.375, 5.03125, 2.25, 1.0
723, 1.962148962148962, 0.15995115995115994, -3.9621489621489623, 1.78125, 5.875, 1.90625, 1.0
724, 2.4725274725274726, -0.7912087912087912, -3.3907203907203907, 1.90625, 6.53125, 1.25, 1.0
725, 1.4615384615384615, 0.14774114774114774, -2.5347985347985347, 2.34375, 7.28125, 1.03125, 1.0
726, -0.8021978021978022, 1.2905982905982907, -1.612942612942613, 3.59375, 8.625, 1.6875, 1.0
727, 1.7887667887667889, -0.1746031746031746, 1.8278388278388278, 4.125, 9.90625, 1.875, 1.0
728, 2.57997557997558, 0.15506715506715507, 2.0415140415140414, 4.46875, 9.8125, 1.5625, 1.0
729, 3.2612942612942613, 0.09768009768009768, 2.1465201465201464, 4.5625, 9.09375, 1.0, 1.0
730, 1.8437118437118436, 1.3357753357753357, 2.056166056166056, 4.6875, 8.3125, 0.53125, 1.0
731, 2.0097680097680097, 0.5763125763125763, 1.2735042735042734, 5.03125, 7.34375, 0.15625, 1.0
732, 0.08547008547008547, -1.3418803418803418, -0.2869352869352869, 5.09375, 6.25, 0.125, 1.0
733, 0.8412698412698413, -1.6434676434676434, -1.1062271062271063, 4.75, 5.625, 0.15625, 1.0
734, 0.9157509157509157, -2.52991452991453, -1.4578754578754578, 4.375, 4.84375, 0.09375, 1.0
735, 1.84981684981685, -2.0720390720390722, -1.5555555555555556, 4.09375, 3.96875, 0.0, 1.0
736, 2.7106227106227108, -2.7496947496947497, -2.1465201465201464, 3.84375, 2.78125, -0.25, 1.0
737, 1.6862026862026862, -2.9731379731379732, -2.6788766788766787, 3.40625, 1.78125, -0.65625, 1.0
738, 0.3772893772893773, -3.0036630036630036, -2.7887667887667886, 2.75, 1.375, -1.03125, 1.0
739, 0.20634920634920634, -2.039072039072039, -2.0744810744810747, 2.59375, 1.21875, -0.96875, 1.0
740, 0.231990231990232, -2.075702075702076, -1.778998778998779, 2.65625, 0.6875, -0.96875, 1.0
741, -0.33943833943833945, -2.5384615384615383, -2.3894993894993894, 2.5, 0.15625, -1.09375, 1.0
742, -1.4126984126984128, -2.741147741147741, -3.2783882783882783, 2.03125, 0.0, -1.15625, 1.0
743, -1.818070818070818, -1.465201465201465, -3.087912087912088, 1.8125, -0.03125, -1.09375, 1.0
744, -1.1575091575091576, -0.4603174603174603, -3.0805860805860807, 1.9375, -0.375, -0.96875, 1.0
745, -1.6874236874236874, -1.4432234432234432, -4.478632478632479, 1.75, -0.6875, -1.0, 1.0
746, -2.8705738705738706, -1.2087912087912087, -5.174603174603175, 1.28125, -0.59375, -0.875, 1.0
747, -3.413919413919414, -0.06105006105006105, -5.045177045177045, 1.0625, -0.3125, -0.53125, 1.0
748, -2.755799755799756, -0.09645909645909646, -4.771672771672772, 0.90625, -0.1875, -0.28125, 1.0
749, -2.0268620268620268, -0.2796092796092796, -4.3638583638583635, 0.75, -0.4375, -0.28125, 1.0
750, -3.2246642246642248, -0.8278388278388278, -4.5506715506715505, 0.28125, -0.53125, -0.1875, 1.0
751, -3.028083028083028, -0.09523809523809523, -3.183150183150183, -0.09375, -0.15625, 0.03125, 1.0
752, -1.7985347985347986, -0.31746031746031744, -2.0146520146520146, -0.1875, 0.03125, 0.21875, 1.0
753, -1.304029304029304, -0.503052503052503, -1.4102564102564104, -0.1875, 0.0, 0.1875, 1.0
754, -1.2747252747252746, -1.2905982905982907, -1.253968253968254, -0.15625, -0.03125, 0.125, 1.0
755, -1.1062271062271063, -1.1843711843711844, -0.7655677655677655, -0.28125, 0.0625, 0.0625, 1.0
756, -0.5372405372405372, -0.43833943833943834, -0.052503052503052504, -0.375, 0.1875, 0.15625, 1.0
757, -0.05128205128205128, -0.05616605616605617, 0.23809523809523808, -0.28125, 0.1875, 0.1875, 1.0
758, 0.30158730158730157, -0.336996336996337, 0.2087912087912088, -0.09375, 0.09375, 0.21875, 1.0
759, 0.442002442002442, -1.0525030525030525, -0.19658119658119658, -0.125, 0.0, 0.125, 1.0
760, 0.09401709401709402, -0.3028083028083028, 0.22954822954822954, -0.3125, 0.03125, 0.0, 1.0
761, 0.21367521367521367, 0.07692307692307693, 0.6178266178266179, -0.21875, 0.125, 0.09375, 1.0
762, 0.5299145299145299, -0.20146520146520147, 0.7301587301587301, -0.03125, 0.0, 0.09375, 1.0
763, 0.4627594627594628, -0.21367521367521367, 0.6312576312576312, 0.03125, -0.09375, 0.03125, 1.0
764, 0.326007326007326, -0.4261294261294261, 0.10866910866910867, 0.0, -0.125, -0.03125, 1.0
765, 0.07081807081807082, -0.3797313797313797, -0.2442002442002442, -0.125, -0.125, -0.125, 1.0
766, -0.31013431013431014, 0.12087912087912088, -0.30158730158730157, -0.0625, -0.0625, -0.09375, 1.0
767, -0.4017094017094017, 0.05128205128205128, -0.19658119658119658, 0.0, 0.0, 0.0, 1.0
768, -0.2576312576312576, -0.16605616605616605, -0.24786324786324787, 0.0, 0.0, 0.0, 1.0
769, -0.3199023199023199, -0.326007326007326, -0.2783882783882784, -0.0625, -0.03125, -0.03125, 1.0
770, -0.34065934065934067, -0.1746031746031746, -0.3663003663003663, -0.09375, -0.09375, -0.0625, 1.0
771, -0.6141636141636142, -0.1807081807081807, -0.326007326007326, -0.09375, 0.0, 0.0, 1.0
772, -0.2967032967032967, -0.014652014652014652, -0.13797313797313798, -0.03125, 0.03125, 0.03125, 1.0
773, -0.14652014652014653, -0.2087912087912088, -0.23565323565323565, -0.03125, -0.03125, 0.03125, 1.0
774, -0.30036630036630035, -0.231990231990232, -0.2905982905982906, -0.03125, 0.0, 0.03125, 1.0
775, -0.11721611721611722, -0.21001221001221002, -0.22832722832722832, -0.03125, 0.0, 0.03125, 1.0
776, -0.029304029304029304, -0.11965811965811966, -0.13186813186813187, -0.0625, 0.03125, 0.0625, 1.0
777, -0.002442002442002442, -0.17704517704517705, -0.15873015873015872, 0.0, 0.03125, 0.0625, 1.0
778, -0.17094017094017094, -0.23687423687423687, -0.2844932844932845, 0.0, 0.0, 0.0625, 1.0
779, -0.25518925518925517, -0.19658119658119658, -0.3504273504273504, 0.0, 0.03125, 0.09375, 1.0
780, -0.3076923076923077, -0.17338217338217338, -0.5494505494505495, -0.09375, 0.125, 0.15625, 1.0
781, -0.26373626373626374, 0.13186813186813187, -0.45787545787545786, -0.1875, 0.21875, 0.25, 1.0
782, -0.12942612942612944, 0.24175824175824176, -0.2454212454212454, -0.03125, 0.21875, 0.25, 0.0
783, 0.1562881562881563, -0.008547008547008548, -0.12087912087912088, 0.21875, 0.25, 0.1875, 0.0
784, -0.16727716727716727, -0.36874236874236876, -0.46886446886446886, 0.21875, 0.1875, 0.21875, 0.0
785, -0.2673992673992674, -0.37362637362637363, -0.6239316239316239, 0.0625, 0.15625, 0.1875, 0.0
786, -0.15873015873015872, -0.2857142857142857, -0.4139194139194139, -0.09375, 0.09375, 0.15625, 0.0
787, -0.1562881562881563, -0.1221001221001221, -0.2869352869352869, -0.125, 0.0, 0.09375, 0.0
788, -0.3553113553113553, -0.02197802197802198, -0.3137973137973138, -0.0625, 0.0, 0.125, 0.0
789, -0.30158730158730157, -0.15018315018315018, -0.4835164835164835, 0.0, -0.03125, 0.15625, 0.0
790, -0.45054945054945056, -0.1807081807081807, -0.7814407814407814, 0.0, 0.0, 0.1875, 0.0
791, -0.23809523809523808, -0.4554334554334554, -1.0879120879120878, -0.09375, 0.03125, 0.09375, 0.0
792, -0.14407814407814407, -0.21367521367521367, -1.2564102564102564, -0.25, -0.0625, 0.03125, 0.0
793, -0.7912087912087912, -0.07814407814407814, -1.465201465201465, -0.34375, -0.1875, 0.03125, 0.0
794, -1.1428571428571428, -0.07081807081807082, -1.7924297924297925, -0.40625, -0.1875, 0.125, 0.0
795, -0.9804639804639804, -0.15384615384615385, -2.081807081807082, -0.53125, -0.40625, 0.21875, 0.0
796, -0.8400488400488401, -0.1623931623931624, -2.352869352869353, -0.875, -1.03125, 0.28125, 0.0
797, -0.9560439560439561, -0.4126984126984127, -2.1196581196581197, -1.21875, -1.5625, 0.25, 0.0
798, -1.6373626373626373, 0.2148962148962149, -1.7008547008547008, -1.46875, -2.15625, 0.1875, 0.0
799, -1.971916971916972, 0.5384615384615384, -1.7826617826617828, -1.5, -2.53125, 0.21875, 0.0
800, -0.9108669108669109, -0.1282051282051282, -2.0146520146520146, -1.5, -3.03125, 0.09375, 0.0
801, -0.6874236874236874, -1.133089133089133, -1.465201465201465, -1.9375, -4.09375, -0.25, 0.0
802, -1.105006105006105, -0.19536019536019536, -0.32967032967032966, -2.71875, -5.25, -0.625, 0.0
803, -3.391941391941392, 2.0781440781440783, 0.4139194139194139, -3.125, -6.0, -0.65625, 0.0
804, -3.8290598290598292, 3.954822954822955, 0.5824175824175825, -2.90625, -6.0, -0.34375, 0.0
805, -2.741147741147741, 5.391941391941392, 0.38705738705738707, -2.5625, -5.875, 0.125, 0.0
806, -0.4810744810744811, 7.293040293040293, 0.9304029304029304, -2.625, -6.40625, 0.0625, 0.0
807, -1.5238095238095237, 6.097680097680097, 2.0854700854700856, -3.0625, -7.46875, -0.21875, 0.0
808, -3.3443223443223444, 4.36019536019536, 2.0793650793650795, -3.0, -7.125, -0.0625, 0.0
809, -1.8131868131868132, 2.8034188034188032, 1.6800976800976801, -2.5, -6.65625, -0.3125, 0.0
810, 0.1111111111111111, 0.25396825396825395, 2.6849816849816848, -2.34375, -7.21875, -1.09375, 0.0
811, -0.811965811965812, 0.050061050061050064, 3.6043956043956045, -1.9375, -7.71875, -1.15625, 0.0
812, -2.5225885225885225, 1.0708180708180708, 2.0903540903540905, -0.96875, -6.96875, -0.40625, 0.0
813, -1.4981684981684982, -0.3601953601953602, -0.1562881562881563, -0.34375, -5.96875, 0.03125, 0.0
814, 0.36996336996337, -1.098901098901099, -0.3724053724053724, -0.5, -5.78125, -0.03125, 0.0
815, 0.018315018315018316, -1.017094017094017, -1.0793650793650793, -0.46875, -5.40625, -0.1875, 0.0
816, 0.3663003663003663, -0.7557997557997558, -2.2112332112332114, -0.25, -4.65625, -0.125, 0.0
817, 0.8315018315018315, -0.24053724053724054, -2.7326007326007327, -0.09375, -4.03125, -0.03125, 0.0
818, 1.1477411477411477, 0.409035409035409, -2.8986568986568986, 0.1875, -3.5625, -0.15625, 0.0
819, 0.894993894993895, -0.21855921855921856, -3.1623931623931623, 0.15625, -3.4375, -0.21875, 0.0
820, -1.3406593406593406, 1.5775335775335775, -2.84004884004884, 0.34375, -2.375, 0.03125, 0.0
821, -0.15384615384615385, 2.0024420024420024, -3.402930402930403, 1.03125, -1.625, 0.75, 0.0
822, 1.855921855921856, -0.2576312576312576, -4.945054945054945, 1.53125, -0.9375, 1.15625, 0.0
823, 3.3174603174603177, -1.2783882783882783, -5.942612942612943, 1.25, -0.75, 0.96875, 0.0
824, 3.1013431013431014, -0.5396825396825397, -5.6996336996337, 0.59375, -0.84375, 0.46875, 0.0
825, 1.4676434676434675, 0.9035409035409036, -4.538461538461538, 0.125, -0.71875, 0.28125, 0.0
826, 0.6507936507936508, 1.4407814407814408, -3.083028083028083, 0.03125, -0.34375, 0.375, 0.0
827, 0.7411477411477412, 1.5677655677655677, -1.7985347985347986, 0.09375, 0.0, 0.5625, 0.0
828, 1.3357753357753357, 1.0732600732600732, -1.2112332112332111, 0.1875, 0.03125, 0.71875, 0.0
829, 1.5152625152625152, 0.47374847374847373, -0.9413919413919414, 0.125, -0.09375, 0.65625, 0.0
830, 1.2637362637362637, 0.10744810744810745, -0.6813186813186813, -0.03125, -0.25, 0.5, 0.0
831, 1.028083028083028, 0.5445665445665445, -0.42735042735042733, -0.0625, -0.1875, 0.28125, 0.0
832, 0.6654456654456654, 0.6874236874236874, -0.38095238095238093, 0.03125, -0.0625, 0.3125, 0.0
833, 0.5592185592185592, 0.6434676434676435, -0.40293040293040294, 0.1875, 0.0, 0.28125, 0.0
834, 1.0732600732600732, -0.13186813186813187, -0.8131868131868132, 0.125, -0.09375, 0.21875, 0.0
835, 0.4835164835164835, -0.4297924297924298, -0.9975579975579976, -0.125, -0.125, 0.09375, 0.0
836, 0.1575091575091575, -0.020757020757020756, -0.8962148962148963, -0.25, 0.03125, 0.09375, 0.0
837, 0.10500610500610501, 0.4371184371184371, -0.5299145299145299, -0.15625, 0.15625, 0.1875, 0.0
838, 0.5213675213675214, 0.10744810744810745, -0.3443223443223443, -0.09375, 0.09375, 0.21875, 0.0
839, 0.4835164835164835, 0.01221001221001221, -0.2600732600732601, -0.0625, -0.03125, 0.125, 0.0
840, 0.007326007326007326, -0.3199023199023199, -0.47985347985347987, -0.125, 0.0, 0.03125, 0.0
841, -0.16971916971916973, -0.18315018315018314, -0.3540903540903541, -0.1875, 0.0625, 0.0, 0.0
842, -0.054945054945054944, 0.11721611721611722, 0.04395604395604396, -0.15625, 0.0625, 0.03125, 0.0
843, -0.08669108669108669, -0.054945054945054944, 0.06715506715506715, 0.0, 0.0, 0.03125, 0.0
844, -0.13675213675213677, -0.08669108669108669, -0.0757020757020757, -0.03125, -0.03125, 0.0625, 0.0
845, 0.01098901098901099, -0.28815628815628813, -0.12942612942612944, -0.0625, -0.0625, 0.0, 0.0
846, 0.006105006105006105, -0.02442002442002442, 0.06349206349206349, -0.125, -0.0625, -0.0625, 0.0
847, -0.06471306471306472, 0.04395604395604396, 0.1514041514041514, -0.09375, -0.03125, -0.0625, 0.0
848, -0.24786324786324787, 0.10012210012210013, 0.2148962148962149, -0.03125, -0.03125, 0.0, 0.0
849, -0.10500610500610501, -0.045177045177045176, 0.14652014652014653, 0.0, -0.03125, 0.0, 0.0
850, -0.1978021978021978, -0.006105006105006105, 0.19658119658119658, 0.0, -0.0625, 0.0, 0.0
851, -0.18192918192918192, 0.1330891330891331, 0.3162393162393162, 0.0, -0.0625, 0.0, 0.0
852, 0.07203907203907203, 0.06227106227106227, 0.4065934065934066, 0.09375, -0.0625, 0.0, 0.0
853, 0.28815628815628813, 0.007326007326007326, 0.5042735042735043, 0.1875, -0.125, -0.03125, 0.0
854, -0.006105006105006105, 0.07203907203907203, 0.35653235653235654, 0.25, -0.28125, 0.0, 0.0
855, -0.5860805860805861, 0.25274725274725274, 0.08547008547008547, 0.34375, -0.09375, 0.1875, 0.0
856, -0.07203907203907203, -0.10012210012210013, -0.14407814407814407, 0.28125, 0.0, 0.25, 0.0
857, 0.5079365079365079, 0.46153846153846156, -0.15018315018315018, 0.28125, -0.125, 0.3125, 0.0
858, 1.5164835164835164, -0.08913308913308914, -0.40293040293040294, 0.1875, -0.46875, 0.09375, 0.0
859, 0.778998778998779, 0.08791208791208792, -0.7924297924297924, 0.15625, -0.53125, -0.15625, 1.0
860, 0.231990231990232, 0.11233211233211234, -1.5323565323565325, 0.25, 0.0, -0.1875, 1.0
861, 0.3443223443223443, 1.3272283272283272, -2.126984126984127, 0.40625, 0.4375, 0.1875, 1.0
862, -0.796092796092796, 2.087912087912088, -2.995115995115995, 0.75, 1.1875, 0.8125, 1.0
863, -2.2234432234432235, 2.5604395604395602, -3.935286935286935, 1.28125, 2.71875, 1.71875, 1.0
864, -0.4432234432234432, 1.3443223443223444, -4.643467643467644, 1.6875, 4.03125, 2.40625, 1.0
865, 1.3113553113553114, -0.6581196581196581, -5.1330891330891335, 1.71875, 5.0, 2.4375, 1.0
866, 2.960927960927961, -1.3272283272283272, -2.238095238095238, 1.78125, 6.1875, 1.78125, 1.0
867, 1.8766788766788767, -0.47619047619047616, -0.7374847374847375, 2.5625, 7.28125, 1.46875, 1.0
868, 1.835164835164835, -0.9352869352869353, 0.2967032967032967, 3.3125, 8.34375, 1.53125, 1.0
869, 3.0903540903540905, -1.5006105006105006, 0.57997557997558, 3.875, 8.8125, 1.46875, 1.0
870, 4.007326007326007, -1.1575091575091576, 0.8534798534798534, 4.0625, 8.5625, 1.03125, 1.0
871, 3.6483516483516483, 0.017094017094017096, 1.065934065934066, 4.125, 8.0, 0.46875, 1.0
872, 3.363858363858364, 1.0647130647130647, 0.8901098901098901, 4.09375, 7.0, 0.0, 1.0
873, 1.6251526251526252, 1.3052503052503053, 0.013431013431013432, 4.15625, 6.09375, -0.375, 1.0
874, 0.7912087912087912, 1.6862026862026862, -0.42735042735042733, 4.1875, 5.53125, -0.53125, 1.0
875, 0.33821733821733824, 1.0940170940170941, -1.0317460317460319, 4.34375, 5.3125, -0.53125, 1.0
876, 1.2295482295482296, 0.7289377289377289, -1.4114774114774116, 4.40625, 5.0, -0.4375, 1.0
877, 0.8717948717948718, -0.6800976800976801, -1.9584859584859584, 4.375, 4.34375, -0.375, 1.0
878, 0.9536019536019537, -1.5262515262515262, -2.2576312576312576, 4.03125, 3.6875, -0.25, 1.0
879, 0.8327228327228328, -1.6800976800976801, -2.358974358974359, 3.78125, 3.40625, -0.25, 1.0
880, 0.31013431013431014, -1.8363858363858363, -2.017094017094017, 3.625, 3.21875, -0.21875, 1.0
881, 1.435897435897436, -2.3907203907203907, -2.076923076923077, 3.5, 2.625, -0.40625, 1.0
882, 1.8473748473748475, -3.242979242979243, -2.993894993894994, 2.9375, 1.6875, -0.90625, 1.0
883, -0.17338217338217338, -2.5323565323565322, -3.4590964590964592, 2.375, 1.03125, -1.1875, 1.0
884, -2.183150183150183, -2.4126984126984126, -3.572649572649573, 2.15625, 1.125, -1.09375, 1.0
885, -0.9633699633699634, -2.004884004884005, -3.733821733821734, 1.875, 0.84375, -1.125, 1.0
886, -0.7203907203907204, -1.2857142857142858, -3.913308913308913, 1.59375, 0.125, -1.3125, 1.0
887, -2.669108669108669, -0.42002442002442003, -4.797313797313797, 1.375, -0.125, -1.25, 1.0
888, -3.41025641025641, -0.0463980463980464, -5.468864468864469, 1.125, -0.03125, -0.9375, 1.0
889, -3.299145299145299, 0.08791208791208792, -5.261294261294261, 0.75, 0.03125, -0.53125, 1.0
890, -2.31990231990232, 0.44078144078144077, -4.328449328449328, 0.4375, -0.1875, -0.53125, 1.0
891, -2.4297924297924296, 0.7936507936507936, -3.9804639804639805, 0.28125, -0.5, -0.40625, 1.0
892, -2.8107448107448105, 0.6898656898656899, -3.912087912087912, 0.25, -0.53125, -0.25, 1.0
893, -2.600732600732601, 0.43956043956043955, -3.3882783882783882, 0.125, -0.28125, 0.03125, 1.0
894, -1.4432234432234432, -0.16971916971916973, -2.4126984126984126, 0.0, 0.0, 0.1875, 1.0
895, -0.7106227106227107, -0.17582417582417584, -1.5726495726495726, -0.15625, -0.0625, 0.125, 1.0
896, -1.0634920634920635, -0.004884004884004884, -1.2661782661782661, -0.15625, -0.1875, 0.03125, 1.0
897, -0.9792429792429792, -0.2271062271062271, -1.0036630036630036, -0.15625, -0.15625, 0.09375, 1.0
898, -0.7594627594627594, -0.21001221001221002, -0.5763125763125763, -0.28125, -0.03125, 0.125, 1.0
899, -0.2515262515262515, -0.4249084249084249, -0.4236874236874237, -0.34375, 0.0625, 0.09375, 1.0
900, -0.002442002442002442, 0.07203907203907203, 0.0695970695970696, -0.375, 0.0625, 0.03125, 1.0
901, 0.06471306471306472, 0.0463980463980464, 0.3052503052503053, -0.1875, 0.0, 0.125, 1.0
902, 0.09523809523809523, -0.514041514041514, 0.336996336996337, -0.1875, 0.03125, 0.09375, 1.0
903, 0.029304029304029304, -0.5873015873015873, 0.5482295482295483, -0.125, 0.125, 0.0625, 1.0
904, 0.34554334554334554, -0.3833943833943834, 0.7728937728937729, -0.03125, 0.0625, 0.03125, 1.0
905, 0.36752136752136755, -0.08669108669108669, 0.7326007326007326, 0.03125, -0.03125, 0.03125, 1.0
906, 0.3064713064713065, -0.019536019536019536, 0.4542124542124542, 0.125, -0.0625, 0.0, 1.0
907, 0.231990231990232, -0.37484737484737485, -0.07936507936507936, 0.03125, -0.09375, -0.03125, 1.0
908, -0.08913308913308914, 0.03296703296703297, -0.221001221001221, 0.0, -0.09375, -0.0625, 1.0
909, -0.14774114774114774, 0.19413919413919414, -0.36874236874236876, 0.03125, -0.03125, -0.03125, 1.0
910, -0.03785103785103785, 0.15262515262515264, -0.34676434676434675, 0.0, -0.03125, -0.03125, 1.0
911, -0.3089133089133089, -0.03296703296703297, -0.4249084249084249, -0.03125, -0.03125, -0.03125, 1.0
912, -0.398046398046398, -0.057387057387057384, -0.5079365079365079, -0.09375, 0.0, 0.0, 1.0
913, -0.22466422466422467, 0.07448107448107448, -0.16483516483516483, -0.03125, 0.0, 0.0, 1.0
914, 0.01221001221001221, 0.02564102564102564, 0.08058608058608059, 0.0, 0.0, 0.0, 1.0
915, -0.14041514041514042, -0.30036630036630035, -0.1514041514041514, 0.03125, -0.0625, 0.0, 1.0
916, -0.26495726495726496, -0.4017094017094017, -0.33455433455433453, 0.0, -0.0625, -0.03125, 1.0
917, -0.15873015873015872, 0.0695970695970696, -0.05982905982905983, -0.03125, 0.0, 0.0, 1.0
918, 0.0231990231990232, -0.02197802197802198, 0.003663003663003663, 0.03125, 0.0, 0.0, 1.0
919, -0.1562881562881563, -0.16361416361416362, -0.24175824175824176, 0.125, -0.03125, 0.0, 1.0
920, -0.3321123321123321, -0.23321123321123322, -0.5775335775335775, 0.09375, -0.0625, 0.0, 1.0
921, -0.4297924297924298, -0.03296703296703297, -0.684981684981685, 0.0, 0.0, 0.0, 1.0
922, -0.2905982905982906, 0.11233211233211234, -0.7838827838827839, -0.0625, 0.09375, 0.0, 1.0
923, -0.6593406593406593, -0.047619047619047616, -1.1355311355311355, -0.15625, 0.09375, 0.03125, 1.0
924, -0.9841269841269841, 0.07326007326007326, -1.6556776556776556, -0.5625, 0.28125, 0.25, 1.0
925, -0.5262515262515263, 0.6776556776556777, -1.3394383394383393, -0.46875, 0.28125, 0.25, 0.0
926, -0.6214896214896215, 0.7216117216117216, -1.1941391941391941, -0.1875, 0.25, 0.21875, 0.0
927, -0.463980463980464, 0.3052503052503053, -1.2112332112332111, 0.0, 0.125, 0.1875, 0.0
928, -0.2796092796092796, 0.3028083028083028, -1.017094017094017, 0.0625, -0.125, 0.21875, 0.0
929, -0.8656898656898657, 0.007326007326007326, -1.181929181929182, 0.0625, -0.28125, 0.25, 0.0
930, -0.9242979242979243, -0.2857142857142857, -0.960927960927961, -0.0625, -0.28125, 0.25, 0.0
931, -0.8437118437118437, 0.2039072039072039, -0.8412698412698413, -0.15625, -0.40625, 0.25, 0.0
932, -0.3540903540903541, 0.25518925518925517, -0.851037851037851, -0.21875, -0.6875, 0.28125, 0.0
933, -1.2234432234432235, -0.2625152625152625, -1.398046398046398, -0.3125, -0.90625, 0.28125, 0.0
934, -0.9218559218559218, -0.9328449328449329, -1.945054945054945, -0.5625, -1.40625, 0.0625, 0.0
935, -0.02197802197802198, -1.1025641025641026, -2.283272283272283, -1.0625, -2.59375, -0.34375, 0.0
936, -0.14896214896214896, -0.4652014652014652, -2.2405372405372406, -2.15625, -5.0625, -1.15625, 0.0
937, -3.873015873015873, 0.514041514041514, -1.2625152625152625, -2.875, -6.46875, -1.34375, 0.0
938, -5.816849816849817, 1.6434676434676434, -0.38095238095238093, -3.28125, -6.71875, -0.96875, 0.0
939, -5.897435897435898, 3.416361416361416, 0.2490842490842491, -3.3125, -6.375, -0.25, 0.0
940, -4.444444444444445, 5.289377289377289, 0.6263736263736264, -3.0625, -5.90625, 0.40625, 0.0
941, -1.4737484737484738, 6.936507936507937, 0.6031746031746031, -2.875, -5.8125, 0.8125, 0.0
942, -0.15384615384615385, 6.525030525030525, 1.3247863247863247, -3.0625, -6.375, 0.53125, 0.0
943, -0.7496947496947497, 4.787545787545787, 1.8168498168498168, -3.125, -6.8125, 0.09375, 0.0
944, -1.8363858363858363, 3.3333333333333335, 1.8058608058608059, -2.78125, -6.71875, -0.03125, 0.0
945, -0.18681318681318682, 1.054945054945055, 0.9438339438339438, -2.03125, -6.0625, 0.09375, 0.0
946, 2.1184371184371185, -0.7887667887667887, 0.9316239316239316, -1.75, -5.90625, -0.15625, 0.0
947, 1.468864468864469, -0.7094017094017094, 1.5665445665445665, -1.8125, -6.40625, -0.96875, 0.0
948, 0.16117216117216118, 0.10866910866910867, 1.551892551892552, -1.4375, -6.53125, -1.28125, 0.0
949, -0.9145299145299145, 0.5604395604395604, 1.315018315018315, -1.03125, -6.46875, -1.25, 0.0
950, -1.8583638583638584, 1.0915750915750915, -0.1684981684981685, -0.46875, -5.875, -0.65625, 0.0
951, -1.7545787545787546, 0.028083028083028084, -1.6727716727716728, -0.375, -4.90625, -0.375, 0.0
952, -0.07936507936507936, -0.38583638583638585, -2.572649572649573, -0.3125, -3.9375, -0.46875, 0.0
953, 0.6141636141636142, 0.05982905982905983, -2.1746031746031744, -0.125, -3.46875, -0.6875, 0.0
954, 0.37484737484737485, 1.1196581196581197, -1.5970695970695972, 0.21875, -3.3125, -0.75, 0.0
955, -1.1416361416361416, 1.4676434676434675, -1.7777777777777777, 0.625, -2.84375, -0.3125, 0.0
956, -0.6214896214896215, 1.231990231990232, -2.832722832722833, 0.90625, -2.1875, 0.25, 0.0
957, 0.7032967032967034, 0.31135531135531136, -3.7924297924297923, 0.90625, -1.71875, 0.4375, 0.0
958, 1.8510378510378511, 0.5347985347985348, -4.052503052503052, 0.8125, -1.53125, 0.25, 0.0
959, 0.6495726495726496, 1.5054945054945055, -5.069597069597069, 0.8125, -1.25, 0.25, 0.0
960, 0.48473748473748474, 1.1355311355311355, -4.714285714285714, 0.53125, -0.84375, 0.5, 0.0
961, 1.3125763125763126, 0.8363858363858364, -3.993894993894994, 0.375, -0.40625, 0.6875, 0.0
962, 1.967032967032967, 0.8632478632478633, -3.148962148962149, 0.1875, -0.25, 0.65625, 0.0
963, 1.5604395604395604, 1.0976800976800978, -2.3504273504273505, 0.09375, -0.21875, 0.625, 0.0
964, 1.6532356532356531, 0.6507936507936508, -1.8034188034188035, 0.125, -0.0625, 0.59375, 0.0
965, 1.8363858363858363, -0.03540903540903541, -1.5909645909645909, 0.0625, -0.03125, 0.5, 0.0
966, 1.5836385836385836, 0.06715506715506715, -1.297924297924298, -0.0625, -0.03125, 0.3125, 0.0
967, 1.3540903540903542, 0.35653235653235654, -1.177045177045177, -0.21875, -0.03125, 0.21875, 0.0
968, 0.9340659340659341, 0.4993894993894994, -0.9682539682539683, -0.1875, 0.0625, 0.25, 0.0
969, 1.0866910866910866, 0.452991452991453, -0.663003663003663, -0.09375, 0.15625, 0.1875, 0.0
970, 0.7802197802197802, 0.3833943833943834, -0.5152625152625152, 0.0, 0.1875, 0.15625, 0.0
971, 0.9413919413919414, -0.1111111111111111, -0.4603174603174603, -0.03125, 0.125, 0.0, 0.0
972, 0.5067155067155067, -0.10500610500610501, -0.3076923076923077, -0.1875, 0.0, 0.0, 0.0
973, -0.21367521367521367, 0.35775335775335776, -0.03785103785103785, -0.15625, 0.09375, 0.0625, 0.0
974, -0.47496947496947495, 0.15995115995115994, 0.050061050061050064, -0.03125, 0.25, 0.15625, 0.0
975, -0.5518925518925519, 0.11843711843711843, 0.17826617826617827, 0.03125, 0.375, 0.28125, 0.0
976, 0.34554334554334554, -0.8498168498168498, 0.07081807081807082, -0.03125, 0.25, 0.15625, 0.0
977, 0.10378510378510379, -0.9218559218559218, 0.3540903540903541, -0.25, 0.03125, -0.03125, 0.0
978, -0.43223443223443225, -0.13675213675213677, 0.6959706959706959, -0.1875, 0.0, 0.0, 0.0
979, -0.6800976800976801, 0.32844932844932845, 0.9499389499389499, 0.0, 0.03125, 0.0625, 0.0
980, -0.5103785103785103, -0.02197802197802198, 0.6190476190476191, 0.125, 0.0, 0.0625, 0.0
981, -0.3711843711843712, -0.23809523809523808, 0.2771672771672772, 0.09375, -0.0625, 0.03125, 0.0
982, -0.24786324786324787, -0.45665445665445664, 0.004884004884004884, -0.03125, -0.09375, 0.0, 0.0
983, 0.050061050061050064, 0.13064713064713065, 0.22954822954822954, 0.0, -0.25, -0.03125, 0.0
984, -0.08180708180708181, 0.21611721611721613, 0.007326007326007326, 0.0625, -0.34375, -0.0625, 0.0
985, -0.2515262515262515, 0.115995115995116, -0.2503052503052503, 0.15625, -0.3125, 0.0, 0.0
986, -0.1343101343101343, -0.4713064713064713, -0.6642246642246642, 0.125, -0.15625, 0.0625, 0.0
987, 0.4139194139194139, -0.047619047619047616, -0.12942612942612944, 0.0, -0.125, 0.0, 0.0
988, 0.2869352869352869, 0.5152625152625152, 0.32234432234432236, 0.0, -0.28125, 0.0, 0.0
989, 0.1221001221001221, 0.8021978021978022, 0.3540903540903541, 0.21875, -0.40625, 0.09375, 0.0
990, 0.1391941391941392, 0.09768009768009768, -0.2503052503052503, 0.40625, -0.4375, 0.1875, 0.0
991, 0.36507936507936506, -0.13186813186813187, -0.5238095238095238, 0.3125, -0.4375, 0.09375, 1.0
992, 0.4590964590964591, 1.037851037851038, -0.5409035409035409, 0.21875, -0.5, 0.03125, 1.0
993, 0.3504273504273504, 0.5628815628815629, -1.8107448107448108, 0.46875, -0.28125, 0.09375, 1.0
994, 0.12576312576312576, 1.4981684981684982, -3.590964590964591, 0.65625, 0.625, 0.78125, 1.0
995, -1.435897435897436, 2.7936507936507935, -5.738705738705739, 1.15625, 2.40625, 1.6875, 1.0
996, -0.645909645909646, 2.0952380952380953, -7.318681318681318, 1.65625, 4.34375, 2.75, 1.0
997, 2.2405372405372406, -0.5299145299145299, -6.943833943833944, 1.53125, 5.375, 2.84375, 1.0
998, 3.1953601953601956, -0.8449328449328449, -4.829059829059829, 1.4375, 5.875, 2.46875, 1.0
999, 1.2283272283272284, 0.3431013431013431, -2.7472527472527473, 2.09375, 6.96875, 2.375, 1.0
1000, -1.326007326007326, 1.9291819291819292, -0.336996336996337, 3.5625, 8.84375, 2.59375, 1.0
1001, -0.030525030525030524, 0.8632478632478633, 1.199023199023199, 4.90625, 10.15625, 2.625, 1.0
1002, 2.3455433455433456, -0.6361416361416361, 1.3235653235653235, 5.375, 10.28125, 2.0625, 1.0
1003, 2.4652014652014653, 0.17582417582417584, 0.9499389499389499, 5.4375, 9.8125, 1.3125, 1.0
1004, 1.3357753357753357, 0.31135531135531136, 0.9255189255189256, 5.625, 9.53125, 1.15625, 1.0
1005, 1.7692307692307692, -0.7032967032967034, 1.043956043956044, 5.8125, 8.90625, 1.1875, 1.0
1006, 2.1623931623931623, -2.8376068376068377, 1.2442002442002442, 5.96875, 7.03125, 0.96875, 1.0
1007, 2.1233211233211233, -3.761904761904762, 0.3504273504273504, 5.5, 5.75, 0.6875, 1.0
1008, 3.6556776556776556, -4.013431013431013, -0.47496947496947495, 4.9375, 4.3125, 0.34375, 1.0
1009, 3.473748473748474, -4.4322344322344325, -1.1233211233211233, 4.28125, 2.4375, -0.21875, 1.0
1010, 1.3992673992673992, -3.866910866910867, -1.6227106227106227, 3.75, 0.90625, -0.96875, 1.0
1011, -0.4822954822954823, -3.183150183150183, -2.583638583638584, 3.46875, 0.28125, -1.34375, 1.0
1012, -0.9426129426129426, -2.4065934065934065, -3.4884004884004884, 3.15625, 0.1875, -1.46875, 1.0
1013, -1.9352869352869353, -3.347985347985348, -4.56043956043956, 2.78125, 0.375, -1.5, 1.0
1014, -1.9804639804639805, -1.879120879120879, -3.496947496947497, 2.28125, 0.5625, -1.4375, 1.0
1015, -1.4236874236874237, -1.5323565323565325, -2.93040293040293, 2.34375, 0.46875, -1.28125, 1.0
1016, -0.7252747252747253, -2.115995115995116, -3.5494505494505493, 2.3125, -0.03125, -1.28125, 1.0
1017, -2.3345543345543347, -2.1416361416361416, -4.74969474969475, 1.625, -0.90625, -1.6875, 1.0
1018, -4.048840048840049, -0.31013431013431014, -5.598290598290598, 1.40625, -0.84375, -1.53125, 1.0
1019, -4.714285714285714, 0.08424908424908426, -6.2063492063492065, 1.21875, -0.5625, -1.0625, 1.0
1020, -4.291819291819292, 0.33821733821733824, -6.125763125763126, 0.96875, -0.46875, -0.6875, 1.0
1021, -4.002442002442002, -0.30036630036630035, -6.061050061050061, 0.5, -0.53125, -0.4375, 1.0
1022, -4.328449328449328, -0.14285714285714285, -5.501831501831502, 0.0625, -0.46875, -0.3125, 1.0
1023, -4.409035409035409, 0.2771672771672772, -4.463980463980464, -0.09375, -0.25, -0.0625, 1.0
1024, -3.514041514041514, 0.3418803418803419, -3.029304029304029, -0.09375, -0.0625, 0.21875, 1.0
1025, -2.5115995115995116, 0.10622710622710622, -1.8437118437118436, -0.125, -0.03125, 0.40625, 1.0
1026, -1.6251526251526252, -0.5616605616605617, -1.2881562881562882, -0.3125, -0.0625, 0.34375, 1.0
1027, -1.4896214896214897, -0.3907203907203907, -0.8485958485958486, -0.375, -0.03125, 0.21875, 1.0
1028, -1.0744810744810744, -0.02197802197802198, -0.12942612942612944, -0.25, 0.09375, 0.28125, 1.0
1029, 0.4126984126984127, -0.5616605616605617, 0.40415140415140416, -0.125, 0.03125, 0.21875, 1.0
1030, 0.19047619047619047, -0.673992673992674, 0.2588522588522589, -0.1875, 0.0, 0.09375, 1.0
1031, 0.10012210012210013, -0.27594627594627597, 0.5445665445665445, -0.1875, 0.09375, 0.09375, 1.0
1032, 0.47863247863247865, -0.16605616605616605, 0.796092796092796, -0.03125, 0.15625, 0.125, 1.0
1033, 0.525030525030525, -0.1452991452991453, 0.5934065934065934, 0.03125, 0.0625, 0.03125, 1.0
1034, 0.06471306471306472, -0.37484737484737485, 0.1746031746031746, 0.03125, 0.0, 0.0, 1.0
1035, 0.017094017094017096, -0.11355311355311355, 0.1282051282051282, 0.0, 0.0, 0.0, 1.0
1036, 0.1916971916971917, 0.07203907203907203, 0.20757020757020758, 0.0, 0.03125, 0.0, 1.0
1037, 0.12942612942612944, 0.01098901098901099, 0.16117216117216118, 0.0, 0.0, 0.0, 1.0
1038, -0.11477411477411477, 0.006105006105006105, -0.0757020757020757, 0.0, -0.0625, -0.03125, 1.0
1039, -0.42735042735042733, -0.1684981684981685, -0.4700854700854701, 0.0625, -0.09375, -0.03125, 1.0
1040, -0.4346764346764347, 0.013431013431013432, -0.4236874236874237, -0.03125, -0.03125, 0.0, 1.0
1041, -0.4053724053724054, 0.1855921855921856, -0.20757020757020758, 0.0, 0.03125, 0.0, 1.0
1042, -0.2771672771672772, 0.01221001221001221, -0.25274725274725274, 0.03125, 0.03125, 0.0, 1.0
1043, -0.1221001221001221, 0.028083028083028084, -0.3528693528693529, 0.0, -0.03125, 0.0, 1.0
1044, -0.3125763125763126, 0.16483516483516483, -0.33943833943833945, -0.0625, -0.03125, -0.03125, 1.0
1045, -0.3418803418803419, 0.27594627594627597, -0.34676434676434675, -0.0625, 0.0, 0.0, 1.0
1046, -0.33455433455433453, 0.11233211233211234, -0.31746031746031744, 0.0, 0.0, 0.0, 1.0
1047, -0.315018315018315, -0.04151404151404151, -0.29304029304029305, 0.03125, 0.03125, 0.03125, 1.0
1048, -0.08791208791208792, -0.2588522588522589, -0.28815628815628813, 0.0, 0.0625, 0.0, 1.0
1049, -0.040293040293040296, -0.002442002442002442, -0.16117216117216118, -0.03125, 0.0, 0.0, 1.0
1050, -0.18437118437118438, -0.008547008547008548, -0.2686202686202686, 0.0, 0.03125, 0.0, 1.0
1051, -0.09645909645909646, -0.015873015873015872, -0.18315018315018314, 0.0, 0.0, 0.0, 1.0
1052, -0.36874236874236876, 0.015873015873015872, -0.5555555555555556, 0.0, 0.0, 0.0, 1.0
1053, -0.24786324786324787, 0.02197802197802198, -0.4004884004884005, -0.0625, 0.09375, 0.0625, 1.0
1054, -0.04884004884004884, 0.002442002442002442, -0.27472527472527475, -0.0625, 0.09375, 0.0625, 1.0
1055, -0.09157509157509157, 0.06105006105006105, -0.231990231990232, -0.03125, 0.0, 0.03125, 1.0
1056, -0.24664224664224665, -0.045177045177045176, -0.46886446886446886, 0.0, 0.0, 0.03125, 1.0
1057, -0.5115995115995116, 0.06349206349206349, -0.6678876678876678, -0.0625, 0.0, 0.0, 1.0
1058, -0.9230769230769231, 0.07692307692307693, -0.9169719169719169, -0.15625, 0.09375, 0.0625, 1.0
1059, -0.8717948717948718, 0.03663003663003663, -1.2087912087912087, -0.34375, 0.21875, 0.1875, 1.0
1060, -0.7142857142857143, 0.42002442002442003, -1.3247863247863247, -0.53125, 0.21875, 0.25, 0.0
1061, -0.7716727716727717, 0.5811965811965812, -1.547008547008547, -0.46875, 0.03125, 0.1875, 0.0
1062, -1.3504273504273505, 0.5763125763125763, -1.9902319902319903, -0.34375, -0.125, 0.15625, 0.0
1063, -1.52014652014652, 0.463980463980464, -2.343101343101343, -0.28125, -0.1875, 0.1875, 0.0
1064, -0.3235653235653236, -0.25274725274725274, -2.3003663003663, -0.59375, -1.03125, -0.09375, 0.0
1065, 0.6202686202686203, -0.9706959706959707, -2.184371184371184, -1.21875, -2.5625, -0.75, 0.0
1066, 0.409035409035409, -0.905982905982906, -1.7606837606837606, -2.0, -4.46875, -1.4375, 0.0
1067, -1.0940170940170941, 0.003663003663003663, -0.796092796092796, -2.71875, -6.1875, -1.8125, 0.0
1068, -3.5323565323565322, 1.2087912087912087, 0.37484737484737485, -3.28125, -7.09375, -1.78125, 0.0
1069, -5.094017094017094, 2.8424908424908426, 1.0879120879120878, -3.65625, -7.0625, -1.34375, 0.0
1070, -5.362637362637362, 5.106227106227106, 1.5457875457875458, -3.78125, -6.71875, -0.75, 0.0
1071, -2.9450549450549453, 8.73015873015873, 2.365079365079365, -3.78125, -6.84375, -0.65625, 0.0
1072, -2.0488400488400487, 3.2747252747252746, 3.8522588522588523, -3.5625, -7.46875, -0.84375, 0.0
1073, -3.832722832722833, 1.619047619047619, 4.4322344322344325, -2.8125, -7.25, -0.59375, 0.0
1074, -3.6092796092796093, 0.8803418803418803, 3.4053724053724053, -1.84375, -6.40625, -0.15625, 0.0
1075, -0.9035409035409036, -0.8363858363858364, 2.688644688644689, -1.3125, -6.28125, -0.6875, 0.0
1076, -1.3406593406593406, -1.9926739926739927, 1.6349206349206349, -1.09375, -6.40625, -1.0, 0.0
1077, -0.746031746031746, -1.7057387057387057, 0.6043956043956044, -0.78125, -6.1875, -0.3125, 0.0
1078, 1.5225885225885225, -2.7875457875457874, -0.6471306471306472, -0.34375, -5.6875, 0.0, 0.0
1079, 1.0732600732600732, -1.6275946275946276, -0.16483516483516483, -0.53125, -5.96875, -0.53125, 0.0
1080, -1.8986568986568986, -0.2087912087912088, -0.24664224664224665, -0.40625, -5.90625, -1.0, 0.0
1081, -2.051282051282051, 0.030525030525030524, -1.9426129426129426, 0.15625, -4.75, -0.625, 0.0
1082, 0.24297924297924298, -1.2087912087912087, -3.1965811965811968, 0.59375, -3.40625, 0.0625, 0.0
1083, 2.7655677655677655, -1.6617826617826619, -2.8876678876678876, 0.53125, -2.96875, -0.125, 0.0
1084, 1.4334554334554335, -0.2576312576312576, -2.802197802197802, 0.46875, -3.21875, -0.71875, 0.0
1085, -0.6092796092796092, 0.7142857142857143, -3.227106227106227, 0.5625, -3.0625, -1.03125, 0.0
1086, -1.4151404151404152, 1.5982905982905984, -3.9633699633699635, 0.6875, -2.4375, -0.5625, 0.0
1087, -0.8717948717948718, 1.105006105006105, -4.365079365079365, 0.75, -1.3125, 0.25, 0.0
1088, 0.4590964590964591, 1.0305250305250304, -4.334554334554334, 0.625, -0.875, 0.40625, 0.0
1089, 1.2380952380952381, 1.2295482295482296, -3.8913308913308913, 0.5625, -0.78125, 0.46875, 0.0
1090, 1.043956043956044, 0.8156288156288156, -3.6825396825396823, 0.34375, -0.75, 0.5, 0.0
1091, 0.5885225885225885, 0.6422466422466423, -3.0183150183150182, 0.1875, -0.53125, 0.5, 0.0
1092, 0.9487179487179487, 0.9316239316239316, -2.498168498168498, 0.1875, -0.28125, 0.5625, 0.0
1093, 1.3577533577533578, 1.1562881562881564, -2.4871794871794872, 0.28125, -0.15625, 0.65625, 0.0
1094, 2.0085470085470085, 1.0512820512820513, -2.652014652014652, 0.28125, -0.1875, 0.5, 0.0
1095, 2.0476190476190474, 1.1074481074481075, -2.4358974358974357, 0.1875, -0.28125, 0.375, 0.0
1096, 1.277167277167277, 0.4603174603174603, -2.3333333333333335, 0.0625, -0.125, 0.21875, 0.0
1097, 0.8376068376068376, 0.7594627594627594, -1.5909645909645909, -0.03125, 0.0625, 0.1875, 0.0
1098, 1.1025641025641026, 0.6336996336996337, -0.8778998778998779, -0.0625, 0.03125, 0.25, 0.0
1099, 0.6996336996336996, 0.4432234432234432, -0.3162393162393162, -0.125, -0.09375, 0.15625, 0.0
1100, -0.003663003663003663, 0.47863247863247865, -0.05128205128205128, -0.09375, -0.09375, 0.1875, 0.0
1101, 0.14896214896214896, 0.1746031746031746, 0.17582417582417584, -0.0625, 0.03125, 0.25, 0.0
1102, 0.199023199023199, 0.16361416361416362, 0.40415140415140416, -0.03125, 0.03125, 0.3125, 0.0
1103, 0.41514041514041516, -0.42857142857142855, 0.17094017094017094, 0.03125, 0.0, 0.28125, 0.0
1104, 0.2490842490842491, -0.37484737484737485, -0.01221001221001221, -0.03125, -0.0625, 0.15625, 0.0
1105, 0.006105006105006105, -0.0231990231990232, 0.06349206349206349, -0.09375, -0.0625, 0.125, 0.0
1106, -0.17094017094017094, 0.04151404151404151, 0.10866910866910867, -0.03125, 0.0, 0.1875, 0.0
1107, 0.33455433455433453, -0.3162393162393162, 0.03296703296703297, 0.03125, 0.0, 0.1875, 0.0
1108, 0.2905982905982906, -0.5787545787545788, -0.19291819291819293, 0.03125, -0.21875, 0.03125, 0.0
1109, -0.2673992673992674, -0.43101343101343104, -0.37484737484737485, 0.0, -0.25, -0.0625, 0.0
1110, -0.21123321123321123, 0.05860805860805861, -0.17338217338217338, 0.0, -0.09375, 0.0, 0.0
1111, 0.19658119658119658, -0.052503052503052504, -0.07326007326007326, 0.0, -0.15625, 0.0, 0.0
1112, 0.46153846153846156, -0.10866910866910867, -0.004884004884004884, 0.0, -0.375, -0.0625, 0.0
1113, 0.13064713064713065, -0.07936507936507936, -0.06837606837606838, 0.0, -0.40625, -0.15625, 0.0
1114, -0.29914529914529914, -0.07692307692307693, -0.1855921855921856, 0.0, -0.25, -0.15625, 0.0
1115, 0.02442002442002442, -0.0463980463980464, -0.07448107448107448, -0.03125, -0.25, -0.03125, 0.0
1116, 0.08424908424908426, -0.015873015873015872, -0.006105006105006105, -0.03125, -0.28125, -0.03125, 0.0
1117, 0.22832722832722832, 0.0989010989010989, 0.2271062271062271, 0.0, -0.375, -0.0625, 0.0
1118, 0.07203907203907203, -0.018315018315018316, 0.1855921855921856, 0.03125, -0.4375, -0.03125, 0.0
1119, -0.14896214896214896, 0.047619047619047616, 0.38461538461538464, 0.125, -0.40625, 0.0, 0.0
1120, 0.10256410256410256, 0.33821733821733824, 0.5213675213675214, 0.34375, -0.375, 0.03125, 1.0
1121, 0.27594627594627597, -0.22466422466422467, 0.1575091575091575, 0.46875, -0.3125, 0.0625, 1.0
1122, 0.7130647130647131, 0.38583638583638585, -1.5421245421245422, 0.5, -0.3125, 0.0, 1.0
1123, 0.20757020757020758, 1.4578754578754578, -3.8058608058608057, 0.6875, 0.09375, 0.0625, 1.0
1124, -1.133089133089133, 2.5409035409035408, -5.719169719169719, 1.0, 1.375, 0.75, 1.0
1125, -1.1111111111111112, 2.1123321123321124, -6.815628815628815, 1.46875, 3.46875, 1.875, 1.0
1126, 1.006105006105006, 0.5738705738705738, -5.798534798534798, 1.78125, 5.375, 2.5, 1.0
1127, 1.6764346764346765, 0.08669108669108669, -4.106227106227106, 1.90625, 6.53125, 2.4375, 1.0
1128, 0.9426129426129426, 0.5518925518925519, -2.2173382173382175, 2.3125, 7.53125, 2.34375, 1.0
1129, -0.7277167277167277, 1.2246642246642248, -0.34065934065934067, 3.1875, 8.78125, 2.46875, 1.0
1130, 0.6178266178266179, 1.286935286935287, 1.6178266178266179, 4.21875, 10.0, 2.6875, 1.0
1131, 1.4603174603174602, 1.1013431013431014, 2.6056166056166057, 5.25, 10.53125, 2.6875, 1.0
1132, 3.769230769230769, -1.6495726495726495, 1.921855921855922, 5.9375, 10.40625, 2.25, 1.0
1133, 5.274725274725275, -2.271062271062271, 0.8217338217338217, 5.09375, 9.5625, 0.53125, 1.0
1134, 3.503052503052503, -0.08547008547008547, 0.31868131868131866, 4.84375, 7.4375, 0.0, 1.0
1135, 1.6105006105006106, -0.12454212454212454, -0.4065934065934066, 4.96875, 6.65625, 0.03125, 1.0
1136, 0.8571428571428571, -1.0793650793650793, -0.9230769230769231, 5.03125, 6.09375, 0.1875, 1.0
1137, 1.8424908424908424, -3.515262515262515, -1.9841269841269842, 4.53125, 5.34375, 0.1875, 1.0
1138, 1.5225885225885225, -3.1135531135531136, -2.114774114774115, 4.0625, 4.59375, 0.125, 1.0
1139, 2.894993894993895, -2.9584859584859586, -1.321123321123321, 3.875, 3.53125, 0.0, 1.0
1140, 3.1965811965811968, -3.7594627594627594, -1.1282051282051282, 3.59375, 2.0625, -0.4375, 1.0
1141, 1.2759462759462759, -4.656898656898657, -1.4517704517704517, 3.15625, 1.09375, -0.8125, 1.0
1142, -0.07692307692307693, -2.785103785103785, -1.6617826617826619, 3.09375, 0.65625, -1.0, 1.0
1143, -0.3785103785103785, -2.954822954822955, -2.518925518925519, 3.0, 0.40625, -1.0625, 1.0
1144, -0.7289377289377289, -2.8693528693528694, -3.0317460317460316, 2.78125, 0.25, -1.125, 1.0
1145, -1.5054945054945055, -3.029304029304029, -3.357753357753358, 2.375, 0.03125, -1.03125, 1.0
1146, -1.514041514041514, -0.9023199023199023, -3.967032967032967, 2.25, -0.3125, -1.03125, 1.0
1147, -2.062271062271062, -0.7155067155067155, -4.736263736263736, 2.125, -0.40625, -1.03125, 1.0
1148, -2.1294261294261294, -0.4456654456654457, -5.252747252747253, 1.84375, -0.4375, -0.90625, 1.0
1149, -2.238095238095238, -0.231990231990232, -5.644688644688645, 1.46875, -0.5625, -0.84375, 1.0
1150, -2.778998778998779, -0.1452991452991453, -6.004884004884005, 1.09375, -0.71875, -0.78125, 1.0
1151, -4.001221001221001, 0.028083028083028084, -6.2625152625152625, 0.75, -0.5625, -0.5625, 1.0
1152, -3.236874236874237, -0.40415140415140416, -5.526251526251526, 0.4375, -0.15625, -0.3125, 1.0
1153, -2.6984126984126986, -0.36996336996337, -4.263736263736264, 0.09375, -0.15625, -0.15625, 1.0
1154, -2.2686202686202686, -0.27228327228327226, -3.083028083028083, -0.03125, -0.15625, -0.09375, 1.0
1155, -1.7936507936507937, -0.0989010989010989, -2.137973137973138, -0.03125, -0.28125, -0.03125, 1.0
1156, -2.0842490842490844, -0.7228327228327228, -2.1807081807081805, -0.0625, -0.3125, 0.03125, 1.0
1157, -1.877899877899878, -0.9426129426129426, -1.9694749694749696, -0.28125, 0.0625, 0.15625, 1.0
1158, -0.8974358974358975, -0.5531135531135531, -1.0512820512820513, -0.34375, 0.15625, 0.1875, 1.0
1159, -0.22832722832722832, -0.2503052503052503, -0.3308913308913309, -0.25, 0.0625, 0.15625, 1.0
1160, -0.25396825396825395, -0.48595848595848595, -0.06593406593406594, -0.1875, 0.03125, 0.15625, 1.0
1161, 0.13186813186813187, -0.6996336996336996, 0.0463980463980464, -0.25, 0.03125, 0.09375, 1.0
1162, 0.1391941391941392, -0.3992673992673993, 0.199023199023199, -0.3125, 0.125, 0.03125, 1.0
1163, 0.2783882783882784, -0.1916971916971917, 0.4481074481074481, -0.25, 0.15625, 0.03125, 1.0
1164, 0.4932844932844933, -0.029304029304029304, 0.6446886446886447, -0.09375, 0.09375, 0.0625, 1.0
1165, 0.4297924297924298, -0.27106227106227104, 0.4542124542124542, 0.0, 0.0, 0.0625, 1.0
1166, 0.32844932844932845, -0.3137973137973138, 0.13064713064713065, -0.03125, -0.03125, 0.0, 1.0
1167, 0.11355311355311355, -0.10866910866910867, 0.09768009768009768, -0.0625, 0.0, -0.03125, 1.0
1168, -0.031746031746031744, -0.11843711843711843, 0.03296703296703297, 0.0, 0.0, 0.0, 1.0
1169, -0.07814407814407814, -0.07448107448107448, 0.19536019536019536, 0.0, -0.03125, 0.03125, 1.0
1170, -0.07203907203907203, -0.09768009768009768, -0.06349206349206349, 0.0, -0.0625, 0.03125, 1.0
1171, -0.2222222222222222, -0.03785103785103785, -0.326007326007326, 0.0, -0.0625, 0.0, 1.0
1172, -0.2612942612942613, 0.015873015873015872, -0.4346764346764347, 0.03125, -0.0625, 0.0, 1.0
1173, -0.21123321123321123, -0.1746031746031746, -0.5970695970695971, 0.03125, -0.03125, 0.0, 1.0
1174, -0.21245421245421245, -0.1343101343101343, -0.7155067155067155, 0.0, -0.0625, 0.0, 1.0
1175, -0.398046398046398, -0.17094017094017094, -0.8266178266178266, -0.09375, -0.0625, -0.0625, 1.0
1176, -0.5604395604395604, 0.09645909645909646, -0.724053724053724, -0.1875, 0.0, -0.09375, 1.0
1177, -0.6471306471306472, -0.04884004884004884, -0.45787545787545786, -0.15625, 0.0625, 0.0, 1.0
1178, 0.03540903540903541, -0.07936507936507936, 0.017094017094017096, -0.09375, 0.15625, 0.0625, 1.0
1179, -0.17826617826617827, -0.315018315018315, -0.03418803418803419, -0.0625, 0.03125, 0.03125, 1.0
1180, -0.3504273504273504, -0.23809523809523808, -0.07936507936507936, -0.0625, 0.0625, 0.0625, 1.0
1181, 0.006105006105006105, -0.14041514041514042, 0.07692307692307693, -0.03125, 0.0625, 0.03125, 1.0
1182, -0.004884004884004884, -0.21733821733821734, -0.06227106227106227, -0.03125, 0.03125, 0.0, 1.0
1183, -0.16605616605616605, -0.08180708180708181, -0.2783882783882784, 0.0, 0.03125, 0.0, 1.0
1184, -0.09157509157509157, -0.03785103785103785, -0.47619047619047616, 0.0, 0.0625, 0.09375, 1.0
1185, -0.13064713064713065, -0.2967032967032967, -0.9010989010989011, -0.25, 0.1875, 0.15625, 1.0
1186, -0.5177045177045178, 0.09401709401709402, -1.2454212454212454, -0.375, 0.375, 0.15625, 0.0
1187, -0.14652014652014653, 0.6312576312576312, -0.6617826617826618, -0.1875, 0.40625, 0.125, 0.0
1188, 0.3492063492063492, 0.15262515262515264, -0.4932844932844933, -0.03125, 0.3125, 0.125, 0.0
1189, -0.002442002442002442, 0.16117216117216118, -0.05616605616605617, 0.0, 0.0625, 0.1875, 0.0
1190, -0.8253968253968254, 0.09645909645909646, -0.46886446886446886, 0.0625, 0.0, 0.3125, 0.0
1191, -0.8327228327228328, -0.10500610500610501, -0.6727716727716728, 0.0625, -0.0625, 0.34375, 0.0
1192, -0.6312576312576312, 0.02197802197802198, -1.431013431013431, 0.03125, -0.375, 0.28125, 0.0
1193, -1.5555555555555556, 0.1807081807081807, -2.2796092796092795, 0.0625, -0.625, 0.25, 0.0
1194, -1.4151404151404152, -0.4542124542124542, -3.1355311355311355, 0.0, -0.8125, 0.25, 0.0
1195, -1.531135531135531, -0.7081807081807082, -3.8913308913308913, -0.3125, -1.40625, 0.1875, 0.0
1196, -1.7252747252747254, -1.4725274725274726, -4.156288156288157, -0.8125, -2.28125, 0.03125, 0.0
1197, -2.606837606837607, -1.332112332112332, -3.750915750915751, -1.5625, -3.34375, -0.125, 0.0
1198, -3.896214896214896, -0.6752136752136753, -3.065934065934066, -2.3125, -4.28125, -0.28125, 0.0
1199, -4.306471306471306, -0.03907203907203907, -2.001221001221001, -2.9375, -5.03125, -0.28125, 0.0
1200, -4.185592185592186, 0.8681318681318682, -0.8363858363858364, -3.4375, -5.625, 0.0, 0.0
1201, -2.8351648351648353, 2.6117216117216118, 0.12698412698412698, -3.625, -6.34375, 0.375, 0.0
1202, -1.2063492063492063, 4.4212454212454215, 0.9328449328449329, -3.6875, -7.4375, 0.40625, 0.0
1203, -1.8205128205128205, 6.525030525030525, 2.5982905982905984, -4.15625, -9.1875, 0.125, 0.0
1204, -4.282051282051282, 6.048840048840049, 3.105006105006105, -3.78125, -8.65625, 0.59375, 0.0
1205, -3.131868131868132, 4.031746031746032, 1.5286935286935286, -2.84375, -7.28125, 0.90625, 0.0
1206, 0.818070818070818, 1.5824175824175823, 0.9951159951159951, -2.375, -7.09375, 0.34375, 0.0
1207, 2.7936507936507935, -0.9706959706959707, 2.131868131868132, -2.5, -8.09375, -0.4375, 0.0
1208, 0.22466422466422467, 0.37606837606837606, 1.866910866910867, -2.0625, -8.03125, -0.25, 0.0
1209, -2.4505494505494507, 1.5677655677655677, -0.46764346764346765, -1.0, -6.3125, -0.09375, 0.0
1210, -0.14163614163614163, 0.778998778998779, -1.6825396825396826, -0.3125, -5.25, -0.03125, 0.0
1211, 0.9621489621489622, 0.3492063492063492, -1.6178266178266179, -0.0625, -5.125, -0.34375, 0.0
1212, 0.1855921855921856, -0.001221001221001221, -1.6349206349206349, -0.09375, -5.1875, -0.375, 0.0
1213, -2.0354090354090353, 0.6996336996336996, -2.4114774114774113, 0.0, -4.40625, 0.0, 0.0
1214, -1.4822954822954824, 0.5042735042735043, -3.230769230769231, 0.21875, -3.375, 0.25, 0.0
1215, -0.04884004884004884, 0.03663003663003663, -3.192918192918193, 0.4375, -2.78125, 0.3125, 0.0
1216, 0.008547008547008548, 0.15018315018315018, -3.7142857142857144, 0.59375, -2.71875, 0.3125, 0.0
1217, 0.11721611721611722, 0.11477411477411477, -4.501831501831502, 0.71875, -2.4375, 0.40625, 0.0
1218, 0.4004884004884005, 0.12087912087912088, -5.014652014652015, 0.78125, -1.90625, 0.6875, 0.0
1219, 0.8754578754578755, 0.42002442002442003, -4.887667887667888, 0.875, -1.3125, 0.8125, 0.0
1220, 1.4884004884004884, 0.23931623931623933, -4.628815628815629, 0.90625, -0.90625, 0.90625, 0.0
1221, 1.910866910866911, -0.15995115995115994, -4.168498168498169, 0.71875, -0.8125, 0.875, 0.0
1222, 1.7802197802197801, 0.1684981684981685, -3.47008547008547, 0.40625, -0.8125, 0.71875, 0.0
1223, 1.3736263736263736, 0.5225885225885226, -2.826617826617827, 0.28125, -0.59375, 0.5625, 0.0
1224, 1.3394383394383393, 0.6862026862026862, -2.357753357753358, 0.21875, -0.34375, 0.53125, 0.0
1225, 1.3382173382173381, 0.6703296703296703, -1.8644688644688645, 0.21875, -0.1875, 0.625, 0.0
1226, 1.7557997557997558, 0.36385836385836384, -1.6043956043956045, 0.25, -0.09375, 0.5, 0.0
1227, 1.7619047619047619, 0.09768009768009768, -1.4212454212454213, 0.0625, -0.1875, 0.34375, 0.0
1228, 1.1746031746031746, 0.3089133089133089, -1.2295482295482296, 0.0, -0.125, 0.3125, 0.0
1229, 0.9536019536019537, 0.24297924297924298, -0.8766788766788767, 0.0, 0.0, 0.21875, 0.0
1230, 0.9328449328449329, 0.27594627594627597, -0.525030525030525, 0.03125, 0.0625, 0.21875, 0.0
1231, 1.1794871794871795, 0.04884004884004884, -0.3540903540903541, 0.0, 0.0, 0.21875, 0.0
1232, 0.7875457875457875, -0.042735042735042736, -0.43223443223443225, -0.0625, -0.15625, 0.1875, 0.0
1233, 0.2905982905982906, -0.02197802197802198, -0.4542124542124542, -0.15625, -0.125, 0.125, 0.0
1234, -0.12698412698412698, 0.03296703296703297, -0.3418803418803419, -0.21875, 0.0, 0.15625, 0.0
1235, -0.06837606837606838, 0.1343101343101343, -0.19291819291819293, -0.21875, 0.0625, 0.21875, 0.0
1236, 0.047619047619047616, 0.1391941391941392, 0.0231990231990232, -0.125, 0.09375, 0.21875, 0.0
1237, 0.38461538461538464, -0.1111111111111111, 0.06349206349206349, -0.09375, 0.0, 0.15625, 0.0
1238, 0.05372405372405373, -0.39316239316239315, -0.1746031746031746, -0.1875, -0.03125, 0.09375, 0.0
1239, -0.02197802197802198, -0.015873015873015872, 0.057387057387057384, -0.1875, 0.0, 0.0625, 0.0
1240, -0.007326007326007326, -0.057387057387057384, 0.13553113553113552, -0.125, -0.03125, 0.09375, 0.0
