timestamp, accX, accY, accZ, gyroX, gyroY, gyroZ, button
126616, 0.554, -0.634, -0.4, -0.356, 0.144, -0.422, 1
126636, 1.359, -0.855, -0.358, -0.481, -0.103, -0.609, 1
126656, 1.366, -0.671, -0.073, -0.642, -0.591, -0.89, 1
126676, 0.464, -0.411, 0.099, -0.659, -0.877, -1.118, 1
126696, -0.374, -0.327, 0.262, -0.554, -0.718, -1.143, 1
126716, -0.257, -0.631, 0.354, -0.458, -0.306, -0.984, 1
126736, 0.843, -0.874, 0.406, -0.437, -0.075, -0.947, 1
126756, 1.324, -0.717, 0.628, -0.448, -0.232, -1.076, 1
126776, 1.942, -0.603, 0.244, -0.308, -0.527, -1.321, 1
126796, 1.487, -0.68, -0.349, -0.162, -0.765, -1.731, 1
126816, 0.95, -1.01, -0.878, -0.18, -0.86, -2.065, 1
126836, 0.551, -0.54, -1.315, -0.288, -0.791, -2.266, 1
126856, 0.191, -0.68, -1.933, -0.34, -0.744, -2.369, 1
126876, -0.767, -0.504, -2.162, -0.431, -0.617, -2.437, 1
126896, -1.933, -0.083, -1.761, -0.545, -0.314, -2.282, 1
126916, -2.848, 0.224, -1.226, -0.601, 0.154, -1.849, 1
126936, -3.041, 0.254, -0.797, -0.639, 0.654, -1.342, 1
126956, -2.603, 0.04, -0.383, -0.723, 0.968, -0.946, 1
126976, -1.871, 0.297, 0.201, -0.753, 1.007, -0.66, 1
126996, -1.331, -0.202, 0.505, -0.78, 0.582, -0.47, 1
127016, -1.417, -0.188, 0.854, -0.761, 0.36, -0.434, 1
127036, -1.914, -0.067, 0.997, -0.642, 0.33, -0.349, 1
127056, -2.22, -0.103, 0.927, -0.521, 0.379, -0.163, 1
127076, -1.994, -0.221, 0.618, -0.459, 0.386, 0.04, 1
127096, -1.967, -0.284, 0.493, -0.439, 0.417, 0.273, 1
127116, -1.631, -0.666, 0.349, -0.456, 0.471, 0.43, 1
127136, -1.169, -0.566, 0.487, -0.445, 0.461, 0.535, 1
127156, -0.484, -0.522, 0.479, -0.361, 0.361, 0.606, 1
127176, -0.032, -0.551, 0.411, -0.296, 0.248, 0.589, 1
127196, 0.904, -0.934, -0.151, -0.288, 0.072, 0.423, 1
127216, 1.151, -0.96, -0.312, -0.327, -0.069, 0.193, 1
127236, 0.778, -0.596, -0.106, -0.274, -0.031, 0.062, 1
127256, 0.697, -0.454, -0.117, -0.178, 0.073, 0.019, 1
127276, 0.893, -0.515, -0.083, -0.138, 0.092, -0.067, 1
127296, 0.974, -0.405, 0.105, -0.128, -0.023, -0.211, 1
127316, 0.656, -0.225, 0.203, -0.088, -0.122, -0.349, 1
127336, 0.588, -0.247, 0.22, -0.071, -0.208, -0.478, 1
127356, 0.243, 0.055, 0.391, -0.012, -0.208, -0.54, 1
127376, -0.041, 0.185, 0.485, 0.089, -0.158, -0.55, 1
127396, -0.166, 0.107, 0.334, 0.162, -0.108, -0.583, 1
127416, -0.1, 0.086, 0.227, 0.18, -0.162, -0.602, 1
127436, -0.135, 0.142, 0.164, 0.184, -0.26, -0.594, 1
127456, -0.206, 0.05, 0.147, 0.161, -0.325, -0.568, 1
127476, -0.441, 0.206, 0.219, 0.226, -0.204, -0.425, 1
127496, -0.618, 0.213, -0.314, 0.287, -0.106, -0.361, 1
127516, -0.363, 0.129, -0.706, 0.266, -0.047, -0.301, 1
127536, -0.198, -0.028, -1.016, 0.145, -0.092, -0.259, 1
127556, -0.09, 0.048, -0.967, -0.033, -0.158, -0.238, 1
127576, -0.327, 0.133, -0.751, -0.151, -0.136, -0.135, 1
127596, -0.205, 0.091, -0.472, -0.161, 0.041, -0.009, 1
127616, 0.133, -0.002, -0.345, -0.119, 0.157, 0.094, 1
127636, 0.35, -0.088, -0.392, -0.101, 0.143, 0.108, 1
127656, 0.58, -0.338, -0.662, -0.128, 0.058, 0.028, 1
127676, 0.464, -0.204, -0.694, -0.225, -0.076, -0.106, 1
127696, 0.19, -0.062, -0.564, -0.262, -0.117, -0.193, 1
127716, 0.123, -0.056, -0.437, -0.264, -0.066, -0.186, 1
127736, 0.355, -0.183, -0.376, -0.273, -0.057, -0.166, 1
127756, 0.946, -0.487, -0.435, -0.33, -0.178, -0.23, 1
127776, 1.225, -0.447, -0.14, -0.439, -0.451, -0.44, 1
127796, 0.641, -0.225, 0.243, -0.45, -0.633, -0.609, 1
127816, 0.33, -0.295, 0.35, -0.356, -0.577, -0.681, 1
127836, 0.371, -0.258, 0.394, -0.249, -0.428, -0.695, 1
127856, 0.364, -0.261, 0.445, -0.148, -0.374, -0.719, 1
127876, 0.068, -0.156, 0.389, -0.03, -0.352, -0.759, 1
127896, -0.286, -0.084, 0.111, 0.086, -0.301, -0.799, 1
127916, -0.572, -0.159, -0.148, 0.099, -0.265, -0.794, 1
127936, -0.398, -0.1, -0.315, 0.029, -0.21, -0.731, 1
127956, -0.107, -0.004, -0.371, -0.053, -0.317, -0.799, 1
127976, -0.458, 0.227, -0.27, -0.031, -0.499, -0.817, 1
127996, -0.699, 0.133, -0.436, 0.02, -0.47, -0.725, 1
128016, -0.754, -0.018, -0.69, 0.001, -0.35, -0.579, 1
128036, -0.532, 0.082, -0.754, -0.02, -0.265, -0.422, 1
128056, -0.367, -0.152, -0.696, -0.065, -0.187, -0.272, 1
128076, 0.249, -0.251, -0.386, -0.129, -0.224, -0.207, 1
128096, 0.579, -0.335, -0.053, -0.137, -0.309, -0.221, 1
128116, 0.488, -0.428, 0.034, -0.132, -0.271, -0.283, 1
128136, 0.295, -0.33, 0.116, -0.126, -0.13, -0.265, 1
128156, 0.282, -0.305, 0.269, -0.125, -0.034, -0.202, 1
128176, 0.17, -0.136, 0.426, -0.071, 0.016, -0.177, 1
128196, -0.094, -0.067, 0.375, -0.007, 0.047, -0.166, 1
128216, -0.394, -0.066, 0.321, -0.018, 0.073, -0.084, 1
128236, -0.471, -0.072, 0.195, -0.04, 0.142, 0.038, 1
128256, -0.267, -0.087, 0.075, -0.062, 0.183, 0.1, 1
128276, 0.028, -0.038, 0.025, -0.078, 0.113, 0.091, 1
128296, 0.012, -0.031, -0.058, -0.079, 0.04, 0.083, 1
128316, -0.05, -0.078, -0.183, -0.088, 0.038, 0.097, 1
128336, 0.185, -0.132, -0.313, -0.124, 0.029, 0.095, 1
128356, 0.428, -0.097, -0.342, -0.135, -0.014, 0.059, 1
128376, 0.303, -0.036, -0.286, -0.117, 0.003, 0.006, 1
128396, 0.164, -0.047, -0.287, -0.095, 0.04, -0.018, 1
128416, 0.123, -0.074, -0.194, -0.094, 0.031, -0.053, 1
128436, 0.21, -0.027, -0.295, -0.087, -0.009, -0.103, 1
128456, -0.026, -0.061, -0.175, -0.083, 0.07, -0.155, 1
128476, -0.036, -0.104, -0.403, -0.241, 0.01, -0.219, 1
128496, -0.305, 0.325, -0.286, -0.306, -0.113, -0.243, 1
128516, -0.659, 0.272, -0.235, -0.221, -0.103, -0.281, 1
128536, -0.489, 0.254, -0.188, -0.114, -0.033, -0.296, 1
128556, -0.373, -0.294, -0.528, -0.097, -0.103, -0.287, 1
128576, -0.534, 0.164, -0.639, -0.326, -0.271, -0.298, 1
128596, -0.96, 0.519, -0.623, -0.359, -0.329, -0.237, 1
128616, -1.107, 0.271, -0.68, -0.237, -0.222, -0.165, 1
128636, -1.19, 0.204, -1.017, -0.169, -0.084, -0.114, 1
128656, -2.087, -0.499, -2.185, -0.264, -0.147, -0.107, 1
128676, -2.768, 0.626, -2.153, -0.841, -0.403, -0.025, 1
128696, -3.199, 1.371, -1.523, -0.993, -0.447, 0.406, 1
128716, -2.396, 0.732, -1.156, -0.803, -0.19, 0.893, 1
128736, -0.883, -0.455, -0.849, -0.729, 0.059, 1.277, 1
128756, 0.196, -1.362, -0.518, -0.907, 0.166, 1.463, 1
128776, 1.596, -0.971, 0.015, -1.132, 0.086, 1.456, 1
128796, 1.884, -0.783, 0.406, -1.139, -0.212, 1.282, 1
128816, 1.514, -0.938, 0.659, -0.959, -0.329, 1.071, 1
128836, 1.887, -1.054, 0.883, -0.693, -0.119, 0.824, 1
128856, 2.139, -1.035, 0.964, -0.447, -0.012, 0.614, 1
128876, 1.936, -0.955, 1.16, -0.18, 0.05, 0.405, 1
128896, 1.952, -1.129, 1.268, 0.094, 0.091, 0.192, 1
128916, 2.321, -1.313, 0.845, 0.272, 0.042, -0.022, 1
128936, 2.165, -1.834, 0.282, 0.215, -0.063, -0.467, 1
128956, 1.944, -1.593, 0.183, 0.05, -0.056, -0.652, 1
128976, 1.79, -1.005, 0.176, -0.023, -0.083, -0.654, 1
128996, 1.201, -0.859, 0.185, -0.003, 0.039, -0.621, 1
129016, 0.931, -0.718, 0.352, 0.102, 0.265, -0.634, 1
129036, 0.658, -0.636, 0.561, 0.231, 0.452, -0.689, 1
129056, 0.308, -0.883, 0.546, 0.276, 0.568, -0.806, 1
129076, 0.362, -0.854, 0.419, 0.224, 0.414, -0.948, 1
129096, -0.206, -0.377, 0.376, 0.233, 0.162, -1.08, 1
129116, -1.26, 0.002, 0.022, 0.442, 0.095, -1.291, 1
129136, -2.296, -0.077, -0.64, 0.524, 0.081, -1.425, 1
129156, -2.454, -0.362, -1.549, 0.372, 0.004, -1.472, 1
129176, -2.658, -0.323, -2.1, 0.04, -0.116, -1.431, 1
129196, -3.077, 0.61, -2.017, -0.032, -0.172, -1.346, 1
129216, -3.567, 1.245, -2.573, 0.016, -0.436, -1.227, 1
129236, -5.351, 1.656, -3.537, 0.0, -0.921, -1.152, 1
129256, -6.995, 1.716, -4.245, -0.274, -1.517, -0.755, 1
129276, -8.976, 1.774, -4.38, -0.67, -1.756, 0.007, 1
129296, -9.757, 1.67, -4.399, -0.915, -1.459, 0.918, 1
129316, -9.184, 1.066, -4.087, -1.048, -1.144, 1.713, 1
129336, -7.989, 0.153, -3.479, -1.256, -1.173, 2.422, 1
129356, -7.288, 0.031, -2.665, -1.249, -1.219, 2.99, 1
129376, -5.981, -1.04, -2.381, -1.174, -1.275, 3.499, 1
129396, -5.034, -2.614, -2.944, -1.22, -1.194, 3.798, 1
129416, -3.557, -3.78, -2.679, -1.339, -1.16, 4.0, 1
129436, -2.408, -4.561, -2.102, -1.491, -1.379, 4.297, 1
129456, -1.741, -4.815, -1.974, -1.452, -1.401, 4.654, 1
129476, -1.329, -5.791, -2.429, -1.235, -1.086, 4.954, 1
129496, -0.403, -6.457, -3.376, -1.145, -0.747, 4.922, 1
129516, 0.093, -6.596, -3.234, -1.44, -1.056, 4.744, 1
129536, -1.342, -6.623, -1.67, -1.728, -1.274, 4.745, 1
129556, -1.555, -6.86, -0.355, -1.549, -0.67, 5.081, 1
129576, -0.226, -7.114, -0.144, -0.998, -0.001, 5.37, 1
129596, 0.573, -7.536, -0.018, -0.58, -0.223, 5.382, 1
129616, 0.097, -9.748, -0.407, -0.941, -0.532, 5.098, 1
129636, 1.749, -8.349, 1.934, -1.576, -0.381, 4.276, 1
129656, 3.757, -6.513, 2.847, -1.396, -0.535, 3.737, 1
129676, 4.975, -6.262, 2.721, -0.838, -0.949, 3.232, 1
129696, 5.561, -5.984, 2.053, -0.322, -1.177, 2.478, 1
129716, 5.501, -5.798, 0.956, -0.1, -1.051, 1.624, 1
129736, 5.486, -4.758, 0.577, -0.171, -0.748, 0.981, 1
129756, 5.001, -3.689, 0.491, -0.193, -0.467, 0.527, 1
129776, 4.565, -2.863, 0.72, -0.16, -0.211, 0.16, 1
129796, 4.309, -2.684, 0.809, -0.108, -0.111, -0.134, 1
129816, 3.791, -2.321, 0.544, -0.104, -0.096, -0.507, 1
129836, 3.112, -1.272, 0.132, -0.045, -0.095, -0.929, 1
129856, 1.749, -0.41, -0.538, 0.048, -0.121, -1.224, 1
129876, 0.414, -0.261, -0.776, -0.011, -0.062, -1.302, 1
129896, 0.055, 0.093, -0.579, -0.176, 0.015, -1.202, 1
129916, -0.382, 1.073, -0.601, -0.215, 0.037, -1.05, 1
129936, -1.007, 1.354, -0.817, -0.116, 0.091, -0.951, 1
129956, -1.495, 1.193, -0.753, -0.144, 0.054, -0.761, 1
129976, -2.118, 1.029, -0.574, -0.194, 0.099, -0.588, 1
129996, -1.917, 1.019, -0.126, -0.211, 0.08, -0.462, 1
130016, -1.488, 0.697, 0.132, -0.169, -0.062, -0.422, 1
130036, -1.538, 0.583, 0.032, -0.107, -0.18, -0.398, 1
130056, -1.881, 0.243, -0.225, -0.114, -0.174, -0.354, 1
130076, -1.883, -0.144, -0.184, -0.196, -0.125, -0.204, 1
130096, -0.272, -0.493, -0.57, -0.174, -0.223, -0.07, 1
130116, 1.047, -1.526, -0.926, -0.307, -0.277, -0.165, 1
130136, 2.516, -2.177, -0.867, -0.361, -0.227, -0.39, 1
130156, 3.726, -3.62, -0.763, -0.451, -0.068, -0.72, 1
130176, 4.571, -3.575, -0.923, -0.344, 0.065, -1.276, 1
130196, 5.432, -4.13, -1.837, -0.288, -0.029, -1.954, 1
130216, 4.129, -5.254, -2.261, -0.678, 0.025, -2.435, 1
130236, 3.199, -5.22, -1.359, -0.86, 0.455, -2.653, 1
130256, 3.223, -4.884, -0.107, -0.536, 1.015, -2.823, 1
130276, 2.35, -3.191, -0.122, 0.051, 1.265, -3.264, 1
130296, 1.748, -4.112, -0.987, 0.208, 1.087, -3.42, 1
130316, 0.58, -5.272, -1.533, -0.194, 1.07, -3.407, 1
130336, 0.052, -5.199, -0.554, -0.432, 1.387, -3.364, 1
130356, 1.129, -4.207, 1.105, 0.039, 1.759, -3.444, 1
130376, 1.56, -4.551, 1.139, 0.737, 1.774, -3.784, 1
130396, 1.131, -4.546, -0.117, 1.222, 1.561, -4.098, 1
130416, -3.514, -4.936, -2.487, 0.59, 1.229, -3.983, 1
130436, -3.486, -3.298, -1.733, 0.156, 1.788, -3.667, 1
130456, -3.267, -1.622, -1.52, 0.416, 2.31, -3.398, 1
130476, -2.738, -1.76, -2.02, 0.999, 2.417, -3.504, 1
130496, -4.576, -2.584, -2.446, 0.81, 1.896, -3.221, 1
130516, -6.302, -1.92, -1.63, 0.174, 1.612, -3.035, 1
130536, -6.978, -0.037, -0.846, 0.022, 1.784, -2.821, 1
130556, -7.552, 0.982, -1.02, 0.339, 1.635, -2.591, 1
130576, -7.067, 0.897, -1.655, 0.548, 1.122, -2.312, 1
130596, -8.167, 0.147, -2.125, 0.228, 0.552, -1.759, 1
130616, -8.223, 0.45, -1.634, -0.128, 0.69, -1.131, 1
130636, -7.021, 1.035, -0.791, -0.091, 1.094, -0.459, 1
130656, -4.238, 1.124, -0.795, 0.286, 1.233, 0.009, 1
130676, -2.63, -0.549, -1.519, 0.394, 0.785, 0.114, 1
130696, -1.44, -0.544, -1.851, 0.158, 0.315, -0.156, 1
130716, -1.281, -0.581, -1.822, -0.026, 0.039, -0.406, 1
130736, -1.892, 0.045, -1.325, -0.14, 0.057, -0.408, 1
130756, -2.089, -0.098, -1.133, -0.02, 0.237, -0.343, 1
130776, -1.478, 0.08, -0.924, -0.159, 0.052, -0.052, 1
130796, -0.385, -0.338, -0.805, -0.288, -0.133, 0.062, 1
130816, 1.211, -0.937, -0.449, -0.47, -0.298, -0.058, 1
130836, 2.033, -0.904, 0.156, -0.544, -0.33, -0.289, 1
130856, 1.898, -0.848, 0.723, -0.376, -0.195, -0.446, 1
130876, 2.046, -0.637, 0.794, -0.028, 0.014, -0.536, 1
130896, 2.167, -1.036, 0.372, 0.349, 0.147, -0.7, 1
130916, 1.553, -1.139, -0.148, 0.273, 0.195, -0.7, 1
130936, 0.554, -0.797, -0.673, 0.149, 0.39, -0.693, 1
130956, 0.08, -0.269, -0.53, 0.023, 0.429, -0.604, 1
130976, -0.416, 0.004, -0.271, -0.023, 0.431, -0.536, 1
130996, -0.606, 0.106, -0.077, 0.018, 0.387, -0.422, 1
131016, -0.784, -0.102, 0.053, 0.003, 0.244, -0.205, 1
131036, -0.936, -0.038, -0.048, 0.052, 0.222, -0.106, 1
131056, -0.594, -1.06, -0.433, -0.092, 0.26, -0.174, 1
131076, -0.451, -0.559, -0.009, -0.128, 0.298, -0.205, 1
131096, -0.448, -0.122, 0.335, 0.026, 0.299, -0.142, 1
131116, -0.538, -0.013, 0.024, 0.275, 0.323, -0.151, 1
131136, -1.013, 0.165, -1.127, 0.417, 0.28, -0.348, 1
131156, -2.849, 0.343, -3.033, 0.171, 0.145, -0.286, 1
131176, -4.368, 1.203, -3.487, -0.175, 0.01, -0.115, 1
131196, -5.554, 2.3, -4.323, -0.22, -0.17, -0.083, 1
131216, -7.118, 2.345, -5.273, -0.367, -0.809, -0.318, 1
131236, -10.141, 2.509, -5.142, -0.709, -1.77, -0.3, 1
131256, -13.61, 2.262, -4.103, -1.03, -2.253, 0.708, 1
131276, -14.304, 1.438, -3.628, -0.887, -2.08, 2.138, 1
131296, -12.35, -0.426, -3.693, -0.613, -1.893, 3.288, 1
131316, -9.253, -2.392, -3.796, -0.477, -2.169, 4.043, 1
131336, -7.239, -5.831, -5.138, -0.912, -2.464, 4.335, 1
131356, -5.447, -7.475, -5.094, -1.441, -2.589, 4.519, 1
131376, -4.213, -8.164, -4.248, -1.479, -2.499, 5.195, 1
131396, -3.474, -10.392, -2.69, -1.168, -1.735, 5.803, 1
131416, -4.518, -11.776, -1.85, -0.868, -1.16, 6.544, 1
131436, -4.158, -13.676, -0.719, -0.657, -0.611, 7.249, 1
131456, -2.779, -15.227, 0.496, -0.596, -0.634, 7.638, 1
131476, -2.333, -15.834, 1.022, -0.699, -1.226, 7.307, 1
131496, -2.542, -16.466, 2.418, -0.938, -2.016, 6.801, 1
131516, -1.982, -14.278, 2.942, -1.08, -2.684, 6.476, 1
131536, 2.66, -13.719, 1.915, -0.2, -2.602, 6.256, 1
131556, 9.917, -12.806, -0.78, 0.902, -2.614, 5.421, 1
131576, 12.121, -12.445, -6.913, 1.809, -2.805, 3.21, 1
131596, 11.521, -11.033, -9.841, 1.047, -2.433, 1.2, 1
131616, 10.971, -5.81, -8.185, -0.206, -1.414, 0.514, 1
131636, 9.561, -3.63, -5.344, -0.559, 0.008, 0.188, 1
131656, 7.59, -1.995, -1.75, -0.685, 0.651, -0.192, 1
131676, 5.085, -0.267, 0.767, -0.543, 0.516, -0.647, 1
131696, 2.916, 1.031, 0.602, -0.056, 0.107, -0.916, 1
131716, -0.1, 1.335, -0.747, 0.305, -0.359, -0.868, 1
131736, -1.96, 0.718, -1.707, 0.218, -0.293, -0.494, 1
131756, -1.854, 0.267, -1.716, -0.045, 0.174, -0.128, 1
131776, -1.782, 0.037, -0.48, -0.288, 0.444, 0.087, 1
131796, -1.652, 0.147, 0.894, -0.312, 0.525, 0.275, 1
131816, -0.614, -0.536, 1.174, -0.135, 0.326, 0.34, 1
131836, -0.037, -1.486, 0.67, -0.048, 0.0, 0.221, 1
131856, 0.078, -1.708, 0.089, -0.081, -0.259, -0.062, 1
131876, 0.076, -1.076, -0.191, -0.096, -0.41, -0.323, 1
131896, -0.454, -0.663, -0.631, -0.106, -0.404, -0.284, 1
131916, -0.409, -0.683, -0.93, -0.099, -0.201, -0.064, 1
131936, 0.791, -1.712, -1.273, -0.18, 0.073, -0.022, 1
131956, 2.357, -2.402, -1.202, -0.307, 0.212, -0.274, 1
131976, 4.007, -3.382, -1.199, -0.355, 0.166, -0.615, 1
131996, 5.878, -4.774, -1.546, -0.475, 0.008, -1.196, 1
132016, 6.504, -6.464, -2.224, -0.677, 0.034, -2.086, 1
132036, 5.868, -7.032, -2.292, -0.813, 0.234, -2.933, 1
132056, 4.214, -5.883, -2.21, -0.643, 0.582, -3.577, 1
132076, 3.376, -6.537, -2.433, -0.452, 0.902, -4.004, 1
132096, 2.988, -8.264, -2.317, -0.628, 1.016, -4.185, 1
132116, 1.843, -8.502, -1.372, -0.664, 1.484, -4.495, 1
132136, 1.588, -7.127, -0.483, -0.051, 2.026, -4.706, 1
132156, 1.178, -7.985, -0.22, 0.567, 2.492, -4.886, 1
132176, 1.234, -9.047, 0.37, 0.787, 2.743, -5.203, 1
132196, 1.905, -8.917, 0.761, 0.919, 2.55, -5.731, 1
132216, -0.045, -6.458, 0.021, 1.307, 2.148, -6.456, 1
132236, -1.678, -5.908, -1.043, 1.445, 1.523, -6.508, 1
132256, -4.493, -7.129, -1.128, 0.574, 1.29, -5.63, 1
132276, -6.289, -5.741, -0.056, 0.103, 2.082, -4.571, 1
132296, -6.077, -2.788, -0.076, 0.874, 2.944, -4.023, 1
132316, -4.643, -0.805, -2.232, 1.908, 2.294, -4.391, 1
132336, -5.857, -4.076, -4.945, 0.926, 0.56, -4.112, 1
132356, -10.093, -3.354, -4.206, -0.912, 0.888, -2.526, 1
132376, -9.622, 1.495, -2.462, -0.237, 2.222, -1.296, 1
132396, -7.299, 0.468, -3.111, 0.634, 2.5, -0.623, 1
132416, -4.066, -1.191, -4.1, 0.663, 1.921, -0.78, 1
132436, -3.531, -1.921, -3.88, -0.039, 0.894, -1.004, 1
132456, -4.221, -0.646, -2.825, -0.55, 0.48, -0.943, 1
132476, -5.032, -0.017, -2.389, -0.317, 0.566, -0.789, 1
132496, -4.928, 0.076, -2.61, 0.017, 0.454, -0.632, 1
132516, -4.025, -0.575, -2.565, -0.153, -0.091, -0.325, 1
132536, -3.269, -0.367, -2.242, -0.509, -0.516, -0.116, 1
132556, -2.666, -0.252, -2.168, -0.545, -0.352, -0.039, 1
132576, -2.177, -0.21, -1.781, -0.414, -0.191, 0.047, 1
132596, -4.141, -0.859, -1.83, -0.368, -0.525, 0.054, 1
132616, -6.927, -0.639, -1.876, -0.49, -1.028, 0.336, 1
132636, -9.331, -0.325, -2.779, -0.423, -1.119, 0.825, 1
132656, -9.914, -0.314, -3.748, -0.235, -0.897, 1.412, 1
132676, -9.59, -0.817, -4.526, -0.277, -0.972, 2.079, 1
132696, -8.906, -0.979, -4.952, -0.469, -1.421, 2.746, 1
132716, -8.734, -1.659, -5.357, -0.595, -1.851, 3.366, 1
132736, -7.991, -2.855, -5.538, -0.704, -1.894, 4.006, 1
132756, -6.038, -4.88, -5.191, -0.924, -1.877, 4.768, 1
132776, -4.44, -7.036, -4.127, -1.254, -1.99, 5.227, 1
132796, -3.425, -8.359, -2.794, -1.556, -2.16, 5.62, 1
132816, -1.94, -9.052, -1.61, -1.425, -2.128, 5.96, 1
132836, -1.061, -10.141, -1.423, -0.87, -2.067, 6.3, 1
132856, -2.315, -12.71, -1.913, -0.51, -1.675, 6.276, 1
132876, -2.819, -14.302, -1.111, -0.835, -1.08, 6.539, 1
132896, -2.765, -14.506, -0.124, -0.921, -0.462, 6.679, 1
132916, -0.462, -14.35, 1.322, -0.847, -0.765, 6.693, 1
132936, 1.709, -13.703, 2.38, -0.462, -1.612, 6.601, 1
132956, 3.885, -13.872, 1.695, 0.022, -2.189, 6.294, 1
132976, 6.333, -13.499, -1.089, 0.28, -1.753, 5.13, 1
132996, 13.616, -11.281, -3.84, 0.543, -1.83, 2.813, 1
133016, 13.488, -8.811, -5.749, 0.32, -1.957, 1.144, 1
133036, 10.841, -6.697, -4.963, -0.27, -1.152, 0.445, 1
133056, 8.068, -3.182, -2.958, -0.226, -0.043, 0.034, 1
133076, 6.028, -2.168, -1.865, -0.021, 0.463, -0.251, 1
133096, 4.319, -1.024, -1.128, 0.105, 0.429, -0.522, 1
133116, 2.621, -0.974, -0.917, 0.001, 0.259, -0.76, 1
133136, 0.81, -1.236, -0.813, -0.312, 0.169, -0.937, 1
133156, -0.32, -0.989, -0.596, -0.528, 0.131, -0.946, 1
133176, -1.237, -0.34, -0.408, -0.426, 0.211, -0.797, 1
133196, -1.416, -0.554, -0.386, -0.225, 0.457, -0.546, 1
133216, -0.853, -1.357, -0.545, -0.13, 0.778, -0.378, 1
133236, 1.085, -2.067, -0.643, -0.124, 0.824, -0.561, 1
133256, 2.516, -3.478, -0.946, -0.331, 0.484, -1.081, 1
133276, 2.481, -3.175, -0.919, -0.456, 0.109, -1.615, 1
133296, 1.733, -3.295, -1.186, -0.411, 0.181, -1.888, 1
133316, 1.955, -4.245, -1.522, -0.392, 0.48, -2.102, 1
133336, 2.85, -5.587, -1.545, -0.599, 0.629, -2.547, 1
133356, 1.842, -4.865, -0.164, -0.54, 0.795, -2.916, 1
133376, 1.337, -4.666, 0.176, -0.188, 0.94, -3.289, 1
133396, 0.897, -4.317, -0.575, 0.135, 0.932, -3.538, 1
133416, -0.449, -4.792, -1.134, 0.12, 0.671, -3.482, 1
133436, -1.148, -4.725, -0.258, -0.174, 0.932, -3.382, 1
133456, -0.976, -3.341, 0.705, -0.124, 1.387, -3.387, 1
133476, -0.754, -2.288, 0.893, 0.497, 1.618, -3.677, 1
133496, -1.377, -3.931, 0.13, 0.901, 1.108, -3.594, 1
133516, -3.001, -4.298, 0.271, 0.478, 0.552, -3.03, 1
133536, -2.993, -3.995, 0.966, 0.274, 1.134, -2.787, 1
133556, -1.131, -2.753, 1.074, 0.681, 1.626, -2.78, 1
133576, -0.811, -2.535, 0.407, 1.289, 1.365, -2.996, 1
133596, -1.431, -4.403, -0.752, 1.439, 0.881, -3.145, 1
133616, -2.288, -3.543, -1.423, 0.904, 0.66, -2.96, 1
133636, -2.466, -2.327, -1.871, 0.81, 0.924, -3.059, 1
133656, -2.351, -2.733, -1.765, 0.67, 0.769, -3.061, 1
133676, -2.627, -2.249, -1.186, 0.423, 0.632, -3.058, 1
133696, -3.337, -0.558, -1.95, 0.459, 0.66, -2.911, 1
133716, -4.484, -0.344, -2.992, 0.654, 0.515, -2.908, 1
133736, -6.349, -0.56, -3.289, 0.313, 0.365, -2.635, 1
133756, -6.836, 0.288, -2.53, -0.045, 0.802, -2.194, 1
133776, -5.986, 0.966, -1.463, -0.072, 1.109, -1.442, 1
133796, -4.446, 0.77, -1.149, 0.237, 1.31, -0.759, 1
133816, -2.625, -0.058, -1.726, 0.426, 1.154, -0.525, 1
133836, -2.446, -0.426, -2.509, 0.157, 0.42, -0.607, 1
133856, -3.096, -0.502, -2.633, -0.214, 0.215, -0.489, 1
133876, -3.425, -0.016, -1.983, -0.379, 0.372, -0.186, 1
133896, -2.452, 0.085, -1.389, -0.34, 0.481, 0.056, 1
133916, -1.031, -0.311, -1.079, -0.287, 0.309, 0.162, 1
133936, -0.572, -0.694, -0.727, -0.326, 0.122, 0.15, 1
133956, -0.196, -0.844, -0.538, -0.335, 0.057, 0.121, 1
133976, 0.279, -0.882, -0.414, -0.347, 0.067, 0.096, 1
133996, 0.566, -0.757, -0.191, -0.306, 0.092, 0.04, 1
134016, 0.997, -0.576, 0.001, -0.207, 0.009, -0.01, 1
134036, 1.072, -0.601, 0.177, -0.1, -0.069, -0.065, 1
134056, 0.977, -0.9, -0.068, -0.039, 0.02, -0.075, 1
134076, 1.037, -0.819, -0.165, -0.029, 0.152, -0.045, 1
134096, 0.93, -0.825, -0.222, -0.036, 0.28, -0.055, 1
134116, 0.91, -0.823, -0.084, -0.052, 0.298, -0.128, 1
134136, 0.695, -0.599, 0.078, -0.058, 0.257, -0.213, 1
134156, 0.255, -0.364, 0.154, -0.036, 0.166, -0.214, 1
134176, -0.45, 0.126, 0.057, 0.009, 0.116, -0.147, 1
134196, -1.252, 0.295, -0.103, 0.042, 0.168, 0.055, 1
134216, -1.397, 0.273, -0.203, 0.059, 0.277, 0.231, 1
134236, -0.761, -0.07, -0.502, 0.002, 0.278, 0.277, 1
134256, -0.277, -0.136, -0.583, -0.109, 0.106, 0.245, 1
134276, -0.03, -0.118, -0.565, -0.184, -0.067, 0.182, 1
134296, -0.166, -0.078, -0.4, -0.174, -0.1, 0.202, 1
134316, -0.141, -0.163, -0.38, -0.091, 0.037, 0.271, 1
134336, 0.461, -0.425, -0.385, -0.074, 0.075, 0.307, 1
134356, 0.578, -0.606, -0.44, -0.089, 0.077, 0.255, 1
134376, 0.718, -0.514, -0.296, -0.15, -0.004, 0.122, 1
134396, 0.364, -0.362, -0.291, -0.197, -0.116, 0.03, 1
134416, 0.016, -0.097, -0.092, -0.221, -0.078, 0.037, 1
134436, -0.049, -0.044, 0.026, -0.15, 0.035, 0.098, 1
134456, 0.025, -0.285, -0.049, -0.113, 0.106, 0.181, 1
134476, 0.113, -0.155, -0.025, -0.192, 0.122, 0.24, 1
134496, 0.267, -0.122, 0.064, -0.124, 0.053, 0.204, 1
134516, 0.027, -0.157, 0.034, -0.116, 0.014, 0.243, 1
134536, -0.05, -0.014, -0.084, -0.106, 0.054, 0.231, 1
134556, -0.35, -0.052, -0.205, -0.124, 0.14, 0.298, 1
134576, -0.273, -0.167, -0.199, -0.13, 0.297, 0.378, 1
134596, -0.006, -0.035, -0.039, -0.22, 0.332, 0.424, 1
134616, -0.145, 0.145, 0.02, -0.216, 0.26, 0.416, 1
134636, -0.323, 0.217, -0.303, -0.172, 0.182, 0.449, 1
134656, -0.597, 0.179, -0.625, -0.117, 0.24, 0.436, 1
134676, -0.703, 0.243, -0.847, -0.101, 0.387, 0.432, 1
134696, -1.034, 0.563, -0.966, -0.091, 0.488, 0.554, 1
134716, -1.223, 0.359, -1.079, -0.064, 0.547, 0.693, 1
134736, -1.38, 0.057, -1.111, -0.114, 0.583, 0.866, 1
134756, -2.078, 0.432, -1.43, -0.245, 0.819, 1.166, 1
134776, -3.124, 1.194, -1.961, -0.178, 1.381, 1.598, 1
134796, -2.564, 0.782, -2.391, 0.155, 2.723, 2.349, 1
134816, -2.895, 0.441, -2.252, 0.196, 3.594, 2.72, 1
134836, -1.989, 0.641, -1.785, 0.319, 4.558, 3.222, 1
134856, -1.25, -1.044, -1.439, 0.295, 5.291, 3.209, 1
134876, 0.325, -1.669, -0.343, 0.175, 5.597, 2.96, 1
134896, -1.159, -1.472, 0.506, 0.069, 6.032, 3.202, 1
134916, -2.406, -1.611, 1.615, 0.184, 6.811, 3.489, 1
134936, -1.969, -1.704, 2.728, 0.352, 7.162, 3.404, 1
134956, -1.152, -0.45, 3.118, 0.662, 6.95, 3.246, 1
134976, -0.714, 1.226, 3.012, 1.032, 6.365, 2.701, 1
134996, 0.007, 3.5, 2.63, 1.322, 5.5, 2.146, 1
135016, -0.586, 6.054, 1.692, 1.549, 4.888, 1.922, 1
135036, -1.053, 6.412, 0.661, 1.518, 4.461, 1.645, 1
135056, -0.494, 5.661, 0.066, 1.274, 3.946, 1.188, 1
135076, -0.164, 4.92, -0.361, 0.866, 3.257, 0.955, 1
135096, -0.204, 4.653, 0.013, 0.444, 2.423, 0.901, 1
135116, -0.281, 4.937, 0.272, 0.523, 2.004, 0.815, 1
135136, -0.78, 4.776, -0.174, 0.767, 2.004, 0.874, 1
135156, 0.474, 3.488, -0.61, 0.741, 1.835, 0.848, 1
135176, 1.681, 2.755, -0.88, 0.306, 1.028, 0.502, 1
135196, 1.479, 3.106, -0.692, -0.087, 0.235, 0.103, 1
135216, 0.493, 3.704, -0.438, -0.204, -0.057, 0.017, 1
135236, 0.212, 4.1, -0.298, -0.06, 0.053, 0.045, 1
135256, 0.506, 3.832, -0.228, -0.014, 0.01, 0.071, 1
135276, 0.551, 3.897, -0.316, -0.06, -0.02, 0.037, 1
135296, 0.8, 3.81, -0.404, -0.226, -0.394, -0.036, 1
135316, 0.591, 4.24, -0.314, -0.341, -0.652, -0.18, 1
135336, 0.527, 4.607, -0.105, -0.398, -0.945, -0.265, 1
135356, 0.41, 4.683, 0.081, -0.423, -1.31, -0.315, 1
135376, 0.596, 5.011, 0.106, -0.606, -1.792, -0.295, 1
135396, 1.728, 5.087, 0.174, -0.948, -2.566, -0.37, 1
135416, 2.777, 5.169, 1.298, -1.577, -4.186, -0.895, 1
135436, 0.936, 5.267, 2.634, -2.036, -5.807, -1.78, 1
135456, -0.592, 4.428, 3.533, -2.014, -6.24, -2.321, 1
135476, -1.218, 3.438, 3.409, -1.522, -5.867, -2.325, 1
135496, -0.227, 1.726, 2.857, -0.921, -5.305, -2.296, 1
135516, 0.316, -0.192, 2.391, -0.716, -5.37, -2.45, 1
135536, 0.3, -0.675, 2.471, -0.888, -5.632, -2.594, 1
135556, 0.048, -0.679, 2.57, -1.111, -5.675, -2.603, 1
135576, -0.076, 0.292, 2.428, -0.999, -5.302, -2.552, 1
135596, 0.144, 0.166, 1.918, -0.454, -4.743, -2.532, 1
135616, -0.182, -0.249, 1.312, 0.058, -4.313, -2.619, 1
135636, -0.81, -0.714, 0.898, 0.105, -4.009, -2.487, 1
135656, -1.424, -0.105, 0.908, -0.196, -3.635, -1.992, 1
135676, -1.427, 0.61, 0.982, -0.23, -2.845, -1.424, 1
135696, -1.238, 0.939, 0.564, 0.186, -1.852, -1.053, 1
135716, -0.596, 0.103, -0.517, 0.594, -0.892, -0.75, 1
135736, 0.233, -0.654, -0.991, 0.488, -0.388, -0.522, 1
135756, 0.362, -0.096, -0.473, 0.211, -0.344, -0.55, 1
135776, 0.583, 0.451, -0.07, 0.192, -0.648, -0.662, 1
135796, 0.317, 0.833, -0.182, 0.317, -0.901, -0.576, 1
135816, 0.112, 0.765, -0.845, 0.414, -0.987, -0.49, 1
135836, -0.348, 0.446, -1.709, 0.302, -0.928, -0.346, 1
135856, -0.878, 0.25, -2.148, 0.07, -0.64, -0.191, 1
135876, -0.873, 0.452, -2.142, -0.089, -0.295, 0.027, 1
135896, -0.646, 0.551, -1.799, -0.035, -0.011, 0.196, 1
135916, -0.095, 0.208, -1.55, -0.023, 0.193, 0.302, 1
135936, 0.356, -0.175, -1.276, -0.103, 0.285, 0.318, 1
135956, 0.58, -0.188, -0.893, -0.174, 0.265, 0.317, 1
135976, 0.638, -0.217, -0.522, -0.224, 0.14, 0.299, 1
135996, 0.434, -0.208, -0.287, -0.208, 0.09, 0.28, 1
136016, 0.213, -0.039, 0.04, -0.123, 0.141, 0.304, 1
136036, 0.135, -0.052, 0.007, -0.072, 0.175, 0.34, 1
136056, 0.553, -0.431, -0.409, -0.131, 0.081, 0.269, 1
136076, 1.205, -0.522, -0.664, -0.317, -0.144, 0.133, 1
136096, 1.149, -0.409, -0.616, -0.444, -0.343, 0.015, 1
136116, 0.425, -0.271, -0.273, -0.467, -0.248, 0.006, 1
136136, 0.008, -0.085, -0.021, -0.349, 0.018, 0.133, 1
136156, -0.095, -0.262, 0.334, -0.214, 0.339, 0.246, 1
136176, 0.095, -0.483, 0.685, -0.139, 0.52, 0.291, 1
136196, 0.416, -0.603, 0.873, -0.1, 0.55, 0.278, 1
136216, 0.795, -0.906, 0.888, -0.133, 0.379, 0.15, 1
136236, 0.2, -0.538, 1.024, -0.086, 0.271, -0.003, 1
136256, -0.649, -0.287, 0.837, 0.053, 0.243, -0.055, 1
136276, -2.209, 0.374, 0.186, 0.029, 0.213, 0.169, 1
136296, -1.714, 0.463, -0.048, 0.091, 0.358, 0.392, 1
136316, -1.002, 0.349, -0.369, 0.129, 0.324, 0.495, 1
136336, -0.135, 0.162, -0.86, 0.079, 0.167, 0.477, 1
136356, 0.282, -0.057, -1.293, -0.053, 0.004, 0.384, 1
136376, 0.532, 0.217, -1.348, -0.179, 0.026, 0.25, 1
136396, 0.363, 0.214, -1.35, -0.197, 0.149, 0.21, 1
136416, 0.233, 0.069, -1.067, -0.188, 0.299, 0.144, 1
136436, 0.331, -0.082, -0.727, -0.219, 0.324, 0.054, 1
136456, 0.2, -0.171, -0.37, -0.293, 0.211, -0.054, 1
136476, 0.03, -0.118, -0.021, -0.307, 0.109, -0.138, 1
136496, -0.233, -0.146, 0.174, -0.249, 0.0, -0.159, 1
136516, -0.12, -0.256, 0.169, -0.125, -0.007, -0.227, 1
136536, -0.068, -0.527, -0.077, -0.077, -0.082, -0.315, 1
136556, -0.277, -0.501, -0.163, -0.128, -0.102, -0.387, 1
136576, -0.4, -0.288, -0.116, -0.081, 0.014, -0.425, 1
136596, -0.584, -0.156, -0.257, -0.018, 0.059, -0.37, 1
136616, -0.635, -0.146, -0.316, -0.004, -0.023, -0.307, 1
136636, -0.378, -0.137, -0.342, -0.007, -0.123, -0.276, 1
136656, -0.123, -0.136, -0.454, 0.022, -0.156, -0.321, 1
136676, -0.108, -0.169, -0.753, -0.042, -0.201, -0.314, 1
136696, -0.082, 0.043, -0.409, -0.119, -0.105, -0.246, 1
136716, 0.512, -0.109, -0.111, -0.088, 0.03, -0.275, 1
136736, 0.435, -0.181, -0.128, -0.086, -0.108, -0.416, 1
136756, 0.063, -0.08, -0.037, -0.16, -0.144, -0.475, 1
136776, -0.119, -0.073, -0.07, -0.173, 0.018, -0.549, 1
136796, -0.206, 0.288, 0.116, -0.014, 0.09, -0.547, 1
136816, 0.246, 0.371, 0.415, 0.234, 0.109, -0.662, 1
136836, 0.966, 0.007, 0.062, 0.233, -0.171, -0.731, 0
136856, 0.554, -0.099, -0.932, 0.087, -0.131, -0.981, 0
136876, 0.78, 0.246, -1.182, -0.04, -0.118, -1.196, 0
136896, 0.212, 0.237, -1.329, -0.058, 0.015, -1.333, 0
136916, -0.133, 0.212, -0.656, -0.064, -0.127, -1.301, 0
136936, -1.387, 0.809, -0.464, 0.062, -0.321, -1.142, 0
136956, -2.147, 2.247, -0.972, 0.394, -0.741, -1.191, 0
136976, -2.594, 1.139, -2.176, 0.43, -1.046, -1.29, 0
136996, -2.392, 0.553, -2.97, 0.265, -1.151, -1.288, 0
137016, -3.63, 0.401, -3.627, 0.01, -1.031, -0.937, 0
137036, -5.419, 0.506, -4.164, -0.193, -0.646, -0.356, 0
137056, -6.749, 0.911, -3.031, -0.213, -0.969, 0.143, 0
137076, -9.241, 0.309, -2.673, -0.227, -1.245, 0.918, 0
137096, -10.053, -1.654, -3.582, -0.493, -1.508, 1.663, 0
137116, -10.419, -2.347, -3.313, -0.702, -1.852, 2.359, 0
137136, -11.371, -2.975, -2.68, -0.73, -1.996, 3.161, 0
137156, -11.116, -3.839, -2.616, -0.469, -1.753, 3.976, 0
137176, -8.136, -5.447, -3.085, -0.312, -1.817, 4.688, 0
137196, -4.947, -7.761, -4.233, -0.498, -2.214, 5.015, 0
137216, -2.45, -9.047, -4.442, -0.829, -2.688, 4.92, 0
137236, -3.91, -8.467, -3.329, -0.645, -2.082, 5.481, 0
137256, -3.001, -9.85, -0.641, -0.202, -1.348, 6.217, 0
137276, 0.399, -12.914, -1.011, 0.107, -1.211, 6.436, 0
137296, 1.541, -13.527, -1.385, -0.24, -1.633, 5.764, 0
137316, -1.12, -11.871, -0.263, -0.717, -1.882, 5.359, 0
137336, -3.112, -11.007, 1.929, -0.445, -1.236, 5.831, 0
137356, 0.661, -12.353, 2.484, 0.365, -0.316, 6.252, 0
137376, 4.704, -13.466, 1.701, 0.547, -0.627, 6.066, 0
137396, 5.926, -11.133, 0.337, 0.351, -1.396, 5.029, 0
137416, 5.876, -9.545, -0.605, 0.271, -1.623, 4.205, 0
137436, 6.981, -7.266, -0.451, 0.317, -1.223, 3.512, 0
137456, 9.387, -6.035, -1.77, 0.742, -0.947, 2.912, 0
137476, 10.102, -6.348, -3.626, 0.718, -0.769, 2.194, 0
137496, 9.905, -4.324, -2.542, 0.189, -0.188, 1.296, 0
137516, 8.563, -3.221, -1.177, 0.02, 0.174, 0.468, 0
137536, 6.196, -1.858, -0.466, -0.078, 0.018, -0.235, 0
137556, 2.394, -0.715, -0.816, -0.066, -0.207, -0.68, 0
137576, -0.151, -0.245, -1.15, -0.098, 0.01, -0.742, 0
137596, -0.927, 0.181, -0.469, -0.207, 0.282, -0.579, 0
137616, -1.244, 1.23, 0.547, -0.16, 0.239, -0.433, 0
137636, -1.552, 0.932, 0.307, 0.098, 0.138, -0.23, 0
137656, -1.191, 0.367, -0.601, 0.172, 0.189, -0.048, 0
137676, -0.257, -0.259, -0.824, 0.004, 0.269, 0.001, 0
137696, -0.029, 0.053, -0.397, -0.146, 0.12, -0.113, 0
137716, -1.009, 0.137, -0.11, -0.127, -0.011, -0.131, 0
137736, -1.375, 0.39, 0.178, 0.0, 0.05, -0.014, 0
137756, -0.665, 0.007, -0.177, 0.019, 0.066, 0.032, 0
137776, -0.199, -0.382, -0.587, -0.061, 0.06, 0.001, 0
137796, -0.192, -0.338, -0.737, -0.099, 0.2, -0.019, 0
137816, -0.379, -0.686, -0.492, -0.313, 0.381, 0.121, 0
137836, -0.416, -0.333, -0.428, -0.554, 0.538, 0.365, 0
137856, 0.086, -0.135, -0.155, -0.505, 0.572, 0.421, 1
137876, 0.729, -0.629, -0.104, -0.409, 0.405, 0.317, 1
137896, 0.124, -0.462, -0.092, -0.331, 0.21, 0.115, 1
137916, -0.294, -0.087, 0.056, -0.207, 0.009, 0.007, 1
137936, -0.565, 0.077, 0.063, -0.028, 0.047, -0.073, 1
137956, -0.298, 0.054, 0.054, 0.039, 0.086, -0.038, 1
137976, -0.175, -0.156, -0.189, -0.007, 0.029, -0.056, 1
137996, -0.4, -0.149, -0.493, -0.159, -0.087, -0.015, 1
138016, -0.552, 0.196, -0.386, -0.16, -0.005, 0.059, 1
138036, 0.035, -0.072, -0.285, -0.117, 0.051, 0.11, 1
138056, 0.775, -0.539, -0.33, -0.118, 0.028, 0.109, 1
138076, 1.791, -1.333, -0.352, -0.23, -0.078, -0.069, 1
138096, 2.477, -1.417, -0.403, -0.314, -0.161, -0.381, 1
138116, 2.995, -1.34, -0.86, -0.363, -0.221, -0.618, 1
138136, 3.341, -2.191, -1.538, -0.493, -0.151, -0.868, 1
138156, 4.751, -3.218, -1.955, -0.783, -0.193, -1.298, 1
138176, 4.844, -4.06, -1.555, -1.014, -0.287, -1.96, 1
138196, 4.418, -3.997, -1.139, -1.125, -0.131, -2.446, 1
138216, 4.217, -3.593, -1.01, -0.999, 0.058, -3.002, 1
138236, 2.119, -4.185, -1.472, -0.915, 0.287, -3.243, 1
138256, 1.184, -4.895, -1.291, -1.006, 0.75, -3.298, 1
138276, 1.507, -4.833, -0.447, -1.062, 1.243, -3.389, 1
138296, 2.028, -4.37, 0.047, -0.909, 1.444, -3.609, 1
138316, 1.62, -4.673, -0.085, -0.638, 1.229, -3.928, 1
138336, 1.033, -5.03, -0.307, -0.489, 1.004, -4.286, 1
138356, 0.222, -5.452, -0.189, -0.481, 1.145, -4.546, 1
138376, 0.225, -5.6, -0.058, -0.448, 1.34, -4.658, 1
138396, 0.223, -5.473, 0.049, -0.266, 1.54, -4.66, 1
138416, -0.331, -6.548, -0.389, -0.088, 1.635, -4.593, 1
138436, -1.379, -6.244, -0.625, -0.291, 1.489, -4.318, 1
138456, -3.045, -5.911, -0.796, -0.43, 1.5, -4.316, 1
138476, -4.246, -4.639, -0.474, -0.423, 1.652, -4.422, 1
138496, -4.211, -3.966, -0.044, -0.216, 1.751, -4.293, 1
138516, -4.286, -4.563, -0.27, -0.133, 1.53, -3.728, 1
138536, -5.095, -4.728, -0.66, -0.225, 1.276, -3.137, 1
138556, -6.267, -3.779, -1.009, -0.158, 1.558, -3.071, 1
138576, -6.621, -2.531, -0.824, 0.029, 1.75, -3.015, 1
138596, -6.863, -2.175, -0.619, 0.047, 1.58, -2.411, 1
138616, -6.069, -2.518, -0.978, 0.072, 1.418, -1.827, 1
138636, -5.284, -1.603, -0.966, 0.047, 1.243, -1.459, 1
138656, -4.936, -1.04, -1.699, 0.255, 0.964, -1.361, 1
138676, -5.268, -1.281, -2.94, 0.346, 0.528, -1.365, 1
138696, -7.121, -1.226, -3.13, -0.375, 0.076, -0.546, 1
138716, -7.375, -0.196, -1.898, -0.394, 0.795, -0.081, 1
138736, -4.541, 0.455, -0.793, -0.071, 1.013, 0.183, 1
138756, -2.212, -0.075, -0.929, 0.086, 0.444, 0.133, 1
138776, -2.056, -0.456, -1.455, 0.007, -0.141, 0.002, 1
138796, -2.932, -0.666, -1.829, -0.167, 0.061, 0.025, 1
138816, -1.934, -0.345, -1.224, -0.279, 0.188, 0.199, 1
138836, -0.536, -0.264, -0.451, -0.222, -0.001, 0.2, 1
138856, 0.177, -0.439, -0.243, -0.105, -0.161, 0.078, 1
138876, 0.162, -0.634, -0.354, -0.032, -0.138, 0.033, 1
138896, 0.257, -0.762, -0.264, -0.043, 0.015, 0.074, 1
138916, 0.694, -0.834, -0.126, -0.089, 0.058, 0.081, 1
138936, 0.769, -0.669, -0.018, -0.053, 0.025, -0.004, 1
138956, 0.569, -0.699, -0.077, -0.046, -0.011, -0.04, 1
138976, 0.615, -0.673, 0.111, -0.006, 0.033, -0.114, 1
138996, 0.629, -0.658, 0.126, 0.031, 0.106, -0.181, 1
139016, 0.826, -0.653, 0.083, 0.054, 0.157, -0.257, 1
139036, 0.563, -0.477, -0.029, 0.025, 0.157, -0.251, 1
139056, -0.05, -0.405, -0.227, -0.037, 0.145, -0.233, 1
139076, -0.288, -0.173, -0.119, -0.107, 0.131, -0.216, 1
139096, -0.692, 0.055, -0.268, 0.055, 0.248, -0.389, 1
139116, -1.539, 0.492, -0.074, 0.458, 0.45, -0.481, 0
139136, -0.898, -0.39, -0.09, 0.49, 0.541, -0.309, 0
139156, -1.286, -0.619, -0.322, 0.059, 0.494, -0.062, 0
139176, -2.139, 0.639, -0.803, -0.021, 0.509, -0.164, 0
139196, -3.34, 0.784, -1.413, 0.103, 0.238, 0.053, 0
139216, -8.212, 3.064, -3.332, 0.266, -0.116, 0.313, 0
139236, -13.86, 2.622, -5.642, 0.153, -0.343, 0.734, 0
139256, -14.788, 2.5, -5.289, -0.256, -0.318, 1.811, 0
139276, -13.577, 0.957, -5.068, -0.554, -0.7, 2.795, 0
139296, -11.6, -1.123, -5.364, -0.744, -1.148, 3.549, 0
139316, -9.947, -3.348, -5.843, -0.897, -1.591, 4.158, 0
139336, -10.219, -5.478, -5.293, -1.153, -1.828, 4.666, 0
139356, -9.236, -7.304, -3.989, -1.372, -1.569, 5.373, 0
139376, -6.354, -9.483, -3.105, -1.279, -1.229, 6.042, 0
139396, -3.978, -12.09, -2.541, -1.296, -1.146, 6.225, 0
139416, -2.426, -12.389, -0.988, -1.352, -1.415, 5.902, 0
139436, -2.395, -12.606, -0.147, -1.105, -1.718, 5.817, 0
139456, -2.783, -12.813, 0.708, -0.65, -1.522, 5.867, 0
139476, -1.921, -13.581, 1.814, -0.065, -0.992, 6.116, 0
139496, 0.627, -14.503, 2.135, 0.224, -0.8, 5.975, 0
139516, 2.446, -13.728, 2.879, 0.188, -1.149, 5.224, 0
139536, 2.487, -12.031, 3.164, 0.299, -1.622, 4.469, 0
139556, 1.642, -10.106, 2.769, 0.607, -1.714, 4.128, 0
139576, 2.65, -9.152, 2.227, 0.995, -1.528, 4.077, 0
139596, 4.581, -8.913, -0.192, 1.14, -1.539, 3.602, 0
139616, 5.27, -6.671, -2.216, 0.846, -1.889, 2.911, 0
139636, 5.615, -4.81, -2.149, 0.614, -1.84, 2.469, 0
139656, 6.624, -4.545, -1.937, 0.68, -1.296, 2.029, 0
139676, 7.341, -4.083, -2.499, 0.603, -0.71, 1.321, 0
139696, 6.766, -3.413, -3.302, 0.283, -0.371, 0.729, 0
139716, 5.77, -2.022, -2.796, -0.046, -0.248, 0.257, 0
139736, 4.499, -0.561, -1.556, -0.037, -0.376, -0.088, 0
139756, 2.68, 0.19, -1.726, 0.036, -0.477, -0.216, 0
139776, 0.311, 0.494, -2.03, -0.012, -0.095, -0.111, 0
139796, -0.046, 0.497, -1.822, -0.039, 0.456, 0.025, 0
139816, 0.891, 0.112, -1.481, -0.075, 0.566, 0.015, 0
139836, 0.656, -0.094, -1.217, -0.147, 0.42, -0.098, 0
139856, -1.014, 0.618, -0.569, -0.095, 0.497, 0.014, 0
139876, -1.322, 0.686, 0.04, 0.04, 0.736, 0.222, 0
139896, -0.065, 0.016, -0.237, 0.083, 0.682, 0.143, 0
139916, 0.263, -0.4, -0.522, -0.081, 0.381, -0.073, 0
139936, -0.648, -0.281, -0.17, -0.197, 0.279, -0.208, 0
139956, -1.215, -0.253, 0.27, -0.252, 0.261, -0.233, 0
139976, -0.913, -0.073, 0.436, -0.246, 0.081, -0.262, 0
139996, -1.062, -0.32, 0.188, -0.298, -0.074, -0.29, 0
140016, -2.14, -0.077, 0.201, -0.393, 0.006, -0.2, 0
140036, -2.544, 0.234, 0.26, -0.422, 0.282, 0.095, 0
140056, -1.431, 0.009, -0.14, -0.417, 0.403, 0.291, 1
140076, -0.38, -0.436, -0.369, -0.406, 0.489, 0.409, 1
140176, 2.263, -2.196, -0.724, -0.452, -0.052, -1.281, 1
140196, 2.89, -2.592, -0.891, -0.382, 0.139, -1.564, 1
140216, 4.246, -4.24, -1.035, -0.486, 0.114, -1.879, 1
140236, 4.388, -5.174, -0.828, -0.904, -0.162, -2.456, 1
140256, 3.874, -4.474, -0.397, -1.202, -0.39, -3.116, 1
140276, 2.173, -3.8, -0.661, -1.219, -0.483, -3.546, 1
140296, 0.526, -3.989, -1.332, -1.16, -0.329, -3.613, 1
140316, -0.668, -3.918, -1.403, -1.286, 0.113, -3.56, 1
140336, -1.143, -3.465, -0.607, -1.317, 0.693, -3.578, 1
140356, -0.206, -2.946, 0.071, -1.152, 1.075, -3.502, 1
140376, -0.357, -2.748, -0.125, -0.802, 1.045, -3.66, 1
140396, -1.21, -4.031, -0.625, -0.85, 0.639, -3.541, 1
140416, -2.305, -3.886, -0.652, -1.25, 0.474, -3.374, 1
140436, -3.115, -3.182, -0.355, -1.417, 0.742, -3.433, 1
140456, -3.002, -2.73, 0.415, -1.224, 0.977, -3.398, 1
140476, -2.757, -2.551, 1.002, -0.895, 1.224, -3.133, 1
140496, -2.377, -2.603, 0.417, -0.578, 1.226, -2.784, 1
140516, -2.838, -3.144, -0.374, -0.43, 0.905, -2.682, 1
140536, -3.693, -3.563, -0.455, -0.648, 0.856, -2.622, 1
140556, -2.702, -2.891, 0.165, -0.756, 1.141, -2.513, 1
140576, -1.674, -2.655, 0.21, -0.494, 1.281, -2.335, 1
140596, -1.821, -2.741, -0.206, -0.163, 1.144, -2.327, 1
140616, -2.934, -3.26, -0.438, -0.102, 1.064, -2.301, 1
140636, -2.881, -2.475, -0.111, -0.205, 1.35, -2.176, 1
140656, -1.979, -1.87, -0.181, 0.075, 1.46, -1.899, 1
140676, -1.543, -1.59, -0.883, 0.23, 1.052, -1.841, 1
140696, -3.188, -1.999, -1.651, 0.061, 0.994, -1.813, 1
140716, -3.622, -1.39, -1.654, -0.12, 1.164, -1.584, 1
140736, -3.511, -0.725, -1.109, -0.051, 1.404, -1.285, 1
140756, -2.656, -0.38, -0.967, 0.191, 1.299, -1.166, 1
140776, -2.783, -0.478, -1.51, 0.119, 0.848, -1.086, 1
140796, -3.542, -0.294, -1.897, -0.174, 0.705, -0.942, 1
140816, -3.713, 0.102, -1.273, -0.366, 0.888, -0.695, 1
140836, -2.803, 0.159, -0.72, -0.268, 0.968, -0.461, 1
140856, -1.234, -0.093, -0.343, -0.166, 0.806, -0.45, 1
140876, -0.744, -0.446, -0.001, -0.183, 0.521, -0.501, 1
140896, -0.975, -0.249, 0.122, -0.109, 0.376, -0.573, 1
140916, -1.169, -0.199, 0.218, -0.007, 0.314, -0.527, 1
140936, -0.406, -0.785, 0.199, -0.021, 0.262, -0.445, 1
140956, 0.339, -0.874, 0.413, -0.037, 0.23, -0.51, 1
140976, 0.751, -0.465, 0.361, 0.059, 0.142, -0.519, 1
140996, 0.364, -0.215, 0.05, 0.216, 0.112, -0.46, 1
141016, 0.135, -0.301, -0.502, 0.312, 0.221, -0.405, 1
141036, 0.466, -0.581, -0.683, 0.241, 0.309, -0.381, 1
141056, 0.986, -0.531, -0.599, 0.119, 0.292, -0.362, 1
141076, 0.632, -0.366, -0.679, 0.044, 0.258, -0.376, 1
141096, -0.224, -0.115, -0.844, -0.003, 0.312, -0.336, 1
141116, -1.52, 0.17, -1.03, -0.025, 0.411, -0.214, 1
141136, -1.134, 0.314, -0.633, -0.107, 0.237, -0.072, 1
141156, -1.027, 0.067, -0.372, -0.06, 0.15, -0.034, 1
141176, -0.545, -0.027, -0.681, -0.034, 0.106, 0.016, 1
141196, -0.4, -0.241, -0.877, -0.117, -0.065, 0.017, 1
141216, -0.418, -0.009, -0.752, -0.202, -0.068, 0.031, 1
141236, -0.131, -0.046, -0.36, -0.182, 0.047, 0.117, 1
141256, 0.677, -0.032, -0.131, -0.093, 0.025, 0.119, 1
141276, 0.919, -0.473, -0.092, -0.043, -0.033, 0.04, 1
141296, 0.824, -0.342, -0.087, -0.115, -0.008, -0.032, 1
141316, 0.529, 0.012, -0.038, -0.115, 0.056, -0.103, 1
141336, -0.061, 0.039, -0.171, 0.0, 0.058, -0.115, 1
141356, -0.178, 0.105, -0.29, 0.173, 0.079, -0.164, 1
141376, -0.224, -0.029, -0.65, 0.379, 0.22, -0.428, 0
141396, -1.303, -0.557, -0.961, 0.223, 0.317, -0.39, 0
141416, -3.729, 1.305, -0.744, -0.01, 0.264, -0.262, 0
141436, -6.813, 2.25, -0.268, 0.189, 0.094, 0.109, 0
141456, -9.093, 2.009, -0.287, 0.428, -0.08, 0.793, 0
141476, -10.706, 0.611, -1.552, 0.469, -0.352, 1.37, 0
141496, -12.323, 0.131, -2.838, 0.078, -0.632, 1.932, 0
141516, -12.378, 0.207, -2.804, -0.131, -0.902, 2.616, 0
141536, -11.013, -1.169, -3.107, -0.108, -1.175, 3.517, 0
141556, -9.558, -3.512, -3.682, -0.113, -1.335, 4.407, 0
141576, -8.229, -6.094, -4.114, -0.254, -1.061, 5.007, 0
141596, -6.324, -7.417, -3.309, -0.507, -0.662, 5.503, 0
141616, -3.788, -8.35, -2.187, -0.53, -0.554, 6.038, 0
141636, -1.362, -9.115, -1.435, -0.185, -1.318, 6.065, 0
141656, -2.092, -9.17, -0.534, 0.297, -1.601, 6.128, 0
141676, -3.996, -12.121, -1.343, 0.415, -0.649, 6.217, 0
141696, -1.168, -12.649, -0.058, 0.026, 0.169, 5.946, 0
141716, 1.956, -12.0, 1.398, -0.069, -0.297, 5.439, 0
141736, 3.668, -10.882, 1.588, 0.108, -1.379, 4.675, 0
141756, 2.874, -9.599, 1.975, 0.368, -2.144, 4.217, 0
141776, 0.739, -9.311, 1.159, 0.616, -1.658, 3.915, 0
141796, 2.054, -8.741, -0.518, 0.605, -1.022, 3.769, 0
141816, 4.96, -8.192, -1.025, 0.439, -1.051, 3.45, 0
141836, 6.845, -7.815, -0.564, 0.321, -1.177, 2.698, 0
141856, 7.206, -5.708, -0.154, 0.481, -1.068, 1.998, 0
141876, 6.269, -5.053, -0.995, 0.398, -0.714, 1.266, 0
141896, 4.037, -3.322, -1.284, 0.14, -0.42, 0.86, 0
141916, 2.298, -1.4, -1.039, 0.073, -0.202, 0.886, 0
141936, 1.312, -0.337, -1.039, 0.14, -0.05, 1.017, 0
141956, 1.219, -0.076, -0.595, 0.319, 0.142, 1.149, 0
141976, 2.51, -1.268, -0.944, 0.301, 0.253, 0.983, 0
141996, 3.107, -1.532, -1.5, 0.125, 0.199, 0.643, 0
142016, 1.94, -1.092, -1.832, -0.081, 0.221, 0.466, 0
142036, 0.672, -0.323, -0.674, -0.18, 0.326, 0.448, 0
142056, 0.676, 0.087, 0.376, 0.004, 0.292, 0.436, 0
142076, 1.225, -0.389, -0.413, 0.144, 0.106, 0.306, 0
142096, 0.655, -0.887, -1.351, 0.009, 0.131, 0.081, 0
142116, 0.035, -0.675, -1.094, -0.185, 0.302, -0.044, 0
142136, -0.515, -0.185, -0.239, -0.205, 0.156, -0.131, 0
142156, -1.609, 0.336, 0.144, -0.184, 0.087, -0.095, 0
142176, -1.172, 0.057, 0.199, -0.118, 0.166, 0.021, 0
142196, -0.562, -0.272, 0.038, -0.121, 0.152, -0.003, 0
142216, -0.784, -0.16, -0.224, -0.199, -0.011, -0.096, 0
142236, -1.461, 0.024, -0.265, -0.205, -0.087, -0.074, 0
142256, -1.066, 0.0, -0.217, -0.14, 0.022, 0.038, 0
142276, -0.349, -0.391, -0.322, -0.091, 0.112, 0.075, 0
142296, -0.168, -0.407, -0.328, -0.112, 0.117, -0.021, 0
142316, -0.839, -0.177, -0.308, -0.167, 0.077, -0.078, 0
142336, -1.214, -0.085, 0.019, -0.196, 0.064, -0.014, 0
142356, -0.452, -0.215, 0.196, -0.172, 0.111, 0.093, 0
142376, 0.19, -0.549, -0.099, -0.152, 0.064, 0.087, 0
142396, 0.255, -0.772, -0.182, -0.194, 0.086, 0.009, 0
142416, 0.098, -1.149, -0.263, -0.344, 0.288, -0.089, 0
142436, 0.438, -1.192, -0.419, -0.678, 0.483, -0.02, 0
142456, 0.792, -0.96, -0.216, -0.895, 0.514, 0.04, 1
142476, 1.551, -0.681, 0.232, -0.934, 0.524, 0.023, 1
142496, 1.485, -0.803, 0.218, -0.788, 0.43, -0.134, 1
142516, 2.102, -1.298, 0.233, -0.534, 0.36, -0.408, 1
142536, 2.573, -1.69, -0.201, -0.343, 0.127, -0.764, 1
142556, 2.148, -1.699, -0.621, -0.348, -0.242, -1.228, 1
142576, 1.209, -1.617, -0.651, -0.44, -0.419, -1.579, 1
142596, 0.967, -1.872, -0.646, -0.486, -0.264, -1.673, 1
142616, 0.748, -2.568, -0.124, -0.424, 0.452, -1.671, 1
142636, 1.738, -2.754, 0.472, -0.255, 0.735, -1.899, 1
142656, 3.101, -2.724, 0.132, -0.096, 0.364, -2.337, 1
142676, 2.706, -3.607, -1.103, -0.356, -0.295, -2.844, 1
142696, 0.737, -3.941, -1.167, -0.962, -0.469, -3.156, 1
142716, -0.45, -3.081, -0.205, -1.15, -0.063, -3.18, 1
142736, -0.272, -1.959, -0.005, -0.794, 0.305, -3.175, 1
142756, -0.39, -2.514, -0.518, -0.536, 0.354, -3.111, 1
142776, -1.146, -2.934, -0.531, -0.645, 0.526, -3.016, 1
142796, -1.448, -3.267, -0.277, -0.753, 0.891, -3.034, 1
142816, -0.559, -2.809, 0.032, -0.621, 1.01, -3.136, 1
142836, -0.285, -2.445, -0.781, -0.448, 0.641, -3.533, 1
142856, -1.285, -3.174, -1.426, -0.703, 0.24, -3.776, 1
142876, -2.789, -3.699, -1.391, -1.186, 0.252, -3.537, 1
142896, -3.328, -3.138, -0.658, -1.232, 0.802, -3.235, 1
142916, -3.138, -2.055, -0.261, -0.744, 1.414, -3.14, 1
142936, -2.658, -2.683, -0.684, -0.463, 1.354, -2.995, 1
142956, -2.701, -3.289, -0.706, -0.587, 1.215, -2.877, 1
142976, -2.721, -3.262, -0.321, -0.692, 1.318, -2.914, 1
142996, -2.572, -3.645, 0.13, -0.764, 1.376, -2.863, 1
143016, -2.536, -2.415, 0.161, -0.453, 1.337, -3.002, 1
143036, -2.95, -2.766, -0.233, -0.301, 1.07, -2.913, 1
143056, -4.04, -2.226, -0.668, -0.372, 0.822, -2.616, 1
143076, -4.884, -1.651, -0.792, -0.43, 0.946, -2.294, 1
143096, -5.025, -1.24, -0.576, -0.36, 1.235, -1.771, 1
143116, -4.487, -0.557, -0.451, -0.25, 1.08, -1.444, 1
143136, -4.389, -0.563, -0.343, -0.215, 0.843, -1.056, 1
143156, -3.93, -0.614, -0.241, -0.133, 0.786, -0.77, 1
143176, -3.573, -0.291, -0.388, -0.017, 0.751, -0.615, 1
143196, -3.227, -0.473, -0.677, 0.017, 0.528, -0.468, 1
143216, -2.812, -0.686, -0.773, -0.091, 0.34, -0.306, 1
143236, -2.284, -0.586, -0.656, -0.134, 0.32, -0.199, 1
143256, -1.606, -0.679, -0.615, -0.066, 0.374, -0.139, 1
143276, -0.838, -0.823, -0.541, -0.031, 0.34, -0.084, 1
143296, -0.115, -0.886, -0.505, -0.007, 0.219, -0.073, 1
143316, -0.065, -1.006, -0.679, -0.001, 0.127, -0.09, 1
143336, 0.094, -1.194, -0.702, -0.017, 0.197, -0.148, 1
143356, 0.622, -0.862, -0.541, -0.098, 0.259, -0.156, 1
143376, 0.469, -0.636, -0.364, -0.111, 0.255, -0.103, 1
143396, 0.044, -0.362, -0.146, -0.065, 0.279, -0.139, 1
143416, -0.101, -0.356, -0.032, -0.036, 0.219, -0.091, 1
143436, 0.048, -0.549, 0.0, -0.012, 0.236, -0.113, 1
143456, 0.025, -0.444, 0.027, -0.045, 0.193, -0.138, 1
143476, -0.365, -0.105, 0.123, -0.062, 0.139, -0.149, 1
143496, -0.801, 0.041, -0.004, 0.014, 0.149, -0.11, 1
143516, -0.948, -0.012, -0.224, 0.05, 0.149, -0.012, 1
143536, -0.734, -0.205, -0.32, 0.018, 0.176, 0.021, 1
143556, 0.04, -0.004, -0.31, -0.029, 0.111, -0.006, 1
143576, -0.133, 0.058, -0.478, 0.035, -0.026, -0.078, 1
143596, -0.504, 0.253, -0.554, 0.184, 0.046, -0.094, 1
143616, -0.622, -0.15, -0.782, 0.175, 0.127, -0.084, 1
143636, -0.421, 0.143, -0.873, 0.119, 0.12, -0.149, 1
143656, -0.277, 0.13, -0.708, 0.107, 0.142, -0.271, 1
143676, -0.449, 0.475, -0.426, 0.367, 0.104, -0.388, 0
143696, -1.438, 0.072, -0.68, 0.481, 0.009, -0.362, 0
143716, -3.39, 0.385, -0.413, 0.416, -0.031, -0.088, 0
143736, -5.856, 1.333, -0.565, 0.541, 0.15, 0.362, 0
143756, -7.37, 0.856, -1.172, 0.589, 0.208, 0.814, 0
143776, -8.356, 0.465, -1.531, 0.373, -0.156, 1.229, 0
143796, -9.543, -0.132, -2.258, -0.073, -0.667, 1.854, 0
143816, -9.682, -0.019, -2.399, -0.242, -0.876, 2.543, 0
143836, -9.495, -0.638, -2.744, -0.147, -0.727, 3.305, 0
143856, -7.597, -2.318, -3.4, -0.1, -0.659, 3.989, 0
143876, -6.231, -3.712, -3.449, -0.229, -0.881, 4.477, 0
143896, -4.547, -5.138, -3.197, -0.322, -1.207, 4.767, 0
143916, -3.119, -5.861, -2.847, -0.304, -1.566, 4.913, 0
143936, -2.603, -6.71, -2.246, -0.169, -1.747, 5.09, 0
143956, -2.176, -8.264, -1.807, -0.089, -1.455, 5.082, 0
143976, -1.488, -9.32, -1.057, -0.054, -1.048, 4.943, 0
143996, 0.215, -9.303, -0.35, -0.036, -0.927, 4.771, 0
144016, 0.802, -8.833, 0.046, 0.124, -1.095, 4.696, 0
144036, 0.765, -8.018, 0.776, 0.529, -1.177, 4.666, 0
144056, 0.772, -8.353, 0.658, 0.881, -1.103, 4.315, 0
144076, 1.635, -9.577, 0.074, 0.317, -0.587, 3.905, 0
144096, 2.434, -7.063, 0.525, 0.191, -0.491, 3.618, 0
144116, 2.412, -6.154, 0.96, 0.343, -0.556, 3.469, 0
144136, 3.13, -5.757, 0.806, 0.602, -0.453, 3.304, 0
144156, 3.33, -6.077, -0.307, 0.624, -0.415, 2.844, 0
144176, 2.94, -4.618, -0.249, 0.316, -0.28, 2.445, 0
144196, 3.093, -3.434, 0.201, 0.268, -0.071, 2.189, 0
144216, 3.66, -2.802, 0.065, 0.373, -0.058, 1.959, 0
144236, 3.158, -2.29, -0.478, 0.433, -0.254, 1.696, 0
144256, 2.191, -2.344, -0.921, 0.326, 0.009, 1.395, 0
144276, 2.719, -1.617, -0.604, 0.18, 0.417, 1.21, 0
144296, 3.32, -1.598, -0.86, 0.194, 0.359, 1.003, 0
144316, 2.297, -1.324, -0.872, 0.048, 0.057, 0.791, 0
144336, 1.951, -0.707, -0.327, -0.021, 0.064, 0.645, 0
144356, 2.063, -0.935, -0.601, 0.053, 0.144, 0.502, 0
144376, 1.717, -0.657, -1.318, 0.028, 0.121, 0.249, 0
144396, 0.373, -0.229, -1.113, -0.07, 0.084, 0.085, 0
144416, 0.007, 0.103, -0.503, -0.092, 0.213, 0.076, 0
144436, 0.161, -0.011, -0.481, -0.062, 0.225, 0.103, 0
144456, 0.153, 0.109, -0.708, -0.042, 0.117, 0.051, 0
144476, -0.271, -0.228, -1.025, -0.073, 0.081, -0.018, 0
144496, -0.673, 0.071, -0.596, -0.18, 0.191, -0.002, 0
144516, -0.549, 0.067, -0.311, -0.174, 0.312, 0.009, 0
144536, -0.631, -0.122, -0.24, -0.13, 0.208, -0.025, 0
144556, -0.914, -0.272, -0.03, -0.14, 0.131, -0.037, 0
144576, -0.712, -0.382, 0.221, -0.135, 0.137, -0.032, 0
144596, -0.58, -0.14, 0.343, -0.092, 0.042, -0.1, 0
144616, -1.016, -0.125, 0.155, -0.073, -0.003, -0.124, 0
144636, -1.365, -0.083, -0.054, -0.092, -0.009, -0.078, 0
144656, -1.26, -0.098, 0.106, -0.087, 0.06, 0.017, 0
144676, -0.484, -0.378, 0.05, -0.086, 0.089, 0.05, 0
144696, 0.124, -0.751, -0.245, -0.171, 0.09, -0.02, 0
144716, 0.203, -1.01, -0.525, -0.39, 0.107, -0.075, 0
144736, 0.123, -1.056, -0.342, -0.669, 0.227, -0.047, 0
144756, 0.659, -0.849, -0.197, -0.731, 0.306, -0.005, 1
144776, 1.71, -1.27, -0.303, -0.657, 0.364, -0.087, 1
144796, 2.329, -1.128, 0.178, -0.271, 0.271, -0.546, 1
144816, 2.713, -2.566, 0.226, -0.16, 0.199, -0.951, 1
144836, 3.061, -3.058, 0.429, -0.248, 0.086, -1.252, 1
144856, 3.814, -3.133, 0.26, -0.298, -0.066, -1.674, 1
144876, 4.023, -3.149, -0.552, -0.423, -0.413, -2.234, 1
144896, 3.024, -3.731, -0.862, -0.693, -0.59, -2.665, 1
144916, 1.716, -4.1, -0.464, -0.897, -0.279, -2.924, 1
144936, 1.233, -3.401, 0.333, -0.77, 0.195, -3.082, 1
144956, 1.679, -3.022, 0.293, -0.372, 0.313, -3.256, 1
144976, 1.76, -3.492, -0.364, -0.196, 0.048, -3.644, 1
144996, 0.828, -4.764, -1.311, -0.759, -0.392, -3.731, 1
145016, -0.598, -3.805, -0.876, -1.338, -0.472, -3.769, 1
145036, -1.524, -2.809, -0.029, -1.09, -0.04, -3.644, 1
145056, -2.317, -2.708, -1.115, -0.805, 0.013, -3.596, 1
145076, -3.152, -3.522, -0.983, -1.034, 0.188, -3.514, 1
145096, -2.665, -3.043, 0.104, -1.385, 0.507, -3.332, 1
145116, -2.435, -1.848, 0.228, -1.241, 0.624, -3.37, 1
145136, -3.479, -2.049, -0.138, -0.937, 0.414, -3.388, 1
145156, -4.322, -1.985, -0.341, -0.786, 0.313, -3.152, 1
145176, -4.625, -2.225, -0.188, -0.675, 0.754, -2.819, 1
145196, -3.017, -2.669, -0.075, -0.486, 1.357, -2.611, 1
145216, -2.109, -2.649, -0.308, -0.4, 1.384, -2.445, 1
145236, -2.148, -3.006, -0.68, -0.43, 0.932, -2.301, 1
145256, -2.593, -2.696, -0.399, -0.574, 0.812, -2.179, 1
145276, -2.706, -2.518, 0.023, -0.522, 1.043, -2.029, 1
145296, -2.43, -2.128, -0.315, -0.299, 1.277, -1.946, 1
145316, -2.018, -1.888, -0.341, -0.175, 1.249, -1.98, 1
145336, -2.15, -2.209, -0.445, -0.082, 1.117, -1.997, 1
145356, -1.648, -2.131, -0.702, -0.015, 1.224, -2.068, 1
145376, -1.914, -1.792, -0.612, -0.138, 1.174, -1.855, 1
145396, -3.074, -1.231, -0.745, -0.188, 1.169, -1.675, 1
145416, -3.811, -0.842, -0.831, -0.231, 1.078, -1.456, 1
145436, -4.046, -0.306, -0.533, -0.266, 1.067, -1.287, 1
145456, -3.632, -0.071, -0.335, -0.205, 0.988, -1.087, 1
145476, -3.286, -0.26, -0.5, -0.167, 0.743, -0.831, 1
145496, -3.35, -0.151, -0.31, -0.271, 0.507, -0.488, 1
145516, -2.962, -0.086, -0.167, -0.209, 0.521, -0.178, 1
145536, -2.262, -0.196, -0.115, -0.1, 0.51, -0.085, 1
145556, -1.335, -0.367, -0.067, -0.096, 0.339, -0.051, 1
145576, -0.354, -0.419, -0.087, -0.031, 0.145, -0.095, 1
145596, 0.565, -0.621, -0.173, 0.02, 0.056, -0.156, 1
145616, 0.863, -1.056, -0.363, 0.028, 0.121, -0.239, 1
145636, 0.561, -1.152, -0.406, -0.051, 0.256, -0.266, 1
145656, 0.285, -0.586, -0.259, -0.008, 0.317, -0.278, 1
145676, -0.149, 0.047, -0.311, 0.153, 0.226, -0.293, 1
145696, -0.55, -0.095, -0.59, 0.125, 0.092, -0.235, 1
145716, -0.722, -0.488, -0.826, -0.061, 0.171, -0.168, 1
145736, -0.536, -0.232, -0.602, -0.159, 0.334, -0.116, 1
145756, -0.199, 0.066, -0.345, -0.065, 0.248, -0.05, 1
145776, -0.289, -0.168, -0.407, -0.061, 0.116, -0.059, 1
145796, -0.875, 0.006, -0.687, 0.062, 0.126, -0.231, 1
145816, -1.622, 0.542, -0.73, 0.342, 0.256, -0.311, 1
145836, -2.616, 1.003, -0.93, 0.633, 0.182, -0.308, 0
145856, -4.444, 1.32, -1.244, 0.742, -0.031, 0.109, 0
145876, -7.354, 1.226, -0.709, 0.725, -0.104, 0.897, 0
145896, -10.023, 0.435, -1.514, 0.659, -0.01, 1.596, 0
145916, -12.132, -0.128, -2.1, 0.494, -0.025, 2.374, 0
145936, -12.887, -1.239, -2.102, 0.156, -0.282, 3.216, 0
145956, -12.057, -2.202, -2.325, -0.148, -0.721, 4.003, 0
145976, -10.141, -3.657, -3.062, -0.374, -1.197, 4.633, 0
145996, -7.993, -4.558, -3.628, -0.429, -1.63, 4.991, 0
146016, -7.807, -5.842, -3.719, -0.35, -0.968, 5.805, 0
146036, -3.381, -9.463, -2.884, -0.272, -0.559, 6.376, 0
146056, -0.955, -10.982, -2.375, -0.4, -0.591, 6.403, 0
146076, 0.319, -11.037, -1.384, -0.529, -0.963, 6.131, 0
146096, 0.231, -11.171, -0.686, -0.382, -1.428, 5.955, 0
146116, -0.182, -11.655, -0.234, -0.197, -1.137, 5.544, 0
146136, 0.213, -11.715, -0.199, -0.008, -0.599, 5.38, 0
146156, 1.287, -11.255, 0.183, -0.056, -0.335, 5.155, 0
146176, 2.133, -9.65, 1.883, -0.03, -0.385, 4.85, 0
146196, 3.121, -8.89, 2.654, 0.336, -0.64, 4.5, 0
146216, 3.934, -8.814, 1.347, 0.683, -0.953, 3.996, 0
146236, 4.41, -8.289, -0.318, 0.72, -1.029, 3.399, 0
146256, 5.099, -6.835, -0.989, 0.496, -0.747, 2.841, 0
146276, 5.993, -5.67, -1.066, 0.411, -0.452, 2.264, 0
146296, 6.006, -4.497, -1.006, 0.341, -0.405, 1.694, 0
146316, 4.858, -3.035, -0.297, 0.248, -0.461, 1.279, 0
146336, 4.057, -2.379, -0.397, 0.225, -0.346, 0.888, 0
146356, 2.699, -1.003, -0.838, 0.13, -0.39, 0.596, 0
146376, 0.642, -0.748, -0.87, 0.065, -0.293, 0.431, 0
146396, 0.352, -0.197, -0.369, 0.003, -0.061, 0.5, 0
146416, 1.172, -0.09, -0.456, 0.105, 0.025, 0.571, 0
146436, 1.69, -0.602, -1.222, 0.13, 0.018, 0.54, 0
146456, 1.521, -0.929, -1.667, 0.009, 0.086, 0.372, 0
146476, 0.625, -0.417, -1.242, -0.17, 0.262, 0.155, 0
146496, 0.186, -0.153, -0.566, -0.163, 0.356, 0.138, 0
146516, 0.357, -0.158, -0.28, -0.103, 0.26, 0.132, 0
146536, 0.408, -0.346, -0.244, -0.107, 0.234, 0.062, 0
146556, 0.448, -0.539, -0.255, -0.154, 0.227, -0.092, 0
146576, 0.545, -0.639, -0.459, -0.216, 0.105, -0.281, 0
146596, -0.063, -0.405, -0.401, -0.263, -0.002, -0.417, 0
146616, -0.365, -0.275, -0.09, -0.257, 0.025, -0.421, 0
146636, -0.257, -0.211, 0.11, -0.157, 0.135, -0.414, 0
146656, 0.48, -0.95, -0.139, -0.16, 0.189, -0.505, 0
146676, 0.581, -0.706, -0.502, -0.238, 0.157, -0.706, 0
146696, -0.456, -0.338, -0.444, -0.273, 0.206, -0.738, 0
146716, -1.432, 0.225, -0.183, -0.166, 0.407, -0.638, 0
146736, -1.653, 0.322, -0.14, -0.05, 0.588, -0.513, 0
146756, -2.251, 0.341, -0.262, 0.001, 0.672, -0.348, 0
146776, -2.035, 0.066, -0.15, 0.0, 0.75, -0.225, 0
146796, -0.777, -0.922, -0.418, -0.004, 0.72, -0.221, 0
146816, 0.021, -1.829, -0.458, -0.13, 0.822, -0.436, 0
146836, 0.421, -2.653, -0.511, -0.544, 0.912, -0.466, 0
146856, 1.332, -3.177, -1.039, -1.163, 0.9, -0.641, 1
146876, 2.117, -2.548, -0.691, -1.21, 0.491, -0.984, 1
146896, 1.163, -2.219, -0.07, -0.887, 0.356, -1.334, 1
146916, 0.737, -2.491, 0.413, -0.409, 0.464, -1.682, 1
146936, 1.165, -2.573, 0.638, -0.061, 0.521, -1.957, 1
146956, 1.16, -4.214, 1.074, -0.056, 0.351, -2.436, 1
146976, 2.034, -4.538, 0.65, -0.142, -0.08, -3.123, 1
146996, 1.656, -4.336, -0.094, -0.669, -0.907, -3.849, 1
147016, -1.635, -3.305, 0.664, -0.892, -0.676, -3.98, 1
147036, -1.518, -2.832, 1.196, -0.756, -0.207, -3.817, 1
147056, -0.868, -1.944, 0.299, -0.282, 0.035, -3.522, 1
147076, -1.486, -2.43, -1.069, 0.133, -0.156, -3.541, 1
147096, -2.84, -3.464, -1.784, -0.074, -0.35, -3.56, 1
147116, -3.42, -2.872, -0.921, -0.69, 0.003, -3.437, 1
147136, -2.977, -1.425, -0.167, -0.749, 0.555, -3.287, 1
147156, -2.473, -1.519, -0.416, -0.321, 0.729, -3.122, 1
147176, -2.645, -1.98, -1.07, -0.058, 0.562, -2.935, 1
147196, -3.624, -3.1, -1.743, -0.284, 0.431, -2.737, 1
147216, -3.646, -2.778, -1.28, -0.717, 0.685, -2.715, 1
147236, -2.671, -1.884, -0.13, -0.806, 1.028, -2.601, 1
147256, -1.889, -1.604, 0.204, -0.415, 1.124, -2.394, 1
147276, -2.128, -2.417, -0.194, 0.02, 1.054, -2.428, 1
147296, -2.739, -2.856, -0.767, 0.029, 1.054, -2.565, 1
147316, -2.238, -2.734, -1.236, -0.197, 1.053, -2.66, 1
147336, -2.26, -2.146, -1.439, -0.394, 1.007, -2.68, 1
147356, -3.557, -1.509, -1.452, -0.322, 0.94, -2.808, 1
147376, -4.8, -1.356, -1.299, -0.306, 0.751, -2.57, 1
147396, -5.63, -1.338, -0.865, -0.527, 0.814, -1.937, 1
147416, -4.801, -1.074, -0.509, -0.632, 1.055, -1.397, 1
147436, -3.436, -0.671, -0.303, -0.521, 1.056, -1.017, 1
147456, -2.654, -0.605, -0.414, -0.271, 0.797, -0.982, 1
147476, -3.009, -1.044, -0.647, -0.322, 0.224, -0.834, 1
147496, -3.151, -1.03, -0.468, -0.375, 0.334, -0.65, 1
147516, -2.395, -0.758, -0.301, -0.228, 0.519, -0.466, 1
147536, -1.058, -0.924, -0.348, -0.092, 0.452, -0.414, 1
147556, -0.357, -0.767, -0.169, -0.003, 0.318, -0.445, 1
147576, -0.41, -0.866, -0.35, 0.001, 0.161, -0.391, 1
147596, -0.815, -0.754, -0.319, -0.025, 0.145, -0.291, 1
147616, -0.7, -0.549, -0.168, -0.008, 0.247, -0.184, 1
147636, -0.118, -0.329, -0.21, 0.034, 0.271, -0.106, 1
147656, 0.249, -0.453, -0.259, 0.036, 0.227, -0.129, 1
147676, 0.201, -0.273, -0.075, 0.045, 0.213, -0.145, 1
147696, -0.025, -0.235, -0.101, 0.035, 0.197, -0.098, 1
147716, 0.05, -0.073, -0.345, 0.014, 0.185, -0.063, 1
147736, -0.102, -0.183, -0.506, -0.078, 0.21, -0.079, 1
147756, -0.186, 0.069, -0.443, -0.043, 0.222, -0.089, 1
147776, -0.27, 0.017, -0.59, 0.006, 0.136, -0.155, 1
147796, -0.602, -0.123, -0.837, -0.047, 0.023, -0.244, 1
147816, -1.386, 0.078, -0.939, -0.145, -0.021, -0.194, 1
147836, -2.091, 0.79, -0.998, -0.001, 0.038, -0.158, 1
147856, -2.718, 0.927, -1.078, 0.214, -0.023, -0.157, 1
147876, -4.168, 0.93, -1.374, 0.419, -0.108, -0.073, 1
147896, -5.75, 0.521, -1.512, 0.337, -0.21, 0.348, 1
147916, -7.488, 0.31, -1.744, 0.207, -0.205, 0.849, 0
147936, -8.225, 0.151, -1.898, 0.086, -0.277, 1.464, 0
147956, -8.363, -0.228, -1.351, 0.087, -0.387, 2.326, 0
147976, -8.034, -1.155, -1.754, 0.18, -0.671, 2.895, 0
147996, -8.55, -2.657, -2.742, 0.028, -0.737, 3.455, 0
148016, -7.943, -3.829, -3.345, -0.182, -0.717, 4.039, 0
148036, -6.472, -4.89, -3.29, -0.462, -0.869, 4.506, 0
148056, -5.079, -5.613, -3.066, -0.608, -1.153, 4.855, 0
148076, -3.725, -7.326, -3.247, -0.585, -1.215, 5.067, 0
148096, -2.259, -7.871, -2.537, -0.589, -1.193, 5.224, 0
148116, -0.966, -8.722, -1.838, -0.463, -1.171, 5.285, 0
148136, -0.342, -8.704, -0.8, -0.246, -1.213, 5.324, 0
148156, 0.012, -8.769, 0.179, 0.198, -1.174, 5.351, 0
148176, 0.199, -10.755, -0.38, 0.482, -0.828, 5.216, 0
148196, 1.795, -10.117, 0.063, 0.29, -0.475, 4.83, 0
148216, 2.667, -9.227, 0.285, 0.224, -0.662, 4.461, 0
148236, 2.343, -8.219, 0.578, 0.311, -0.876, 4.076, 0
148256, 2.268, -7.437, 1.147, 0.547, -0.82, 3.908, 0
148276, 2.501, -7.84, 0.82, 0.863, -0.695, 3.801, 0
148296, 3.171, -7.541, 0.816, 0.725, -0.352, 3.359, 0
148316, 3.946, -6.183, 1.153, 0.554, -0.212, 2.844, 0
148336, 3.946, -5.42, 0.722, 0.403, -0.323, 2.262, 0
148356, 3.225, -3.849, 0.889, 0.231, -0.485, 1.766, 0
148376, 2.785, -2.668, 0.933, 0.238, -0.439, 1.499, 0
148396, 2.964, -2.135, 0.429, 0.325, -0.358, 1.267, 0
148416, 3.188, -1.613, -0.868, 0.341, -0.455, 1.009, 0
148436, 2.848, -1.187, -1.661, 0.204, -0.552, 0.78, 0
148456, 2.468, -0.409, -1.604, 0.081, -0.186, 0.69, 0
148476, 2.24, -0.347, -1.829, 0.138, 0.185, 0.648, 0
148496, 2.222, -0.579, -1.718, 0.07, 0.314, 0.555, 0
148516, 2.239, -0.172, -1.586, 0.025, 0.263, 0.348, 0
148536, 1.309, -0.192, -1.553, -0.061, 0.25, 0.212, 0
148556, 0.734, 0.011, -1.115, -0.112, 0.261, 0.091, 0
148576, 0.215, -0.01, -1.138, -0.177, 0.256, -0.026, 0
148596, -0.409, 0.132, -0.986, -0.218, 0.237, -0.065, 0
148616, -0.483, 0.067, -0.442, -0.224, 0.182, -0.072, 0
148636, -0.004, -0.204, -0.033, -0.201, 0.013, -0.16, 0
148656, -0.193, -0.227, -0.231, -0.219, -0.182, -0.262, 0
148676, -1.081, -0.134, -0.255, -0.276, -0.127, -0.277, 0
148696, -1.823, 0.105, 0.011, -0.258, 0.126, -0.162, 0
148716, -1.356, 0.056, 0.235, -0.225, 0.234, -0.048, 0
148736, -1.039, -0.072, 0.607, -0.185, 0.251, 0.097, 0
148756, -0.299, -0.939, 0.256, -0.351, 0.331, 0.155, 0
148776, -0.09, -0.838, -0.548, -0.531, 0.352, 0.135, 1
148796, -0.313, -0.509, -0.43, -0.544, 0.368, 0.12, 1
148816, -0.754, -0.22, 0.103, -0.487, 0.294, 0.182, 1
148836, -0.59, 0.089, 0.39, -0.284, 0.216, 0.135, 1
148856, 0.308, -0.124, 0.194, -0.092, -0.05, 0.067, 1
148876, 0.409, -0.915, -0.455, -0.132, -0.163, -0.119, 1
148896, 0.289, -1.741, -1.023, -0.379, -0.023, -0.472, 1
148916, 0.682, -1.348, -0.745, -0.571, -0.058, -0.634, 1
148936, 0.745, -1.383, -0.519, -0.573, -0.006, -0.763, 1
148956, 2.22, -2.155, -0.064, -0.574, 0.127, -1.01, 1
148976, 3.409, -3.744, 0.115, -0.634, 0.019, -1.47, 1
148996, 4.465, -4.597, 0.594, -0.929, -0.494, -2.112, 1
149016, 4.211, -3.958, 0.751, -1.182, -1.073, -2.819, 1
149036, 2.731, -4.68, 0.212, -1.226, -1.287, -3.489, 1
149056, 2.008, -4.809, -0.135, -1.356, -1.009, -3.897, 1
149076, 2.148, -4.869, 0.26, -1.452, -0.747, -4.164, 1
149096, 1.842, -3.943, 0.238, -1.326, -0.468, -4.5, 1
149116, 0.609, -3.527, -1.106, -0.904, -0.21, -4.889, 1
149136, -0.736, -4.621, -2.03, -0.882, -0.172, -4.907, 1
149156, -2.092, -4.143, -1.725, -1.431, -0.02, -4.44, 1
149176, -1.936, -2.983, -0.739, -1.611, 0.601, -3.954, 1
149196, -1.378, -2.771, -0.631, -1.249, 1.307, -3.494, 1
149216, -1.033, -3.067, -1.046, -0.67, 1.715, -3.629, 1
149236, -1.608, -4.438, -1.176, -0.591, 1.559, -3.806, 1
149256, -2.4, -4.512, -0.872, -0.991, 1.367, -3.645, 1
149276, -2.679, -3.816, -0.334, -1.152, 1.638, -3.378, 1
149296, -2.713, -3.51, -0.419, -0.769, 1.999, -3.23, 1
149316, -2.761, -3.852, -0.67, -0.253, 2.089, -3.478, 1
149336, -3.37, -4.824, -0.749, -0.108, 2.029, -3.763, 1
149356, -3.675, -5.2, -0.552, -0.496, 1.715, -3.53, 1
149376, -4.483, -4.502, -0.461, -1.004, 1.409, -2.847, 1
149396, -4.686, -2.83, -0.467, -0.859, 1.741, -2.693, 1
149416, -4.836, -2.657, -0.59, -0.38, 1.739, -2.674, 1
149436, -5.038, -2.824, -1.083, -0.323, 1.334, -2.265, 1
149456, -5.609, -2.839, -1.444, -0.618, 1.24, -1.792, 1
149476, -5.282, -1.519, -1.247, -0.532, 1.244, -1.326, 1
149496, -5.585, -1.41, -1.305, -0.312, 1.222, -1.087, 1
149516, -5.185, -1.319, -1.254, -0.278, 1.004, -0.89, 1
149536, -4.323, -1.044, -0.978, -0.367, 0.713, -0.654, 1
149556, -3.357, -0.975, -1.052, -0.395, 0.573, -0.495, 1
149576, -2.205, -0.948, -1.018, -0.401, 0.486, -0.422, 1
149596, -1.316, -0.421, -0.554, -0.28, 0.369, -0.361, 1
149616, -0.401, -0.334, -0.131, -0.09, 0.297, -0.298, 1
149636, 0.107, -0.88, -0.264, -0.039, 0.221, -0.342, 1
149656, 0.244, -0.614, -0.146, -0.053, 0.126, -0.348, 1
149676, -0.357, -0.359, -0.14, 0.05, 0.163, -0.267, 1
149696, -0.473, -0.488, -0.162, 0.101, 0.119, -0.21, 1
149716, -0.55, -0.538, -0.154, 0.076, 0.031, -0.205, 1
149736, -0.753, -0.567, -0.264, 0.061, 0.077, -0.156, 1
149756, -1.476, -0.381, -0.34, 0.147, 0.139, -0.113, 1
149776, -2.412, 0.293, -0.277, 0.401, 0.067, 0.052, 1
149796, -3.954, 0.227, -0.663, 0.643, 0.037, 0.26, 1
149816, -5.605, -0.56, -1.782, 0.612, 0.077, 0.519, 0
149836, -7.552, -0.421, -2.252, 0.426, -0.072, 1.132, 0
149856, -10.904, 0.347, -1.662, 0.408, -0.031, 2.187, 0
149876, -12.359, -0.779, -1.466, 0.429, 0.07, 3.318, 0
149896, -10.644, -2.412, -1.853, 0.361, -0.228, 4.108, 0
149916, -8.798, -5.039, -3.483, -0.324, -0.656, 4.431, 0
149936, -5.619, -5.733, -4.16, -0.699, -1.164, 4.797, 0
149956, -4.919, -5.92, -3.577, -0.829, -1.538, 5.091, 0
149976, -4.153, -5.83, -2.252, -0.516, -1.82, 5.5, 0
149996, -3.182, -9.765, -3.219, 0.028, -1.934, 5.917, 0
150016, -1.994, -10.953, -3.203, -0.21, -1.421, 5.801, 0
150036, -0.624, -10.381, -2.489, -0.453, -0.871, 5.605, 0
150056, 0.25, -9.649, -1.375, -0.536, -0.899, 5.582, 0
150076, 0.786, -8.911, 0.266, -0.244, -1.062, 5.502, 0
150096, 1.231, -8.765, 1.404, 0.434, -1.266, 5.385, 0
150116, 0.272, -11.093, 0.198, 0.833, -1.182, 5.12, 0
150136, 1.233, -10.052, 0.787, 0.505, -0.512, 4.657, 0
150156, 2.305, -8.316, 1.791, 0.41, -0.294, 4.373, 0
150176, 3.384, -7.535, 2.06, 0.568, -0.604, 4.038, 0
150196, 3.985, -6.657, 1.369, 0.819, -1.059, 3.548, 0
150216, 3.716, -7.224, -0.741, 0.848, -1.114, 3.07, 0
150236, 4.023, -5.689, -1.376, 0.505, -0.604, 2.542, 0
150256, 4.887, -4.206, -1.057, 0.286, -0.219, 2.196, 0
150276, 5.739, -3.356, -0.882, 0.263, -0.269, 1.742, 0
150296, 5.138, -2.43, -0.659, 0.184, -0.535, 1.268, 0
150316, 3.609, -2.076, -1.055, 0.153, -0.524, 0.908, 0
150336, 2.478, -1.267, -1.387, 0.032, -0.126, 0.711, 0
150356, 2.291, -0.539, -1.158, -0.042, 0.158, 0.647, 0
150376, 1.942, -0.239, -0.815, -0.015, 0.164, 0.517, 0
150396, 1.256, -0.012, -0.601, 0.009, 0.168, 0.357, 0
150416, 1.071, -0.217, -0.727, 0.042, 0.224, 0.236, 0
150436, 0.577, -0.215, -0.964, -0.082, 0.099, 0.17, 0
150456, -0.468, 0.226, -0.672, -0.121, 0.158, 0.219, 0
150476, -0.15, 0.051, -0.429, -0.102, 0.268, 0.232, 0
150496, 0.362, -0.378, -0.426, -0.149, 0.227, 0.102, 0
150516, 0.249, -0.467, -0.691, -0.204, 0.145, -0.045, 0
150536, -0.351, -0.274, -0.331, -0.205, 0.094, -0.104, 0
150556, -0.793, 0.007, 0.233, -0.174, 0.113, -0.086, 0
150576, -0.692, -0.209, 0.228, -0.135, 0.085, -0.076, 0
150596, -0.56, -0.492, 0.089, -0.193, 0.059, -0.111, 0
150616, -0.456, -0.745, -0.037, -0.377, 0.085, -0.165, 0
150636, -0.641, -0.979, -0.544, -0.858, 0.098, -0.08, 0
150656, -1.201, -0.341, -0.553, -1.116, 0.241, 0.029, 1
150676, -0.916, 0.004, -0.089, -0.949, 0.405, 0.164, 1
150696, 0.04, -0.534, 0.305, -0.674, 0.432, 0.255, 1
150716, 0.793, -0.769, 0.213, -0.356, 0.364, 0.117, 1
150736, 1.707, -1.458, 0.036, -0.248, 0.205, -0.201, 1
150756, 2.457, -1.912, -0.692, -0.249, 0.043, -0.645, 1
150776, 2.88, -2.469, -1.257, -0.445, -0.156, -1.135, 1
150796, 2.555, -2.54, -1.23, -0.647, -0.281, -1.552, 1
150816, 2.171, -2.851, -0.888, -0.728, -0.194, -1.786, 1
150836, 2.138, -3.274, -0.395, -0.73, 0.009, -2.036, 1
150856, 2.272, -3.304, -0.598, -0.689, 0.071, -2.508, 1
150876, 2.647, -3.737, -0.43, -0.751, -0.109, -2.839, 1
150896, 2.042, -4.269, -0.341, -0.934, -0.16, -3.33, 1
150916, 0.325, -3.934, -0.499, -0.843, 0.061, -3.72, 1
150936, -0.207, -4.09, -0.393, -0.837, 0.224, -3.985, 1
150956, -0.419, -4.22, 0.029, -0.919, 0.302, -3.951, 1
150976, -0.315, -4.002, 0.052, -0.893, 0.371, -3.82, 1
150996, -0.803, -3.53, -0.697, -0.67, 0.453, -3.982, 1
151016, -1.885, -4.243, -1.275, -0.613, 0.427, -4.291, 1
151036, -2.865, -4.335, -0.866, -1.029, 0.43, -4.209, 1
151056, -3.652, -3.562, -0.105, -1.326, 0.618, -3.815, 1
151076, -3.395, -2.624, 0.162, -1.095, 1.134, -3.426, 1
151096, -3.177, -2.891, -0.561, -0.59, 1.382, -3.334, 1
151116, -3.446, -3.862, -1.016, -0.49, 1.28, -3.34, 1
151136, -3.637, -3.919, -0.727, -0.745, 1.29, -3.289, 1
151156, -3.509, -3.376, -0.142, -0.868, 1.365, -3.037, 1
151176, -2.958, -2.785, -0.054, -0.59, 1.498, -2.795, 1
151196, -3.58, -2.909, -1.136, -0.171, 1.417, -2.814, 1
151216, -4.296, -2.927, -1.638, -0.188, 1.084, -2.883, 1
151236, -5.531, -2.409, -1.486, -0.546, 0.931, -2.485, 1
151256, -5.371, -1.381, -0.968, -0.657, 1.246, -1.919, 1
151276, -4.415, -1.048, -0.621, -0.401, 1.557, -1.499, 1
151296, -3.896, -1.343, -1.133, -0.158, 1.406, -1.282, 1
151316, -3.112, -1.144, -1.39, -0.2, 0.85, -1.218, 1
151336, -3.306, -1.395, -1.525, -0.398, 0.433, -1.119, 1
151356, -3.426, -1.368, -1.15, -0.56, 0.529, -0.986, 1
151376, -2.941, -1.118, -0.53, -0.419, 0.745, -0.627, 1
151396, -2.363, -1.224, 0.076, -0.279, 0.842, -0.383, 1
151416, -1.111, -1.265, 0.264, -0.191, 0.594, -0.284, 1
151436, -1.196, -1.24, 0.129, -0.131, 0.356, -0.346, 1
151456, -1.705, -1.427, -0.27, -0.15, 0.197, -0.356, 1
151476, -2.117, -1.124, -0.208, -0.199, 0.235, -0.189, 1
151496, -1.516, -0.803, 0.134, -0.128, 0.315, 0.025, 1
151516, -0.581, -0.713, 0.104, 0.015, 0.255, 0.126, 1
151536, 0.138, -1.073, -0.367, 0.069, 0.059, 0.059, 1
151556, 0.189, -1.314, -0.681, -0.004, -0.001, -0.064, 1
151576, 0.284, -0.932, -0.651, -0.062, 0.061, -0.058, 1
151596, 0.536, -0.567, -0.486, 0.004, 0.126, -0.015, 1
151616, 0.978, -0.721, -0.568, 0.036, 0.067, -0.017, 1
151636, 0.644, -0.793, -0.723, -0.007, 0.034, -0.047, 1
151656, 0.089, -0.529, -0.539, -0.002, 0.18, -0.027, 1
151676, 0.057, -0.484, -0.28, 0.017, 0.334, -0.018, 1
151696, 0.279, -0.33, -0.159, 0.067, 0.263, -0.098, 1
151716, 0.411, -0.549, -0.429, 0.05, 0.083, -0.232, 1
151736, -0.199, -0.43, -0.498, -0.007, 0.014, -0.249, 1
151756, -0.938, 0.281, -0.047, 0.205, 0.237, -0.163, 1
151776, -0.842, 0.344, 0.293, 0.561, 0.446, -0.076, 1
151796, -0.717, -0.159, -0.159, 0.687, 0.566, -0.047, 0
151816, -0.72, -0.797, -0.766, 0.523, 0.509, -0.02, 0
151836, -1.095, -0.557, -0.507, 0.321, 0.444, -0.197, 0
151856, -3.227, 0.54, -0.03, 0.366, 0.158, -0.177, 0
151876, -6.314, 0.202, -0.467, 0.494, 0.148, 0.744, 0
151896, -8.672, -0.811, -1.051, 0.476, 0.346, 1.596, 0
151916, -8.959, -1.426, -1.444, 0.277, 0.421, 2.139, 0
151936, -9.271, -1.288, -0.961, 0.001, 0.312, 2.663, 0
151956, -8.919, -1.965, -0.512, -0.021, -0.067, 3.269, 0
151976, -7.801, -2.626, -0.832, 0.105, -0.44, 3.777, 0
151996, -6.611, -4.011, -1.862, 0.259, -0.654, 4.3, 0
152016, -4.2, -5.67, -2.923, 0.062, -0.718, 4.547, 0
152036, -2.39, -5.803, -2.878, -0.365, -1.154, 4.553, 0
152056, -2.766, -5.29, -2.685, -0.44, -1.54, 4.563, 0
152076, -2.862, -5.75, -2.381, -0.213, -1.507, 4.947, 0
152096, -1.771, -7.202, -2.287, 0.032, -1.097, 5.333, 0
152116, -0.17, -8.84, -2.258, 0.0, -0.795, 5.442, 0
152136, 1.32, -8.639, -1.991, -0.362, -0.687, 5.114, 0
152156, 1.515, -7.457, -1.264, -0.499, -0.963, 4.751, 0
152176, 0.14, -6.697, -0.953, -0.181, -0.926, 4.725, 0
152196, 0.25, -7.025, -0.829, 0.218, -0.526, 5.006, 0
152216, 2.79, -8.58, -0.743, 0.216, -0.279, 5.028, 0
152236, 3.117, -7.441, -0.144, -0.15, -0.673, 4.414, 0
152256, 1.431, -5.888, 0.793, -0.153, -0.696, 3.97, 0
152276, 2.182, -5.762, 2.16, 0.152, -0.21, 3.8, 0
152296, 3.977, -5.371, 1.977, 0.418, -0.192, 3.478, 0
152316, 4.274, -5.334, 0.644, 0.465, -0.574, 2.863, 0
152336, 3.683, -4.253, -0.12, 0.282, -0.668, 2.196, 0
152356, 3.872, -3.576, -0.245, 0.141, -0.238, 1.523, 0
152376, 3.485, -2.5, -0.571, 0.143, -0.148, 1.312, 0
152396, 3.014, -1.706, -0.531, 0.141, 0.051, 1.223, 0
152416, 3.536, -1.456, -0.295, 0.115, 0.184, 1.056, 0
152436, 3.733, -1.311, -0.654, 0.027, 0.193, 0.662, 0
152456, 2.504, -0.739, -0.971, -0.12, 0.118, 0.362, 0
152476, 0.868, -0.121, -0.412, -0.126, 0.179, 0.342, 0
152496, 1.115, -0.009, -0.421, -0.053, 0.136, 0.307, 0
152516, 1.104, -0.016, -0.849, -0.083, 0.045, 0.133, 0
152536, 0.264, -0.02, -1.065, -0.2, 0.074, 0.016, 0
152556, -0.047, 0.096, -0.822, -0.229, 0.146, -0.05, 0
152576, -0.16, -0.021, -0.634, -0.219, 0.158, 0.0, 0
152596, -0.177, 0.136, -0.256, -0.176, 0.16, 0.001, 0
152616, -0.472, 0.139, 0.075, -0.163, 0.15, 0.019, 0
152636, -0.204, -0.133, -0.057, -0.196, 0.072, -0.036, 0
152656, -0.197, -0.277, -0.256, -0.271, -0.012, -0.11, 0
152676, -0.715, -0.044, 0.142, -0.211, 0.054, -0.103, 0
152696, -0.505, -0.124, 0.351, -0.07, 0.134, -0.074, 0
152716, -0.156, -0.077, 0.285, 0.001, 0.034, -0.119, 0
152736, -0.089, -0.353, 0.138, -0.054, -0.085, -0.185, 0
152756, -0.159, -0.578, 0.048, -0.163, -0.154, -0.248, 0
152776, -0.592, -0.651, 0.417, -0.236, 0.049, -0.222, 0
152796, -0.383, -0.812, 0.009, -0.395, 0.294, -0.143, 0
152816, -0.125, -1.216, -0.585, -0.864, 0.405, 0.12, 1
152836, -0.032, -0.287, -0.301, -0.978, 0.441, 0.207, 1
152856, 1.155, -0.117, -0.071, -0.536, 0.381, 0.007, 1
152876, 1.872, -1.35, -0.123, -0.443, 0.23, -0.345, 1
152896, 2.276, -1.418, 0.045, -0.484, -0.086, -0.698, 1
152916, 2.249, -1.661, -0.026, -0.407, -0.258, -1.097, 1
152936, 1.997, -1.462, -0.487, -0.461, -0.42, -1.362, 1
152956, 2.016, -2.522, -0.858, -0.495, -0.346, -1.535, 1
152976, 2.218, -3.244, -0.629, -0.66, -0.066, -1.754, 1
152996, 2.771, -3.379, 0.147, -0.727, 0.316, -2.073, 1
153016, 3.362, -3.354, 0.108, -0.585, 0.319, -2.582, 1
153036, 2.984, -4.664, -0.211, -0.612, -0.088, -3.085, 1
153056, 2.176, -5.284, -0.028, -0.933, -0.271, -3.674, 1
153076, 1.131, -4.773, 0.479, -1.156, -0.16, -4.086, 1
153096, 1.173, -2.535, 0.058, -0.916, 0.128, -4.326, 1
153116, 0.193, -3.406, -1.562, -0.425, 0.041, -4.696, 1
153136, -1.852, -4.511, -2.401, -0.94, -0.281, -4.509, 1
153156, -3.253, -3.037, -1.557, -1.676, 0.075, -4.117, 1
153176, -2.882, -1.694, -0.31, -1.613, 0.928, -3.688, 1
153196, -1.75, -1.894, -0.137, -0.944, 1.619, -3.249, 1
153216, -0.699, -3.392, -0.981, -0.43, 1.806, -3.2, 1
153236, -0.56, -4.21, -1.453, -0.507, 1.616, -3.423, 1
153256, -1.505, -4.194, -1.084, -0.758, 1.4, -3.681, 1
153276, -1.575, -3.709, -0.819, -0.68, 1.521, -3.859, 1
153296, -1.926, -3.854, -0.821, -0.333, 1.695, -4.094, 1
153316, -1.823, -4.25, -1.049, 0.049, 1.746, -4.429, 1
153336, -2.526, -5.94, -1.662, -0.518, 1.065, -3.991, 1
153356, -4.876, -4.74, -1.359, -0.953, 1.186, -3.471, 1
153376, -6.027, -3.214, -1.051, -0.618, 1.791, -3.269, 1
153396, -5.674, -2.765, -0.534, -0.254, 1.995, -2.958, 1
153416, -5.39, -2.811, -0.33, -0.18, 1.668, -2.67, 1
153436, -5.399, -2.427, -0.506, -0.285, 1.014, -2.177, 1
153456, -6.87, -1.609, -0.398, -0.236, 0.79, -1.625, 1
153476, -6.928, -1.773, -0.632, -0.174, 0.926, -1.147, 1
153496, -5.827, -1.507, -0.459, -0.175, 1.092, -0.842, 1
153516, -4.224, -1.105, -0.28, -0.07, 0.854, -0.635, 1
153536, -3.278, -1.073, -0.529, 0.0, 0.506, -0.574, 1
153556, -3.005, -1.195, -0.763, 0.0, 0.337, -0.51, 1
153576, -2.368, -0.916, -0.939, 0.007, 0.276, -0.35, 1
153596, -2.167, -1.13, -1.102, -0.027, 0.324, -0.203, 1
153616, -1.483, -0.914, -0.911, -0.058, 0.337, -0.17, 1
153636, -0.747, -0.629, -0.533, -0.037, 0.217, -0.153, 1
153656, -0.309, -0.535, -0.158, -0.021, 0.036, -0.1, 1
153676, -0.243, -0.629, -0.246, 0.039, 0.02, -0.12, 1
153696, -0.462, -0.665, -0.397, 0.124, 0.152, -0.191, 1
153716, -0.853, -0.203, -0.263, 0.256, 0.246, -0.266, 1
153736, -1.408, 0.56, -0.254, 0.519, 0.098, -0.254, 1
153756, -2.268, 0.788, -0.387, 0.75, -0.036, -0.152, 0
153776, -3.83, -0.075, -1.155, 0.647, 0.032, 0.125, 0
153796, -5.924, -0.058, -1.005, 0.331, 0.06, 0.645, 0
153816, -9.148, 0.358, -0.737, 0.27, 0.326, 1.869, 0
153836, -9.886, -0.63, -1.632, 0.334, 0.117, 2.633, 0
153856, -9.54, -2.153, -3.518, 0.173, -0.242, 3.255, 0
153876, -9.783, -2.951, -3.961, -0.161, -0.571, 3.706, 0
153896, -8.89, -3.499, -3.668, -0.445, -0.725, 4.328, 0
153916, -6.588, -5.589, -4.11, -0.495, -0.841, 4.87, 0
153936, -4.915, -6.684, -4.083, -0.618, -1.095, 5.178, 0
153956, -3.686, -7.241, -3.124, -0.653, -1.363, 5.412, 0
153976, -3.661, -9.083, -2.823, -0.509, -1.245, 5.575, 0
153996, -2.17, -9.743, -1.951, -0.507, -0.762, 5.601, 0
154016, -0.534, -10.105, -0.903, -0.417, -0.582, 5.584, 0
154036, 0.485, -10.052, -0.331, -0.269, -0.691, 5.41, 0
154056, 0.564, -9.226, 0.568, -0.014, -0.897, 5.181, 0
154076, 0.08, -9.553, 0.66, 0.376, -1.011, 5.097, 0
154096, 0.048, -10.42, 0.054, 0.291, -0.593, 4.783, 0
154116, 1.688, -8.897, 0.819, 0.026, -0.178, 4.342, 0
154136, 2.239, -7.803, 0.948, 0.034, -0.358, 4.007, 0
154156, 2.343, -6.96, 1.478, 0.097, -0.633, 3.643, 0
154176, 2.38, -6.383, 1.108, 0.205, -0.806, 3.223, 0
154196, 1.398, -5.697, 0.158, 0.181, -0.701, 2.795, 0
154216, 1.524, -4.479, 0.774, 0.142, -0.287, 2.7, 0
154236, 3.467, -3.581, 0.52, 0.293, -0.098, 2.524, 0
154256, 3.564, -2.847, -0.446, 0.365, -0.499, 2.064, 0
154276, 2.901, -2.543, -1.067, 0.187, -0.577, 1.575, 0
154296, 3.183, -1.535, -1.052, 0.048, -0.367, 1.195, 0
154316, 3.416, -1.095, -1.362, -0.003, -0.493, 1.068, 0
154336, 3.226, -0.774, -1.245, -0.051, -0.496, 0.876, 0
154356, 2.823, -0.724, -0.883, -0.05, -0.201, 0.72, 0
154376, 2.548, -0.639, -1.04, -0.04, 0.055, 0.552, 0
154396, 1.826, -0.552, -1.025, -0.091, 0.127, 0.436, 0
154416, 1.616, -0.264, -0.414, -0.067, 0.075, 0.297, 0
154436, 1.636, -0.392, -0.355, -0.028, -0.047, 0.106, 0
154456, 0.844, -0.27, -0.793, -0.077, -0.036, -0.051, 0
154476, 0.059, -0.38, -0.874, -0.174, 0.133, -0.172, 0
154496, -0.416, -0.201, -0.483, -0.281, 0.215, -0.183, 0
154516, -0.655, 0.032, -0.095, -0.351, 0.183, -0.13, 0
154536, -0.954, 0.105, 0.011, -0.466, 0.172, -0.057, 0
154556, -1.382, -0.026, -0.114, -0.657, 0.368, 0.087, 0
154576, -1.055, -0.2, -0.214, -0.76, 0.625, 0.285, 1
154596, -0.429, -0.315, -0.136, -0.668, 0.752, 0.249, 1
154616, 0.275, -0.238, 0.054, -0.467, 0.656, 0.051, 1
154636, 0.622, -0.718, -0.217, -0.357, 0.372, -0.149, 1
154656, 0.375, -0.974, -0.246, -0.288, 0.304, -0.43, 1
154676, 0.42, -0.527, -0.435, -0.118, 0.279, -0.629, 1
154696, 0.098, -0.871, -0.711, -0.13, 0.339, -0.687, 1
154716, 0.211, -0.983, -0.695, -0.182, 0.442, -0.733, 1
154736, 0.451, -0.845, -0.713, -0.213, 0.395, -0.849, 1
154756, 0.241, -0.863, -0.498, -0.303, 0.229, -0.979, 1
154776, 0.494, -0.954, -0.449, -0.334, 0.075, -1.14, 1
154796, 1.223, -2.199, -0.893, -0.472, 0.125, -1.55, 1
154816, -0.019, -1.243, -1.07, -0.287, 0.56, -1.693, 1
154836, -0.341, -1.797, -1.134, -0.139, 0.856, -1.759, 1
154856, -0.063, -1.869, -0.705, -0.245, 0.994, -1.884, 1
154876, 0.984, -2.95, -0.316, -0.425, 0.757, -2.187, 1
154896, 2.384, -3.584, 0.144, -0.729, 0.085, -2.852, 1
154916, 1.465, -3.99, 0.533, -0.991, -0.726, -3.67, 1
154936, 0.718, -4.48, 0.794, -1.078, -0.988, -4.373, 1
154956, -0.759, -3.563, 0.488, -1.047, -0.943, -4.785, 1
154976, -2.041, -3.792, -0.313, -0.827, -0.502, -4.746, 1
154996, -1.646, -3.992, -0.554, -0.718, 0.191, -4.721, 1
155016, -1.173, -4.322, 0.051, -0.708, 0.516, -4.695, 1
155036, -0.744, -3.941, 0.771, -0.684, 0.595, -4.661, 1
155056, -1.076, -3.406, 0.564, -0.342, 0.588, -4.739, 1
155076, -1.593, -4.254, -0.033, 0.054, 0.598, -5.043, 1
155096, -2.252, -5.856, -0.721, -0.073, 0.523, -4.92, 1
155116, -3.074, -5.631, -0.644, -0.861, 0.319, -4.293, 1
155136, -3.467, -4.249, -0.15, -1.313, 0.532, -3.573, 1
155156, -3.261, -4.131, 0.234, -1.098, 1.083, -3.046, 1
155176, -1.985, -4.341, 0.429, -0.662, 1.572, -2.822, 1
155196, -1.053, -4.771, 0.131, -0.457, 1.628, -2.749, 1
155216, -1.324, -4.42, -0.342, -0.333, 1.465, -2.927, 1
155236, -2.515, -4.259, -1.348, -0.105, 1.353, -3.301, 1
155256, -4.66, -3.678, -1.488, -0.213, 1.208, -3.169, 1
155276, -6.32, -2.625, -1.214, -0.486, 1.215, -1.968, 1
155296, -6.211, -2.039, -0.814, -0.43, 1.551, -1.292, 1
155316, -4.981, -2.167, -1.105, -0.265, 1.441, -1.061, 1
155336, -3.75, -2.022, -1.522, -0.24, 0.998, -1.149, 1
155356, -4.245, -1.889, -1.667, -0.29, 0.66, -1.124, 1
155376, -4.815, -1.364, -1.533, -0.266, 0.611, -0.85, 1
155396, -4.733, -0.648, -1.258, -0.135, 0.613, -0.419, 1
155416, -3.788, -0.699, -1.164, -0.028, 0.551, -0.084, 1
155436, -2.547, -1.615, -1.653, -0.133, 0.508, -0.028, 1
155456, -1.55, -1.539, -1.598, -0.288, 0.467, -0.185, 1
155476, -1.344, -0.843, -0.641, -0.278, 0.447, -0.167, 1
155496, -0.511, -0.431, -0.1, -0.083, 0.292, -0.049, 1
155516, 0.279, -0.573, -0.01, 0.061, 0.018, -0.032, 1
155536, -0.035, -1.286, -0.486, 0.097, 0.1, -0.152, 1
155556, -0.781, -1.082, -0.81, 0.144, 0.379, -0.301, 1
155576, -0.534, -0.871, -0.353, 0.103, 0.387, -0.213, 1
155596, -0.465, -0.33, -0.241, 0.227, 0.189, -0.221, 1
155616, -1.257, -0.397, -0.404, 0.492, 0.148, -0.23, 0
155636, -2.718, -0.509, -0.87, 0.678, 0.301, -0.138, 0
155656, -5.095, -1.169, -1.007, 0.558, 0.332, 0.351, 0
155676, -8.637, -1.517, -0.998, 0.368, 0.532, 1.19, 0
155696, -9.437, -1.556, -0.963, 0.324, 0.52, 2.039, 0
155716, -10.015, -1.988, -1.29, 0.386, 0.23, 2.678, 0
155736, -10.626, -3.832, -2.819, 0.083, -0.16, 3.188, 0
155756, -10.873, -4.382, -3.718, -0.467, -0.45, 3.908, 0
155776, -9.365, -4.165, -3.7, -0.544, -1.005, 4.823, 0
155796, -5.591, -5.509, -3.706, -0.357, -1.315, 5.386, 0
155816, -4.014, -8.701, -4.909, -0.568, -1.464, 5.66, 0
155836, -2.475, -8.175, -3.718, -1.178, -1.236, 5.555, 0
155856, -1.083, -7.416, -2.426, -1.244, -1.069, 5.548, 0
155876, -0.269, -7.539, -1.628, -0.89, -1.177, 5.638, 0
155896, -0.187, -6.836, -0.463, -0.341, -1.418, 5.827, 0
155916, -0.862, -11.49, -2.12, 0.227, -1.432, 5.918, 0
155936, 0.968, -10.453, -1.407, -0.426, -0.437, 5.099, 0
155956, 1.903, -8.357, 0.204, -0.621, -0.309, 4.86, 0
155976, 2.636, -7.904, 0.532, -0.298, -0.679, 4.655, 0
155996, 1.826, -7.466, 0.993, 0.037, -0.971, 4.363, 0
156016, 1.782, -7.421, 1.319, 0.387, -0.893, 4.232, 0
156036, 2.42, -7.949, 0.241, 0.404, -0.702, 3.924, 0
156056, 3.516, -6.179, 0.388, 0.097, -0.617, 3.255, 0
156076, 3.377, -4.796, 0.847, 0.039, -0.789, 2.727, 0
156096, 2.569, -3.434, 0.894, 0.198, -0.775, 2.375, 0
156116, 1.548, -2.3, 0.817, 0.484, -0.491, 2.29, 0
156136, 1.571, -3.407, -0.156, 0.688, -0.105, 2.316, 0
156156, 2.606, -2.659, -0.22, 0.269, 0.26, 1.998, 0
156176, 3.453, -1.37, 0.321, 0.017, 0.075, 1.632, 0
156196, 2.867, -0.974, 0.028, 0.057, -0.37, 1.199, 0
156216, 1.827, -0.549, -0.348, 0.058, -0.461, 1.012, 0
156236, 2.302, -0.459, -0.837, 0.046, -0.186, 0.921, 0
156256, 2.854, -0.756, -1.282, -0.065, 0.059, 0.522, 0
156276, 2.426, -0.36, -0.962, -0.068, 0.165, 0.255, 0
156296, 1.383, -0.281, -0.402, -0.116, 0.213, 0.203, 0
156316, 1.375, 0.146, -0.191, -0.124, 0.119, 0.07, 0
156336, 0.572, 0.127, -0.55, -0.174, 0.041, -0.059, 0
156356, -0.198, 0.08, -0.548, -0.267, 0.128, -0.141, 0
156376, -0.71, -0.011, -0.552, -0.384, 0.233, -0.12, 0
156396, -1.01, 1.043, -0.293, -0.176, 0.094, -0.106, 0
156416, -1.232, 0.569, 0.072, -0.004, 0.055, -0.098, 0
156436, -1.105, 0.069, -0.054, -0.028, 0.059, -0.076, 0
156456, -1.021, -0.241, -0.046, -0.078, 0.156, -0.01, 0
156476, -0.438, -0.626, -0.189, -0.195, 0.254, 0.014, 0
156496, 0.233, -1.29, -0.59, -0.557, 0.34, -0.025, 0
156516, 0.49, -0.802, -0.496, -0.751, 0.36, -0.183, 1
156536, 0.191, -0.69, -0.144, -0.879, 0.213, -0.27, 1
156556, 0.52, -0.793, -0.133, -0.973, 0.003, -0.323, 1
156576, 1.462, -1.267, -0.16, -0.813, -0.149, -0.546, 1
156596, 1.836, -2.206, -0.594, -0.745, -0.03, -0.952, 1
156616, 2.059, -2.621, -0.407, -0.676, 0.188, -1.285, 1
156636, 2.292, -2.391, -0.155, -0.541, 0.331, -1.669, 1
156656, 2.855, -2.851, -0.075, -0.481, 0.111, -2.095, 1
156676, 2.042, -3.305, 0.003, -0.529, -0.173, -2.594, 1
156696, 1.158, -3.983, 0.187, -0.736, -0.301, -3.046, 1
156716, 0.494, -4.285, 0.687, -0.886, -0.167, -3.306, 1
156736, 0.397, -2.912, 1.122, -0.615, 0.061, -3.439, 1
156756, 0.525, -2.83, 0.379, -0.113, 0.026, -3.552, 1
156776, -0.029, -4.024, -0.705, -0.036, 0.015, -3.965, 1
156796, -0.477, -4.287, -1.385, -0.345, -0.159, -4.257, 1
156816, -1.81, -3.773, -1.011, -0.853, -0.299, -4.158, 1
156836, -2.318, -2.679, -0.143, -0.92, 0.201, -3.869, 1
156856, -1.93, -1.996, -0.474, -0.417, 0.81, -3.626, 1
156876, -1.576, -3.01, -1.115, 0.064, 1.015, -3.825, 1
156896, -2.26, -4.139, -1.578, -0.025, 0.895, -3.963, 1
156916, -3.144, -3.88, -1.458, -0.552, 0.745, -3.836, 1
156936, -3.766, -2.724, -1.265, -0.792, 0.769, -3.537, 1
156956, -4.224, -2.743, -1.321, -0.702, 0.927, -3.268, 1
156976, -4.026, -3.576, -1.243, -0.561, 1.373, -3.008, 1
156996, -2.914, -3.722, -0.591, -0.558, 1.807, -2.775, 1
157016, -1.763, -3.669, -0.692, -0.462, 1.733, -2.729, 1
157036, -1.69, -3.675, -1.465, -0.384, 1.177, -3.033, 1
157056, -3.296, -4.217, -2.248, -0.583, 0.69, -3.266, 1
157076, -4.459, -3.419, -1.824, -0.876, 0.921, -3.187, 1
157096, -4.307, -2.427, -0.759, -0.844, 1.449, -2.668, 1
157116, -3.185, -2.824, -0.34, -0.546, 1.714, -2.072, 1
157136, -2.334, -2.6, -0.38, -0.379, 1.649, -1.844, 1
157156, -2.775, -2.501, -1.065, -0.225, 1.275, -1.955, 1
157176, -3.312, -2.157, -1.754, -0.303, 0.735, -1.898, 1
157196, -4.632, -1.969, -1.765, -0.656, 0.572, -1.448, 1
157216, -4.89, -1.811, -1.466, -0.779, 0.938, -0.978, 1
157236, -4.067, -1.441, -0.705, -0.579, 1.189, -0.472, 1
157256, -2.716, -1.285, -0.235, -0.469, 0.815, -0.33, 1
157276, -2.12, -1.3, -0.243, -0.387, 0.464, -0.328, 1
157296, -2.097, -1.566, -0.352, -0.29, 0.365, -0.352, 1
157316, -1.603, -1.226, -0.582, -0.118, 0.389, -0.331, 1
157336, -1.146, -1.119, -0.831, -0.053, 0.361, -0.319, 1
157356, -0.903, -1.095, -0.693, -0.116, 0.278, -0.222, 1
157376, -0.848, -1.099, -0.408, -0.15, 0.376, -0.142, 1
157396, -0.318, -0.944, 0.218, -0.007, 0.487, -0.112, 1
157416, 0.479, -0.905, 0.365, 0.211, 0.376, -0.113, 1
157436, 0.92, -0.491, 0.384, 0.439, 0.144, -0.215, 1
157456, 0.446, -1.288, -0.185, 0.394, 0.155, -0.286, 1
157476, -0.187, -1.261, -0.712, 0.238, 0.377, -0.334, 1
157496, -0.741, -0.303, -0.264, 0.321, 0.443, -0.213, 1
157516, -1.592, 0.36, 0.164, 0.661, 0.478, 0.005, 0
157536, -2.178, 0.206, -0.185, 0.905, 0.491, 0.174, 0
157556, -2.918, -1.333, -0.999, 0.583, 0.321, 0.172, 0
157576, -5.193, -1.177, -1.48, 0.216, 0.444, 0.248, 0
157596, -7.618, -0.309, -1.064, 0.182, 0.458, 0.846, 0
157616, -10.165, -0.539, -1.568, 0.092, 0.319, 1.828, 0
157636, -9.962, -0.418, -2.282, 0.055, -0.064, 2.638, 0
157656, -9.401, -1.792, -3.872, -0.145, -0.544, 3.116, 0
157676, -9.049, -2.133, -4.394, -0.314, -0.645, 3.733, 0
157696, -7.838, -3.164, -4.791, -0.447, -0.632, 4.546, 0
157716, -5.951, -4.194, -4.558, -0.632, -0.741, 5.268, 0
157736, -3.263, -5.199, -3.441, -0.615, -1.4, 5.648, 0
157756, -2.114, -8.476, -4.056, -0.744, -1.489, 5.502, 0
157776, -1.38, -7.881, -3.002, -1.042, -1.429, 5.12, 0
157796, -0.843, -7.971, -2.212, -0.98, -1.178, 5.041, 0
157816, -0.134, -7.677, -1.285, -0.701, -1.043, 5.104, 0
157836, 0.108, -7.439, -0.4, -0.194, -1.112, 5.281, 0
157856, -0.082, -10.292, -1.335, 0.199, -1.109, 5.346, 0
157876, 1.129, -9.837, -0.89, -0.156, -0.632, 4.839, 0
157896, 2.037, -8.628, -0.08, -0.296, -0.5, 4.445, 0
157916, 1.839, -7.628, 0.642, -0.199, -0.662, 4.192, 0
157936, 1.206, -6.393, 2.14, 0.018, -0.602, 4.054, 0
157956, 0.938, -6.914, 1.986, 0.421, -0.276, 4.012, 0
157976, 2.085, -6.596, 1.588, 0.403, 0.168, 3.618, 0
157996, 3.35, -5.135, 1.485, 0.174, -0.042, 3.139, 0
158016, 2.996, -3.859, 1.297, 0.093, -0.698, 2.455, 0
158036, 0.895, -2.627, 1.426, 0.152, -1.063, 2.174, 0
158056, 0.891, -3.127, 0.766, 0.234, -0.762, 2.076, 0
158076, 2.378, -2.131, 0.332, 0.079, -0.581, 1.74, 0
158096, 2.443, -1.414, -0.24, 0.12, -0.834, 1.489, 0
158116, 1.65, -1.3, -0.708, 0.19, -0.813, 1.386, 0
158136, 1.523, -0.928, -0.919, 0.196, -0.384, 1.38, 0
158156, 2.413, -0.937, -0.979, 0.131, 0.062, 1.422, 0
158176, 3.279, -0.968, -1.057, 0.084, 0.145, 1.207, 0
158196, 3.193, -0.753, -0.712, 0.0, -0.051, 0.917, 0
158216, 2.547, -0.71, -0.416, -0.012, -0.066, 0.53, 0
158236, 2.728, -1.071, -0.732, -0.165, -0.066, 0.287, 0
158256, 2.438, -0.589, -1.06, -0.286, -0.192, 0.028, 0
158276, 1.027, 0.049, -0.914, -0.24, -0.128, -0.111, 0
158296, -0.384, 0.423, -0.611, -0.191, 0.175, -0.047, 0
158316, -0.342, 0.356, -0.22, -0.136, 0.313, 0.01, 0
158336, 0.115, -0.144, -0.163, -0.193, 0.207, -0.085, 0
158356, -0.449, -0.635, -0.534, -0.488, 0.225, -0.175, 0
158376, -1.238, -0.467, -0.589, -0.848, 0.414, -0.021, 0
158396, -0.945, -0.225, -0.294, -1.009, 0.583, 0.152, 1
158416, -0.247, -0.027, 0.009, -0.863, 0.524, 0.244, 1
158436, 0.771, -0.26, 0.058, -0.563, 0.383, 0.271, 1
158456, 1.814, -1.152, -0.207, -0.302, 0.301, -0.065, 1
158476, 2.634, -2.386, -0.903, -0.334, 0.197, -0.616, 1
158496, 3.017, -2.901, -1.164, -0.582, 0.061, -1.241, 1
158516, 2.814, -2.379, -0.941, -0.693, -0.175, -1.717, 1
158536, 2.209, -2.715, -0.554, -0.734, -0.297, -1.965, 1
158556, 1.223, -2.534, -0.311, -0.638, -0.111, -2.07, 1
158576, 0.911, -2.698, -0.25, -0.527, 0.196, -2.181, 1
158596, 1.193, -2.854, -0.454, -0.436, 0.331, -2.423, 1
158616, 1.259, -3.21, -0.627, -0.496, 0.232, -2.72, 1
158636, 0.436, -3.519, -0.443, -0.654, 0.225, -2.921, 1
158656, -0.074, -3.78, -0.193, -0.734, 0.445, -3.103, 1
158676, -0.126, -3.744, 0.312, -0.627, 0.679, -3.227, 1
158696, 0.329, -3.563, 0.302, -0.34, 0.416, -3.574, 1
158716, -1.013, -4.679, -0.185, -0.437, 0.211, -3.732, 1
158736, -1.909, -4.632, -0.203, -0.712, 0.398, -3.759, 1
158756, -1.558, -3.804, -0.16, -0.656, 0.685, -3.875, 1
158776, -1.781, -3.734, -0.56, -0.487, 0.612, -3.884, 1
158796, -2.732, -4.17, -0.647, -0.501, 0.391, -3.868, 1
158816, -3.658, -4.397, -0.533, -0.631, 0.535, -3.77, 1
158836, -3.702, -3.63, -0.381, -0.69, 0.979, -3.546, 1
158856, -3.341, -3.351, -0.352, -0.42, 1.227, -3.505, 1
158876, -3.472, -3.684, -0.446, -0.232, 1.207, -3.417, 1
158896, -3.888, -3.941, -0.632, -0.273, 1.134, -3.144, 1
158916, -4.03, -3.27, -1.105, -0.307, 1.109, -2.902, 1
158936, -4.187, -3.539, -1.393, -0.34, 1.057, -2.828, 1
158956, -4.26, -2.943, -0.855, -0.432, 1.147, -2.72, 1
158976, -3.754, -2.5, -0.333, -0.254, 1.335, -2.557, 1
158996, -2.465, -2.433, -0.248, 0.031, 1.348, -2.27, 1
159016, -2.049, -3.018, -0.879, 0.194, 1.03, -2.112, 1
159036, -2.353, -2.749, -1.413, 0.18, 0.836, -2.214, 1
159056, -3.267, -1.925, -2.13, 0.114, 0.743, -2.326, 1
159076, -4.801, -0.771, -2.1, 0.061, 0.689, -2.245, 1
159096, -5.708, -0.371, -1.916, 0.031, 0.776, -1.714, 1
159116, -4.972, -0.18, -1.72, 0.0, 0.896, -1.001, 1
159136, -3.855, -0.594, -1.527, -0.013, 1.017, -0.598, 1
159156, -2.812, -0.83, -1.245, -0.115, 0.908, -0.434, 1
159176, -2.084, -0.681, -0.792, -0.233, 0.74, -0.386, 1
159196, -1.432, -0.645, -0.638, -0.174, 0.434, -0.389, 1
159216, -1.432, -0.692, -0.789, -0.096, 0.228, -0.395, 1
159236, -1.819, -0.716, -0.756, -0.075, 0.229, -0.278, 1
159256, -1.489, -0.889, -0.675, -0.067, 0.308, -0.147, 1
159276, -0.571, -0.75, -0.489, 0.031, 0.279, -0.156, 1
159296, 0.655, -0.803, -0.509, 0.093, 0.105, -0.244, 1
159316, 0.846, -1.037, -0.666, 0.062, -0.06, -0.294, 1
159336, 0.118, -1.159, -0.839, 0.037, 0.117, -0.361, 1
159356, -0.498, -0.369, -0.776, 0.301, 0.312, -0.429, 1
159376, -1.229, -0.054, -0.484, 0.594, 0.316, -0.355, 0
159396, -1.383, -0.259, -0.396, 0.679, 0.276, -0.235, 0
159416, -3.165, -0.416, -0.511, 0.616, 0.072, -0.11, 0
159436, -7.455, -0.358, -0.064, 0.544, 0.063, 0.503, 0
159456, -10.962, -0.229, 0.579, 0.601, 0.244, 1.631, 0
159476, -12.279, -0.741, 0.338, 0.762, 0.505, 2.715, 0
159496, -12.67, -2.613, -1.235, 0.576, 0.456, 3.524, 0
159516, -11.94, -3.955, -2.755, 0.045, 0.092, 4.271, 0
159536, -10.34, -4.198, -3.296, -0.28, -0.474, 4.87, 0
159556, -8.419, -5.429, -3.526, -0.473, -1.047, 5.407, 0
159576, -6.146, -6.901, -4.032, -0.596, -1.384, 5.735, 0
159596, -4.066, -9.36, -4.745, -0.957, -1.22, 5.687, 0
159616, -2.143, -9.327, -4.101, -1.059, -1.266, 5.747, 0
159636, -0.974, -9.332, -3.634, -0.849, -1.222, 5.775, 0
159656, -0.303, -9.707, -2.996, -0.586, -1.19, 5.832, 0
159676, 0.417, -9.307, -2.214, -0.189, -1.145, 5.749, 0
159696, 0.858, -10.69, -3.096, -0.512, -0.714, 5.201, 0
159716, 0.943, -8.847, -1.254, -0.75, -0.312, 4.925, 0
159736, 1.482, -8.35, -0.113, -0.544, 0.015, 4.874, 0
159756, 2.079, -8.106, 1.038, -0.367, 0.08, 4.81, 0
159776, 2.689, -8.058, 1.693, -0.183, -0.045, 4.584, 0
159796, 3.643, -7.975, 2.027, -0.183, 0.055, 3.916, 0
159816, 4.981, -6.071, 1.891, -0.191, -0.22, 3.04, 0
159836, 4.012, -4.974, 1.08, -0.16, -0.94, 2.334, 0
159856, 3.215, -3.912, 1.447, -0.13, -1.173, 1.882, 0
159876, 3.381, -3.144, 0.731, 0.073, -1.048, 1.539, 0
159896, 3.206, -2.41, -0.588, 0.205, -0.923, 1.217, 0
159916, 2.467, -1.803, -1.19, 0.17, -0.746, 1.031, 0
159936, 1.993, -1.057, -0.689, 0.086, -0.362, 1.077, 0
159956, 2.123, -0.937, -0.171, 0.12, 0.125, 1.104, 0
159976, 2.853, -1.041, -0.175, 0.158, 0.166, 0.973, 0
159996, 2.694, -0.756, -0.683, 0.091, -0.116, 0.613, 0
160016, 0.987, -0.291, -0.741, 0.001, -0.129, 0.319, 0
160036, 0.654, 0.04, -0.379, -0.087, 0.164, 0.412, 0
160056, 1.41, -0.086, -0.382, -0.069, 0.227, 0.43, 0
160076, 1.635, -0.362, -0.702, -0.022, 0.048, 0.2, 0
160096, 0.388, -0.38, -0.878, -0.107, -0.032, -0.042, 0
160116, -0.452, 0.083, -0.476, -0.182, 0.144, -0.142, 0
160136, -0.356, 0.092, -0.319, -0.15, 0.255, -0.085, 0
160156, -0.41, 0.028, -0.575, -0.173, 0.201, -0.18, 0
160176, -1.285, 0.138, -0.371, -0.2, 0.138, -0.155, 0
160196, -1.219, 0.048, 0.037, -0.167, 0.183, -0.103, 0
160216, -0.713, -0.36, 0.043, -0.16, 0.166, -0.136, 0
160236, -0.78, -1.079, -0.239, -0.381, 0.318, -0.113, 0
160256, 0.082, -1.799, -0.874, -0.9, 0.538, -0.024, 0
160276, 1.283, -1.534, -1.105, -1.204, 0.554, -0.065, 1
160296, 1.779, -0.637, -0.687, -0.901, 0.428, -0.383, 1
160316, 2.217, -1.677, -0.966, -0.725, 0.283, -0.694, 1
160336, 1.54, -2.265, -1.342, -0.676, 0.363, -1.193, 1
160356, 1.067, -1.962, -0.857, -0.654, 0.423, -1.509, 1
160376, 0.902, -1.618, -0.326, -0.484, 0.428, -1.617, 1
160396, 1.028, -2.347, -0.105, -0.409, 0.505, -1.797, 1
160416, 1.498, -2.998, 0.036, -0.378, 0.514, -2.069, 1
160436, 1.885, -3.044, -0.1, -0.332, 0.437, -2.567, 1
160456, 1.907, -3.557, -0.727, -0.431, 0.055, -3.08, 1
160476, 0.864, -3.947, -0.877, -0.713, -0.179, -3.429, 1
160496, -0.513, -3.911, -0.529, -0.894, -0.001, -3.482, 1
160516, -0.919, -3.134, -0.223, -0.751, 0.394, -3.489, 1
160536, -0.308, -2.259, -1.1, -0.421, 0.389, -3.809, 1
160556, -0.692, -3.469, -2.159, -0.671, 0.014, -3.995, 1
160576, -2.44, -3.673, -2.121, -1.094, 0.187, -3.918, 1
160596, -3.312, -2.833, -1.19, -1.134, 0.803, -3.406, 1
160616, -3.386, -2.435, -0.137, -0.681, 1.667, -2.784, 1
160636, -1.889, -2.717, 0.139, -0.087, 2.147, -2.656, 1
160656, -0.089, -4.139, -0.657, 0.022, 1.637, -3.343, 1
160676, -0.666, -5.42, -0.617, -0.328, 1.053, -3.907, 1
160696, -1.703, -4.535, -0.845, -0.437, 0.713, -4.25, 1
160716, -3.202, -4.313, -1.156, -0.283, 0.744, -4.371, 1
160736, -3.697, -4.4, -1.085, -0.011, 1.1, -4.388, 1
160756, -4.111, -5.212, -1.168, -0.094, 1.29, -3.845, 1
160776, -3.989, -4.025, -0.543, -0.341, 1.549, -3.075, 1
160796, -3.434, -2.972, -0.45, -0.053, 1.795, -2.562, 1
160816, -3.347, -2.985, -0.745, 0.303, 1.75, -2.45, 1
160836, -3.593, -3.206, -1.163, 0.265, 1.464, -2.296, 1
160856, -3.86, -2.423, -1.009, 0.083, 1.357, -2.087, 1
160876, -3.24, -1.577, -0.846, 0.117, 1.362, -1.836, 1
160896, -3.357, -1.0, -1.2, 0.272, 1.213, -1.675, 1
160916, -3.748, -0.673, -1.202, 0.224, 0.859, -1.549, 1
160936, -3.998, -0.425, -1.313, 0.102, 0.664, -1.197, 1
160956, -3.699, -0.715, -1.545, 0.053, 0.831, -0.835, 1
160976, -2.721, -0.918, -1.547, 0.07, 1.039, -0.535, 1
160996, -2.014, -1.051, -1.647, 0.024, 1.0, -0.503, 1
161016, -2.335, -0.788, -1.472, -0.136, 0.682, -0.56, 1
161036, -2.789, -0.47, -1.222, -0.206, 0.389, -0.498, 1
161056, -2.792, -0.436, -1.291, -0.116, 0.322, -0.314, 1
161076, -2.041, -0.591, -1.197, -0.103, 0.325, -0.079, 1
161096, -0.929, -0.435, -1.0, -0.13, 0.265, 0.045, 1
161116, -0.12, -0.393, -0.9, -0.143, 0.152, 0.029, 1
161136, -0.281, -0.556, -0.868, -0.052, 0.066, -0.067, 1
161156, -0.5, -0.473, -0.631, 0.14, 0.155, -0.096, 1
161176, 0.059, -0.213, -0.561, 0.307, 0.144, -0.081, 1
161196, 0.52, -0.909, -0.543, 0.166, 0.016, -0.124, 1
161216, -0.208, -0.576, -0.666, 0.208, 0.003, -0.251, 1
161236, -1.46, -0.31, -0.941, 0.424, -0.105, -0.232, 0
161256, -4.555, -0.269, -0.614, 0.467, -0.073, 0.15, 0
161276, -8.164, -0.05, -0.667, 0.433, 0.348, 1.05, 0
161296, -9.036, -0.364, -1.06, 0.378, 0.524, 1.89, 0
161316, -7.988, -1.34, -1.188, 0.212, 0.165, 2.306, 0
161336, -7.178, -2.198, -2.053, -0.152, -0.616, 2.44, 0
161356, -7.749, -2.33, -2.866, -0.489, -1.104, 2.684, 0
161376, -8.751, -1.578, -3.409, -0.417, -0.93, 3.451, 0
161396, -7.113, -3.028, -3.839, -0.428, -0.635, 4.321, 0
161416, -4.093, -4.356, -4.008, -0.598, -0.827, 4.639, 0
161436, -1.893, -5.789, -4.179, -0.978, -1.252, 4.451, 0
161456, -1.579, -5.711, -3.361, -1.138, -1.516, 4.266, 0
161476, -2.047, -5.248, -2.349, -0.921, -1.422, 4.458, 0
161496, -1.312, -5.559, -1.382, -0.564, -1.42, 4.882, 0
161516, -0.327, -6.413, -0.815, -0.146, -1.511, 5.078, 0
161536, 0.204, -8.806, -1.784, -0.313, -1.277, 4.797, 0
161556, 0.027, -8.42, -1.803, -0.687, -0.74, 4.464, 0
161576, -0.196, -7.054, -0.959, -0.557, -0.577, 4.795, 0
161596, 0.467, -6.885, -0.084, -0.259, -0.582, 4.952, 0
161616, 1.556, -6.723, 0.416, 0.023, -0.795, 4.38, 0
161636, 2.193, -7.714, -0.485, -0.229, -0.907, 3.681, 0
161656, 1.291, -5.301, -0.059, -0.254, -0.913, 3.414, 0
161676, 1.112, -4.815, -0.197, -0.058, -0.656, 3.355, 0
161696, 1.568, -4.121, 0.733, 0.136, -0.507, 3.374, 0
161716, 2.097, -5.515, -0.045, 0.264, -0.314, 3.118, 0
161736, 3.107, -4.212, -0.016, -0.049, -0.271, 2.554, 0
161756, 2.741, -2.957, 0.482, -0.101, -0.463, 2.092, 0
161776, 2.234, -2.397, 0.611, 0.036, -0.519, 1.798, 0
161796, 1.59, -1.098, 0.7, 0.182, -0.481, 1.755, 0
161816, 1.858, -1.807, -0.183, 0.389, -0.353, 1.717, 0
161836, 2.429, -2.03, -0.781, 0.264, -0.161, 1.439, 0
161856, 3.115, -1.681, -0.748, 0.088, -0.011, 1.134, 0
161876, 2.952, -1.409, -0.507, 0.019, 0.004, 0.842, 0
161896, 2.674, -1.159, -0.435, 0.022, 0.005, 0.607, 0
161916, 2.147, -1.107, -0.969, 0.003, 0.022, 0.365, 0
161936, 1.066, -0.574, -0.943, -0.131, 0.086, 0.152, 0
161956, 0.634, 0.025, -0.242, -0.179, 0.177, 0.075, 0
161976, 0.576, -0.015, -0.091, -0.073, 0.096, -0.007, 0
161996, -0.207, -0.152, -0.446, -0.086, -0.11, -0.155, 0
162016, -1.412, 0.136, -0.671, -0.181, -0.193, -0.192, 0
162036, -1.503, 0.453, -0.386, -0.177, 0.04, -0.007, 0
162056, -0.27, 0.034, -0.174, -0.079, 0.191, 0.11, 0
162076, 0.047, -0.242, -0.164, -0.091, 0.063, 0.012, 0
162096, -0.238, -0.454, -0.247, -0.133, -0.097, -0.136, 0
162116, -0.284, -0.531, -0.049, -0.219, -0.133, -0.259, 0
162136, -0.374, -0.869, 0.32, -0.218, 0.141, -0.157, 0
162156, 0.923, -1.884, -0.122, -0.47, 0.445, -0.295, 0
162176, 2.126, -3.177, -1.446, -1.186, 0.527, -0.557, 0
162196, 2.748, -2.441, -1.207, -1.494, 0.361, -1.006, 1
162216, 2.454, -1.872, -0.419, -1.207, 0.175, -1.365, 1
162236, 0.816, -1.859, -0.334, -0.767, 0.395, -1.463, 1
162256, 0.492, -2.095, -0.062, -0.243, 0.806, -1.569, 1
162276, 1.466, -2.588, 0.139, 0.037, 0.974, -1.864, 1
162296, 2.112, -3.434, -0.4, -0.061, 0.821, -2.381, 1
162316, 2.08, -3.952, -0.617, -0.337, 0.363, -2.85, 1
162336, 1.207, -4.222, -0.363, -0.574, 0.152, -3.251, 1
162356, 0.224, -4.038, 0.159, -0.605, 0.32, -3.455, 1
162376, 0.052, -3.583, 0.245, -0.326, 0.605, -3.547, 1
162396, 0.536, -3.526, -0.654, -0.16, 0.415, -3.676, 1
162416, -0.467, -4.43, -1.338, -0.466, 0.364, -3.919, 1
162436, -0.961, -4.023, -0.593, -0.605, 0.706, -4.156, 1
162456, -0.702, -3.572, 0.263, -0.34, 0.99, -4.148, 1
162476, -0.207, -3.596, 0.148, 0.105, 1.099, -4.131, 1
162496, -0.198, -4.886, -1.544, -0.09, 0.685, -4.093, 1
162516, -1.057, -5.467, -2.332, -0.783, 0.5, -4.268, 1
162536, -2.361, -4.335, -1.322, -1.02, 0.833, -4.357, 1
162556, -2.722, -3.22, -0.306, -0.598, 1.302, -4.062, 1
162576, -2.918, -3.254, -0.19, -0.002, 1.701, -3.873, 1
162596, -2.47, -4.041, -1.575, -0.162, 1.226, -3.678, 1
162616, -6.021, -3.064, -2.058, -0.501, 1.156, -3.534, 1
162636, -6.173, -1.632, -1.793, -0.357, 1.588, -3.111, 1
162656, -6.134, -1.912, -2.12, 0.003, 1.742, -2.682, 1
162676, -5.874, -2.65, -2.088, -0.03, 1.577, -2.351, 1
162696, -5.718, -1.947, -1.589, -0.29, 1.409, -2.003, 1
162716, -5.003, -1.419, -1.249, -0.287, 1.382, -1.735, 1
162736, -3.957, -1.022, -1.29, -0.112, 1.211, -1.521, 1
162756, -3.968, -1.503, -1.873, -0.051, 1.01, -1.356, 1
162776, -3.919, -1.726, -1.906, -0.149, 0.968, -1.221, 1
162796, -3.775, -1.23, -1.47, -0.331, 0.991, -0.973, 1
162816, -2.748, -0.965, -1.065, -0.339, 0.927, -0.741, 1
162836, -2.425, -0.732, -0.595, -0.276, 0.733, -0.581, 1
162856, -2.423, -0.999, -0.504, -0.103, 0.562, -0.429, 1
162876, -2.25, -1.35, -0.9, -0.021, 0.492, -0.32, 1
162896, -1.766, -1.362, -0.846, -0.082, 0.522, -0.298, 1
162916, -1.366, -1.1, -0.493, -0.128, 0.486, -0.276, 1
162936, -1.094, -0.483, -0.152, -0.046, 0.259, -0.23, 1
162956, -1.158, -0.514, 0.011, 0.164, 0.004, -0.134, 1
162976, -1.044, -1.06, -0.54, 0.323, -0.021, -0.023, 1
162996, -0.712, -1.272, -0.741, 0.299, 0.145, -0.052, 1
163016, -0.326, -1.158, -0.562, 0.249, 0.094, -0.049, 1
163036, -0.358, -0.689, -0.303, 0.295, -0.079, -0.01, 1
163056, -0.443, -0.906, -0.616, 0.548, -0.136, -0.044, 0
163076, -0.254, -0.674, -0.675, 0.631, -0.048, 0.006, 0
163096, -0.762, -0.877, -0.651, 0.64, 0.061, 0.081, 0
163116, -1.635, -0.91, -0.642, 0.507, 0.014, 0.152, 0
163136, -3.472, -0.469, -1.172, 0.467, -0.094, 0.195, 0
163156, -6.09, -0.628, -1.76, 0.247, -0.156, 0.584, 0
163176, -8.175, -0.538, -1.717, 0.045, 0.007, 1.269, 0
163196, -9.065, -0.443, -1.238, 0.018, 0.201, 2.117, 0
163216, -8.132, -0.887, -1.226, 0.145, 0.036, 2.762, 0
163236, -6.321, -1.827, -1.883, 0.147, -0.486, 3.068, 0
163256, -6.002, -3.119, -2.888, -0.042, -0.784, 3.334, 0
163276, -5.03, -4.024, -3.615, -0.424, -0.971, 3.502, 0
163296, -3.79, -4.03, -3.419, -0.612, -1.264, 3.67, 0
163316, -3.146, -4.05, -3.315, -0.547, -1.521, 3.867, 0
163336, -2.867, -4.614, -3.501, -0.495, -1.598, 4.174, 0
163356, -2.849, -6.225, -4.181, -0.676, -1.324, 4.327, 0
163376, -1.78, -5.806, -3.51, -0.817, -1.164, 4.469, 0
163396, -0.816, -5.999, -2.727, -0.701, -1.239, 4.614, 0
163416, -0.099, -6.572, -1.889, -0.535, -1.408, 4.696, 0
163436, 0.011, -6.038, -0.617, -0.114, -1.523, 4.9, 0
163456, -0.04, -6.386, 0.206, 0.367, -1.484, 5.119, 0
163476, 0.481, -6.938, 0.259, 0.775, -1.436, 5.146, 0
163496, 1.329, -10.035, -1.395, 0.183, -0.835, 4.249, 0
163516, 2.707, -7.522, -0.559, -0.081, -1.053, 3.759, 0
163536, 1.28, -6.223, -0.274, -0.058, -1.044, 3.78, 0
163556, 0.688, -5.002, 1.029, 0.247, -0.714, 3.888, 0
163576, 1.894, -4.495, 1.619, 0.829, -0.69, 3.714, 0
163596, 2.964, -5.736, -0.988, 0.247, -0.53, 2.935, 0
163616, 2.471, -3.676, -0.521, -0.1, -0.18, 2.484, 0
163636, 2.181, -3.19, -0.183, -0.028, 0.058, 2.241, 0
163656, 2.594, -2.204, 0.587, 0.035, 0.163, 2.155, 0
163676, 3.041, -2.169, 0.375, 0.248, 0.248, 1.917, 0
163696, 3.458, -2.57, -0.612, 0.222, 0.198, 1.48, 0
163716, 3.07, -1.714, -0.799, -0.054, -0.046, 0.925, 0
163736, 1.562, -0.669, -0.557, -0.164, -0.207, 0.745, 0
163756, 1.48, -0.439, -0.494, -0.056, 0.132, 0.756, 0
163776, 1.48, -0.705, -0.595, 0.073, 0.316, 0.726, 0
163796, 1.408, -1.004, -0.756, 0.026, 0.345, 0.531, 0
163816, 1.286, -0.732, -0.546, -0.122, 0.288, 0.28, 0
163836, 0.715, -0.189, -0.157, -0.155, 0.12, 0.088, 0
163856, -0.159, -0.106, -0.117, -0.138, -0.01, 0.0, 0
163876, -0.617, -0.076, -0.356, -0.127, -0.052, -0.024, 0
163896, -0.667, -0.144, -0.616, -0.141, 0.015, -0.014, 0
163916, -0.581, -0.166, -0.417, -0.188, 0.177, -0.006, 0
163936, -0.086, -0.083, -0.028, -0.165, 0.263, -0.021, 0
163956, -0.355, -0.302, 0.324, -0.125, 0.075, -0.083, 0
163976, -0.514, -0.258, 0.348, -0.116, -0.088, -0.165, 0
163996, -1.375, -0.232, 0.148, -0.067, -0.038, -0.138, 0
164016, -0.927, -0.563, 0.287, -0.026, 0.265, 0.019, 0
164036, 0.143, -1.322, -0.058, -0.18, 0.464, 0.064, 0
164056, 0.354, -1.176, -0.565, -0.638, 0.5, 0.129, 1
164076, 0.412, -0.463, -0.202, -0.739, 0.548, 0.206, 1
164096, 1.815, -0.916, 0.195, -0.381, 0.502, 0.144, 1
164116, 3.291, -2.843, -0.018, -0.212, 0.396, -0.368, 1
164136, 4.558, -4.004, 0.183, -0.276, 0.053, -1.3, 1
164156, 5.066, -4.041, 0.12, -0.354, -0.546, -2.295, 1
164176, 4.567, -3.999, -0.611, -0.519, -1.13, -2.99, 1
164196, 2.237, -4.095, -0.783, -0.783, -1.017, -3.285, 1
164216, 0.67, -3.59, -0.535, -0.72, -0.289, -3.208, 1
164236, 0.159, -3.377, -0.382, -0.477, 0.519, -3.009, 1
164256, 0.743, -3.405, -0.621, -0.279, 0.972, -3.062, 1
164276, 1.452, -3.906, -1.093, -0.359, 0.685, -3.292, 1
164296, 0.487, -4.498, -1.051, -0.66, 0.506, -3.575, 1
164316, -0.378, -4.503, -0.285, -0.777, 0.739, -3.765, 1
164336, -0.412, -3.65, 0.29, -0.469, 0.985, -3.856, 1
164356, 0.036, -3.225, -0.557, -0.021, 0.83, -4.188, 1
164376, -0.482, -5.242, -2.641, -0.427, 0.246, -4.208, 1
164396, -3.193, -5.144, -2.904, -1.155, 0.579, -4.173, 1
164416, -4.045, -3.55, -1.405, -1.163, 1.444, -3.909, 1
164436, -3.538, -2.181, -0.003, -0.443, 2.052, -3.431, 1
164456, -2.274, -2.603, 0.202, 0.334, 2.229, -3.251, 1
164476, -1.436, -3.769, -0.878, 0.583, 1.948, -3.456, 1
164496, -2.074, -5.442, -2.208, -0.05, 1.425, -3.648, 1
164516, -3.652, -4.129, -1.574, -0.502, 1.361, -3.652, 1
164536, -4.055, -2.688, -0.491, -0.271, 1.581, -3.273, 1
164556, -4.187, -2.42, -0.375, 0.477, 2.063, -3.039, 1
164576, -3.108, -3.187, -1.496, 0.541, 1.83, -3.307, 1
164596, -4.206, -3.392, -1.633, 0.07, 1.056, -3.157, 1
164616, -5.587, -1.751, -1.399, -0.38, 0.751, -2.632, 1
164636, -5.605, -1.03, -1.505, -0.184, 1.152, -2.272, 1
164656, -5.002, -0.634, -1.509, 0.015, 1.16, -1.85, 1
164676, -4.606, -0.82, -1.365, 0.032, 1.035, -1.427, 1
164696, -3.643, -1.06, -1.619, -0.026, 0.816, -1.207, 1
164716, -3.023, -0.843, -1.494, -0.142, 0.54, -1.187, 1
164736, -3.006, -0.356, -1.259, -0.209, 0.28, -1.132, 1
164756, -2.947, 0.13, -1.087, -0.172, 0.181, -0.912, 1
164776, -2.941, -0.014, -1.215, -0.139, 0.188, -0.601, 1
164796, -2.265, -0.511, -1.249, -0.096, 0.353, -0.29, 1
164816, -0.932, -0.96, -1.12, -0.162, 0.445, -0.155, 1
164836, -0.23, -0.608, -0.55, -0.204, 0.386, -0.188, 1
164856, -0.245, -0.492, -0.352, -0.001, 0.323, -0.319, 1
164876, -0.645, -0.42, -0.033, 0.229, 0.089, -0.335, 1
164896, -1.468, -0.632, -0.395, 0.291, -0.062, -0.145, 1
164916, -1.699, -0.963, -0.638, 0.339, 0.1, -0.135, 1
164936, -1.79, 0.203, -0.027, 0.485, 0.165, -0.033, 0
164956, -3.874, -0.064, -0.13, 0.739, 0.0, 0.259, 0
164976, -6.764, -0.572, -0.147, 0.638, -0.187, 0.766, 0
164996, -8.546, -0.852, -0.473, 0.547, 0.121, 1.506, 0
165016, -8.393, -0.82, -1.005, 0.648, 0.568, 2.16, 0
165036, -6.962, -2.154, -2.327, 0.411, 0.361, 2.852, 0
165056, -6.155, -2.814, -3.263, -0.142, -0.623, 2.988, 0
165076, -7.022, -2.884, -3.894, -0.61, -1.011, 3.39, 0
165096, -7.386, -2.36, -3.838, -0.574, -0.919, 4.003, 0
165116, -5.749, -4.098, -4.219, -0.634, -0.943, 4.415, 0
165136, -3.482, -4.888, -4.144, -0.792, -1.338, 4.488, 0
165156, -2.89, -5.712, -4.601, -1.015, -1.596, 4.403, 0
165176, -2.824, -6.106, -4.345, -1.241, -1.693, 4.603, 0
165196, -2.702, -5.122, -2.975, -0.859, -1.481, 4.899, 0
165216, -1.524, -6.498, -2.655, -0.483, -1.464, 5.072, 0
165236, -0.643, -8.905, -3.057, -0.672, -1.213, 4.775, 0
165256, 0.423, -8.114, -1.848, -0.811, -1.152, 4.501, 0
165276, 0.8, -7.46, -0.755, -0.631, -1.276, 4.397, 0
165296, 1.706, -7.308, -0.161, -0.308, -1.618, 4.241, 0
165316, 2.01, -7.689, -0.692, -0.093, -1.905, 3.968, 0
165336, 1.768, -8.16, -1.524, -0.199, -1.585, 3.618, 0
165356, 1.218, -6.826, -1.095, -0.098, -1.037, 3.644, 0
165376, 1.368, -6.284, -0.728, 0.068, -0.53, 3.721, 0
165396, 2.316, -6.028, 0.383, 0.213, -0.35, 3.622, 0
165416, 3.569, -4.917, 1.182, 0.503, -0.585, 3.233, 0
165436, 2.746, -5.661, 0.016, 0.411, -0.612, 2.608, 0
165456, 1.296, -4.75, -0.23, 0.039, -0.284, 2.126, 0
165476, 1.815, -3.101, 0.39, -0.05, -0.28, 1.82, 0
165496, 1.724, -2.379, 0.125, -0.018, -0.499, 1.585, 0
165516, 0.156, -1.58, 0.028, 0.091, -0.259, 1.732, 0
165536, 0.843, -1.161, -0.186, 0.388, 0.072, 1.652, 0
165556, 2.012, -1.749, -0.786, 0.278, 0.023, 1.424, 0
165576, 1.886, -1.554, -0.56, 0.091, 0.065, 1.185, 0
165596, 2.753, -1.093, -0.19, 0.092, 0.089, 0.957, 0
165616, 2.808, -1.171, -0.7, 0.153, -0.079, 0.671, 0
165636, 1.291, -0.696, -1.079, 0.061, -0.14, 0.408, 0
165656, 0.786, -0.482, -0.897, -0.071, 0.111, 0.372, 0
165676, 1.234, -0.298, -0.632, -0.138, 0.24, 0.287, 0
165696, 1.017, -0.141, -0.486, -0.142, 0.158, 0.114, 0
165716, 0.367, -0.251, -0.25, -0.153, 0.102, -0.022, 0
165736, 0.468, -0.418, -0.094, -0.166, 0.108, -0.145, 0
165756, 0.724, -0.788, -0.051, -0.202, 0.059, -0.351, 0
165776, 0.44, -1.279, -0.361, -0.353, 0.018, -0.494, 0
165796, 0.331, -1.058, -0.564, -0.697, 0.072, -0.488, 0
165816, 0.34, -0.48, -0.406, -0.783, 0.264, -0.45, 1
165836, 0.765, -0.482, -0.142, -0.502, 0.434, -0.383, 1
165856, 0.702, -1.418, -0.554, -0.191, 0.495, -0.474, 1
165876, 1.182, -2.704, -0.815, -0.074, 0.555, -0.787, 1
165896, 1.757, -3.239, -0.68, -0.151, 0.661, -1.296, 1
165916, 1.804, -4.021, -0.318, -0.254, 0.531, -1.842, 1
165936, 1.446, -4.239, 0.201, -0.392, 0.412, -2.254, 1
165956, 1.514, -4.176, 0.232, -0.35, 0.412, -2.676, 1
165976, 0.974, -3.867, -0.432, -0.299, 0.282, -3.166, 1
165996, -0.074, -4.162, -1.061, -0.365, 0.101, -3.693, 1
166016, -1.409, -4.6, -1.127, -0.885, 0.025, -3.769, 1
166036, -2.704, -4.179, -0.486, -1.021, 0.518, -3.693, 1
166056, -2.041, -3.008, 0.23, -0.665, 0.849, -3.684, 1
166076, -1.121, -2.255, -0.42, -0.211, 0.591, -3.843, 1
166096, -1.574, -3.637, -1.409, -0.306, 0.232, -3.997, 1
166116, -3.445, -4.71, -1.875, -0.906, 0.414, -3.81, 1
166136, -3.994, -3.096, -0.885, -0.875, 1.154, -3.539, 1
166156, -2.881, -2.137, -0.145, -0.337, 1.408, -3.302, 1
166176, -2.289, -2.401, -0.909, 0.058, 1.145, -3.368, 1
166196, -2.492, -3.854, -1.86, -0.144, 0.802, -3.616, 1
166216, -3.713, -4.613, -1.958, -0.706, 0.853, -3.459, 1
166236, -4.285, -3.234, -0.924, -0.649, 1.431, -3.19, 1
166256, -3.099, -2.495, -0.168, -0.107, 1.72, -2.904, 1
166276, -2.202, -3.61, -0.606, 0.166, 1.685, -2.966, 1
166296, -1.214, -3.812, -1.403, 0.282, 1.354, -3.529, 1
166316, -1.857, -5.092, -2.708, -0.203, 0.662, -3.91, 1
166336, -3.723, -4.258, -2.743, -0.819, 0.395, -3.613, 1
166356, -5.976, -2.583, -1.743, -0.753, 1.111, -3.017, 1
166376, -5.018, -1.851, -0.831, -0.213, 1.682, -2.407, 1
166396, -3.504, -2.3, -1.489, 0.172, 1.654, -2.384, 1
166416, -3.002, -3.552, -2.495, -0.152, 0.962, -2.429, 1
166436, -4.844, -2.505, -2.461, -0.646, 0.623, -2.059, 1
166456, -5.875, -1.401, -1.777, -0.579, 1.037, -1.543, 1
166476, -4.439, -0.917, -1.014, -0.272, 1.171, -1.051, 1
166496, -3.009, -1.603, -1.016, -0.116, 1.007, -0.856, 1
166516, -1.789, -2.19, -1.307, -0.349, 0.586, -0.793, 1
166536, -1.568, -0.976, -0.907, -0.338, 0.645, -0.651, 1
166556, -0.574, -0.84, -0.944, -0.238, 0.673, -0.524, 1
166576, -0.498, -1.363, -0.89, -0.194, 0.59, -0.486, 1
166596, -1.008, -1.366, -0.495, -0.198, 0.502, -0.512, 1
166616, -1.647, -1.188, 0.003, -0.15, 0.401, -0.496, 1
166636, -2.57, -1.159, 0.178, -0.015, 0.288, -0.449, 1
166656, -2.698, -0.786, 0.543, 0.056, 0.141, -0.255, 1
166676, -2.313, -1.066, 0.137, 0.211, 0.007, -0.02, 1
166696, -1.471, -1.246, -0.689, 0.4, 0.033, 0.002, 1
166716, -0.617, 0.196, -1.184, 0.525, -0.147, 0.007, 1
166736, -1.667, -0.456, -2.211, 0.833, -0.457, -0.063, 1
166756, -4.903, -0.68, -2.551, 0.662, -0.581, 0.156, 0
166776, -7.224, -0.512, -1.92, 0.55, -0.073, 0.938, 0
166796, -7.142, -0.822, -1.371, 0.612, 0.381, 1.781, 0
166816, -6.206, -1.742, -1.699, 0.647, 0.376, 2.406, 0
166836, -5.819, -3.017, -2.312, 0.496, 0.003, 2.61, 0
166856, -5.659, -3.273, -3.066, 0.018, -0.346, 2.781, 0
166876, -5.477, -2.909, -3.679, -0.404, -0.536, 3.04, 0
166896, -5.166, -2.647, -3.915, -0.534, -0.72, 3.473, 0
166916, -4.043, -2.792, -3.539, -0.441, -0.94, 3.898, 0
166936, -3.635, -4.384, -3.585, -0.381, -1.248, 4.126, 0
166956, -3.894, -5.692, -3.643, -0.59, -1.494, 4.309, 0
166976, -2.679, -6.061, -3.22, -0.891, -1.149, 4.361, 0
166996, -1.691, -5.593, -2.204, -0.825, -1.335, 4.556, 0
167016, -1.331, -5.818, -1.574, -0.505, -1.635, 4.769, 0
167036, -1.936, -6.278, -0.844, -0.041, -1.549, 5.129, 0
167056, -1.822, -8.535, -1.467, 0.07, -0.903, 5.154, 0
167076, -0.512, -9.715, -1.332, -0.433, -0.461, 4.727, 0
167096, 0.928, -7.8, 0.133, -0.401, -0.809, 4.492, 0
167116, 0.96, -7.141, 0.554, -0.003, -1.198, 4.235, 0
167136, -0.792, -6.107, 1.312, 0.467, -1.264, 4.294, 0
167156, -1.882, -7.432, 0.756, 0.645, -0.753, 4.428, 0
167176, -0.099, -8.605, -0.2, 0.302, -0.313, 3.995, 0
167196, 1.975, -7.372, -0.329, -0.017, -0.55, 3.494, 0
167216, 1.316, -6.056, 0.291, -0.043, -0.712, 3.098, 0
167236, 0.32, -4.553, 1.431, 0.23, -0.509, 3.012, 0
167256, 1.303, -4.23, 1.223, 0.515, -0.532, 2.951, 0
167276, 1.811, -4.497, -0.52, 0.307, -0.568, 2.491, 0
167296, 1.345, -3.359, -0.863, 0.059, -0.439, 2.203, 0
167316, 1.02, -2.228, 0.059, 0.144, -0.178, 2.147, 0
167336, 2.401, -1.926, 0.337, 0.398, -0.197, 1.976, 0
167356, 3.706, -2.449, -0.474, 0.448, -0.394, 1.52, 0
167376, 3.549, -2.913, -1.491, 0.078, -0.361, 1.045, 0
167396, 2.567, -1.544, -1.355, -0.107, -0.106, 0.825, 0
167416, 2.052, -0.633, -0.767, -0.014, 0.006, 0.698, 0
167436, 1.407, -0.559, -0.642, -0.011, 0.095, 0.668, 0
167456, 2.208, -0.578, -0.676, -0.002, 0.046, 0.53, 0
167476, 2.683, -0.82, -1.137, -0.176, 0.004, 0.147, 0
167496, 0.662, -0.233, -0.847, -0.27, 0.238, 0.028, 0
167516, 0.045, -0.527, -0.642, -0.428, 0.527, 0.091, 0
167536, -0.315, -0.238, -0.656, -0.783, 0.715, 0.209, 0
167556, -0.259, 0.213, 0.081, -0.92, 0.73, 0.323, 1
167576, 0.707, 0.046, 0.576, -0.685, 0.596, 0.277, 1
167596, 1.05, -0.576, 0.356, -0.4, 0.306, 0.082, 1
167616, 1.249, -0.794, -0.213, -0.238, 0.067, -0.174, 1
167636, 0.761, -1.353, -0.702, -0.216, -0.028, -0.48, 1
167656, -0.088, -0.84, -0.458, -0.315, 0.036, -0.82, 1
167676, -0.463, -0.571, -0.104, -0.386, -0.043, -0.889, 1
167696, -0.068, -0.541, -0.119, -0.301, -0.067, -0.848, 1
167716, 0.572, -1.486, -0.439, -0.145, 0.188, -0.731, 1
167736, 1.693, -2.353, -0.724, -0.099, 0.449, -0.943, 1
167756, 2.058, -2.916, -0.783, -0.21, 0.497, -1.35, 1
167776, 1.971, -3.13, -0.606, -0.321, 0.384, -1.914, 1
167796, 0.967, -2.914, -0.265, -0.436, 0.134, -2.399, 1
167816, 0.089, -2.693, 0.104, -0.455, 0.109, -2.631, 1
167836, -0.328, -2.927, 0.288, -0.354, 0.275, -2.605, 1
167856, 0.142, -3.451, -0.094, -0.188, 0.576, -2.546, 1
167876, 0.855, -3.879, -0.821, -0.07, 0.888, -2.725, 1
167896, 0.923, -4.302, -0.948, -0.128, 0.816, -3.145, 1
167916, 0.068, -4.618, -0.661, -0.318, 0.623, -3.407, 1
167936, -0.067, -4.668, -0.516, -0.41, 0.607, -3.587, 1
167956, 0.224, -4.209, -1.215, -0.275, 0.529, -4.258, 1
167976, -1.074, -5.097, -2.026, -0.394, 0.226, -4.677, 1
167996, -2.574, -5.349, -1.926, -0.646, 0.465, -4.809, 1
168016, -3.933, -4.854, -1.101, -0.711, 0.983, -4.492, 1
168036, -3.34, -3.69, -0.572, -0.297, 1.372, -4.189, 1
168056, -2.71, -3.998, -0.804, 0.128, 1.393, -4.177, 1
168076, -2.725, -5.134, -1.31, 0.15, 1.28, -4.241, 1
168096, -3.271, -5.978, -1.547, -0.138, 1.229, -4.184, 1
168116, -3.606, -5.547, -1.182, -0.336, 1.191, -3.93, 1
168136, -3.571, -4.536, -1.225, -0.123, 1.161, -3.929, 1
168156, -3.915, -4.889, -1.365, -0.034, 0.983, -3.835, 1
168176, -4.714, -4.785, -1.173, -0.058, 1.078, -3.597, 1
168196, -4.748, -4.275, -1.278, -0.015, 1.149, -3.269, 1
168216, -4.652, -3.892, -1.768, -0.042, 1.015, -3.034, 1
168236, -4.782, -3.136, -1.953, -0.086, 0.86, -2.758, 1
168256, -5.593, -2.368, -1.758, -0.109, 1.028, -2.27, 1
168276, -5.71, -2.043, -1.528, -0.04, 1.361, -1.683, 1
168296, -4.461, -1.04, -1.186, 0.167, 1.416, -1.243, 1
168316, -3.266, -0.955, -1.197, 0.26, 1.091, -1.01, 1
168336, -2.925, -1.328, -1.892, 0.127, 0.704, -1.02, 1
168356, -2.973, -1.027, -2.223, -0.145, 0.481, -1.042, 1
168376, -3.442, -0.781, -2.122, -0.317, 0.469, -0.854, 1
168396, -3.37, -0.157, -1.498, -0.226, 0.583, -0.569, 1
168416, -3.092, -0.504, -1.069, -0.111, 0.582, -0.322, 1
168436, -2.491, -0.928, -1.063, -0.05, 0.472, -0.253, 1
168456, -1.974, -1.071, -0.892, 0.0, 0.181, -0.327, 1
168476, -2.602, -0.567, -0.921, 0.16, -0.012, -0.337, 1
168496, -3.05, -0.552, -1.046, 0.418, -0.147, -0.193, 1
168516, -2.901, -1.456, -1.529, 0.528, -0.171, 0.034, 1
168536, -2.934, -1.477, -2.034, 0.378, -0.177, 0.221, 1
168556, -4.342, -0.909, -2.042, 0.352, -0.197, 0.31, 0
168576, -6.125, -0.68, -1.621, 0.376, -0.141, 0.771, 0
168596, -7.505, -0.889, -1.055, 0.406, 0.012, 1.536, 0
168616, -7.496, -1.942, -1.601, 0.467, 0.207, 2.277, 0
168636, -6.406, -2.91, -2.451, 0.359, 0.255, 2.703, 0
168656, -5.235, -3.416, -3.459, -0.045, -0.062, 2.979, 0
168676, -5.07, -3.41, -3.809, -0.554, -0.549, 3.125, 0
168696, -5.037, -2.775, -3.13, -0.728, -0.961, 3.335, 0
168716, -4.178, -3.423, -2.672, -0.587, -1.251, 3.728, 0
168736, -3.454, -4.908, -2.981, -0.422, -1.551, 4.169, 0
168756, -2.194, -6.972, -3.789, -0.656, -1.463, 4.177, 0
168776, -1.782, -5.908, -2.851, -1.003, -1.508, 3.988, 0
168796, -2.181, -5.893, -2.065, -0.85, -1.383, 4.221, 0
168816, -1.451, -6.099, -0.998, -0.496, -1.106, 4.635, 0
168836, -0.414, -7.936, -1.005, -0.082, -1.125, 4.897, 0
168856, 0.437, -8.676, -1.85, -0.185, -1.139, 4.552, 0
168876, 0.068, -6.869, -1.034, -0.515, -1.274, 4.092, 0
168896, -0.754, -5.835, -0.262, -0.291, -1.309, 3.966, 0
168916, -2.076, -5.296, 0.265, 0.113, -1.136, 4.178, 0
168936, -2.442, -6.463, 0.496, 0.654, -0.946, 4.708, 0
168956, -0.486, -8.38, -0.376, 0.264, -0.468, 4.235, 0
168976, 1.695, -7.145, -0.83, -0.028, -0.771, 3.676, 0
168996, 0.753, -5.831, -0.597, 0.05, -0.725, 3.483, 0
169016, -0.591, -4.969, 0.714, 0.351, -0.149, 3.552, 0
169036, 0.608, -4.336, 1.427, 0.728, 0.007, 3.64, 0
169056, 1.892, -5.468, 0.077, 0.634, -0.144, 3.177, 0
169076, 2.497, -4.803, -0.348, 0.298, -0.191, 2.596, 0
169096, 1.775, -3.683, 0.614, 0.326, 0.113, 2.342, 0
169116, 3.596, -3.462, 0.768, 0.437, 0.072, 2.038, 0
169136, 4.116, -3.102, 0.464, 0.419, -0.144, 1.56, 0
169156, 2.997, -2.876, -0.015, 0.171, -0.007, 1.065, 0
169176, 1.712, -1.39, 0.091, 0.088, 0.067, 0.897, 0
169196, 2.136, -1.125, 0.032, 0.086, -0.084, 0.766, 0
169216, 2.463, -1.226, -0.6, 0.031, -0.191, 0.586, 0
169236, 1.856, -0.926, -0.92, -0.042, 0.136, 0.422, 0
169256, 1.957, -0.549, -0.601, -0.005, 0.345, 0.287, 0
169276, 1.801, -0.792, -0.503, -0.105, 0.219, 0.048, 0
169296, 0.925, -0.283, -0.376, -0.174, 0.089, -0.111, 0
