timestamp, accX, accY, accZ, gyroX, gyroY, gyroZ, button
294996, -4.878, 1.387, -2.304, 0.582, 0.596, -0.42, 1
295016, -3.487, 0.511, -2.33, 0.158, 0.109, -0.11, 1
295036, -2.925, 0.248, -2.275, -0.183, -0.222, -0.027, 1
295056, -3.058, 0.534, -2.086, -0.245, -0.054, 0.174, 1
295076, -2.174, 0.07, -1.552, -0.22, 0.248, 0.347, 1
295096, -0.365, -0.718, -0.981, -0.288, 0.237, 0.323, 1
295116, 0.662, -0.898, -0.607, -0.286, -0.001, 0.216, 1
295136, 0.76, -0.864, -0.507, -0.229, -0.127, 0.143, 1
295156, 0.36, -0.806, -0.414, -0.163, 0.012, 0.114, 1
295176, 0.305, -0.884, -0.223, -0.166, 0.227, 0.094, 1
295196, 0.573, -0.912, -0.074, -0.166, 0.303, -0.01, 1
295216, 0.419, -0.647, 0.094, -0.109, 0.255, -0.102, 1
295236, -0.014, -0.55, 0.471, -0.141, 0.196, -0.082, 1
295256, -0.347, -0.302, 0.582, -0.111, 0.111, -0.026, 1
295276, -0.32, -0.267, 0.409, -0.049, 0.075, -0.009, 1
295296, -0.418, -0.212, 0.09, 0.005, 0.091, 0.029, 1
295316, -0.267, -0.305, -0.286, 0.057, 0.108, 0.067, 1
295336, -0.215, -0.313, -0.466, 0.023, 0.075, 0.08, 1
295356, -0.174, -0.262, -0.561, -0.072, 0.072, 0.106, 1
295376, -0.113, -0.036, -0.472, -0.136, 0.13, 0.145, 1
295396, -0.015, -0.115, -0.499, -0.097, 0.186, 0.171, 1
295416, 0.024, -0.11, -0.429, -0.08, 0.259, 0.164, 1
295436, 0.112, -0.185, -0.282, -0.125, 0.205, 0.158, 1
295456, 0.008, -0.119, -0.272, -0.191, 0.131, 0.138, 1
295476, -0.081, -0.029, -0.136, -0.189, 0.149, 0.139, 1
295496, 0.029, -0.087, -0.079, -0.138, 0.193, 0.15, 1
295516, 0.004, -0.08, -0.041, -0.131, 0.193, 0.127, 1
295536, 0.023, -0.123, -0.063, -0.132, 0.183, 0.117, 1
295556, 0.086, -0.17, 0.002, -0.138, 0.149, 0.089, 1
295576, -0.033, -0.133, -0.005, -0.14, 0.08, 0.043, 1
295596, -0.059, -0.015, -0.034, -0.144, 0.059, 0.032, 1
295616, -0.173, 0.086, 0.014, -0.076, 0.087, 0.025, 1
295636, -0.091, 0.001, 0.055, -0.005, 0.13, 0.04, 1
295656, -0.015, -0.023, 0.045, -0.013, 0.108, 0.047, 1
295676, -0.028, 0.005, -0.042, -0.048, 0.034, 0.037, 1
295696, -0.269, 0.041, -0.167, -0.055, -0.041, 0.023, 1
295716, -0.466, 0.12, -0.205, -0.01, 0.032, 0.068, 1
295736, -0.205, 0.068, -0.243, 0.023, 0.078, 0.103, 1
295756, 0.073, -0.083, -0.379, -0.017, 0.027, 0.119, 1
295776, 0.142, -0.122, -0.467, -0.121, -0.058, 0.144, 1
295796, 0.008, -0.048, -0.455, -0.153, -0.084, 0.143, 1
295816, 0.008, -0.054, -0.483, -0.151, -0.028, 0.147, 1
295836, -0.024, -0.017, -0.355, -0.133, 0.063, 0.16, 1
295856, 0.054, -0.018, -0.123, -0.061, 0.115, 0.149, 1
295876, 0.425, -0.283, -0.056, -0.072, 0.023, 0.107, 1
295896, 0.349, -0.239, -0.028, -0.144, -0.091, 0.059, 1
295916, -0.011, -0.012, 0.001, -0.112, -0.032, 0.053, 1
295936, -0.065, 0.015, 0.118, -0.047, 0.075, 0.058, 1
295956, 0.005, -0.008, 0.184, -0.006, 0.096, 0.049, 1
295976, -0.026, -0.017, 0.205, 0.037, 0.089, 0.043, 1
295996, -0.024, -0.032, 0.197, 0.067, 0.07, 0.015, 1
296016, 0.001, -0.019, 0.031, 0.039, 0.024, 0.009, 1
296036, -0.05, 0.046, -0.064, 0.054, 0.023, 0.006, 1
296056, -0.099, 0.045, -0.19, 0.078, 0.075, 0.009, 1
296076, 0.011, 0.018, -0.338, 0.075, 0.091, 0.012, 1
296096, -0.007, -0.004, -0.405, 0.058, 0.089, 0.007, 1
296116, -0.028, -0.042, -0.482, 0.031, 0.105, 0.02, 1
296136, 0.034, -0.097, -0.502, -0.017, 0.089, 0.022, 1
296156, -0.042, -0.046, -0.441, -0.072, 0.082, 0.02, 1
296176, -0.105, 0.05, -0.293, -0.073, 0.115, 0.052, 1
296196, 0.015, -0.058, -0.256, -0.073, 0.104, 0.048, 1
296216, -0.025, -0.025, -0.127, -0.084, 0.081, 0.047, 1
296236, -0.024, -0.006, -0.068, -0.088, 0.091, 0.068, 1
296256, -0.01, -0.031, -0.021, -0.095, 0.1, 0.072, 1
296276, -0.016, -0.024, -0.031, -0.09, 0.101, 0.072, 1
296296, 0.004, -0.023, -0.024, -0.084, 0.087, 0.073, 1
296316, -0.011, -0.022, -0.033, -0.07, 0.038, 0.064, 1
296336, -0.132, -0.053, -0.138, -0.066, 0.01, 0.067, 1
296356, -0.301, -0.013, -0.302, -0.058, 0.044, 0.078, 1
296376, -0.214, -0.063, -0.506, -0.055, 0.065, 0.106, 1
296396, -0.111, -0.05, -0.592, -0.122, 0.009, 0.135, 1
296416, -0.089, 0.019, -0.572, -0.17, -0.042, 0.167, 1
296436, 0.023, -0.022, -0.455, -0.175, -0.014, 0.205, 1
296456, 0.305, -0.173, -0.33, -0.193, 0.007, 0.226, 1
296476, 0.396, -0.228, -0.244, -0.217, -0.021, 0.213, 1
296496, 0.401, -0.242, -0.129, -0.21, -0.029, 0.182, 1
296516, 0.31, -0.186, 0.014, -0.195, 0.004, 0.15, 1
296536, 0.321, -0.179, 0.157, -0.177, 0.029, 0.116, 1
296556, 0.187, -0.099, 0.25, -0.156, 0.017, 0.074, 1
296576, 0.045, -0.051, 0.275, -0.116, 0.029, 0.045, 1
296596, -0.005, -0.019, 0.233, -0.09, 0.02, 0.029, 1
296616, -0.031, -0.034, 0.109, -0.061, -0.009, 0.007, 1
296636, -0.112, -0.018, -0.062, -0.05, 0.008, -0.004, 1
296656, -0.048, -0.068, -0.137, -0.043, 0.031, -0.002, 1
296676, -0.083, -0.053, -0.203, -0.036, 0.022, -0.011, 1
296696, -0.136, -0.036, -0.219, -0.041, 0.065, 0.0, 1
296716, -0.021, -0.053, -0.218, -0.075, 0.053, 0.009, 1
296736, 0.005, -0.016, -0.208, -0.081, 0.02, 0.009, 1
296756, -0.033, -0.022, -0.196, -0.067, 0.047, 0.017, 1
296776, 0.019, -0.099, -0.226, -0.076, 0.063, 0.012, 1
296796, 0.014, -0.036, -0.246, -0.083, 0.041, 0.011, 1
296816, -0.077, -0.011, -0.244, -0.073, 0.046, 0.012, 1
296836, -0.122, -0.003, -0.164, -0.077, 0.075, 0.029, 1
296856, -0.06, -0.001, -0.094, -0.076, 0.064, 0.044, 1
296876, -0.007, -0.052, -0.133, -0.108, 0.011, 0.053, 1
296896, -0.063, 0.006, -0.092, -0.123, -0.016, 0.073, 1
296916, -0.065, -0.004, -0.121, -0.098, 0.01, 0.099, 1
296936, -0.004, -0.031, -0.062, -0.08, 0.037, 0.117, 1
296956, 0.053, -0.008, -0.015, -0.065, 0.039, 0.131, 1
296976, 0.177, -0.113, -0.095, -0.083, -0.009, 0.123, 1
296996, 0.035, -0.027, -0.135, -0.106, -0.031, 0.124, 1
297016, 0.008, -0.021, -0.125, -0.115, -0.022, 0.138, 1
297036, -0.003, -0.023, -0.115, -0.116, -0.004, 0.144, 1
297056, 0.139, -0.134, -0.126, -0.117, -0.009, 0.14, 1
297076, 0.113, -0.08, -0.177, -0.12, -0.025, 0.132, 1
297096, 0.002, -0.02, -0.088, -0.1, 0.002, 0.123, 1
297116, -0.065, -0.002, -0.028, -0.093, 0.047, 0.136, 1
297136, 0.052, -0.099, -0.059, -0.122, 0.043, 0.139, 1
297156, 0.126, -0.121, -0.12, -0.153, -0.012, 0.128, 1
297176, 0.024, -0.039, -0.18, -0.164, -0.005, 0.128, 1
297196, -0.018, -0.02, -0.091, -0.131, 0.024, 0.12, 1
297216, 0.015, -0.06, -0.121, -0.089, 0.037, 0.109, 1
297236, 0.01, -0.065, -0.179, -0.114, -0.01, 0.104, 1
297256, -0.147, 0.073, -0.118, -0.111, -0.024, 0.086, 1
297276, -0.106, -0.029, -0.164, -0.045, 0.025, 0.079, 1
297296, -0.006, -0.02, -0.193, -0.031, 0.048, 0.071, 1
297316, -0.006, -0.01, -0.173, -0.05, 0.011, 0.062, 1
297336, -0.033, 0.034, -0.172, -0.059, -0.031, 0.069, 1
297356, -0.129, -0.013, -0.21, -0.059, -0.006, 0.084, 1
297376, -0.012, -0.075, -0.307, -0.078, 0.072, 0.127, 1
297396, 0.092, -0.211, -0.396, -0.126, 0.131, 0.153, 1
297416, 0.128, -0.075, -0.282, -0.207, 0.158, 0.152, 1
297436, 0.036, -0.129, -0.304, -0.186, 0.155, 0.15, 1
297456, -0.112, -0.038, -0.284, -0.204, 0.228, 0.142, 1
297476, -0.119, -0.156, -0.345, -0.226, 0.391, 0.211, 0
297496, 0.14, 0.051, -0.092, -0.377, 0.58, 0.255, 0
297516, 0.51, -0.004, 0.324, -0.317, 0.465, 0.262, 0
297536, 0.008, 0.086, 0.325, -0.25, 0.157, 0.15, 0
297556, -0.236, 0.092, 0.218, -0.172, 0.058, 0.105, 0
297576, -0.095, -0.056, 0.036, -0.087, 0.023, 0.062, 0
297596, -0.329, -0.15, -0.203, -0.123, 0.001, 0.027, 0
297616, -0.158, -0.042, -0.179, -0.182, -0.015, 0.058, 0
297636, -0.327, -0.045, -0.548, -0.24, -0.154, 0.021, 0
297656, -0.793, 0.383, -0.901, -0.306, -0.217, 0.0, 0
297676, -0.851, 0.648, -1.09, -0.277, -0.269, -0.01, 0
297696, -0.919, 0.621, -1.311, -0.288, -0.266, 0.04, 0
297716, -0.857, 0.628, -1.544, -0.309, -0.229, 0.072, 0
297736, -0.978, 0.745, -1.958, -0.397, -0.258, 0.113, 0
297756, -1.033, 0.893, -2.213, -0.569, -0.413, 0.151, 0
297776, -2.001, 1.456, -2.271, -0.715, -0.531, 0.268, 0
297796, -3.813, 2.223, -2.238, -0.795, -0.478, 0.536, 0
297816, -5.238, 2.697, -1.702, -0.882, -0.395, 0.957, 0
297836, -5.925, 2.444, -0.919, -0.973, -0.323, 1.459, 0
297856, -5.62, 1.766, -0.31, -1.032, -0.364, 1.929, 0
297876, -5.134, 0.849, -0.226, -1.153, -0.571, 2.336, 0
297896, -5.177, 0.192, -0.351, -1.239, -0.748, 2.709, 0
297916, -5.804, -0.319, -0.351, -1.196, -0.689, 3.171, 0
297936, -5.612, -0.898, 0.16, -0.994, -0.54, 3.626, 0
297956, -4.412, -2.67, 0.176, -1.019, -0.638, 3.906, 0
297976, -3.442, -2.932, 0.405, -0.879, -0.964, 4.121, 0
297996, -3.505, -3.977, -0.165, -0.631, -0.932, 4.314, 0
298016, -2.825, -5.105, -0.1, -0.409, -0.652, 4.423, 0
298036, -1.344, -6.549, -0.267, -0.326, -0.632, 4.335, 0
298056, -0.728, -7.715, -1.329, -0.408, -0.415, 4.092, 0
298076, -0.291, -7.311, -1.058, -0.031, 0.197, 4.05, 0
298096, 2.654, -8.96, -0.848, 0.314, 0.345, 3.83, 0
298116, 5.946, -9.778, -1.009, 0.345, -0.237, 3.086, 0
298136, 5.973, -9.01, -1.565, 0.182, -0.684, 2.198, 0
298156, 4.603, -6.98, -1.787, 0.058, -0.561, 1.384, 0
298176, 3.239, -4.508, -1.76, -0.03, -0.558, 0.969, 0
298196, 2.237, -3.38, -1.32, -0.118, -0.405, 0.745, 0
298216, 1.682, -2.951, -0.574, -0.174, -0.171, 0.609, 0
298236, 1.515, -2.373, 0.105, -0.171, 0.064, 0.502, 0
298256, 1.203, -1.952, 0.165, -0.16, 0.094, 0.372, 0
298276, 0.864, -1.484, 0.185, -0.163, 0.115, 0.282, 0
298296, 0.738, -1.315, 0.187, -0.126, 0.116, 0.176, 0
298316, 0.467, -1.001, 0.022, -0.139, 0.115, 0.082, 0
298336, 0.032, -0.574, -0.3, -0.142, 0.103, 0.011, 0
298356, -0.266, -0.368, -0.233, -0.183, 0.139, 0.031, 0
298376, -0.11, -0.514, 0.193, -0.153, 0.214, 0.088, 0
298396, 0.634, -0.783, 0.536, -0.094, 0.226, 0.064, 0
298416, 0.844, -0.886, 0.662, 0.12, -0.027, -0.083, 0
298436, -0.199, -0.996, -0.272, 0.344, -0.145, -0.383, 0
298456, -0.955, -0.851, -1.085, 0.131, -0.036, -0.345, 1
298476, -1.182, -0.065, -0.568, -0.202, 0.207, -0.21, 1
298496, -0.132, -0.559, -0.265, -0.304, 0.225, -0.107, 1
298516, 0.897, -1.157, -0.297, -0.386, 0.051, -0.185, 1
298536, 1.213, -1.802, -0.526, -0.315, -0.077, -0.398, 1
298556, 1.363, -2.161, -0.93, -0.274, -0.028, -0.692, 1
298576, 1.33, -1.884, -0.874, -0.282, 0.004, -0.926, 1
298596, 1.438, -1.94, -0.602, -0.292, -0.086, -1.133, 1
298616, 1.414, -2.278, -0.464, -0.321, -0.182, -1.348, 1
298636, 1.672, -2.617, -0.718, -0.233, -0.039, -1.612, 1
298656, 1.696, -2.94, -1.002, -0.244, -0.013, -1.817, 1
298676, 1.322, -3.173, -0.902, -0.304, -0.047, -1.961, 1
298696, 1.828, -4.119, -1.059, -0.386, -0.193, -2.137, 1
298716, 2.449, -5.14, -1.317, -0.461, -0.293, -2.409, 1
298736, 2.314, -5.121, -0.891, -0.451, -0.133, -2.864, 1
298756, 1.894, -4.91, -0.418, -0.285, -0.02, -3.272, 1
298776, 0.824, -5.035, 0.069, -0.255, 0.021, -3.574, 1
298796, -0.758, -3.86, 0.45, -0.246, 0.017, -3.649, 1
298816, -1.814, -3.412, 0.306, -0.131, -0.009, -3.633, 1
298836, -2.571, -3.46, 0.219, -0.109, 0.15, -3.633, 1
298856, -3.704, -2.985, 0.735, -0.132, 0.508, -3.56, 1
298876, -4.155, -2.047, 1.425, 0.014, 0.827, -3.424, 1
298896, -4.439, -1.388, 1.291, 0.27, 0.709, -3.29, 1
298916, -4.777, -1.401, 0.189, 0.391, 0.324, -3.125, 1
298936, -6.163, -0.756, -0.297, 0.205, 0.332, -2.948, 1
298956, -6.963, -0.009, -0.316, 0.059, 0.712, -2.493, 1
298976, -6.253, 0.451, 0.104, 0.116, 1.041, -1.998, 1
298996, -4.918, 0.474, 0.606, 0.238, 0.983, -1.735, 1
299016, -4.388, 0.528, 0.814, 0.379, 0.731, -1.563, 1
299036, -4.083, 0.418, 0.554, 0.499, 0.568, -1.386, 1
299056, -3.941, 0.029, 0.228, 0.363, 0.484, -1.114, 1
299076, -3.135, -0.526, -0.127, 0.108, 0.351, -0.879, 1
299096, -2.527, -0.415, -0.342, 0.059, 0.186, -0.792, 1
299116, -3.181, 0.311, -0.401, 0.306, 0.284, -0.64, 1
299136, -3.305, 0.286, -1.094, 0.521, 0.599, -0.401, 1
299156, -2.133, -0.342, -1.005, 0.351, 0.596, -0.21, 1
299176, -1.818, -0.179, -0.702, 0.142, 0.45, -0.042, 1
299196, -1.321, -0.207, -0.376, 0.077, 0.244, 0.075, 1
299216, -1.065, -0.373, -0.521, 0.095, 0.084, 0.115, 1
299236, -0.604, -0.541, -0.767, 0.1, 0.062, 0.194, 1
299256, -0.07, -0.798, -0.863, -0.025, 0.074, 0.259, 1
299276, 0.558, -1.073, -1.002, -0.216, 0.007, 0.263, 1
299296, 0.623, -0.772, -0.923, -0.395, -0.119, 0.219, 1
299316, 0.116, -0.291, -0.521, -0.353, -0.116, 0.177, 1
299336, 0.145, -0.474, -0.385, -0.222, 0.081, 0.164, 1
299356, 0.432, -0.598, -0.138, -0.167, 0.212, 0.172, 1
299376, 0.504, -0.735, -0.038, -0.15, 0.18, 0.117, 1
299396, 0.167, -0.613, 0.038, -0.194, 0.137, 0.073, 1
299416, 0.118, -0.526, 0.094, -0.219, 0.131, 0.086, 1
299436, -0.096, -0.418, 0.126, -0.265, 0.078, 0.086, 1
299456, -0.296, -0.258, 0.298, -0.23, 0.097, 0.062, 1
299476, -0.258, -0.334, 0.262, -0.12, 0.161, 0.068, 1
299496, 0.066, -0.539, -0.01, -0.024, 0.163, 0.055, 1
299516, -0.038, -0.624, -0.257, -0.07, 0.083, 0.083, 1
299536, -0.469, -0.483, -0.523, -0.233, 0.093, 0.083, 1
299556, -0.601, -0.095, -0.43, -0.235, 0.251, 0.133, 1
299576, -0.309, -0.059, -0.428, -0.112, 0.446, 0.141, 1
299596, 0.153, -0.125, -0.208, -0.009, 0.452, 0.145, 0
299616, -0.074, -0.102, -0.025, 0.012, 0.128, 0.128, 0
299636, -0.8, -0.108, -0.147, -0.117, 0.114, 0.276, 0
299656, -1.087, 0.104, -0.155, -0.235, 0.265, 0.434, 0
299676, -0.786, 0.14, -0.106, -0.28, 0.248, 0.48, 0
299696, -0.199, -0.187, -0.342, -0.465, -0.049, 0.492, 0
299716, -0.758, 0.228, -0.484, -0.506, -0.194, 0.483, 0
299736, -1.448, 0.779, -0.586, -0.354, -0.127, 0.567, 0
299756, -1.392, 0.883, -0.558, -0.249, -0.112, 0.668, 0
299776, -1.629, 0.981, -0.472, -0.18, -0.191, 0.747, 0
299796, -2.465, 1.146, -0.566, -0.253, -0.208, 0.893, 0
299816, -3.325, 1.576, -0.273, -0.321, -0.255, 1.135, 0
299836, -4.056, 1.698, 0.045, -0.36, -0.303, 1.486, 0
299856, -4.311, 1.526, 0.183, -0.368, -0.422, 1.828, 0
299876, -4.527, 0.955, -0.113, -0.494, -0.656, 2.106, 0
299896, -5.247, 0.814, -0.638, -0.611, -0.761, 2.418, 0
299916, -5.606, 0.472, -0.899, -0.593, -0.759, 2.838, 0
299936, -5.304, -0.153, -1.065, -0.559, -0.841, 3.206, 0
299956, -5.087, -0.72, -1.203, -0.478, -1.026, 3.521, 0
299976, -5.05, -2.546, -2.406, -0.775, -0.853, 3.777, 0
299996, -4.476, -2.666, -2.042, -0.802, -0.587, 4.125, 0
300016, -3.087, -3.609, -1.964, -0.472, -0.472, 4.341, 0
300036, -2.292, -5.08, -2.447, -0.176, -0.14, 4.549, 0
300056, -0.682, -6.98, -2.193, -0.179, 0.186, 4.447, 0
300076, 0.175, -7.331, -1.52, -0.346, 0.313, 4.209, 0
300096, 1.319, -7.737, -0.733, -0.339, 0.232, 3.814, 0
300116, 3.917, -8.093, 0.389, 0.047, 0.216, 3.502, 0
300136, 5.324, -8.64, -0.111, 0.301, 0.174, 2.907, 0
300156, 5.979, -7.89, -0.578, 0.248, -0.033, 2.183, 0
300176, 5.097, -6.239, -1.092, 0.031, -0.458, 1.42, 0
300196, 3.179, -4.467, -1.149, -0.119, -0.643, 0.894, 0
300216, 1.997, -3.081, -0.679, -0.132, -0.437, 0.657, 0
300236, 1.779, -2.712, -0.321, -0.086, -0.163, 0.574, 0
300256, 1.826, -2.339, 0.107, -0.136, -0.106, 0.449, 0
300276, 0.867, -1.723, 0.002, -0.122, -0.106, 0.288, 0
300296, 0.559, -1.425, -0.114, -0.106, 0.121, 0.29, 0
300316, 0.87, -1.259, 0.062, -0.124, 0.193, 0.265, 0
300336, 0.469, -0.85, 0.174, -0.142, 0.051, 0.198, 0
300356, 0.091, -0.414, 0.442, 0.011, 0.018, 0.179, 1
300376, -0.085, -0.376, 0.301, 0.141, 0.107, 0.207, 1
300396, -0.106, -1.049, -0.219, 0.121, 0.021, 0.238, 1
300416, -0.428, -0.557, -0.367, -0.203, 0.078, 0.139, 1
300436, -0.03, -0.135, 0.359, -0.147, 0.107, 0.15, 1
300456, 0.178, -0.666, 0.222, 0.094, 0.032, 0.038, 1
300476, -0.034, -0.731, -0.024, 0.106, -0.045, -0.034, 1
300496, -0.483, -0.548, -0.478, 0.019, -0.135, -0.122, 1
300516, -0.979, -0.084, -0.779, -0.114, -0.172, -0.095, 1
300536, -1.188, 0.156, -0.716, -0.122, -0.04, -0.007, 1
300556, -0.694, 0.025, -0.408, -0.053, 0.155, 0.085, 1
300576, 0.028, -0.452, -0.188, -0.004, 0.158, 0.101, 1
300596, 0.485, -0.847, -0.197, -0.105, -0.106, -0.057, 1
300616, 0.528, -0.675, -0.255, -0.081, -0.16, -0.152, 1
300636, 0.591, -0.662, -0.486, -0.036, -0.193, -0.215, 1
300656, 0.656, -0.753, -0.768, -0.07, -0.171, -0.284, 1
300676, 1.138, -1.061, -1.096, -0.09, -0.072, -0.348, 1
300696, 2.201, -2.029, -1.497, -0.162, -0.055, -0.557, 1
300716, 2.876, -2.834, -1.882, -0.251, -0.04, -0.857, 1
300736, 3.373, -3.595, -1.909, -0.335, -0.003, -1.182, 1
300756, 4.398, -4.8, -1.755, -0.492, -0.123, -1.624, 1
300776, 5.044, -6.072, -1.49, -0.744, -0.371, -2.227, 1
300796, 4.339, -6.057, -1.275, -0.798, -0.503, -2.758, 1
300816, 2.35, -5.743, -1.498, -0.713, -0.351, -3.086, 1
300836, 0.825, -5.716, -1.499, -0.742, 0.033, -3.304, 1
300856, 0.444, -5.646, -1.142, -0.767, 0.309, -3.437, 1
300876, 0.114, -6.037, -0.764, -0.913, 0.343, -3.675, 1
300896, -0.893, -5.401, 0.32, -1.048, 0.286, -3.89, 1
300916, -2.677, -4.178, 1.009, -0.857, 0.329, -3.954, 1
300936, -4.284, -3.278, 1.262, -0.557, 0.665, -3.864, 1
300956, -4.141, -2.962, 1.4, -0.38, 0.711, -3.712, 1
300976, -4.423, -2.69, 1.25, -0.387, 0.538, -3.629, 1
300996, -5.378, -1.891, 1.267, -0.454, 0.469, -3.486, 1
301016, -6.049, -1.246, 1.392, -0.331, 0.618, -3.186, 1
301036, -5.834, -0.91, 1.474, -0.034, 0.842, -2.852, 1
301056, -5.328, -0.522, 1.548, 0.262, 0.962, -2.618, 1
301076, -4.832, -0.41, 1.528, 0.386, 0.831, -2.329, 1
301096, -4.816, 0.091, 0.983, 0.422, 0.662, -2.09, 1
301116, -4.841, 0.387, 0.437, 0.553, 0.416, -1.885, 1
301136, -4.957, 0.672, -0.104, 0.732, 0.329, -1.629, 1
301156, -4.861, 0.772, -0.759, 0.822, 0.436, -1.291, 1
301176, -4.398, 0.63, -1.22, 0.729, 0.572, -0.897, 1
301196, -3.757, 0.64, -1.095, 0.516, 0.535, -0.581, 1
301216, -3.23, 0.601, -0.96, 0.28, 0.302, -0.332, 1
301236, -2.662, 0.388, -1.014, 0.122, 0.147, -0.094, 1
301256, -1.812, 0.058, -1.078, 0.102, 0.085, 0.099, 1
301276, -0.928, -0.383, -1.171, 0.117, 0.051, 0.199, 1
301296, -0.478, -0.5, -0.961, 0.083, 0.062, 0.238, 1
301316, -0.132, -0.557, -0.577, 0.073, 0.136, 0.276, 1
301336, 0.435, -0.808, -0.316, 0.041, 0.155, 0.32, 1
301356, 1.024, -1.213, -0.307, -0.017, -0.001, 0.263, 1
301376, 0.738, -1.054, -0.373, -0.075, -0.095, 0.182, 1
301396, 0.471, -0.966, -0.481, -0.027, 0.102, 0.135, 1
301416, 0.555, -1.047, -0.433, 0.011, 0.36, 0.125, 1
301436, 0.689, -0.948, -0.13, -0.083, 0.503, 0.149, 1
301456, 0.641, -0.648, 0.205, -0.114, 0.39, 0.136, 1
301476, 0.098, -0.451, 0.375, -0.1, 0.171, 0.133, 0
301496, -0.161, -0.56, 0.118, -0.069, 0.116, 0.121, 0
301516, -0.221, -0.671, 0.06, -0.081, 0.25, 0.156, 0
301536, -0.024, -0.781, -0.073, -0.196, 0.309, 0.133, 0
301556, 0.034, -0.336, 0.034, -0.277, 0.279, 0.083, 0
301576, -0.166, -0.291, -0.074, -0.297, 0.1, 0.103, 0
301596, -0.481, -0.136, -0.263, -0.334, 0.081, 0.109, 0
301616, -0.423, -0.106, -0.355, -0.356, 0.072, 0.138, 0
301636, -0.236, -0.202, -0.423, -0.347, 0.001, 0.119, 0
301656, -0.379, -0.041, -0.445, -0.222, 0.05, 0.13, 0
301676, -0.48, 0.058, -0.415, -0.084, 0.145, 0.144, 0
301696, -0.881, 0.138, -0.534, -0.072, 0.106, 0.193, 0
301716, -1.235, 0.232, -0.565, -0.25, -0.054, 0.293, 0
301736, -2.222, 0.795, -0.308, -0.28, -0.144, 0.432, 0
301756, -3.815, 1.444, -0.184, -0.202, -0.064, 0.674, 0
301776, -5.172, 1.876, -0.015, -0.215, 0.103, 1.038, 0
301796, -5.853, 2.17, 0.449, -0.197, 0.158, 1.477, 0
301816, -5.846, 1.83, 0.445, -0.235, -0.043, 1.883, 0
301836, -5.972, 1.452, -0.138, -0.422, -0.421, 2.274, 0
301856, -6.445, 1.164, -0.594, -0.5, -0.549, 2.725, 0
301876, -6.531, 0.478, -0.894, -0.404, -0.42, 3.172, 0
301896, -6.157, -0.431, -1.071, -0.246, -0.214, 3.615, 0
301916, -5.481, -1.473, -1.068, -0.136, -0.15, 3.972, 0
301936, -3.667, -3.132, -1.187, -0.392, -0.532, 4.126, 0
301956, -3.171, -3.943, -1.531, -0.806, -0.848, 4.129, 0
301976, -3.216, -3.667, -1.573, -0.739, -0.703, 4.249, 0
301996, -2.976, -3.603, -1.169, -0.268, -0.255, 4.439, 0
302016, -1.329, -4.917, -1.028, 0.108, 0.056, 4.488, 0
302036, 0.424, -6.527, -1.358, -0.047, 0.032, 4.245, 0
302056, 1.181, -6.944, -1.006, -0.384, -0.075, 3.761, 0
302076, 1.277, -5.795, 0.369, -0.04, 0.373, 3.684, 0
302096, 3.81, -7.096, 0.889, 0.37, 0.474, 3.517, 0
302116, 5.054, -7.723, 0.567, 0.409, -0.117, 2.938, 0
302136, 3.844, -6.555, -0.246, 0.259, -0.621, 2.257, 0
302156, 3.281, -5.341, -0.756, 0.295, -0.472, 1.836, 0
302176, 3.679, -5.181, -1.162, 0.304, -0.352, 1.483, 0
302196, 3.465, -4.352, -1.138, 0.085, -0.429, 1.05, 0
302216, 2.786, -3.371, -0.7, -0.016, -0.373, 0.725, 0
302236, 2.019, -2.553, -0.491, -0.031, -0.207, 0.486, 0
302256, 1.12, -1.694, -0.49, -0.039, -0.019, 0.367, 0
302276, 0.665, -1.047, -0.329, -0.056, 0.234, 0.346, 0
302296, 0.797, -0.923, 0.027, -0.075, 0.378, 0.34, 0
302316, 0.961, -0.911, 0.292, -0.095, 0.297, 0.262, 0
302336, 0.704, -0.654, 0.207, -0.084, 0.171, 0.121, 0
302356, 0.099, -0.353, -0.071, -0.07, 0.107, 0.04, 0
302376, -0.204, -0.178, -0.081, -0.076, 0.119, 0.025, 0
302396, -0.181, -0.093, -0.094, -0.102, 0.144, 0.047, 0
302416, -0.18, -0.002, -0.143, -0.119, 0.136, 0.058, 0
302436, 0.113, -0.353, -0.02, -0.092, 0.059, 0.037, 0
302456, 0.111, -0.525, -0.247, -0.156, -0.038, -0.028, 1
302476, -0.648, -0.192, -0.703, -0.272, -0.048, -0.069, 1
302496, -1.02, 0.037, -0.424, -0.323, 0.091, 0.005, 1
302516, -0.279, 0.166, 0.114, -0.266, 0.143, 0.032, 1
302536, -0.287, -0.083, 0.091, -0.103, -0.037, -0.038, 1
302556, -0.482, -0.161, -0.005, -0.041, 0.021, -0.057, 1
302576, -0.205, -0.201, 0.036, -0.024, 0.075, -0.076, 1
302596, 0.189, -0.415, -0.091, -0.079, -0.043, -0.102, 1
302616, 0.298, -0.404, -0.268, -0.119, -0.164, -0.163, 1
302636, 0.452, -0.588, -0.662, -0.115, -0.127, -0.19, 1
302656, 1.002, -1.151, -0.904, -0.162, -0.073, -0.288, 1
302676, 1.679, -1.711, -0.935, -0.26, -0.122, -0.465, 1
302696, 2.45, -2.593, -0.939, -0.368, -0.197, -0.7, 1
302716, 3.806, -4.111, -0.84, -0.561, -0.39, -1.115, 1
302736, 4.193, -4.819, -0.39, -0.702, -0.572, -1.62, 1
302756, 4.232, -5.27, 0.009, -0.675, -0.616, -2.098, 1
302776, 4.519, -6.069, -0.01, -0.613, -0.662, -2.648, 1
302796, 4.293, -6.761, -0.399, -0.722, -0.802, -3.238, 1
302816, 3.188, -6.939, -0.348, -0.879, -0.896, -3.635, 1
302836, 1.107, -5.862, -0.358, -0.888, -0.692, -3.832, 1
302856, -0.993, -4.125, -0.142, -0.676, -0.118, -3.843, 1
302876, -1.857, -3.057, 0.034, -0.35, 0.312, -3.74, 1
302896, -2.099, -3.186, 0.237, -0.257, 0.422, -3.701, 1
302916, -2.651, -2.98, 0.579, -0.359, 0.407, -3.662, 1
302936, -3.241, -2.297, 1.015, -0.505, 0.351, -3.575, 1
302956, -4.324, -1.254, 1.161, -0.346, 0.437, -3.422, 1
302976, -4.938, -0.625, 1.287, -0.083, 0.677, -3.227, 1
302996, -5.192, -0.193, 1.392, 0.156, 0.905, -2.976, 1
303016, -5.069, -0.05, 1.175, 0.339, 1.063, -2.596, 1
303036, -4.619, -0.159, 0.395, 0.374, 0.923, -2.397, 1
303056, -4.879, 0.497, 0.568, 0.367, 0.747, -2.193, 1
303076, -5.002, 0.721, 0.537, 0.515, 0.715, -1.927, 1
303096, -4.653, 0.443, 0.057, 0.677, 0.642, -1.652, 1
303116, -4.483, 0.326, -0.773, 0.718, 0.444, -1.44, 1
303136, -4.727, 0.451, -1.512, 0.729, 0.355, -1.24, 1
303156, -4.78, 0.848, -1.797, 0.696, 0.53, -0.97, 1
303176, -3.831, 0.894, -1.517, 0.781, 0.74, -0.624, 1
303196, -2.695, 0.696, -1.103, 0.938, 0.72, -0.403, 1
303216, -1.431, -0.304, -1.03, 0.882, 0.475, -0.235, 1
303236, -1.007, -0.599, -0.767, 0.457, 0.095, -0.165, 1
303256, -0.901, -0.193, -0.36, 0.155, -0.115, -0.068, 1
303276, -0.308, -0.416, -0.33, 0.164, -0.122, 0.02, 1
303296, 0.316, -0.745, -0.434, 0.163, -0.06, 0.044, 1
303316, 0.518, -0.863, -0.514, 0.074, 0.043, 0.035, 1
303336, 0.352, -0.436, -0.343, -0.045, 0.171, 0.017, 1
303356, 0.341, -0.403, -0.22, -0.087, 0.27, 0.042, 1
303376, 0.609, -0.465, -0.137, -0.177, 0.205, 0.033, 1
303396, 0.217, -0.265, -0.098, -0.232, 0.065, -0.012, 1
303416, 0.004, -0.199, -0.096, -0.18, 0.054, -0.007, 1
303436, -0.225, -0.102, -0.051, -0.157, 0.18, -0.026, 1
303456, -0.084, -0.151, 0.052, -0.158, 0.334, 0.007, 1
303476, 0.197, -0.311, 0.241, -0.211, 0.315, -0.004, 1
303496, -0.055, -0.204, 0.166, -0.328, 0.239, -0.037, 1
303516, -0.066, -0.252, -0.178, -0.367, 0.346, -0.034, 0
303536, -0.279, -0.145, -0.429, -0.332, 0.522, 0.009, 0
303556, 0.035, 0.04, 0.027, -0.177, 0.497, 0.015, 0
303576, 0.065, -0.154, -0.043, -0.189, 0.28, 0.009, 0
303596, -0.314, 0.126, 0.121, -0.22, 0.125, 0.02, 0
303616, -0.816, 0.131, 0.059, -0.23, 0.149, 0.092, 0
303636, -0.749, -0.032, -0.129, -0.302, 0.208, 0.141, 0
303656, -0.639, 0.164, -0.093, -0.244, 0.159, 0.194, 0
303676, -0.669, 0.24, -0.335, -0.132, 0.02, 0.244, 0
303696, -1.033, 0.337, -0.719, -0.135, -0.13, 0.32, 0
303716, -1.574, 0.337, -1.045, -0.25, -0.127, 0.439, 0
303736, -2.086, 0.63, -0.928, -0.31, 0.004, 0.609, 0
303756, -2.523, 0.809, -0.467, -0.356, 0.144, 0.788, 0
303776, -3.417, 1.417, 0.135, -0.28, 0.285, 1.003, 0
303796, -4.065, 1.612, 0.483, -0.209, 0.291, 1.282, 0
303816, -4.261, 1.224, 0.549, -0.323, 0.109, 1.594, 0
303836, -4.307, 0.679, 0.25, -0.515, -0.196, 1.912, 0
303856, -4.573, 0.599, -0.067, -0.593, -0.402, 2.222, 0
303876, -4.949, 0.522, -0.188, -0.472, -0.373, 2.558, 0
303896, -4.839, -0.077, -0.283, -0.325, -0.233, 2.888, 0
303916, -4.116, -1.348, -0.778, -0.316, -0.236, 3.133, 0
303936, -2.663, -2.51, -1.682, -0.441, -0.572, 3.294, 0
303956, -2.778, -2.812, -2.653, -0.602, -0.668, 3.372, 0
303976, -3.419, -2.738, -2.615, -0.648, -0.233, 3.525, 0
303996, -2.877, -2.787, -1.86, -0.461, 0.164, 3.789, 0
304016, -0.932, -4.49, -1.755, -0.642, 0.014, 3.772, 0
304036, -0.919, -4.173, -1.283, -0.714, -0.043, 3.792, 0
304056, -1.162, -4.156, -0.702, -0.402, 0.246, 3.83, 0
304076, 0.008, -5.145, 0.088, -0.072, 0.66, 3.918, 0
304096, 1.325, -6.224, 0.822, 0.073, 0.737, 3.787, 0
304116, 1.865, -6.319, 0.946, -0.01, 0.561, 3.468, 0
304136, 2.38, -6.549, 0.929, -0.018, 0.462, 3.194, 0
304156, 3.582, -6.538, 1.635, 0.043, 0.363, 2.88, 0
304176, 4.582, -6.408, 2.077, 0.309, 0.107, 2.4, 0
304196, 4.426, -5.874, 1.203, 0.368, -0.31, 1.815, 0
304216, 3.456, -4.727, -0.072, 0.234, -0.642, 1.294, 0
304236, 2.264, -3.507, -0.7, 0.003, -0.619, 0.966, 0
304256, 1.72, -2.475, -0.629, 0.013, -0.244, 0.827, 0
304276, 2.092, -2.56, -0.434, 0.102, 0.088, 0.718, 0
304296, 2.378, -2.541, -0.236, 0.073, 0.2, 0.51, 0
304316, 1.447, -1.757, -0.47, -0.039, 0.114, 0.255, 0
304336, 0.483, -0.67, -0.317, -0.102, 0.205, 0.191, 0
304356, 0.58, -0.584, -0.12, -0.053, 0.34, 0.212, 0
304376, 0.671, -0.45, -0.211, -0.049, 0.289, 0.161, 0
304396, 0.095, -0.278, -0.68, -0.064, 0.199, 0.079, 0
304416, -0.082, -0.087, -0.52, -0.116, 0.241, 0.048, 0
304436, -0.016, -0.312, -0.293, -0.075, 0.238, 0.025, 0
304456, 0.104, -0.368, -0.196, -0.109, 0.136, 0.0, 0
304476, -0.286, -0.261, -0.512, -0.222, 0.048, -0.031, 1
304496, -0.35, -0.073, -0.878, -0.413, 0.198, 0.016, 1
304516, -0.686, 0.076, -0.435, -0.376, 0.293, 0.032, 1
304536, -0.119, -0.032, 0.06, -0.192, 0.166, -0.038, 1
304556, 0.108, -0.319, 0.131, -0.092, 0.006, -0.149, 1
304576, 0.02, -0.454, -0.162, -0.094, -0.06, -0.204, 1
304596, -0.182, -0.386, -0.288, -0.138, -0.036, -0.23, 1
304616, -0.067, -0.164, -0.16, -0.117, -0.047, -0.23, 1
304636, -0.088, -0.053, -0.247, -0.072, -0.054, -0.221, 1
304656, 0.187, -0.29, -0.273, -0.082, -0.032, -0.236, 1
304676, 0.677, -0.862, -0.352, -0.144, -0.043, -0.337, 1
304696, 0.913, -1.177, -0.511, -0.219, -0.073, -0.491, 1
304716, 1.201, -1.551, -0.562, -0.291, -0.119, -0.688, 1
304736, 1.4, -1.691, -0.497, -0.366, -0.161, -0.835, 1
304756, 1.526, -1.557, -0.616, -0.38, -0.285, -1.004, 1
304776, 1.84, -2.455, -1.145, -0.51, -0.415, -1.239, 1
304796, 2.547, -3.769, -1.622, -0.807, -0.497, -1.513, 1
304816, 2.953, -4.273, -1.175, -0.99, -0.495, -1.894, 1
304836, 2.957, -4.265, -0.308, -0.905, -0.405, -2.294, 1
304856, 2.624, -4.084, -0.004, -0.671, -0.367, -2.745, 1
304876, 2.34, -4.699, -0.618, -0.582, -0.437, -3.033, 1
304896, 1.507, -5.156, -1.014, -0.79, -0.441, -3.271, 1
304916, 0.43, -4.695, -0.568, -0.993, -0.188, -3.477, 1
304936, -0.707, -3.602, 0.695, -0.862, 0.172, -3.585, 1
304956, -1.594, -3.037, 1.187, -0.495, 0.414, -3.68, 1
304976, -2.281, -2.81, 1.073, -0.211, 0.399, -3.657, 1
304996, -4.409, -1.979, 1.66, -0.372, 0.508, -3.612, 1
305016, -4.258, -1.471, 2.208, -0.367, 0.681, -3.439, 1
305036, -4.356, -1.43, 1.776, -0.127, 0.618, -3.338, 1
305056, -5.914, -0.401, 1.057, 0.092, 0.503, -3.197, 1
305076, -6.856, 0.614, 0.633, 0.269, 0.748, -2.836, 1
305096, -5.821, 0.251, 0.275, 0.394, 0.966, -2.376, 1
305116, -4.814, 0.097, 0.12, 0.321, 0.935, -2.07, 1
305136, -4.706, 0.436, 0.27, 0.236, 0.689, -1.832, 1
305156, -4.777, 0.693, 0.155, 0.294, 0.59, -1.607, 1
305176, -4.631, 0.728, -0.041, 0.429, 0.631, -1.381, 1
305196, -3.983, 0.333, -0.393, 0.519, 0.633, -1.142, 1
305216, -3.429, 0.093, -0.83, 0.397, 0.459, -0.901, 1
305236, -3.184, 0.204, -1.011, 0.211, 0.248, -0.708, 1
305256, -3.242, 0.527, -0.884, 0.147, 0.16, -0.549, 1
305276, -2.662, 0.041, -0.987, 0.215, 0.234, -0.365, 1
305296, -2.16, -0.149, -0.804, 0.194, 0.318, -0.241, 1
305316, -1.667, -0.051, -0.368, 0.155, 0.346, -0.111, 1
305336, -0.899, -0.382, -0.272, 0.169, 0.241, -0.015, 1
305356, -0.508, -0.641, -0.472, 0.047, 0.023, -0.007, 1
305376, -0.487, -0.303, -0.367, -0.064, -0.033, -0.005, 1
305396, -0.058, -0.203, -0.19, 0.096, 0.01, 0.017, 1
305416, 0.153, -0.204, -0.153, 0.324, 0.021, -0.002, 1
305436, 0.102, -0.323, -0.361, 0.472, 0.041, -0.044, 1
305456, 0.26, -0.578, -0.503, 0.395, 0.076, 0.009, 1
305476, 0.24, -0.38, -0.298, 0.128, -0.004, 0.014, 1
305496, -0.069, -0.281, -0.147, 0.023, 0.037, 0.004, 1
305516, -0.156, -0.177, -0.171, 0.034, 0.246, 0.045, 1
305536, -0.026, -0.224, -0.18, 0.057, 0.382, 0.113, 1
305556, 0.435, -0.413, -0.093, -0.01, 0.246, 0.097, 1
305576, 0.447, -0.478, -0.078, -0.109, 0.054, 0.026, 0
305596, -0.29, -0.254, 0.056, -0.113, 0.02, -0.043, 0
305616, -0.502, 0.131, 0.102, 0.069, 0.211, -0.018, 0
305636, -0.547, 0.112, 0.083, 0.171, 0.375, 0.042, 0
305656, -0.196, -0.256, 0.008, 0.025, 0.331, 0.113, 0
305676, 0.016, -0.356, -0.078, -0.235, 0.066, 0.122, 0
305696, -0.688, -0.216, -0.397, -0.412, 0.032, 0.146, 0
305716, -1.073, 0.208, -0.451, -0.357, 0.186, 0.218, 0
305736, -1.025, 0.176, -0.651, -0.253, 0.235, 0.251, 0
305756, -1.007, 0.201, -0.697, -0.254, 0.133, 0.296, 0
305776, -1.207, 0.302, -0.697, -0.237, -0.021, 0.405, 0
305796, -1.864, 0.536, -0.925, -0.24, -0.107, 0.514, 0
305816, -3.025, 0.904, -1.243, -0.287, -0.065, 0.696, 0
305836, -3.788, 1.35, -1.069, -0.291, 0.012, 0.973, 0
305856, -4.405, 1.355, -0.985, -0.319, 0.033, 1.273, 0
305876, -4.965, 1.307, -0.933, -0.363, -0.012, 1.611, 0
305896, -5.37, 1.09, -0.975, -0.485, -0.116, 2.003, 0
305916, -5.27, 0.473, -0.89, -0.657, -0.268, 2.371, 0
305936, -4.9, -0.039, -0.609, -0.744, -0.438, 2.695, 0
305956, -4.527, -0.758, -0.755, -0.726, -0.544, 3.147, 0
305976, -3.403, -1.763, -0.989, -0.552, -0.5, 3.414, 0
305996, -2.262, -2.705, -1.208, -0.447, -0.378, 3.605, 0
306016, -1.131, -3.369, -0.908, -0.401, -0.353, 3.688, 0
306036, -0.845, -3.66, -0.995, -0.5, -0.413, 3.612, 0
306056, -1.038, -3.761, -1.004, -0.563, -0.34, 3.586, 0
306076, -0.545, -3.592, -0.257, -0.482, -0.125, 3.668, 0
306096, 0.446, -4.136, 0.067, -0.174, -0.046, 3.662, 0
306116, 0.645, -4.646, 0.232, 0.149, 0.007, 3.601, 0
306136, 0.969, -5.337, -0.022, 0.147, 0.227, 3.399, 0
306156, 1.316, -5.273, 0.342, 0.012, 0.504, 3.231, 0
306176, 2.187, -5.335, 0.845, -0.084, 0.583, 3.076, 0
306196, 3.141, -5.25, 1.316, -0.012, 0.434, 2.827, 0
306216, 3.092, -4.705, 1.151, 0.285, 0.277, 2.51, 0
306236, 2.486, -4.384, 0.343, 0.447, 0.245, 2.169, 0
306256, 2.267, -3.868, 0.193, 0.363, 0.306, 1.93, 0
306276, 2.45, -3.623, 0.143, 0.235, 0.309, 1.682, 0
306296, 2.931, -3.616, 0.153, 0.101, 0.289, 1.404, 0
306316, 2.989, -3.069, 0.101, 0.094, 0.282, 1.083, 0
306336, 2.504, -2.728, -0.311, 0.152, 0.218, 0.732, 0
306356, 1.729, -2.052, -0.451, 0.073, 0.15, 0.459, 0
306376, 0.826, -1.169, -0.504, -0.034, 0.158, 0.285, 0
306396, 0.679, -0.663, -0.213, -0.084, 0.242, 0.24, 0
306416, 0.59, -0.457, -0.033, -0.056, 0.219, 0.166, 0
306436, 0.403, -0.312, 0.0, -0.048, 0.173, 0.068, 0
306456, 0.261, -0.307, -0.202, -0.094, 0.047, 0.0, 0
306476, -0.02, -0.143, -0.386, -0.126, 0.0, -0.042, 0
306496, -0.236, 0.024, -0.297, -0.091, 0.013, -0.067, 0
306516, -0.561, 0.04, -0.475, -0.086, 0.094, -0.064, 0
306536, -0.749, 0.03, -0.599, -0.137, 0.199, -0.025, 1
306556, -0.353, -0.131, -0.292, -0.174, 0.238, -0.015, 1
306576, 0.053, -0.393, -0.109, -0.153, 0.179, -0.083, 1
306596, 0.348, -0.654, -0.183, -0.161, 0.081, -0.152, 1
306616, 0.291, -0.65, -0.253, -0.212, -0.023, -0.221, 1
306636, 0.317, -0.547, -0.302, -0.188, -0.067, -0.296, 1
306656, 0.522, -0.567, -0.199, -0.136, -0.064, -0.392, 1
306676, 0.994, -1.069, -0.306, -0.061, -0.158, -0.531, 1
306696, 1.298, -1.512, -0.593, -0.045, -0.268, -0.719, 1
306716, 0.908, -1.939, -0.783, -0.182, -0.224, -0.891, 1
306736, 0.937, -2.154, -0.658, -0.33, -0.046, -0.984, 1
306756, 1.394, -2.524, -0.501, -0.405, 0.056, -1.19, 1
306776, 1.548, -2.446, -0.088, -0.45, -0.045, -1.437, 1
306796, 1.341, -2.241, 0.108, -0.379, -0.276, -1.629, 1
306816, 1.323, -2.778, -0.09, -0.408, -0.37, -1.82, 1
306836, 1.3, -3.19, -0.323, -0.459, -0.271, -2.056, 1
306856, 0.782, -2.959, -0.372, -0.426, -0.15, -2.263, 1
306876, 0.367, -2.594, -0.125, -0.392, -0.087, -2.46, 1
306896, 0.416, -2.816, 0.1, -0.466, -0.156, -2.694, 1
306916, 0.335, -3.028, 0.262, -0.532, -0.363, -2.923, 1
306936, -0.763, -2.619, 0.24, -0.476, -0.298, -3.079, 1
306956, -2.539, -1.717, 0.197, -0.294, -0.165, -3.055, 1
306976, -2.929, -1.498, 0.532, -0.292, -0.028, -3.043, 1
306996, -3.307, -0.89, 0.899, -0.284, 0.141, -2.967, 1
307016, -3.34, -1.041, 0.888, -0.16, 0.239, -2.899, 1
307036, -3.609, -0.953, 0.739, -0.122, 0.299, -2.908, 1
307056, -4.05, -0.636, 0.601, -0.064, 0.32, -2.833, 1
307076, -4.204, -0.297, 0.762, 0.094, 0.379, -2.709, 1
307096, -3.76, -0.491, 0.685, 0.232, 0.398, -2.558, 1
307116, -4.221, 0.105, 0.873, 0.291, 0.409, -2.424, 1
307136, -4.157, 0.216, 0.888, 0.412, 0.53, -2.235, 1
307156, -4.275, 0.438, 0.662, 0.532, 0.605, -2.057, 1
307176, -4.128, 0.445, 0.3, 0.629, 0.445, -1.858, 1
307196, -4.141, 0.569, 0.025, 0.669, 0.248, -1.654, 1
307216, -3.988, 0.677, -0.202, 0.694, 0.147, -1.435, 1
307236, -3.948, 0.735, -0.471, 0.739, 0.127, -1.238, 1
307256, -4.154, 0.927, -0.534, 0.783, 0.237, -1.076, 1
307276, -3.92, 0.866, -0.5, 0.758, 0.394, -0.69, 1
307296, -2.718, 0.291, -0.52, 0.615, 0.389, -0.321, 1
307316, -1.436, -0.638, -1.004, 0.448, 0.067, -0.115, 1
307336, -1.111, -0.848, -1.526, 0.205, -0.31, -0.1, 1
307356, -1.125, -0.861, -1.896, 0.005, -0.339, -0.073, 1
307376, -1.079, -0.479, -1.716, -0.06, -0.092, -0.032, 1
307396, -0.55, -0.452, -1.183, 0.015, 0.238, 0.039, 1
307416, -0.093, -0.569, -0.733, 0.011, 0.295, 0.029, 1
307436, -0.037, -0.453, -0.5, -0.053, 0.217, 0.028, 1
307456, 0.054, -0.417, -0.417, -0.137, 0.124, 0.044, 1
307476, 0.136, -0.389, -0.306, -0.208, 0.013, 0.031, 1
307496, -0.158, -0.191, -0.141, -0.184, 0.047, 0.013, 1
307516, -0.184, -0.183, -0.054, -0.097, 0.137, -0.026, 1
307536, -0.103, -0.148, -0.072, -0.069, 0.213, -0.037, 1
307556, -0.095, -0.01, 0.056, -0.027, 0.317, 0.003, 1
307576, 0.233, -0.127, 0.183, -0.003, 0.277, 0.041, 1
307596, 0.382, -0.442, 0.109, -0.092, 0.123, 0.013, 1
307616, 0.187, -0.264, 0.151, -0.102, 0.012, -0.039, 1
307636, -0.149, -0.145, -0.114, -0.081, 0.116, -0.053, 1
307656, -0.061, -0.078, -0.094, -0.03, 0.206, -0.067, 1
307676, -0.134, 0.009, 0.022, 0.015, 0.255, -0.054, 1
307696, -0.158, 0.025, -0.017, 0.015, 0.267, 0.02, 0
307716, -0.084, -0.256, -0.047, -0.116, 0.114, 0.018, 0
307736, -0.187, 0.035, -0.001, -0.168, 0.028, 0.021, 0
307756, -0.571, 0.276, -0.072, -0.078, 0.108, 0.018, 0
307776, -0.551, 0.036, -0.251, -0.077, 0.193, 0.042, 0
307796, -0.134, -0.165, -0.36, -0.19, 0.118, 0.083, 0
307816, -0.198, -0.129, -0.375, -0.263, 0.023, 0.125, 0
307836, -0.526, 0.094, -0.401, -0.228, 0.0, 0.2, 0
307856, -1.024, 0.422, -0.596, -0.132, -0.054, 0.277, 0
307876, -1.509, 0.545, -0.762, -0.131, -0.071, 0.413, 0
307896, -1.806, 0.63, -0.802, -0.248, -0.045, 0.651, 0
307916, -3.536, 0.993, -0.526, -0.288, 0.096, 0.853, 0
307936, -4.108, 1.83, -0.366, -0.291, 0.186, 1.145, 0
307956, -4.375, 1.617, -0.356, -0.371, 0.156, 1.486, 0
307976, -4.322, 1.306, -0.589, -0.486, -0.014, 1.825, 0
307996, -4.682, 0.85, -0.977, -0.57, -0.208, 2.136, 0
308016, -4.653, 0.424, -0.987, -0.635, -0.219, 2.494, 0
308036, -4.32, -0.381, -1.057, -0.635, -0.197, 2.812, 0
308056, -3.715, -1.054, -0.932, -0.634, -0.189, 3.109, 0
308076, -3.032, -1.835, -0.757, -0.595, -0.312, 3.335, 0
308096, -2.466, -2.768, -1.213, -0.702, -0.426, 3.453, 0
308116, -1.948, -3.272, -1.453, -0.763, -0.421, 3.508, 0
308136, -1.587, -3.219, -1.147, -0.763, -0.221, 3.578, 0
308156, -1.19, -3.047, -0.597, -0.506, 0.013, 3.621, 0
308176, -0.977, -3.972, -0.934, -0.266, 0.119, 3.635, 0
308196, -0.673, -4.476, -1.094, -0.35, 0.263, 3.585, 0
308216, 0.107, -4.674, -0.718, -0.431, 0.362, 3.534, 0
308236, 0.485, -4.721, -0.448, -0.345, 0.344, 3.439, 0
308256, 0.732, -4.813, 0.095, -0.141, 0.435, 3.299, 0
308276, 1.646, -5.221, 0.52, -0.05, 0.531, 3.152, 0
308296, 2.419, -5.466, 0.521, -0.021, 0.399, 2.903, 0
308316, 2.393, -5.362, 0.414, 0.012, 0.266, 2.587, 0
308336, 2.521, -4.857, 0.827, 0.095, 0.299, 2.304, 0
308356, 2.933, -4.744, 1.036, 0.205, 0.223, 2.003, 0
308376, 3.179, -4.584, 0.736, 0.151, -0.05, 1.641, 0
308396, 2.804, -4.021, 0.122, 0.031, -0.275, 1.124, 0
308416, 2.232, -3.448, -0.171, 0.044, -0.098, 0.883, 0
308436, 2.042, -2.844, -0.058, 0.034, 0.028, 0.662, 0
308456, 1.708, -2.276, 0.071, 0.019, 0.076, 0.518, 0
308476, 1.754, -2.143, 0.08, -0.075, 0.008, 0.372, 0
308496, 1.368, -1.509, -0.088, -0.093, 0.013, 0.244, 0
308516, 0.839, -1.028, -0.321, -0.085, 0.183, 0.178, 0
308536, 0.862, -0.792, -0.215, -0.079, 0.23, 0.109, 0
308556, 0.672, -0.665, -0.187, -0.086, 0.185, 0.031, 0
308576, 0.217, -0.354, -0.313, -0.109, 0.196, -0.002, 0
308596, 0.179, -0.398, -0.398, -0.191, 0.18, -0.023, 0
308616, 0.531, -0.571, -0.141, -0.196, 0.001, -0.128, 0
308636, 0.188, -0.499, -0.295, -0.232, -0.063, -0.218, 1
308656, -0.549, -0.217, -0.751, -0.393, 0.037, -0.141, 1
308676, -1.123, -0.041, -0.68, -0.543, 0.225, -0.04, 1
308696, -0.698, 0.017, -0.103, -0.466, 0.271, -0.036, 1
308716, 0.084, -0.323, 0.344, -0.296, 0.087, -0.165, 1
308736, 0.434, -0.829, 0.21, -0.177, -0.152, -0.28, 1
308756, 0.295, -1.031, -0.287, -0.197, -0.257, -0.444, 1
308776, 0.137, -0.942, -0.567, -0.255, -0.266, -0.507, 1
308796, 0.435, -1.029, -0.55, -0.342, -0.254, -0.54, 1
308816, 0.835, -1.362, -0.373, -0.4, -0.246, -0.623, 1
308836, 1.418, -1.786, -0.246, -0.392, -0.296, -0.811, 1
308856, 1.784, -2.184, -0.046, -0.318, -0.361, -1.051, 1
308876, 1.902, -2.536, 0.128, -0.224, -0.417, -1.457, 1
308896, 2.136, -3.616, -0.281, -0.287, -0.514, -1.739, 1
308916, 1.612, -3.759, -0.399, -0.424, -0.598, -2.043, 1
308936, 1.267, -3.754, -0.54, -0.533, -0.561, -2.31, 1
308956, 0.451, -3.101, -0.185, -0.56, -0.428, -2.566, 1
308976, -0.089, -2.691, 0.21, -0.427, -0.209, -2.689, 1
308996, -0.481, -2.756, 0.156, -0.311, -0.076, -2.811, 1
309016, -1.317, -2.481, -0.006, -0.315, -0.008, -2.923, 1
309036, -1.73, -2.384, -0.123, -0.333, 0.047, -2.97, 1
309056, -2.28, -1.982, -0.282, -0.312, 0.176, -3.013, 1
309076, -2.608, -1.787, -0.056, -0.219, 0.33, -3.022, 1
309096, -2.488, -1.668, 0.289, -0.132, 0.351, -2.992, 1
309116, -2.81, -1.85, -0.099, -0.109, 0.191, -3.02, 1
309136, -4.188, -1.184, -0.457, -0.185, 0.097, -3.019, 1
309156, -5.027, -0.693, -0.385, -0.215, 0.257, -2.787, 1
309176, -4.713, -0.301, 0.11, -0.2, 0.635, -2.506, 1
309196, -3.858, -0.43, 0.562, -0.116, 0.81, -2.332, 1
309216, -3.633, -0.169, 0.898, -0.048, 0.739, -2.222, 1
309236, -3.708, 0.085, 1.188, 0.103, 0.628, -2.103, 1
309256, -4.05, 0.42, 1.387, 0.296, 0.588, -1.948, 1
309276, -3.595, 0.003, 0.786, 0.416, 0.532, -1.754, 1
309296, -2.94, -0.218, 0.135, 0.43, 0.372, -1.564, 1
309316, -2.984, 0.01, -0.178, 0.343, 0.194, -1.459, 1
309336, -2.916, 0.342, -0.093, 0.366, 0.136, -1.311, 1
309356, -3.123, 0.508, -0.202, 0.489, 0.138, -1.098, 1
309376, -2.98, 0.247, -0.748, 0.54, 0.318, -0.839, 1
309396, -2.554, 0.036, -1.103, 0.328, 0.342, -0.613, 1
309416, -2.233, 0.103, -1.2, 0.128, 0.31, -0.433, 1
309436, -1.893, 0.111, -1.024, 0.052, 0.293, -0.277, 1
309456, -1.331, -0.044, -0.633, 0.042, 0.249, -0.19, 1
309476, -0.772, -0.357, -0.435, 0.031, 0.163, -0.155, 1
309496, -0.684, -0.501, -0.63, -0.024, 0.148, -0.096, 1
309516, -0.469, -0.39, -0.587, -0.05, 0.162, -0.032, 1
309536, -0.267, -0.422, -0.366, -0.082, 0.175, -0.017, 1
309556, 0.221, -0.576, -0.129, -0.045, 0.098, -0.011, 1
309576, 0.355, -0.562, -0.07, -0.012, 0.007, -0.033, 1
309596, 0.219, -0.543, -0.219, -0.017, -0.006, -0.043, 1
309616, -0.098, -0.438, -0.252, -0.063, 0.114, -0.038, 1
309636, -0.219, -0.229, -0.033, -0.05, 0.244, -0.017, 1
309656, 0.09, -0.168, 0.125, 0.017, 0.207, -0.001, 1
309676, 0.395, -0.38, 0.104, -0.001, 0.017, -0.006, 1
309696, 0.343, -0.424, -0.157, -0.088, -0.175, -0.036, 1
309716, -0.075, -0.205, -0.337, -0.138, -0.183, -0.032, 1
309736, -0.229, -0.107, -0.385, -0.156, -0.062, 0.012, 1
309756, -0.093, -0.165, -0.376, -0.191, 0.013, 0.028, 1
309776, 0.089, -0.092, -0.203, -0.155, -0.021, -0.004, 1
309796, 0.089, -0.122, -0.257, -0.104, -0.048, -0.036, 1
309816, -0.055, -0.264, -0.422, -0.116, 0.044, -0.081, 1
309836, -0.357, -0.113, -0.472, -0.177, 0.306, -0.049, 1
309856, -0.162, 0.021, -0.215, -0.048, 0.433, 0.07, 1
309876, 0.284, -0.065, 0.276, 0.031, 0.255, 0.015, 1
309896, 0.192, -0.335, -0.001, 0.087, 0.116, -0.04, 0
309916, -0.153, -0.164, -0.04, 0.051, 0.127, -0.018, 0
309936, -0.163, 0.01, -0.003, -0.009, 0.21, 0.061, 0
309956, -0.021, -0.038, -0.047, -0.012, 0.186, 0.089, 0
309976, -0.149, 0.076, -0.071, -0.042, 0.06, 0.094, 0
309996, -0.737, 0.11, -0.215, -0.094, -0.018, 0.126, 0
310016, -1.559, 0.287, -0.467, -0.244, 0.119, 0.2, 0
310036, -1.662, 0.694, -0.433, -0.268, 0.216, 0.359, 0
310056, -1.918, 0.576, -0.666, -0.227, 0.103, 0.516, 0
310076, -2.453, 0.834, -0.726, -0.277, 0.0, 0.695, 0
310096, -3.389, 1.23, -0.583, -0.295, -0.038, 0.882, 0
310116, -4.069, 1.378, -0.28, -0.291, 0.076, 1.138, 0
310136, -4.076, 1.151, -0.152, -0.279, 0.214, 1.431, 0
310156, -3.665, 0.73, -0.213, -0.315, 0.15, 1.722, 0
310176, -3.754, 0.562, -0.36, -0.404, -0.044, 1.96, 0
310196, -3.943, 0.543, -0.355, -0.456, -0.152, 2.244, 0
310216, -3.754, 0.118, -0.461, -0.419, -0.241, 2.518, 0
310236, -3.703, -0.364, -0.785, -0.423, -0.311, 2.744, 0
310256, -2.826, -1.163, -0.971, -0.454, -0.371, 2.993, 0
310276, -2.078, -1.749, -1.281, -0.495, -0.644, 3.126, 0
310296, -2.436, -1.903, -1.634, -0.499, -0.727, 3.224, 0
310316, -2.189, -2.252, -1.629, -0.415, -0.417, 3.378, 0
310336, -1.518, -2.812, -1.658, -0.422, -0.078, 3.485, 0
310356, -0.385, -3.582, -1.528, -0.514, -0.057, 3.49, 0
310376, 0.159, -3.806, -1.24, -0.581, -0.342, 3.422, 0
310396, -0.418, -3.559, -0.969, -0.518, -0.29, 3.406, 0
310416, -0.573, -3.698, -0.494, -0.341, 0.114, 3.395, 0
310436, 0.213, -4.571, -0.14, -0.155, 0.502, 3.341, 0
310456, 1.579, -5.288, -0.106, -0.177, 0.456, 3.141, 0
310476, 2.013, -5.153, 0.35, -0.094, 0.331, 2.949, 0
310496, 2.531, -5.534, 0.748, 0.186, 0.427, 2.671, 0
310516, 3.346, -6.12, 0.504, 0.219, 0.576, 2.279, 0
310536, 4.313, -5.786, 0.309, 0.101, 0.339, 1.826, 0
310556, 4.47, -5.304, 0.109, -0.089, -0.085, 1.329, 0
310576, 3.833, -4.335, -0.03, -0.148, -0.318, 0.948, 0
310596, 2.834, -3.276, -0.062, -0.087, -0.213, 0.69, 0
310616, 2.32, -2.727, -0.073, -0.028, -0.045, 0.493, 0
310636, 2.084, -2.283, 0.047, -0.098, -0.031, 0.315, 0
310656, 1.465, -1.539, -0.008, -0.105, -0.066, 0.192, 0
310676, 0.524, -0.879, -0.218, -0.092, 0.017, 0.167, 0
310696, 0.311, -0.606, 0.038, -0.103, 0.145, 0.187, 0
310716, 0.423, -0.595, 0.223, -0.096, 0.133, 0.147, 0
310736, 0.244, -0.435, 0.184, -0.103, 0.061, 0.1, 0
310756, 0.136, -0.141, 0.066, -0.083, -0.054, 0.064, 0
310776, -0.151, -0.033, -0.276, -0.1, -0.101, 0.07, 1
310796, -0.578, 0.001, -0.587, -0.175, 0.031, 0.163, 1
310816, -0.511, -0.043, -0.54, -0.222, 0.197, 0.241, 1
310836, -0.309, -0.139, 0.085, -0.212, 0.241, 0.207, 1
310856, -0.035, -0.237, 0.023, -0.105, 0.143, 0.113, 1
310876, 0.003, -0.284, 0.099, -0.054, 0.091, 0.075, 1
310896, -0.101, -0.329, -0.025, -0.034, 0.04, 0.018, 1
310916, -0.112, -0.281, -0.053, -0.081, 0.01, -0.018, 1
310936, -0.062, -0.086, -0.172, -0.12, -0.016, -0.029, 1
310956, -0.072, 0.01, -0.355, -0.14, -0.014, -0.013, 1
310976, 0.084, 0.004, -0.236, -0.108, -0.007, -0.006, 1
310996, 0.447, -0.45, -0.361, -0.068, -0.001, -0.029, 1
311016, 1.15, -1.205, -0.625, -0.087, -0.021, -0.101, 1
311036, 1.702, -1.648, -0.851, -0.169, -0.043, -0.27, 1
311056, 2.094, -1.822, -0.835, -0.208, -0.061, -0.459, 1
311076, 2.443, -2.241, -0.808, -0.231, -0.105, -0.664, 1
311096, 2.914, -2.946, -0.957, -0.27, -0.167, -0.913, 1
311116, 3.124, -3.623, -1.215, -0.303, -0.119, -1.212, 1
311136, 3.38, -4.199, -1.153, -0.359, -0.039, -1.518, 1
311156, 3.382, -4.557, -0.779, -0.465, -0.063, -1.877, 1
311176, 2.762, -4.316, -0.476, -0.597, -0.142, -2.277, 1
311196, 1.805, -4.251, -0.525, -0.627, -0.191, -2.577, 1
311216, 1.191, -4.479, -0.652, -0.651, -0.167, -2.808, 1
311236, 0.391, -4.089, -0.333, -0.726, -0.007, -3.098, 1
311256, -0.617, -3.174, 0.112, -0.719, 0.209, -3.313, 1
311276, -1.62, -2.387, 0.267, -0.536, 0.335, -3.368, 1
311296, -2.478, -2.135, 0.376, -0.431, 0.337, -3.359, 1
311316, -2.926, -1.938, 0.624, -0.516, 0.402, -3.34, 1
311336, -3.217, -1.517, 1.059, -0.463, 0.331, -3.298, 1
311356, -3.615, -1.35, 1.269, -0.383, 0.282, -3.232, 1
311376, -4.215, -1.108, 1.229, -0.268, 0.333, -3.099, 1
311396, -4.996, -0.454, 1.216, -0.102, 0.547, -2.862, 1
311416, -4.927, -0.123, 1.262, 0.065, 0.691, -2.608, 1
311436, -4.768, 0.041, 1.225, 0.171, 0.674, -2.409, 1
311456, -4.531, 0.274, 1.043, 0.287, 0.539, -2.16, 1
311476, -4.169, 0.199, 0.706, 0.352, 0.397, -1.963, 1
311496, -4.253, 0.434, 0.506, 0.35, 0.387, -1.719, 1
311516, -3.76, 0.394, 0.246, 0.358, 0.429, -1.456, 1
311536, -3.361, 0.53, 0.224, 0.43, 0.406, -1.258, 1
311556, -2.758, 0.262, -0.151, 0.493, 0.235, -1.139, 1
311576, -2.79, 0.273, -0.363, 0.507, 0.142, -1.058, 1
311596, -2.877, 0.266, -0.626, 0.475, 0.18, -0.882, 1
311616, -2.598, 0.264, -0.752, 0.459, 0.235, -0.725, 1
311636, -2.17, 0.311, -0.642, 0.529, 0.251, -0.616, 1
311656, -1.638, 0.149, -0.639, 0.588, 0.199, -0.503, 1
311676, -1.253, -0.181, -0.721, 0.494, 0.054, -0.343, 1
311696, -0.782, -0.525, -1.002, 0.269, -0.053, -0.24, 1
311716, -0.724, -0.194, -1.033, 0.162, 0.006, -0.141, 1
311736, -0.452, -0.23, -0.98, 0.131, 0.114, -0.086, 1
311756, -0.071, -0.194, -0.7, 0.112, 0.12, -0.055, 1
311776, -0.03, -0.124, -0.5, 0.073, 0.103, -0.029, 1
311796, 0.161, -0.298, -0.38, -0.084, 0.09, 0.014, 1
311816, 0.189, -0.413, -0.184, -0.167, 0.064, 0.025, 1
311836, 0.152, -0.32, -0.252, -0.185, 0.117, 0.026, 1
311856, 0.015, -0.15, -0.145, -0.253, 0.155, 0.064, 1
311876, 0.075, -0.156, -0.116, -0.288, 0.166, 0.087, 1
311896, 0.077, -0.124, 0.018, -0.266, 0.113, 0.034, 1
311916, 0.031, -0.085, 0.132, -0.129, 0.068, -0.023, 1
311936, -0.046, -0.212, 0.028, -0.027, 0.061, -0.084, 1
311956, -0.161, -0.497, -0.436, -0.103, 0.157, -0.066, 1
311976, -0.024, -0.151, -0.311, -0.279, 0.237, 0.065, 1
311996, 0.052, 0.063, -0.025, -0.222, 0.171, 0.103, 1
312016, -0.022, -0.004, 0.024, -0.009, 0.091, 0.069, 1
312036, -0.099, -0.215, -0.088, 0.107, 0.092, 0.032, 1
312056, -0.209, -0.313, -0.23, 0.087, 0.171, 0.008, 1
312076, 0.108, -0.463, -0.299, -0.026, 0.282, 0.025, 0
312096, 0.024, 0.046, -0.039, -0.137, 0.309, 0.032, 0
312116, -0.121, 0.036, 0.074, 0.0, 0.161, 0.019, 0
312136, -0.25, -0.053, -0.035, 0.037, 0.128, 0.036, 0
312156, -0.274, -0.067, -0.087, 0.021, 0.092, 0.042, 0
312176, -0.578, -0.096, -0.308, -0.11, 0.089, 0.074, 0
312196, -0.627, 0.098, -0.197, -0.245, 0.128, 0.138, 0
312216, -0.422, 0.249, -0.078, -0.218, 0.113, 0.175, 0
312236, -0.357, 0.015, -0.275, -0.138, -0.005, 0.194, 0
312256, -0.439, -0.019, -0.334, -0.116, -0.048, 0.216, 0
312276, -0.595, -0.132, -0.452, -0.134, -0.04, 0.252, 0
312296, -0.924, 0.142, -0.614, -0.229, -0.058, 0.37, 0
312316, -1.579, 0.525, -0.6, -0.202, -0.038, 0.488, 0
312336, -2.389, 0.835, -0.475, -0.145, 0.068, 0.672, 0
312356, -3.13, 0.929, -0.328, -0.185, 0.196, 0.901, 0
312376, -3.567, 0.849, -0.174, -0.301, 0.158, 1.156, 0
312396, -3.683, 0.504, -0.378, -0.492, -0.173, 1.418, 0
312416, -4.006, 0.405, -0.5, -0.639, -0.492, 1.706, 0
312436, -4.256, 0.528, -0.511, -0.577, -0.605, 2.014, 0
312456, -4.251, 0.405, -0.828, -0.521, -0.596, 2.317, 0
312476, -4.267, 0.232, -1.165, -0.514, -0.538, 2.639, 0
312496, -4.536, 0.104, -1.359, -0.342, -0.268, 3.007, 0
312516, -3.871, -0.672, -1.201, -0.198, 0.017, 3.331, 0
312536, -2.675, -1.842, -0.891, -0.248, -0.092, 3.552, 0
312556, -1.619, -2.624, -0.825, -0.335, -0.468, 3.626, 0
312576, -1.873, -3.293, -1.289, -0.437, -0.423, 3.696, 0
312596, -1.798, -3.14, -1.036, -0.294, -0.006, 3.825, 0
312616, -1.284, -3.527, -0.662, -0.097, 0.31, 3.891, 0
312636, -0.843, -3.925, -0.677, -0.057, 0.37, 3.904, 0
312656, -0.161, -4.926, -0.759, -0.339, 0.229, 3.842, 0
312676, 0.129, -5.2, -0.203, -0.489, 0.213, 3.72, 0
312696, 0.479, -5.208, 0.43, -0.315, 0.475, 3.574, 0
312716, 1.239, -5.385, 0.769, -0.051, 0.731, 3.47, 0
312736, 3.149, -6.536, 0.759, 0.0, 0.525, 3.136, 0
312756, 4.368, -6.98, 0.873, -0.114, 0.02, 2.616, 0
312776, 4.508, -6.17, 1.042, -0.137, -0.54, 1.808, 0
312796, 2.854, -4.202, -0.068, 0.102, -0.487, 1.433, 0
312816, 2.29, -3.509, -0.492, 0.208, -0.234, 1.166, 0
312836, 2.153, -3.203, -0.745, 0.205, -0.037, 0.932, 0
312856, 1.771, -2.652, -0.73, 0.056, -0.076, 0.707, 0
312876, 1.132, -2.079, -0.473, -0.042, -0.098, 0.541, 0
312896, 1.02, -1.779, -0.121, -0.006, 0.028, 0.437, 0
312916, 0.911, -1.604, -0.2, 0.064, 0.097, 0.312, 0
312936, 0.504, -1.056, -0.3, 0.012, 0.071, 0.191, 0
312956, 0.326, -0.687, -0.314, -0.044, 0.08, 0.135, 0
312976, 0.076, -0.351, -0.5, -0.076, 0.04, 0.093, 0
312996, -0.116, -0.077, -0.459, -0.072, -0.001, 0.089, 0
313016, -0.054, -0.105, -0.349, -0.036, 0.051, 0.101, 1
313036, 0.212, -0.341, -0.64, -0.023, 0.189, 0.104, 1
313056, -0.335, -0.212, -0.634, -0.082, 0.231, 0.1, 1
313076, -0.202, 0.045, -0.399, -0.073, 0.271, 0.08, 1
313096, -0.13, 0.122, 0.06, -0.04, 0.18, 0.074, 1
313116, -0.03, -0.102, -0.103, 0.004, 0.005, 0.058, 1
313136, -0.103, -0.157, -0.166, -0.004, -0.054, 0.012, 1
313156, -0.313, -0.202, -0.409, -0.08, -0.014, -0.027, 1
313176, -0.27, -0.05, -0.345, -0.154, 0.043, 0.002, 1
313196, 0.005, -0.04, -0.11, -0.156, 0.04, 0.031, 1
313216, 0.158, -0.077, 0.095, -0.11, -0.006, 0.026, 1
313236, 0.089, -0.194, -0.003, -0.031, -0.077, 0.001, 1
313256, 0.115, -0.406, -0.151, -0.054, -0.059, -0.034, 1
313276, 0.575, -0.766, -0.171, -0.143, -0.012, -0.101, 1
313296, 1.176, -1.214, -0.428, -0.153, -0.05, -0.229, 1
313316, 1.713, -1.661, -0.606, -0.161, -0.098, -0.417, 1
313336, 2.197, -2.2, -0.871, -0.205, -0.146, -0.62, 1
313356, 2.67, -2.7, -1.207, -0.274, -0.147, -0.88, 1
313376, 3.137, -3.189, -1.32, -0.318, -0.115, -1.171, 1
313396, 3.831, -4.19, -1.423, -0.389, -0.154, -1.522, 1
313416, 4.197, -5.341, -1.695, -0.56, -0.273, -2.003, 1
313436, 3.634, -5.349, -1.332, -0.668, -0.274, -2.472, 1
313456, 2.638, -4.983, -0.845, -0.607, -0.024, -2.924, 1
313476, 1.438, -4.493, -0.366, -0.54, 0.166, -3.23, 1
313496, 0.456, -3.654, 0.223, -0.505, 0.128, -3.388, 1
313516, -0.097, -3.515, 0.411, -0.618, -0.036, -3.48, 1
313536, -0.995, -3.096, 0.966, -0.777, -0.153, -3.549, 1
313556, -2.223, -2.429, 1.252, -0.724, -0.07, -3.546, 1
313576, -3.13, -1.951, 1.117, -0.523, 0.117, -3.487, 1
313596, -4.017, -1.259, 0.9, -0.315, 0.274, -3.342, 1
313616, -4.31, -1.151, 0.745, -0.235, 0.348, -3.123, 1
313636, -4.688, -0.866, 0.861, -0.292, 0.483, -2.895, 1
313656, -4.081, -0.836, 0.899, -0.27, 0.426, -2.69, 1
313676, -3.839, -0.66, 0.88, -0.194, 0.249, -2.572, 1
313696, -3.579, -0.882, 0.617, -0.177, 0.168, -2.428, 1
313716, -3.489, -0.718, 0.544, -0.13, 0.294, -2.285, 1
313736, -4.193, -0.015, 0.856, 0.038, 0.685, -2.07, 1
313756, -3.743, 0.204, 1.031, 0.368, 0.932, -1.799, 1
313776, -3.046, -0.097, 0.947, 0.548, 0.826, -1.659, 1
313796, -2.984, -0.337, 0.632, 0.53, 0.566, -1.575, 1
313816, -3.128, -0.04, 0.179, 0.398, 0.423, -1.52, 1
313836, -2.874, 0.467, -0.108, 0.479, 0.353, -1.389, 1
313856, -2.42, 0.377, -0.536, 0.725, 0.282, -1.192, 1
313876, -2.118, 0.251, -0.976, 0.833, 0.144, -0.906, 1
313896, -1.908, -0.031, -1.612, 0.684, 0.001, -0.669, 1
313916, -1.866, 0.173, -1.807, 0.391, 0.032, -0.466, 1
313936, -1.439, 0.365, -1.455, 0.191, 0.245, -0.249, 1
313956, -0.558, 0.136, -1.041, 0.15, 0.323, -0.102, 1
313976, -0.121, -0.144, -0.918, 0.1, 0.115, -0.033, 1
313996, -0.097, -0.372, -1.041, -0.051, -0.108, -0.013, 1
314016, -0.212, -0.168, -0.868, -0.199, -0.074, 0.036, 1
314036, 0.013, -0.149, -0.592, -0.208, 0.113, 0.088, 1
314056, 0.508, -0.364, -0.27, -0.089, 0.242, 0.101, 1
314076, 0.575, -0.41, -0.018, 0.003, 0.138, 0.028, 1
314096, 0.352, -0.416, 0.13, 0.016, 0.039, -0.019, 1
314116, 0.084, -0.312, 0.149, 0.014, 0.028, -0.026, 1
314136, 0.123, -0.368, 0.031, 0.0, 0.065, 0.006, 1
314156, 0.197, -0.287, 0.01, 0.006, 0.006, 0.017, 1
314176, 0.114, -0.229, -0.217, 0.011, -0.057, 0.012, 1
314196, -0.276, -0.311, -0.493, 0.001, 0.001, 0.013, 1
314216, -0.302, -0.147, -0.475, -0.091, 0.195, 0.067, 0
314236, -0.353, -0.294, -0.668, -0.204, 0.333, 0.16, 0
314256, 0.665, -0.183, -0.351, -0.155, 0.269, 0.124, 0
314276, 0.437, -0.181, -0.322, -0.111, 0.147, 0.041, 0
314296, -0.093, -0.021, -0.273, -0.13, 0.216, 0.085, 0
314316, -0.192, -0.073, -0.245, -0.196, 0.287, 0.122, 0
314336, -0.145, -0.07, -0.181, -0.324, 0.233, 0.166, 0
314356, 0.07, 0.149, 0.039, -0.257, 0.05, 0.145, 0
314376, -0.077, 0.043, -0.01, -0.16, -0.017, 0.131, 0
314396, -0.052, -0.163, -0.126, -0.141, 0.001, 0.113, 0
314416, -0.028, -0.107, -0.122, -0.122, 0.059, 0.133, 0
314436, 0.018, -0.169, -0.136, -0.142, 0.043, 0.155, 0
314456, -0.028, 0.012, -0.212, -0.119, -0.038, 0.143, 0
314476, -0.484, 0.11, -0.567, -0.097, -0.1, 0.155, 0
314496, -1.171, 0.368, -0.963, -0.142, -0.092, 0.226, 0
314516, -1.745, 0.533, -1.331, -0.251, -0.034, 0.381, 0
314536, -2.064, 0.721, -1.418, -0.342, -0.014, 0.558, 0
314556, -2.472, 0.918, -1.32, -0.414, 0.0, 0.75, 0
314576, -2.932, 1.171, -0.9, -0.434, 0.068, 0.966, 0
314596, -3.475, 1.367, -0.556, -0.401, 0.138, 1.227, 0
314616, -3.868, 1.23, -0.578, -0.437, 0.12, 1.504, 0
314636, -4.15, 1.077, -0.677, -0.553, -0.016, 1.811, 0
314656, -4.252, 0.835, -0.689, -0.678, -0.186, 2.149, 0
314676, -4.028, 0.249, -0.496, -0.777, -0.343, 2.444, 0
314696, -3.569, -0.244, -0.282, -0.813, -0.503, 2.681, 0
314716, -3.337, -0.967, -0.368, -0.863, -0.63, 2.924, 0
314736, -3.397, -0.999, -0.527, -0.71, -0.574, 3.173, 0
314756, -2.556, -1.798, -0.287, -0.567, -0.525, 3.389, 0
314776, -1.991, -2.245, 0.178, -0.411, -0.614, 3.553, 0
314796, -2.157, -3.499, -0.483, -0.347, -0.671, 3.595, 0
314816, -2.19, -3.34, -0.747, -0.455, -0.234, 3.651, 0
314836, -1.268, -4.064, -0.52, -0.262, 0.244, 3.812, 0
314856, -0.144, -4.586, 0.194, -0.038, 0.294, 3.846, 0
314876, 0.235, -5.004, 0.655, 0.07, -0.136, 3.783, 0
314896, -0.238, -6.234, 0.221, 0.06, -0.229, 3.613, 0
314916, 0.722, -5.982, 0.49, -0.01, 0.34, 3.448, 0
314936, 2.263, -6.161, 0.751, 0.294, 0.536, 3.332, 0
314956, 3.123, -6.385, 0.764, 0.477, 0.171, 2.957, 0
314976, 3.198, -6.191, 0.333, 0.367, -0.325, 2.513, 0
314996, 3.791, -6.105, -0.602, 0.073, -0.516, 2.008, 0
315016, 3.988, -5.234, -1.182, -0.089, -0.687, 1.527, 0
315036, 3.248, -4.3, -1.561, 0.004, -0.634, 1.058, 0
315056, 2.592, -3.223, -1.227, 0.062, -0.337, 0.792, 0
315076, 2.314, -2.655, -0.684, 0.048, -0.125, 0.604, 0
315096, 1.956, -1.99, -0.224, -0.029, -0.103, 0.436, 0
315116, 1.49, -1.301, -0.18, -0.029, -0.042, 0.314, 0
315136, 1.067, -1.079, -0.615, 0.018, 0.097, 0.222, 0
315156, 0.801, -0.815, -0.624, -0.016, 0.22, 0.175, 0
315176, 0.634, -0.593, -0.303, -0.003, 0.294, 0.141, 0
315196, 0.562, -0.329, -0.165, -0.007, 0.266, 0.098, 0
315216, 0.045, -0.061, -0.288, -0.081, 0.086, 0.029, 0
315236, -0.16, 0.08, -0.141, -0.028, 0.081, 0.015, 0
315256, -0.266, -0.015, -0.298, -0.007, 0.099, 0.029, 0
315276, -0.544, -0.155, -0.588, -0.152, 0.166, 0.061, 1
315296, -0.954, -0.04, -0.484, -0.211, 0.263, 0.13, 1
315316, -0.345, -0.255, -0.446, -0.287, 0.272, 0.119, 1
315336, -0.096, -0.092, -0.259, -0.231, 0.167, 0.062, 1
315356, -0.085, -0.047, -0.047, -0.094, 0.04, 0.015, 1
315376, -0.179, -0.237, -0.133, -0.094, 0.01, 0.007, 1
315396, -0.113, -0.193, -0.102, -0.109, 0.015, -0.003, 1
315416, -0.295, -0.027, -0.286, -0.155, 0.043, 0.037, 1
315436, -0.111, 0.0, -0.198, -0.16, 0.042, 0.034, 1
315456, 0.001, -0.028, -0.031, -0.089, 0.031, 0.035, 1
315476, 0.074, -0.156, -0.046, -0.064, 0.054, 0.039, 1
315496, 0.19, -0.206, -0.113, -0.086, 0.002, 0.018, 1
315516, 0.099, -0.234, -0.234, -0.145, -0.028, -0.002, 1
315536, 0.163, -0.235, -0.29, -0.134, 0.007, -0.015, 1
315556, 0.294, -0.378, -0.348, -0.15, 0.028, -0.04, 1
315576, 0.496, -0.522, -0.438, -0.183, -0.011, -0.086, 1
315596, 1.035, -0.954, -0.654, -0.127, -0.04, -0.177, 1
315616, 1.529, -1.768, -1.047, -0.118, 0.058, -0.347, 1
315636, 2.268, -2.354, -1.398, -0.204, 0.132, -0.565, 1
315656, 2.898, -2.812, -1.251, -0.289, 0.079, -0.89, 1
315676, 3.208, -3.388, -0.918, -0.387, -0.021, -1.23, 1
315696, 3.32, -4.118, -0.888, -0.419, -0.035, -1.752, 1
315716, 3.207, -4.546, -0.752, -0.287, 0.209, -2.094, 1
315736, 2.929, -5.122, -0.342, -0.224, 0.331, -2.576, 1
315756, 2.191, -4.681, 0.089, -0.259, 0.29, -2.995, 1
315776, 0.992, -3.973, 0.397, -0.368, 0.089, -3.329, 1
315796, -0.418, -3.483, 0.417, -0.435, -0.01, -3.48, 1
315816, -1.431, -2.807, 0.739, -0.436, 0.05, -3.53, 1
315836, -2.108, -2.083, 1.22, -0.309, 0.14, -3.542, 1
315856, -2.882, -1.858, 1.138, -0.098, 0.131, -3.519, 1
315876, -3.828, -1.586, 0.899, -0.029, 0.155, -3.428, 1
315896, -3.941, -1.386, 0.784, -0.047, 0.233, -3.25, 1
315916, -3.746, -1.153, 0.9, -0.12, 0.187, -3.129, 1
315936, -4.27, -0.759, 1.043, -0.115, 0.12, -3.016, 1
315956, -4.367, -0.669, 0.927, -0.003, 0.248, -2.828, 1
315976, -3.969, -0.661, 0.742, 0.188, 0.376, -2.638, 1
315996, -3.838, -0.302, 0.553, 0.329, 0.428, -2.475, 1
316016, -4.062, 0.23, 0.386, 0.447, 0.466, -2.28, 1
316036, -3.229, -0.397, -0.205, 0.543, 0.456, -2.023, 1
316056, -2.89, -0.523, -0.449, 0.476, 0.257, -1.863, 1
316076, -3.134, -0.205, -0.675, 0.362, 0.087, -1.782, 1
316096, -3.281, 0.211, -0.865, 0.362, 0.098, -1.628, 1
316116, -3.116, 0.226, -1.039, 0.455, 0.269, -1.465, 1
316136, -2.398, 0.178, -1.014, 0.53, 0.372, -1.331, 1
316156, -2.035, 0.179, -1.069, 0.569, 0.315, -1.339, 1
316176, -2.374, 0.407, -1.02, 0.614, 0.265, -1.324, 1
316196, -2.507, 0.362, -0.962, 0.588, 0.285, -0.786, 1
316216, -1.861, -0.01, -0.95, 0.373, 0.199, -0.604, 1
316236, -1.783, 0.059, -0.776, 0.268, 0.131, -0.489, 1
316256, -1.779, 0.027, -0.839, 0.129, 0.183, -0.266, 1
316276, -1.469, 0.213, -0.609, 0.032, 0.215, -0.098, 1
316296, -1.056, 0.17, -0.371, -0.001, 0.182, 0.036, 1
316316, -0.201, -0.173, -0.207, -0.037, 0.033, 0.084, 1
316336, 0.209, -0.336, -0.12, -0.035, -0.056, 0.066, 1
316356, 0.102, -0.379, -0.17, -0.069, 0.048, 0.08, 1
316376, 0.46, -0.533, -0.167, -0.148, 0.1, 0.12, 1
316396, 0.44, -0.341, -0.126, -0.161, 0.068, 0.169, 1
316416, 0.541, -0.236, -0.106, -0.082, 0.021, 0.167, 1
316436, 0.261, -0.244, 0.061, -0.013, 0.081, 0.168, 1
316456, 0.263, -0.389, 0.074, -0.023, 0.193, 0.194, 1
316476, 0.465, -0.394, 0.253, -0.001, 0.159, 0.222, 1
316496, 0.756, -0.551, 0.065, 0.031, -0.007, 0.169, 1
316516, 0.013, -0.306, -0.401, -0.001, 0.045, 0.284, 0
316536, -0.718, -0.116, -0.697, -0.105, 0.311, 0.49, 0
316556, -0.285, -0.403, -0.719, -0.245, 0.453, 0.464, 0
316576, 0.141, -0.385, -0.483, -0.37, 0.414, 0.451, 0
316596, 0.52, -0.522, -0.252, -0.458, 0.24, 0.342, 0
316616, -0.029, -0.137, -0.102, -0.4, 0.194, 0.283, 0
316636, -0.119, -0.003, 0.127, -0.264, 0.154, 0.264, 0
316656, -0.351, -0.053, 0.013, -0.24, 0.062, 0.235, 0
316676, -0.718, 0.106, -0.143, -0.186, -0.056, 0.243, 0
316696, -2.311, 0.742, -0.86, -0.161, -0.131, 0.318, 0
316716, -2.909, 0.909, -0.932, -0.188, -0.128, 0.51, 0
316736, -3.415, 1.19, -0.867, -0.265, -0.079, 0.742, 0
316756, -4.171, 1.553, -0.706, -0.312, -0.046, 0.99, 0
316776, -4.842, 1.62, -0.604, -0.346, 0.024, 1.277, 0
316796, -5.468, 1.75, -0.626, -0.295, 0.186, 1.652, 0
316816, -5.117, 1.159, -0.899, -0.263, 0.313, 2.05, 0
316836, -4.309, 0.152, -1.239, -0.42, 0.131, 2.394, 0
316856, -3.662, -0.785, -1.507, -0.791, -0.177, 2.651, 0
316876, -3.576, -0.948, -1.367, -1.02, -0.321, 2.885, 0
316896, -3.593, -0.943, -1.159, -0.993, -0.211, 3.09, 0
316916, -3.13, -1.19, -0.725, -0.808, -0.028, 3.348, 0
316936, -2.534, -1.96, -0.419, -0.692, -0.004, 3.533, 0
316956, -2.071, -2.352, -0.338, -0.694, -0.159, 3.642, 0
316976, -2.264, -2.735, -0.553, -0.691, -0.261, 3.728, 0
316996, -1.921, -3.099, -0.402, -0.562, -0.103, 3.852, 0
317016, -1.323, -3.787, -0.264, -0.362, 0.13, 3.902, 0
317036, -0.387, -5.01, -0.593, -0.346, 0.361, 3.87, 0
317056, 0.785, -5.324, -0.487, -0.402, 0.389, 3.789, 0
317076, 0.877, -5.351, -0.186, -0.382, 0.288, 3.624, 0
317096, 0.936, -4.925, 0.678, -0.251, 0.334, 3.508, 0
317116, 1.13, -5.817, 0.631, 0.028, 0.381, 3.354, 0
317136, 1.962, -6.012, 0.572, -0.005, 0.605, 3.115, 0
317156, 3.356, -6.55, 0.428, 0.018, 0.571, 2.587, 0
317176, 4.079, -6.323, 0.352, -0.207, 0.147, 2.092, 0
317196, 4.391, -5.598, 0.427, -0.24, -0.099, 1.523, 0
317216, 4.024, -4.805, 0.088, -0.23, -0.299, 1.028, 0
317236, 3.128, -3.811, -0.142, -0.251, -0.315, 0.646, 0
317256, 2.301, -2.801, -0.054, -0.238, -0.182, 0.428, 0
317276, 1.683, -2.057, -0.009, -0.217, -0.069, 0.306, 0
317296, 1.198, -1.368, 0.025, -0.167, -0.034, 0.18, 0
317316, 0.816, -0.977, 0.247, -0.113, -0.011, 0.133, 0
317336, 0.683, -0.744, 0.377, -0.068, 0.013, 0.047, 0
317356, 0.369, -0.522, -0.083, -0.093, -0.029, -0.008, 0
317376, 0.075, -0.133, -0.305, -0.129, -0.085, -0.051, 0
317396, -0.297, 0.112, -0.287, -0.128, -0.044, -0.026, 0
317416, -0.368, 0.134, -0.361, -0.086, 0.075, 0.023, 0
317436, -0.177, -0.028, -0.312, -0.05, 0.107, 0.037, 0
317456, 0.142, -0.137, -0.123, 0.014, -0.008, -0.009, 1
317476, 0.015, -0.517, -0.402, -0.065, -0.051, -0.021, 1
317496, 0.009, -0.438, -0.676, -0.27, -0.072, 0.018, 1
317516, -0.748, -0.015, -0.507, -0.318, 0.033, 0.072, 1
317536, -0.677, 0.32, -0.117, -0.119, 0.124, 0.081, 1
317556, -0.472, 0.268, 0.088, 0.048, 0.117, 0.067, 1
317576, -0.134, -0.195, 0.184, 0.057, 0.05, 0.058, 1
317596, 0.0, -0.409, -0.059, -0.066, 0.025, -0.005, 1
317616, -0.077, -0.185, -0.243, -0.136, -0.012, 0.004, 1
317636, -0.101, -0.054, -0.136, -0.149, -0.01, 0.016, 1
317656, 0.186, -0.173, -0.049, -0.059, -0.048, -0.013, 1
317676, 0.89, -0.842, -0.439, -0.042, -0.087, -0.084, 1
317696, 0.938, -0.848, -0.692, -0.108, -0.125, -0.178, 1
317716, 1.199, -1.191, -0.887, -0.166, -0.135, -0.267, 1
317736, 1.743, -1.621, -0.958, -0.164, -0.069, -0.4, 1
317756, 2.283, -1.851, -0.933, -0.128, -0.035, -0.618, 1
317776, 2.385, -2.283, -1.05, -0.128, -0.137, -0.874, 1
317796, 2.473, -2.859, -1.187, -0.246, -0.194, -1.134, 1
317816, 2.845, -3.502, -1.013, -0.342, -0.193, -1.365, 1
317836, 3.073, -4.208, -0.869, -0.415, -0.232, -1.696, 1
317856, 2.57, -4.051, -0.687, -0.535, -0.293, -2.127, 1
317876, 1.843, -3.895, -0.376, -0.643, -0.427, -2.47, 1
317896, 1.206, -3.531, 0.137, -0.775, -0.529, -2.681, 1
317916, 1.126, -3.585, 0.226, -0.803, -0.543, -2.808, 1
317936, 0.274, -3.323, -0.253, -0.805, -0.541, -3.078, 1
317956, -0.89, -2.691, -0.417, -0.841, -0.423, -3.29, 1
317976, -1.9, -1.9, 0.175, -0.8, -0.249, -3.323, 1
317996, -2.274, -1.84, 0.7, -0.671, -0.026, -3.115, 1
318016, -2.285, -2.023, 1.189, -0.57, 0.233, -3.032, 1
318036, -2.731, -1.742, 1.155, -0.408, 0.404, -3.068, 1
318056, -3.279, -1.488, 1.053, -0.194, 0.414, -2.999, 1
318076, -3.039, -1.937, 0.809, -0.175, 0.428, -2.849, 1
318096, -2.708, -1.924, 0.926, -0.368, 0.375, -2.754, 1
318116, -3.051, -1.244, 1.388, -0.414, 0.373, -2.705, 1
318136, -3.127, -0.882, 1.527, -0.063, 0.48, -2.591, 1
318156, -3.329, -0.499, 1.311, 0.248, 0.522, -2.506, 1
318176, -3.938, -0.201, 1.02, 0.435, 0.717, -2.326, 1
318196, -3.944, -0.156, 0.75, 0.55, 0.96, -2.087, 1
318216, -3.752, 0.261, 0.197, 0.642, 0.982, -1.935, 1
318236, -4.054, 0.965, -0.299, 0.738, 0.897, -1.725, 1
318256, -3.375, 0.891, -0.595, 0.798, 0.681, -1.526, 1
318276, -3.276, 0.688, -0.909, 0.733, 0.537, -1.403, 1
318296, -3.298, 0.601, -1.159, 0.638, 0.543, -1.162, 1
318316, -3.127, 0.706, -1.228, 0.519, 0.547, -0.872, 1
318336, -2.68, 0.564, -1.059, 0.387, 0.503, -0.659, 1
318356, -2.217, 0.535, -0.718, 0.263, 0.431, -0.435, 1
318376, -1.59, 0.254, -0.562, 0.111, 0.289, -0.324, 1
318396, -1.446, 0.318, -0.321, 0.064, 0.235, -0.248, 1
318416, -1.044, 0.039, -0.146, 0.06, 0.267, -0.165, 1
318436, -0.422, -0.142, 0.109, 0.069, 0.226, -0.132, 1
318456, -0.111, -0.103, 0.247, 0.104, 0.064, 0.045, 1
318476, 0.014, -0.183, 0.027, 0.01, -0.106, 0.127, 1
318496, -0.163, 0.022, -0.154, 0.018, -0.135, 0.136, 1
318516, 0.123, -0.199, -0.561, 0.097, -0.002, 0.125, 1
318536, 0.465, -0.428, -1.035, 0.056, 0.047, 0.162, 1
318556, 0.968, -0.465, -0.739, 0.051, -0.078, 0.153, 1
318576, 0.811, -0.547, -0.661, -0.025, -0.135, 0.113, 1
318596, 0.582, -0.403, -0.525, -0.032, -0.111, 0.058, 1
318616, 0.403, -0.305, -0.406, 0.014, -0.04, 0.004, 1
318636, 0.079, -0.242, -0.011, 0.036, 0.1, 0.056, 1
318656, 0.129, -0.135, 0.117, 0.092, 0.049, 0.022, 1
318676, 0.141, -0.377, 0.038, 0.102, 0.01, 0.021, 1
318696, 0.085, -0.165, 0.047, 0.103, 0.022, -0.01, 1
318716, 0.024, -0.241, -0.043, 0.185, 0.01, 0.018, 1
318736, -0.254, -0.225, -0.425, 0.155, 0.093, 0.007, 0
318756, 0.02, 0.022, -0.089, 0.145, 0.239, 0.067, 0
318776, 0.082, -0.303, -0.375, 0.092, 0.172, 0.057, 0
318796, 0.09, -0.029, -0.28, -0.095, 0.067, 0.037, 0
318816, -0.08, 0.016, -0.345, -0.074, -0.042, 0.037, 0
318836, -0.325, -0.098, -0.637, -0.147, -0.029, 0.098, 0
318856, -0.436, 0.003, -0.597, -0.304, 0.048, 0.158, 0
318876, -0.379, 0.086, -0.42, -0.417, 0.149, 0.178, 0
318896, -0.183, 0.059, -0.184, -0.388, 0.155, 0.158, 0
318916, -0.193, 0.018, -0.166, -0.279, 0.085, 0.131, 0
318936, -0.605, 0.001, -0.403, -0.203, 0.037, 0.121, 0
318956, -0.754, -0.04, -0.504, -0.25, 0.04, 0.222, 0
318976, -1.117, 0.294, -0.501, -0.371, 0.042, 0.334, 0
318996, -1.798, 0.756, -0.628, -0.367, 0.023, 0.437, 0
319016, -2.679, 1.148, -0.707, -0.361, 0.011, 0.585, 0
319036, -3.322, 1.404, -0.345, -0.373, 0.058, 0.816, 0
319056, -3.86, 1.412, -0.266, -0.368, 0.123, 1.107, 0
319076, -4.046, 1.34, -0.208, -0.389, 0.119, 1.416, 0
319096, -4.301, 0.976, -0.321, -0.412, 0.058, 1.743, 0
319116, -4.072, 0.505, -0.483, -0.524, -0.114, 2.213, 0
319136, -4.088, -0.012, -0.607, -0.658, -0.311, 2.485, 0
319156, -4.362, -0.222, -0.55, -0.659, -0.374, 2.809, 0
319176, -4.222, -0.885, -0.508, -0.632, -0.316, 3.131, 0
319196, -3.406, -1.404, -0.254, -0.491, -0.384, 3.34, 0
319216, -3.318, -1.955, -0.411, -0.343, -0.397, 3.527, 0
319236, -2.925, -3.033, -0.83, -0.357, -0.182, 3.635, 0
319256, -2.371, -3.616, -1.224, -0.502, 0.093, 3.681, 0
319276, -1.682, -3.446, -1.064, -0.359, 0.298, 3.799, 0
319296, -0.618, -3.672, -0.621, -0.078, 0.156, 3.796, 0
319316, -0.008, -4.272, -0.439, 0.046, -0.149, 3.675, 0
319336, -0.121, -5.124, -0.669, -0.111, -0.246, 3.494, 0
319356, -0.679, -5.006, -0.8, -0.292, 0.269, 3.41, 0
319376, 0.037, -4.744, -0.311, -0.04, 0.794, 3.417, 0
319396, 1.577, -5.421, 0.258, 0.373, 0.925, 3.283, 0
319416, 3.027, -6.405, 0.471, 0.477, 0.654, 2.894, 0
319436, 3.692, -6.583, 0.154, 0.21, 0.202, 2.35, 0
319456, 2.941, -5.561, -0.506, -0.15, -0.097, 1.905, 0
319476, 1.873, -4.086, -0.494, -0.252, -0.053, 1.656, 0
319496, 1.58, -3.238, -0.019, -0.036, 0.135, 1.509, 0
319516, 2.381, -3.373, 0.161, 0.127, 0.19, 1.225, 0
319536, 2.855, -3.609, -0.059, 0.015, -0.016, 0.852, 0
319556, 2.246, -3.177, -0.406, -0.167, -0.227, 0.536, 0
319576, 1.625, -2.339, -0.098, -0.227, -0.235, 0.367, 0
319596, 1.157, -1.628, 0.354, -0.179, -0.154, 0.219, 0
319616, 0.703, -1.175, 0.094, -0.06, -0.079, 0.145, 0
319636, 0.329, -0.644, -0.126, -0.07, -0.035, 0.087, 0
319656, 0.059, -0.386, -0.364, -0.128, 0.021, 0.072, 0
319676, -0.104, -0.317, -0.406, -0.193, 0.09, 0.094, 0
319696, 0.193, -0.32, 0.074, -0.169, 0.111, 0.069, 0
319716, 0.119, -0.398, -0.023, -0.114, 0.053, -0.001, 1
319736, -0.495, -0.144, -0.473, -0.152, 0.048, -0.006, 1
319756, -1.197, 0.233, -0.455, -0.257, 0.162, 0.032, 1
319776, -0.828, 0.288, -0.309, -0.244, 0.322, 0.135, 1
319796, -0.158, -0.126, 0.071, -0.185, 0.277, 0.155, 1
319816, -0.152, -0.07, 0.098, -0.064, 0.077, 0.083, 1
319836, -0.211, -0.132, -0.069, 0.051, -0.001, 0.033, 1
319856, -0.282, -0.328, -0.227, 0.03, 0.009, 0.003, 1
319876, -0.135, -0.156, -0.126, -0.059, 0.051, 0.0, 1
319896, 0.198, -0.233, -0.099, -0.092, 0.007, -0.006, 1
319916, 0.375, -0.305, -0.081, -0.067, -0.098, -0.049, 1
319936, 0.31, -0.443, -0.394, 0.0, -0.157, -0.113, 1
319956, 0.554, -0.871, -0.769, -0.024, -0.119, -0.178, 1
319976, 1.033, -1.242, -0.974, -0.133, -0.069, -0.284, 1
319996, 1.466, -1.386, -0.803, -0.201, -0.064, -0.431, 1
320016, 1.677, -1.584, -0.57, -0.185, -0.117, -0.611, 1
320036, 1.905, -2.064, -0.581, -0.196, -0.16, -0.813, 1
320056, 2.206, -2.511, -0.748, -0.243, -0.194, -1.041, 1
320076, 2.373, -3.16, -0.924, -0.296, -0.196, -1.291, 1
320096, 2.434, -3.565, -0.726, -0.525, -0.166, -1.762, 1
320116, 2.427, -3.991, -0.312, -0.695, -0.292, -2.104, 1
320136, 2.166, -3.869, 0.409, -0.778, -0.55, -2.516, 1
320156, 1.138, -3.04, 0.394, -0.737, -0.8, -2.802, 1
320176, -0.138, -2.697, -0.228, -0.751, -0.783, -2.871, 1
320196, -0.831, -2.804, -0.599, -0.83, -0.464, -2.927, 1
320216, -1.269, -2.29, -0.155, -0.784, -0.076, -2.965, 1
320236, -1.162, -2.241, 0.35, -0.652, 0.147, -3.036, 1
320256, -0.964, -2.544, 0.784, -0.505, 0.181, -3.12, 1
320276, -1.227, -2.478, 0.975, -0.446, 0.054, -3.183, 1
320296, -1.984, -1.932, 0.88, -0.372, -0.178, -3.167, 1
320316, -2.874, -1.856, 0.745, -0.433, -0.236, -3.109, 1
320336, -3.254, -1.492, 0.698, -0.387, -0.085, -3.007, 1
320356, -3.451, -1.556, 0.647, -0.33, 0.268, -2.902, 1
320376, -3.597, -0.784, 1.042, -0.11, 0.621, -2.708, 1
320396, -3.73, -0.09, 1.297, 0.254, 0.748, -2.549, 1
320416, -3.748, -0.281, 1.03, 0.417, 0.69, -2.381, 1
320436, -4.193, -0.488, 0.786, 0.272, 0.7, -2.235, 1
320456, -4.424, -0.003, 0.731, 0.149, 0.687, -2.004, 1
320476, -4.323, 0.54, 0.952, 0.266, 0.623, -1.81, 1
320496, -4.166, 0.585, 0.493, 0.495, 0.525, -1.576, 1
320516, -4.133, 0.523, -0.16, 0.557, 0.494, -1.337, 1
320536, -4.225, 0.804, -0.444, 0.496, 0.576, -1.098, 1
320556, -3.413, 0.86, -0.771, 0.499, 0.47, -0.84, 1
320576, -2.483, 0.577, -1.02, 0.388, 0.185, -0.627, 1
320596, -2.353, 0.412, -1.296, 0.221, 0.142, -0.505, 1
320616, -1.609, 0.285, -1.003, 0.092, 0.246, -0.318, 1
320636, -1.173, 0.024, -0.848, 0.045, 0.251, -0.218, 1
320656, -0.805, 0.042, -0.44, 0.05, 0.201, -0.181, 1
320676, -0.705, 0.051, -0.316, 0.116, 0.155, -0.149, 1
320696, -0.557, -0.216, -0.362, 0.117, 0.147, -0.064, 1
320716, -0.426, -0.437, -0.443, 0.034, 0.158, -0.034, 1
320736, -0.293, -0.57, -0.609, -0.073, 0.222, -0.006, 1
320756, -0.007, -0.379, -0.448, -0.194, 0.235, 0.026, 1
320776, 0.041, -0.245, -0.22, -0.188, 0.186, 0.051, 1
320796, 0.094, -0.434, -0.266, -0.163, 0.18, 0.086, 1
320816, 0.125, -0.402, -0.262, -0.167, 0.208, 0.068, 1
320836, 0.121, -0.36, -0.19, -0.159, 0.23, 0.086, 0
320856, -0.219, -0.215, 0.143, -0.118, 0.215, 0.077, 0
320876, 0.205, -0.066, 0.402, 0.056, 0.186, 0.056, 0
320896, 0.092, -0.163, 0.534, 0.232, 0.102, 0.021, 0
320916, -0.112, -0.208, 0.413, 0.29, 0.042, -0.041, 0
320936, -0.237, -0.267, 0.14, 0.232, 0.036, -0.042, 0
320956, -0.243, -0.405, -0.27, -0.004, 0.047, 0.049, 0
320976, -0.118, -0.23, -0.476, -0.263, 0.046, 0.108, 0
320996, -0.057, -0.03, -0.553, -0.304, 0.048, 0.145, 0
321016, -0.05, -0.024, -0.656, -0.204, 0.069, 0.132, 0
321036, 0.004, -0.021, -0.629, -0.149, 0.103, 0.144, 0
321056, -0.102, -0.039, -0.541, -0.158, 0.097, 0.135, 0
321076, -0.134, -0.005, -0.333, -0.213, 0.128, 0.128, 0
321096, -0.188, 0.044, -0.127, -0.197, 0.101, 0.131, 0
321116, -0.463, 0.074, -0.098, -0.18, 0.075, 0.148, 0
321136, -1.014, 0.281, -0.236, -0.15, 0.119, 0.207, 0
321156, -1.355, 0.428, -0.343, -0.089, 0.133, 0.298, 0
321176, -2.035, 0.566, -0.487, -0.086, 0.24, 0.483, 0
321196, -2.721, 0.732, -0.37, -0.074, 0.494, 0.689, 0
321216, -3.76, 1.347, -0.174, 0.063, 0.844, 0.974, 0
321236, -4.344, 1.731, 0.104, 0.207, 1.032, 1.29, 0
321256, -4.797, 1.887, 0.0, 0.25, 0.968, 1.652, 0
321276, -4.814, 1.53, -0.566, 0.066, 0.62, 2.004, 0
321296, -4.907, 0.911, -1.665, -0.359, 0.32, 2.355, 0
321316, -4.98, 0.637, -2.421, -0.665, 0.196, 2.703, 0
321336, -4.659, 0.086, -2.403, -0.724, 0.301, 3.046, 0
321356, -3.532, -0.943, -1.941, -0.7, 0.356, 3.27, 0
321376, -2.322, -1.883, -1.845, -0.868, 0.046, 3.301, 0
321396, -2.14, -2.128, -1.94, -1.162, -0.349, 3.342, 0
321416, -2.427, -2.149, -1.808, -1.257, -0.381, 3.428, 0
321436, -2.401, -2.195, -1.649, -1.065, -0.032, 3.601, 0
321456, -1.024, -2.753, -1.159, -0.81, 0.072, 3.631, 0
321476, 0.149, -3.765, -0.531, -0.792, -0.243, 3.483, 0
321496, 0.033, -4.378, -0.455, -1.05, -0.455, 3.345, 0
321516, -0.287, -3.766, 0.004, -0.833, -0.35, 3.326, 0
321536, -0.492, -4.444, 0.073, -0.54, 0.178, 3.313, 0
321556, 1.044, -5.278, 0.525, -0.507, 0.093, 3.047, 0
321576, 1.613, -5.531, 1.47, -0.456, -0.102, 2.821, 0
321596, 2.179, -5.504, 1.663, -0.272, 0.122, 2.583, 0
321616, 3.417, -5.919, 1.319, 0.055, 0.164, 2.284, 0
321636, 3.357, -5.424, 0.394, 0.1, -0.095, 1.836, 0
321656, 2.77, -4.446, -0.05, -0.027, -0.306, 1.426, 0
321676, 2.332, -3.695, -0.077, -0.059, -0.24, 1.155, 0
321696, 2.327, -3.247, 0.165, -0.006, -0.058, 0.912, 0
321716, 2.07, -2.73, 0.308, -0.01, -0.019, 0.644, 0
321736, 1.783, -2.282, 0.448, -0.032, -0.032, 0.458, 0
321756, 1.562, -1.681, 0.439, -0.056, -0.067, 0.302, 0
321776, 1.062, -1.04, 0.156, -0.084, -0.132, 0.186, 0
321796, 0.465, -0.523, -0.057, -0.141, -0.147, 0.129, 0
321816, 0.144, -0.084, -0.017, -0.102, -0.084, 0.094, 0
321836, 0.01, 0.009, -0.295, -0.042, 0.052, 0.105, 0
321856, 0.052, 0.023, -0.545, -0.025, 0.177, 0.133, 0
321876, 0.049, -0.071, -0.627, -0.028, 0.183, 0.137, 0
321896, 0.042, -0.018, -0.457, -0.095, 0.166, 0.124, 0
321916, 0.102, -0.086, -0.299, -0.092, 0.174, 0.092, 0
321936, 0.051, -0.122, -0.291, -0.07, 0.202, 0.039, 0
321956, -0.111, -0.206, -0.442, -0.055, 0.243, -0.036, 1
321976, -0.379, -0.228, -0.737, -0.096, 0.4, -0.049, 1
321996, -0.291, -0.162, -0.775, -0.195, 0.517, 0.057, 1
322016, -0.019, -0.031, -0.369, -0.353, 0.445, 0.069, 1
322036, -0.061, 0.16, 0.008, -0.26, 0.312, -0.007, 1
322056, -0.187, -0.028, -0.011, -0.114, 0.188, -0.058, 1
322076, -0.282, 0.05, -0.056, -0.018, 0.144, -0.047, 1
322096, -0.307, -0.12, -0.095, -0.063, 0.125, -0.005, 1
322116, -0.065, -0.167, 0.097, -0.1, 0.095, -0.062, 1
322136, 0.05, -0.133, 0.11, -0.084, 0.015, -0.061, 1
322156, 0.202, -0.144, 0.055, -0.004, -0.051, -0.111, 1
322176, 0.154, -0.235, -0.168, 0.001, -0.119, -0.108, 1
322196, 0.149, -0.255, -0.224, -0.043, -0.142, -0.127, 1
322216, 0.128, -0.333, -0.332, -0.092, -0.056, -0.169, 1
322236, 0.438, -0.536, -0.384, -0.076, 0.04, -0.224, 1
322256, 1.22, -1.228, -0.539, -0.08, 0.069, -0.414, 1
322276, 1.883, -1.887, -0.743, -0.155, 0.011, -0.64, 1
322296, 2.24, -2.191, -0.593, -0.232, -0.098, -0.9, 1
322316, 2.475, -2.368, -0.401, -0.303, -0.186, -1.193, 1
322336, 2.795, -2.766, -0.342, -0.321, -0.315, -1.513, 1
322356, 2.861, -3.357, -0.621, -0.325, -0.372, -1.846, 1
322376, 2.737, -3.908, -0.824, -0.323, -0.288, -2.251, 1
322396, 2.412, -3.882, -0.53, -0.273, -0.147, -2.662, 1
322416, 2.152, -4.068, -0.345, -0.218, -0.007, -3.043, 1
322436, 1.778, -4.157, -0.374, -0.197, -0.001, -3.171, 1
322456, 1.183, -4.198, -0.338, -0.238, -0.114, -3.342, 1
322476, 0.51, -3.982, -0.103, -0.383, -0.337, -3.553, 1
322496, -0.396, -3.625, 0.148, -0.535, -0.506, -3.783, 1
322516, -1.776, -2.821, 0.444, -0.526, -0.392, -3.877, 1
322536, -3.484, -1.929, 0.691, -0.185, 0.098, -3.506, 1
322556, -4.618, -1.412, 0.407, -0.103, 0.235, -3.436, 1
322576, -4.74, -1.362, 0.476, -0.091, 0.231, -3.224, 1
322596, -4.813, -1.073, 0.69, -0.115, 0.29, -3.032, 1
322616, -4.926, -0.772, 0.931, -0.116, 0.423, -2.754, 1
322636, -5.017, -0.172, 1.253, -0.026, 0.654, -2.504, 1
322656, -4.805, 0.175, 1.353, 0.215, 0.839, -2.251, 1
322676, -4.088, -0.274, 1.056, 0.458, 0.864, -2.044, 1
322696, -3.68, -0.378, 0.781, 0.558, 0.684, -1.919, 1
322716, -3.535, -0.184, 0.564, 0.576, 0.417, -1.822, 1
322736, -3.522, -0.06, 0.089, 0.607, 0.182, -1.679, 1
322756, -3.807, -0.101, -0.417, 0.593, 0.129, -1.475, 1
322776, -3.414, -0.02, -0.731, 0.56, 0.171, -1.261, 1
322796, -3.13, 0.109, -1.104, 0.613, 0.136, -1.134, 1
322816, -3.198, 0.164, -1.47, 0.626, 0.092, -1.012, 1
322836, -3.391, 0.27, -1.704, 0.46, 0.229, -0.761, 1
322856, -3.095, 0.326, -1.53, 0.196, 0.452, -0.48, 1
322876, -2.478, 0.454, -1.116, 0.017, 0.536, -0.288, 1
322896, -1.643, 0.49, -0.618, 0.021, 0.396, -0.135, 1
322916, -0.849, 0.015, -0.501, 0.134, 0.099, -0.013, 1
322936, -0.298, -0.715, -0.661, 0.106, -0.191, 0.044, 1
322956, -0.228, -0.837, -0.748, -0.097, -0.238, 0.073, 1
322976, 0.019, -0.625, -0.528, -0.196, -0.065, 0.106, 1
322996, 0.292, -0.549, -0.252, -0.09, 0.102, 0.075, 1
323016, 0.214, -0.424, -0.03, 0.061, 0.195, 0.073, 1
323036, 0.085, -0.457, 0.053, 0.067, 0.242, 0.116, 1
323056, 0.025, -0.454, 0.055, -0.009, 0.232, 0.156, 0
323076, 0.456, -0.566, -0.004, -0.106, 0.131, 0.119, 0
323096, -0.077, -0.197, 0.0, -0.062, 0.076, 0.074, 0
323116, -0.117, 0.012, -0.041, 0.098, 0.048, 0.043, 0
323136, -0.404, -0.122, -0.216, 0.147, 0.165, 0.097, 0
323156, 0.036, -0.263, -0.353, 0.083, 0.167, 0.16, 0
323176, 0.287, -0.6, -0.553, -0.152, 0.018, 0.152, 0
323196, -0.194, -0.207, -0.537, -0.276, -0.009, 0.169, 0
323216, -0.346, -0.068, -0.613, -0.328, 0.147, 0.222, 0
323236, -0.135, -0.114, -0.485, -0.348, 0.226, 0.258, 0
323256, 0.133, -0.106, -0.157, -0.262, 0.125, 0.194, 0
323276, 0.052, -0.016, 0.079, -0.116, 0.026, 0.111, 0
323296, -0.279, -0.125, 0.076, -0.08, 0.048, 0.12, 0
323316, -0.253, -0.017, 0.305, -0.058, 0.04, 0.142, 0
323336, -0.579, 0.0, 0.081, -0.075, -0.003, 0.174, 0
323356, -1.111, 0.232, -0.241, -0.062, -0.021, 0.249, 0
323376, -1.428, 0.265, -0.526, -0.075, -0.027, 0.343, 0
323396, -2.049, 0.448, -0.939, -0.14, 0.003, 0.465, 0
323416, -2.945, 0.834, -1.148, -0.256, 0.114, 0.657, 0
323436, -3.718, 1.157, -0.923, -0.34, 0.294, 0.937, 0
323456, -4.255, 1.16, -0.599, -0.401, 0.444, 1.246, 0
323476, -4.74, 1.187, -0.778, -0.474, 0.466, 1.56, 0
323496, -5.328, 1.235, -1.375, -0.579, 0.387, 2.15, 0
323516, -5.405, 0.965, -1.553, -0.804, 0.175, 2.549, 0
323536, -4.855, -0.601, -1.484, -1.012, 0.169, 2.903, 0
323556, -4.112, -1.058, -1.256, -1.118, 0.15, 3.22, 0
323576, -3.105, -1.596, -1.017, -1.086, 0.056, 3.459, 0
323596, -2.594, -1.843, -0.729, -1.02, -0.204, 3.592, 0
323616, -2.413, -2.312, -0.535, -0.914, -0.417, 3.725, 0
323636, -2.122, -2.733, -0.562, -0.733, -0.305, 3.844, 0
323656, -0.911, -3.347, -0.494, -0.389, 0.053, 3.976, 0
323676, 0.167, -4.226, -0.43, -0.129, 0.381, 3.953, 0
323696, 1.189, -5.222, -0.277, -0.213, 0.368, 3.805, 0
323716, 1.448, -5.256, 0.054, -0.549, 0.0, 3.579, 0
323736, 1.366, -5.054, 0.235, -0.664, -0.214, 3.379, 0
323756, 1.326, -5.355, 0.455, -0.45, -0.064, 3.208, 0
323776, 2.414, -6.043, 0.764, -0.267, 0.174, 3.043, 0
323796, 3.332, -6.017, 0.899, -0.119, 0.214, 2.763, 0
323816, 3.582, -5.644, 0.669, 0.016, 0.104, 2.299, 0
323836, 3.607, -5.067, 0.464, -0.013, -0.15, 1.881, 0
323856, 3.063, -4.21, 0.195, -0.101, -0.398, 1.474, 0
323876, 2.772, -3.709, -0.28, -0.128, -0.412, 1.149, 0
323896, 2.396, -2.874, -0.22, -0.116, -0.327, 0.89, 0
323916, 1.897, -2.351, -0.152, -0.069, -0.242, 0.651, 0
323936, 1.424, -1.674, 0.076, -0.099, -0.155, 0.502, 0
323956, 1.109, -1.119, 0.252, -0.115, -0.114, 0.402, 0
323976, 0.738, -0.766, 0.043, -0.102, -0.058, 0.335, 0
323996, 0.71, -0.633, -0.049, -0.031, 0.004, 0.231, 0
324016, 0.72, -0.602, -0.295, -0.053, -0.064, 0.145, 0
324036, 0.438, -0.412, -0.633, -0.152, -0.17, 0.064, 0
324056, -0.015, -0.081, -0.783, -0.253, -0.158, 0.045, 0
324076, -0.418, 0.018, -0.62, -0.268, 0.008, 0.097, 0
324096, -0.421, -0.083, -0.285, -0.202, 0.211, 0.15, 0
324116, 0.107, -0.219, 0.075, -0.125, 0.132, 0.085, 0
324136, 0.161, -0.412, 0.052, -0.099, -0.088, 0.021, 0
324156, -0.111, -0.413, -0.272, -0.243, -0.195, 0.0, 1
324176, -0.029, -0.145, -0.448, -0.415, -0.171, 0.095, 1
324196, -0.776, -0.114, -0.47, -0.511, 0.009, 0.163, 1
324216, -0.617, 0.002, -0.257, -0.442, 0.245, 0.163, 1
324236, -0.024, -0.039, -0.16, -0.314, 0.291, 0.094, 1
324256, 0.009, -0.12, 0.01, -0.286, 0.209, -0.001, 1
324276, 0.091, -0.33, 0.147, -0.268, 0.094, -0.082, 1
324296, 0.233, -0.468, -0.095, -0.308, 0.021, -0.172, 1
324316, 0.231, -0.61, -0.246, -0.304, 0.032, -0.219, 1
324336, 0.243, -0.388, -0.343, -0.308, 0.075, -0.27, 1
324356, 0.235, -0.298, -0.292, -0.24, 0.059, -0.363, 1
324376, 0.131, -0.305, -0.263, -0.196, 0.081, -0.433, 1
324396, 0.521, -0.57, -0.349, -0.156, 0.062, -0.477, 1
324416, 1.063, -1.141, -0.599, -0.2, -0.043, -0.583, 1
324436, 1.412, -1.769, -0.827, -0.31, -0.138, -0.806, 1
324456, 1.581, -1.976, -0.813, -0.408, -0.177, -1.074, 1
324476, 1.842, -2.001, -0.787, -0.38, -0.222, -1.477, 1
324496, 3.073, -3.866, -1.58, -0.484, -0.419, -1.765, 1
324516, 3.022, -4.321, -1.358, -0.766, -0.652, -2.217, 1
324536, 1.931, -3.429, -0.86, -1.017, -0.768, -2.706, 1
324556, 0.372, -2.553, -0.601, -1.021, -0.643, -2.973, 1
324576, -0.567, -2.359, -0.405, -0.882, -0.273, -2.974, 1
324596, -1.1, -2.349, 0.03, -0.739, 0.213, -2.896, 1
324616, -1.137, -2.058, 0.792, -0.561, 0.671, -2.88, 1
324636, -1.207, -2.154, 0.904, -0.289, 0.799, -2.977, 1
324656, -2.012, -2.036, 0.994, -0.142, 0.624, -3.095, 1
324676, -2.615, -2.146, 0.975, -0.176, 0.425, -3.139, 1
324696, -3.123, -1.808, 1.23, -0.292, 0.33, -3.009, 1
324716, -3.333, -1.375, 1.1, -0.28, 0.367, -2.946, 1
324736, -4.281, -0.444, 1.241, -0.092, 0.508, -2.867, 1
324756, -4.565, -0.202, 1.426, 0.248, 0.791, -2.618, 1
324776, -3.77, -0.46, 1.22, 0.522, 1.013, -2.374, 1
324796, -2.988, -1.092, 0.776, 0.567, 0.877, -2.183, 1
324816, -2.688, -1.191, 0.322, 0.425, 0.577, -2.183, 1
324836, -3.958, -0.204, 0.517, 0.265, 0.554, -2.174, 1
324856, -4.405, 0.693, 0.915, 0.383, 0.907, -1.899, 1
324876, -3.186, 0.241, 0.458, 0.696, 1.045, -1.602, 1
324896, -2.777, 0.061, -0.377, 0.835, 0.61, -1.502, 1
324916, -3.764, 0.46, -1.096, 0.816, 0.163, -1.467, 1
324936, -4.537, 0.672, -1.708, 0.659, 0.139, -1.249, 1
324956, -4.435, 0.734, -1.855, 0.482, 0.357, -0.695, 1
324976, -3.717, 0.439, -1.883, 0.208, 0.566, -0.392, 1
324996, -2.701, 0.367, -1.486, 0.116, 0.414, -0.229, 1
325016, -2.172, 0.107, -1.327, 0.074, 0.229, -0.155, 1
325036, -1.983, -0.145, -1.169, 0.026, 0.227, -0.008, 1
325056, -1.506, -0.328, -0.773, -0.001, 0.283, 0.101, 1
325076, -0.54, -0.502, -0.448, 0.015, 0.195, 0.145, 1
325096, 0.241, -0.812, -0.354, 0.01, -0.013, 0.092, 1
325116, 0.313, -0.985, -0.224, -0.005, -0.133, -0.003, 1
325136, 0.196, -0.843, -0.272, -0.057, -0.087, -0.026, 1
325156, -0.159, -0.57, -0.252, -0.086, 0.091, 0.023, 1
325176, -0.224, -0.465, -0.213, -0.132, 0.246, 0.084, 1
325196, 0.074, -0.252, -0.172, -0.129, 0.191, 0.121, 1
325216, 0.357, -0.247, -0.048, -0.12, -0.018, 0.031, 0
325236, 0.038, -0.049, -0.024, -0.062, -0.158, -0.001, 0
325256, -0.403, -0.169, -0.272, -0.032, -0.05, 0.022, 0
325276, -0.392, -0.067, -0.02, -0.038, 0.125, 0.047, 0
325296, -0.182, -0.166, 0.1, -0.047, 0.152, 0.084, 0
325316, 0.273, -0.363, 0.07, -0.092, -0.02, 0.059, 0
325336, 0.021, -0.175, 0.054, -0.124, -0.083, 0.039, 0
325356, -0.201, -0.115, -0.096, -0.12, 0.009, 0.06, 0
325376, -0.175, -0.132, -0.185, -0.13, 0.082, 0.092, 0
325396, -0.031, -0.016, -0.062, -0.103, 0.057, 0.087, 0
325416, -0.116, 0.037, -0.074, -0.052, 0.002, 0.084, 0
325436, -0.578, 0.101, -0.163, -0.039, 0.032, 0.115, 0
325456, -1.067, 0.248, -0.243, -0.081, 0.089, 0.24, 0
325476, -1.16, 0.157, -0.246, -0.114, 0.062, 0.366, 0
325496, -1.363, 0.182, -0.183, -0.158, -0.001, 0.466, 0
325516, -1.81, 0.326, -0.16, -0.161, 0.009, 0.587, 0
325536, -2.455, 0.587, -0.096, -0.131, 0.084, 0.723, 0
325556, -3.005, 0.919, 0.216, -0.069, 0.197, 0.927, 0
325576, -3.541, 0.934, 0.359, 0.028, 0.282, 1.149, 0
325596, -3.692, 0.825, 0.396, 0.062, 0.272, 1.425, 0
325616, -3.242, 0.135, 0.014, -0.025, 0.067, 1.701, 0
325636, -3.24, -0.018, -0.53, -0.235, -0.253, 1.911, 0
325656, -3.898, 0.35, -1.04, -0.245, -0.315, 2.141, 0
325676, -4.246, 0.263, -1.347, -0.05, -0.024, 2.489, 0
325696, -3.846, -0.422, -1.351, 0.153, 0.23, 2.846, 0
325716, -2.87, -1.455, -1.479, 0.091, 0.188, 3.117, 0
325736, -2.464, -2.015, -1.546, -0.214, -0.204, 3.258, 0
325756, -2.836, -2.042, -1.476, -0.453, -0.537, 3.375, 0
325776, -2.929, -2.38, -1.697, -0.452, -0.408, 3.569, 0
325796, -2.349, -2.828, -1.444, -0.284, 0.027, 3.816, 0
325816, -1.59, -3.66, -1.396, -0.105, 0.39, 3.9, 0
325836, -0.942, -4.43, -1.151, -0.1, 0.574, 3.975, 0
325856, -0.124, -4.726, -1.003, -0.254, 0.584, 3.997, 0
325876, 0.048, -4.25, -0.402, -0.335, 0.511, 3.974, 0
325896, -0.117, -3.999, 0.46, -0.086, 0.67, 4.002, 0
325916, 0.963, -6.022, 0.795, 0.441, 0.973, 3.971, 0
325936, 2.787, -7.384, 0.544, -0.033, 1.122, 3.398, 0
325956, 4.057, -7.197, 0.803, -0.326, 0.667, 2.99, 0
325976, 5.145, -6.907, 1.325, -0.362, 0.184, 2.443, 0
325996, 5.085, -5.934, 1.697, -0.205, -0.171, 1.86, 0
326016, 4.233, -4.903, 1.579, -0.042, -0.296, 1.365, 0
326036, 3.445, -4.37, 0.586, 0.004, -0.183, 0.981, 0
326056, 2.966, -3.826, -0.185, -0.05, -0.092, 0.652, 0
326076, 2.493, -3.201, -0.345, -0.145, -0.029, 0.381, 0
326096, 1.868, -2.561, -0.126, -0.191, 0.032, 0.208, 0
326116, 1.268, -1.853, 0.326, -0.172, 0.057, 0.09, 0
326136, 0.751, -1.123, 0.74, -0.125, 0.012, 0.028, 0
326156, 0.327, -0.594, 0.746, -0.076, -0.076, -0.013, 0
326176, 0.081, -0.58, 0.229, -0.119, -0.175, -0.042, 0
326196, -0.249, -0.375, -0.369, -0.22, -0.154, -0.03, 0
326216, -0.299, -0.119, -0.522, -0.202, -0.049, 0.004, 0
326236, -0.125, -0.203, -0.384, -0.138, 0.057, 0.021, 0
326256, 0.224, -0.268, -0.305, -0.073, -0.013, -0.023, 0
326276, 0.275, -0.341, -0.402, -0.031, -0.196, -0.065, 0
326296, 0.036, -0.483, -0.528, -0.049, -0.244, -0.065, 1
326316, -0.58, -0.426, -0.666, -0.114, -0.138, -0.022, 1
326336, -0.418, -0.329, -0.721, -0.177, -0.012, 0.025, 1
326356, -0.298, -0.01, -0.293, -0.135, 0.092, 0.081, 1
326376, 0.051, -0.052, 0.023, -0.037, -0.002, 0.065, 1
326396, 0.038, -0.034, 0.153, 0.048, -0.188, -0.004, 1
326416, -0.09, -0.464, -0.003, -0.05, -0.222, -0.092, 1
326436, -0.082, -0.621, -0.233, -0.314, -0.04, -0.127, 1
326456, 0.054, -0.228, -0.554, -0.364, 0.007, -0.166, 1
326476, 0.153, -0.351, -0.479, -0.375, 0.037, -0.187, 1
326496, 0.624, -0.611, -0.22, -0.364, 0.08, -0.191, 1
326516, 1.299, -1.11, -0.066, -0.296, 0.035, -0.246, 1
326536, 1.864, -1.787, -0.288, -0.246, -0.104, -0.43, 1
326556, 2.04, -2.413, -0.531, -0.269, -0.26, -0.716, 1
326576, 2.135, -2.967, -0.657, -0.372, -0.291, -0.981, 1
326596, 2.328, -3.198, -0.563, -0.467, -0.199, -1.25, 1
326616, 2.382, -3.312, -0.385, -0.474, -0.102, -1.505, 1
326636, 2.163, -3.461, -0.136, -0.479, -0.15, -1.742, 1
326656, 1.743, -3.056, 0.379, -0.514, -0.26, -2.087, 1
326676, 1.403, -2.801, 0.489, -0.473, -0.389, -2.368, 1
326696, 0.433, -2.313, 0.033, -0.398, -0.545, -2.596, 1
326716, -0.237, -2.697, -0.539, -0.378, -0.566, -2.679, 1
326736, -0.606, -2.742, -0.278, -0.543, -0.418, -2.734, 1
326756, -0.825, -2.186, 0.392, -0.692, -0.226, -2.852, 1
326776, -0.934, -2.061, 0.573, -0.574, -0.109, -2.926, 1
326796, -1.907, -1.516, 0.747, -0.394, -0.134, -2.991, 1
326816, -2.336, -1.508, 0.755, -0.26, -0.037, -2.913, 1
326836, -1.989, -1.732, 0.723, -0.297, 0.068, -2.843, 1
326856, -1.913, -1.678, 0.714, -0.426, 0.124, -2.878, 1
326876, -1.939, -1.667, 0.812, -0.439, 0.15, -2.866, 1
326896, -3.067, -0.674, 0.897, -0.309, 0.24, -2.908, 1
326916, -3.951, 0.25, 0.729, 0.16, 0.587, -2.695, 1
326936, -4.085, 0.374, 0.465, 0.425, 0.69, -2.459, 1
326956, -3.86, 0.352, 0.35, 0.472, 0.662, -2.317, 1
326976, -3.518, 0.253, 0.101, 0.373, 0.558, -2.167, 1
326996, -3.251, 0.228, -0.066, 0.2, 0.483, -1.936, 1
327016, -2.988, 0.226, -0.054, 0.07, 0.418, -1.787, 1
327036, -2.418, 0.283, 0.025, 0.136, 0.229, -1.7, 1
327056, -2.547, 0.464, -0.119, 0.268, 0.118, -1.671, 1
327076, -2.776, 0.651, -0.415, 0.465, 0.118, -1.45, 1
327096, -2.693, 0.326, -0.777, 0.518, 0.197, -1.243, 1
327116, -2.423, 0.019, -1.191, 0.362, 0.255, -1.08, 1
327136, -2.337, 0.201, -1.326, 0.204, 0.269, -0.9, 1
327156, -2.114, 0.452, -1.112, 0.131, 0.243, -0.765, 1
327176, -2.073, 0.538, -1.007, 0.093, 0.234, -0.533, 1
327196, -1.786, 0.307, -0.857, -0.029, 0.214, -0.364, 1
327216, -1.431, 0.24, -0.622, -0.119, 0.158, -0.235, 1
327236, -1.192, 0.197, -0.487, -0.125, 0.131, -0.106, 1
327256, -0.867, 0.022, -0.263, -0.136, 0.139, -0.018, 1
327276, -0.135, -0.376, -0.278, -0.206, 0.086, 0.058, 1
327296, 0.253, -0.499, -0.191, -0.24, 0.004, 0.1, 1
327316, 0.562, -0.64, -0.154, -0.238, -0.056, 0.096, 1
327336, 0.502, -0.595, -0.204, -0.196, -0.014, 0.089, 1
327356, 0.495, -0.581, -0.201, -0.203, 0.11, 0.046, 1
327376, 0.412, -0.518, -0.089, -0.208, 0.209, 0.021, 1
327396, 0.37, -0.229, 0.209, -0.086, 0.222, 0.018, 1
327416, 0.297, -0.361, 0.187, 0.041, 0.222, -0.01, 1
327436, 0.278, -0.529, 0.026, -0.038, 0.244, -0.015, 1
327456, 0.352, -0.471, -0.062, -0.241, 0.21, 0.012, 1
327476, 0.017, -0.135, 0.137, -0.307, 0.126, 0.182, 1
327496, 0.075, -0.121, 0.229, -0.194, 0.034, 0.21, 1
327516, -0.198, -0.226, -0.123, -0.065, -0.02, 0.129, 0
327536, -0.308, -0.288, -0.386, -0.111, 0.098, 0.11, 0
327556, -0.361, -0.197, -0.475, -0.213, 0.229, 0.1, 0
327576, -0.115, 0.015, -0.327, -0.259, 0.274, 0.072, 0
327596, -0.203, 0.07, -0.249, -0.138, 0.185, 0.023, 0
327616, -0.419, 0.073, -0.255, -0.07, 0.188, 0.027, 0
327636, -0.928, -0.114, -0.534, -0.124, 0.226, 0.09, 0
327656, -1.354, 0.258, -0.429, -0.299, 0.233, 0.195, 0
327676, -1.796, 0.715, -0.219, -0.29, 0.119, 0.298, 0
327696, -2.339, 1.015, 0.068, -0.166, -0.012, 0.476, 0
327716, -3.396, 1.186, 0.301, -0.034, -0.023, 0.661, 0
327736, -4.161, 1.452, 0.618, 0.028, 0.139, 0.937, 0
327756, -4.807, 1.188, 0.567, 0.078, 0.233, 1.262, 0
327776, -4.954, 0.958, 0.641, 0.019, 0.227, 1.633, 0
327796, -4.587, 0.421, 0.84, -0.032, 0.095, 2.039, 0
327816, -4.575, 0.023, 0.552, -0.069, -0.161, 2.348, 0
327836, -4.871, 0.09, -0.228, -0.065, -0.258, 2.647, 0
327856, -4.706, -0.056, -1.119, 0.104, -0.221, 2.974, 0
327876, -4.001, -1.035, -1.951, 0.244, -0.202, 3.318, 0
327896, -2.897, -2.115, -2.421, 0.054, -0.213, 3.614, 0
327916, -1.938, -3.309, -3.028, -0.323, -0.321, 3.649, 0
327936, -1.845, -3.297, -3.147, -0.709, -0.26, 3.709, 0
327956, -1.477, -2.967, -2.549, -0.726, -0.189, 3.756, 0
327976, -1.154, -2.982, -1.921, -0.525, -0.093, 3.844, 0
327996, -0.645, -3.848, -1.758, -0.283, 0.122, 3.849, 0
328016, -0.132, -4.749, -1.828, -0.299, 0.516, 3.797, 0
328036, 0.528, -5.19, -1.418, -0.455, 0.743, 3.69, 0
328056, 1.249, -5.097, -0.521, -0.623, 0.616, 3.492, 0
328076, 1.333, -4.646, 0.304, -0.626, 0.421, 3.301, 0
328096, 1.395, -4.292, 1.181, -0.273, 0.456, 3.151, 0
328116, 2.008, -4.957, 1.771, 0.018, 0.472, 2.873, 0
328136, 2.595, -5.686, 1.696, -0.113, 0.409, 2.522, 0
328156, 3.19, -5.306, 1.829, -0.244, 0.02, 2.153, 0
328176, 3.317, -4.811, 1.707, -0.266, -0.42, 1.711, 0
328196, 3.156, -4.334, 1.262, -0.216, -0.676, 1.309, 0
328216, 2.586, -3.647, 0.231, -0.161, -0.668, 0.974, 0
328236, 1.91, -3.112, -0.832, -0.127, -0.431, 0.693, 0
328256, 1.497, -2.57, -1.041, -0.121, -0.117, 0.513, 0
328276, 1.479, -1.949, -0.639, -0.11, 0.011, 0.336, 0
328296, 1.081, -1.406, -0.268, -0.135, 0.003, 0.227, 0
328316, 0.617, -0.95, -0.045, -0.136, 0.061, 0.184, 0
328336, 0.447, -0.675, 0.007, -0.08, 0.16, 0.117, 0
328356, 0.288, -0.416, -0.165, -0.066, 0.177, 0.09, 0
328376, 0.109, -0.166, -0.118, -0.04, 0.076, 0.004, 0
328396, -0.48, 0.138, -0.146, 0.003, -0.028, -0.009, 0
328416, -0.448, 0.041, -0.298, 0.065, 0.012, -0.004, 0
328436, -0.239, -0.069, -0.45, 0.079, 0.061, 0.053, 1
328456, -0.49, -0.196, -0.69, 0.024, 0.061, 0.086, 1
328476, -0.624, -0.144, -0.577, -0.153, 0.139, 0.129, 1
328496, -0.318, 0.094, -0.004, -0.177, 0.214, 0.144, 1
328516, 0.019, -0.068, 0.236, -0.04, 0.129, 0.097, 1
328536, -0.037, -0.409, 0.003, -0.01, -0.012, -0.032, 1
328556, -0.199, -0.367, -0.288, -0.085, -0.004, -0.086, 1
328576, -0.016, -0.322, -0.31, -0.121, 0.054, -0.11, 1
328596, 0.076, -0.242, -0.268, -0.141, 0.04, -0.129, 1
328616, 0.146, -0.265, -0.228, -0.155, -0.028, -0.126, 1
328636, 0.24, -0.319, -0.287, -0.149, -0.051, -0.127, 1
328656, 0.677, -0.749, -0.534, -0.136, -0.046, -0.196, 1
328676, 0.883, -0.967, -0.606, -0.178, -0.059, -0.287, 1
328696, 1.222, -1.363, -0.788, -0.207, -0.017, -0.469, 1
328716, 1.635, -1.712, -0.973, -0.268, 0.017, -0.653, 1
328736, 1.863, -2.094, -0.961, -0.296, -0.005, -0.882, 1
328756, 1.94, -2.578, -0.958, -0.346, -0.038, -1.048, 1
328776, 2.401, -3.377, -0.927, -0.413, -0.054, -1.262, 1
328796, 2.523, -3.797, -0.682, -0.467, -0.022, -1.61, 1
328816, 2.215, -3.794, -0.195, -0.497, 0.05, -1.989, 1
328836, 1.693, -3.809, 0.125, -0.51, 0.039, -2.303, 1
328856, 0.985, -3.887, 0.187, -0.472, 0.02, -2.606, 1
328876, 0.468, -3.645, 0.262, -0.359, 0.075, -2.963, 1
328896, 0.159, -3.683, 0.319, -0.441, -0.026, -3.204, 1
328916, -0.069, -3.749, 0.455, -0.606, -0.221, -3.459, 1
328936, -0.931, -3.304, 0.18, -0.695, -0.398, -3.601, 1
328956, -2.229, -2.619, 0.192, -0.725, -0.375, -3.577, 1
328976, -3.068, -2.25, 0.348, -0.756, -0.119, -3.483, 1
328996, -3.34, -1.836, 0.698, -0.654, 0.165, -3.433, 1
329016, -3.657, -1.241, 0.987, -0.376, 0.331, -3.387, 1
329036, -4.192, -0.856, 1.121, -0.107, 0.423, -3.235, 1
329056, -4.681, -0.751, 1.154, 0.039, 0.591, -3.063, 1
329076, -4.958, -0.532, 1.155, 0.16, 0.75, -2.885, 1
329096, -5.041, -0.34, 1.124, 0.318, 0.806, -2.712, 1
329116, -5.308, 0.372, 0.433, 0.497, 0.663, -2.535, 1
329136, -5.843, 0.671, -0.286, 0.533, 0.514, -2.208, 1
329156, -6.461, 1.077, -0.464, 0.398, 0.615, -1.787, 1
329176, -6.127, 1.393, -0.332, 0.321, 0.751, -1.354, 1
329196, -4.56, 0.973, -0.476, 0.328, 0.558, -1.047, 1
329216, -3.647, 0.63, -0.573, 0.313, 0.309, -0.888, 1
329236, -2.681, 0.163, -0.584, 0.28, 0.124, -0.786, 1
329256, -2.121, -0.155, -0.616, 0.227, 0.073, -0.695, 1
329276, -1.962, -0.378, -0.719, 0.079, 0.16, -0.478, 1
329296, -1.476, -0.398, -0.55, -0.014, 0.219, -0.365, 1
329316, -1.07, -0.129, -0.313, 0.072, 0.13, -0.313, 1
329336, -0.973, -0.146, -0.262, 0.149, 0.047, -0.292, 1
329356, -0.756, -0.382, -0.354, 0.12, 0.014, -0.219, 1
329376, -0.294, -0.774, -0.667, 0.006, 0.019, -0.136, 1
329396, -0.296, -0.535, -0.767, -0.062, 0.011, -0.125, 1
329416, -0.315, -0.476, -0.878, -0.078, 0.051, -0.099, 1
329436, -0.421, -0.275, -0.523, -0.105, 0.132, -0.058, 1
329456, -0.275, -0.124, -0.081, -0.063, 0.203, -0.042, 1
329476, -0.099, -0.154, 0.202, -0.005, 0.238, -0.012, 1
329496, 0.27, -0.513, 0.17, 0.032, 0.174, 0.012, 1
329516, 0.256, -0.514, 0.035, -0.001, 0.004, -0.04, 1
329536, -0.017, -0.342, -0.2, 0.032, -0.037, -0.122, 1
329556, -0.275, -0.175, -0.315, 0.069, 0.059, -0.115, 1
329576, -0.222, -0.006, -0.197, 0.073, 0.196, 0.001, 1
329596, 0.078, -0.076, -0.042, 0.139, 0.282, 0.043, 1
329616, 0.218, -0.348, -0.134, 0.149, 0.213, 0.056, 1
329636, -0.117, -0.221, -0.293, 0.03, 0.144, 0.017, 1
329656, -0.226, -0.204, -0.427, -0.078, 0.171, 0.043, 1
329676, -0.426, 0.233, -0.18, -0.174, 0.235, 0.121, 0
329696, -0.175, 0.222, 0.146, -0.131, 0.271, 0.189, 0
329716, 0.011, -0.097, 0.138, 0.054, 0.225, 0.172, 0
329736, -0.141, -0.422, -0.177, 0.018, 0.15, 0.131, 0
329756, -0.398, -0.194, -0.288, -0.207, 0.151, 0.145, 0
329776, -0.549, -0.016, -0.258, -0.304, 0.154, 0.184, 0
329796, -0.74, 0.098, -0.261, -0.357, 0.139, 0.251, 0
329816, -1.102, 0.273, -0.412, -0.315, 0.089, 0.323, 0
329836, -1.759, 0.596, -0.554, -0.226, 0.01, 0.489, 0
329856, -2.408, 0.784, -0.557, -0.153, 0.04, 0.678, 0
329876, -3.229, 1.034, -0.558, -0.164, 0.175, 0.904, 0
329896, -3.853, 1.306, -0.42, -0.224, 0.317, 1.18, 0
329916, -3.947, 1.356, -0.118, -0.225, 0.213, 1.458, 0
329936, -4.115, 1.125, -0.225, -0.249, -0.018, 1.764, 0
329956, -4.291, 0.716, -0.505, -0.355, -0.193, 2.065, 0
329976, -4.369, 0.35, -0.867, -0.431, -0.218, 2.381, 0
329996, -4.23, 0.086, -1.058, -0.351, -0.157, 2.701, 0
330016, -3.848, -0.569, -1.207, -0.343, -0.13, 2.974, 0
330036, -3.323, -1.121, -1.339, -0.425, -0.214, 3.2, 0
330056, -2.865, -1.853, -1.493, -0.527, -0.291, 3.362, 0
330076, -2.432, -2.644, -1.685, -0.671, -0.198, 3.455, 0
330096, -1.902, -2.605, -1.535, -0.607, 0.002, 3.582, 0
330116, -1.305, -3.128, -1.31, -0.399, 0.132, 3.673, 0
330136, -0.446, -4.025, -1.152, -0.395, 0.129, 3.656, 0
330156, -0.07, -4.595, -1.166, -0.664, 0.118, 3.553, 0
330176, 0.453, -4.224, -0.498, -0.736, -0.094, 3.456, 0
330196, 0.4, -4.043, 0.147, -0.602, -0.203, 3.389, 0
330216, 0.533, -4.045, 0.582, -0.324, -0.192, 3.295, 0
330236, 0.504, -4.58, 0.268, -0.18, 0.142, 3.201, 0
330256, 1.275, -4.809, 0.383, -0.113, 0.375, 3.087, 0
330276, 1.946, -5.033, 0.523, -0.117, 0.34, 2.841, 0
330296, 2.378, -4.573, 0.699, -0.043, 0.015, 2.538, 0
330316, 2.128, -4.24, 0.696, 0.048, -0.114, 2.269, 0
330336, 2.172, -4.09, 0.595, 0.249, 0.108, 1.878, 0
330356, 2.96, -4.029, -0.255, 0.185, 0.039, 1.56, 0
330376, 2.473, -3.209, -0.216, -0.026, -0.199, 1.232, 0
330396, 2.064, -2.604, -0.06, -0.09, -0.25, 0.998, 0
330416, 2.125, -2.548, -0.103, 0.001, -0.103, 0.782, 0
330436, 2.139, -2.483, -0.461, 0.038, -0.053, 0.525, 0
330456, 1.322, -1.884, -0.701, -0.047, -0.094, 0.298, 0
330476, 0.925, -1.382, -0.417, -0.121, -0.014, 0.192, 0
330496, 0.807, -1.019, 0.135, -0.172, 0.022, 0.114, 0
330516, 0.551, -0.674, 0.188, -0.13, -0.021, 0.018, 0
330536, 0.107, -0.349, -0.216, -0.116, -0.036, -0.043, 0
330556, -0.168, -0.189, -0.409, -0.143, -0.001, -0.057, 0
330576, -0.291, 0.017, -0.463, -0.176, 0.099, -0.026, 0
330596, -0.166, 0.018, -0.267, -0.175, 0.158, 0.007, 0
330616, -0.104, -0.099, -0.123, -0.153, 0.113, 0.004, 0
330636, -0.208, -0.243, -0.351, -0.186, 0.093, 0.016, 0
330656, -0.215, -0.208, -0.473, -0.248, 0.127, 0.018, 1
330676, -0.094, -0.126, -0.482, -0.26, 0.185, 0.051, 1
330696, -0.055, 0.058, -0.254, -0.323, 0.167, 0.045, 1
330716, -0.159, 0.086, 0.076, -0.222, 0.109, 0.059, 1
330736, -0.046, -0.046, 0.184, -0.064, 0.064, 0.051, 1
330756, 0.115, -0.363, 0.037, 0.017, -0.01, 0.047, 1
330776, 0.157, -0.472, -0.171, -0.076, -0.007, -0.054, 1
330796, 0.151, -0.603, -0.273, -0.139, -0.018, -0.089, 1
330816, 0.453, -0.69, -0.224, -0.15, -0.012, -0.202, 1
330836, 0.955, -1.034, -0.321, -0.111, -0.121, -0.285, 1
330856, 1.559, -1.727, -0.553, -0.171, -0.216, -0.426, 1
330876, 1.901, -2.184, -0.631, -0.284, -0.243, -0.632, 1
330896, 2.115, -2.182, -0.455, -0.329, -0.271, -0.881, 1
330916, 2.033, -2.333, -0.484, -0.342, -0.308, -1.116, 1
330936, 1.928, -2.949, -0.908, -0.463, -0.243, -1.354, 1
330956, 2.038, -3.358, -1.044, -0.531, -0.132, -1.563, 1
330976, 2.442, -3.491, -0.761, -0.521, -0.092, -1.806, 1
330996, 2.468, -3.728, -0.457, -0.563, -0.176, -2.166, 1
331016, 1.868, -3.604, -0.329, -0.637, -0.277, -2.459, 1
331036, 1.056, -2.843, -0.059, -0.634, -0.382, -2.642, 1
331056, 0.576, -2.889, -0.374, -0.605, -0.443, -2.774, 1
331076, -0.005, -3.557, -0.731, -0.813, -0.306, -2.99, 1
331096, -0.609, -3.016, -0.215, -0.886, -0.032, -3.112, 1
331116, -0.874, -2.3, 0.717, -0.709, 0.123, -3.173, 1
331136, -1.019, -1.705, 0.875, -0.32, 0.029, -3.243, 1
331156, -1.582, -2.3, 0.171, -0.259, -0.139, -3.271, 1
331176, -2.38, -2.703, -0.144, -0.488, -0.015, -3.225, 1
331196, -3.121, -2.077, 0.332, -0.619, 0.398, -3.112, 1
331216, -2.638, -1.606, 0.896, -0.475, 0.594, -3.076, 1
331236, -2.523, -1.57, 0.794, -0.277, 0.556, -3.061, 1
331256, -3.218, -1.231, 0.936, -0.098, 0.604, -2.927, 1
331276, -3.553, -0.83, 1.223, 0.054, 0.723, -2.803, 1
331296, -3.744, -0.486, 1.235, 0.236, 0.809, -2.599, 1
331316, -3.676, -0.379, 0.911, 0.387, 0.772, -2.437, 1
331336, -3.99, -0.104, 0.802, 0.419, 0.725, -2.238, 1
331356, -3.823, 0.189, 0.541, 0.445, 0.544, -2.051, 1
331376, -3.882, 0.621, 0.21, 0.544, 0.362, -1.839, 1
331396, -3.943, 0.721, -0.188, 0.718, 0.192, -1.601, 1
331416, -4.134, 0.308, -1.11, 0.749, 0.1, -1.434, 1
331436, -4.27, 0.646, -1.508, 0.531, 0.249, -1.152, 1
331456, -3.452, 0.553, -1.32, 0.334, 0.427, -0.785, 1
331476, -2.47, 0.267, -1.049, 0.208, 0.418, -0.571, 1
331496, -1.985, 0.048, -0.911, 0.138, 0.237, -0.469, 1
331516, -1.963, 0.114, -0.937, 0.072, 0.119, -0.324, 1
331536, -1.567, -0.125, -0.981, -0.009, 0.18, -0.086, 1
331556, -0.928, -0.331, -0.805, -0.139, 0.286, 0.05, 1
331576, -0.228, -0.477, -0.567, -0.226, 0.285, 0.098, 1
331596, 0.039, -0.371, -0.39, -0.254, 0.144, 0.076, 1
331616, -0.104, -0.171, -0.124, -0.196, 0.07, 0.081, 1
331636, 0.031, -0.319, 0.004, -0.106, 0.08, 0.102, 1
331656, 0.007, -0.28, 0.004, -0.103, 0.07, 0.088, 1
331676, -0.077, -0.115, 0.053, -0.106, 0.084, 0.107, 1
331696, 0.012, -0.157, 0.082, -0.075, 0.064, 0.126, 1
331716, 0.026, -0.189, 0.12, -0.078, 0.05, 0.138, 1
331736, 0.16, -0.273, 0.122, -0.066, 0.052, 0.132, 1
331756, 0.188, -0.325, -0.061, -0.057, 0.032, 0.138, 1
331776, 0.373, -0.441, -0.305, -0.109, 0.03, 0.128, 1
331796, 0.114, -0.103, -0.254, -0.059, 0.065, 0.08, 1
331816, 0.009, -0.039, -0.192, 0.011, 0.178, 0.081, 1
331836, -0.055, -0.308, -0.325, -0.054, 0.328, 0.009, 1
331856, -0.016, -0.061, -0.123, -0.061, 0.435, 0.035, 1
331876, -0.01, -0.066, -0.02, -0.019, 0.461, -0.011, 1
331896, -0.225, -0.02, -0.172, 0.012, 0.541, -0.032, 1
331916, -0.441, 0.171, -0.249, 0.016, 0.65, 0.075, 0
331936, -0.836, -0.244, -0.324, -0.196, 0.731, 0.139, 0
331956, -0.219, -0.031, -0.045, -0.372, 0.53, 0.21, 0
331976, -0.17, -0.044, 0.009, -0.464, 0.172, 0.248, 0
331996, -0.587, 0.137, 0.062, -0.412, 0.021, 0.239, 0
332016, -0.865, 0.053, -0.117, -0.348, 0.124, 0.323, 0
332036, -0.769, -0.117, -0.286, -0.383, 0.155, 0.406, 0
332056, -0.914, -0.01, -0.381, -0.409, 0.08, 0.442, 0
332076, -1.373, 0.404, -0.301, -0.321, -0.018, 0.543, 0
332096, -1.867, 0.785, -0.065, -0.191, -0.133, 0.656, 0
332116, -2.991, 1.039, -0.022, -0.095, -0.115, 0.87, 0
332136, -4.009, 1.242, -0.015, -0.089, 0.041, 1.148, 0
332156, -4.763, 1.522, -0.093, -0.062, 0.167, 1.514, 0
332176, -5.04, 1.532, -0.367, -0.064, 0.16, 1.885, 0
332196, -4.85, 1.259, -0.695, -0.142, 0.059, 2.259, 0
332216, -4.517, 0.464, -1.376, -0.392, -0.042, 2.579, 0
332236, -4.355, 0.004, -1.75, -0.561, -0.064, 2.9, 0
332256, -4.197, -0.597, -1.987, -0.651, 0.041, 3.209, 0
332276, -3.667, -1.341, -1.965, -0.667, 0.137, 3.588, 0
332296, -1.99, -1.765, -1.361, -0.552, 0.172, 3.746, 0
332316, -1.533, -3.229, -1.526, -0.542, 0.177, 3.789, 0
332336, -0.636, -4.197, -1.518, -0.62, 0.25, 3.831, 0
332356, 0.245, -4.749, -1.594, -0.896, 0.249, 3.726, 0
332376, 0.62, -4.264, -1.096, -1.097, 0.203, 3.571, 0
332396, 0.891, -3.985, -0.327, -0.917, 0.227, 3.525, 0
332416, 1.286, -3.931, 0.141, -0.612, 0.274, 3.423, 0
332436, 1.264, -4.437, 0.238, -0.434, 0.185, 3.244, 0
332456, 1.626, -4.841, 0.408, -0.502, 0.128, 3.053, 0
332476, 1.772, -4.545, 0.747, -0.659, 0.029, 2.82, 0
332496, 1.888, -4.153, 0.9, -0.478, -0.016, 2.619, 0
332516, 2.182, -4.683, 0.767, -0.211, 0.122, 2.397, 0
332536, 2.602, -4.285, 0.972, -0.136, 0.209, 2.112, 0
332556, 2.579, -4.008, 0.646, -0.136, 0.006, 1.795, 0
332576, 1.895, -3.374, 0.266, -0.327, -0.248, 1.535, 0
332596, 1.524, -2.592, 0.3, -0.487, -0.251, 1.339, 0
332616, 1.309, -2.349, 0.401, -0.347, -0.096, 1.195, 0
332636, 1.822, -2.449, 0.274, -0.13, 0.067, 1.049, 0
332656, 1.813, -2.432, -0.226, -0.088, -0.039, 0.758, 0
332676, 1.385, -1.996, -0.275, -0.16, -0.095, 0.509, 0
332696, 1.181, -1.598, -0.208, -0.199, -0.104, 0.327, 0
332716, 0.744, -0.976, -0.258, -0.225, -0.141, 0.175, 0
332736, 0.391, -0.379, -0.204, -0.238, -0.144, 0.106, 0
332756, 0.093, -0.124, -0.25, -0.156, -0.095, 0.059, 0
332776, 0.092, -0.131, -0.298, -0.113, -0.009, 0.038, 0
332796, 0.327, -0.207, -0.299, -0.141, -0.053, 0.015, 0
332816, 0.285, -0.101, -0.435, -0.178, -0.135, -0.03, 1
332836, 0.28, 0.007, -0.758, -0.232, -0.177, -0.043, 1
332856, -0.714, 0.238, -0.874, -0.304, -0.068, 0.006, 1
332876, -1.101, 0.386, -0.654, -0.289, 0.18, 0.067, 1
332896, -0.755, 0.341, -0.244, -0.208, 0.27, 0.092, 1
332916, -0.321, 0.105, 0.032, -0.169, 0.141, 0.012, 1
332936, -0.335, -0.035, 0.195, -0.121, 0.016, -0.037, 1
332956, -0.544, -0.123, 0.061, -0.108, 0.023, -0.007, 1
332976, -0.434, -0.155, -0.082, -0.127, 0.038, 0.007, 1
332996, -0.305, -0.133, -0.119, -0.156, 0.033, 0.021, 1
333016, -0.035, -0.085, -0.128, -0.135, -0.01, 0.007, 1
333036, 0.092, -0.165, -0.129, -0.075, -0.052, -0.034, 1
333056, 0.103, -0.229, -0.36, -0.071, -0.039, -0.059, 1
333076, 0.211, -0.262, -0.451, -0.112, -0.036, -0.089, 1
333096, 0.317, -0.557, -0.458, -0.142, 0.005, -0.141, 1
333116, 0.967, -1.133, -0.629, -0.113, 0.058, -0.218, 1
333136, 2.087, -1.957, -0.939, -0.08, 0.026, -0.44, 1
333156, 2.745, -2.697, -1.258, -0.175, -0.052, -0.758, 1
333176, 2.728, -2.861, -1.159, -0.264, -0.032, -1.08, 1
333196, 2.876, -3.422, -0.968, -0.314, 0.061, -1.382, 1
333216, 3.347, -3.82, -0.808, -0.271, 0.095, -1.752, 1
333236, 3.6, -4.922, -0.947, -0.212, 0.109, -2.225, 1
333256, 2.949, -5.073, -0.568, -0.161, 0.245, -2.957, 1
333276, 1.355, -4.302, 0.231, -0.111, 0.207, -3.279, 1
333296, 0.839, -4.287, 0.152, -0.15, -0.02, -3.464, 1
333316, 0.041, -4.357, -0.038, -0.302, -0.266, -3.678, 1
333336, -0.721, -3.836, -0.182, -0.45, -0.375, -3.955, 1
333356, -2.348, -2.858, 0.186, -0.472, -0.367, -4.134, 1
333376, -3.794, -1.77, 0.574, -0.343, -0.047, -4.05, 1
333396, -3.848, -1.637, 0.619, -0.18, 0.279, -3.638, 1
333416, -3.973, -1.299, 0.806, -0.081, 0.338, -3.524, 1
333436, -4.132, -1.395, 0.774, 0.012, 0.177, -3.441, 1
333456, -5.048, -0.952, 0.867, 0.027, 0.143, -3.375, 1
333476, -5.247, -0.5, 1.031, 0.084, 0.386, -3.042, 1
333496, -4.278, -0.612, 0.891, 0.218, 0.569, -2.67, 1
333516, -4.129, -0.165, 0.857, 0.37, 0.474, -2.516, 1
333536, -4.452, 0.162, 0.73, 0.513, 0.387, -2.366, 1
333556, -4.604, 0.327, 0.462, 0.621, 0.417, -2.141, 1
333576, -4.09, 0.085, 0.049, 0.669, 0.42, -1.85, 1
333596, -3.569, -0.066, -0.449, 0.599, 0.301, -1.632, 1
333616, -3.167, 0.036, -0.751, 0.504, 0.136, -1.438, 1
333636, -2.984, 0.163, -1.17, 0.421, 0.042, -1.293, 1
333656, -3.1, 0.345, -1.409, 0.332, 0.059, -1.101, 1
333676, -3.161, 0.509, -1.539, 0.278, 0.221, -0.852, 1
333696, -2.139, 0.288, -1.481, 0.261, 0.316, -0.62, 1
333716, -0.986, -0.379, -1.517, 0.147, 0.156, -0.48, 1
333736, -0.797, -0.562, -1.285, -0.109, -0.081, -0.464, 1
333756, -1.388, 0.027, -0.763, -0.216, 0.057, -0.315, 1
333776, -1.439, 0.149, -0.279, -0.083, 0.336, -0.186, 1
333796, -0.852, -0.027, 0.27, -0.01, 0.427, -0.092, 1
333816, -0.336, -0.186, 0.496, 0.003, 0.324, -0.031, 1
333836, 0.385, -0.639, 0.226, -0.092, -0.018, -0.04, 1
333856, 0.021, -0.433, 0.081, -0.172, -0.129, 0.0, 1
333876, -0.079, -0.187, 0.208, -0.097, 0.05, 0.058, 1
333896, 0.254, -0.404, 0.143, 0.001, 0.175, 0.066, 1
333916, 0.276, -0.301, 0.069, 0.036, 0.163, 0.07, 1
333936, 0.064, -0.142, 0.051, 0.095, 0.135, 0.071, 1
333956, 0.182, -0.314, -0.053, 0.12, 0.092, 0.059, 1
333976, 0.34, -0.568, -0.19, 0.039, 0.124, 0.078, 1
333996, 0.456, -0.575, -0.298, -0.063, 0.24, 0.098, 1
334016, 0.459, -0.299, -0.239, 0.006, 0.262, 0.024, 1
334036, -0.077, 0.034, -0.109, 0.153, 0.286, 0.027, 1
334056, -0.18, -0.008, -0.101, 0.131, 0.39, 0.061, 1
334076, -0.184, -0.002, 0.082, 0.147, 0.458, 0.133, 0
334096, 0.085, -0.275, 0.133, 0.095, 0.384, 0.145, 0
334116, 0.114, -0.213, -0.068, -0.014, 0.214, 0.107, 0
334136, -0.372, -0.078, -0.179, -0.052, 0.155, 0.079, 0
334156, -0.304, 0.206, -0.128, 0.002, 0.159, 0.087, 0
334176, -0.175, -0.083, -0.281, -0.018, 0.181, 0.152, 0
334196, 0.143, -0.285, -0.341, -0.167, 0.128, 0.202, 0
334216, -0.138, -0.26, -0.389, -0.359, 0.161, 0.256, 0
334236, -0.166, 0.038, -0.303, -0.301, 0.235, 0.296, 0
334256, -0.544, 0.347, -0.503, -0.215, 0.158, 0.293, 0
334276, -0.92, 0.35, -0.389, -0.153, 0.093, 0.323, 0
334296, -1.677, 0.42, -0.5, -0.164, 0.029, 0.383, 0
334316, -2.712, 1.033, -0.489, -0.234, 0.0, 0.528, 0
334336, -3.627, 1.516, -0.241, -0.221, 0.033, 0.718, 0
334356, -4.533, 1.754, -0.012, -0.198, 0.078, 0.993, 0
334376, -4.803, 1.691, 0.247, -0.204, 0.123, 1.328, 0
334396, -4.707, 1.243, 0.305, -0.252, -0.01, 1.681, 0
334416, -4.699, 0.717, 0.009, -0.387, -0.29, 2.018, 0
334436, -4.983, 0.514, -0.367, -0.515, -0.497, 2.31, 0
334456, -5.09, 0.346, -0.705, -0.501, -0.466, 2.658, 0
334476, -4.417, -0.468, -0.705, -0.318, -0.302, 3.046, 0
334496, -3.339, -1.688, -0.644, -0.249, -0.241, 3.309, 0
334516, -2.351, -2.634, -1.012, -0.488, -0.372, 3.376, 0
334536, -1.975, -2.714, -1.062, -0.698, -0.66, 3.457, 0
334556, -2.378, -2.592, -1.181, -0.64, -0.696, 3.558, 0
334576, -2.206, -2.388, -0.936, -0.293, -0.255, 3.748, 0
334596, -0.94, -4.088, -1.168, 0.134, 0.133, 3.965, 0
334616, -0.062, -5.238, -1.429, -0.017, 0.17, 3.867, 0
334636, 0.015, -4.677, -1.285, -0.457, -0.015, 3.69, 0
334656, -0.512, -4.043, -0.926, -0.611, -0.29, 3.635, 0
334676, -0.753, -4.207, -0.51, -0.311, -0.24, 3.659, 0
334696, -0.367, -5.276, -0.427, 0.019, 0.191, 3.702, 0
334716, 0.629, -5.567, -0.448, 0.057, 0.657, 3.539, 0
334736, 1.416, -5.723, -0.459, 0.019, 0.689, 3.311, 0
334756, 1.99, -5.587, -0.249, -0.051, 0.402, 2.998, 0
334776, 2.581, -5.363, 0.196, -0.005, 0.252, 2.671, 0
334796, 3.327, -5.468, 0.407, 0.048, 0.163, 2.252, 0
334816, 4.018, -5.218, 0.279, 0.07, -0.032, 1.736, 0
334836, 4.106, -4.83, -0.289, -0.01, -0.2, 1.221, 0
334856, 3.485, -4.054, -0.684, -0.139, -0.247, 0.819, 0
334876, 2.809, -3.004, -0.451, -0.189, -0.076, 0.585, 0
334896, 2.911, -2.403, 0.05, -0.143, 0.014, 0.381, 0
334916, 2.591, -1.951, -0.035, -0.164, -0.059, 0.186, 0
334936, 1.973, -1.321, -0.259, -0.169, -0.078, 0.047, 0
334956, 1.39, -1.159, -0.387, -0.224, -0.005, -0.065, 0
334976, 0.889, -0.732, -0.291, -0.204, 0.032, -0.143, 0
334996, 0.292, -0.457, -0.384, -0.218, 0.059, -0.162, 0
335016, -0.07, -0.08, -0.166, -0.201, 0.12, -0.151, 0
335036, -0.18, 0.092, 0.075, -0.135, 0.141, -0.133, 0
335056, -0.228, -0.052, -0.036, -0.136, 0.069, -0.117, 0
335076, -0.466, -0.021, -0.197, -0.158, 0.053, -0.097, 0
335096, -0.572, -0.077, -0.222, -0.161, 0.122, -0.02, 0
335116, -0.221, -0.309, -0.154, -0.155, 0.142, 0.005, 0
335136, 0.091, -0.329, 0.141, -0.077, 0.039, -0.021, 0
335156, 0.021, -0.378, -0.06, -0.105, -0.067, -0.083, 1
335176, -0.411, -0.3, -0.429, -0.243, -0.072, -0.041, 1
335196, -0.885, -0.071, -0.28, -0.312, -0.01, 0.031, 1
335216, -0.43, -0.147, -0.005, -0.256, 0.135, 0.065, 1
335236, 0.18, -0.398, 0.048, -0.152, 0.121, 0.031, 1
335256, 0.251, -0.503, -0.02, -0.113, 0.06, -0.051, 1
335276, 0.321, -0.657, 0.0, -0.113, 0.019, -0.076, 1
335296, 0.825, -0.804, 0.117, -0.032, -0.041, -0.141, 1
335316, 1.325, -1.313, -0.013, 0.024, -0.136, -0.252, 1
335336, 1.685, -1.972, -0.346, -0.039, -0.251, -0.439, 1
335356, 2.033, -2.467, -0.476, -0.17, -0.304, -0.633, 1
335376, 2.483, -3.011, -0.391, -0.225, -0.333, -0.855, 1
335396, 2.797, -3.613, -0.168, -0.26, -0.374, -1.164, 1
335416, 2.978, -3.816, 0.25, -0.329, -0.484, -1.494, 1
335436, 3.287, -4.485, 0.194, -0.375, -0.7, -1.846, 1
335456, 2.842, -4.966, -0.091, -0.444, -0.983, -2.236, 1
335476, 2.223, -4.87, -0.332, -0.542, -1.116, -2.601, 1
335496, 1.431, -4.624, -0.299, -0.647, -0.977, -2.932, 1
335516, 0.474, -3.896, 0.079, -0.619, -0.637, -3.128, 1
335536, -0.116, -3.502, -0.017, -0.434, -0.373, -3.254, 1
335556, -1.069, -2.931, -0.046, -0.367, -0.263, -3.389, 1
335576, -1.905, -2.238, 0.221, -0.393, -0.121, -3.424, 1
335596, -2.322, -1.533, 0.212, -0.324, 0.004, -3.393, 1
335616, -2.743, -1.511, 0.345, -0.193, 0.054, -3.302, 1
335636, -3.046, -1.397, 0.233, -0.168, 0.14, -3.29, 1
335656, -3.719, -0.99, 0.278, -0.129, 0.256, -3.238, 1
335676, -3.456, -0.977, 0.254, -0.039, 0.442, -3.145, 1
335696, -3.356, -0.879, 0.124, 0.047, 0.402, -3.17, 1
335716, -4.184, -0.373, -0.19, 0.139, 0.394, -3.183, 1
335736, -5.205, 0.504, -0.23, 0.197, 0.417, -2.637, 1
335756, -4.813, 0.287, -0.291, 0.081, 0.482, -2.296, 1
335776, -4.353, 0.264, -0.171, -0.001, 0.433, -2.072, 1
335796, -3.718, 0.552, -0.174, 0.067, 0.248, -1.958, 1
335816, -3.508, 0.629, -0.224, 0.211, 0.181, -1.837, 1
335836, -3.424, 0.639, -0.086, 0.295, 0.163, -1.618, 1
335856, -3.513, 0.537, -0.134, 0.26, 0.242, -1.303, 1
335876, -3.493, 0.691, -0.188, 0.187, 0.387, -0.979, 1
335896, -2.888, 0.542, -0.075, 0.144, 0.424, -0.744, 1
335916, -1.899, 0.075, -0.246, 0.041, 0.262, -0.634, 1
335936, -1.53, 0.0, -0.355, -0.015, 0.112, -0.518, 1
335956, -1.531, 0.047, -0.406, -0.037, 0.13, -0.381, 1
335976, -1.45, -0.038, -0.461, -0.108, 0.294, -0.196, 1
335996, -0.853, 0.015, -0.18, -0.083, 0.363, -0.095, 1
336016, -0.419, -0.037, -0.045, -0.006, 0.345, -0.036, 1
336036, 0.033, -0.317, 0.046, -0.006, 0.255, -0.025, 1
336056, 0.182, -0.221, 0.254, -0.014, 0.162, -0.001, 1
336076, 0.313, -0.515, 0.075, -0.07, 0.073, 0.026, 1
336096, 0.333, -0.481, 0.06, -0.084, 0.025, 0.028, 1
336116, 0.233, -0.414, -0.022, -0.04, 0.061, -0.02, 1
336136, -0.013, -0.177, -0.122, 0.097, 0.175, -0.034, 1
336156, 0.03, -0.168, -0.069, 0.206, 0.27, -0.04, 1
336176, 0.328, -0.303, -0.025, 0.24, 0.215, -0.033, 1
336196, 0.234, -0.35, 0.034, 0.257, -0.058, -0.078, 1
336216, -0.159, -0.15, -0.019, 0.291, -0.054, -0.06, 1
336236, -0.353, 0.049, -0.006, 0.345, 0.134, -0.02, 1
336256, 0.136, -0.232, -0.112, 0.461, 0.292, 0.098, 1
336276, 0.693, -0.733, -0.225, 0.42, 0.141, 0.116, 1
336296, 0.295, -0.548, -0.339, 0.152, -0.072, 0.048, 1
336316, -0.039, -0.152, -0.35, 0.004, -0.038, 0.022, 1
336336, 0.18, -0.21, -0.386, -0.02, 0.13, -0.009, 0
336356, 0.381, -0.043, -0.096, 0.006, 0.2, -0.033, 0
336376, 0.316, -0.205, -0.164, 0.023, 0.1, -0.027, 0
336396, -0.237, -0.034, -0.28, -0.071, 0.056, -0.037, 0
336416, -0.649, 0.152, -0.274, -0.16, 0.176, 0.01, 0
336436, -0.761, 0.316, -0.069, -0.172, 0.276, 0.052, 0
336456, -0.718, 0.254, -0.092, -0.136, 0.241, 0.101, 0
336476, -1.043, 0.353, -0.238, -0.168, 0.069, 0.164, 0
336496, -1.669, 0.539, -0.29, -0.219, -0.052, 0.284, 0
336516, -2.052, 0.439, -0.263, -0.296, 0.012, 0.412, 0
336536, -2.579, 0.899, -0.026, -0.364, 0.166, 0.573, 0
336556, -3.222, 1.33, -0.062, -0.27, 0.23, 0.753, 0
336576, -3.881, 1.386, -0.274, -0.158, 0.244, 1.001, 0
336596, -4.093, 1.018, -0.633, -0.147, 0.249, 1.325, 0
336616, -4.383, 0.728, -1.252, -0.282, 0.169, 1.609, 0
336636, -4.662, 0.766, -1.457, -0.494, 0.061, 1.943, 0
336656, -4.807, 0.533, -1.325, -0.572, 0.003, 2.317, 0
336676, -4.673, 0.049, -1.061, -0.459, 0.077, 2.816, 0
336696, -3.971, -1.217, -1.243, -0.596, 0.006, 2.98, 0
336716, -3.298, -1.59, -1.332, -0.822, -0.21, 3.17, 0
336736, -2.758, -1.794, -1.315, -0.877, -0.466, 3.307, 0
336756, -2.789, -1.956, -1.44, -0.808, -0.374, 3.467, 0
336776, -2.136, -2.091, -1.096, -0.53, -0.243, 3.587, 0
336796, -1.47, -2.677, -0.834, -0.368, -0.205, 3.616, 0
336816, -0.729, -3.869, -1.007, -0.496, -0.282, 3.538, 0
336836, -0.677, -3.971, -1.082, -0.605, -0.154, 3.478, 0
336856, -0.401, -3.898, -0.627, -0.326, 0.056, 3.484, 0
336876, -0.04, -4.22, -0.093, -0.042, 0.166, 3.521, 0
336896, 0.694, -4.699, 0.411, 0.194, 0.077, 3.456, 0
336916, 0.496, -5.479, 0.217, 0.128, 0.319, 3.302, 0
336936, 0.668, -5.468, 0.711, 0.17, 0.852, 3.145, 0
336956, 2.033, -5.418, 1.191, 0.469, 0.986, 2.912, 0
336976, 2.866, -6.04, 1.055, 0.494, 0.744, 2.568, 0
336996, 3.512, -5.751, 0.885, 0.263, 0.401, 2.121, 0
337016, 3.384, -5.005, 0.513, 0.084, 0.092, 1.674, 0
337036, 2.759, -4.029, 0.149, 0.0, -0.054, 1.332, 0
337056, 2.429, -3.198, 0.138, 0.032, -0.054, 1.042, 0
337076, 2.011, -2.76, 0.116, 0.032, -0.008, 0.847, 0
337096, 1.801, -2.211, 0.326, -0.021, -0.002, 0.654, 0
337116, 1.718, -1.771, 0.475, -0.033, -0.048, 0.5, 0
337136, 1.505, -1.297, 0.409, -0.029, -0.136, 0.37, 0
337156, 0.922, -0.865, 0.148, 0.0, -0.116, 0.246, 0
337176, 0.71, -0.552, -0.283, 0.01, 0.005, 0.185, 0
337196, 0.363, -0.278, -0.664, -0.04, -0.025, 0.124, 0
337216, 0.047, -0.078, -0.82, -0.058, 0.032, 0.092, 0
337236, 0.077, -0.125, -0.679, -0.059, 0.141, 0.081, 0
337256, 0.066, 0.006, -0.448, -0.073, 0.138, 0.04, 0
337276, -0.011, -0.054, -0.441, -0.096, 0.102, 0.006, 0
337296, -0.014, -0.098, -0.404, -0.103, 0.052, -0.023, 0
337316, -0.123, -0.106, -0.413, -0.118, 0.014, -0.075, 0
337336, -0.171, 0.005, -0.349, -0.152, 0.015, -0.106, 0
337356, -0.175, -0.015, -0.266, -0.188, -0.007, -0.124, 0
337376, -0.174, -0.056, -0.113, -0.183, -0.034, -0.144, 0
337396, -0.113, -0.192, -0.212, -0.148, -0.007, -0.16, 0
337416, 0.131, -0.319, -0.287, -0.145, 0.012, -0.167, 0
337436, 0.343, -0.464, -0.248, -0.145, -0.018, -0.214, 0
337456, 0.381, -0.597, -0.385, -0.192, -0.046, -0.295, 0
337476, 0.51, -0.684, -0.506, -0.284, -0.028, -0.349, 0
337496, 0.935, -1.169, -0.768, -0.351, 0.003, -0.408, 1
337516, 1.924, -1.856, -0.927, -0.41, 0.057, -0.548, 1
337536, 1.868, -2.454, -0.763, -0.501, 0.059, -0.8, 1
337556, 1.649, -2.312, -0.198, -0.543, 0.076, -1.044, 1
337576, 1.44, -1.909, 0.425, -0.463, 0.04, -1.278, 1
337596, 1.394, -1.909, 0.822, -0.279, -0.057, -1.49, 1
337616, 1.256, -2.44, 0.698, -0.162, -0.143, -1.678, 1
337636, 0.86, -2.025, 0.48, -0.182, -0.263, -1.948, 1
337656, 0.492, -2.063, -0.101, -0.248, -0.538, -2.046, 1
337676, 0.13, -2.489, -0.277, -0.44, -0.52, -2.185, 1
337696, -0.424, -2.526, -0.11, -0.578, -0.27, -2.249, 1
337716, -0.554, -1.443, 0.704, -0.463, -0.084, -2.268, 1
337736, -0.414, -1.429, 0.928, -0.248, -0.168, -2.34, 1
337756, -0.829, -1.609, 0.869, -0.175, -0.243, -2.461, 1
337776, -1.377, -1.551, 0.639, -0.197, -0.234, -2.513, 1
337796, -1.157, -1.789, 0.439, -0.19, -0.238, -2.543, 1
337816, -0.982, -2.263, 0.096, -0.334, -0.208, -2.638, 1
337836, -1.868, -1.259, 0.343, -0.379, -0.075, -2.696, 1
