timestamp, accX, accY, accZ, gyroX, gyroY, gyroZ, button
1198, 0.07326007326007326, 0.042735042735042736, -0.34554334554334554, 0.0, -0.0625, -0.09375, 0.0
1199, 0.23931623931623933, 0.18681318681318682, -0.3797313797313797, -0.0625, -0.03125, 0.0, 0.0
1200, 0.2844932844932845, 0.05372405372405373, -0.2026862026862027, -0.0625, -0.09375, 0.0, 0.0
1201, 0.1684981684981685, 0.02197802197802198, -0.12576312576312576, -0.03125, -0.09375, 0.0, 0.0
1, 0.017094017094017096, -0.10012210012210013, -0.30158730158730157, 0.0, -0.125, 0.0, 0.0
2, 0.09157509157509157, -0.15506715506715507, -0.503052503052503, -0.0625, -0.09375, -0.03125, 0.0
3, 0.06715506715506715, -0.07448107448107448, -0.6422466422466423, -0.09375, -0.125, -0.0625, 0.0
4, 0.10500610500610501, -0.336996336996337, -0.20634920634920634, -0.0625, -0.125, -0.15625, 0.0
5, -0.18437118437118438, -0.6007326007326007, -0.4725274725274725, -0.03125, -0.1875, -0.1875, 0.0
6, -0.47985347985347987, -0.37606837606837606, -0.6568986568986569, -0.28125, -0.4375, -0.1875, 0.0
7, -1.2246642246642248, 0.34065934065934067, -0.452991452991453, -0.34375, -0.5, -0.03125, 0.0
8, -1.1074481074481075, 0.08302808302808302, -0.32967032967032966, -0.09375, -0.3125, 0.0625, 0.0
9, -1.0122100122100122, -0.1575091575091575, -0.49694749694749696, 0.0625, -0.21875, 0.125, 0.0
10, -0.9926739926739927, -0.41514041514041516, -0.7863247863247863, 0.09375, 0.125, 0.15625, 0.0
11, -0.5152625152625152, -0.6043956043956044, -0.7619047619047619, -0.03125, 0.21875, 0.09375, 0.0
12, -0.2148962148962149, -0.43956043956043955, -0.41147741147741146, -0.1875, 0.09375, 0.0, 0.0
13, -0.007326007326007326, -0.05128205128205128, 0.03907203907203907, -0.15625, -0.0625, -0.03125, 0.0
14, -0.2515262515262515, 0.1562881562881563, -0.054945054945054944, 0.0, -0.03125, -0.03125, 0.0
15, -0.3162393162393162, -0.04395604395604396, -0.5018315018315018, 0.125, 0.15625, -0.0625, 0.0
16, -0.1562881562881563, -0.4822954822954823, -1.028083028083028, 0.0, 0.25, -0.125, 0.0
17, -0.2600732600732601, -0.4444444444444444, -0.8046398046398047, -0.25, 0.25, -0.15625, 0.0
18, -0.16361416361416362, -0.18681318681318682, -0.052503052503052504, -0.1875, 0.3125, -0.03125, 0.0
19, -0.02197802197802198, -0.07936507936507936, 0.5457875457875457, 0.03125, 0.34375, 0.0625, 0.0
20, -0.0463980463980464, 0.09645909645909646, 0.45787545787545786, 0.21875, 0.34375, 0.09375, 0.0
21, 0.17094017094017094, 0.1452991452991453, 0.304029304029304, 0.25, 0.21875, 0.03125, 0.0
22, 0.23931623931623933, 0.2442002442002442, 0.5299145299145299, 0.125, 0.03125, 0.09375, 0.0
23, 0.4358974358974359, 0.12087912087912088, 0.8644688644688645, 0.15625, 0.03125, 0.28125, 0.0
24, 1.0598290598290598, -0.44078144078144077, 1.1294261294261294, 0.34375, 0.09375, 0.40625, 0.0
25, 1.8192918192918193, -0.9877899877899878, 1.2967032967032968, 0.5625, 0.0625, 0.34375, 0.0
26, 2.2222222222222223, -1.1721611721611722, 0.9267399267399268, 0.75, -0.03125, 0.03125, 0.0
27, 2.3174603174603177, -0.8522588522588522, 0.2844932844932845, 0.875, -0.1875, -0.375, 0.0
28, 1.901098901098901, -0.5531135531135531, -0.4468864468864469, 0.90625, -0.3125, -0.8125, 0.0
29, 1.6483516483516483, 0.04884004884004884, -1.2503052503052503, 0.84375, -0.34375, -1.1875, 0.0
30, 1.4468864468864469, 0.6434676434676435, -1.5775335775335775, 0.84375, -0.25, -1.40625, 0.0
31, 1.4835164835164836, 1.3357753357753357, -1.652014652014652, 0.9375, -0.125, -1.40625, 0.0
32, 1.485958485958486, 1.6544566544566544, -1.641025641025641, 1.125, 0.0, -1.40625, 0.0
33, 1.037851037851038, 1.5323565323565325, -2.3150183150183152, 0.9375, -0.03125, -1.5625, 0.0
34, 0.2564102564102564, 1.4175824175824177, -2.8485958485958487, 0.5625, 0.125, -1.53125, 0.0
35, -0.3516483516483517, 1.9181929181929183, -2.2515262515262515, 0.375, 0.5, -1.28125, 0.0
36, 0.029304029304029304, 1.9401709401709402, -1.431013431013431, 0.40625, 0.71875, -1.0, 0.0
37, 1.1196581196581197, 1.3772893772893773, -1.249084249084249, 0.4375, 0.59375, -0.96875, 0.0
38, 1.4029304029304028, 1.57997557997558, -0.6825396825396826, 0.59375, 0.34375, -1.375, 0.0
39, 0.9938949938949939, 0.49572649572649574, -1.514041514041514, 0.59375, 0.1875, -1.78125, 0.0
40, 0.31746031746031744, 0.20024420024420025, -1.7863247863247864, 0.3125, 0.1875, -2.09375, 0.0
41, 0.409035409035409, 1.010989010989011, -2.05006105006105, 0.09375, -0.09375, -2.40625, 0.0
42, -0.5225885225885226, 1.4542124542124542, -1.9047619047619047, -0.03125, -0.40625, -2.53125, 0.0
43, -1.7045177045177045, 1.3308913308913308, -1.7753357753357752, -0.15625, -0.5625, -2.3125, 0.0
44, -2.52991452991453, 1.061050061050061, -1.746031746031746, -0.25, -0.28125, -1.9375, 0.0
45, -1.855921855921856, 0.2612942612942613, -1.2478632478632479, -0.625, -0.03125, -1.5625, 0.0
46, -1.1135531135531136, 0.36752136752136755, -0.15384615384615385, -0.78125, 0.25, -1.53125, 0.0
47, -0.7472527472527473, 0.36385836385836384, 0.525030525030525, -0.8125, 0.375, -1.375, 0.0
48, -0.43223443223443225, 0.11355311355311355, 1.0512820512820513, -0.65625, 0.40625, -1.1875, 0.0
49, -0.2698412698412698, -0.15873015873015872, 1.5421245421245422, -0.46875, 0.34375, -1.15625, 0.0
50, -0.3907203907203907, -0.4945054945054945, 1.695970695970696, -0.28125, 0.15625, -1.15625, 0.0
51, -0.612942612942613, -0.7838827838827839, 1.4432234432234432, -0.21875, 0.15625, -1.1875, 0.0
52, 0.1623931623931624, -1.2405372405372406, 1.133089133089133, -0.21875, 0.09375, -1.28125, 0.0
53, 0.11965811965811966, -1.291819291819292, 1.3577533577533578, -0.34375, -0.28125, -1.46875, 0.0
54, -0.4981684981684982, -0.652014652014652, 1.4908424908424909, -0.3125, -0.53125, -1.5625, 0.0
55, -0.7973137973137974, -0.5054945054945055, 1.0317460317460319, -0.09375, -0.5, -1.46875, 0.0
56, -0.7191697191697192, -0.6410256410256411, 0.3516483516483517, 0.0625, -0.3125, -1.125, 0.0
57, -0.5653235653235653, -0.47985347985347987, -0.020757020757020756, 0.1875, 0.0, -0.96875, 0.0
58, -0.11355311355311355, -0.2905982905982906, -0.09645909645909646, 0.21875, 0.125, -0.78125, 0.0
59, 0.026862026862026864, -0.2258852258852259, -0.030525030525030524, 0.21875, 0.21875, -0.65625, 0.0
60, 0.17216117216117216, -0.5115995115995116, -0.16483516483516483, 0.125, 0.25, -0.625, 0.0
61, 0.16117216117216118, -0.23321123321123322, 0.3540903540903541, -0.03125, -0.03125, -0.03125, 0.0
62, 0.08791208791208792, -0.23931623931623933, 0.27594627594627597, -0.09375, -0.1875, -0.125, 0.0
63, 0.030525030525030524, -0.030525030525030524, 0.23321123321123322, -0.0625, -0.21875, -0.1875, 0.0
64, -0.13675213675213677, -0.026862026862026864, 0.047619047619047616, -0.03125, -0.15625, -0.1875, 0.0
65, 0.009768009768009768, 0.02197802197802198, -0.08180708180708181, 0.0, -0.09375, -0.125, 0.0
66, 0.015873015873015872, -0.02564102564102564, 0.09768009768009768, 0.09375, -0.03125, -0.15625, 0.0
67, 0.199023199023199, -0.2039072039072039, 0.17582417582417584, 0.125, -0.03125, -0.21875, 0.0
68, 0.2039072039072039, -0.16605616605616605, 0.19291819291819293, 0.09375, -0.03125, -0.25, 0.0
69, 0.44078144078144077, -0.4249084249084249, -0.006105006105006105, 0.0, -0.125, -0.34375, 0.0
70, 0.21123321123321123, -0.14652014652014653, 0.050061050061050064, -0.0625, -0.21875, -0.46875, 0.0
71, -0.2564102564102564, 0.42124542124542125, 0.2039072039072039, 0.03125, -0.25, -0.53125, 0.0
72, -0.8290598290598291, 0.5970695970695971, 0.29426129426129427, 0.21875, -0.09375, -0.34375, 0.0
73, -0.8778998778998779, 0.5885225885225885, -0.12576312576312576, 0.34375, 0.03125, -0.1875, 0.0
74, -0.2844932844932845, 0.315018315018315, -0.3553113553113553, 0.40625, 0.1875, -0.15625, 0.0
75, -0.09035409035409035, 0.11233211233211234, -0.536019536019536, 0.34375, 0.1875, -0.21875, 0.0
76, 0.001221001221001221, 0.315018315018315, -0.5433455433455433, 0.25, 0.125, -0.3125, 0.0
77, -0.3797313797313797, 0.49572649572649574, -0.6227106227106227, 0.1875, 0.0, -0.28125, 0.0
78, -0.5531135531135531, 0.652014652014652, -0.5018315018315018, 0.125, 0.0, -0.25, 0.0
79, -0.21733821733821734, 0.6495726495726496, -0.41514041514041516, 0.125, 0.09375, -0.21875, 0.0
80, 0.020757020757020756, 0.409035409035409, -0.42857142857142855, 0.15625, 0.09375, -0.21875, 0.0
81, 0.16361416361416362, 0.33455433455433453, -0.5677655677655677, 0.1875, 0.03125, -0.34375, 0.0
82, 0.007326007326007326, 0.15384615384615385, -0.7264957264957265, 0.1875, 0.0, -0.4375, 0.0
83, -0.10256410256410256, 0.23687423687423687, -0.7326007326007326, 0.0625, 0.0, -0.40625, 0.0
84, 0.014652014652014652, 0.12454212454212454, -0.4993894993894994, 0.0, 0.09375, -0.40625, 0.0
85, 0.029304029304029304, 0.01221001221001221, -0.2148962148962149, -0.03125, 0.0625, -0.46875, 0.0
86, 0.017094017094017096, 0.0231990231990232, -0.013431013431013432, 0.0, 0.0, -0.46875, 0.0
87, -0.35653235653235654, 0.02564102564102564, -0.02442002442002442, 0.0, -0.0625, -0.4375, 0.0
88, -0.4908424908424908, 0.36752136752136755, -0.08180708180708181, 0.0625, 0.0, -0.34375, 0.0
89, -0.3199023199023199, 1.0366300366300367, -0.15873015873015872, 0.1875, 0.15625, -0.25, 0.0
90, 0.44932844932844934, 0.818070818070818, -0.8144078144078144, 0.25, 0.25, -0.28125, 0.0
91, 1.0671550671550671, 0.5787545787545788, -1.4822954822954824, 0.15625, 0.15625, -0.4375, 0.0
92, 0.590964590964591, 0.9816849816849816, -2.4676434676434678, 0.03125, -0.0625, -0.75, 0.0
93, -0.4993894993894994, 2.559218559218559, -3.2075702075702077, -0.15625, -0.375, -0.96875, 0.0
94, -2.4053724053724053, 3.6996336996337, -3.916971916971917, -0.3125, -0.75, -1.125, 0.0
95, -5.937728937728938, 4.101343101343101, -5.1098901098901095, -0.875, -1.1875, -0.75, 0.0
96, -12.576312576312576, 4.358974358974359, -4.645909645909646, -1.46875, -1.28125, 0.125, 0.0
97, -12.621489621489621, 4.0476190476190474, -3.1819291819291817, -1.875, -0.96875, 1.3125, 0.0
98, -10.866910866910867, 2.741147741147741, -2.462759462759463, -1.71875, -0.78125, 2.1875, 0.0
99, -9.511599511599512, 0.8754578754578755, -2.735042735042735, -1.375, -0.875, 2.96875, 0.0
100, -7.987789987789988, -1.2991452991452992, -3.7594627594627594, -1.09375, -0.875, 3.71875, 0.0
101, -5.708180708180708, -3.832722832722833, -4.531135531135531, -1.0625, -0.90625, 4.25, 0.0
102, -3.808302808302808, -6.4212454212454215, -5.086691086691086, -1.34375, -1.03125, 4.34375, 0.0
103, -3.1758241758241756, -7.245421245421245, -4.650793650793651, -1.84375, -1.28125, 4.0, 0.0
104, -2.956043956043956, -7.388278388278389, -3.3553113553113554, -2.25, -1.65625, 3.75, 0.0
105, -3.0146520146520146, -7.625152625152626, -1.9426129426129426, -2.34375, -1.78125, 3.71875, 0.0
106, -2.67032967032967, -7.882783882783883, -0.9169719169719169, -2.09375, -1.75, 3.78125, 0.0
107, -2.5616605616605614, -8.307692307692308, -0.20634920634920634, -1.4375, -1.65625, 3.84375, 0.0
108, -2.727716727716728, -9.141636141636141, 0.2258852258852259, -1.125, -1.46875, 3.90625, 0.0
109, -2.619047619047619, -9.46031746031746, 0.8559218559218559, -0.84375, -1.125, 3.8125, 0.0
110, -2.1135531135531136, -9.223443223443223, 1.3919413919413919, -0.59375, -0.9375, 3.75, 0.0
111, -1.4725274725274726, -8.597069597069597, 2.0097680097680097, -0.34375, -0.9375, 3.65625, 0.0
112, -1.4029304029304028, -7.78998778998779, 2.3565323565323566, -0.09375, -1.03125, 3.46875, 0.0
113, -1.7191697191697193, -6.91941391941392, 2.67032967032967, 0.0, -1.1875, 3.28125, 0.0
114, -2.78998778998779, -6.0927960927960925, 2.826617826617827, 0.03125, -1.1875, 3.28125, 0.0
115, -2.484737484737485, -4.743589743589744, 3.1404151404151404, 0.25, -1.25, 3.4375, 0.0
116, -1.835164835164835, -3.9572649572649574, 2.562881562881563, 0.6875, -1.15625, 3.71875, 0.0
117, -0.8791208791208791, -3.9792429792429793, 1.2087912087912087, 1.15625, -0.875, 3.9375, 0.0
118, 2.559218559218559, -5.417582417582418, -1.0146520146520146, 1.0625, -1.09375, 3.65625, 0.0
119, 5.0989010989010985, -5.017094017094017, -4.113553113553113, 0.28125, -1.96875, 2.65625, 0.0
120, 5.764346764346764, -4.072039072039072, -3.590964590964591, 0.03125, -1.40625, 2.21875, 0.0
121, 6.592185592185592, -2.9450549450549453, -3.017094017094017, 0.0625, -0.75, 1.9375, 0.0
122, 6.117216117216117, -2.7948717948717947, -2.387057387057387, 0.15625, -0.28125, 1.625, 0.0
123, 6.468864468864469, -2.4224664224664223, -1.448107448107448, 0.21875, 0.0, 1.28125, 0.0
124, 7.1208791208791204, -2.4774114774114775, -0.5372405372405372, 0.1875, 0.0625, 1.0, 0.0
125, 7.531135531135531, -2.258852258852259, -0.32722832722832723, 0.15625, -0.09375, 0.5625, 0.0
126, 6.282051282051282, -1.7594627594627594, -0.5787545787545788, 0.15625, -0.34375, 0.09375, 0.0
127, 4.833943833943834, -1.6703296703296704, -0.5946275946275946, 0.125, -0.34375, -0.15625, 0.0
128, 4.681318681318682, -2.0549450549450547, -0.5860805860805861, 0.125, -0.125, -0.40625, 0.0
129, 5.0537240537240535, -2.7606837606837606, -0.4652014652014652, 0.09375, -0.0625, -0.78125, 0.0
130, 4.976800976800977, -3.3333333333333335, -0.26495726495726496, 0.09375, -0.1875, -1.625, 0.0
131, 4.927960927960928, -2.9108669108669107, -0.12942612942612944, 0.25, -0.25, -2.0625, 1.0
132, 4.7997557997558, -3.8766788766788767, -0.4444444444444444, 0.15625, -0.125, -2.40625, 1.0
133, 3.9145299145299144, -5.0085470085470085, -1.6178266178266179, -0.09375, 0.09375, -3.03125, 1.0
134, 4.52014652014652, -5.26984126984127, -1.3076923076923077, -0.28125, 0.125, -3.6875, 1.0
135, 4.26007326007326, -5.557997557997558, 0.2673992673992674, -0.21875, 0.0, -3.96875, 1.0
136, 1.5555555555555556, -5.317460317460317, 0.7948717948717948, 0.0, 0.28125, -3.8125, 1.0
137, 0.6593406593406593, -6.677655677655678, -0.08913308913308914, -0.03125, 0.78125, -3.875, 1.0
138, -0.22954822954822954, -7.0256410256410255, -0.78998778998779, -0.3125, 1.09375, -4.03125, 1.0
139, -1.089133089133089, -6.029304029304029, -0.645909645909646, -0.34375, 1.1875, -4.34375, 1.0
140, -1.468864468864469, -6.114774114774114, 0.6935286935286935, -0.1875, 1.15625, -4.59375, 1.0
141, -1.564102564102564, -6.031746031746032, 1.0463980463980465, -0.09375, 0.6875, -4.53125, 1.0
142, -5.99023199023199, -5.158730158730159, 0.0231990231990232, -0.09375, 0.8125, -4.53125, 1.0
143, -5.863247863247863, -4.035409035409035, 1.7191697191697193, 0.125, 1.53125, -4.375, 1.0
144, -4.073260073260073, -3.871794871794872, 1.5616605616605617, 0.5625, 1.78125, -4.25, 1.0
145, -5.357753357753357, -4.002442002442002, 0.33577533577533575, 0.65625, 1.0, -4.03125, 1.0
146, -7.097680097680097, -3.705738705738706, 0.21245421245421245, 0.53125, 0.75, -3.90625, 1.0
147, -6.973137973137973, -2.617826617826618, 1.6202686202686203, 0.5625, 1.0625, -3.71875, 1.0
148, -5.862026862026862, -2.623931623931624, 2.3894993894993894, 0.96875, 1.46875, -3.34375, 1.0
149, -4.64957264957265, -2.404151404151404, 1.4847374847374848, 1.375, 1.34375, -3.125, 1.0
150, -4.958485958485959, -2.590964590964591, 0.18192918192918192, 1.4375, 0.78125, -2.875, 1.0
151, -5.426129426129426, -1.9658119658119657, -0.29914529914529914, 1.40625, 0.78125, -2.71875, 1.0
152, -4.964590964590965, -1.4700854700854702, -1.1611721611721613, 1.5, 1.15625, -2.53125, 1.0
153, -4.230769230769231, -0.7057387057387058, -2.821733821733822, 1.5, 1.0625, -2.28125, 1.0
154, -5.713064713064713, 0.21123321123321123, -3.8815628815628815, 1.03125, 0.5, -2.03125, 1.0
155, -6.809523809523809, 0.945054945054945, -4.367521367521367, 0.71875, 0.8125, -1.625, 1.0
156, -6.433455433455434, 2.4590964590964592, -4.235653235653236, 0.625, 0.96875, -1.25, 1.0
157, -5.808302808302808, 3.075702075702076, -3.6507936507936507, 0.59375, 0.75, -0.96875, 1.0
158, -5.871794871794871, 3.0097680097680097, -3.681318681318681, 0.3125, 0.34375, -0.6875, 1.0
159, -6.557997557997558, 3.583638583638584, -3.3907203907203907, 0.03125, 0.3125, -0.28125, 1.0
160, -5.562881562881563, 3.658119658119658, -3.6117216117216118, -0.03125, 0.5, 0.125, 1.0
161, -3.791208791208791, 3.0781440781440783, -3.172161172161172, -0.125, 0.53125, 0.3125, 1.0
162, -2.236874236874237, 2.354090354090354, -2.0732600732600734, -0.1875, 0.375, 0.3125, 1.0
163, -1.4884004884004884, 1.4297924297924298, -1.376068376068376, -0.34375, 0.15625, 0.3125, 1.0
164, -1.1514041514041513, 0.9035409035409036, -0.7032967032967034, -0.4375, 0.09375, 0.3125, 1.0
165, -0.7997557997557998, 0.4810744810744811, 0.08913308913308914, -0.3125, 0.15625, 0.21875, 1.0
166, -0.4163614163614164, 0.008547008547008548, 1.231990231990232, -0.15625, 0.0, 0.15625, 1.0
167, -0.3247863247863248, -0.503052503052503, 1.0158730158730158, -0.0625, -0.09375, 0.125, 1.0
168, -0.03418803418803419, -0.6886446886446886, 0.5653235653235653, -0.0625, -0.125, 0.09375, 1.0
169, 0.09401709401709402, -0.6007326007326007, -0.019536019536019536, -0.09375, -0.125, 0.0625, 1.0
170, -0.20146520146520147, -0.0989010989010989, -0.6251526251526252, -0.09375, -0.125, 0.03125, 1.0
171, -0.5396825396825397, 0.006105006105006105, -0.6788766788766789, -0.03125, -0.0625, 0.09375, 1.0
172, -0.42246642246642246, 0.05372405372405373, -0.46886446886446886, -0.03125, 0.0625, 0.25, 1.0
173, -0.09401709401709402, -0.21611721611721613, -0.46886446886446886, -0.03125, 0.1875, 0.40625, 1.0
174, -0.0231990231990232, -0.02564102564102564, -0.6495726495726496, -0.5625, 0.09375, 0.65625, 0.0
175, -0.6190476190476191, 0.4932844932844933, 0.054945054945054944, -0.5625, 0.03125, 0.59375, 0.0
176, -0.6605616605616605, 0.46886446886446886, -0.07448107448107448, -0.4375, 0.0, 0.53125, 0.0
177, -0.4554334554334554, 0.2893772893772894, -0.1111111111111111, -0.28125, -0.03125, 0.5, 0.0
178, -0.4835164835164835, 0.2796092796092796, -0.04151404151404151, -0.125, 0.0, 0.4375, 0.0
179, 0.3711843711843712, -0.12454212454212454, 0.029304029304029304, -0.09375, 0.0, 0.375, 0.0
180, 0.7496947496947497, -0.4004884004884005, 0.04395604395604396, -0.125, -0.03125, 0.34375, 0.0
181, 0.9133089133089133, -0.47496947496947495, -0.09645909645909646, -0.125, -0.09375, 0.1875, 0.0
182, 0.8449328449328449, -0.3516483516483517, 0.11965811965811966, -0.125, -0.125, 0.0625, 0.0
183, 0.7496947496947497, -0.22466422466422467, 0.20024420024420025, -0.0625, -0.09375, 0.0, 0.0
184, 0.608058608058608, -0.040293040293040296, 0.42857142857142855, 0.03125, 0.0, 0.0, 0.0
185, 0.7594627594627594, -0.3052503052503053, 0.33943833943833945, 0.125, 0.09375, 0.0, 0.0
186, 0.7704517704517705, -0.45787545787545786, 0.23443223443223443, 0.125, 0.125, -0.125, 0.0
187, 0.7863247863247863, -0.1746031746031746, 0.2600732600732601, 0.15625, 0.15625, -0.25, 0.0
188, 0.05860805860805861, 0.4004884004884005, -0.1111111111111111, 0.21875, 0.03125, -0.375, 0.0
189, -0.4163614163614164, 0.7106227106227107, -0.48595848595848595, 0.25, 0.0625, -0.46875, 0.0
190, -1.0036630036630036, 1.2796092796092795, -1.181929181929182, 0.28125, 0.09375, -0.46875, 0.0
191, -1.7704517704517704, 2.244200244200244, -1.8876678876678876, 0.25, 0.125, -0.4375, 0.0
192, -2.1355311355311355, 3.0256410256410255, -2.404151404151404, 0.15625, 0.09375, -0.4375, 0.0
193, -2.6495726495726495, 3.4713064713064714, -2.84981684981685, 0.03125, -0.03125, -0.40625, 0.0
194, -3.7032967032967035, 3.8058608058608057, -3.492063492063492, -0.09375, -0.21875, -0.375, 0.0
195, -4.732600732600733, 4.0256410256410255, -3.978021978021978, -0.34375, -0.4375, -0.25, 0.0
196, -5.336996336996337, 4.037851037851038, -3.937728937728938, -0.65625, -0.5625, 0.09375, 0.0
197, -5.5396825396825395, 3.8412698412698414, -3.5054945054945055, -0.875, -0.5625, 0.40625, 0.0
198, -5.898656898656899, 3.335775335775336, -2.998778998778999, -1.0, -0.5625, 0.75, 0.0
199, -5.677655677655678, 2.6764346764346763, -2.572649572649573, -1.09375, -0.5, 1.34375, 0.0
200, -4.873015873015873, 1.7167277167277166, -2.440781440781441, -1.1875, -0.8125, 1.65625, 0.0
201, -4.671550671550672, 0.46153846153846156, -2.757020757020757, -1.3125, -1.09375, 2.0, 0.0
202, -4.9352869352869355, -0.6996336996336996, -2.862026862026862, -1.34375, -1.0625, 2.375, 0.0
203, -4.525030525030525, -2.304029304029304, -2.7765567765567765, -1.4375, -1.125, 2.625, 0.0
204, -3.9462759462759465, -3.554334554334554, -2.399267399267399, -1.59375, -1.3125, 2.84375, 0.0
205, -3.6324786324786325, -4.284493284493284, -1.750915750915751, -1.625, -1.46875, 3.03125, 0.0
206, -3.4761904761904763, -4.719169719169719, -1.1623931623931625, -1.4375, -1.46875, 3.25, 0.0
207, -3.2747252747252746, -5.498168498168498, -0.9096459096459096, -1.125, -1.46875, 3.5, 0.0
208, -2.9804639804639805, -6.415140415140415, -0.5848595848595849, -0.90625, -1.46875, 3.65625, 0.0
209, -2.8827838827838828, -7.361416361416361, -0.5836385836385837, -0.84375, -1.28125, 3.6875, 0.0
210, -2.5750915750915753, -7.8998778998779, -0.5470085470085471, -0.875, -1.0, 3.5625, 0.0
211, -0.8595848595848596, -7.105006105006105, 0.2625152625152625, -0.8125, -0.9375, 3.4375, 0.0
212, -0.8388278388278388, -6.842490842490842, 0.4896214896214896, -0.65625, -1.09375, 3.3125, 0.0
213, -1.0305250305250304, -5.874236874236874, 0.9047619047619048, -0.53125, -1.125, 3.1875, 0.0
214, -0.8998778998778999, -5.417582417582418, 1.231990231990232, -0.375, -1.09375, 3.21875, 0.0
215, -0.7509157509157509, -5.332112332112332, 1.1575091575091576, -0.1875, -1.0625, 3.1875, 0.0
216, -0.45787545787545786, -4.681318681318682, 1.2002442002442002, -0.0625, -1.09375, 3.0625, 0.0
217, -0.12454212454212454, -4.240537240537241, 0.7826617826617827, 0.125, -1.125, 3.125, 0.0
218, 0.26495726495726496, -3.7081807081807083, 0.5433455433455433, 0.28125, -1.0625, 3.21875, 0.0
219, 1.1782661782661783, -3.6825396825396823, 0.23321123321123322, 0.5, -0.9375, 3.125, 0.0
220, 2.051282051282051, -4.153846153846154, -0.18925518925518925, 0.53125, -1.0625, 2.8125, 0.0
221, 2.3894993894993894, -3.3504273504273505, -0.47863247863247865, 0.375, -1.3125, 2.5, 0.0
222, 2.312576312576313, -3.086691086691087, -0.8974358974358975, 0.4375, -1.25, 2.3125, 0.0
223, 2.440781440781441, -2.998778998778999, -1.2136752136752136, 0.53125, -0.8125, 2.25, 0.0
224, 3.335775335775336, -2.8754578754578755, -1.3614163614163615, 0.5625, -0.5, 2.0, 0.0
225, 4.938949938949939, -3.0586080586080584, -1.84004884004884, 0.375, -0.71875, 1.53125, 0.0
226, 4.246642246642247, -2.7777777777777777, -1.8876678876678876, 0.0625, -0.78125, 1.1875, 0.0
227, 3.5225885225885225, -1.8571428571428572, -1.2808302808302807, 0.09375, -0.46875, 1.03125, 0.0
228, 3.8046398046398044, -1.398046398046398, -0.47985347985347987, 0.21875, -0.21875, 0.875, 0.0
229, 4.246642246642247, -1.2332112332112333, -0.3199023199023199, 0.28125, -0.28125, 0.65625, 0.0
230, 3.4603174603174605, -1.2026862026862026, -0.4163614163614164, 0.1875, -0.375, 0.53125, 0.0
231, 2.4871794871794872, -0.9242979242979243, -0.5628815628815629, 0.125, -0.25, 0.375, 0.0
232, 2.288156288156288, -0.800976800976801, -0.503052503052503, 0.09375, -0.03125, 0.25, 0.0
233, 2.871794871794872, -0.3199023199023199, -0.6788766788766789, 0.15625, -0.0625, 0.0625, 0.0
234, 1.2307692307692308, -0.22344322344322345, -0.568986568986569, 0.125, 0.03125, -0.09375, 0.0
235, 1.8083028083028083, -0.054945054945054944, -0.12454212454212454, 0.46875, 0.125, -0.4375, 0.0
236, 2.3076923076923075, -0.7277167277167277, 0.014652014652014652, 0.75, -0.0625, -0.78125, 1.0
237, 1.9743589743589745, -0.6214896214896215, -0.10012210012210013, 0.59375, -0.375, -0.90625, 1.0
238, 1.3846153846153846, -0.6898656898656899, -0.6593406593406593, 0.53125, -0.375, -0.84375, 1.0
239, 1.6312576312576312, -0.7094017094017094, -1.7179487179487178, 0.3125, -0.0625, -0.75, 1.0
240, 2.061050061050061, -0.8498168498168498, -2.457875457875458, 0.28125, 0.125, -0.96875, 1.0
241, 2.78021978021978, -1.8485958485958487, -2.989010989010989, 0.1875, 0.3125, -1.0625, 1.0
242, 3.1001221001221, -4.245421245421245, -3.0036630036630036, -0.03125, 0.78125, -1.375, 1.0
243, 4.415140415140415, -4.930402930402931, -1.9682539682539681, -0.46875, 1.25, -1.84375, 1.0
244, 4.781440781440781, -5.078144078144078, -0.32967032967032966, -0.71875, 1.0625, -2.53125, 1.0
245, 3.6678876678876677, -5.118437118437118, 0.20146520146520147, -0.78125, 0.5625, -3.40625, 1.0
246, 1.844932844932845, -5.21001221001221, -0.08180708180708181, -0.875, 0.21875, -3.78125, 1.0
247, 0.2673992673992674, -5.186813186813187, 0.003663003663003663, -0.9375, 0.4375, -4.0, 1.0
248, -0.5006105006105006, -4.742368742368742, 0.4371184371184371, -0.8125, 0.65625, -4.15625, 1.0
249, -1.1526251526251525, -5.424908424908425, 0.15506715506715507, -0.71875, 0.75, -4.1875, 1.0
250, -1.9035409035409034, -5.6996336996337, 0.28083028083028083, -0.78125, 0.71875, -4.1875, 1.0
251, -2.807081807081807, -5.123321123321123, 1.1025641025641026, -0.71875, 0.9375, -4.1875, 1.0
252, -2.9865689865689866, -4.775335775335775, 2.1953601953601956, -0.40625, 1.25, -4.09375, 1.0
253, -2.625152625152625, -4.413919413919414, 1.4822954822954824, -0.03125, 1.28125, -4.34375, 1.0
254, -2.960927960927961, -5.681318681318682, 0.1330891330891331, -0.1875, 0.78125, -4.125, 1.0
255, -4.507936507936508, -4.473748473748474, 0.4358974358974359, -0.15625, 0.90625, -4.0, 1.0
256, -4.77045177045177, -3.758241758241758, 0.6837606837606838, 0.03125, 1.21875, -3.84375, 1.0
257, -4.87057387057387, -3.3943833943833943, 0.6251526251526252, 0.28125, 1.3125, -3.53125, 1.0
258, -4.721611721611722, -3.474969474969475, 0.7191697191697192, 0.46875, 1.28125, -3.375, 1.0
259, -4.384615384615385, -3.249084249084249, 0.7008547008547008, 0.59375, 1.25, -3.15625, 1.0
260, -4.2515262515262515, -3.086691086691087, -0.3235653235653236, 0.78125, 1.0625, -3.1875, 1.0
261, -5.2625152625152625, -2.427350427350427, -0.7374847374847375, 0.71875, 0.84375, -3.125, 1.0
262, -5.661782661782662, -1.8144078144078144, -0.47741147741147744, 0.71875, 1.0, -2.875, 1.0
263, -3.7948717948717947, -1.6080586080586081, -1.231990231990232, 0.96875, 1.25, -2.5, 1.0
264, -3.5653235653235655, -1.794871794871795, -2.415140415140415, 1.15625, 1.1875, -2.4375, 1.0
265, -4.656898656898657, -1.5372405372405373, -2.8363858363858365, 1.09375, 1.0625, -2.34375, 1.0
266, -5.113553113553113, -0.568986568986569, -2.2295482295482296, 0.9375, 1.21875, -2.1875, 1.0
267, -4.1330891330891335, -0.01098901098901099, -1.9035409035409034, 0.9375, 1.3125, -1.9375, 1.0
268, -4.52991452991453, 0.03296703296703297, -1.8937728937728937, 0.90625, 1.1875, -1.59375, 1.0
269, -4.240537240537241, 0.6910866910866911, -1.6227106227106227, 0.875, 1.125, -1.28125, 1.0
270, -4.902319902319903, 1.435897435897436, -1.8205128205128205, 0.8125, 0.84375, -1.0625, 1.0
271, -6.061050061050061, 2.2051282051282053, -1.9328449328449329, 0.6875, 0.8125, -0.65625, 1.0
272, -5.523809523809524, 2.568986568986569, -1.866910866910867, 0.59375, 0.78125, -0.3125, 1.0
273, -4.7997557997558, 2.8253968253968256, -1.9181929181929183, 0.4375, 0.46875, -0.125, 1.0
274, -4.627594627594628, 2.597069597069597, -2.2527472527472527, 0.1875, 0.15625, 0.03125, 1.0
275, -4.095238095238095, 2.6507936507936507, -1.967032967032967, 0.03125, 0.21875, 0.3125, 1.0
276, -2.727716727716728, 2.057387057387057, -1.5177045177045176, 0.0, 0.25, 0.46875, 1.0
277, -1.336996336996337, 1.2393162393162394, -0.7875457875457875, -0.03125, 0.21875, 0.5, 1.0
278, -0.5457875457875457, 0.34554334554334554, -0.5836385836385837, -0.09375, 0.09375, 0.4375, 1.0
279, -0.15506715506715507, -0.13186813186813187, -0.4725274725274725, -0.1875, 0.0, 0.40625, 1.0
280, -0.24786324786324787, -0.37362637362637363, -0.2661782661782662, -0.40625, 0.0, 0.4375, 1.0
281, -0.3504273504273504, -0.5934065934065934, -0.09523809523809523, -0.5625, 0.0625, 0.625, 1.0
282, -0.09035409035409035, -0.19291819291819293, -0.09401709401709402, -0.78125, 0.1875, 0.84375, 1.0
283, -0.07448107448107448, -0.15506715506715507, -0.047619047619047616, -0.65625, 0.1875, 0.8125, 0.0
284, 0.2844932844932845, -0.2442002442002442, -0.020757020757020756, -0.46875, 0.09375, 0.6875, 0.0
285, 0.06105006105006105, -0.2258852258852259, 0.06227106227106227, -0.34375, -0.03125, 0.59375, 0.0
286, -0.052503052503052504, -0.29304029304029305, -0.04151404151404151, -0.21875, -0.09375, 0.5, 0.0
287, -0.01098901098901099, -0.2087912087912088, -0.16605616605616605, -0.09375, -0.03125, 0.375, 0.0
288, -0.10378510378510379, 0.05860805860805861, -0.13553113553113552, 0.03125, 0.0, 0.28125, 0.0
289, -0.231990231990232, -0.30036630036630035, -0.2905982905982906, 0.1875, 0.0625, 0.21875, 0.0
290, -0.1794871794871795, -0.031746031746031744, -0.2686202686202686, 0.125, 0.125, 0.28125, 0.0
291, -0.21733821733821734, -0.11233211233211234, -0.42002442002442003, 0.09375, 0.25, 0.3125, 0.0
292, 0.18192918192918192, 0.07692307692307693, -0.2869352869352869, -0.03125, 0.25, 0.25, 0.0
293, 0.231990231990232, 0.304029304029304, -0.008547008547008548, -0.09375, 0.125, 0.15625, 0.0
294, 0.050061050061050064, 0.7802197802197802, 0.14285714285714285, -0.03125, 0.09375, 0.0625, 0.0
295, -0.15506715506715507, 1.0024420024420024, 0.0989010989010989, -0.03125, 0.09375, 0.125, 0.0
296, -0.6764346764346765, 1.407814407814408, -0.0989010989010989, -0.03125, 0.09375, 0.375, 0.0
297, -1.0695970695970696, 1.7338217338217339, -0.10622710622710622, 0.03125, 0.25, 0.5625, 0.0
298, -0.7777777777777778, 1.5384615384615385, -0.3199023199023199, 0.15625, 0.46875, 0.625, 0.0
299, -0.6605616605616605, 1.1428571428571428, -1.115995115995116, 0.09375, 0.34375, 0.53125, 0.0
300, -1.3992673992673992, 1.2307692307692308, -1.6202686202686203, -0.125, 0.0, 0.25, 0.0
301, -2.9023199023199022, 1.4383394383394383, -1.6862026862026862, -0.4375, -0.53125, 0.0625, 0.0
302, -4.73992673992674, 1.934065934065934, -1.326007326007326, -0.65625, -0.90625, 0.09375, 0.0
303, -5.90964590964591, 2.7716727716727716, -1.1526251526251525, -0.625, -1.15625, 0.3125, 0.0
304, -8.02075702075702, 2.6617826617826617, -2.7777777777777777, -0.4375, -1.25, 1.25, 0.0
305, -7.7765567765567765, 2.103785103785104, -3.5409035409035408, -0.5, -0.9375, 1.9375, 0.0
306, -6.37973137973138, 1.592185592185592, -4.028083028083028, -0.5, -0.5, 2.5625, 0.0
307, -4.122100122100122, 0.673992673992674, -4.294261294261294, -0.5625, -0.4375, 3.03125, 0.0
308, -2.2454212454212454, -0.590964590964591, -4.487179487179487, -0.75, -0.9375, 3.125, 0.0
309, -1.4713064713064714, -1.474969474969475, -4.484737484737485, -1.09375, -1.875, 2.96875, 0.0
310, -2.5567765567765566, -1.811965811965812, -4.315018315018315, -1.46875, -2.78125, 2.90625, 0.0
311, -3.7484737484737485, -2.5164835164835164, -4.942612942612943, -1.5625, -2.78125, 3.125, 0.0
312, -3.871794871794872, -4.42979242979243, -5.1330891330891335, -1.59375, -2.03125, 3.4375, 0.0
313, -2.7081807081807083, -5.554334554334554, -4.3760683760683765, -1.6875, -1.28125, 3.5625, 0.0
314, -1.7533577533577533, -5.914529914529915, -3.2173382173382175, -1.75, -1.0, 3.53125, 0.0
315, -1.778998778998779, -5.958485958485959, -1.8754578754578755, -1.65625, -0.9375, 3.59375, 0.0
316, -1.7326007326007327, -6.1001221001221, -0.6764346764346765, -1.375, -0.75, 3.71875, 0.0
317, -1.3943833943833943, -6.2234432234432235, 0.05616605616605617, -0.9375, -0.53125, 3.71875, 0.0
318, -0.9145299145299145, -6.981684981684982, 0.3125763125763126, -0.71875, -0.4375, 3.625, 0.0
319, -0.6068376068376068, -6.8559218559218555, 0.4981684981684982, -0.625, -0.40625, 3.40625, 0.0
320, -0.6715506715506715, -6.280830280830281, 0.7094017094017094, -0.53125, -0.40625, 3.25, 0.0
321, -0.7619047619047619, -5.9743589743589745, 1.120879120879121, -0.46875, -0.40625, 3.15625, 0.0
322, -0.315018315018315, -5.544566544566544, 1.7338217338217339, -0.21875, -0.46875, 2.90625, 0.0
323, 0.45787545787545786, -5.118437118437118, 1.778998778998779, -0.03125, -0.78125, 2.625, 0.0
324, 0.30036630036630035, -5.084249084249084, 1.7106227106227105, -0.0625, -1.09375, 2.40625, 0.0
325, -0.1684981684981685, -4.942612942612943, 1.592185592185592, -0.09375, -1.09375, 2.21875, 0.0
326, 0.2771672771672772, -4.468864468864469, 1.8485958485958487, -0.0625, -1.125, 2.15625, 0.0
327, 1.2307692307692308, -3.586080586080586, 1.5042735042735043, 0.28125, -1.1875, 1.875, 0.0
328, 1.0769230769230769, -3.1514041514041513, 0.9902319902319903, 0.40625, -1.40625, 1.75, 0.0
329, 1.0415140415140416, -2.6666666666666665, 0.304029304029304, 0.375, -1.5, 1.59375, 0.0
330, 0.8681318681318682, -2.2967032967032965, -0.03296703296703297, 0.28125, -1.40625, 1.46875, 0.0
331, 1.3492063492063493, -1.5457875457875458, 0.08547008547008547, 0.25, -1.09375, 1.5625, 0.0
332, 2.5641025641025643, -1.2124542124542124, 0.001221001221001221, 0.5, -0.84375, 1.6875, 0.0
333, 3.9743589743589745, -1.1660561660561661, -0.9621489621489622, 0.75, -0.78125, 1.59375, 0.0
334, 4.258852258852259, -1.9145299145299146, -2.236874236874237, 0.6875, -0.875, 1.3125, 0.0
335, 4.122100122100122, -1.9133089133089134, -2.490842490842491, 0.21875, -0.78125, 0.96875, 0.0
336, 4.4945054945054945, -0.8058608058608059, -2.1684981684981683, -0.0625, -0.53125, 0.75, 0.0
337, 4.293040293040293, -0.3333333333333333, -2.017094017094017, 0.0, -0.25, 0.625, 0.0
338, 3.664224664224664, -0.6556776556776557, -1.7008547008547008, 0.0625, 0.125, 0.46875, 0.0
339, 3.8522588522588523, -0.36874236874236876, -1.10989010989011, 0.0625, 0.46875, 0.28125, 0.0
340, 3.879120879120879, -0.4053724053724054, -0.6800976800976801, 0.0, 0.25, 0.0625, 0.0
341, 3.3455433455433456, -0.014652014652014652, -0.4700854700854701, 0.09375, 0.03125, -0.15625, 0.0
342, 2.4786324786324787, -0.16605616605616605, -0.42246642246642246, 0.28125, 0.03125, -0.34375, 0.0
343, 2.294261294261294, -0.9194139194139194, -0.7338217338217338, 0.53125, 0.1875, -0.78125, 0.0
344, 4.5225885225885225, -2.4603174603174605, -0.7814407814407814, 0.53125, 0.0625, -1.375, 1.0
345, 6.046398046398046, -3.4078144078144077, -0.8559218559218559, 0.1875, -0.15625, -1.90625, 1.0
346, 5.299145299145299, -3.641025641025641, -1.0476190476190477, 0.15625, 0.0, -2.3125, 1.0
347, 4.199023199023199, -5.368742368742368, -2.242979242979243, 0.0, 0.5, -2.6875, 1.0
348, 3.728937728937729, -7.010989010989011, -2.2002442002442004, -0.375, 0.8125, -3.34375, 1.0
349, 2.935286935286935, -7.463980463980464, -1.0732600732600732, -0.75, 0.875, -3.78125, 1.0
350, 1.6141636141636142, -7.062271062271062, 0.042735042735042736, -0.9375, 0.875, -4.09375, 1.0
351, -0.9633699633699634, -6.670329670329671, 0.4126984126984127, -0.8125, 1.0, -4.34375, 1.0
352, -1.5763125763125763, -6.212454212454213, 0.5262515262515263, -0.75, 1.0625, -4.40625, 1.0
353, -2.2808302808302807, -5.6471306471306475, 1.2039072039072038, -0.46875, 1.03125, -4.34375, 1.0
354, -1.9474969474969475, -5.0256410256410255, 1.9572649572649572, -0.125, 1.3125, -4.375, 1.0
355, -0.8363858363858364, -4.913308913308914, 1.7264957264957266, 0.15625, 1.21875, -4.5, 1.0
356, -1.84981684981685, -5.317460317460317, -0.23809523809523808, 0.1875, 0.71875, -4.65625, 1.0
357, -4.418803418803419, -4.6300366300366305, -1.028083028083028, 0.0625, 0.53125, -4.65625, 1.0
358, -5.514041514041514, -3.214896214896215, -0.25274725274725274, 0.15625, 1.125, -4.4375, 1.0
359, -4.457875457875458, -2.5347985347985347, -0.2588522588522589, 0.53125, 1.71875, -4.1875, 1.0
360, -4.561660561660561, -3.3882783882783882, -1.120879120879121, 0.6875, 1.625, -4.0625, 1.0
361, -5.982905982905983, -3.612942612942613, -0.7545787545787546, 0.5, 1.46875, -3.75, 1.0
362, -5.424908424908425, -2.3516483516483517, 0.27228327228327226, 0.625, 1.78125, -3.53125, 1.0
363, -5.1330891330891335, -1.873015873015873, -0.41025641025641024, 0.84375, 1.4375, -3.625, 1.0
364, -5.641025641025641, -2.456654456654457, -1.2332112332112333, 0.71875, 1.03125, -3.6875, 1.0
365, -6.230769230769231, -2.1074481074481075, -0.9743589743589743, 0.40625, 0.8125, -3.3125, 1.0
366, -6.8046398046398044, -1.4713064713064714, -0.2442002442002442, 0.4375, 1.21875, -2.96875, 1.0
367, -5.5335775335775335, -0.16605616605616605, -0.21123321123321123, 0.90625, 1.5, -2.5, 1.0
368, -5.078144078144078, -0.36996336996337, -1.778998778998779, 1.0625, 1.40625, -2.375, 1.0
369, -5.241758241758242, -0.989010989010989, -3.208791208791209, 0.65625, 1.125, -2.09375, 1.0
370, -5.444444444444445, -0.028083028083028084, -2.984126984126984, 0.28125, 1.125, -1.875, 1.0
371, -5.428571428571429, 1.2002442002442002, -1.8363858363858363, 0.25, 1.15625, -1.625, 1.0
372, -5.4664224664224665, 1.73992673992674, -1.468864468864469, 0.375, 1.125, -1.28125, 1.0
373, -5.702075702075702, 2.0781440781440783, -1.9035409035409034, 0.34375, 1.03125, -0.8125, 1.0
374, -5.691086691086691, 1.6324786324786325, -1.8205128205128205, 0.03125, 0.875, -0.40625, 1.0
375, -4.650793650793651, 2.087912087912088, -0.8644688644688645, -0.03125, 0.8125, -0.125, 1.0
376, -4.074481074481074, 1.7252747252747254, -0.31746031746031744, 0.0, 0.5625, 0.09375, 1.0
377, -3.1416361416361416, 0.9365079365079365, -0.24664224664224665, 0.0, 0.21875, 0.21875, 1.0
378, -2.687423687423687, 0.4358974358974359, -0.3882783882783883, -0.0625, 0.0625, 0.25, 1.0
379, -1.6605616605616607, -0.115995115995116, -0.31135531135531136, -0.09375, 0.09375, 0.3125, 1.0
380, -0.358974358974359, -0.03907203907203907, -0.23809523809523808, -0.15625, 0.03125, 0.40625, 1.0
381, 0.2893772893772894, -0.3064713064713065, -0.27594627594627597, -0.125, -0.09375, 0.3125, 1.0
382, 0.07448107448107448, -0.33577533577533575, -0.30158730158730157, -0.09375, -0.125, 0.25, 1.0
383, -0.0463980463980464, -0.3418803418803419, -0.2954822954822955, -0.03125, 0.0, 0.28125, 1.0
384, -0.15873015873015872, -0.23076923076923078, -0.21855921855921856, 0.0, 0.125, 0.3125, 1.0
385, -0.047619047619047616, -0.28083028083028083, -0.12087912087912088, -0.09375, 0.21875, 0.40625, 1.0
386, 0.04884004884004884, -0.4004884004884005, 0.05616605616605617, -0.25, 0.15625, 0.40625, 1.0
387, -0.17094017094017094, -0.1978021978021978, 0.03663003663003663, -0.4375, 0.09375, 0.53125, 1.0
388, -0.5164835164835165, 0.13797313797313798, 0.0, -0.53125, 0.0625, 0.65625, 0.0
389, -0.8620268620268621, 0.8363858363858364, 0.3089133089133089, -0.375, 0.03125, 0.6875, 0.0
390, -0.36752136752136755, 0.612942612942613, 0.020757020757020756, -0.28125, 0.0, 0.6875, 0.0
391, -0.5091575091575091, 0.514041514041514, -0.5860805860805861, -0.0625, 0.0, 0.53125, 0.0
392, -0.7216117216117216, 0.5054945054945055, -0.9682539682539683, -0.03125, 0.0625, 0.53125, 0.0
393, -0.6263736263736264, 0.3553113553113553, -1.1831501831501832, -0.0625, 0.1875, 0.53125, 0.0
394, -0.1575091575091575, 0.31868131868131866, -0.8278388278388278, -0.125, 0.15625, 0.5625, 0.0
395, 0.17094017094017094, 0.19291819291819293, -0.5421245421245421, -0.1875, 0.125, 0.5625, 0.0
396, 0.43833943833943834, -0.12332112332112333, -0.13553113553113552, -0.15625, 0.1875, 0.5, 0.0
397, 1.713064713064713, -0.43956043956043955, 0.18925518925518925, 0.0, 0.25, 0.3125, 0.0
398, 1.5592185592185592, -0.5006105006105006, -0.0927960927960928, 0.0625, 0.34375, 0.03125, 0.0
399, 1.1294261294261294, 0.02564102564102564, -0.05860805860805861, 0.0, 0.21875, -0.09375, 0.0
400, -0.45787545787545786, 1.1684981684981686, -0.12087912087912088, 0.0, 0.25, -0.15625, 0.0
401, -1.5677655677655677, 2.1526251526251525, -0.9242979242979243, 0.25, 0.4375, -0.21875, 0.0
402, -3.57997557997558, 2.5982905982905984, -2.1709401709401708, 0.40625, 0.21875, -0.21875, 0.0
403, -5.233211233211233, 2.573870573870574, -2.905982905982906, 0.15625, -0.1875, -0.09375, 0.0
404, -6.8107448107448105, 3.3333333333333335, -2.8534798534798536, -0.25, -0.46875, 0.0625, 0.0
405, -7.693528693528694, 3.9450549450549453, -2.855921855921856, -0.53125, -0.625, 0.46875, 0.0
406, -7.78021978021978, 3.47985347985348, -2.924297924297924, -0.65625, -0.875, 0.90625, 0.0
407, -7.7655677655677655, 2.9474969474969477, -3.2454212454212454, -0.75, -1.09375, 1.46875, 0.0
408, -6.965811965811966, 2.087912087912088, -3.664224664224664, -0.84375, -1.03125, 2.46875, 0.0
409, -5.771672771672772, 0.34798534798534797, -4.258852258852259, -1.03125, -0.90625, 3.03125, 0.0
410, -4.284493284493284, -1.1575091575091576, -4.2002442002442, -1.3125, -0.90625, 3.28125, 0.0
411, -2.924297924297924, -2.3943833943833943, -3.6788766788766787, -1.53125, -1.03125, 3.28125, 0.0
412, -1.9975579975579976, -3.2356532356532357, -2.912087912087912, -1.6875, -1.375, 3.25, 0.0
413, -2.0634920634920637, -3.9682539682539684, -2.15995115995116, -1.71875, -1.6875, 3.25, 0.0
414, -2.47008547008547, -4.638583638583639, -1.1196581196581197, -1.5625, -1.8125, 3.46875, 0.0
415, -2.231990231990232, -4.791208791208791, -0.11965811965811966, -1.15625, -1.8125, 3.71875, 0.0
416, -1.7374847374847375, -5.385836385836386, -0.01098901098901099, -0.625, -1.84375, 3.84375, 0.0
417, -1.5274725274725274, -6.9072039072039075, -0.8583638583638583, -0.46875, -1.90625, 3.8125, 0.0
418, -1.916971916971917, -7.61050061050061, -1.496947496947497, -0.59375, -1.65625, 3.53125, 0.0
419, -1.5995115995115996, -7.564102564102564, -1.393162393162393, -0.84375, -1.40625, 3.375, 0.0
420, -1.1831501831501832, -6.0085470085470085, 0.23565323565323565, -0.59375, -1.03125, 3.4375, 0.0
421, -0.6288156288156288, -5.368742368742368, 0.6764346764346765, -0.28125, -0.90625, 3.46875, 0.0
422, 0.0695970695970696, -5.5396825396825395, 0.6910866910866911, -0.03125, -0.96875, 3.40625, 0.0
423, 0.20634920634920634, -5.358974358974359, 0.326007326007326, 0.0, -1.1875, 3.1875, 0.0
424, 0.02442002442002442, -4.7484737484737485, -0.04395604395604396, 0.0, -1.25, 2.96875, 0.0
425, -0.06593406593406594, -4.239316239316239, -0.13186813186813187, 0.03125, -1.21875, 2.875, 0.0
426, 0.1575091575091575, -3.9401709401709404, 0.1221001221001221, 0.125, -1.03125, 2.875, 0.0
427, 0.8986568986568987, -3.755799755799756, 0.27106227106227104, 0.21875, -0.84375, 2.875, 0.0
428, 1.0268620268620268, -3.9511599511599513, 0.3064713064713065, 0.25, -0.90625, 2.71875, 0.0
429, 1.192918192918193, -3.36996336996337, 0.6507936507936508, 0.125, -0.96875, 2.5625, 0.0
430, 1.5824175824175823, -3.064713064713065, 0.7545787545787546, 0.125, -0.96875, 2.4375, 0.0
431, 2.4896214896214897, -2.989010989010989, 0.7264957264957265, 0.21875, -0.96875, 2.3125, 0.0
432, 3.484737484737485, -3.0146520146520146, 0.13553113553113552, 0.46875, -0.90625, 2.09375, 0.0
433, 5.112332112332112, -2.960927960927961, -0.7313797313797313, 0.5, -0.90625, 1.65625, 0.0
434, 5.562881562881563, -3.0366300366300365, -1.7521367521367521, 0.34375, -0.90625, 1.1875, 0.0
435, 4.858363858363858, -2.275946275946276, -2.0976800976800978, 0.125, -0.65625, 0.90625, 0.0
436, 4.452991452991453, -1.551892551892552, -1.691086691086691, 0.03125, -0.21875, 0.71875, 0.0
437, 4.427350427350428, -1.065934065934066, -1.0512820512820513, 0.09375, 0.0, 0.53125, 0.0
438, 4.180708180708181, -0.5091575091575091, -0.39316239316239315, 0.15625, 0.0, 0.3125, 0.0
439, 3.4725274725274726, -0.49206349206349204, -0.25518925518925517, 0.15625, -0.15625, 0.1875, 0.0
440, 3.336996336996337, -0.36752136752136755, -0.31013431013431014, 0.15625, -0.3125, 0.03125, 0.0
441, 3.4615384615384617, -0.4993894993894994, -0.8046398046398047, 0.09375, -0.34375, -0.15625, 0.0
442, 3.3003663003663, -0.5811965811965812, -1.2136752136752136, 0.03125, -0.15625, -0.3125, 0.0
443, 3.2112332112332114, -0.3553113553113553, -1.4566544566544566, 0.5625, 0.125, -0.90625, 0.0
444, 3.6336996336996337, -2.2124542124542126, -1.8046398046398047, 0.8125, 0.25, -1.375, 0.0
445, 3.3394383394383396, -2.57997557997558, -2.236874236874237, 0.0625, 0.375, -1.5, 1.0
446, 5.057387057387057, -2.0525030525030523, -1.126984126984127, -0.15625, 0.34375, -1.96875, 1.0
447, 5.146520146520147, -3.2747252747252746, -0.7277167277167277, -0.125, 0.15625, -2.25, 1.0
448, 4.6471306471306475, -3.894993894993895, -1.3711843711843712, -0.1875, 0.09375, -2.6875, 1.0
449, 2.868131868131868, -4.697191697191697, -2.006105006105006, -0.375, 0.0625, -3.0625, 1.0
450, 1.7203907203907205, -5.045177045177045, -1.8974358974358974, -0.8125, 0.375, -3.46875, 1.0
451, 0.9768009768009768, -5.599511599511599, -0.894993894993895, -1.03125, 0.8125, -3.59375, 1.0
452, 1.2954822954822955, -5.336996336996337, -0.16117216117216118, -0.84375, 1.0625, -4.0, 1.0
453, 0.43223443223443225, -6.31013431013431, 0.031746031746031744, -0.75, 0.9375, -4.3125, 1.0
454, -0.22954822954822954, -6.667887667887668, 0.7509157509157509, -0.875, 0.75, -4.5625, 1.0
455, -0.4346764346764347, -6.678876678876679, 0.6166056166056166, -1.09375, 0.5, -4.875, 1.0
456, -1.5665445665445665, -6.678876678876679, -0.42735042735042733, -1.1875, 0.4375, -5.0625, 1.0
457, -3.293040293040293, -5.5054945054945055, -0.3797313797313797, -1.0625, 0.78125, -5.03125, 1.0
458, -4.448107448107448, -5.170940170940171, 0.10744810744810745, -0.8125, 1.40625, -4.65625, 1.0
459, -3.9975579975579976, -5.3247863247863245, 0.4603174603174603, -0.65625, 1.8125, -4.28125, 1.0
460, -3.3394383394383396, -4.753357753357753, 0.9365079365079365, -0.34375, 1.84375, -4.15625, 1.0
461, -3.584859584859585, -5.177045177045177, 0.2026862026862027, -0.1875, 1.71875, -4.0625, 1.0
462, -4.04029304029304, -5.194139194139194, 0.3882783882783883, -0.21875, 1.71875, -4.03125, 1.0
463, -4.041514041514041, -4.4493284493284495, 0.9560439560439561, -0.09375, 1.5, -3.90625, 1.0
464, -4.498168498168498, -3.7826617826617825, 0.684981684981685, 0.0625, 1.28125, -3.8125, 1.0
465, -5.523809523809524, -3.7936507936507935, 0.11233211233211234, 0.15625, 1.25, -3.59375, 1.0
466, -6.406593406593407, -3.15018315018315, 0.32844932844932845, 0.34375, 1.40625, -3.03125, 1.0
467, -5.710622710622711, -2.1697191697191696, 0.7777777777777778, 0.8125, 1.84375, -2.5, 1.0
468, -4.221001221001221, -2.6776556776556775, 0.10866910866910867, 1.09375, 1.90625, -2.21875, 1.0
469, -3.474969474969475, -2.67032967032967, -1.017094017094017, 1.1875, 1.4375, -2.3125, 1.0
470, -4.803418803418803, -2.299145299145299, -1.5152625152625152, 0.96875, 0.84375, -2.4375, 1.0
471, -5.743589743589744, -0.6166056166056166, -1.595848595848596, 0.78125, 0.6875, -2.34375, 1.0
472, -6.09035409035409, 0.4652014652014652, -1.9877899877899878, 0.84375, 0.875, -1.90625, 1.0
473, -5.266178266178266, 0.608058608058608, -2.608058608058608, 1.0, 1.15625, -1.34375, 1.0
474, -3.9621489621489623, 0.8290598290598291, -2.943833943833944, 0.875, 1.21875, -0.96875, 1.0
475, -3.6434676434676434, 1.2991452991452992, -2.68009768009768, 0.625, 1.0625, -0.75, 1.0
476, -4.108669108669108, 1.623931623931624, -2.0268620268620268, 0.375, 0.90625, -0.65625, 1.0
477, -4.415140415140415, 2.2173382173382175, -1.2295482295482296, 0.25, 0.75, -0.46875, 1.0
478, -4.462759462759463, 2.4249084249084247, -0.8498168498168498, 0.1875, 0.6875, 0.03125, 1.0
479, -4.076923076923077, 2.4175824175824174, -0.6361416361416361, 0.21875, 0.71875, 0.3125, 1.0
480, -3.335775335775336, 1.7423687423687424, -0.6288156288156288, 0.125, 0.59375, 0.4375, 1.0
481, -2.7106227106227108, 1.26007326007326, -0.7057387057387058, -0.03125, 0.34375, 0.4375, 1.0
482, -1.855921855921856, 0.9645909645909646, -0.6410256410256411, -0.15625, 0.0625, 0.40625, 1.0
483, -1.5042735042735043, 0.5091575091575091, -0.7045177045177046, -0.28125, -0.0625, 0.40625, 1.0
484, -0.9157509157509157, 0.2771672771672772, -0.5616605616605617, -0.375, -0.125, 0.4375, 1.0
485, -0.5396825396825397, 0.047619047619047616, -0.9841269841269841, -0.4375, -0.15625, 0.53125, 1.0
486, -0.2796092796092796, 0.04395604395604396, -1.2405372405372406, -0.375, -0.125, 0.5, 0.0
487, -0.3797313797313797, -0.04884004884004884, -1.2686202686202686, -0.34375, -0.03125, 0.5, 0.0
488, 0.30158730158730157, -0.3956043956043956, -0.8290598290598291, -0.4375, 0.0, 0.46875, 0.0
489, -0.08302808302808302, -0.16605616605616605, -0.3308913308913309, -0.40625, -0.09375, 0.4375, 0.0
490, -0.3772893772893773, -0.16361416361416362, 0.057387057387057384, -0.21875, -0.1875, 0.4375, 0.0
491, 0.003663003663003663, -0.7130647130647131, 0.06349206349206349, -0.15625, -0.125, 0.5, 0.0
492, 0.5555555555555556, -0.7338217338217338, 0.2442002442002442, -0.125, -0.03125, 0.46875, 0.0
493, 1.0073260073260073, -0.8351648351648352, 0.31013431013431014, -0.0625, -0.0625, 0.34375, 0.0
494, 1.3272283272283272, -0.9072039072039072, 0.4249084249084249, 0.0, -0.125, 0.21875, 0.0
495, 0.9511599511599511, -0.6019536019536019, 0.4896214896214896, 0.0, -0.15625, 0.125, 0.0
496, 0.3321123321123321, -0.08913308913308914, 0.5115995115995116, 0.125, -0.03125, 0.125, 0.0
497, 0.07203907203907203, 0.06715506715506715, 0.06227106227106227, 0.28125, 0.15625, 0.125, 0.0
498, -0.27472527472527475, 0.514041514041514, -0.905982905982906, 0.3125, 0.25, 0.125, 0.0
499, -1.507936507936508, 1.6862026862026862, -1.5885225885225884, 0.1875, 0.15625, 0.125, 0.0
500, -3.326007326007326, 2.8583638583638584, -1.8388278388278387, 0.03125, 0.03125, 0.125, 0.0
501, -4.95970695970696, 3.5873015873015874, -1.84981684981685, 0.0, -0.0625, 0.40625, 0.0
502, -5.905982905982906, 3.901098901098901, -1.962148962148962, 0.0, -0.15625, 0.75, 0.0
503, -6.09035409035409, 3.8913308913308913, -2.139194139194139, -0.09375, -0.4375, 1.03125, 0.0
504, -6.249084249084249, 3.4346764346764345, -2.3443223443223444, -0.25, -0.90625, 1.375, 0.0
505, -7.023199023199023, 3.004884004884005, -2.6373626373626373, -0.375, -1.09375, 1.84375, 0.0
506, -7.545787545787546, 2.225885225885226, -2.89010989010989, -0.4375, -0.9375, 2.40625, 0.0
507, -6.462759462759463, 1.3821733821733821, -2.9804639804639805, -0.46875, -0.71875, 3.0, 0.0
508, -4.7936507936507935, -0.05372405372405373, -3.122100122100122, -0.625, -0.84375, 3.25, 0.0
509, -4.024420024420024, -1.4639804639804639, -2.95970695970696, -0.90625, -1.28125, 3.25, 0.0
510, -4.365079365079365, -2.294261294261294, -2.7838827838827838, -1.09375, -1.65625, 3.34375, 0.0
511, -4.711843711843712, -3.791208791208791, -3.3516483516483517, -1.28125, -1.65625, 3.53125, 0.0
512, -4.26007326007326, -4.564102564102564, -3.2954822954822953, -1.375, -1.5, 3.71875, 0.0
513, -2.843711843711844, -5.398046398046398, -2.536019536019536, -1.375, -1.25, 3.9375, 0.0
514, -2.5518925518925517, -6.704517704517705, -1.945054945054945, -1.3125, -1.15625, 4.03125, 0.0
515, -2.3015873015873014, -6.877899877899878, -1.1477411477411477, -1.1875, -1.0625, 4.125, 0.0
516, -1.4810744810744811, -6.908424908424909, -0.8766788766788767, -0.90625, -0.96875, 4.1875, 0.0
517, -1.2002442002442002, -7.3357753357753355, -0.6336996336996337, -0.625, -1.03125, 4.15625, 0.0
518, -1.7716727716727716, -7.871794871794871, -0.6837606837606838, -0.53125, -0.875, 4.09375, 0.0
519, -1.236874236874237, -7.598290598290598, -0.22466422466422467, -0.53125, -0.375, 3.96875, 0.0
520, 0.12454212454212454, -6.888888888888889, 0.20757020757020758, -0.46875, -0.25, 3.75, 0.0
521, 0.8107448107448108, -5.888888888888889, 0.199023199023199, -0.40625, -0.5625, 3.5, 0.0
522, -0.6166056166056166, -5.457875457875458, 0.08913308913308914, -0.3125, -0.9375, 3.15625, 0.0
523, -1.4456654456654456, -5.152625152625153, 0.6996336996336996, -0.375, -0.75, 3.1875, 0.0
524, -0.41514041514041516, -4.94993894993895, 1.4407814407814408, -0.34375, -0.34375, 3.1875, 0.0
525, 1.1733821733821734, -4.3418803418803416, 2.115995115995116, -0.15625, -0.625, 2.90625, 0.0
526, 1.763125763125763, -3.681318681318681, 1.927960927960928, 0.0, -1.15625, 2.6875, 0.0
527, 0.8253968253968254, -3.7838827838827838, 1.3821733821733821, 0.1875, -1.21875, 2.65625, 0.0
528, 1.0012210012210012, -3.8632478632478633, 0.9023199023199023, 0.34375, -0.8125, 2.75, 0.0
529, 2.5934065934065935, -3.916971916971917, 0.49694749694749696, 0.46875, -0.5, 2.65625, 0.0
530, 7.1098901098901095, -3.9108669108669107, -0.1111111111111111, 0.40625, -1.15625, 1.875, 0.0
531, 6.575091575091575, -3.7081807081807083, -1.1086691086691087, 0.125, -1.65625, 1.1875, 0.0
532, 4.753357753357753, -3.2612942612942613, -1.0354090354090355, -0.03125, -1.25, 0.875, 0.0
533, 4.722832722832723, -2.1514041514041513, -0.8253968253968254, 0.0, -0.8125, 0.71875, 0.0
534, 5.108669108669108, -1.404151404151404, -0.5970695970695971, 0.09375, -0.6875, 0.5625, 0.0
535, 4.989010989010989, -1.2905982905982907, -0.6935286935286935, 0.15625, -0.59375, 0.46875, 0.0
536, 4.598290598290598, -0.8363858363858364, -0.8424908424908425, 0.46875, -0.125, 0.125, 0.0
537, 5.010989010989011, -0.6996336996336996, -1.8388278388278387, 0.75, 0.0, -0.375, 0.0
538, 4.852258852258852, -0.4517704517704518, -1.6886446886446886, 0.875, -0.03125, -0.9375, 1.0
539, 3.9047619047619047, -0.9548229548229549, -1.5103785103785103, 0.625, -0.0625, -1.09375, 1.0
540, 5.112332112332112, -1.199023199023199, -1.3956043956043955, 0.5, 0.0625, -1.25, 1.0
541, 5.395604395604396, -1.982905982905983, -1.9316239316239316, 0.3125, 0.15625, -1.4375, 1.0
542, 5.760683760683761, -3.31013431013431, -2.1758241758241756, 0.0, 0.21875, -1.71875, 1.0
543, 5.967032967032967, -4.405372405372406, -2.004884004884005, -0.4375, 0.25, -2.15625, 1.0
544, 4.575091575091575, -4.785103785103785, -1.474969474969475, -0.8125, 0.1875, -2.75, 1.0
545, 3.5604395604395602, -5.451770451770452, -0.57997557997558, -0.90625, 0.21875, -3.21875, 1.0
546, 2.608058608058608, -5.086691086691086, -0.3162393162393162, -0.96875, 0.25, -3.625, 1.0
547, 1.0427350427350428, -5.698412698412699, -0.7435897435897436, -0.90625, 0.25, -3.9375, 1.0
548, -0.08058608058608059, -5.711843711843712, -0.3125763125763126, -1.0, 0.4375, -4.1875, 1.0
549, -0.9145299145299145, -5.543345543345543, 0.2954822954822955, -0.875, 0.71875, -4.28125, 1.0
550, -1.5714285714285714, -5.4493284493284495, 0.16361416361416362, -0.59375, 1.0, -4.28125, 1.0
551, -2.286935286935287, -5.8388278388278385, -0.06837606837606838, -0.5625, 1.3125, -4.3125, 1.0
552, -2.3553113553113554, -5.947496947496948, 0.2796092796092796, -0.5625, 1.375, -4.25, 1.0
553, -1.8302808302808302, -5.7765567765567765, 1.321123321123321, -0.5, 1.3125, -4.3125, 1.0
554, -2.111111111111111, -5.598290598290598, 0.6153846153846154, -0.46875, 1.03125, -4.40625, 1.0
555, -3.9975579975579976, -5.666666666666667, -0.398046398046398, -0.5, 1.15625, -4.34375, 1.0
556, -4.641025641025641, -4.7936507936507935, 0.27228327228327226, -0.40625, 1.5625, -4.15625, 1.0
557, -4.186813186813187, -4.146520146520147, 1.1343101343101343, -0.15625, 1.65625, -3.78125, 1.0
558, -4.264957264957265, -3.4432234432234434, 0.8302808302808303, 0.09375, 1.5, -3.625, 1.0
559, -5.256410256410256, -3.5775335775335777, 0.11965811965811966, 0.1875, 1.5625, -3.34375, 1.0
560, -4.937728937728938, -3.122100122100122, 0.9572649572649573, 0.5, 1.84375, -3.0625, 1.0
561, -4.113553113553113, -3.4652014652014653, 0.2967032967032967, 0.78125, 1.78125, -2.875, 1.0
562, -3.948717948717949, -3.4188034188034186, 0.01221001221001221, 0.8125, 1.59375, -2.875, 1.0
563, -3.6923076923076925, -3.1684981684981683, -0.3162393162393162, 0.8125, 1.28125, -2.96875, 1.0
564, -4.564102564102564, -1.503052503052503, -0.9951159951159951, 0.84375, 1.0, -2.96875, 1.0
565, -5.852258852258852, -0.9413919413919414, -2.183150183150183, 1.03125, 0.875, -2.625, 1.0
566, -5.434676434676435, -0.002442002442002442, -2.3956043956043955, 1.03125, 0.96875, -2.21875, 1.0
567, -5.111111111111111, 0.8485958485958486, -2.0744810744810747, 0.8125, 0.71875, -1.90625, 1.0
568, -6.434676434676435, 2.126984126984127, -1.6214896214896215, 0.5625, 0.375, -1.625, 1.0
569, -7.26984126984127, 3.0805860805860807, -1.7411477411477412, 0.46875, 0.4375, -0.96875, 1.0
570, -6.722832722832723, 2.663003663003663, -2.202686202686203, 0.5, 0.65625, -0.5, 1.0
571, -5.920634920634921, 2.8595848595848596, -1.873015873015873, 0.28125, 0.6875, -0.0625, 1.0
572, -5.115995115995116, 2.673992673992674, -1.2686202686202686, 0.09375, 0.46875, 0.125, 1.0
573, -4.293040293040293, 2.5347985347985347, -0.9304029304029304, 0.0625, 0.25, 0.28125, 1.0
574, -2.9572649572649574, 1.6691086691086692, -1.3162393162393162, 0.0625, 0.125, 0.3125, 1.0
575, -1.492063492063492, 1.0940170940170941, -1.7338217338217339, 0.0, 0.0, 0.25, 1.0
576, -0.31013431013431014, 0.06715506715506715, -1.5189255189255189, -0.125, -0.0625, 0.09375, 1.0
577, 0.32234432234432236, -0.15262515262515264, -0.5958485958485958, -0.1875, -0.03125, -0.03125, 1.0
578, 1.010989010989011, -0.6715506715506715, -0.08424908424908426, -0.15625, -0.0625, -0.15625, 1.0
579, 0.32967032967032966, -0.33455433455433453, 0.7533577533577533, -0.09375, 0.03125, -0.21875, 1.0
580, -0.48473748473748474, -0.029304029304029304, 0.7704517704517705, -0.03125, 0.28125, -0.09375, 1.0
581, -1.3736263736263736, 0.03418803418803419, 0.34554334554334554, -0.125, 0.5, 0.03125, 1.0
582, -2.0244200244200243, 0.4810744810744811, 0.15506715506715507, -0.3125, 0.5625, 0.25, 1.0
583, -1.6764346764346765, 1.7533577533577533, 0.21978021978021978, -0.53125, 0.28125, 0.375, 0.0
584, -2.3028083028083026, 1.8888888888888888, -0.12332112332112333, -0.40625, -0.03125, 0.28125, 0.0
585, -4.443223443223443, 3.2112332112332114, -0.4053724053724054, -0.40625, -0.21875, 0.53125, 0.0
586, -5.201465201465202, 3.877899877899878, -0.8144078144078144, -0.0625, 0.0, 0.96875, 0.0
587, -3.092796092796093, 1.945054945054945, -2.166056166056166, 0.125, -0.0625, 1.15625, 0.0
588, -2.0952380952380953, 1.459096459096459, -2.746031746031746, -0.21875, -0.4375, 0.78125, 0.0
589, -2.120879120879121, 2.275946275946276, -2.52991452991453, -0.625, -0.75, 0.53125, 0.0
590, -3.282051282051282, 2.9572649572649574, -2.1819291819291817, -0.71875, -0.8125, 0.59375, 0.0
591, -3.642246642246642, 2.8461538461538463, -1.822954822954823, -0.65625, -0.59375, 1.0, 0.0
592, -3.36996336996337, 1.7960927960927962, -1.3601953601953602, -0.5, -0.5, 1.375, 0.0
593, -2.838827838827839, 0.894993894993895, -0.884004884004884, -0.4375, -0.53125, 1.625, 0.0
594, -2.822954822954823, 0.4249084249084249, -0.652014652014652, -0.375, -0.625, 1.875, 0.0
595, -2.294261294261294, -0.12942612942612944, -1.0488400488400489, -0.3125, -0.9375, 1.9375, 0.0
596, -2.543345543345543, -0.967032967032967, -1.8864468864468864, -0.5, -1.40625, 1.96875, 0.0
597, -3.6935286935286937, -1.315018315018315, -2.1355311355311355, -0.6875, -1.59375, 2.1875, 0.0
598, -3.8424908424908426, -1.695970695970696, -1.8888888888888888, -0.6875, -1.59375, 2.46875, 0.0
599, -3.064713064713065, -2.744810744810745, -2.1514041514041513, -0.625, -1.75, 2.71875, 0.0
600, -2.5763125763125765, -3.5555555555555554, -2.463980463980464, -0.65625, -1.9375, 2.875, 0.0
601, -3.0244200244200243, -4.010989010989011, -2.52014652014652, -0.625, -1.9375, 3.0, 0.0
602, -4.101343101343101, -4.63980463980464, -2.111111111111111, -0.59375, -1.65625, 3.3125, 0.0
603, -3.860805860805861, -4.995115995115995, -1.6385836385836385, -0.4375, -1.28125, 3.65625, 0.0
604, -3.177045177045177, -5.507936507936508, -0.9157509157509157, -0.15625, -1.0, 3.84375, 0.0
605, -2.2124542124542126, -5.903540903540904, -0.43223443223443225, 0.0625, -1.0, 3.96875, 0.0
606, -1.7777777777777777, -6.727716727716728, -0.9755799755799756, 0.09375, -0.84375, 3.8125, 0.0
607, -1.221001221001221, -7.424908424908425, -0.5384615384615384, -0.15625, -0.59375, 3.5625, 0.0
608, -0.7692307692307693, -6.433455433455434, -0.05128205128205128, -0.21875, -0.53125, 3.40625, 0.0
609, -0.43223443223443225, -6.08058608058608, 0.4590964590964591, -0.0625, -0.65625, 3.3125, 0.0
610, -1.2393162393162394, -5.774114774114774, 0.9230769230769231, 0.0625, -0.75, 3.28125, 0.0
611, -0.7106227106227107, -5.4664224664224665, 1.407814407814408, 0.15625, -0.65625, 3.34375, 0.0
612, -0.12698412698412698, -5.515262515262515, 1.2576312576312576, 0.28125, -0.625, 3.3125, 0.0
613, 0.6214896214896215, -5.119658119658119, 1.0952380952380953, 0.34375, -0.71875, 3.125, 0.0
614, 0.7985347985347986, -4.4664224664224665, 1.1282051282051282, 0.40625, -0.90625, 3.0, 0.0
615, 1.192918192918193, -3.9096459096459095, 1.1697191697191698, 0.53125, -1.125, 2.875, 0.0
616, 1.7216117216117217, -4.023199023199023, 0.17582417582417584, 0.71875, -1.1875, 2.875, 0.0
617, 2.727716727716728, -3.752136752136752, -1.0573870573870574, 0.84375, -1.0, 2.875, 0.0
618, 4.042735042735043, -3.183150183150183, -2.075702075702076, 1.0, -0.78125, 2.53125, 0.0
619, 4.716727716727717, -3.0207570207570207, -2.687423687423687, 0.96875, -0.625, 2.1875, 0.0
620, 5.802197802197802, -3.004884004884005, -2.8534798534798536, 0.71875, -0.59375, 1.71875, 0.0
621, 5.5225885225885225, -3.0, -2.7155067155067156, 0.28125, -0.6875, 1.34375, 0.0
622, 5.08058608058608, -2.474969474969475, -2.2063492063492065, 0.0, -0.6875, 0.96875, 0.0
623, 4.451770451770452, -1.7557997557997558, -1.4114774114774116, -0.09375, -0.59375, 0.75, 0.0
624, 4.162393162393163, -1.0683760683760684, -0.9206349206349206, 0.25, -0.1875, 0.6875, 0.0
625, 4.73015873015873, -1.249084249084249, -1.0903540903540903, 0.625, 0.09375, 0.5, 0.0
626, 5.785103785103785, -2.161172161172161, -1.800976800976801, 0.5, 0.125, 0.1875, 0.0
627, 5.653235653235654, -2.4884004884004884, -2.4871794871794872, 0.21875, 0.0, -0.34375, 0.0
628, 5.235653235653236, -2.128205128205128, -2.166056166056166, 0.25, 0.0625, -1.03125, 1.0
629, 5.202686202686203, -2.0268620268620268, -1.4603174603174602, 0.5, 0.375, -1.5, 1.0
630, 6.188034188034188, -4.107448107448107, -1.5103785103785103, 0.59375, 0.40625, -1.875, 1.0
631, 5.565323565323565, -4.8901098901098905, -2.155067155067155, 0.21875, 0.4375, -2.25, 1.0
632, 4.986568986568987, -5.256410256410256, -2.0732600732600734, -0.3125, 0.4375, -2.75, 1.0
633, 4.056166056166056, -5.78021978021978, -1.4224664224664225, -0.78125, 0.3125, -3.1875, 1.0
634, 2.7924297924297923, -5.78998778998779, -0.5128205128205128, -1.09375, 0.375, -3.59375, 1.0
635, 1.6971916971916972, -5.794871794871795, -0.3333333333333333, -1.0625, 0.65625, -3.9375, 1.0
636, 0.7973137973137974, -6.061050061050061, -0.894993894993895, -1.03125, 0.75, -4.125, 1.0
637, -0.13553113553113552, -5.979242979242979, -0.6483516483516484, -1.125, 0.71875, -4.34375, 1.0
638, -1.1672771672771673, -6.046398046398046, 0.017094017094017096, -1.1875, 0.625, -4.59375, 1.0
639, -2.006105006105006, -5.455433455433456, 0.5384615384615384, -1.15625, 0.625, -4.5625, 1.0
640, -2.78998778998779, -5.683760683760684, 0.14163614163614163, -0.9375, 0.84375, -4.5, 1.0
641, -3.547008547008547, -5.523809523809524, 0.20512820512820512, -0.78125, 1.21875, -4.21875, 1.0
642, -3.822954822954823, -5.0, 1.0537240537240538, -0.5625, 1.65625, -4.15625, 1.0
643, -2.6312576312576312, -4.599511599511599, 1.398046398046398, -0.1875, 1.53125, -3.96875, 1.0
644, -2.8632478632478633, -4.835164835164835, 0.503052503052503, -0.0625, 1.125, -3.9375, 1.0
645, -4.115995115995116, -5.026862026862027, 0.10989010989010989, -0.125, 1.09375, -3.90625, 1.0
646, -4.766788766788767, -3.967032967032967, 0.8888888888888888, 0.03125, 1.40625, -3.71875, 1.0
647, -4.4774114774114775, -3.31013431013431, 0.9072039072039072, 0.34375, 1.59375, -3.5, 1.0
648, -4.0195360195360195, -3.197802197802198, 0.6788766788766789, 0.5625, 1.4375, -3.25, 1.0
649, -4.25030525030525, -3.305250305250305, 0.23076923076923078, 0.53125, 1.34375, -3.03125, 1.0
650, -4.041514041514041, -2.6434676434676434, 0.18803418803418803, 0.65625, 1.5, -2.84375, 1.0
651, -3.821733821733822, -1.5531135531135531, -0.017094017094017096, 0.9375, 1.53125, -2.75, 1.0
652, -4.247863247863248, -1.6581196581196582, -0.645909645909646, 0.96875, 1.34375, -2.53125, 1.0
653, -4.451770451770452, -1.2905982905982907, -1.2393162393162394, 0.75, 1.125, -2.34375, 1.0
654, -4.446886446886447, -0.030525030525030524, -0.8803418803418803, 0.75, 1.21875, -2.15625, 1.0
655, -4.594627594627594, 1.1025641025641026, -1.2185592185592184, 0.9375, 1.1875, -1.90625, 1.0
656, -4.8046398046398044, 1.315018315018315, -2.1404151404151404, 1.0625, 1.03125, -1.59375, 1.0
657, -4.462759462759463, 1.4017094017094016, -2.967032967032967, 0.9375, 1.09375, -1.34375, 1.0
658, -3.868131868131868, 1.7521367521367521, -3.2014652014652016, 0.71875, 1.0625, -1.25, 1.0
659, -3.7301587301587302, 2.496947496947497, -2.6837606837606836, 0.5, 0.875, -1.15625, 1.0
660, -3.515262515262515, 2.6837606837606836, -2.2283272283272284, 0.40625, 0.65625, -1.0625, 1.0
661, -3.9035409035409034, 2.52991452991453, -2.06959706959707, 0.25, 0.46875, -0.78125, 1.0
662, -4.015873015873016, 2.688644688644689, -1.5091575091575091, 0.125, 0.59375, -0.46875, 1.0
663, -3.0720390720390722, 2.855921855921856, -0.8571428571428571, 0.125, 0.71875, -0.125, 1.0
664, -1.9694749694749696, 2.105006105006105, -0.3797313797313797, 0.125, 0.5, 0.03125, 1.0
665, -1.507936507936508, 1.3943833943833943, 0.3553113553113553, 0.0, 0.03125, 0.0, 1.0
666, -2.4114774114774113, 1.387057387057387, 0.5848595848595849, -0.03125, -0.125, 0.0, 1.0
667, -2.5811965811965814, 1.2661782661782661, 0.2271062271062271, -0.09375, 0.0, 0.1875, 1.0
668, -2.452991452991453, 1.2686202686202686, -0.06349206349206349, -0.1875, 0.03125, 0.46875, 1.0
669, -1.6947496947496947, 0.8266178266178266, -0.5274725274725275, -0.4375, 0.0, 0.71875, 1.0
670, -0.7203907203907204, 0.4188034188034188, -1.1782661782661783, -0.78125, -0.1875, 0.84375, 0.0
671, -1.1062271062271063, 1.0415140415140416, -1.4761904761904763, -0.78125, -0.34375, 0.6875, 0.0
672, -0.7753357753357754, 1.2026862026862026, -1.4505494505494505, -0.78125, -0.625, 0.5625, 0.0
673, -1.6556776556776556, 1.2222222222222223, -1.503052503052503, -0.6875, -0.8125, 0.5625, 0.0
674, -2.664224664224664, 1.8595848595848596, -1.1135531135531136, -0.46875, -0.625, 0.75, 0.0
675, -3.166056166056166, 1.7716727716727716, -1.2246642246642248, -0.1875, -0.375, 0.96875, 0.0
676, -2.9096459096459095, 1.6654456654456655, -1.4786324786324787, -0.09375, -0.40625, 1.15625, 0.0
677, -3.0036630036630036, 1.2527472527472527, -1.6324786324786325, -0.21875, -0.5625, 1.375, 0.0
678, -2.929181929181929, 1.0488400488400489, -1.8510378510378511, -0.28125, -0.75, 1.53125, 0.0
679, -3.0024420024420024, 0.6593406593406593, -2.230769230769231, -0.3125, -0.96875, 1.75, 0.0
680, -2.586080586080586, -0.2026862026862027, -2.5384615384615383, -0.34375, -1.09375, 2.0, 0.0
681, -2.36996336996337, -1.2673992673992673, -2.8913308913308913, -0.53125, -1.1875, 2.125, 0.0
682, -2.057387057387057, -1.8974358974358974, -3.075702075702076, -0.8125, -1.34375, 2.15625, 0.0
683, -1.9633699633699633, -2.2014652014652016, -2.7716727716727716, -1.03125, -1.59375, 2.15625, 0.0
684, -2.41025641025641, -2.2612942612942613, -2.6092796092796093, -1.09375, -1.8125, 2.28125, 0.0
685, -2.7594627594627594, -2.8205128205128207, -2.4993894993894994, -0.96875, -1.875, 2.5625, 0.0
686, -2.6446886446886446, -3.94993894993895, -3.0915750915750917, -0.78125, -1.75, 2.96875, 0.0
687, -2.612942612942613, -5.199023199023199, -3.518925518925519, -0.75, -1.46875, 3.25, 0.0
688, -2.4676434676434678, -5.551892551892552, -2.9963369963369964, -0.8125, -1.09375, 3.40625, 0.0
689, -1.9572649572649572, -5.372405372405372, -2.0415140415140414, -0.75, -1.0, 3.59375, 0.0
690, -1.6446886446886446, -5.461538461538462, -1.5286935286935286, -0.5, -0.96875, 3.75, 0.0
691, -1.4273504273504274, -5.7374847374847375, -1.1575091575091576, -0.1875, -1.0, 3.90625, 0.0
692, -2.167277167277167, -6.807081807081807, -1.7557997557997558, -0.125, -0.71875, 3.875, 0.0
693, -2.021978021978022, -7.63980463980464, -1.7814407814407816, -0.46875, -0.25, 3.75, 0.0
694, -1.4810744810744811, -6.188034188034188, -0.6971916971916972, -0.5, -0.0625, 3.71875, 0.0
695, -0.7118437118437119, -5.663003663003663, 0.28815628815628813, -0.3125, -0.125, 3.65625, 0.0
696, -0.6727716727716728, -5.614163614163614, 0.6837606837606838, -0.125, -0.3125, 3.5, 0.0
697, -0.38461538461538464, -5.412698412698413, 0.8583638583638583, -0.0625, -0.625, 3.3125, 0.0
698, -0.2686202686202686, -5.196581196581197, 0.8534798534798534, -0.0625, -0.90625, 3.15625, 0.0
699, 0.14896214896214896, -4.829059829059829, 0.5641025641025641, 0.03125, -1.3125, 2.96875, 0.0
700, 0.36874236874236876, -4.608058608058608, 0.717948717948718, 0.25, -1.25, 2.875, 0.0
701, 1.0598290598290598, -4.681318681318682, 0.4444444444444444, 0.4375, -1.21875, 2.78125, 0.0
702, 1.575091575091575, -4.741147741147741, 0.14896214896214896, 0.40625, -1.3125, 2.5625, 0.0
703, 1.9352869352869353, -3.851037851037851, 0.16361416361416362, 0.3125, -1.4375, 2.34375, 0.0
704, 2.4236874236874235, -3.318681318681319, -0.054945054945054944, 0.40625, -1.53125, 2.1875, 0.0
705, 2.8412698412698414, -3.2979242979242978, -0.6996336996336996, 0.53125, -1.625, 2.125, 0.0
706, 3.286935286935287, -3.2503052503052503, -1.7875457875457876, 0.5625, -1.46875, 2.0, 0.0
707, 4.47985347985348, -2.9145299145299144, -2.5824175824175826, 0.53125, -1.25, 1.78125, 0.0
708, 4.442002442002442, -2.595848595848596, -2.8424908424908426, 0.40625, -1.0, 1.5625, 0.0
709, 4.588522588522588, -2.253968253968254, -2.1367521367521367, 0.34375, -0.5, 1.40625, 0.0
710, 5.7936507936507935, -1.6263736263736264, -1.6275946275946276, 0.4375, -0.09375, 1.21875, 0.0
711, 6.2686202686202686, -1.8278388278388278, -1.7716727716727716, 0.5, -0.28125, 0.71875, 0.0
712, 5.442002442002442, -1.728937728937729, -1.9548229548229548, 0.5, -0.3125, 0.3125, 0.0
713, 5.069597069597069, -2.1794871794871793, -2.26007326007326, 0.40625, -0.09375, -0.125, 0.0
714, 5.576312576312576, -1.547008547008547, -2.3150183150183152, 0.5, 0.0, -0.65625, 0.0
715, 6.2905982905982905, -1.8937728937728937, -2.2954822954822953, 0.53125, -0.0625, -1.25, 1.0
716, 5.837606837606837, -2.8180708180708183, -2.681318681318681, 0.09375, -0.0625, -1.46875, 1.0
717, 4.791208791208791, -2.122100122100122, -2.688644688644689, 0.03125, 0.34375, -1.875, 1.0
718, 4.786324786324786, -2.7387057387057387, -2.3675213675213675, -0.03125, 0.53125, -2.09375, 1.0
719, 4.716727716727717, -3.47985347985348, -2.0891330891330893, -0.1875, 0.59375, -2.40625, 1.0
720, 3.73992673992674, -4.4322344322344325, -2.0366300366300365, -0.375, 0.8125, -2.625, 1.0
721, 3.1953601953601956, -4.993894993894994, -2.057387057387057, -0.5625, 1.09375, -3.0, 1.0
722, 2.8632478632478633, -5.175824175824176, -1.8925518925518925, -0.90625, 0.90625, -3.5625, 1.0
723, 0.09401709401709402, -5.471306471306471, -0.8156288156288156, -1.125, 0.59375, -3.875, 1.0
724, -1.8058608058608059, -4.826617826617826, 0.0989010989010989, -1.25, 0.75, -3.875, 1.0
725, -2.2954822954822953, -4.667887667887668, 0.8351648351648352, -0.9375, 1.21875, -3.75, 1.0
726, -1.7973137973137974, -5.15995115995116, 0.9291819291819292, -0.5625, 1.53125, -3.59375, 1.0
727, -1.564102564102564, -5.945054945054945, 0.6666666666666666, -0.4375, 1.59375, -3.6875, 1.0
728, -1.448107448107448, -6.134310134310135, 0.4981684981684982, -0.5, 1.3125, -3.9375, 1.0
729, -2.9035409035409034, -5.57997557997558, 0.19536019536019536, -0.59375, 0.96875, -4.125, 1.0
730, -4.814407814407814, -5.221001221001221, 0.05982905982905983, -0.46875, 1.09375, -3.96875, 1.0
731, -4.442002442002442, -4.554334554334554, 1.078144078144078, -0.21875, 1.6875, -3.65625, 1.0
732, -3.0634920634920637, -4.446886446886447, 1.7533577533577533, 0.15625, 2.03125, -3.40625, 1.0
733, -2.3150183150183152, -5.08058608058608, 0.7533577533577533, 0.40625, 1.8125, -3.34375, 1.0
734, -2.507936507936508, -4.549450549450549, 0.3052503052503053, 0.3125, 1.28125, -3.625, 1.0
735, -3.3455433455433456, -4.130647130647131, 0.4652014652014652, 0.34375, 1.28125, -3.71875, 1.0
736, -3.2344322344322345, -3.0854700854700856, 0.8717948717948718, 0.5625, 1.34375, -3.59375, 1.0
737, -3.133089133089133, -2.484737484737485, 0.6715506715506715, 0.84375, 1.21875, -3.40625, 1.0
738, -3.1404151404151404, -2.354090354090354, -0.442002442002442, 1.0, 1.1875, -3.28125, 1.0
739, -3.6788766788766787, -1.9609279609279608, -1.0573870573870574, 1.09375, 1.4375, -3.03125, 1.0
740, -3.0268620268620268, -1.3345543345543345, -1.4847374847374848, 1.3125, 1.75, -2.78125, 1.0
741, -2.6495726495726495, -0.5555555555555556, -1.9267399267399268, 1.4375, 1.78125, -2.6875, 1.0
742, -3.051282051282051, -0.0757020757020757, -3.076923076923077, 1.28125, 1.375, -2.75, 1.0
743, -5.396825396825397, 0.724053724053724, -3.452991452991453, 0.9375, 1.125, -2.71875, 1.0
744, -7.284493284493284, 3.012210012210012, -2.78998778998779, 0.875, 1.25, -2.1875, 1.0
745, -8.012210012210012, 3.687423687423687, -2.619047619047619, 1.0, 1.53125, -1.15625, 1.0
746, -4.705738705738706, 2.2783882783882783, -2.442002442002442, 0.875, 1.25, -0.875, 1.0
747, -4.299145299145299, 1.8632478632478633, -2.562881562881563, 0.5, 0.6875, -0.8125, 1.0
748, -4.433455433455434, 2.1965811965811968, -1.9438339438339438, 0.125, 0.34375, -0.75, 1.0
749, -4.3418803418803416, 2.437118437118437, -1.0207570207570207, 0.0, 0.1875, -0.59375, 1.0
750, -3.9145299145299144, 2.4078144078144077, -0.6886446886446886, 0.0, 0.15625, -0.28125, 1.0
751, -3.122100122100122, 1.6837606837606838, -0.9523809523809523, 0.0, 0.15625, 0.0, 1.0
752, -2.0976800976800978, 1.0622710622710623, -0.9853479853479854, -0.0625, 0.21875, 0.1875, 1.0
753, -0.9145299145299145, 0.7448107448107448, -0.6666666666666666, -0.21875, 0.125, 0.25, 1.0
754, 0.16361416361416362, 0.3833943833943834, -0.199023199023199, -0.25, -0.03125, 0.21875, 1.0
755, 0.22344322344322345, 0.03663003663003663, 0.07448107448107448, -0.25, -0.1875, 0.09375, 1.0
756, -0.0231990231990232, 0.09157509157509157, 0.004884004884004884, -0.21875, -0.21875, 0.125, 1.0
757, -0.8449328449328449, -0.15506715506715507, -0.6446886446886447, -0.40625, -0.15625, 0.34375, 1.0
758, -2.0146520146520146, 0.5555555555555556, -1.0366300366300367, -0.71875, -0.09375, 0.71875, 0.0
759, -3.347985347985348, 2.115995115995116, -0.7667887667887668, -0.53125, -0.0625, 1.09375, 0.0
760, -3.42002442002442, 2.6202686202686203, -0.32234432234432236, -0.21875, -0.3125, 1.4375, 0.0
761, -4.241758241758242, 2.161172161172161, -0.9352869352869353, 0.03125, -0.46875, 1.625, 0.0
762, -6.540903540903541, 1.663003663003663, -1.8742368742368742, 0.0, -0.03125, 1.75, 0.0
763, -6.715506715506716, 2.191697191697192, -1.525030525030525, 0.0, 0.34375, 2.21875, 0.0
764, -5.36019536019536, 1.9438339438339438, -1.0293040293040292, 0.03125, 0.28125, 2.625, 0.0
765, -4.158730158730159, 1.3785103785103785, -1.192918192918193, 0.0, -0.03125, 2.84375, 0.0
766, -3.275946275946276, 0.6349206349206349, -1.8595848595848596, -0.09375, -0.40625, 3.03125, 0.0
767, -2.9755799755799757, -0.6764346764346765, -3.0305250305250304, -0.40625, -0.40625, 3.03125, 0.0
768, -2.131868131868132, -1.4615384615384615, -3.6214896214896215, -0.84375, -0.3125, 2.96875, 0.0
769, 0.326007326007326, -2.043956043956044, -2.5286935286935286, -1.5625, -1.0, 2.53125, 0.0
770, 0.1623931623931624, -1.7326007326007327, -1.7008547008547008, -1.9375, -1.75, 2.09375, 0.0
771, -0.8937728937728938, -1.4884004884004884, -1.4468864468864469, -1.96875, -2.375, 1.96875, 0.0
772, -2.5885225885225887, -2.167277167277167, -1.9377289377289377, -1.71875, -2.4375, 2.1875, 0.0
773, -3.1062271062271063, -2.9914529914529915, -2.3211233211233213, -1.4375, -1.9375, 2.65625, 0.0
774, -2.021978021978022, -3.554334554334554, -2.1404151404151404, -1.3125, -1.4375, 3.03125, 0.0
775, -0.7594627594627594, -3.752136752136752, -2.0305250305250304, -1.15625, -1.3125, 3.1875, 0.0
776, -1.115995115995116, -4.186813186813187, -2.0915750915750917, -0.96875, -1.46875, 3.25, 0.0
777, -1.8339438339438339, -4.354090354090354, -1.9743589743589745, -0.8125, -1.4375, 3.3125, 0.0
778, -2.258852258852259, -5.146520146520147, -1.6031746031746033, -0.8125, -1.15625, 3.46875, 0.0
779, -1.0927960927960927, -4.968253968253968, -0.7081807081807082, -0.84375, -0.8125, 3.59375, 0.0
780, 0.16117216117216118, -5.199023199023199, -0.4175824175824176, -0.46875, -0.78125, 3.40625, 0.0
781, 0.16361416361416362, -5.233211233211233, -0.34798534798534797, -0.3125, -1.15625, 3.15625, 0.0
782, -0.2271062271062271, -5.534798534798535, -0.4432234432234432, -0.28125, -1.15625, 3.0625, 0.0
783, -0.17582417582417584, -5.534798534798535, -0.3516483516483517, -0.21875, -0.9375, 2.96875, 0.0
784, 0.568986568986569, -5.315018315018315, -0.12698412698412698, -0.125, -0.8125, 2.84375, 0.0
785, 1.155067155067155, -5.042735042735043, 0.21855921855921856, -0.03125, -0.875, 2.59375, 0.0
786, 0.9951159951159951, -4.726495726495727, 0.4371184371184371, 0.0, -0.96875, 2.40625, 0.0
787, 0.4053724053724054, -4.08058608058608, 1.0598290598290598, 0.0625, -0.9375, 2.28125, 0.0
788, 1.0561660561660562, -3.548229548229548, 1.253968253968254, 0.21875, -1.03125, 2.15625, 0.0
789, 1.7912087912087913, -3.409035409035409, 1.0036630036630036, 0.34375, -1.1875, 1.90625, 0.0
790, 2.1868131868131866, -3.2393162393162394, 0.39194139194139194, 0.3125, -1.375, 1.65625, 0.0
791, 2.4432234432234434, -2.5885225885225887, -0.030525030525030524, 0.28125, -1.40625, 1.5, 0.0
792, 2.3833943833943834, -1.910866910866911, -0.8046398046398047, 0.34375, -1.34375, 1.40625, 0.0
793, 2.9963369963369964, -1.4493284493284493, -1.0671550671550671, 0.46875, -1.15625, 1.34375, 0.0
794, 4.158730158730159, -1.612942612942613, -1.7448107448107448, 0.4375, -1.03125, 1.28125, 0.0
795, 5.3528693528693525, -1.0622710622710623, -2.3235653235653237, 0.3125, -0.96875, 1.09375, 0.0
796, 5.2063492063492065, -1.0183150183150182, -2.8974358974358974, 0.40625, -0.78125, 0.90625, 0.0
797, 5.231990231990232, -1.231990231990232, -2.8705738705738706, 0.5, -0.28125, 0.6875, 0.0
798, 5.9352869352869355, -1.2991452991452992, -2.600732600732601, 0.46875, 0.09375, 0.4375, 0.0
799, 5.924297924297925, -1.5384615384615385, -2.391941391941392, 0.5, 0.25, 0.0, 0.0
800, 6.1953601953601956, -1.4285714285714286, -1.592185592185592, 0.59375, 0.25, -0.59375, 1.0
801, 6.010989010989011, -1.9242979242979243, -1.1746031746031746, 0.71875, 0.1875, -0.96875, 1.0
802, 6.800976800976801, -3.4297924297924296, -1.8571428571428572, 0.84375, 0.3125, -1.25, 1.0
803, 7.180708180708181, -4.543345543345543, -2.115995115995116, 0.4375, 0.4375, -1.8125, 1.0
804, 5.846153846153846, -4.5335775335775335, -1.380952380952381, -0.1875, 0.375, -2.625, 1.0
805, 3.733821733821734, -4.711843711843712, -1.3186813186813187, -0.34375, 0.6875, -2.875, 1.0
806, 2.2344322344322345, -4.893772893772894, -0.8021978021978022, -0.40625, 1.1875, -3.0625, 1.0
807, 2.1184371184371185, -4.964590964590965, 0.24786324786324787, -0.40625, 1.3125, -3.25, 1.0
808, 1.6764346764346765, -4.786324786324786, -0.2857142857142857, -0.40625, 1.0625, -3.53125, 1.0
809, 0.2087912087912088, -4.710622710622711, -0.7106227106227107, -0.625, 0.9375, -3.6875, 1.0
810, -1.1355311355311355, -4.772893772893773, -0.7326007326007326, -0.75, 1.0625, -3.75, 1.0
811, -2.173382173382173, -4.196581196581197, -0.4126984126984127, -0.71875, 1.3125, -3.6875, 1.0
812, -2.382173382173382, -3.942612942612943, 0.2515262515262515, -0.46875, 1.5, -3.6875, 1.0
813, -2.15018315018315, -4.134310134310135, 0.5995115995115995, -0.28125, 1.46875, -3.6875, 1.0
814, -2.161172161172161, -4.655677655677656, 0.02197802197802198, -0.28125, 1.28125, -3.8125, 1.0
815, -2.606837606837607, -4.877899877899878, -0.5628815628815629, -0.53125, 0.96875, -3.9375, 1.0
816, -5.347985347985348, -3.324786324786325, 0.6410256410256411, -0.34375, 1.3125, -3.75, 1.0
817, -4.512820512820513, -3.1172161172161172, 1.0048840048840049, 0.0625, 1.6875, -3.40625, 1.0
818, -3.8046398046398044, -3.6666666666666665, 0.746031746031746, 0.40625, 1.65625, -3.21875, 1.0
819, -3.9157509157509156, -4.142857142857143, 0.8363858363858364, 0.4375, 1.53125, -3.1875, 1.0
820, -3.244200244200244, -3.2954822954822953, 1.564102564102564, 0.46875, 1.4375, -3.15625, 1.0
821, -2.948717948717949, -3.1025641025641026, 1.0512820512820513, 0.625, 1.21875, -3.15625, 1.0
822, -3.4249084249084247, -3.103785103785104, -0.045177045177045176, 0.71875, 0.78125, -3.28125, 1.0
823, -4.536019536019536, -2.5177045177045176, -0.31746031746031744, 0.65625, 0.65625, -3.21875, 1.0
824, -4.8217338217338215, -1.6544566544566544, -0.22832722832722832, 0.78125, 0.90625, -3.0, 1.0
825, -3.923076923076923, -0.6361416361416361, -0.18681318681318682, 1.03125, 1.1875, -2.625, 1.0
826, -3.6312576312576312, -0.612942612942613, -1.0427350427350428, 1.3125, 1.21875, -2.375, 1.0
827, -3.755799755799756, -0.08058608058608059, -1.7912087912087913, 1.1875, 0.84375, -2.21875, 1.0
828, -4.382173382173383, 0.43833943833943834, -2.2954822954822953, 0.84375, 0.75, -2.0625, 1.0
829, -4.78021978021978, 1.7728937728937728, -1.9523809523809523, 0.71875, 0.8125, -1.75, 1.0
830, -5.3076923076923075, 3.52014652014652, -1.63003663003663, 0.875, 1.03125, -1.25, 1.0
831, -5.242979242979243, 3.247863247863248, -1.6336996336996337, 1.0, 1.28125, -0.75, 1.0
832, -3.6214896214896215, 2.590964590964591, -2.04029304029304, 0.90625, 1.3125, -0.46875, 1.0
833, -2.2564102564102564, 2.221001221001221, -2.039072039072039, 0.59375, 1.0625, -0.46875, 1.0
834, -1.7301587301587302, 2.457875457875458, -1.9194139194139195, 0.375, 0.65625, -0.5625, 1.0
835, -2.3211233211233213, 2.7496947496947497, -1.735042735042735, 0.1875, 0.28125, -0.625, 1.0
836, -3.457875457875458, 2.943833943833944, -1.750915750915751, 0.09375, 0.15625, -0.5, 1.0
837, -3.7301587301587302, 2.52991452991453, -1.7875457875457876, 0.0, 0.34375, -0.28125, 1.0
838, -2.826617826617827, 1.7802197802197801, -1.5567765567765568, -0.1875, 0.375, -0.0625, 1.0
839, -2.3797313797313797, 1.5775335775335775, -0.8485958485958486, -0.375, 0.15625, 0.0625, 1.0
840, -2.6166056166056166, 1.4395604395604396, -0.8253968253968254, -0.5, 0.0625, 0.28125, 1.0
841, -2.8547008547008548, 1.393162393162393, -0.6703296703296703, -0.53125, -0.03125, 0.53125, 1.0
842, -3.1196581196581197, 1.3553113553113554, -0.8241758241758241, -0.5625, -0.125, 0.84375, 0.0
843, -2.6654456654456653, 0.8241758241758241, -0.9914529914529915, -0.59375, -0.15625, 1.09375, 0.0
844, -3.3675213675213675, 1.0976800976800978, -1.0622710622710623, -0.6875, -0.21875, 1.375, 0.0
845, -3.5225885225885225, 0.6874236874236874, -0.8925518925518926, -0.65625, -0.125, 1.53125, 0.0
846, -2.785103785103785, 0.7521367521367521, -0.608058608058608, -0.65625, 0.0, 1.6875, 0.0
847, -2.0683760683760686, 0.49572649572649574, -0.6703296703296703, -0.59375, -0.21875, 1.71875, 0.0
848, -2.547008547008547, 0.5396825396825397, -0.9645909645909646, -0.6875, -0.6875, 1.6875, 0.0
849, -3.057387057387057, 0.7814407814407814, -1.606837606837607, -0.78125, -0.84375, 1.875, 0.0
850, -2.924297924297924, 0.6056166056166056, -2.1452991452991452, -0.8125, -0.84375, 2.21875, 0.0
851, -2.695970695970696, 0.6556776556776557, -2.413919413919414, -0.75, -0.78125, 2.4375, 0.0
852, -1.9145299145299146, 0.49572649572649574, -2.8144078144078146, -0.65625, -0.8125, 2.53125, 0.0
853, -0.8595848595848596, -0.5726495726495726, -3.1526251526251525, -0.875, -1.1875, 2.375, 0.0
854, -0.42002442002442003, -1.3064713064713065, -3.266178266178266, -1.3125, -1.875, 2.0625, 0.0
855, -1.4810744810744811, -1.2625152625152625, -2.8095238095238093, -1.65625, -2.21875, 1.96875, 0.0
856, -2.573870573870574, -0.31746031746031744, -2.416361416361416, -1.5625, -2.0625, 2.28125, 0.0
857, -2.507936507936508, -0.22954822954822954, -2.288156288156288, -1.1875, -1.84375, 2.75, 0.0
858, -2.0671550671550674, -1.6373626373626373, -2.7191697191697193, -0.96875, -1.84375, 3.125, 0.0
859, -1.84981684981685, -3.177045177045177, -3.1245421245421245, -1.03125, -1.65625, 3.1875, 0.0
860, -1.137973137973138, -3.5641025641025643, -2.866910866910867, -1.0625, -1.59375, 3.15625, 0.0
861, -0.9926739926739927, -3.5457875457875456, -2.5103785103785103, -0.90625, -1.65625, 3.21875, 0.0
862, -0.7411477411477412, -4.3076923076923075, -1.2954822954822955, -0.53125, -1.5625, 3.46875, 0.0
863, -0.14774114774114774, -5.003663003663004, -1.192918192918193, -0.125, -1.53125, 3.53125, 0.0
864, -0.6324786324786325, -6.177045177045177, -1.9291819291819292, 0.03125, -1.53125, 3.40625, 0.0
865, -0.8290598290598291, -6.196581196581197, -1.6532356532356531, -0.0625, -1.40625, 3.21875, 0.0
866, -0.8217338217338217, -5.987789987789988, -1.1489621489621489, -0.25, -1.21875, 3.15625, 0.0
867, 0.15995115995115994, -5.334554334554334, -0.7753357753357754, -0.1875, -1.0, 3.09375, 0.0
868, 0.1978021978021978, -5.085470085470085, -0.8656898656898657, 0.03125, -0.96875, 3.0625, 0.0
869, -0.6776556776556777, -5.423687423687424, -0.590964590964591, 0.15625, -0.9375, 3.03125, 0.0
870, -1.5128205128205128, -5.415140415140415, 0.04884004884004884, 0.09375, -0.46875, 3.0, 0.0
871, -1.0952380952380953, -4.665445665445666, 1.2222222222222223, 0.03125, 0.0, 3.03125, 0.0
872, 0.5409035409035409, -3.8241758241758244, 1.8534798534798536, 0.125, -0.03125, 3.03125, 0.0
873, 1.5335775335775337, -3.8827838827838828, 1.551892551892552, 0.40625, -0.4375, 2.65625, 0.0
874, 1.722832722832723, -4.483516483516484, 0.9328449328449329, 0.34375, -0.65625, 2.3125, 0.0
875, 2.2576312576312576, -3.971916971916972, 0.29426129426129427, 0.25, -0.53125, 2.0625, 0.0
876, 2.9316239316239314, -3.2002442002442004, -0.057387057387057384, 0.25, -0.5, 1.84375, 0.0
877, 3.600732600732601, -2.554334554334554, -0.518925518925519, 0.25, -0.59375, 1.5, 0.0
878, 3.89010989010989, -2.1135531135531136, -0.5873015873015873, 0.25, -0.71875, 1.21875, 0.0
879, 4.031746031746032, -1.8363858363858363, -0.17216117216117216, 0.21875, -0.75, 1.0, 0.0
880, 4.57020757020757, -1.7423687423687424, -0.5433455433455433, 0.25, -0.6875, 0.71875, 0.0
881, 5.0085470085470085, -1.4774114774114775, -0.9584859584859585, 0.34375, -0.625, 0.4375, 0.0
882, 4.758241758241758, -1.465201465201465, -1.192918192918193, 0.46875, -0.46875, 0.15625, 0.0
883, 4.865689865689865, -1.2344322344322345, -0.7851037851037851, 0.78125, -0.125, -0.25, 0.0
884, 5.708180708180708, -1.5616605616605617, -0.8852258852258852, 0.90625, 0.0, -0.5, 1.0
885, 6.05982905982906, -2.474969474969475, -1.9694749694749696, 0.65625, 0.09375, -1.25, 1.0
886, 5.516483516483516, -3.023199023199023, -1.4334554334554335, 0.3125, 0.0625, -1.59375, 1.0
887, 4.956043956043956, -3.9267399267399266, -1.4737484737484738, 0.15625, 0.28125, -1.9375, 1.0
888, 4.710622710622711, -5.075702075702075, -1.2442002442002442, 0.0625, 0.65625, -2.375, 1.0
889, 4.964590964590965, -5.151404151404152, -1.619047619047619, -0.21875, 0.6875, -2.96875, 1.0
890, 3.735042735042735, -5.979242979242979, -2.3211233211233213, -0.65625, 0.15625, -3.59375, 1.0
891, 0.6581196581196581, -5.212454212454213, -1.7264957264957266, -1.15625, -0.0625, -4.09375, 1.0
892, -1.3663003663003663, -4.3870573870573875, -0.6190476190476191, -1.15625, 0.40625, -4.15625, 1.0
893, -1.0842490842490842, -4.615384615384615, -0.16117216117216118, -0.71875, 1.125, -3.9375, 1.0
894, -0.42857142857142855, -5.73015873015873, -0.05616605616605617, -0.4375, 1.3125, -3.90625, 1.0
895, -0.115995115995116, -6.2173382173382175, 0.34554334554334554, -0.40625, 1.09375, -4.1875, 1.0
896, -0.525030525030525, -6.722832722832723, -0.5006105006105006, -0.53125, 0.71875, -4.59375, 1.0
897, -2.2625152625152625, -6.735042735042735, -1.3565323565323566, -0.96875, 0.25, -4.875, 1.0
898, -4.8791208791208796, -4.792429792429792, -0.663003663003663, -0.75, 0.9375, -4.53125, 1.0
899, -4.742368742368742, -3.769230769230769, 0.007326007326007326, -0.125, 1.8125, -4.03125, 1.0
900, -2.938949938949939, -4.067155067155067, -0.30158730158730157, 0.125, 1.8125, -3.8125, 1.0
901, -3.051282051282051, -3.960927960927961, -0.7692307692307693, 0.03125, 1.59375, -3.875, 1.0
902, -3.0549450549450547, -2.9145299145299144, -0.34676434676434675, 0.03125, 1.5, -3.90625, 1.0
903, -3.2612942612942613, -2.7753357753357752, 0.03418803418803419, 0.09375, 1.625, -3.96875, 1.0
904, -2.9328449328449326, -3.076923076923077, -0.3333333333333333, 0.21875, 1.65625, -4.0625, 1.0
905, -3.2344322344322345, -2.6507936507936507, -0.11355311355311355, 0.15625, 1.40625, -3.65625, 1.0
906, -4.122100122100122, -1.7008547008547008, 0.7216117216117216, 0.40625, 1.78125, -3.4375, 1.0
907, -3.5714285714285716, -1.1294261294261294, -0.09035409035409035, 0.75, 1.84375, -3.1875, 1.0
908, -3.4065934065934065, -1.4603174603174602, -0.8559218559218559, 0.75, 1.8125, -3.28125, 1.0
909, -3.7142857142857144, -1.2747252747252746, -0.8901098901098901, 0.59375, 1.46875, -3.15625, 1.0
910, -4.814407814407814, -0.4065934065934066, -0.8705738705738706, 0.46875, 1.3125, -3.0, 1.0
911, -5.561660561660561, 0.3528693528693529, -0.7704517704517705, 0.46875, 1.25, -2.75, 1.0
912, -5.5787545787545785, 1.0940170940170941, -0.557997557997558, 0.5625, 1.375, -2.3125, 1.0
913, -5.058608058608058, 1.242979242979243, -0.47863247863247865, 0.65625, 1.5, -1.90625, 1.0
914, -4.413919413919414, 1.514041514041514, -0.6202686202686203, 0.65625, 1.28125, -1.59375, 1.0
915, -4.677655677655678, 1.978021978021978, -0.7338217338217338, 0.53125, 0.96875, -1.40625, 1.0
916, -4.557997557997558, 2.4835164835164836, -0.7643467643467643, 0.4375, 0.75, -1.125, 1.0
917, -4.426129426129426, 3.1575091575091574, -0.873015873015873, 0.40625, 0.53125, -0.84375, 1.0
918, -4.57997557997558, 2.568986568986569, -1.7155067155067154, 0.34375, 0.40625, -0.5625, 1.0
919, -3.028083028083028, 2.8192918192918195, -1.811965811965812, 0.09375, 0.46875, -0.3125, 1.0
920, -1.9743589743589745, 2.2527472527472527, -1.6825396825396826, -0.0625, 0.40625, -0.0625, 1.0
921, -1.0818070818070817, 1.7875457875457876, -1.0586080586080586, -0.0625, 0.25, 0.0, 1.0
922, -0.9902319902319903, 1.0573870573870574, -0.6495726495726496, -0.125, 0.125, 0.0, 1.0
923, -1.7692307692307692, 0.7765567765567766, -0.3894993894993895, -0.1875, 0.09375, 0.03125, 1.0
924, -3.1086691086691087, 0.5506715506715507, -0.38217338217338215, -0.46875, 0.15625, 0.3125, 1.0
925, -3.5604395604395602, 0.9230769230769231, -0.045177045177045176, -0.71875, 0.1875, 0.71875, 1.0
926, -2.894993894993895, 0.9145299145299145, -0.042735042735042736, -1.03125, 0.0, 1.09375, 0.0
927, -3.4065934065934065, 2.131868131868132, 0.5262515262515263, -0.75, -0.3125, 1.15625, 0.0
928, -3.0305250305250304, 1.7179487179487178, -0.5946275946275946, -0.5, -0.78125, 1.15625, 0.0
929, -4.191697191697192, 1.2832722832722834, -1.5677655677655677, -0.46875, -1.0, 1.15625, 0.0
930, -5.842490842490842, 1.5262515262515262, -1.7155067155067154, -0.46875, -0.84375, 1.34375, 0.0
931, -6.628815628815629, 2.1184371184371185, -1.3797313797313797, -0.375, -0.625, 2.0625, 0.0
932, -5.575091575091575, 1.3443223443223444, -0.6398046398046398, -0.3125, -0.84375, 2.4375, 0.0
933, -4.9010989010989015, 0.8864468864468864, -1.05006105006105, -0.21875, -1.21875, 2.65625, 0.0
934, -5.1208791208791204, -0.1746031746031746, -2.238095238095238, -0.25, -1.53125, 2.96875, 0.0
935, -4.554334554334554, -0.9694749694749695, -3.076923076923077, -0.4375, -1.46875, 3.3125, 0.0
936, -2.9645909645909647, -1.5323565323565325, -3.258852258852259, -0.625, -1.40625, 3.4375, 0.0
937, -1.6495726495726495, -1.8876678876678876, -3.236874236874237, -0.875, -1.625, 3.5, 0.0
938, -1.249084249084249, -2.183150183150183, -3.241758241758242, -0.96875, -1.96875, 3.53125, 0.0
939, -1.7252747252747254, -2.9804639804639805, -3.4871794871794872, -0.96875, -2.1875, 3.65625, 0.0
940, -2.4444444444444446, -3.7704517704517704, -3.7606837606837606, -0.9375, -1.96875, 3.90625, 0.0
941, -1.8144078144078144, -5.235653235653236, -3.374847374847375, -0.9375, -1.4375, 4.125, 0.0
942, -0.4236874236874237, -5.736263736263736, -2.727716727716728, -1.0, -1.09375, 4.1875, 0.0
943, 0.16727716727716727, -6.078144078144078, -2.244200244200244, -0.96875, -1.28125, 4.0625, 0.0
944, 0.10500610500610501, -6.326007326007326, -1.6703296703296704, -0.8125, -1.40625, 3.96875, 0.0
945, 0.09401709401709402, -6.5506715506715505, -1.188034188034188, -0.59375, -1.40625, 3.84375, 0.0
946, 0.17094017094017094, -6.787545787545787, -0.8962148962148963, -0.46875, -1.34375, 3.71875, 0.0
947, 0.9206349206349206, -6.644688644688645, -0.6166056166056166, -0.40625, -1.4375, 3.5, 0.0
948, 0.9218559218559218, -6.1208791208791204, -0.5531135531135531, -0.25, -1.5, 3.15625, 0.0
949, 0.4065934065934066, -5.697191697191697, -0.33821733821733824, -0.125, -1.5625, 2.9375, 0.0
950, -0.6678876678876678, -5.168498168498169, -0.11233211233211234, -0.0625, -1.34375, 2.96875, 0.0
951, -0.4835164835164835, -4.962148962148962, 0.015873015873015872, 0.0625, -0.96875, 3.0, 0.0
952, 0.4468864468864469, -5.231990231990232, 0.07203907203907203, 0.09375, -0.78125, 2.8125, 0.0
953, 1.4236874236874237, -5.157509157509158, 0.3028083028083028, 0.03125, -0.875, 2.40625, 0.0
954, 2.247863247863248, -4.409035409035409, 0.7411477411477412, 0.0, -1.1875, 1.96875, 0.0
955, 0.6446886446886447, -2.8534798534798536, 0.24297924297924298, 0.15625, -1.5, 1.59375, 0.0
956, 0.20757020757020758, -2.242979242979243, 0.18803418803418803, 0.1875, -1.40625, 1.625, 0.0
957, 0.967032967032967, -1.78998778998779, -0.19536019536019536, 0.34375, -1.21875, 1.65625, 0.0
958, 1.5909645909645909, -1.5299145299145298, -0.6275946275946276, 0.5625, -1.21875, 1.59375, 0.0
959, 1.7374847374847375, -1.8827838827838828, -1.170940170940171, 0.75, -1.0625, 1.53125, 0.0
960, 1.4053724053724053, -1.5848595848595848, -1.3113553113553114, 0.53125, -0.84375, 1.5625, 0.0
961, 2.501831501831502, -0.778998778998779, -0.978021978021978, 0.53125, -0.65625, 1.5625, 0.0
962, 3.2576312576312576, -0.8717948717948718, -1.083028083028083, 0.8125, -0.59375, 1.34375, 0.0
963, 4.085470085470085, -0.978021978021978, -1.407814407814408, 0.96875, -0.53125, 1.15625, 0.0
964, 4.99023199023199, -1.2967032967032968, -2.2783882783882783, 1.125, -0.34375, 0.875, 1.0
965, 6.08058608058608, -1.8815628815628815, -3.526251526251526, 0.90625, -0.03125, 0.59375, 1.0
966, 7.826617826617826, -1.9682539682539681, -3.1172161172161172, 0.5625, 0.0625, -0.3125, 1.0
967, 7.553113553113553, -1.7594627594627594, -3.128205128205128, 0.40625, 0.09375, -0.78125, 1.0
968, 6.859584859584859, -2.8107448107448105, -3.357753357753358, 0.09375, 0.40625, -1.28125, 1.0
969, 6.666666666666667, -3.4065934065934065, -3.167277167277167, -0.15625, 0.65625, -1.78125, 1.0
970, 6.25030525030525, -3.6153846153846154, -2.7094017094017095, -0.4375, 0.78125, -2.25, 1.0
971, 5.1953601953601956, -4.135531135531136, -2.4713064713064714, -0.59375, 0.875, -2.6875, 1.0
972, 4.115995115995116, -4.6068376068376065, -2.5763125763125765, -0.6875, 1.03125, -3.0625, 1.0
973, 2.4383394383394386, -4.912087912087912, -2.5335775335775335, -0.78125, 1.28125, -3.3125, 1.0
974, 1.452991452991453, -5.101343101343101, -1.794871794871795, -0.8125, 1.46875, -3.5625, 1.0
975, 1.0842490842490842, -5.045177045177045, -0.9462759462759462, -0.84375, 1.4375, -3.84375, 1.0
976, 0.7484737484737485, -5.492063492063492, -0.7863247863247863, -0.875, 1.1875, -4.125, 1.0
977, -0.6923076923076923, -5.3357753357753355, -0.7765567765567766, -0.9375, 1.0625, -4.21875, 1.0
978, -2.8034188034188032, -5.076923076923077, 0.33455433455433453, -0.6875, 1.5625, -4.21875, 1.0
979, -2.3663003663003663, -5.074481074481074, 0.5347985347985348, -0.46875, 1.8125, -4.21875, 1.0
980, -2.277167277167277, -6.47008547008547, -0.19047619047619047, -0.25, 1.84375, -4.375, 1.0
981, -2.8998778998779, -6.05982905982906, 0.3553113553113553, -0.40625, 1.6875, -4.375, 1.0
982, -3.2673992673992673, -5.333333333333333, 0.5738705738705738, -0.21875, 1.59375, -4.40625, 1.0
983, -4.34065934065934, -4.816849816849817, 0.34676434676434675, -0.03125, 1.5625, -4.375, 1.0
984, -5.09035409035409, -4.5335775335775335, 0.612942612942613, 0.09375, 1.6875, -4.28125, 1.0
985, -4.642246642246643, -3.6788766788766787, 0.4896214896214896, 0.25, 1.75, -4.03125, 1.0
986, -5.643467643467644, -3.4493284493284495, -0.05982905982905983, 0.4375, 1.5625, -3.75, 1.0
987, -6.495726495726496, -3.1062271062271063, -0.7118437118437119, 0.59375, 1.625, -3.53125, 1.0
988, -6.443223443223443, -2.2344322344322345, 0.028083028083028084, 0.625, 1.96875, -3.125, 1.0
989, -5.275946275946276, -1.5897435897435896, -0.10256410256410256, 0.84375, 2.0625, -2.84375, 1.0
990, -5.336996336996337, -1.4981684981684982, -0.5347985347985348, 0.875, 1.53125, -2.53125, 1.0
991, -5.534798534798535, -1.2271062271062272, -0.9291819291819292, 0.84375, 1.40625, -2.3125, 1.0
992, -5.717948717948718, -0.6666666666666666, -1.0757020757020757, 0.8125, 1.53125, -2.03125, 1.0
993, -4.678876678876679, 0.5311355311355311, -1.225885225885226, 0.90625, 1.4375, -1.78125, 1.0
994, -3.5616605616605614, 1.2197802197802199, -2.161172161172161, 0.9375, 0.9375, -1.59375, 1.0
995, -3.177045177045177, 0.7863247863247863, -3.2356532356532357, 0.71875, 0.59375, -1.5625, 1.0
996, -4.197802197802198, 0.8815628815628815, -3.167277167277167, 0.375, 0.71875, -1.46875, 1.0
997, -5.177045177045177, 2.2857142857142856, -1.9487179487179487, 0.375, 1.125, -1.0, 1.0
998, -4.556776556776557, 2.4188034188034186, -1.1941391941391941, 0.5, 1.25, -0.46875, 1.0
999, -4.214896214896215, 1.9645909645909645, -0.7484737484737485, 0.1875, 0.6875, 0.0, 1.0
1000, -7.507936507936508, 3.421245421245421, -1.032967032967033, 0.25, 0.3125, 0.21875, 1.0
1001, -7.235653235653236, 1.9853479853479854, -1.2796092796092795, -0.09375, 0.34375, 0.5, 1.0
1002, -3.032967032967033, 0.9816849816849816, -0.6275946275946276, -0.4375, -0.0625, 0.625, 1.0
1003, -2.128205128205128, 1.3516483516483517, -0.8608058608058609, -0.84375, -0.34375, 0.84375, 1.0
1004, -1.800976800976801, 1.3894993894993894, -1.6275946275946276, -0.71875, -0.28125, 1.0, 1.0
1005, 0.12576312576312576, 0.7142857142857143, -1.1477411477411477, -0.34375, -0.03125, 1.0, 1.0
1006, 0.2783882783882784, -0.19658119658119658, -1.0561660561660562, -0.34375, -0.125, 1.0625, 1.0
1007, 0.16727716727716727, -0.7802197802197802, -0.905982905982906, -0.53125, -0.15625, 0.96875, 0.0
1008, -0.608058608058608, -0.1282051282051282, -0.6068376068376068, -0.78125, -0.21875, 0.96875, 0.0
1009, -0.7582417582417582, -0.06105006105006105, -0.7326007326007326, -1.03125, -0.3125, 1.0, 0.0
1010, -0.8620268620268621, 0.6532356532356532, -0.7338217338217338, -1.0625, -0.46875, 1.03125, 0.0
1011, -1.3406593406593406, 0.9462759462759462, -0.8400488400488401, -0.9375, -0.625, 1.03125, 0.0
1012, -1.855921855921856, 0.8290598290598291, -0.9206349206349206, -0.8125, -0.8125, 1.0625, 0.0
1013, -2.4652014652014653, 0.5372405372405372, -1.459096459096459, -0.90625, -0.875, 1.09375, 0.0
1014, -3.2185592185592187, 0.7619047619047619, -1.57997557997558, -1.03125, -0.75, 1.28125, 0.0
1015, -4.046398046398046, 1.927960927960928, -1.4371184371184371, -0.8125, -0.4375, 1.71875, 0.0
1016, -3.797313797313797, 1.7887667887667889, -1.5115995115995116, -0.53125, -0.21875, 2.1875, 0.0
1017, -2.2503052503052503, 0.38461538461538464, -1.7423687423687424, -0.53125, -0.53125, 2.25, 0.0
1018, -1.601953601953602, -0.4444444444444444, -1.7692307692307692, -0.84375, -1.15625, 2.09375, 0.0
1019, -1.5189255189255189, -0.9242979242979243, -1.6507936507936507, -1.15625, -1.71875, 1.9375, 0.0
1020, -2.1123321123321124, -0.7411477411477412, -1.4578754578754578, -1.25, -2.03125, 1.9375, 0.0
1021, -2.778998778998779, -0.818070818070818, -1.3455433455433456, -1.15625, -2.03125, 2.15625, 0.0
1022, -2.8913308913308913, -0.7155067155067155, -1.293040293040293, -0.9375, -1.84375, 2.5, 0.0
1023, -2.6275946275946276, -1.47985347985348, -1.4346764346764347, -0.78125, -1.84375, 2.78125, 0.0
1024, -2.623931623931624, -2.3687423687423688, -1.525030525030525, -0.71875, -1.78125, 2.96875, 0.0
1025, -1.1587301587301588, -3.1587301587301586, -1.037851037851038, -0.5625, -1.78125, 3.0, 0.0
1026, -0.8205128205128205, -3.3394383394383396, -1.0622710622710623, -0.375, -1.96875, 3.03125, 0.0
1027, -0.894993894993895, -3.404151404151404, -0.9523809523809523, -0.1875, -2.1875, 3.09375, 0.0
1028, -1.4444444444444444, -3.896214896214896, -0.9462759462759462, 0.0, -2.25, 3.21875, 0.0
1029, -1.4957264957264957, -4.9462759462759465, -1.3467643467643469, 0.125, -2.0, 3.3125, 0.0
1030, -0.9877899877899878, -5.47985347985348, -1.6532356532356531, 0.125, -1.65625, 3.34375, 0.0
1031, -0.27350427350427353, -5.459096459096459, -1.4371184371184371, 0.15625, -1.46875, 3.25, 0.0
1032, -0.11477411477411477, -5.3003663003663, -1.0598290598290598, 0.1875, -1.46875, 3.1875, 0.0
1033, -0.3247863247863248, -5.185592185592186, -0.6642246642246642, 0.28125, -1.46875, 3.21875, 0.0
1034, -0.47496947496947495, -5.454212454212454, -0.2698412698412698, 0.53125, -1.34375, 3.25, 0.0
1035, -0.24175824175824176, -6.021978021978022, -0.18192918192918192, 0.71875, -1.15625, 3.28125, 0.0
1036, 0.4542124542124542, -5.7203907203907205, -0.14285714285714285, 0.625, -0.90625, 3.0, 0.0
1037, 1.2967032967032968, -5.48962148962149, -0.23809523809523808, 0.40625, -1.0, 2.75, 0.0
1038, 1.2148962148962148, -4.608058608058608, -0.026862026862026864, 0.25, -1.125, 2.5, 0.0
1039, 1.6666666666666667, -3.5921855921855923, 0.17704517704517705, 0.28125, -1.1875, 2.28125, 0.0
1040, 2.056166056166056, -3.183150183150183, 0.17826617826617827, 0.40625, -1.3125, 2.09375, 0.0
1041, 2.4896214896214897, -2.916971916971917, -0.4981684981684982, 0.46875, -1.34375, 1.9375, 0.0
1042, 3.0268620268620268, -2.6031746031746033, -1.4285714285714286, 0.46875, -1.28125, 1.875, 0.0
1043, 3.8144078144078146, -1.9853479853479854, -2.1538461538461537, 0.5625, -1.125, 1.71875, 0.0
1044, 5.428571428571429, -1.6166056166056166, -2.619047619047619, 0.75, -1.09375, 1.4375, 0.0
1045, 5.2002442002442, -2.214896214896215, -3.346764346764347, 0.6875, -0.6875, 1.28125, 0.0
1046, 5.2686202686202686, -2.6544566544566544, -3.4188034188034186, 0.65625, -0.0625, 0.84375, 0.0
1047, 6.163614163614164, -2.313797313797314, -2.7777777777777777, 0.65625, 0.25, 0.375, 0.0
1048, 7.819291819291819, -2.481074481074481, -2.457875457875458, 0.59375, 0.34375, -0.125, 1.0
1049, 7.289377289377289, -3.4224664224664223, -2.5042735042735043, 0.59375, 0.40625, -0.6875, 1.0
1050, 7.411477411477412, -3.6849816849816848, -2.2405372405372406, 0.25, 0.46875, -1.28125, 1.0
1051, 7.020757020757021, -3.8595848595848596, -1.8266178266178266, 0.0, 0.40625, -1.78125, 1.0
1052, 5.702075702075702, -4.750915750915751, -1.5848595848595848, -0.1875, 0.3125, -2.28125, 1.0
1053, 4.608058608058608, -5.086691086691086, -0.873015873015873, -0.40625, 0.40625, -2.71875, 1.0
1054, 3.3894993894993894, -5.2905982905982905, -0.8852258852258852, -0.5, 0.59375, -3.0625, 1.0
1055, 2.484737484737485, -5.5677655677655675, -0.8962148962148963, -0.59375, 0.71875, -3.4375, 1.0
1056, 1.927960927960928, -5.492063492063492, -0.46764346764346765, -0.71875, 0.625, -3.75, 1.0
1057, 0.8388278388278388, -5.62026862026862, -0.09645909645909646, -0.8125, 0.5, -4.0, 1.0
1058, -0.3137973137973138, -4.621489621489621, 0.06593406593406594, -0.90625, 0.375, -4.15625, 1.0
1059, -1.8962148962148961, -4.402930402930403, -0.02197802197802198, -0.875, 0.375, -4.125, 1.0
1060, -2.2698412698412698, -4.096459096459096, 0.4652014652014652, -0.625, 0.9375, -4.09375, 1.0
1061, -1.5714285714285714, -3.843711843711844, 0.9023199023199023, -0.3125, 1.03125, -4.03125, 1.0
1062, -1.231990231990232, -4.786324786324786, 0.1916971916971917, -0.25, 0.8125, -4.0625, 1.0
1063, -2.272283272283272, -4.6923076923076925, -0.47863247863247865, -0.40625, 0.75, -4.15625, 1.0
1064, -3.4334554334554332, -4.095238095238095, -0.15506715506715507, -0.46875, 1.03125, -4.09375, 1.0
1065, -3.2967032967032965, -3.385836385836386, 0.6336996336996337, -0.34375, 1.21875, -3.90625, 1.0
1066, -2.95970695970696, -3.1025641025641026, 0.5628815628815629, -0.15625, 1.03125, -3.75, 1.0
1067, -3.791208791208791, -3.42002442002442, 0.18192918192918192, -0.15625, 1.03125, -3.625, 1.0
1068, -4.485958485958486, -3.1172161172161172, 0.26373626373626374, -0.09375, 1.4375, -3.4375, 1.0
1069, -3.9279609279609278, -2.507936507936508, 1.1001221001221002, 0.15625, 1.78125, -3.21875, 1.0
1070, -2.6727716727716726, -2.376068376068376, 0.7545787545787546, 0.46875, 1.5625, -3.09375, 1.0
1071, -2.800976800976801, -2.57997557997558, -0.8742368742368742, 0.28125, 1.0625, -3.15625, 1.0
1072, -5.247863247863248, -1.6886446886446886, -0.40293040293040294, 0.15625, 1.25, -3.03125, 1.0
1073, -5.542124542124542, -0.15506715506715507, 0.5811965811965812, 0.28125, 1.8125, -2.8125, 1.0
1074, -4.831501831501831, -0.39316239316239315, 0.5787545787545788, 0.625, 2.21875, -2.5625, 1.0
1075, -4.051282051282051, 0.2442002442002442, 0.46153846153846156, 0.53125, 2.03125, -1.9375, 1.0
1076, -3.0744810744810747, 0.6678876678876678, -0.2454212454212454, 0.5625, 1.6875, -1.625, 1.0
1077, -2.802197802197802, 0.5262515262515263, -1.822954822954823, 0.625, 1.125, -1.8125, 1.0
1078, -3.554334554334554, 1.6935286935286935, -2.3516483516483517, 0.3125, 0.78125, -1.90625, 1.0
1079, -4.242979242979243, 2.286935286935287, -2.2673992673992673, 0.15625, 0.9375, -1.9375, 1.0
1080, -3.1709401709401708, 3.2063492063492065, -1.6752136752136753, 0.46875, 1.34375, -2.0, 1.0
1081, -2.3382173382173383, 1.2417582417582418, -2.554334554334554, 0.53125, 1.15625, -1.65625, 1.0
1082, -4.832722832722832, 1.9365079365079365, -2.061050061050061, -0.03125, 0.65625, -0.78125, 1.0
1083, -4.411477411477412, 2.924297924297924, -0.8571428571428571, 0.0, 1.40625, -0.125, 1.0
1084, -3.098901098901099, 2.5274725274725274, -0.057387057387057384, 0.15625, 1.28125, 0.03125, 1.0
1085, -2.2893772893772892, 2.075702075702076, -0.2442002442002442, 0.1875, 0.71875, -0.0625, 1.0
1086, -2.120879120879121, 1.6532356532356531, -0.21733821733821734, 0.09375, 0.03125, -0.1875, 1.0
1087, -2.299145299145299, 1.4224664224664225, -0.7411477411477412, -0.09375, -0.375, -0.15625, 1.0
1088, -1.8315018315018314, 1.1611721611721613, -0.8998778998778999, -0.3125, -0.46875, -0.1875, 1.0
1089, -1.225885225885226, 1.2124542124542124, -1.054945054945055, -0.3125, -0.4375, -0.09375, 1.0
1090, -1.0586080586080586, 0.9438339438339438, -1.1965811965811965, -0.40625, -0.15625, 0.09375, 1.0
1091, -0.7057387057387058, 0.4468864468864469, -0.945054945054945, -0.5625, 0.1875, 0.375, 1.0
1092, -0.11843711843711843, -0.08669108669108669, -0.7155067155067155, -0.875, 0.34375, 0.625, 0.0
1093, -0.2893772893772894, 0.7350427350427351, -0.8253968253968254, -1.03125, 0.25, 0.75, 0.0
1094, -0.42124542124542125, 1.2673992673992673, -0.3772893772893773, -0.6875, -0.03125, 0.59375, 0.0
1095, -2.271062271062271, 1.2747252747252746, -0.20512820512820512, -0.5625, -0.09375, 0.59375, 0.0
1096, -2.5763125763125765, 2.092796092796093, -0.1807081807081807, -0.40625, -0.1875, 0.59375, 0.0
1097, -2.8461538461538463, 3.075702075702076, -0.5531135531135531, -0.15625, -0.46875, 0.46875, 0.0
1098, -3.713064713064713, 3.1001221001221, -1.1184371184371185, -0.0625, -0.96875, 0.40625, 0.0
1099, -4.501831501831502, 2.688644688644689, -1.3247863247863247, -0.125, -1.53125, 0.5625, 0.0
1100, -5.6068376068376065, 2.0305250305250304, -1.6532356532356531, -0.28125, -1.8125, 1.15625, 0.0
1101, -4.956043956043956, 1.1623931623931625, -2.0488400488400487, -0.375, -1.53125, 1.5625, 0.0
1102, -3.2783882783882783, 0.4004884004884005, -1.8986568986568986, -0.4375, -1.40625, 1.75, 0.0
1103, -2.6788766788766787, 0.02197802197802198, -1.757020757020757, -0.59375, -1.78125, 1.875, 0.0
1104, -3.4896214896214897, -0.1978021978021978, -1.9536019536019535, -0.625, -2.15625, 2.25, 0.0
1105, -3.8583638583638584, -1.358974358974359, -2.230769230769231, -0.5, -2.09375, 2.71875, 0.0
1106, -3.0183150183150182, -2.371184371184371, -2.06959706959707, -0.375, -1.8125, 3.34375, 0.0
1107, -1.63003663003663, -3.68009768009768, -2.5750915750915753, -0.375, -1.78125, 3.5625, 0.0
1108, -1.3125763125763126, -5.355311355311355, -3.5518925518925517, -0.6875, -1.6875, 3.375, 0.0
1109, -0.7289377289377289, -4.914529914529915, -3.2893772893772892, -0.9375, -1.71875, 3.1875, 0.0
1110, -1.2637362637362637, -4.238095238095238, -2.474969474969475, -0.9375, -1.8125, 3.21875, 0.0
1111, -1.5592185592185592, -3.912087912087912, -1.884004884004884, -0.6875, -1.78125, 3.53125, 0.0
1112, -1.3516483516483517, -3.9743589743589745, -1.2625152625152625, -0.15625, -1.78125, 3.8125, 0.0
1113, -1.2087912087912087, -5.572649572649572, -1.9804639804639805, 0.0, -1.71875, 4.0625, 0.0
1114, -1.380952380952381, -6.8559218559218555, -2.857142857142857, -0.21875, -1.1875, 3.875, 0.0
1115, -0.34676434676434675, -6.457875457875458, -2.641025641025641, -0.40625, -0.90625, 3.53125, 0.0
1116, -0.1391941391941392, -5.702075702075702, -1.9120879120879122, -0.4375, -0.9375, 3.4375, 0.0
1117, -0.5897435897435898, -5.641025641025641, -1.21001221001221, -0.375, -0.90625, 3.53125, 0.0
1118, 0.11965811965811966, -5.777777777777778, 0.24297924297924298, 0.0, -0.625, 3.53125, 0.0
1119, 0.25396825396825395, -5.655677655677656, 0.8559218559218559, 0.15625, -0.53125, 3.46875, 0.0
1120, 0.5262515262515263, -5.573870573870574, 0.9645909645909646, 0.25, -0.625, 3.34375, 0.0
1121, 0.5665445665445665, -5.039072039072039, 1.0122100122100122, 0.28125, -0.71875, 3.0625, 0.0
1122, 0.8205128205128205, -4.597069597069597, 1.1074481074481075, 0.34375, -0.84375, 2.75, 0.0
1123, 0.5982905982905983, -3.808302808302808, 1.2014652014652014, 0.34375, -1.15625, 2.46875, 0.0
1124, 0.4249084249084249, -2.987789987789988, 1.1587301587301588, 0.40625, -1.5, 2.34375, 0.0
1125, 0.4053724053724054, -2.227106227106227, 0.8888888888888888, 0.5625, -1.75, 2.40625, 0.0
1126, 1.0634920634920635, -2.3382173382173383, 0.03907203907203907, 0.8125, -1.96875, 2.5625, 0.0
1127, 1.15018315018315, -3.2344322344322345, -1.783882783882784, 0.96875, -1.84375, 2.53125, 0.0
1128, 3.432234432234432, -3.225885225885226, -2.7924297924297923, 0.9375, -1.40625, 2.28125, 0.0
1129, 4.588522588522588, -2.8547008547008548, -2.8937728937728937, 0.78125, -1.0, 1.96875, 0.0
1130, 5.601953601953602, -2.844932844932845, -2.357753357753358, 1.03125, -0.6875, 1.46875, 0.0
1131, 7.0366300366300365, -3.039072039072039, -2.1001221001221, 1.1875, -0.28125, 0.96875, 0.0
1132, 8.028083028083028, -3.404151404151404, -2.3455433455433456, 0.96875, -0.25, 0.625, 1.0
1133, 6.863247863247863, -3.426129426129426, -3.4652014652014653, 0.6875, -0.0625, -0.0625, 1.0
1134, 7.014652014652015, -2.7484737484737485, -2.2283272283272284, 0.4375, -0.0625, -0.65625, 1.0
1135, 7.197802197802198, -2.2503052503052503, -1.1794871794871795, 0.40625, -0.25, -1.0625, 1.0
1136, 6.4041514041514045, -2.772893772893773, -1.8681318681318682, 0.25, -0.125, -1.375, 1.0
1137, 5.482295482295482, -3.105006105006105, -2.7326007326007327, 0.0, 0.125, -1.71875, 1.0
1138, 4.9743589743589745, -4.018315018315018, -3.0671550671550674, -0.40625, 0.375, -2.28125, 1.0
1139, 4.926739926739927, -3.8815628815628815, -1.9426129426129426, -0.75, 0.21875, -2.84375, 1.0
1140, 3.9267399267399266, -4.247863247863248, -1.188034188034188, -1.0, -0.0625, -3.3125, 1.0
1141, -0.6019536019536019, -3.769230769230769, -1.6398046398046398, -1.09375, 0.09375, -3.40625, 1.0
1142, -0.9352869352869353, -3.7777777777777777, -1.264957264957265, -1.15625, 0.8125, -3.28125, 1.0
1143, -0.15873015873015872, -4.054945054945055, -0.4700854700854701, -1.0625, 1.28125, -3.34375, 1.0
1144, 0.06349206349206349, -4.057387057387057, -0.17826617826617827, -1.0, 1.21875, -3.46875, 1.0
1145, -0.557997557997558, -4.8217338217338215, -0.30036630036630035, -1.0, 0.90625, -3.75, 1.0
1146, -1.7362637362637363, -4.708180708180708, 0.0695970695970696, -1.15625, 0.78125, -3.84375, 1.0
1147, -2.045177045177045, -3.9474969474969477, 0.8681318681318682, -1.0625, 1.03125, -3.8125, 1.0
1148, -1.6654456654456655, -3.7814407814407813, 1.072039072039072, -0.75, 1.34375, -3.71875, 1.0
1149, -0.8632478632478633, -4.383394383394384, 0.6092796092796092, -0.4375, 1.21875, -3.78125, 1.0
1150, -1.2759462759462759, -4.683760683760684, 0.24786324786324787, -0.5, 0.875, -3.875, 1.0
1151, -2.335775335775336, -3.9279609279609278, 0.557997557997558, -0.5625, 0.84375, -4.0, 1.0
1152, -2.9255189255189253, -3.0036630036630036, 0.503052503052503, -0.21875, 1.15625, -3.78125, 1.0
1153, -2.807081807081807, -2.744810744810745, 0.25518925518925517, 0.0, 1.5625, -3.6875, 1.0
1154, -2.669108669108669, -3.225885225885226, 0.2490842490842491, 0.0, 1.46875, -3.5625, 1.0
1155, -3.0366300366300365, -2.3943833943833943, 0.6349206349206349, 0.03125, 1.4375, -3.375, 1.0
1156, -2.9462759462759465, -2.15018315018315, 0.3308913308913309, 0.25, 1.4375, -3.28125, 1.0
1157, -3.0964590964590966, -2.3455433455433456, -0.7057387057387058, 0.28125, 1.25, -3.15625, 1.0
1158, -3.7020757020757022, -1.6703296703296704, -0.27594627594627597, 0.1875, 1.34375, -3.09375, 1.0
1159, -3.4713064713064714, -0.9951159951159951, 0.36385836385836384, 0.28125, 1.46875, -2.9375, 1.0
1160, -2.9511599511599513, -0.5262515262515263, 0.199023199023199, 0.4375, 1.34375, -2.84375, 1.0
1161, -3.2002442002442004, -1.1587301587301588, -0.4603174603174603, 0.4375, 1.1875, -2.8125, 1.0
1162, -3.7142857142857144, -0.6239316239316239, -0.6703296703296703, 0.375, 1.15625, -2.6875, 1.0
1163, -4.608058608058608, 0.10744810744810745, -0.33821733821733824, 0.40625, 1.3125, -2.375, 1.0
1164, -3.998778998778999, 0.8156288156288156, -1.122100122100122, 0.71875, 1.3125, -1.96875, 1.0
1165, -3.6996336996337, -0.15995115995115994, -1.4212454212454213, 0.5625, 1.125, -1.9375, 1.0
1166, -4.582417582417582, 0.5641025641025641, -0.8901098901098901, 0.375, 1.0625, -1.84375, 1.0
1167, -5.00976800976801, 1.8278388278388278, -0.40415140415140416, 0.34375, 1.03125, -1.5625, 1.0
1168, -4.113553113553113, 1.9841269841269842, -0.9645909645909646, 0.5, 0.875, -1.1875, 1.0
1169, -3.9084249084249083, 1.8253968253968254, -1.7240537240537241, 0.46875, 0.65625, -0.9375, 1.0
1170, -3.5885225885225887, 1.2173382173382172, -2.0073260073260073, 0.25, 0.59375, -0.78125, 1.0
1171, -3.3504273504273505, 2.1477411477411477, -1.1123321123321124, -0.03125, 0.5, -0.625, 1.0
1172, -3.6495726495726495, 2.399267399267399, -0.20146520146520147, -0.03125, 0.4375, -0.375, 1.0
1173, -3.445665445665446, 2.1355311355311355, 0.2039072039072039, 0.0625, 0.4375, -0.03125, 1.0
1174, -2.5873015873015874, 1.3455433455433456, 0.14041514041514042, 0.125, 0.40625, 0.25, 1.0
1175, -1.3467643467643469, 0.08302808302808302, -0.8131868131868132, -0.03125, 0.34375, 0.3125, 1.0
1176, -0.9682539682539683, 0.19658119658119658, -0.7936507936507936, -0.71875, 0.15625, 0.3125, 1.0
1177, -1.0573870573870574, 1.4554334554334554, -0.31868131868131866, -0.625, 0.0, 0.375, 0.0
1178, -1.5421245421245422, 1.514041514041514, -0.3418803418803419, -0.4375, 0.0, 0.4375, 0.0
1179, -1.5396825396825398, 1.1416361416361416, -0.5946275946275946, -0.5, -0.15625, 0.71875, 0.0
1180, -2.9645909645909647, 1.6984126984126984, -0.7081807081807082, -0.46875, -0.15625, 1.0, 0.0
1181, -3.1172161172161172, 2.554334554334554, -0.7741147741147741, -0.1875, -0.28125, 1.1875, 0.0
1182, -3.062271062271062, 3.0537240537240535, -0.557997557997558, 0.03125, -0.8125, 1.3125, 0.0
1183, -3.84981684981685, 2.7020757020757022, -1.1318681318681318, 0.0625, -1.40625, 1.46875, 0.0
1184, -5.967032967032967, 1.1941391941391941, -2.7313797313797314, -0.28125, -1.25, 1.5625, 0.0
1185, -6.13919413919414, 0.8742368742368742, -2.901098901098901, -0.6875, -0.875, 1.6875, 0.0
1186, -4.736263736263736, 1.691086691086691, -1.8742368742368742, -0.75, -0.78125, 1.96875, 0.0
1187, -3.595848595848596, 1.293040293040293, -1.6031746031746033, -0.65625, -1.25, 2.34375, 0.0
1188, -2.4444444444444446, -0.1514041514041514, -1.4395604395604396, -0.6875, -1.59375, 2.4375, 0.0
1189, -2.573870573870574, -1.3443223443223444, -1.8571428571428572, -0.78125, -1.96875, 2.53125, 0.0
1190, -2.9365079365079363, -2.431013431013431, -2.092796092796093, -0.875, -2.03125, 2.71875, 0.0
1191, -2.4188034188034186, -2.7326007326007327, -1.9584859584859584, -0.875, -1.9375, 2.9375, 0.0
1192, -1.8632478632478633, -3.183150183150183, -1.4505494505494505, -0.75, -1.84375, 3.125, 0.0
1193, -1.2661782661782661, -3.586080586080586, -0.927960927960928, -0.46875, -1.875, 3.3125, 0.0
1194, -1.1868131868131868, -4.423687423687424, -0.7875457875457875, -0.125, -2.03125, 3.5, 0.0
1195, -1.9633699633699633, -6.003663003663004, -1.5616605616605617, 0.15625, -1.96875, 3.625, 0.0
1196, -1.6947496947496947, -7.075702075702075, -2.0244200244200243, 0.09375, -1.5, 3.625, 0.0
1197, -0.6532356532356532, -6.388278388278389, -1.5177045177045176, -0.03125, -1.0625, 3.5625, 0.0
1198, -0.03418803418803419, -5.8107448107448105, -1.10989010989011, 0.0, -1.0, 3.5, 0.0
1199, -0.22954822954822954, -5.641025641025641, -0.9401709401709402, 0.15625, -1.15625, 3.40625, 0.0
1200, -0.2148962148962149, -5.589743589743589, -0.590964590964591, 0.34375, -1.15625, 3.34375, 0.0
1201, -0.1282051282051282, -5.409035409035409, -0.49206349206349204, 0.53125, -1.0625, 3.28125, 0.0
1202, 0.525030525030525, -5.4212454212454215, -0.7301587301587301, 0.5625, -1.03125, 3.21875, 0.0
1203, 0.8131868131868132, -5.167277167277168, -0.7228327228327228, 0.625, -1.03125, 3.09375, 0.0
1204, 1.0818070818070817, -4.865689865689865, -0.6190476190476191, 0.71875, -1.0, 2.90625, 0.0
1205, 1.2612942612942613, -4.694749694749695, -0.40415140415140416, 0.71875, -0.875, 2.65625, 0.0
1206, 1.4981684981684982, -4.400488400488401, -0.5347985347985348, 0.625, -0.84375, 2.4375, 0.0
1207, 0.9731379731379731, -3.857142857142857, -0.6764346764346765, 0.4375, -0.71875, 2.21875, 0.0
1208, 0.7106227106227107, -3.114774114774115, -0.1794871794871795, 0.3125, -0.59375, 2.21875, 0.0
1209, 1.5335775335775337, -2.3956043956043955, 0.43956043956043955, 0.4375, -0.59375, 2.1875, 0.0
1210, 2.503052503052503, -2.0476190476190474, 0.4371184371184371, 0.71875, -0.75, 1.9375, 0.0
1211, 2.0183150183150182, -2.9865689865689866, -1.297924297924298, 0.78125, -0.84375, 1.875, 0.0
1212, 2.542124542124542, -2.413919413919414, -1.36996336996337, 0.46875, -0.59375, 1.6875, 0.0
1213, 3.6056166056166057, -1.7533577533577533, -1.2307692307692308, 0.375, -0.5625, 1.46875, 0.0
1214, 3.7435897435897436, -1.7667887667887667, -1.3296703296703296, 0.4375, -0.65625, 1.25, 0.0
1215, 3.7997557997557996, -1.8034188034188035, -1.557997557997558, 0.40625, -0.625, 1.0, 0.0
1216, 2.8351648351648353, -1.1611721611721613, -1.8754578754578755, 0.34375, -0.4375, 0.84375, 0.0
1217, 2.976800976800977, -0.8217338217338217, -1.8925518925518925, 0.34375, -0.09375, 0.84375, 0.0
1218, 3.0415140415140414, -0.9328449328449329, -1.5775335775335775, 0.4375, 0.09375, 0.65625, 0.0
1219, 3.4481074481074483, -0.7313797313797313, -1.1782661782661783, 0.5, 0.21875, 0.46875, 0.0
1220, 4.096459096459096, -1.0744810744810744, -1.2307692307692308, 0.65625, 0.25, 0.25, 0.0
1221, 5.051282051282051, -2.299145299145299, -1.8937728937728937, 0.71875, 0.21875, -0.09375, 1.0
1222, 5.339438339438339, -3.0744810744810747, -2.8058608058608057, 0.125, 0.3125, -0.84375, 1.0
1223, 6.166056166056166, -3.221001221001221, -2.6971916971916974, -0.3125, 0.25, -1.5, 1.0
1224, 6.339438339438339, -2.9975579975579976, -2.172161172161172, -0.5625, 0.0, -2.0625, 1.0
1225, 5.291819291819292, -3.614163614163614, -2.0525030525030523, -0.6875, -0.0625, -2.59375, 1.0
1226, 4.166056166056166, -3.543345543345543, -2.0903540903540905, -0.65625, 0.09375, -2.90625, 1.0
1227, 3.2515262515262515, -4.076923076923077, -1.9047619047619047, -0.75, 0.4375, -3.09375, 1.0
1228, 2.636141636141636, -4.698412698412699, -2.227106227106227, -0.9375, 0.71875, -3.3125, 1.0
1229, 2.2686202686202686, -4.752136752136752, -1.9597069597069596, -1.125, 0.78125, -3.625, 1.0
1230, 1.413919413919414, -4.962148962148962, -1.2246642246642248, -1.28125, 0.6875, -3.84375, 1.0
1231, 0.4163614163614164, -5.1953601953601956, -0.47741147741147744, -1.375, 0.75, -4.0, 1.0
1232, -0.5921855921855922, -4.941391941391942, 0.10622710622710622, -1.34375, 0.96875, -4.0625, 1.0
1233, -1.0268620268620268, -4.8901098901098905, 0.6019536019536019, -1.1875, 1.15625, -4.09375, 1.0
1234, -1.7387057387057387, -5.224664224664225, 0.8327228327228328, -0.90625, 1.375, -4.03125, 1.0
1235, -1.6813186813186813, -4.976800976800977, 0.5213675213675214, -0.75, 1.375, -4.03125, 1.0
1236, -2.584859584859585, -5.057387057387057, 0.3199023199023199, -0.71875, 1.28125, -3.9375, 1.0
1237, -2.652014652014652, -4.203907203907204, 0.8131868131868132, -0.625, 1.5, -3.96875, 1.0
1238, -2.3785103785103785, -4.273504273504273, 0.6947496947496947, -0.28125, 1.65625, -3.90625, 1.0
1239, -2.7020757020757022, -4.764346764346764, 0.020757020757020756, -0.15625, 1.53125, -3.75, 1.0
1240, -3.4444444444444446, -3.978021978021978, 0.16605616605616605, -0.21875, 1.46875, -3.65625, 1.0
1241, -3.6153846153846154, -3.427350427350427, 0.36996336996337, -0.125, 1.625, -3.5625, 1.0
1242, -3.3626373626373627, -2.9206349206349205, 0.3711843711843712, 0.15625, 1.59375, -3.53125, 1.0
1243, -4.31990231990232, -2.9584859584859586, -0.11843711843711843, 0.3125, 1.46875, -3.40625, 1.0
1244, -5.032967032967033, -2.413919413919414, -0.03785103785103785, 0.375, 1.5, -3.125, 1.0
1245, -4.637362637362638, -1.3076923076923077, 0.06349206349206349, 0.65625, 1.78125, -2.65625, 1.0
