timestamp, accX, accY, accZ, gyroX, gyroY, gyroZ, button
3582, -0.13064713064713065, -1.1697191697191698, 0.5592185592185592, 0.0, 0.71875, -1.03125, 0.0
3583, -0.4163614163614164, -1.2295482295482296, -0.05860805860805861, 0.09375, 0.65625, -1.0, 0.0
3584, -0.8778998778998779, -1.155067155067155, -0.49694749694749696, 0.0625, 0.59375, -0.9375, 0.0
1, -1.4334554334554335, -0.9572649572649573, -1.0097680097680097, 0.0, 0.6875, -0.9375, 0.0
2, -1.1611721611721613, -0.7448107448107448, -1.0134310134310134, -0.125, 0.78125, -0.78125, 0.0
3, -0.8498168498168498, -0.25518925518925517, -0.590964590964591, -0.15625, 0.71875, -0.6875, 0.0
4, -0.7094017094017094, 0.3614163614163614, -0.30036630036630035, -0.03125, 0.59375, -0.5625, 0.0
5, -0.31013431013431014, 0.5286935286935287, -0.2783882783882784, 0.0625, 0.5, -0.4375, 0.0
6, 0.05372405372405373, 0.8021978021978022, -0.21123321123321123, 0.15625, 0.34375, -0.34375, 0.0
7, 0.040293040293040296, 1.0366300366300367, -0.32234432234432236, 0.1875, 0.125, -0.3125, 0.0
8, -0.07448107448107448, 1.271062271062271, -0.41025641025641024, 0.1875, 0.09375, -0.28125, 0.0
9, 0.409035409035409, 1.5970695970695972, -0.17094017094017094, 0.15625, 0.09375, -0.25, 0.0
10, 0.9499389499389499, 1.6080586080586081, 0.028083028083028084, 0.125, 0.0, -0.1875, 0.0
11, 1.0964590964590966, 1.706959706959707, 0.115995115995116, 0.21875, -0.15625, -0.1875, 0.0
12, 1.1391941391941391, 1.592185592185592, -0.03296703296703297, 0.40625, -0.15625, -0.15625, 0.0
13, 1.3565323565323566, 1.2698412698412698, -0.315018315018315, 0.40625, -0.125, -0.1875, 0.0
14, 1.6764346764346765, 0.9267399267399268, -0.48717948717948717, 0.34375, -0.21875, -0.21875, 0.0
15, 1.612942612942613, 0.9242979242979243, -0.45054945054945056, 0.25, -0.25, -0.28125, 0.0
16, 1.3162393162393162, 1.1697191697191698, -0.3064713064713065, 0.1875, -0.15625, -0.3125, 0.0
17, 1.4615384615384615, 1.0048840048840049, -0.22344322344322345, 0.09375, -0.15625, -0.28125, 0.0
18, 1.2844932844932846, 0.7765567765567766, -0.31013431013431014, 0.0, -0.0625, -0.3125, 0.0
19, 1.3675213675213675, 0.6788766788766789, -0.018315018315018316, -0.0625, 0.0, -0.3125, 0.0
20, 1.3894993894993894, 0.398046398046398, 0.1330891330891331, -0.09375, 0.0, -0.34375, 0.0
21, 1.1782661782661783, 0.18192918192918192, 0.21733821733821734, -0.15625, -0.03125, -0.34375, 0.0
22, 1.1147741147741148, 0.10256410256410256, 0.19291819291819293, -0.15625, -0.03125, -0.3125, 0.0
23, 1.0, -0.03663003663003663, 0.026862026862026864, -0.0625, 0.0, -0.3125, 0.0
24, 1.291819291819292, -0.5702075702075702, -0.25518925518925517, -0.03125, 0.0, -0.25, 0.0
25, 1.6153846153846154, -0.9438339438339438, -0.47374847374847373, -0.03125, -0.03125, -0.28125, 0.0
26, 1.6752136752136753, -1.1855921855921856, -0.6507936507936508, 0.0, -0.09375, -0.34375, 0.0
27, 1.3577533577533578, -1.4517704517704517, -1.137973137973138, 0.03125, 0.03125, -0.46875, 0.0
28, 1.2332112332112333, -1.7435897435897436, -1.485958485958486, -0.03125, 0.25, -0.5625, 0.0
29, 1.6971916971916972, -1.7411477411477412, -1.336996336996337, -0.09375, 0.25, -0.65625, 0.0
30, 1.5103785103785103, -1.601953601953602, -1.1489621489621489, -0.0625, 0.21875, -0.78125, 0.0
31, 1.0012210012210012, -1.4505494505494505, -0.9145299145299145, -0.0625, 0.3125, -0.875, 0.0
32, 0.7057387057387058, -1.3137973137973138, -0.3711843711843712, -0.0625, 0.375, -1.0, 0.0
33, 0.6642246642246642, -1.5543345543345544, 0.12332112332112333, -0.15625, 0.34375, -1.09375, 0.0
34, 0.6141636141636142, -1.8388278388278387, 0.4993894993894994, -0.21875, 0.25, -1.1875, 0.0
35, 0.5482295482295483, -1.8266178266178266, 1.0940170940170941, -0.1875, 0.15625, -1.21875, 0.0
36, -0.14774114774114774, -1.1452991452991452, 1.5494505494505495, 0.0625, 0.21875, -1.4375, 0.0
37, -2.1123321123321124, -0.6336996336996337, 0.5518925518925519, 0.46875, 0.5625, -1.40625, 0.0
38, -2.52014652014652, -0.9218559218559218, 0.09157509157509157, 0.375, 0.46875, -1.375, 0.0
39, -3.409035409035409, -0.3540903540903541, 0.05128205128205128, 0.0625, 0.25, -1.21875, 0.0
40, -4.400488400488401, 0.4554334554334554, -0.10744810744810745, -0.03125, 0.125, -1.0625, 0.0
41, -5.238095238095238, 0.796092796092796, -0.6666666666666666, 0.0, 0.09375, -0.8125, 0.0
42, -5.588522588522588, 0.9145299145299145, -1.1428571428571428, 0.0, 0.15625, -0.5, 0.0
43, -5.7936507936507935, 1.2417582417582418, -1.286935286935287, -0.15625, 0.15625, -0.09375, 0.0
44, -5.771672771672772, 1.5445665445665446, -1.3748473748473748, -0.34375, 0.03125, 0.3125, 0.0
45, -5.995115995115995, 1.6971916971916972, -2.06959706959707, -0.4375, -0.1875, 0.65625, 0.0
46, -6.688644688644689, 1.63003663003663, -3.9194139194139193, -0.5, -0.25, 0.75, 0.0
47, -6.559218559218559, 0.8534798534798534, -5.257631257631258, -0.65625, -0.3125, 1.25, 0.0
48, -6.1330891330891335, 0.1575091575091575, -5.532356532356532, -1.0625, -0.34375, 1.75, 0.0
49, -5.586080586080586, -0.31746031746031744, -4.798534798534798, -1.59375, -0.3125, 2.125, 0.0
50, -4.444444444444445, -0.5470085470085471, -3.52014652014652, -2.0, -0.375, 2.46875, 0.0
51, -3.399267399267399, -1.3272283272283272, -3.664224664224664, -1.84375, -0.625, 2.71875, 0.0
52, -3.58974358974359, -1.6336996336996337, -3.5885225885225887, -1.40625, -0.65625, 2.90625, 0.0
53, -3.001221001221001, -2.442002442002442, -3.5384615384615383, -1.34375, -0.34375, 3.0, 0.0
54, -2.7155067155067156, -2.4249084249084247, -2.956043956043956, -1.71875, -0.0625, 2.8125, 0.0
55, -2.612942612942613, -2.1013431013431014, -1.8962148962148961, -2.21875, 0.09375, 2.84375, 0.0
56, -1.0915750915750915, -2.4395604395604398, -0.8156288156288156, -2.5625, -0.21875, 2.9375, 0.0
57, -1.4004884004884004, -2.346764346764347, -0.28205128205128205, -2.59375, -0.78125, 2.78125, 0.0
58, -2.5054945054945055, -2.221001221001221, -0.2026862026862027, -2.21875, -0.59375, 2.75, 0.0
59, -2.126984126984127, -3.3785103785103785, -0.47863247863247865, -1.71875, 0.09375, 3.0, 0.0
60, 0.42246642246642246, -5.587301587301587, -0.45665445665445664, -1.5625, 0.3125, 3.09375, 0.0
61, 3.7191697191697193, -7.212454212454213, -0.03785103785103785, -1.875, -1.65625, 2.59375, 0.0
62, 1.9377289377289377, -5.2515262515262515, -0.040293040293040296, -1.28125, -2.25, 2.03125, 0.0
63, -3.111111111111111, 0.019536019536019536, -2.741147741147741, -0.625, -0.4375, 1.0625, 1.0
64, -3.67032967032967, -0.4542124542124542, -3.299145299145299, -0.59375, -0.5625, 1.3125, 1.0
65, -2.6227106227106227, -0.8253968253968254, -3.4346764346764345, -0.90625, -0.5, 1.53125, 1.0
66, -2.3724053724053724, -0.7509157509157509, -2.6166056166056166, -1.03125, -0.78125, 1.6875, 1.0
67, -2.172161172161172, -0.873015873015873, -2.177045177045177, -0.96875, -0.71875, 1.78125, 1.0
68, -2.5384615384615383, -0.6935286935286935, -1.982905982905983, -1.0625, -0.625, 1.875, 1.0
69, -2.9401709401709404, -0.5347985347985348, -1.3308913308913308, -1.21875, -0.625, 2.03125, 1.0
70, -2.242979242979243, -0.5787545787545788, -0.38217338217338215, -1.1875, -0.65625, 2.1875, 1.0
71, -0.5067155067155067, -2.075702075702076, -0.2515262515262515, -1.0625, -1.09375, 2.34375, 1.0
72, -1.4896214896214897, -1.7594627594627594, -0.4371184371184371, -1.09375, -1.4375, 2.34375, 1.0
73, -2.0183150183150182, -1.6312576312576312, -0.557997557997558, -0.9375, -0.9375, 2.46875, 1.0
74, -0.34676434676434675, -2.537240537240537, -0.35775335775335776, -0.875, -0.71875, 2.59375, 1.0
75, -0.5213675213675214, -3.1758241758241756, -0.27106227106227104, -0.71875, -1.1875, 2.6875, 1.0
76, -2.4017094017094016, -2.769230769230769, -1.8388278388278387, -0.625, -0.84375, 2.6875, 1.0
77, -3.4725274725274726, -2.3064713064713063, -2.6446886446886446, -0.53125, -0.25, 2.8125, 1.0
78, -1.57997557997558, -3.7875457875457874, -1.7142857142857142, -0.5625, -0.1875, 3.34375, 1.0
79, 0.6825396825396826, -5.802197802197802, -0.3882783882783883, -0.78125, -1.34375, 3.4375, 1.0
80, 1.4383394383394383, -5.42979242979243, 0.4981684981684982, -0.53125, -1.03125, 3.28125, 1.0
81, 1.778998778998779, -5.47985347985348, 0.10012210012210013, -0.28125, -0.125, 2.6875, 1.0
82, 2.9743589743589745, -5.6300366300366305, -0.9914529914529915, -0.65625, -0.125, 2.25, 1.0
83, 2.9279609279609278, -4.705738705738706, -0.8058608058608059, -0.96875, -0.9375, 2.125, 1.0
84, 1.5897435897435896, -3.6166056166056166, -0.4358974358974359, -0.84375, -1.03125, 2.0625, 1.0
85, 0.9365079365079365, -3.68009768009768, -1.2857142857142858, -0.71875, -0.65625, 2.03125, 1.0
86, 1.7142857142857142, -3.42002442002442, -1.2527472527472527, -0.59375, -0.5625, 2.0, 1.0
87, 1.8864468864468864, -3.1648351648351647, -0.9633699633699634, -0.59375, -0.40625, 1.75, 1.0
88, 2.086691086691087, -2.623931623931624, -0.36507936507936506, -0.625, -0.21875, 1.59375, 1.0
89, 1.0940170940170941, -2.3601953601953602, -0.23565323565323565, -0.4375, 0.03125, 1.5, 1.0
90, -0.007326007326007326, -2.1465201465201464, -0.02442002442002442, -0.1875, 0.3125, 1.78125, 1.0
91, 1.9694749694749696, -2.73992673992674, 0.5946275946275946, -0.375, 0.03125, 1.75, 1.0
92, 1.21001221001221, -2.2698412698412698, 1.2234432234432235, -0.5, -0.0625, 1.59375, 1.0
93, -0.4822954822954823, -1.242979242979243, 1.9413919413919414, -0.125, 0.28125, 1.625, 1.0
94, 0.7594627594627594, -1.5848595848595848, 2.6324786324786325, 0.15625, 0.34375, 1.78125, 1.0
95, 4.962148962148962, -3.484737484737485, 1.540903540903541, -0.15625, -0.8125, 1.59375, 1.0
96, 3.1233211233211233, -3.0268620268620268, 0.2979242979242979, -0.375, -1.1875, 1.125, 1.0
97, 0.07326007326007326, -1.7167277167277166, -0.6776556776556777, -0.3125, 0.0, 1.09375, 1.0
98, 2.9206349206349205, -1.971916971916972, 0.442002442002442, -0.09375, 0.3125, 1.1875, 1.0
99, 6.1330891330891335, -2.2844932844932844, 0.5958485958485958, 0.0625, -0.40625, 0.84375, 1.0
100, 2.6275946275946276, -1.8754578754578755, -1.0976800976800978, -0.09375, 0.03125, 0.5, 1.0
101, 1.6923076923076923, -0.873015873015873, -0.36996336996337, -0.28125, 0.6875, 0.53125, 1.0
102, 4.291819291819292, -0.6678876678876678, 1.2478632478632479, -0.25, -0.03125, 0.25, 1.0
103, 1.811965811965812, -0.3540903540903541, 0.1575091575091575, 0.0625, 0.0, 0.25, 1.0
104, 0.652014652014652, -0.3089133089133089, -0.8192918192918193, 0.0, 0.65625, 0.34375, 1.0
105, 1.5775335775335775, -0.5323565323565324, 0.003663003663003663, -0.1875, 0.1875, 0.15625, 1.0
106, 0.39316239316239315, -0.42735042735042733, 0.11721611721611722, -0.21875, -0.25, 0.0, 1.0
107, -0.757020757020757, 0.2625152625152625, 0.2796092796092796, -0.125, 0.0, -0.0625, 1.0
108, -0.045177045177045176, -0.18681318681318682, 0.24786324786324787, 0.0, 0.0625, -0.15625, 1.0
109, -0.01221001221001221, 0.22954822954822954, 0.6190476190476191, 0.0, -0.21875, -0.28125, 1.0
110, -1.691086691086691, 0.0, 0.29426129426129427, 0.25, -0.40625, -0.1875, 1.0
111, -1.2356532356532357, 0.12332112332112333, 0.42857142857142855, 0.34375, -0.0625, 0.09375, 1.0
112, 0.3882783882783883, -0.9181929181929182, 0.35653235653235654, 0.46875, 0.0, 0.21875, 1.0
113, 1.3052503052503053, -1.9316239316239316, -0.32844932844932845, 0.15625, 0.0, 0.03125, 1.0
114, 1.6446886446886446, -1.474969474969475, -0.5323565323565324, -0.40625, -0.09375, -0.21875, 0.0
115, 1.9975579975579976, -1.0952380952380953, -0.19658119658119658, -0.65625, -0.34375, -0.46875, 0.0
116, 1.5531135531135531, -1.4981684981684982, -0.4700854700854701, -0.4375, -0.40625, -0.71875, 0.0
117, 0.11355311355311355, -1.0647130647130647, -1.2356532356532357, -0.1875, 0.125, -0.9375, 0.0
118, 0.6495726495726496, -1.105006105006105, -1.3137973137973138, 0.03125, 0.78125, -0.90625, 0.0
119, 1.4334554334554335, -1.3968253968253967, -1.133089133089133, 0.03125, 0.65625, -0.8125, 0.0
120, 1.5677655677655677, -1.9413919413919414, -0.8168498168498168, 0.0, 0.28125, -0.78125, 0.0
121, 1.3308913308913308, -1.7887667887667889, -0.3235653235653236, -0.1875, 0.1875, -1.0, 0.0
122, 1.2991452991452992, -1.684981684981685, -0.43101343101343104, -0.3125, 0.21875, -1.15625, 0.0
123, 1.938949938949939, -2.47008547008547, -0.7826617826617827, -0.375, -0.09375, -1.25, 0.0
124, 0.6691086691086691, -2.750915750915751, -1.3308913308913308, -0.40625, -0.40625, -1.3125, 0.0
125, -0.6568986568986569, -2.318681318681319, -1.4493284493284493, -0.28125, 0.0, -1.21875, 0.0
126, 0.6837606837606838, -2.214896214896215, -0.5457875457875457, -0.25, 0.4375, -1.09375, 0.0
127, 0.9548229548229549, -3.0366300366300365, -0.009768009768009768, -0.5, 0.28125, -1.46875, 0.0
128, 0.01221001221001221, -3.4786324786324787, 0.5787545787545788, -0.6875, 0.03125, -1.6875, 0.0
129, -1.5262515262515262, -2.4346764346764345, 0.9255189255189256, -0.6875, 0.3125, -1.78125, 0.0
130, -1.2148962148962148, -1.7667887667887667, 1.1697191697191698, -0.40625, 0.5, -1.6875, 0.0
131, -0.5238095238095238, -2.586080586080586, 1.1843711843711844, -0.3125, 0.5, -1.65625, 0.0
132, -0.6117216117216118, -3.1196581196581197, 1.52014652014652, -0.375, 0.40625, -1.71875, 0.0
133, -1.6275946275946276, -2.717948717948718, 1.5763125763125763, -0.21875, 0.65625, -1.9375, 0.0
134, -2.1623931623931623, -2.131868131868132, 1.4346764346764347, 0.0625, 0.9375, -2.125, 0.0
135, -1.0134310134310134, -2.41025641025641, 1.2564102564102564, 0.3125, 0.78125, -2.25, 0.0
136, -0.652014652014652, -2.8363858363858365, 0.9499389499389499, 0.34375, 0.5, -2.34375, 0.0
137, -1.862026862026862, -2.231990231990232, 0.9413919413919414, 0.25, 0.65625, -2.15625, 0.0
138, -0.7777777777777778, -3.3089133089133087, 0.49572649572649574, 0.09375, 0.6875, -2.1875, 0.0
139, 1.6153846153846154, -4.898656898656899, 0.3711843711843712, -0.1875, 0.0, -2.4375, 0.0
140, -1.4725274725274726, -3.0244200244200243, -0.24053724053724054, 0.3125, 0.0625, -2.9375, 0.0
141, -6.65934065934066, 0.6178266178266179, -0.12942612942612944, 1.1875, 1.625, -3.0625, 0.0
142, -6.91941391941392, 1.2747252747252746, 0.57997557997558, 1.5625, 2.625, -2.4375, 0.0
143, -3.3150183150183152, -0.7875457875457875, 0.49206349206349204, 1.0625, 1.8125, -2.15625, 0.0
144, -2.115995115995116, -1.8327228327228327, 0.20146520146520147, 0.75, 0.5, -2.1875, 0.0
145, -2.1514041514041513, -1.6385836385836385, -0.851037851037851, 0.96875, 0.0, -2.25, 0.0
146, -3.7032967032967035, -0.503052503052503, -1.9072039072039073, 1.375, 0.5, -2.4375, 0.0
147, -3.935286935286935, -1.424908424908425, -3.7313797313797314, 1.4375, 1.21875, -2.53125, 0.0
148, -2.642246642246642, -2.641025641025641, -3.68009768009768, 0.9375, 1.28125, -2.5, 0.0
149, -1.452991452991453, -2.7716727716727716, -2.5641025641025643, 0.375, 0.6875, -2.59375, 0.0
150, -4.013431013431013, -0.6691086691086691, -1.5152625152625152, 0.4375, 0.5, -2.75, 0.0
151, -5.962148962148962, 0.4163614163614164, -1.2087912087912087, 0.6875, 0.875, -2.09375, 0.0
152, -6.021978021978022, 0.0695970695970696, -2.9743589743589745, 0.65625, 0.96875, -1.75, 0.0
153, -5.792429792429792, -0.8144078144078144, -3.7765567765567765, 0.34375, 0.5, -1.28125, 0.0
154, -4.0647130647130645, -0.7423687423687424, -3.0805860805860807, -0.125, 0.28125, -0.90625, 0.0
155, -2.8424908424908426, -0.37484737484737485, -1.2087912087912087, -0.46875, 0.1875, -0.625, 0.0
156, -2.3492063492063493, -0.10622710622710622, 0.14285714285714285, -0.375, 0.46875, -0.625, 0.0
157, -1.5213675213675213, -0.42735042735042733, 0.46642246642246643, -0.0625, 0.65625, -0.59375, 0.0
158, -1.2735042735042734, -0.7423687423687424, 0.0231990231990232, 0.03125, 0.34375, -0.4375, 0.0
159, -1.9047619047619047, -0.3772893772893773, -0.40415140415140416, 0.0, 0.0, -0.34375, 0.0
160, -1.9230769230769231, 0.19291819291819293, -0.2686202686202686, 0.0, 0.21875, -0.25, 0.0
161, -1.1391941391941391, 0.07326007326007326, -0.12087912087912088, 0.0, 0.40625, -0.0625, 0.0
162, -0.3516483516483517, -0.2869352869352869, -0.5177045177045178, -0.0625, 0.03125, 0.15625, 0.0
163, -0.11233211233211234, -0.35775335775335776, -0.7484737484737485, -0.09375, -0.40625, 0.3125, 0.0
164, -0.1684981684981685, -0.3064713064713065, -0.6361416361416361, -0.0625, -0.3125, 0.34375, 0.0
165, -0.28083028083028083, -0.18803418803418803, -0.5995115995115995, 0.0, 0.15625, 0.3125, 0.0
166, 0.9804639804639804, -0.7142857142857143, 0.06715506715506715, 0.03125, 0.3125, 0.4375, 0.0
167, 0.9743589743589743, -0.9035409035409036, 0.5921855921855922, -0.03125, 0.0625, 0.40625, 0.0
168, -0.3028083028083028, -0.32722832722832723, 0.4517704517704518, 0.03125, 0.09375, 0.1875, 0.0
169, -0.15506715506715507, -0.5421245421245421, 0.06349206349206349, 0.25, 0.3125, 0.25, 0.0
170, 0.4017094017094017, -0.8962148962148963, -0.001221001221001221, 0.375, 0.0625, 0.21875, 0.0
171, -1.2283272283272284, -0.6678876678876678, -0.9133089133089133, 0.4375, -0.03125, 0.0625, 0.0
172, -0.9804639804639804, -0.3199023199023199, -1.2783882783882783, 0.46875, 0.3125, 0.15625, 1.0
173, 0.3247863247863248, -0.10500610500610501, -0.16361416361416362, 0.40625, 0.25, 0.34375, 1.0
174, -0.46153846153846156, 0.5531135531135531, -0.10622710622710622, 0.09375, 0.0, 0.1875, 1.0
175, -0.8192918192918193, -0.724053724053724, -0.9768009768009768, 0.0, 0.21875, 0.34375, 1.0
176, -0.05860805860805861, -0.5311355311355311, -0.8290598290598291, -0.25, 0.25, 0.375, 1.0
177, -0.6544566544566545, -0.2771672771672772, -1.028083028083028, -0.40625, 0.09375, 0.46875, 1.0
178, -1.6007326007326008, 0.28327228327228327, -1.5054945054945055, -0.53125, 0.0, 0.625, 1.0
179, -1.9926739926739927, 0.9145299145299145, -1.2283272283272284, -0.34375, -0.3125, 0.78125, 1.0
180, -2.9536019536019538, 0.23321123321123322, -2.0525030525030523, -0.34375, -0.40625, 0.9375, 1.0
181, -3.0305250305250304, -0.3968253968253968, -3.2954822954822953, -0.65625, -0.34375, 1.125, 1.0
182, -2.374847374847375, -0.17216117216117216, -2.879120879120879, -0.78125, -0.625, 1.375, 1.0
183, -3.6043956043956045, 0.10866910866910867, -2.89010989010989, -0.71875, -0.5, 1.53125, 1.0
184, -4.857142857142857, 0.23809523809523808, -3.1074481074481075, -0.59375, 0.0, 1.75, 1.0
185, -3.888888888888889, -0.6923076923076923, -2.8693528693528694, -0.75, -0.0625, 2.0625, 1.0
186, -1.6007326007326008, -2.299145299145299, -2.5763125763125765, -1.4375, -1.03125, 2.3125, 1.0
187, -1.9474969474969475, -2.4822954822954824, -2.6495726495726495, -1.65625, -1.125, 2.4375, 1.0
188, -1.938949938949939, -1.7484737484737485, -2.0366300366300365, -1.1875, -0.34375, 2.28125, 1.0
189, -1.6398046398046398, -1.6837606837606838, -1.7973137973137974, -0.8125, 0.125, 2.15625, 1.0
190, 0.46642246642246643, -3.0537240537240535, -1.9157509157509158, -1.1875, -0.40625, 2.28125, 1.0
191, 1.4334554334554335, -3.197802197802198, -0.9133089133089133, -1.84375, -1.5625, 2.28125, 1.0
192, -0.8229548229548229, -1.452991452991453, -0.05372405372405373, -1.5, -1.40625, 2.25, 1.0
193, -1.9426129426129426, -0.9877899877899878, 0.43956043956043955, -0.65625, -0.53125, 2.34375, 1.0
194, -1.0463980463980465, -1.5054945054945055, 1.0573870573870574, -0.09375, -0.0625, 2.3125, 1.0
195, 0.4346764346764347, -2.772893772893773, 0.6422466422466423, -0.28125, -0.375, 2.375, 1.0
196, -0.08424908424908426, -3.2954822954822953, -0.2564102564102564, -0.71875, -0.875, 2.34375, 1.0
197, 0.3772893772893773, -3.7142857142857144, 0.007326007326007326, -0.90625, -1.21875, 2.3125, 1.0
198, 0.31013431013431014, -3.399267399267399, 0.6410256410256411, -0.59375, -1.03125, 2.1875, 1.0
199, -0.11721611721611722, -2.971916971916972, 0.5067155067155067, -0.09375, -0.34375, 2.15625, 1.0
200, 0.19413919413919414, -3.7020757020757022, -0.608058608058608, -0.25, 0.03125, 2.09375, 1.0
201, 0.6910866910866911, -3.2454212454212454, -0.23809523809523808, -0.71875, -0.75, 2.03125, 1.0
202, -0.8144078144078144, -2.358974358974359, 0.3724053724053724, -0.59375, -0.59375, 2.09375, 1.0
203, -0.03296703296703297, -2.8815628815628815, 1.177045177045177, -0.1875, -0.21875, 2.25, 1.0
204, 1.2820512820512822, -3.796092796092796, 1.435897435897436, -0.15625, -0.375, 2.21875, 1.0
205, -0.15262515262515264, -3.4481074481074483, 0.9755799755799756, -0.28125, -0.5625, 1.96875, 1.0
206, -0.05372405372405373, -3.457875457875458, 0.43223443223443225, -0.15625, -0.1875, 2.125, 1.0
207, 2.8315018315018317, -4.046398046398046, 0.4017094017094017, 0.03125, 0.0, 2.1875, 1.0
208, 3.255189255189255, -4.615384615384615, -0.8742368742368742, 0.125, -0.3125, 1.875, 1.0
209, 1.42002442002442, -3.5128205128205128, -2.1025641025641026, 0.0, -0.0625, 1.5625, 1.0
210, 2.7216117216117217, -2.9536019536019538, -1.1404151404151404, -0.25, 0.40625, 1.75, 1.0
211, 4.3699633699633695, -2.5946275946275947, 1.0012210012210012, -0.28125, 0.09375, 1.71875, 1.0
212, 3.1135531135531136, -2.5042735042735043, 1.0683760683760684, -0.1875, -0.28125, 1.5, 1.0
213, 1.9975579975579976, -1.47985347985348, 0.7142857142857143, -0.125, -0.0625, 1.28125, 1.0
214, 4.245421245421245, -1.6459096459096458, 0.6715506715506715, -0.03125, 0.09375, 1.21875, 1.0
215, 4.568986568986569, -1.568986568986569, 0.8363858363858364, -0.03125, -0.46875, 0.90625, 1.0
216, 1.9804639804639805, -1.0671550671550671, 0.08302808302808302, 0.0, -0.6875, 0.625, 1.0
217, 1.271062271062271, -0.9230769230769231, 0.05372405372405373, 0.03125, -0.28125, 0.625, 1.0
218, 1.866910866910867, -0.35775335775335776, 0.5103785103785103, 0.03125, 0.0625, 0.6875, 1.0
219, 1.8583638583638584, -0.4175824175824176, -0.07081807081807082, 0.09375, -0.03125, 0.5625, 1.0
220, 1.0012210012210012, -0.3528693528693529, -0.6825396825396826, 0.09375, -0.0625, 0.53125, 1.0
221, 1.9181929181929183, -0.6068376068376068, 0.06105006105006105, 0.1875, 0.0625, 0.46875, 1.0
222, 2.2466422466422467, -0.5714285714285714, -0.10989010989010989, 0.25, -0.03125, 0.25, 1.0
223, 0.8705738705738706, -0.46642246642246643, -1.0622710622710623, 0.0625, -0.03125, 0.09375, 1.0
224, 1.032967032967033, -0.20024420024420025, -0.7350427350427351, 0.0, 0.125, 0.0625, 1.0
225, 1.8510378510378511, -0.5677655677655677, -0.1330891330891331, -0.0625, -0.125, -0.0625, 1.0
226, 2.0671550671550674, -1.236874236874237, 0.08424908424908426, -0.3125, -0.375, -0.25, 1.0
227, 1.7851037851037852, -1.304029304029304, -0.5054945054945055, -0.5625, -0.3125, -0.53125, 0.0
228, 2.0317460317460316, -1.2967032967032968, -0.6373626373626373, -0.65625, -0.25, -0.84375, 0.0
229, 2.241758241758242, -1.728937728937729, -0.8217338217338217, -0.625, -0.25, -1.0625, 0.0
230, 1.9291819291819292, -1.6813186813186813, -0.9548229548229549, -0.40625, -0.0625, -1.25, 0.0
231, 1.750915750915751, -1.901098901098901, -0.9719169719169719, -0.125, 0.34375, -1.40625, 0.0
232, 2.277167277167277, -2.514041514041514, -1.133089133089133, -0.21875, 0.34375, -1.25, 0.0
233, 3.258852258852259, -3.1001221001221, -0.7118437118437119, -0.4375, 0.0, -1.21875, 0.0
234, 3.357753357753358, -4.010989010989011, -0.5018315018315018, -0.5, -0.25, -1.4375, 0.0
235, 1.9462759462759462, -3.5335775335775335, -0.4700854700854701, -0.3125, 0.09375, -1.8125, 0.0
236, 1.380952380952381, -3.501831501831502, -0.3711843711843712, -0.25, 0.46875, -2.09375, 0.0
237, 1.7985347985347986, -4.168498168498169, 0.115995115995116, -0.40625, 0.40625, -2.21875, 0.0
238, 1.3406593406593406, -4.484737484737485, 0.3247863247863248, -0.5625, 0.21875, -2.34375, 0.0
239, -0.10012210012210013, -3.8766788766788767, 0.21123321123321123, -0.59375, 0.34375, -2.53125, 0.0
240, -1.3064713064713065, -3.1452991452991452, 0.442002442002442, -0.53125, 0.5, -2.5625, 0.0
241, -1.540903540903541, -3.305250305250305, 0.9938949938949939, -0.46875, 0.5625, -2.5625, 0.0
242, -1.3907203907203907, -3.6971916971916974, 1.164835164835165, -0.3125, 0.625, -2.625, 0.0
243, -1.5421245421245422, -3.354090354090354, 0.8388278388278388, -0.0625, 0.5625, -2.71875, 0.0
244, -2.58974358974359, -3.31990231990232, -0.29181929181929184, 0.125, 0.90625, -2.6875, 0.0
245, -2.58974358974359, -2.2893772893772892, 0.0757020757020757, 0.3125, 1.0625, -2.84375, 0.0
246, -3.7533577533577533, -1.1941391941391941, 0.19413919413919414, 0.5, 1.09375, -2.875, 0.0
247, -3.2466422466422467, -1.6825396825396826, 0.006105006105006105, 0.53125, 0.71875, -2.6875, 0.0
248, -2.5323565323565322, -2.288156288156288, 0.1391941391941392, 0.3125, 0.25, -2.6875, 0.0
249, -2.669108669108669, -2.0, 0.8620268620268621, 0.25, 0.59375, -2.75, 0.0
250, -2.442002442002442, -2.0268620268620268, 1.619047619047619, 0.53125, 1.0, -2.59375, 0.0
251, -2.5323565323565322, -2.3272283272283274, 0.6581196581196581, 0.875, 1.21875, -2.5625, 0.0
252, -2.7948717948717947, -2.421245421245421, -1.0866910866910866, 1.1875, 1.3125, -2.46875, 0.0
253, -2.8815628815628815, -2.2527472527472527, -2.032967032967033, 1.125, 1.40625, -2.46875, 0.0
254, -3.0903540903540905, -1.9255189255189256, -2.028083028083028, 0.75, 1.53125, -2.375, 0.0
255, -2.57997557997558, -1.9658119658119657, -1.4676434676434675, 0.40625, 1.3125, -2.21875, 0.0
256, -1.7240537240537241, -1.794871794871795, -0.3626373626373626, 0.21875, 0.59375, -2.0, 0.0
257, -4.544566544566544, -1.1904761904761905, -1.037851037851038, 0.34375, 0.25, -2.09375, 0.0
258, -5.865689865689865, -1.3467643467643469, -2.3394383394383396, 0.59375, 0.75, -2.0, 0.0
259, -4.608058608058608, -1.496947496947497, -2.1233211233211233, 0.46875, 1.125, -1.6875, 0.0
260, -3.6153846153846154, -1.4297924297924298, -1.4273504273504274, 0.28125, 0.6875, -1.375, 0.0
261, -3.496947496947497, -1.452991452991453, -1.6056166056166057, 0.34375, 0.15625, -1.1875, 0.0
262, -3.8705738705738706, -1.5811965811965811, -2.5384615384615383, 0.5, -0.03125, -1.0, 0.0
263, -3.815628815628816, -1.6813186813186813, -3.1684981684981683, 0.4375, 0.125, -0.90625, 0.0
264, -3.52991452991453, -0.9487179487179487, -2.2185592185592187, 0.125, 0.375, -0.8125, 0.0
265, -2.7484737484737485, -0.4481074481074481, -1.1172161172161172, 0.0, 0.3125, -0.59375, 0.0
266, -1.6324786324786325, -0.63003663003663, -0.5665445665445665, 0.03125, 0.0625, -0.34375, 0.0
267, -0.9938949938949939, -0.9694749694749695, -0.3772893772893773, 0.0, -0.09375, -0.21875, 0.0
268, -1.8608058608058609, -0.7533577533577533, -1.0671550671550671, -0.03125, -0.03125, -0.34375, 0.0
269, -2.299145299145299, -0.37484737484737485, -1.177045177045177, -0.125, 0.28125, -0.1875, 0.0
270, -1.5103785103785103, -0.08669108669108669, -0.463980463980464, -0.09375, 0.34375, 0.03125, 0.0
271, -0.36385836385836384, -0.6446886446886447, -0.45787545787545786, -0.03125, 0.03125, 0.28125, 0.0
272, -0.10256410256410256, -0.800976800976801, -0.6410256410256411, 0.0, -0.21875, 0.34375, 0.0
273, -0.002442002442002442, -0.1978021978021978, -0.11477411477411477, 0.5, -0.0625, 0.25, 1.0
274, -0.43223443223443225, 0.08791208791208792, 0.4236874236874237, 1.0625, 0.5625, 0.125, 1.0
275, 0.1794871794871795, -0.702075702075702, -0.47496947496947495, 0.84375, 0.46875, 0.3125, 1.0
276, 0.09035409035409035, -0.8034188034188035, -0.5567765567765568, 0.28125, 0.0, 0.34375, 1.0
277, -1.0268620268620268, 0.3321123321123321, -0.15018315018315018, 0.21875, 0.0, 0.40625, 1.0
278, -1.6727716727716728, -0.015873015873015872, -0.78998778998779, 0.03125, 0.25, 0.40625, 1.0
279, -1.2417582417582418, -1.017094017094017, -1.5653235653235653, -0.40625, 0.3125, 0.53125, 1.0
280, -1.3418803418803418, -0.14652014652014653, -1.2478632478632479, -0.375, 0.0625, 0.625, 1.0
281, -1.404151404151404, -0.09401709401709402, -1.4542124542124542, -0.21875, -0.0625, 0.90625, 1.0
282, -1.0512820512820513, -0.5714285714285714, -1.8241758241758241, -0.40625, -0.34375, 1.0, 1.0
283, -2.326007326007326, -0.17338217338217338, -1.6483516483516483, -0.53125, -0.25, 1.0625, 1.0
284, -3.664224664224664, 0.21001221001221002, -1.3003663003663004, -0.5, 0.0625, 1.1875, 1.0
285, -3.3516483516483517, 0.19413919413919414, -1.032967032967033, -0.34375, -0.09375, 1.5, 1.0
286, -3.120879120879121, -0.6715506715506715, -1.3333333333333333, -0.28125, -0.40625, 1.78125, 1.0
287, -2.768009768009768, -1.8717948717948718, -2.4053724053724053, -0.5, -0.21875, 1.96875, 1.0
288, -0.9474969474969475, -2.567765567765568, -2.2612942612942613, -0.84375, -0.3125, 2.0625, 1.0
289, -0.5628815628815629, -2.161172161172161, -1.2466422466422467, -1.0, -0.5, 2.09375, 1.0
290, -1.7435897435897436, -1.656898656898657, -0.800976800976801, -0.84375, -0.25, 2.125, 1.0
291, -1.8437118437118436, -1.6336996336996337, -0.463980463980464, -0.59375, -0.125, 2.25, 1.0
292, -1.3125763125763126, -1.8998778998778998, -0.19047619047619047, -0.65625, -0.3125, 2.40625, 1.0
293, -1.4383394383394383, -1.73992673992674, -0.1562881562881563, -0.65625, -0.3125, 2.4375, 1.0
294, -1.7851037851037852, -1.8363858363858363, -0.5115995115995116, -0.625, -0.1875, 2.5625, 1.0
295, -1.507936507936508, -2.264957264957265, -0.48717948717948717, -0.625, -0.09375, 2.6875, 1.0
296, -0.48473748473748474, -2.442002442002442, 0.26495726495726496, -0.40625, -0.1875, 2.625, 1.0
297, -0.06837606837606838, -3.4505494505494507, -0.27350427350427353, -0.53125, -0.40625, 2.53125, 1.0
298, -0.18681318681318682, -3.84981684981685, -1.592185592185592, -0.84375, -0.3125, 2.34375, 1.0
299, 1.1294261294261294, -3.3162393162393164, -0.9926739926739927, -0.8125, -0.59375, 2.46875, 1.0
300, -0.6568986568986569, -3.029304029304029, -1.1758241758241759, -0.46875, -1.03125, 2.6875, 1.0
301, -0.9536019536019537, -3.763125763125763, -1.393162393162393, -0.28125, -0.5, 2.78125, 1.0
302, 0.27472527472527475, -4.070818070818071, -0.905982905982906, -0.46875, 0.0, 2.6875, 1.0
303, 0.2967032967032967, -3.4493284493284495, 0.33455433455433453, -0.59375, -0.03125, 2.625, 1.0
304, 0.06105006105006105, -3.5274725274725274, 1.2576312576312576, -0.34375, -0.09375, 2.6875, 1.0
305, 0.10012210012210013, -4.05982905982906, 1.021978021978022, -0.25, 0.03125, 2.625, 1.0
306, 0.7081807081807082, -4.457875457875458, 0.7094017094017094, -0.25, 0.1875, 2.53125, 1.0
307, 1.4151404151404152, -4.3418803418803416, 1.1086691086691087, -0.25, 0.03125, 2.46875, 1.0
308, 0.8131868131868132, -3.871794871794872, 0.9401709401709402, -0.09375, -0.15625, 2.375, 1.0
309, 0.7606837606837606, -4.21001221001221, 0.1452991452991453, -0.0625, -0.09375, 2.46875, 1.0
310, 2.133089133089133, -4.608058608058608, 0.20757020757020758, -0.28125, -0.1875, 2.375, 1.0
311, 1.7936507936507937, -3.4053724053724053, 0.8229548229548229, -0.375, -0.34375, 2.09375, 1.0
312, 1.0903540903540903, -3.1404151404151404, 0.2698412698412698, -0.09375, -0.125, 2.125, 1.0
313, 2.9804639804639805, -3.844932844932845, -0.33821733821733824, -0.0625, 0.34375, 2.125, 1.0
314, 5.566544566544566, -3.2063492063492065, 0.6019536019536019, -0.34375, 0.15625, 1.75, 1.0
315, 4.807081807081807, -2.103785103785104, 0.63003663003663, -0.5, -0.5, 1.1875, 1.0
316, 1.8852258852258852, -1.557997557997558, -1.078144078144078, -0.375, -0.53125, 1.0625, 1.0
317, 2.807081807081807, -1.2893772893772895, -0.33821733821733824, -0.1875, 0.3125, 1.28125, 1.0
318, 5.735042735042735, -1.6251526251526252, 0.4163614163614164, -0.28125, 0.375, 1.0, 1.0
319, 4.122100122100122, -0.5628815628815629, -0.08302808302808302, -0.40625, -0.53125, 0.53125, 1.0
320, 2.2454212454212454, -0.5201465201465202, -0.15873015873015872, -0.1875, -0.71875, 0.4375, 1.0
321, 1.962148962148962, -1.253968253968254, -0.5726495726495726, -0.15625, -0.125, 0.4375, 1.0
322, 2.192918192918193, -0.5054945054945055, -0.28205128205128205, -0.34375, 0.21875, 0.34375, 1.0
323, 1.8461538461538463, -0.36874236874236876, 0.03418803418803419, -0.21875, 0.0625, 0.1875, 1.0
324, 0.40415140415140416, -0.07203907203907203, 0.03540903540903541, -0.28125, 0.125, 0.1875, 1.0
325, 0.7228327228327228, 0.01098901098901099, 0.7777777777777778, 0.0, 0.03125, 0.25, 1.0
326, 0.7838827838827839, -0.5262515262515263, 0.21611721611721613, -0.09375, -0.125, 0.15625, 1.0
327, 0.1623931623931624, -0.4542124542124542, -0.5787545787545788, -0.1875, 0.0, 0.09375, 1.0
328, 0.8547008547008547, -0.47741147741147744, -0.2698412698412698, -0.34375, 0.03125, 0.0, 1.0
329, 2.3516483516483517, -0.7435897435897436, 0.10989010989010989, -0.5, -0.5, -0.1875, 0.0
330, 1.2576312576312576, -0.5054945054945055, -0.6166056166056166, -0.40625, -0.65625, -0.40625, 0.0
331, 0.6422466422466423, -0.5409035409035409, -0.9902319902319903, -0.15625, -0.3125, -0.5, 0.0
332, 0.7777777777777778, -1.5445665445665446, -1.3663003663003663, -0.15625, 0.09375, -0.65625, 0.0
333, 1.0598290598290598, -1.568986568986569, -0.8644688644688645, -0.28125, 0.375, -0.90625, 0.0
334, 1.9694749694749696, -1.7875457875457876, 0.2490842490842491, -0.3125, 0.15625, -1.0625, 0.0
335, 1.4395604395604396, -1.540903540903541, 0.5311355311355311, -0.28125, -0.0625, -1.125, 0.0
336, 0.6153846153846154, -1.8925518925518925, -0.6556776556776557, -0.28125, 0.125, -1.125, 0.0
337, 0.8852258852258852, -2.0671550671550674, -1.2112332112332111, -0.40625, 0.46875, -1.03125, 0.0
338, 3.1794871794871793, -3.2954822954822953, -1.2527472527472527, -0.6875, 0.0625, -1.34375, 0.0
339, 3.0537240537240535, -3.757020757020757, -0.9572649572649573, -0.96875, -0.28125, -1.9375, 0.0
340, 1.0402930402930404, -3.31013431013431, -1.0293040293040292, -0.90625, -0.09375, -2.03125, 0.0
341, 0.026862026862026864, -2.8095238095238093, -0.7765567765567766, -0.75, 0.375, -1.9375, 0.0
342, 0.33455433455433453, -2.1880341880341883, -0.21611721611721613, -0.625, 0.59375, -1.90625, 0.0
343, 0.778998778998779, -2.573870573870574, 0.34798534798534797, -0.5625, 0.4375, -1.9375, 0.0
344, -0.17582417582417584, -2.6166056166056166, 0.39194139194139194, -0.5, 0.46875, -2.0625, 0.0
345, -0.8473748473748474, -2.47985347985348, 0.4358974358974359, -0.375, 0.6875, -2.0625, 0.0
346, -0.3199023199023199, -3.083028083028083, 0.3076923076923077, -0.09375, 0.65625, -2.125, 0.0
347, -0.02564102564102564, -3.6996336996337, 0.9938949938949939, -0.125, 0.1875, -2.1875, 0.0
348, -1.8424908424908424, -2.3028083028083026, 1.1489621489621489, -0.03125, 0.25, -2.40625, 0.0
349, -1.7338217338217339, -2.120879120879121, 0.9377289377289377, 0.28125, 0.78125, -2.53125, 0.0
350, -1.4993894993894994, -2.67032967032967, 0.5506715506715507, 0.71875, 0.8125, -2.53125, 0.0
351, -1.4029304029304028, -3.1452991452991452, 0.3418803418803419, 0.71875, 0.53125, -2.5625, 0.0
352, -2.5995115995115996, -2.5384615384615383, 0.17826617826617827, 0.5, 0.21875, -2.71875, 0.0
353, -4.844932844932845, -1.8107448107448108, -0.15384615384615385, 0.375, 0.34375, -2.8125, 0.0
354, -3.7435897435897436, -1.2503052503052503, 0.5042735042735043, 0.53125, 1.1875, -2.6875, 0.0
355, -2.0366300366300365, -1.8534798534798536, 1.0085470085470085, 0.71875, 1.46875, -2.4375, 0.0
356, -0.6141636141636142, -2.724053724053724, 0.5836385836385837, 0.8125, 1.125, -2.3125, 0.0
357, -1.1367521367521367, -2.716727716727717, 0.19047619047619047, 0.6875, 0.53125, -2.40625, 0.0
358, -2.111111111111111, -2.2747252747252746, 0.42124542124542125, 0.46875, 0.40625, -2.6875, 0.0
359, -4.278388278388278, -1.525030525030525, 0.15873015873015872, 0.375, 0.8125, -3.0, 0.0
360, -5.029304029304029, -1.3516483516483517, -0.31868131868131866, 0.6875, 1.28125, -2.75, 0.0
361, -3.2283272283272284, -2.3272283272283274, -0.7277167277167277, 0.875, 1.09375, -2.25, 0.0
362, -1.9523809523809523, -2.6776556776556775, -0.9267399267399268, 0.6875, 0.375, -2.0625, 0.0
363, -3.148962148962149, -2.3833943833943834, -1.5763125763125763, 0.46875, 0.0, -2.125, 0.0
364, -4.791208791208791, -2.039072039072039, -2.2967032967032965, 0.46875, 0.40625, -2.25, 0.0
365, -4.52991452991453, -1.5677655677655677, -1.8168498168498168, 0.53125, 0.75, -2.0625, 0.0
366, -4.778998778998779, -1.2454212454212454, -1.5848595848595848, 0.5625, 0.6875, -1.8125, 0.0
367, -4.315018315018315, -1.3125763125763126, -1.7985347985347986, 0.5625, 0.625, -1.5625, 0.0
368, -3.554334554334554, -1.4725274725274726, -1.7826617826617828, 0.40625, 0.5, -1.375, 0.0
369, -3.304029304029304, -1.017094017094017, -1.3626373626373627, 0.21875, 0.34375, -1.28125, 0.0
370, -3.595848595848596, -0.5128205128205128, -0.818070818070818, 0.21875, 0.25, -1.09375, 0.0
371, -4.097680097680097, -0.3516483516483517, -1.1758241758241759, 0.40625, 0.1875, -0.71875, 0.0
372, -3.6507936507936507, -1.021978021978022, -2.2918192918192917, 0.28125, 0.0, -0.40625, 0.0
373, -2.954822954822955, -1.1196581196581197, -2.727716727716728, -0.03125, 0.0, -0.28125, 0.0
374, -2.5811965811965814, -0.5653235653235653, -2.155067155067155, -0.1875, 0.125, -0.15625, 0.0
375, -1.7960927960927962, -0.30158730158730157, -1.1562881562881564, -0.0625, 0.21875, 0.0, 0.0
376, -0.6495726495726496, -0.7106227106227107, -0.9621489621489622, -0.0625, 0.0, 0.15625, 0.0
377, -0.5567765567765568, -0.9694749694749695, -1.1538461538461537, -0.1875, -0.15625, 0.25, 0.0
378, -1.1746031746031746, -0.7521367521367521, -1.0903540903540903, -0.34375, 0.09375, 0.1875, 0.0
379, -0.9084249084249084, -0.5225885225885226, -0.5616605616605617, -0.25, 0.3125, 0.21875, 0.0
380, -0.49572649572649574, -0.2039072039072039, 0.11477411477411477, -0.1875, 0.03125, 0.375, 0.0
381, -0.8400488400488401, -0.12332112332112333, 0.315018315018315, -0.03125, -0.21875, 0.4375, 0.0
382, -1.7094017094017093, -0.19413919413919414, -0.1855921855921856, 0.0, -0.0625, 0.46875, 1.0
383, -2.131868131868132, -0.231990231990232, -0.6678876678876678, -0.09375, 0.3125, 0.625, 1.0
384, -1.010989010989011, -0.18681318681318682, -0.10500610500610501, -0.09375, 0.1875, 0.84375, 1.0
385, -0.7423687423687424, 0.19536019536019536, 0.4261294261294261, 0.09375, -0.21875, 1.0, 1.0
386, -1.3186813186813187, -0.37484737484737485, -0.33821733821733824, 0.34375, -0.21875, 1.15625, 1.0
387, -1.1477411477411477, -1.0708180708180708, -1.0671550671550671, 0.375, -0.15625, 1.28125, 1.0
388, -1.8766788766788767, -1.5763125763125763, -2.385836385836386, -0.09375, 0.0625, 1.21875, 1.0
389, -1.8742368742368742, -1.7851037851037852, -3.0256410256410255, -0.78125, 0.0625, 1.3125, 1.0
390, -2.155067155067155, -1.0525030525030525, -2.241758241758242, -1.03125, -0.34375, 1.4375, 1.0
391, -3.202686202686203, -0.6532356532356532, -1.5360195360195361, -0.90625, -0.4375, 1.75, 1.0
392, -2.724053724053724, -1.3174603174603174, -1.3125763125763126, -0.78125, -0.25, 1.96875, 1.0
393, -1.9413919413919414, -2.172161172161172, -1.5848595848595848, -0.8125, -0.0625, 2.03125, 1.0
394, -1.0463980463980465, -2.47008547008547, -1.5262515262515262, -0.96875, -0.09375, 2.09375, 1.0
395, -0.3626373626373626, -2.010989010989011, -0.4932844932844933, -0.875, -0.59375, 2.25, 1.0
396, -1.0451770451770452, -2.431013431013431, -0.757020757020757, -0.5625, -0.3125, 2.375, 1.0
397, -0.24297924297924298, -2.7606837606837606, -1.4639804639804639, -0.40625, 0.0, 2.40625, 1.0
398, 0.42735042735042733, -2.802197802197802, -1.3443223443223444, -0.46875, 0.09375, 2.34375, 1.0
399, 0.7887667887667887, -2.374847374847375, -0.6398046398046398, -0.75, -0.1875, 2.28125, 1.0
400, -0.21978021978021978, -1.7448107448107448, -0.5848595848595849, -0.71875, -0.4375, 2.21875, 1.0
401, -0.7484737484737485, -2.2002442002442004, -1.0476190476190477, -0.5, -0.375, 2.28125, 1.0
402, -0.04884004884004884, -2.7814407814407813, -0.7863247863247863, -0.625, -0.3125, 2.25, 1.0
403, -0.2039072039072039, -2.3492063492063493, -0.07326007326007326, -1.0, -0.5, 2.0625, 1.0
404, -0.9267399267399268, -1.7142857142857142, 0.5897435897435898, -1.0, -0.59375, 1.96875, 1.0
405, -0.4725274725274725, -2.562881562881563, 0.2026862026862027, -0.6875, -0.3125, 2.1875, 1.0
406, 0.8095238095238095, -3.0525030525030523, 0.3724053724053724, -0.53125, 0.03125, 2.3125, 1.0
407, 1.8205128205128205, -3.3882783882783882, 0.525030525030525, -0.5625, -0.15625, 2.28125, 1.0
408, 0.7728937728937729, -2.7362637362637363, 0.39194139194139194, -0.5625, -0.53125, 2.15625, 1.0
409, 0.054945054945054944, -2.2014652014652016, 0.57997557997558, -0.5, -0.375, 2.125, 1.0
410, -0.031746031746031744, -2.1758241758241756, 0.8864468864468864, -0.25, -0.375, 2.1875, 1.0
411, 0.04884004884004884, -2.8693528693528694, 0.8021978021978022, 0.0, -0.40625, 2.34375, 1.0
412, 0.40293040293040294, -3.039072039072039, 0.5787545787545788, -0.03125, -0.375, 2.3125, 1.0
413, 0.3907203907203907, -2.7716727716727716, 0.884004884004884, -0.09375, -0.125, 2.15625, 1.0
414, 0.746031746031746, -2.7106227106227108, 0.9401709401709402, 0.0, -0.0625, 2.15625, 1.0
415, 0.41025641025641024, -2.960927960927961, 0.409035409035409, 0.15625, -0.21875, 2.28125, 1.0
416, 1.1733821733821734, -3.5054945054945055, -0.19413919413919414, 0.09375, 0.0, 2.21875, 1.0
417, 2.9023199023199022, -2.8925518925518925, 0.8522588522588522, -0.09375, 0.125, 2.0, 1.0
418, 3.7533577533577533, -2.6031746031746033, 1.4603174603174602, -0.03125, -0.375, 1.75, 1.0
419, 1.5506715506715507, -2.358974358974359, -0.14285714285714285, 0.28125, -0.875, 1.71875, 1.0
420, 1.253968253968254, -2.32967032967033, -1.540903540903541, 0.1875, 0.0625, 1.75, 1.0
421, 3.9365079365079363, -2.3956043956043955, -0.9951159951159951, 0.0, 0.1875, 1.46875, 1.0
422, 4.750915750915751, -1.722832722832723, -0.3162393162393162, -0.0625, -0.21875, 1.0625, 1.0
423, 2.855921855921856, -1.0573870573870574, -0.6263736263736264, 0.0, -0.0625, 0.90625, 1.0
424, 3.2234432234432235, -1.164835164835165, -0.5543345543345544, -0.09375, 0.125, 0.78125, 1.0
425, 3.0305250305250304, -1.3345543345543345, -0.6471306471306472, -0.34375, 0.21875, 0.46875, 1.0
426, 2.5042735042735043, -0.19658119658119658, 0.2893772893772894, -0.34375, 0.1875, 0.375, 1.0
427, 2.3565323565323566, 0.27350427350427353, 1.1465201465201464, -0.09375, -0.125, 0.3125, 1.0
428, 1.2564102564102564, -0.27106227106227104, 0.13064713064713065, -0.125, -0.375, 0.28125, 1.0
429, 0.08547008547008547, 0.003663003663003663, -0.45054945054945056, -0.1875, -0.09375, 0.25, 1.0
430, 0.06593406593406594, -0.002442002442002442, -0.17704517704517705, -0.0625, 0.34375, 0.28125, 1.0
431, 1.0146520146520146, -0.19658119658119658, -0.10989010989010989, -0.09375, 0.53125, 0.21875, 1.0
432, 1.9047619047619047, -0.3333333333333333, 0.37362637362637363, -0.09375, 0.15625, 0.03125, 1.0
433, 1.3650793650793651, -0.2967032967032967, 0.3772893772893773, -0.125, -0.09375, -0.09375, 1.0
434, 1.264957264957265, -0.7277167277167277, 0.27472527472527475, -0.25, -0.125, -0.1875, 0.0
435, 1.5067155067155067, -1.054945054945055, -0.1452991452991453, -0.5, -0.09375, -0.375, 0.0
436, 1.2735042735042734, -1.1343101343101343, -0.4932844932844933, -0.625, 0.0, -0.5625, 0.0
437, 1.1367521367521367, -1.1343101343101343, -0.16361416361416362, -0.6875, 0.0625, -0.65625, 0.0
438, 1.2564102564102564, -0.5225885225885226, 0.31135531135531136, -0.46875, 0.0, -0.78125, 0.0
439, 1.5873015873015872, -1.1343101343101343, 0.2771672771672772, -0.1875, 0.0, -0.875, 0.0
440, 1.5836385836385836, -1.8937728937728937, -0.1746031746031746, -0.125, 0.0625, -0.9375, 0.0
441, 1.6874236874236874, -1.971916971916972, -0.5152625152625152, -0.09375, 0.21875, -0.875, 0.0
442, 2.47985347985348, -2.509157509157509, -0.5128205128205128, -0.21875, 0.21875, -1.34375, 0.0
443, 2.6373626373626373, -2.6727716727716726, -0.5677655677655677, -0.34375, 0.0, -1.71875, 0.0
444, 0.7094017094017094, -2.3272283272283274, -1.0683760683760684, -0.3125, 0.03125, -1.75, 0.0
445, -0.01221001221001221, -1.8156288156288156, -0.7997557997557998, -0.34375, 0.21875, -1.53125, 0.0
446, -0.10256410256410256, -2.1514041514041513, -0.536019536019536, -0.4375, 0.15625, -1.5, 0.0
447, -0.5970695970695971, -1.6837606837606838, -0.12698412698412698, -0.46875, 0.21875, -1.5625, 0.0
448, -0.7924297924297924, -1.7997557997557998, -0.2490842490842491, -0.21875, 0.21875, -1.625, 0.0
449, 0.03418803418803419, -2.4871794871794872, -0.1452991452991453, 0.0, 0.09375, -1.59375, 0.0
450, 0.6153846153846154, -2.9694749694749696, 0.32844932844932845, -0.0625, -0.09375, -1.84375, 0.0
451, -0.5421245421245421, -2.114774114774115, 0.590964590964591, -0.15625, 0.0, -2.21875, 0.0
452, -1.1257631257631258, -2.0952380952380953, 0.5225885225885226, -0.03125, 0.28125, -2.40625, 0.0
453, -2.111111111111111, -1.706959706959707, 0.1623931623931624, 0.09375, 0.375, -2.375, 0.0
454, -2.7838827838827838, -1.474969474969475, 0.08424908424908426, 0.21875, 0.40625, -2.3125, 0.0
455, -2.352869352869353, -1.514041514041514, 0.7912087912087912, 0.21875, 0.28125, -2.03125, 0.0
456, -2.481074481074481, -1.9291819291819292, 0.35775335775335776, 0.28125, 0.53125, -2.09375, 0.0
457, -2.559218559218559, -2.1868131868131866, 0.007326007326007326, 0.34375, 0.75, -2.1875, 0.0
458, -3.21001221001221, -1.89010989010989, 0.1343101343101343, 0.375, 0.71875, -2.21875, 0.0
459, -3.3150183150183152, -1.2637362637362637, 0.7814407814407814, 0.3125, 0.6875, -2.0625, 0.0
460, -2.663003663003663, -1.2344322344322345, 1.0866910866910866, 0.3125, 0.5, -1.90625, 0.0
461, -2.1074481074481075, -1.9181929181929183, 0.9328449328449329, 0.40625, 0.1875, -1.8125, 0.0
462, -2.0244200244200243, -1.6507936507936507, 0.7106227106227107, 0.5, 0.125, -1.875, 0.0
463, -2.9157509157509156, -1.0158730158730158, -0.08302808302808302, 0.5, 0.375, -2.0625, 0.0
464, -4.062271062271062, -0.5457875457875457, -0.5543345543345544, 0.5, 0.84375, -2.1875, 0.0
465, -2.324786324786325, -1.387057387057387, -0.22344322344322345, 0.46875, 1.125, -1.8125, 0.0
466, -1.2551892551892552, -1.956043956043956, 0.2087912087912088, 0.375, 0.65625, -1.53125, 0.0
467, -2.404151404151404, -1.7094017094017093, -0.26373626373626374, 0.3125, 0.28125, -1.5625, 0.0
468, -2.9462759462759465, -1.264957264957265, -0.7594627594627594, 0.46875, 0.75, -1.5625, 0.0
469, -2.559218559218559, -0.9511599511599511, -0.4017094017094017, 0.4375, 1.125, -1.5625, 0.0
470, -2.473748473748474, -1.2356532356532357, -0.3882783882783883, 0.5, 0.9375, -1.5, 0.0
471, -2.5518925518925517, -1.6263736263736264, -1.0122100122100122, 0.6875, 0.46875, -1.34375, 0.0
472, -2.3968253968253967, -1.7313797313797314, -1.4627594627594627, 0.71875, 0.25, -1.375, 0.0
473, -3.0183150183150182, -0.9938949938949939, -1.4212454212454213, 0.5625, 0.5625, -1.46875, 0.0
474, -3.687423687423687, -0.2893772893772894, -1.2954822954822955, 0.5, 0.78125, -1.40625, 0.0
475, -3.275946275946276, -0.398046398046398, -1.5189255189255189, 0.4375, 0.5, -1.15625, 0.0
476, -2.8253968253968256, -0.2564102564102564, -1.2881562881562882, 0.34375, 0.0, -0.90625, 0.0
477, -3.52014652014652, -0.09523809523809523, -1.3467643467643469, 0.28125, -0.09375, -0.75, 0.0
478, -3.687423687423687, -0.2026862026862027, -1.9157509157509158, 0.3125, 0.0, -0.46875, 0.0
479, -2.816849816849817, -0.33821733821733824, -1.8388278388278387, 0.15625, 0.0, -0.28125, 0.0
480, -2.137973137973138, -0.26373626373626374, -1.3345543345543345, 0.0, -0.03125, -0.15625, 0.0
481, -2.062271062271062, -0.27472527472527475, -1.2637362637362637, -0.03125, -0.03125, 0.0, 0.0
482, -1.1416361416361416, -0.6373626373626373, -1.1013431013431014, 0.0, 0.0, 0.125, 0.0
483, -0.18192918192918192, -0.8925518925518926, -1.0097680097680097, -0.0625, 0.0, 0.1875, 0.0
484, 0.32722832722832723, -0.8888888888888888, -0.7387057387057387, -0.1875, 0.0, 0.125, 0.0
485, 0.3504273504273504, -0.5970695970695971, -0.31013431013431014, -0.15625, 0.09375, 0.09375, 0.0
486, 0.23443223443223443, -0.2600732600732601, 0.2967032967032967, 0.0, 0.09375, 0.09375, 0.0
487, 0.30158730158730157, -0.5628815628815629, 0.23565323565323565, 0.1875, 0.0, 0.0625, 0.0
488, -0.05982905982905983, -0.7521367521367521, -0.6239316239316239, 0.21875, -0.03125, -0.0625, 1.0
489, -0.7997557997557998, -0.21123321123321123, -0.6544566544566545, 0.21875, 0.1875, -0.0625, 1.0
490, -0.7423687423687424, 0.07936507936507936, -0.5177045177045178, 0.28125, 0.28125, 0.0, 1.0
491, -1.0244200244200243, 0.38095238095238093, -0.9597069597069597, 0.03125, 0.34375, 0.125, 1.0
492, -0.9706959706959707, -0.1575091575091575, -1.2991452991452992, -0.4375, 0.15625, 0.28125, 1.0
493, -1.8437118437118436, 0.03907203907203907, -0.8217338217338217, -0.6875, -0.0625, 0.25, 1.0
494, -2.3015873015873014, 0.14652014652014653, -1.1684981684981686, -0.625, 0.03125, 0.46875, 1.0
495, -2.8046398046398044, -0.09035409035409035, -1.4090354090354091, -0.8125, 0.15625, 0.65625, 1.0
496, -2.7191697191697193, 0.0695970695970696, -0.8913308913308914, -0.96875, 0.09375, 0.90625, 1.0
497, -2.9401709401709404, 0.4358974358974359, 0.26373626373626374, -0.75, -0.21875, 1.1875, 1.0
498, -3.4346764346764345, 0.04395604395604396, 0.4139194139194139, -0.40625, -0.25, 1.53125, 1.0
499, -3.061050061050061, -0.3956043956043956, 0.8559218559218559, -0.0625, 0.03125, 1.75, 1.0
500, -1.9902319902319903, -1.2673992673992673, 0.9560439560439561, 0.125, 0.125, 1.90625, 1.0
501, -1.3125763125763126, -1.3101343101343101, 1.0634920634920635, -0.09375, -0.125, 2.03125, 1.0
502, -2.3455433455433456, -1.3785103785103785, 0.2271062271062271, -0.1875, -0.4375, 2.125, 1.0
503, -2.255189255189255, -2.086691086691087, -1.2222222222222223, 0.0, -0.25, 2.25, 1.0
504, -0.8815628815628815, -2.457875457875458, -1.2393162393162394, 0.0, 0.125, 2.15625, 1.0
505, -0.08058608058608059, -2.4334554334554332, -1.133089133089133, -0.21875, 0.09375, 2.1875, 1.0
506, -1.0024420024420024, -1.7985347985347986, -1.4822954822954824, -0.40625, 0.0, 2.03125, 1.0
507, -1.061050061050061, -1.465201465201465, -1.4786324786324787, -0.46875, 0.0625, 2.0625, 1.0
508, -1.1611721611721613, -1.2857142857142858, -0.8278388278388278, -0.4375, -0.15625, 2.15625, 1.0
509, -1.6971916971916972, -1.7252747252747254, -0.746031746031746, -0.5, -0.40625, 2.1875, 1.0
510, -1.3675213675213675, -2.012210012210012, -0.7252747252747253, -0.71875, -0.25, 2.25, 1.0
511, -0.514041514041514, -1.927960927960928, -0.31868131868131866, -0.71875, -0.28125, 2.21875, 1.0
512, -0.4810744810744811, -2.311355311355311, -0.4163614163614164, -0.4375, -0.53125, 2.34375, 1.0
513, -0.13064713064713065, -3.2185592185592187, -0.9706959706959707, -0.3125, -0.59375, 2.46875, 1.0
514, -0.525030525030525, -3.2063492063492065, -1.6263736263736264, -0.46875, -0.46875, 2.40625, 1.0
515, -0.31135531135531136, -2.938949938949939, -1.0207570207570207, -0.5, -0.1875, 2.34375, 1.0
516, 0.0757020757020757, -3.2454212454212454, -0.5738705738705738, -0.1875, -0.125, 2.3125, 1.0
517, 0.7765567765567766, -4.122100122100122, -0.4590964590964591, -0.25, 0.0, 2.40625, 1.0
518, 1.800976800976801, -4.496947496947497, -0.48717948717948717, -0.5625, 0.0, 2.25, 1.0
519, 1.9194139194139195, -3.971916971916972, -0.04884004884004884, -0.625, -0.09375, 2.0625, 1.0
520, 1.7191697191697193, -3.559218559218559, 0.4358974358974359, -0.40625, -0.1875, 2.09375, 1.0
521, 1.5274725274725274, -3.2405372405372406, 0.7118437118437119, -0.15625, -0.03125, 2.0625, 1.0
522, 0.8461538461538461, -3.474969474969475, 0.07814407814407814, -0.21875, 0.375, 1.96875, 1.0
523, 1.2478632478632479, -3.608058608058608, 0.0, -0.4375, 0.5, 1.90625, 1.0
524, 2.63003663003663, -3.0842490842490844, 0.9035409035409036, -0.46875, 0.0, 1.9375, 1.0
525, 3.0964590964590966, -2.8376068376068377, 1.5506715506715507, -0.1875, -0.375, 1.8125, 1.0
526, 2.177045177045177, -2.78998778998779, 0.3516483516483517, -0.15625, -0.0625, 1.625, 1.0
527, 1.667887667887668, -2.536019536019536, -0.7484737484737485, -0.3125, 0.5, 1.53125, 1.0
528, 3.1587301587301586, -2.4346764346764345, -0.32722832722832723, -0.46875, 0.46875, 1.40625, 1.0
529, 3.6507936507936507, -1.5848595848595848, 0.9755799755799756, -0.40625, -0.03125, 1.21875, 1.0
530, 2.688644688644689, -1.1245421245421245, 1.387057387057387, -0.21875, -0.15625, 1.09375, 1.0
531, 2.0915750915750917, -1.242979242979243, 0.8815628815628815, -0.15625, -0.125, 0.90625, 1.0
532, 2.034188034188034, -0.9572649572649573, 0.7838827838827839, -0.1875, -0.09375, 0.8125, 1.0
533, 2.1233211233211233, -0.6214896214896215, 0.652014652014652, -0.0625, -0.125, 0.75, 1.0
534, 1.3943833943833943, -0.4188034188034188, 0.16483516483516483, 0.0, 0.125, 0.6875, 1.0
535, 1.8253968253968254, -0.5054945054945055, 0.27228327228327226, 0.0, 0.1875, 0.59375, 1.0
536, 1.8046398046398047, -0.6483516483516484, 0.045177045177045176, -0.125, 0.0, 0.375, 1.0
537, 0.938949938949939, -0.0927960927960928, -0.14774114774114774, -0.125, 0.0, 0.34375, 1.0
538, 0.9120879120879121, -0.16483516483516483, 0.006105006105006105, 0.0, 0.03125, 0.34375, 1.0
539, 0.0, 0.17582417582417584, -0.7838827838827839, 0.0625, 0.375, 0.3125, 1.0
540, 0.5445665445665445, -0.02197802197802198, -0.645909645909646, 0.0, 0.34375, 0.34375, 1.0
541, 1.722832722832723, -0.43833943833943834, 0.07326007326007326, -0.09375, -0.21875, 0.125, 1.0
542, 2.070818070818071, -1.0940170940170941, -0.1343101343101343, -0.25, -0.375, -0.09375, 0.0
543, 1.4566544566544566, -0.6886446886446886, -1.0048840048840049, -0.4375, -0.15625, -0.34375, 0.0
544, 1.9682539682539681, -1.144078144078144, -1.1684981684981686, -0.46875, 0.03125, -0.4375, 0.0
545, 2.391941391941392, -0.9548229548229549, -1.0732600732600732, -0.59375, -0.09375, -0.59375, 0.0
546, 2.0354090354090353, -0.9255189255189256, -0.6910866910866911, -0.34375, -0.0625, -0.71875, 0.0
547, 2.6336996336996337, -1.684981684981685, -0.960927960927961, -0.09375, 0.0, -0.78125, 0.0
548, 3.029304029304029, -2.5286935286935286, -1.6813186813186813, -0.125, 0.03125, -1.03125, 0.0
549, 3.0085470085470085, -3.1684981684981683, -2.1526251526251525, -0.375, 0.15625, -1.15625, 0.0
550, 3.8253968253968256, -3.772893772893773, -0.8608058608058609, -0.5, 0.375, -1.3125, 0.0
551, 4.305250305250305, -3.7191697191697193, 0.5445665445665445, -0.53125, 0.09375, -1.53125, 0.0
552, 2.705738705738706, -3.456654456654457, 0.4627594627594628, -0.3125, -0.5, -1.8125, 0.0
553, 1.4212454212454213, -4.051282051282051, -0.026862026862026864, -0.1875, -0.875, -1.875, 0.0
554, -0.29914529914529914, -3.816849816849817, -0.10866910866910867, -0.34375, -0.78125, -1.96875, 0.0
555, -0.32967032967032966, -3.1636141636141635, -0.050061050061050064, -0.5, 0.15625, -2.125, 0.0
556, 0.6214896214896215, -3.4249084249084247, 0.2686202686202686, -0.34375, 0.53125, -2.28125, 0.0
557, 0.23321123321123322, -3.9365079365079363, 0.14774114774114774, -0.21875, 0.125, -2.40625, 0.0
558, -1.3125763125763126, -3.681318681318681, 0.42735042735042733, -0.40625, -0.25, -2.46875, 0.0
559, -2.971916971916972, -2.542124542124542, 0.8241758241758241, -0.5, -0.1875, -2.5625, 0.0
560, -4.205128205128205, -2.0976800976800978, 0.8034188034188035, -0.25, 0.625, -2.625, 0.0
561, -2.716727716727717, -2.5811965811965814, 1.5726495726495726, 0.0625, 1.1875, -2.4375, 0.0
562, -2.347985347985348, -2.4761904761904763, 1.8632478632478633, 0.3125, 0.9375, -2.5, 0.0
563, -3.0354090354090353, -2.155067155067155, 1.4151404151404152, 0.59375, 0.5, -2.5625, 0.0
564, -3.993894993894994, -1.9084249084249085, 0.3894993894993895, 0.8125, 0.375, -2.5, 0.0
565, -5.540903540903541, -1.844932844932845, -0.63003663003663, 0.78125, 0.5625, -2.53125, 0.0
566, -5.052503052503052, -1.8583638583638584, -0.6056166056166056, 0.59375, 1.40625, -2.03125, 0.0
567, -1.7863247863247864, -1.7582417582417582, 1.1672771672771673, 0.40625, 1.21875, -1.875, 0.0
568, 0.514041514041514, -2.625152625152625, 2.0256410256410255, 0.25, 0.28125, -2.03125, 0.0
569, -2.2844932844932844, -1.9206349206349207, 0.9047619047619048, 0.5, 0.0, -2.21875, 0.0
570, -4.82051282051282, -1.010989010989011, -0.8522588522588522, 0.84375, 0.78125, -2.09375, 0.0
571, -4.481074481074481, -1.2967032967032968, -1.3516483516483517, 0.71875, 1.46875, -1.90625, 0.0
572, -1.6336996336996337, -2.3235653235653237, -0.5775335775335775, 0.375, 1.125, -1.65625, 0.0
573, 0.03418803418803419, -2.7264957264957266, 0.706959706959707, 0.15625, 0.125, -1.8125, 0.0
574, -3.3797313797313797, -1.4432234432234432, -0.1794871794871795, 0.5, 0.0625, -2.03125, 0.0
575, -5.615384615384615, -0.6898656898656899, -1.2661782661782661, 0.90625, 0.84375, -1.8125, 0.0
576, -2.6227106227106227, -1.6495726495726495, -0.9865689865689866, 0.65625, 0.65625, -1.71875, 0.0
577, -2.202686202686203, -1.6336996336996337, -1.2356532356532357, 0.375, -0.15625, -1.6875, 0.0
578, -4.031746031746032, -0.7350427350427351, -2.1953601953601956, 0.53125, -0.21875, -1.46875, 0.0
579, -4.487179487179487, -0.44078144078144077, -2.5873015873015874, 0.5625, 0.0625, -1.3125, 0.0
580, -3.866910866910867, -0.5067155067155067, -2.385836385836386, 0.3125, 0.1875, -1.0625, 0.0
581, -3.3626373626373627, -0.49694749694749696, -1.5714285714285714, 0.09375, 0.125, -0.9375, 0.0
582, -3.8864468864468864, -0.11233211233211234, -1.3858363858363858, 0.125, 0.03125, -0.625, 0.0
583, -3.1575091575091574, -0.4126984126984127, -1.2808302808302807, 0.0625, 0.0, -0.3125, 0.0
584, -1.7179487179487178, -0.6898656898656899, -0.9804639804639804, -0.125, 0.03125, -0.34375, 0.0
585, -1.9865689865689866, 0.001221001221001221, -0.43223443223443225, -0.125, 0.40625, -0.3125, 0.0
586, -1.4676434676434675, -0.27350427350427353, -0.3235653235653236, -0.03125, 0.4375, -0.125, 0.0
587, -0.32234432234432236, -1.0622710622710623, -0.5677655677655677, -0.09375, -0.03125, 0.03125, 0.0
588, -0.47985347985347987, -1.1636141636141637, -0.7362637362637363, -0.1875, -0.125, 0.0, 0.0
589, -1.1794871794871795, -0.9255189255189256, -1.0402930402930404, -0.15625, 0.1875, 0.0, 0.0
590, -0.7435897435897436, -0.9902319902319903, -0.8754578754578755, -0.0625, -0.0625, 0.21875, 0.0
591, -1.6007326007326008, -0.6434676434676435, -1.2148962148962148, 0.0, -0.03125, 0.28125, 0.0
592, -0.6483516483516484, -0.6862026862026862, -1.0354090354090355, -0.15625, 0.28125, 0.375, 0.0
593, -0.5311355311355311, -0.3076923076923077, -0.5592185592185592, -0.3125, 0.15625, 0.46875, 0.0
594, -1.6251526251526252, -0.6031746031746031, -1.3296703296703296, -0.125, 0.0625, 0.375, 1.0
595, -1.7448107448107448, -0.7936507936507936, -1.8058608058608059, 0.125, 0.40625, 0.34375, 1.0
596, -1.2234432234432235, -0.9010989010989011, -2.380952380952381, -0.125, 0.3125, 0.53125, 1.0
597, -1.8852258852258852, -0.7851037851037851, -2.4053724053724053, -0.65625, -0.09375, 0.8125, 1.0
598, -3.0891330891330893, 0.042735042735042736, -1.877899877899878, -0.8125, -0.09375, 1.0, 1.0
599, -2.1941391941391943, -0.7252747252747253, -2.1172161172161172, -0.625, 0.125, 1.28125, 1.0
600, -1.4932844932844933, -1.1611721611721613, -2.4554334554334556, -1.0625, -0.0625, 1.46875, 1.0
601, -2.2246642246642248, -0.652014652014652, -1.916971916971917, -1.46875, -0.28125, 1.5, 1.0
602, -2.6446886446886446, 0.16971916971916973, -0.32112332112332115, -1.28125, 0.0, 1.53125, 1.0
603, -1.7155067155067154, -0.8449328449328449, -0.3431013431013431, -0.65625, 0.15625, 1.6875, 1.0
604, -1.4993894993894994, -1.3846153846153846, -0.978021978021978, -0.59375, 0.0625, 1.8125, 1.0
605, -1.525030525030525, -1.304029304029304, -0.796092796092796, -0.71875, 0.03125, 1.90625, 1.0
606, -1.6385836385836385, -1.4053724053724053, -0.24664224664224665, -0.6875, -0.03125, 2.03125, 1.0
607, -1.8192918192918193, -1.4297924297924298, -0.16605616605616605, -0.65625, 0.0, 2.09375, 1.0
608, -0.45787545787545786, -1.822954822954823, 0.020757020757020756, -0.65625, -0.0625, 2.25, 1.0
609, 0.3663003663003663, -1.94993894993895, 0.34798534798534797, -0.90625, -0.84375, 2.34375, 1.0
610, -1.0256410256410255, -1.3516483516483517, 0.9853479853479854, -0.8125, -1.125, 2.28125, 1.0
611, -1.4029304029304028, -1.778998778998779, 0.7167277167277167, -0.3125, -0.4375, 2.3125, 1.0
612, 0.23687423687423687, -3.311355311355311, -0.07814407814407814, -0.09375, 0.03125, 2.4375, 1.0
613, 2.4835164835164836, -4.284493284493284, -0.2857142857142857, -0.40625, -0.5, 2.53125, 1.0
614, 1.0293040293040292, -3.647130647130647, -0.37362637362637363, -0.71875, -0.90625, 2.25, 1.0
615, 0.1391941391941392, -2.802197802197802, 0.2967032967032967, -0.34375, -0.28125, 2.09375, 1.0
616, 0.6263736263736264, -2.9816849816849818, 0.48473748473748474, -0.1875, -0.09375, 2.15625, 1.0
617, 1.1367521367521367, -3.326007326007326, 0.12087912087912088, -0.3125, -0.34375, 2.21875, 1.0
618, 0.42857142857142855, -3.1477411477411477, 0.12576312576312576, -0.34375, -0.46875, 2.25, 1.0
619, -0.1746031746031746, -3.0805860805860807, 0.4700854700854701, -0.28125, -0.21875, 2.15625, 1.0
620, 0.06715506715506715, -2.9316239316239314, 0.8449328449328449, -0.1875, -0.0625, 2.09375, 1.0
621, -0.221001221001221, -2.7753357753357752, 1.1562881562881564, 0.0625, -0.125, 2.15625, 1.0
622, -0.5921855921855922, -3.47985347985348, 0.6776556776556777, 0.09375, 0.125, 2.375, 1.0
623, 1.3308913308913308, -4.311355311355311, 0.48473748473748474, 0.0, 0.1875, 2.1875, 1.0
624, 2.0720390720390722, -3.8742368742368742, 0.612942612942613, 0.0, 0.0, 2.03125, 1.0
625, 1.4212454212454213, -3.0207570207570207, 0.4884004884004884, 0.21875, 0.125, 2.0, 1.0
626, 1.8376068376068375, -3.227106227106227, 0.047619047619047616, 0.25, 0.15625, 2.0, 1.0
627, 2.5006105006105006, -3.427350427350427, -0.4884004884004884, 0.125, -0.03125, 1.84375, 1.0
628, 2.347985347985348, -3.0476190476190474, -0.8669108669108669, 0.0, 0.0, 1.65625, 1.0
629, 2.385836385836386, -2.583638583638584, -0.6666666666666666, -0.03125, 0.1875, 1.625, 1.0
630, 3.481074481074481, -2.3150183150183152, 0.02442002442002442, 0.03125, 0.03125, 1.5, 1.0
631, 3.275946275946276, -2.2124542124542126, -0.10500610500610501, 0.0625, 0.0, 1.1875, 1.0
632, 3.21978021978022, -1.7264957264957266, -0.29426129426129427, -0.03125, 0.03125, 1.09375, 1.0
633, 4.451770451770452, -1.3553113553113554, 0.19413919413919414, -0.1875, -0.4375, 0.96875, 1.0
634, 3.0366300366300365, -0.8278388278388278, 0.013431013431013432, -0.0625, -0.53125, 0.78125, 1.0
635, 1.818070818070818, -0.6874236874236874, -0.568986568986569, 0.09375, -0.09375, 0.71875, 1.0
636, 2.2051282051282053, -0.6495726495726496, -0.17216117216117216, 0.0625, 0.125, 0.625, 1.0
637, 2.6617826617826617, -0.4468864468864469, 0.1452991452991453, 0.03125, -0.03125, 0.46875, 1.0
638, 1.8962148962148961, -0.5372405372405372, -0.20024420024420025, -0.0625, -0.21875, 0.25, 1.0
639, 0.9572649572649573, -0.4627594627594628, -0.5628815628815629, -0.21875, 0.1875, 0.21875, 1.0
640, 1.2686202686202686, -0.3785103785103785, 0.13797313797313798, -0.25, 0.34375, 0.15625, 1.0
641, 1.4212454212454213, -0.3894993894993895, 0.23321123321123322, -0.28125, 0.21875, 0.0625, 1.0
642, 1.297924297924298, -0.8107448107448108, -0.09645909645909646, -0.34375, -0.0625, 0.0, 1.0
643, 0.4188034188034188, -1.0903540903540903, -0.7912087912087912, -0.625, -0.125, -0.15625, 1.0
644, 0.9536019536019537, -0.6703296703296703, -0.38095238095238093, -0.9375, 0.09375, -0.28125, 0.0
645, 1.6056166056166057, -0.7655677655677655, -0.07326007326007326, -0.90625, 0.0625, -0.4375, 0.0
646, 1.9438339438339438, -1.2246642246642248, -0.1916971916971917, -0.75, -0.03125, -0.59375, 0.0
647, 1.921855921855922, -1.4322344322344323, -0.06349206349206349, -0.5, 0.0, -0.78125, 0.0
648, 1.6654456654456655, -1.7387057387057387, -0.030525030525030524, -0.25, 0.09375, -1.0, 0.0
649, 1.8656898656898657, -1.5323565323565325, 0.0231990231990232, -0.15625, 0.25, -1.25, 0.0
650, 2.214896214896215, -2.2576312576312576, -0.8498168498168498, -0.125, 0.375, -1.4375, 0.0
651, 2.385836385836386, -3.028083028083028, -1.3174603174603174, -0.21875, 0.25, -1.375, 0.0
652, 2.735042735042735, -3.5457875457875456, -0.2673992673992674, -0.375, 0.0625, -1.34375, 0.0
653, 2.669108669108669, -2.7020757020757022, 0.4884004884004884, -0.40625, -0.09375, -1.5625, 0.0
654, 1.916971916971917, -2.6507936507936507, 0.12332112332112333, -0.25, -0.34375, -1.75, 0.0
655, 0.4297924297924298, -3.203907203907204, -0.6654456654456654, -0.125, -0.46875, -1.8125, 0.0
656, 0.22954822954822954, -3.4346764346764345, -0.4078144078144078, -0.28125, -0.125, -1.96875, 0.0
657, -0.23809523809523808, -2.95970695970696, -0.115995115995116, -0.5, 0.125, -2.09375, 0.0
658, -0.6703296703296703, -2.78998778998779, 0.2576312576312576, -0.59375, 0.1875, -2.15625, 0.0
659, -1.1526251526251525, -2.6227106227106227, 0.6703296703296703, -0.46875, 0.15625, -2.3125, 0.0
660, -1.3333333333333333, -2.197802197802198, 1.3736263736263736, -0.34375, 0.21875, -2.34375, 0.0
661, -1.5628815628815629, -1.7985347985347986, 1.6862026862026862, -0.21875, 0.34375, -2.375, 0.0
662, -2.0488400488400487, -1.595848595848596, 0.7802197802197802, 0.0, 0.6875, -2.4375, 0.0
663, -2.2454212454212454, -1.485958485958486, 0.0231990231990232, 0.375, 0.59375, -2.375, 0.0
664, -2.41025641025641, -1.8583638583638584, -0.42735042735042733, 0.34375, 0.4375, -2.34375, 0.0
665, -2.7838827838827838, -1.7936507936507937, -0.5946275946275946, 0.21875, 0.4375, -2.3125, 0.0
666, -3.2967032967032965, -1.3565323565323566, -0.5567765567765568, 0.125, 0.625, -2.28125, 0.0
667, -2.4603174603174605, -1.465201465201465, 0.07692307692307693, 0.09375, 0.6875, -2.125, 0.0
668, -2.0097680097680097, -1.8205128205128205, 0.1575091575091575, 0.125, 0.75, -2.15625, 0.0
669, -3.242979242979243, -1.4725274725274726, -0.20146520146520147, 0.375, 0.8125, -2.03125, 0.0
670, -3.6446886446886446, -1.3186813186813187, -0.47863247863247865, 0.5, 1.0625, -1.78125, 0.0
671, -2.5274725274725274, -1.413919413919414, 0.030525030525030524, 0.375, 1.09375, -1.71875, 0.0
672, -1.2954822954822955, -1.7032967032967032, 0.8583638583638583, 0.34375, 0.90625, -1.78125, 0.0
673, -1.5054945054945055, -1.6642246642246643, 0.8021978021978022, 0.53125, 0.75, -1.8125, 0.0
674, -2.3833943833943834, -1.5494505494505495, 0.015873015873015872, 0.75, 0.71875, -1.78125, 0.0
675, -3.0793650793650795, -1.4603174603174602, -0.9536019536019537, 0.71875, 0.9375, -1.65625, 0.0
676, -2.1684981684981683, -1.6654456654456655, -1.1318681318681318, 0.46875, 0.9375, -1.65625, 0.0
677, -2.06959706959707, -1.4871794871794872, -1.7643467643467643, 0.34375, 0.5625, -1.5, 0.0
678, -1.5213675213675213, -1.3284493284493284, -1.5702075702075702, 0.375, 0.125, -1.28125, 0.0
679, -1.7240537240537241, -0.9218559218559218, -1.1611721611721613, 0.4375, 0.1875, -1.28125, 0.0
680, -2.724053724053724, -0.31013431013431014, -1.089133089133089, 0.59375, 0.6875, -1.25, 0.0
681, -1.9951159951159951, -0.7094017094017094, -1.1965811965811965, 0.5625, 0.96875, -1.1875, 0.0
682, -0.6092796092796092, -1.2405372405372406, -0.9658119658119658, 0.25, 0.53125, -1.09375, 0.0
683, -0.6166056166056166, -1.2283272283272284, -0.4126984126984127, 0.09375, 0.125, -1.15625, 0.0
684, -2.3321123321123323, -0.3724053724053724, -0.5177045177045178, 0.34375, 0.21875, -1.21875, 0.0
685, -3.070818070818071, -0.20757020757020758, -0.9731379731379731, 0.5625, 0.4375, -1.0625, 0.0
686, -2.7643467643467643, -0.4432234432234432, -1.1868131868131868, 0.40625, 0.3125, -0.84375, 0.0
687, -2.236874236874237, -0.4822954822954823, -0.8937728937728938, 0.1875, -0.125, -0.625, 0.0
688, -2.3064713064713063, -0.36385836385836384, -1.0427350427350428, 0.21875, -0.25, -0.4375, 0.0
689, -2.7387057387057387, -0.22954822954822954, -1.231990231990232, 0.3125, -0.0625, -0.375, 0.0
690, -1.8827838827838828, -0.19047619047619047, -1.1782661782661783, 0.21875, 0.21875, -0.21875, 0.0
691, -0.7521367521367521, -0.19291819291819293, -0.5982905982905983, 0.0, 0.15625, -0.0625, 0.0
692, -0.4065934065934066, -0.3894993894993895, -0.6043956043956044, 0.0, -0.125, 0.03125, 0.0
693, -0.4700854700854701, -0.6031746031746031, -1.098901098901099, 0.21875, -0.15625, 0.15625, 0.0
694, 0.3125763125763126, -0.9951159951159951, -1.286935286935287, 0.34375, 0.0, 0.1875, 0.0
695, 0.28083028083028083, -0.7557997557997558, -1.0256410256410255, 0.21875, 0.15625, 0.0625, 0.0
696, -0.050061050061050064, 0.03296703296703297, -0.18925518925518925, 0.1875, 0.25, 0.0, 0.0
697, -0.08669108669108669, 0.5555555555555556, 0.46764346764346765, 0.4375, 0.25, 0.09375, 1.0
698, 0.6043956043956044, -0.46153846153846156, -0.1452991452991453, 0.59375, 0.0625, 0.25, 1.0
699, -0.2442002442002442, -0.336996336996337, -1.332112332112332, 0.125, 0.03125, 0.03125, 1.0
700, -0.57997557997558, -0.4249084249084249, -1.5189255189255189, -0.34375, 0.21875, 0.0, 1.0
701, -0.7545787545787546, 0.28327228327228327, -0.9902319902319903, -0.65625, 0.1875, 0.0625, 1.0
702, -1.1306471306471306, 0.3418803418803419, -0.6007326007326007, -0.25, -0.0625, 0.28125, 1.0
703, -1.1001221001221002, -0.2967032967032967, -1.612942612942613, -0.09375, 0.0, 0.5, 1.0
704, -0.5763125763125763, -0.5738705738705738, -1.9597069597069596, -0.5625, 0.0, 0.65625, 1.0
705, -1.4493284493284493, -0.07081807081807082, -1.5323565323565325, -1.0625, -0.15625, 0.6875, 1.0
706, -1.9194139194139195, 0.6495726495726496, -0.5213675213675214, -0.9375, -0.125, 0.84375, 1.0
707, -2.6227106227106227, 0.10012210012210013, -1.0952380952380953, -0.5, -0.15625, 1.03125, 1.0
708, -3.2185592185592187, -0.31013431013431014, -1.7094017094017093, -0.5, -0.125, 1.1875, 1.0
709, -3.098901098901099, -0.5506715506715507, -1.6324786324786325, -0.71875, -0.09375, 1.3125, 1.0
710, -3.199023199023199, -0.5934065934065934, -1.291819291819292, -0.9375, -0.25, 1.5, 1.0
711, -3.0781440781440783, -0.27350427350427353, -0.7704517704517705, -0.84375, -0.34375, 1.90625, 1.0
712, -2.9755799755799757, -0.8461538461538461, -0.7936507936507936, -0.40625, -0.34375, 2.125, 1.0
713, -2.0463980463980462, -1.8632478632478633, -1.1086691086691087, -0.5625, -0.15625, 2.1875, 1.0
714, -1.297924297924298, -2.1868131868131866, -0.9291819291819292, -0.875, -0.15625, 2.1875, 1.0
715, -0.4261294261294261, -2.184371184371184, -0.2979242979242979, -0.96875, -0.46875, 2.3125, 1.0
716, -0.008547008547008548, -2.1306471306471306, 0.10012210012210013, -0.9375, -0.84375, 2.46875, 1.0
717, 0.2954822954822955, -2.3846153846153846, 0.2893772893772894, -0.6875, -1.0625, 2.59375, 1.0
718, 0.33943833943833945, -3.2124542124542126, -0.5860805860805861, -0.5, -0.78125, 2.5, 1.0
719, 1.0158730158730158, -4.15995115995116, -1.5506715506715507, -0.6875, -0.4375, 2.28125, 1.0
720, 1.5970695970695972, -3.7313797313797314, -1.1575091575091576, -0.78125, -0.40625, 2.1875, 1.0
721, 1.774114774114774, -3.374847374847375, -0.536019536019536, -0.8125, -0.625, 2.0625, 1.0
722, 0.7326007326007326, -2.625152625152625, -0.031746031746031744, -0.75, -0.78125, 2.0625, 1.0
723, -0.18681318681318682, -2.311355311355311, 0.33577533577533575, -0.5625, -0.5625, 2.125, 1.0
724, 0.04151404151404151, -2.675213675213675, 0.3162393162393162, -0.4375, -0.34375, 2.15625, 1.0
725, 0.5482295482295483, -3.1819291819291817, 0.16483516483516483, -0.53125, -0.34375, 2.1875, 1.0
726, 0.3601953601953602, -2.885225885225885, 0.2625152625152625, -0.65625, -0.1875, 2.03125, 1.0
727, 0.6068376068376068, -2.098901098901099, 0.7887667887667887, -0.40625, -0.125, 2.125, 1.0
728, 0.9169719169719169, -2.8034188034188032, 0.778998778998779, -0.15625, -0.21875, 2.125, 1.0
729, 1.363858363858364, -3.340659340659341, 0.4590964590964591, -0.125, -0.21875, 2.0625, 1.0
730, 1.684981684981685, -3.202686202686203, 0.5518925518925519, -0.09375, -0.25, 2.0, 1.0
731, 1.448107448107448, -2.8974358974358974, 0.3956043956043956, -0.03125, -0.15625, 1.90625, 1.0
732, 2.1794871794871793, -3.1807081807081805, -0.13186813186813187, 0.0, -0.125, 1.84375, 1.0
733, 2.5946275946275947, -3.399267399267399, -0.8168498168498168, -0.09375, -0.25, 1.78125, 1.0
734, 2.2612942612942613, -2.675213675213675, -0.78998778998779, -0.15625, -0.15625, 1.59375, 1.0
735, 1.7753357753357752, -1.962148962148962, -0.6642246642246642, -0.125, 0.03125, 1.53125, 1.0
736, 1.5567765567765568, -1.4346764346764347, -0.27106227106227104, -0.03125, 0.0625, 1.59375, 1.0
737, 1.6056166056166057, -1.5445665445665446, 0.1855921855921856, -0.1875, 0.1875, 1.53125, 1.0
738, 2.6092796092796093, -1.3504273504273505, 0.07692307692307693, -0.15625, 0.28125, 1.375, 1.0
739, 3.26007326007326, -1.531135531135531, -0.21855921855921856, -0.0625, 0.03125, 1.125, 1.0
740, 2.821733821733822, -1.4407814407814408, -0.1562881562881563, -0.0625, -0.25, 0.96875, 1.0
741, 2.0378510378510377, -1.0586080586080586, -0.2905982905982906, -0.0625, -0.1875, 0.8125, 1.0
742, 2.10989010989011, -0.7582417582417582, -0.3968253968253968, -0.09375, 0.0625, 0.71875, 1.0
743, 2.1880341880341883, -0.5946275946275946, -0.09768009768009768, -0.125, 0.03125, 0.65625, 1.0
744, 1.5531135531135531, -0.10744810744810745, 0.18192918192918192, -0.09375, -0.09375, 0.53125, 1.0
745, 1.2307692307692308, -0.5079365079365079, 0.08424908424908426, 0.0, -0.09375, 0.5, 1.0
746, 1.0146520146520146, -0.10012210012210013, 0.46153846153846156, 0.0, 0.0, 0.40625, 1.0
747, 1.1514041514041513, -0.48717948717948717, 0.5225885225885226, 0.09375, 0.15625, 0.375, 1.0
748, 1.2442002442002442, -0.5555555555555556, 0.05128205128205128, 0.0, 0.15625, 0.25, 1.0
749, 0.818070818070818, -0.2576312576312576, -0.5201465201465202, -0.09375, 0.03125, 0.09375, 1.0
750, 0.5702075702075702, -0.6984126984126984, -0.9487179487179487, -0.28125, 0.0625, 0.03125, 1.0
751, 0.9499389499389499, -0.884004884004884, -0.575091575091575, -0.65625, 0.125, -0.03125, 0.0
752, 1.5604395604395604, -0.6166056166056166, 0.5433455433455433, -0.78125, 0.0, -0.1875, 0.0
753, 1.534798534798535, -0.7313797313797313, 0.9633699633699634, -0.46875, -0.1875, -0.375, 0.0
754, 1.0207570207570207, -0.6483516483516484, 0.2796092796092796, -0.21875, -0.28125, -0.53125, 0.0
755, 0.8925518925518926, -0.9511599511599511, -0.29304029304029305, -0.0625, -0.28125, -0.625, 0.0
756, 1.1489621489621489, -1.5811965811965811, -1.0085470085470085, -0.15625, -0.1875, -0.6875, 0.0
757, 1.5372405372405373, -2.1514041514041513, -1.1660561660561661, -0.375, 0.0, -0.75, 0.0
758, 2.0793650793650795, -2.4835164835164836, -0.6776556776556777, -0.5, 0.21875, -0.90625, 0.0
759, 2.324786324786325, -2.2222222222222223, 0.050061050061050064, -0.40625, 0.3125, -1.125, 0.0
760, 2.1807081807081805, -2.0476190476190474, 0.34798534798534797, -0.1875, 0.09375, -1.40625, 0.0
761, 1.0976800976800978, -1.8547008547008548, -0.013431013431013432, 0.0, -0.1875, -1.40625, 0.0
762, 0.6166056166056166, -2.3601953601953602, -0.4065934065934066, 0.09375, -0.25, -1.40625, 0.0
763, 0.684981684981685, -2.995115995115995, -0.9328449328449329, -0.03125, -0.0625, -1.5625, 0.0
764, 0.43956043956043955, -2.7655677655677655, -0.9706959706959707, -0.09375, 0.125, -1.65625, 0.0
765, 0.1514041514041514, -2.415140415140415, -0.7631257631257631, -0.09375, 0.15625, -1.75, 0.0
766, 0.18681318681318682, -2.509157509157509, -0.014652014652014652, -0.15625, 0.0, -1.84375, 0.0
767, -0.22832722832722832, -2.559218559218559, 0.3076923076923077, -0.1875, 0.09375, -1.9375, 0.0
768, -0.4004884004884005, -2.537240537240537, 0.16483516483516483, -0.125, 0.40625, -2.125, 0.0
769, -1.0354090354090355, -1.9523809523809523, -0.02197802197802198, 0.0, 0.59375, -2.3125, 0.0
770, -1.1794871794871795, -2.083028083028083, 0.026862026862026864, 0.0625, 0.375, -2.3125, 0.0
771, -1.811965811965812, -2.0793650793650795, 0.40293040293040294, 0.0625, 0.25, -2.375, 0.0
772, -1.8547008547008548, -2.606837606837607, 0.3894993894993895, -0.03125, 0.25, -2.375, 0.0
773, -2.713064713064713, -2.1807081807081805, -0.16483516483516483, 0.0, 0.4375, -2.53125, 0.0
774, -3.722832722832723, -1.7032967032967032, -0.702075702075702, 0.25, 0.625, -2.59375, 0.0
775, -4.2344322344322345, -1.6556776556776556, -0.8644688644688645, 0.3125, 0.71875, -2.5, 0.0
776, -4.172161172161172, -1.7863247863247864, -0.5347985347985348, 0.1875, 0.71875, -2.3125, 0.0
777, -4.264957264957265, -1.6825396825396826, -0.18681318681318682, 0.03125, 0.84375, -2.28125, 0.0
778, -3.177045177045177, -1.9536019536019535, 0.5885225885225885, 0.0, 1.0, -2.21875, 0.0
779, -2.1538461538461537, -1.768009768009768, 1.442002442002442, 0.21875, 0.875, -2.28125, 0.0
780, -1.6752136752136753, -1.684981684981685, 1.7765567765567765, 0.53125, 0.6875, -2.375, 0.0
781, -2.1233211233211233, -1.7362637362637363, 1.0427350427350428, 0.71875, 0.53125, -2.40625, 0.0
782, -3.076923076923077, -1.7496947496947497, -0.3956043956043956, 0.8125, 0.34375, -2.40625, 0.0
783, -3.1623931623931623, -2.075702075702076, -1.6373626373626373, 0.65625, 0.3125, -2.21875, 0.0
784, -2.9279609279609278, -1.9255189255189256, -1.6605616605616607, 0.34375, 0.375, -2.0625, 0.0
785, -3.0146520146520146, -2.0744810744810747, -0.8461538461538461, 0.21875, 0.53125, -1.96875, 0.0
786, -2.126984126984127, -1.7106227106227105, -0.20757020757020758, 0.25, 0.5625, -1.90625, 0.0
787, -3.0354090354090353, -1.5848595848595848, -0.7374847374847375, 0.28125, 0.59375, -1.96875, 0.0
788, -3.786324786324786, -1.3736263736263736, -1.702075702075702, 0.53125, 0.625, -1.90625, 0.0
789, -3.8803418803418803, -1.1465201465201464, -2.0854700854700856, 0.6875, 0.5, -1.5625, 0.0
790, -3.7606837606837606, -1.4261294261294262, -2.092796092796093, 0.53125, 0.4375, -1.375, 0.0
791, -3.3675213675213675, -1.297924297924298, -1.3687423687423688, 0.125, 0.53125, -1.21875, 0.0
792, -3.0549450549450547, -0.7728937728937729, -0.3968253968253968, -0.0625, 0.46875, -1.125, 0.0
793, -2.8192918192918195, -0.3333333333333333, 0.3772893772893773, 0.0, 0.3125, -0.9375, 0.0
794, -3.2735042735042734, -0.5115995115995116, -0.358974358974359, 0.25, 0.125, -0.8125, 0.0
795, -3.468864468864469, -0.6971916971916972, -1.5628815628815629, 0.40625, 0.09375, -0.5625, 0.0
796, -2.769230769230769, -0.6617826617826618, -1.8388278388278387, 0.28125, 0.09375, -0.34375, 0.0
797, -2.531135531135531, -0.3125763125763126, -1.4664224664224663, 0.0, 0.03125, -0.21875, 0.0
798, -1.7863247863247864, -0.37362637362637363, -0.9108669108669109, -0.15625, 0.09375, -0.03125, 0.0
799, -0.6800976800976801, -0.6898656898656899, -0.6166056166056166, -0.125, -0.03125, 0.125, 0.0
800, 0.06105006105006105, -0.9682539682539683, -0.818070818070818, -0.09375, -0.1875, 0.21875, 0.0
801, -0.020757020757020756, -0.7301587301587301, -0.8547008547008547, -0.15625, -0.125, 0.1875, 0.0
802, -0.1343101343101343, -0.6642246642246642, -0.7643467643467643, -0.28125, 0.03125, 0.125, 0.0
803, -0.5738705738705738, -0.6617826617826618, -0.757020757020757, -0.375, 0.09375, 0.125, 0.0
804, -0.39438339438339437, -0.5457875457875457, -0.7912087912087912, -0.34375, -0.0625, 0.21875, 0.0
805, -0.5518925518925519, -0.45787545787545786, -0.8595848595848596, -0.28125, -0.375, 0.34375, 0.0
806, -0.8363858363858364, -0.36385836385836384, -1.1367521367521367, -0.3125, -0.28125, 0.34375, 0.0
807, -1.3992673992673992, -0.05860805860805861, -0.9474969474969475, -0.40625, 0.0, 0.3125, 0.0
808, -1.3626373626373627, 0.06349206349206349, -0.6898656898656899, -0.5, 0.09375, 0.40625, 0.0
809, -0.43345543345543347, -0.23931623931623933, -0.3443223443223443, -0.5625, -0.34375, 0.75, 0.0
810, 0.02197802197802198, -0.38583638583638585, -0.29426129426129427, -0.5625, -0.53125, 0.75, 0.0
811, -0.2771672771672772, -0.33943833943833945, -0.36874236874236876, -0.4375, -0.15625, 0.78125, 0.0
812, 0.6043956043956044, -0.34676434676434675, 0.326007326007326, -0.21875, 0.09375, 0.8125, 0.0
813, 4.087912087912088, -1.5946275946275947, 0.9023199023199023, -0.21875, -0.28125, 0.84375, 0.0
814, 6.783882783882784, -2.733821733821734, 1.2124542124542124, -0.5, -0.78125, 0.53125, 0.0
815, 6.119658119658119, -2.1880341880341883, 1.94993894993895, -0.59375, -0.375, 0.0, 0.0
816, 4.487179487179487, -1.2783882783882783, 2.815628815628816, -0.28125, 0.53125, -0.53125, 0.0
817, 3.1086691086691087, -0.5811965811965812, 3.5006105006105006, 0.28125, 1.125, -0.8125, 0.0
818, 2.600732600732601, -0.6190476190476191, 3.264957264957265, 0.6875, 0.8125, -0.90625, 0.0
819, 1.0, -0.5970695970695971, 1.9487179487179487, 0.59375, 0.1875, -0.8125, 0.0
820, -0.7875457875457875, -0.27350427350427353, 0.5958485958485958, 0.375, 0.125, -0.78125, 0.0
821, -1.7777777777777777, 0.19658119658119658, -0.2490842490842491, 0.3125, 0.34375, -0.625, 0.0
822, -1.2759462759462759, 0.10744810744810745, -0.47619047619047616, 0.40625, 0.28125, -0.375, 0.0
823, -0.9719169719169719, -0.20757020757020758, -1.0097680097680097, 0.40625, -0.03125, -0.21875, 0.0
824, -1.5152625152625152, -0.17582417582417584, -1.822954822954823, 0.34375, -0.125, -0.03125, 0.0
825, -1.9963369963369964, -0.15262515262515264, -2.1514041514041513, 0.21875, 0.3125, 0.0, 0.0
826, -1.387057387057387, -0.27594627594627597, -2.004884004884005, 0.03125, 0.78125, 0.0625, 0.0
827, 0.26495726495726496, -0.5738705738705738, -1.3736263736263736, -0.03125, 0.4375, 0.15625, 0.0
828, 0.5921855921855922, -0.6056166056166056, -1.122100122100122, -0.03125, 0.03125, 0.1875, 0.0
829, 0.18925518925518925, -0.525030525030525, -1.006105006105006, 0.0, 0.15625, 0.125, 0.0
830, 0.7387057387057387, -0.73992673992674, -0.9304029304029304, 0.0, 0.25, 0.0625, 0.0
831, 0.9267399267399268, -0.7472527472527473, -0.8095238095238095, -0.125, 0.0625, 0.0, 0.0
832, 0.3601953601953602, -0.21855921855921856, -0.503052503052503, -0.125, 0.0625, -0.03125, 0.0
833, 0.23565323565323565, -0.23565323565323565, -0.030525030525030524, -0.15625, 0.125, -0.0625, 0.0
834, 0.08058608058608059, 0.002442002442002442, 0.4371184371184371, -0.0625, 0.0, -0.0625, 0.0
835, -0.14163614163614163, -0.25274725274725274, 0.0, 0.0, -0.03125, -0.0625, 0.0
836, -0.2087912087912088, -0.23321123321123322, -0.008547008547008548, -0.03125, 0.03125, -0.0625, 0.0
837, 0.03785103785103785, -0.16483516483516483, 0.28815628815628813, -0.03125, 0.09375, -0.0625, 0.0
838, -0.16727716727716727, -0.17094017094017094, 0.17094017094017094, -0.03125, 0.15625, -0.09375, 1.0
839, 0.32967032967032966, 0.009768009768009768, 0.6910866910866911, 0.0, 0.15625, 0.0, 1.0
840, 0.3724053724053724, -0.02442002442002442, 0.4004884004884005, 0.5, -0.03125, 0.0, 1.0
841, -0.6178266178266179, -0.43223443223443225, -0.9108669108669109, 0.59375, 0.03125, -0.125, 1.0
842, -0.2148962148962149, -0.800976800976801, -1.343101343101343, 0.09375, 0.5, -0.0625, 1.0
843, -0.047619047619047616, -0.3064713064713065, -0.8253968253968254, -0.53125, 0.5, -0.0625, 1.0
844, -1.0805860805860805, 0.39316239316239315, -0.49206349206349204, -0.6875, 0.0625, 0.03125, 1.0
845, -1.9206349206349207, 0.8791208791208791, -0.4725274725274725, -0.375, -0.0625, 0.25, 1.0
846, -2.2515262515262515, 0.34554334554334554, -0.8559218559218559, -0.03125, -0.0625, 0.4375, 1.0
847, -2.8705738705738706, -0.15995115995115994, -1.7203907203907205, -0.1875, 0.0, 0.5, 1.0
848, -2.606837606837607, -0.14285714285714285, -1.9304029304029304, -0.5, 0.125, 0.59375, 1.0
849, -2.5409035409035408, 0.04884004884004884, -1.8205128205128205, -0.65625, -0.15625, 0.84375, 1.0
850, -3.6166056166056166, 0.1343101343101343, -2.52014652014652, -0.65625, -0.28125, 1.09375, 1.0
851, -3.6483516483516483, -0.21367521367521367, -3.0134310134310134, -0.59375, -0.125, 1.3125, 1.0
852, -3.1172161172161172, -0.7326007326007326, -3.1965811965811968, -0.8125, -0.09375, 1.53125, 1.0
853, -3.3382173382173383, -0.8058608058608059, -3.039072039072039, -1.15625, -0.0625, 1.71875, 1.0
854, -2.8925518925518925, -0.5115995115995116, -1.7997557997557998, -1.3125, 0.09375, 1.84375, 1.0
855, -2.5347985347985347, -0.5103785103785103, -0.6886446886446886, -1.09375, 0.09375, 1.96875, 1.0
856, -1.9401709401709402, -0.8498168498168498, -0.38095238095238093, -1.0, -0.0625, 2.0625, 1.0
857, -1.4285714285714286, -1.0598290598290598, 0.07081807081807082, -1.125, -0.46875, 2.25, 1.0
858, -1.3418803418803418, -0.9108669108669109, 0.6776556776556777, -1.03125, -0.9375, 2.3125, 1.0
859, -1.656898656898657, -0.7838827838827839, 0.8156288156288156, -0.625, -0.96875, 2.40625, 1.0
860, -0.6202686202686203, -1.7387057387057387, 0.336996336996337, -0.1875, -1.125, 2.65625, 1.0
861, 0.5616605616605617, -3.32967032967033, -0.884004884004884, -0.34375, -1.25, 2.46875, 1.0
862, 0.45054945054945056, -2.9413919413919416, -1.1660561660561661, -0.6875, -1.0, 2.25, 1.0
863, 0.32112332112332115, -2.114774114774115, -0.6825396825396826, -0.625, -0.90625, 2.1875, 1.0
864, 0.08058608058608059, -1.811965811965812, -0.47496947496947495, -0.4375, -1.0, 2.25, 1.0
865, 0.2222222222222222, -2.380952380952381, -0.7533577533577533, -0.375, -1.25, 2.46875, 1.0
866, -0.06227106227106227, -3.032967032967033, -1.1965811965811965, -0.59375, -1.3125, 2.28125, 1.0
867, -0.8266178266178266, -2.5323565323565322, -0.8461538461538461, -0.65625, -0.9375, 2.1875, 1.0
868, -0.9120879120879121, -1.9523809523809523, 0.2026862026862027, -0.28125, -0.75, 2.28125, 1.0
869, -0.5079365079365079, -2.9572649572649574, -0.10012210012210013, 0.0, -0.71875, 2.5625, 1.0
870, 0.6068376068376068, -4.427350427350428, -1.5323565323565325, -0.09375, -0.625, 2.65625, 1.0
871, 2.0183150183150182, -5.202686202686203, -2.1452991452991452, -0.5625, -0.4375, 2.28125, 1.0
872, 2.335775335775336, -3.761904761904762, -1.1868131868131868, -0.71875, -0.375, 2.09375, 1.0
873, 1.5543345543345544, -2.687423687423687, -0.2612942612942613, -0.40625, -0.25, 2.0, 1.0
874, 1.2442002442002442, -2.7045177045177047, 0.01098901098901099, -0.375, -0.125, 2.03125, 1.0
875, 1.2637362637362637, -2.5213675213675213, 0.28083028083028083, -0.53125, -0.15625, 1.9375, 1.0
876, 1.321123321123321, -2.203907203907204, 0.8241758241758241, -0.46875, -0.375, 2.03125, 1.0
877, 1.4871794871794872, -1.9365079365079365, 1.5531135531135531, -0.1875, -0.40625, 2.0625, 1.0
878, 1.1904761904761905, -1.757020757020757, 1.3687423687423688, 0.0, -0.28125, 2.0, 1.0
879, 0.8632478632478633, -2.221001221001221, 0.8791208791208791, -0.0625, -0.15625, 1.875, 1.0
880, 0.7326007326007326, -2.1526251526251525, 0.5616605616605617, -0.125, -0.03125, 1.71875, 1.0
881, 1.9755799755799757, -2.452991452991453, 0.5372405372405372, -0.0625, -0.09375, 1.71875, 1.0
882, 2.242979242979243, -1.7851037851037852, 0.7948717948717948, 0.09375, -0.0625, 1.5625, 1.0
883, 2.354090354090354, -1.3076923076923077, 0.27594627594627597, 0.0, 0.15625, 1.28125, 1.0
884, 4.6923076923076925, -1.8376068376068375, 0.020757020757020756, 0.03125, -0.125, 1.28125, 1.0
885, 3.9255189255189253, -1.6227106227106227, -0.42246642246642246, 0.03125, -0.59375, 1.03125, 1.0
886, 2.509157509157509, -1.1489621489621489, -1.0537240537240538, 0.0, -0.375, 0.96875, 1.0
887, 1.901098901098901, -0.6190476190476191, -1.0036630036630036, -0.03125, 0.1875, 0.84375, 1.0
888, 2.247863247863248, 0.10256410256410256, 0.3052503052503053, -0.125, 0.4375, 0.78125, 1.0
889, 1.9902319902319903, 0.2503052503052503, 0.9804639804639804, -0.0625, 0.125, 0.75, 1.0
890, 2.399267399267399, -0.2026862026862027, 0.8852258852258852, 0.125, -0.09375, 0.71875, 1.0
891, 2.166056166056166, -0.7228327228327228, 0.13064713064713065, 0.28125, -0.125, 0.5625, 1.0
892, 1.7496947496947497, -0.525030525030525, -0.22344322344322345, 0.21875, -0.0625, 0.40625, 1.0
893, 0.9621489621489622, -0.19047619047619047, -0.17826617826617827, 0.125, -0.03125, 0.21875, 1.0
894, 0.9938949938949939, -0.18803418803418803, 0.39438339438339437, 0.0625, 0.0, 0.15625, 1.0
895, 1.2454212454212454, -0.4468864468864469, 0.49206349206349204, 0.03125, -0.0625, 0.03125, 1.0
896, 1.1965811965811965, -0.8083028083028083, -0.4590964590964591, -0.03125, -0.125, -0.03125, 0.0
897, 1.3772893772893773, -0.7362637362637363, -0.7081807081807082, -0.28125, 0.0, -0.125, 0.0
898, 1.8302808302808302, -0.6874236874236874, -0.41025641025641024, -0.5, 0.0, -0.21875, 0.0
899, 2.3907203907203907, -0.800976800976801, -0.07448107448107448, -0.4375, -0.15625, -0.34375, 0.0
900, 2.3492063492063493, -1.2942612942612943, -0.10866910866910867, -0.25, -0.3125, -0.65625, 0.0
901, 2.1343101343101343, -1.5897435897435896, -0.5470085470085471, -0.21875, -0.375, -0.875, 0.0
902, 1.1965811965811965, -1.592185592185592, -1.0231990231990231, -0.21875, -0.40625, -1.0, 0.0
903, 1.989010989010989, -2.043956043956044, -1.4346764346764347, -0.1875, 0.28125, -0.9375, 0.0
904, 3.31013431013431, -2.4358974358974357, -1.0097680097680097, -0.28125, 0.375, -1.09375, 0.0
905, 3.3089133089133087, -2.7106227106227108, -0.514041514041514, -0.5, -0.09375, -1.3125, 0.0
906, 2.2576312576312576, -2.9682539682539684, -0.10989010989010989, -0.46875, -0.375, -1.53125, 0.0
907, 1.5970695970695972, -2.8937728937728937, 0.2600732600732601, -0.34375, -0.25, -1.5625, 0.0
908, 0.23931623931623933, -2.432234432234432, -0.04151404151404151, -0.25, 0.1875, -1.6875, 0.0
909, 0.9328449328449329, -2.7655677655677655, -0.12698412698412698, -0.3125, 0.28125, -2.0625, 0.0
910, 0.5103785103785103, -3.2356532356532357, -0.21245421245421245, -0.4375, 0.0625, -2.375, 0.0
911, -1.2515262515262515, -2.8131868131868134, -0.10866910866910867, -0.53125, 0.0625, -2.375, 0.0
912, -2.2503052503052503, -2.155067155067155, 0.20634920634920634, -0.59375, 0.1875, -2.21875, 0.0
913, -2.3028083028083026, -2.137973137973138, 0.5824175824175825, -0.53125, 0.40625, -2.1875, 0.0
914, -2.452991452991453, -2.2466422466422467, 0.5445665445665445, -0.375, 0.875, -2.3125, 0.0
915, -2.299145299145299, -2.4652014652014653, 0.32967032967032966, -0.15625, 1.09375, -2.28125, 0.0
916, -1.877899877899878, -2.468864468864469, 0.3125763125763126, -0.0625, 0.9375, -2.3125, 0.0
917, -1.934065934065934, -2.600732600732601, 0.22832722832722832, -0.09375, 0.625, -2.25, 0.0
918, -2.3174603174603177, -2.2002442002442004, 0.2576312576312576, -0.09375, 0.4375, -2.375, 0.0
919, -3.982905982905983, -1.568986568986569, -0.1794871794871795, 0.03125, 0.8125, -2.53125, 0.0
920, -4.258852258852259, -1.3846153846153846, -0.2454212454212454, 0.25, 1.4375, -2.375, 0.0
921, -2.8583638583638584, -1.9206349206349207, -0.052503052503052504, 0.34375, 1.53125, -2.25, 0.0
922, -2.568986568986569, -2.247863247863248, -0.09645909645909646, 0.34375, 1.15625, -2.34375, 0.0
923, -2.8766788766788767, -1.877899877899878, 0.20634920634920634, 0.3125, 0.8125, -2.34375, 0.0
924, -2.8644688644688645, -1.5238095238095237, 0.536019536019536, 0.3125, 0.78125, -2.3125, 0.0
925, -2.8986568986568986, -1.5042735042735043, 0.17704517704517705, 0.28125, 0.8125, -2.25, 0.0
926, -3.070818070818071, -2.225885225885226, -0.42857142857142855, 0.34375, 1.0625, -2.125, 0.0
927, -2.2161172161172162, -2.021978021978022, 0.08913308913308914, 0.4375, 1.125, -2.125, 0.0
928, -1.9877899877899878, -1.9133089133089134, 0.6544566544566545, 0.59375, 1.1875, -2.09375, 0.0
929, -2.075702075702076, -2.2124542124542126, 0.57997557997558, 0.8125, 1.25, -2.15625, 0.0
930, -2.1892551892551895, -2.612942612942613, -0.7252747252747253, 0.96875, 1.0625, -1.96875, 0.0
931, -2.1819291819291817, -2.590964590964591, -1.6862026862026862, 0.78125, 0.78125, -1.875, 0.0
932, -3.6263736263736264, -1.3003663003663004, -2.1184371184371185, 0.75, 0.84375, -1.9375, 0.0
933, -3.774114774114774, -1.1343101343101343, -2.507936507936508, 0.71875, 0.71875, -1.75, 0.0
934, -3.9047619047619047, -0.6703296703296703, -2.3382173382173383, 0.53125, 0.34375, -1.46875, 0.0
935, -3.8461538461538463, -0.5067155067155067, -1.6080586080586081, 0.3125, 0.25, -1.15625, 0.0
936, -3.8644688644688645, -0.23809523809523808, -1.3162393162393162, 0.1875, 0.3125, -0.96875, 0.0
937, -3.7887667887667886, -0.019536019536019536, -1.1294261294261294, 0.3125, 0.34375, -0.78125, 0.0
938, -2.7936507936507935, -0.2625152625152625, -0.8315018315018315, 0.40625, 0.3125, -0.53125, 0.0
939, -1.1978021978021978, -0.7582417582417582, -0.5323565323565324, 0.34375, 0.15625, -0.34375, 0.0
940, -0.6043956043956044, -1.352869352869353, -0.4542124542124542, 0.125, -0.0625, -0.34375, 0.0
941, -1.1965811965811965, -0.8913308913308914, -0.5201465201465202, 0.0, -0.0625, -0.375, 0.0
942, -0.8290598290598291, -0.5714285714285714, -0.014652014652014652, 0.0625, 0.15625, -0.34375, 0.0
943, -0.29914529914529914, -0.5616605616605617, 0.3492063492063492, 0.25, 0.1875, -0.3125, 0.0
944, -0.3968253968253968, -0.6227106227106227, -0.2576312576312576, 0.40625, 0.0, -0.28125, 0.0
945, -0.7350427350427351, -0.6410256410256411, -1.017094017094017, 0.375, -0.0625, -0.21875, 0.0
946, -0.6361416361416361, -0.5885225885225885, -1.3296703296703296, 0.1875, -0.03125, -0.0625, 0.0
947, -0.5995115995115995, -0.2222222222222222, -1.1062271062271063, 0.0, 0.0, -0.03125, 0.0
948, -0.16971916971916973, -0.31868131868131866, -0.8791208791208791, 0.0, 0.03125, 0.03125, 0.0
949, 0.08547008547008547, -0.48595848595848595, -1.061050061050061, 0.0, 0.0, 0.03125, 0.0
950, 0.13064713064713065, -0.4175824175824176, -1.1660561660561661, -0.09375, -0.03125, 0.125, 0.0
951, 0.1282051282051282, -0.4542124542124542, -1.1245421245421245, -0.28125, 0.0, 0.125, 0.0
952, 0.08424908424908426, -0.2686202686202686, -0.4542124542124542, -0.4375, 0.15625, 0.09375, 0.0
953, 0.1562881562881563, -0.04151404151404151, 0.22344322344322345, -0.34375, 0.1875, 0.0625, 0.0
954, -0.03907203907203907, -0.013431013431013432, 0.2503052503052503, -0.125, 0.0, 0.09375, 0.0
955, -0.2698412698412698, -0.003663003663003663, 0.37484737484737485, 0.0, 0.03125, 0.125, 0.0
956, 0.2796092796092796, -0.2612942612942613, 0.2905982905982906, 0.0625, 0.0, 0.09375, 0.0
957, -0.009768009768009768, -0.336996336996337, -0.39194139194139194, 0.15625, 0.0, 0.03125, 1.0
958, -0.1623931623931624, 0.07203907203907203, -0.14774114774114774, 0.40625, 0.03125, 0.125, 1.0
959, -0.07814407814407814, 0.08547008547008547, -0.4725274725274725, 0.40625, 0.125, 0.21875, 1.0
960, 0.3089133089133089, -0.8046398046398047, -1.0964590964590966, 0.03125, 0.1875, 0.03125, 1.0
961, -0.702075702075702, -0.3162393162393162, -1.293040293040293, -0.375, 0.3125, 0.0, 1.0
962, -0.9401709401709402, 0.13675213675213677, -0.5787545787545788, -0.5625, 0.28125, 0.03125, 1.0
963, -1.249084249084249, -0.20512820512820512, -0.9682539682539683, -0.6875, 0.0, 0.21875, 1.0
964, -2.0781440781440783, -0.4078144078144078, -2.0683760683760686, -0.84375, -0.09375, 0.5, 1.0
965, -2.998778998778999, 0.08302808302808302, -2.4065934065934065, -0.75, -0.09375, 0.75, 1.0
966, -3.5494505494505493, -0.13064713064713065, -2.4004884004884004, -0.65625, 0.0, 1.0, 1.0
967, -3.572649572649573, -0.25518925518925517, -2.4358974358974357, -0.6875, 0.09375, 1.25, 1.0
968, -3.4590964590964592, -0.031746031746031744, -1.612942612942613, -0.65625, -0.03125, 1.4375, 1.0
969, -3.706959706959707, 0.06593406593406594, -0.7826617826617827, -0.625, -0.0625, 1.5625, 1.0
970, -4.041514041514041, -0.13553113553113552, -0.57997557997558, -0.625, 0.03125, 1.84375, 1.0
971, -3.3516483516483517, -0.5628815628815629, -0.15506715506715507, -0.65625, -0.03125, 2.09375, 1.0
972, -2.2844932844932844, -1.2063492063492063, 0.10622710622710622, -0.6875, -0.34375, 2.3125, 1.0
973, -1.4737484737484738, -1.901098901098901, 0.10744810744810745, -0.6875, -0.78125, 2.46875, 1.0
974, -0.5897435897435898, -2.8131868131868134, -0.7203907203907204, -0.59375, -1.0, 2.5, 1.0
975, -0.49694749694749696, -2.868131868131868, -1.5457875457875458, -0.5625, -0.8125, 2.4375, 1.0
976, -0.6043956043956044, -2.4664224664224665, -1.5811965811965811, -0.53125, -0.59375, 2.46875, 1.0
977, -0.525030525030525, -2.3003663003663, -1.1452991452991452, -0.53125, -0.59375, 2.53125, 1.0
978, -0.17338217338217338, -2.463980463980464, -0.7448107448107448, -0.53125, -0.8125, 2.59375, 1.0
979, -0.49694749694749696, -2.669108669108669, -0.6239316239316239, -0.59375, -0.75, 2.375, 1.0
980, 0.16605616605616605, -2.547008547008547, 0.24175824175824176, -0.59375, -0.53125, 2.46875, 1.0
981, 0.09768009768009768, -2.4786324786324787, 0.4358974358974359, -0.5, -0.8125, 2.5, 1.0
982, -0.4175824175824176, -2.827838827838828, -0.08669108669108669, -0.40625, -0.90625, 2.40625, 1.0
983, -0.8485958485958486, -3.075702075702076, -0.3162393162393162, -0.5, -0.71875, 2.3125, 1.0
984, -0.8925518925518926, -2.8376068376068377, 0.21978021978021978, -0.53125, -0.53125, 2.34375, 1.0
985, -0.7338217338217338, -2.9096459096459095, 0.7057387057387058, -0.1875, -0.3125, 2.4375, 1.0
986, 0.3992673992673993, -4.2063492063492065, -0.31135531135531136, -0.03125, -0.03125, 2.5625, 1.0
987, 1.7032967032967032, -4.271062271062271, -0.5665445665445665, -0.46875, -0.21875, 2.5, 1.0
988, 2.081807081807082, -2.7924297924297923, 1.387057387057387, -0.875, -0.59375, 2.375, 1.0
989, 1.2234432234432235, -2.167277167277167, 2.288156288156288, -0.625, -0.625, 2.125, 1.0
990, 0.2612942612942613, -2.907203907203907, 0.49206349206349204, 0.0, -0.5, 2.21875, 1.0
991, 0.9072039072039072, -4.495726495726496, -1.2857142857142858, 0.25, -0.46875, 2.46875, 1.0
992, 1.63003663003663, -4.686202686202686, -1.7008547008547008, 0.0, -0.46875, 2.375, 1.0
993, 2.1294261294261294, -3.346764346764347, -0.1452991452991453, -0.125, 0.0625, 2.125, 1.0
994, 3.017094017094017, -3.0964590964590966, 0.536019536019536, 0.0, 0.4375, 2.03125, 1.0
995, 3.507936507936508, -3.1257631257631258, -0.10866910866910867, 0.03125, 0.15625, 1.9375, 1.0
996, 3.32967032967033, -2.7142857142857144, -0.7838827838827839, -0.0625, -0.15625, 1.78125, 1.0
997, 2.741147741147741, -1.8302808302808302, -0.38217338217338215, -0.0625, -0.09375, 1.625, 1.0
998, 2.8046398046398044, -1.7814407814407816, -0.24175824175824176, 0.0, 0.03125, 1.40625, 1.0
999, 1.978021978021978, -1.601953601953602, -0.663003663003663, 0.0, 0.15625, 1.28125, 1.0
1000, 2.8766788766788767, -1.4114774114774116, 0.17826617826617827, -0.1875, 0.3125, 1.3125, 1.0
1001, 3.8144078144078146, -0.7594627594627594, 1.398046398046398, -0.15625, 0.09375, 1.125, 1.0
1002, 3.4554334554334556, -1.1123321123321124, 0.7228327228327228, 0.125, -0.25, 0.875, 1.0
1003, 2.004884004884005, -0.8449328449328449, -0.9438339438339438, 0.125, -0.25, 0.71875, 1.0
1004, 2.0525030525030523, -0.4835164835164835, -0.7057387057387058, 0.0, 0.25, 0.59375, 1.0
1005, 2.8192918192918195, -0.3247863247863248, 0.08669108669108669, 0.0, 0.125, 0.40625, 1.0
1006, 2.3614163614163615, -0.46153846153846156, -0.031746031746031744, -0.09375, 0.0, 0.28125, 1.0
1007, 1.2551892551892552, -0.3894993894993895, -0.09645909645909646, -0.15625, 0.09375, 0.21875, 1.0
1008, 1.6398046398046398, -0.23565323565323565, 0.34676434676434675, -0.09375, 0.0, 0.09375, 1.0
1009, 1.7179487179487178, -0.3992673992673993, 0.2783882783882784, -0.09375, -0.125, 0.0, 1.0
1010, 1.7362637362637363, -0.8437118437118437, -0.2783882783882784, -0.15625, -0.0625, -0.0625, 1.0
1011, 1.5738705738705738, -1.7851037851037852, -1.0854700854700854, -0.59375, 0.21875, -0.28125, 0.0
1012, 2.6971916971916974, -1.3821733821733821, -0.2967032967032967, -0.90625, 0.1875, -0.53125, 0.0
1013, 3.2527472527472527, -1.177045177045177, 0.30158730158730157, -0.71875, -0.125, -0.84375, 0.0
1014, 2.3882783882783882, -1.7765567765567765, -0.003663003663003663, -0.40625, -0.03125, -1.0, 0.0
1015, 2.2124542124542126, -2.0207570207570207, -0.5091575091575091, -0.125, 0.34375, -1.125, 0.0
1016, 2.131868131868132, -3.2075702075702077, -1.2454212454212454, -0.03125, 0.8125, -1.25, 0.0
1017, 3.1684981684981683, -3.8766788766788767, -0.9719169719169719, -0.28125, 0.78125, -1.40625, 0.0
1018, 4.632478632478633, -4.131868131868132, 0.21245421245421245, -0.5625, 0.125, -1.9375, 0.0
1019, 3.663003663003663, -3.9450549450549453, 0.23565323565323565, -0.5625, -0.40625, -2.1875, 0.0
1020, 1.8705738705738706, -3.9755799755799757, -0.009768009768009768, -0.46875, -0.375, -2.40625, 0.0
1021, -0.0989010989010989, -3.6312576312576312, -0.7814407814407814, -0.375, 0.5625, -2.40625, 0.0
1022, 0.10622710622710622, -3.5274725274725274, -0.6007326007326007, -0.5, 0.875, -2.40625, 0.0
1023, 0.36385836385836384, -2.937728937728938, 0.16117216117216118, -0.625, 0.59375, -2.53125, 0.0
1024, -0.37484737484737485, -2.299145299145299, 0.38217338217338215, -0.46875, 0.3125, -2.4375, 0.0
1025, -0.8534798534798534, -1.8205128205128205, 0.2905982905982906, -0.125, 0.09375, -2.28125, 0.0
1026, -2.8534798534798536, -1.7106227106227105, -0.23809523809523808, 0.09375, 0.625, -2.40625, 0.0
1027, -2.7203907203907205, -1.9487179487179487, -0.40293040293040294, 0.09375, 1.09375, -2.34375, 0.0
1028, -1.1184371184371185, -2.2808302808302807, 0.2686202686202686, 0.0625, 0.71875, -2.28125, 0.0
1029, -1.5494505494505495, -1.7814407814407816, -0.1111111111111111, 0.21875, 0.28125, -2.34375, 0.0
1030, -4.029304029304029, -1.2844932844932846, -0.6581196581196581, 0.375, 0.21875, -2.28125, 0.0
1031, -3.1623931623931623, -1.3614163614163615, -0.47496947496947495, 0.5, 1.21875, -2.28125, 0.0
1032, -2.1965811965811968, -1.8717948717948718, -0.3235653235653236, 0.5625, 1.5, -2.21875, 0.0
1033, -1.8083028083028083, -2.2637362637362637, -0.3992673992673993, 0.625, 1.0, -2.1875, 0.0
1034, -1.7277167277167278, -2.5995115995115996, -0.4932844932844933, 0.59375, 0.46875, -2.03125, 0.0
1035, -2.4224664224664223, -1.9401709401709402, -0.3247863247863248, 0.53125, 0.375, -2.0625, 0.0
1036, -2.9536019536019538, -1.8510378510378511, -0.2588522588522589, 0.53125, 0.6875, -2.1875, 0.0
1037, -2.8461538461538463, -1.9035409035409034, 0.33455433455433453, 0.5625, 1.03125, -2.21875, 0.0
1038, -2.288156288156288, -2.1343101343101343, 0.7008547008547008, 0.6875, 1.25, -2.1875, 0.0
1039, -1.4236874236874237, -2.2185592185592187, 0.6654456654456654, 0.875, 0.90625, -1.96875, 0.0
1040, -1.7875457875457876, -2.10989010989011, 0.0, 0.9375, 0.28125, -2.0, 0.0
1041, -4.344322344322344, -1.8473748473748475, -1.7875457875457876, 0.90625, 0.125, -2.125, 0.0
1042, -5.396825396825397, -1.336996336996337, -2.462759462759463, 0.90625, 0.53125, -1.96875, 0.0
1043, -4.3760683760683765, -0.9584859584859585, -1.9023199023199022, 0.71875, 0.78125, -1.625, 0.0
1044, -3.2173382173382175, -1.0317460317460319, -1.2527472527472527, 0.5, 0.71875, -1.4375, 0.0
1045, -2.4053724053724053, -1.3540903540903542, -1.2783882783882783, 0.5625, 0.3125, -1.1875, 0.0
1046, -1.5714285714285714, -1.7863247863247864, -1.468864468864469, 0.6875, -0.0625, -0.9375, 0.0
1047, -0.9401709401709402, -1.6923076923076923, -1.4884004884004884, 0.59375, -0.0625, -0.96875, 0.0
1048, -1.9511599511599511, -1.1465201465201464, -1.6373626373626373, 0.25, 0.21875, -1.1875, 0.0
1049, -2.2844932844932844, -0.7435897435897436, -1.072039072039072, 0.15625, 0.5625, -1.1875, 0.0
1050, -1.9511599511599511, -0.796092796092796, -0.7912087912087912, 0.21875, 0.21875, -0.9375, 0.0
1051, -2.462759462759463, -0.44078144078144077, -0.8302808302808303, 0.15625, -0.09375, -0.71875, 0.0
1052, -2.1526251526251525, -0.2515262515262515, -0.7142857142857143, 0.03125, 0.125, -0.5625, 0.0
1053, -1.3956043956043955, -0.47741147741147744, -0.32112332112332115, -0.0625, 0.34375, -0.53125, 0.0
1054, -1.514041514041514, -0.2600732600732601, -0.3443223443223443, -0.0625, 0.0, -0.34375, 0.0
1055, -1.6166056166056166, -0.1111111111111111, -0.25396825396825395, -0.09375, -0.21875, -0.125, 0.0
1056, -1.0561660561660562, -0.23809523809523808, -0.15018315018315018, -0.28125, -0.34375, 0.0, 0.0
1057, -0.9267399267399268, -0.38217338217338215, -0.2967032967032967, -0.4375, -0.40625, 0.0, 0.0
1058, -0.7118437118437119, -0.23809523809523808, -0.47985347985347987, -0.1875, -0.375, 0.15625, 0.0
1059, -0.645909645909646, -0.10012210012210013, -0.6117216117216118, 0.09375, 0.0, 0.21875, 0.0
1060, 0.19413919413919414, -0.3235653235653236, -0.6324786324786325, 0.21875, 0.28125, 0.21875, 0.0
1061, 1.0134310134310134, -0.7509157509157509, -0.6092796092796092, 0.03125, 0.15625, 0.15625, 0.0
1062, 1.05006105006105, -0.6251526251526252, -0.21978021978021978, 0.0, -0.0625, 0.1875, 0.0
1063, 0.4590964590964591, -0.07936507936507936, 0.10134310134310134, 0.3125, -0.15625, 0.21875, 0.0
1064, -0.017094017094017096, 0.052503052503052504, 0.05982905982905983, 0.65625, 0.0625, 0.15625, 1.0
1065, 0.15506715506715507, -0.5152625152625152, -0.5335775335775336, 0.5, 0.46875, -0.03125, 1.0
1066, 0.5885225885225885, -0.27106227106227104, -0.7692307692307693, 0.09375, 0.40625, -0.125, 1.0
1067, 0.3052503052503053, -0.1978021978021978, -0.6483516483516484, -0.03125, -0.03125, 0.125, 1.0
1068, -0.7142857142857143, -0.09157509157509157, -1.0341880341880343, -0.15625, 0.0, 0.21875, 1.0
1069, -1.2344322344322345, -0.05616605616605617, -1.3687423687423688, -0.1875, 0.34375, 0.3125, 1.0
1070, -0.8327228327228328, -0.6764346764346765, -2.0671550671550674, -0.28125, 0.1875, 0.4375, 1.0
1071, -0.9316239316239316, -0.927960927960928, -2.758241758241758, -0.625, -0.0625, 0.5, 1.0
1072, -1.5811965811965811, -0.5897435897435898, -2.995115995115995, -0.84375, -0.09375, 0.53125, 1.0
1073, -2.7924297924297923, -0.047619047619047616, -2.9096459096459095, -0.75, -0.03125, 0.6875, 1.0
1074, -3.1648351648351647, 0.007326007326007326, -2.768009768009768, -0.75, 0.03125, 0.875, 1.0
1075, -2.8241758241758244, -0.08791208791208792, -2.21001221001221, -0.84375, -0.03125, 1.15625, 1.0
1076, -3.1416361416361416, -0.07448107448107448, -1.7167277167277166, -0.9375, -0.0625, 1.3125, 1.0
1077, -3.617826617826618, -0.006105006105006105, -0.5506715506715507, -0.9375, -0.03125, 1.6875, 1.0
1078, -4.115995115995116, -0.2148962148962149, -0.4358974358974359, -0.78125, -0.09375, 1.875, 1.0
1079, -2.877899877899878, -1.507936507936508, -0.6178266178266179, -0.71875, 0.0, 2.0625, 1.0
1080, -1.358974358974359, -2.456654456654457, -0.5164835164835165, -1.0, -0.34375, 2.28125, 1.0
1081, -1.5836385836385836, -2.131868131868132, -0.4371184371184371, -1.1875, -0.6875, 2.34375, 1.0
1082, -1.3943833943833943, -1.8192918192918193, -0.042735042735042736, -1.0625, -0.625, 2.4375, 1.0
1083, -0.9023199023199023, -1.7533577533577533, 0.6202686202686203, -0.78125, -0.5, 2.4375, 1.0
1084, -0.44078144078144077, -2.05006105006105, 0.746031746031746, -0.75, -0.625, 2.4375, 1.0
1085, -1.2612942612942613, -1.9413919413919414, 0.3540903540903541, -0.75, -0.875, 2.5, 1.0
1086, -1.1721611721611722, -2.4786324786324787, 0.27350427350427353, -0.65625, -0.875, 2.65625, 1.0
1087, 0.7362637362637363, -3.1465201465201464, 0.3247863247863248, -0.59375, -0.875, 2.78125, 1.0
1088, 1.601953601953602, -2.907203907203907, 0.6715506715506715, -0.4375, -1.125, 2.6875, 1.0
1089, 0.8266178266178266, -3.1904761904761907, -0.06471306471306472, -0.125, -1.21875, 2.53125, 1.0
1090, 0.1330891330891331, -3.4285714285714284, -0.7216117216117216, -0.09375, -0.875, 2.375, 1.0
1091, 0.16727716727716727, -3.208791208791209, -0.5628815628815629, -0.21875, -0.5625, 2.375, 1.0
1092, 0.3137973137973138, -3.3028083028083026, -0.44932844932844934, -0.15625, -0.625, 2.53125, 1.0
1093, 0.4896214896214896, -3.800976800976801, -0.4371184371184371, 0.0, -0.71875, 2.59375, 1.0
1094, 0.7264957264957265, -3.943833943833944, -0.34798534798534797, -0.15625, -0.5625, 2.46875, 1.0
1095, 1.0769230769230769, -3.9108669108669107, -0.1855921855921856, -0.25, -0.1875, 2.34375, 1.0
1096, 1.2197802197802199, -3.4175824175824174, -0.013431013431013432, -0.1875, 0.0, 2.34375, 1.0
1097, 1.6007326007326008, -3.6483516483516483, 0.07326007326007326, -0.03125, -0.21875, 2.5, 1.0
1098, 1.750915750915751, -4.006105006105006, -0.3882783882783883, -0.0625, -0.28125, 2.5, 1.0
1099, 2.282051282051282, -4.2686202686202686, -0.5347985347985348, -0.3125, -0.15625, 2.28125, 1.0
1100, 2.7826617826617825, -4.079365079365079, -0.4261294261294261, -0.1875, 0.0625, 2.09375, 1.0
1101, 3.271062271062271, -3.4188034188034186, -0.6898656898656899, -0.125, 0.0, 1.90625, 1.0
1102, 2.2747252747252746, -2.4395604395604398, -0.5726495726495726, -0.15625, 0.125, 1.8125, 1.0
1103, 2.191697191697192, -1.8156288156288156, -0.12698412698412698, -0.15625, 0.28125, 1.6875, 1.0
1104, 2.5873015873015874, -1.2967032967032968, 0.5921855921855922, -0.03125, 0.03125, 1.59375, 1.0
1105, 2.1587301587301586, -1.1428571428571428, 0.1684981684981685, 0.09375, -0.15625, 1.46875, 1.0
1106, 2.4761904761904763, -1.5555555555555556, -0.7167277167277167, 0.1875, -0.1875, 1.375, 1.0
1107, 2.547008547008547, -1.4444444444444444, -1.1526251526251525, 0.125, 0.125, 1.1875, 1.0
1108, 3.5946275946275947, -1.722832722832723, -0.5311355311355311, -0.09375, 0.21875, 0.90625, 1.0
1109, 4.072039072039072, -0.894993894993895, 0.27228327228327226, -0.09375, 0.0, 0.65625, 1.0
1110, 3.4053724053724053, -0.9072039072039072, 0.27594627594627597, -0.09375, -0.09375, 0.5625, 1.0
1111, 2.554334554334554, -0.9181929181929182, 0.07081807081807082, -0.09375, 0.0, 0.4375, 1.0
1112, 2.8656898656898657, -0.38705738705738707, 0.5531135531135531, 0.0, 0.0, 0.25, 1.0
1113, 2.5982905982905984, -0.28327228327228327, 0.5177045177045178, 0.125, -0.15625, 0.1875, 1.0
1114, 0.9194139194139194, -0.14896214896214896, 0.42002442002442003, 0.125, -0.03125, 0.1875, 1.0
1115, 0.7802197802197802, -0.6007326007326007, 0.3504273504273504, -0.0625, 0.15625, 0.15625, 1.0
1116, 1.706959706959707, -0.645909645909646, 1.0012210012210012, -0.1875, -0.09375, 0.0, 1.0
1117, 1.7252747252747254, -1.0134310134310134, 1.0256410256410255, -0.1875, -0.3125, -0.15625, 1.0
1118, 1.3076923076923077, -1.3919413919413919, 0.09401709401709402, -0.375, -0.1875, -0.40625, 0.0
1119, 1.3907203907203907, -1.3858363858363858, -0.5042735042735043, -0.5625, -0.15625, -0.5625, 0.0
1120, 1.352869352869353, -1.253968253968254, -0.4884004884004884, -0.59375, -0.1875, -0.6875, 0.0
1121, 1.9987789987789988, -1.7728937728937728, -0.15384615384615385, -0.5625, -0.3125, -0.75, 0.0
1122, 1.78998778998779, -1.5873015873015872, 0.19536019536019536, -0.28125, -0.28125, -0.84375, 0.0
1123, 2.1306471306471306, -2.1941391941391943, 0.014652014652014652, -0.125, -0.1875, -0.84375, 0.0
1124, 3.0671550671550674, -2.6727716727716726, 0.4249084249084249, -0.0625, -0.25, -1.03125, 0.0
1125, 2.4652014652014653, -3.0634920634920637, 0.1330891330891331, -0.125, 0.03125, -1.46875, 0.0
1126, 1.6507936507936507, -3.3333333333333335, -0.8864468864468864, -0.25, 0.0625, -1.71875, 0.0
1127, 0.9242979242979243, -3.5714285714285716, -0.27594627594627597, -0.34375, 0.1875, -1.84375, 0.0
1128, 1.2942612942612943, -3.1172161172161172, 0.5726495726495726, -0.4375, 0.5, -1.9375, 0.0
1129, 1.2564102564102564, -2.5885225885225887, 0.398046398046398, -0.375, 0.34375, -2.1875, 0.0
1130, -0.23076923076923078, -2.272283272283272, -0.15262515262515264, -0.1875, -0.09375, -2.125, 0.0
1131, -1.0525030525030525, -2.8754578754578755, -0.6153846153846154, -0.125, -0.03125, -2.125, 0.0
1132, -1.1355311355311355, -2.391941391941392, -0.3724053724053724, -0.28125, 0.53125, -2.28125, 0.0
1133, -1.15995115995116, -1.9377289377289377, 0.06837606837606838, -0.3125, 0.84375, -2.5, 0.0
1134, -1.606837606837607, -2.087912087912088, 0.08791208791208792, -0.1875, 0.71875, -2.5, 0.0
1135, -1.9694749694749696, -2.126984126984127, 0.33943833943833945, -0.125, 0.5625, -2.375, 0.0
1136, -2.9792429792429793, -1.225885225885226, 0.3162393162393162, -0.125, 0.6875, -2.21875, 0.0
1137, -2.774114774114774, -1.3296703296703296, 0.19291819291819293, 0.09375, 1.1875, -2.3125, 0.0
1138, -2.4346764346764345, -1.6886446886446886, 0.15995115995115994, 0.40625, 1.25, -2.3125, 0.0
1139, -2.832722832722833, -1.7252747252747254, -0.4163614163614164, 0.625, 1.0625, -2.15625, 0.0
1140, -2.462759462759463, -2.0903540903540905, -1.0940170940170941, 0.71875, 0.96875, -2.0, 0.0
1141, -2.2967032967032965, -2.1355311355311355, -1.3247863247863247, 0.53125, 0.90625, -2.03125, 0.0
1142, -3.8119658119658117, -1.2612942612942613, -1.3443223443223444, 0.3125, 1.28125, -2.21875, 0.0
1143, -3.608058608058608, -0.525030525030525, -0.3907203907203907, 0.40625, 1.84375, -2.125, 0.0
1144, -1.6056166056166057, -0.9865689865689866, 0.6227106227106227, 0.59375, 1.84375, -1.84375, 0.0
1145, -0.702075702075702, -1.7863247863247864, 0.26495726495726496, 0.625, 1.125, -1.6875, 0.0
1146, -1.6495726495726495, -1.6080586080586081, -0.3137973137973138, 0.5625, 0.46875, -1.71875, 0.0
1147, -2.1965811965811968, -1.4273504273504274, -0.45665445665445664, 0.59375, 0.5625, -1.75, 0.0
1148, -1.8693528693528694, -1.2466422466422467, -0.06105006105006105, 0.59375, 1.0625, -1.84375, 0.0
1149, -2.0964590964590966, -1.1123321123321124, -0.24297924297924298, 0.71875, 1.09375, -1.84375, 0.0
1150, -3.0720390720390722, -1.336996336996337, -1.326007326007326, 0.8125, 0.40625, -1.5625, 0.0
1151, -4.034188034188034, -1.3174603174603174, -2.5775335775335777, 0.75, 0.21875, -1.28125, 0.0
1152, -3.8412698412698414, -1.5970695970695972, -2.934065934065934, 0.375, 0.4375, -1.1875, 0.0
1153, -2.6312576312576312, -1.2881562881562882, -2.214896214896215, 0.0625, 0.59375, -1.125, 0.0
1154, -0.9169719169719169, -0.6105006105006106, -1.1074481074481075, 0.0, 0.21875, -1.03125, 0.0
1155, -0.9975579975579976, 0.21611721611721613, -0.1746031746031746, 0.1875, -0.03125, -1.0625, 0.0
1156, -1.5372405372405373, 0.28083028083028083, -0.3137973137973138, 0.53125, 0.09375, -1.03125, 0.0
1157, -0.938949938949939, -0.6495726495726496, -0.9462759462759462, 0.625, 0.125, -1.03125, 0.0
1158, -0.8205128205128205, -1.4004884004884004, -1.5665445665445665, 0.40625, 0.09375, -1.0625, 0.0
1159, -1.5970695970695972, -1.0903540903540903, -1.6336996336996337, 0.28125, 0.21875, -1.03125, 0.0
1160, -2.1013431013431014, -0.47496947496947495, -1.3492063492063493, 0.34375, 0.3125, -0.90625, 0.0
1161, -1.6947496947496947, -0.42857142857142855, -0.8791208791208791, 0.3125, 0.21875, -0.75, 0.0
1162, -1.4700854700854702, -0.717948717948718, -0.7545787545787546, 0.15625, -0.03125, -0.65625, 0.0
1163, -2.4957264957264957, -0.6593406593406593, -1.5042735042735043, 0.03125, -0.09375, -0.46875, 0.0
1164, -2.758241758241758, -0.47496947496947495, -1.7374847374847375, 0.0, 0.03125, -0.25, 0.0
1165, -2.0488400488400487, -0.115995115995116, -1.3247863247863247, 0.0, 0.1875, -0.0625, 0.0
1166, -0.6837606837606838, -0.17704517704517705, -0.7362637362637363, -0.15625, 0.0, 0.09375, 0.0
1167, -0.4004884004884005, -0.09035409035409035, -0.1391941391941392, -0.125, -0.15625, 0.125, 0.0
1168, -0.30036630036630035, -0.09523809523809523, 0.026862026862026864, 0.03125, -0.09375, 0.21875, 0.0
1169, 0.1562881562881563, -0.5567765567765568, -0.17216117216117216, 0.0625, 0.0, 0.25, 0.0
1170, 0.9047619047619048, -0.8559218559218559, -0.10012210012210013, 0.0, 0.0, 0.1875, 0.0
1171, 1.2417582417582418, -0.9829059829059829, 0.009768009768009768, 0.03125, -0.03125, 0.0625, 1.0
1172, 0.6862026862026862, -0.28205128205128205, 0.17094017094017094, 0.21875, 0.0, 0.03125, 1.0
1173, 0.652014652014652, 0.2698412698412698, 1.0964590964590966, 0.75, -0.0625, 0.15625, 1.0
1174, 0.7142857142857143, 0.17826617826617827, 0.645909645909646, 0.6875, -0.0625, 0.125, 1.0
1175, 0.030525030525030524, -0.8876678876678876, -1.315018315018315, -0.03125, 0.28125, -0.03125, 1.0
1176, -0.40293040293040294, -0.11233211233211234, -0.590964590964591, -0.8125, 0.25, -0.03125, 1.0
1177, -1.7606837606837606, 0.6288156288156288, -0.4468864468864469, -0.6875, -0.09375, 0.09375, 1.0
1178, -2.7936507936507935, 0.43101343101343104, -1.8803418803418803, -0.1875, -0.09375, 0.375, 1.0
1179, -2.4835164835164836, -0.31013431013431014, -2.507936507936508, 0.0, 0.0, 0.59375, 1.0
1180, -2.028083028083028, -0.7252747252747253, -2.912087912087912, -0.25, 0.0, 0.8125, 1.0
1181, -1.956043956043956, -0.463980463980464, -2.9194139194139193, -0.625, -0.125, 0.9375, 1.0
1182, -2.0268620268620268, -0.14163614163614163, -2.5128205128205128, -0.875, -0.3125, 1.1875, 1.0
1183, -2.5115995115995116, 0.27594627594627597, -1.7472527472527473, -0.78125, -0.34375, 1.34375, 1.0
1184, -2.9194139194139193, 0.1575091575091575, -1.4114774114774116, -0.59375, -0.125, 1.46875, 1.0
1185, -2.183150183150183, -1.017094017094017, -1.9438339438339438, -0.625, 0.09375, 1.59375, 1.0
1186, -1.9694749694749696, -1.249084249084249, -1.9536019536019535, -1.0, -0.375, 1.84375, 1.0
1187, -3.294261294261294, -0.5128205128205128, -1.6752136752136753, -1.09375, -0.65625, 2.0625, 1.0
1188, -3.1538461538461537, -0.6336996336996337, -1.465201465201465, -0.78125, -0.3125, 2.25, 1.0
1189, -3.4297924297924296, -0.9743589743589743, -1.1636141636141637, -0.59375, 0.09375, 2.21875, 1.0
1190, -1.5970695970695972, -2.557997557997558, -0.9108669108669109, -0.75, 0.375, 2.3125, 1.0
1191, -0.12087912087912088, -2.9194139194139193, -0.0757020757020757, -1.15625, -0.375, 2.46875, 1.0
1192, -0.17216117216117216, -3.021978021978022, 0.27594627594627597, -1.3125, -1.0625, 2.625, 1.0
1193, -0.34676434676434675, -2.78021978021978, 0.7692307692307693, -1.0, -0.8125, 2.5625, 1.0
1194, -0.63003663003663, -3.0720390720390722, 0.15873015873015872, -0.6875, -0.25, 2.25, 1.0
1195, 0.02442002442002442, -3.404151404151404, 0.0231990231990232, -0.6875, -0.09375, 2.1875, 1.0
1196, 0.06105006105006105, -3.3443223443223444, 0.6422466422466423, -0.875, -0.78125, 2.375, 1.0
1197, -0.6471306471306472, -3.463980463980464, 1.1953601953601953, -0.6875, -1.0625, 2.5625, 1.0
1198, 0.115995115995116, -3.7313797313797314, 1.3345543345543345, -0.1875, -0.53125, 2.5625, 1.0
1199, 0.9914529914529915, -4.184371184371185, 0.6349206349206349, -0.0625, -0.1875, 2.3125, 1.0
1200, 0.1916971916971917, -3.8705738705738706, -0.37606837606837606, -0.375, -0.15625, 2.03125, 1.0
1201, 0.304029304029304, -3.84004884004884, -0.6105006105006106, -0.46875, -0.375, 2.25, 1.0
1202, 1.3821733821733821, -4.543345543345543, -0.2600732600732601, -0.34375, -0.625, 2.40625, 1.0
1203, 2.8522588522588523, -4.880341880341881, 0.05982905982905983, -0.15625, -0.5625, 2.25, 1.0
1204, 2.901098901098901, -4.829059829059829, -0.6654456654456654, -0.15625, -0.34375, 1.9375, 1.0
1205, 2.5604395604395602, -4.094017094017094, -0.9719169719169719, -0.34375, -0.40625, 1.71875, 1.0
1206, 1.291819291819292, -2.7643467643467643, -0.6092796092796092, -0.34375, -0.5, 1.75, 1.0
1207, 0.6556776556776557, -2.3894993894993894, -0.3894993894993895, -0.28125, -0.40625, 1.78125, 1.0
1208, 0.221001221001221, -2.271062271062271, -0.0989010989010989, -0.25, -0.0625, 1.71875, 1.0
1209, 1.1428571428571428, -2.1746031746031744, 0.358974358974359, -0.1875, 0.0, 1.6875, 1.0
1210, 0.7851037851037851, -2.061050061050061, 0.7106227106227107, -0.03125, -0.21875, 1.71875, 1.0
1211, 0.717948717948718, -2.214896214896215, 0.24175824175824176, 0.0, -0.125, 1.78125, 1.0
1212, 1.326007326007326, -2.3846153846153846, -0.3528693528693529, -0.0625, 0.0625, 1.6875, 1.0
1213, 2.0195360195360195, -2.3968253968253967, -0.18437118437118438, -0.15625, 0.0625, 1.53125, 1.0
1214, 2.4297924297924296, -1.7619047619047619, 0.4822954822954823, -0.15625, -0.1875, 1.375, 1.0
1215, 1.1196581196581197, -1.2625152625152625, -0.11843711843711843, -0.09375, -0.0625, 1.375, 1.0
1216, 1.6349206349206349, -1.4615384615384615, -0.6788766788766789, -0.09375, 0.25, 1.40625, 1.0
1217, 3.05006105006105, -1.8327228327228327, -0.5592185592185592, -0.1875, 0.40625, 1.09375, 1.0
1218, 3.098901098901099, -1.2967032967032968, -0.14896214896214896, -0.1875, 0.34375, 0.84375, 1.0
1219, 2.010989010989011, -0.706959706959707, -0.05616605616605617, -0.09375, 0.4375, 0.78125, 1.0
1220, 2.9804639804639805, -1.065934065934066, -0.07448107448107448, -0.125, 0.4375, 0.65625, 1.0
1221, 3.1355311355311355, -0.8632478632478633, -0.11843711843711843, -0.25, 0.28125, 0.40625, 1.0
1222, 2.583638583638584, -0.43956043956043955, -0.2026862026862027, -0.25, 0.03125, 0.25, 1.0
1223, 0.8791208791208791, -0.10622710622710622, -0.5335775335775336, -0.25, 0.21875, 0.25, 1.0
1224, 0.9914529914529915, 0.03540903540903541, 0.3052503052503053, -0.21875, 0.0, 0.21875, 1.0
1225, 0.21855921855921856, -0.24053724053724054, 0.11233211233211234, -0.1875, -0.1875, 0.1875, 1.0
1226, 0.09035409035409035, -0.27350427350427353, 0.2893772893772894, -0.1875, -0.09375, 0.15625, 1.0
1227, 0.5018315018315018, -0.4908424908424908, 0.6886446886446886, -0.21875, -0.03125, 0.09375, 1.0
1228, 0.6495726495726496, -0.5396825396825397, 0.7435897435897436, -0.375, -0.21875, -0.03125, 1.0
1229, 0.30158730158730157, -0.4713064713064713, 0.047619047619047616, -0.5, -0.4375, -0.15625, 0.0
1230, 0.19291819291819293, -0.7081807081807082, -0.42735042735042733, -0.5, -0.4375, -0.25, 0.0
1231, 0.3137973137973138, -0.9511599511599511, -0.2979242979242979, -0.4375, -0.21875, -0.3125, 0.0
1232, 1.2405372405372406, -0.9304029304029304, 0.2673992673992674, -0.375, 0.09375, -0.40625, 0.0
1233, 2.1367521367521367, -1.021978021978022, 0.6105006105006106, -0.1875, 0.0, -0.5625, 0.0
1234, 1.73992673992674, -1.2857142857142858, 0.2796092796092796, 0.0, -0.34375, -0.78125, 0.0
1235, 0.9816849816849816, -1.3907203907203907, -0.2954822954822955, 0.0, -0.46875, -0.875, 0.0
1236, 1.2442002442002442, -1.9633699633699633, -1.0671550671550671, 0.03125, -0.15625, -0.875, 0.0
1237, 1.8266178266178266, -2.7142857142857144, -1.343101343101343, 0.03125, 0.09375, -0.96875, 0.0
1238, 2.010989010989011, -2.750915750915751, -0.7142857142857143, -0.0625, 0.28125, -1.21875, 0.0
1239, 2.3907203907203907, -2.761904761904762, -0.16727716727716727, -0.21875, 0.28125, -1.5625, 0.0
1240, 1.691086691086691, -2.808302808302808, -0.07814407814407814, -0.375, -0.0625, -1.8125, 0.0
1241, 0.14407814407814407, -2.8547008547008548, -0.1452991452991453, -0.53125, -0.21875, -1.875, 0.0
