timestamp, accX, accY, accZ, gyroX, gyroY, gyroZ, button
648, -0.304029304029304, 0.1978021978021978, 0.1746031746031746, 0.0625, 0.15625, 0.03125, 0.0
649, -0.21367521367521367, 0.15995115995115994, 0.27594627594627597, 0.09375, 0.15625, 0.0625, 0.0
650, -0.2026862026862027, 0.115995115995116, 0.34798534798534797, 0.125, 0.15625, 0.03125, 0.0
1, -0.09157509157509157, 0.09523809523809523, 0.2039072039072039, 0.15625, 0.15625, 0.03125, 0.0
2, -0.03663003663003663, -0.03907203907203907, 0.05860805860805861, 0.15625, 0.0625, 0.0625, 0.0
3, 0.057387057387057384, -0.004884004884004884, -0.15506715506715507, 0.125, 0.0, 0.03125, 0.0
4, 0.07081807081807082, -0.19413919413919414, -0.3125763125763126, 0.0625, -0.0625, 0.03125, 0.0
5, 0.17216117216117216, -0.09768009768009768, -0.5128205128205128, 0.09375, -0.09375, 0.0, 0.0
6, -0.07814407814407814, -0.16605616605616605, -0.6532356532356532, 0.09375, -0.0625, 0.0, 0.0
7, 0.02442002442002442, -0.08547008547008547, -0.5177045177045178, 0.03125, 0.03125, 0.0, 0.0
8, -0.003663003663003663, 0.10622710622710622, -0.21978021978021978, 0.0, 0.09375, 0.0, 0.0
9, 0.12576312576312576, 0.06105006105006105, -0.13797313797313798, 0.0, 0.03125, 0.0, 0.0
10, 0.009768009768009768, 0.14652014652014653, -0.020757020757020756, 0.0, -0.03125, -0.03125, 0.0
11, -0.12942612942612944, 0.1746031746031746, -0.006105006105006105, 0.0, -0.03125, -0.03125, 0.0
12, -0.2661782661782662, 0.29426129426129427, 0.14163614163614163, 0.0, 0.0, 0.0, 0.0
13, -0.15995115995115994, 0.29914529914529914, 0.1282051282051282, 0.03125, 0.03125, 0.03125, 0.0
14, -0.013431013431013432, 0.15506715506715507, 0.13553113553113552, 0.0625, 0.03125, 0.03125, 0.0
15, 0.02442002442002442, 0.05616605616605617, -0.019536019536019536, 0.0625, 0.0, 0.0625, 0.0
16, 0.15995115995115994, -0.03296703296703297, -0.052503052503052504, 0.03125, 0.0, 0.03125, 0.0
17, 0.020757020757020756, 0.008547008547008548, -0.0927960927960928, 0.0, 0.0, 0.03125, 0.0
18, 0.0231990231990232, 0.09523809523809523, 0.0463980463980464, 0.0, 0.0, 0.0625, 0.0
19, 0.003663003663003663, 0.07326007326007326, 0.03418803418803419, 0.0625, 0.03125, 0.09375, 0.0
20, 0.1221001221001221, -0.004884004884004884, -0.06227106227106227, 0.0625, 0.03125, 0.0625, 0.0
21, 0.11477411477411477, -0.018315018315018316, -0.16605616605616605, 0.03125, 0.0, 0.03125, 0.0
22, 0.040293040293040296, 0.047619047619047616, -0.08669108669108669, 0.0, 0.0, 0.0, 0.0
23, 0.014652014652014652, 0.05616605616605617, -0.057387057387057384, 0.03125, 0.0, 0.03125, 0.0
24, -0.09401709401709402, 0.1111111111111111, 0.03418803418803419, 0.03125, 0.0, 0.0, 0.0
25, -0.03540903540903541, -0.019536019536019536, -0.08791208791208792, 0.03125, 0.0, 0.03125, 0.0
26, 0.07448107448107448, 0.030525030525030524, -0.10866910866910867, 0.0, 0.0, 0.03125, 0.0
27, 0.03663003663003663, 0.01221001221001221, -0.10744810744810745, 0.0, -0.03125, 0.03125, 0.0
28, -0.030525030525030524, 0.05982905982905983, -0.040293040293040296, 0.0, -0.03125, 0.0, 0.0
29, 0.03418803418803419, 0.0231990231990232, -0.06105006105006105, 0.0, -0.03125, 0.03125, 0.0
30, -0.03540903540903541, 0.09157509157509157, 0.07936507936507936, 0.0, 0.0, 0.03125, 0.0
31, 0.01221001221001221, 0.040293040293040296, -0.014652014652014652, 0.03125, 0.0, 0.0625, 0.0
32, 0.06471306471306472, 0.04151404151404151, -0.026862026862026864, 0.03125, 0.0625, 0.0625, 0.0
33, 0.20024420024420025, -0.0757020757020757, -0.06227106227106227, 0.0, 0.0, 0.03125, 0.0
34, 0.06837606837606838, 0.0231990231990232, -0.10134310134310134, 0.0, -0.03125, 0.0, 0.0
35, 0.03540903540903541, 0.002442002442002442, -0.14896214896214896, 0.0, -0.0625, 0.0, 0.0
36, 0.008547008547008548, 0.013431013431013432, -0.24786324786324787, 0.0, 0.0, 0.0, 0.0
37, 0.031746031746031744, -0.007326007326007326, -0.20024420024420025, 0.0, 0.0, 0.03125, 0.0
38, 0.02564102564102564, 0.017094017094017096, -0.1330891330891331, 0.0, 0.03125, 0.03125, 0.0
39, 0.04884004884004884, 0.07692307692307693, 0.001221001221001221, 0.0, 0.0, 0.03125, 0.0
40, 0.031746031746031744, 0.07203907203907203, 0.01098901098901099, 0.0, 0.0, 0.0, 0.0
41, 0.0231990231990232, 0.03296703296703297, -0.017094017094017096, 0.0, -0.03125, 0.0, 0.0
42, -0.06715506715506715, 0.08424908424908426, 0.03907203907203907, -0.03125, 0.0, 0.0, 0.0
43, -0.07081807081807082, 0.1330891330891331, 0.14285714285714285, 0.0, 0.0, 0.0, 0.0
44, 0.1221001221001221, -0.0463980463980464, -0.002442002442002442, 0.03125, 0.0, 0.03125, 0.0
45, 0.03785103785103785, 0.0, -0.002442002442002442, 0.0, -0.03125, 0.0, 0.0
46, -0.045177045177045176, 0.13675213675213677, 0.13553113553113552, -0.03125, -0.0625, 0.0, 0.0
47, -0.0927960927960928, 0.18315018315018314, 0.21611721611721613, 0.0, -0.03125, 0.0, 0.0
48, -0.03540903540903541, 0.15018315018315018, 0.17094017094017094, 0.03125, -0.03125, 0.03125, 0.0
49, 0.050061050061050064, -0.06105006105006105, -0.03907203907203907, 0.0625, -0.03125, 0.0625, 0.0
50, 0.10256410256410256, -0.05860805860805861, -0.26373626373626374, 0.0, -0.09375, 0.09375, 0.0
51, 0.10866910866910867, -0.06715506715506715, -0.32112332112332115, -0.0625, -0.15625, 0.125, 0.0
52, 0.04151404151404151, 0.03785103785103785, -0.23076923076923078, -0.09375, -0.125, 0.09375, 0.0
53, 0.0463980463980464, -0.003663003663003663, -0.22832722832722832, -0.0625, -0.0625, 0.125, 0.0
54, 0.16727716727716727, -0.050061050061050064, -0.29426129426129427, -0.03125, -0.03125, 0.125, 0.0
55, 0.14652014652014653, -0.0463980463980464, -0.27350427350427353, -0.03125, 0.0, 0.0625, 0.0
56, 0.10012210012210013, -0.008547008547008548, -0.17338217338217338, -0.03125, 0.0, 0.03125, 0.0
57, 0.0231990231990232, 0.07936507936507936, -0.03540903540903541, 0.0, 0.0, 0.0, 0.0
58, 0.015873015873015872, 0.03785103785103785, -0.02564102564102564, 0.0, 0.0, 0.0, 0.0
59, -0.009768009768009768, 0.05860805860805861, 0.04151404151404151, 0.0, 0.0, 0.0, 0.0
60, -0.042735042735042736, 0.08302808302808302, 0.10378510378510379, 0.0, 0.0, -0.03125, 0.0
61, -0.03418803418803419, 0.07326007326007326, -0.009768009768009768, 0.03125, 0.0, 0.0, 0.0
62, 0.020757020757020756, -0.02197802197802198, -0.15018315018315018, 0.0, 0.0, 0.0, 0.0
63, -0.28205128205128205, -3.774114774114774, -0.2844932844932845, 0.09375, 0.0625, -0.03125, 0.0
64, -0.07936507936507936, -3.6788766788766787, -0.08669108669108669, 0.0625, 0.21875, -0.03125, 0.0
65, 0.46886446886446886, -3.7594627594627594, 0.21367521367521367, 0.0625, 0.125, -0.03125, 0.0
66, 0.08302808302808302, -3.7814407814407813, 0.199023199023199, 0.0625, 0.0625, 0.0, 0.0
67, -0.231990231990232, -3.6483516483516483, 0.03785103785103785, 0.09375, 0.15625, 0.0, 0.0
68, 0.07814407814407814, -3.656898656898657, 0.0, 0.125, 0.21875, 0.0, 0.0
69, -0.115995115995116, -3.5763125763125765, -0.06471306471306472, 0.0625, 0.28125, 0.0, 0.0
70, -0.28205128205128205, -3.614163614163614, -0.7338217338217338, 0.0, 0.46875, 0.0, 0.0
71, -0.0989010989010989, -3.84004884004884, -0.5396825396825397, -0.125, 0.5625, 0.0, 0.0
72, -0.16117216117216118, -3.490842490842491, -0.2588522588522589, -0.21875, 0.59375, 0.0, 0.0
73, 0.17216117216117216, -3.8583638583638584, -0.717948717948718, -0.09375, 0.6875, 0.03125, 0.0
74, 0.9597069597069597, -4.275946275946276, -1.525030525030525, -0.15625, 0.53125, 0.0625, 0.0
75, 0.43223443223443225, -4.233211233211233, -2.244200244200244, -0.375, 0.125, 0.0, 0.0
76, -0.818070818070818, -4.095238095238095, -3.6312576312576312, -0.5, 0.0, -0.03125, 0.0
77, -2.1343101343101343, -4.22954822954823, -5.645909645909646, -0.71875, 0.15625, -0.09375, 0.0
78, -3.0073260073260073, -5.661782661782662, -6.034188034188034, -1.28125, 0.5, 0.0, 0.0
79, -2.774114774114774, -6.130647130647131, -4.829059829059829, -2.46875, 1.0625, 0.3125, 0.0
80, -1.9230769230769231, -5.836385836385836, -2.7081807081807083, -3.5, 1.8125, 0.4375, 0.0
81, -1.757020757020757, -4.842490842490842, -1.2454212454212454, -3.875, 2.40625, 0.3125, 0.0
82, -1.503052503052503, -4.282051282051282, -0.4603174603174603, -3.5, 2.5625, 0.09375, 0.0
83, -0.9902319902319903, -4.357753357753357, 0.8986568986568987, -3.3125, 1.96875, 0.1875, 0.0
84, -0.8595848595848596, -3.5653235653235655, 1.7240537240537241, -2.9375, 1.1875, 0.25, 0.0
85, -1.442002442002442, -3.0891330891330893, 2.023199023199023, -2.4375, 0.4375, 0.375, 0.0
86, -1.9584859584859584, -2.5323565323565322, 1.5934065934065933, -1.90625, -0.34375, 0.4375, 0.0
87, -2.595848595848596, -3.752136752136752, 1.2356532356532357, -1.90625, -1.0, 0.71875, 0.0
88, -2.305250305250305, -4.151404151404152, 2.15995115995116, -2.03125, -1.4375, 0.96875, 0.0
89, -2.3797313797313797, -2.5115995115995116, 2.06959706959707, -1.5625, -1.5, 1.0625, 0.0
90, -2.7106227106227108, -2.045177045177045, 1.0207570207570207, -1.0625, -1.34375, 1.28125, 0.0
91, -3.4334554334554332, -2.554334554334554, 0.30158730158730157, -0.9375, -0.90625, 1.59375, 0.0
92, -2.94993894993895, -2.827838827838828, 0.2576312576312576, -1.03125, -0.34375, 1.8125, 0.0
93, 0.8217338217338217, -3.688644688644689, 0.8400488400488401, -1.875, -2.78125, 1.0625, 0.0
94, 0.4297924297924298, -2.7081807081807083, 1.3284493284493284, -2.5, -5.84375, 0.78125, 0.0
95, -2.7203907203907205, -1.6654456654456655, 2.1819291819291817, -2.875, -7.8125, 1.125, 0.0
96, -2.7387057387057387, 0.7496947496947497, 3.5921855921855923, -3.0625, -8.65625, 1.875, 0.0
97, -0.5641025641025641, 4.764346764346764, 5.083028083028083, -3.0, -9.125, 2.6875, 0.0
98, 0.14652014652014653, 1.3943833943833943, 5.423687423687424, -2.6875, -9.9375, 2.4375, 0.0
99, -1.0402930402930404, -0.4908424908424908, 5.362637362637362, -2.40625, -10.75, 1.3125, 0.0
100, -3.0085470085470085, -0.7167277167277167, 5.5677655677655675, -2.15625, -11.0, 0.09375, 0.0
101, -3.288156288156288, -0.8302808302808303, 5.124542124542124, -1.75, -10.8125, -0.4375, 0.0
102, -4.683760683760684, 0.2796092796092796, 3.31013431013431, -1.125, -9.96875, -0.15625, 0.0
103, -5.9914529914529915, 0.08180708180708181, 0.12942612942612944, -0.28125, -8.03125, 0.21875, 0.0
104, -6.181929181929182, -0.706959706959707, -2.399267399267399, 0.40625, -5.03125, 0.5, 0.0
105, -3.8595848595848596, -0.45787545787545786, -3.2173382173382175, 1.125, -1.59375, 1.3125, 0.0
106, -1.177045177045177, -0.7924297924297924, -3.526251526251526, 1.3125, -0.84375, 2.03125, 0.0
107, 1.7863247863247864, -1.4493284493284493, -3.8412698412698414, 1.15625, -1.375, 2.03125, 0.0
108, 4.710622710622711, -0.590964590964591, -4.964590964590965, 1.15625, -2.28125, 1.5, 0.0
109, 3.440781440781441, -1.061050061050061, -6.041514041514041, 1.09375, -2.53125, 1.0625, 0.0
110, 1.0561660561660562, 0.08302808302808302, -6.461538461538462, 1.15625, -1.6875, 0.9375, 0.0
111, 0.04884004884004884, 0.115995115995116, -5.747252747252747, 1.15625, -0.4375, 1.28125, 0.0
112, 0.5103785103785103, 0.42124542124542125, -4.225885225885226, 1.125, 0.375, 1.625, 0.0
113, 1.8827838827838828, 0.8742368742368742, -2.9096459096459095, 1.25, 0.53125, 1.75, 0.0
114, 2.9694749694749696, 0.63003663003663, -2.816849816849817, 1.28125, 0.1875, 1.5, 0.0
115, 4.406593406593407, 0.5213675213675214, -3.330891330891331, 1.15625, -0.375, 1.09375, 0.0
116, 3.583638583638584, -0.27106227106227104, -4.21978021978022, 0.71875, -0.65625, 0.46875, 0.0
117, 1.52014652014652, 0.8644688644688645, -3.2612942612942613, 0.25, 0.0, 0.40625, 0.0
118, 2.155067155067155, 0.8974358974358975, -2.625152625152625, 0.28125, 0.4375, 0.5, 0.0
119, 2.8131868131868134, 0.6336996336996337, -2.445665445665446, 0.28125, 0.46875, 0.375, 0.0
120, 2.503052503052503, 0.47619047619047616, -2.3003663003663, 0.15625, 0.4375, 0.1875, 0.0
121, 1.9474969474969475, 0.7704517704517705, -2.2515262515262515, 0.0, 0.53125, 0.0625, 0.0
122, 0.927960927960928, 1.1025641025641026, -2.432234432234432, 0.0, 0.96875, 0.125, 0.0
123, 0.6703296703296703, 1.4285714285714286, -2.750915750915751, 0.25, 1.75, 0.46875, 0.0
124, 1.413919413919414, 0.5543345543345544, -3.8058608058608057, 0.53125, 2.625, 0.8125, 0.0
125, 1.115995115995116, -0.24664224664224665, -4.631257631257632, 0.71875, 3.84375, 1.0625, 0.0
126, 3.0805860805860807, -0.9010989010989011, -4.023199023199023, 0.9375, 5.40625, 0.90625, 0.0
127, 4.968253968253968, -1.6593406593406594, -3.1452991452991452, 1.15625, 6.21875, 0.28125, 0.0
128, 5.554334554334554, -1.8315018315018314, -2.6727716727716726, 1.1875, 5.96875, -0.65625, 0.0
129, 4.638583638583639, -1.667887667887668, -2.728937728937729, 1.375, 6.0, -1.25, 0.0
130, 3.3223443223443225, -0.9975579975579976, -2.36996336996337, 1.90625, 6.6875, -1.6875, 0.0
131, 2.7777777777777777, -1.0390720390720392, -1.934065934065934, 2.375, 7.4375, -1.96875, 0.0
132, 2.2954822954822953, 0.6361416361416361, -1.098901098901099, 2.84375, 7.90625, -2.15625, 0.0
133, 2.78021978021978, 1.8083028083028083, -0.47619047619047616, 3.25, 7.59375, -2.46875, 0.0
134, 3.728937728937729, 2.098901098901099, -0.5702075702075702, 3.40625, 6.5625, -2.6875, 0.0
135, 2.5995115995115996, 1.0695970695970696, -0.6153846153846154, 3.5625, 5.75, -2.84375, 0.0
136, 1.8217338217338217, -1.459096459096459, -0.6190476190476191, 3.90625, 5.4375, -3.0, 0.0
137, 1.0940170940170941, -3.437118437118437, -0.73992673992674, 4.3125, 5.0, -3.25, 0.0
138, 1.2686202686202686, -5.284493284493284, -1.1343101343101343, 4.53125, 3.78125, -3.21875, 0.0
139, 0.0, -6.8791208791208796, -1.442002442002442, 4.46875, 2.625, -2.96875, 0.0
140, -1.4676434676434675, -6.941391941391942, -1.5457875457875458, 4.3125, 1.53125, -2.9375, 0.0
141, -2.271062271062271, -6.836385836385836, -1.6166056166056166, 4.15625, 0.875, -2.75, 0.0
142, -2.9963369963369964, -7.676434676434677, -1.5531135531135531, 4.0, 0.3125, -2.46875, 0.0
143, -3.673992673992674, -7.068376068376068, -1.9511599511599511, 3.9375, 0.0, -2.21875, 0.0
144, -4.067155067155067, -8.031746031746032, -2.1514041514041513, 3.9375, -0.1875, -2.09375, 0.0
145, -3.8131868131868134, -7.356532356532356, -2.017094017094017, 3.65625, -0.28125, -1.875, 0.0
146, -4.186813186813187, -6.741147741147741, -2.4249084249084247, 3.46875, -0.5, -1.6875, 0.0
147, -5.34065934065934, -6.583638583638583, -3.286935286935287, 3.4375, -0.8125, -1.4375, 0.0
148, -5.7765567765567765, -6.197802197802198, -4.1001221001221, 3.09375, -0.96875, -1.03125, 0.0
149, -5.741147741147741, -6.068376068376068, -4.608058608058608, 2.65625, -1.03125, -0.65625, 0.0
150, -5.007326007326007, -5.800976800976801, -4.6239316239316235, 1.8125, -1.0625, -0.1875, 0.0
151, -4.028083028083028, -5.21001221001221, -4.054945054945055, 0.78125, -0.90625, 0.125, 0.0
152, -1.2283272283272284, -5.018315018315018, -3.111111111111111, 0.34375, -0.59375, 0.125, 0.0
153, -0.3626373626373626, -4.609279609279609, -2.5946275946275947, 0.21875, -0.21875, 0.0, 0.0
154, 0.5323565323565324, -4.233211233211233, -2.1062271062271063, 0.125, -0.1875, 0.0, 0.0
155, 0.8962148962148963, -4.235653235653236, -1.4224664224664225, 0.0, -0.21875, 0.0, 0.0
156, 0.6214896214896215, -3.8803418803418803, -0.3833943833943834, -0.125, -0.28125, 0.0, 0.0
157, 0.5091575091575091, -3.385836385836386, 0.5641025641025641, -0.09375, -0.21875, -0.0625, 0.0
158, 0.21245421245421245, -3.568986568986569, 0.7350427350427351, 0.03125, -0.15625, -0.125, 0.0
159, 0.2271062271062271, -3.5885225885225887, 0.9218559218559218, 0.09375, -0.1875, -0.21875, 0.0
160, -0.3528693528693529, -3.7838827838827838, 0.5067155067155067, 0.09375, -0.25, -0.21875, 0.0
161, -0.9010989010989011, -3.658119658119658, 0.24175824175824176, 0.0, -0.21875, -0.15625, 0.0
162, -0.8400488400488401, -3.656898656898657, 0.23565323565323565, 0.0, -0.09375, -0.09375, 0.0
163, -0.1807081807081807, -3.468864468864469, 0.054945054945054944, 0.1875, 0.03125, -0.0625, 0.0
164, 0.017094017094017096, -3.700854700854701, -0.17338217338217338, 0.125, 0.0, 0.0, 0.0
165, -0.10378510378510379, -3.796092796092796, -0.29426129426129427, 0.0625, 0.0, 0.0, 0.0
166, -0.13186813186813187, -3.6336996336996337, -0.11965811965811966, 0.0, 0.0, 0.03125, 0.0
167, 0.06105006105006105, -3.6837606837606836, -0.0463980463980464, 0.125, 0.125, 0.0, 0.0
168, 0.6984126984126984, -3.7191697191697193, 0.16361416361416362, 0.09375, 0.21875, -0.03125, 0.0
169, 0.6092796092796092, -3.5567765567765566, 0.16971916971916973, 0.0, 0.125, -0.0625, 0.0
170, 0.32112332112332115, -3.5103785103785103, 0.15018315018315018, -0.03125, 0.0, -0.03125, 0.0
171, 0.1623931623931624, -3.583638583638584, 0.22832722832722832, 0.0, -0.09375, -0.03125, 0.0
172, 0.11721611721611722, -3.5396825396825395, 0.24297924297924298, 0.03125, -0.09375, -0.09375, 0.0
173, 0.03540903540903541, -3.6117216117216118, 0.08180708180708181, 0.0625, -0.03125, -0.125, 0.0
174, -0.30036630036630035, -3.619047619047619, -0.13553113553113552, 0.03125, 0.0, -0.09375, 0.0
175, -0.5470085470085471, -3.711843711843712, -0.4261294261294261, -0.09375, 0.0, 0.0, 0.0
176, -0.44078144078144077, -3.5775335775335777, -0.14652014652014653, -0.09375, 0.0, 0.0, 0.0
177, -0.20146520146520147, -3.6373626373626373, 0.0231990231990232, -0.03125, 0.0, 0.03125, 0.0
178, -0.16605616605616605, -3.6263736263736264, 0.003663003663003663, 0.0, 0.03125, 0.0625, 0.0
179, -0.10012210012210013, -3.659340659340659, -0.08547008547008547, -0.03125, 0.0625, 0.03125, 0.0
180, 0.2857142857142857, -3.612942612942613, 0.06593406593406594, -0.0625, 0.03125, 0.0, 0.0
181, 0.304029304029304, -3.700854700854701, 0.20024420024420025, -0.0625, 0.0, 0.0, 0.0
182, 0.4175824175824176, -3.184371184371184, 0.4297924297924298, 0.09375, -0.03125, -0.03125, 0.0
183, 0.018315018315018316, -3.312576312576313, 0.03785103785103785, 0.1875, -0.125, -0.03125, 0.0
184, -0.3333333333333333, -3.358974358974359, -0.3333333333333333, 0.15625, -0.15625, 0.0, 0.0
185, -0.5286935286935287, -3.6654456654456653, -0.7081807081807082, 0.03125, -0.21875, 0.09375, 0.0
186, -0.7692307692307693, -3.6923076923076925, -0.9072039072039072, -0.15625, -0.125, 0.1875, 0.0
187, -0.9413919413919414, -4.069597069597069, -0.5164835164835165, -0.1875, -0.09375, 0.1875, 0.0
188, -1.0793650793650793, -4.655677655677656, -0.7081807081807082, -0.1875, -0.25, 0.28125, 0.0
189, -1.8461538461538463, -4.948717948717949, -1.2893772893772895, -0.28125, -0.65625, 0.46875, 0.0
190, -2.9157509157509156, -5.346764346764346, -1.7765567765567765, -0.46875, -1.34375, 0.6875, 0.0
191, -4.43956043956044, -5.714285714285714, -1.9511599511599511, -0.875, -2.5, 1.0625, 0.0
192, -6.311355311355311, -6.05982905982906, -1.6935286935286935, -1.4375, -3.84375, 1.5625, 0.0
193, -7.644688644688645, -6.271062271062271, -0.8424908424908425, -2.03125, -5.125, 2.1875, 0.0
194, -8.97924297924298, -6.286935286935287, 0.5897435897435898, -2.5, -6.09375, 2.84375, 0.0
195, -10.008547008547009, -5.73015873015873, 1.5763125763125763, -2.65625, -6.3125, 3.53125, 0.0
196, -9.93040293040293, -5.605616605616605, 1.8925518925518925, -2.28125, -5.59375, 4.3125, 0.0
197, -7.0927960927960925, -6.518925518925519, 2.1575091575091574, -1.8125, -4.6875, 4.96875, 0.0
198, -3.578754578754579, -6.183150183150183, 2.3516483516483517, -1.4375, -4.90625, 5.5, 0.0
199, -0.10500610500610501, -6.456654456654457, 1.9316239316239316, -1.125, -5.5, 5.09375, 0.0
200, 1.7655677655677655, -5.818070818070818, 1.5018315018315018, -0.875, -6.03125, 4.375, 0.0
201, 2.5750915750915753, -4.913308913308914, -0.06349206349206349, -0.375, -5.90625, 3.84375, 0.0
202, 1.547008547008547, -4.518925518925519, -0.9255189255189256, 0.0, -5.46875, 3.28125, 0.0
203, 1.0158730158730158, -3.761904761904762, -0.40415140415140416, 0.0625, -5.34375, 2.78125, 0.0
204, -0.040293040293040296, -2.918192918192918, -0.6507936507936508, 0.46875, -4.84375, 2.25, 0.0
205, -0.8058608058608059, -3.404151404151404, -2.4493284493284495, 0.9375, -3.9375, 2.09375, 0.0
206, 0.6666666666666666, -4.0195360195360195, -4.374847374847374, 1.0, -3.34375, 2.21875, 0.0
207, 1.2136752136752136, -4.017094017094017, -5.527472527472527, 0.75, -2.78125, 2.1875, 0.0
208, 1.4065934065934067, -2.8998778998779, -5.156288156288157, 0.625, -2.34375, 2.0625, 0.0
209, 1.037851037851038, -1.877899877899878, -4.926739926739927, 0.84375, -1.84375, 1.8125, 0.0
210, 1.4017094017094016, -2.543345543345543, -4.247863247863248, 0.59375, -1.84375, 1.59375, 0.0
211, 1.3443223443223444, -1.2039072039072038, -3.833943833943834, 0.4375, -1.84375, 1.375, 0.0
212, 0.9963369963369964, -0.315018315018315, -3.4957264957264957, 0.71875, -1.625, 1.21875, 0.0
213, 0.7716727716727717, -0.6483516483516484, -3.769230769230769, 1.15625, -1.28125, 1.1875, 0.0
214, 1.5433455433455434, -0.5653235653235653, -4.0256410256410255, 1.375, -1.0, 1.3125, 0.0
215, 2.2112332112332114, -0.4236874236874237, -4.095238095238095, 1.5, -0.75, 1.4375, 0.0
216, 2.8034188034188032, -0.7728937728937729, -4.1611721611721615, 1.46875, -0.625, 1.28125, 0.0
217, 2.711843711843712, -0.6947496947496947, -3.786324786324786, 1.21875, -0.625, 0.9375, 0.0
218, 2.064713064713065, -0.14163614163614163, -3.1343101343101343, 0.9375, -0.59375, 0.75, 0.0
219, 1.9035409035409034, 0.2271062271062271, -2.808302808302808, 0.8125, -0.34375, 0.65625, 0.0
220, 2.3064713064713063, -0.16361416361416362, -3.1233211233211233, 0.6875, -0.1875, 0.46875, 0.0
221, 2.3162393162393164, 0.21611721611721613, -3.0463980463980462, 0.375, -0.15625, 0.09375, 0.0
222, 2.105006105006105, 0.6984126984126984, -2.9865689865689866, 0.28125, -0.03125, 0.0, 0.0
223, 1.595848595848596, 0.7045177045177046, -2.912087912087912, 0.21875, 0.25, -0.03125, 0.0
224, 1.5006105006105006, 0.8266178266178266, -3.294261294261294, 0.25, 0.625, -0.0625, 0.0
225, 1.1562881562881564, 0.884004884004884, -3.923076923076923, 0.28125, 1.25, 0.0, 0.0
226, 0.004884004884004884, 1.347985347985348, -4.130647130647131, 0.5, 2.5, 0.21875, 0.0
227, 0.07448107448107448, 1.0366300366300367, -4.47008547008547, 1.0, 4.03125, 0.3125, 0.0
228, 1.0537240537240538, 0.17338217338217338, -4.625152625152626, 1.4375, 5.4375, 0.0, 0.0
229, 2.9450549450549453, -1.2417582417582418, -4.73015873015873, 1.5, 6.09375, -0.46875, 0.0
230, 3.7045177045177047, -2.5811965811965814, -4.746031746031746, 1.09375, 6.1875, -1.125, 0.0
231, 3.785103785103785, -2.5665445665445668, -4.400488400488401, 0.65625, 6.03125, -1.625, 0.0
232, 2.2918192918192917, -1.7326007326007327, -3.7997557997557996, 0.59375, 6.125, -2.03125, 0.0
233, 2.658119658119658, -1.1343101343101343, -1.1147741147741148, 1.28125, 6.8125, -2.4375, 0.0
234, 2.2796092796092795, -0.2686202686202686, -0.3076923076923077, 2.15625, 7.4375, -2.78125, 0.0
235, 2.595848595848596, 0.3626373626373626, 0.0463980463980464, 2.90625, 7.59375, -3.25, 0.0
236, 2.0634920634920637, 1.6117216117216118, -0.3601953601953602, 3.03125, 6.84375, -3.59375, 0.0
237, 1.7191697191697193, 1.8608058608058609, -0.45054945054945056, 2.9375, 5.875, -3.53125, 0.0
238, 1.8034188034188035, 0.27350427350427353, -0.3076923076923077, 3.0, 4.9375, -3.71875, 0.0
239, 0.7203907203907204, -2.6202686202686203, -0.724053724053724, 3.15625, 3.96875, -3.78125, 0.0
240, -0.6691086691086691, -5.196581196581197, -1.2478632478632479, 3.3125, 3.1875, -3.71875, 0.0
241, -1.7496947496947497, -6.592185592185592, -1.3540903540903542, 3.25, 2.65625, -3.34375, 0.0
242, -2.4713064713064714, -7.395604395604396, -1.4346764346764347, 3.375, 2.5, -3.125, 0.0
243, -1.9242979242979243, -7.926739926739927, -1.7997557997557998, 3.59375, 2.34375, -3.0625, 0.0
244, -1.8693528693528694, -8.766788766788768, -2.2637362637362637, 3.34375, 1.84375, -2.84375, 0.0
245, -1.4871794871794872, -9.035409035409035, -1.938949938949939, 2.9375, 1.03125, -2.625, 0.0
246, -0.800976800976801, -8.595848595848596, -0.7423687423687424, 2.71875, 0.5, -2.40625, 0.0
247, -1.0537240537240538, -7.148962148962149, -0.8608058608058609, 3.03125, -0.21875, -2.25, 0.0
248, -2.241758241758242, -7.406593406593407, -2.2515262515262515, 3.125, -1.09375, -2.0625, 0.0
249, -3.8754578754578755, -7.853479853479853, -2.942612942612943, 2.78125, -1.6875, -1.78125, 0.0
250, -4.9633699633699635, -7.03052503052503, -3.5702075702075704, 2.40625, -1.71875, -1.5, 0.0
251, -5.153846153846154, -6.181929181929182, -3.984126984126984, 2.1875, -1.34375, -1.28125, 0.0
252, -5.509157509157509, -5.380952380952381, -4.267399267399267, 2.15625, -0.96875, -1.0625, 0.0
253, -4.046398046398046, -5.627594627594628, -4.490842490842491, 1.78125, -1.25, -0.75, 0.0
254, -4.444444444444445, -5.119658119658119, -4.402930402930403, 1.09375, -1.375, -0.25, 0.0
255, -4.058608058608058, -4.454212454212454, -3.3162393162393164, 0.375, -1.34375, 0.09375, 0.0
256, -4.113553113553113, -3.567765567765568, -1.3382173382173381, 0.34375, -0.5625, 0.375, 0.0
257, -2.2234432234432235, -4.073260073260073, -0.4346764346764347, 0.46875, 0.03125, 0.5, 0.0
258, -0.34676434676434675, -3.8302808302808304, 0.2026862026862027, 0.46875, 0.34375, 0.46875, 0.0
259, 0.8620268620268621, -4.597069597069597, 0.46764346764346765, 0.28125, 0.21875, 0.46875, 0.0
260, 1.1233211233211233, -4.52014652014652, 0.7045177045177046, 0.0, 0.03125, 0.34375, 0.0
261, 1.0244200244200243, -4.4041514041514045, 0.7704517704517705, -0.25, 0.0, 0.21875, 0.0
262, 0.6031746031746031, -4.278388278388278, 0.5433455433455433, -0.34375, 0.0625, 0.0, 0.0
263, 0.7155067155067155, -3.9914529914529915, 0.4993894993894994, -0.25, 0.1875, -0.125, 0.0
264, 0.8925518925518926, -4.007326007326007, 0.0757020757020757, -0.0625, 0.25, -0.1875, 0.0
265, 0.6275946275946276, -4.34065934065934, -0.18192918192918192, 0.0, 0.1875, -0.1875, 0.0
266, 0.46886446886446886, -4.244200244200244, -0.27472527472527475, 0.0, 0.0, -0.1875, 0.0
267, 0.10622710622710622, -4.285714285714286, -0.31135531135531136, 0.03125, -0.09375, -0.1875, 0.0
268, -0.08058608058608059, -4.1501831501831505, -0.07814407814407814, 0.0625, 0.0, -0.15625, 0.0
269, -0.10134310134310134, -4.0818070818070815, 0.002442002442002442, 0.0625, 0.03125, -0.09375, 0.0
270, -0.008547008547008548, -3.993894993894994, -0.004884004884004884, 0.125, 0.0, -0.03125, 0.0
271, 0.2771672771672772, -4.062271062271062, 0.14163614163614163, 0.09375, -0.03125, 0.0, 0.0
272, 0.8205128205128205, -4.140415140415141, 0.4700854700854701, 0.09375, -0.125, -0.03125, 0.0
273, 0.6727716727716728, -4.1208791208791204, 0.3443223443223443, 0.15625, -0.1875, -0.09375, 0.0
274, -0.031746031746031744, -4.1001221001221, 0.050061050061050064, 0.21875, -0.1875, -0.125, 0.0
275, -0.2771672771672772, -4.163614163614164, -0.11477411477411477, 0.1875, -0.125, -0.03125, 0.0
276, -0.052503052503052504, -4.106227106227106, 0.03663003663003663, 0.125, -0.125, 0.0, 0.0
277, 0.16605616605616605, -3.95970695970696, 0.2869352869352869, 0.15625, -0.125, -0.03125, 0.0
278, -0.07448107448107448, -4.0085470085470085, 0.11355311355311355, 0.25, -0.09375, -0.09375, 0.0
279, -0.2564102564102564, -4.070818070818071, -0.11721611721611722, 0.1875, -0.125, -0.0625, 0.0
280, -0.873015873015873, -4.130647130647131, -0.8302808302808303, 0.09375, -0.125, -0.03125, 0.0
281, -1.264957264957265, -4.056166056166056, -0.7948717948717948, -0.03125, -0.0625, 0.03125, 0.0
282, -1.1623931623931625, -4.0927960927960925, -0.568986568986569, -0.09375, 0.09375, 0.09375, 0.0
283, -1.043956043956044, -4.201465201465202, -0.5274725274725275, -0.09375, 0.21875, 0.15625, 0.0
284, -1.0073260073260073, -4.553113553113553, -0.5323565323565324, -0.125, 0.1875, 0.21875, 0.0
285, -1.921855921855922, -4.645909645909646, -0.9413919413919414, -0.25, -0.09375, 0.34375, 0.0
286, -2.9108669108669107, -4.626373626373627, -1.291819291819292, -0.40625, -0.34375, 0.5625, 0.0
287, -3.341880341880342, -5.236874236874237, -1.4639804639804639, -0.65625, -0.65625, 0.90625, 0.0
288, -2.481074481074481, -5.766788766788767, -1.286935286935287, -1.15625, -1.15625, 1.3125, 0.0
289, -2.1648351648351647, -5.979242979242979, -0.7277167277167277, -1.71875, -2.09375, 1.625, 0.0
290, -2.8119658119658117, -5.794871794871795, -0.1575091575091575, -2.125, -3.25, 1.90625, 0.0
291, -4.676434676434677, -5.246642246642247, 0.38705738705738707, -2.21875, -4.4375, 2.1875, 0.0
292, -6.857142857142857, -4.617826617826617, 0.612942612942613, -2.03125, -4.25, 2.625, 0.0
293, -7.8901098901098905, -4.642246642246643, 0.4236874236874237, -1.78125, -3.40625, 3.125, 0.0
294, -5.8791208791208796, -5.509157509157509, 0.7509157509157509, -1.8125, -3.25, 3.375, 0.0
295, -4.006105006105006, -5.306471306471306, 1.6947496947496947, -2.03125, -4.0, 3.59375, 0.0
296, -3.5921855921855923, -4.21978021978022, 2.340659340659341, -1.90625, -4.5, 4.0625, 0.0
297, -2.7667887667887667, -4.2344322344322345, 1.8315018315018314, -1.46875, -4.0625, 4.375, 0.0
298, -0.013431013431013432, -4.694749694749695, 1.63003663003663, -1.25, -3.84375, 3.96875, 0.0
299, 1.7655677655677655, -4.544566544566544, 1.4945054945054945, -1.21875, -4.5, 3.375, 0.0
300, 2.3601953601953602, -3.6837606837606836, 2.2625152625152625, -1.3125, -5.53125, 3.03125, 0.0
301, 0.6227106227106227, -2.800976800976801, 1.2625152625152625, -0.71875, -5.09375, 2.6875, 0.0
302, -0.2979242979242979, -2.4004884004884004, -0.4835164835164835, 0.15625, -3.59375, 2.625, 0.0
303, 1.7521367521367521, -3.7887667887667886, -1.557997557997558, 0.53125, -3.125, 2.21875, 0.0
304, 2.086691086691087, -3.133089133089133, -1.9914529914529915, 0.21875, -3.625, 1.90625, 0.0
305, 1.3028083028083028, -2.8461538461538463, -3.2161172161172162, 0.25, -3.65625, 1.9375, 0.0
306, 1.623931623931624, -2.57997557997558, -4.380952380952381, 0.28125, -2.9375, 1.8125, 0.0
307, 2.1941391941391943, -1.8937728937728937, -3.8583638583638584, 0.15625, -2.6875, 1.75, 0.0
308, 0.7008547008547008, -1.2551892551892552, -2.862026862026862, 0.0, -2.8125, 1.40625, 0.0
309, 0.03540903540903541, 0.24175824175824176, -2.600732600732601, 0.15625, -2.6875, 1.0, 0.0
310, -0.8485958485958486, 0.304029304029304, -2.1135531135531136, 0.4375, -2.5625, 1.09375, 0.0
311, 0.0695970695970696, 0.5641025641025641, -2.0805860805860807, 0.84375, -2.1875, 1.40625, 0.0
312, 0.28205128205128205, -0.2588522588522589, -2.398046398046398, 1.375, -1.71875, 1.5625, 0.0
313, 1.315018315018315, -0.8034188034188035, -2.67032967032967, 1.625, -1.3125, 1.40625, 0.0
314, 1.8571428571428572, -1.459096459096459, -2.8376068376068377, 1.25, -1.40625, 1.0625, 0.0
315, 1.2673992673992673, -0.8021978021978022, -2.9218559218559217, 1.03125, -1.3125, 0.875, 0.0
316, 0.7387057387057387, -0.17216117216117216, -2.7094017094017095, 1.03125, -1.0, 0.9375, 0.0
317, 0.7264957264957265, -0.02564102564102564, -2.5750915750915753, 1.1875, -0.5625, 1.0625, 0.0
318, 1.6605616605616607, -0.4468864468864469, -2.625152625152625, 1.21875, -0.34375, 1.09375, 0.0
319, 2.6666666666666665, -1.2136752136752136, -3.0354090354090353, 1.0, -0.4375, 0.875, 0.0
320, 3.1855921855921854, -1.3943833943833943, -2.7985347985347984, 0.5625, -0.71875, 0.5625, 0.0
321, 2.3455433455433456, -0.8131868131868132, -2.490842490842491, 0.28125, -0.75, 0.3125, 0.0
322, 1.713064713064713, -0.21001221001221002, -1.982905982905983, 0.25, -0.5625, 0.25, 0.0
323, 1.122100122100122, 0.18437118437118438, -1.7973137973137974, 0.34375, -0.28125, 0.28125, 0.0
324, 1.043956043956044, 0.03663003663003663, -1.6251526251526252, 0.34375, -0.03125, 0.3125, 0.0
325, 1.3247863247863247, -0.3308913308913309, -1.6202686202686203, 0.1875, 0.03125, 0.28125, 0.0
326, 1.1477411477411477, -0.14652014652014653, -0.818070818070818, 0.0, 0.0, 0.09375, 0.0
327, 0.4261294261294261, 0.29181929181929184, -0.4713064713064713, -0.0625, 0.0, 0.09375, 0.0
328, 0.0463980463980464, 0.4432234432234432, -0.27228327228327226, 0.0, 0.15625, 0.125, 0.0
329, -0.019536019536019536, 0.07448107448107448, -0.25518925518925517, 0.09375, 0.34375, 0.25, 0.0
330, 0.36996336996337, -0.221001221001221, -0.23565323565323565, 0.0625, 0.4375, 0.21875, 0.0
331, 0.8376068376068376, -0.3882783882783883, -0.09401709401709402, -0.03125, 0.28125, 0.09375, 0.0
332, 0.17216117216117216, 0.06471306471306472, 0.07326007326007326, -0.1875, 0.0, 0.0, 0.0
333, -0.3492063492063492, 0.15995115995115994, 0.12332112332112333, -0.15625, 0.03125, 0.0, 0.0
334, -0.5738705738705738, 0.12576312576312576, 0.019536019536019536, -0.03125, 0.21875, 0.03125, 0.0
335, 0.01098901098901099, -0.34065934065934067, -0.19658119658119658, 0.0, 0.3125, 0.03125, 0.0
336, -0.10134310134310134, -0.16361416361416362, -0.3968253968253968, -0.125, 0.1875, 0.0, 0.0
337, -0.25396825396825395, -0.1575091575091575, -0.7741147741147741, -0.15625, 0.21875, -0.09375, 0.0
338, -0.2893772893772894, -0.11355311355311355, -1.7887667887667889, 0.0, 0.65625, -0.09375, 0.0
339, -0.5115995115995116, -0.5091575091575091, -2.934065934065934, 0.0, 1.3125, -0.0625, 0.0
340, -1.5225885225885225, -0.18437118437118438, -3.3333333333333335, 0.15625, 2.5625, 0.0, 0.0
341, -1.0927960927960927, 0.2698412698412698, -3.2405372405372406, 0.5625, 3.8125, 0.0625, 0.0
342, -0.6105006105006106, -0.015873015873015872, -3.311355311355311, 1.0625, 4.96875, 0.0, 0.0
343, 1.0842490842490842, -1.0146520146520146, -3.2905982905982905, 1.28125, 5.59375, -0.3125, 0.0
344, 2.2893772893772892, -1.9084249084249085, -3.4285714285714284, 1.125, 5.71875, -0.75, 0.0
345, 1.9084249084249085, -1.7851037851037852, -3.5616605616605614, 0.96875, 5.9375, -1.09375, 0.0
346, 1.8192918192918193, -1.7216117216117217, -3.3382173382173383, 1.0, 6.34375, -1.3125, 0.0
347, 0.6373626373626373, -0.8864468864468864, -2.763125763125763, 1.15625, 6.9375, -1.40625, 0.0
348, 0.08913308913308914, 0.32967032967032966, -1.702075702075702, 1.59375, 7.59375, -1.5, 0.0
349, 0.4175824175824176, 2.0476190476190474, 1.4334554334554335, 2.65625, 7.71875, -1.90625, 0.0
350, 2.357753357753358, 2.2637362637362637, 1.1794871794871795, 3.15625, 7.0625, -2.1875, 0.0
351, 3.6398046398046398, 1.8376068376068375, 0.9352869352869353, 3.4375, 6.53125, -2.53125, 0.0
352, 2.833943833943834, 1.8827838827838828, 0.6166056166056166, 3.375, 5.59375, -2.84375, 0.0
353, 2.1001221001221, 0.8144078144078144, 0.5543345543345544, 3.40625, 4.71875, -3.0625, 0.0
354, 1.708180708180708, -1.1587301587301588, 0.4725274725274725, 3.5625, 3.84375, -2.84375, 0.0
355, 1.36996336996337, -2.9511599511599513, -0.01221001221001221, 3.71875, 2.875, -2.90625, 0.0
356, -0.57997557997558, -4.188034188034188, -0.8693528693528694, 3.75, 2.125, -3.0625, 0.0
357, -1.231990231990232, -5.147741147741148, -1.2820512820512822, 3.65625, 1.875, -2.96875, 0.0
358, -1.557997557997558, -5.236874236874237, -1.3785103785103785, 3.5625, 1.625, -2.75, 0.0
359, -1.2588522588522588, -5.373626373626373, -1.8424908424908424, 3.625, 1.3125, -2.59375, 0.0
360, -1.7533577533577533, -6.498168498168498, -1.9682539682539681, 3.5625, 0.84375, -2.375, 0.0
361, -2.1135531135531136, -6.52991452991453, -2.1172161172161172, 3.125, 0.625, -2.09375, 0.0
362, -1.26007326007326, -6.368742368742368, -1.7142857142857142, 2.90625, 0.5, -2.0, 0.0
363, -0.8547008547008547, -5.682539682539683, -1.2612942612942613, 2.90625, 0.0, -1.9375, 0.0
364, -1.568986568986569, -6.046398046398046, -1.21001221001221, 2.9375, -0.59375, -1.71875, 0.0
365, -2.8144078144078146, -5.9352869352869355, -1.575091575091575, 2.90625, -0.875, -1.4375, 0.0
366, -2.695970695970696, -6.515262515262515, -1.8583638583638584, 2.5625, -1.03125, -1.125, 0.0
367, -2.827838827838828, -6.316239316239316, -1.8156288156288156, 2.125, -1.1875, -1.0, 0.0
368, -3.838827838827839, -5.3931623931623935, -1.8962148962148961, 1.9375, -1.125, -0.8125, 0.0
369, -4.146520146520147, -5.344322344322344, -2.137973137973138, 1.8125, -0.6875, -0.53125, 0.0
370, -3.6764346764346763, -5.413919413919414, -2.4004884004884004, 1.625, -0.375, -0.40625, 0.0
371, -2.724053724053724, -5.615384615384615, -2.3321123321123323, 1.1875, -0.40625, -0.25, 0.0
372, -2.686202686202686, -4.893772893772894, -1.877899877899878, 0.625, -0.53125, -0.0625, 0.0
373, -1.3333333333333333, -4.698412698412699, -0.8547008547008547, 0.4375, -0.28125, -0.0625, 0.0
374, -0.5641025641025641, -4.383394383394384, -0.21001221001221002, 0.3125, -0.1875, -0.0625, 0.0
375, -0.31135531135531136, -3.8290598290598292, -0.21611721611721613, 0.28125, -0.125, -0.1875, 0.0
376, -0.7631257631257631, -3.89010989010989, -0.398046398046398, 0.3125, -0.125, -0.15625, 0.0
377, -0.5384615384615384, -3.8986568986568986, -0.2771672771672772, 0.28125, -0.15625, -0.09375, 0.0
378, 0.4713064713064713, -3.8315018315018317, 0.33821733821733824, 0.28125, -0.15625, -0.0625, 0.0
379, 0.5934065934065934, -3.822954822954823, 0.5006105006105006, 0.3125, -0.1875, -0.125, 0.0
380, 0.04395604395604396, -3.7643467643467643, 0.22954822954822954, 0.25, -0.21875, -0.125, 0.0
381, -0.16117216117216118, -3.6666666666666665, 0.045177045177045176, 0.15625, -0.125, -0.125, 0.0
382, -0.004884004884004884, -3.5286935286935286, 0.1391941391941392, 0.09375, -0.125, -0.0625, 0.0
383, -0.14041514041514042, -3.645909645909646, 0.05372405372405373, 0.125, -0.25, -0.0625, 0.0
384, -0.3443223443223443, -3.7435897435897436, 0.11477411477411477, 0.125, -0.25, -0.03125, 0.0
385, -0.4542124542124542, -3.5873015873015874, 0.04151404151404151, 0.125, -0.03125, -0.03125, 0.0
386, -0.3162393162393162, -3.7655677655677655, -0.013431013431013432, 0.0625, 0.03125, 0.0, 0.0
387, 0.08424908424908426, -3.548229548229548, 0.08058608058608059, 0.09375, 0.0, -0.03125, 0.0
388, -0.14041514041514042, -3.4126984126984126, 0.05616605616605617, 0.21875, -0.15625, 0.0, 0.0
389, -0.41514041514041516, -3.5323565323565322, -0.03907203907203907, 0.21875, -0.15625, 0.0625, 0.0
390, -0.23931623931623933, -3.7374847374847375, -0.2979242979242979, 0.09375, -0.09375, 0.0625, 0.0
391, -0.07814407814407814, -3.5506715506715505, -0.09768009768009768, -0.0625, -0.0625, 0.09375, 0.0
392, -0.19413919413919414, -3.600732600732601, -0.05372405372405373, -0.1875, 0.0, 0.15625, 0.0
393, 0.10744810744810745, -3.15018315018315, 0.6446886446886447, 0.125, 0.0625, 0.0625, 0.0
394, 0.5824175824175825, -3.5518925518925517, 0.7655677655677655, 0.375, -0.15625, 0.125, 1.0
395, 0.35775335775335776, -4.286935286935287, 0.10989010989010989, 0.03125, -0.40625, 0.0625, 1.0
396, -1.551892551892552, -3.568986568986569, -1.177045177045177, -0.40625, -0.3125, 0.28125, 1.0
397, -1.8144078144078144, -4.186813186813187, -1.9072039072039073, -0.5, -0.1875, 0.40625, 1.0
398, -2.5213675213675213, -4.538461538461538, -2.1941391941391943, -0.875, -0.40625, 0.625, 1.0
399, -3.3565323565323566, -4.880341880341881, -2.092796092796093, -1.125, -0.78125, 0.75, 1.0
400, -3.750915750915751, -5.1208791208791204, -2.1880341880341883, -1.28125, -1.0, 0.875, 1.0
401, -3.343101343101343, -5.766788766788767, -1.8803418803418803, -1.53125, -1.4375, 1.21875, 1.0
402, -3.004884004884005, -6.273504273504273, -1.1489621489621489, -1.84375, -2.15625, 1.53125, 1.0
403, -3.0427350427350426, -6.499389499389499, -0.5274725274725275, -2.25, -3.0, 1.9375, 1.0
404, -3.0793650793650795, -6.318681318681318, 0.5177045177045178, -2.59375, -3.90625, 2.4375, 1.0
405, -3.4871794871794872, -6.014652014652015, 1.2796092796092795, -2.65625, -4.5, 2.71875, 1.0
406, -3.525030525030525, -5.645909645909646, 1.2356532356532357, -2.4375, -4.5625, 2.9375, 1.0
407, -1.844932844932845, -5.927960927960928, 1.065934065934066, -2.625, -4.75, 3.40625, 1.0
408, -1.6544566544566544, -5.163614163614164, 1.663003663003663, -2.78125, -5.34375, 3.5625, 1.0
409, -1.4175824175824177, -3.8253968253968256, 2.6324786324786325, -2.59375, -6.09375, 3.59375, 1.0
410, -2.3601953601953602, -2.5811965811965814, 3.2637362637362637, -2.125, -6.4375, 3.75, 1.0
411, -2.3003663003663, -2.673992673992674, 2.8424908424908426, -1.59375, -6.15625, 3.6875, 1.0
412, -1.7448107448107448, -2.888888888888889, 2.2356532356532357, -1.40625, -5.875, 3.59375, 1.0
413, -2.2454212454212454, -1.3882783882783882, 2.0305250305250304, -0.78125, -5.1875, 3.59375, 1.0
414, -2.115995115995116, -1.6312576312576312, 1.3137973137973138, 0.1875, -4.03125, 3.75, 1.0
415, -0.1282051282051282, -2.5518925518925517, 0.11965811965811966, 0.71875, -3.5, 4.0625, 1.0
416, 2.4615384615384617, -3.866910866910867, -0.4139194139194139, 0.53125, -3.9375, 3.75, 1.0
417, 2.1758241758241756, -3.9975579975579976, -1.1282051282051282, 0.3125, -3.875, 2.8125, 1.0
418, 0.39316239316239315, -1.9023199023199022, -1.4493284493284493, 0.8125, -3.0, 2.71875, 1.0
419, 4.704517704517705, -4.8388278388278385, -3.5653235653235655, 1.3125, -2.65625, 2.4375, 1.0
420, 1.0305250305250304, -2.294261294261294, -2.3907203907203907, 0.46875, -3.71875, 1.71875, 1.0
421, -3.1623931623931623, 0.5873015873015873, -1.3467643467643469, 0.34375, -3.25, 1.4375, 1.0
422, -2.051282051282051, 0.9194139194139194, -0.5982905982905983, 1.09375, -1.9375, 1.71875, 1.0
423, -0.3663003663003663, -0.8595848595848596, -1.6398046398046398, 1.78125, -1.25, 1.90625, 1.0
424, 3.445665445665446, -3.202686202686203, -3.398046398046398, 1.875, -1.28125, 1.90625, 1.0
425, 2.275946275946276, -3.21001221001221, -4.725274725274725, 1.3125, -1.84375, 1.3125, 1.0
426, 0.4725274725274725, -1.6349206349206349, -5.141636141636142, 1.0625, -1.375, 1.0, 1.0
427, 1.2405372405372406, -1.2417582417582418, -5.006105006105006, 1.28125, -0.53125, 0.96875, 1.0
428, 2.3907203907203907, -1.7203907203907205, -4.800976800976801, 1.15625, -0.40625, 0.84375, 1.0
429, 2.0793650793650795, -1.2295482295482296, -4.157509157509158, 0.5625, -0.75, 0.53125, 1.0
430, 0.39316239316239315, 0.15018315018315018, -2.757020757020757, 0.15625, -0.8125, 0.25, 1.0
431, 0.24664224664224665, 0.6544566544566545, -1.5982905982905984, 0.375, -0.25, 0.25, 1.0
432, 0.9572649572649573, 0.46886446886446886, -1.2405372405372406, 0.59375, -0.15625, 0.3125, 1.0
433, 1.547008547008547, -0.336996336996337, -2.241758241758242, 0.59375, -0.0625, 0.25, 1.0
434, 2.4822954822954824, -1.2515262515262515, -3.075702075702076, 0.1875, -0.1875, 0.03125, 1.0
435, 1.9548229548229548, -1.0390720390720392, -3.0, -0.21875, -0.25, -0.1875, 1.0
436, 0.9816849816849816, -0.06471306471306472, -2.341880341880342, -0.3125, -0.0625, -0.15625, 1.0
437, 0.4432234432234432, 0.33577533577533575, -1.413919413919414, -0.21875, 0.15625, -0.0625, 1.0
438, 0.3504273504273504, 0.4468864468864469, -0.46764346764346765, -0.09375, 0.28125, 0.0, 1.0
439, 0.5079365079365079, 0.2698412698412698, -0.12087912087912088, 0.0, 0.28125, 0.0625, 1.0
440, 1.0427350427350428, -0.17338217338217338, -0.10256410256410256, -0.09375, 0.125, 0.0, 1.0
441, 0.6007326007326007, -0.1391941391941392, -0.24786324786324787, -0.15625, 0.0625, -0.0625, 1.0
442, 0.14407814407814407, -0.015873015873015872, -0.336996336996337, -0.0625, 0.25, -0.03125, 1.0
443, -0.09523809523809523, -0.10012210012210013, -0.21978021978021978, -0.125, 0.3125, 0.0, 1.0
444, -0.10500610500610501, -0.014652014652014652, 0.031746031746031744, -0.15625, 0.25, 0.0, 1.0
445, -0.4835164835164835, 0.16727716727716727, 0.2796092796092796, -0.15625, 0.21875, 0.0, 1.0
446, -0.5665445665445665, 0.13064713064713065, 0.5531135531135531, -0.0625, 0.25, 0.0625, 1.0
447, -0.14774114774114774, 0.05860805860805861, 0.851037851037851, 0.03125, 0.21875, 0.09375, 1.0
448, -0.11721611721611722, -0.15506715506715507, 0.8290598290598291, 0.0625, 0.09375, 0.0625, 1.0
449, -0.3601953601953602, -0.028083028083028084, 0.8705738705738706, 0.0, -0.03125, 0.03125, 1.0
450, -0.5177045177045178, 0.10989010989010989, 0.8351648351648352, 0.0625, 0.0, 0.0625, 1.0
451, -0.3907203907203907, -0.14652014652014653, 0.2979242979242979, 0.15625, 0.15625, 0.125, 1.0
452, 0.36996336996337, -0.7765567765567766, -0.38583638583638585, 0.0625, 0.21875, 0.09375, 0.0
453, 0.11477411477411477, -0.47374847374847373, -0.8473748473748474, -0.21875, 0.0625, -0.03125, 0.0
454, -0.1916971916971917, -0.25274725274725274, -0.8705738705738706, -0.40625, 0.09375, -0.15625, 0.0
455, 0.002442002442002442, -0.0695970695970696, -1.0647130647130647, -0.375, 0.21875, -0.125, 0.0
456, 0.042735042735042736, 0.1221001221001221, -1.3968253968253967, -0.1875, 0.40625, -0.125, 0.0
457, -0.24175824175824176, 0.25518925518925517, -1.702075702075702, 0.03125, 0.84375, -0.0625, 0.0
458, -0.6507936507936508, 0.5995115995115995, -1.7863247863247864, 0.40625, 1.46875, 0.15625, 0.0
459, -0.7851037851037851, 0.5506715506715507, -2.2454212454212454, 0.8125, 2.375, 0.3125, 0.0
460, 0.06837606837606838, -0.21611721611721613, -2.4786324786324787, 1.0625, 3.28125, 0.09375, 0.0
461, 1.413919413919414, -0.7423687423687424, -2.5506715506715505, 1.1875, 3.84375, -0.375, 0.0
462, 1.9609279609279608, -1.3113553113553114, -2.8363858363858365, 1.25, 4.125, -0.75, 0.0
463, 1.4664224664224663, -1.507936507936508, -3.2796092796092795, 1.28125, 4.625, -0.9375, 0.0
464, 0.8559218559218559, -1.0866910866910866, -2.995115995115995, 1.40625, 5.4375, -1.09375, 0.0
465, 1.1257631257631258, -0.8608058608058609, -2.7020757020757022, 1.625, 6.0625, -1.28125, 0.0
466, 2.271062271062271, -0.017094017094017096, -0.1855921855921856, 2.0, 6.78125, -1.40625, 0.0
467, 2.7667887667887667, 0.7094017094017094, 0.8363858363858364, 2.5625, 7.0, -1.5, 0.0
468, 4.332112332112332, -0.07203907203907203, 0.746031746031746, 3.0625, 6.9375, -1.875, 0.0
469, 3.851037851037851, 0.8595848595848596, 0.4481074481074481, 3.0625, 6.34375, -2.5625, 0.0
470, 2.9206349206349205, 2.167277167277167, 0.18681318681318682, 2.9375, 5.5, -3.03125, 0.0
471, 1.2380952380952381, 3.2356532356532357, 0.45054945054945056, 3.0, 4.78125, -3.125, 0.0
472, 0.7423687423687424, 2.8058608058608057, 0.6166056166056166, 3.34375, 4.59375, -3.03125, 0.0
473, 1.0647130647130647, 0.03296703296703297, 0.07692307692307693, 3.65625, 4.4375, -2.9375, 0.0
474, 1.534798534798535, -2.183150183150183, 0.03785103785103785, 3.53125, 3.96875, -2.96875, 0.0
475, 1.4810744810744811, -2.8864468864468864, 0.4297924297924298, 3.46875, 3.3125, -3.125, 0.0
476, 0.8632478632478633, -3.733821733821734, 0.1623931623931624, 3.875, 2.65625, -3.1875, 0.0
477, 0.11843711843711843, -5.267399267399267, -0.5543345543345544, 4.125, 1.46875, -2.75, 0.0
478, -0.21123321123321123, -6.512820512820513, -1.293040293040293, 3.6875, 0.75, -2.6875, 0.0
479, -0.7826617826617827, -6.357753357753357, -1.0512820512820513, 3.40625, 0.03125, -2.6875, 0.0
480, -2.213675213675214, -5.905982905982906, -1.291819291819292, 3.5, -0.5, -2.53125, 0.0
481, -3.58974358974359, -6.343101343101343, -1.7985347985347986, 3.40625, -0.59375, -2.09375, 0.0
482, -3.6214896214896215, -6.8388278388278385, -1.9633699633699633, 3.15625, -0.25, -1.71875, 0.0
483, -1.9597069597069596, -6.655677655677656, -1.2698412698412698, 2.9375, -0.25, -1.65625, 0.0
484, -1.387057387057387, -6.544566544566544, -0.7484737484737485, 2.875, -0.65625, -1.625, 0.0
485, -2.6385836385836385, -6.299145299145299, -1.010989010989011, 2.84375, -1.03125, -1.4375, 0.0
486, -2.8876678876678876, -6.385836385836386, -1.5909645909645909, 2.65625, -1.0625, -1.25, 0.0
487, -3.5347985347985347, -6.057387057387057, -2.258852258852259, 2.40625, -0.9375, -1.09375, 0.0
488, -4.383394383394384, -5.5396825396825395, -3.0720390720390722, 2.125, -0.59375, -0.875, 0.0
489, -2.808302808302808, -4.87057387057387, -3.4786324786324787, 1.65625, -0.21875, -0.625, 0.0
490, -2.2844932844932844, -5.1330891330891335, -3.6617826617826617, 1.3125, -0.53125, -0.4375, 0.0
491, -3.1587301587301586, -4.948717948717949, -3.8583638583638584, 0.75, -1.0, -0.28125, 0.0
492, -3.191697191697192, -4.31013431013431, -2.971916971916972, 0.34375, -0.875, -0.125, 0.0
493, -2.114774114774115, -4.164835164835165, -1.9230769230769231, 0.1875, -0.46875, -0.03125, 0.0
494, -1.2356532356532357, -4.285714285714286, -0.7875457875457875, 0.0625, -0.1875, 0.0, 0.0
495, -0.1562881562881563, -4.04029304029304, 0.028083028083028084, -0.125, -0.0625, 0.0625, 0.0
496, 0.2148962148962149, -3.7032967032967035, 0.7094017094017094, -0.1875, -0.09375, 0.0, 0.0
497, -0.07936507936507936, -3.2698412698412698, 0.873015873015873, -0.03125, -0.09375, -0.09375, 0.0
498, -0.33943833943833945, -3.133089133089133, 0.409035409035409, 0.1875, -0.0625, -0.125, 0.0
499, -0.1916971916971917, -3.4590964590964592, 0.001221001221001221, 0.25, -0.03125, -0.09375, 0.0
500, 0.07692307692307693, -3.5494505494505493, 0.003663003663003663, 0.0, -0.125, -0.03125, 0.0
501, 0.21001221001221002, -3.380952380952381, 0.2258852258852259, 0.0, -0.09375, -0.03125, 0.0
502, 0.514041514041514, -3.2905982905982905, 0.315018315018315, 0.09375, -0.0625, -0.0625, 0.0
503, 0.4554334554334554, -3.2332112332112333, 0.08791208791208792, 0.1875, -0.15625, -0.09375, 0.0
504, -0.15018315018315018, -3.3846153846153846, -0.4358974358974359, 0.125, -0.3125, -0.0625, 0.0
505, -0.7130647130647131, -3.6202686202686203, -0.6532356532356532, 0.0, -0.28125, 0.0, 0.0
506, -0.5775335775335775, -3.404151404151404, -0.3711843711843712, 0.0, -0.0625, 0.0, 0.0
507, 0.07081807081807082, -3.4835164835164836, 0.026862026862026864, 0.0, 0.0, 0.03125, 0.0
508, 0.22954822954822954, -3.4542124542124544, 0.4261294261294261, 0.09375, -0.125, 0.0, 0.0
509, 0.2661782661782662, -3.590964590964591, 0.4358974358974359, 0.15625, -0.21875, -0.03125, 0.0
510, 0.25396825396825395, -3.4542124542124544, 0.3614163614163614, 0.09375, -0.21875, -0.0625, 0.0
511, 0.07814407814407814, -3.2576312576312576, 0.17704517704517705, 0.125, -0.1875, -0.0625, 0.0
512, 0.304029304029304, -3.1684981684981683, 0.08547008547008547, 0.46875, -0.15625, -0.1875, 0.0
513, -0.05372405372405373, -3.514041514041514, -0.6666666666666666, 0.5, -0.34375, -0.25, 1.0
514, -0.9499389499389499, -3.8547008547008548, -1.575091575091575, 0.21875, -0.40625, -0.1875, 1.0
515, -1.8705738705738706, -3.6996336996337, -1.8766788766788767, -0.125, -0.28125, -0.125, 1.0
516, -2.156288156288156, -3.600732600732601, -1.829059829059829, -0.21875, 0.09375, -0.09375, 1.0
517, -2.208791208791209, -3.6043956043956045, -1.3736263736263736, -0.125, 0.375, -0.0625, 1.0
518, -1.9877899877899878, -4.214896214896215, -1.4102564102564104, -0.125, 0.4375, 0.125, 1.0
519, -2.84004884004884, -4.893772893772894, -2.376068376068376, -0.375, 0.125, 0.4375, 1.0
520, -4.214896214896215, -5.557997557997558, -2.617826617826618, -0.84375, -0.4375, 0.90625, 1.0
521, -6.078144078144078, -6.156288156288157, -2.7106227106227108, -1.28125, -1.15625, 1.4375, 1.0
522, -6.106227106227106, -6.798534798534798, -2.010989010989011, -1.65625, -1.46875, 2.03125, 1.0
523, -4.633699633699634, -7.148962148962149, -0.38217338217338215, -2.0, -2.15625, 2.6875, 1.0
524, -3.4725274725274726, -7.442002442002442, 1.2612942612942613, -2.375, -4.0625, 3.6875, 1.0
525, -1.73992673992674, -7.124542124542124, 2.6996336996337, -2.53125, -6.125, 4.15625, 1.0
526, -2.8315018315018317, -5.605616605616605, 4.085470085470085, -2.5, -7.9375, 4.59375, 1.0
527, -4.304029304029304, -4.1501831501831505, 4.083028083028083, -2.40625, -8.09375, 5.03125, 1.0
528, -2.860805860805861, -3.7594627594627594, 3.4664224664224665, -2.1875, -7.5, 4.96875, 1.0
529, -1.4175824175824177, -3.272283272283272, 2.7045177045177047, -1.90625, -6.9375, 4.59375, 1.0
530, -1.1318681318681318, -1.9133089133089134, 2.070818070818071, -1.4375, -6.71875, 4.4375, 1.0
531, -2.6398046398046398, -0.7912087912087912, 0.7106227106227107, -0.75, -5.625, 4.59375, 1.0
532, -1.750915750915751, -1.844932844932845, -1.5592185592185592, -0.15625, -3.875, 4.65625, 1.0
533, 2.518925518925519, -4.51037851037851, -2.7936507936507935, -0.4375, -3.0625, 3.75, 1.0
534, 4.517704517704518, -4.263736263736264, -2.1953601953601956, -1.25, -3.8125, 2.84375, 1.0
535, 2.4249084249084247, -0.06349206349206349, -1.065934065934066, -0.15625, -3.75, 2.53125, 1.0
536, -0.040293040293040296, -0.9706959706959707, -3.6446886446886446, 0.84375, -2.125, 2.875, 1.0
537, 3.120879120879121, -3.416361416361416, -3.9865689865689866, 0.84375, -1.46875, 2.46875, 1.0
538, 1.894993894993895, -0.9938949938949939, -1.8827838827838828, 0.125, -2.25, 1.71875, 1.0
539, -0.8876678876678876, 0.6691086691086691, 0.015873015873015872, 0.1875, -2.875, 1.34375, 1.0
540, -2.5665445665445668, 0.7594627594627594, -0.967032967032967, 1.15625, -2.03125, 1.625, 1.0
541, 1.4932844932844933, -2.832722832722833, -2.9792429792429793, 2.0625, -0.59375, 2.03125, 1.0
542, 3.6715506715506714, -3.6373626373626373, -3.8705738705738706, 1.4375, -0.96875, 1.75, 1.0
543, 1.3137973137973138, -1.459096459096459, -3.15018315018315, 0.59375, -1.6875, 1.03125, 1.0
544, 0.2454212454212454, -0.1807081807081807, -2.177045177045177, 0.46875, -1.8125, 0.71875, 1.0
545, -0.25518925518925517, -0.018315018315018316, -2.2918192918192917, 0.84375, -1.46875, 0.8125, 1.0
546, 0.15262515262515264, -0.34065934065934067, -3.0195360195360195, 1.1875, -0.875, 1.0, 1.0
547, 1.277167277167277, -1.1575091575091576, -4.5054945054945055, 1.0625, -0.3125, 1.0, 1.0
548, 3.3284493284493286, -2.3162393162393164, -5.323565323565323, 0.375, -0.625, 0.59375, 1.0
549, 2.286935286935287, -0.5518925518925519, -4.797313797313797, 0.125, -0.53125, 0.28125, 1.0
550, 0.9853479853479854, 0.24297924297924298, -3.9963369963369964, 0.25, 0.0, 0.3125, 1.0
551, 0.9597069597069597, 0.5067155067155067, -3.1074481074481075, 0.375, 0.375, 0.34375, 1.0
552, 1.5787545787545787, -0.2625152625152625, -2.7704517704517704, 0.0625, 0.3125, 0.25, 1.0
553, 1.3125763125763126, 0.409035409035409, -1.7362637362637363, -0.25, 0.0, 0.125, 1.0
554, 0.49572649572649574, 1.0317460317460319, -0.6874236874236874, -0.21875, 0.03125, 0.0625, 1.0
555, 0.12698412698412698, 0.8388278388278388, -0.05616605616605617, -0.15625, 0.0625, 0.125, 1.0
556, -0.27106227106227104, 0.8791208791208791, 0.3968253968253968, 0.0, 0.15625, 0.25, 1.0
557, -0.0989010989010989, 0.5152625152625152, 0.5433455433455433, 0.1875, 0.28125, 0.375, 1.0
558, 1.0402930402930404, -0.8534798534798534, -0.01098901098901099, 0.125, 0.125, 0.03125, 1.0
559, -0.05616605616605617, -0.6495726495726496, -0.16117216117216118, -0.1875, -0.15625, -0.125, 1.0
560, -0.45787545787545786, -0.21367521367521367, 0.11965811965811966, -0.1875, 0.0, -0.09375, 1.0
561, -0.31013431013431014, -0.013431013431013432, 0.3553113553113553, 0.0, 0.15625, 0.0, 1.0
562, 0.2857142857142857, -0.5433455433455433, 0.18315018315018314, 0.15625, 0.25, 0.0625, 1.0
563, 0.5506715506715507, -0.7509157509157509, 0.09645909645909646, 0.03125, 0.0625, 0.0, 1.0
564, 0.007326007326007326, -0.06471306471306472, 0.32112332112332115, -0.09375, -0.09375, -0.125, 1.0
565, -0.3431013431013431, 0.2783882783882784, 0.4346764346764347, -0.03125, -0.0625, -0.125, 1.0
566, -0.21733821733821734, 0.35775335775335776, 0.26373626373626374, 0.09375, 0.0, -0.03125, 1.0
567, -0.3089133089133089, 0.38217338217338215, -0.09401709401709402, 0.21875, 0.125, 0.03125, 1.0
568, 0.4652014652014652, -0.47863247863247865, -0.9633699633699634, 0.21875, 0.25, 0.0625, 1.0
569, 0.3321123321123321, -0.23321123321123322, -0.9719169719169719, 0.0, 0.125, 0.0, 1.0
570, -0.09157509157509157, 0.10256410256410256, -0.6642246642246642, -0.125, 0.25, -0.03125, 1.0
571, -0.11355311355311355, 0.21733821733821734, -0.6263736263736264, -0.03125, 0.46875, 0.0, 1.0
572, 0.07936507936507936, -0.10378510378510379, -1.3028083028083028, 0.0, 0.71875, 0.03125, 0.0
573, 0.16727716727716727, -0.6788766788766789, -2.5323565323565322, -0.1875, 0.96875, 0.03125, 0.0
574, 1.2454212454212454, -1.1684981684981686, -2.658119658119658, -0.5625, 0.9375, -0.09375, 0.0
575, 0.8656898656898657, -0.6715506715506715, -2.7374847374847375, -0.71875, 1.03125, -0.34375, 0.0
576, 0.46153846153846156, -0.1623931623931624, -3.0525030525030523, -0.5, 1.53125, -0.5, 0.0
577, 0.0, 0.38461538461538464, -3.0183150183150182, 0.03125, 2.53125, -0.84375, 0.0
578, 0.15506715506715507, 0.23565323565323565, -3.6849816849816848, 0.75, 3.625, -0.875, 0.0
579, -0.5396825396825397, -0.9169719169719169, -4.3699633699633695, 1.03125, 4.8125, -0.8125, 0.0
580, 0.32844932844932845, -1.065934065934066, -4.42002442002442, 1.03125, 5.8125, -0.75, 0.0
581, 0.8656898656898657, -0.6227106227106227, -3.5238095238095237, 1.0625, 6.375, -0.78125, 0.0
582, 0.938949938949939, -0.09768009768009768, -0.6764346764346765, 1.71875, 7.5, -0.5625, 0.0
583, 1.3675213675213675, 0.047619047619047616, 0.42857142857142855, 2.25, 8.34375, -0.375, 0.0
584, 2.5934065934065935, 1.5628815628815629, 1.8083028083028083, 2.84375, 8.8125, -0.71875, 0.0
585, 4.063492063492063, 3.6544566544566544, 2.498168498168498, 3.625, 8.90625, -1.59375, 0.0
586, 4.444444444444445, 3.9633699633699635, 1.818070818070818, 4.1875, 8.1875, -2.21875, 0.0
587, 3.4017094017094016, 1.6202686202686203, 0.9230769230769231, 4.25, 6.90625, -2.46875, 0.0
588, 3.172161172161172, -1.2796092796092795, 0.5531135531135531, 4.125, 5.8125, -2.65625, 0.0
589, 2.2735042735042734, -2.5665445665445668, 0.40415140415140416, 4.125, 4.875, -2.9375, 0.0
590, 0.7130647130647131, -3.4774114774114775, -0.32967032967032966, 4.34375, 4.03125, -2.96875, 0.0
591, -0.054945054945054944, -4.752136752136752, -0.9377289377289377, 4.3125, 3.1875, -2.59375, 0.0
592, 0.02197802197802198, -5.858363858363858, -1.1758241758241759, 4.15625, 2.40625, -2.53125, 0.0
593, -0.6471306471306472, -5.445665445665446, -1.0647130647130647, 3.96875, 1.46875, -2.4375, 0.0
594, -1.6080586080586081, -6.007326007326007, -1.122100122100122, 4.03125, 0.59375, -2.1875, 0.0
595, -2.363858363858364, -5.728937728937729, -1.7643467643467643, 4.09375, 0.25, -2.0625, 0.0
596, -2.404151404151404, -7.021978021978022, -1.9523809523809523, 3.625, -0.0625, -1.65625, 0.0
597, -2.3516483516483517, -6.277167277167277, -1.8937728937728937, 3.25, -0.53125, -1.53125, 0.0
598, -2.4652014652014653, -6.177045177045177, -1.393162393162393, 3.0, -0.90625, -1.375, 0.0
599, -2.5103785103785103, -5.597069597069597, -1.4444444444444444, 2.96875, -1.25, -1.21875, 0.0
600, -3.1953601953601956, -5.743589743589744, -1.9157509157509158, 2.875, -1.375, -1.0625, 0.0
601, -3.9621489621489623, -6.076923076923077, -2.7948717948717947, 2.5, -1.03125, -0.84375, 0.0
602, -3.0256410256410255, -5.538461538461538, -2.133089133089133, 2.0, -0.65625, -0.6875, 0.0
603, -2.1416361416361416, -4.518925518925519, -1.8534798534798536, 1.9375, -0.78125, -0.65625, 0.0
604, -3.028083028083028, -4.741147741147741, -2.3015873015873014, 1.8125, -1.03125, -0.40625, 0.0
605, -3.1965811965811968, -4.581196581196581, -3.6275946275946276, 1.25, -0.78125, -0.15625, 0.0
606, -2.525030525030525, -4.587301587301587, -3.612942612942613, 0.65625, -0.875, -0.0625, 0.0
607, -2.4664224664224665, -4.067155067155067, -2.387057387057387, 0.21875, -0.875, 0.0, 0.0
608, -1.10989010989011, -3.901098901098901, -1.4151404151404152, 0.1875, -0.4375, 0.03125, 0.0
609, -0.12576312576312576, -3.9694749694749696, -0.5873015873015873, 0.0625, -0.21875, 0.03125, 0.0
610, 0.44932844932844934, -3.5653235653235655, 0.06715506715506715, -0.125, -0.03125, 0.0, 0.0
611, 0.9157509157509157, -3.2002442002442004, 0.663003663003663, -0.15625, 0.09375, -0.03125, 0.0
612, 0.7826617826617827, -3.034188034188034, 0.8351648351648352, -0.03125, 0.0625, -0.15625, 0.0
613, 0.3956043956043956, -3.128205128205128, 0.3443223443223443, 0.09375, -0.0625, -0.25, 0.0
614, -0.10134310134310134, -3.1184371184371185, -0.008547008547008548, 0.09375, -0.1875, -0.1875, 0.0
615, -0.34676434676434675, -3.139194139194139, -0.115995115995116, 0.0625, -0.21875, -0.125, 0.0
616, -0.06105006105006105, -3.214896214896215, 0.050061050061050064, 0.0625, -0.15625, -0.125, 0.0
617, 0.07936507936507936, -3.202686202686203, 0.006105006105006105, 0.1875, -0.09375, -0.125, 0.0
618, -0.336996336996337, -3.42002442002442, -0.3492063492063492, 0.09375, -0.28125, -0.03125, 0.0
619, -0.6800976800976801, -3.346764346764347, -0.3333333333333333, 0.0, -0.21875, 0.03125, 0.0
620, -0.6007326007326007, -3.221001221001221, -0.1343101343101343, 0.0, 0.0, 0.03125, 0.0
621, -0.2857142857142857, -3.3797313797313797, -0.01098901098901099, 0.0, 0.0625, 0.03125, 0.0
622, 0.17094017094017094, -3.426129426129426, 0.3614163614163614, 0.03125, -0.03125, 0.03125, 0.0
623, 0.31013431013431014, -3.288156288156288, 0.4078144078144078, 0.0625, -0.15625, 0.0, 0.0
624, -0.008547008547008548, -3.2173382173382175, 0.31013431013431014, 0.0625, -0.15625, 0.03125, 0.0
625, 0.06715506715506715, -3.177045177045177, 0.4725274725274725, 0.125, -0.0625, 0.0, 0.0
626, 0.7606837606837606, -3.5885225885225887, 0.5225885225885226, 0.09375, -0.125, -0.03125, 0.0
627, 0.7435897435897436, -3.5213675213675213, 0.28083028083028083, 0.0, -0.21875, -0.15625, 1.0
628, 0.1562881562881563, -2.78998778998779, 0.002442002442002442, 0.125, -0.1875, -0.15625, 1.0
629, -0.2600732600732601, -3.4126984126984126, -0.336996336996337, 0.125, -0.28125, -0.15625, 1.0
630, -0.36385836385836384, -3.3455433455433456, -0.27472527472527475, 0.0625, -0.1875, -0.125, 1.0
631, -0.4188034188034188, -3.1294261294261294, -0.2271062271062271, 0.03125, -0.125, -0.125, 1.0
632, -0.8608058608058609, -3.3150183150183152, -0.4517704517704518, 0.0625, -0.1875, -0.0625, 1.0
633, -0.7753357753357754, -3.4505494505494507, -0.3894993894993895, 0.03125, -0.0625, 0.0, 1.0
634, -0.3247863247863248, -3.4004884004884004, 0.02564102564102564, 0.03125, -0.0625, 0.03125, 1.0
635, -0.4517704517704518, -3.7094017094017095, -0.29914529914529914, 0.0, -0.21875, 0.125, 1.0
636, -0.7118437118437119, -3.9401709401709404, -0.5873015873015873, -0.3125, -0.4375, 0.28125, 1.0
637, -1.1514041514041513, -4.412698412698413, -0.9108669108669109, -0.625, -0.71875, 0.5, 1.0
638, -2.115995115995116, -4.822954822954823, -1.2661782661782661, -1.0, -1.21875, 0.84375, 1.0
639, -3.4932844932844933, -5.203907203907204, -1.3467643467643469, -1.5625, -2.1875, 1.40625, 1.0
640, -5.184371184371185, -4.986568986568987, -0.9206349206349206, -2.28125, -3.96875, 2.1875, 1.0
641, -6.242979242979243, -5.00976800976801, -0.4810744810744811, -2.5625, -4.8125, 2.78125, 1.0
642, -7.0, -5.061050061050061, 0.0989010989010989, -2.6875, -5.03125, 3.40625, 1.0
643, -6.826617826617826, -5.162393162393163, 0.06227106227106227, -2.59375, -4.5, 3.84375, 1.0
644, -4.619047619047619, -5.761904761904762, 0.9829059829059829, -2.625, -4.625, 4.0, 1.0
645, -3.4432234432234434, -5.073260073260073, 1.8815628815628815, -2.6875, -5.5625, 4.125, 1.0
646, -4.616605616605616, -3.41025641025641, 2.6483516483516483, -2.25, -5.8125, 4.3125, 1.0
647, -4.96947496947497, -3.275946275946276, 2.1306471306471306, -1.625, -4.96875, 4.6875, 1.0
648, -1.9926739926739927, -4.336996336996337, 1.3882783882783882, -1.40625, -4.4375, 4.6875, 1.0
649, 3.04029304029304, -5.134310134310135, 2.0256410256410255, -1.71875, -5.75, 4.0, 1.0
650, 1.485958485958486, -3.045177045177045, 2.9145299145299144, -1.53125, -6.59375, 3.5, 1.0
651, -2.3272283272283274, -1.3455433455433456, 1.2893772893772895, -0.3125, -4.90625, 3.59375, 1.0
652, 4.920634920634921, -6.534798534798535, -1.8595848595848596, 0.28125, -3.4375, 3.21875, 1.0
653, 3.6654456654456653, -4.797313797313797, -1.641025641025641, -0.59375, -4.46875, 2.0625, 1.0
654, -0.4627594627594628, -1.3711843711843712, -1.6324786324786325, -0.4375, -4.375, 1.71875, 1.0
655, 0.518925518925519, -2.4432234432234434, -3.004884004884005, 0.59375, -2.53125, 1.84375, 1.0
656, 4.3076923076923075, -3.967032967032967, -2.6153846153846154, 0.59375, -2.21875, 2.03125, 1.0
657, 2.6434676434676434, -1.4090354090354091, -1.2857142857142858, 0.125, -3.21875, 1.0625, 1.0
658, -1.6459096459096458, -0.5873015873015873, -2.3956043956043955, 0.53125, -3.03125, 0.6875, 1.0
659, 0.32844932844932845, -0.49206349206349204, -3.115995115995116, 1.03125, -1.875, 1.15625, 1.0
660, 3.93040293040293, -2.606837606837607, -3.7106227106227108, 1.1875, -1.78125, 1.28125, 1.0
661, 1.9145299145299146, -1.1391941391941391, -3.312576312576313, 0.71875, -2.46875, 0.59375, 1.0
662, -1.1257631257631258, 0.2698412698412698, -3.645909645909646, 0.75, -2.125, 0.4375, 1.0
663, -0.001221001221001221, -0.24786324786324787, -3.8095238095238093, 1.09375, -0.78125, 0.875, 1.0
664, 2.2405372405372406, -0.9548229548229549, -3.595848595848596, 0.875, -1.0625, 0.71875, 1.0
665, 1.4456654456654456, -0.4932844932844933, -2.9206349206349205, 0.625, -1.3125, 0.46875, 1.0
666, -0.09768009768009768, 0.02564102564102564, -2.474969474969475, 0.75, -0.90625, 0.46875, 1.0
667, -0.20512820512820512, 0.2954822954822955, -2.313797313797314, 0.96875, -0.40625, 0.6875, 1.0
668, 1.7252747252747254, -0.9584859584859585, -2.755799755799756, 0.84375, -0.375, 0.625, 1.0
669, 2.1355311355311355, -1.5128205128205128, -3.178266178266178, 0.5, -0.375, 0.34375, 1.0
670, 1.3577533577533578, -0.8632478632478633, -3.3455433455433456, 0.375, -0.03125, 0.1875, 1.0
671, 1.3003663003663004, -0.5775335775335775, -2.8473748473748475, 0.28125, 0.0625, 0.125, 1.0
672, 0.9951159951159951, -0.4261294261294261, -2.3504273504273505, 0.09375, 0.0, 0.0625, 1.0
673, 0.4004884004884005, -0.028083028083028084, -1.5787545787545787, 0.0, 0.03125, 0.0, 1.0
674, -0.050061050061050064, 0.10256410256410256, -1.0158730158730158, 0.0, 0.15625, 0.03125, 1.0
675, 0.07203907203907203, 0.23565323565323565, -0.15384615384615385, 0.09375, 0.28125, 0.125, 1.0
676, 0.5714285714285714, -0.5323565323565324, -0.14285714285714285, 0.125, 0.21875, 0.125, 1.0
677, 0.3418803418803419, -0.4444444444444444, 0.10989010989010989, 0.0, 0.0, 0.0, 1.0
678, -0.5543345543345544, -0.18803418803418803, 0.13064713064713065, -0.0625, 0.0, -0.03125, 1.0
679, -0.2844932844932845, 0.10256410256410256, 0.15995115995115994, 0.0, 0.21875, 0.03125, 1.0
680, -0.12087912087912088, -0.008547008547008548, -0.07081807081807082, 0.15625, 0.3125, 0.125, 1.0
681, 0.2442002442002442, -0.39438339438339437, -0.22466422466422467, 0.1875, 0.25, 0.15625, 1.0
682, 0.08913308913308914, -0.5311355311355311, -0.2148962148962149, 0.0625, 0.15625, 0.09375, 1.0
683, -0.14652014652014653, -0.2087912087912088, 0.0695970695970696, -0.03125, 0.09375, 0.03125, 1.0
684, -0.36996336996337, -0.05860805860805861, 0.21733821733821734, 0.0, 0.1875, 0.03125, 1.0
685, -0.22832722832722832, -0.16361416361416362, 0.2087912087912088, 0.03125, 0.25, 0.125, 1.0
686, -0.15384615384615385, -0.48473748473748474, -0.27594627594627597, -0.1875, 0.34375, 0.15625, 1.0
687, -0.17582417582417584, -0.38705738705738707, -0.6678876678876678, -0.4375, 0.4375, 0.15625, 0.0
688, -0.2783882783882784, 0.07326007326007326, -0.873015873015873, -0.4375, 0.5625, 0.125, 0.0
689, -0.10866910866910867, 0.014652014652014652, -1.199023199023199, -0.375, 0.65625, 0.125, 0.0
690, 0.4713064713064713, -0.04151404151404151, -1.9316239316239316, -0.25, 0.6875, 0.09375, 0.0
691, 0.9291819291819292, -0.5201465201465202, -3.015873015873016, -0.28125, 0.71875, -0.0625, 0.0
692, 0.23687423687423687, -0.6727716727716728, -4.306471306471306, -0.28125, 1.15625, -0.09375, 0.0
693, 0.12698412698412698, -0.38461538461538464, -4.383394383394384, -0.28125, 1.84375, -0.0625, 0.0
694, 0.08913308913308914, -0.026862026862026864, -3.89010989010989, -0.09375, 2.5625, -0.03125, 0.0
695, 0.0, 0.1978021978021978, -3.5518925518925517, 0.1875, 3.375, -0.1875, 0.0
696, 0.42857142857142855, -0.33577533577533575, -3.5714285714285716, 0.40625, 4.09375, -0.5625, 0.0
697, 1.4639804639804639, -0.818070818070818, -3.6031746031746033, 0.40625, 4.28125, -0.78125, 0.0
698, 0.63003663003663, -1.0976800976800978, -3.247863247863248, 0.40625, 4.9375, -1.03125, 0.0
699, 0.9706959706959707, -0.9731379731379731, -2.32967032967033, 0.5625, 5.75, -1.09375, 0.0
700, 1.404151404151404, -0.6666666666666666, -1.155067155067155, 0.84375, 6.3125, -1.125, 0.0
701, 0.6068376068376068, 0.08913308913308914, -0.42246642246642246, 1.15625, 6.5625, -1.125, 0.0
702, 0.8693528693528694, 0.2612942612942613, 0.09401709401709402, 1.59375, 6.875, -1.1875, 0.0
703, 1.6947496947496947, 0.6593406593406593, 0.5763125763125763, 2.0625, 7.03125, -1.5, 0.0
704, 2.094017094017094, 2.057387057387057, 0.8241758241758241, 2.53125, 7.03125, -2.125, 0.0
705, 1.2417582417582418, 4.611721611721611, 0.536019536019536, 2.90625, 6.875, -2.53125, 0.0
706, 1.105006105006105, 3.3382173382173383, 0.28815628815628813, 3.0625, 6.4375, -2.78125, 0.0
707, 0.6935286935286935, -1.6459096459096458, 0.2783882783882784, 3.25, 5.71875, -2.875, 0.0
708, 0.7142857142857143, -3.94993894993895, 0.28327228327228327, 3.46875, 4.875, -2.875, 0.0
709, 0.003663003663003663, -5.241758241758242, -0.398046398046398, 3.71875, 4.15625, -2.78125, 0.0
710, -0.221001221001221, -6.239316239316239, -0.7997557997557998, 3.625, 2.84375, -2.78125, 0.0
711, -0.873015873015873, -6.264957264957265, -0.8534798534798534, 3.375, 1.8125, -2.53125, 0.0
712, -1.673992673992674, -6.523809523809524, -0.7008547008547008, 3.1875, 1.28125, -2.3125, 0.0
713, -2.139194139194139, -5.877899877899878, -0.7887667887667887, 3.4375, 1.125, -2.34375, 0.0
714, -2.3894993894993894, -5.882783882783883, -1.2954822954822955, 3.53125, 0.90625, -2.15625, 0.0
715, -2.6043956043956045, -6.274725274725275, -2.1123321123321124, 3.25, 0.46875, -1.84375, 0.0
716, -2.8705738705738706, -5.995115995115995, -2.184371184371184, 2.84375, 0.15625, -1.59375, 0.0
717, -2.600732600732601, -5.4212454212454215, -1.9951159951159951, 2.75, 0.0625, -1.46875, 0.0
718, -2.4114774114774113, -5.291819291819292, -2.0976800976800978, 2.8125, 0.0, -1.3125, 0.0
719, -2.3028083028083026, -5.9462759462759465, -2.8241758241758244, 2.5, -0.28125, -1.09375, 0.0
720, -2.3394383394383396, -5.503052503052503, -2.885225885225885, 1.84375, -0.59375, -0.90625, 0.0
721, -2.5873015873015874, -4.57020757020757, -2.173382173382173, 1.65625, -0.375, -0.65625, 0.0
722, -2.664224664224664, -4.172161172161172, -3.3174603174603177, 1.75, -0.21875, -0.4375, 0.0
723, -2.2185592185592187, -4.605616605616605, -3.656898656898657, 1.375, -0.28125, -0.3125, 0.0
724, -1.7582417582417582, -4.073260073260073, -3.131868131868132, 0.6875, -0.4375, -0.125, 0.0
725, -1.0732600732600732, -3.907203907203907, -2.2905982905982905, 0.3125, -0.625, -0.03125, 0.0
726, -1.2136752136752136, -3.553113553113553, -1.8315018315018314, 0.15625, -0.59375, 0.0, 0.0
727, -0.3724053724053724, -3.597069597069597, -0.9841269841269841, 0.03125, -0.25, 0.03125, 0.0
728, 0.3907203907203907, -3.6837606837606836, -0.13064713064713065, -0.15625, -0.0625, 0.03125, 0.0
729, 0.48473748473748474, -3.2503052503052503, 0.28083028083028083, -0.25, 0.0, 0.0, 0.0
730, 0.4249084249084249, -2.8046398046398044, 0.6214896214896215, -0.15625, 0.0625, -0.0625, 0.0
731, 0.5885225885225885, -2.8547008547008548, 0.7887667887667887, 0.0, 0.0, -0.09375, 0.0
732, 0.1746031746031746, -2.9816849816849818, 0.5396825396825397, 0.15625, -0.1875, -0.09375, 0.0
733, -0.24786324786324787, -3.015873015873016, 0.12576312576312576, 0.15625, -0.21875, -0.03125, 0.0
734, -0.32112332112332115, -3.029304029304029, -0.12576312576312576, 0.15625, -0.09375, 0.0, 0.0
735, -0.18681318681318682, -3.0903540903540905, -0.16483516483516483, 0.125, 0.0, 0.0, 0.0
736, 0.18681318681318682, -3.0793650793650795, -0.09523809523809523, 0.15625, -0.03125, 0.0, 0.0
737, 0.07448107448107448, -3.227106227106227, -0.10866910866910867, 0.15625, -0.125, 0.0, 0.0
738, 0.18803418803418803, -3.4786324786324787, -0.11843711843711843, 0.0625, -0.1875, 0.0, 0.0
739, -0.20024420024420025, -3.2295482295482296, -0.08424908424908426, 0.0, -0.0625, 0.0, 0.0
740, -0.16727716727716727, -3.04029304029304, 0.047619047619047616, 0.0625, 0.0625, -0.03125, 0.0
741, -0.11355311355311355, -3.065934065934066, -0.040293040293040296, 0.15625, 0.0, 0.0, 0.0
742, -0.10134310134310134, -3.199023199023199, -0.04884004884004884, 0.09375, -0.125, 0.0, 0.0
743, -0.20146520146520147, -3.398046398046398, -0.06715506715506715, -0.03125, -0.125, 0.0, 0.0
744, -0.2698412698412698, -3.1684981684981683, 0.15873015873015872, -0.0625, 0.0, 0.0, 0.0
745, 0.28327228327228327, -3.1355311355311355, 0.5042735042735043, 0.09375, 0.0625, 0.0, 0.0
746, 0.28083028083028083, -3.2612942612942613, 0.2796092796092796, 0.125, -0.03125, 0.0, 0.0
747, 0.06837606837606838, -3.0036630036630036, 0.17826617826617827, 0.0625, -0.09375, -0.03125, 0.0
748, 0.16971916971916973, -2.8534798534798536, 0.4432234432234432, 0.15625, -0.03125, -0.03125, 0.0
749, 0.5592185592185592, -2.6971916971916974, 0.6959706959706959, 0.40625, 0.0, -0.0625, 0.0
750, 0.7472527472527473, -3.608058608058608, 0.15262515262515264, 0.5625, -0.125, -0.125, 1.0
751, -0.019536019536019536, -3.3211233211233213, -0.45787545787545786, 0.34375, -0.1875, -0.1875, 1.0
752, -1.05006105006105, -2.9523809523809526, -0.8302808302808303, 0.25, -0.21875, -0.1875, 1.0
753, -1.927960927960928, -3.4053724053724053, -1.534798534798535, 0.3125, -0.0625, -0.0625, 1.0
754, -2.525030525030525, -3.6788766788766787, -2.1294261294261294, 0.0625, 0.15625, 0.0625, 1.0
755, -2.5054945054945055, -4.267399267399267, -2.5213675213675213, -0.21875, 0.375, 0.21875, 1.0
756, -3.1343101343101343, -4.444444444444445, -2.6996336996337, -0.53125, 0.21875, 0.5625, 1.0
757, -4.4774114774114775, -5.072039072039072, -3.1514041514041513, -0.71875, -0.125, 0.875, 1.0
758, -5.764346764346764, -5.847374847374847, -3.7203907203907205, -1.125, -0.65625, 1.28125, 1.0
759, -6.846153846153846, -6.798534798534798, -4.2686202686202686, -1.84375, -1.0625, 1.84375, 1.0
760, -7.003663003663004, -7.445665445665446, -4.1440781440781445, -2.71875, -1.5, 2.59375, 1.0
761, -5.456654456654457, -8.300366300366301, -2.7374847374847375, -3.46875, -2.5, 3.25, 1.0
762, -3.0146520146520146, -8.901098901098901, -0.6666666666666666, -4.03125, -4.5625, 3.84375, 1.0
763, -3.7716727716727716, -8.142857142857142, 1.6385836385836385, -4.15625, -6.375, 4.5625, 1.0
764, -4.426129426129426, -6.783882783882784, 2.8412698412698414, -3.8125, -6.84375, 5.25, 1.0
765, -2.758241758241758, -5.681318681318682, 2.6385836385836385, -3.375, -6.65625, 5.5, 1.0
766, -0.45054945054945056, -4.768009768009768, 2.586080586080586, -3.21875, -6.5, 5.40625, 1.0
767, 0.5860805860805861, -4.140415140415141, 2.1184371184371185, -3.0625, -6.15625, 5.15625, 1.0
768, 2.427350427350427, -4.6752136752136755, 0.4053724053724054, -2.78125, -5.6875, 4.34375, 1.0
769, 1.7863247863247864, -3.1355311355311355, 0.7094017094017094, -2.71875, -5.9375, 3.90625, 1.0
770, 1.47985347985348, -2.7716727716727716, 0.7448107448107448, -2.09375, -5.9375, 3.28125, 1.0
771, 1.2246642246642248, -2.9328449328449326, -0.6825396825396826, -1.25, -5.625, 2.46875, 1.0
772, 2.2954822954822953, -4.181929181929182, -2.114774114774115, -0.5625, -4.9375, 1.875, 1.0
773, 2.236874236874237, -3.1196581196581197, -2.3736263736263736, -0.28125, -4.625, 1.59375, 1.0
774, 1.2417582417582418, -1.0488400488400489, -2.05006105006105, 0.3125, -4.09375, 1.5, 1.0
775, 1.8534798534798536, -2.2564102564102564, -2.398046398046398, 1.15625, -3.5625, 1.3125, 1.0
776, 1.0, -2.6666666666666665, -2.894993894993895, 1.1875, -3.5, 0.90625, 1.0
777, -0.358974358974359, -0.3308913308913309, -2.7020757020757022, 1.15625, -3.0625, 0.8125, 1.0
778, 0.030525030525030524, 0.09645909645909646, -3.166056166056166, 1.53125, -2.40625, 0.96875, 1.0
779, 0.28205128205128205, -0.4542124542124542, -4.308913308913309, 1.96875, -1.75, 1.25, 1.0
780, 3.3504273504273505, -2.3284493284493286, -5.434676434676435, 1.53125, -1.59375, 0.90625, 1.0
781, 1.4456654456654456, -1.122100122100122, -5.752136752136752, 0.8125, -1.53125, 0.5, 1.0
782, -0.9877899877899878, 1.133089133089133, -4.863247863247863, 0.78125, -0.6875, 0.71875, 1.0
783, -0.4078144078144078, 1.6275946275946276, -3.6056166056166057, 1.09375, -0.0625, 1.0, 1.0
784, 1.321123321123321, 0.09035409035409035, -3.468864468864469, 0.90625, -0.09375, 1.03125, 1.0
785, 1.7606837606837606, -0.27350427350427353, -3.431013431013431, 0.53125, -0.15625, 0.78125, 1.0
786, 1.7582417582417582, -0.08424908424908426, -3.3394383394383396, 0.40625, 0.0625, 0.625, 1.0
787, 2.202686202686203, -0.05860805860805861, -3.056166056166056, 0.375, 0.25, 0.375, 1.0
788, 2.3284493284493286, -0.28327228327228327, -2.896214896214896, 0.21875, 0.1875, 0.15625, 1.0
789, 1.63003663003663, -0.3553113553113553, -2.58974358974359, -0.03125, 0.09375, 0.03125, 1.0
790, 0.8083028083028083, -0.11355311355311355, -1.7777777777777777, -0.21875, 0.15625, 0.03125, 1.0
791, 0.48595848595848595, 0.1514041514041514, 0.12454212454212454, -0.1875, 0.25, 0.0625, 1.0
792, 0.1684981684981685, 0.38095238095238093, 0.612942612942613, -0.0625, 0.21875, 0.125, 1.0
793, 0.6398046398046398, -0.09035409035409035, 0.8424908424908425, 0.0, 0.1875, 0.125, 1.0
794, 0.3894993894993895, -0.37484737484737485, 0.8241758241758241, 0.0, 0.0, 0.03125, 1.0
795, -0.13675213675213677, 0.1111111111111111, 0.7777777777777778, -0.03125, 0.0, 0.0, 1.0
796, 0.115995115995116, -0.1330891330891331, 0.4835164835164835, 0.09375, 0.09375, 0.03125, 1.0
797, 0.23565323565323565, -0.31013431013431014, 0.09157509157509157, 0.125, 0.03125, 0.0, 1.0
798, -0.013431013431013432, -0.32112332112332115, -0.23443223443223443, 0.0625, -0.03125, -0.0625, 1.0
799, -0.10744810744810745, -0.10744810744810745, -0.2515262515262515, 0.0, -0.03125, -0.09375, 1.0
800, -0.3504273504273504, 0.11843711843711843, -0.14896214896214896, -0.0625, -0.03125, -0.0625, 1.0
801, -0.2503052503052503, 0.3247863247863248, 0.002442002442002442, 0.0, 0.0625, 0.0, 1.0
802, 0.07203907203907203, 0.0695970695970696, -0.18437118437118438, 0.15625, 0.125, 0.09375, 1.0
803, -0.12698412698412698, -0.002442002442002442, -0.34676434676434675, 0.15625, 0.125, 0.0625, 1.0
804, -0.1794871794871795, -0.052503052503052504, -0.4188034188034188, 0.0625, 0.1875, 0.03125, 1.0
805, -0.12576312576312576, 0.02442002442002442, -0.409035409035409, 0.03125, 0.25, 0.03125, 1.0
806, -0.2576312576312576, -0.24664224664224665, -0.8266178266178266, -0.03125, 0.40625, 0.09375, 1.0
807, 0.0, -0.5238095238095238, -1.0512820512820513, -0.28125, 0.53125, 0.03125, 0.0
808, -0.19658119658119658, 0.02442002442002442, -0.6593406593406593, -0.3125, 0.5625, 0.0, 0.0
809, 0.304029304029304, -0.042735042735042736, -0.3308913308913309, -0.1875, 0.5625, -0.03125, 0.0
810, 0.14285714285714285, -0.2454212454212454, -1.05006105006105, -0.09375, 0.65625, -0.125, 0.0
811, 0.1330891330891331, -0.7484737484737485, -2.0720390720390722, -0.0625, 0.84375, -0.125, 0.0
812, 0.221001221001221, -0.06593406593406594, -2.6825396825396823, 0.03125, 1.28125, -0.125, 0.0
813, -0.23321123321123322, -0.47619047619047616, -3.0586080586080584, 0.21875, 2.03125, -0.1875, 0.0
814, 0.04151404151404151, -0.4017094017094017, -3.1623931623931623, 0.5625, 2.90625, -0.46875, 0.0
815, 1.7667887667887667, -1.5677655677655677, -3.2356532356532357, 0.5625, 3.6875, -0.625, 0.0
816, 1.6324786324786325, -1.8595848595848596, -3.2405372405372406, 0.3125, 4.0, -0.875, 0.0
817, 1.938949938949939, -1.1086691086691087, -2.8534798534798536, 0.15625, 4.28125, -1.15625, 0.0
818, 1.1184371184371185, -0.5836385836385837, -2.357753357753358, 0.21875, 4.625, -1.375, 0.0
819, 0.8412698412698413, -0.3516483516483517, -1.647130647130647, 0.46875, 5.1875, -1.34375, 0.0
820, 0.5763125763125763, -0.045177045177045176, -1.2014652014652014, 0.71875, 5.71875, -1.15625, 0.0
821, 1.0586080586080586, 0.7912087912087912, -0.6825396825396826, 1.0625, 6.3125, -1.15625, 0.0
822, 2.0085470085470085, 1.3504273504273505, -0.25274725274725274, 1.53125, 6.59375, -1.40625, 0.0
823, 2.8913308913308913, 2.3345543345543347, 0.17094017094017094, 1.9375, 6.4375, -1.9375, 0.0
824, 1.47985347985348, 3.559218559218559, -0.22832722832722832, 2.15625, 6.0, -2.1875, 0.0
825, 0.8901098901098901, 5.130647130647131, -0.07936507936507936, 2.3125, 5.84375, -2.25, 0.0
826, 0.8412698412698413, 4.852258852258852, 0.030525030525030524, 2.9375, 6.09375, -2.40625, 0.0
827, 1.7875457875457876, 1.2087912087912087, 0.042735042735042736, 3.25, 5.4375, -2.5, 0.0
828, 2.064713064713065, -2.695970695970696, -0.3528693528693529, 3.28125, 4.5, -2.625, 0.0
829, 1.601953601953602, -4.481074481074481, -0.24297924297924298, 3.15625, 3.8125, -2.78125, 0.0
830, 0.9108669108669109, -5.084249084249084, -0.2612942612942613, 3.1875, 3.03125, -2.75, 0.0
831, 0.014652014652014652, -5.115995115995116, -0.48595848595848595, 3.28125, 2.28125, -2.6875, 0.0
832, -0.967032967032967, -5.99023199023199, -0.9658119658119658, 3.25, 1.6875, -2.5, 0.0
833, -1.4884004884004884, -6.239316239316239, -1.1013431013431014, 3.125, 1.40625, -2.375, 0.0
834, -1.7985347985347986, -6.147741147741148, -0.9230769230769231, 3.09375, 1.15625, -2.1875, 0.0
835, -1.6214896214896215, -5.52991452991453, -0.9914529914529915, 3.21875, 0.75, -2.03125, 0.0
836, -1.9914529914529915, -5.78021978021978, -1.3015873015873016, 3.1875, 0.40625, -1.8125, 0.0
837, -2.10989010989011, -6.136752136752137, -1.3064713064713065, 3.0, 0.15625, -1.59375, 0.0
838, -1.7557997557997558, -4.808302808302808, -0.7032967032967034, 2.84375, 0.0, -1.4375, 0.0
839, -1.7606837606837606, -4.418803418803419, -1.1807081807081807, 3.03125, -0.1875, -1.375, 0.0
840, -2.595848595848596, -5.086691086691086, -2.1587301587301586, 3.0625, -0.4375, -1.125, 0.0
841, -2.608058608058608, -5.427350427350428, -2.711843711843712, 2.6875, -0.65625, -0.875, 0.0
842, -3.05006105006105, -4.827838827838828, -3.1807081807081805, 2.0625, -0.8125, -0.75, 0.0
843, -4.057387057387057, -4.1001221001221, -3.191697191697192, 1.71875, -0.625, -0.71875, 0.0
844, -3.7435897435897436, -3.5274725274725274, -3.2344322344322345, 1.6875, -0.09375, -0.5, 0.0
845, -2.6764346764346763, -4.095238095238095, -3.1306471306471306, 1.5, 0.0625, -0.15625, 0.0
846, -1.695970695970696, -4.180708180708181, -2.7875457875457874, 1.03125, -0.1875, -0.03125, 0.0
847, -0.989010989010989, -4.054945054945055, -2.051282051282051, 0.46875, -0.625, 0.09375, 0.0
848, -1.4371184371184371, -3.3846153846153846, -1.3724053724053724, 0.1875, -0.625, 0.0625, 0.0
849, -0.8168498168498168, -3.208791208791209, -1.0305250305250304, 0.25, 0.125, 0.03125, 0.0
850, 0.13675213675213677, -3.4285714285714284, -0.9194139194139194, 0.125, 0.1875, 0.0, 0.0
851, 0.7594627594627594, -3.468864468864469, -0.3418803418803419, -0.0625, 0.0, 0.0, 0.0
852, 1.0586080586080586, -2.9157509157509156, 0.5018315018315018, -0.125, -0.1875, 0.0, 0.0
853, 0.6007326007326007, -2.686202686202686, 0.78998778998779, 0.0, -0.1875, -0.03125, 0.0
854, 0.07692307692307693, -2.7142857142857144, 0.5592185592185592, 0.1875, -0.0625, -0.03125, 0.0
855, -0.09035409035409035, -2.8693528693528694, 0.17338217338217338, 0.15625, -0.09375, -0.03125, 0.0
856, -0.32234432234432236, -2.9108669108669107, 0.17216117216117216, 0.0625, -0.28125, 0.0, 0.0
857, 0.08424908424908426, -3.0586080586080584, 0.7435897435897436, 0.0625, -0.375, 0.0625, 0.0
858, 0.42124542124542125, -3.0915750915750917, 0.9706959706959707, 0.21875, -0.34375, 0.0, 0.0
859, 0.06715506715506715, -3.094017094017094, 0.4590964590964591, 0.28125, -0.21875, 0.0, 0.0
860, -0.015873015873015872, -3.006105006105006, 0.07814407814407814, 0.3125, -0.0625, 0.0, 0.0
861, 0.8217338217338217, -2.9523809523809526, 0.49694749694749696, 0.4375, -0.125, -0.03125, 0.0
862, 0.8168498168498168, -2.9621489621489623, 0.5995115995115995, 0.6875, -0.25, -0.0625, 0.0
863, 0.5824175824175825, -3.6056166056166057, -0.4139194139194139, 0.84375, -0.40625, -0.09375, 1.0
864, -0.2442002442002442, -3.993894993894994, -2.017094017094017, 0.5625, -0.5625, -0.1875, 1.0
865, -0.8473748473748474, -3.5409035409035408, -2.4224664224664223, 0.0, -0.46875, -0.125, 1.0
866, -0.9438339438339438, -3.1965811965811968, -1.619047619047619, -0.1875, -0.125, -0.09375, 1.0
867, -0.7155067155067155, -3.744810744810745, -1.6446886446886446, -0.125, 0.21875, -0.09375, 1.0
868, -0.4884004884004884, -4.09035409035409, -2.0317460317460316, -0.53125, 0.15625, 0.0, 1.0
869, -1.3687423687423688, -3.8754578754578755, -2.4835164835164836, -1.21875, -0.125, 0.15625, 1.0
870, -2.3321123321123323, -3.8547008547008548, -3.253968253968254, -1.84375, -0.3125, 0.4375, 1.0
871, -2.7301587301587302, -4.112332112332112, -4.141636141636142, -2.375, -0.625, 0.875, 1.0
872, -3.416361416361416, -4.822954822954823, -4.7484737484737485, -3.125, -1.25, 1.75, 1.0
873, -3.956043956043956, -5.253968253968254, -4.039072039072039, -4.15625, -2.59375, 2.125, 1.0
874, -3.8241758241758244, -6.072039072039072, -2.5921855921855923, -4.28125, -3.71875, 2.28125, 1.0
875, -3.9084249084249083, -6.7203907203907205, -0.6166056166056166, -4.21875, -4.96875, 2.5625, 1.0
876, -4.472527472527473, -6.589743589743589, 1.5982905982905984, -3.71875, -5.84375, 2.96875, 1.0
877, -4.428571428571429, -7.236874236874237, 2.786324786324786, -3.125, -6.4375, 3.40625, 1.0
878, -4.757020757020757, -7.492063492063492, 3.0195360195360195, -2.625, -6.4375, 3.71875, 1.0
879, -4.135531135531136, -7.214896214896215, 2.6984126984126986, -2.125, -6.125, 3.875, 1.0
880, -3.312576312576313, -5.819291819291819, 3.1648351648351647, -1.78125, -6.3125, 3.875, 1.0
881, -2.9926739926739927, -4.426129426129426, 3.827838827838828, -1.40625, -6.8125, 3.71875, 1.0
882, -4.989010989010989, -3.888888888888889, 3.4652014652014653, -0.9375, -6.4375, 3.78125, 1.0
883, -5.434676434676435, -3.1025641025641026, 1.442002442002442, 0.0, -4.40625, 4.625, 1.0
884, 0.42857142857142855, -4.853479853479853, 0.42246642246642246, 0.125, -4.15625, 4.375, 1.0
885, 1.9597069597069596, -2.938949938949939, 0.7594627594627594, -0.375, -5.75, 2.875, 1.0
886, -2.9536019536019538, -1.606837606837607, -0.5738705738705738, -0.03125, -5.375, 2.46875, 1.0
887, 0.7228327228327228, -3.111111111111111, -2.230769230769231, 0.78125, -3.59375, 2.78125, 1.0
888, 6.683760683760684, -5.308913308913309, -2.3211233211233213, 0.6875, -3.6875, 2.0625, 1.0
889, 0.6703296703296703, -1.4957264957264957, -1.7594627594627594, -0.21875, -5.25, 1.03125, 1.0
890, -3.52014652014652, 0.5335775335775336, -2.894993894993895, 0.28125, -3.96875, 0.875, 1.0
891, 0.945054945054945, -1.474969474969475, -4.208791208791209, 1.21875, -2.0625, 1.4375, 1.0
892, 5.227106227106227, -3.965811965811966, -5.128205128205129, 1.09375, -2.25, 1.125, 1.0
893, 1.6434676434676434, -1.398046398046398, -4.615384615384615, 0.34375, -3.28125, 0.28125, 1.0
894, -2.122100122100122, -0.31746031746031744, -3.7301587301587302, 0.59375, -2.78125, 0.1875, 1.0
895, -0.6678876678876678, 0.5726495726495726, -4.0647130647130645, 1.21875, -1.8125, 0.625, 1.0
896, 1.2808302808302807, -1.4065934065934067, -5.924297924297925, 1.9375, -0.84375, 0.90625, 1.0
897, 3.6678876678876677, -3.05006105006105, -8.079365079365079, 1.21875, -0.90625, 0.4375, 1.0
898, 2.311355311355311, -2.2344322344322345, -8.235653235653235, 0.4375, -0.5, 0.0, 1.0
899, 1.3724053724053724, -0.8815628815628815, -6.358974358974359, 0.09375, -0.03125, -0.03125, 1.0
900, 0.8669108669108669, 0.36507936507936506, -3.7716727716727716, 0.15625, 0.3125, 0.0, 1.0
901, 0.8632478632478633, 0.7289377289377289, -2.415140415140415, 0.28125, 0.5625, 0.125, 1.0
902, 1.6153846153846154, 0.3431013431013431, -1.7106227106227105, 0.21875, 0.5625, 0.0625, 1.0
903, 1.7814407814407816, 0.11721611721611722, -1.188034188034188, 0.0, 0.34375, -0.0625, 1.0
904, 0.9401709401709402, 0.43101343101343104, -0.6568986568986569, -0.09375, 0.28125, -0.0625, 1.0
905, 0.3137973137973138, 0.7057387057387058, -0.27106227106227104, -0.0625, 0.3125, 0.0, 1.0
906, -0.04151404151404151, 0.702075702075702, 0.22344322344322345, 0.03125, 0.40625, 0.0625, 1.0
907, 0.34554334554334554, -0.03785103785103785, 0.4432234432234432, -0.0625, 0.28125, 0.0, 1.0
908, -0.3308913308913309, -0.08791208791208792, 0.8742368742368742, -0.09375, 0.09375, -0.0625, 1.0
909, -0.16727716727716727, -0.03907203907203907, 1.0146520146520146, -0.0625, 0.09375, -0.03125, 1.0
910, -0.29304029304029305, 0.06227106227106227, 0.967032967032967, 0.0, 0.0, 0.0, 1.0
911, -0.44078144078144077, 0.04151404151404151, 0.7301587301587301, 0.09375, 0.0, 0.03125, 1.0
912, 0.0463980463980464, -0.27594627594627597, 0.536019536019536, 0.125, -0.0625, 0.03125, 1.0
913, -0.04395604395604396, -0.10744810744810745, 0.28327228327228327, 0.09375, -0.15625, 0.0, 1.0
914, -0.11721611721611722, -0.12942612942612944, -0.1330891330891331, 0.125, -0.125, 0.0, 1.0
915, 0.2588522588522589, -0.17582417582417584, -0.4835164835164835, 0.09375, -0.09375, 0.0, 1.0
916, 0.07936507936507936, -0.2600732600732601, -0.8937728937728938, 0.09375, -0.09375, 0.0, 1.0
917, 0.4236874236874237, -0.24664224664224665, -1.0818070818070817, 0.03125, 0.0, 0.0, 1.0
918, 0.15018315018315018, -0.23443223443223443, -0.989010989010989, 0.0, 0.0, -0.03125, 1.0
919, 0.08669108669108669, -0.11843711843711843, -0.8461538461538461, -0.03125, 0.25, 0.0, 1.0
920, 0.02197802197802198, -0.16483516483516483, -1.0842490842490842, -0.15625, 0.4375, 0.0, 1.0
921, -0.11721611721611722, -0.21978021978021978, -1.6349206349206349, -0.28125, 0.6875, 0.0, 0.0
922, 0.013431013431013432, 0.09035409035409035, -1.9242979242979243, -0.28125, 0.9375, -0.03125, 0.0
923, 0.29304029304029305, -0.21123321123321123, -2.1367521367521367, -0.15625, 1.3125, -0.34375, 0.0
924, 0.7765567765567766, -0.3321123321123321, -2.681318681318681, 0.03125, 1.90625, -0.90625, 0.0
925, 1.2466422466422467, -1.2075702075702075, -3.755799755799756, 0.0625, 2.15625, -1.15625, 0.0
926, 0.575091575091575, -1.9023199023199022, -4.897435897435898, -0.15625, 2.46875, -1.03125, 0.0
927, 0.7924297924297924, -1.363858363858364, -4.648351648351649, -0.28125, 3.125, -1.28125, 0.0
928, 1.0244200244200243, -1.1587301587301588, -4.423687423687424, -0.15625, 3.65625, -1.34375, 0.0
929, 0.8437118437118437, -0.8376068376068376, -4.05006105006105, 0.0625, 4.21875, -1.4375, 0.0
930, 0.7826617826617827, -1.3650793650793651, -3.7643467643467643, 0.21875, 4.8125, -1.53125, 0.0
931, 1.15018315018315, -0.9548229548229549, -2.057387057387057, 0.40625, 5.59375, -1.53125, 0.0
932, 1.3687423687423688, -0.047619047619047616, -0.927960927960928, 0.75, 6.03125, -1.5, 0.0
933, 1.0561660561660562, 0.6166056166056166, -0.2600732600732601, 1.28125, 6.1875, -1.5, 0.0
934, 0.8217338217338217, 0.7619047619047619, 0.030525030525030524, 2.03125, 6.5, -1.65625, 0.0
935, 1.0744810744810744, 1.6923076923076923, 0.0695970695970696, 2.46875, 6.875, -2.125, 0.0
936, 2.064713064713065, 2.7472527472527473, -0.38095238095238093, 2.53125, 6.53125, -2.375, 0.0
937, 1.0207570207570207, 5.884004884004884, -0.12698412698412698, 2.4375, 5.78125, -2.34375, 0.0
938, 0.7973137973137974, 3.791208791208791, 0.0, 2.8125, 5.40625, -2.625, 0.0
939, 1.0683760683760684, -1.7875457875457876, -0.5763125763125763, 3.28125, 5.0, -2.875, 0.0
940, -0.052503052503052504, -3.989010989010989, -1.3736263736263736, 3.34375, 4.1875, -2.875, 0.0
941, -0.37606837606837606, -5.075702075702075, -1.4810744810744811, 3.15625, 3.3125, -2.75, 0.0
942, -0.7533577533577533, -5.653235653235654, -0.6959706959706959, 3.4375, 2.71875, -2.625, 0.0
943, -0.336996336996337, -5.896214896214897, -0.5592185592185592, 3.84375, 2.34375, -2.625, 0.0
944, -0.21611721611721613, -6.531135531135531, -0.8156288156288156, 3.96875, 1.46875, -2.53125, 0.0
945, -1.061050061050061, -7.202686202686203, -1.4334554334554335, 3.71875, 0.625, -2.375, 0.0
946, -2.0781440781440783, -7.583638583638583, -1.7387057387057387, 3.25, 0.21875, -2.1875, 0.0
947, -2.7252747252747254, -6.848595848595848, -1.6947496947496947, 3.0, 0.21875, -2.0625, 0.0
948, -2.6312576312576312, -6.275946275946276, -1.465201465201465, 3.03125, 0.34375, -1.875, 0.0
949, -2.371184371184371, -6.249084249084249, -1.4566544566544566, 2.9375, 0.1875, -1.625, 0.0
950, -2.0256410256410255, -6.757020757020757, -1.5006105006105006, 2.46875, -0.09375, -1.4375, 0.0
951, -2.2051282051282053, -6.067155067155067, -1.065934065934066, 2.15625, -0.5, -1.28125, 0.0
952, -2.954822954822955, -4.945054945054945, -1.0134310134310134, 2.15625, -0.6875, -1.15625, 0.0
953, -3.8742368742368742, -4.9633699633699635, -1.4627594627594627, 2.15625, -0.59375, -0.90625, 0.0
954, -3.376068376068376, -4.9072039072039075, -2.7032967032967035, 1.53125, -0.375, -0.5625, 0.0
955, -2.5238095238095237, -4.599511599511599, -2.3284493284493286, 1.0, -0.46875, -0.34375, 0.0
956, -2.21978021978022, -4.126984126984127, -1.7777777777777777, 0.6875, -0.6875, -0.15625, 0.0
957, -1.9841269841269842, -3.4725274725274726, -1.5897435897435896, 0.6875, -0.59375, -0.0625, 0.0
958, -0.8107448107448108, -4.207570207570208, -2.103785103785104, 0.65625, -0.46875, -0.03125, 0.0
959, -0.608058608058608, -4.111111111111111, -2.1636141636141635, 0.1875, -0.5625, -0.0625, 0.0
960, -0.590964590964591, -3.5006105006105006, -1.708180708180708, -0.15625, -0.375, -0.09375, 0.0
961, -0.007326007326007326, -3.166056166056166, -0.9206349206349206, -0.1875, 0.03125, -0.0625, 0.0
962, 0.7191697191697192, -3.1575091575091574, -0.11233211233211234, -0.0625, 0.1875, -0.09375, 0.0
963, 0.8876678876678876, -3.266178266178266, 0.28083028083028083, -0.0625, 0.0625, -0.125, 0.0
964, 0.3614163614163614, -3.012210012210012, 0.3797313797313797, -0.125, -0.09375, -0.15625, 0.0
965, -0.41514041514041516, -2.688644688644689, 0.28083028083028083, -0.125, -0.09375, -0.15625, 0.0
966, -0.32234432234432236, -2.844932844932845, 0.2796092796092796, -0.03125, 0.09375, -0.0625, 0.0
967, 0.07326007326007326, -2.9023199023199022, 0.4017094017094017, 0.0, 0.0625, -0.03125, 0.0
968, 0.31013431013431014, -3.1074481074481075, 0.3333333333333333, 0.0625, -0.09375, -0.03125, 0.0
969, -0.004884004884004884, -2.95970695970696, 0.05128205128205128, 0.0625, -0.15625, -0.0625, 0.0
970, -0.5042735042735043, -2.9816849816849818, -0.2026862026862027, 0.0625, -0.03125, 0.0, 0.0
971, -0.08913308913308914, -3.070818070818071, -0.07814407814407814, 0.09375, 0.0625, 0.0, 0.0
972, 0.5702075702075702, -3.1892551892551895, 0.01098901098901099, 0.09375, 0.0, -0.03125, 0.0
973, 0.5970695970695971, -3.0415140415140414, 0.12454212454212454, 0.125, -0.09375, -0.0625, 0.0
974, 0.3894993894993895, -3.061050061050061, 0.1111111111111111, 0.09375, -0.0625, -0.125, 0.0
975, 0.21611721611721613, -2.6984126984126986, 0.33577533577533575, 0.3125, 0.0, -0.1875, 0.0
976, 0.4004884004884005, -2.8656898656898657, 0.3614163614163614, 0.46875, 0.0, -0.25, 1.0
977, 0.2857142857142857, -3.10989010989011, 0.0463980463980464, 0.34375, -0.21875, -0.3125, 1.0
978, -0.9047619047619048, -3.862026862026862, -2.5006105006105006, 0.0, -0.40625, -0.28125, 1.0
979, -2.3272283272283274, -3.6935286935286937, -3.3736263736263736, -0.625, -0.53125, -0.15625, 1.0
980, -2.786324786324786, -3.647130647130647, -3.68986568986569, -1.1875, -0.3125, 0.0, 1.0
981, -3.1868131868131866, -3.894993894993895, -3.965811965811966, -1.53125, -0.125, 0.375, 1.0
982, -3.822954822954823, -4.669108669108669, -4.621489621489621, -2.15625, -0.5, 0.9375, 1.0
983, -5.117216117216117, -4.632478632478633, -4.15995115995116, -2.84375, -1.09375, 1.5, 1.0
984, -5.848595848595848, -5.495726495726496, -3.6715506715506714, -3.15625, -1.625, 1.9375, 1.0
985, -5.908424908424909, -6.343101343101343, -2.815628815628816, -3.46875, -2.21875, 2.46875, 1.0
986, -5.1782661782661785, -6.7826617826617825, -1.1636141636141637, -3.8125, -3.03125, 3.25, 1.0
987, -3.167277167277167, -7.603174603174603, 0.8437118437118437, -3.96875, -4.34375, 3.90625, 1.0
988, -2.9621489621489623, -7.916971916971917, 2.901098901098901, -3.9375, -6.34375, 4.28125, 1.0
989, -4.483516483516484, -7.3760683760683765, 4.0647130647130645, -3.25, -7.96875, 4.1875, 1.0
990, -5.8388278388278385, -6.652014652014652, 3.1013431013431014, -2.65625, -7.125, 4.3125, 1.0
991, -4.921855921855922, -4.717948717948718, 2.518925518925519, -2.0, -5.90625, 4.65625, 1.0
992, -2.3601953601953602, -3.514041514041514, 2.5286935286935286, -1.15625, -5.28125, 4.875, 1.0
993, 0.8315018315018315, -3.9816849816849818, 1.2087912087912087, -0.71875, -5.03125, 4.59375, 1.0
994, 2.177045177045177, -5.794871794871795, 0.07814407814407814, -1.28125, -5.03125, 3.40625, 1.0
995, 1.2148962148962148, -3.838827838827839, 0.2625152625152625, -1.59375, -5.0625, 2.875, 1.0
996, 0.02564102564102564, -0.8278388278388278, -0.2454212454212454, -0.53125, -4.40625, 2.84375, 1.0
997, 1.6056166056166057, -1.205128205128205, -0.8253968253968254, 0.0625, -4.3125, 2.875, 1.0
998, 3.3443223443223444, -2.871794871794872, -1.2222222222222223, 0.09375, -4.59375, 1.9375, 1.0
999, 1.5836385836385836, -3.3785103785103785, -3.752136752136752, -0.40625, -4.125, 1.34375, 1.0
1000, 0.2612942612942613, -0.2612942612942613, -3.202686202686203, -0.3125, -3.5625, 0.96875, 1.0
1001, -2.1477411477411477, 1.2893772893772895, -0.9768009768009768, 0.03125, -3.8125, 0.96875, 1.0
1002, -3.4542124542124544, 2.695970695970696, -1.728937728937729, 0.875, -3.125, 1.40625, 1.0
1003, 0.4981684981684982, -1.286935286935287, -3.7374847374847375, 2.03125, -1.84375, 2.0, 1.0
1004, 3.4493284493284495, -2.8766788766788767, -4.599511599511599, 1.875, -1.78125, 1.71875, 1.0
1005, 1.199023199023199, -0.9914529914529915, -4.722832722832723, 1.21875, -2.3125, 0.9375, 1.0
1006, -0.5518925518925519, 0.054945054945054944, -4.673992673992674, 0.96875, -1.84375, 0.875, 1.0
1007, -0.221001221001221, 1.6703296703296704, -3.47008547008547, 1.34375, -1.0, 1.125, 1.0
1008, 1.78998778998779, -0.34798534798534797, -4.592185592185592, 2.09375, -0.21875, 1.46875, 1.0
1009, 3.47985347985348, -2.017094017094017, -6.006105006105006, 1.84375, -0.3125, 1.4375, 1.0
1010, 3.0891330891330893, -1.989010989010989, -6.236874236874237, 1.0625, -0.4375, 0.96875, 1.0
1011, 2.6202686202686203, -1.0122100122100122, -4.848595848595848, 0.40625, -0.34375, 0.625, 1.0
1012, 2.47985347985348, -0.3125763125763126, -3.382173382173382, 0.125, -0.125, 0.25, 1.0
1013, 1.6214896214896215, 0.12698412698412698, -2.6715506715506714, 0.09375, 0.0, 0.15625, 1.0
1014, 1.5726495726495726, 0.1452991452991453, -2.2405372405372406, 0.03125, 0.0, 0.03125, 1.0
1015, 0.9645909645909646, 0.2796092796092796, -1.8510378510378511, -0.125, 0.0, -0.0625, 1.0
1016, 0.5042735042735043, 0.4432234432234432, -1.2991452991452992, -0.28125, -0.03125, -0.1875, 1.0
1017, 0.026862026862026864, 0.4517704517704518, -0.818070818070818, -0.40625, -0.03125, -0.1875, 1.0
1018, -0.22832722832722832, 1.115995115995116, -0.008547008547008548, -0.21875, 0.03125, -0.125, 1.0
1019, -0.45665445665445664, 1.133089133089133, 0.3833943833943834, 0.0625, 0.1875, 0.0, 1.0
1020, -0.019536019536019536, 0.5201465201465202, 0.3724053724053724, 0.25, 0.21875, 0.09375, 1.0
1021, 0.37606837606837606, -0.31868131868131866, -0.0989010989010989, 0.09375, 0.03125, 0.0, 1.0
1022, 0.15018315018315018, -0.15262515262515264, -0.14896214896214896, -0.09375, -0.125, -0.0625, 1.0
1023, -0.4725274725274725, 0.38583638583638585, 0.13064713064713065, -0.03125, -0.0625, -0.03125, 1.0
1024, -0.326007326007326, 0.04884004884004884, 0.0989010989010989, 0.1875, 0.125, 0.0625, 1.0
1025, 0.21733821733821734, -0.518925518925519, -0.2844932844932845, 0.15625, 0.125, 0.09375, 1.0
1026, 0.23321123321123322, -0.42124542124542125, -0.19047619047619047, -0.0625, -0.03125, 0.0, 1.0
1027, -0.3235653235653236, 0.06105006105006105, 0.13675213675213677, -0.21875, -0.09375, -0.09375, 1.0
1028, -0.5128205128205128, 0.3492063492063492, 0.336996336996337, -0.09375, 0.0, 0.0, 1.0
1029, -0.16605616605616605, 0.029304029304029304, -0.006105006105006105, 0.0, 0.1875, 0.09375, 1.0
1030, 0.16727716727716727, -0.1684981684981685, -0.3956043956043956, -0.03125, 0.28125, 0.125, 1.0
1031, -0.01221001221001221, 0.08058608058608059, -0.6105006105006106, -0.15625, 0.28125, 0.03125, 0.0
1032, -0.31868131868131866, 0.32844932844932845, -0.7313797313797313, -0.09375, 0.375, 0.0, 0.0
1033, -0.07936507936507936, -0.07081807081807082, -1.0256410256410255, 0.0, 0.5625, -0.125, 0.0
1034, 0.29426129426129427, -0.047619047619047616, -1.647130647130647, 0.0, 0.6875, -0.21875, 0.0
1035, 0.6898656898656899, 0.07326007326007326, -2.3382173382173383, -0.0625, 0.8125, -0.3125, 0.0
1036, 0.7094017094017094, -0.4065934065934066, -2.7643467643467643, -0.09375, 1.09375, -0.28125, 0.0
1037, 0.5836385836385837, -0.38095238095238093, -3.4664224664224665, -0.0625, 1.53125, -0.34375, 0.0
1038, 0.6678876678876678, -0.3076923076923077, -3.9328449328449326, 0.0625, 2.25, -0.5, 0.0
1039, 0.8937728937728938, -0.8241758241758241, -4.326007326007326, 0.34375, 3.125, -0.71875, 0.0
1040, 1.1001221001221002, -1.2344322344322345, -4.330891330891331, 0.4375, 3.96875, -1.0, 0.0
1041, 1.0818070818070817, -1.7619047619047619, -4.433455433455434, 0.34375, 4.625, -1.3125, 0.0
1042, 1.2942612942612943, -1.1086691086691087, -3.987789987789988, 0.34375, 5.09375, -1.5625, 0.0
1043, 0.48473748473748474, -0.31868131868131866, -3.1001221001221, 0.59375, 5.65625, -1.65625, 0.0
1044, 0.8021978021978022, 0.17582417582417584, -2.2393162393162394, 0.96875, 5.90625, -1.5625, 0.0
1045, 0.8864468864468864, -0.16117216117216118, -2.2686202686202686, 1.25, 6.0625, -1.59375, 0.0
1046, 1.2759462759462759, -0.15262515262515264, -2.028083028083028, 1.375, 6.25, -1.90625, 0.0
1047, 0.612942612942613, 1.547008547008547, 0.38583638583638585, 1.9375, 6.84375, -2.0625, 0.0
1048, 1.2808302808302807, 3.1465201465201464, 0.9267399267399268, 2.4375, 7.1875, -2.09375, 0.0
1049, 2.0952380952380953, 4.588522588522588, 1.0134310134310134, 2.8125, 6.90625, -2.40625, 0.0
1050, 1.8192918192918193, 2.4822954822954824, 0.231990231990232, 2.96875, 6.21875, -2.65625, 0.0
1051, 0.9792429792429792, -0.518925518925519, 0.018315018315018316, 3.03125, 5.375, -2.78125, 0.0
1052, 0.028083028083028084, -2.647130647130647, 0.08669108669108669, 3.3125, 4.625, -2.84375, 0.0
1053, 0.5445665445665445, -4.485958485958486, 0.004884004884004884, 3.71875, 4.09375, -2.78125, 0.0
1054, 0.4627594627594628, -5.708180708180708, -0.5067155067155067, 3.90625, 3.25, -2.71875, 0.0
1055, -1.1697191697191698, -6.002442002442002, -1.2503052503052503, 3.84375, 2.15625, -2.71875, 0.0
1056, -2.5995115995115996, -6.318681318681318, -1.3345543345543345, 3.625, 1.5, -2.53125, 0.0
1057, -2.474969474969475, -5.975579975579976, -0.9938949938949939, 3.5625, 1.4375, -2.1875, 0.0
1058, -1.5042735042735043, -5.7936507936507935, -0.9255189255189256, 3.78125, 1.46875, -2.0, 0.0
1059, -1.4261294261294262, -6.2515262515262515, -1.6593406593406594, 3.625, 0.46875, -1.6875, 0.0
1060, -2.227106227106227, -5.9181929181929185, -1.8766788766788767, 3.28125, -0.21875, -1.40625, 0.0
1061, -2.5616605616605614, -5.733821733821734, -1.6703296703296704, 3.09375, -0.65625, -1.21875, 0.0
1062, -3.0244200244200243, -5.087912087912088, -1.7960927960927962, 3.0625, -0.5625, -1.0625, 0.0
1063, -2.9316239316239314, -5.349206349206349, -2.0183150183150182, 2.875, -0.375, -0.84375, 0.0
1064, -1.9426129426129426, -5.15995115995116, -2.1452991452991452, 2.59375, -0.6875, -0.78125, 0.0
1065, -2.6837606837606836, -5.194139194139194, -2.6312576312576312, 2.25, -1.03125, -0.59375, 0.0
1066, -3.2893772893772892, -4.631257631257632, -3.3833943833943834, 1.90625, -1.09375, -0.40625, 0.0
1067, -3.3382173382173383, -4.599511599511599, -3.376068376068376, 1.53125, -1.0, -0.1875, 0.0
1068, -3.006105006105006, -4.4603174603174605, -3.0476190476190474, 1.28125, -0.78125, -0.03125, 0.0
1069, -1.4676434676434675, -4.660561660561661, -3.0903540903540905, 0.875, -0.8125, -0.0625, 0.0
1070, -1.4188034188034189, -4.492063492063492, -2.9621489621489623, 0.21875, -0.71875, -0.03125, 0.0
1071, -0.7081807081807082, -3.95970695970696, -1.9755799755799757, 0.0, -0.4375, 0.0, 0.0
1072, -0.07203907203907203, -3.6776556776556775, -0.9743589743589743, -0.15625, -0.25, 0.0, 0.0
1073, 0.17826617826617827, -3.266178266178266, -0.09645909645909646, -0.15625, -0.0625, 0.0, 0.0
1074, 0.358974358974359, -3.5006105006105006, 0.13797313797313798, -0.09375, 0.03125, 0.0, 0.0
1075, -0.002442002442002442, -3.202686202686203, 0.199023199023199, -0.09375, 0.09375, -0.0625, 0.0
1076, 0.26495726495726496, -3.365079365079365, 0.5177045177045178, -0.09375, 0.0, -0.0625, 0.0
1077, 0.05128205128205128, -3.1953601953601956, 0.3907203907203907, -0.09375, -0.1875, -0.0625, 0.0
1078, -0.11233211233211234, -3.4285714285714284, 0.019536019536019536, -0.09375, -0.1875, 0.0, 0.0
1079, -0.02564102564102564, -3.1623931623931623, -0.030525030525030524, -0.1875, -0.03125, -0.03125, 0.0
1080, -0.09401709401709402, -3.2051282051282053, 0.01221001221001221, -0.09375, 0.09375, -0.0625, 0.0
1081, 0.3601953601953602, -3.5457875457875456, 0.07081807081807082, 0.0, 0.125, -0.03125, 0.0
1082, 0.6361416361416361, -3.5054945054945055, 0.1111111111111111, 0.0, -0.0625, -0.09375, 0.0
1083, 0.09645909645909646, -3.199023199023199, 0.009768009768009768, 0.03125, -0.03125, -0.0625, 0.0
1084, 0.013431013431013432, -3.1794871794871793, 0.014652014652014652, 0.125, 0.0, -0.0625, 0.0
1085, 0.09157509157509157, -3.2625152625152625, -0.003663003663003663, 0.15625, -0.03125, -0.09375, 0.0
1086, -0.04395604395604396, -3.3772893772893773, -0.12454212454212454, 0.125, -0.15625, -0.03125, 0.0
1087, -0.020757020757020756, -3.2185592185592187, 0.052503052503052504, 0.09375, -0.0625, -0.0625, 0.0
1088, 0.028083028083028084, -3.249084249084249, 0.0231990231990232, 0.15625, 0.0, -0.09375, 0.0
1089, -0.18681318681318682, -3.103785103785104, -0.006105006105006105, 0.15625, 0.03125, -0.09375, 0.0
1090, -0.1330891330891331, -3.3321123321123323, 0.0, 0.1875, 0.0625, -0.125, 0.0
1091, -0.12332112332112333, -3.3321123321123323, 0.0231990231990232, 0.1875, -0.03125, -0.125, 0.0
1092, -0.304029304029304, -3.242979242979243, 0.17582417582417584, 0.21875, -0.03125, -0.15625, 0.0
1093, -0.0231990231990232, -3.2246642246642248, 0.3528693528693529, 0.34375, -0.09375, -0.125, 1.0
1094, -0.6446886446886447, -3.3553113553113554, -1.424908424908425, -0.03125, -0.34375, -0.125, 1.0
1095, -1.0854700854700854, -3.3553113553113554, -2.166056166056166, -0.4375, -0.3125, 0.0, 1.0
1096, -1.5677655677655677, -3.413919413919414, -2.568986568986569, -0.65625, -0.28125, 0.15625, 1.0
1097, -2.0671550671550674, -3.727716727716728, -3.10989010989011, -0.875, -0.25, 0.4375, 1.0
1098, -2.758241758241758, -4.492063492063492, -4.504273504273504, -1.5, -0.59375, 0.875, 1.0
1099, -3.673992673992674, -5.235653235653236, -5.295482295482295, -2.6875, -1.46875, 1.46875, 1.0
1100, -5.029304029304029, -5.3003663003663, -4.727716727716728, -3.59375, -2.15625, 2.0, 1.0
1101, -5.256410256410256, -5.851037851037851, -3.197802197802198, -3.90625, -2.78125, 2.4375, 1.0
1102, -6.203907203907204, -6.6129426129426125, -1.6800976800976801, -3.96875, -3.59375, 2.90625, 1.0
1103, -6.628815628815629, -7.8046398046398044, -0.43345543345543347, -4.125, -4.09375, 3.4375, 1.0
1104, -4.9462759462759465, -8.75946275946276, 0.8058608058608059, -4.21875, -4.34375, 3.875, 1.0
1105, -3.0634920634920637, -8.34920634920635, 2.663003663003663, -4.15625, -5.96875, 4.0, 1.0
1106, -2.4993894993894994, -6.492063492063492, 4.186813186813187, -3.59375, -7.21875, 3.65625, 1.0
1107, -4.94017094017094, -4.573870573870574, 3.7545787545787546, -2.71875, -7.03125, 4.0, 1.0
1108, -5.677655677655678, -4.020757020757021, 1.4932844932844933, -1.8125, -5.1875, 4.75, 1.0
1109, 0.5396825396825397, -6.203907203907204, 0.4432234432234432, -1.90625, -4.625, 4.28125, 1.0
1110, 4.645909645909646, -6.964590964590965, 1.326007326007326, -2.625, -6.34375, 3.25, 1.0
1111, 2.0903540903540905, -3.9572649572649574, 2.3443223443223444, -2.71875, -7.53125, 2.1875, 1.0
1112, -4.015873015873016, -0.63003663003663, 0.6568986568986569, -1.28125, -5.6875, 2.46875, 1.0
1113, -2.391941391941392, -1.2173382173382172, -1.89010989010989, 0.375, -3.03125, 3.125, 1.0
1114, 6.4774114774114775, -5.356532356532356, -2.9975579975579976, 0.40625, -3.46875, 2.25, 1.0
1115, 5.145299145299146, -4.875457875457876, -2.1575091575091574, -0.46875, -4.875, 0.9375, 1.0
1116, -2.4114774114774113, 0.4456654456654457, -1.5873015873015872, 0.5625, -3.25, 1.3125, 1.0
1117, 5.454212454212454, -4.521367521367521, -2.656898656898657, 1.90625, -1.8125, 1.84375, 1.0
1118, 2.641025641025641, -4.191697191697192, -3.21978021978022, 0.84375, -3.375, 0.59375, 1.0
1119, -1.927960927960928, -0.47741147741147744, -2.562881562881563, 0.28125, -3.09375, 0.21875, 1.0
1120, 0.35775335775335776, -0.2661782661782662, -1.7643467643467643, 0.84375, -1.90625, 0.5625, 1.0
1121, 1.8888888888888888, -1.2197802197802199, -2.1880341880341883, 1.34375, -1.78125, 0.59375, 1.0
1122, 2.4713064713064714, -2.2344322344322345, -3.236874236874237, 1.125, -2.25, 0.25, 1.0
1123, -0.19047619047619047, -0.8547008547008547, -3.873015873015873, 0.59375, -2.46875, -0.15625, 1.0
1124, -0.4908424908424908, 0.7973137973137974, -3.8107448107448105, 0.5625, -1.75, -0.03125, 1.0
1125, 0.7142857142857143, 0.3418803418803419, -4.275946275946276, 0.9375, -1.0625, 0.21875, 1.0
1126, 0.78998778998779, 0.1575091575091575, -5.0256410256410255, 0.9375, -0.8125, 0.375, 1.0
1127, 0.9304029304029304, 0.42002442002442003, -4.463980463980464, 0.71875, -0.5, 0.40625, 1.0
1128, 0.5873015873015873, 0.4652014652014652, -3.4065934065934065, 0.53125, -0.21875, 0.34375, 1.0
1129, 1.0415140415140416, 0.4188034188034188, -2.542124542124542, 0.28125, -0.0625, 0.3125, 1.0
1130, 0.8669108669108669, 0.45665445665445664, -1.962148962148962, 0.0625, -0.21875, 0.25, 1.0
1131, 0.684981684981685, 0.7582417582417582, -1.2515262515262515, 0.0625, -0.1875, 0.21875, 1.0
1132, 0.4908424908424908, 0.7118437118437119, -0.7411477411477412, 0.125, -0.125, 0.21875, 1.0
1133, 0.3064713064713065, 0.4456654456654457, -0.7753357753357754, 0.28125, -0.03125, 0.25, 1.0
1134, 0.9010989010989011, -0.18192918192918192, -1.1233211233211233, 0.21875, 0.0, 0.1875, 1.0
1135, 0.9316239316239316, -0.5628815628815629, -1.2832722832722834, 0.0625, 0.0, 0.0625, 1.0
1136, 0.4700854700854701, -0.33821733821733824, -0.8876678876678876, 0.0, -0.03125, 0.0, 1.0
1137, 0.12576312576312576, -0.38461538461538464, -0.5164835164835165, -0.03125, 0.0, 0.0, 1.0
1138, -0.13675213675213677, 0.009768009768009768, -0.08669108669108669, 0.03125, 0.09375, 0.09375, 1.0
1139, -0.03540903540903541, -0.08302808302808302, -0.08302808302808302, 0.15625, 0.25, 0.21875, 1.0
1140, 0.5091575091575091, -0.6752136752136753, -0.13797313797313798, 0.03125, 0.125, 0.09375, 1.0
1141, 0.2588522588522589, -0.47619047619047616, 0.07448107448107448, -0.03125, 0.125, 0.03125, 1.0
1142, 0.08058608058608059, -0.2612942612942613, 0.18681318681318682, -0.0625, 0.125, 0.03125, 1.0
1143, 0.08302808302808302, -0.13675213675213677, 0.27594627594627597, 0.0, 0.125, 0.0, 1.0
1144, -0.18192918192918192, 0.09523809523809523, 0.3528693528693529, 0.0625, 0.09375, 0.0, 1.0
1145, -0.115995115995116, -0.22954822954822954, 0.08547008547008547, 0.125, 0.09375, 0.03125, 1.0
1146, -0.030525030525030524, -0.02564102564102564, 0.06471306471306472, 0.0, 0.03125, -0.03125, 1.0
1147, -0.231990231990232, 0.3431013431013431, 0.24053724053724054, -0.0625, 0.0, -0.0625, 1.0
1148, -0.45665445665445664, 0.3333333333333333, 0.07936507936507936, 0.03125, 0.0, -0.03125, 1.0
1149, -0.5433455433455433, 0.22954822954822954, -0.17216117216117216, 0.09375, 0.09375, 0.0, 1.0
1150, -0.41514041514041516, 0.09157509157509157, -0.315018315018315, 0.0625, 0.1875, 0.09375, 1.0
1151, -0.3601953601953602, -0.11721611721611722, -0.8583638583638583, -0.03125, 0.28125, 0.125, 1.0
1152, -0.43956043956043955, 0.11233211233211234, -1.36996336996337, -0.3125, 0.59375, 0.15625, 0.0
1153, -0.32112332112332115, 0.23443223443223443, -1.6251526251526252, -0.28125, 0.875, 0.0625, 0.0
1154, -0.03785103785103785, 0.2087912087912088, -2.1709401709401708, -0.21875, 1.125, 0.03125, 0.0
1155, -0.19413919413919414, 0.08058608058608059, -3.283272283272283, -0.03125, 1.75, 0.0, 0.0
1156, 0.20024420024420025, 0.13553113553113552, -3.884004884004884, 0.21875, 2.5, 0.15625, 0.0
1157, 0.4126984126984127, -0.06471306471306472, -3.7594627594627594, 0.40625, 3.25, 0.03125, 0.0
1158, 0.7887667887667887, -0.9133089133089133, -4.263736263736264, 0.5, 3.96875, -0.15625, 0.0
1159, 1.192918192918193, -1.4578754578754578, -4.587301587301587, 0.4375, 4.59375, -0.34375, 0.0
1160, 1.564102564102564, -1.4395604395604396, -4.078144078144078, 0.3125, 5.03125, -0.5, 0.0
1161, 1.3406593406593406, -1.2625152625152625, -3.4554334554334556, 0.3125, 5.25, -0.6875, 0.0
1162, 0.9645909645909646, -0.706959706959707, -2.647130647130647, 0.46875, 5.4375, -0.78125, 0.0
1163, 0.9206349206349206, -0.29181929181929184, -2.184371184371184, 0.84375, 5.8125, -0.625, 0.0
1164, 0.3333333333333333, 0.4945054945054945, 0.04395604395604396, 1.40625, 6.59375, -0.40625, 0.0
1165, 2.415140415140415, 0.9621489621489622, 0.9499389499389499, 1.96875, 7.0625, -0.71875, 0.0
1166, 2.2332112332112333, 1.5946275946275947, 0.778998778998779, 2.21875, 6.5, -1.15625, 0.0
1167, 0.6275946275946276, 2.9914529914529915, 0.40293040293040294, 2.28125, 5.875, -1.59375, 0.0
1168, 0.115995115995116, 4.902319902319903, 0.6202686202686203, 2.5, 5.6875, -1.9375, 0.0
1169, 0.18437118437118438, 4.77045177045177, 0.9584859584859585, 2.96875, 5.625, -1.9375, 0.0
1170, 1.2039072039072038, 1.7606837606837606, 0.9206349206349206, 3.5625, 5.53125, -2.0625, 0.0
1171, 1.3443223443223444, -1.3394383394383393, 0.26373626373626374, 3.84375, 4.9375, -2.34375, 0.0
1172, 0.4810744810744811, -2.8376068376068377, -0.21855921855921856, 3.8125, 4.0, -2.5, 0.0
1173, -0.4542124542124542, -2.982905982905983, -0.6434676434676435, 3.75, 3.1875, -2.46875, 0.0
1174, -1.1111111111111112, -3.8522588522588523, -0.9365079365079365, 3.8125, 2.53125, -2.34375, 0.0
1175, -1.811965811965812, -4.457875457875458, -1.352869352869353, 3.78125, 1.75, -2.09375, 0.0
1176, -2.126984126984127, -4.847374847374847, -1.5567765567765568, 3.5625, 1.28125, -1.96875, 0.0
1177, -2.1965811965811968, -4.9743589743589745, -1.8278388278388278, 3.3125, 0.84375, -1.8125, 0.0
1178, -2.625152625152625, -4.6068376068376065, -1.5103785103785103, 3.28125, 0.625, -1.59375, 0.0
1179, -2.336996336996337, -4.208791208791209, -1.4395604395604396, 3.46875, 0.4375, -1.40625, 0.0
1180, -2.525030525030525, -4.289377289377289, -1.9401709401709402, 3.5, 0.3125, -1.15625, 0.0
1181, -2.52991452991453, -4.971916971916972, -2.42002442002442, 3.125, 0.09375, -1.03125, 0.0
1182, -1.9133089133089134, -4.5054945054945055, -2.006105006105006, 2.78125, -0.21875, -0.875, 0.0
1183, -1.2991452991452992, -4.764346764346764, -1.4151404151404152, 2.46875, -0.5625, -0.75, 0.0
1184, -0.9499389499389499, -4.167277167277168, -1.0268620268620268, 2.5, -0.84375, -0.84375, 0.0
1185, -2.1697191697191696, -4.074481074481074, -1.978021978021978, 2.5625, -0.90625, -0.75, 0.0
1186, -2.6544566544566544, -4.177045177045177, -2.597069597069597, 2.40625, -0.8125, -0.53125, 0.0
1187, -2.114774114774115, -4.503052503052503, -3.47985347985348, 1.5625, -0.6875, -0.3125, 0.0
1188, -1.6898656898656899, -3.94993894993895, -2.6507936507936507, 1.21875, -0.59375, -0.375, 0.0
1189, -1.0195360195360195, -3.706959706959707, -2.166056166056166, 1.25, -0.40625, -0.28125, 0.0
1190, -0.5738705738705738, -4.03052503052503, -2.0854700854700856, 1.25, -0.375, -0.1875, 0.0
1191, -0.33821733821733824, -4.08058608058608, -1.783882783882784, 0.96875, -0.375, -0.15625, 0.0
1192, -0.503052503052503, -3.7081807081807083, -1.7924297924297925, 0.65625, -0.40625, -0.15625, 0.0
1193, -0.5995115995115995, -3.778998778998779, -1.3296703296703296, 0.34375, -0.34375, -0.15625, 0.0
1194, -0.37606837606837606, -3.178266178266178, -0.6239316239316239, 0.25, -0.09375, -0.15625, 0.0
1195, -0.29914529914529914, -3.3614163614163615, -0.49694749694749696, 0.375, -0.03125, -0.15625, 0.0
1196, -0.4896214896214896, -3.844932844932845, -0.5299145299145299, 0.21875, -0.25, -0.0625, 0.0
1197, -0.4896214896214896, -3.597069597069597, -0.10256410256410256, -0.0625, -0.28125, 0.0, 0.0
1198, -0.536019536019536, -3.4053724053724053, 0.15384615384615385, -0.09375, 0.0, 0.0625, 0.0
1199, 0.10744810744810745, -3.437118437118437, 0.48595848595848595, 0.0, 0.15625, 0.0, 0.0
1200, 0.8021978021978022, -3.518925518925519, 0.6068376068376068, 0.0, 0.09375, -0.0625, 0.0
1201, 0.503052503052503, -3.10989010989011, 0.5726495726495726, -0.03125, -0.03125, -0.0625, 0.0
1202, 0.15995115995115994, -2.8583638583638584, 0.45054945054945056, 0.03125, -0.03125, -0.03125, 0.0
1203, 0.11477411477411477, -2.8754578754578755, 0.38461538461538464, 0.1875, 0.0, -0.03125, 0.0
1204, 0.1111111111111111, -2.9047619047619047, 0.2039072039072039, 0.34375, 0.0, -0.0625, 0.0
1205, 0.18681318681318682, -3.236874236874237, 0.029304029304029304, 0.28125, -0.125, -0.0625, 0.0
1206, -0.014652014652014652, -3.3272283272283274, -0.12576312576312576, 0.15625, -0.15625, -0.03125, 0.0
1207, -0.10378510378510379, -3.131868131868132, 0.07326007326007326, 0.1875, -0.0625, -0.03125, 0.0
1208, -0.057387057387057384, -3.1684981684981683, 0.14285714285714285, 0.28125, 0.0, 0.0, 0.0
1209, -0.09768009768009768, -3.167277167277167, 0.23565323565323565, 0.34375, 0.0, 0.0, 0.0
1210, -0.2844932844932845, -3.2564102564102564, -0.231990231990232, 0.21875, 0.0, 0.0, 0.0
1211, -0.08424908424908426, -3.183150183150183, 0.01098901098901099, 0.125, 0.0, 0.03125, 0.0
1212, 0.07814407814407814, -3.0525030525030523, 0.0989010989010989, 0.1875, 0.03125, 0.0, 0.0
1213, 0.32112332112332115, -3.1587301587301586, 0.15506715506715507, 0.34375, 0.15625, -0.03125, 0.0
1214, 0.12332112332112333, -3.1807081807081805, 0.045177045177045176, 0.4375, 0.15625, -0.0625, 0.0
1215, 0.3833943833943834, -3.3443223443223444, -0.04395604395604396, 0.46875, 0.0625, -0.09375, 1.0
1216, -0.6275946275946276, -2.6825396825396823, -0.22466422466422467, 0.40625, 0.0, -0.125, 1.0
1217, -0.02442002442002442, -3.324786324786325, -0.590964590964591, 0.53125, 0.03125, -0.125, 1.0
1218, -0.5885225885225885, -3.7094017094017095, -1.652014652014652, 0.21875, -0.09375, -0.1875, 1.0
1219, -1.5128205128205128, -3.2283272283272284, -1.7411477411477412, -0.25, -0.0625, -0.09375, 1.0
1220, -1.3956043956043955, -3.4053724053724053, -1.7753357753357752, -0.53125, 0.03125, 0.03125, 1.0
1221, -2.0842490842490844, -3.590964590964591, -2.7643467643467643, -0.84375, -0.0625, 0.46875, 1.0
1222, -3.1794871794871793, -3.5982905982905984, -3.2673992673992673, -1.46875, -0.40625, 0.84375, 1.0
1223, -3.735042735042735, -4.401709401709402, -3.9145299145299144, -1.875, -1.0, 1.34375, 1.0
1224, -4.592185592185592, -5.0085470085470085, -4.289377289377289, -2.40625, -1.53125, 1.71875, 1.0
1225, -4.975579975579976, -6.0, -4.261294261294261, -3.03125, -2.0, 2.21875, 1.0
1226, -5.097680097680097, -6.885225885225886, -3.688644688644689, -3.6875, -2.5, 2.875, 1.0
1227, -4.074481074481074, -7.995115995115995, -2.208791208791209, -4.28125, -3.28125, 3.46875, 1.0
1228, -2.4053724053724053, -8.724053724053723, 0.054945054945054944, -4.71875, -4.78125, 3.78125, 1.0
1229, -2.7594627594627594, -8.54090354090354, 2.2332112332112333, -4.875, -6.25, 3.90625, 1.0
1230, -4.173382173382174, -6.871794871794871, 3.4603174603174605, -4.46875, -6.78125, 4.28125, 1.0
1231, -5.2173382173382175, -5.294261294261294, 3.0964590964590966, -4.03125, -6.5625, 4.8125, 1.0
1232, -4.426129426129426, -4.700854700854701, 2.3943833943833943, -4.03125, -6.25, 5.15625, 1.0
1233, -2.4896214896214897, -3.8144078144078146, 2.0720390720390722, -3.375, -6.1875, 4.71875, 1.0
1234, -3.2393162393162394, -3.064713064713065, 0.21001221001221002, -2.1875, -5.0625, 4.9375, 1.0
1235, 3.916971916971917, -6.2002442002442, -1.0976800976800978, -1.5, -4.46875, 4.8125, 1.0
1236, 5.989010989010989, -5.306471306471306, 0.8595848595848596, -2.3125, -6.28125, 2.8125, 1.0
1237, -4.347985347985348, -0.8205128205128205, 0.6312576312576312, -2.4375, -7.0625, 1.1875, 1.0
1238, -5.35042735042735, 0.004884004884004884, -1.7496947496947497, -0.4375, -4.03125, 2.0, 1.0
1239, 5.819291819291819, -5.628815628815629, -2.9816849816849818, 0.875, -2.40625, 2.53125, 1.0
1240, 4.230769230769231, -5.73015873015873, -3.1892551892551895, -0.0625, -4.1875, 1.15625, 1.0
1241, -2.518925518925519, -0.8791208791208791, -2.995115995115995, -0.59375, -4.09375, 0.5, 1.0
1242, 0.4481074481074481, -0.6019536019536019, -2.860805860805861, 0.6875, -2.28125, 1.15625, 1.0
1243, 3.5115995115995116, -3.3003663003663, -4.306471306471306, 1.40625, -1.90625, 1.3125, 1.0
1244, 3.785103785103785, -3.2051282051282053, -5.072039072039072, 0.90625, -2.40625, 0.75, 1.0
1245, 1.3772893772893773, -1.794871794871795, -4.555555555555555, 0.03125, -2.3125, 0.09375, 1.0
1246, 0.47496947496947495, 0.7496947496947497, -2.755799755799756, 0.5625, -1.65625, 0.28125, 1.0
1247, 1.2551892551892552, 0.23809523809523808, -2.5323565323565322, 1.21875, -1.21875, 0.5625, 1.0
1248, 2.9023199023199022, -0.9145299145299145, -3.8595848595848596, 1.28125, -1.09375, 0.46875, 1.0
1249, 3.4285714285714284, -1.6056166056166057, -4.914529914529915, 0.75, -1.21875, 0.0, 1.0
1250, 1.4322344322344323, -0.23931623931623933, -5.236874236874237, 0.28125, -0.9375, -0.15625, 1.0
1251, 0.5457875457875457, 1.3345543345543345, -3.78021978021978, 0.1875, -0.53125, 0.0, 1.0
