timestamp, accX, accY, accZ, gyroX, gyroY, gyroZ, button
7740, 0.6947496947496947, 0.7191697191697192, -1.271062271062271, -0.0625, -0.0625, -0.59375, 0.0
7741, 0.48595848595848595, 0.5873015873015873, -1.3382173382173381, -0.125, 0.0, -0.75, 0.0
7742, 0.23321123321123322, 0.5164835164835165, -1.3296703296703296, -0.21875, 0.0, -0.875, 0.0
1, 0.03907203907203907, 0.45665445665445664, -1.2197802197802199, -0.28125, 0.0, -0.96875, 0.0
2, -0.08424908424908426, 0.2503052503052503, -1.0256410256410255, -0.28125, 0.0625, -1.03125, 0.0
3, 0.007326007326007326, -0.030525030525030524, -0.8266178266178266, -0.28125, 0.1875, -1.125, 0.0
4, 0.12087912087912088, -0.14652014652014653, -0.5616605616605617, -0.28125, 0.28125, -1.21875, 0.0
5, 0.2844932844932845, -0.231990231990232, -0.2967032967032967, -0.28125, 0.34375, -1.34375, 0.0
6, 0.36752136752136755, -0.5457875457875457, -0.07814407814407814, -0.25, 0.3125, -1.53125, 0.0
7, 0.2271062271062271, -0.7631257631257631, 0.14041514041514042, -0.28125, 0.25, -1.75, 0.0
8, 0.37484737484737485, -0.8083028083028083, 0.3553113553113553, -0.3125, 0.09375, -1.9375, 0.0
9, 0.5518925518925519, -0.978021978021978, 0.2844932844932845, -0.34375, -0.0625, -2.0625, 0.0
10, 0.7606837606837606, -1.0305250305250304, 0.11355311355311355, -0.375, -0.3125, -2.21875, 0.0
11, 0.9157509157509157, -1.1672771672771673, -0.05128205128205128, -0.375, -0.4375, -2.28125, 0.0
12, 0.8156288156288156, -1.4786324786324787, -0.3894993894993895, -0.375, -0.53125, -2.28125, 0.0
13, 0.6971916971916972, -1.8083028083028083, -0.7032967032967034, -0.40625, -0.59375, -2.1875, 0.0
14, 0.6581196581196581, -1.8888888888888888, -0.9084249084249084, -0.4375, -0.59375, -2.0, 0.0
15, 0.8290598290598291, -2.1452991452991452, -1.2332112332112333, -0.4375, -0.59375, -1.8125, 0.0
16, 0.8278388278388278, -2.2857142857142856, -1.6703296703296704, -0.46875, -0.4375, -1.5625, 0.0
17, 0.6910866910866911, -2.2576312576312576, -1.971916971916972, -0.40625, -0.09375, -1.25, 0.0
18, 0.6166056166056166, -2.304029304029304, -1.927960927960928, -0.34375, 0.34375, -0.90625, 0.0
19, 0.7924297924297924, -2.249084249084249, -1.4029304029304028, -0.3125, 0.78125, -0.59375, 0.0
20, 0.8083028083028083, -2.1684981684981683, -0.5543345543345544, -0.3125, 1.15625, -0.40625, 0.0
21, 0.7326007326007326, -1.9877899877899878, 0.43833943833943834, -0.3125, 1.40625, -0.3125, 0.0
22, 1.0146520146520146, -1.7252747252747254, 2.318681318681319, -0.3125, 1.46875, -0.28125, 0.0
23, 1.1636141636141637, -1.735042735042735, 2.7875457875457874, -0.34375, 1.25, -0.34375, 0.0
24, 1.1489621489621489, -1.7887667887667889, 2.9511599511599513, -0.375, 0.875, -0.5, 0.0
25, 0.927960927960928, -2.0476190476190474, 2.868131868131868, -0.46875, 0.4375, -0.71875, 0.0
26, 0.5763125763125763, -1.8815628815628815, 2.7667887667887667, -0.5625, 0.0, -0.84375, 0.0
27, 0.2026862026862027, -1.7924297924297925, 2.457875457875458, -0.59375, -0.34375, -0.84375, 0.0
28, -0.12454212454212454, -1.496947496947497, 2.144078144078144, -0.5, -0.53125, -0.78125, 0.0
29, -0.33455433455433453, -1.253968253968254, 1.5897435897435896, -0.3125, -0.53125, -0.6875, 0.0
30, -0.5103785103785103, -1.249084249084249, 0.9181929181929182, -0.0625, -0.4375, -0.53125, 0.0
31, -0.6312576312576312, -1.164835164835165, 0.29914529914529914, 0.0, -0.28125, -0.34375, 0.0
32, -0.43345543345543347, -1.1282051282051282, -0.07081807081807082, 0.09375, -0.0625, -0.15625, 0.0
33, -0.22954822954822954, -0.9426129426129426, -0.1452991452991453, 0.1875, 0.09375, 0.03125, 0.0
34, 0.026862026862026864, -0.6910866910866911, -0.2442002442002442, 0.3125, 0.34375, 0.09375, 0.0
35, 0.26495726495726496, -0.5885225885225885, -0.31746031746031744, 0.375, 0.40625, 0.03125, 0.0
36, 0.3540903540903541, -0.4993894993894994, -0.3724053724053724, 0.3125, 0.34375, -0.03125, 0.0
37, 0.16483516483516483, -0.1794871794871795, -0.3504273504273504, 0.1875, 0.25, -0.09375, 0.0
38, 0.08180708180708181, 0.19291819291819293, -0.20512820512820512, 0.1875, 0.15625, -0.1875, 0.0
39, -0.19536019536019536, 0.4444444444444444, -0.4346764346764347, 0.25, 0.0, -0.3125, 0.0
40, -0.5702075702075702, 0.4652014652014652, -0.8632478632478633, 0.21875, 0.0, -0.34375, 0.0
41, -0.9658119658119658, 0.6056166056166056, -1.1611721611721613, 0.15625, 0.09375, -0.3125, 0.0
42, -0.9719169719169719, 0.8766788766788767, -1.0244200244200243, 0.125, 0.3125, -0.21875, 0.0
43, -1.2234432234432235, 1.216117216117216, -1.1526251526251525, 0.25, 0.71875, -0.0625, 0.0
44, -1.862026862026862, 2.034188034188034, -1.3882783882783882, 0.625, 1.5625, 0.1875, 0.0
45, -1.413919413919414, 2.659340659340659, -1.6043956043956045, 1.5, 3.34375, 0.8125, 0.0
46, -0.8974358974358975, 2.1587301587301586, -1.1355311355311355, 2.03125, 4.4375, 1.15625, 0.0
47, -1.1306471306471306, 2.3956043956043955, -0.6178266178266179, 2.65625, 5.4375, 1.375, 0.0
48, -0.989010989010989, 2.2454212454212454, -0.15506715506715507, 3.375, 6.53125, 1.75, 0.0
49, -0.4725274725274725, 2.203907203907204, 0.14896214896214896, 3.8125, 7.21875, 2.0625, 0.0
50, -0.7435897435897436, 2.956043956043956, 0.6117216117216118, 3.9375, 7.5625, 2.0625, 0.0
51, 0.673992673992674, 3.354090354090354, 1.2686202686202686, 3.90625, 7.59375, 1.71875, 0.0
52, 1.3492063492063493, 3.924297924297924, 0.7313797313797313, 3.5625, 6.84375, 1.25, 0.0
53, 1.7216117216117217, 3.4053724053724053, 0.12576312576312576, 3.09375, 5.75, 0.78125, 0.0
54, 2.023199023199023, 2.8864468864468864, -0.3125763125763126, 2.5, 4.34375, 0.28125, 0.0
55, 1.6923076923076923, 2.6202686202686203, -0.6385836385836385, 1.875, 2.8125, 0.0, 0.0
56, 0.7533577533577533, 2.7362637362637363, -0.7826617826617827, 1.34375, 1.5, -0.34375, 0.0
57, -0.2673992673992674, 3.056166056166056, -0.8901098901098901, 0.71875, 0.375, -0.5625, 0.0
58, -1.271062271062271, 3.5885225885225887, -1.0231990231990231, 0.625, 0.28125, -0.625, 0.0
59, -1.4322344322344323, 3.778998778998779, -0.8669108669108669, 0.5625, 0.40625, -0.5, 0.0
60, -0.7826617826617827, 3.5750915750915753, -0.6385836385836385, 0.375, 0.28125, -0.40625, 0.0
61, -0.43833943833943834, 3.761904761904762, -0.6336996336996337, 0.1875, -0.03125, -0.34375, 0.0
62, -0.48473748473748474, 0.001221001221001221, 0.5811965811965812, 0.15625, 0.0625, 0.125, 1.0
63, -0.6105006105006106, -0.13675213675213677, 0.4896214896214896, 0.1875, -0.03125, 0.1875, 1.0
64, -0.7667887667887668, -0.20512820512820512, 0.5079365079365079, 0.1875, -0.09375, 0.21875, 1.0
65, -1.0463980463980465, -0.045177045177045176, 0.5274725274725275, 0.25, -0.15625, 0.28125, 1.0
66, -1.6886446886446886, 0.33943833943833945, 0.31868131868131866, 0.34375, -0.125, 0.40625, 1.0
67, -2.1233211233211233, 0.5677655677655677, -0.09645909645909646, 0.40625, -0.09375, 0.5625, 1.0
68, -2.402930402930403, 0.9804639804639804, -0.47863247863247865, 0.5, -0.09375, 0.75, 1.0
69, -2.694749694749695, 1.2087912087912087, -0.873015873015873, 0.53125, -0.0625, 1.09375, 1.0
70, -3.294261294261294, 1.4993894993894994, -2.2686202686202686, 0.5, -0.03125, 1.34375, 1.0
71, -2.816849816849817, 1.4273504273504274, -2.663003663003663, 0.4375, -0.0625, 1.5625, 1.0
72, -2.3907203907203907, 1.3833943833943834, -3.236874236874237, 0.28125, -0.1875, 1.71875, 1.0
73, -1.5335775335775337, 1.2527472527472527, -4.086691086691086, 0.0625, -0.40625, 1.84375, 1.0
74, -1.5360195360195361, 1.3382173382173381, -5.253968253968254, -0.15625, -0.6875, 2.0, 1.0
75, -1.1514041514041513, 1.2820512820512822, -5.9010989010989015, -0.34375, -0.75, 2.21875, 1.0
76, -0.15995115995115994, 0.796092796092796, -6.536019536019536, -0.5, -0.625, 2.375, 1.0
77, 1.10989010989011, -0.11233211233211234, -7.291819291819292, -0.625, -0.4375, 2.46875, 1.0
78, 2.5934065934065935, -0.9181929181929182, -8.03052503052503, -0.875, -0.40625, 2.5, 1.0
79, 4.0256410256410255, -1.9096459096459097, -8.575091575091575, -1.21875, -0.53125, 2.46875, 1.0
80, 4.361416361416361, -3.0415140415140414, -9.476190476190476, -1.6875, -0.5, 2.21875, 1.0
81, 5.484737484737485, -3.750915750915751, -9.302808302808304, -2.25, 0.0, 1.90625, 1.0
82, 6.881562881562882, -4.557997557997558, -8.532356532356532, -2.46875, 0.15625, 1.65625, 1.0
83, 7.496947496947497, -5.457875457875458, -7.561660561660561, -2.625, 0.3125, 1.40625, 1.0
84, 7.6129426129426125, -7.089133089133089, -6.61050061050061, -2.8125, 0.4375, 1.15625, 1.0
85, 7.076923076923077, -8.95970695970696, -5.714285714285714, -3.15625, 0.75, 0.75, 1.0
86, 6.409035409035409, -9.810744810744811, -4.052503052503052, -3.3125, 1.375, 0.40625, 1.0
87, 6.21978021978022, -10.406593406593407, -1.5665445665445665, -3.25, 1.78125, 0.0, 1.0
88, 5.7203907203907205, -11.021978021978022, 0.7472527472527473, -3.125, 1.9375, -0.34375, 1.0
89, 5.085470085470085, -10.663003663003662, 3.029304029304029, -2.84375, 1.9375, -0.71875, 1.0
90, 4.16971916971917, -10.247863247863247, 4.5396825396825395, -2.46875, 1.96875, -1.0, 1.0
91, 3.568986568986569, -10.282051282051283, 5.633699633699634, -2.0625, 1.875, -1.375, 1.0
92, 2.244200244200244, -10.091575091575091, 6.2625152625152625, -1.71875, 1.90625, -1.78125, 1.0
93, 0.7081807081807082, -8.098901098901099, 7.272283272283272, -1.15625, 2.03125, -2.28125, 1.0
94, -0.6605616605616605, -7.603174603174603, 6.965811965811966, -0.6875, 2.0625, -2.5, 1.0
95, -1.503052503052503, -7.500610500610501, 6.644688644688645, -0.3125, 2.09375, -2.65625, 1.0
96, -1.4676434676434675, -6.833943833943834, 6.90964590964591, 0.0, 1.9375, -2.71875, 1.0
97, -2.2783882783882783, -5.971916971916972, 6.652014652014652, 0.34375, 1.625, -2.78125, 1.0
98, -2.9975579975579976, -5.443223443223443, 5.912087912087912, 0.84375, 1.46875, -2.8125, 1.0
99, -3.184371184371184, -5.068376068376068, 5.6300366300366305, 1.21875, 1.34375, -2.71875, 1.0
100, -3.1648351648351647, -4.814407814407814, 5.3076923076923075, 1.4375, 1.25, -2.65625, 1.0
101, -3.673992673992674, -3.7704517704517704, 4.818070818070818, 1.78125, 1.21875, -2.59375, 1.0
102, -3.8595848595848596, -3.547008547008547, 4.3992673992674, 2.1875, 1.125, -2.46875, 1.0
103, -4.046398046398046, -3.554334554334554, 3.866910866910867, 2.46875, 1.0, -2.28125, 1.0
104, -4.553113553113553, -2.272283272283272, 3.2393162393162394, 2.6875, 0.71875, -1.875, 1.0
105, -5.124542124542124, -1.6141636141636142, 2.131868131868132, 2.78125, 0.46875, -1.5, 1.0
106, -5.338217338217338, -0.8412698412698413, 1.072039072039072, 2.8125, 0.0625, -1.15625, 1.0
107, -6.400488400488401, 0.14896214896214896, -0.08547008547008547, 2.96875, -0.09375, -0.75, 1.0
108, -6.9633699633699635, 0.28205128205128205, -1.4578754578754578, 3.09375, 0.0, -0.3125, 1.0
109, -5.68009768009768, -0.20146520146520147, -2.0598290598290596, 2.9375, 0.15625, 0.03125, 1.0
110, -3.456654456654457, -1.0024420024420024, -2.3516483516483517, 2.5625, -0.0625, 0.3125, 1.0
111, -2.5750915750915753, -0.3308913308913309, -2.7643467643467643, 2.40625, -0.4375, 0.5625, 1.0
112, -2.3565323565323566, 0.315018315018315, -3.6984126984126986, 2.4375, -0.46875, 0.65625, 1.0
113, -1.9914529914529915, -0.006105006105006105, -4.708180708180708, 2.25, -0.28125, 0.84375, 1.0
114, -1.36996336996337, -0.49694749694749696, -5.16971916971917, 1.875, -0.09375, 0.96875, 1.0
115, -0.557997557997558, -0.35775335775335776, -4.584859584859585, 1.5625, 0.0, 1.09375, 1.0
116, 1.5177045177045176, 0.5702075702075702, -3.462759462759463, 1.53125, -0.25, 1.21875, 1.0
117, 1.507936507936508, 0.16971916971916973, -4.407814407814408, 1.5, -0.21875, 1.25, 1.0
118, 1.6617826617826619, -0.07203907203907203, -4.910866910866911, 1.21875, -0.125, 1.25, 1.0
119, 1.807081807081807, 0.2954822954822955, -4.6239316239316235, 0.78125, -0.09375, 1.25, 1.0
120, 2.763125763125763, 0.8241758241758241, -3.525030525030525, 0.46875, 0.0, 1.25, 1.0
121, 3.4932844932844933, 1.0158730158730158, -2.866910866910867, 0.4375, -0.09375, 1.25, 1.0
122, 3.8034188034188032, 0.36385836385836384, -2.821733821733822, 0.46875, -0.09375, 1.1875, 1.0
123, 3.844932844932845, -0.2893772893772894, -2.757020757020757, 0.375, -0.03125, 1.03125, 1.0
124, 4.163614163614164, -0.5567765567765568, -2.382173382173382, 0.21875, 0.03125, 0.875, 1.0
125, 4.153846153846154, -0.5091575091575091, -1.6984126984126984, 0.0625, 0.15625, 0.6875, 1.0
126, 4.062271062271062, -0.2503052503052503, -0.8644688644688645, 0.0, 0.125, 0.5, 1.0
127, 3.32967032967033, -0.08791208791208792, -0.5421245421245421, 0.0, 0.0625, 0.34375, 1.0
128, 2.597069597069597, -0.1684981684981685, -0.4175824175824176, 0.0, 0.09375, 0.21875, 1.0
129, 1.7435897435897436, -0.3528693528693529, -0.4981684981684982, -0.03125, 0.125, 0.1875, 1.0
130, 1.5152625152625152, -0.30036630036630035, -0.2026862026862027, -0.125, 0.09375, 0.125, 1.0
131, 0.8498168498168498, -0.16117216117216118, -0.12454212454212454, -0.125, 0.09375, 0.09375, 1.0
132, 0.652014652014652, 0.08180708180708181, 0.2271062271062271, -0.0625, 0.0625, 0.09375, 1.0
133, 0.37362637362637363, 0.1330891330891331, 0.19536019536019536, 0.0, 0.09375, 0.125, 1.0
134, 0.4700854700854701, 0.006105006105006105, 0.16605616605616605, 0.03125, 0.125, 0.09375, 1.0
135, 0.5787545787545788, -0.27472527472527475, -0.15384615384615385, 0.0625, 0.09375, 0.0625, 1.0
136, 0.5714285714285714, -0.409035409035409, -0.2771672771672772, 0.0, 0.0625, 0.03125, 1.0
137, 0.3516483516483517, -0.3882783882783883, -0.3992673992673993, -0.0625, 0.03125, 0.0, 1.0
138, 0.2442002442002442, -0.09645909645909646, -0.19291819291819293, -0.03125, 0.0, 0.0, 1.0
139, 0.013431013431013432, 0.08791208791208792, -0.115995115995116, 0.03125, 0.0625, 0.0, 1.0
140, 0.23565323565323565, -0.14407814407814407, -0.16361416361416362, 0.0, 0.0625, -0.03125, 1.0
141, 0.10866910866910867, -0.09401709401709402, -0.20634920634920634, -0.0625, 0.03125, -0.03125, 1.0
142, 0.03418803418803419, -0.19047619047619047, -0.3333333333333333, -0.1875, 0.09375, -0.0625, 1.0
143, 0.02197802197802198, -0.1391941391941392, -0.32844932844932845, -0.375, 0.15625, -0.0625, 0.0
144, -0.6434676434676435, 0.7448107448107448, 0.14285714285714285, -0.40625, 0.15625, -0.0625, 0.0
145, -0.21855921855921856, 0.38217338217338215, 0.2026862026862027, -0.40625, 0.0625, -0.03125, 0.0
146, -0.057387057387057384, 0.050061050061050064, 0.28205128205128205, -0.1875, 0.09375, -0.09375, 0.0
147, -0.10134310134310134, 0.014652014652014652, 0.1343101343101343, -0.09375, 0.09375, -0.0625, 0.0
148, -0.02442002442002442, -0.015873015873015872, 0.03907203907203907, -0.0625, 0.125, -0.03125, 0.0
149, 0.013431013431013432, 0.028083028083028084, 0.04395604395604396, -0.03125, 0.125, 0.0, 0.0
150, 0.003663003663003663, -0.026862026862026864, -0.11965811965811966, -0.03125, 0.09375, 0.0, 0.0
151, 0.003663003663003663, 0.003663003663003663, -0.12332112332112333, -0.03125, 0.0625, 0.0, 0.0
152, -0.004884004884004884, 0.040293040293040296, -0.057387057387057384, 0.0, 0.0625, 0.0, 0.0
153, 0.031746031746031744, -0.006105006105006105, -0.14163614163614163, 0.0, 0.03125, 0.0, 0.0
154, -0.06593406593406594, 0.0463980463980464, -0.12087912087912088, 0.0, 0.03125, 0.0, 0.0
155, 0.002442002442002442, -0.09401709401709402, -0.25518925518925517, -0.03125, 0.0625, -0.03125, 0.0
156, -0.14774114774114774, 0.018315018315018316, -0.2442002442002442, -0.03125, 0.09375, -0.03125, 0.0
157, 0.03296703296703297, 0.03540903540903541, -0.15873015873015872, -0.0625, 0.0625, 0.0, 0.0
158, -0.02564102564102564, 0.009768009768009768, -0.14774114774114774, -0.0625, 0.03125, 0.0, 0.0
159, 0.14774114774114774, 0.0, -0.08669108669108669, -0.0625, 0.0, 0.0, 0.0
160, 0.002442002442002442, 0.006105006105006105, -0.0757020757020757, -0.03125, 0.0, 0.0, 0.0
161, -0.001221001221001221, -0.002442002442002442, -0.15018315018315018, 0.0, 0.0625, 0.03125, 0.0
162, 0.0231990231990232, -0.08669108669108669, -0.18437118437118438, 0.0, 0.09375, 0.0, 0.0
163, 0.30036630036630035, -0.1111111111111111, -0.03540903540903541, 0.0, 0.0625, 0.0, 0.0
164, 0.07081807081807082, -0.03663003663003663, -0.10622710622710622, -0.03125, -0.03125, 0.0, 0.0
165, 0.013431013431013432, -0.054945054945054944, -0.21001221001221002, -0.03125, -0.03125, 0.0, 0.0
166, 0.03296703296703297, -0.019536019536019536, -0.19658119658119658, -0.03125, 0.03125, 0.0, 0.0
167, 0.04884004884004884, -0.019536019536019536, -0.1746031746031746, -0.03125, 0.03125, 0.0, 0.0
168, 0.02564102564102564, 0.04151404151404151, -0.054945054945054944, -0.03125, 0.0625, 0.0, 0.0
169, 0.22344322344322345, -0.16605616605616605, -0.0927960927960928, 0.0, 0.03125, 0.0, 0.0
170, 0.003663003663003663, 0.03540903540903541, -0.0231990231990232, 0.0, 0.0, 0.0, 0.0
171, 0.02564102564102564, -0.05860805860805861, -0.15018315018315018, 0.0, 0.0, 0.0, 0.0
172, 0.028083028083028084, -0.006105006105006105, -0.17582417582417584, 0.0, 0.0, 0.0, 0.0
173, 0.029304029304029304, -0.03418803418803419, -0.16483516483516483, 0.0, 0.0, 0.0, 0.0
174, 0.03663003663003663, 0.06715506715506715, 0.004884004884004884, -0.03125, 0.03125, 0.0, 0.0
175, 0.1330891330891331, -0.0231990231990232, -0.054945054945054944, -0.03125, -0.03125, 0.0, 0.0
176, -0.10866910866910867, 0.10134310134310134, -0.03663003663003663, -0.03125, -0.03125, 0.0, 0.0
177, -0.0231990231990232, -0.0231990231990232, -0.12698412698412698, 0.0, 0.0, -0.03125, 0.0
178, -0.003663003663003663, -0.04151404151404151, -0.14285714285714285, -0.03125, 0.0, -0.03125, 0.0
179, 0.019536019536019536, -0.013431013431013432, -0.1221001221001221, -0.03125, 0.0, 0.0, 0.0
180, 0.01098901098901099, 0.009768009768009768, -0.06227106227106227, -0.03125, 0.03125, 0.0, 0.0
181, 0.2857142857142857, -0.07936507936507936, -0.017094017094017096, -0.03125, 0.0, 0.0, 0.0
182, 0.026862026862026864, -0.007326007326007326, -0.02564102564102564, -0.0625, -0.0625, 0.0, 0.0
183, -0.115995115995116, 0.11721611721611722, 0.0463980463980464, 0.0, 0.0, -0.03125, 0.0
184, 0.07203907203907203, 0.015873015873015872, -0.0231990231990232, 0.03125, -0.03125, 0.0, 0.0
185, -0.01098901098901099, 0.020757020757020756, -0.1111111111111111, 0.0, -0.03125, -0.03125, 0.0
186, 0.029304029304029304, 0.017094017094017096, -0.1514041514041514, -0.03125, 0.0, 0.0, 0.0
187, -0.008547008547008548, 0.018315018315018316, -0.15018315018315018, 0.0, 0.0, -0.03125, 0.0
188, 0.06227106227106227, 0.019536019536019536, -0.06715506715506715, 0.0, 0.0, 0.0, 0.0
189, 0.03418803418803419, -0.05982905982905983, -0.17338217338217338, 0.0, 0.0, 0.0, 0.0
190, 0.008547008547008548, 0.0, -0.12332112332112333, 0.0, -0.03125, 0.0, 0.0
191, 0.02442002442002442, -0.004884004884004884, -0.15506715506715507, 0.0, 0.0, 0.0, 0.0
192, 0.040293040293040296, -0.014652014652014652, -0.15018315018315018, -0.03125, 0.0, 0.0, 0.0
193, 0.04151404151404151, 0.007326007326007326, -0.06837606837606838, 0.0, 0.0, 0.0, 0.0
194, 0.017094017094017096, 0.01221001221001221, -0.030525030525030524, 0.0, 0.0, 0.0, 0.0
195, 0.013431013431013432, 0.0, -0.03663003663003663, 0.0, 0.0, 0.0, 0.0
196, 0.0231990231990232, -0.003663003663003663, -0.12087912087912088, 0.0, 0.0, 0.0, 0.0
197, 0.009768009768009768, 0.004884004884004884, -0.12454212454212454, 0.0, 0.03125, 0.0, 0.0
198, 0.06227106227106227, -0.020757020757020756, -0.11843711843711843, 0.0, 0.03125, 0.0, 0.0
199, 0.09401709401709402, 0.006105006105006105, 0.015873015873015872, 0.0, 0.0, 0.0, 0.0
200, 0.017094017094017096, 0.008547008547008548, -0.047619047619047616, 0.0, -0.03125, 0.0, 0.0
201, 0.017094017094017096, 0.019536019536019536, -0.02197802197802198, 0.0, -0.03125, 0.0, 0.0
202, -0.013431013431013432, 0.009768009768009768, -0.11965811965811966, 0.0, 0.0, 0.0, 0.0
203, 0.02564102564102564, -0.007326007326007326, -0.11965811965811966, 0.0, 0.0, 0.0, 0.0
204, 0.0231990231990232, 0.007326007326007326, -0.115995115995116, 0.0, 0.0, 0.0, 0.0
205, 0.03540903540903541, 0.001221001221001221, -0.11477411477411477, 0.03125, 0.0, 0.0, 0.0
206, 0.040293040293040296, -0.007326007326007326, -0.17582417582417584, 0.0, 0.0, 0.0, 0.0
207, -0.03296703296703297, 0.03540903540903541, -0.10622710622710622, 0.0, 0.0, 0.0, 0.0
208, 0.026862026862026864, 0.006105006105006105, -0.10134310134310134, 0.0, 0.0, 0.0, 0.0
209, -0.009768009768009768, 0.03785103785103785, -0.09645909645909646, -0.03125, -0.03125, 0.0, 0.0
210, 0.008547008547008548, 0.042735042735042736, -0.03785103785103785, 0.0, 0.0, 0.0, 0.0
211, 0.028083028083028084, -0.06715506715506715, -0.2026862026862027, 0.0, 0.0, 0.0, 0.0
212, 0.12087912087912088, -0.040293040293040296, -0.16605616605616605, -0.03125, 0.0, 0.0, 0.0
213, 0.057387057387057384, 0.03663003663003663, -0.0757020757020757, -0.0625, 0.0, 0.0, 0.0
214, 0.013431013431013432, 0.02442002442002442, -0.07814407814407814, -0.03125, 0.0, 0.0, 0.0
215, 0.0463980463980464, -0.0231990231990232, -0.22344322344322345, 0.0, 0.0, 0.0, 0.0
216, -0.017094017094017096, -0.02564102564102564, -0.24664224664224665, 0.0, 0.0625, 0.0, 0.0
217, 0.2258852258852259, -0.08547008547008547, -0.11843711843711843, 0.0, 0.09375, 0.0, 0.0
218, 0.07081807081807082, -0.052503052503052504, -0.19047619047619047, -0.03125, 0.0, 0.0, 0.0
219, 0.05860805860805861, -0.12698412698412698, -0.3162393162393162, -0.09375, 0.0, 0.0, 0.0
220, -0.0989010989010989, 0.008547008547008548, -0.2039072039072039, -0.125, 0.0625, 0.0, 0.0
221, 0.017094017094017096, 0.07814407814407814, -0.030525030525030524, -0.03125, 0.03125, -0.03125, 0.0
222, -0.01098901098901099, 0.03907203907203907, -0.0989010989010989, 0.0, 0.03125, -0.03125, 0.0
223, -0.020757020757020756, 0.06593406593406594, -0.06715506715506715, -0.03125, 0.0, 0.0, 0.0
224, -0.05616605616605617, 0.08547008547008547, 0.05982905982905983, 0.0, 0.0, 0.0, 0.0
225, -0.0757020757020757, 0.03296703296703297, 0.06715506715506715, 0.03125, 0.03125, 0.0, 0.0
226, 0.02442002442002442, 0.001221001221001221, 0.14896214896214896, 0.0625, 0.0, 0.0, 1.0
227, 0.050061050061050064, -0.45665445665445664, 0.057387057387057384, 0.0, 0.03125, 0.03125, 1.0
228, 0.007326007326007326, 0.07692307692307693, 0.4004884004884005, 0.15625, 0.03125, 0.0625, 1.0
229, -0.13797313797313798, 0.05372405372405373, 0.5006105006105006, 0.1875, 0.0, 0.03125, 1.0
230, -0.23565323565323565, -0.013431013431013432, 0.514041514041514, 0.15625, 0.0, 0.0625, 1.0
231, -0.8424908424908425, 0.10500610500610501, 0.6019536019536019, 0.25, 0.03125, 0.09375, 1.0
232, -1.4945054945054945, 0.27106227106227104, 0.7973137973137974, 0.46875, 0.1875, 0.1875, 1.0
233, -1.844932844932845, 0.05128205128205128, 0.8095238095238095, 0.5, 0.21875, 0.3125, 1.0
234, -2.3601953601953602, 0.15506715506715507, 0.3956043956043956, 0.5, 0.03125, 0.40625, 1.0
235, -3.3235653235653237, 0.6349206349206349, -0.34798534798534797, 0.53125, -0.0625, 0.5625, 1.0
236, -4.444444444444445, 1.0488400488400489, -1.1172161172161172, 0.59375, -0.03125, 0.78125, 1.0
237, -4.764346764346764, 1.547008547008547, -1.57997557997558, 0.65625, 0.1875, 1.03125, 1.0
238, -4.507936507936508, 1.7777777777777777, -2.098901098901099, 0.6875, 0.375, 1.28125, 1.0
239, -3.844932844932845, 1.4175824175824177, -2.877899877899878, 0.5, 0.15625, 1.53125, 1.0
240, -3.7606837606837606, 1.8034188034188035, -3.485958485958486, 0.15625, -0.21875, 1.78125, 1.0
241, -3.9267399267399266, 2.1172161172161172, -4.553113553113553, -0.03125, -0.40625, 2.0, 1.0
242, -3.1965811965811968, 1.8827838827838828, -5.694749694749695, -0.15625, -0.3125, 2.21875, 1.0
243, -1.6153846153846154, 1.1794871794871795, -6.868131868131868, -0.3125, -0.1875, 2.40625, 1.0
244, 0.07692307692307693, 0.3199023199023199, -8.113553113553113, -0.75, -0.5, 2.53125, 1.0
245, 1.1477411477411477, -0.4627594627594628, -9.33943833943834, -1.21875, -0.65625, 2.5625, 1.0
246, 2.4236874236874235, -0.9804639804639804, -10.158730158730158, -1.5625, -0.65625, 2.53125, 1.0
247, 3.584859584859585, -2.311355311355311, -10.985347985347985, -1.84375, -0.375, 2.46875, 1.0
248, 5.295482295482295, -5.15995115995116, -11.223443223443223, -2.28125, -0.1875, 2.34375, 1.0
249, 6.710622710622711, -7.954822954822955, -10.616605616605616, -2.84375, -0.15625, 2.0625, 1.0
250, 6.233211233211233, -8.694749694749694, -9.144078144078144, -3.28125, 0.21875, 1.75, 1.0
251, 5.566544566544566, -9.225885225885225, -6.923076923076923, -3.4375, 1.0625, 1.46875, 1.0
252, 6.361416361416361, -10.25885225885226, -3.7106227106227108, -3.46875, 1.53125, 1.125, 1.0
253, 6.7032967032967035, -11.416361416361417, -1.36996336996337, -3.5, 1.75, 0.75, 1.0
254, 6.203907203907204, -11.699633699633699, 0.7289377289377289, -3.375, 1.96875, 0.28125, 1.0
255, 5.368742368742368, -11.388278388278389, 2.7423687423687424, -2.90625, 2.21875, -0.40625, 1.0
256, 4.15995115995116, -9.586080586080586, 6.616605616605616, -2.40625, 2.28125, -0.875, 1.0
257, 3.272283272283272, -9.300366300366301, 7.503052503052503, -1.9375, 2.21875, -1.3125, 1.0
258, 2.6825396825396823, -8.656898656898656, 8.039072039072039, -1.59375, 2.0625, -1.71875, 1.0
259, 1.778998778998779, -7.549450549450549, 8.382173382173383, -1.1875, 1.9375, -2.03125, 1.0
260, 0.5494505494505495, -7.207570207570208, 8.107448107448107, -0.65625, 1.8125, -2.3125, 1.0
261, -0.5921855921855922, -6.697191697191697, 7.544566544566544, -0.21875, 1.78125, -2.53125, 1.0
262, -0.9743589743589743, -6.568986568986569, 7.058608058608058, 0.125, 1.75, -2.65625, 1.0
263, -1.1538461538461537, -6.244200244200244, 6.90964590964591, 0.40625, 1.5, -2.75, 1.0
264, -2.918192918192918, -5.208791208791209, 6.415140415140415, 0.6875, 1.3125, -2.875, 1.0
265, -3.583638583638584, -4.271062271062271, 6.048840048840049, 1.125, 1.34375, -2.8125, 1.0
266, -3.89010989010989, -3.935286935286935, 5.609279609279609, 1.59375, 1.34375, -2.75, 1.0
267, -4.185592185592186, -3.2844932844932844, 4.87057387057387, 2.09375, 1.0, -2.4375, 1.0
268, -4.656898656898657, -2.918192918192918, 3.7094017094017095, 2.25, 0.78125, -2.25, 1.0
269, -5.03052503052503, -2.363858363858364, 2.9755799755799757, 2.40625, 0.65625, -1.96875, 1.0
270, -4.526251526251526, -2.122100122100122, 2.5665445665445668, 2.4375, 0.46875, -1.78125, 1.0
271, -5.164835164835165, -0.6666666666666666, 1.656898656898657, 2.71875, 0.25, -1.5, 1.0
272, -5.002442002442002, -0.4945054945054945, 0.6813186813186813, 2.875, 0.0, -1.09375, 1.0
273, -4.306471306471306, -1.0818070818070817, 0.10989010989010989, 2.78125, -0.21875, -0.75, 1.0
274, -4.8791208791208796, -0.5946275946275946, -1.1172161172161172, 2.65625, -0.28125, -0.5625, 1.0
275, -4.117216117216117, -0.6959706959706959, -2.065934065934066, 2.53125, -0.1875, -0.25, 1.0
276, -3.5555555555555554, -0.33577533577533575, -2.31990231990232, 2.40625, -0.28125, -0.03125, 1.0
277, -2.1794871794871793, -0.1575091575091575, -1.9242979242979243, 2.28125, -0.375, 0.09375, 1.0
278, -2.0744810744810747, -0.3321123321123321, -2.3089133089133087, 2.25, -0.4375, 0.25, 1.0
279, -1.6459096459096458, -0.336996336996337, -3.139194139194139, 2.03125, -0.34375, 0.4375, 1.0
280, -1.7094017094017093, 0.18681318681318682, -3.750915750915751, 1.84375, -0.28125, 0.5625, 1.0
281, -0.45054945054945056, 0.1514041514041514, -4.37973137973138, 1.6875, -0.15625, 0.8125, 1.0
282, 0.008547008547008548, 0.21367521367521367, -4.8388278388278385, 1.4375, -0.25, 0.96875, 1.0
283, -0.004884004884004884, -0.115995115995116, -5.148962148962149, 1.15625, -0.28125, 1.0625, 1.0
284, 0.08302808302808302, 0.04884004884004884, -4.7936507936507935, 0.9375, -0.09375, 1.09375, 1.0
285, 1.1245421245421245, 0.18925518925518925, -3.9975579975579976, 0.78125, 0.03125, 1.15625, 1.0
286, 2.1025641025641026, 0.10866910866910867, -3.5347985347985347, 0.65625, 0.03125, 1.15625, 1.0
287, 2.5274725274725274, -0.2686202686202686, -3.3272283272283274, 0.53125, -0.03125, 1.125, 1.0
288, 2.4017094017094016, -0.4004884004884005, -3.103785103785104, 0.34375, -0.0625, 1.09375, 1.0
289, 2.5995115995115996, -0.14407814407814407, -2.473748473748474, 0.25, 0.03125, 1.03125, 1.0
290, 3.2466422466422467, -0.4017094017094017, -1.7777777777777777, 0.21875, 0.1875, 0.875, 1.0
291, 3.8937728937728937, -0.7057387057387058, -1.2637362637362637, 0.09375, 0.0, 0.75, 1.0
292, 3.717948717948718, -0.6593406593406593, -0.9145299145299145, 0.03125, -0.09375, 0.59375, 1.0
293, 3.225885225885226, -0.6727716727716728, -0.7509157509157509, 0.0, 0.0, 0.4375, 1.0
294, 2.9523809523809526, -0.6862026862026862, -0.6385836385836385, 0.0, 0.0625, 0.28125, 1.0
295, 2.6263736263736264, -0.5787545787545788, -0.3968253968253968, 0.0, 0.15625, 0.15625, 1.0
296, 2.614163614163614, -0.6825396825396826, -0.2222222222222222, -0.09375, 0.09375, 0.09375, 1.0
297, 2.0732600732600734, -0.4945054945054945, -0.03418803418803419, -0.15625, 0.0, 0.03125, 1.0
298, 1.286935286935287, -0.17338217338217338, -0.015873015873015872, -0.09375, 0.0, 0.0, 1.0
299, 0.9072039072039072, -0.1221001221001221, 0.05372405372405373, 0.0, 0.0625, 0.0, 1.0
300, 0.6446886446886447, -0.315018315018315, -0.10866910866910867, 0.03125, 0.15625, -0.0625, 1.0
301, 0.5982905982905983, -0.46642246642246643, -0.1623931623931624, -0.03125, 0.125, -0.0625, 1.0
302, 0.040293040293040296, -0.2771672771672772, -0.17582417582417584, -0.15625, 0.09375, -0.0625, 1.0
303, 0.047619047619047616, 0.08547008547008547, 0.14896214896214896, -0.15625, 0.09375, -0.0625, 1.0
304, -0.06105006105006105, 0.13797313797313798, 0.31013431013431014, 0.0, 0.0, -0.0625, 1.0
305, -0.08302808302808302, 0.007326007326007326, 0.06837606837606838, 0.09375, 0.03125, -0.0625, 1.0
306, 0.020757020757020756, -0.11721611721611722, -0.14041514041514042, 0.09375, 0.0625, -0.0625, 1.0
307, 0.14774114774114774, -0.07692307692307693, -0.08913308913308914, 0.03125, 0.03125, -0.0625, 1.0
308, -0.09157509157509157, 0.026862026862026864, -0.10500610500610501, 0.0, -0.09375, -0.03125, 1.0
309, -0.18925518925518925, 0.11233211233211234, -0.06105006105006105, 0.0, -0.125, -0.03125, 1.0
310, -0.304029304029304, 0.14041514041514042, -0.22466422466422467, 0.0, -0.03125, -0.03125, 1.0
311, -0.018315018315018316, -0.06227106227106227, -0.28327228327228327, 0.0, 0.03125, 0.0, 1.0
312, 0.09401709401709402, -0.1391941391941392, -0.35775335775335776, 0.0, 0.0625, 0.0, 1.0
313, 0.09523809523809523, -0.16727716727716727, -0.3992673992673993, -0.0625, 0.03125, 0.0, 1.0
314, 0.3894993894993895, -0.013431013431013432, -0.0757020757020757, -0.09375, -0.03125, 0.0, 1.0
315, -0.008547008547008548, 0.18803418803418803, 0.11965811965811966, -0.03125, -0.09375, 0.0, 1.0
316, -0.045177045177045176, 0.02442002442002442, 0.001221001221001221, 0.0, 0.0, 0.0, 1.0
317, 0.10989010989010989, -0.06593406593406594, 0.054945054945054944, 0.0, 0.0625, 0.0, 1.0
318, 0.2600732600732601, -0.17826617826617827, -0.03540903540903541, -0.0625, 0.09375, 0.0, 1.0
319, 0.13553113553113552, -0.1282051282051282, -0.057387057387057384, -0.125, 0.0625, 0.0, 0.0
320, 0.0989010989010989, -0.08180708180708181, -0.04884004884004884, -0.09375, 0.0, 0.0, 0.0
321, 0.16727716727716727, -0.057387057387057384, -0.1282051282051282, -0.1875, 0.0, 0.0, 0.0
322, -0.014652014652014652, -0.07326007326007326, -0.1343101343101343, -0.21875, 0.125, 0.0, 0.0
323, -0.0989010989010989, -0.020757020757020756, -0.11843711843711843, -0.21875, 0.25, 0.0, 0.0
324, -0.03907203907203907, -0.0231990231990232, -0.06715506715506715, -0.125, 0.28125, 0.0, 0.0
325, 0.28205128205128205, -0.07326007326007326, 0.08180708180708181, -0.0625, 0.15625, -0.03125, 0.0
326, 0.10622710622710622, -0.050061050061050064, -0.04884004884004884, -0.09375, 0.125, 0.0, 0.0
327, -0.018315018315018316, 0.031746031746031744, 0.003663003663003663, -0.125, 0.0625, 0.0, 0.0
328, -0.08302808302808302, 0.1221001221001221, 0.14652014652014653, -0.0625, 0.09375, 0.0, 0.0
329, -0.06593406593406594, 0.16971916971916973, 0.17216117216117216, 0.03125, 0.125, -0.03125, 0.0
330, 0.08913308913308914, -0.1330891330891331, -0.031746031746031744, 0.09375, 0.125, -0.03125, 0.0
331, -0.07326007326007326, 0.03663003663003663, -0.07081807081807082, 0.0, 0.03125, -0.03125, 0.0
332, 0.0, 0.0231990231990232, -0.1282051282051282, 0.0, 0.0, -0.03125, 0.0
333, -0.221001221001221, 0.1452991452991453, -0.12942612942612944, 0.0, 0.0, -0.0625, 0.0
334, -0.07936507936507936, 0.08302808302808302, -0.19413919413919414, 0.0, 0.0, -0.03125, 0.0
335, -0.14652014652014653, 0.10012210012210013, -0.221001221001221, 0.03125, 0.0, 0.0, 0.0
336, 0.06715506715506715, -0.05616605616605617, -0.2612942612942613, 0.0625, 0.09375, 0.0, 0.0
337, 0.08913308913308914, -0.08547008547008547, -0.2857142857142857, 0.0, 0.0, 0.0, 0.0
338, -0.14896214896214896, 0.06593406593406594, -0.2515262515262515, 0.0, 0.0, 0.0, 0.0
339, 0.06593406593406594, -0.050061050061050064, -0.22466422466422467, -0.03125, 0.0, 0.0, 0.0
340, -0.08913308913308914, 0.0695970695970696, -0.1221001221001221, 0.0, 0.0, 0.0, 0.0
341, 0.08913308913308914, -0.08669108669108669, -0.1684981684981685, 0.0, 0.0, 0.0, 0.0
342, -0.12332112332112333, 0.007326007326007326, -0.16727716727716727, 0.0, 0.0, 0.0, 0.0
343, 0.06837606837606838, -0.028083028083028084, -0.047619047619047616, 0.0, 0.0, 0.0, 0.0
344, -0.018315018315018316, 0.002442002442002442, -0.028083028083028084, 0.0, 0.03125, 0.0, 0.0
345, 0.2612942612942613, -0.14896214896214896, -0.0927960927960928, -0.03125, 0.0, 0.0, 0.0
346, -0.018315018315018316, 0.004884004884004884, -0.08058608058608059, -0.03125, 0.0, -0.03125, 0.0
347, 0.02197802197802198, 0.18192918192918192, 0.10256410256410256, 0.0, 0.03125, 0.0, 0.0
348, 0.07081807081807082, -0.02564102564102564, -0.07081807081807082, 0.03125, 0.0, 0.0, 0.0
349, 0.03540903540903541, -0.03540903540903541, -0.23565323565323565, 0.0, 0.0, 0.0, 0.0
350, 0.030525030525030524, 0.0463980463980464, -0.18192918192918192, -0.03125, 0.0, 0.0, 0.0
351, -0.014652014652014652, 0.040293040293040296, -0.17826617826617827, 0.0, 0.0, 0.0, 0.0
352, 0.026862026862026864, -0.003663003663003663, -0.16361416361416362, 0.0, 0.0625, 0.0, 0.0
353, 0.20757020757020758, -0.16605616605616605, -0.1746031746031746, 0.0, 0.03125, 0.0, 0.0
354, -0.04151404151404151, 0.018315018315018316, -0.08180708180708181, -0.03125, 0.0, 0.0, 0.0
355, 0.06715506715506715, -0.054945054945054944, -0.1391941391941392, 0.0, 0.0, 0.0, 0.0
356, -0.08913308913308914, 0.050061050061050064, -0.10256410256410256, -0.03125, 0.0, 0.0, 0.0
357, 0.03418803418803419, 0.03296703296703297, 0.003663003663003663, -0.03125, 0.0, 0.0, 0.0
358, 0.017094017094017096, 0.017094017094017096, 0.015873015873015872, -0.03125, 0.0, 0.0, 0.0
359, 0.09523809523809523, -0.07203907203907203, -0.05128205128205128, 0.0, 0.0, 0.0, 0.0
360, -0.03296703296703297, 0.008547008547008548, -0.07814407814407814, 0.0, -0.0625, 0.0, 0.0
361, -0.08424908424908426, -0.03785103785103785, -0.2258852258852259, 0.0, 0.0, -0.03125, 0.0
362, 0.009768009768009768, -0.018315018315018316, -0.1514041514041514, -0.03125, 0.0, -0.03125, 0.0
363, 0.01098901098901099, 0.002442002442002442, -0.06349206349206349, 0.0, 0.0, -0.03125, 0.0
364, 0.006105006105006105, 0.018315018315018316, 0.001221001221001221, 0.0, 0.0, -0.03125, 0.0
365, 0.019536019536019536, -0.003663003663003663, -0.08180708180708181, 0.0, 0.0, 0.0, 0.0
366, 0.054945054945054944, 0.047619047619047616, 0.0231990231990232, 0.0, 0.0, 0.0, 0.0
367, 0.030525030525030524, -0.014652014652014652, -0.14163614163614163, 0.0, 0.0, 0.0, 0.0
368, 0.014652014652014652, 0.018315018315018316, -0.05128205128205128, 0.0, 0.03125, 0.0, 0.0
369, 0.026862026862026864, -0.004884004884004884, -0.10256410256410256, 0.0, 0.03125, -0.03125, 0.0
370, 0.06105006105006105, 0.047619047619047616, 0.03418803418803419, 0.0, 0.0, -0.03125, 0.0
371, -0.06227106227106227, -0.006105006105006105, -0.15384615384615385, 0.03125, 0.0, -0.03125, 0.0
372, -0.06471306471306472, -0.02442002442002442, -0.2490842490842491, -0.03125, 0.0, -0.03125, 0.0
373, -0.11233211233211234, 0.08669108669108669, -0.08424908424908426, -0.0625, 0.03125, -0.03125, 0.0
374, -0.014652014652014652, 0.07692307692307693, 0.03296703296703297, 0.0, 0.03125, -0.03125, 0.0
375, -0.03418803418803419, 0.015873015873015872, -0.007326007326007326, 0.0, 0.0, 0.0, 0.0
376, 0.01221001221001221, -0.026862026862026864, -0.12942612942612944, 0.0, 0.0, 0.0, 0.0
377, 0.026862026862026864, -0.03663003663003663, -0.20146520146520147, 0.0, 0.0, 0.0, 0.0
378, 0.0463980463980464, 0.0, -0.10622710622710622, -0.0625, 0.03125, 0.0, 0.0
379, 0.013431013431013432, 0.020757020757020756, -0.040293040293040296, -0.03125, 0.0, 0.0, 0.0
380, 0.007326007326007326, 0.01221001221001221, -0.002442002442002442, 0.0, 0.03125, 0.0, 0.0
381, 0.03785103785103785, -0.018315018315018316, -0.08669108669108669, 0.0, 0.03125, 0.0, 0.0
382, 0.001221001221001221, 0.020757020757020756, -0.06715506715506715, -0.03125, 0.0, 0.0, 0.0
383, 0.01098901098901099, 0.004884004884004884, -0.05982905982905983, -0.03125, 0.0, 0.0, 0.0
384, 0.045177045177045176, 0.01098901098901099, -0.03663003663003663, -0.03125, 0.0, 0.0, 0.0
385, 0.018315018315018316, 0.014652014652014652, -0.03418803418803419, 0.0, 0.0, 0.0, 0.0
386, 0.02442002442002442, -0.004884004884004884, -0.11233211233211234, 0.0, 0.0, 0.0, 0.0
387, 0.029304029304029304, -0.009768009768009768, -0.15018315018315018, 0.0, 0.0, 0.0, 0.0
388, 0.02197802197802198, -0.003663003663003663, -0.08913308913308914, 0.0, 0.0, 0.0, 0.0
389, 0.009768009768009768, 0.05982905982905983, -0.02197802197802198, 0.0, 0.03125, 0.0, 0.0
390, 0.10256410256410256, -0.05860805860805861, -0.08913308913308914, 0.0, 0.0, 0.0, 0.0
391, -0.019536019536019536, 0.01098901098901099, -0.11843711843711843, 0.0, 0.0, 0.0, 0.0
392, 0.026862026862026864, -0.007326007326007326, -0.12942612942612944, 0.0, 0.0, 0.0, 0.0
393, -0.019536019536019536, 0.08791208791208792, -0.008547008547008548, 0.0, 0.03125, 0.0, 0.0
394, -0.020757020757020756, 0.06471306471306472, 0.057387057387057384, 0.0, 0.03125, 0.0, 0.0
395, 0.14285714285714285, 0.015873015873015872, -0.042735042735042736, 0.0, 0.0, 0.0, 0.0
396, 0.02442002442002442, -0.04151404151404151, -0.15506715506715507, 0.0, 0.0, 0.0, 0.0
397, 0.004884004884004884, 0.0, -0.18437118437118438, 0.0, 0.0, -0.03125, 0.0
398, 0.03785103785103785, -0.04395604395604396, -0.23076923076923078, 0.0, 0.0, -0.03125, 0.0
399, 0.029304029304029304, 0.003663003663003663, -0.09035409035409035, 0.0, 0.0, -0.03125, 0.0
400, 0.014652014652014652, 0.001221001221001221, -0.05860805860805861, 0.0, 0.0, -0.03125, 0.0
401, 0.013431013431013432, 0.029304029304029304, 0.009768009768009768, 0.0, 0.0, 0.0, 0.0
402, -0.020757020757020756, 0.042735042735042736, 0.04884004884004884, 0.0, 0.0, 0.0, 0.0
403, -0.030525030525030524, 0.019536019536019536, 0.03418803418803419, 0.0, 0.0, 0.0, 0.0
404, 0.06349206349206349, -0.02442002442002442, -0.013431013431013432, 0.0, 0.03125, 0.0, 0.0
405, 0.06105006105006105, 0.014652014652014652, 0.001221001221001221, 0.0, 0.0, 0.0, 0.0
406, 0.013431013431013432, 0.16483516483516483, 0.3089133089133089, 0.0, -0.03125, 0.0, 0.0
407, -0.08302808302808302, 0.029304029304029304, 0.2686202686202686, 0.09375, -0.09375, 0.0, 0.0
408, -0.04884004884004884, -0.13064713064713065, 0.0927960927960928, 0.0, -0.03125, 0.0, 0.0
409, -0.1514041514041514, -0.05982905982905983, 0.06593406593406594, -0.03125, 0.03125, 0.03125, 1.0
410, 0.3992673992673993, -0.3492063492063492, 0.21001221001221002, 0.0, 0.0625, 0.03125, 1.0
411, 0.17582417582417584, 0.01221001221001221, 0.24297924297924298, 0.15625, 0.0, 0.03125, 1.0
412, -0.32722832722832723, 0.10989010989010989, -0.006105006105006105, 0.21875, 0.0, 0.0625, 1.0
413, -0.36507936507936506, 0.16605616605616605, 0.10256410256410256, 0.21875, 0.0625, 0.125, 1.0
414, -0.3724053724053724, -0.013431013431013432, -0.16605616605616605, 0.1875, 0.125, 0.125, 1.0
415, -1.0512820512820513, -0.11477411477411477, -0.17582417582417584, 0.09375, 0.125, 0.125, 1.0
416, -1.9023199023199022, 0.10500610500610501, 0.05982905982905983, 0.09375, 0.1875, 0.1875, 1.0
417, -2.346764346764347, 0.6605616605616605, 0.8131868131868132, 0.21875, 0.125, 0.34375, 1.0
418, -3.326007326007326, 0.938949938949939, 0.945054945054945, 0.5, 0.1875, 0.59375, 1.0
419, -4.905982905982906, 1.4163614163614164, 0.7741147741147741, 0.59375, 0.1875, 0.875, 1.0
420, -5.942612942612943, 2.277167277167277, 0.5091575091575091, 0.625, 0.03125, 1.15625, 1.0
421, -6.117216117216117, 2.3162393162393164, -0.4297924297924298, 0.71875, -0.03125, 1.53125, 1.0
422, -6.208791208791209, 1.901098901098901, -2.3382173382173383, 0.8125, 0.0, 1.875, 1.0
423, -5.0085470085470085, 1.1404151404151404, -3.9914529914529915, 0.75, 0.03125, 2.1875, 1.0
424, -3.8058608058608057, 0.684981684981685, -5.396825396825397, 0.40625, -0.03125, 2.4375, 1.0
425, -2.1086691086691087, 0.10989010989010989, -6.743589743589744, 0.0, -0.09375, 2.625, 1.0
426, -1.0573870573870574, -0.21367521367521367, -8.174603174603174, -0.46875, -0.28125, 2.78125, 1.0
427, 0.5531135531135531, -0.5225885225885226, -9.233211233211232, -0.84375, -0.34375, 2.90625, 1.0
428, 2.934065934065934, -1.534798534798535, -10.263736263736265, -1.0625, -0.25, 2.875, 1.0
429, 5.146520146520147, -3.2454212454212454, -11.206349206349206, -1.375, -0.15625, 2.71875, 1.0
430, 6.1440781440781445, -5.056166056166056, -11.77899877899878, -2.125, -0.125, 2.3125, 1.0
431, 6.407814407814408, -6.2063492063492065, -10.841269841269842, -2.6875, 0.15625, 2.03125, 1.0
432, 6.584859584859585, -6.678876678876679, -8.814407814407815, -2.96875, 0.59375, 1.6875, 1.0
433, 7.22954822954823, -7.811965811965812, -6.565323565323565, -3.25, 0.875, 1.34375, 1.0
434, 7.328449328449328, -8.746031746031745, -4.272283272283272, -3.46875, 0.96875, 1.0, 1.0
435, 6.402930402930403, -8.913308913308914, -2.283272283272283, -3.46875, 1.125, 0.65625, 1.0
436, 5.760683760683761, -9.123321123321123, -0.5934065934065934, -3.25, 1.4375, 0.3125, 1.0
437, 4.825396825396825, -9.36996336996337, 0.8046398046398047, -3.09375, 1.875, -0.03125, 1.0
438, 4.599511599511599, -9.776556776556777, 2.5115995115995116, -2.875, 2.1875, -0.46875, 1.0
439, 3.9621489621489623, -9.457875457875458, 3.9108669108669107, -2.625, 2.3125, -0.90625, 1.0
440, 3.4017094017094016, -8.664224664224664, 5.177045177045177, -2.28125, 2.21875, -1.25, 1.0
441, 2.9023199023199022, -8.36874236874237, 6.054945054945055, -1.90625, 2.0, -1.6875, 1.0
442, 1.2759462759462759, -7.905982905982906, 6.960927960927961, -1.46875, 1.96875, -2.03125, 1.0
443, 0.45054945054945056, -7.343101343101343, 7.330891330891331, -1.125, 1.96875, -2.34375, 1.0
444, -0.7973137973137974, -6.6068376068376065, 7.4774114774114775, -0.625, 1.9375, -2.5625, 1.0
445, -1.5128205128205128, -6.257631257631258, 7.4212454212454215, -0.03125, 1.84375, -2.71875, 1.0
446, -2.514041514041514, -5.711843711843712, 6.768009768009768, 0.375, 1.625, -2.8125, 1.0
447, -3.4896214896214897, -5.3076923076923075, 5.992673992673993, 0.6875, 1.46875, -2.84375, 1.0
448, -4.123321123321123, -4.322344322344322, 5.437118437118437, 1.0, 1.40625, -2.78125, 1.0
449, -3.5347985347985347, -4.126984126984127, 5.557997557997558, 1.25, 1.25, -2.65625, 1.0
450, -3.5921855921855923, -3.5885225885225887, 5.5054945054945055, 1.5, 0.90625, -2.5625, 1.0
451, -4.816849816849817, -2.9816849816849818, 4.433455433455434, 1.875, 0.65625, -2.4375, 1.0
452, -4.286935286935287, -2.6776556776556775, 3.772893772893773, 2.125, 0.65625, -2.25, 1.0
453, -3.537240537240537, -2.860805860805861, 3.463980463980464, 2.25, 0.53125, -2.0625, 1.0
454, -5.007326007326007, -0.9438339438339438, 2.5042735042735043, 2.65625, 0.4375, -1.78125, 1.0
455, -5.343101343101343, -0.5885225885225885, 1.1636141636141637, 2.875, 0.25, -1.40625, 1.0
456, -4.752136752136752, -1.1672771672771673, 0.21978021978021978, 2.78125, 0.0625, -1.03125, 1.0
457, -4.177045177045177, -0.7448107448107448, -0.4554334554334554, 2.53125, -0.15625, -0.78125, 1.0
458, -4.347985347985348, -0.20634920634920634, -1.2087912087912087, 2.46875, -0.25, -0.4375, 1.0
459, -3.885225885225885, -0.14163614163614163, -1.8595848595848596, 2.5, -0.28125, -0.125, 1.0
460, -2.8192918192918195, -0.6031746031746031, -2.2332112332112333, 2.40625, -0.40625, 0.0, 1.0
461, -2.987789987789988, 0.05128205128205128, -2.8815628815628815, 2.375, -0.40625, 0.15625, 1.0
462, -3.05006105006105, -0.2661782661782662, -3.5665445665445668, 2.15625, -0.21875, 0.34375, 1.0
463, -2.416361416361416, -0.2698412698412698, -3.595848595848596, 1.9375, -0.09375, 0.5625, 1.0
464, -0.9951159951159951, 0.41514041514041516, -3.343101343101343, 1.8125, -0.21875, 0.71875, 1.0
465, -0.24786324786324787, -0.2979242979242979, -4.42002442002442, 1.65625, -0.25, 0.90625, 1.0
466, 0.2661782661782662, -0.442002442002442, -4.446886446886447, 1.34375, -0.25, 0.9375, 1.0
467, -0.007326007326007326, 0.14285714285714285, -4.183150183150183, 1.0, -0.25, 0.9375, 1.0
468, 0.2588522588522589, 0.4554334554334554, -3.63003663003663, 0.8125, -0.125, 1.0, 1.0
469, 0.8290598290598291, 0.4725274725274725, -3.028083028083028, 0.71875, -0.0625, 1.0625, 1.0
470, 1.3406593406593406, 0.17704517704517705, -2.7655677655677655, 0.6875, -0.09375, 1.09375, 1.0
471, 1.8424908424908424, 0.03540903540903541, -2.6117216117216118, 0.625, -0.09375, 1.09375, 1.0
472, 2.352869352869353, -0.11965811965811966, -2.4542124542124544, 0.5, -0.0625, 1.03125, 1.0
473, 2.7155067155067156, -0.304029304029304, -2.4615384615384617, 0.375, -0.03125, 0.9375, 1.0
474, 2.8766788766788767, -0.2625152625152625, -2.0598290598290596, 0.21875, 0.0, 0.84375, 1.0
475, 3.076923076923077, -0.028083028083028084, -1.485958485958486, 0.09375, -0.0625, 0.78125, 1.0
476, 3.3321123321123323, 0.0463980463980464, -1.0, 0.09375, -0.03125, 0.59375, 1.0
477, 3.514041514041514, -0.21245421245421245, -0.9877899877899878, 0.09375, 0.03125, 0.4375, 1.0
478, 3.656898656898657, -0.44078144078144077, -0.9633699633699634, 0.03125, -0.0625, 0.3125, 1.0
479, 2.9621489621489623, -0.33943833943833945, -1.0317460317460319, -0.03125, -0.125, 0.1875, 1.0
480, 2.1807081807081805, -0.199023199023199, -0.8302808302808303, -0.125, -0.0625, 0.125, 1.0
481, 1.5543345543345544, 0.014652014652014652, -0.503052503052503, -0.09375, 0.0, 0.0625, 1.0
482, 1.1074481074481075, 0.1575091575091575, -0.07203907203907203, 0.0, 0.0625, 0.03125, 1.0
483, 0.7118437118437119, -0.10134310134310134, -0.3247863247863248, 0.0, 0.15625, 0.0, 1.0
484, 0.6043956043956044, -0.2026862026862027, -0.19413919413919414, -0.09375, 0.125, 0.0, 1.0
485, 0.3492063492063492, -0.1978021978021978, -0.06227106227106227, -0.15625, 0.0625, 0.0, 1.0
486, 0.001221001221001221, -0.06349206349206349, 0.045177045177045176, -0.1875, 0.0625, 0.0, 1.0
487, -0.06349206349206349, 0.04395604395604396, 0.12698412698412698, -0.09375, 0.0625, 0.0, 1.0
488, -0.006105006105006105, -0.003663003663003663, -0.0757020757020757, 0.03125, 0.09375, 0.0, 1.0
489, -0.029304029304029304, -0.1746031746031746, -0.1623931623931624, 0.0, 0.09375, -0.03125, 1.0
490, -0.08547008547008547, -0.10622710622710622, -0.1562881562881563, -0.03125, 0.0625, -0.03125, 1.0
491, -0.01098901098901099, 0.0, 0.014652014652014652, -0.03125, 0.0, -0.03125, 1.0
492, -0.1452991452991453, 0.05982905982905983, -0.018315018315018316, -0.03125, -0.03125, -0.03125, 1.0
493, -0.10256410256410256, 0.15384615384615385, 0.09401709401709402, 0.0, 0.0, 0.0, 1.0
494, -0.01098901098901099, 0.02197802197802198, 0.042735042735042736, 0.0, 0.0625, 0.0, 1.0
495, 0.12332112332112333, -0.1282051282051282, -0.0695970695970696, -0.03125, 0.0625, 0.0, 1.0
496, 0.02197802197802198, 0.08302808302808302, 0.07936507936507936, -0.03125, 0.0, 0.0, 1.0
497, -0.1282051282051282, 0.07692307692307693, -0.04395604395604396, 0.0, 0.0, 0.0, 1.0
498, 0.17338217338217338, -0.057387057387057384, 0.009768009768009768, 0.0, 0.03125, 0.0, 1.0
499, 0.08180708180708181, -0.028083028083028084, -0.029304029304029304, 0.0, 0.0, 0.0, 1.0
500, 0.13797313797313798, -0.2039072039072039, -0.21855921855921856, -0.15625, 0.09375, 0.0, 0.0
501, 0.019536019536019536, -0.14285714285714285, -0.39316239316239315, -0.25, 0.15625, 0.0, 0.0
502, 0.1916971916971917, -0.1746031746031746, -0.3418803418803419, -0.46875, 0.0625, -0.03125, 0.0
503, 0.03540903540903541, -0.06471306471306472, -0.07448107448107448, -0.4375, 0.03125, -0.03125, 0.0
504, -0.047619047619047616, 0.18681318681318682, 0.20634920634920634, -0.25, 0.0, 0.0, 0.0
505, -0.09523809523809523, 0.29181929181929184, 0.20512820512820512, -0.0625, 0.0, 0.0, 0.0
506, -0.14041514041514042, 0.05128205128205128, 0.03540903540903541, 0.0, 0.09375, 0.0, 0.0
507, -0.026862026862026864, -0.02564102564102564, -0.08180708180708181, 0.0, 0.15625, 0.0, 0.0
508, 0.07692307692307693, -0.08424908424908426, -0.06227106227106227, 0.0, 0.125, 0.0, 0.0
509, -0.0231990231990232, 0.052503052503052504, -0.006105006105006105, 0.0, 0.09375, 0.0, 0.0
510, -0.07448107448107448, 0.03785103785103785, 0.03540903540903541, 0.0, 0.125, 0.0, 0.0
511, 0.0231990231990232, 0.02197802197802198, 0.07081807081807082, 0.0, 0.0625, 0.0, 0.0
512, 0.1343101343101343, -0.04884004884004884, -0.06471306471306472, 0.0, 0.0625, 0.0, 0.0
513, -0.001221001221001221, -0.009768009768009768, -0.12087912087912088, 0.0, 0.03125, 0.0, 0.0
514, 0.004884004884004884, -0.004884004884004884, -0.17826617826617827, 0.03125, 0.0625, 0.0, 0.0
515, 0.03540903540903541, -0.03785103785103785, -0.2857142857142857, 0.03125, 0.03125, -0.03125, 0.0
516, -0.08424908424908426, 0.09157509157509157, -0.24175824175824176, 0.0, 0.03125, -0.03125, 0.0
517, 0.031746031746031744, -0.06593406593406594, -0.336996336996337, 0.0, 0.03125, 0.0, 0.0
518, -0.07326007326007326, 0.13553113553113552, -0.2039072039072039, 0.0, 0.03125, -0.03125, 0.0
519, 0.052503052503052504, -0.04151404151404151, -0.2442002442002442, 0.0, 0.03125, 0.0, 0.0
520, -0.10500610500610501, 0.04395604395604396, -0.1514041514041514, -0.03125, 0.03125, 0.0, 0.0
521, 0.08669108669108669, -0.03907203907203907, -0.15506715506715507, 0.0, 0.0625, 0.0, 0.0
522, -0.06105006105006105, 0.029304029304029304, -0.11355311355311355, -0.03125, 0.03125, 0.0, 0.0
523, -0.11965811965811966, 0.1330891330891331, 0.08180708180708181, 0.0, 0.15625, 0.0, 0.0
524, 0.1575091575091575, -0.08180708180708181, 0.07814407814407814, 0.03125, 0.09375, 0.0, 0.0
525, 0.13553113553113552, 0.001221001221001221, 0.09035409035409035, 0.03125, 0.0, 0.0, 0.0
526, 0.10378510378510379, -0.16117216117216118, -0.0927960927960928, 0.0, -0.03125, 0.0, 0.0
527, 0.008547008547008548, -0.042735042735042736, -0.12454212454212454, 0.0, -0.03125, 0.0, 0.0
528, -0.007326007326007326, -0.006105006105006105, -0.15506715506715507, 0.0, 0.0, 0.0, 0.0
529, 0.04395604395604396, -0.01221001221001221, -0.14652014652014653, 0.0, 0.0, 0.0, 0.0
530, 0.02442002442002442, -0.01098901098901099, -0.15018315018315018, 0.0, 0.0, -0.03125, 0.0
531, 0.030525030525030524, 0.0, -0.10989010989010989, 0.0, 0.0, 0.0, 0.0
532, -0.06593406593406594, 0.050061050061050064, -0.14407814407814407, 0.0, 0.0, -0.03125, 0.0
533, 0.0, 0.040293040293040296, -0.11233211233211234, 0.0, 0.03125, 0.0, 0.0
534, 0.028083028083028084, -0.003663003663003663, -0.08791208791208792, 0.0, 0.0, -0.03125, 0.0
535, -0.04884004884004884, 0.0989010989010989, -0.014652014652014652, 0.0, 0.0, 0.0, 0.0
536, 0.018315018315018316, 0.0, -0.10012210012210013, 0.03125, 0.0, 0.0, 0.0
537, 0.014652014652014652, 0.003663003663003663, -0.14163614163614163, 0.0, 0.0, 0.0, 0.0
538, 0.004884004884004884, -0.013431013431013432, -0.17582417582417584, 0.0, 0.0, 0.0, 0.0
539, 0.09768009768009768, -0.029304029304029304, -0.1221001221001221, 0.0, 0.03125, 0.0, 0.0
540, 0.02564102564102564, -0.004884004884004884, -0.08913308913308914, 0.0, 0.0, 0.0, 0.0
541, 0.05372405372405373, 0.029304029304029304, -0.0695970695970696, 0.0, 0.0, 0.0, 0.0
542, 0.004884004884004884, 0.004884004884004884, -0.09401709401709402, 0.0, 0.0, 0.0, 0.0
543, 0.13064713064713065, -0.03907203907203907, -0.1111111111111111, 0.0, 0.0, 0.0, 0.0
544, 0.020757020757020756, 0.002442002442002442, -0.11355311355311355, 0.0, 0.0, 0.0, 0.0
545, 0.020757020757020756, 0.014652014652014652, -0.09401709401709402, 0.0, -0.03125, 0.0, 0.0
546, 0.03296703296703297, -0.029304029304029304, -0.2087912087912088, 0.0, 0.0, -0.03125, 0.0
547, 0.08669108669108669, -0.0463980463980464, -0.1855921855921856, 0.0, 0.0, -0.03125, 0.0
548, 0.03785103785103785, -0.019536019536019536, -0.18681318681318682, 0.0, 0.0, -0.03125, 0.0
549, 0.02442002442002442, 0.02197802197802198, -0.07936507936507936, 0.0, 0.0, -0.03125, 0.0
550, -0.03785103785103785, 0.018315018315018316, -0.08791208791208792, 0.0, 0.0, -0.03125, 0.0
551, 0.020757020757020756, -0.001221001221001221, -0.07936507936507936, 0.0, 0.0, 0.0, 0.0
552, 0.02197802197802198, -0.07081807081807082, -0.14652014652014653, 0.0, 0.0, -0.03125, 0.0
553, -0.0757020757020757, 0.040293040293040296, -0.10378510378510379, -0.03125, 0.0, -0.03125, 0.0
554, 0.002442002442002442, 0.09523809523809523, 0.07081807081807082, 0.0, 0.0, 0.0, 0.0
555, -0.004884004884004884, 0.057387057387057384, 0.0757020757020757, 0.0, 0.0, 0.0, 0.0
556, 0.014652014652014652, 0.008547008547008548, 0.030525030525030524, 0.0, 0.0, 0.0, 0.0
557, 0.10622710622710622, -0.09035409035409035, -0.09401709401709402, 0.0, 0.0, 0.0, 0.0
558, 0.02564102564102564, -0.006105006105006105, -0.17582417582417584, 0.0, 0.0, 0.0, 0.0
559, -0.0463980463980464, 0.013431013431013432, -0.19291819291819293, 0.0, 0.0, 0.0, 0.0
560, 0.026862026862026864, -0.002442002442002442, -0.11233211233211234, 0.0, 0.03125, 0.0, 0.0
561, 0.01098901098901099, 0.04884004884004884, -0.03296703296703297, 0.0, 0.0, 0.0, 0.0
562, -0.04151404151404151, 0.045177045177045176, -0.01221001221001221, 0.0, 0.0, 0.0, 0.0
563, 0.02564102564102564, -0.009768009768009768, -0.08547008547008547, 0.0, 0.0, 0.0, 0.0
564, 0.014652014652014652, 0.001221001221001221, -0.07814407814407814, 0.0, 0.03125, 0.0, 0.0
565, 0.07203907203907203, -0.054945054945054944, -0.14285714285714285, -0.0625, 0.0, 0.0, 0.0
566, -0.045177045177045176, 0.06837606837606838, -0.09523809523809523, -0.0625, 0.03125, 0.0, 0.0
567, 0.008547008547008548, 0.013431013431013432, -0.11843711843711843, -0.03125, 0.0625, 0.0, 0.0
568, 0.004884004884004884, -0.003663003663003663, -0.07203907203907203, 0.0, 0.09375, 0.0, 0.0
569, 0.0463980463980464, 0.08669108669108669, 0.06105006105006105, 0.0, 0.0625, 0.0, 0.0
570, 0.03296703296703297, 0.029304029304029304, 0.015873015873015872, 0.03125, 0.0, 0.0, 0.0
571, 0.018315018315018316, -0.08669108669108669, -0.15873015873015872, 0.0, 0.0, 0.0, 0.0
572, -0.009768009768009768, -0.05616605616605617, -0.27106227106227104, -0.03125, 0.03125, 0.0, 0.0
573, 0.05128205128205128, -0.05128205128205128, -0.27594627594627597, -0.0625, 0.03125, 0.0, 0.0
574, 0.028083028083028084, 0.026862026862026864, -0.10989010989010989, -0.03125, 0.0, 0.0, 0.0
575, 0.002442002442002442, 0.13675213675213677, 0.09523809523809523, 0.0, 0.0, 0.0, 0.0
576, -0.008547008547008548, 0.05982905982905983, 0.026862026862026864, 0.03125, -0.03125, 0.0, 0.0
577, -0.029304029304029304, 0.04151404151404151, -0.030525030525030524, 0.03125, -0.03125, 0.0, 0.0
578, 0.02197802197802198, -0.015873015873015872, -0.10500610500610501, 0.0, 0.0, 0.0, 0.0
579, 0.04395604395604396, -0.019536019536019536, -0.17094017094017094, 0.0, 0.0, 0.0, 0.0
580, 0.06227106227106227, 0.0, -0.07326007326007326, 0.0, -0.03125, 0.0, 0.0
581, 0.054945054945054944, 0.03785103785103785, -0.11477411477411477, 0.0625, -0.09375, 0.0, 0.0
582, -0.057387057387057384, -0.07936507936507936, -0.23809523809523808, 0.03125, -0.03125, -0.03125, 0.0
583, 0.03785103785103785, -0.030525030525030524, -0.20634920634920634, 0.0, 0.0, -0.03125, 0.0
584, 0.001221001221001221, 0.02564102564102564, -0.0757020757020757, -0.0625, 0.03125, -0.03125, 0.0
585, 0.03907203907203907, 0.029304029304029304, 0.0, 0.0, 0.0, 0.0, 0.0
586, 0.052503052503052504, 0.028083028083028084, 0.09157509157509157, 0.0, -0.03125, 0.0, 0.0
587, -0.22344322344322345, 0.09401709401709402, 0.08669108669108669, 0.03125, -0.09375, 0.0, 0.0
588, -0.13553113553113552, 0.020757020757020756, 0.08180708180708181, 0.03125, 0.0, 0.0, 1.0
589, 0.3431013431013431, -0.4249084249084249, 0.057387057387057384, 0.03125, 0.09375, 0.0, 1.0
590, 0.37362637362637363, -0.09645909645909646, 0.3199023199023199, 0.03125, 0.03125, 0.0, 1.0
591, -0.030525030525030524, 0.018315018315018316, 0.2148962148962149, 0.0625, -0.125, 0.03125, 1.0
592, -0.07326007326007326, -0.05616605616605617, -0.10866910866910867, 0.0625, -0.0625, 0.0, 1.0
593, -0.09645909645909646, -0.11965811965811966, -0.36996336996337, -0.03125, 0.09375, 0.0, 1.0
594, 0.007326007326007326, 0.001221001221001221, -0.1562881562881563, -0.03125, 0.09375, 0.0, 1.0
595, -0.3247863247863248, 0.2698412698412698, 0.06105006105006105, 0.03125, 0.125, 0.0, 1.0
596, -0.3724053724053724, 0.4139194139194139, 0.4126984126984127, 0.125, 0.15625, 0.0625, 1.0
597, -0.5128205128205128, 0.16117216117216118, 0.38217338217338215, 0.15625, 0.15625, 0.09375, 1.0
598, -0.8498168498168498, 0.2564102564102564, 0.5763125763125763, 0.1875, 0.1875, 0.15625, 1.0
599, -1.0012210012210012, 0.16117216117216118, 0.6788766788766789, 0.25, 0.125, 0.25, 1.0
600, -1.3748473748473748, 0.11477411477411477, 0.8376068376068376, 0.28125, 0.0625, 0.3125, 1.0
601, -1.431013431013431, 0.017094017094017096, 0.7680097680097681, 0.3125, 0.0, 0.40625, 1.0
602, -1.7216117216117217, 0.21611721611721613, 0.7936507936507936, 0.375, 0.03125, 0.46875, 1.0
603, -2.2686202686202686, 0.43833943833943834, 0.35775335775335776, 0.40625, 0.0625, 0.5625, 1.0
604, -2.8766788766788767, 0.9511599511599511, -0.015873015873015872, 0.4375, -0.03125, 0.84375, 1.0
605, -4.321123321123321, 1.934065934065934, -1.6373626373626373, 0.5, -0.0625, 1.09375, 1.0
606, -4.500610500610501, 1.9304029304029304, -3.076923076923077, 0.53125, -0.03125, 1.40625, 1.0
607, -3.9511599511599513, 1.4297924297924298, -4.3992673992674, 0.375, -0.03125, 1.71875, 1.0
608, -3.78021978021978, 1.3650793650793651, -5.3357753357753355, 0.0, -0.21875, 2.0, 1.0
609, -3.474969474969475, 1.2039072039072038, -5.746031746031746, -0.3125, -0.1875, 2.25, 1.0
610, -2.5616605616605614, 0.7448107448107448, -6.017094017094017, -0.5625, -0.125, 2.5, 1.0
611, -1.6324786324786325, 0.1562881562881563, -6.5958485958485955, -0.75, -0.15625, 2.71875, 1.0
612, -0.42735042735042733, -0.5311355311355311, -7.344322344322344, -0.9375, -0.15625, 2.875, 1.0
613, 0.645909645909646, -1.7728937728937728, -8.274725274725276, -1.1875, -0.15625, 2.9375, 1.0
614, 1.8510378510378511, -3.010989010989011, -8.626373626373626, -1.5625, 0.03125, 2.875, 1.0
615, 3.78998778998779, -4.604395604395604, -8.261294261294262, -1.9375, 0.28125, 2.78125, 1.0
616, 5.416361416361417, -5.94993894993895, -7.697191697191697, -2.375, 0.4375, 2.40625, 1.0
617, 6.543345543345543, -7.086691086691086, -7.0927960927960925, -2.5625, 0.625, 2.0625, 1.0
618, 7.407814407814408, -8.324786324786325, -6.114774114774114, -2.78125, 0.875, 1.625, 1.0
619, 7.937728937728938, -9.042735042735043, -4.592185592185592, -2.9375, 1.21875, 1.125, 1.0
620, 7.841269841269841, -9.722832722832722, -3.2686202686202686, -3.0, 1.59375, 0.59375, 1.0
621, 7.487179487179487, -10.2014652014652, -1.592185592185592, -3.0, 1.90625, 0.09375, 1.0
622, 6.7655677655677655, -10.213675213675213, 0.17338217338217338, -2.9375, 2.09375, -0.34375, 1.0
623, 6.014652014652015, -10.588522588522588, 1.8595848595848596, -2.8125, 2.125, -0.75, 1.0
624, 5.272283272283272, -10.424908424908425, 3.481074481074481, -2.59375, 2.0, -1.15625, 1.0
625, 4.1098901098901095, -9.655677655677655, 4.914529914529915, -2.1875, 1.9375, -1.5625, 1.0
626, 3.064713064713065, -8.831501831501832, 5.9743589743589745, -1.65625, 1.90625, -1.9375, 1.0
627, 2.057387057387057, -7.923076923076923, 6.654456654456655, -1.15625, 1.84375, -2.21875, 1.0
628, 0.3626373626373626, -7.4322344322344325, 6.833943833943834, -0.5625, 1.46875, -2.5625, 1.0
629, -1.2295482295482296, -6.536019536019536, 6.285714285714286, -0.28125, 1.375, -2.8125, 1.0
630, -2.432234432234432, -5.6361416361416365, 5.915750915750916, 0.03125, 1.46875, -2.90625, 1.0
631, -2.884004884004884, -5.207570207570208, 6.0366300366300365, 0.34375, 1.5, -2.9375, 1.0
632, -3.954822954822955, -4.35042735042735, 6.012210012210012, 0.5625, 1.34375, -2.90625, 1.0
633, -4.037851037851038, -3.868131868131868, 6.026862026862027, 0.90625, 1.21875, -2.78125, 1.0
634, -4.412698412698413, -3.5702075702075704, 5.7826617826617825, 1.25, 0.96875, -2.65625, 1.0
635, -5.368742368742368, -2.503052503052503, 5.045177045177045, 1.59375, 0.8125, -2.5, 1.0
636, -5.572649572649572, -2.0134310134310134, 4.101343101343101, 1.96875, 0.75, -2.25, 1.0
637, -4.598290598290598, -2.341880341880342, 3.484737484737485, 2.09375, 0.53125, -1.90625, 1.0
638, -4.349206349206349, -1.9865689865689866, 3.1514041514041513, 2.03125, 0.28125, -1.65625, 1.0
639, -4.527472527472527, -0.7619047619047619, 2.421245421245421, 2.34375, 0.25, -1.3125, 1.0
640, -3.5445665445665444, -0.7411477411477412, 1.9987789987789988, 2.59375, 0.0625, -1.03125, 1.0
641, -2.706959706959707, -1.164835164835165, 1.363858363858364, 2.53125, -0.21875, -0.875, 1.0
642, -3.8913308913308913, -0.3882783882783883, -0.30158730158730157, 2.5625, -0.25, -0.65625, 1.0
643, -3.5616605616605614, -0.3492063492063492, -1.9413919413919414, 2.4375, -0.21875, -0.34375, 1.0
644, -2.3797313797313797, -0.6056166056166056, -2.3833943833943834, 2.25, -0.34375, -0.125, 1.0
645, -1.435897435897436, -0.7057387057387058, -2.2954822954822953, 2.0, -0.4375, 0.0, 1.0
646, -2.021978021978022, 0.38217338217338215, -2.6910866910866913, 2.0625, -0.4375, 0.09375, 1.0
647, -2.017094017094017, 0.6141636141636142, -3.128205128205128, 2.09375, -0.3125, 0.25, 1.0
648, -1.1953601953601953, 0.18315018315018314, -3.5238095238095237, 1.875, -0.25, 0.40625, 1.0
649, 0.23809523809523808, 0.4297924297924298, -3.686202686202686, 1.5, -0.375, 0.5, 1.0
650, 0.21123321123321123, 0.7045177045177046, -4.498168498168498, 1.3125, -0.5, 0.625, 1.0
651, 0.004884004884004884, -0.031746031746031744, -4.3418803418803416, 1.15625, -0.375, 0.71875, 1.0
652, 0.3028083028083028, -0.004884004884004884, -3.4285714285714284, 1.0, -0.125, 0.71875, 1.0
653, 1.2185592185592184, 0.11721611721611722, -2.8180708180708183, 0.8125, 0.0, 0.78125, 1.0
654, 2.4383394383394386, 0.12087912087912088, -2.293040293040293, 0.59375, -0.125, 0.84375, 1.0
655, 2.374847374847375, 0.41147741147741146, -2.305250305250305, 0.5, -0.34375, 0.78125, 1.0
656, 1.873015873015873, 0.32844932844932845, -2.761904761904762, 0.625, -0.28125, 0.6875, 1.0
657, 1.8278388278388278, -0.08424908424908426, -2.905982905982906, 0.5625, 0.0, 0.59375, 1.0
658, 2.4542124542124544, -0.07326007326007326, -2.324786324786325, 0.3125, 0.09375, 0.5625, 1.0
659, 2.7606837606837606, 0.0, -1.57997557997558, 0.0625, 0.0, 0.53125, 1.0
660, 2.4175824175824174, 0.009768009768009768, -1.2148962148962148, 0.0, -0.09375, 0.46875, 1.0
661, 2.3968253968253967, -0.25396825396825395, -1.0195360195360195, 0.03125, 0.0, 0.375, 1.0
662, 2.1575091575091574, -0.4163614163614164, -0.8266178266178266, 0.0, 0.0625, 0.25, 1.0
663, 2.1941391941391943, -0.3247863247863248, -0.4652014652014652, 0.0, 0.09375, 0.1875, 1.0
664, 1.9804639804639805, -0.2771672771672772, -0.3785103785103785, -0.03125, 0.0625, 0.09375, 1.0
665, 1.652014652014652, -0.10989010989010989, -0.2515262515262515, -0.03125, 0.0, 0.0625, 1.0
666, 0.9731379731379731, -0.0463980463980464, -0.3516483516483517, 0.0, 0.0, 0.03125, 1.0
667, 0.6068376068376068, -0.18315018315018314, -0.2600732600732601, 0.0, 0.0625, 0.0, 1.0
668, 0.4139194139194139, -0.20757020757020758, -0.11355311355311355, -0.03125, 0.09375, 0.0, 1.0
669, 0.11843711843711843, -0.14652014652014653, -0.07814407814407814, -0.03125, 0.15625, 0.0, 1.0
670, -0.014652014652014652, -0.02442002442002442, 0.029304029304029304, -0.0625, 0.09375, 0.0, 1.0
671, -0.10012210012210013, 0.12576312576312576, 0.199023199023199, -0.03125, 0.0625, 0.0, 1.0
672, -0.052503052503052504, 0.0695970695970696, 0.17582417582417584, 0.0, 0.0625, 0.0, 1.0
673, 0.05128205128205128, -0.11965811965811966, 0.050061050061050064, 0.0, 0.03125, 0.0, 1.0
674, 0.15018315018315018, -0.13797313797313798, -0.13064713064713065, 0.03125, -0.03125, 0.0, 1.0
675, -0.05372405372405373, 0.045177045177045176, -0.06349206349206349, 0.03125, -0.03125, 0.0, 1.0
676, 0.017094017094017096, -0.015873015873015872, -0.08547008547008547, 0.03125, 0.0, 0.0, 1.0
677, 0.0695970695970696, -0.047619047619047616, -0.13797313797313798, 0.0, 0.0, 0.0, 1.0
678, 0.01221001221001221, -0.08058608058608059, -0.2698412698412698, -0.03125, 0.0, -0.03125, 1.0
679, -0.14652014652014653, -0.10012210012210013, -0.5457875457875457, -0.21875, 0.09375, 0.0, 0.0
680, 0.5409035409035409, -0.3833943833943834, -0.2954822954822955, -0.25, 0.1875, 0.0, 0.0
681, 0.08669108669108669, 0.3431013431013431, 0.14774114774114774, -0.28125, 0.03125, 0.0, 0.0
682, -0.030525030525030524, 0.3711843711843712, 0.13553113553113552, -0.0625, 0.0, 0.0, 0.0
683, 0.031746031746031744, -0.08547008547008547, -0.2905982905982906, 0.03125, 0.03125, 0.0, 0.0
684, 0.0757020757020757, -0.18681318681318682, -0.4542124542124542, -0.03125, 0.125, 0.0, 0.0
685, 0.07203907203907203, -0.02442002442002442, -0.2869352869352869, -0.09375, 0.15625, -0.03125, 0.0
686, 0.050061050061050064, 0.03540903540903541, -0.12332112332112333, -0.0625, 0.0625, 0.0, 0.0
687, -0.05128205128205128, 0.17704517704517705, -0.06105006105006105, 0.0, 0.03125, 0.03125, 0.0
688, 0.026862026862026864, 0.013431013431013432, -0.1282051282051282, 0.03125, 0.03125, 0.0, 0.0
689, -0.03663003663003663, -0.028083028083028084, -0.15873015873015872, 0.0, 0.09375, 0.0, 0.0
690, 0.028083028083028084, -0.08791208791208792, -0.21367521367521367, -0.03125, 0.125, 0.0, 0.0
691, -0.002442002442002442, 0.007326007326007326, -0.05616605616605617, 0.0, 0.09375, 0.0, 0.0
692, 0.0, -0.01221001221001221, -0.08791208791208792, 0.0, 0.0625, 0.0, 0.0
693, -0.06593406593406594, 0.07814407814407814, 0.019536019536019536, 0.0, 0.0625, 0.0, 0.0
694, -0.01098901098901099, 0.01221001221001221, -0.02564102564102564, 0.0, 0.0625, 0.0, 0.0
695, 0.040293040293040296, -0.02442002442002442, -0.030525030525030524, 0.0, 0.0625, 0.0, 0.0
696, 0.029304029304029304, -0.08180708180708181, -0.1684981684981685, -0.0625, 0.0, -0.03125, 0.0
697, -0.052503052503052504, 0.057387057387057384, -0.06593406593406594, -0.03125, 0.0, -0.03125, 0.0
698, -0.2271062271062271, 0.24786324786324787, 0.03663003663003663, 0.0, -0.03125, -0.03125, 0.0
699, -0.03785103785103785, -0.01221001221001221, -0.14896214896214896, 0.09375, 0.0, -0.03125, 0.0
700, -0.04151404151404151, -0.028083028083028084, -0.23565323565323565, 0.0625, 0.03125, -0.03125, 0.0
701, 0.19536019536019536, -0.19047619047619047, -0.27228327228327226, 0.0, 0.03125, -0.03125, 0.0
702, -0.026862026862026864, 0.09401709401709402, -0.1575091575091575, -0.0625, 0.0, 0.0, 0.0
703, -0.006105006105006105, 0.057387057387057384, -0.11477411477411477, -0.03125, 0.0, 0.0, 0.0
704, -0.007326007326007326, 0.031746031746031744, 0.004884004884004884, 0.0, 0.03125, 0.0, 0.0
705, 0.22832722832722832, -0.18803418803418803, -0.10012210012210013, 0.03125, 0.03125, 0.0, 0.0
706, -0.003663003663003663, -0.013431013431013432, -0.10744810744810745, 0.0, 0.0, 0.0, 0.0
707, 0.11843711843711843, -0.0989010989010989, -0.1623931623931624, 0.0, 0.0, 0.0, 0.0
708, 0.0, 0.028083028083028084, -0.06349206349206349, -0.0625, 0.03125, 0.0, 0.0
709, 0.013431013431013432, -0.0231990231990232, -0.029304029304029304, 0.0, 0.0625, 0.0, 0.0
710, 0.14041514041514042, 0.009768009768009768, 0.08424908424908426, 0.0, 0.0, 0.0, 0.0
711, -0.002442002442002442, 0.03540903540903541, 0.09157509157509157, 0.03125, 0.0, 0.0, 0.0
712, 0.0231990231990232, -0.031746031746031744, -0.09768009768009768, 0.0, 0.0, 0.0, 0.0
713, -0.015873015873015872, -0.09157509157509157, -0.27594627594627597, 0.0, 0.03125, 0.0, 0.0
714, -0.031746031746031744, -0.03907203907203907, -0.22832722832722832, -0.0625, 0.03125, -0.03125, 0.0
715, -0.1343101343101343, 0.1111111111111111, -0.16483516483516483, -0.03125, 0.0625, 0.0, 0.0
716, -0.05982905982905983, 0.14774114774114774, 0.10012210012210013, 0.0, 0.0625, 0.0, 0.0
717, -0.13064713064713065, 0.052503052503052504, -0.007326007326007326, 0.0, 0.0625, 0.0, 0.0
718, -0.06105006105006105, 0.14041514041514042, 0.14652014652014653, 0.03125, 0.0625, 0.0, 0.0
719, -0.02197802197802198, 0.06837606837606838, 0.12087912087912088, 0.03125, 0.09375, 0.0, 0.0
720, -0.007326007326007326, 0.04884004884004884, 0.115995115995116, 0.03125, 0.09375, 0.03125, 0.0
721, 0.1330891330891331, 0.009768009768009768, 0.013431013431013432, 0.03125, 0.03125, 0.03125, 0.0
722, 0.09035409035409035, -0.030525030525030524, -0.14041514041514042, 0.0625, 0.0, 0.03125, 0.0
723, 0.1111111111111111, -0.1343101343101343, -0.33577533577533575, 0.0625, 0.0, 0.03125, 0.0
724, 0.042735042735042736, -0.01098901098901099, -0.3528693528693529, 0.0, 0.0, 0.03125, 0.0
725, -0.004884004884004884, 0.07692307692307693, -0.2026862026862027, 0.0, 0.0, 0.0, 0.0
726, 0.07081807081807082, -0.008547008547008548, -0.18437118437118438, 0.0, 0.03125, 0.0, 0.0
727, 0.09035409035409035, -0.06227106227106227, -0.221001221001221, 0.0, 0.03125, 0.0, 0.0
728, 0.08424908424908426, -0.07936507936507936, -0.28815628815628813, 0.0, 0.03125, 0.0, 0.0
729, 0.19413919413919414, -0.10622710622710622, -0.24786324786324787, 0.0, 0.03125, 0.0, 0.0
730, 0.11233211233211234, -0.05128205128205128, -0.17216117216117216, -0.0625, 0.0, 0.0, 0.0
731, -0.03785103785103785, 0.026862026862026864, -0.1855921855921856, -0.03125, 0.0, -0.03125, 0.0
732, 0.03907203907203907, -0.03296703296703297, -0.26373626373626374, 0.0, 0.0, -0.0625, 0.0
733, -0.006105006105006105, -0.008547008547008548, -0.24297924297924298, 0.0, 0.0, -0.0625, 0.0
734, -0.0695970695970696, -0.007326007326007326, -0.23076923076923078, -0.03125, 0.0625, -0.0625, 0.0
735, 0.029304029304029304, -0.029304029304029304, -0.16483516483516483, -0.0625, 0.0, -0.0625, 0.0
736, -0.08547008547008547, 0.14652014652014653, 0.007326007326007326, 0.0, 0.0, -0.0625, 0.0
737, -0.06715506715506715, 0.07936507936507936, -0.026862026862026864, 0.03125, -0.03125, -0.0625, 0.0
738, -0.2222222222222222, -0.05372405372405373, -0.17704517704517705, 0.0, 0.0, -0.03125, 0.0
739, -0.052503052503052504, -0.1330891330891331, -0.24786324786324787, -0.0625, 0.0625, -0.03125, 0.0
740, -0.05372405372405373, -0.09035409035409035, -0.21611721611721613, -0.09375, 0.0625, 0.0, 0.0
741, 0.11477411477411477, 0.0, -0.004884004884004884, -0.0625, -0.03125, 0.0, 0.0
742, -0.12332112332112333, 0.10622710622710622, 0.029304029304029304, -0.03125, 0.0, 0.0, 0.0
743, -0.018315018315018316, 0.08791208791208792, 0.16605616605616605, 0.0, 0.0, 0.0, 0.0
744, 0.04395604395604396, -0.01221001221001221, -0.002442002442002442, 0.0, 0.03125, 0.0, 0.0
745, 0.1514041514041514, -0.040293040293040296, 0.030525030525030524, 0.0, 0.0, 0.0, 0.0
746, -0.01098901098901099, 0.014652014652014652, -0.047619047619047616, 0.0, -0.0625, 0.0, 0.0
747, 0.050061050061050064, -0.03418803418803419, -0.1855921855921856, 0.0, -0.03125, 0.0, 0.0
748, 0.04395604395604396, -0.02197802197802198, -0.18681318681318682, -0.03125, 0.0, 0.0, 0.0
749, -0.01098901098901099, -0.029304029304029304, -0.21367521367521367, -0.0625, 0.0, -0.03125, 0.0
750, 0.045177045177045176, -0.013431013431013432, -0.1575091575091575, -0.09375, 0.09375, -0.03125, 0.0
751, 0.1623931623931624, -0.02442002442002442, -0.08180708180708181, -0.03125, 0.0625, -0.03125, 0.0
752, 0.11721611721611722, -0.08180708180708181, -0.20512820512820512, -0.0625, 0.03125, -0.03125, 0.0
753, -0.003663003663003663, -0.10012210012210013, -0.3443223443223443, -0.15625, 0.03125, 0.0, 0.0
754, 0.08424908424908426, 0.12576312576312576, -0.10866910866910867, -0.15625, 0.03125, 0.0, 0.0
755, -0.0927960927960928, 0.047619047619047616, -0.15262515262515264, -0.0625, 0.03125, 0.0, 0.0
756, 0.03540903540903541, -0.03663003663003663, -0.07814407814407814, 0.0, 0.03125, 0.0, 0.0
757, 0.1562881562881563, -0.002442002442002442, 0.1514041514041514, 0.0, -0.03125, 0.0, 0.0
758, -0.1916971916971917, 0.0757020757020757, 0.16361416361416362, 0.0, 0.0, 0.0, 0.0
759, -0.14163614163614163, 0.05128205128205128, 0.15506715506715507, 0.0, 0.0, 0.0, 0.0
760, -0.05128205128205128, 0.004884004884004884, 0.11843711843711843, 0.0, 0.0, 0.0, 0.0
761, -0.03907203907203907, 0.03296703296703297, 0.07692307692307693, 0.0, 0.0, 0.0, 0.0
762, 0.04395604395604396, -0.003663003663003663, 0.013431013431013432, 0.0, 0.0, 0.0, 0.0
763, 0.003663003663003663, 0.018315018315018316, 0.01221001221001221, 0.0, 0.0, 0.0, 0.0
764, 0.007326007326007326, 0.03663003663003663, -0.05860805860805861, 0.0, 0.03125, 0.0, 0.0
765, -0.006105006105006105, 0.029304029304029304, 0.017094017094017096, 0.03125, 0.03125, 0.0, 0.0
766, 0.06349206349206349, 0.013431013431013432, -0.07936507936507936, 0.03125, 0.0, 0.0, 0.0
767, 0.002442002442002442, 0.026862026862026864, -0.17582417582417584, 0.0, 0.0, 0.0, 0.0
768, 0.10378510378510379, 0.08302808302808302, -0.17094017094017094, 0.0, 0.0, 0.0, 0.0
769, -0.1330891330891331, 0.11843711843711843, -0.1978021978021978, 0.03125, 0.0, 0.0, 0.0
770, 0.07692307692307693, 0.008547008547008548, -0.14407814407814407, 0.0625, 0.0625, 0.0, 0.0
771, 0.09035409035409035, -0.06715506715506715, -0.221001221001221, 0.0, 0.03125, 0.0, 0.0
772, 0.02564102564102564, -0.002442002442002442, -0.21855921855921856, -0.03125, 0.0, 0.0, 0.0
773, -0.03418803418803419, 0.06715506715506715, -0.03663003663003663, -0.0625, 0.0, 0.0, 0.0
774, -0.05372405372405373, 0.1343101343101343, 0.14407814407814407, 0.0, -0.0625, 0.0, 0.0
775, -0.014652014652014652, -0.03540903540903541, -0.029304029304029304, 0.09375, 0.0, 0.0, 0.0
776, 0.05372405372405373, -0.05128205128205128, -0.12576312576312576, 0.0625, 0.03125, 0.0, 0.0
777, 0.12087912087912088, -0.07203907203907203, -0.19413919413919414, 0.0, 0.03125, 0.0, 0.0
778, -0.07203907203907203, 0.06471306471306472, -0.050061050061050064, -0.03125, 0.0, 0.0, 0.0
779, 0.019536019536019536, 0.11843711843711843, 0.14041514041514042, 0.0625, -0.0625, 0.0, 0.0
780, 0.03907203907203907, -0.03907203907203907, -0.11721611721611722, 0.09375, 0.0, 0.0, 0.0
781, 0.013431013431013432, -0.017094017094017096, -0.12332112332112333, 0.0625, 0.0, 0.0, 0.0
782, 0.05128205128205128, -0.007326007326007326, -0.13675213675213677, 0.03125, -0.03125, 0.0, 0.0
783, 0.03663003663003663, 0.07448107448107448, 0.09157509157509157, 0.03125, -0.0625, 0.0, 0.0
784, -0.22954822954822954, 0.15384615384615385, 0.1623931623931624, 0.09375, -0.03125, 0.03125, 1.0
785, -0.23076923076923078, 0.04395604395604396, 0.2442002442002442, 0.09375, 0.0, 0.03125, 1.0
786, -0.1343101343101343, -0.06227106227106227, 0.221001221001221, 0.21875, 0.0, 0.0625, 1.0
787, -0.4932844932844933, 0.15995115995115994, 0.21978021978021978, 0.28125, 0.03125, 0.09375, 1.0
788, -0.645909645909646, 0.11965811965811966, 0.13186813186813187, 0.375, 0.1875, 0.125, 1.0
789, -0.442002442002442, -0.2222222222222222, 0.020757020757020756, 0.34375, 0.25, 0.125, 1.0
790, -0.8778998778998779, -0.37484737484737485, -0.14285714285714285, 0.15625, 0.0625, 0.21875, 1.0
791, -3.752136752136752, 1.3882783882783882, -0.004884004884004884, 0.3125, -0.03125, 0.40625, 1.0
792, -4.431013431013431, 1.652014652014652, 0.24297924297924298, 0.53125, 0.15625, 0.65625, 1.0
793, -5.079365079365079, 1.8510378510378511, 0.019536019536019536, 0.6875, 0.28125, 0.96875, 1.0
794, -5.147741147741148, 1.4444444444444444, -0.8620268620268621, 0.71875, 0.25, 1.3125, 1.0
795, -5.621489621489621, 1.8974358974358974, -1.8192918192918193, 0.5, 0.0625, 1.65625, 1.0
796, -5.484737484737485, 2.0854700854700856, -2.8363858363858365, 0.34375, 0.0, 2.0, 1.0
797, -4.438339438339439, 1.586080586080586, -3.934065934065934, 0.1875, 0.03125, 2.28125, 1.0
798, -3.221001221001221, 1.4676434676434675, -5.2063492063492065, -0.09375, -0.03125, 2.53125, 1.0
799, -1.6837606837606838, 0.9865689865689866, -7.045177045177045, -0.3125, -0.0625, 2.71875, 1.0
800, 0.43956043956043955, -0.3968253968253968, -9.00976800976801, -0.53125, -0.1875, 2.84375, 1.0
801, 2.1709401709401708, -2.2515262515262515, -10.727716727716727, -0.9375, -0.25, 2.84375, 1.0
802, 3.935286935286935, -4.04029304029304, -11.461538461538462, -1.78125, 0.0625, 2.5, 1.0
803, 5.728937728937729, -5.461538461538462, -10.894993894993895, -2.40625, 0.25, 2.21875, 1.0
804, 6.997557997557998, -6.1953601953601956, -9.185592185592185, -2.84375, 0.40625, 1.90625, 1.0
805, 6.91941391941392, -6.676434676434677, -7.476190476190476, -3.0, 0.6875, 1.5625, 1.0
806, 7.235653235653236, -7.897435897435898, -5.411477411477412, -3.21875, 0.875, 1.21875, 1.0
807, 6.932844932844933, -8.36874236874237, -3.2246642246642248, -3.375, 1.0, 0.875, 1.0
808, 6.500610500610501, -8.487179487179487, -1.308913308913309, -3.34375, 1.15625, 0.53125, 1.0
809, 6.03052503052503, -8.69108669108669, 0.32234432234432236, -3.0625, 1.34375, 0.15625, 1.0
810, 4.096459096459096, -8.362637362637363, 1.1562881562881564, -2.65625, 1.59375, -0.125, 1.0
811, 3.763125763125763, -8.634920634920634, 2.3076923076923075, -2.40625, 1.78125, -0.375, 1.0
812, 3.3882783882783882, -8.743589743589743, 3.6166056166056166, -2.25, 1.75, -0.65625, 1.0
813, 2.768009768009768, -9.15995115995116, 4.483516483516484, -2.125, 1.9375, -1.0, 1.0
814, 2.133089133089133, -8.903540903540904, 7.384615384615385, -1.78125, 2.15625, -1.59375, 1.0
815, 1.3882783882783882, -8.406593406593407, 8.446886446886447, -1.3125, 2.15625, -1.9375, 1.0
816, 0.8412698412698413, -8.164835164835164, 9.112332112332112, -0.75, 2.125, -2.375, 1.0
817, 0.07448107448107448, -7.829059829059829, 9.118437118437118, -0.21875, 1.90625, -2.75, 1.0
818, -1.6483516483516483, -6.78998778998779, 8.61050061050061, 0.28125, 1.53125, -3.03125, 1.0
819, -3.2783882783882783, -5.559218559218559, 7.913308913308914, 0.8125, 1.34375, -3.15625, 1.0
820, -3.473748473748474, -5.213675213675214, 7.454212454212454, 1.375, 1.25, -3.125, 1.0
821, -4.819291819291819, -4.256410256410256, 6.327228327228327, 1.65625, 0.84375, -3.0625, 1.0
822, -5.5677655677655675, -3.501831501831502, 5.183150183150183, 1.96875, 0.5625, -2.875, 1.0
823, -5.750915750915751, -2.6117216117216118, 4.571428571428571, 2.15625, 0.5, -2.65625, 1.0
824, -4.190476190476191, -2.5763125763125765, 4.84004884004884, 2.28125, 0.375, -2.34375, 1.0
825, -6.2234432234432235, -0.6532356532356532, 3.509157509157509, 2.75, -0.03125, -2.03125, 1.0
826, -7.73015873015873, 0.5836385836385837, 1.0903540903540903, 3.25, -0.0625, -1.4375, 1.0
827, -7.09035409035409, -0.15262515262515264, -0.4456654456654457, 3.125, -0.0625, -0.90625, 1.0
828, -4.6581196581196584, -0.8083028083028083, -0.6105006105006106, 2.6875, -0.125, -0.53125, 1.0
829, -4.410256410256411, -0.15018315018315018, -1.8852258852258852, 2.59375, -0.375, -0.21875, 1.0
830, -4.0476190476190474, 0.04395604395604396, -2.913308913308913, 2.6875, -0.375, 0.09375, 1.0
831, -2.896214896214896, -1.0586080586080586, -3.271062271062271, 2.5, -0.25, 0.28125, 1.0
832, -1.3418803418803418, -1.3052503052503053, -2.896214896214896, 2.15625, -0.25, 0.34375, 1.0
833, -1.037851037851038, -0.21733821733821734, -3.758241758241758, 2.125, -0.375, 0.46875, 1.0
834, -0.5934065934065934, -0.315018315018315, -4.671550671550672, 1.9375, -0.40625, 0.53125, 1.0
835, -0.10012210012210013, -0.43101343101343104, -4.875457875457876, 1.65625, -0.4375, 0.5625, 1.0
836, -0.06471306471306472, -0.34554334554334554, -4.892551892551893, 1.40625, -0.40625, 0.59375, 1.0
837, 0.5079365079365079, 0.6349206349206349, -4.302808302808303, 1.1875, -0.09375, 0.6875, 1.0
838, 1.1721611721611722, 1.0097680097680097, -4.35042735042735, 1.125, -0.0625, 0.75, 1.0
839, 1.3675213675213675, 0.5714285714285714, -4.627594627594628, 0.84375, -0.125, 0.8125, 1.0
840, 1.2332112332112333, 0.23321123321123322, -4.566544566544566, 0.4375, -0.21875, 0.84375, 1.0
841, 0.4603174603174603, 0.6312576312576312, -3.711843711843712, 0.09375, -0.1875, 0.875, 1.0
842, 1.3308913308913308, 0.6288156288156288, -2.0842490842490844, 0.0, 0.0625, 0.9375, 1.0
843, 2.0793650793650795, 0.38705738705738707, -1.0708180708180708, 0.0, 0.0, 0.9375, 1.0
844, 2.208791208791209, 0.08302808302808302, -0.8766788766788767, 0.0625, -0.0625, 0.875, 1.0
845, 2.5128205128205128, -0.6214896214896215, -1.021978021978022, 0.125, -0.0625, 0.75, 1.0
846, 2.3382173382173383, -0.8937728937728938, -0.9975579975579976, 0.0, -0.15625, 0.59375, 1.0
847, 2.357753357753358, -0.833943833943834, -0.5592185592185592, -0.0625, -0.0625, 0.46875, 1.0
848, 2.5323565323565322, -0.7338217338217338, -0.12332112332112333, 0.0, 0.0, 0.34375, 1.0
849, 1.9633699633699633, -0.4481074481074481, -0.25396825396825395, 0.15625, 0.125, 0.125, 1.0
850, 1.7704517704517704, -0.36996336996337, -0.3772893772893773, 0.21875, 0.15625, 0.03125, 1.0
851, 1.4566544566544566, -0.514041514041514, -0.5946275946275946, 0.0625, 0.0625, 0.0, 1.0
852, 0.8021978021978022, -0.12942612942612944, -0.5665445665445665, -0.0625, 0.03125, 0.0, 1.0
853, 0.32234432234432236, 0.2454212454212454, -0.28205128205128205, -0.0625, 0.09375, 0.03125, 1.0
854, 0.3711843711843712, 0.23321123321123322, -0.047619047619047616, 0.0, 0.15625, 0.03125, 1.0
855, 0.17094017094017094, 0.03907203907203907, -0.057387057387057384, 0.03125, 0.1875, 0.0, 1.0
856, 0.1514041514041514, -0.29181929181929184, -0.29304029304029305, 0.0, 0.15625, 0.0, 1.0
857, 0.09401709401709402, -0.3052503052503053, -0.31746031746031744, -0.125, 0.125, 0.0, 1.0
858, -0.11965811965811966, -0.3076923076923077, -0.3492063492063492, -0.28125, 0.1875, -0.03125, 1.0
859, 0.031746031746031744, -0.20024420024420025, -0.1282051282051282, -0.375, 0.1875, 0.0, 0.0
860, -0.04395604395604396, -0.040293040293040296, -0.006105006105006105, -0.28125, 0.1875, 0.0, 0.0
861, -0.2564102564102564, 0.1111111111111111, 0.1111111111111111, -0.28125, 0.21875, 0.0, 0.0
862, -0.08302808302808302, 0.14285714285714285, 0.2503052503052503, -0.125, 0.25, 0.0, 0.0
863, 0.002442002442002442, 0.17704517704517705, 0.34065934065934067, 0.0, 0.125, -0.03125, 0.0
864, -0.05616605616605617, 0.05860805860805861, 0.12454212454212454, 0.09375, 0.0625, 0.0, 0.0
865, 0.028083028083028084, -0.10500610500610501, -0.09157509157509157, 0.125, 0.03125, 0.0, 0.0
866, 0.0463980463980464, -0.11843711843711843, -0.21001221001221002, 0.03125, 0.03125, 0.0, 0.0
867, 0.013431013431013432, -0.11355311355311355, -0.35653235653235654, 0.0, 0.0625, 0.0, 0.0
868, -0.013431013431013432, -0.02564102564102564, -0.22954822954822954, -0.03125, 0.09375, 0.0, 0.0
869, -0.01098901098901099, -0.004884004884004884, -0.12942612942612944, 0.0, 0.125, 0.0, 0.0
870, 0.1452991452991453, -0.09157509157509157, -0.004884004884004884, 0.0, 0.15625, 0.0, 0.0
871, 0.15262515262515264, 0.006105006105006105, 0.03540903540903541, 0.03125, 0.125, 0.0, 0.0
872, -0.020757020757020756, 0.03296703296703297, -0.09157509157509157, 0.0, 0.09375, 0.0, 0.0
873, 0.001221001221001221, -0.03296703296703297, -0.23076923076923078, -0.0625, 0.09375, 0.0, 0.0
874, 0.003663003663003663, -0.018315018315018316, -0.18803418803418803, -0.125, 0.0625, 0.0, 0.0
875, 0.009768009768009768, 0.16117216117216118, 0.04884004884004884, -0.03125, 0.0, 0.0, 0.0
876, -0.07936507936507936, 0.19536019536019536, 0.04151404151404151, 0.0625, 0.0, 0.0, 0.0
877, -0.015873015873015872, 0.002442002442002442, -0.1221001221001221, 0.0625, 0.0, 0.0, 0.0
878, -0.026862026862026864, -0.05128205128205128, -0.21123321123321123, 0.0, 0.0625, -0.03125, 0.0
879, 0.047619047619047616, -0.11355311355311355, -0.21611721611721613, -0.0625, 0.03125, 0.0, 0.0
880, 0.02564102564102564, -0.04884004884004884, -0.15018315018315018, -0.09375, 0.0, 0.0, 0.0
881, 0.10378510378510379, 0.16727716727716727, 0.05372405372405373, -0.03125, -0.03125, 0.0, 0.0
882, -0.12087912087912088, 0.1514041514041514, -0.057387057387057384, 0.0, 0.0, 0.0, 0.0
883, 0.052503052503052504, -0.006105006105006105, -0.08058608058608059, 0.0, 0.03125, 0.0, 0.0
884, 0.32234432234432236, -0.09523809523809523, 0.004884004884004884, -0.0625, 0.0, -0.03125, 0.0
885, 0.057387057387057384, 0.018315018315018316, -0.10500610500610501, -0.03125, -0.03125, -0.03125, 0.0
886, 0.05616605616605617, -0.01221001221001221, -0.0989010989010989, 0.0, 0.0, -0.03125, 0.0
887, 0.08913308913308914, -0.1111111111111111, -0.21733821733821734, 0.0, 0.03125, -0.03125, 0.0
888, 0.14285714285714285, 0.0, -0.0989010989010989, -0.03125, 0.0, -0.03125, 0.0
889, -0.04884004884004884, 0.0463980463980464, -0.13797313797313798, -0.0625, -0.0625, -0.0625, 0.0
890, -0.21123321123321123, 0.10012210012210013, -0.10989010989010989, 0.0, -0.03125, -0.0625, 0.0
891, 0.017094017094017096, 0.013431013431013432, -0.026862026862026864, 0.03125, 0.03125, -0.03125, 0.0
892, 0.06349206349206349, -0.06593406593406594, -0.008547008547008548, 0.0, 0.03125, -0.03125, 0.0
893, -0.009768009768009768, 0.028083028083028084, 0.057387057387057384, 0.0, -0.03125, -0.0625, 0.0
894, -0.25274725274725274, 0.08302808302808302, -0.04395604395604396, 0.0, -0.0625, -0.03125, 0.0
895, -0.07814407814407814, -0.003663003663003663, 0.002442002442002442, 0.09375, 0.0, 0.0, 0.0
896, -0.08547008547008547, 0.09401709401709402, 0.20512820512820512, 0.21875, 0.0, -0.03125, 0.0
897, -0.06715506715506715, -0.21245421245421245, 0.028083028083028084, 0.125, 0.03125, -0.03125, 1.0
898, -0.0463980463980464, -0.47863247863247865, -0.10012210012210013, 0.0, 0.15625, 0.0, 1.0
899, 0.001221001221001221, -0.05982905982905983, 0.1575091575091575, 0.03125, 0.125, -0.03125, 1.0
900, -0.9499389499389499, 0.3626373626373626, 0.16971916971916973, 0.1875, 0.0625, 0.0, 1.0
901, -1.26007326007326, 0.7167277167277167, 0.5164835164835165, 0.4375, 0.09375, 0.0625, 1.0
902, -1.6263736263736264, 0.6703296703296703, 0.5091575091575091, 0.53125, 0.1875, 0.15625, 1.0
903, -1.557997557997558, 0.03296703296703297, 0.09523809523809523, 0.34375, 0.09375, 0.25, 1.0
904, -2.3785103785103785, 0.4554334554334554, -0.14407814407814407, 0.15625, -0.0625, 0.375, 1.0
905, -3.2686202686202686, 1.3467643467643469, 0.015873015873015872, 0.28125, -0.125, 0.53125, 1.0
906, -4.115995115995116, 1.8876678876678876, -0.33577533577533575, 0.4375, -0.03125, 0.71875, 1.0
907, -4.091575091575091, 1.8962148962148961, -1.192918192918193, 0.65625, 0.03125, 1.15625, 1.0
908, -4.351648351648351, 1.8876678876678876, -2.457875457875458, 0.4375, -0.15625, 1.40625, 1.0
909, -4.102564102564102, 1.8974358974358974, -3.675213675213675, 0.125, -0.25, 1.6875, 1.0
910, -3.8107448107448105, 1.956043956043956, -4.446886446886447, -0.09375, -0.34375, 1.96875, 1.0
911, -3.137973137973138, 1.6105006105006106, -5.396825396825397, -0.28125, -0.3125, 2.1875, 1.0
912, -2.0488400488400487, 1.164835164835165, -6.663003663003663, -0.4375, -0.21875, 2.375, 1.0
913, -0.5323565323565324, 0.05860805860805861, -7.99023199023199, -0.65625, -0.34375, 2.5625, 1.0
914, 0.7557997557997558, -1.2612942612942613, -8.886446886446887, -1.0625, -0.40625, 2.65625, 1.0
915, 2.199023199023199, -2.083028083028083, -9.271062271062272, -1.46875, -0.25, 2.625, 1.0
916, 3.498168498168498, -3.1001221001221, -9.473748473748474, -1.71875, -0.09375, 2.5625, 1.0
917, 5.417582417582418, -4.857142857142857, -9.336996336996338, -2.0625, 0.09375, 2.46875, 1.0
918, 6.601953601953602, -6.490842490842491, -8.5995115995116, -2.59375, 0.46875, 2.0, 1.0
919, 7.686202686202686, -8.555555555555555, -7.247863247863248, -3.03125, 0.96875, 1.5625, 1.0
920, 8.039072039072039, -9.374847374847375, -5.074481074481074, -3.34375, 1.34375, 1.09375, 1.0
921, 8.247863247863247, -9.448107448107448, -2.608058608058608, -3.3125, 1.53125, 0.59375, 1.0
922, 7.601953601953602, -9.764346764346765, -0.8058608058608059, -3.125, 1.71875, 0.125, 1.0
923, 6.948717948717949, -10.512820512820513, 0.7081807081807082, -2.9375, 1.96875, -0.375, 1.0
924, 5.877899877899878, -10.744810744810744, 2.111111111111111, -2.75, 2.3125, -0.9375, 1.0
925, 4.843711843711843, -10.572649572649572, 3.791208791208791, -2.5, 2.5, -1.4375, 1.0
926, 4.004884004884005, -10.134310134310134, 5.545787545787546, -2.1875, 2.40625, -1.90625, 1.0
927, 2.6727716727716726, -9.920634920634921, 6.896214896214897, -1.8125, 2.1875, -2.3125, 1.0
928, 1.3467643467643469, -9.081807081807082, 8.175824175824175, -1.3125, 1.90625, -2.65625, 1.0
929, -0.6263736263736264, -7.896214896214897, 8.774114774114775, -0.59375, 1.78125, -2.875, 1.0
930, -3.3028083028083026, -6.781440781440781, 8.277167277167278, 0.375, 1.65625, -2.96875, 1.0
931, -3.675213675213675, -5.735042735042735, 7.51037851037851, 0.71875, 1.3125, -2.90625, 1.0
932, -4.4493284493284495, -5.124542124542124, 6.9462759462759465, 0.8125, 0.96875, -2.78125, 1.0
933, -4.9181929181929185, -3.7032967032967035, 6.500610500610501, 1.03125, 0.84375, -2.71875, 1.0
934, -5.527472527472527, -2.761904761904762, 5.652014652014652, 1.53125, 0.84375, -2.5, 1.0
935, -5.485958485958486, -2.5006105006105006, 4.702075702075702, 1.96875, 0.8125, -2.1875, 1.0
936, -4.7765567765567765, -2.606837606837607, 4.2686202686202686, 2.09375, 0.5, -1.84375, 1.0
937, -5.786324786324786, -1.4761904761904763, 3.202686202686203, 2.125, 0.21875, -1.625, 1.0
938, -5.897435897435898, -1.0244200244200243, 1.7619047619047619, 2.4375, 0.25, -1.34375, 1.0
939, -5.295482295482295, -1.1343101343101343, 1.3015873015873016, 2.5625, 0.1875, -1.0, 1.0
940, -3.755799755799756, -1.4725274725274726, 0.927960927960928, 2.46875, 0.0, -0.6875, 1.0
941, -4.6923076923076925, -0.4358974358974359, -0.5934065934065934, 2.46875, -0.375, -0.4375, 1.0
942, -3.9536019536019538, -0.5958485958485958, -1.6092796092796093, 2.5625, -0.375, -0.0625, 1.0
943, -2.636141636141636, -1.3076923076923077, -1.7362637362637363, 2.375, -0.34375, 0.03125, 1.0
944, -3.0976800976800978, -0.12942612942612944, -2.4822954822954824, 2.3125, -0.40625, 0.21875, 1.0
945, -2.1135531135531136, 0.20024420024420025, -3.4786324786324787, 2.25, -0.53125, 0.4375, 1.0
946, -1.9230769230769231, 0.3199023199023199, -4.478632478632479, 2.03125, -0.4375, 0.59375, 1.0
947, -1.2735042735042734, 0.39316239316239315, -4.993894993894994, 1.75, -0.34375, 0.71875, 1.0
948, -0.9462759462759462, 1.1855921855921856, -5.201465201465202, 1.625, -0.25, 0.9375, 1.0
949, -0.3431013431013431, 0.7741147741147741, -5.704517704517705, 1.40625, -0.15625, 1.125, 1.0
950, 1.304029304029304, 0.5897435897435898, -5.4212454212454215, 1.09375, -0.21875, 1.1875, 1.0
951, 1.9926739926739927, 0.32722832722832723, -5.2625152625152625, 0.8125, -0.15625, 1.15625, 1.0
952, 2.293040293040293, 0.1746031746031746, -4.744810744810745, 0.53125, -0.09375, 1.09375, 1.0
953, 2.4554334554334556, -0.2490842490842491, -3.9633699633699635, 0.1875, 0.09375, 0.9375, 1.0
954, 3.451770451770452, -0.28815628815628813, -1.3577533577533578, 0.0625, 0.09375, 0.84375, 1.0
955, 3.1855921855921854, -0.0231990231990232, -0.800976800976801, 0.09375, 0.0, 0.71875, 1.0
956, 3.47985347985348, -0.11355311355311355, -0.7704517704517705, 0.21875, 0.0, 0.59375, 1.0
957, 3.507936507936508, -0.7387057387057387, -1.2722832722832722, 0.21875, 0.0, 0.46875, 1.0
958, 3.1245421245421245, -0.6874236874236874, -1.4285714285714286, 0.125, 0.0, 0.3125, 1.0
959, 2.7545787545787546, -0.7203907203907204, -1.3577533577533578, 0.09375, 0.03125, 0.1875, 1.0
960, 2.3504273504273505, -0.7045177045177046, -1.0207570207570207, 0.0, 0.03125, 0.0625, 1.0
961, 1.8144078144078144, -0.3137973137973138, -0.5213675213675214, -0.09375, 0.03125, 0.0, 1.0
962, 1.3943833943833943, -0.2442002442002442, -0.23076923076923078, -0.09375, 0.09375, 0.0, 1.0
963, 0.9987789987789988, -0.27228327228327226, -0.12942612942612944, -0.0625, 0.09375, -0.03125, 1.0
964, 0.6068376068376068, -0.20024420024420025, 0.03785103785103785, -0.09375, 0.125, -0.03125, 1.0
965, 0.34554334554334554, -0.21855921855921856, 0.231990231990232, -0.09375, 0.125, -0.0625, 1.0
966, 0.0231990231990232, -0.001221001221001221, 0.326007326007326, -0.0625, 0.125, -0.03125, 1.0
967, -0.002442002442002442, -0.014652014652014652, 0.2967032967032967, 0.0, 0.125, -0.03125, 1.0
968, -0.115995115995116, -0.16361416361416362, 0.08791208791208792, 0.0, 0.125, -0.03125, 1.0
969, -0.11965811965811966, -0.16605616605616605, -0.009768009768009768, -0.03125, 0.15625, 0.0, 1.0
970, -0.09035409035409035, -0.20146520146520147, -0.06105006105006105, -0.09375, 0.1875, -0.03125, 1.0
971, 0.1807081807081807, -0.14652014652014653, 0.1684981684981685, -0.09375, 0.09375, -0.03125, 1.0
972, -0.03785103785103785, 0.017094017094017096, 0.10378510378510379, -0.0625, 0.09375, -0.0625, 1.0
973, 0.09523809523809523, -0.07326007326007326, 0.10744810744810745, -0.0625, 0.125, -0.09375, 0.0
974, 0.06593406593406594, -0.115995115995116, -0.09157509157509157, -0.1875, 0.09375, -0.09375, 0.0
975, 0.4554334554334554, -0.34554334554334554, -0.07692307692307693, -0.3125, 0.0625, 0.0, 0.0
976, -0.11477411477411477, 0.2588522588522589, -0.08547008547008547, -0.375, 0.03125, 0.0, 0.0
977, -0.009768009768009768, 0.6361416361416361, 0.2673992673992674, -0.0625, -0.09375, -0.03125, 0.0
978, -0.2905982905982906, 0.5335775335775336, -0.13064713064713065, 0.15625, -0.0625, -0.0625, 0.0
979, -0.018315018315018316, 0.10500610500610501, -0.5067155067155067, 0.1875, 0.0, 0.0, 0.0
980, 0.1514041514041514, -0.1575091575091575, -0.663003663003663, 0.03125, 0.03125, -0.03125, 0.0
981, 0.12698412698412698, 0.008547008547008548, -0.5091575091575091, -0.09375, 0.0625, -0.0625, 0.0
982, 0.2588522588522589, 0.14896214896214896, -0.38705738705738707, -0.09375, 0.03125, -0.0625, 0.0
983, -0.002442002442002442, 0.1807081807081807, -0.42124542124542125, 0.0, 0.0, -0.03125, 0.0
984, 0.017094017094017096, 0.028083028083028084, -0.3626373626373626, 0.0, 0.0625, -0.03125, 0.0
985, 0.09157509157509157, -0.052503052503052504, -0.30036630036630035, 0.0, 0.125, -0.0625, 0.0
986, 0.1562881562881563, -0.08547008547008547, -0.23931623931623933, -0.03125, 0.09375, -0.0625, 0.0
987, -0.007326007326007326, 0.03907203907203907, -0.23565323565323565, -0.0625, 0.03125, -0.09375, 0.0
988, -0.15262515262515264, 0.07448107448107448, -0.24053724053724054, -0.0625, 0.0625, -0.0625, 0.0
989, -0.04884004884004884, 0.017094017094017096, -0.1623931623931624, -0.03125, 0.09375, -0.03125, 0.0
990, -0.013431013431013432, -0.08669108669108669, -0.17094017094017094, -0.03125, 0.125, -0.0625, 0.0
991, -0.009768009768009768, -0.10012210012210013, -0.1794871794871795, -0.0625, 0.125, -0.0625, 0.0
992, -0.001221001221001221, -0.015873015873015872, -0.10378510378510379, -0.0625, 0.125, -0.09375, 0.0
993, 0.06227106227106227, -0.06837606837606838, -0.10012210012210013, -0.09375, 0.0625, -0.09375, 0.0
994, -0.026862026862026864, -0.031746031746031744, -0.06227106227106227, -0.125, 0.03125, -0.0625, 0.0
995, -0.09768009768009768, -0.007326007326007326, -0.01098901098901099, -0.0625, 0.0, -0.0625, 0.0
996, -0.11477411477411477, -0.1111111111111111, -0.1746031746031746, -0.0625, 0.0625, -0.0625, 0.0
997, -0.050061050061050064, -0.09401709401709402, -0.16727716727716727, -0.09375, 0.125, -0.0625, 0.0
998, 0.004884004884004884, 0.007326007326007326, 0.05860805860805861, -0.09375, 0.125, -0.0625, 0.0
999, 0.031746031746031744, 0.06837606837606838, 0.20757020757020758, -0.03125, 0.0625, -0.0625, 0.0
1000, -0.06105006105006105, 0.10744810744810745, 0.12576312576312576, -0.03125, -0.03125, -0.03125, 0.0
1001, -0.026862026862026864, 0.007326007326007326, 0.020757020757020756, 0.0, 0.0, -0.0625, 0.0
1002, 0.17338217338217338, -0.14041514041514042, 0.01098901098901099, 0.0, 0.0625, -0.03125, 0.0
1003, 0.14285714285714285, 0.007326007326007326, 0.16605616605616605, -0.0625, 0.0, -0.03125, 0.0
1004, -0.05372405372405373, 0.1111111111111111, 0.22832722832722832, -0.03125, -0.03125, 0.0, 0.0
1005, -0.031746031746031744, 0.08424908424908426, 0.326007326007326, 0.0, 0.0, 0.0, 0.0
1006, -0.10744810744810745, 0.006105006105006105, 0.22832722832722832, 0.0625, 0.0, 0.0, 0.0
1007, 0.008547008547008548, -0.1282051282051282, 0.18192918192918192, 0.03125, 0.03125, 0.0, 0.0
1008, 0.08791208791208792, -0.11233211233211234, 0.30036630036630035, 0.0, 0.0, 0.0, 0.0
1009, -0.13675213675213677, 0.031746031746031744, 0.4444444444444444, 0.03125, 0.0, 0.0, 0.0
1010, -0.10500610500610501, 0.18192918192918192, 0.7289377289377289, 0.09375, 0.0625, 0.0, 0.0
1011, -0.19291819291819293, 0.2271062271062271, 0.9438339438339438, 0.3125, 0.0, 0.0, 0.0
1012, -0.7191697191697192, 0.23931623931623933, 0.6593406593406593, 0.3125, 0.0625, 0.0625, 1.0
1013, -0.7924297924297924, -0.09768009768009768, 0.4908424908424908, 0.09375, 0.125, 0.15625, 1.0
1014, -0.8888888888888888, 0.20757020757020758, 0.684981684981685, 0.21875, 0.15625, 0.21875, 1.0
1015, -1.4578754578754578, 0.6923076923076923, 0.9401709401709402, 0.4375, 0.21875, 0.25, 1.0
1016, -1.568986568986569, 0.8461538461538461, 0.894993894993895, 0.65625, 0.15625, 0.34375, 1.0
1017, -2.1746031746031744, 1.1147741147741148, 0.5128205128205128, 0.75, 0.0625, 0.46875, 1.0
1018, -3.3455433455433456, 1.4407814407814408, -0.2673992673992674, 0.65625, 0.03125, 0.6875, 1.0
1019, -3.833943833943834, 1.94993894993895, -0.6715506715506715, 0.5625, 0.03125, 0.9375, 1.0
1020, -4.190476190476191, 1.9816849816849818, -1.4261294261294262, 0.5, 0.0, 1.28125, 1.0
1021, -3.9816849816849818, 2.0256410256410255, -2.05006105006105, 0.46875, -0.125, 1.59375, 1.0
1022, -3.843711843711844, 1.9474969474969475, -2.826617826617827, 0.375, -0.25, 1.84375, 1.0
1023, -4.063492063492063, 1.9365079365079365, -5.257631257631258, 0.09375, -0.09375, 2.21875, 1.0
1024, -2.3516483516483517, 1.6385836385836385, -6.214896214896215, -0.09375, -0.1875, 2.4375, 1.0
1025, -1.1758241758241759, 0.8058608058608059, -7.3528693528693525, -0.375, -0.3125, 2.625, 1.0
1026, 0.36874236874236876, -0.39438339438339437, -8.564102564102564, -0.71875, -0.34375, 2.75, 1.0
1027, 2.312576312576313, -2.1941391941391943, -10.003663003663004, -1.09375, -0.375, 2.71875, 1.0
1028, 4.415140415140415, -3.7081807081807083, -10.440781440781441, -1.46875, -0.375, 2.625, 1.0
1029, 5.941391941391942, -4.798534798534798, -9.637362637362637, -1.875, -0.1875, 2.3125, 1.0
1030, 7.085470085470085, -6.023199023199023, -8.495726495726496, -2.21875, 0.0625, 1.96875, 1.0
1031, 8.002442002442002, -6.835164835164835, -7.062271062271062, -2.53125, 0.28125, 1.53125, 1.0
1032, 8.518925518925519, -7.172161172161172, -5.278388278388278, -2.875, 0.4375, 1.09375, 1.0
1033, 8.216117216117215, -7.913308913308914, -3.606837606837607, -3.125, 0.59375, 0.6875, 1.0
1034, 7.656898656898657, -8.5006105006105, -1.8583638583638584, -3.21875, 0.84375, 0.25, 1.0
1035, 6.752136752136752, -8.526251526251526, -0.13797313797313798, -3.03125, 1.375, -0.40625, 1.0
1036, 5.73992673992674, -8.474969474969475, 1.452991452991453, -2.71875, 1.6875, -0.78125, 1.0
1037, 5.264957264957265, -8.523809523809524, 2.8424908424908426, -2.4375, 1.84375, -1.1875, 1.0
1038, 4.208791208791209, -8.682539682539682, 3.9206349206349205, -2.3125, 1.90625, -1.5625, 1.0
1039, 3.184371184371184, -8.421245421245422, 5.211233211233211, -2.1875, 1.9375, -1.9375, 1.0
1040, 2.0268620268620268, -7.764346764346764, 6.36019536019536, -1.8125, 1.84375, -2.21875, 1.0
1041, 0.7924297924297924, -7.514041514041514, 6.8498168498168495, -1.34375, 1.6875, -2.4375, 1.0
1042, -0.514041514041514, -7.213675213675214, 6.948717948717949, -0.96875, 1.625, -2.625, 1.0
1043, -1.507936507936508, -6.396825396825397, 6.892551892551893, -0.59375, 1.53125, -2.75, 1.0
1044, -2.4603174603174605, -5.638583638583639, 6.572649572649572, -0.28125, 1.46875, -2.78125, 1.0
1045, -3.062271062271062, -4.619047619047619, 6.716727716727717, 0.125, 1.25, -2.71875, 1.0
1046, -3.6031746031746033, -3.970695970695971, 6.551892551892552, 0.78125, 1.0, -2.53125, 1.0
1047, -3.8998778998779, -3.3968253968253967, 5.478632478632479, 1.0625, 0.875, -2.40625, 1.0
1048, -4.336996336996337, -2.597069597069597, 4.807081807081807, 1.34375, 0.71875, -2.28125, 1.0
1049, -4.932844932844933, -2.1025641025641026, 3.9792429792429793, 1.59375, 0.71875, -2.125, 1.0
1050, -4.814407814407814, -1.7765567765567765, 3.2735042735042734, 1.8125, 0.65625, -1.90625, 1.0
1051, -4.985347985347985, -0.9267399267399268, 2.6605616605616604, 1.9375, 0.3125, -1.5625, 1.0
1052, -4.6129426129426125, -0.5873015873015873, 2.028083028083028, 2.0625, 0.125, -1.28125, 1.0
1053, -4.627594627594628, -0.336996336996337, 0.9523809523809523, 2.0625, 0.03125, -1.0625, 1.0
1054, -4.457875457875458, -0.11233211233211234, -0.031746031746031744, 2.03125, 0.0, -0.78125, 1.0
1055, -3.358974358974359, -0.19658119658119658, -0.5396825396825397, 2.0, -0.125, -0.46875, 1.0
1056, -2.937728937728938, -0.04151404151404151, -1.1416361416361416, 2.03125, -0.28125, -0.25, 1.0
1057, -3.114774114774115, 0.5274725274725275, -2.1941391941391943, 2.125, -0.28125, -0.0625, 1.0
1058, -2.4078144078144077, 0.054945054945054944, -2.5335775335775335, 1.90625, -0.21875, 0.21875, 1.0
1059, -1.9133089133089134, -0.10989010989010989, -2.0891330891330893, 1.6875, -0.21875, 0.34375, 1.0
1060, -1.4114774114774116, -0.3333333333333333, -1.63003663003663, 1.59375, -0.3125, 0.4375, 1.0
1061, -1.606837606837607, 0.45054945054945056, -1.921855921855922, 1.65625, -0.28125, 0.5625, 1.0
1062, -1.9511599511599511, 0.4542124542124542, -2.597069597069597, 1.59375, -0.15625, 0.75, 1.0
1063, -1.0427350427350428, 0.5787545787545788, -2.4065934065934065, 1.4375, -0.09375, 0.875, 1.0
1064, -0.06837606837606838, 0.5848595848595849, -2.244200244200244, 1.34375, -0.125, 1.0, 1.0
1065, 0.724053724053724, 0.5115995115995116, -2.6056166056166057, 1.25, -0.28125, 1.09375, 1.0
1066, 1.286935286935287, 0.5128205128205128, -3.061050061050061, 1.1875, -0.34375, 1.125, 1.0
1067, 1.2735042735042734, 0.21123321123321123, -3.5946275946275947, 1.0625, -0.25, 1.15625, 1.0
1068, 1.7765567765567765, -0.06715506715506715, -3.498168498168498, 0.875, -0.125, 1.125, 1.0
1069, 2.363858363858364, -0.1807081807081807, -3.1538461538461537, 0.6875, -0.0625, 1.03125, 1.0
1070, 3.3724053724053724, -0.4468864468864469, -2.070818070818071, 0.5, -0.0625, 0.96875, 1.0
1071, 3.4358974358974357, -0.3028083028083028, -1.7594627594627594, 0.375, -0.15625, 0.84375, 1.0
1072, 3.172161172161172, 0.007326007326007326, -1.7203907203907205, 0.34375, -0.1875, 0.75, 1.0
1073, 3.3321123321123323, 0.07936507936507936, -1.7594627594627594, 0.3125, -0.0625, 0.625, 1.0
1074, 3.590964590964591, -0.17338217338217338, -1.728937728937729, 0.28125, 0.0, 0.5, 1.0
1075, 3.446886446886447, -0.36996336996337, -1.7179487179487178, 0.21875, 0.0, 0.34375, 1.0
1076, 2.9255189255189253, -0.5335775335775336, -1.7252747252747254, 0.1875, 0.03125, 0.1875, 1.0
1077, 2.142857142857143, -0.3772893772893773, -1.442002442002442, 0.03125, 0.09375, 0.0625, 1.0
1078, 1.253968253968254, 0.08669108669108669, -0.9255189255189256, -0.0625, 0.1875, 0.0, 1.0
1079, 1.0341880341880343, 0.2026862026862027, -0.28083028083028083, -0.09375, 0.1875, 0.0, 1.0
1080, 0.4444444444444444, 0.16117216117216118, -0.07936507936507936, -0.0625, 0.125, 0.0, 1.0
1081, 0.15384615384615385, -0.0757020757020757, -0.018315018315018316, -0.03125, 0.15625, 0.0, 1.0
1082, -0.03663003663003663, -0.04395604395604396, -0.10012210012210013, -0.0625, 0.21875, 0.0, 1.0
1083, 0.030525030525030524, -0.05982905982905983, 0.014652014652014652, -0.0625, 0.15625, 0.0, 1.0
1084, -0.009768009768009768, -0.07326007326007326, 0.008547008547008548, 0.0, 0.09375, 0.0, 1.0
1085, 0.06227106227106227, -0.21611721611721613, -0.05860805860805861, 0.0, 0.125, 0.0, 1.0
1086, 0.17216117216117216, -0.2869352869352869, 0.031746031746031744, -0.03125, 0.09375, -0.0625, 1.0
1087, 0.040293040293040296, -0.24175824175824176, -0.10989010989010989, -0.09375, 0.0625, -0.09375, 1.0
1088, 0.018315018315018316, -0.06593406593406594, -0.1343101343101343, -0.125, 0.03125, -0.125, 1.0
1089, -0.002442002442002442, -0.12942612942612944, -0.26373626373626374, -0.21875, 0.0625, -0.1875, 1.0
1090, -0.1746031746031746, -0.052503052503052504, -0.3553113553113553, -0.34375, 0.1875, -0.1875, 1.0
1091, 0.007326007326007326, 0.2844932844932845, -0.05372405372405373, -0.34375, 0.125, -0.125, 0.0
1092, -0.231990231990232, 0.514041514041514, 0.09401709401709402, -0.15625, 0.09375, -0.0625, 0.0
1093, -0.09768009768009768, 0.2442002442002442, -0.007326007326007326, -0.03125, 0.09375, 0.03125, 0.0
1094, 0.007326007326007326, 0.07692307692307693, -0.03663003663003663, -0.03125, 0.09375, 0.0625, 0.0
1095, 0.030525030525030524, -0.14285714285714285, -0.0989010989010989, -0.0625, 0.09375, 0.0, 0.0
1096, 0.02442002442002442, 0.0463980463980464, 0.0927960927960928, 0.0, 0.0625, -0.09375, 0.0
1097, -0.11843711843711843, 0.1111111111111111, -0.15262515262515264, 0.09375, 0.0625, -0.0625, 0.0
1098, 0.1562881562881563, -0.13186813186813187, -0.29181929181929184, 0.0625, 0.15625, 0.0, 0.0
1099, 0.14285714285714285, -0.08547008547008547, -0.3162393162393162, 0.0, 0.15625, 0.0, 0.0
1100, 0.040293040293040296, -0.050061050061050064, -0.38217338217338215, -0.03125, 0.125, 0.0, 0.0
1101, 0.050061050061050064, -0.042735042735042736, -0.37606837606837606, -0.03125, 0.1875, -0.0625, 0.0
1102, 0.03418803418803419, -0.10500610500610501, -0.5091575091575091, -0.03125, 0.21875, -0.0625, 0.0
1103, 0.014652014652014652, -0.06837606837606838, -0.3968253968253968, -0.09375, 0.1875, -0.0625, 0.0
1104, -0.03418803418803419, -0.008547008547008548, -0.27594627594627597, -0.125, 0.15625, -0.09375, 0.0
1105, -0.07936507936507936, 0.13186813186813187, -0.06715506715506715, -0.09375, 0.125, -0.0625, 0.0
1106, -0.042735042735042736, 0.07814407814407814, 0.030525030525030524, -0.03125, 0.09375, -0.0625, 0.0
1107, 0.05616605616605617, -0.09401709401709402, -0.04151404151404151, -0.03125, 0.0, -0.09375, 0.0
1108, -0.042735042735042736, -0.13186813186813187, -0.06837606837606838, -0.125, -0.03125, -0.125, 0.0
1109, -0.15873015873015872, -0.17338217338217338, -0.13064713064713065, -0.15625, 0.0, -0.125, 0.0
1110, -0.08913308913308914, -0.057387057387057384, -0.006105006105006105, -0.125, 0.0, -0.125, 0.0
1111, -0.09645909645909646, -0.002442002442002442, 0.09768009768009768, -0.0625, 0.0, -0.09375, 0.0
1112, -0.03663003663003663, 0.01098901098901099, 0.10989010989010989, -0.03125, 0.0, -0.09375, 0.0
1113, 0.0463980463980464, -0.05372405372405373, 0.10622710622710622, -0.03125, 0.0, -0.09375, 0.0
1114, -0.008547008547008548, 0.015873015873015872, 0.12698412698412698, -0.03125, 0.0, -0.0625, 0.0
1115, -0.009768009768009768, -0.017094017094017096, -0.03418803418803419, -0.03125, 0.0, -0.09375, 0.0
1116, 0.020757020757020756, 0.06471306471306472, 0.031746031746031744, -0.03125, 0.0, -0.0625, 0.0
1117, 0.02564102564102564, 0.11843711843711843, 0.0695970695970696, 0.0, 0.0, -0.03125, 0.0
1118, 0.018315018315018316, 0.004884004884004884, -0.06227106227106227, 0.0, -0.03125, -0.03125, 0.0
1119, 0.002442002442002442, 0.018315018315018316, -0.07448107448107448, 0.0, 0.0, 0.0, 0.0
1120, -0.05128205128205128, 0.015873015873015872, -0.07692307692307693, 0.0, 0.03125, 0.0, 0.0
1121, 0.1514041514041514, -0.0927960927960928, -0.03418803418803419, 0.0, 0.0625, 0.0, 0.0
1122, -0.004884004884004884, 0.01221001221001221, 0.06715506715506715, 0.0, 0.03125, 0.0, 0.0
1123, 0.2686202686202686, 0.09645909645909646, 0.26495726495726496, 0.0, 0.0, 0.0, 0.0
1124, 0.04395604395604396, 0.009768009768009768, 0.001221001221001221, 0.0, -0.03125, 0.0, 0.0
1125, 0.014652014652014652, -0.07326007326007326, -0.22954822954822954, 0.0, 0.0, 0.0, 0.0
1126, 0.09768009768009768, -0.054945054945054944, -0.25396825396825395, 0.0, 0.03125, 0.0, 0.0
1127, 0.031746031746031744, 0.002442002442002442, -0.12698412698412698, 0.0, 0.03125, 0.0, 0.0
1128, 0.11721611721611722, -0.03907203907203907, -0.06227106227106227, 0.0, 0.0, -0.03125, 0.0
1129, -0.006105006105006105, 0.0463980463980464, 0.06227106227106227, 0.0, 0.0, -0.0625, 0.0
1130, 0.001221001221001221, 0.054945054945054944, 0.15506715506715507, 0.0, -0.03125, -0.0625, 0.0
1131, -0.08302808302808302, 0.0757020757020757, 0.27472527472527475, 0.0, -0.03125, -0.03125, 0.0
1132, -0.21245421245421245, 0.02564102564102564, 0.08913308913308914, 0.0, 0.0, 0.0, 0.0
1133, 0.10500610500610501, 0.13675213675213677, 0.518925518925519, 0.0625, 0.0, -0.03125, 0.0
1134, -0.001221001221001221, -0.009768009768009768, 0.442002442002442, 0.09375, 0.0, -0.03125, 1.0
1135, 0.15873015873015872, -0.2564102564102564, 0.2893772893772894, 0.0, -0.0625, -0.03125, 1.0
1136, -0.5506715506715507, 0.5006105006105006, 0.06837606837606838, 0.0, 0.09375, 0.0, 1.0
1137, 0.1855921855921856, -0.09645909645909646, 0.2625152625152625, 0.0, 0.09375, 0.0, 1.0
1138, 0.13186813186813187, 0.06105006105006105, 0.5213675213675214, 0.1875, 0.03125, 0.0, 1.0
1139, -0.10744810744810745, -0.09035409035409035, 0.4175824175824176, 0.375, 0.0, -0.03125, 1.0
1140, -1.1196581196581197, -0.1855921855921856, -0.10866910866910867, 0.375, 0.03125, -0.0625, 1.0
1141, -1.728937728937729, -0.12576312576312576, -0.08669108669108669, 0.34375, 0.0625, -0.03125, 1.0
1142, -2.365079365079365, 0.16727716727716727, 0.19658119658119658, 0.375, 0.125, 0.0, 1.0
1143, -3.173382173382173, 0.8583638583638583, 0.41025641025641024, 0.53125, 0.0625, 0.09375, 1.0
1144, -4.1440781440781445, 1.352869352869353, -0.02197802197802198, 0.6875, 0.125, 0.25, 1.0
1145, -4.792429792429792, 1.9548229548229548, -0.3797313797313797, 0.625, -0.03125, 0.5, 1.0
1146, -5.852258852258852, 2.802197802197802, -1.0561660561660562, 0.59375, -0.25, 0.8125, 1.0
1147, -7.2234432234432235, 3.562881562881563, -2.2405372405372406, 0.6875, -0.21875, 1.1875, 1.0
1148, -6.852258852258852, 2.913308913308913, -3.404151404151404, 0.71875, -0.15625, 1.625, 1.0
1149, -6.536019536019536, 2.330891330891331, -4.682539682539683, 0.5, -0.15625, 2.0, 1.0
1150, -5.57020757020757, 1.9206349206349207, -5.525030525030525, 0.0625, -0.125, 2.34375, 1.0
1151, -3.970695970695971, 1.595848595848596, -5.6471306471306475, -0.5, -0.40625, 2.875, 1.0
1152, -2.578754578754579, 1.0622710622710623, -6.543345543345543, -0.59375, -0.46875, 3.125, 1.0
1153, -0.35775335775335776, -0.9963369963369964, -8.15018315018315, -0.75, -0.46875, 3.1875, 1.0
1154, 1.829059829059829, -3.1684981684981683, -9.601953601953602, -1.21875, -0.5, 3.03125, 1.0
1155, 3.5763125763125765, -4.2515262515262515, -9.915750915750916, -1.6875, -0.375, 2.8125, 1.0
1156, 5.084249084249084, -4.827838827838828, -9.315018315018316, -2.0625, -0.21875, 2.53125, 1.0
1157, 5.8669108669108665, -5.876678876678877, -8.572649572649572, -2.40625, 0.0625, 2.25, 1.0
1158, 6.78998778998779, -7.003663003663004, -7.089133089133089, -2.75, 0.34375, 1.90625, 1.0
1159, 7.31990231990232, -7.788766788766789, -5.6239316239316235, -2.96875, 0.53125, 1.5, 1.0
1160, 7.145299145299146, -7.938949938949939, -3.866910866910867, -3.0, 0.8125, 1.125, 1.0
1161, 7.26007326007326, -8.257631257631258, -2.092796092796093, -2.90625, 1.09375, 0.71875, 1.0
1162, 7.0, -9.03052503052503, -0.6862026862026862, -2.8125, 1.3125, 0.28125, 1.0
1163, 6.0647130647130645, -8.863247863247864, 2.0781440781440783, -2.71875, 1.75, -0.46875, 1.0
1164, 5.405372405372406, -8.390720390720391, 3.4590964590964592, -2.46875, 1.96875, -0.9375, 1.0
1165, 4.410256410256411, -8.002442002442002, 4.564102564102564, -2.21875, 2.03125, -1.34375, 1.0
1166, 3.2905982905982905, -7.625152625152626, 5.444444444444445, -1.9375, 2.0, -1.71875, 1.0
1167, 1.862026862026862, -7.177045177045177, 6.041514041514041, -1.65625, 1.9375, -2.03125, 1.0
1168, 0.6581196581196581, -6.813186813186813, 6.4664224664224665, -1.28125, 1.90625, -2.34375, 1.0
1169, -0.608058608058608, -6.045177045177045, 6.73015873015873, -0.90625, 1.875, -2.53125, 1.0
1170, -1.435897435897436, -5.211233211233211, 6.865689865689865, -0.53125, 1.84375, -2.6875, 1.0
1171, -2.3565323565323566, -4.301587301587301, 6.771672771672772, -0.125, 1.71875, -2.71875, 1.0
1172, -2.7032967032967035, -3.960927960927961, 6.536019536019536, 0.25, 1.53125, -2.6875, 1.0
1173, -3.4945054945054945, -3.6556776556776556, 6.023199023199023, 0.59375, 1.34375, -2.625, 1.0
1174, -3.525030525030525, -3.3504273504273505, 5.781440781440781, 1.09375, 1.15625, -2.5, 1.0
1175, -3.52014652014652, -2.7032967032967035, 5.638583638583639, 1.40625, 0.9375, -2.375, 1.0
1176, -3.851037851037851, -2.498168498168498, 5.31013431013431, 1.6875, 0.78125, -2.28125, 1.0
1177, -4.405372405372406, -2.087912087912088, 4.711843711843712, 1.90625, 0.75, -2.125, 1.0
1178, -5.427350427350428, -1.4285714285714286, 3.7985347985347984, 2.125, 0.59375, -1.9375, 1.0
1179, -5.652014652014652, -0.8034188034188035, 3.05006105006105, 2.375, 0.40625, -1.5625, 1.0
1180, -4.857142857142857, -1.0561660561660562, 2.313797313797314, 2.34375, 0.09375, -1.21875, 1.0
1181, -4.5335775335775335, -1.26007326007326, 1.3650793650793651, 2.3125, -0.15625, -1.0, 1.0
1182, -5.213675213675214, -0.43101343101343104, -0.10012210012210013, 2.5, -0.03125, -0.6875, 1.0
1183, -4.402930402930403, -0.6373626373626373, -0.8571428571428571, 2.46875, -0.03125, -0.4375, 1.0
1184, -3.2393162393162394, -0.7326007326007326, -0.6312576312576312, 2.25, -0.21875, -0.25, 1.0
1185, -3.987789987789988, 0.6898656898656899, -1.3907203907203907, 2.34375, -0.375, 0.0, 1.0
1186, -3.1306471306471306, -0.05860805860805861, -3.0854700854700856, 2.28125, -0.375, 0.4375, 1.0
1187, -3.1013431013431014, 0.29181929181929184, -3.6556776556776556, 2.03125, -0.4375, 0.625, 1.0
1188, -2.4957264957264957, -0.20757020757020758, -3.7826617826617825, 1.84375, -0.375, 0.875, 1.0
1189, -0.7765567765567766, -0.06227106227106227, -3.3345543345543347, 1.65625, -0.4375, 1.09375, 1.0
1190, -0.0695970695970696, 0.07692307692307693, -3.802197802197802, 1.625, -0.46875, 1.1875, 1.0
1191, 0.8595848595848596, -0.24664224664224665, -4.673992673992674, 1.59375, -0.3125, 1.15625, 1.0
1192, 1.5238095238095237, -0.6398046398046398, -5.338217338217338, 1.3125, -0.15625, 1.09375, 1.0
1193, 1.6446886446886446, -0.4261294261294261, -5.312576312576312, 0.96875, -0.09375, 1.03125, 1.0
1194, 1.7362637362637363, 0.045177045177045176, -4.442002442002442, 0.75, 0.0, 0.96875, 1.0
1195, 2.5115995115995116, 0.115995115995116, -3.3846153846153846, 0.625, 0.15625, 0.9375, 1.0
1196, 3.5641025641025643, 0.10256410256410256, -2.557997557997558, 0.46875, 0.125, 0.84375, 1.0
1197, 3.656898656898657, -0.06105006105006105, -2.4224664224664223, 0.3125, 0.03125, 0.625, 1.0
1198, 3.081807081807082, -0.16971916971916973, -2.5067155067155067, 0.125, 0.03125, 0.46875, 1.0
1199, 2.382173382173382, -0.10989010989010989, -2.241758241758242, 0.0625, 0.15625, 0.3125, 1.0
1200, 1.9597069597069596, 0.15018315018315018, -1.5238095238095237, 0.0, 0.25, 0.21875, 1.0
1201, 1.862026862026862, 0.2612942612942613, -0.7680097680097681, 0.0, 0.28125, 0.125, 1.0
1202, 1.8339438339438339, 0.15018315018315018, -0.32722832722832723, 0.0, 0.15625, 0.0625, 1.0
1203, 1.199023199023199, 0.02197802197802198, -0.326007326007326, -0.0625, 0.03125, 0.03125, 1.0
1204, 0.590964590964591, 0.0927960927960928, -0.19658119658119658, -0.03125, 0.0625, 0.03125, 1.0
1205, 0.10256410256410256, -0.10378510378510379, -0.32112332112332115, -0.0625, 0.15625, 0.0, 1.0
1206, 0.07326007326007326, -0.09645909645909646, -0.06837606837606838, -0.09375, 0.21875, 0.0, 1.0
1207, -0.01098901098901099, -0.019536019536019536, 0.08180708180708181, -0.0625, 0.21875, 0.0, 1.0
1208, -0.06837606837606838, -0.09035409035409035, -0.019536019536019536, -0.09375, 0.28125, -0.0625, 1.0
1209, -0.015873015873015872, -0.017094017094017096, 0.009768009768009768, -0.09375, 0.21875, -0.09375, 1.0
1210, -0.14652014652014653, 0.014652014652014652, -0.18803418803418803, -0.15625, 0.25, -0.09375, 1.0
1211, -0.06593406593406594, 0.14896214896214896, 0.04884004884004884, -0.21875, 0.25, -0.03125, 0.0
1212, -0.5042735042735043, 0.6642246642246642, 0.3052503052503053, -0.15625, 0.1875, 0.0, 0.0
1213, -0.12454212454212454, 0.11721611721611722, -0.03785103785103785, -0.125, 0.125, 0.0, 0.0
1214, -0.10378510378510379, -0.19291819291819293, -0.2490842490842491, -0.09375, 0.125, -0.03125, 0.0
1215, -0.01098901098901099, -0.09401709401709402, -0.2979242979242979, -0.15625, 0.1875, -0.0625, 0.0
1216, 0.003663003663003663, 0.11721611721611722, -0.10500610500610501, -0.15625, 0.15625, -0.03125, 0.0
1217, 0.02197802197802198, 0.2271062271062271, 0.05372405372405373, -0.0625, 0.09375, 0.0, 0.0
1218, -0.09157509157509157, 0.17826617826617827, 0.007326007326007326, 0.0, 0.0625, 0.03125, 0.0
1219, 0.10989010989010989, -0.23076923076923078, -0.21855921855921856, 0.03125, 0.09375, 0.03125, 0.0
1220, 0.03418803418803419, -0.14774114774114774, -0.3028083028083028, -0.03125, 0.09375, 0.03125, 0.0
1221, 0.11477411477411477, -0.17582417582417584, -0.31746031746031744, -0.15625, 0.125, 0.0, 0.0
1222, 0.007326007326007326, -0.0463980463980464, -0.23931623931623933, -0.15625, 0.15625, 0.0, 0.0
1223, 0.10500610500610501, -0.05616605616605617, -0.10622710622710622, -0.09375, 0.125, 0.0, 0.0
1224, -0.06593406593406594, 0.03296703296703297, -0.028083028083028084, -0.03125, 0.125, 0.0, 0.0
1225, 0.2148962148962149, -0.19047619047619047, -0.10500610500610501, -0.0625, 0.0625, 0.0, 0.0
1226, -0.05982905982905983, -0.04395604395604396, -0.12698412698412698, -0.0625, 0.03125, 0.0, 0.0
1227, -0.045177045177045176, -0.03907203907203907, -0.09401709401709402, -0.0625, 0.0625, -0.03125, 0.0
1228, -0.18192918192918192, 0.08669108669108669, 0.03663003663003663, -0.0625, 0.09375, 0.0, 0.0
1229, -0.007326007326007326, 0.009768009768009768, 0.026862026862026864, -0.03125, 0.03125, 0.0, 0.0
1230, -0.06105006105006105, 0.09401709401709402, 0.06227106227106227, -0.03125, 0.0, 0.0, 0.0
1231, -0.003663003663003663, 0.013431013431013432, -0.004884004884004884, -0.03125, 0.0, 0.0, 0.0
1232, -0.03540903540903541, 0.05128205128205128, -0.002442002442002442, 0.0, 0.0, 0.0, 0.0
1233, -0.013431013431013432, 0.0, -0.01221001221001221, 0.0, 0.0625, -0.03125, 0.0
1234, 0.17826617826617827, -0.042735042735042736, 0.01221001221001221, -0.03125, 0.03125, 0.0, 0.0
1235, -0.01221001221001221, 0.1916971916971917, 0.16483516483516483, -0.0625, 0.0, 0.0, 0.0
1236, 0.11843711843711843, -0.006105006105006105, 0.09157509157509157, 0.0, 0.0, 0.0, 0.0
1237, 0.02197802197802198, 0.004884004884004884, -0.019536019536019536, 0.0, -0.03125, 0.0, 0.0
1238, 0.15873015873015872, -0.17094017094017094, -0.21367521367521367, 0.0, 0.0, 0.0, 0.0
1239, 0.05616605616605617, -0.040293040293040296, -0.18681318681318682, 0.0, 0.0, 0.0, 0.0
1240, 0.28205128205128205, -0.04884004884004884, -0.04395604395604396, 0.0, 0.0, 0.0, 0.0
1241, 0.009768009768009768, 0.12698412698412698, 0.009768009768009768, 0.0, -0.0625, 0.0, 0.0
1242, 0.0, 0.007326007326007326, -0.07936507936507936, 0.0, -0.03125, -0.03125, 0.0
1243, 0.018315018315018316, 0.007326007326007326, -0.13675213675213677, 0.03125, 0.03125, -0.03125, 0.0
1244, 0.14652014652014653, -0.10500610500610501, -0.22466422466422467, 0.0, 0.03125, -0.03125, 0.0
1245, 0.05982905982905983, -0.02197802197802198, -0.21245421245421245, -0.0625, 0.0, -0.03125, 0.0
1246, 0.0231990231990232, 0.05372405372405373, -0.08180708180708181, 0.0, -0.03125, 0.0, 0.0
1247, -0.09523809523809523, 0.03663003663003663, -0.14774114774114774, 0.0, 0.0, -0.03125, 0.0
1248, -0.09157509157509157, -0.09645909645909646, -0.2844932844932845, 0.0, 0.0625, 0.0, 0.0
1249, 0.01098901098901099, -0.040293040293040296, -0.17582417582417584, -0.03125, 0.09375, 0.0, 0.0
1250, 0.08424908424908426, -0.10256410256410256, -0.15384615384615385, -0.09375, 0.0625, 0.0, 0.0
1251, 0.10744810744810745, 0.10012210012210013, 0.18437118437118438, -0.0625, 0.03125, -0.03125, 0.0
1252, -0.1575091575091575, 0.06593406593406594, 0.020757020757020756, 0.0, 0.0625, 0.0, 0.0
1253, -0.020757020757020756, -0.008547008547008548, -0.006105006105006105, -0.03125, 0.125, 0.0, 0.0
1254, -0.02197802197802198, -0.050061050061050064, -0.05372405372405373, -0.0625, 0.125, 0.0, 0.0
1255, -0.03663003663003663, 0.05982905982905983, 0.19291819291819293, -0.03125, 0.09375, 0.0, 0.0
1256, 0.017094017094017096, 0.02442002442002442, 0.42857142857142855, -0.03125, 0.0625, 0.0, 0.0
1257, -0.018315018315018316, -0.008547008547008548, 0.34065934065934067, 0.0, 0.03125, 0.0, 0.0
1258, -0.17704517704517705, -0.004884004884004884, 0.12942612942612944, 0.0, 0.03125, 0.0, 0.0
1259, -0.057387057387057384, 0.0989010989010989, 0.3540903540903541, 0.0, 0.0625, -0.0625, 1.0
1260, -0.03540903540903541, 0.2490842490842491, 0.3431013431013431, 0.0, 0.03125, -0.125, 1.0
