timestamp, accX, accY, accZ, gyroX, gyroY, gyroZ, button
9490, 1.0512820512820513, 0.030525030525030524, 0.6935286935286935, 0.59375, 0.78125, 0.03125, 0.0
9491, 2.4383394383394386, -0.18437118437118438, 0.23565323565323565, 0.65625, 0.59375, 0.0, 0.0
9492, 2.744810744810745, -1.043956043956044, -0.6776556776556777, 0.59375, 0.0, -0.125, 0.0
1, 2.614163614163614, -1.4224664224664225, -1.4273504273504274, 0.375, -0.4375, -0.46875, 0.0
2, 2.1135531135531136, -1.2722832722832722, -1.9743589743589745, 0.125, -0.71875, -0.875, 0.0
3, 0.5995115995115995, -0.7741147741147741, -1.9267399267399268, -0.0625, -0.71875, -1.125, 0.0
4, -0.42002442002442003, -0.009768009768009768, -1.7851037851037852, -0.25, -0.46875, -1.21875, 0.0
5, -1.7374847374847375, 0.4810744810744811, -1.1086691086691087, -0.0625, 0.0625, -0.8125, 0.0
6, -0.9682539682539683, 0.24786324786324787, -0.7631257631257631, 0.0625, 0.65625, -0.75, 0.0
7, -0.5006105006105006, 0.06837606837606838, -0.4884004884004884, 0.09375, 0.65625, -0.71875, 0.0
8, -0.25274725274725274, -0.13797313797313798, -0.5616605616605617, 0.0625, 0.3125, -0.8125, 0.0
9, -0.8034188034188035, -0.019536019536019536, -0.7301587301587301, 0.0625, -0.28125, -0.875, 0.0
10, -1.352869352869353, -0.02442002442002442, -1.0244200244200243, 0.0625, -0.4375, -0.875, 0.0
11, -1.9084249084249085, -0.231990231990232, -1.4346764346764347, 0.0625, -0.375, -0.71875, 0.0
12, -2.0598290598290596, -0.43345543345543347, -1.5970695970695972, -0.0625, -0.125, -0.53125, 0.0
13, -2.1074481074481075, -0.3663003663003663, -1.4371184371184371, -0.1875, 0.125, -0.25, 0.0
14, -1.7301587301587302, -0.2771672771672772, -0.9438339438339438, -0.25, 0.40625, -0.0625, 0.0
15, -1.1355311355311355, -0.2661782661782662, -0.3626373626373626, -0.28125, 0.46875, 0.0, 0.0
16, -0.6336996336996337, -0.2686202686202686, 0.2967032967032967, -0.3125, 0.375, -0.0625, 0.0
17, -0.08791208791208792, -0.47374847374847373, 0.5042735042735043, -0.4375, 0.03125, -0.1875, 0.0
18, 0.28815628815628813, -0.663003663003663, 0.6776556776556777, -0.625, -0.46875, -0.3125, 0.0
19, 0.20024420024420025, -0.3614163614163614, 0.5885225885225885, -0.6875, -0.90625, -0.375, 0.0
20, -0.7338217338217338, 0.18437118437118438, 0.4981684981684982, -0.5, -0.8125, -0.21875, 0.0
21, -0.8913308913308914, 0.05860805860805861, 0.09035409035409035, -0.25, -0.3125, -0.0625, 0.0
22, -0.7484737484737485, -0.03418803418803419, 0.08424908424908426, -0.21875, -0.0625, 0.0625, 0.0
23, -0.029304029304029304, -0.040293040293040296, 0.26495726495726496, -0.21875, 0.0625, 0.1875, 0.0
24, 0.14774114774114774, -0.14285714285714285, 0.3308913308913309, -0.25, 0.0, 0.21875, 0.0
25, 0.03785103785103785, -0.017094017094017096, 0.45665445665445664, -0.1875, -0.0625, 0.25, 0.0
26, -0.07936507936507936, -0.02564102564102564, 0.536019536019536, -0.09375, -0.03125, 0.25, 0.0
27, 0.23443223443223443, -0.14163614163614163, 0.5006105006105006, 0.0, 0.0, 0.25, 0.0
28, 0.3443223443223443, -0.22832722832722832, 0.47741147741147744, 0.0, -0.03125, 0.21875, 0.0
29, 0.557997557997558, -0.09157509157509157, 0.5665445665445665, 0.0, -0.125, 0.15625, 0.0
30, 0.4590964590964591, -0.008547008547008548, 0.47741147741147744, 0.0, -0.25, 0.0625, 0.0
31, 0.5128205128205128, 0.01098901098901099, 0.4139194139194139, 0.0625, -0.3125, 0.03125, 0.0
32, 0.3882783882783883, -0.04395604395604396, 0.16605616605616605, 0.125, -0.375, 0.0, 0.0
33, 0.24297924297924298, 0.05372405372405373, 0.03296703296703297, 0.125, -0.34375, 0.0, 0.0
34, 0.11721611721611722, 0.07203907203907203, -0.02564102564102564, 0.09375, -0.28125, -0.0625, 0.0
35, 0.05616605616605617, 0.2039072039072039, 0.09157509157509157, 0.09375, -0.25, -0.09375, 0.0
36, -0.029304029304029304, 0.07814407814407814, 0.10866910866910867, 0.0625, -0.25, -0.09375, 0.0
37, -0.09035409035409035, 0.26373626373626374, 0.14163614163614163, 0.0, -0.3125, 0.09375, 0.0
38, -0.358974358974359, 0.42246642246642246, 0.21978021978021978, 0.0, -0.21875, 0.21875, 0.0
39, -0.2503052503052503, 0.358974358974359, 0.3907203907203907, 0.0625, -0.125, 0.21875, 0.0
40, -0.03540903540903541, 0.14041514041514042, 0.08058608058608059, 0.09375, -0.09375, 0.1875, 0.0
41, 0.24664224664224665, -0.3516483516483517, -0.3797313797313797, -0.15625, -0.3125, 0.40625, 0.0
42, 0.2148962148962149, -0.014652014652014652, -0.6495726495726496, -0.34375, -0.3125, 0.40625, 0.0
43, 0.14285714285714285, 0.5128205128205128, -0.6532356532356532, -0.21875, -0.03125, 0.21875, 0.0
44, -0.04884004884004884, 0.36996336996337, -0.5433455433455433, 0.1875, 0.3125, 0.1875, 0.0
45, 0.3614163614163614, 0.20512820512820512, -0.46153846153846156, 0.3125, 0.5625, 0.0625, 0.0
46, 0.21978021978021978, -0.07203907203907203, -0.3992673992673993, 0.375, 0.53125, -0.0625, 0.0
47, 0.2490842490842491, -0.01221001221001221, -0.557997557997558, 0.25, 0.40625, -0.21875, 0.0
48, 0.08424908424908426, 0.015873015873015872, -0.3968253968253968, 0.09375, 0.15625, -0.25, 0.0
49, -0.27228327228327226, 0.2271062271062271, -0.12576312576312576, 0.0, 0.0, -0.25, 0.0
50, -0.3247863247863248, 0.13064713064713065, -0.07326007326007326, 0.0, -0.0625, -0.25, 0.0
51, -0.13797313797313798, -0.02564102564102564, -0.15506715506715507, -0.0625, -0.15625, -0.25, 0.0
52, -0.054945054945054944, -0.14896214896214896, -0.2442002442002442, -0.125, -0.25, -0.3125, 0.0
53, -0.12332112332112333, -0.028083028083028084, -0.34065934065934067, -0.21875, -0.34375, -0.375, 0.0
54, -0.2087912087912088, 0.009768009768009768, -0.15873015873015872, -0.21875, -0.3125, -0.25, 0.0
55, -0.01098901098901099, -0.018315018315018316, 0.199023199023199, -0.1875, -0.125, -0.1875, 0.0
56, 0.5873015873015873, -0.231990231990232, 0.35653235653235654, -0.15625, -0.21875, -0.25, 0.0
57, 0.7289377289377289, -0.3162393162393162, 0.3528693528693529, -0.15625, -0.4375, -0.40625, 0.0
58, 0.6862026862026862, -0.34798534798534797, 0.336996336996337, -0.1875, -0.53125, -0.5625, 0.0
59, 0.3028083028083028, -0.4725274725274725, 0.12087912087912088, -0.25, -0.5, -0.5625, 0.0
60, 0.09768009768009768, -0.019536019536019536, -0.02564102564102564, -0.1875, -0.3125, -0.46875, 0.0
61, 0.001221001221001221, -0.002442002442002442, 0.05860805860805861, -0.03125, -0.09375, -0.4375, 0.0
62, 0.4236874236874237, 0.1746031746031746, 0.05982905982905983, 0.1875, -0.0625, -0.5, 0.0
63, -3.371184371184371, 1.225885225885226, -1.271062271062271, 1.3125, 0.625, -1.8125, 0.0
64, -3.2527472527472527, 1.089133089133089, -1.5811965811965811, 1.28125, 0.8125, -1.71875, 0.0
65, -2.5811965811965814, 0.9438339438339438, -2.0317460317460316, 1.28125, 1.03125, -1.625, 0.0
66, -1.2087912087912087, 0.9328449328449329, -2.5213675213675213, 1.3125, 0.75, -1.6875, 0.0
67, -1.6007326007326008, 0.9218559218559218, -3.21978021978022, 1.03125, 0.21875, -1.90625, 0.0
68, -4.625152625152626, 1.5811965811965811, -2.5067155067155067, 0.5, 0.3125, -1.78125, 0.0
69, -3.645909645909646, 2.173382173382173, -1.6434676434676434, 0.5625, 0.78125, -1.4375, 0.0
70, -3.0952380952380953, 1.63003663003663, -1.3553113553113554, 0.8125, 0.90625, -1.1875, 0.0
71, -2.8595848595848596, 0.9487179487179487, -1.2234432234432235, 0.8125, 0.75, -1.15625, 0.0
72, -3.6398046398046398, 1.575091575091575, -1.3101343101343101, 0.53125, 0.4375, -1.15625, 0.0
73, -4.263736263736264, 2.213675213675214, -1.4261294261294262, 0.375, 0.25, -1.0, 0.0
74, -4.744810744810745, 2.862026862026862, -1.2588522588522588, 0.375, 0.375, -0.65625, 0.0
75, -4.184371184371185, 2.7264957264957266, -1.216117216117216, 0.5, 0.59375, -0.28125, 0.0
76, -2.559218559218559, 1.9059829059829059, -1.4407814407814408, 0.4375, 0.5, -0.0625, 0.0
77, -1.9951159951159951, 1.496947496947497, -1.586080586080586, 0.1875, 0.1875, -0.0625, 0.0
78, -1.7912087912087913, 1.5103785103785103, -1.4761904761904763, 0.0, 0.0, -0.125, 0.0
79, -1.2735042735042734, 1.5335775335775337, -1.242979242979243, 0.0, 0.0625, 0.0625, 0.0
80, -0.6898656898656899, 0.8986568986568987, -0.9963369963369964, 0.0625, 0.15625, 0.15625, 0.0
81, 0.03540903540903541, 0.07081807081807082, -0.73992673992674, 0.0, 0.15625, 0.1875, 0.0
82, 0.23687423687423687, -0.09401709401709402, -0.2087912087912088, -0.0625, 0.09375, 0.125, 0.0
83, 0.3724053724053724, -0.14652014652014653, 0.23809523809523808, -0.03125, 0.03125, 0.0625, 0.0
84, 0.2258852258852259, -0.20146520146520147, 0.5628815628815629, 0.0, 0.0, 0.03125, 0.0
85, 0.040293040293040296, -0.07203907203907203, 0.6434676434676435, 0.09375, 0.03125, 0.03125, 0.0
86, -0.04151404151404151, -0.20757020757020758, 0.4468864468864469, 0.125, 0.0625, 0.03125, 0.0
87, -0.06715506715506715, -0.07203907203907203, 0.3711843711843712, 0.15625, 0.125, 0.0, 0.0
88, -0.040293040293040296, 0.0989010989010989, 0.12698412698412698, 0.1875, 0.125, 0.0, 0.0
89, -0.05860805860805861, 0.13797313797313798, -0.013431013431013432, 0.15625, 0.03125, 0.0, 0.0
90, 0.06471306471306472, 0.10744810744810745, -0.28205128205128205, 0.125, -0.03125, -0.0625, 0.0
91, -0.3125763125763126, 0.18681318681318682, -0.608058608058608, 0.09375, 0.0, -0.03125, 0.0
92, -0.047619047619047616, 0.11721611721611722, -0.7032967032967034, 0.0625, 0.0625, 0.0, 0.0
93, 0.16727716727716727, 0.052503052503052504, -0.6007326007326007, 0.03125, 0.0625, 0.0, 0.0
94, 0.026862026862026864, 0.08424908424908426, -0.4004884004884005, 0.0, 0.03125, -0.03125, 0.0
95, -0.12942612942612944, 0.0695970695970696, -0.2039072039072039, 0.0, 0.0625, 0.0, 0.0
96, -0.1794871794871795, 0.07081807081807082, -0.028083028083028084, 0.03125, 0.09375, 0.0, 0.0
97, -0.19291819291819293, 0.11965811965811966, 0.054945054945054944, 0.0625, 0.125, 0.0, 0.0
98, -0.052503052503052504, -0.045177045177045176, 0.01098901098901099, 0.09375, 0.09375, 0.0, 0.0
99, -0.018315018315018316, -0.018315018315018316, -0.007326007326007326, 0.03125, 0.03125, 0.0, 0.0
100, -0.006105006105006105, 0.003663003663003663, -0.04395604395604396, 0.0, 0.0, 0.0, 0.0
101, 0.03663003663003663, 0.06105006105006105, -0.029304029304029304, 0.0, -0.03125, -0.0625, 0.0
102, -0.03907203907203907, 0.018315018315018316, -0.2087912087912088, 0.0, -0.0625, 0.0, 0.0
103, -0.04884004884004884, 0.047619047619047616, -0.2661782661782662, 0.0, 0.0, 0.0625, 0.0
104, 0.06349206349206349, 0.026862026862026864, -0.3516483516483517, 0.0, 0.0625, 0.09375, 0.0
105, 0.09157509157509157, 0.14163614163614163, -0.21611721611721613, 0.03125, 0.09375, 0.09375, 0.0
106, 0.19291819291819293, 0.10989010989010989, -0.11355311355311355, 0.09375, 0.03125, 0.0625, 0.0
107, 0.09768009768009768, 0.026862026862026864, -0.0989010989010989, 0.125, 0.0, 0.0625, 0.0
108, -0.009768009768009768, -0.2686202686202686, -0.23687423687423687, 0.0625, 0.0, 0.0, 0.0
109, 0.03540903540903541, -0.09401709401709402, -0.23443223443223443, 0.0, -0.03125, -0.03125, 0.0
110, 0.1221001221001221, 0.05860805860805861, -0.2222222222222222, 0.0, -0.0625, -0.03125, 0.0
111, -0.020757020757020756, 0.10989010989010989, -0.17094017094017094, 0.0, -0.03125, -0.03125, 0.0
112, -0.06471306471306472, 0.08913308913308914, -0.21978021978021978, 0.03125, 0.0, 0.0, 0.0
113, -0.015873015873015872, 0.07814407814407814, -0.17704517704517705, 0.03125, 0.0, 0.0, 0.0
114, -0.03785103785103785, 0.020757020757020756, -0.08791208791208792, 0.0, 0.0, 0.0, 0.0
115, 0.08913308913308914, 0.013431013431013432, -0.11965811965811966, 0.0, -0.03125, 0.0, 0.0
116, 0.03540903540903541, 0.054945054945054944, -0.20024420024420025, 0.0, 0.0, 0.0, 0.0
117, 0.03540903540903541, 0.002442002442002442, -0.2026862026862027, 0.0, 0.03125, 0.0, 0.0
118, 0.14041514041514042, -0.02564102564102564, -0.24786324786324787, 0.0, 0.03125, 0.03125, 0.0
119, -0.007326007326007326, 0.004884004884004884, -0.231990231990232, -0.03125, 0.0, 0.03125, 0.0
120, -0.047619047619047616, 0.0695970695970696, -0.10500610500610501, -0.03125, 0.0, 0.0, 0.0
121, -0.03663003663003663, 0.003663003663003663, -0.08791208791208792, 0.0, 0.03125, 0.03125, 0.0
122, 0.11477411477411477, -0.052503052503052504, -0.14041514041514042, 0.03125, 0.03125, 0.0, 0.0
123, 0.08302808302808302, -0.014652014652014652, -0.20512820512820512, 0.0, 0.0, 0.0, 0.0
124, -0.031746031746031744, 0.007326007326007326, -0.23687423687423687, -0.03125, -0.0625, -0.03125, 0.0
125, -0.07081807081807082, 0.017094017094017096, -0.15506715506715507, 0.0, 0.0, -0.03125, 0.0
126, 0.002442002442002442, 0.019536019536019536, -0.09645909645909646, 0.0, 0.0, -0.03125, 0.0
127, 0.014652014652014652, -0.031746031746031744, -0.04884004884004884, 0.0, 0.0, 0.0, 0.0
128, -0.026862026862026864, 0.04151404151404151, 0.009768009768009768, 0.0, 0.0, 0.0, 0.0
129, 0.028083028083028084, 0.017094017094017096, 0.01221001221001221, 0.0, 0.0, 0.0, 0.0
130, 0.013431013431013432, -0.018315018315018316, -0.12332112332112333, 0.0, 0.0, 0.0, 0.0
131, 0.018315018315018316, 0.03296703296703297, -0.10134310134310134, 0.0, 0.0, 0.0, 0.0
132, 0.01221001221001221, 0.017094017094017096, -0.1916971916971917, 0.0, 0.0, 0.0, 0.0
133, -0.001221001221001221, 0.018315018315018316, -0.11477411477411477, 0.0, 0.0, 0.0, 0.0
134, 0.026862026862026864, 0.040293040293040296, -0.1855921855921856, -0.03125, 0.0, 0.03125, 0.0
135, 0.007326007326007326, 0.07203907203907203, -0.1221001221001221, -0.03125, 0.0, 0.03125, 0.0
136, 0.03540903540903541, 0.050061050061050064, -0.17826617826617827, 0.0, 0.0, 0.03125, 0.0
137, 0.19536019536019536, 0.057387057387057384, -0.22344322344322345, 0.0, 0.0, 0.0, 0.0
138, 0.12698412698412698, -0.08913308913308914, -0.2625152625152625, 0.0, -0.03125, -0.03125, 0.0
139, 0.06105006105006105, 0.03296703296703297, -0.18803418803418803, 0.0, -0.03125, -0.0625, 0.0
140, -0.03418803418803419, 0.019536019536019536, -0.16971916971916973, 0.0, -0.03125, -0.09375, 0.0
141, 0.01221001221001221, -0.04884004884004884, -0.19413919413919414, 0.03125, 0.0, -0.09375, 0.0
142, 0.08669108669108669, -0.05860805860805861, -0.14774114774114774, 0.03125, 0.03125, -0.125, 0.0
143, -0.05372405372405373, -0.014652014652014652, -0.03296703296703297, 0.0, 0.03125, -0.15625, 0.0
144, -0.16727716727716727, 0.12454212454212454, 0.1452991452991453, 0.0, 0.03125, -0.125, 0.0
145, -0.003663003663003663, 0.05128205128205128, 0.1330891330891331, 0.03125, 0.03125, -0.125, 0.0
146, -0.0695970695970696, -0.07203907203907203, -0.029304029304029304, 0.03125, 0.0, -0.125, 0.0
147, -0.17582417582417584, 0.04151404151404151, -0.045177045177045176, 0.03125, 0.0, -0.125, 0.0
148, -0.12087912087912088, 0.0231990231990232, -0.031746031746031744, 0.03125, 0.0, -0.125, 0.0
149, 0.08058608058608059, 0.12087912087912088, -0.14163614163614163, 0.03125, -0.03125, -0.09375, 0.0
150, -0.018315018315018316, 0.12942612942612944, -0.28083028083028083, 0.125, 0.0, -0.125, 0.0
151, 0.12454212454212454, -0.08302808302808302, -0.39316239316239315, 0.09375, 0.0, -0.15625, 0.0
152, 0.03907203907203907, -0.004884004884004884, -0.43956043956043955, 0.03125, 0.0, -0.15625, 0.0
153, 0.017094017094017096, 0.052503052503052504, -0.31013431013431014, 0.0, 0.03125, -0.125, 0.0
154, 0.06837606837606838, 0.006105006105006105, -0.27106227106227104, -0.0625, 0.0, -0.0625, 0.0
155, 0.10012210012210013, 0.06593406593406594, -0.17582417582417584, -0.03125, 0.0, -0.09375, 0.0
156, 0.02564102564102564, 0.25396825396825395, 0.26495726495726496, 0.09375, -0.03125, -0.1875, 0.0
157, -0.09157509157509157, 0.008547008547008548, 0.001221001221001221, 0.125, -0.03125, -0.09375, 1.0
158, 0.2442002442002442, -0.27228327228327226, 0.0, 0.03125, 0.03125, -0.125, 1.0
159, -0.30036630036630035, -0.32967032967032966, -0.3333333333333333, -0.0625, 0.15625, -0.25, 1.0
160, 0.7301587301587301, 0.3492063492063492, 0.07936507936507936, 0.0625, 0.03125, -0.3125, 1.0
161, 0.1575091575091575, 0.06105006105006105, -0.17826617826617827, 0.09375, 0.09375, -0.40625, 1.0
162, 0.4004884004884005, 0.4065934065934066, -0.07326007326007326, 0.09375, 0.1875, -0.4375, 1.0
163, 0.09645909645909646, 0.7643467643467643, -0.3492063492063492, 0.15625, 0.09375, -0.46875, 1.0
164, -0.6556776556776557, 1.1282051282051282, -0.9365079365079365, 0.21875, 0.0, -0.5625, 1.0
165, -1.2905982905982907, 1.6752136752136753, -1.656898656898657, 0.28125, -0.03125, -0.65625, 1.0
166, -0.9597069597069597, 1.170940170940171, -2.2979242979242978, 0.1875, -0.21875, -0.78125, 1.0
167, -1.413919413919414, 1.2612942612942613, -2.7643467643467643, -0.09375, -0.5, -1.0625, 1.0
168, -3.203907203907204, 2.8595848595848596, -3.3724053724053724, -0.34375, -0.71875, -1.15625, 1.0
169, -6.411477411477412, 4.615384615384615, -4.462759462759463, -0.4375, -0.75, -0.9375, 1.0
170, -8.505494505494505, 6.072039072039072, -4.315018315018315, -0.5, -0.78125, -0.3125, 1.0
171, -9.172161172161172, 6.09035409035409, -4.56043956043956, -0.59375, -0.71875, 0.75, 1.0
172, -8.996336996336996, 5.323565323565323, -4.691086691086691, -0.75, -0.78125, 1.40625, 1.0
173, -9.048840048840049, 4.396825396825397, -4.759462759462759, -1.03125, -0.9375, 1.96875, 1.0
174, -8.390720390720391, 3.4761904761904763, -4.410256410256411, -1.21875, -1.1875, 2.46875, 1.0
175, -6.8791208791208796, 1.78998778998779, -4.289377289377289, -1.28125, -1.5625, 3.0, 1.0
176, -5.6471306471306475, -0.5885225885225885, -4.986568986568987, -1.46875, -1.875, 3.25, 1.0
177, -5.483516483516484, -2.943833943833944, -5.3638583638583635, -1.875, -1.96875, 3.40625, 1.0
178, -5.338217338217338, -4.112332112332112, -4.493284493284493, -2.15625, -1.96875, 3.6875, 1.0
179, -4.582417582417582, -5.452991452991453, -3.227106227106227, -2.0625, -1.96875, 3.96875, 1.0
180, -3.462759462759463, -7.106227106227106, -2.3272283272283274, -1.71875, -2.03125, 4.1875, 1.0
181, -3.1904761904761907, -8.577533577533577, -1.6642246642246643, -1.34375, -2.0, 4.40625, 1.0
182, -3.675213675213675, -10.076923076923077, -1.5091575091575091, -1.125, -1.59375, 4.59375, 1.0
183, -1.452991452991453, -11.300366300366301, -0.7008547008547008, -0.78125, -0.875, 4.6875, 1.0
184, -0.4517704517704518, -11.538461538461538, -0.3492063492063492, -0.5625, -0.9375, 4.53125, 1.0
185, -0.3504273504273504, -10.94017094017094, 0.3333333333333333, -0.40625, -1.0, 4.21875, 1.0
186, -0.514041514041514, -10.205128205128204, 1.1538461538461537, -0.21875, -0.875, 3.96875, 1.0
187, 0.28815628815628813, -9.571428571428571, 1.783882783882784, -0.0625, -0.5625, 3.75, 1.0
188, 1.7545787545787546, -8.3992673992674, 2.0586080586080584, 0.09375, -0.46875, 3.40625, 1.0
189, 2.2063492063492065, -7.829059829059829, 1.6422466422466422, 0.21875, -0.75, 2.9375, 1.0
190, 1.6214896214896215, -7.190476190476191, 1.2283272283272284, 0.15625, -1.03125, 2.46875, 1.0
191, 2.2454212454212454, -5.885225885225886, 1.474969474969475, -0.03125, -1.03125, 2.09375, 1.0
192, 3.244200244200244, -4.572649572649572, 1.5360195360195361, 0.0, -1.1875, 1.84375, 1.0
193, 3.5103785103785103, -3.9365079365079363, 0.6324786324786325, 0.25, -1.40625, 1.5, 1.0
194, 3.230769230769231, -3.838827838827839, -0.5018315018315018, 0.28125, -1.3125, 1.0625, 1.0
195, 3.5323565323565322, -2.6483516483516483, -1.0708180708180708, 0.21875, -1.09375, 0.84375, 1.0
196, 3.758241758241758, -2.0207570207570207, -1.474969474969475, 0.1875, -0.90625, 0.71875, 1.0
197, 3.724053724053724, -1.4334554334554335, -1.9865689865689866, 0.1875, -0.78125, 0.53125, 1.0
198, 3.4444444444444446, -0.9633699633699634, -2.0671550671550674, 0.15625, -0.5625, 0.4375, 1.0
199, 2.9536019536019538, -0.6544566544566545, -2.0244200244200243, 0.1875, -0.125, 0.375, 1.0
200, 2.8180708180708183, -0.4163614163614164, -1.8693528693528694, 0.1875, 0.15625, 0.28125, 1.0
201, 2.4652014652014653, -0.41514041514041516, -1.7435897435897436, 0.09375, 0.15625, 0.125, 1.0
202, 1.678876678876679, -0.06837606837606838, -1.4981684981684982, 0.0, 0.09375, 0.0, 1.0
203, 0.6691086691086691, 0.10744810744810745, -1.1489621489621489, -0.03125, 0.21875, 0.0, 1.0
204, 0.6886446886446886, 0.3443223443223443, -0.4590964590964591, 0.0, 0.25, -0.03125, 1.0
205, 0.6275946275946276, 0.10989010989010989, -0.3308913308913309, 0.03125, 0.0625, -0.1875, 1.0
206, -0.6813186813186813, -0.026862026862026864, -0.9352869352869353, -0.0625, -0.0625, -0.34375, 1.0
207, -1.4456654456654456, 0.5262515262515263, -0.5934065934065934, -0.15625, 0.0625, -0.25, 1.0
208, -1.2295482295482296, 0.6605616605616605, -0.05372405372405373, -0.15625, 0.1875, -0.09375, 1.0
209, -0.7362637362637363, 0.31013431013431014, 0.35653235653235654, -0.0625, 0.15625, -0.03125, 1.0
210, -0.6825396825396826, 0.10256410256410256, 0.38583638583638585, 0.0, 0.03125, -0.03125, 1.0
211, -0.7045177045177046, -0.019536019536019536, 0.1514041514041514, 0.03125, 0.0, -0.03125, 1.0
212, -0.31135531135531136, -0.2600732600732601, 0.052503052503052504, 0.03125, 0.0, -0.03125, 1.0
213, -0.27106227106227104, -0.07692307692307693, -0.05128205128205128, -0.03125, -0.03125, -0.0625, 1.0
214, -0.4700854700854701, 0.09035409035409035, -0.12454212454212454, -0.03125, -0.09375, -0.09375, 1.0
215, -0.7765567765567766, 0.16971916971916973, -0.15384615384615385, 0.0, -0.0625, -0.03125, 1.0
216, -0.612942612942613, 0.0231990231990232, 0.0695970695970696, 0.03125, 0.0, 0.0625, 1.0
217, -0.02197802197802198, -0.27106227106227104, 0.20757020757020758, 0.09375, 0.125, 0.0625, 1.0
218, 0.36507936507936506, -0.43956043956043955, 0.2039072039072039, 0.0625, 0.0, 0.0, 1.0
219, 0.050061050061050064, -0.326007326007326, 0.10744810744810745, 0.0, -0.125, -0.0625, 1.0
220, -0.5433455433455433, 0.13064713064713065, 0.020757020757020756, 0.0, -0.0625, -0.03125, 1.0
221, -0.31013431013431014, 0.15262515262515264, -0.06105006105006105, 0.0, -0.03125, 0.0, 1.0
222, 0.026862026862026864, 0.01221001221001221, -0.10378510378510379, 0.0, 0.0, 0.0, 1.0
223, 0.10989010989010989, 0.1330891330891331, -0.20757020757020758, 0.0625, -0.03125, 0.0, 1.0
224, -0.28205128205128205, 0.0695970695970696, -0.3308913308913309, 0.0625, -0.03125, 0.0, 1.0
225, -0.06227106227106227, 0.15262515262515264, -0.24664224664224665, 0.0625, -0.03125, 0.03125, 1.0
226, 0.045177045177045176, 0.12087912087912088, -0.28815628815628813, 0.03125, -0.03125, 0.03125, 1.0
227, 0.1391941391941392, -0.08669108669108669, -0.4004884004884005, 0.0, 0.0, 0.03125, 1.0
228, 0.18192918192918192, -0.14407814407814407, -0.2979242979242979, -0.03125, 0.09375, 0.0625, 1.0
229, 0.23443223443223443, -0.2967032967032967, -0.2686202686202686, -0.34375, 0.15625, 0.09375, 1.0
230, 0.1282051282051282, 0.12332112332112333, -0.42002442002442003, -0.5, 0.15625, 0.09375, 0.0
231, 0.6141636141636142, -0.27228327228327226, -0.045177045177045176, -0.375, 0.21875, 0.0625, 0.0
232, -0.014652014652014652, -0.1575091575091575, 0.17094017094017094, -0.3125, 0.125, 0.0625, 0.0
233, 0.047619047619047616, 0.05616605616605617, 0.33455433455433453, -0.1875, 0.0625, 0.03125, 0.0
234, 0.07692307692307693, -0.21123321123321123, 0.17216117216117216, -0.03125, 0.03125, 0.0, 0.0
235, 0.20512820512820512, -0.16971916971916973, 0.03540903540903541, 0.03125, 0.0, -0.0625, 0.0
236, 0.06593406593406594, -0.11721611721611722, -0.10500610500610501, 0.03125, -0.0625, -0.15625, 0.0
237, -0.10256410256410256, 0.11721611721611722, -0.22466422466422467, 0.0, -0.125, -0.1875, 0.0
238, -0.33577533577533575, 0.15018315018315018, -0.20634920634920634, 0.0, -0.09375, -0.15625, 0.0
239, -0.3418803418803419, 0.2844932844932845, -0.014652014652014652, 0.0, -0.03125, -0.03125, 0.0
240, 0.02197802197802198, 0.015873015873015872, -0.0989010989010989, 0.09375, 0.0625, 0.0, 0.0
241, 0.3601953601953602, -0.07326007326007326, -0.20024420024420025, 0.125, 0.03125, 0.0, 0.0
242, 0.2979242979242979, -0.17216117216117216, -0.358974358974359, 0.0625, 0.0, -0.09375, 0.0
243, -0.08058608058608059, -0.10500610500610501, -0.4188034188034188, -0.03125, 0.0, -0.0625, 0.0
244, -0.13675213675213677, -0.08669108669108669, -0.26495726495726496, -0.0625, 0.0625, -0.03125, 0.0
245, 0.21733821733821734, 0.01221001221001221, -0.018315018315018316, 0.0, 0.09375, -0.03125, 0.0
246, 0.8205128205128205, -0.40415140415140416, -0.28083028083028083, 0.0625, 0.0625, -0.03125, 0.0
247, 1.010989010989011, -0.9841269841269841, -0.6312576312576312, 0.0625, 0.15625, -0.15625, 0.0
248, 1.586080586080586, -1.4871794871794872, -0.8852258852258852, 0.03125, 0.34375, -0.3125, 0.0
249, 2.5177045177045176, -2.0, -0.9169719169719169, 0.03125, 0.46875, -0.5625, 0.0
250, 3.1172161172161172, -2.446886446886447, -1.0476190476190477, -0.03125, 0.5, -0.9375, 0.0
251, 2.9401709401709404, -2.8473748473748475, -1.05006105006105, -0.1875, 0.46875, -1.34375, 0.0
252, 2.391941391941392, -3.017094017094017, -0.9474969474969475, -0.25, 0.4375, -1.84375, 0.0
253, 0.2698412698412698, -3.8302808302808304, -0.7057387057387058, -0.375, 0.75, -2.0, 0.0
254, 0.221001221001221, -3.1697191697191696, 0.1916971916971917, -0.375, 1.28125, -2.0625, 0.0
255, 0.6800976800976801, -3.7264957264957266, 0.800976800976801, -0.125, 1.53125, -2.125, 0.0
256, 0.8656898656898657, -4.289377289377289, 1.078144078144078, 0.09375, 1.5625, -2.28125, 0.0
257, 0.7826617826617827, -4.43956043956044, 1.1855921855921856, 0.375, 1.5625, -2.6875, 0.0
258, 0.3907203907203907, -5.304029304029304, 0.9291819291819292, 0.53125, 1.40625, -3.15625, 0.0
259, -0.008547008547008548, -4.7374847374847375, 0.9230769230769231, 0.28125, 1.0625, -3.3125, 0.0
260, -0.811965811965812, -4.235653235653236, 0.9462759462759462, 0.0625, 0.6875, -3.4375, 0.0
261, -1.1953601953601953, -3.694749694749695, 1.1172161172161172, 0.0625, 0.46875, -3.625, 0.0
262, -1.7472527472527473, -2.8986568986568986, 1.1794871794871795, 0.25, 0.375, -3.8125, 0.0
263, -2.4676434676434678, -2.688644688644689, 0.5738705738705738, 0.5, 0.5, -3.8125, 0.0
264, -3.1623931623931623, -1.910866910866911, 0.2857142857142857, 0.40625, 0.59375, -3.21875, 0.0
265, -3.7875457875457874, -0.8107448107448108, 0.07326007326007326, 0.59375, 0.96875, -2.96875, 0.0
266, -3.509157509157509, -0.4884004884004884, -0.13675213675213677, 0.90625, 1.21875, -2.71875, 0.0
267, -3.1294261294261294, -0.25274725274725274, -0.47985347985347987, 1.21875, 1.34375, -2.53125, 0.0
268, -3.612942612942613, -0.3724053724053724, -0.6312576312576312, 1.3125, 1.65625, -2.3125, 0.0
269, -3.1855921855921854, -0.5396825396825397, -0.6007326007326007, 1.34375, 1.875, -2.03125, 0.0
270, -2.3846153846153846, -0.007326007326007326, -0.8302808302808303, 1.4375, 1.6875, -2.0, 0.0
271, -1.8644688644688645, 0.32112332112332115, -1.7326007326007327, 1.4375, 0.96875, -2.3125, 0.0
272, -2.3614163614163615, -0.4358974358974359, -2.8241758241758244, 0.9375, 0.125, -2.59375, 0.0
273, -4.442002442002442, 0.28815628815628813, -2.8241758241758244, 0.40625, 0.0, -2.5625, 0.0
274, -5.048840048840049, 1.0293040293040292, -2.3003663003663, 0.375, 0.40625, -2.21875, 0.0
275, -4.51037851037851, 1.3736263736263736, -1.5873015873015872, 0.75, 1.03125, -1.90625, 0.0
276, -2.032967032967033, -0.39438339438339437, -1.6312576312576312, 1.03125, 1.21875, -1.8125, 0.0
277, -2.866910866910867, 0.02442002442002442, -1.9658119658119657, 0.65625, 0.5, -1.84375, 0.0
278, -4.25030525030525, 1.0244200244200243, -1.927960927960928, 0.25, 0.0625, -1.8125, 0.0
279, -4.893772893772894, 1.7374847374847375, -1.7606837606837606, 0.15625, 0.0625, -1.625, 0.0
280, -5.562881562881563, 1.9047619047619047, -1.4114774114774116, 0.1875, 0.34375, -1.28125, 0.0
281, -4.308913308913309, 1.8034188034188035, -0.8998778998778999, 0.28125, 0.625, -0.90625, 0.0
282, -3.3015873015873014, 1.465201465201465, -0.47985347985347987, 0.25, 0.5, -0.59375, 0.0
283, -2.3724053724053724, 1.4273504273504274, -0.47619047619047616, 0.25, 0.28125, -0.375, 0.0
284, -2.0805860805860807, 1.1477411477411477, -0.6776556776556777, 0.3125, 0.15625, -0.25, 0.0
285, -0.9914529914529915, 0.9181929181929182, -0.9706959706959707, 0.3125, 0.09375, -0.1875, 0.0
286, -0.2905982905982906, 0.2844932844932845, -1.216117216117216, 0.28125, 0.0, -0.1875, 0.0
287, -0.21978021978021978, 0.23443223443223443, -0.8766788766788767, 0.125, 0.0, -0.375, 0.0
288, -0.2271062271062271, 0.3553113553113553, -0.5054945054945055, 0.09375, 0.0625, -0.34375, 0.0
289, -0.14774114774114774, 0.4590964590964591, -0.23809523809523808, 0.1875, 0.125, -0.25, 0.0
290, -0.042735042735042736, 0.11355311355311355, -0.24053724053724054, 0.21875, 0.15625, -0.15625, 0.0
291, 0.04395604395604396, -0.07936507936507936, -0.2258852258852259, 0.125, 0.15625, -0.1875, 0.0
292, -0.0989010989010989, 0.07692307692307693, -0.1514041514041514, 0.09375, 0.09375, -0.21875, 0.0
293, -0.008547008547008548, 0.22344322344322345, -0.10378510378510379, 0.09375, 0.0, -0.21875, 0.0
294, -0.3504273504273504, 0.32112332112332115, -0.2222222222222222, 0.125, 0.0, -0.125, 0.0
295, -0.41514041514041516, 0.3504273504273504, -0.5067155067155067, 0.125, 0.03125, -0.03125, 0.0
296, -0.05860805860805861, -0.07203907203907203, -0.7912087912087912, 0.03125, 0.0625, 0.0, 0.0
297, 0.2039072039072039, -0.06593406593406594, -0.7753357753357754, -0.03125, 0.09375, -0.03125, 0.0
298, 0.4517704517704518, 0.07326007326007326, -0.5811965811965812, 0.0, 0.0625, -0.09375, 0.0
299, 0.2148962148962149, 0.014652014652014652, -0.17216117216117216, 0.0, 0.0, -0.125, 0.0
300, 0.019536019536019536, -0.007326007326007326, -0.16117216117216118, 0.0, 0.03125, -0.0625, 0.0
301, 0.23076923076923078, -0.15873015873015872, -0.15873015873015872, -0.03125, 0.0625, 0.0, 0.0
302, 0.09157509157509157, -0.10012210012210013, -0.002442002442002442, -0.03125, 0.0625, -0.0625, 0.0
303, 0.05982905982905983, 0.017094017094017096, 0.16727716727716727, 0.0, 0.03125, -0.09375, 0.0
304, -0.08180708180708181, -0.17094017094017094, 0.18681318681318682, 0.03125, 0.0, -0.09375, 0.0
305, 0.009768009768009768, -0.12576312576312576, 0.18803418803418803, 0.0, -0.03125, -0.09375, 0.0
306, 0.0757020757020757, -0.09523809523809523, 0.003663003663003663, 0.0, -0.0625, -0.125, 0.0
307, 0.01098901098901099, -0.018315018315018316, -0.1330891330891331, 0.0, -0.0625, -0.15625, 0.0
308, -0.029304029304029304, 0.08669108669108669, -0.12576312576312576, 0.03125, 0.0, -0.125, 0.0
309, 0.017094017094017096, 0.019536019536019536, -0.21978021978021978, 0.09375, 0.03125, -0.125, 0.0
310, -0.029304029304029304, 0.02197802197802198, -0.1794871794871795, 0.09375, 0.0625, -0.125, 0.0
311, 0.029304029304029304, 0.006105006105006105, -0.0927960927960928, 0.03125, 0.0625, -0.15625, 0.0
312, 0.2026862026862027, 0.0989010989010989, 0.013431013431013432, 0.03125, -0.03125, -0.21875, 0.0
313, -0.21611721611721613, 0.14163614163614163, 0.03296703296703297, 0.03125, -0.0625, -0.21875, 0.0
314, -0.21855921855921856, 0.15384615384615385, 0.045177045177045176, 0.09375, 0.0, -0.1875, 0.0
315, -0.398046398046398, 0.0927960927960928, 0.06227106227106227, 0.125, 0.0625, -0.15625, 0.0
316, -0.10500610500610501, 0.007326007326007326, 0.14163614163614163, 0.15625, 0.0625, -0.125, 0.0
317, 0.27106227106227104, 0.2612942612942613, -0.01098901098901099, 0.15625, 0.0, -0.09375, 0.0
318, -0.12087912087912088, 0.13553113553113552, -0.41025641025641024, 0.125, -0.03125, -0.125, 0.0
319, -0.003663003663003663, 0.2258852258852259, -0.525030525030525, 0.09375, -0.03125, -0.125, 0.0
320, -0.020757020757020756, 0.03785103785103785, -0.6703296703296703, 0.0, 0.0, -0.15625, 0.0
321, -0.047619047619047616, 0.10012210012210013, -0.5518925518925519, 0.0, 0.0, -0.21875, 0.0
322, 0.042735042735042736, 0.13553113553113552, -0.45665445665445664, 0.0, 0.0, -0.1875, 1.0
323, -0.3162393162393162, 0.3052503052503053, -0.24786324786324787, -0.09375, 0.0625, 0.0, 1.0
324, -0.409035409035409, 0.796092796092796, -0.31746031746031744, -0.15625, 0.09375, 0.0625, 1.0
325, -0.026862026862026864, 1.0488400488400489, -0.5738705738705738, 0.0, 0.0625, -0.0625, 1.0
326, -0.9706959706959707, 1.0671550671550671, -1.568986568986569, 0.09375, -0.21875, -0.3125, 1.0
327, -4.434676434676435, 2.326007326007326, -3.1514041514041513, 0.0, -0.46875, -0.5625, 1.0
328, -8.338217338217339, 4.499389499389499, -3.84981684981685, -0.15625, -0.4375, -0.46875, 1.0
329, -10.47985347985348, 6.564102564102564, -3.9511599511599513, -0.21875, -0.34375, 0.15625, 1.0
330, -10.179487179487179, 5.896214896214897, -4.358974358974359, -0.21875, -0.40625, 0.90625, 1.0
331, -9.4993894993895, 4.94993894993895, -4.728937728937729, -0.40625, -0.96875, 1.4375, 1.0
332, -9.916971916971917, 3.9255189255189253, -5.487179487179487, -0.53125, -1.3125, 2.09375, 1.0
333, -8.738705738705738, 1.4090354090354091, -6.208791208791209, -0.78125, -1.21875, 2.8125, 1.0
334, -7.565323565323565, -0.5323565323565324, -6.329670329670329, -1.375, -1.15625, 3.53125, 1.0
335, -6.440781440781441, -2.462759462759463, -5.976800976800977, -1.71875, -1.21875, 3.9375, 1.0
336, -4.876678876678877, -4.721611721611722, -5.037851037851038, -2.0625, -1.5, 4.125, 1.0
337, -3.1172161172161172, -6.2344322344322345, -3.907203907203907, -2.15625, -2.0625, 4.09375, 1.0
338, -3.387057387057387, -7.642246642246643, -3.380952380952381, -2.15625, -2.40625, 4.0625, 1.0
339, -3.7106227106227108, -8.296703296703297, -2.4590964590964592, -1.875, -2.40625, 4.21875, 1.0
340, -3.612942612942613, -9.51037851037851, -1.768009768009768, -1.5, -2.125, 4.4375, 1.0
341, -3.1074481074481075, -10.37973137973138, -1.4676434676434675, -1.15625, -1.90625, 4.6875, 1.0
342, -2.912087912087912, -11.02930402930403, -1.5128205128205128, -0.90625, -1.65625, 4.71875, 1.0
343, -2.294261294261294, -11.312576312576313, -1.4761904761904763, -0.65625, -1.40625, 4.71875, 1.0
344, -2.0891330891330893, -11.053724053724054, -1.308913308913309, -0.40625, -0.96875, 4.6875, 1.0
345, -1.4847374847374848, -10.68009768009768, -0.8400488400488401, -0.3125, -0.46875, 4.46875, 1.0
346, 1.1746031746031746, -9.384615384615385, 1.1123321123321124, -0.1875, -0.3125, 4.1875, 1.0
347, 1.5189255189255189, -8.191697191697191, 2.148962148962149, -0.09375, -0.53125, 3.84375, 1.0
348, 1.2087912087912087, -7.488400488400488, 2.652014652014652, 0.03125, -0.71875, 3.46875, 1.0
349, 2.3785103785103785, -6.551892551892552, 2.6996336996337, 0.15625, -0.90625, 3.09375, 1.0
350, 3.3772893772893773, -5.971916971916972, 2.452991452991453, 0.25, -1.28125, 2.5625, 1.0
351, 3.474969474969475, -5.190476190476191, 1.15018315018315, 0.34375, -1.8125, 2.1875, 1.0
352, 3.6324786324786325, -4.9523809523809526, -0.63003663003663, 0.5, -2.0625, 1.90625, 1.0
353, 3.442002442002442, -3.7252747252747254, -2.432234432234432, 0.5625, -1.84375, 1.71875, 1.0
354, 3.2967032967032965, -3.496947496947497, -3.10989010989011, 0.625, -1.0, 1.625, 1.0
355, 3.877899877899878, -3.1941391941391943, -2.142857142857143, 0.5625, -0.0625, 1.5, 1.0
356, 5.515262515262515, -3.1855921855921854, -0.9963369963369964, 0.4375, 0.15625, 1.25, 1.0
357, 5.78021978021978, -2.8815628815628815, -0.9316239316239316, 0.1875, -0.46875, 0.46875, 1.0
358, 3.365079365079365, -1.750915750915751, -1.133089133089133, 0.09375, -0.3125, 0.21875, 1.0
359, 1.9694749694749696, -0.8315018315018315, -1.0842490842490842, 0.1875, 0.15625, 0.15625, 1.0
360, 2.421245421245421, -0.7228327228327228, -0.6935286935286935, 0.1875, 0.1875, 0.0, 1.0
361, 1.9633699633699633, -0.4932844932844933, -0.8400488400488401, 0.0625, -0.09375, -0.1875, 1.0
362, 0.6471306471306472, 0.09768009768009768, -0.7228327228327228, -0.03125, -0.1875, -0.28125, 1.0
363, -0.11721611721611722, 0.4163614163614164, -0.5811965811965812, -0.03125, -0.09375, -0.25, 1.0
364, -0.48473748473748474, 0.4993894993894994, -0.45054945054945056, 0.0, 0.0, -0.15625, 1.0
365, -0.37606837606837606, 0.5518925518925519, -0.4261294261294261, 0.03125, 0.0, -0.09375, 1.0
366, -0.06593406593406594, 0.3724053724053724, -0.4981684981684982, 0.0625, 0.0, -0.0625, 1.0
367, 0.15873015873015872, 0.23931623931623933, -0.6117216117216118, 0.0, -0.03125, -0.09375, 1.0
368, 0.14896214896214896, 0.14896214896214896, -0.5421245421245421, 0.0, 0.0, -0.125, 1.0
369, -0.2039072039072039, 0.04151404151404151, -0.31868131868131866, 0.0, -0.03125, -0.15625, 1.0
370, -0.25396825396825395, -0.01098901098901099, -0.26373626373626374, 0.0, 0.0, -0.09375, 1.0
371, -0.1452991452991453, 0.003663003663003663, -0.0463980463980464, -0.03125, 0.0625, -0.03125, 1.0
372, 0.019536019536019536, -0.14285714285714285, 0.08669108669108669, -0.03125, 0.03125, -0.03125, 1.0
373, -0.042735042735042736, -0.08180708180708181, 0.047619047619047616, -0.03125, -0.03125, -0.03125, 1.0
374, -0.21245421245421245, -0.23931623931623933, 0.05128205128205128, 0.03125, 0.0, -0.03125, 1.0
375, -0.02442002442002442, -0.20757020757020758, 0.08424908424908426, 0.09375, 0.0625, -0.03125, 1.0
376, -0.026862026862026864, -0.12576312576312576, -0.02442002442002442, 0.0, 0.0, -0.03125, 1.0
377, -0.03907203907203907, 0.03296703296703297, -0.12087912087912088, -0.03125, -0.03125, -0.03125, 1.0
378, 0.0463980463980464, -0.045177045177045176, -0.11843711843711843, 0.0, -0.03125, -0.03125, 1.0
379, 0.08913308913308914, 0.030525030525030524, 0.020757020757020756, 0.09375, -0.0625, -0.03125, 1.0
380, 0.0757020757020757, -0.014652014652014652, -0.05128205128205128, 0.125, -0.0625, -0.0625, 1.0
381, 0.009768009768009768, -0.17582417582417584, -0.5238095238095238, 0.0, -0.09375, -0.0625, 1.0
382, -0.17826617826617827, -0.06105006105006105, -0.6935286935286935, -0.125, 0.0, -0.03125, 1.0
383, -0.20757020757020758, 0.3492063492063492, -0.4603174603174603, -0.0625, 0.125, 0.03125, 1.0
384, -0.13675213675213677, 0.35775335775335776, -0.24297924297924298, 0.03125, 0.25, 0.0625, 1.0
385, 0.15506715506715507, -0.057387057387057384, 0.07448107448107448, 0.09375, 0.1875, 0.0625, 1.0
386, 0.32112332112332115, -0.12942612942612944, -0.04151404151404151, 0.03125, 0.0625, 0.0, 1.0
387, 0.21367521367521367, -0.23687423687423687, -0.18315018315018314, -0.03125, 0.0, 0.0, 1.0
388, 0.04884004884004884, -0.27594627594627597, -0.34798534798534797, -0.1875, 0.0, 0.0, 0.0
389, -0.1330891330891331, -0.028083028083028084, -0.38095238095238093, -0.34375, 0.0625, 0.0625, 0.0
390, -0.833943833943834, 0.5934065934065934, -0.21245421245421245, -0.21875, 0.15625, 0.125, 0.0
391, 0.11477411477411477, -0.07692307692307693, 0.08302808302808302, -0.21875, 0.09375, 0.125, 0.0
392, 0.2844932844932845, -0.18192918192918192, 0.20146520146520147, -0.09375, 0.0, 0.0, 0.0
393, 0.2796092796092796, -0.24175824175824176, 0.03663003663003663, 0.0, -0.03125, -0.0625, 0.0
394, 0.3785103785103785, -0.3663003663003663, -0.1794871794871795, 0.0, -0.09375, -0.0625, 0.0
395, 0.7252747252747253, -0.7582417582417582, -0.43345543345543347, 0.0, -0.03125, -0.0625, 0.0
396, 1.181929181929182, -1.0683760683760684, -0.5665445665445665, 0.0, 0.03125, -0.0625, 0.0
397, 1.774114774114774, -1.435897435897436, -0.5628815628815629, 0.0, 0.1875, -0.1875, 0.0
398, 2.601953601953602, -2.012210012210012, -0.6092796092796092, 0.0625, 0.3125, -0.4375, 0.0
399, 2.7094017094017095, -2.694749694749695, -0.8327228327228328, 0.0625, 0.40625, -0.8125, 0.0
400, 2.241758241758242, -2.6373626373626373, -0.8815628815628815, -0.0625, 0.40625, -1.15625, 0.0
401, 1.6373626373626373, -2.385836385836386, -0.746031746031746, -0.21875, 0.46875, -1.40625, 0.0
402, 1.297924297924298, -2.4053724053724053, -0.590964590964591, -0.28125, 0.59375, -1.5625, 0.0
403, 1.297924297924298, -2.7484737484737485, -0.5934065934065934, -0.21875, 0.75, -1.71875, 0.0
404, 1.1794871794871795, -2.8034188034188032, -0.3797313797313797, -0.15625, 1.03125, -2.0, 0.0
405, 0.6495726495726496, -3.385836385836386, -0.23565323565323565, -0.1875, 1.15625, -2.15625, 0.0
406, 0.6068376068376068, -3.58974358974359, -0.029304029304029304, -0.25, 1.1875, -2.3125, 0.0
407, 0.6398046398046398, -3.1684981684981683, 0.5311355311355311, -0.25, 1.0625, -2.6875, 0.0
408, 0.3089133089133089, -3.4822954822954824, 0.8315018315018315, -0.1875, 0.8125, -3.09375, 0.0
409, -0.15995115995115994, -3.32967032967033, 0.9401709401709402, -0.09375, 0.65625, -3.34375, 0.0
410, -1.2405372405372406, -4.037851037851038, 0.43223443223443225, -0.1875, 0.59375, -3.28125, 0.0
411, -1.6288156288156288, -3.167277167277167, 0.42124542124542125, -0.3125, 0.5625, -3.125, 0.0
412, -2.442002442002442, -2.8302808302808304, 0.8266178266178266, -0.25, 0.78125, -3.15625, 0.0
413, -2.2454212454212454, -2.1343101343101343, 1.308913308913309, 0.0625, 1.03125, -3.125, 0.0
414, -1.7252747252747254, -1.6324786324786325, 1.1611721611721613, 0.53125, 1.1875, -3.15625, 0.0
415, -1.9987789987789988, -2.255189255189255, 0.8913308913308914, 0.71875, 1.28125, -2.875, 0.0
416, -2.382173382173382, -1.6984126984126984, 1.2405372405372406, 0.8125, 1.65625, -2.65625, 0.0
417, -1.0757020757020757, -0.9597069597069597, 0.5506715506715507, 1.15625, 1.71875, -2.71875, 0.0
418, -1.010989010989011, -1.4981684981684982, -0.08424908424908426, 1.46875, 1.3125, -3.3125, 0.0
419, -1.8608058608058609, -2.5225885225885225, -1.0305250305250304, 1.3125, 0.90625, -3.78125, 0.0
420, -3.398046398046398, -1.3113553113553114, -1.1733821733821734, 0.53125, 0.34375, -3.125, 0.0
421, -4.4493284493284495, -0.20512820512820512, -1.1013431013431014, 0.375, 0.6875, -2.8125, 0.0
422, -3.52991452991453, 0.28083028083028083, -0.9926739926739927, 0.6875, 1.15625, -2.71875, 0.0
423, -3.0781440781440783, -0.13553113553113552, -1.4713064713064714, 0.96875, 1.3125, -2.625, 0.0
424, -2.778998778998779, -0.5702075702075702, -1.8656898656898657, 1.0625, 1.3125, -2.71875, 0.0
425, -2.6776556776556775, -0.029304029304029304, -2.6446886446886446, 0.8125, 0.8125, -2.75, 0.0
426, -3.984126984126984, 0.3907203907203907, -2.8290598290598292, 0.4375, 0.15625, -2.8125, 0.0
427, -5.736263736263736, 1.398046398046398, -2.5518925518925517, 0.25, 0.28125, -2.5, 0.0
428, -6.056166056166056, 1.7362637362637363, -2.070818070818071, 0.46875, 0.90625, -2.0, 0.0
429, -5.316239316239316, 1.6117216117216118, -1.52014652014652, 0.8125, 1.53125, -1.625, 0.0
430, -3.3565323565323566, 0.37484737484737485, -1.3308913308913308, 0.71875, 1.4375, -1.15625, 0.0
431, -2.0805860805860807, 0.36752136752136755, -0.978021978021978, 0.53125, 1.03125, -1.03125, 0.0
432, -1.6288156288156288, 0.3882783882783883, -0.5763125763125763, 0.5, 0.6875, -1.1875, 0.0
433, -1.9706959706959708, 0.4444444444444444, -0.3833943833943834, 0.5625, 0.46875, -1.25, 0.0
434, -2.6996336996337, 0.47985347985347987, -0.7057387057387058, 0.53125, 0.34375, -1.25, 0.0
435, -3.6654456654456653, 0.8656898656898657, -0.7924297924297924, 0.34375, 0.28125, -1.0, 0.0
436, -3.9621489621489623, 1.5555555555555556, -0.8827838827838828, 0.3125, 0.3125, -0.625, 0.0
437, -3.970695970695971, 1.708180708180708, -0.8522588522588522, 0.34375, 0.4375, -0.3125, 0.0
438, -3.092796092796093, 1.3113553113553114, -0.8632478632478633, 0.3125, 0.40625, -0.125, 0.0
439, -1.2637362637362637, 0.706959706959707, -1.1184371184371185, 0.09375, -0.03125, -0.09375, 0.0
440, -1.308913308913309, 0.8669108669108669, -1.1147741147741148, 0.03125, -0.09375, -0.09375, 0.0
441, -1.1807081807081807, 0.7350427350427351, -1.0866910866910866, 0.03125, 0.03125, 0.0, 0.0
442, -0.3321123321123321, 0.5702075702075702, -0.8412698412698413, 0.0625, 0.1875, 0.09375, 0.0
443, 0.29914529914529914, -0.02564102564102564, -0.5958485958485958, 0.03125, 0.1875, 0.125, 0.0
444, 0.9120879120879121, -0.042735042735042736, -0.4700854700854701, -0.0625, 0.0, 0.0, 0.0
445, 0.2967032967032967, -0.003663003663003663, -0.2857142857142857, -0.15625, -0.15625, -0.09375, 0.0
446, -0.43833943833943834, 0.20634920634920634, 0.07081807081807082, -0.1875, -0.125, -0.09375, 0.0
447, -0.5152625152625152, 0.15506715506715507, 0.4163614163614164, -0.0625, 0.0625, 0.03125, 0.0
448, -0.05616605616605617, -0.21001221001221002, 0.5372405372405372, 0.03125, 0.21875, 0.125, 0.0
449, 0.2576312576312576, -0.27350427350427353, 0.43956043956043955, 0.03125, 0.15625, 0.125, 0.0
450, 0.20512820512820512, -0.1978021978021978, 0.42246642246642246, 0.0, 0.0, 0.0, 0.0
451, 0.047619047619047616, -0.05982905982905983, 0.23687423687423687, 0.0, -0.125, -0.09375, 0.0
452, -0.1562881562881563, -0.042735042735042736, 0.0231990231990232, 0.0, -0.125, -0.125, 0.0
453, -0.2039072039072039, 0.23687423687423687, -0.05128205128205128, 0.0625, -0.0625, -0.125, 0.0
454, 0.24297924297924298, 0.23687423687423687, -0.10134310134310134, 0.0625, -0.0625, -0.0625, 0.0
455, 0.37362637362637363, 0.02197802197802198, -0.42246642246642246, 0.0625, -0.0625, -0.03125, 0.0
456, 0.5421245421245421, -0.06227106227106227, -0.5665445665445665, 0.03125, -0.03125, -0.125, 0.0
457, 0.27106227106227104, 0.115995115995116, -0.4896214896214896, 0.0, 0.03125, -0.15625, 0.0
458, 0.2905982905982906, 0.199023199023199, -0.3076923076923077, 0.03125, 0.09375, -0.125, 0.0
459, 0.06837606837606838, 0.06471306471306472, -0.10744810744810745, 0.0, 0.125, -0.125, 0.0
460, -0.026862026862026864, 0.115995115995116, -0.018315018315018316, 0.09375, 0.125, -0.1875, 0.0
461, -0.3614163614163614, 0.1575091575091575, 0.04395604395604396, 0.28125, 0.1875, -0.3125, 0.0
462, 0.17582417582417584, 0.029304029304029304, -0.20634920634920634, 0.46875, 0.28125, -0.375, 1.0
463, -0.39438339438339437, 0.06471306471306472, -0.6239316239316239, 0.3125, 0.21875, -0.34375, 1.0
464, -0.9755799755799756, 0.6239316239316239, -1.072039072039072, 0.125, 0.03125, -0.40625, 1.0
465, -3.2063492063492065, 1.3992673992673992, -1.6324786324786325, 0.03125, -0.125, -0.46875, 1.0
466, -4.981684981684982, 2.4334554334554332, -2.1343101343101343, 0.0625, -0.09375, -0.46875, 1.0
467, -7.601953601953602, 3.507936507936508, -3.172161172161172, 0.15625, -0.125, -0.3125, 1.0
468, -10.64102564102564, 3.7606837606837606, -4.902319902319903, 0.1875, -0.34375, 0.0, 1.0
469, -12.894993894993895, 4.101343101343101, -5.418803418803419, -0.125, -0.71875, 0.84375, 1.0
470, -12.857142857142858, 3.5457875457875456, -5.25030525030525, -0.40625, -0.6875, 1.84375, 1.0
471, -11.804639804639805, 2.247863247863248, -5.249084249084249, -0.4375, -0.5625, 2.8125, 1.0
472, -9.616605616605616, 0.08302808302808302, -5.772893772893773, -0.5, -0.34375, 3.78125, 1.0
473, -6.459096459096459, -2.501831501831502, -5.807081807081807, -0.875, -0.34375, 4.5625, 1.0
474, -3.9523809523809526, -4.410256410256411, -5.527472527472527, -1.78125, -1.125, 4.5, 1.0
475, -2.4334554334554332, -5.136752136752137, -4.450549450549451, -2.15625, -1.59375, 4.21875, 1.0
476, -1.8266178266178266, -5.17948717948718, -3.343101343101343, -2.125, -1.9375, 4.125, 1.0
477, -1.601953601953602, -5.808302808302808, -2.4615384615384617, -1.9375, -2.1875, 4.1875, 1.0
478, -1.636141636141636, -6.615384615384615, -1.7521367521367521, -1.78125, -2.3125, 4.375, 1.0
479, -2.1587301587301586, -8.167277167277167, -1.3907203907203907, -1.65625, -2.125, 4.34375, 1.0
480, -1.3076923076923077, -8.604395604395604, -0.5262515262515263, -1.46875, -1.9375, 4.25, 1.0
481, -0.22344322344322345, -8.94017094017094, 0.08547008547008547, -1.15625, -2.21875, 4.1875, 1.0
482, 0.6007326007326007, -9.039072039072039, -0.08424908424908426, -0.84375, -2.5, 4.03125, 1.0
483, -0.07936507936507936, -9.483516483516484, -0.73992673992674, -0.59375, -2.34375, 3.84375, 1.0
484, -0.8937728937728938, -9.538461538461538, -1.0366300366300367, -0.5, -1.5625, 3.75, 1.0
485, -0.07081807081807082, -8.354090354090355, -0.19536019536019536, -0.09375, -0.78125, 3.78125, 1.0
486, 0.3663003663003663, -7.2905982905982905, 0.7326007326007326, 0.03125, -0.5625, 3.75, 1.0
487, -0.13064713064713065, -7.023199023199023, 1.308913308913309, 0.0625, -0.34375, 3.8125, 1.0
488, -0.017094017094017096, -6.514041514041514, 1.9572649572649572, 0.09375, 0.0625, 3.78125, 1.0
489, 0.7411477411477412, -5.8998778998779, 3.06959706959707, 0.21875, 0.3125, 3.71875, 1.0
490, 2.9743589743589745, -5.891330891330892, 3.557997557997558, 0.40625, 0.03125, 3.5, 1.0
491, 4.8388278388278385, -6.2344322344322345, 2.6996336996337, 0.5, -0.71875, 2.96875, 1.0
492, 6.105006105006105, -5.903540903540904, 1.2087912087912087, 0.28125, -1.5625, 2.0625, 1.0
493, 5.7094017094017095, -3.8815628815628815, -0.7948717948717948, 0.0, -2.125, 1.25, 1.0
494, 4.437118437118437, -2.15995115995116, -1.9267399267399268, 0.0, -1.96875, 0.75, 1.0
495, 4.175824175824176, -1.021978021978022, -2.1343101343101343, 0.21875, -1.25, 0.6875, 1.0
496, 4.998778998778999, -0.989010989010989, -2.2698412698412698, 0.46875, -0.46875, 0.71875, 1.0
497, 4.446886446886447, -1.1636141636141637, -2.451770451770452, 0.4375, 0.0, 0.46875, 1.0
498, 3.225885225885226, -0.5921855921855922, -1.5677655677655677, 0.1875, 0.125, 0.34375, 1.0
499, 3.1709401709401708, 0.2258852258852259, -0.8412698412698413, 0.1875, 0.0, 0.1875, 1.0
500, 2.8547008547008548, 0.27594627594627597, -1.0512820512820513, 0.15625, -0.1875, 0.0, 1.0
501, 1.5213675213675213, 0.25396825396825395, -1.8485958485958487, 0.0625, -0.0625, -0.09375, 1.0
502, 0.2783882783882784, 0.6666666666666666, -1.5396825396825398, -0.03125, 0.21875, 0.0, 1.0
503, 0.2600732600732601, 0.9316239316239316, -0.9181929181929182, -0.03125, 0.375, 0.0625, 1.0
504, 0.6654456654456654, 0.43956043956043955, -0.19536019536019536, 0.0, 0.28125, 0.0, 1.0
505, 0.5494505494505495, 0.11965811965811966, 0.1330891330891331, 0.0, 0.09375, -0.09375, 1.0
506, 0.4078144078144078, -0.013431013431013432, 0.15506715506715507, 0.0, -0.03125, -0.15625, 1.0
507, 0.06349206349206349, -0.07448107448107448, -0.11721611721611722, -0.03125, -0.03125, -0.21875, 1.0
508, -0.13553113553113552, 0.02442002442002442, -0.0695970695970696, -0.09375, -0.03125, -0.25, 1.0
509, -0.9133089133089133, 0.2625152625152625, 0.13675213675213677, -0.0625, -0.09375, -0.1875, 1.0
510, -0.8424908424908425, 0.25518925518925517, 0.1978021978021978, 0.0, 0.0, -0.0625, 1.0
511, -0.5335775335775336, 0.1562881562881563, 0.2087912087912088, 0.0, 0.03125, 0.03125, 1.0
512, -0.029304029304029304, -0.08180708180708181, 0.045177045177045176, 0.0625, 0.0625, 0.03125, 1.0
513, -0.17704517704517705, -0.23565323565323565, 0.001221001221001221, 0.0625, 0.03125, 0.0, 1.0
514, -0.08424908424908426, -0.14285714285714285, 0.15873015873015872, 0.03125, 0.03125, -0.03125, 1.0
515, -0.07081807081807082, -0.19658119658119658, 0.2905982905982906, 0.03125, 0.0, -0.03125, 1.0
516, -0.02564102564102564, -0.17704517704517705, 0.2503052503052503, 0.0, -0.125, -0.03125, 1.0
517, -0.13797313797313798, 0.02442002442002442, -0.06105006105006105, 0.0, -0.1875, -0.0625, 1.0
518, -0.5543345543345544, 0.2148962148962149, -0.27228327228327226, 0.0625, -0.09375, 0.0, 1.0
519, 0.0231990231990232, 0.09157509157509157, -0.19413919413919414, 0.09375, 0.0, 0.09375, 1.0
520, 0.304029304029304, -0.09157509157509157, -0.2600732600732601, 0.03125, -0.0625, 0.0625, 1.0
521, 0.16605616605616605, 0.03907203907203907, -0.4004884004884005, 0.0, -0.0625, 0.0625, 1.0
522, 0.23076923076923078, 0.07814407814407814, -0.3968253968253968, 0.03125, -0.03125, 0.0625, 1.0
523, 0.2454212454212454, 0.07326007326007326, -0.4175824175824176, 0.0, 0.0, 0.0625, 1.0
524, 0.14041514041514042, 0.06593406593406594, -0.4896214896214896, -0.03125, 0.03125, 0.03125, 1.0
525, 0.2271062271062271, -0.10744810744810745, -0.4884004884004884, -0.15625, 0.09375, 0.09375, 1.0
526, 0.5067155067155067, -0.3162393162393162, -0.6532356532356532, -0.40625, 0.1875, 0.15625, 0.0
527, 0.5702075702075702, 0.2454212454212454, -0.5433455433455433, -0.375, 0.21875, 0.15625, 0.0
528, 1.2026862026862026, -0.3772893772893773, -0.12087912087912088, -0.25, 0.1875, 0.03125, 0.0
529, 0.6410256410256411, -0.020757020757020756, -0.007326007326007326, -0.09375, 0.0625, -0.0625, 0.0
530, 0.9682539682539683, -0.6336996336996337, -0.304029304029304, -0.09375, 0.0, -0.09375, 0.0
531, 1.347985347985348, -0.7130647130647131, -0.6324786324786325, -0.09375, 0.0625, -0.25, 0.0
532, 2.8363858363858365, -1.706959706959707, -1.286935286935287, -0.09375, 0.34375, -0.5, 0.0
533, 3.0, -2.509157509157509, -1.4065934065934067, -0.09375, 0.59375, -0.6875, 0.0
534, 3.1074481074481075, -2.744810744810745, -1.1062271062271063, -0.125, 0.875, -1.125, 0.0
535, 3.330891330891331, -2.8144078144078146, -0.8644688644688645, -0.15625, 0.9375, -1.625, 0.0
536, 2.275946275946276, -3.41025641025641, -0.8449328449328449, -0.21875, 0.75, -1.9375, 0.0
537, 0.9829059829059829, -3.509157509157509, -0.4590964590964591, -0.28125, 0.9375, -2.1875, 0.0
538, 0.9267399267399268, -2.9731379731379732, 0.2783882783882784, -0.28125, 1.28125, -2.25, 0.0
539, 1.2063492063492063, -3.241758241758242, 0.5006105006105006, -0.15625, 1.34375, -2.34375, 0.0
540, 1.137973137973138, -3.432234432234432, 0.15018315018315018, -0.09375, 1.0625, -2.6875, 0.0
541, -0.14163614163614163, -4.0, -0.115995115995116, -0.28125, 0.6875, -3.0, 0.0
542, -1.1172161172161172, -3.282051282051282, 0.16971916971916973, -0.46875, 0.6875, -3.21875, 0.0
543, -1.5995115995115996, -2.8302808302808304, 0.5518925518925519, -0.28125, 0.96875, -3.21875, 0.0
544, -1.5665445665445665, -2.600732600732601, 0.8315018315018315, -0.09375, 0.96875, -3.1875, 0.0
545, -1.7216117216117217, -2.5873015873015874, 0.7081807081807082, 0.0, 0.78125, -3.3125, 0.0
546, -2.0671550671550674, -2.9474969474969477, 0.5860805860805861, -0.0625, 0.59375, -3.375, 0.0
547, -2.166056166056166, -2.7484737484737485, 0.38095238095238093, -0.03125, 0.5625, -3.40625, 0.0
548, -2.559218559218559, -2.822954822954823, 0.4163614163614164, -0.0625, 0.75, -3.34375, 0.0
549, -2.4395604395604398, -1.8192918192918193, 0.8485958485958486, 0.09375, 0.9375, -3.25, 0.0
550, -2.2222222222222223, -1.376068376068376, 0.8107448107448108, 0.4375, 1.0625, -3.125, 0.0
551, -1.921855921855922, -2.1086691086691087, 0.38217338217338215, 0.65625, 1.0625, -3.125, 0.0
552, -1.9926739926739927, -2.139194139194139, -0.06349206349206349, 0.71875, 1.09375, -3.25, 0.0
553, -1.6996336996336996, -2.294261294261294, -0.17338217338217338, 0.71875, 1.09375, -3.34375, 0.0
554, -2.352869352869353, -2.8205128205128207, -0.33943833943833945, 0.46875, 1.15625, -2.96875, 0.0
555, -2.614163614163614, -1.7045177045177045, -0.7264957264957265, 0.59375, 1.125, -2.84375, 0.0
556, -3.3223443223443225, -1.4957264957264957, -0.7411477411477412, 0.625, 1.25, -2.8125, 0.0
557, -3.114774114774115, -1.3235653235653235, -0.4261294261294261, 0.65625, 1.53125, -2.6875, 0.0
558, -1.9536019536019535, -0.9267399267399268, -0.5396825396825397, 0.78125, 1.625, -2.5625, 0.0
559, -1.9975579975579976, -0.9377289377289377, -0.8620268620268621, 0.84375, 1.21875, -2.5625, 0.0
560, -2.663003663003663, -0.9511599511599511, -1.078144078144078, 0.8125, 0.875, -2.59375, 0.0
561, -2.763125763125763, -0.5775335775335775, -1.3504273504273505, 0.78125, 0.9375, -2.53125, 0.0
562, -3.148962148962149, -0.3504273504273504, -1.667887667887668, 0.78125, 1.21875, -2.40625, 0.0
563, -2.6678876678876677, 0.1684981684981685, -1.5177045177045176, 0.84375, 1.34375, -2.375, 0.0
564, -3.1355311355311355, 0.2503052503052503, -1.5372405372405373, 0.84375, 1.21875, -2.15625, 0.0
565, -3.905982905982906, 0.45665445665445664, -1.557997557997558, 0.75, 1.1875, -1.96875, 0.0
566, -4.192918192918193, 0.9584859584859585, -1.6275946275946276, 0.6875, 1.15625, -1.625, 0.0
567, -4.4322344322344325, 1.5445665445665446, -1.7387057387057387, 0.59375, 0.96875, -1.4375, 0.0
568, -4.184371184371185, 1.3663003663003663, -2.197802197802198, 0.4375, 0.6875, -1.15625, 0.0
569, -5.08058608058608, 1.5091575091575091, -2.2466422466422467, 0.15625, 0.59375, -0.90625, 0.0
570, -5.228327228327228, 1.8034188034188035, -1.8986568986568986, 0.0, 0.625, -0.625, 0.0
571, -4.6068376068376065, 2.191697191697192, -1.4273504273504274, 0.0, 0.53125, -0.28125, 0.0
572, -3.791208791208791, 1.9352869352869353, -1.2356532356532357, 0.0, 0.375, 0.0, 0.0
573, -2.9755799755799757, 1.6544566544566544, -1.0183150183150182, -0.03125, 0.21875, 0.15625, 0.0
574, -2.126984126984127, 0.7606837606837606, -1.2380952380952381, -0.15625, 0.1875, 0.28125, 0.0
575, -0.9438339438339438, 0.42246642246642246, -1.021978021978022, -0.28125, 0.15625, 0.34375, 0.0
576, -0.14285714285714285, 0.32967032967032966, -0.5445665445665445, -0.28125, 0.125, 0.28125, 0.0
577, 0.3076923076923077, 0.16483516483516483, -0.0463980463980464, -0.25, 0.0, 0.1875, 0.0
578, 0.5470085470085471, -0.057387057387057384, 0.0695970695970696, -0.15625, -0.0625, 0.09375, 0.0
579, 0.007326007326007326, -0.4188034188034188, -0.031746031746031744, -0.1875, -0.03125, 0.0, 0.0
580, 0.013431013431013432, -0.06471306471306472, 0.23931623931623933, -0.1875, 0.0, -0.03125, 0.0
581, 0.12942612942612944, -0.007326007326007326, 0.2698412698412698, -0.0625, 0.0, -0.03125, 0.0
582, 0.018315018315018316, -0.25396825396825395, 0.18437118437118438, 0.0, -0.0625, -0.03125, 0.0
583, 0.029304029304029304, -0.24175824175824176, 0.12698412698412698, 0.0, -0.125, -0.09375, 0.0
584, -0.12332112332112333, -0.12942612942612944, 0.008547008547008548, 0.0, -0.125, -0.09375, 0.0
585, 0.01098901098901099, -0.026862026862026864, 0.1623931623931624, 0.0, -0.03125, -0.0625, 0.0
586, 0.199023199023199, -0.007326007326007326, 0.18925518925518925, 0.03125, 0.0, 0.0, 0.0
587, 0.3882783882783883, -0.1623931623931624, 0.002442002442002442, 0.125, -0.03125, -0.0625, 0.0
588, 0.24786324786324787, -0.27350427350427353, -0.18315018315018314, 0.125, -0.0625, -0.125, 0.0
589, 0.23931623931623933, -0.12087912087912088, -0.2271062271062271, 0.03125, -0.0625, -0.1875, 0.0
590, 0.11233211233211234, 0.0695970695970696, -0.13553113553113552, 0.03125, -0.03125, -0.21875, 0.0
591, -0.03785103785103785, 0.21245421245421245, -0.1575091575091575, 0.09375, 0.0, -0.21875, 0.0
592, -0.5006105006105006, 0.442002442002442, 0.009768009768009768, 0.15625, 0.0625, -0.15625, 0.0
593, -0.27106227106227104, 0.31135531135531136, 0.054945054945054944, 0.21875, 0.1875, -0.0625, 0.0
594, 0.09768009768009768, -0.019536019536019536, -0.115995115995116, 0.21875, 0.1875, -0.15625, 0.0
595, 0.09645909645909646, 0.07081807081807082, -0.1916971916971917, 0.125, 0.0625, -0.3125, 0.0
596, -0.20634920634920634, 0.7374847374847375, 0.358974358974359, 0.21875, 0.0, -0.34375, 0.0
597, -1.4786324786324787, 0.833943833943834, -0.31135531135531136, 0.375, 0.15625, -0.1875, 1.0
598, -0.5445665445665445, 0.36385836385836384, -0.5128205128205128, 0.125, 0.1875, 0.0, 1.0
599, -0.23321123321123322, 0.3968253968253968, -0.724053724053724, 0.0, 0.03125, -0.03125, 1.0
600, -1.4175824175824177, 1.1575091575091576, -1.1611721611721613, 0.03125, -0.0625, -0.125, 1.0
601, -2.5286935286935286, 1.6141636141636142, -1.8412698412698412, 0.09375, -0.125, -0.34375, 1.0
602, -8.002442002442002, 3.5067155067155067, -3.567765567765568, 0.25, -0.3125, -0.3125, 1.0
603, -9.956043956043956, 3.4334554334554332, -4.256410256410256, 0.28125, -0.375, 0.0625, 1.0
604, -10.932844932844933, 3.722832722832723, -4.126984126984127, 0.0, -0.75, 0.75, 1.0
605, -10.737484737484737, 3.457875457875458, -3.934065934065934, -0.09375, -0.96875, 1.5, 1.0
606, -8.717948717948717, 1.3125763125763126, -4.315018315018315, -0.0625, -1.03125, 2.21875, 1.0
607, -7.225885225885226, 0.050061050061050064, -4.5335775335775335, -0.3125, -1.25, 2.75, 1.0
608, -5.5958485958485955, -1.5506715506715507, -5.018315018315018, -0.625, -1.40625, 3.15625, 1.0
609, -4.164835164835165, -2.0683760683760686, -4.925518925518926, -0.96875, -1.625, 3.40625, 1.0
610, -3.916971916971917, -2.673992673992674, -4.492063492063492, -1.09375, -1.75, 3.5625, 1.0
611, -3.705738705738706, -3.5885225885225887, -3.8766788766788767, -1.1875, -1.90625, 3.71875, 1.0
612, -3.797313797313797, -4.886446886446887, -3.3321123321123323, -1.3125, -2.15625, 3.96875, 1.0
613, -3.5653235653235655, -5.881562881562882, -2.4383394383394386, -1.1875, -2.3125, 4.3125, 1.0
614, -3.484737484737485, -6.995115995115995, -1.6617826617826619, -1.0, -2.4375, 4.59375, 1.0
615, -2.5323565323565322, -7.873015873015873, -0.7948717948717948, -0.6875, -2.53125, 4.84375, 1.0
616, -1.4945054945054945, -9.692307692307692, -1.2307692307692308, -0.40625, -2.59375, 4.75, 1.0
617, -1.1477411477411477, -11.05006105006105, -1.989010989010989, -0.46875, -2.1875, 4.40625, 1.0
618, -0.8168498168498168, -10.084249084249084, -1.2991452991452992, -0.375, -1.875, 4.375, 1.0
619, 0.07326007326007326, -9.52991452991453, -0.6007326007326007, -0.0625, -1.71875, 4.375, 1.0
620, 1.2783882783882783, -9.338217338217339, -0.35775335775335776, 0.25, -1.75, 4.28125, 1.0
621, 1.7924297924297925, -8.695970695970695, 0.10500610500610501, 0.625, -1.8125, 4.1875, 1.0
622, 0.8168498168498168, -9.704517704517704, -0.5811965811965812, 0.5625, -1.0625, 3.84375, 1.0
623, 1.5909645909645909, -9.24053724053724, -0.7045177045177046, 0.21875, -0.1875, 3.5, 1.0
624, 1.6703296703296704, -7.47985347985348, 0.6483516483516484, 0.1875, 0.34375, 3.3125, 1.0
625, 2.4346764346764345, -5.537240537240537, 3.2905982905982905, 0.3125, 0.59375, 3.1875, 1.0
626, 3.098901098901099, -4.5506715506715505, 3.8376068376068377, 0.5, 0.46875, 3.09375, 1.0
627, 4.172161172161172, -4.6996336996337, 2.9474969474969477, 0.625, 0.03125, 2.71875, 1.0
628, 4.112332112332112, -3.879120879120879, 1.7924297924297925, 0.46875, -0.59375, 2.15625, 1.0
629, 3.0805860805860807, -2.656898656898657, 0.8083028083028083, 0.40625, -1.0625, 1.65625, 1.0
630, 2.8424908424908426, -1.978021978021978, 0.26495726495726496, 0.5, -1.125, 1.4375, 1.0
631, 3.4114774114774113, -1.6422466422466422, -0.7374847374847375, 0.625, -1.0625, 1.34375, 1.0
632, 3.628815628815629, -1.6373626373626373, -2.1538461538461537, 0.6875, -0.96875, 1.15625, 1.0
633, 3.583638583638584, -1.4456654456654456, -2.913308913308913, 0.59375, -0.59375, 0.90625, 1.0
634, 3.437118437118437, -0.7387057387057387, -2.687423687423687, 0.40625, -0.15625, 0.71875, 1.0
635, 3.015873015873016, -0.2783882783882784, -1.993894993894994, 0.3125, 0.0625, 0.53125, 1.0
636, 2.8290598290598292, 0.028083028083028084, -1.3882783882783882, 0.25, -0.09375, 0.25, 1.0
637, 2.398046398046398, 0.09157509157509157, -1.5653235653235653, 0.25, -0.15625, 0.125, 1.0
638, 1.3418803418803418, 0.0, -1.9609279609279608, 0.15625, 0.0625, 0.09375, 1.0
639, 1.3675213675213675, 0.1794871794871795, -1.5506715506715507, 0.0, 0.1875, 0.03125, 1.0
640, 1.0366300366300367, 0.43101343101343104, -0.7973137973137974, 0.0, 0.125, -0.0625, 1.0
641, 0.34065934065934067, 0.36996336996337, -0.5970695970695971, 0.0, 0.03125, -0.125, 1.0
642, -0.49572649572649574, 0.43223443223443225, -0.0989010989010989, 0.0, 0.03125, -0.09375, 1.0
643, -0.33943833943833945, 0.2954822954822955, 0.003663003663003663, 0.0, 0.0, -0.0625, 1.0
644, -0.2564102564102564, 0.08791208791208792, -0.1282051282051282, 0.0, -0.0625, -0.0625, 1.0
645, -0.5018315018315018, 0.14896214896214896, -0.2039072039072039, 0.0, 0.0, -0.09375, 1.0
646, -0.26373626373626374, 0.17094017094017094, 0.1343101343101343, 0.0, -0.03125, -0.09375, 1.0
647, -0.3601953601953602, 0.06349206349206349, 0.047619047619047616, 0.0, -0.0625, -0.03125, 1.0
648, 0.05372405372405373, 0.08302808302808302, -0.23809523809523808, 0.0, -0.03125, 0.0, 1.0
649, 0.12942612942612944, -0.0695970695970696, -0.17094017094017094, 0.0, -0.03125, 0.0, 1.0
650, -0.06227106227106227, -0.02442002442002442, -0.15873015873015872, 0.0, -0.0625, -0.0625, 1.0
651, -0.45054945054945056, 0.11355311355311355, -0.10256410256410256, 0.0, -0.03125, -0.0625, 1.0
652, -0.15506715506715507, 0.01221001221001221, -0.052503052503052504, 0.03125, 0.0, 0.0, 1.0
653, 0.3162393162393162, -0.06715506715506715, -0.1343101343101343, 0.0, 0.0, 0.0625, 1.0
654, 0.3137973137973138, -0.2039072039072039, -0.2039072039072039, 0.0, 0.0, 0.0, 1.0
655, -0.1330891330891331, 0.08669108669108669, -0.11721611721611722, 0.0, 0.0, -0.09375, 1.0
656, -0.46764346764346765, 0.3663003663003663, -0.1562881562881563, 0.0, 0.0, -0.03125, 1.0
657, 0.030525030525030524, 0.16361416361416362, -0.3137973137973138, 0.0, 0.0, 0.03125, 1.0
658, 0.1916971916971917, -0.04395604395604396, -0.44078144078144077, 0.0, 0.0, 0.0625, 1.0
659, 0.2612942612942613, -0.047619047619047616, -0.2796092796092796, -0.03125, 0.0625, 0.0, 1.0
660, 0.33943833943833945, -0.16361416361416362, -0.07814407814407814, 0.0, 0.0, -0.09375, 1.0
661, 0.052503052503052504, 0.09523809523809523, 0.07203907203907203, 0.0, -0.09375, -0.125, 1.0
662, -0.3089133089133089, 0.21123321123321123, -0.08058608058608059, 0.0, -0.09375, -0.09375, 1.0
663, -0.29426129426129427, 0.1855921855921856, -0.22832722832722832, 0.0, 0.0, 0.0, 1.0
664, 0.2258852258852259, -0.13675213675213677, -0.23321123321123322, 0.0, 0.0625, 0.0, 1.0
665, 0.3663003663003663, -0.10256410256410256, -0.09645909645909646, 0.0, 0.0, 0.0, 1.0
666, 0.08424908424908426, 0.07692307692307693, -0.002442002442002442, 0.0, 0.0, -0.03125, 1.0
667, -0.002442002442002442, 0.06105006105006105, -0.09768009768009768, 0.0, 0.0, -0.03125, 1.0
668, -0.06105006105006105, 0.028083028083028084, -0.33943833943833945, 0.0, 0.03125, -0.03125, 1.0
669, 0.12942612942612944, -0.2869352869352869, -0.36385836385836384, -0.09375, 0.125, 0.0, 1.0
670, 0.3076923076923077, -0.2673992673992674, -0.39316239316239315, -0.25, 0.1875, 0.03125, 0.0
671, 0.35653235653235654, -0.052503052503052504, -0.32112332112332115, -0.40625, 0.125, 0.0625, 0.0
672, -0.031746031746031744, 0.3968253968253968, -0.36752136752136755, -0.375, 0.15625, 0.0625, 0.0
673, 0.6654456654456654, -0.042735042735042736, -0.2869352869352869, -0.125, 0.28125, 0.0, 0.0
674, 1.2454212454212454, -0.3614163614163614, -0.47741147741147744, -0.09375, 0.21875, 0.0, 0.0
675, 1.8876678876678876, -0.9804639804639804, -0.9731379731379731, -0.09375, 0.1875, -0.0625, 0.0
676, 2.2295482295482296, -1.5824175824175823, -1.4517704517704517, -0.125, 0.28125, -0.375, 0.0
677, 2.199023199023199, -1.7851037851037852, -1.5225885225885225, -0.25, 0.40625, -0.75, 0.0
678, 1.9865689865689866, -1.6642246642246643, -1.144078144078144, -0.4375, 0.4375, -1.0, 0.0
679, 1.8107448107448108, -1.4932844932844933, -0.7350427350427351, -0.46875, 0.5, -1.21875, 0.0
680, 1.7045177045177045, -1.5177045177045176, -0.6202686202686203, -0.3125, 0.625, -1.40625, 0.0
681, 1.4908424908424909, -2.122100122100122, -0.8070818070818071, -0.09375, 0.84375, -1.53125, 0.0
682, 1.2063492063492063, -3.0317460317460316, -0.894993894993895, -0.03125, 1.125, -1.71875, 0.0
683, 1.2014652014652014, -3.324786324786325, -0.47863247863247865, -0.15625, 1.34375, -2.03125, 0.0
684, 1.2686202686202686, -3.68986568986569, -0.07692307692307693, -0.25, 1.21875, -2.25, 0.0
685, 0.9108669108669109, -4.124542124542124, 0.231990231990232, -0.375, 1.03125, -2.5, 0.0
686, 0.25518925518925517, -4.241758241758242, 0.652014652014652, -0.4375, 1.0, -2.6875, 0.0
687, -0.1978021978021978, -4.039072039072039, 1.1514041514041513, -0.34375, 1.0625, -2.875, 0.0
688, -0.315018315018315, -3.675213675213675, 1.5665445665445665, -0.15625, 1.125, -3.0625, 0.0
689, -0.4053724053724054, -3.821733821733822, 1.492063492063492, 0.0, 0.96875, -3.21875, 0.0
690, -0.5677655677655677, -3.7191697191697193, 1.2393162393162394, 0.09375, 0.78125, -3.3125, 0.0
691, -0.905982905982906, -3.7106227106227108, 0.8913308913308914, 0.03125, 0.65625, -3.46875, 0.0
692, -1.3418803418803418, -3.1892551892551895, 0.7545787545787546, 0.0, 0.59375, -3.59375, 0.0
693, -2.0097680097680097, -2.363858363858364, 0.7875457875457875, 0.09375, 0.625, -3.5625, 0.0
694, -2.5115995115995116, -1.9047619047619047, 0.7728937728937729, 0.3125, 0.8125, -3.3125, 0.0
695, -2.6605616605616604, -2.415140415140415, -0.16361416361416362, 0.5625, 0.875, -3.25, 0.0
696, -3.1062271062271063, -1.768009768009768, -0.15506715506715507, 0.46875, 0.90625, -3.28125, 0.0
697, -3.3626373626373627, -1.4639804639804639, -0.21245421245421245, 0.53125, 0.96875, -3.21875, 0.0
698, -3.554334554334554, -1.0512820512820513, -0.10256410256410256, 0.5625, 1.0, -3.03125, 0.0
699, -4.278388278388278, -1.0012210012210012, 0.04151404151404151, 0.5625, 0.96875, -2.71875, 0.0
700, -3.9023199023199022, -0.7765567765567766, 0.2503052503052503, 0.625, 1.3125, -2.40625, 0.0
701, -2.758241758241758, -0.8046398046398047, 0.18192918192918192, 0.875, 1.625, -2.15625, 0.0
702, -1.6923076923076923, -0.9682539682539683, -0.4004884004884005, 1.09375, 1.5, -2.28125, 0.0
703, -1.3137973137973138, -1.2808302808302807, -1.054945054945055, 1.09375, 1.0625, -2.5, 0.0
704, -2.1086691086691087, -1.3394383394383393, -1.4102564102564104, 0.78125, 0.625, -2.5625, 0.0
705, -2.9316239316239314, -0.40293040293040294, -1.4871794871794872, 0.65625, 0.59375, -2.53125, 0.0
706, -2.7838827838827838, -0.10989010989010989, -1.7887667887667889, 0.8125, 0.75, -2.375, 0.0
707, -2.896214896214896, -0.14407814407814407, -1.9658119658119657, 0.78125, 0.875, -2.1875, 0.0
708, -3.398046398046398, 0.04884004884004884, -1.9487179487179487, 0.75, 1.0625, -2.03125, 0.0
709, -3.446886446886447, 0.8095238095238095, -2.0671550671550674, 0.71875, 0.875, -1.90625, 0.0
710, -3.67032967032967, 0.9487179487179487, -2.192918192918193, 0.59375, 0.53125, -1.75, 0.0
711, -4.7313797313797314, 1.277167277167277, -1.9072039072039073, 0.46875, 0.46875, -1.59375, 0.0
712, -4.515262515262515, 1.2991452991452992, -2.31013431013431, 0.3125, 0.34375, -1.53125, 0.0
713, -4.681318681318682, 1.8876678876678876, -2.225885225885226, 0.0625, -0.03125, -1.53125, 0.0
714, -5.450549450549451, 2.7484737484737485, -2.2295482295482296, 0.0, -0.1875, -1.3125, 0.0
715, -5.467643467643468, 2.6373626373626373, -2.028083028083028, 0.0, 0.03125, -0.78125, 0.0
716, -5.145299145299146, 1.6764346764346765, -1.8266178266178266, -0.09375, 0.375, 0.0, 0.0
717, -3.5225885225885225, 0.8815628815628815, -1.2087912087912087, -0.28125, 0.6875, 0.5, 0.0
718, 0.199023199023199, -0.09523809523809523, 0.37484737484737485, -0.375, 0.625, 0.5, 0.0
719, 0.40415140415140416, -0.1916971916971917, 0.9633699633699634, -0.28125, 0.4375, 0.3125, 0.0
720, 0.06349206349206349, -0.2612942612942613, 1.0634920634920635, -0.1875, 0.25, 0.1875, 0.0
721, 0.47985347985347987, -0.38217338217338215, 0.884004884004884, -0.0625, 0.125, 0.15625, 0.0
722, 0.4725274725274725, -0.28205128205128205, 0.7032967032967034, 0.0, 0.0, 0.0, 0.0
723, 0.17582417582417584, -0.10134310134310134, 0.4126984126984127, 0.09375, 0.0, -0.15625, 0.0
724, -0.14896214896214896, 0.05372405372405373, -0.06227106227106227, 0.15625, 0.0, -0.1875, 0.0
725, -0.23565323565323565, -0.017094017094017096, -0.25274725274725274, 0.1875, 0.0, -0.1875, 0.0
726, -0.10134310134310134, 0.045177045177045176, -0.36507936507936506, 0.09375, 0.0, -0.15625, 0.0
727, -0.06715506715506715, 0.08547008547008547, -0.4542124542124542, 0.0625, -0.03125, -0.1875, 0.0
728, -0.12942612942612944, 0.23321123321123322, -0.4725274725274725, 0.03125, -0.03125, -0.1875, 0.0
729, -0.15506715506715507, 0.21367521367521367, -0.46886446886446886, 0.0625, 0.0, -0.09375, 0.0
730, -0.026862026862026864, 0.0757020757020757, -0.35653235653235654, 0.0625, 0.125, -0.0625, 0.0
731, 0.17094017094017094, -0.07203907203907203, -0.2588522588522589, 0.0, 0.0625, -0.0625, 0.0
732, 0.13064713064713065, -0.12454212454212454, -0.08424908424908426, 0.0, 0.09375, -0.15625, 0.0
733, 0.24297924297924298, 0.01098901098901099, 0.13186813186813187, 0.0, 0.09375, -0.1875, 0.0
734, 0.1111111111111111, 0.10744810744810745, 0.3089133089133089, 0.125, 0.09375, -0.21875, 0.0
735, -0.013431013431013432, -0.01098901098901099, 0.2625152625152625, 0.1875, 0.125, -0.21875, 0.0
736, -0.03540903540903541, 0.045177045177045176, 0.08302808302808302, 0.21875, 0.125, -0.21875, 0.0
737, -0.001221001221001221, -0.14407814407814407, -0.11233211233211234, 0.21875, 0.1875, -0.3125, 0.0
738, -0.07692307692307693, 0.2087912087912088, 0.08791208791208792, 0.34375, 0.28125, -0.46875, 0.0
739, -0.2588522588522589, 0.9938949938949939, 0.3833943833943834, 0.71875, 0.375, -0.65625, 0.0
740, -0.33821733821733824, 1.78998778998779, 0.5470085470085471, 1.28125, 0.40625, -0.78125, 1.0
741, -2.2051282051282053, 0.8656898656898657, -2.192918192918193, 1.53125, 0.125, -1.0, 1.0
742, -5.451770451770452, 1.9230769230769231, -3.313797313797314, 1.125, -0.25, -0.9375, 1.0
743, -9.152625152625152, 3.808302808302808, -3.815628815628816, 0.78125, -0.46875, -0.46875, 1.0
744, -10.947496947496948, 4.297924297924298, -4.7094017094017095, 0.78125, -0.3125, 0.15625, 1.0
745, -11.748473748473748, 3.578754578754579, -5.173382173382174, 0.6875, -0.5625, 0.90625, 1.0
746, -12.568986568986569, 1.6886446886446886, -5.825396825396825, 0.28125, -0.90625, 1.71875, 1.0
747, -11.412698412698413, 0.8034188034188035, -5.236874236874237, -0.21875, -0.75, 2.40625, 1.0
748, -9.783882783882785, -0.724053724053724, -4.6752136752136755, -0.46875, -0.53125, 3.3125, 1.0
749, -6.984126984126984, -3.4126984126984126, -4.312576312576312, -0.625, -0.3125, 4.0625, 1.0
750, -4.438339438339439, -5.349206349206349, -3.4432234432234434, -1.03125, -0.65625, 4.3125, 1.0
751, -3.752136752136752, -7.185592185592186, -3.0146520146520146, -1.625, -1.3125, 4.21875, 1.0
752, -3.6776556776556775, -6.755799755799756, -2.010989010989011, -2.03125, -1.59375, 4.15625, 1.0
753, -2.5103785103785103, -7.148962148962149, -1.2002442002442002, -1.78125, -1.65625, 4.46875, 1.0
754, -2.199023199023199, -7.540903540903541, -0.6202686202686203, -1.5, -1.78125, 4.6875, 1.0
755, -2.617826617826618, -8.608058608058608, -0.6495726495726496, -1.34375, -1.65625, 4.96875, 1.0
756, -2.885225885225885, -9.06959706959707, -0.5506715506715507, -1.15625, -1.28125, 5.125, 1.0
757, -1.540903540903541, -9.0, 0.1746031746031746, -0.71875, -1.15625, 5.1875, 1.0
758, -0.36752136752136755, -9.001221001221001, 0.7521367521367521, -0.21875, -1.34375, 5.1875, 1.0
759, 0.35653235653235654, -9.843711843711844, 0.6141636141636142, -0.03125, -1.53125, 4.96875, 1.0
760, 1.2857142857142858, -10.676434676434676, 0.08913308913308914, -0.15625, -1.5, 4.4375, 1.0
761, 1.514041514041514, -9.853479853479854, -0.1794871794871795, -0.375, -1.375, 3.96875, 1.0
762, 1.0488400488400489, -8.081807081807082, -0.2771672771672772, -0.375, -1.15625, 3.78125, 1.0
763, 0.37484737484737485, -6.7032967032967035, 0.48473748473748474, -0.09375, -0.625, 3.8125, 1.0
764, 0.46764346764346765, -6.5225885225885225, 1.15995115995116, 0.09375, 0.0625, 3.78125, 1.0
765, 1.746031746031746, -5.446886446886447, 2.0720390720390722, 0.09375, 0.375, 3.5625, 1.0
766, 3.42002442002442, -4.7203907203907205, 2.468864468864469, 0.125, 0.25, 3.28125, 1.0
767, 4.173382173382174, -4.34065934065934, 2.282051282051282, 0.25, -0.4375, 2.78125, 1.0
768, 3.213675213675214, -4.115995115995116, 1.7387057387057387, 0.34375, -1.0625, 2.25, 1.0
769, 3.7301587301587302, -3.4188034188034186, 0.3431013431013431, 0.34375, -1.25, 1.875, 1.0
770, 3.0134310134310134, -2.446886446886447, -1.2295482295482296, 0.375, -1.25, 1.5625, 1.0
771, 2.0183150183150182, -1.7802197802197801, -1.380952380952381, 0.375, -0.78125, 1.4375, 1.0
772, 2.9853479853479854, -1.2405372405372406, -0.8351648351648352, 0.4375, -0.21875, 1.46875, 1.0
773, 3.9865689865689866, -1.673992673992674, -0.8827838827838828, 0.59375, 0.0, 1.34375, 1.0
774, 4.6642246642246645, -1.8534798534798536, -1.4334554334554335, 0.46875, 0.0, 1.0, 1.0
775, 4.402930402930403, -1.326007326007326, -1.6092796092796093, 0.25, -0.15625, 0.65625, 1.0
776, 3.5409035409035408, -0.7350427350427351, -1.5421245421245422, 0.09375, 0.03125, 0.21875, 1.0
777, 2.9804639804639805, 0.02564102564102564, -1.4822954822954824, 0.09375, 0.0625, 0.0, 1.0
778, 1.9877899877899878, 0.09035409035409035, -1.3956043956043955, 0.0625, 0.0625, -0.09375, 1.0
779, 1.3113553113553114, 0.47374847374847373, -0.905982905982906, 0.0, 0.0, -0.125, 1.0
780, 0.6324786324786325, 0.6068376068376068, -0.5958485958485958, -0.0625, -0.0625, -0.09375, 1.0
781, 0.002442002442002442, 0.6336996336996337, -0.6678876678876678, 0.0, 0.0, -0.09375, 1.0
782, -0.21001221001221002, 0.6422466422466423, -0.4981684981684982, 0.03125, 0.09375, -0.03125, 1.0
783, -0.1221001221001221, 0.48473748473748474, -0.3321123321123321, 0.0625, 0.09375, 0.0, 1.0
784, 0.1623931623931624, 0.10378510378510379, -0.43223443223443225, 0.0, 0.0625, -0.03125, 1.0
785, -0.43956043956043955, 0.0695970695970696, -0.5115995115995116, -0.03125, 0.0625, -0.0625, 1.0
786, -1.05006105006105, 0.45787545787545786, 0.12942612942612944, -0.03125, 0.21875, 0.0, 1.0
787, -0.42246642246642246, 0.36996336996337, 0.5970695970695971, 0.0625, 0.1875, 0.0, 1.0
788, 0.29914529914529914, -0.5531135531135531, -0.057387057387057384, 0.03125, -0.125, -0.09375, 1.0
789, -0.3162393162393162, -0.1575091575091575, -0.1343101343101343, -0.0625, -0.1875, -0.15625, 1.0
790, -0.5897435897435898, 0.3235653235653236, 0.14652014652014653, -0.0625, -0.125, -0.09375, 1.0
791, -0.39316239316239315, 0.19658119658119658, 0.3199023199023199, 0.0, -0.03125, -0.03125, 1.0
792, -0.013431013431013432, 0.0231990231990232, 0.10378510378510379, 0.03125, -0.125, -0.03125, 1.0
793, -0.2869352869352869, -0.2686202686202686, -0.39438339438339437, 0.0625, -0.15625, -0.03125, 1.0
794, -0.16971916971916973, 0.06349206349206349, -0.38217338217338215, 0.03125, 0.0, 0.0, 1.0
795, 0.1916971916971917, 0.11233211233211234, -0.21611721611721613, 0.0, 0.0625, 0.0, 1.0
796, 0.05616605616605617, 0.11477411477411477, -0.2454212454212454, 0.0, -0.03125, 0.0, 1.0
797, -0.2026862026862027, 0.23321123321123322, -0.41514041514041516, 0.0, -0.0625, -0.03125, 1.0
798, -0.25518925518925517, 0.15506715506715507, -0.4554334554334554, 0.03125, 0.0, 0.0, 1.0
799, 0.3504273504273504, -0.02564102564102564, -0.4371184371184371, 0.0, 0.0, 0.0, 1.0
800, 0.57997557997558, -0.029304029304029304, -0.4065934065934066, -0.03125, -0.0625, -0.03125, 1.0
801, 0.09768009768009768, 0.08669108669108669, -0.4456654456654457, -0.03125, -0.0625, -0.0625, 1.0
802, -0.14896214896214896, 0.3162393162393162, -0.2673992673992674, 0.0, -0.03125, 0.0, 1.0
803, 0.057387057387057384, 0.15995115995115994, -0.3724053724053724, 0.0, 0.0, 0.0, 1.0
804, 0.23809523809523808, 0.017094017094017096, -0.4908424908424908, -0.03125, 0.03125, 0.0, 1.0
805, 0.2442002442002442, 0.06105006105006105, -0.43956043956043955, -0.03125, 0.03125, 0.0, 1.0
806, 0.2967032967032967, -0.15018315018315018, -0.11355311355311355, -0.03125, 0.0, 0.0, 1.0
807, 0.2271062271062271, -0.0989010989010989, -0.003663003663003663, -0.03125, 0.0, -0.03125, 1.0
808, 0.028083028083028084, -0.10012210012210013, -0.04151404151404151, -0.0625, 0.0, -0.0625, 1.0
809, -0.08791208791208792, -0.11843711843711843, -0.19658119658119658, -0.125, 0.0, -0.0625, 1.0
810, -0.0695970695970696, -0.06349206349206349, -0.115995115995116, -0.15625, 0.0, 0.0, 1.0
811, 0.34798534798534797, -0.1282051282051282, -0.1978021978021978, -0.1875, 0.15625, 0.0625, 1.0
812, 0.18925518925518925, -0.1978021978021978, -0.15995115995115994, -0.25, 0.21875, 0.03125, 1.0
813, -0.02197802197802198, -0.2576312576312576, -0.12942612942612944, -0.40625, 0.25, 0.0625, 0.0
814, -1.0158730158730158, 0.49206349206349204, -0.17094017094017094, -0.53125, 0.21875, 0.09375, 0.0
815, -0.12576312576312576, 0.45787545787545786, 0.13064713064713065, -0.53125, 0.21875, 0.125, 0.0
816, 0.052503052503052504, 0.16361416361416362, 0.24053724053724054, -0.34375, 0.1875, 0.125, 0.0
817, 0.575091575091575, -0.35653235653235654, -0.0695970695970696, -0.09375, 0.21875, 0.15625, 0.0
818, 1.3846153846153846, -1.0525030525030525, -0.7619047619047619, 0.0, 0.3125, 0.09375, 0.0
819, 2.122100122100122, -1.6202686202686203, -1.315018315018315, 0.0625, 0.375, -0.15625, 0.0
820, 1.7667887667887667, -2.2808302808302807, -1.5189255189255189, -0.125, 0.40625, -0.34375, 0.0
821, 1.8632478632478633, -2.1514041514041513, -0.7252747252747253, -0.21875, 0.53125, -0.71875, 0.0
822, 1.568986568986569, -2.062271062271062, -0.684981684981685, -0.25, 0.6875, -1.1875, 0.0
823, 1.3846153846153846, -1.927960927960928, -0.3785103785103785, -0.25, 0.78125, -1.3125, 0.0
824, 1.3846153846153846, -1.7423687423687424, -0.17826617826617827, -0.1875, 0.78125, -1.4375, 0.0
825, 1.2380952380952381, -1.807081807081807, -0.05616605616605617, -0.0625, 0.8125, -1.625, 0.0
826, 0.9328449328449329, -2.122100122100122, -0.1746031746031746, 0.0, 0.875, -1.78125, 0.0
827, 0.7936507936507936, -2.5921855921855923, -0.1575091575091575, 0.0, 0.90625, -1.9375, 0.0
828, 0.5409035409035409, -2.634920634920635, 0.042735042735042736, -0.03125, 0.9375, -2.15625, 0.0
829, 0.31868131868131866, -2.8290598290598292, 0.1562881562881563, -0.125, 0.84375, -2.34375, 0.0
830, 0.19413919413919414, -2.6227106227106227, 0.32722832722832723, -0.15625, 0.6875, -2.5, 0.0
831, -0.4517704517704518, -2.8058608058608057, 0.304029304029304, -0.1875, 0.6875, -2.625, 0.0
832, -0.652014652014652, -2.807081807081807, 0.47374847374847373, -0.25, 0.71875, -2.75, 0.0
833, -0.5641025641025641, -2.752136752136752, 0.5897435897435898, -0.21875, 0.71875, -2.90625, 0.0
834, -0.7362637362637363, -2.6715506715506714, 0.8498168498168498, 0.0, 0.78125, -3.09375, 0.0
835, -1.4175824175824177, -2.757020757020757, 0.7387057387057387, 0.21875, 0.9375, -3.0625, 0.0
836, -1.0451770451770452, -2.873015873015873, 0.4932844932844933, 0.3125, 0.96875, -3.21875, 0.0
837, -1.4713064713064714, -3.4554334554334556, 0.37362637362637363, 0.21875, 0.75, -3.40625, 0.0
838, -2.2161172161172162, -2.916971916971917, 0.4163614163614164, 0.0625, 0.59375, -3.53125, 0.0
839, -2.868131868131868, -2.352869352869353, 0.525030525030525, 0.21875, 0.71875, -3.65625, 0.0
840, -2.8632478632478633, -2.409035409035409, 0.575091575091575, 0.46875, 0.9375, -3.6875, 0.0
841, -2.687423687423687, -2.785103785103785, 0.4481074481074481, 0.59375, 1.125, -3.5625, 0.0
842, -2.5164835164835164, -2.231990231990232, 0.5946275946275946, 0.5, 1.03125, -3.40625, 0.0
843, -2.989010989010989, -2.1819291819291817, 0.7277167277167277, 0.625, 0.90625, -3.46875, 0.0
844, -3.31990231990232, -2.004884004884005, 0.8070818070818071, 0.71875, 0.90625, -3.4375, 0.0
845, -2.7753357753357752, -1.347985347985348, 0.3907203907203907, 0.9375, 1.125, -3.3125, 0.0
846, -2.485958485958486, -2.094017094017094, -0.8925518925518926, 1.125, 0.96875, -3.0625, 0.0
847, -2.9975579975579976, -2.1794871794871793, -1.774114774114774, 0.625, 0.6875, -2.8125, 0.0
848, -4.371184371184371, -0.9560439560439561, -1.4212454212454213, 0.53125, 1.0625, -2.71875, 0.0
849, -4.153846153846154, 0.3785103785103785, -0.7155067155067155, 0.84375, 1.46875, -2.34375, 0.0
850, -3.5934065934065935, 0.8449328449328449, -0.8315018315018315, 1.28125, 1.625, -1.9375, 0.0
851, -3.1086691086691087, 0.11233211233211234, -1.6715506715506716, 1.34375, 1.375, -1.75, 0.0
852, -3.8363858363858365, 0.5347985347985348, -2.2112332112332114, 1.21875, 1.21875, -1.65625, 0.0
853, -3.8742368742368742, 0.8290598290598291, -2.3345543345543347, 1.0625, 1.15625, -1.5625, 0.0
854, -3.6764346764346763, 0.851037851037851, -2.4932844932844933, 0.90625, 1.0625, -1.46875, 0.0
855, -3.706959706959707, 1.1001221001221002, -2.557997557997558, 0.75, 0.875, -1.46875, 0.0
856, -3.3846153846153846, 1.5396825396825398, -2.4114774114774113, 0.59375, 0.53125, -1.40625, 0.0
857, -3.9853479853479854, 1.595848595848596, -2.3675213675213675, 0.3125, 0.21875, -1.1875, 0.0
858, -5.261294261294261, 1.3907203907203907, -2.4053724053724053, 0.0625, 0.375, -0.90625, 0.0
859, -4.572649572649572, 2.029304029304029, -1.8583638583638584, -0.09375, 0.5625, -0.40625, 0.0
860, -4.25030525030525, 1.5995115995115996, -1.4175824175824177, -0.0625, 0.59375, -0.0625, 0.0
861, -2.8547008547008548, 1.164835164835165, -0.9731379731379731, -0.125, 0.40625, 0.03125, 0.0
862, -2.4297924297924296, 0.9242979242979243, -0.6678876678876678, -0.21875, -0.0625, 0.03125, 0.0
863, -1.9401709401709402, 0.5775335775335775, -0.28815628815628813, -0.1875, -0.25, -0.0625, 0.0
864, -1.2844932844932846, 0.57997557997558, -0.2442002442002442, -0.15625, -0.21875, 0.03125, 0.0
865, -0.4725274725274725, 0.37606837606837606, -0.3504273504273504, -0.03125, -0.03125, 0.34375, 0.0
866, 0.6361416361416361, -0.3028083028083028, -0.28205128205128205, 0.0625, 0.15625, 0.4375, 0.0
867, 1.3540903540903542, -0.7802197802197802, -0.25274725274725274, 0.03125, 0.1875, 0.21875, 0.0
868, 1.4212454212454213, -0.5482295482295483, -0.07448107448107448, -0.03125, 0.125, 0.0, 0.0
869, 0.43101343101343104, -0.34798534798534797, 0.21855921855921856, -0.09375, 0.0, -0.21875, 0.0
870, 0.03418803418803419, -0.11233211233211234, 0.6105006105006106, -0.03125, 0.09375, -0.1875, 0.0
871, -0.10866910866910867, -0.1330891330891331, 0.7667887667887668, 0.03125, 0.15625, -0.15625, 0.0
872, -0.04395604395604396, -0.10134310134310134, 0.6581196581196581, 0.15625, 0.21875, -0.1875, 0.0
873, -0.40293040293040294, -0.14041514041514042, 0.38217338217338215, 0.1875, 0.25, -0.25, 0.0
874, -0.2661782661782662, -0.13553113553113552, 0.02197802197802198, 0.1875, 0.28125, -0.25, 1.0
875, -0.7484737484737485, 0.22832722832722832, -0.28083028083028083, 0.0625, 0.375, -0.1875, 1.0
876, -0.3308913308913309, 0.13064713064713065, -0.5970695970695971, 0.0, 0.40625, -0.125, 1.0
877, 0.07326007326007326, 0.36874236874236876, -0.7057387057387058, 0.0, 0.25, -0.15625, 1.0
878, -0.05128205128205128, 0.3064713064713065, -1.037851037851038, -0.03125, 0.125, -0.1875, 1.0
879, -0.24175824175824176, 0.7130647130647131, -1.2991452991452992, -0.03125, 0.0, -0.1875, 1.0
880, -0.78998778998779, 1.122100122100122, -1.7374847374847375, 0.0, -0.1875, -0.25, 1.0
881, -3.838827838827839, 1.5299145299145298, -2.2246642246642248, 0.0, -0.34375, -0.25, 1.0
882, -4.423687423687424, 1.652014652014652, -2.912087912087912, -0.0625, -0.25, -0.03125, 1.0
883, -4.62026862026862, 1.5299145299145298, -3.562881562881563, -0.25, -0.46875, 0.15625, 1.0
884, -7.157509157509158, 2.1452991452991452, -3.735042735042735, -0.5, -0.78125, 0.3125, 1.0
885, -8.323565323565324, 2.652014652014652, -3.2783882783882783, -0.5625, -0.78125, 0.84375, 1.0
886, -7.5506715506715505, 1.7191697191697193, -3.131868131868132, -0.53125, -0.875, 1.53125, 1.0
887, -6.52014652014652, 0.608058608058608, -3.3382173382173383, -0.625, -1.34375, 2.03125, 1.0
888, -6.367521367521367, 0.07081807081807082, -3.7496947496947497, -0.78125, -1.8125, 2.40625, 1.0
889, -6.825396825396825, 0.6642246642246642, -3.7374847374847375, -0.84375, -1.9375, 2.875, 1.0
890, -6.515262515262515, -0.7448107448107448, -4.024420024420024, -0.78125, -1.78125, 3.53125, 1.0
891, -4.586080586080586, -1.7521367521367521, -3.8986568986568986, -0.8125, -1.71875, 4.125, 1.0
892, -3.365079365079365, -2.6678876678876677, -3.653235653235653, -0.90625, -2.3125, 4.375, 1.0
893, -4.571428571428571, -3.5995115995115996, -3.391941391941392, -0.9375, -2.40625, 4.5, 1.0
894, -5.115995115995116, -4.549450549450549, -2.6996336996337, -0.8125, -2.0625, 4.96875, 1.0
895, -4.257631257631258, -6.746031746031746, -2.133089133089133, -0.53125, -1.65625, 5.46875, 1.0
896, -2.7484737484737485, -8.997557997557998, -1.5677655677655677, -0.40625, -1.4375, 5.625, 1.0
897, -2.105006105006105, -10.612942612942613, -0.9413919413919414, -0.5, -1.21875, 5.40625, 1.0
898, -1.7692307692307692, -11.006105006105006, 0.1575091575091575, -0.53125, -1.03125, 5.15625, 1.0
899, -0.7216117216117216, -11.113553113553113, 0.9755799755799756, -0.3125, -1.125, 5.03125, 1.0
900, 0.6825396825396826, -11.623931623931623, 0.7887667887667887, -0.125, -1.46875, 4.75, 1.0
901, 0.8571428571428571, -11.661782661782661, 0.32112332112332115, -0.1875, -1.53125, 4.25, 1.0
902, 0.5018315018315018, -10.4993894993895, -0.03540903540903541, -0.21875, -1.1875, 3.78125, 1.0
903, 1.0293040293040292, -9.073260073260073, -0.1794871794871795, -0.15625, -0.875, 3.46875, 1.0
904, 0.9755799755799756, -6.94993894993895, 0.6263736263736264, 0.0, -0.3125, 3.09375, 1.0
905, 1.9511599511599511, -6.240537240537241, 1.2075702075702075, 0.09375, 0.03125, 2.96875, 1.0
906, 3.2234432234432235, -5.665445665445666, 1.5714285714285714, 0.1875, 0.0, 2.59375, 1.0
907, 2.9462759462759465, -4.6239316239316235, 1.8412698412698412, 0.1875, -0.40625, 2.1875, 1.0
908, 3.2014652014652016, -3.608058608058608, 1.6874236874236874, 0.21875, -0.8125, 1.84375, 1.0
909, 3.8766788766788767, -3.3272283272283274, 0.6495726495726496, 0.34375, -1.125, 1.53125, 1.0
910, 3.884004884004884, -3.1416361416361416, -1.1147741147741148, 0.375, -1.375, 1.125, 1.0
911, 3.2014652014652016, -2.1904761904761907, -2.2405372405372406, 0.3125, -1.375, 0.6875, 1.0
912, 2.0146520146520146, -1.0903540903540903, -2.496947496947497, 0.21875, -0.875, 0.5625, 1.0
913, 2.8803418803418803, -0.6312576312576312, -2.092796092796093, 0.28125, -0.21875, 0.625, 1.0
914, 3.336996336996337, -0.5873015873015873, -1.9792429792429793, 0.3125, -0.125, 0.5625, 1.0
915, 2.694749694749695, -0.5372405372405372, -1.9768009768009769, 0.21875, -0.1875, 0.28125, 1.0
916, 2.1245421245421245, -0.09157509157509157, -1.8571428571428572, 0.125, -0.03125, 0.21875, 1.0
917, 1.5811965811965811, 0.1562881562881563, -1.768009768009768, 0.125, 0.0, 0.15625, 1.0
918, 1.21001221001221, 0.38461538461538464, -1.5885225885225884, 0.09375, 0.0, 0.125, 1.0
919, 0.8302808302808303, 0.315018315018315, -1.496947496947497, 0.09375, 0.125, 0.0625, 1.0
920, 0.6019536019536019, 0.0463980463980464, -1.2393162393162394, 0.03125, 0.1875, 0.0, 1.0
921, 0.10378510378510379, -0.01098901098901099, -0.9755799755799756, -0.0625, 0.15625, -0.0625, 1.0
922, -0.47496947496947495, 0.1807081807081807, -0.36752136752136755, -0.125, 0.125, -0.0625, 1.0
923, -0.5299145299145299, 0.24053724053724054, 0.052503052503052504, -0.0625, 0.09375, -0.0625, 1.0
924, -0.4126984126984127, -0.019536019536019536, 0.3540903540903541, 0.0, 0.0625, -0.0625, 1.0
925, -0.4725274725274725, -0.03907203907203907, 0.21367521367521367, 0.0, -0.09375, -0.0625, 1.0
926, -0.8266178266178266, 0.16117216117216118, -0.031746031746031744, 0.0, -0.15625, -0.03125, 1.0
927, -0.6471306471306472, 0.14774114774114774, -0.15384615384615385, 0.0, 0.0, 0.0, 1.0
928, -0.06105006105006105, -0.11477411477411477, -0.17826617826617827, -0.03125, -0.03125, -0.0625, 1.0
929, -0.5885225885225885, 0.10622710622710622, -0.050061050061050064, -0.03125, -0.09375, -0.0625, 1.0
930, -0.6117216117216118, 0.231990231990232, 0.11843711843711843, 0.0, 0.0, 0.0, 1.0
931, -0.1391941391941392, -0.09401709401709402, 0.057387057387057384, 0.0, 0.0, 0.0, 1.0
932, 0.2954822954822955, -0.2258852258852259, 0.019536019536019536, 0.0, -0.03125, 0.0, 1.0
933, -0.03296703296703297, -0.08302808302808302, -0.07936507936507936, 0.0, -0.125, -0.0625, 1.0
934, -0.6935286935286935, 0.10256410256410256, 0.009768009768009768, -0.03125, -0.09375, -0.0625, 1.0
935, -0.4126984126984127, 0.1330891330891331, 0.03296703296703297, 0.0, -0.0625, 0.0, 1.0
936, 0.08791208791208792, -0.009768009768009768, -0.15873015873015872, 0.0, -0.0625, 0.0625, 1.0
937, 0.36874236874236876, 0.013431013431013432, -0.1978021978021978, 0.0, -0.03125, 0.03125, 1.0
938, 0.47496947496947495, -0.052503052503052504, -0.2148962148962149, 0.0, -0.03125, 0.0, 1.0
939, 0.3711843711843712, -0.05616605616605617, -0.3162393162393162, 0.0, -0.03125, -0.0625, 1.0
940, 0.07203907203907203, 0.08058608058608059, -0.3247863247863248, -0.0625, 0.0, -0.0625, 1.0
941, -0.2148962148962149, 0.6581196581196581, -0.18315018315018314, 0.0, -0.03125, 0.0, 1.0
942, 0.08058608058608059, 0.3626373626373626, -0.17094017094017094, 0.09375, -0.03125, 0.0, 1.0
943, 0.36996336996337, 0.22466422466422467, -0.3321123321123321, 0.09375, 0.0, 0.03125, 1.0
944, 0.5457875457875457, -0.018315018315018316, -0.4078144078144078, 0.09375, 0.0, 0.0, 1.0
945, -0.04151404151404151, -0.09645909645909646, -0.5311355311355311, -0.0625, 0.03125, -0.0625, 1.0
946, 0.050061050061050064, 0.16483516483516483, -0.5775335775335775, -0.3125, 0.0, 0.03125, 1.0
947, -0.10378510378510379, 0.19291819291819293, -0.7191697191697192, -0.46875, 0.0625, 0.21875, 0.0
948, 0.12087912087912088, 0.5115995115995116, -0.21733821733821734, -0.21875, 0.21875, 0.3125, 0.0
949, 1.4126984126984128, -0.015873015873015872, -0.04395604395604396, -0.0625, 0.15625, 0.25, 0.0
950, 1.1721611721611722, -0.4945054945054945, -0.2087912087912088, 0.0, 0.0625, -0.09375, 0.0
951, 1.0927960927960927, -0.8461538461538461, -0.5311355311355311, -0.03125, 0.0, -0.25, 0.0
952, 1.115995115995116, -0.8351648351648352, -0.6495726495726496, -0.09375, 0.0, -0.40625, 0.0
953, 0.9829059829059829, -0.811965811965812, -0.6068376068376068, -0.09375, 0.09375, -0.5, 0.0
954, 1.2332112332112333, -1.0134310134310134, -0.6275946275946276, -0.0625, 0.3125, -0.59375, 0.0
955, 2.1074481074481075, -1.4896214896214897, -0.9145299145299145, 0.0, 0.40625, -0.8125, 0.0
956, 2.075702075702076, -2.36996336996337, -1.2893772893772895, -0.0625, 0.40625, -1.03125, 0.0
957, 1.6385836385836385, -2.7252747252747254, -1.3028083028083028, -0.28125, 0.5625, -1.40625, 0.0
958, 1.3711843711843712, -2.800976800976801, -0.7912087912087912, -0.46875, 0.78125, -1.71875, 0.0
959, 1.192918192918193, -2.7814407814407813, -0.29426129426129427, -0.53125, 0.9375, -2.0, 0.0
960, 0.9194139194139194, -3.0134310134310134, -0.115995115995116, -0.5, 0.96875, -2.21875, 0.0
961, 0.3516483516483517, -3.203907203907204, -0.008547008547008548, -0.46875, 1.0, -2.4375, 0.0
962, -0.001221001221001221, -3.227106227106227, 0.12942612942612944, -0.59375, 0.9375, -2.65625, 0.0
963, -0.20024420024420025, -2.9511599511599513, 0.32234432234432236, -0.59375, 0.875, -2.78125, 0.0
964, -0.7130647130647131, -2.8046398046398044, 0.36874236874236876, -0.5, 0.90625, -2.84375, 0.0
965, -1.1111111111111112, -2.844932844932845, 0.32844932844932845, -0.28125, 1.0625, -2.875, 0.0
966, -1.4993894993894994, -3.062271062271062, 0.326007326007326, -0.1875, 1.21875, -2.90625, 0.0
967, -1.586080586080586, -2.9450549450549453, 0.4603174603174603, -0.21875, 1.21875, -2.90625, 0.0
968, -1.5677655677655677, -2.6935286935286937, 0.6678876678876678, -0.21875, 1.0, -2.9375, 0.0
969, -1.9133089133089134, -2.282051282051282, 0.6788766788766789, -0.0625, 0.84375, -3.0, 0.0
970, -2.7203907203907205, -2.568986568986569, 0.4554334554334554, 0.09375, 0.9375, -2.96875, 0.0
971, -3.1623931623931623, -2.3223443223443225, 0.6056166056166056, 0.21875, 1.34375, -2.90625, 0.0
972, -2.385836385836386, -1.656898656898657, 0.7716727716727717, 0.34375, 1.46875, -2.84375, 0.0
973, -1.6947496947496947, -1.6691086691086692, 0.978021978021978, 0.3125, 1.125, -2.65625, 0.0
974, -2.557997557997558, -1.4847374847374848, 0.518925518925519, 0.65625, 0.90625, -2.71875, 0.0
975, -2.8522588522588523, -1.1355311355311355, -0.06349206349206349, 0.84375, 1.0625, -2.6875, 0.0
976, -2.2747252747252746, -0.960927960927961, -0.4884004884004884, 1.03125, 1.125, -2.78125, 0.0
977, -1.9523809523809523, -1.5238095238095237, -0.9084249084249084, 0.96875, 0.9375, -2.90625, 0.0
978, -2.4774114774114775, -1.133089133089133, -0.9304029304029304, 0.5625, 0.53125, -2.65625, 0.0
979, -2.6446886446886446, -0.4908424908424908, -1.006105006105006, 0.5, 0.53125, -2.65625, 0.0
980, -2.8754578754578755, -0.5494505494505495, -1.253968253968254, 0.65625, 0.65625, -2.6875, 0.0
981, -2.68009768009768, -0.3711843711843712, -1.221001221001221, 0.71875, 0.8125, -2.65625, 0.0
982, -2.9853479853479854, -1.0842490842490842, -0.9804639804639804, 0.65625, 1.0, -2.5625, 0.0
983, -2.6483516483516483, 0.054945054945054944, -0.7301587301587301, 0.40625, 0.96875, -2.125, 0.0
984, -2.4774114774114775, 0.3076923076923077, -0.978021978021978, 0.53125, 0.9375, -2.0, 0.0
985, -2.8998778998779, -0.398046398046398, -1.1111111111111112, 0.4375, 0.875, -1.96875, 0.0
986, -2.9865689865689866, 0.03296703296703297, -0.645909645909646, 0.3125, 1.0, -2.0, 0.0
987, -2.6483516483516483, 0.9401709401709402, -0.002442002442002442, 0.4375, 1.0625, -1.9375, 0.0
988, -1.8717948717948718, 1.0976800976800978, 0.16361416361416362, 0.71875, 0.9375, -1.8125, 0.0
989, -1.7728937728937728, 0.9987789987789988, -0.5665445665445665, 0.96875, 0.8125, -1.9375, 0.0
990, -1.7936507936507937, 0.5311355311355311, -1.4566544566544566, 0.75, 0.375, -1.9375, 0.0
991, -2.5604395604395602, 0.4126984126984127, -1.938949938949939, 0.1875, -0.09375, -1.59375, 0.0
992, -3.536019536019536, 1.6251526251526252, -1.4822954822954824, 0.0, -0.125, -1.40625, 0.0
993, -4.057387057387057, 2.1086691086691087, -0.8632478632478633, 0.125, 0.09375, -1.09375, 0.0
994, -4.384615384615385, 2.1172161172161172, -0.9633699633699634, 0.25, 0.375, -0.6875, 0.0
995, -3.6984126984126986, 1.9816849816849818, -1.1062271062271063, 0.28125, 0.5, -0.3125, 0.0
996, -2.9584859584859586, 1.5445665445665446, -1.137973137973138, 0.21875, 0.4375, -0.03125, 0.0
997, -1.5396825396825398, 0.684981684981685, -0.6752136752136753, 0.03125, 0.25, 0.03125, 0.0
998, -0.8827838827838828, 0.5811965811965812, -0.536019536019536, -0.0625, 0.125, 0.03125, 0.0
999, -0.29304029304029305, 0.27594627594627597, -0.4017094017094017, -0.0625, 0.03125, 0.0625, 0.0
1000, 0.44078144078144077, 0.06837606837606838, -0.3894993894993895, -0.03125, -0.03125, 0.0625, 0.0
1001, 0.29304029304029305, -0.2869352869352869, -0.37484737484737485, -0.03125, -0.0625, 0.0625, 0.0
1002, 0.0989010989010989, -0.21611721611721613, -0.2686202686202686, -0.03125, 0.0, 0.03125, 0.0
1003, 0.3553113553113553, -0.14285714285714285, -0.1978021978021978, -0.03125, 0.125, 0.03125, 0.0
1004, 0.46153846153846156, -0.10500610500610501, -0.20634920634920634, 0.0, 0.125, 0.0, 0.0
1005, -0.002442002442002442, -0.045177045177045176, 0.02197802197802198, -0.03125, 0.0, -0.03125, 0.0
1006, -0.2783882783882784, -0.018315018315018316, 0.1807081807081807, -0.03125, 0.0, -0.0625, 0.0
1007, -0.34676434676434675, 0.03418803418803419, 0.2515262515262515, -0.03125, 0.0625, 0.0, 0.0
1008, -0.10134310134310134, 0.2515262515262515, 0.27594627594627597, 0.0, 0.09375, 0.03125, 0.0
1009, 0.10256410256410256, 0.10134310134310134, 0.18803418803418803, 0.125, 0.0, 0.03125, 0.0
1010, 0.27350427350427353, -0.08424908424908426, -0.0757020757020757, 0.125, -0.0625, 0.0, 0.0
1011, 0.22832722832722832, -0.09645909645909646, -0.2454212454212454, 0.0625, -0.0625, -0.0625, 0.0
1012, 0.3333333333333333, 0.03907203907203907, -0.3614163614163614, 0.0, -0.0625, -0.09375, 0.0
1013, 0.2515262515262515, 0.17338217338217338, -0.3956043956043956, 0.0, -0.0625, -0.09375, 0.0
1014, 0.002442002442002442, 0.13553113553113552, -0.39194139194139194, 0.03125, 0.0, -0.09375, 0.0
1015, -0.02564102564102564, 0.007326007326007326, -0.17704517704517705, 0.0625, 0.125, -0.0625, 0.0
1016, 0.33821733821733824, -0.06471306471306472, -0.2148962148962149, 0.03125, 0.15625, -0.15625, 0.0
1017, 0.09035409035409035, -0.02442002442002442, -0.07203907203907203, 0.0, 0.09375, -0.25, 0.0
1018, -0.4017094017094017, 0.34065934065934067, 0.10622710622710622, 0.15625, 0.125, -0.34375, 0.0
1019, -1.1123321123321124, 0.63003663003663, 0.29304029304029305, 0.5, 0.28125, -0.46875, 0.0
1020, -1.1807081807081807, 0.19291819291819293, -0.03540903540903541, 0.625, 0.46875, -0.8125, 1.0
1021, -1.4236874236874237, -0.08058608058608059, -1.1782661782661783, 0.25, 0.1875, -0.8125, 1.0
1022, -3.468864468864469, 0.9792429792429792, -1.4261294261294262, 0.0625, 0.0, -0.71875, 1.0
1023, -6.409035409035409, 2.277167277167277, -1.5115995115995116, 0.0625, 0.09375, -0.4375, 1.0
1024, -7.385836385836386, 3.572649572649573, -1.3443223443223444, 0.21875, 0.21875, 0.1875, 1.0
1025, -7.463980463980464, 2.7362637362637363, -2.402930402930403, 0.53125, 0.0, 0.625, 1.0
1026, -9.78998778998779, 2.473748473748474, -3.387057387057387, 0.46875, -0.5625, 1.0, 1.0
1027, -11.02930402930403, 2.5714285714285716, -3.8131868131868134, 0.1875, -0.625, 1.625, 1.0
1028, -10.401709401709402, 2.111111111111111, -3.5824175824175826, 0.0, -0.6875, 2.40625, 1.0
1029, -8.925518925518926, 0.7435897435897436, -3.9218559218559217, -0.09375, -1.0, 3.15625, 1.0
1030, -6.7936507936507935, -1.5531135531135531, -4.515262515262515, -0.28125, -1.40625, 3.65625, 1.0
1031, -5.166056166056166, -3.0903540903540905, -4.818070818070818, -0.78125, -1.84375, 3.75, 1.0
1032, -4.400488400488401, -3.5164835164835164, -4.351648351648351, -1.375, -2.40625, 3.84375, 1.0
1033, -4.6923076923076925, -3.2735042735042734, -3.706959706959707, -1.1875, -2.4375, 4.21875, 1.0
1034, -3.9621489621489623, -3.9914529914529915, -3.064713064713065, -0.84375, -2.4375, 4.75, 1.0
1035, -3.31013431013431, -6.518925518925519, -3.340659340659341, -0.75, -2.3125, 5.0, 1.0
1036, -2.755799755799756, -8.163614163614163, -3.4615384615384617, -0.9375, -1.84375, 4.875, 1.0
1037, -2.0256410256410255, -8.581196581196581, -2.7020757020757022, -0.96875, -1.5625, 4.9375, 1.0
1038, -1.0244200244200243, -8.565323565323565, -1.8913308913308913, -0.65625, -1.5, 5.03125, 1.0
1039, 0.11355311355311355, -8.627594627594627, -1.468864468864469, -0.1875, -1.53125, 5.03125, 1.0
1040, 0.18315018315018314, -9.945054945054945, -2.010989010989011, -0.0625, -1.46875, 4.875, 1.0
1041, 0.09157509157509157, -11.085470085470085, -2.5347985347985347, -0.5, -0.90625, 4.4375, 1.0
1042, 1.188034188034188, -9.55067155067155, -1.42002442002442, -0.59375, -0.65625, 4.34375, 1.0
1043, 2.183150183150183, -8.857142857142858, -0.3833943833943834, -0.25, -0.46875, 3.90625, 1.0
1044, 2.1294261294261294, -7.318681318681318, 1.7106227106227105, -0.125, -0.21875, 3.625, 1.0
1045, 2.514041514041514, -6.7094017094017095, 2.4383394383394386, 0.0, -0.125, 3.375, 1.0
1046, 2.4053724053724053, -6.039072039072039, 2.9572649572649574, 0.21875, 0.0, 3.125, 1.0
1047, 2.5885225885225887, -5.313797313797314, 3.5641025641025643, 0.5, 0.125, 2.84375, 1.0
1048, 3.3272283272283274, -5.16971916971917, 3.4615384615384617, 0.59375, -0.09375, 2.53125, 1.0
1049, 3.230769230769231, -4.752136752136752, 2.600732600732601, 0.5, -0.59375, 1.90625, 1.0
1050, 1.8034188034188035, -3.184371184371184, 1.9951159951159951, 0.34375, -0.9375, 1.46875, 1.0
1051, 1.728937728937729, -2.070818070818071, 2.056166056166056, 0.375, -0.90625, 1.375, 1.0
1052, 2.8913308913308913, -2.098901098901099, 1.4505494505494505, 0.5625, -0.9375, 1.28125, 1.0
1053, 2.3882783882783882, -1.5885225885225884, 0.009768009768009768, 0.65625, -1.0, 1.09375, 1.0
1054, 1.8547008547008548, -1.2735042735042734, -0.9804639804639804, 0.65625, -0.6875, 0.96875, 1.0
1055, 3.087912087912088, -1.1953601953601953, -1.6141636141636142, 0.40625, -0.25, 0.625, 1.0
1056, 3.501831501831502, -0.6336996336996337, -1.8888888888888888, 0.34375, -0.21875, 0.375, 1.0
1057, 2.341880341880342, 0.07081807081807082, -2.0634920634920637, 0.34375, -0.03125, 0.28125, 1.0
1058, 2.001221001221001, 0.34065934065934067, -2.05006105006105, 0.34375, 0.09375, 0.25, 1.0
1059, 1.9706959706959708, 0.3797313797313797, -1.8547008547008548, 0.25, 0.125, 0.1875, 1.0
1060, 1.7179487179487178, 0.452991452991453, -1.3492063492063493, 0.1875, 0.09375, 0.0625, 1.0
1061, 1.5115995115995116, 0.7289377289377289, -1.1514041514041513, 0.15625, -0.03125, -0.0625, 1.0
1062, 0.5396825396825397, 0.6752136752136753, -1.242979242979243, 0.09375, -0.15625, -0.125, 1.0
1063, -0.15873015873015872, 0.7509157509157509, -1.4297924297924298, 0.0, -0.0625, -0.09375, 1.0
1064, -0.2258852258852259, 0.7216117216117216, -1.3308913308913308, 0.0, 0.03125, -0.0625, 1.0
1065, -0.2783882783882784, 0.6984126984126984, -1.0451770451770452, 0.0, 0.09375, -0.03125, 1.0
1066, -0.39316239316239315, 0.7094017094017094, -0.4554334554334554, 0.0, 0.125, 0.0, 1.0
1067, 0.006105006105006105, -0.002442002442002442, -0.09523809523809523, 0.0, 0.0625, 0.0, 1.0
1068, 0.11843711843711843, -0.06593406593406594, -0.08669108669108669, -0.03125, 0.0, -0.03125, 1.0
1069, -0.2905982905982906, -0.05616605616605617, 0.09157509157509157, -0.03125, -0.03125, -0.0625, 1.0
1070, -0.4456654456654457, 0.14652014652014653, 0.4468864468864469, 0.0, -0.03125, -0.0625, 1.0
1071, -0.36385836385836384, -0.16361416361416362, 0.590964590964591, 0.03125, -0.03125, -0.03125, 1.0
1072, -0.007326007326007326, -0.28083028083028083, 0.3125763125763126, 0.0, -0.09375, -0.03125, 1.0
1073, 0.0989010989010989, -0.2490842490842491, 0.026862026862026864, 0.0, -0.125, -0.09375, 1.0
1074, -0.3833943833943834, -0.03785103785103785, 0.11965811965811966, 0.0, -0.09375, -0.09375, 1.0
1075, -0.16971916971916973, 0.07081807081807082, 0.39438339438339437, 0.0, 0.0, -0.0625, 1.0
1076, 0.16117216117216118, 0.02442002442002442, 0.32967032967032966, 0.03125, -0.125, -0.09375, 1.0
1077, 0.0, -0.10622710622710622, -0.21978021978021978, 0.0, -0.28125, -0.15625, 1.0
1078, -0.463980463980464, 0.17338217338217338, -0.3443223443223443, -0.03125, -0.125, -0.09375, 1.0
1079, -0.37484737484737485, 0.43833943833943834, -0.221001221001221, 0.0, 0.0, -0.03125, 1.0
1080, 0.08791208791208792, 0.19658119658119658, -0.3064713064713065, 0.03125, -0.0625, -0.03125, 1.0
1081, -0.13553113553113552, 0.358974358974359, -0.47374847374847373, 0.0625, -0.0625, -0.03125, 1.0
1082, -0.2844932844932845, 0.2796092796092796, -0.5115995115995116, 0.03125, 0.0, 0.0, 1.0
1083, 0.05372405372405373, 0.2905982905982906, -0.5702075702075702, 0.0, 0.0, 0.0, 1.0
1084, 0.32112332112332115, 0.13797313797313798, -0.5335775335775336, 0.0, 0.0, 0.0, 1.0
1085, 0.2673992673992674, 0.17582417582417584, -0.5921855921855922, 0.0, 0.0, 0.0, 1.0
1086, 0.2222222222222222, 0.05128205128205128, -0.24786324786324787, 0.0, 0.0, 0.0, 1.0
1087, 0.20512820512820512, -0.01221001221001221, -0.31013431013431014, -0.03125, 0.03125, 0.0, 1.0
1088, 0.14652014652014653, 0.003663003663003663, -0.21123321123321123, -0.09375, 0.0625, 0.0, 1.0
1089, 0.28205128205128205, -0.2454212454212454, -0.3028083028083028, -0.21875, 0.03125, 0.0, 1.0
1090, 0.30036630036630035, -0.018315018315018316, -0.25518925518925517, -0.25, 0.125, 0.0, 1.0
1091, 0.2490842490842491, -0.01098901098901099, -0.231990231990232, -0.25, 0.15625, 0.0, 1.0
1092, 0.47374847374847373, -0.050061050061050064, -0.18315018315018314, -0.28125, 0.1875, 0.0, 0.0
1093, 0.4700854700854701, -0.057387057387057384, -0.27594627594627597, -0.25, 0.15625, -0.0625, 0.0
1094, 1.3821733821733821, -0.4700854700854701, -0.5311355311355311, -0.15625, 0.21875, -0.125, 0.0
1095, 1.037851037851038, -0.706959706959707, -0.7350427350427351, -0.15625, 0.1875, -0.15625, 0.0
1096, 1.442002442002442, -1.170940170940171, -0.7631257631257631, -0.125, 0.28125, -0.3125, 0.0
1097, 1.6043956043956045, -1.4029304029304028, -0.8608058608058609, -0.125, 0.34375, -0.59375, 0.0
1098, 1.358974358974359, -1.7094017094017093, -0.9755799755799756, -0.125, 0.40625, -0.90625, 0.0
1099, 1.120879120879121, -1.901098901098901, -0.9511599511599511, -0.21875, 0.46875, -1.15625, 0.0
1100, 1.037851037851038, -2.161172161172161, -0.7838827838827839, -0.28125, 0.65625, -1.3125, 0.0
1101, 1.1245421245421245, -1.9963369963369964, -0.4017094017094017, -0.3125, 0.8125, -1.53125, 0.0
1102, 1.0463980463980465, -2.2332112332112333, -0.35775335775335776, -0.125, 0.875, -1.84375, 0.0
1103, 0.6227106227106227, -2.877899877899878, -0.3711843711843712, -0.15625, 0.9375, -2.0625, 0.0
1104, 0.09645909645909646, -3.065934065934066, -0.0927960927960928, -0.28125, 1.0625, -2.21875, 0.0
1105, 0.221001221001221, -3.028083028083028, 0.3540903540903541, -0.3125, 1.125, -2.34375, 0.0
1106, 0.12942612942612944, -2.8351648351648353, 0.5677655677655677, -0.25, 1.0, -2.5, 0.0
1107, -0.36996336996337, -2.9194139194139193, 0.6923076923076923, -0.15625, 0.90625, -2.6875, 0.0
1108, -1.0231990231990231, -2.9865689865689866, 0.6825396825396826, -0.0625, 0.9375, -2.84375, 0.0
1109, -1.1391941391941391, -2.993894993894994, 0.6263736263736264, 0.0, 1.0, -2.96875, 0.0
1110, -1.2442002442002442, -3.437118437118437, 0.6385836385836385, -0.125, 0.90625, -2.96875, 0.0
1111, -0.9633699633699634, -2.8937728937728937, 1.05006105006105, -0.1875, 0.71875, -3.125, 0.0
1112, -0.8766788766788767, -2.4554334554334556, 1.2185592185592184, -0.0625, 0.4375, -3.28125, 0.0
1113, -1.2026862026862026, -2.5238095238095237, 0.9218559218559218, 0.15625, 0.34375, -3.5, 0.0
1114, -3.6678876678876677, -2.5873015873015874, 0.08180708180708181, 0.09375, 0.65625, -3.25, 0.0
1115, -3.318681318681319, -1.7692307692307692, 0.33577533577533575, 0.1875, 1.15625, -3.03125, 0.0
1116, -2.05006105006105, -1.6544566544566544, 0.1978021978021978, 0.46875, 1.28125, -3.0, 0.0
1117, -2.1794871794871793, -2.860805860805861, -0.3663003663003663, 0.625, 1.0, -3.1875, 0.0
1118, -2.758241758241758, -2.669108669108669, -0.6678876678876678, 0.46875, 0.84375, -3.53125, 0.0
1119, -3.3162393162393164, -2.1746031746031744, -0.9658119658119658, 0.34375, 0.78125, -3.53125, 0.0
1120, -3.1746031746031744, -1.9914529914529915, -1.1123321123321124, 0.375, 0.875, -3.53125, 0.0
1121, -3.4395604395604398, -1.9401709401709402, -0.8583638583638583, 0.375, 0.875, -3.59375, 0.0
1122, -3.507936507936508, -1.8058608058608059, -0.757020757020757, 0.375, 1.0, -3.5625, 0.0
1123, -4.22954822954823, -1.656898656898657, -0.7057387057387058, 0.5, 1.21875, -3.53125, 0.0
1124, -3.746031746031746, -1.6666666666666667, -0.7948717948717948, 0.53125, 1.34375, -3.3125, 0.0
1125, -4.031746031746032, -1.0207570207570207, -0.6336996336996337, 0.4375, 1.25, -2.78125, 0.0
1126, -3.6483516483516483, -0.6227106227106227, -0.6105006105006106, 0.625, 1.3125, -2.59375, 0.0
1127, -3.6446886446886446, -0.5079365079365079, -1.1477411477411477, 0.84375, 1.40625, -2.59375, 0.0
1128, -3.6544566544566544, -0.05982905982905983, -1.5677655677655677, 0.875, 1.21875, -2.59375, 0.0
1129, -5.172161172161172, -0.27228327228327226, -1.9047619047619047, 0.40625, 1.0, -2.03125, 0.0
1130, -6.245421245421245, 0.818070818070818, -1.4871794871794872, 0.21875, 1.15625, -1.40625, 0.0
1131, -5.442002442002442, 1.8266178266178266, -1.1794871794871795, 0.40625, 1.3125, -0.875, 0.0
1132, -3.918192918192918, 1.3565323565323566, -1.5152625152625152, 0.46875, 1.125, -0.59375, 0.0
1133, -3.1001221001221, 0.6471306471306472, -1.8766788766788767, 0.25, 0.84375, -0.625, 0.0
1134, -3.1172161172161172, 1.1294261294261294, -1.6935286935286935, 0.0625, 0.65625, -0.625, 0.0
1135, -3.2576312576312576, 0.967032967032967, -1.424908424908425, 0.0, 0.59375, -0.5625, 0.0
1136, -2.9853479853479854, 1.205128205128205, -1.0879120879120878, 0.0625, 0.5625, -0.46875, 0.0
1137, -2.8803418803418803, 0.6996336996336996, -0.6800976800976801, -0.15625, 0.15625, -0.125, 0.0
1138, -2.6336996336996337, 0.8705738705738706, -0.5347985347985348, -0.1875, 0.0, 0.09375, 0.0
1139, -1.7057387057387057, 0.5445665445665445, -0.6800976800976801, -0.03125, -0.09375, 0.1875, 0.0
1140, -1.0964590964590966, -0.3504273504273504, -0.9926739926739927, 0.0, -0.1875, 0.21875, 0.0
1141, -0.7692307692307693, -0.1916971916971917, -0.7643467643467643, -0.15625, -0.15625, 0.125, 0.0
1142, -0.0463980463980464, -0.031746031746031744, -0.4017094017094017, -0.15625, -0.125, 0.15625, 0.0
1143, 0.20146520146520147, -0.2148962148962149, -0.10989010989010989, -0.125, -0.1875, 0.21875, 0.0
1144, 0.5091575091575091, -0.24053724053724054, 0.17094017094017094, -0.0625, -0.15625, 0.21875, 0.0
1145, 0.6361416361416361, -0.6642246642246642, 0.04884004884004884, 0.0, -0.09375, 0.1875, 0.0
1146, 1.144078144078144, -0.612942612942613, 0.17094017094017094, -0.03125, 0.0, 0.03125, 0.0
1147, 1.0744810744810744, -0.4065934065934066, 0.398046398046398, -0.0625, 0.0, -0.0625, 0.0
1148, 0.7924297924297924, -0.2039072039072039, 0.5274725274725275, 0.03125, -0.03125, -0.21875, 0.0
1149, 0.2979242979242979, -0.13186813186813187, 0.4822954822954823, 0.09375, -0.0625, -0.25, 0.0
1150, -0.0989010989010989, 0.030525030525030524, 0.1794871794871795, 0.125, 0.0, -0.28125, 0.0
1151, -0.4249084249084249, 0.015873015873015872, -0.08913308913308914, 0.0625, 0.09375, -0.1875, 0.0
1152, -0.43101343101343104, 0.04884004884004884, -0.21001221001221002, 0.03125, 0.1875, -0.15625, 0.0
1153, -0.1282051282051282, 0.19291819291819293, 0.04395604395604396, 0.0625, 0.1875, -0.15625, 0.0
1154, 0.2454212454212454, 0.07326007326007326, -0.20512820512820512, 0.09375, 0.03125, -0.1875, 0.0
1155, 0.14285714285714285, -0.045177045177045176, -0.4236874236874237, 0.03125, 0.0, -0.25, 0.0
1156, -0.32967032967032966, 0.14407814407814407, -0.4126984126984127, 0.03125, 0.125, -0.28125, 0.0
1157, -0.35775335775335776, 0.13675213675213677, -0.2222222222222222, 0.03125, 0.25, -0.28125, 0.0
1158, -0.3894993894993895, 0.2087912087912088, -0.21001221001221002, 0.03125, 0.21875, -0.34375, 0.0
1159, -0.9291819291819292, 0.4993894993894994, 0.017094017094017096, 0.125, 0.125, -0.40625, 0.0
1160, -1.7387057387057387, 0.652014652014652, -0.12454212454212454, 0.34375, 0.21875, -0.53125, 0.0
1161, -2.0952380952380953, 1.0842490842490842, -0.12454212454212454, 0.6875, 0.375, -0.71875, 0.0
1162, -0.9096459096459096, 0.6263736263736264, -0.7936507936507936, 1.03125, 0.34375, -0.875, 1.0
1163, -3.2979242979242978, 0.9291819291819292, -1.5995115995115996, 0.71875, -0.1875, -0.4375, 1.0
1164, -8.659340659340659, 1.8058608058608059, -2.0842490842490844, 0.3125, -0.53125, 0.15625, 1.0
1165, -12.68009768009768, 1.9084249084249085, -2.7362637362637363, 0.125, -0.15625, 1.1875, 1.0
1166, -13.947496947496948, 3.087912087912088, -2.1587301587301586, -0.03125, -0.1875, 2.71875, 1.0
1167, -12.224664224664224, 3.2002442002442004, -2.0842490842490844, 0.28125, -0.6875, 3.8125, 1.0
1168, -10.488400488400488, 0.43956043956043955, -3.572649572649573, 0.625, -1.65625, 4.625, 1.0
1169, -9.63125763125763, -4.8498168498168495, -6.4774114774114775, 0.09375, -2.1875, 4.78125, 1.0
1170, -6.7313797313797314, -5.095238095238095, -6.183150183150183, -1.125, -1.875, 4.46875, 1.0
1171, -4.962148962148962, -3.9755799755799757, -4.2515262515262515, -1.6875, -1.65625, 4.78125, 1.0
1172, -3.1684981684981683, -4.7313797313797314, -2.9023199023199022, -1.46875, -1.75, 5.0, 1.0
1173, -2.2002442002442004, -5.503052503052503, -1.7545787545787546, -1.15625, -2.03125, 5.15625, 1.0
1174, -2.0952380952380953, -7.661782661782662, -2.006105006105006, -1.03125, -2.03125, 5.0625, 1.0
1175, -1.5628815628815629, -8.039072039072039, -2.0024420024420024, -0.875, -1.90625, 4.90625, 1.0
1176, -1.7765567765567765, -7.695970695970696, -1.2893772893772895, -0.5625, -1.90625, 4.96875, 1.0
1177, -2.166056166056166, -7.902319902319903, -0.4884004884004884, -0.15625, -1.8125, 5.09375, 1.0
1178, -1.5225885225885225, -8.633699633699633, -0.004884004884004884, 0.28125, -1.84375, 5.34375, 1.0
1179, -0.8974358974358975, -9.63003663003663, 0.14163614163614163, 0.71875, -2.0, 5.375, 1.0
1180, -0.37606837606837606, -11.304029304029305, -0.9560439560439561, 0.6875, -2.0, 5.0, 1.0
1181, -0.5518925518925519, -12.117216117216117, -2.1245421245421245, 0.125, -1.5, 4.5, 1.0
1182, -0.12332112332112333, -10.054945054945055, -1.7667887667887667, -0.125, -0.84375, 4.1875, 1.0
1183, 0.6727716727716728, -8.041514041514041, 0.463980463980464, 0.03125, -0.15625, 4.0625, 1.0
1184, 1.8766788766788767, -6.293040293040293, 1.5067155067155067, 0.5, 0.125, 3.8125, 1.0
1185, 2.537240537240537, -7.012210012210012, 0.9719169719169719, 0.75, 0.21875, 3.375, 1.0
1186, 3.542124542124542, -5.8669108669108665, -0.020757020757020756, 0.5, 0.09375, 2.78125, 1.0
1187, 2.7106227106227108, -4.616605616605616, -0.16605616605616605, 0.15625, -0.21875, 2.25, 1.0
1188, 2.982905982905983, -3.4481074481074483, 0.6227106227106227, 0.0625, -0.34375, 1.8125, 1.0
1189, 2.8974358974358974, -2.501831501831502, 0.49694749694749696, 0.15625, -0.59375, 1.46875, 1.0
1190, 2.6166056166056166, -2.1257631257631258, -0.09523809523809523, 0.25, -0.71875, 1.25, 1.0
1191, 2.7643467643467643, -1.358974358974359, -0.6336996336996337, 0.28125, -0.625, 1.0625, 1.0
1192, 3.4432234432234434, -1.4774114774114775, -1.4261294261294262, 0.40625, -0.4375, 1.03125, 1.0
1193, 4.042735042735043, -1.4175824175824177, -2.0305250305250304, 0.375, -0.3125, 0.96875, 1.0
1194, 4.029304029304029, -0.9047619047619048, -2.0146520146520146, 0.25, -0.21875, 0.8125, 1.0
1195, 3.78998778998779, -0.5616605616605617, -1.8998778998778998, 0.28125, 0.15625, 0.59375, 1.0
1196, 4.0, -0.7081807081807082, -1.7387057387057387, 0.3125, 0.28125, 0.34375, 1.0
1197, 2.7106227106227108, -0.6715506715506715, -1.5396825396825398, 0.1875, 0.3125, 0.15625, 1.0
1198, 1.4297924297924298, -0.1623931623931624, -1.0586080586080586, 0.0, 0.375, 0.125, 1.0
1199, 1.2832722832722834, 0.27472527472527475, -0.1282051282051282, 0.0, 0.28125, 0.03125, 1.0
1200, 1.3284493284493284, 0.20024420024420025, 0.04151404151404151, 0.0, -0.0625, -0.09375, 1.0
1201, 0.27472527472527475, 0.22344322344322345, -0.315018315018315, 0.0, -0.21875, -0.21875, 1.0
1202, -0.9951159951159951, 0.35653235653235654, -0.8046398046398047, -0.03125, -0.0625, -0.125, 1.0
1203, -0.8974358974358975, 0.45665445665445664, -0.6117216117216118, -0.03125, 0.125, -0.03125, 1.0
1204, -0.41025641025641024, 0.1452991452991453, -0.26373626373626374, -0.03125, 0.125, -0.03125, 1.0
1205, -0.8058608058608059, 0.17216117216117216, 0.08791208791208792, -0.09375, 0.0625, -0.03125, 1.0
1206, -1.0915750915750915, 0.4981684981684982, 0.43345543345543347, 0.0, -0.03125, 0.0625, 1.0
1207, -0.0463980463980464, -0.3882783882783883, 0.2612942612942613, 0.0625, 0.0, 0.09375, 1.0
1208, 0.39316239316239315, -0.6227106227106227, -0.10256410256410256, 0.03125, -0.03125, 0.03125, 1.0
1209, 0.08058608058608059, -0.29304029304029305, -0.2148962148962149, -0.03125, -0.03125, 0.0, 1.0
1210, -0.009768009768009768, 0.12576312576312576, 0.11843711843711843, -0.0625, -0.03125, -0.0625, 1.0
1211, 0.03907203907203907, 0.09401709401709402, 0.1916971916971917, -0.03125, -0.09375, -0.09375, 1.0
1212, -0.10744810744810745, -0.01221001221001221, 0.02442002442002442, 0.0, -0.15625, -0.09375, 1.0
1213, -0.2503052503052503, -0.12942612942612944, -0.2686202686202686, 0.0, -0.125, -0.125, 1.0
1214, -0.31135531135531136, 0.08791208791208792, -0.3601953601953602, -0.0625, -0.0625, -0.09375, 1.0
1215, -0.2612942612942613, 0.28815628815628813, -0.10866910866910867, -0.09375, 0.0, -0.03125, 1.0
1216, 0.045177045177045176, 0.115995115995116, 0.25518925518925517, 0.0, -0.03125, 0.0, 1.0
1217, 0.02564102564102564, -0.10378510378510379, 0.11233211233211234, 0.03125, -0.125, 0.0, 1.0
1218, 0.08547008547008547, -0.007326007326007326, -0.2515262515262515, 0.03125, -0.09375, 0.0, 1.0
1219, 0.07936507936507936, -0.06349206349206349, -0.39194139194139194, 0.0, 0.0625, 0.0, 1.0
1220, 0.23076923076923078, -0.01221001221001221, -0.23321123321123322, 0.0, 0.09375, 0.0, 1.0
1221, 0.3443223443223443, 0.050061050061050064, -0.0695970695970696, 0.0, -0.03125, -0.03125, 1.0
1222, -0.002442002442002442, 0.21123321123321123, -0.17338217338217338, 0.0, -0.09375, -0.03125, 1.0
1223, -0.09645909645909646, 0.24786324786324787, -0.3199023199023199, 0.03125, 0.0, 0.0, 1.0
1224, -0.06471306471306472, 0.11477411477411477, -0.409035409035409, 0.0, 0.125, 0.03125, 1.0
1225, 0.14652014652014653, -0.026862026862026864, -0.41514041514041516, 0.0, 0.125, 0.03125, 1.0
1226, 0.5152625152625152, 0.001221001221001221, -0.017094017094017096, 0.0, 0.03125, 0.0, 1.0
1227, 0.10866910866910867, 0.13064713064713065, -0.017094017094017096, 0.03125, -0.03125, -0.0625, 1.0
1228, -0.13675213675213677, 0.09523809523809523, -0.11355311355311355, 0.0, -0.0625, -0.03125, 1.0
1229, 0.0231990231990232, 0.06227106227106227, -0.3833943833943834, 0.0, 0.0, -0.03125, 1.0
1230, 0.7863247863247863, -0.5067155067155067, -0.4175824175824176, -0.0625, 0.125, -0.03125, 1.0
1231, 1.1489621489621489, -0.9072039072039072, -0.409035409035409, -0.09375, 0.1875, -0.0625, 1.0
1232, 1.4725274725274726, -1.3064713064713065, -0.5714285714285714, -0.25, 0.28125, -0.125, 1.0
1233, 1.783882783882784, -1.6813186813186813, -0.9255189255189256, -0.5, 0.40625, -0.09375, 0.0
1234, 1.7875457875457876, -1.7912087912087913, -1.1477411477411477, -0.59375, 0.625, -0.21875, 0.0
1235, 3.039072039072039, -2.3235653235653237, -0.9584859584859585, -0.625, 0.84375, -0.59375, 0.0
1236, 2.8107448107448105, -2.9279609279609278, -0.6898656898656899, -0.46875, 0.96875, -1.09375, 0.0
1237, 2.706959706959707, -3.3076923076923075, -0.8705738705738706, -0.28125, 1.0625, -1.46875, 0.0
1238, 2.393162393162393, -4.029304029304029, -0.960927960927961, -0.1875, 1.0625, -1.75, 0.0
1239, 1.9926739926739927, -4.212454212454213, -0.7362637362637363, -0.21875, 1.1875, -2.125, 0.0
1240, 1.5982905982905984, -4.0, -0.5616605616605617, -0.21875, 1.21875, -2.5, 0.0
1241, 0.7338217338217338, -4.655677655677656, -0.5115995115995116, -0.21875, 1.3125, -2.84375, 0.0
1242, 0.09645909645909646, -4.603174603174603, -0.17094017094017094, -0.09375, 1.5625, -3.09375, 0.0
1243, 0.16605616605616605, -4.097680097680097, 0.026862026862026864, 0.0, 1.5, -3.28125, 0.0
1244, 0.221001221001221, -3.9316239316239314, -0.02442002442002442, 0.0625, 1.15625, -3.5, 0.0
1245, -0.2576312576312576, -4.1440781440781445, -0.3504273504273504, 0.0, 0.84375, -3.84375, 0.0
1246, -1.4114774114774116, -4.017094017094017, -0.42002442002442003, -0.15625, 0.75, -4.0625, 0.0
