timestamp, accX, accY, accZ, gyroX, gyroY, gyroZ, button
8005, 2.6105006105006106, -1.8144078144078144, 0.0231990231990232, 0.34375, -2.9375, -1.0625, 0.0
8006, -0.27228327228327226, -1.5824175824175823, -0.6825396825396826, 0.21875, -4.0625, -1.8125, 0.0
8007, -3.0549450549450547, -0.6752136752136753, -1.5164835164835164, 0.15625, -3.90625, -2.03125, 0.0
1, -4.418803418803419, 0.20634920634920634, -2.070818070818071, 0.375, -2.75, -1.625, 0.0
2, -4.559218559218559, 0.7142857142857143, -2.3272283272283274, 0.625, -1.25, -0.4375, 0.0
3, -3.5763125763125765, 0.8217338217338217, -2.0305250305250304, 0.6875, 0.625, 0.28125, 0.0
4, -2.2454212454212454, 0.6324786324786325, -1.4456654456654456, 0.5625, 1.15625, 0.75, 0.0
5, -1.0622710622710623, 0.4053724053724054, -0.7997557997557998, 0.4375, 1.15625, 0.90625, 0.0
6, -0.30158730158730157, 0.525030525030525, -0.1330891330891331, 0.3125, 0.84375, 0.84375, 0.0
7, 0.08669108669108669, 0.6166056166056166, 0.3785103785103785, 0.1875, 0.375, 0.71875, 0.0
8, -0.1221001221001221, 0.7887667887667887, 0.5726495726495726, 0.125, 0.0, 0.6875, 0.0
9, -0.5177045177045178, 0.9987789987789988, 0.7838827838827839, 0.15625, -0.1875, 0.75, 0.0
10, -0.9352869352869353, 0.6923076923076923, 0.47496947496947495, 0.21875, -0.15625, 0.84375, 0.0
11, -0.8595848595848596, 0.514041514041514, 0.3894993894993895, 0.21875, 0.0, 0.90625, 0.0
12, -0.7094017094017094, 0.5934065934065934, 0.28815628815628813, 0.25, 0.125, 1.125, 0.0
13, -0.32234432234432236, 0.21733821733821734, 0.3528693528693529, 0.3125, 0.25, 1.34375, 0.0
14, 0.1746031746031746, -0.1562881562881563, -0.10134310134310134, 0.21875, 0.4375, 1.53125, 0.0
15, 0.5396825396825397, -0.612942612942613, 0.0, 0.15625, 0.59375, 1.53125, 0.0
16, 0.8644688644688645, -0.6776556776556777, 0.004884004884004884, 0.15625, 0.6875, 1.5625, 0.0
17, 1.164835164835165, -0.7863247863247863, -0.06593406593406594, 0.15625, 0.71875, 1.59375, 0.0
18, 1.4578754578754578, -1.0341880341880343, -0.18681318681318682, 0.15625, 0.6875, 1.53125, 0.0
19, 1.807081807081807, -1.0976800976800978, -0.1916971916971917, 0.15625, 0.59375, 1.375, 0.0
20, 1.8876678876678876, -1.0671550671550671, -0.23687423687423687, 0.125, 0.40625, 1.1875, 0.0
21, 1.8083028083028083, -0.9157509157509157, -0.1684981684981685, 0.125, 0.25, 0.96875, 0.0
22, 1.6556776556776556, -0.9755799755799756, -0.23443223443223443, 0.125, 0.125, 0.78125, 0.0
23, 1.5054945054945055, -0.9413919413919414, -0.28205128205128205, 0.0625, 0.09375, 0.59375, 0.0
24, 1.435897435897436, -0.6288156288156288, -0.17094017094017094, 0.0, 0.0625, 0.40625, 0.0
25, 1.2698412698412698, -0.3028083028083028, 0.0, 0.0, 0.0625, 0.25, 0.0
26, 1.1074481074481075, -0.1221001221001221, 0.10012210012210013, 0.0625, 0.0, 0.0625, 0.0
27, 0.9291819291819292, 0.02442002442002442, 0.10378510378510379, 0.09375, -0.03125, 0.0, 0.0
28, 0.6764346764346765, 0.14774114774114774, 0.14041514041514042, 0.09375, -0.09375, -0.125, 0.0
29, 0.46764346764346765, 0.33455433455433453, 0.17094017094017094, 0.09375, -0.1875, -0.15625, 0.0
30, 0.3028083028083028, 0.47496947496947495, 0.1684981684981685, 0.09375, -0.25, -0.1875, 0.0
31, 0.15506715506715507, 0.5128205128205128, 0.11233211233211234, 0.09375, -0.28125, -0.21875, 0.0
32, 0.07692307692307693, 0.5457875457875457, 0.07326007326007326, 0.125, -0.3125, -0.25, 0.0
33, -0.009768009768009768, 0.5201465201465202, -0.01221001221001221, 0.125, -0.3125, -0.25, 0.0
34, -0.13064713064713065, 0.3492063492063492, -0.14652014652014653, 0.125, -0.28125, -0.25, 0.0
35, -0.1807081807081807, 0.03663003663003663, -0.32234432234432236, 0.0625, -0.1875, -0.28125, 0.0
36, -0.21367521367521367, 0.019536019536019536, -0.2869352869352869, 0.0, -0.125, -0.3125, 0.0
37, -0.15873015873015872, 0.221001221001221, -0.23076923076923078, 0.0, 0.0, -0.21875, 0.0
38, -0.13675213675213677, 0.013431013431013432, -0.15018315018315018, 0.03125, 0.0625, -0.21875, 0.0
39, -0.018315018315018316, -0.12087912087912088, -0.2026862026862027, 0.0, 0.0625, -0.21875, 0.0
40, -0.04151404151404151, -0.25274725274725274, -0.28083028083028083, -0.03125, 0.03125, -0.28125, 0.0
41, -0.1391941391941392, -0.1746031746031746, -0.221001221001221, -0.125, 0.0, -0.3125, 0.0
42, -0.34798534798534797, 0.05860805860805861, -0.21733821733821734, -0.125, 0.03125, -0.28125, 0.0
43, -0.7973137973137974, 0.4139194139194139, 0.12332112332112333, 0.03125, 0.21875, -0.1875, 0.0
44, -0.6910866910866911, 0.24297924297924298, 0.12576312576312576, 0.28125, 0.5, -0.0625, 0.0
45, -0.38705738705738707, -0.199023199023199, 0.16971916971916973, 0.4375, 0.71875, 0.0, 0.0
46, -0.24053724053724054, -0.15262515262515264, 0.08058608058608059, 0.40625, 0.71875, -0.0625, 0.0
47, -0.115995115995116, -0.20757020757020758, 0.028083028083028084, 0.3125, 0.5625, -0.09375, 0.0
48, -0.36874236874236876, 0.06105006105006105, 0.09645909645909646, 0.28125, 0.40625, -0.125, 0.0
49, -0.398046398046398, 0.03907203907203907, 0.19047619047619047, 0.21875, 0.28125, -0.1875, 0.0
50, -0.32844932844932845, 0.19658119658119658, 0.18681318681318682, 0.1875, 0.1875, -0.15625, 0.0
51, -0.525030525030525, 0.41025641025641024, 0.11477411477411477, 0.28125, 0.21875, -0.0625, 0.0
52, -0.28327228327228327, 0.15018315018315018, 0.17338217338217338, 0.21875, 0.1875, -0.0625, 0.0
53, -0.06593406593406594, 0.02197802197802198, 0.11721611721611722, 0.125, 0.03125, -0.09375, 0.0
54, -0.07814407814407814, 0.12087912087912088, 0.054945054945054944, 0.0, -0.0625, -0.09375, 0.0
55, -0.05616605616605617, 0.21245421245421245, -0.06105006105006105, 0.0, -0.09375, -0.03125, 0.0
56, 0.040293040293040296, 0.16971916971916973, 0.24175824175824176, 0.0, -0.125, -0.0625, 0.0
57, 0.0, 0.14774114774114774, 0.06349206349206349, 0.0, -0.125, -0.0625, 0.0
58, 0.015873015873015872, 0.21978021978021978, 0.17216117216117216, -0.09375, -0.125, -0.0625, 0.0
59, 0.3772893772893773, -0.003663003663003663, 0.07692307692307693, -0.15625, -0.3125, -0.0625, 0.0
60, 0.5201465201465202, -0.1562881562881563, 0.05982905982905983, -0.28125, -0.46875, -0.21875, 0.0
61, 0.16605616605616605, 0.31013431013431014, -0.1807081807081807, -0.0625, -0.40625, -0.15625, 0.0
62, 1.407814407814408, 0.008547008547008548, -1.0366300366300367, 0.1875, -0.8125, -0.5625, 0.0
63, 0.5213675213675214, 0.09157509157509157, -1.0048840048840049, 0.1875, -0.875, -0.625, 0.0
64, -0.29304029304029305, 0.17094017094017094, -1.1343101343101343, 0.1875, -0.875, -0.53125, 0.0
65, -0.9072039072039072, 0.4236874236874237, -0.9938949938949939, 0.09375, -0.6875, -0.28125, 0.0
66, -1.3003663003663004, 0.6385836385836385, -0.7619047619047619, 0.0, -0.3125, 0.0, 0.0
67, -0.7252747252747253, 1.017094017094017, 0.4175824175824176, -0.09375, 0.28125, 0.46875, 0.0
68, 0.04884004884004884, 0.800976800976801, 0.9181929181929182, -0.09375, 0.5, 0.6875, 0.0
69, 0.8290598290598291, 0.46153846153846156, 1.105006105006105, -0.03125, 0.46875, 0.75, 0.0
70, 1.4224664224664225, 0.0757020757020757, 1.0451770451770452, 0.03125, 0.21875, 0.6875, 0.0
71, 1.7667887667887667, -0.07814407814407814, 0.8034188034188035, 0.125, -0.0625, 0.53125, 0.0
72, 2.1343101343101343, -0.24664224664224665, 0.2686202686202686, 0.28125, -0.40625, 0.28125, 0.0
73, 1.9255189255189256, -0.4468864468864469, -0.3785103785103785, 0.375, -0.75, 0.0, 0.0
74, 1.3101343101343101, -0.47374847374847373, -0.7655677655677655, 0.375, -0.90625, -0.21875, 0.0
75, 0.41514041514041516, -0.28083028083028083, -0.7338217338217338, 0.3125, -0.84375, -0.34375, 0.0
76, 0.23321123321123322, 0.14163614163614163, -0.5470085470085471, 0.28125, -0.71875, -0.34375, 0.0
77, 0.45054945054945056, 0.29426129426129427, -0.4725274725274725, 0.3125, -0.71875, -0.3125, 0.0
78, 0.29181929181929184, 0.25518925518925517, -0.5555555555555556, 0.3125, -1.0, -0.46875, 0.0
79, -0.36385836385836384, 0.2869352869352869, -0.6312576312576312, 0.25, -1.0625, -0.46875, 0.0
80, -1.0158730158730158, 0.47374847374847373, -0.6776556776556777, 0.125, -0.90625, -0.28125, 0.0
81, -1.2466422466422467, 0.6788766788766789, -0.3992673992673993, 0.0, -0.5, 0.0, 0.0
82, -0.927960927960928, 0.8815628815628815, 0.1623931623931624, -0.09375, -0.0625, 0.25, 0.0
83, -0.21733821733821734, 1.0036630036630036, 0.7338217338217338, -0.09375, 0.15625, 0.4375, 0.0
84, 0.6056166056166056, 0.8974358974358975, 1.0048840048840049, -0.03125, 0.125, 0.46875, 0.0
85, 1.0903540903540903, 0.49694749694749696, 0.9523809523809523, -0.03125, -0.0625, 0.375, 0.0
86, 1.1807081807081807, 0.23443223443223443, 0.800976800976801, -0.125, -0.25, 0.3125, 0.0
87, 1.0341880341880343, -0.006105006105006105, 0.5457875457875457, -0.1875, -0.3125, 0.28125, 0.0
88, 0.9816849816849816, -0.1391941391941392, 0.4175824175824176, -0.21875, -0.21875, 0.28125, 0.0
89, 1.1367521367521367, -0.221001221001221, 0.3235653235653236, -0.21875, -0.0625, 0.25, 0.0
90, 1.1660561660561661, -0.4713064713064713, 0.398046398046398, -0.21875, 0.09375, 0.125, 0.0
91, 0.8986568986568987, -0.3772893772893773, 0.673992673992674, -0.25, 0.21875, 0.0625, 0.0
92, 0.9230769230769231, -0.315018315018315, 0.8351648351648352, -0.1875, 0.28125, 0.0, 0.0
93, 1.0293040293040292, -0.3308913308913309, 0.7948717948717948, -0.125, 0.1875, -0.0625, 0.0
94, 0.9194139194139194, -0.45054945054945056, 0.6153846153846154, -0.0625, 0.03125, -0.1875, 0.0
95, 0.46886446886446886, -0.34676434676434675, 0.41025641025641024, -0.125, -0.0625, -0.3125, 0.0
96, 0.05128205128205128, -0.2087912087912088, 0.336996336996337, -0.125, -0.03125, -0.375, 0.0
97, -0.18437118437118438, -0.0757020757020757, 0.27472527472527475, -0.0625, 0.0, -0.375, 0.0
98, -0.358974358974359, 0.007326007326007326, 0.2271062271062271, -0.03125, 0.0625, -0.40625, 0.0
99, -0.4065934065934066, -0.008547008547008548, 0.08180708180708181, -0.03125, 0.0625, -0.40625, 0.0
100, -0.4468864468864469, 0.20146520146520147, 0.004884004884004884, -0.0625, 0.0, -0.40625, 0.0
101, -0.5885225885225885, 0.2905982905982906, -0.01221001221001221, -0.125, -0.03125, -0.34375, 0.0
102, -0.6923076923076923, 0.3968253968253968, 0.013431013431013432, -0.125, 0.09375, -0.3125, 0.0
103, -0.6117216117216118, 0.2612942612942613, 0.017094017094017096, -0.0625, 0.15625, -0.25, 0.0
104, -0.2698412698412698, -0.09645909645909646, -0.17094017094017094, -0.03125, 0.0625, -0.3125, 0.0
105, -0.23687423687423687, -0.31868131868131866, -0.5592185592185592, -0.09375, -0.09375, -0.40625, 0.0
106, -0.47741147741147744, -0.336996336996337, -0.8547008547008547, -0.21875, -0.25, -0.40625, 0.0
107, -0.9951159951159951, -0.08669108669108669, -0.8827838827838828, -0.34375, -0.15625, -0.375, 0.0
108, -1.315018315018315, 0.09768009768009768, -0.6788766788766789, -0.40625, 0.0625, -0.25, 0.0
109, -1.2087912087912087, 0.21611721611721613, -0.3711843711843712, -0.40625, 0.28125, -0.09375, 0.0
110, -0.7741147741147741, 0.06349206349206349, -0.017094017094017096, -0.46875, 0.34375, 0.0, 0.0
111, -0.4432234432234432, -0.015873015873015872, 0.31013431013431014, -0.5625, 0.25, 0.0, 0.0
112, -0.1575091575091575, -0.18315018315018314, 0.4139194139194139, -0.625, 0.125, 0.0, 0.0
113, -0.10134310134310134, -0.34554334554334554, 0.24786324786324787, -0.65625, -0.03125, 0.0, 0.0
114, -0.5201465201465202, -0.7167277167277167, -0.4249084249084249, -0.59375, 0.0, 0.15625, 0.0
115, -0.5152625152625152, -0.8656898656898657, -0.9072039072039072, -0.53125, 0.09375, 0.34375, 0.0
116, -0.39316239316239315, -0.9499389499389499, -0.8998778998778999, -0.4375, 0.3125, 0.5625, 0.0
117, -0.07936507936507936, -0.7094017094017094, -0.873015873015873, -0.46875, 0.53125, 0.5625, 0.0
118, -0.10744810744810745, -0.38461538461538464, -0.7655677655677655, -0.40625, 0.71875, 0.59375, 0.0
119, -0.4371184371184371, -0.2442002442002442, -0.39438339438339437, -0.34375, 1.0625, 0.59375, 0.0
120, -0.32722832722832723, 0.09768009768009768, -0.0231990231990232, -0.34375, 1.3125, 0.53125, 0.0
121, -0.41147741147741146, -0.10744810744810745, 0.001221001221001221, -0.375, 1.4375, 0.5625, 0.0
122, -0.03907203907203907, -0.11477411477411477, 0.08424908424908426, -0.5, 1.34375, 0.65625, 0.0
123, 0.31013431013431014, 0.05372405372405373, 0.05616605616605617, -0.65625, 1.125, 0.65625, 0.0
124, 0.2857142857142857, 0.10012210012210013, -0.3785103785103785, -0.6875, 0.84375, 0.65625, 0.0
125, -0.2905982905982906, 0.221001221001221, -0.9072039072039072, -0.40625, 1.125, 0.84375, 0.0
126, -0.4627594627594628, 0.11843711843711843, -0.9157509157509157, -0.28125, 1.65625, 0.90625, 0.0
127, -0.115995115995116, 0.27594627594627597, -0.8620268620268621, -0.15625, 2.125, 1.03125, 0.0
128, 0.20757020757020758, 0.34798534798534797, -0.7777777777777778, -0.03125, 2.5, 1.09375, 0.0
129, 0.15384615384615385, 0.44932844932844934, -0.8400488400488401, 0.03125, 3.03125, 1.1875, 0.0
130, -0.41147741147741146, 0.8266178266178266, -0.9035409035409036, 0.375, 4.0625, 1.375, 0.0
131, -0.7350427350427351, 1.0744810744810744, -0.5006105006105006, 0.875, 5.375, 1.53125, 0.0
132, -0.07203907203907203, 1.0415140415140416, 0.0757020757020757, 1.4375, 6.65625, 1.5625, 0.0
133, 0.14774114774114774, 1.5628815628815629, 0.8412698412698413, 1.96875, 7.78125, 1.21875, 0.0
134, 1.2747252747252746, 2.076923076923077, 1.7619047619047619, 2.375, 8.28125, 0.65625, 0.0
135, 1.6056166056166057, 3.0525030525030523, 2.0268620268620268, 2.53125, 8.21875, 0.34375, 0.0
136, 1.336996336996337, 3.8473748473748475, 2.191697191697192, 2.8125, 7.9375, -0.46875, 0.0
137, 0.10500610500610501, 4.813186813186813, 2.647130647130647, 3.0, 7.0625, -0.78125, 0.0
138, -0.07936507936507936, 3.9645909645909647, 1.7521367521367521, 2.96875, 6.34375, -0.875, 0.0
139, -0.24297924297924298, 2.943833943833944, 1.0366300366300367, 2.625, 5.21875, -0.84375, 0.0
140, -0.5958485958485958, 2.144078144078144, 0.6483516483516484, 2.15625, 3.96875, -0.78125, 0.0
141, -1.3308913308913308, 1.619047619047619, 0.24297924297924298, 1.75, 2.84375, -0.71875, 0.0
142, -1.8437118437118436, 1.221001221001221, -0.01221001221001221, 1.4375, 2.125, -0.5625, 0.0
143, -1.6178266178266179, 1.0927960927960927, 0.18803418803418803, 1.25, 1.59375, -0.5625, 0.0
144, -1.956043956043956, 1.10989010989011, -0.2515262515262515, 1.125, 1.125, -0.65625, 0.0
145, -2.2063492063492065, 1.42002442002442, -0.706959706959707, 1.03125, 0.90625, -0.5, 0.0
146, -1.7887667887667889, 1.2466422466422467, -0.8205128205128205, 0.9375, 0.75, -0.3125, 0.0
147, -1.1172161172161172, 1.2039072039072038, -1.028083028083028, 0.6875, 0.40625, -0.15625, 0.0
148, -0.7863247863247863, 1.0732600732600732, -0.8498168498168498, 0.3125, -0.21875, -0.1875, 0.0
149, -1.0695970695970696, 1.3785103785103785, -0.9377289377289377, 0.125, -0.46875, -0.25, 0.0
150, -1.133089133089133, 1.7094017094017093, -0.9560439560439561, 0.0625, -0.53125, -0.15625, 0.0
151, -0.960927960927961, 1.7423687423687424, -0.7667887667887668, 0.0, -0.625, -0.125, 0.0
152, -0.8595848595848596, 1.7533577533577533, -0.5946275946275946, -0.03125, -0.6875, -0.125, 0.0
153, -1.054945054945055, 1.7826617826617828, -0.3528693528693529, -0.09375, -0.65625, -0.21875, 0.0
154, -1.2844932844932846, 1.9987789987789988, -0.6007326007326007, -0.09375, -0.46875, -0.1875, 0.0
155, -1.1086691086691087, 1.9474969474969475, -0.6862026862026862, -0.0625, -0.28125, -0.09375, 0.0
156, -0.7704517704517705, 1.844932844932845, -0.7167277167277167, -0.0625, -0.25, 0.0, 0.0
157, -0.46886446886446886, 1.592185592185592, -0.33577533577533575, -0.1875, -0.375, -0.03125, 0.0
158, -0.6275946275946276, 1.783882783882784, -0.2026862026862027, -0.3125, -0.5, -0.03125, 0.0
159, -0.7350427350427351, 1.8534798534798536, 0.1221001221001221, -0.375, -0.5625, 0.0, 0.0
160, -0.9242979242979243, 1.8058608058608059, 0.12576312576312576, -0.3125, -0.375, 0.15625, 0.0
161, -0.4468864468864469, 1.8766788766788767, 0.36874236874236876, -0.21875, -0.25, 0.1875, 0.0
162, -0.11721611721611722, 1.8705738705738706, 0.4603174603174603, -0.15625, -0.3125, 0.125, 0.0
163, -0.1391941391941392, 1.8608058608058609, 0.2612942612942613, -0.15625, -0.5, 0.125, 0.0
164, 0.12942612942612944, 1.8913308913308913, 0.115995115995116, -0.21875, -0.6875, 0.09375, 0.0
165, 0.42857142857142855, 1.89010989010989, 0.05128205128205128, -0.375, -1.0625, 0.03125, 0.0
166, 0.6275946275946276, 2.0305250305250304, -0.115995115995116, -0.65625, -1.625, -0.03125, 0.0
167, 0.7985347985347986, 2.4334554334554332, 0.23076923076923078, -1.0, -2.3125, -0.15625, 0.0
168, 0.557997557997558, 3.1880341880341883, 0.6153846153846154, -1.46875, -3.21875, -0.09375, 0.0
169, -0.14285714285714285, 4.041514041514041, 1.0586080586080586, -2.0, -4.1875, 0.0, 0.0
170, -0.989010989010989, 5.158730158730159, 1.3601953601953602, -2.5, -4.78125, 0.21875, 0.0
171, -1.2698412698412698, 6.075702075702075, 1.673992673992674, -2.78125, -5.0625, 0.125, 0.0
172, -1.304029304029304, 6.113553113553113, 1.989010989010989, -2.84375, -5.125, -0.15625, 0.0
173, -1.9853479853479854, 5.706959706959707, 2.1184371184371185, -2.75, -4.84375, -0.46875, 0.0
174, -2.553113553113553, 4.847374847374847, 2.0463980463980462, -2.6875, -4.28125, -0.6875, 0.0
175, -3.2576312576312576, 4.764346764346764, 2.451770451770452, -2.25, -3.53125, -0.4375, 0.0
176, -4.163614163614164, 5.126984126984127, 2.06959706959707, -1.375, -2.28125, 0.0, 0.0
177, -4.1208791208791204, 5.512820512820513, 1.7094017094017093, -0.3125, -0.96875, 0.375, 0.0
178, -3.6910866910866913, 5.5225885225885225, 1.7155067155067154, 0.625, -0.0625, 0.6875, 0.0
179, -1.9816849816849818, 4.282051282051282, 1.0915750915750915, 1.0625, 0.0, 0.875, 0.0
180, -0.7484737484737485, 3.1526251526251525, 0.23931623931623933, 0.9375, -0.59375, 0.8125, 0.0
181, -0.3626373626373626, 2.791208791208791, 0.028083028083028084, 0.5625, -1.34375, 0.5625, 0.0
182, -0.6092796092796092, 2.6923076923076925, 0.2515262515262515, 0.1875, -2.09375, 0.25, 0.0
183, -1.7277167277167278, 2.9743589743589745, 0.26495726495726496, -0.125, -3.0625, 0.0, 0.0
184, -2.2808302808302807, 2.5873015873015874, 0.557997557997558, -0.03125, -3.5625, -0.03125, 0.0
185, -1.9987789987789988, 1.4822954822954824, 0.17338217338217338, 0.03125, -4.0, -0.125, 0.0
186, -2.36996336996337, 1.326007326007326, -0.08424908424908426, 0.0625, -4.34375, -0.03125, 0.0
187, -3.1868131868131866, 0.9084249084249084, -0.4627594627594628, 0.21875, -4.21875, 0.34375, 0.0
188, -2.843711843711844, 0.10256410256410256, -1.4163614163614164, 0.34375, -3.53125, 0.65625, 0.0
189, -2.103785103785104, -0.2771672771672772, -2.0146520146520146, 0.53125, -2.65625, 1.03125, 0.0
190, -1.1978021978021978, -0.3443223443223443, -2.363858363858364, 0.75, -1.875, 1.4375, 0.0
191, 0.41514041514041516, -0.7142857142857143, -2.3736263736263736, 0.96875, -1.34375, 1.65625, 0.0
192, 1.5152625152625152, -1.3272283272283272, -2.8302808302808304, 1.0625, -1.375, 1.5625, 0.0
193, 1.8192918192918193, -1.3675213675213675, -3.126984126984127, 0.90625, -1.5625, 1.40625, 0.0
194, 1.8034188034188035, -1.2637362637362637, -3.4004884004884004, 0.78125, -1.59375, 1.125, 0.0
195, 1.8547008547008548, -1.3797313797313797, -3.5763125763125765, 0.3125, -1.53125, 1.09375, 0.0
196, 1.4468864468864469, -1.0732600732600732, -3.6935286935286937, 0.0, -1.375, 1.125, 0.0
197, 1.3162393162393162, -0.5592185592185592, -3.4835164835164836, -0.15625, -1.0, 1.0625, 0.0
198, 1.9047619047619047, -0.13675213675213677, -3.2466422466422467, -0.25, -0.78125, 1.0, 0.0
199, 1.623931623931624, 0.5970695970695971, -2.8693528693528694, -0.09375, -0.375, 1.0, 0.0
200, 1.763125763125763, 0.5543345543345544, -2.4713064713064714, 0.03125, 0.0, 0.84375, 0.0
201, 1.9877899877899878, 0.6544566544566545, -1.84981684981685, 0.0625, 0.09375, 0.71875, 0.0
202, 1.8473748473748475, 0.6105006105006106, -1.6056166056166057, 0.09375, 0.1875, 0.59375, 0.0
203, 1.8547008547008548, 0.800976800976801, -1.1855921855921856, 0.125, 0.28125, 0.375, 0.0
204, 1.978021978021978, 0.8632478632478633, -0.967032967032967, 0.25, 0.34375, 0.15625, 0.0
205, 2.324786324786325, 0.6263736263736264, -0.9365079365079365, 0.28125, 0.28125, 0.0, 0.0
206, 3.2246642246642248, -0.08547008547008547, -1.2796092796092795, -0.03125, -0.15625, -0.1875, 0.0
207, 2.3223443223443225, -0.23443223443223443, -1.5006105006105006, -0.28125, -0.125, -0.4375, 0.0
208, 1.84981684981685, -0.08547008547008547, -1.1318681318681318, -0.4375, 0.03125, -0.53125, 0.0
209, 1.916971916971917, -0.05372405372405373, -0.6959706959706959, -0.46875, 0.1875, -0.625, 0.0
210, 2.115995115995116, -0.5970695970695971, -0.5714285714285714, -0.59375, 0.09375, -0.6875, 0.0
211, 1.6398046398046398, -0.49572649572649574, -0.33821733821733824, -0.8125, -0.15625, -0.84375, 0.0
212, 1.5482295482295483, -0.6007326007326007, -0.32844932844932845, -0.9375, -0.28125, -1.0, 0.0
213, 1.3308913308913308, -0.575091575091575, -0.2026862026862027, -1.125, -0.46875, -1.3125, 0.0
214, 1.0354090354090355, -0.7680097680097681, 0.1391941391941392, -1.21875, -0.625, -1.5625, 0.0
215, 0.05860805860805861, -0.4945054945054945, 0.20634920634920634, -1.1875, -0.6875, -1.5625, 0.0
216, -0.2148962148962149, -0.3333333333333333, 0.34798534798534797, -1.09375, -0.46875, -1.34375, 0.0
217, -0.2576312576312576, -0.4126984126984127, 0.3772893772893773, -1.0, -0.21875, -1.09375, 0.0
218, 0.057387057387057384, -0.8473748473748474, 0.19658119658119658, -0.875, 0.0, -0.9375, 0.0
219, 0.48473748473748474, -1.3418803418803418, 0.15384615384615385, -0.96875, -0.125, -0.96875, 0.0
220, 0.2515262515262515, -1.468864468864469, 0.15506715506715507, -1.15625, -0.375, -0.9375, 0.0
221, -0.673992673992674, -0.8656898656898657, 0.21733821733821734, -1.1875, -0.25, -0.8125, 0.0
222, -1.3772893772893773, -0.31746031746031744, 0.4188034188034188, -0.90625, 0.25, -0.75, 0.0
223, -0.5372405372405372, -0.873015873015873, 0.32112332112332115, -0.75, 0.375, -0.78125, 0.0
224, 0.29426129426129427, -1.3137973137973138, 0.27350427350427353, -0.75, 0.125, -0.90625, 0.0
225, 0.1794871794871795, -1.4212454212454213, 0.199023199023199, -0.78125, -0.09375, -1.1875, 0.0
226, -0.48473748473748474, -1.164835164835165, 0.25518925518925517, -0.78125, -0.15625, -1.28125, 0.0
227, -1.2893772893772895, -0.5921855921855922, 0.4481074481074481, -0.625, 0.03125, -1.15625, 0.0
228, -0.9316239316239316, -0.5201465201465202, 0.5213675213675214, -0.40625, 0.15625, -1.0625, 0.0
229, -0.663003663003663, -0.7191697191697192, 0.3663003663003663, -0.25, 0.125, -1.3125, 0.0
230, -0.5286935286935287, -0.927960927960928, 0.18315018315018314, -0.34375, -0.03125, -1.53125, 0.0
231, -1.061050061050061, -0.10622710622710622, 0.41514041514041516, -0.4375, -0.1875, -1.53125, 0.0
232, -0.9914529914529915, 0.08547008547008547, 0.44932844932844934, -0.28125, -0.0625, -1.34375, 0.0
233, -0.34676434676434675, -0.17338217338217338, 0.28205128205128205, -0.21875, -0.0625, -1.21875, 0.0
234, -0.3956043956043956, -0.1562881562881563, 0.32844932844932845, -0.21875, -0.15625, -1.1875, 0.0
235, -0.17826617826617827, -0.040293040293040296, 0.4896214896214896, -0.125, -0.125, -1.25, 0.0
236, -0.2979242979242979, 0.13797313797313798, 0.5421245421245421, -0.09375, -0.21875, -1.21875, 0.0
237, -0.4822954822954823, 0.6678876678876678, 0.33455433455433453, 0.0, -0.21875, -1.15625, 0.0
238, 0.0757020757020757, 0.7484737484737485, -0.21245421245421245, 0.25, -0.15625, -1.21875, 0.0
239, 0.13186813186813187, 0.3235653235653236, -1.21001221001221, 0.3125, -0.34375, -1.21875, 0.0
240, -0.44932844932844934, 0.11721611721611722, -1.6715506715506716, 0.125, -0.3125, -1.3125, 0.0
241, -0.5238095238095238, 1.0195360195360195, -1.413919413919414, -0.125, -0.0625, -1.15625, 0.0
242, -0.2967032967032967, 1.9352869352869353, -1.0366300366300367, 0.03125, 0.125, -1.0625, 0.0
243, 0.8363858363858364, 2.0463980463980462, -1.2087912087912087, 0.28125, 0.0625, -1.0625, 0.0
244, 1.336996336996337, 1.5811965811965811, -1.9609279609279608, 0.34375, 0.0, -1.1875, 0.0
245, 1.4786324786324787, 0.8754578754578755, -3.092796092796093, 0.1875, -0.09375, -1.53125, 0.0
246, 0.9951159951159951, 1.4212454212454213, -4.124542124542124, -0.03125, -0.28125, -1.90625, 0.0
247, -0.9255189255189256, 2.178266178266178, -4.951159951159951, -0.3125, -0.53125, -2.15625, 0.0
248, -2.6092796092796093, 3.051282051282051, -4.896214896214897, -0.6875, -0.78125, -2.25, 0.0
249, -4.236874236874237, 3.6715506715506714, -4.5787545787545785, -1.09375, -1.15625, -2.15625, 0.0
250, -5.289377289377289, 4.35042735042735, -4.070818070818071, -1.3125, -1.3125, -1.78125, 0.0
251, -5.94993894993895, 4.148962148962149, -3.9194139194139193, -1.4375, -1.4375, -1.3125, 0.0
252, -6.062271062271062, 3.716727716727717, -3.9584859584859586, -1.53125, -1.5625, -0.625, 0.0
253, -6.523809523809524, 2.3492063492063493, -3.4993894993894994, -1.71875, -1.4375, 0.46875, 0.0
254, -5.837606837606837, 1.054945054945055, -3.2161172161172162, -1.6875, -1.09375, 1.21875, 0.0
255, -4.4322344322344325, -0.6666666666666666, -2.755799755799756, -1.6875, -0.71875, 1.875, 0.0
256, -2.9902319902319903, -2.1953601953601956, -2.3345543345543347, -1.78125, -0.71875, 2.28125, 0.0
257, -1.7277167277167278, -3.4285714285714284, -1.8547008547008548, -2.03125, -1.03125, 2.46875, 0.0
258, -1.2942612942612943, -4.482295482295482, -1.380952380952381, -2.28125, -1.53125, 2.5, 0.0
259, -1.6117216117216118, -5.267399267399267, -0.8742368742368742, -2.46875, -2.0625, 2.5, 0.0
260, -2.3089133089133087, -5.045177045177045, -0.3992673992673993, -2.59375, -2.09375, 2.65625, 0.0
261, -2.283272283272283, -5.08058608058608, -0.052503052503052504, -2.28125, -1.8125, 3.03125, 0.0
262, -1.8412698412698412, -5.824175824175824, 0.1111111111111111, -1.71875, -1.5, 3.40625, 0.0
263, -1.2967032967032968, -6.792429792429792, -0.009768009768009768, -1.1875, -1.21875, 3.75, 0.0
264, -0.9633699633699634, -7.568986568986569, -0.2673992673992674, -0.8125, -0.90625, 3.90625, 0.0
265, -0.4810744810744811, -7.981684981684982, 0.007326007326007326, -0.71875, -0.6875, 3.875, 0.0
266, 0.17704517704517705, -7.4774114774114775, 0.5506715506715507, -0.59375, -0.53125, 3.75, 0.0
267, 0.7032967032967034, -7.045177045177045, 0.8754578754578755, -0.375, -0.4375, 3.59375, 0.0
268, 1.0573870573870574, -6.648351648351649, 0.9413919413919414, -0.25, -0.4375, 3.3125, 0.0
269, 1.15995115995116, -6.416361416361417, 0.8449328449328449, -0.3125, -0.5625, 3.125, 0.0
270, 0.4627594627594628, -5.947496947496948, 1.0207570207570207, -0.375, -0.5, 2.90625, 0.0
271, 0.6874236874236874, -5.186813186813187, 1.4639804639804639, -0.3125, -0.34375, 2.75, 0.0
272, 1.4163614163614164, -4.575091575091575, 1.652014652014652, -0.15625, -0.3125, 2.59375, 0.0
273, 1.4884004884004884, -4.078144078144078, 1.6752136752136753, -0.03125, -0.375, 2.40625, 0.0
274, 1.7619047619047619, -3.935286935286935, 1.2405372405372406, -0.03125, -0.5, 2.3125, 0.0
275, 2.398046398046398, -3.6544566544566544, 0.6947496947496947, -0.03125, -0.65625, 2.03125, 0.0
276, 2.7887667887667886, -3.413919413919414, -0.2771672771672772, 0.0, -0.84375, 1.53125, 0.0
277, 2.1001221001221, -2.885225885225885, -0.1855921855921856, 0.0625, -0.34375, 1.34375, 0.0
278, 3.172161172161172, -2.7081807081807083, 0.14407814407814407, 0.21875, 0.15625, 1.25, 0.0
279, 4.644688644688645, -2.800976800976801, 0.15995115995115994, 0.34375, 0.21875, 0.96875, 0.0
280, 4.344322344322344, -2.7777777777777777, -0.11843711843711843, 0.21875, -0.09375, 0.5, 0.0
281, 2.590964590964591, -1.7411477411477412, -0.09523809523809523, 0.0, -0.21875, 0.0625, 0.0
282, 2.0598290598290596, -0.6837606837606838, 0.24786324786324787, -0.03125, -0.15625, -0.125, 0.0
283, 1.9694749694749696, -0.358974358974359, 0.05128205128205128, 0.0, -0.28125, -0.21875, 0.0
284, 0.8852258852258852, 0.003663003663003663, -0.3247863247863248, 0.0, -0.46875, -0.3125, 0.0
285, -0.05128205128205128, 0.26495726495726496, -0.4004884004884005, 0.0, -0.4375, -0.375, 0.0
286, -0.07326007326007326, 0.557997557997558, -0.3907203907203907, 0.0, -0.3125, -0.25, 0.0
287, -0.10866910866910867, 0.44932844932844934, -0.5714285714285714, 0.0, -0.1875, -0.03125, 0.0
288, -0.11355311355311355, 0.358974358974359, -0.6947496947496947, 0.03125, 0.03125, 0.1875, 0.0
289, 0.18681318681318682, -0.009768009768009768, -0.42124542124542125, 0.0, 0.09375, 0.1875, 0.0
290, 0.21978021978021978, -0.1343101343101343, 0.017094017094017096, -0.03125, 0.0625, 0.09375, 0.0
291, 0.49694749694749696, -0.3418803418803419, 0.15262515262515264, -0.03125, -0.125, 0.03125, 0.0
292, 0.3492063492063492, -0.2087912087912088, 0.1452991452991453, 0.0, -0.28125, -0.03125, 0.0
293, 0.040293040293040296, -0.2503052503052503, 0.1684981684981685, 0.0, -0.34375, -0.09375, 0.0
294, -0.05128205128205128, -0.18437118437118438, 0.0989010989010989, 0.0, -0.28125, -0.09375, 0.0
295, 0.08058608058608059, -0.18925518925518925, -0.09645909645909646, 0.0, -0.25, -0.0625, 0.0
296, 0.409035409035409, -0.22954822954822954, -0.28327228327228327, -0.03125, -0.3125, -0.03125, 0.0
297, -0.304029304029304, 0.3614163614163614, -0.050061050061050064, -0.0625, -0.28125, 0.0625, 0.0
298, -1.0842490842490842, 0.5006105006105006, -0.013431013431013432, 0.0625, 0.0, 0.1875, 0.0
299, 0.4249084249084249, 0.37484737484737485, 0.06471306471306472, 0.28125, -0.1875, 0.125, 1.0
300, 1.7301587301587302, -1.0793650793650793, -1.1184371184371185, 0.125, -0.5625, 0.15625, 1.0
301, 2.5873015873015874, -1.9072039072039073, -2.208791208791209, -0.03125, -0.53125, 0.15625, 1.0
302, 3.774114774114774, -3.0256410256410255, -2.4126984126984126, -0.34375, -0.1875, -0.09375, 1.0
303, 5.146520146520147, -2.8754578754578755, -1.3601953601953602, -0.625, -0.09375, -0.625, 1.0
304, 4.7374847374847375, -2.5238095238095237, -1.5506715506715507, -0.59375, -0.09375, -1.21875, 1.0
305, 3.6275946275946276, -3.415140415140415, -2.4774114774114775, -0.3125, 0.03125, -1.4375, 1.0
306, 2.8742368742368742, -5.238095238095238, -2.976800976800977, -0.125, 0.53125, -1.65625, 1.0
307, 2.774114774114774, -6.531135531135531, -1.9536019536019535, -0.09375, 0.9375, -2.03125, 1.0
308, 1.8937728937728937, -7.764346764346764, -0.11355311355311355, -0.21875, 0.90625, -2.5625, 1.0
309, 0.7289377289377289, -8.114774114774114, 1.5042735042735043, -0.09375, 0.84375, -3.0, 1.0
310, -0.47741147741147744, -8.321123321123322, 1.7155067155067154, 0.15625, 0.84375, -3.21875, 1.0
311, -2.2393162393162394, -7.847374847374847, 1.3333333333333333, 0.375, 0.90625, -2.96875, 1.0
312, -2.6434676434676434, -6.885225885225886, 1.6031746031746033, 0.5, 1.1875, -2.875, 1.0
313, -1.271062271062271, -5.283272283272283, 2.1953601953601956, 0.84375, 1.03125, -2.9375, 1.0
314, -1.4664224664224663, -5.043956043956044, 1.6703296703296704, 0.96875, 0.71875, -3.125, 1.0
315, -2.9084249084249083, -3.772893772893773, 0.9804639804639804, 1.15625, 0.5625, -3.0625, 1.0
316, -4.842490842490842, -2.8547008547008548, -0.09523809523809523, 1.28125, 0.8125, -2.875, 1.0
317, -5.516483516483516, -1.623931623931624, 0.2905982905982906, 1.5, 1.28125, -2.53125, 1.0
318, -3.63003663003663, -1.5982905982905984, 0.938949938949939, 1.59375, 1.15625, -2.5625, 1.0
319, -3.202686202686203, -1.1636141636141637, 0.8522588522588522, 1.4375, 0.625, -2.71875, 1.0
320, -4.140415140415141, -0.5946275946275946, 0.19413919413919414, 1.1875, 0.34375, -2.84375, 1.0
321, -5.616605616605616, 0.7387057387057387, -0.03907203907203907, 1.25, 0.53125, -2.625, 1.0
322, -4.471306471306471, 1.2576312576312576, -0.3833943833943834, 1.5625, 0.5625, -2.5, 1.0
323, -4.713064713064713, 0.4249084249084249, -2.3443223443223444, 1.625, 0.375, -2.3125, 1.0
324, -4.185592185592186, 0.5860805860805861, -2.128205128205128, 1.375, 0.28125, -2.28125, 1.0
325, -5.221001221001221, 2.0085470085470085, -2.076923076923077, 1.15625, 0.25, -2.28125, 1.0
326, -5.953601953601954, 3.9926739926739927, -2.481074481074481, 1.28125, 0.3125, -2.03125, 1.0
327, -5.509157509157509, 3.7936507936507935, -3.358974358974359, 1.40625, 0.28125, -1.59375, 1.0
328, -4.791208791208791, 3.669108669108669, -3.283272283272283, 1.28125, 0.34375, -1.25, 1.0
329, -3.844932844932845, 3.4664224664224665, -2.9328449328449326, 1.0625, 0.40625, -1.0625, 1.0
330, -4.297924297924298, 4.3931623931623935, -3.197802197802198, 0.78125, 0.28125, -0.875, 1.0
331, -4.175824175824176, 4.6361416361416365, -2.7997557997557996, 0.625, 0.25, -0.53125, 1.0
332, -3.4761904761904763, 4.305250305250305, -2.3150183150183152, 0.53125, 0.34375, -0.28125, 1.0
333, -2.382173382173382, 3.9145299145299144, -1.989010989010989, 0.5, 0.46875, 0.0, 1.0
334, -0.9743589743589743, 2.663003663003663, -2.1074481074481075, 0.375, 0.34375, 0.1875, 1.0
335, -0.21733821733821734, 1.4786324786324787, -2.0134310134310134, 0.03125, 0.125, 0.15625, 1.0
336, 0.052503052503052504, 1.1282051282051282, -1.1282051282051282, -0.125, 0.03125, 0.03125, 1.0
337, 0.2039072039072039, 0.8778998778998779, -0.6764346764346765, -0.125, -0.09375, 0.03125, 1.0
338, -0.03296703296703297, 0.7216117216117216, -0.4884004884004884, -0.0625, -0.1875, 0.0625, 1.0
339, -0.11843711843711843, 0.199023199023199, -0.5653235653235653, -0.0625, -0.15625, 0.09375, 1.0
340, -0.047619047619047616, 0.05982905982905983, -0.442002442002442, -0.0625, -0.03125, 0.15625, 1.0
341, 0.2222222222222222, -0.12576312576312576, -0.32112332112332115, -0.03125, 0.0, 0.1875, 1.0
342, 0.46886446886446886, -0.5763125763125763, -0.2979242979242979, -0.125, -0.0625, 0.125, 1.0
343, 0.45054945054945056, -0.4053724053724054, -0.23809523809523808, -0.1875, -0.09375, 0.09375, 1.0
344, 0.2625152625152625, -0.5079365079365079, -0.19658119658119658, -0.21875, -0.0625, 0.0625, 1.0
345, 0.2503052503052503, -0.32722832722832723, 0.0989010989010989, -0.15625, 0.0, 0.0625, 1.0
346, 0.3724053724053724, -0.29426129426129427, 0.4065934065934066, 0.03125, 0.0, 0.0625, 1.0
347, 0.2612942612942613, -0.5421245421245421, -0.026862026862026864, 0.0625, 0.0, 0.0, 1.0
348, -0.013431013431013432, -0.19291819291819293, -0.020757020757020756, -0.03125, 0.0, -0.03125, 1.0
349, -0.0463980463980464, 0.040293040293040296, 0.22832722832722832, -0.0625, 0.0, -0.03125, 1.0
350, -0.11721611721611722, 0.04884004884004884, 0.1855921855921856, 0.0, -0.0625, -0.03125, 1.0
351, -0.12576312576312576, 0.07814407814407814, 0.1452991452991453, 0.03125, -0.0625, 0.0, 1.0
352, -0.07203907203907203, -0.013431013431013432, -0.02564102564102564, 0.125, -0.03125, 0.0, 1.0
353, 0.14774114774114774, -0.1562881562881563, -0.25396825396825395, 0.09375, 0.0, 0.0, 1.0
354, 0.1855921855921856, -0.0695970695970696, -0.2698412698412698, 0.03125, -0.0625, 0.0, 1.0
355, -0.03663003663003663, 0.05372405372405373, -0.2625152625152625, 0.03125, -0.03125, 0.0, 1.0
356, -0.015873015873015872, 0.03418803418803419, -0.28205128205128205, 0.03125, 0.0625, 0.0, 1.0
357, 0.042735042735042736, -0.05982905982905983, -0.30036630036630035, -0.0625, 0.125, 0.0, 1.0
358, 0.003663003663003663, 0.1111111111111111, -0.20024420024420025, -0.09375, 0.15625, 0.03125, 0.0
359, -0.11477411477411477, 0.26495726495726496, -0.2271062271062271, -0.03125, 0.15625, 0.03125, 0.0
360, -0.17094017094017094, 0.1221001221001221, -0.3797313797313797, -0.09375, 0.15625, 0.0, 0.0
361, -0.1916971916971917, 0.22466422466422467, -0.21001221001221002, 0.0, 0.1875, -0.03125, 0.0
362, 0.26373626373626374, 0.31135531135531136, 0.0, 0.0625, 0.09375, -0.0625, 0.0
363, 0.02197802197802198, 0.0463980463980464, -0.27350427350427353, 0.0625, 0.0625, -0.0625, 0.0
364, -0.03418803418803419, 0.06105006105006105, -0.43833943833943834, 0.03125, 0.0625, 0.0, 0.0
365, -0.002442002442002442, 0.05372405372405373, -0.5262515262515263, 0.0, 0.09375, 0.0, 0.0
366, -0.05616605616605617, 0.17094017094017094, -0.8278388278388278, -0.03125, 0.0625, 0.0, 0.0
367, -0.5775335775335775, 0.833943833943834, -1.3162393162393162, -0.0625, 0.15625, -0.03125, 0.0
368, -0.8595848595848596, 1.7814407814407816, -1.8144078144078144, 0.0, 0.21875, -0.03125, 0.0
369, -2.3833943833943834, 2.3443223443223444, -3.6446886446886446, 0.0, 0.0625, -0.03125, 0.0
370, -3.1648351648351647, 3.7765567765567765, -4.422466422466423, -0.21875, -0.09375, 0.0, 0.0
371, -3.9865689865689866, 4.328449328449328, -4.632478632478633, -0.5625, -0.21875, 0.0625, 0.0
372, -4.968253968253968, 4.7203907203907205, -4.424908424908425, -0.84375, -0.25, 0.25, 0.0
373, -5.013431013431013, 4.347985347985348, -4.188034188034188, -1.0, -0.09375, 0.5625, 0.0
374, -3.9682539682539684, 3.578754578754579, -3.8144078144078146, -1.28125, -0.25, 0.96875, 0.0
375, -3.785103785103785, 3.034188034188034, -3.5067155067155067, -1.5625, -0.625, 1.1875, 0.0
376, -4.08058608058608, 2.4676434676434678, -3.225885225885226, -1.65625, -0.78125, 1.53125, 0.0
377, -4.517704517704518, 1.2661782661782661, -3.452991452991453, -1.375, -0.40625, 2.03125, 0.0
378, -3.2857142857142856, -0.7435897435897436, -3.421245421245421, -1.125, 0.1875, 2.53125, 0.0
379, -1.286935286935287, -2.9206349206349205, -3.0134310134310134, -1.28125, 0.34375, 2.65625, 0.0
380, 0.45787545787545786, -4.191697191697192, -2.286935286935287, -1.90625, -0.3125, 2.4375, 0.0
381, -0.12698412698412698, -4.15995115995116, -1.5555555555555556, -2.875, -1.90625, 2.0, 0.0
382, -2.081807081807082, -3.554334554334554, -0.7875457875457875, -2.875, -2.09375, 2.0625, 0.0
383, -3.142857142857143, -3.2857142857142856, -0.28083028083028083, -2.3125, -1.65625, 2.46875, 0.0
384, -3.2014652014652016, -4.1501831501831505, -0.16971916971916973, -1.6875, -1.09375, 2.78125, 0.0
385, -2.625152625152625, -5.2967032967032965, -0.43833943833943834, -1.1875, -0.75, 3.0, 0.0
386, -2.2454212454212454, -6.452991452991453, -0.3968253968253968, -0.90625, -0.59375, 3.1875, 0.0
387, -1.5909645909645909, -7.155067155067155, -0.19413919413919414, -0.75, -0.5, 3.25, 0.0
388, -0.8925518925518926, -7.461538461538462, 0.22954822954822954, -0.625, -0.4375, 3.1875, 0.0
389, -0.2564102564102564, -7.412698412698413, 0.5726495726495726, -0.5, -0.4375, 3.03125, 0.0
390, 0.1221001221001221, -6.936507936507937, 0.8095238095238095, -0.34375, -0.40625, 2.8125, 0.0
391, 0.4456654456654457, -6.52014652014652, 1.1562881562881564, -0.15625, -0.4375, 2.59375, 0.0
392, 0.8632478632478633, -5.91941391941392, 1.3614163614163615, 0.03125, -0.5, 2.3125, 0.0
393, 1.540903540903541, -4.942612942612943, 1.0341880341880343, 0.09375, -0.625, 2.09375, 0.0
394, 1.332112332112332, -4.4212454212454215, 0.7545787545787546, 0.15625, -0.625, 1.875, 0.0
395, 1.2551892551892552, -4.131868131868132, 0.6239316239316239, 0.25, -0.4375, 1.6875, 0.0
396, 1.4102564102564104, -3.8742368742368742, 0.7094017094017094, 0.28125, -0.25, 1.53125, 0.0
397, 1.6800976800976801, -3.358974358974359, 1.0036630036630036, 0.21875, -0.15625, 1.34375, 0.0
398, 1.9975579975579976, -2.965811965811966, 1.3247863247863247, 0.125, -0.25, 1.1875, 0.0
399, 2.4444444444444446, -2.247863247863248, 1.2637362637362637, 0.125, -0.5, 0.90625, 0.0
400, 2.537240537240537, -1.7692307692307692, 0.7936507936507936, 0.1875, -0.875, 0.65625, 0.0
401, 2.092796092796093, -1.663003663003663, -0.08424908424908426, 0.21875, -1.09375, 0.40625, 0.0
402, 1.6385836385836385, -1.3748473748473748, -1.0927960927960927, 0.125, -1.125, 0.25, 0.0
403, 1.6691086691086692, -0.6764346764346765, -1.6092796092796093, 0.0, -0.84375, 0.1875, 0.0
404, 1.6336996336996337, -0.002442002442002442, -1.835164835164835, 0.0625, -0.40625, 0.1875, 0.0
405, 1.0476190476190477, 0.13553113553113552, -1.7448107448107448, 0.125, -0.03125, 0.21875, 0.0
406, 1.1355311355311355, -0.013431013431013432, -1.507936507936508, 0.1875, 0.21875, 0.1875, 0.0
407, 1.3626373626373627, 0.0, -1.3028083028083028, 0.1875, 0.21875, 0.0625, 0.0
408, 1.0561660561660562, -0.12332112332112333, -1.137973137973138, 0.0, 0.0625, 0.0, 0.0
409, 0.7423687423687424, -0.028083028083028084, -0.8156288156288156, -0.0625, 0.0, -0.125, 0.0
410, 0.17582417582417584, 0.15995115995115994, -0.5482295482295483, -0.09375, -0.03125, -0.1875, 0.0
411, -0.36996336996337, 0.2576312576312576, -0.2967032967032967, -0.09375, -0.03125, -0.15625, 0.0
412, -0.6056166056166056, 0.28205128205128205, 0.003663003663003663, -0.03125, -0.03125, -0.15625, 0.0
413, -0.37484737484737485, 0.17094017094017094, 0.2588522588522589, -0.03125, -0.09375, -0.125, 0.0
414, 0.002442002442002442, 0.08791208791208792, 0.23076923076923078, 0.0, -0.21875, -0.125, 0.0
415, -0.36385836385836384, -0.06227106227106227, -0.09645909645909646, -0.03125, -0.28125, -0.125, 0.0
416, -0.9829059829059829, 0.07326007326007326, 0.1575091575091575, -0.09375, -0.09375, -0.03125, 0.0
417, -0.38705738705738707, 0.1221001221001221, 0.43101343101343104, -0.09375, -0.0625, 0.0, 0.0
418, -0.08180708180708181, -0.17216117216117216, 0.4481074481074481, 0.0, -0.1875, 0.0, 0.0
419, -0.2796092796092796, -0.13186813186813187, 0.22466422466422467, 0.0, -0.28125, -0.03125, 0.0
420, -0.15262515262515264, -0.21733821733821734, -0.12698412698412698, 0.03125, -0.25, 0.0, 0.0
421, 0.054945054945054944, -0.028083028083028084, -0.2783882783882784, 0.0, -0.21875, 0.0, 0.0
422, 0.09768009768009768, 0.10134310134310134, -0.2857142857142857, 0.0, -0.21875, 0.0, 0.0
423, -0.03785103785103785, 0.16727716727716727, -0.18437118437118438, 0.0, -0.1875, 0.0, 0.0
424, -0.11843711843711843, 0.28815628815628813, -0.2026862026862027, 0.03125, -0.15625, 0.0625, 0.0
425, 0.24175824175824176, 0.19291819291819293, -0.24175824175824176, 0.09375, -0.15625, 0.125, 0.0
426, 0.1452991452991453, 0.14163614163614163, -0.49694749694749696, 0.125, -0.21875, 0.125, 0.0
427, -0.23076923076923078, 0.10866910866910867, -0.4713064713064713, 0.0625, -0.09375, 0.15625, 0.0
428, 0.17094017094017094, 0.18925518925518925, -0.32112332112332115, 0.125, -0.09375, 0.15625, 0.0
429, 0.63003663003663, 0.17704517704517705, 0.02442002442002442, 0.25, -0.28125, 0.09375, 0.0
430, 0.09035409035409035, 0.06227106227106227, -0.06227106227106227, 0.34375, -0.34375, 0.15625, 0.0
431, 0.8498168498168498, -0.004884004884004884, 0.08058608058608059, 0.40625, -0.40625, 0.25, 1.0
432, 0.9938949938949939, -0.6227106227106227, -0.48717948717948717, 0.21875, -0.53125, 0.3125, 1.0
433, 1.5873015873015872, -0.8803418803418803, -0.8595848595848596, 0.0625, -0.75, 0.28125, 1.0
434, 1.652014652014652, -1.0268620268620268, -1.0769230769230769, 0.125, -0.46875, 0.34375, 1.0
435, 2.1880341880341883, -1.1843711843711844, -1.5042735042735043, 0.3125, 0.0625, 0.34375, 1.0
436, 3.7533577533577533, -2.376068376068376, -2.5604395604395602, 0.5, 0.4375, 0.125, 1.0
437, 4.796092796092796, -4.224664224664225, -3.380952380952381, 0.3125, 0.625, -0.40625, 1.0
438, 5.474969474969475, -5.74969474969475, -3.282051282051282, -0.21875, 0.40625, -1.21875, 1.0
439, 2.9108669108669107, -6.194139194139194, -1.4163614163614164, -1.03125, 0.3125, -2.40625, 1.0
440, 1.1916971916971917, -5.848595848595848, -1.1489621489621489, -1.125, 0.5, -2.75, 1.0
441, -0.10500610500610501, -5.982905982905983, -0.800976800976801, -0.96875, 0.8125, -2.8125, 1.0
442, -0.6288156288156288, -5.65934065934066, 0.10134310134310134, -0.75, 1.21875, -2.90625, 1.0
443, -0.6263736263736264, -5.368742368742368, 1.05006105006105, -0.4375, 1.5625, -3.03125, 1.0
444, -0.46153846153846156, -5.045177045177045, 1.2673992673992673, -0.15625, 1.59375, -3.28125, 1.0
445, -1.1062271062271063, -5.328449328449328, 0.9987789987789988, 0.0, 1.34375, -3.5, 1.0
446, -2.4835164835164836, -5.153846153846154, 1.043956043956044, 0.03125, 1.25, -3.59375, 1.0
447, -2.700854700854701, -4.848595848595848, 1.7118437118437118, 0.09375, 1.375, -3.71875, 1.0
448, -2.656898656898657, -3.879120879120879, 1.956043956043956, 0.1875, 1.375, -3.90625, 1.0
449, -3.826617826617827, -3.365079365079365, 1.7802197802197801, 0.28125, 1.0625, -4.03125, 1.0
450, -4.632478632478633, -2.6214896214896215, 1.7753357753357752, 0.4375, 0.78125, -3.71875, 1.0
451, -5.085470085470085, -1.862026862026862, 1.6422466422466422, 0.6875, 0.6875, -3.4375, 1.0
452, -5.851037851037851, -1.6898656898656899, 1.6288156288156288, 0.84375, 1.0625, -3.25, 1.0
453, -4.572649572649572, -1.6178266178266179, 1.7960927960927962, 1.03125, 1.1875, -3.125, 1.0
454, -3.727716727716728, -1.7326007326007327, 1.3724053724053724, 1.0, 0.8125, -3.0, 1.0
455, -4.1953601953601956, -1.5531135531135531, 0.8827838827838828, 0.84375, 0.3125, -2.90625, 1.0
456, -5.763125763125763, -0.27228327228327226, 0.7203907203907204, 0.90625, 0.34375, -2.6875, 1.0
457, -6.196581196581197, 0.7411477411477412, 0.6788766788766789, 1.28125, 0.875, -2.28125, 1.0
458, -4.609279609279609, 0.06837606837606838, 0.2271062271062271, 1.34375, 0.9375, -2.15625, 1.0
459, -3.93040293040293, -0.06227106227106227, -0.46642246642246643, 1.21875, 0.5625, -2.0, 1.0
460, -3.797313797313797, 0.18803418803418803, -0.5873015873015873, 0.96875, 0.1875, -2.03125, 1.0
461, -4.240537240537241, 0.5152625152625152, -0.8766788766788767, 0.84375, 0.15625, -2.0625, 1.0
462, -4.593406593406593, 1.0805860805860805, -3.8925518925518925, 0.75, 0.125, -1.8125, 1.0
463, -5.929181929181929, 3.4053724053724053, -4.500610500610501, 0.71875, 0.1875, -1.375, 1.0
464, -5.010989010989011, 3.6275946275946276, -4.247863247863248, 0.625, 0.375, -0.96875, 1.0
465, -3.8876678876678876, 3.421245421245421, -3.6923076923076925, 0.59375, 0.46875, -0.625, 1.0
466, -3.0976800976800978, 3.105006105006105, -2.984126984126984, 0.53125, 0.375, -0.34375, 1.0
467, -2.2161172161172162, 2.8693528693528694, -2.1965811965811968, 0.5625, 0.40625, -0.09375, 1.0
468, -1.3101343101343101, 1.8852258852258852, -1.7912087912087913, 0.65625, 0.375, 0.0625, 1.0
469, -1.2173382173382172, 1.2527472527472527, -1.3894993894993894, 0.53125, 0.375, 0.09375, 1.0
470, -0.73992673992674, 1.3003663003663004, -0.6581196581196581, 0.34375, 0.46875, 0.09375, 1.0
471, -0.5054945054945055, 1.448107448107448, -0.26495726495726496, 0.21875, 0.28125, 0.0625, 1.0
472, -1.3846153846153846, 1.7106227106227105, -0.5091575091575091, 0.1875, -0.03125, 0.125, 1.0
473, -1.9145299145299146, 1.4871794871794872, -0.8205128205128205, 0.1875, -0.0625, 0.1875, 1.0
474, -1.122100122100122, 0.7997557997557998, -0.8095238095238095, 0.03125, 0.125, 0.25, 1.0
475, 0.14407814407814407, 0.36507936507936506, -0.5213675213675214, 0.0, -0.0625, 0.25, 1.0
476, 0.3052503052503053, -0.1562881562881563, -0.46886446886446886, -0.0625, -0.25, 0.1875, 1.0
477, 0.06593406593406594, -0.13553113553113552, -0.3968253968253968, -0.09375, -0.28125, 0.1875, 1.0
478, -0.02564102564102564, -0.05616605616605617, -0.32112332112332115, 0.0, -0.09375, 0.25, 1.0
479, 0.5274725274725275, -0.46764346764346765, -0.3064713064713065, 0.0625, 0.0, 0.21875, 1.0
480, 0.7252747252747253, -0.8070818070818071, -0.442002442002442, 0.0, 0.0, 0.15625, 1.0
481, 0.673992673992674, -0.7106227106227107, -0.3052503052503053, -0.0625, 0.0, 0.0625, 1.0
482, 0.24297924297924298, -0.2612942612942613, -0.040293040293040296, -0.0625, 0.0, 0.03125, 1.0
483, 0.22954822954822954, -0.14163614163614163, 0.17338217338217338, 0.0, 0.03125, 0.03125, 1.0
484, 0.2039072039072039, -0.17094017094017094, 0.231990231990232, 0.0, 0.0, 0.03125, 1.0
485, -0.004884004884004884, -0.11477411477411477, 0.21978021978021978, 0.0625, 0.0, 0.0, 1.0
486, -0.1452991452991453, 0.017094017094017096, -0.029304029304029304, 0.0, 0.03125, -0.03125, 1.0
487, -0.0927960927960928, 0.21367521367521367, 0.25396825396825395, 0.0, 0.03125, -0.03125, 1.0
488, -0.17826617826617827, 0.19536019536019536, 0.29304029304029305, 0.03125, 0.0, 0.0, 1.0
489, -0.1855921855921856, 0.14774114774114774, 0.17704517704517705, 0.09375, 0.0, 0.0, 1.0
490, -0.14896214896214896, 0.05982905982905983, -0.031746031746031744, 0.15625, 0.0, 0.0, 1.0
491, 0.10622710622710622, -0.15018315018315018, -0.32967032967032966, 0.15625, 0.0625, 0.0, 1.0
492, 0.24053724053724054, -0.26495726495726496, -0.3968253968253968, 0.0625, 0.0, -0.03125, 1.0
493, -0.0463980463980464, 0.02197802197802198, -0.36507936507936506, 0.0, 0.0, -0.0625, 1.0
494, -0.013431013431013432, 0.08913308913308914, -0.46153846153846156, 0.0, 0.09375, -0.03125, 1.0
495, -0.26373626373626374, 0.21978021978021978, -0.6263736263736264, 0.0, 0.125, -0.03125, 1.0
496, -0.22344322344322345, 0.199023199023199, -0.575091575091575, 0.0, 0.15625, 0.0, 1.0
497, -0.2905982905982906, 0.1514041514041514, -0.4945054945054945, -0.0625, 0.21875, 0.0625, 1.0
498, -0.36996336996337, 0.054945054945054944, -0.3663003663003663, -0.21875, 0.25, 0.15625, 0.0
499, -0.5323565323565324, 0.21855921855921856, -0.358974358974359, -0.25, 0.34375, 0.1875, 0.0
500, 0.12332112332112333, 0.11965811965811966, -0.28205128205128205, -0.21875, 0.28125, 0.1875, 0.0
501, -0.5506715506715507, 0.25518925518925517, -0.3724053724053724, -0.15625, 0.21875, 0.125, 0.0
502, -0.3663003663003663, 0.6788766788766789, -0.020757020757020756, 0.0, 0.15625, 0.125, 0.0
503, -0.6556776556776557, 0.3785103785103785, -0.39194139194139194, 0.0, 0.125, 0.1875, 0.0
504, -1.0854700854700854, 0.612942612942613, -1.1086691086691087, 0.0, 0.09375, 0.21875, 0.0
505, -1.6446886446886446, 1.105006105006105, -2.1636141636141635, -0.125, 0.03125, 0.3125, 0.0
506, -2.490842490842491, 2.0256410256410255, -2.73992673992674, -0.15625, 0.125, 0.5, 0.0
507, -2.9316239316239314, 2.590964590964591, -3.385836385836386, -0.15625, 0.15625, 0.625, 0.0
508, -3.445665445665446, 2.948717948717949, -4.00976800976801, -0.3125, 0.0, 0.78125, 0.0
509, -4.483516483516484, 3.0256410256410255, -3.9926739926739927, -0.8125, -0.125, 1.125, 0.0
510, -3.9963369963369964, 2.32967032967033, -3.385836385836386, -1.09375, -0.15625, 1.34375, 0.0
511, -3.4786324786324787, 1.695970695970696, -2.5494505494505493, -1.40625, -0.3125, 1.53125, 0.0
512, -3.330891330891331, 1.4932844932844933, -2.1941391941391943, -1.5, -0.4375, 1.71875, 0.0
513, -3.094017094017094, 1.043956043956044, -2.2905982905982905, -1.375, -0.4375, 2.03125, 0.0
514, -3.0, 0.49206349206349204, -2.774114774114774, -1.1875, -0.3125, 2.40625, 0.0
515, -2.330891330891331, -0.5726495726495726, -3.0134310134310134, -0.96875, 0.0, 2.6875, 0.0
516, -1.006105006105006, -1.862026862026862, -2.884004884004884, -0.90625, 0.34375, 2.84375, 0.0
517, 0.4175824175824176, -3.178266178266178, -2.913308913308913, -1.125, 0.15625, 2.71875, 0.0
518, 1.3162393162393162, -3.7374847374847375, -2.5396825396825395, -1.75, -0.625, 2.4375, 0.0
519, 0.1111111111111111, -3.595848595848596, -1.8461538461538463, -2.40625, -1.59375, 2.125, 0.0
520, -1.5494505494505495, -3.0073260073260073, -1.054945054945055, -2.6875, -1.875, 2.03125, 0.0
521, -2.398046398046398, -2.6776556776556775, -0.6361416361416361, -2.25, -1.53125, 2.28125, 0.0
522, -2.255189255189255, -2.9035409035409034, -0.4261294261294261, -1.65625, -1.125, 2.59375, 0.0
523, -1.9145299145299146, -4.091575091575091, -0.5274725274725275, -1.28125, -0.875, 2.84375, 0.0
524, -1.4126984126984128, -5.2002442002442, -0.5677655677655677, -1.0625, -0.78125, 2.9375, 0.0
525, -0.7533577533577533, -5.805860805860806, -0.41025641025641024, -0.9375, -0.75, 2.90625, 0.0
526, -0.36507936507936506, -5.858363858363858, -0.23076923076923078, -0.78125, -0.78125, 2.84375, 0.0
527, -0.3418803418803419, -5.87057387057387, 0.11355311355311355, -0.59375, -0.78125, 2.8125, 0.0
528, -0.10012210012210013, -5.984126984126984, 0.38217338217338215, -0.34375, -0.6875, 2.6875, 0.0
529, 0.2673992673992674, -5.8791208791208796, 0.5567765567765568, -0.15625, -0.5625, 2.53125, 0.0
530, 0.6398046398046398, -5.56043956043956, 0.7887667887667887, -0.09375, -0.59375, 2.40625, 0.0
531, 0.7008547008547008, -5.131868131868132, 1.0915750915750915, 0.0, -0.59375, 2.3125, 0.0
532, 1.0122100122100122, -4.792429792429792, 1.6373626373626373, 0.28125, -0.4375, 2.1875, 0.0
533, 1.557997557997558, -4.727716727716728, 1.7704517704517704, 0.53125, -0.34375, 2.0, 0.0
534, 1.8034188034188035, -4.886446886446887, 1.7728937728937728, 0.65625, -0.28125, 1.65625, 0.0
535, 2.3675213675213675, -4.321123321123321, 1.656898656898657, 0.625, -0.28125, 1.375, 0.0
536, 3.1587301587301586, -3.5518925518925517, 1.0769230769230769, 0.59375, -0.5625, 1.125, 0.0
537, 2.8412698412698414, -3.340659340659341, 0.20634920634920634, 0.46875, -1.0, 0.8125, 0.0
538, 1.9304029304029304, -2.6263736263736264, -0.3711843711843712, 0.25, -1.15625, 0.5, 0.0
539, 1.7326007326007327, -1.8962148962148961, -0.518925518925519, 0.125, -0.84375, 0.28125, 0.0
540, 1.811965811965812, -0.57997557997558, -0.7167277167277167, 0.09375, -0.5625, 0.21875, 0.0
541, 1.5555555555555556, -0.2673992673992674, -1.0769230769230769, 0.1875, -0.4375, 0.1875, 0.0
542, 1.4212454212454213, -0.16605616605616605, -1.321123321123321, 0.21875, -0.28125, 0.125, 0.0
543, 1.5262515262515262, -0.042735042735042736, -1.507936507936508, 0.1875, -0.1875, 0.0, 0.0
544, 1.4175824175824177, 0.031746031746031744, -1.7326007326007327, 0.0, -0.3125, -0.0625, 0.0
545, 1.2344322344322345, 0.3199023199023199, -1.713064713064713, -0.0625, -0.34375, -0.21875, 0.0
546, 0.3956043956043956, 0.4993894993894994, -1.5811965811965811, -0.125, -0.25, -0.21875, 0.0
547, -0.29914529914529914, 0.9230769230769231, -1.249084249084249, -0.0625, 0.0, -0.125, 0.0
548, -0.2771672771672772, 0.7545787545787546, -1.0268620268620268, 0.0, 0.1875, 0.0, 0.0
549, 0.14285714285714285, 0.3431013431013431, -0.7362637362637363, 0.0, 0.1875, 0.0, 0.0
550, 0.09768009768009768, 0.01098901098901099, -0.463980463980464, -0.09375, 0.125, 0.0, 0.0
551, -0.03785103785103785, -0.11965811965811966, 0.0695970695970696, -0.125, 0.09375, -0.03125, 0.0
552, 0.003663003663003663, -0.07814407814407814, 0.36507936507936506, -0.0625, 0.03125, -0.03125, 0.0
553, 0.1111111111111111, -0.09157509157509157, 0.398046398046398, 0.0, -0.0625, -0.09375, 0.0
554, -0.3333333333333333, 0.09035409035409035, 0.052503052503052504, 0.03125, -0.125, -0.125, 0.0
555, -0.8766788766788767, 0.017094017094017096, -0.13186813186813187, 0.0, 0.0, 0.0, 0.0
556, -0.199023199023199, -0.15262515262515264, 0.03663003663003663, -0.03125, 0.0, 0.03125, 0.0
557, 0.15262515262515264, -0.30036630036630035, 0.10744810744810745, 0.0, -0.03125, 0.03125, 0.0
558, 0.22466422466422467, -0.3785103785103785, 0.13186813186813187, 0.0, -0.09375, 0.0, 0.0
559, 0.0, -0.18315018315018314, 0.17704517704517705, 0.0, -0.09375, -0.03125, 0.0
560, -0.05372405372405373, -0.06349206349206349, -0.04151404151404151, 0.0, -0.0625, -0.0625, 0.0
561, -0.19291819291819293, -0.020757020757020756, -0.19047619047619047, -0.03125, -0.125, -0.03125, 0.0
562, -0.3614163614163614, 0.10134310134310134, -0.05616605616605617, -0.0625, -0.09375, 0.0, 0.0
563, -0.16361416361416362, 0.12576312576312576, 0.1916971916971917, -0.03125, -0.03125, 0.0, 0.0
564, -0.01221001221001221, -0.06105006105006105, 0.20024420024420025, 0.03125, -0.03125, 0.0, 0.0
565, 0.004884004884004884, -0.0463980463980464, -0.015873015873015872, 0.0625, -0.125, 0.0, 0.0
566, -0.42246642246642246, 0.03540903540903541, -0.22954822954822954, 0.03125, -0.1875, 0.0, 0.0
567, -0.39194139194139194, 0.09035409035409035, -0.12332112332112333, 0.0, -0.0625, 0.09375, 0.0
568, 0.020757020757020756, -0.03785103785103785, -0.018315018315018316, 0.03125, -0.03125, 0.125, 0.0
569, 0.18437118437118438, -0.17338217338217338, 0.04395604395604396, 0.03125, -0.0625, 0.09375, 0.0
570, -0.01221001221001221, -0.1343101343101343, 0.07081807081807082, 0.0, -0.09375, 0.125, 0.0
571, 0.0927960927960928, 0.02442002442002442, 0.22954822954822954, 0.03125, -0.125, 0.15625, 0.0
572, 0.27106227106227104, -0.031746031746031744, 0.19536019536019536, 0.09375, -0.21875, 0.125, 0.0
573, 0.12332112332112333, -0.028083028083028084, -0.0231990231990232, 0.125, -0.21875, 0.125, 0.0
574, 0.08180708180708181, -0.031746031746031744, -0.1794871794871795, 0.09375, -0.1875, 0.125, 0.0
575, 0.16605616605616605, -0.028083028083028084, -0.2771672771672772, 0.03125, -0.21875, 0.15625, 0.0
576, 0.37362637362637363, 0.017094017094017096, -0.23443223443223443, 0.0, -0.28125, 0.125, 0.0
577, 0.7374847374847375, 0.5067155067155067, 0.12698412698412698, 0.0625, -0.4375, 0.21875, 0.0
578, 0.14407814407814407, 0.5653235653235653, -0.02564102564102564, 0.375, -0.375, 0.375, 1.0
579, 0.7728937728937729, -0.8461538461538461, -1.0012210012210012, 0.28125, -0.6875, 0.46875, 1.0
580, 1.7362637362637363, -2.04029304029304, -2.139194139194139, 0.21875, -0.5, 0.5, 1.0
581, 2.7496947496947497, -2.6324786324786325, -2.2979242979242978, 0.09375, 0.03125, 0.21875, 1.0
582, 3.7313797313797314, -3.183150183150183, -1.8632478632478633, 0.0625, 0.53125, -0.0625, 1.0
583, 4.343101343101343, -3.9694749694749696, -1.835164835164835, 0.09375, 0.65625, -0.4375, 1.0
584, 4.0647130647130645, -5.031746031746032, -1.934065934065934, 0.03125, 0.5625, -0.9375, 1.0
585, 3.131868131868132, -5.57020757020757, -1.5225885225885225, -0.125, 0.46875, -1.4375, 1.0
586, 2.1794871794871793, -5.985347985347985, -0.9719169719169719, -0.25, 0.46875, -1.84375, 1.0
587, 0.17826617826617827, -5.714285714285714, -0.23687423687423687, -0.3125, 0.65625, -2.09375, 1.0
588, -0.575091575091575, -5.450549450549451, 1.133089133089133, -0.09375, 1.21875, -2.125, 1.0
589, 0.3724053724053724, -5.277167277167277, 2.2295482295482296, 0.21875, 1.625, -2.25, 1.0
590, 0.17582417582417584, -5.887667887667888, 1.9877899877899878, 0.375, 1.15625, -2.71875, 1.0
591, -0.8534798534798534, -5.798534798534798, 1.26007326007326, 0.25, 0.625, -2.90625, 1.0
592, -2.916971916971917, -5.603174603174603, 1.078144078144078, 0.125, 0.84375, -3.09375, 1.0
593, -3.0073260073260073, -4.014652014652015, 1.459096459096459, 0.3125, 1.21875, -3.15625, 1.0
594, -2.346764346764347, -3.3333333333333335, 1.866910866910867, 0.59375, 1.09375, -3.25, 1.0
595, -2.7716727716727716, -3.064713064713065, 1.7582417582417582, 0.78125, 0.8125, -3.21875, 1.0
596, -3.3846153846153846, -2.5225885225885225, 1.4346764346764347, 0.90625, 0.5625, -3.125, 1.0
597, -4.735042735042735, -1.641025641025641, 1.2197802197802199, 1.1875, 0.65625, -2.9375, 1.0
598, -5.168498168498169, -0.5702075702075702, 1.2625152625152625, 1.5, 1.125, -2.75, 1.0
599, -4.634920634920635, -0.08302808302808302, 1.0293040293040292, 1.75, 1.125, -2.5, 1.0
600, -4.36019536019536, 0.02442002442002442, 0.4346764346764347, 1.8125, 0.75, -2.3125, 1.0
601, -3.9865689865689866, 0.5982905982905983, -0.013431013431013432, 1.78125, 0.53125, -2.21875, 1.0
602, -4.157509157509158, 0.6617826617826618, -1.2442002442002442, 1.8125, 0.53125, -1.96875, 1.0
603, -3.7252747252747254, 1.1892551892551892, -2.0781440781440783, 1.71875, 0.40625, -1.8125, 1.0
604, -3.763125763125763, 1.1355311355311355, -2.326007326007326, 1.625, 0.3125, -1.625, 1.0
605, -2.816849816849817, 1.1855921855921856, -2.584859584859585, 1.59375, 0.375, -1.4375, 1.0
606, -2.8644688644688645, 1.3846153846153846, -3.468864468864469, 1.59375, 0.28125, -1.3125, 1.0
607, -2.542124542124542, 2.1758241758241756, -4.336996336996337, 1.5, 0.25, -1.15625, 1.0
608, -2.78021978021978, 2.31990231990232, -4.587301587301587, 1.09375, 0.125, -1.0625, 1.0
609, -2.8192918192918195, 3.462759462759463, -4.275946275946276, 0.6875, 0.0, -1.0, 1.0
610, -4.239316239316239, 4.90964590964591, -4.35042735042735, 0.5625, 0.0, -0.8125, 1.0
611, -3.722832722832723, 4.380952380952381, -4.091575091575091, 0.5625, 0.21875, -0.4375, 1.0
612, -1.9951159951159951, 3.2051282051282053, -3.1514041514041513, 0.3125, 0.375, -0.28125, 1.0
613, -1.0195360195360195, 2.4078144078144077, -2.1636141636141635, -0.125, -0.03125, -0.3125, 1.0
614, -0.9902319902319903, 2.3894993894993894, -1.5885225885225884, -0.0625, -0.09375, -0.3125, 1.0
615, -1.249084249084249, 2.1025641025641026, -1.15995115995116, 0.0625, 0.03125, -0.21875, 1.0
616, -1.2820512820512822, 1.778998778998779, -0.7203907203907204, 0.15625, 0.25, -0.15625, 1.0
617, -0.40415140415140416, 0.7936507936507936, -0.5286935286935287, 0.03125, 0.15625, -0.125, 1.0
618, -0.22832722832722832, 0.8192918192918193, -0.15262515262515264, -0.0625, -0.0625, -0.125, 1.0
619, -0.6019536019536019, 1.1257631257631258, -0.37362637362637363, 0.03125, -0.15625, -0.0625, 1.0
620, -0.6825396825396826, 0.9523809523809523, -1.1391941391941391, 0.1875, -0.125, 0.03125, 1.0
621, -0.4908424908424908, 0.19536019536019536, -1.6288156288156288, 0.09375, 0.03125, 0.09375, 1.0
622, 0.5421245421245421, -0.42002442002442003, -1.1746031746031746, -0.09375, 0.0625, 0.09375, 1.0
623, 0.7106227106227107, -0.46886446886446886, -0.5286935286935287, -0.25, -0.03125, 0.0, 1.0
624, 0.45665445665445664, 0.028083028083028084, 0.2600732600732601, -0.15625, -0.09375, 0.0, 1.0
625, 0.63003663003663, -0.612942612942613, 0.38095238095238093, -0.0625, -0.0625, 0.03125, 1.0
626, 0.7350427350427351, -0.7704517704517705, 0.46153846153846156, -0.125, -0.15625, 0.0, 1.0
627, 0.4908424908424908, -0.48717948717948717, 0.3553113553113553, -0.125, -0.1875, -0.03125, 1.0
628, 0.29914529914529914, -0.2893772893772894, 0.2222222222222222, 0.0, -0.125, 0.0, 1.0
629, 0.115995115995116, -0.24297924297924298, 0.15018315018315018, 0.0625, -0.09375, 0.0, 1.0
630, 0.442002442002442, -0.31868131868131866, 0.10378510378510379, 0.09375, -0.03125, 0.0, 1.0
631, 0.2490842490842491, -0.2087912087912088, -0.009768009768009768, 0.09375, 0.0, 0.0, 1.0
632, 0.39438339438339437, -0.22344322344322345, -0.06837606837606838, 0.0625, 0.0, -0.03125, 1.0
633, 0.2454212454212454, -0.01098901098901099, 0.06593406593406594, 0.03125, 0.0, -0.0625, 1.0
634, -0.12087912087912088, 0.17094017094017094, 0.0463980463980464, 0.0625, -0.0625, -0.09375, 1.0
635, -0.3321123321123321, 0.24175824175824176, 0.008547008547008548, 0.125, -0.03125, -0.0625, 1.0
636, -0.057387057387057384, 0.11477411477411477, 0.15506715506715507, 0.15625, 0.0, -0.0625, 1.0
637, 0.028083028083028084, -0.007326007326007326, 0.040293040293040296, 0.0625, -0.03125, -0.0625, 1.0
638, -0.14407814407814407, 0.18803418803418803, 0.020757020757020756, 0.125, -0.03125, -0.0625, 1.0
639, -0.05982905982905983, 0.21367521367521367, -0.115995115995116, 0.21875, 0.0, -0.03125, 1.0
640, -0.11721611721611722, 0.1562881562881563, -0.36996336996337, 0.1875, 0.0, 0.0, 1.0
641, -0.014652014652014652, 0.09645909645909646, -0.5946275946275946, 0.125, 0.0, 0.0, 1.0
642, -0.14652014652014653, 0.05860805860805861, -0.9084249084249084, 0.03125, 0.0, 0.0, 1.0
643, 0.03296703296703297, -0.14774114774114774, -0.9548229548229549, -0.125, 0.15625, 0.0, 1.0
644, 0.002442002442002442, -0.0927960927960928, -0.9768009768009768, -0.3125, 0.25, -0.03125, 0.0
645, 0.07203907203907203, 0.5042735042735043, -0.73992673992674, -0.1875, 0.15625, -0.09375, 0.0
646, -0.2979242979242979, 1.1245421245421245, -1.05006105006105, -0.03125, 0.0, -0.125, 0.0
647, -1.170940170940171, 1.6251526251526252, -1.6813186813186813, 0.0, 0.0, -0.1875, 0.0
648, -1.6752136752136753, 2.0525030525030523, -2.492063492063492, -0.125, 0.0, -0.28125, 0.0
649, -2.567765567765568, 3.557997557997558, -4.22954822954823, -0.3125, -0.3125, -0.1875, 0.0
650, -3.755799755799756, 4.503052503052503, -5.173382173382174, -0.59375, -0.625, -0.0625, 0.0
651, -4.894993894993895, 4.841269841269841, -5.688644688644689, -0.84375, -0.625, 0.21875, 0.0
652, -4.8669108669108665, 4.140415140415141, -5.357753357753357, -1.21875, -0.46875, 0.53125, 0.0
653, -4.412698412698413, 3.4590964590964592, -4.358974358974359, -1.65625, -0.40625, 0.8125, 0.0
654, -3.9511599511599513, 2.652014652014652, -3.083028083028083, -2.0625, -0.59375, 1.09375, 0.0
655, -4.263736263736264, 2.391941391941392, -1.9853479853479854, -2.1875, -0.71875, 1.375, 0.0
656, -4.566544566544566, 1.78998778998779, -1.5824175824175823, -1.8125, -0.3125, 1.8125, 0.0
657, -3.821733821733822, 0.3516483516483517, -1.6373626373626373, -1.1875, 0.3125, 2.25, 0.0
658, -0.7851037851037851, -2.9511599511599513, -2.0463980463980462, -0.9375, 0.5625, 2.5, 0.0
659, 0.06837606837606838, -4.190476190476191, -1.9816849816849818, -1.5625, -0.0625, 2.375, 0.0
660, -0.3028083028083028, -4.148962148962149, -1.774114774114774, -2.5, -1.03125, 2.03125, 0.0
661, -1.221001221001221, -3.675213675213675, -1.291819291819292, -2.5, -1.0, 2.09375, 0.0
662, -1.291819291819292, -3.5982905982905984, -0.8559218559218559, -2.125, -0.78125, 2.1875, 0.0
663, -0.8376068376068376, -4.041514041514041, -0.5274725274725275, -1.78125, -0.84375, 2.28125, 0.0
664, -0.8461538461538461, -4.548229548229548, -0.4517704517704518, -1.625, -1.09375, 2.3125, 0.0
665, -1.2808302808302807, -5.004884004884005, -0.6031746031746031, -1.59375, -1.15625, 2.3125, 0.0
666, -1.26007326007326, -5.063492063492063, -0.31868131868131866, -1.53125, -1.09375, 2.28125, 0.0
667, -1.231990231990232, -4.831501831501831, 0.07203907203907203, -1.28125, -0.96875, 2.375, 0.0
668, -1.2759462759462759, -4.398046398046398, 0.5238095238095238, -0.78125, -0.71875, 2.53125, 0.0
669, -1.2625152625152625, -4.786324786324786, 0.8083028083028083, -0.25, -0.46875, 2.65625, 0.0
670, -0.7301587301587301, -5.107448107448107, 0.9731379731379731, 0.03125, -0.3125, 2.65625, 0.0
671, -0.0757020757020757, -5.202686202686203, 1.1794871794871795, 0.03125, -0.34375, 2.375, 0.0
672, 0.9316239316239316, -4.589743589743589, 0.9853479853479854, 0.03125, -0.71875, 2.15625, 0.0
673, 0.7472527472527473, -4.34065934065934, 0.8046398046398047, 0.15625, -0.96875, 1.96875, 0.0
674, 0.45054945054945056, -3.744810744810745, 0.7155067155067155, 0.25, -1.0, 1.875, 0.0
675, 0.2979242979242979, -3.567765567765568, 0.6727716727716728, 0.40625, -0.71875, 1.8125, 0.0
676, 0.8070818070818071, -3.5286935286935286, 0.6959706959706959, 0.40625, -0.5, 1.8125, 0.0
677, 1.5152625152625152, -3.42002442002442, 0.7863247863247863, 0.375, -0.46875, 1.65625, 0.0
678, 1.7496947496947497, -2.888888888888889, 0.9401709401709402, 0.34375, -0.59375, 1.40625, 0.0
679, 1.7094017094017093, -2.686202686202686, 0.8827838827838828, 0.25, -0.71875, 1.25, 0.0
680, 1.8608058608058609, -1.9206349206349207, 0.4554334554334554, 0.21875, -0.78125, 1.09375, 0.0
681, 1.7594627594627594, -1.757020757020757, -0.23809523809523808, 0.21875, -0.875, 0.90625, 0.0
682, 1.2564102564102564, -1.3492063492063493, -0.43833943833943834, 0.15625, -0.8125, 0.78125, 0.0
683, 1.3467643467643469, -0.8376068376068376, -0.37484737484737485, 0.1875, -0.4375, 0.75, 0.0
684, 1.829059829059829, -0.7875457875457875, -0.590964590964591, 0.25, -0.375, 0.65625, 0.0
685, 1.8144078144078144, -0.5177045177045178, -0.905982905982906, 0.21875, -0.40625, 0.59375, 0.0
686, 1.387057387057387, -0.3516483516483517, -1.15018315018315, 0.15625, -0.28125, 0.53125, 0.0
687, 1.5653235653235653, -0.21611721611721613, -1.0451770451770452, 0.15625, -0.125, 0.40625, 0.0
688, 1.6837606837606838, -0.336996336996337, -1.1672771672771673, 0.15625, -0.0625, 0.28125, 0.0
689, 1.407814407814408, -0.43345543345543347, -1.2625152625152625, 0.09375, 0.0, 0.15625, 0.0
690, 0.9658119658119658, -0.34065934065934067, -1.0842490842490842, -0.03125, 0.0, 0.09375, 0.0
691, 1.1343101343101343, -0.047619047619047616, -0.5054945054945055, -0.09375, -0.03125, 0.0, 0.0
692, 0.9914529914529915, -0.02442002442002442, -0.29426129426129427, -0.0625, -0.1875, -0.09375, 0.0
693, 0.24786324786324787, 0.3504273504273504, -0.46764346764346765, -0.03125, -0.15625, -0.125, 0.0
694, -0.2869352869352869, 0.4590964590964591, -0.608058608058608, 0.0, 0.0, -0.09375, 0.0
695, -0.16605616605616605, 0.21855921855921856, -0.2698412698412698, -0.0625, 0.0625, -0.0625, 0.0
696, -0.15995115995115994, 0.2271062271062271, 0.052503052503052504, -0.09375, 0.03125, -0.09375, 0.0
697, -0.37606837606837606, 0.2576312576312576, 0.2869352869352869, -0.0625, 0.0, -0.0625, 0.0
698, -0.41147741147741146, 0.2783882783882784, 0.43345543345543347, -0.03125, 0.0, -0.03125, 0.0
699, -0.21978021978021978, 0.07081807081807082, 0.4456654456654457, 0.03125, -0.03125, -0.03125, 0.0
700, -0.21855921855921856, -0.09035409035409035, 0.16605616605616605, 0.0625, -0.0625, -0.03125, 0.0
701, -0.38095238095238093, -0.1343101343101343, 0.07692307692307693, 0.0, -0.0625, -0.03125, 0.0
702, -0.41147741147741146, 0.01221001221001221, 0.3333333333333333, -0.03125, -0.03125, -0.03125, 0.0
703, 0.05616605616605617, 0.21245421245421245, 0.6507936507936508, -0.03125, -0.0625, 0.0, 0.0
704, 0.12454212454212454, 0.003663003663003663, 0.5091575091575091, 0.03125, -0.1875, 0.0, 0.0
705, 0.04884004884004884, -0.0927960927960928, 0.10866910866910867, 0.09375, -0.28125, -0.03125, 0.0
706, -0.09157509157509157, -0.052503052503052504, -0.4188034188034188, 0.03125, -0.28125, 0.0, 0.0
707, -0.04395604395604396, 0.09401709401709402, -0.6251526251526252, -0.03125, -0.21875, 0.0, 0.0
708, 0.12332112332112333, 0.16117216117216118, -0.5470085470085471, -0.03125, -0.15625, 0.0, 0.0
709, 0.19047619047619047, 0.20634920634920634, -0.43223443223443225, 0.0, -0.09375, 0.0, 0.0
710, 0.28205128205128205, 0.15262515262515264, -0.4261294261294261, 0.0625, -0.0625, 0.03125, 0.0
711, 0.21123321123321123, 0.07936507936507936, -0.5897435897435898, 0.0, -0.0625, 0.03125, 0.0
712, 0.1221001221001221, 0.19658119658119658, -0.5616605616605617, 0.0, -0.0625, 0.0, 0.0
713, -0.0231990231990232, 0.1746031746031746, -0.4163614163614164, 0.0, 0.0, 0.03125, 0.0
714, -0.004884004884004884, 0.11355311355311355, -0.2588522588522589, 0.0, 0.03125, 0.0625, 0.0
715, 0.01098901098901099, -0.0231990231990232, -0.06227106227106227, 0.03125, 0.03125, 0.0625, 0.0
716, 0.10012210012210013, -0.10866910866910867, 0.020757020757020756, 0.0, 0.0, 0.03125, 0.0
717, 0.1794871794871795, -0.0927960927960928, 0.115995115995116, 0.0, -0.03125, 0.03125, 0.0
718, 0.04151404151404151, -0.10012210012210013, -0.09401709401709402, -0.03125, -0.15625, 0.0, 0.0
719, 0.08913308913308914, 0.050061050061050064, -0.008547008547008548, -0.03125, -0.15625, 0.0, 0.0
720, 0.07081807081807082, 0.004884004884004884, 0.05982905982905983, 0.0, -0.1875, 0.0, 0.0
721, 0.19291819291819293, 0.03785103785103785, -0.04395604395604396, 0.0, -0.25, 0.03125, 0.0
722, 0.13553113553113552, 0.05372405372405373, -0.16971916971916973, 0.0625, -0.375, 0.125, 0.0
723, 0.43833943833943834, -0.16361416361416362, -0.2857142857142857, 0.0, -0.5625, 0.15625, 1.0
724, 0.017094017094017096, -0.11965811965811966, -0.6544566544566545, -0.125, -0.75, 0.15625, 1.0
725, 0.31868131868131866, -0.06349206349206349, -1.010989010989011, -0.125, -0.6875, 0.125, 1.0
726, 0.4725274725274725, -0.18192918192918192, -1.413919413919414, 0.0, -0.46875, 0.125, 1.0
727, 1.1257631257631258, -0.6910866910866911, -1.5836385836385836, 0.125, -0.15625, 0.09375, 1.0
728, 1.9694749694749696, -1.236874236874237, -1.9426129426129426, 0.25, 0.125, 0.0, 1.0
729, 2.8815628815628815, -2.757020757020757, -2.5653235653235655, 0.25, 0.40625, -0.1875, 1.0
730, 3.7814407814407813, -4.344322344322344, -2.416361416361416, -0.1875, 0.59375, -0.71875, 1.0
731, 2.7594627594627594, -4.871794871794871, -1.3003663003663004, -0.28125, 0.84375, -1.1875, 1.0
732, 2.255189255189255, -4.085470085470085, -0.03663003663003663, 0.0, 1.25, -1.46875, 1.0
733, 2.807081807081807, -4.517704517704518, -0.09401709401709402, 0.25, 1.03125, -1.71875, 1.0
734, 1.800976800976801, -5.601953601953602, -0.7118437118437119, 0.03125, 0.625, -2.0625, 1.0
735, -0.8070818070818071, -6.192918192918193, -0.9841269841269841, -0.46875, 0.78125, -2.375, 1.0
736, -2.413919413919414, -4.788766788766789, 0.3797313797313797, -0.5, 1.3125, -2.34375, 1.0
737, -1.9865689865689866, -3.873015873015873, 2.1294261294261294, -0.03125, 1.65625, -2.28125, 1.0
738, -1.3614163614163615, -3.896214896214896, 3.3443223443223444, 0.5, 1.5625, -2.34375, 1.0
739, -0.7338217338217338, -4.7765567765567765, 2.7155067155067156, 0.625, 1.0, -2.5625, 1.0
740, -2.3675213675213675, -4.886446886446887, 1.6043956043956045, 0.4375, 0.59375, -2.6875, 1.0
741, -3.752136752136752, -4.151404151404152, 1.144078144078144, 0.46875, 0.71875, -2.65625, 1.0
742, -4.034188034188034, -2.3894993894993894, 1.8266178266178266, 0.78125, 1.03125, -2.625, 1.0
743, -3.894993894993895, -2.4993894993894994, 1.6703296703296704, 1.09375, 1.0, -2.53125, 1.0
744, -3.230769230769231, -2.393162393162393, 1.6886446886446886, 1.1875, 0.96875, -2.5, 1.0
745, -3.0952380952380953, -1.7374847374847375, 1.778998778998779, 1.21875, 0.6875, -2.5625, 1.0
746, -3.6153846153846154, -0.6214896214896215, 1.7692307692307692, 1.21875, 0.40625, -2.53125, 1.0
747, -5.119658119658119, 0.31135531135531136, 0.8217338217338217, 1.4375, 0.53125, -2.40625, 1.0
748, -4.0366300366300365, -0.2454212454212454, 0.6141636141636142, 1.6875, 0.75, -2.15625, 1.0
749, -3.299145299145299, -0.409035409035409, 0.45787545787545786, 1.78125, 0.53125, -2.125, 1.0
750, -3.431013431013431, 0.4371184371184371, -0.4004884004884005, 1.875, 0.375, -2.125, 1.0
751, -3.7387057387057387, 0.989010989010989, -1.3992673992673992, 1.96875, 0.4375, -2.03125, 1.0
752, -3.039072039072039, 0.9426129426129426, -2.623931623931624, 2.0, 0.4375, -1.9375, 1.0
753, -4.605616605616605, 2.1452991452991452, -4.180708180708181, 1.71875, 0.21875, -1.78125, 1.0
754, -4.698412698412699, 3.3235653235653237, -4.594627594627594, 1.625, 0.28125, -1.53125, 1.0
755, -3.896214896214896, 3.8998778998779, -4.666666666666667, 1.5625, 0.34375, -1.25, 1.0
756, -3.4652014652014653, 4.446886446886447, -5.126984126984127, 1.375, 0.25, -0.9375, 1.0
757, -2.562881562881563, 3.9926739926739927, -5.062271062271062, 1.03125, 0.0625, -0.78125, 1.0
758, -2.255189255189255, 3.473748473748474, -4.82051282051282, 0.75, -0.0625, -0.65625, 1.0
759, -1.9023199023199022, 3.1416361416361416, -4.13919413919414, 0.5625, -0.03125, -0.5625, 1.0
760, -2.1452991452991452, 2.7191697191697193, -3.313797313797314, 0.40625, 0.15625, -0.53125, 1.0
761, -2.155067155067155, 2.838827838827839, -2.481074481074481, 0.4375, 0.34375, -0.375, 1.0
762, -1.7179487179487178, 2.42002442002442, -1.6593406593406594, 0.4375, 0.40625, -0.25, 1.0
763, -1.1697191697191698, 2.004884004884005, -1.043956043956044, 0.4375, 0.4375, -0.15625, 1.0
764, -0.5982905982905983, 1.4871794871794872, -0.9194139194139194, 0.1875, 0.28125, -0.125, 1.0
765, -1.938949938949939, 2.202686202686203, -1.5335775335775337, 0.03125, 0.0, 0.0, 1.0
766, -1.2564102564102564, 1.5384615384615385, -1.3540903540903542, -0.03125, 0.0, 0.09375, 1.0
767, -0.17826617826617827, 0.4346764346764347, -1.0293040293040292, -0.125, -0.09375, 0.15625, 1.0
768, 0.07203907203907203, -0.04151404151404151, -0.8498168498168498, -0.21875, -0.15625, 0.15625, 1.0
769, 0.28205128205128205, -0.2686202686202686, -0.5079365079365079, -0.21875, -0.09375, 0.125, 1.0
770, 0.3308913308913309, -0.43956043956043955, -0.26495726495726496, -0.1875, -0.0625, 0.09375, 1.0
771, 0.2967032967032967, -0.40293040293040294, 0.0463980463980464, -0.15625, -0.0625, 0.0625, 1.0
772, 0.5775335775335775, -0.5616605616605617, 0.2893772893772894, -0.125, -0.0625, 0.03125, 1.0
773, 0.3968253968253968, -0.5592185592185592, 0.28815628815628813, -0.15625, -0.09375, 0.0, 1.0
774, 0.3089133089133089, -0.4603174603174603, 0.2686202686202686, -0.15625, -0.125, -0.03125, 1.0
775, 0.07692307692307693, -0.2600732600732601, 0.3968253968253968, -0.125, -0.125, -0.0625, 1.0
776, 0.07692307692307693, -0.07326007326007326, 0.46153846153846156, 0.0, -0.0625, -0.03125, 1.0
777, -0.003663003663003663, -0.10500610500610501, 0.2661782661782662, 0.03125, -0.03125, -0.03125, 1.0
778, 0.03418803418803419, -0.1807081807081807, 0.2844932844932845, 0.03125, -0.03125, -0.0625, 1.0
779, -0.04884004884004884, 0.11721611721611722, 0.4139194139194139, 0.09375, -0.03125, -0.03125, 1.0
780, -0.09523809523809523, 0.1807081807081807, 0.3199023199023199, 0.125, -0.03125, -0.03125, 1.0
781, -0.05982905982905983, 0.16971916971916973, 0.08669108669108669, 0.15625, 0.0, -0.03125, 1.0
782, -0.1623931623931624, 0.1746031746031746, -0.21245421245421245, 0.15625, 0.0, -0.0625, 1.0
783, -0.17216117216117216, 0.18315018315018314, -0.3968253968253968, 0.125, 0.0625, -0.0625, 1.0
784, -0.2087912087912088, 0.19413919413919414, -0.590964590964591, 0.03125, 0.125, -0.0625, 1.0
785, -0.39194139194139194, 0.5555555555555556, -0.8669108669108669, -0.03125, 0.1875, 0.0, 1.0
786, -0.46153846153846156, 0.9230769230769231, -1.0854700854700854, -0.03125, 0.25, 0.0, 0.0
787, -0.34798534798534797, 1.0671550671550671, -1.431013431013431, -0.03125, 0.1875, 0.0, 0.0
788, -0.8742368742368742, 2.5042735042735043, -2.5824175824175826, -0.125, 0.0625, -0.09375, 0.0
789, -1.297924297924298, 3.0586080586080584, -3.1123321123321124, -0.15625, -0.15625, -0.09375, 0.0
790, -2.1807081807081805, 3.5054945054945055, -4.1440781440781445, -0.125, -0.1875, -0.03125, 0.0
791, -2.2454212454212454, 3.42002442002442, -5.218559218559219, -0.25, 0.0, 0.03125, 0.0
792, -2.3833943833943834, 3.496947496947497, -5.694749694749695, -0.6875, -0.09375, 0.09375, 0.0
793, -3.1587301587301586, 3.896214896214896, -5.498168498168498, -1.21875, -0.25, 0.21875, 0.0
794, -3.247863247863248, 3.916971916971917, -4.884004884004884, -1.65625, -0.34375, 0.40625, 0.0
795, -3.231990231990232, 3.700854700854701, -3.965811965811966, -2.0, -0.5, 0.65625, 0.0
796, -3.382173382173382, 3.0378510378510377, -3.1025641025641026, -2.09375, -0.5625, 0.9375, 0.0
797, -3.525030525030525, 2.442002442002442, -2.5555555555555554, -1.96875, -0.3125, 1.28125, 0.0
798, -2.7252747252747254, 0.78998778998779, -2.3504273504273505, -1.53125, 0.21875, 1.75, 0.0
799, -1.5604395604395604, -0.778998778998779, -2.2515262515262515, -1.15625, 0.65625, 2.125, 0.0
800, -0.23687423687423687, -2.614163614163614, -2.3943833943833943, -1.40625, 0.3125, 2.09375, 0.0
801, 0.6263736263736264, -3.769230769230769, -2.2051282051282053, -2.09375, -0.40625, 1.84375, 0.0
802, 0.7130647130647131, -4.239316239316239, -1.6178266178266179, -2.78125, -1.1875, 1.5625, 0.0
803, -0.5103785103785103, -4.112332112332112, -0.7594627594627594, -3.09375, -1.625, 1.375, 0.0
804, -1.6996336996336996, -3.4444444444444446, -0.21611721611721613, -2.8125, -1.5625, 1.40625, 0.0
805, -2.391941391941392, -3.0036630036630036, 0.3540903540903541, -2.09375, -1.15625, 1.71875, 0.0
806, -2.227106227106227, -3.653235653235653, 0.17216117216117216, -1.34375, -0.84375, 2.125, 0.0
807, -1.5445665445665446, -4.637362637362638, 0.07936507936507936, -0.90625, -0.75, 2.375, 0.0
808, -1.098901098901099, -5.652014652014652, -0.3028083028083028, -0.71875, -0.78125, 2.46875, 0.0
809, -0.9462759462759462, -6.3076923076923075, -0.409035409035409, -0.71875, -0.6875, 2.34375, 0.0
810, -0.6800976800976801, -6.263736263736264, -0.08424908424908426, -0.75, -0.5, 2.21875, 0.0
811, 0.29914529914529914, -5.835164835164835, 0.873015873015873, -0.53125, -0.375, 2.15625, 0.0
812, 0.6825396825396826, -5.338217338217338, 1.2722832722832722, -0.34375, -0.46875, 2.09375, 0.0
813, 1.0488400488400489, -5.020757020757021, 1.534798534798535, -0.1875, -0.625, 1.90625, 0.0
814, 1.2075702075702075, -4.472527472527473, 1.6312576312576312, -0.03125, -0.8125, 1.625, 0.0
815, 0.7142857142857143, -3.918192918192918, 1.4261294261294262, 0.0625, -0.96875, 1.375, 0.0
816, 0.3052503052503053, -3.3943833943833943, 1.1941391941391941, 0.15625, -0.9375, 1.3125, 0.0
817, 0.5201465201465202, -3.0586080586080584, 1.0842490842490842, 0.28125, -0.78125, 1.375, 0.0
818, 0.536019536019536, -2.623931623931624, 1.017094017094017, 0.34375, -0.6875, 1.28125, 0.0
819, 0.315018315018315, -2.4334554334554332, 1.098901098901099, 0.28125, -0.59375, 1.15625, 0.0
820, 0.7509157509157509, -2.277167277167277, 1.3223443223443223, 0.21875, -0.5625, 1.15625, 0.0
821, 1.3382173382173381, -1.844932844932845, 1.3247863247863247, 0.28125, -0.6875, 1.03125, 0.0
822, 1.216117216117216, -1.7704517704517704, 1.05006105006105, 0.375, -0.84375, 0.9375, 0.0
823, 1.1294261294261294, -1.7008547008547008, 0.4896214896214896, 0.375, -0.71875, 0.90625, 0.0
824, 1.6214896214896215, -1.7411477411477412, -0.19291819291819293, 0.25, -0.59375, 0.75, 0.0
825, 2.0354090354090353, -1.1953601953601953, -0.7313797313797313, 0.21875, -0.625, 0.625, 0.0
826, 1.691086691086691, -0.7557997557997558, -1.0341880341880343, 0.21875, -0.5625, 0.5, 0.0
827, 1.137973137973138, -0.4139194139194139, -1.2442002442002442, 0.21875, -0.3125, 0.40625, 0.0
828, 1.2356532356532357, -0.1562881562881563, -1.2442002442002442, 0.1875, -0.125, 0.4375, 0.0
829, 1.6507936507936507, -0.2271062271062271, -1.398046398046398, 0.15625, -0.15625, 0.34375, 0.0
830, 1.5128205128205128, -0.08913308913308914, -1.448107448107448, 0.0625, -0.1875, 0.21875, 0.0
831, 1.0036630036630036, 0.19291819291819293, -1.4542124542124542, 0.0625, -0.125, 0.15625, 0.0
832, 0.4945054945054945, 0.3028083028083028, -1.3968253968253967, 0.09375, 0.03125, 0.125, 0.0
833, 0.4932844932844933, 0.2087912087912088, -1.2136752136752136, 0.03125, 0.0625, 0.09375, 0.0
834, 0.23809523809523808, 0.3076923076923077, -1.006105006105006, -0.09375, 0.0, 0.0625, 0.0
835, 0.03663003663003663, 0.4432234432234432, -0.26495726495726496, -0.09375, 0.0, 0.0, 0.0
836, -0.052503052503052504, 0.1343101343101343, -0.14407814407814407, -0.03125, -0.03125, 0.0, 0.0
837, -0.1391941391941392, 0.15873015873015872, -0.09645909645909646, 0.0, -0.03125, -0.03125, 0.0
838, 0.04395604395604396, 0.16605616605616605, -0.08791208791208792, -0.03125, -0.0625, -0.03125, 0.0
839, -0.19047619047619047, 0.1746031746031746, -0.10500610500610501, -0.03125, -0.125, -0.03125, 0.0
840, -0.3247863247863248, 0.14041514041514042, -0.07814407814407814, -0.03125, -0.03125, 0.0, 0.0
841, -0.07081807081807082, 0.06105006105006105, 0.01098901098901099, -0.03125, 0.03125, 0.0, 0.0
842, 0.2515262515262515, -0.057387057387057384, 0.10500610500610501, -0.03125, 0.0625, 0.0, 0.0
843, 0.040293040293040296, -0.10866910866910867, 0.09645909645909646, -0.03125, -0.03125, -0.03125, 0.0
844, -0.12942612942612944, 0.017094017094017096, 0.03296703296703297, -0.03125, -0.125, -0.03125, 0.0
845, -0.1330891330891331, 0.03418803418803419, -0.017094017094017096, 0.0, -0.125, -0.03125, 0.0
846, -0.030525030525030524, 0.019536019536019536, -0.199023199023199, -0.03125, -0.09375, 0.0, 0.0
847, -0.0927960927960928, 0.10378510378510379, -0.34676434676434675, -0.03125, -0.0625, 0.0, 0.0
848, -0.15262515262515264, 0.14774114774114774, -0.1978021978021978, 0.0, 0.0, 0.0, 0.0
849, 0.07081807081807082, 0.03907203907203907, 0.05372405372405373, 0.0, 0.03125, 0.0, 0.0
850, 0.32112332112332115, -0.19047619047619047, 0.16361416361416362, 0.03125, 0.0, 0.0, 0.0
851, 0.2979242979242979, -0.35653235653235654, -0.12698412698412698, 0.0, -0.15625, 0.0, 0.0
852, 0.10622710622710622, -0.1111111111111111, -0.08058608058608059, -0.09375, -0.21875, -0.03125, 0.0
853, 0.07936507936507936, 0.06227106227106227, -0.12576312576312576, -0.0625, -0.1875, -0.0625, 0.0
854, -0.08913308913308914, 0.06349206349206349, -0.10256410256410256, 0.0, -0.125, -0.03125, 0.0
855, -0.050061050061050064, -0.018315018315018316, -0.23076923076923078, 0.03125, -0.0625, 0.0, 0.0
856, -0.11965811965811966, 0.031746031746031744, -0.12332112332112333, 0.0, -0.03125, 0.0, 0.0
857, -0.030525030525030524, 0.030525030525030524, -0.04395604395604396, 0.0, -0.03125, 0.03125, 0.0
858, 0.05128205128205128, 0.01098901098901099, -0.004884004884004884, 0.03125, -0.0625, 0.03125, 0.0
859, 0.020757020757020756, -0.02442002442002442, -0.1575091575091575, 0.0625, -0.09375, 0.03125, 0.0
860, 0.0695970695970696, -0.0757020757020757, -0.09768009768009768, 0.0625, -0.09375, 0.0625, 0.0
861, 0.15018315018315018, 0.013431013431013432, -0.0989010989010989, 0.0, -0.0625, 0.09375, 0.0
862, 0.1794871794871795, 0.23565323565323565, -0.09645909645909646, 0.0, -0.15625, 0.0625, 0.0
863, 0.09035409035409035, 0.14285714285714285, -0.19536019536019536, 0.09375, -0.1875, 0.03125, 0.0
864, -0.08302808302808302, 0.19413919413919414, -0.29181929181929184, 0.15625, -0.1875, 0.03125, 0.0
865, 0.5128205128205128, 0.06837606837606838, -0.5457875457875457, 0.1875, -0.21875, 0.0625, 0.0
866, 0.7106227106227107, -0.1330891330891331, -0.7655677655677655, 0.09375, -0.4375, 0.0625, 0.0
867, 0.43345543345543347, -0.040293040293040296, -0.8217338217338217, 0.0, -0.5, 0.1875, 1.0
868, 0.8058608058608059, -0.1514041514041514, -0.894993894993895, 0.09375, -0.46875, 0.21875, 1.0
869, 1.4212454212454213, -0.7606837606837606, -1.4224664224664225, 0.1875, -0.3125, 0.21875, 1.0
870, 2.4713064713064714, -1.5213675213675213, -2.0134310134310134, 0.09375, -0.125, 0.125, 1.0
871, 2.877899877899878, -2.0146520146520146, -2.3956043956043955, 0.09375, 0.15625, -0.125, 1.0
872, 3.177045177045177, -3.126984126984127, -2.4383394383394386, 0.0, 0.46875, -0.46875, 1.0
873, 3.2564102564102564, -4.365079365079365, -2.286935286935287, -0.15625, 0.71875, -0.90625, 1.0
874, 2.772893772893773, -4.733821733821734, -1.216117216117216, -0.28125, 0.90625, -1.375, 1.0
875, 2.2222222222222223, -5.031746031746032, -0.21978021978021978, -0.28125, 1.0, -1.78125, 1.0
876, 1.496947496947497, -5.428571428571429, 0.38705738705738707, -0.25, 0.96875, -2.0625, 1.0
877, 0.4261294261294261, -5.543345543345543, 1.15018315018315, -0.125, 1.09375, -2.25, 1.0
878, -0.8424908424908425, -6.1001221001221, 1.4615384615384615, -0.03125, 1.40625, -2.40625, 1.0
879, -1.7142857142857142, -5.863247863247863, 1.7851037851037852, 0.0625, 1.625, -2.5625, 1.0
880, -2.177045177045177, -5.153846153846154, 2.341880341880342, 0.3125, 1.65625, -2.59375, 1.0
881, -1.4468864468864469, -4.626373626373627, 2.84981684981685, 0.6875, 1.3125, -2.71875, 1.0
882, -1.9206349206349207, -4.078144078144078, 2.0427350427350426, 0.71875, 0.84375, -2.90625, 1.0
883, -3.634920634920635, -3.5567765567765566, 1.47985347985348, 0.6875, 0.4375, -3.0625, 1.0
884, -5.435897435897436, -2.4761904761904763, 1.1684981684981686, 0.8125, 0.5625, -2.96875, 1.0
885, -5.142857142857143, -1.4713064713064714, 1.7619047619047619, 1.09375, 0.96875, -2.65625, 1.0
886, -3.89010989010989, -1.0952380952380953, 2.070818070818071, 1.40625, 0.9375, -2.46875, 1.0
887, -2.2356532356532357, -1.1428571428571428, 1.8547008547008548, 1.40625, 0.28125, -2.375, 1.0
888, -3.8522588522588523, -0.336996336996337, 1.0451770451770452, 1.1875, -0.3125, -2.40625, 1.0
889, -5.012210012210012, 0.7619047619047619, 0.43833943833943834, 1.1875, -0.125, -2.34375, 1.0
890, -5.191697191697192, 1.242979242979243, -0.21001221001221002, 1.53125, 0.28125, -2.0625, 1.0
891, -3.896214896214896, 1.1623931623931625, -0.2905982905982906, 1.84375, 0.59375, -1.71875, 1.0
892, -2.3284493284493286, 0.07814407814407814, -1.0622710622710623, 1.875, 0.4375, -1.5625, 1.0
893, -2.485958485958486, 0.27472527472527475, -2.2637362637362637, 1.59375, -0.09375, -1.5625, 1.0
894, -3.888888888888889, 1.42002442002442, -2.746031746031746, 1.53125, 0.15625, -1.4375, 1.0
895, -3.3601953601953602, 1.7448107448107448, -2.3455433455433456, 1.6875, 0.53125, -1.21875, 1.0
896, -1.750915750915751, 1.3235653235653235, -2.4236874236874235, 1.75, 0.3125, -1.125, 1.0
897, -2.5115995115995116, 1.5653235653235653, -3.8656898656898657, 1.65625, 0.0625, -0.96875, 1.0
898, -3.2295482295482296, 1.938949938949939, -4.501831501831502, 1.375, 0.1875, -0.875, 1.0
899, -3.15018315018315, 2.9755799755799757, -4.014652014652015, 1.125, 0.40625, -0.75, 1.0
900, -2.249084249084249, 3.5934065934065935, -3.352869352869353, 1.0, 0.34375, -0.53125, 1.0
901, -1.6507936507936507, 3.15995115995116, -3.2893772893772892, 0.9375, 0.09375, -0.40625, 1.0
902, -1.2759462759462759, 2.391941391941392, -3.6849816849816848, 0.71875, 0.03125, -0.28125, 1.0
903, -0.525030525030525, 1.2564102564102564, -3.4603174603174605, 0.375, 0.09375, -0.3125, 1.0
904, -0.6288156288156288, 1.1111111111111112, -1.4847374847374848, 0.09375, 0.0625, -0.46875, 1.0
905, -1.4847374847374848, 2.8876678876678876, -1.4456654456654456, 0.28125, 0.0625, -0.4375, 1.0
906, -2.178266178266178, 2.954822954822955, -1.73992673992674, 0.40625, 0.125, -0.3125, 1.0
907, -1.4126984126984128, 2.3211233211233213, -1.778998778998779, 0.28125, 0.21875, -0.15625, 1.0
908, -0.9218559218559218, 1.7264957264957266, -1.6385836385836385, 0.0625, 0.0625, -0.0625, 1.0
909, -0.47741147741147744, 0.9462759462759462, -1.321123321123321, -0.09375, -0.125, 0.0, 1.0
910, -0.050061050061050064, 0.46764346764346765, -0.8156288156288156, -0.21875, -0.1875, 0.0, 1.0
911, 0.0463980463980464, 0.03418803418803419, -0.5201465201465202, -0.21875, -0.21875, 0.03125, 1.0
912, 0.052503052503052504, -0.21245421245421245, -0.5006105006105006, -0.125, -0.125, 0.03125, 1.0
913, 0.6984126984126984, -0.6275946275946276, -0.2661782661782662, -0.03125, 0.03125, 0.03125, 1.0
914, 1.1477411477411477, -0.978021978021978, -0.002442002442002442, -0.03125, 0.0, 0.0, 1.0
915, 0.9584859584859585, -1.0573870573870574, 0.1916971916971917, -0.125, -0.09375, -0.03125, 1.0
916, 0.6446886446886447, -0.5934065934065934, 0.23931623931623933, -0.15625, -0.1875, -0.09375, 1.0
917, 0.1746031746031746, -0.3064713064713065, 0.18803418803418803, -0.03125, -0.125, -0.09375, 1.0
918, 0.006105006105006105, -0.23809523809523808, 0.19413919413919414, 0.03125, 0.03125, -0.125, 1.0
919, 0.32112332112332115, -0.2844932844932845, 0.40415140415140416, 0.0625, 0.03125, -0.125, 1.0
920, 0.21367521367521367, -0.20634920634920634, 0.3199023199023199, 0.09375, 0.0, -0.125, 1.0
921, 0.009768009768009768, 0.0231990231990232, 0.2576312576312576, 0.09375, -0.03125, -0.125, 1.0
922, -0.221001221001221, 0.1111111111111111, 0.08302808302808302, 0.09375, 0.0, -0.09375, 1.0
923, -0.32234432234432236, 0.3418803418803419, 0.115995115995116, 0.09375, 0.03125, -0.09375, 1.0
924, -0.2673992673992674, 0.5238095238095238, 0.009768009768009768, 0.15625, 0.0, -0.0625, 1.0
925, -0.37484737484737485, 0.43956043956043955, -0.3199023199023199, 0.15625, 0.0, 0.0, 1.0
926, -0.2503052503052503, 0.2271062271062271, -0.6715506715506715, 0.09375, 0.03125, 0.03125, 1.0
927, -0.08547008547008547, 0.04151404151404151, -0.6275946275946276, -0.09375, 0.1875, 0.0625, 1.0
928, 0.08058608058608059, -0.28083028083028083, -0.9621489621489622, -0.3125, 0.40625, 0.0625, 0.0
929, 0.8632478632478633, 0.031746031746031744, -0.4725274725274725, -0.25, 0.40625, 0.0, 0.0
930, -0.018315018315018316, 0.5091575091575091, -0.27350427350427353, -0.09375, 0.1875, -0.03125, 0.0
931, -0.34065934065934067, 0.702075702075702, -0.27106227106227104, 0.03125, 0.03125, -0.0625, 0.0
932, -0.21001221001221002, 0.4126984126984127, -0.22954822954822954, 0.15625, 0.0, -0.03125, 0.0
933, -0.3052503052503053, 0.27106227106227104, -0.7081807081807082, 0.125, 0.03125, -0.03125, 0.0
934, -0.5225885225885226, 0.7326007326007326, -1.5897435897435896, 0.0, 0.03125, -0.125, 0.0
935, -0.8547008547008547, 2.057387057387057, -2.559218559218559, -0.125, -0.09375, -0.15625, 0.0
936, -1.4468864468864469, 2.5213675213675213, -3.755799755799756, -0.1875, -0.3125, -0.125, 0.0
937, -2.340659340659341, 2.934065934065934, -4.68009768009768, -0.40625, -0.4375, -0.0625, 0.0
938, -2.998778998778999, 3.393162393162393, -5.1208791208791204, -0.75, -0.3125, 0.0, 0.0
939, -3.78998778998779, 4.253968253968254, -4.874236874236874, -1.125, 0.0, 0.3125, 0.0
940, -3.3736263736263736, 4.145299145299146, -4.087912087912088, -1.25, 0.15625, 0.59375, 0.0
941, -3.2686202686202686, 3.518925518925519, -3.294261294261294, -1.375, 0.15625, 0.84375, 0.0
942, -2.9401709401709404, 2.1880341880341883, -2.7326007326007327, -1.5, 0.03125, 1.15625, 0.0
943, -2.68986568986569, 1.271062271062271, -2.2808302808302807, -1.5625, -0.03125, 1.375, 0.0
944, -2.4957264957264957, 0.7277167277167277, -1.982905982905983, -1.34375, 0.15625, 1.625, 0.0
945, -1.5824175824175823, -0.4517704517704518, -1.921855921855922, -1.09375, 0.375, 1.75, 0.0
946, -0.63003663003663, -2.1526251526251525, -2.1892551892551895, -1.1875, 0.21875, 1.78125, 0.0
947, 0.6410256410256411, -3.7753357753357752, -2.2673992673992673, -1.71875, -0.4375, 1.6875, 0.0
948, 1.0915750915750915, -4.2063492063492065, -2.0085470085470085, -2.4375, -1.4375, 1.59375, 0.0
949, -0.33455433455433453, -3.6483516483516483, -1.6092796092796093, -2.6875, -1.90625, 1.5, 0.0
950, -2.391941391941392, -3.0476190476190474, -1.304029304029304, -2.46875, -1.4375, 1.6875, 0.0
951, -1.5775335775335775, -3.686202686202686, -0.4481074481074481, -1.65625, -0.5625, 1.8125, 0.0
952, -1.3418803418803418, -4.713064713064713, -0.612942612942613, -1.34375, -0.5, 2.0, 0.0
953, -0.8644688644688645, -4.884004884004884, -0.23809523809523808, -1.28125, -0.6875, 2.3125, 0.0
954, -0.9548229548229549, -5.203907203907204, 0.06837606837606838, -1.15625, -0.71875, 2.25, 0.0
955, -0.8962148962148963, -5.074481074481074, 0.5653235653235653, -1.03125, -0.5625, 2.1875, 0.0
956, -0.5445665445665445, -5.242979242979243, 1.1514041514041513, -0.875, -0.375, 2.1875, 0.0
957, 0.45787545787545786, -4.761904761904762, 1.424908424908425, -0.65625, -0.34375, 2.125, 0.0
958, 0.6862026862026862, -4.622710622710622, 1.3308913308913308, -0.4375, -0.59375, 1.96875, 0.0
959, 0.21978021978021978, -4.31990231990232, 1.122100122100122, -0.25, -0.875, 1.875, 0.0
960, 0.002442002442002442, -4.227106227106227, 1.0476190476190477, -0.09375, -0.9375, 1.71875, 0.0
961, 0.05860805860805861, -4.112332112332112, 0.9291819291819292, -0.03125, -0.8125, 1.59375, 0.0
962, 0.3614163614163614, -3.827838827838828, 0.8644688644688645, -0.09375, -0.6875, 1.625, 0.0
963, 0.7374847374847375, -3.203907203907204, 1.0586080586080586, -0.03125, -0.625, 1.53125, 0.0
964, 1.2075702075702075, -2.608058608058608, 1.1147741147741148, 0.09375, -0.65625, 1.34375, 0.0
965, 0.5274725274725275, -2.2905982905982905, 1.0683760683760684, 0.21875, -0.625, 1.25, 0.0
966, 0.02197802197802198, -1.9487179487179487, 0.9816849816849816, 0.21875, -0.46875, 1.25, 0.0
967, 0.6214896214896215, -1.7851037851037852, 0.7728937728937729, 0.21875, -0.40625, 1.3125, 0.0
968, 0.8693528693528694, -1.4029304029304028, 0.7057387057387058, 0.21875, -0.46875, 1.25, 0.0
969, 0.26373626373626374, -1.0244200244200243, 0.702075702075702, 0.25, -0.375, 1.21875, 0.0
970, 0.9133089133089133, -0.7484737484737485, 0.6666666666666666, 0.3125, -0.34375, 1.21875, 0.0
971, 1.4676434676434675, -0.9352869352869353, 0.1855921855921856, 0.3125, -0.5, 1.0625, 0.0
972, 1.6727716727716728, -1.098901098901099, -0.3137973137973138, 0.25, -0.6875, 0.96875, 0.0
973, 1.7252747252747254, -1.2014652014652014, -0.8693528693528694, 0.15625, -0.59375, 0.875, 0.0
974, 2.0671550671550674, -1.1318681318681318, -1.5824175824175823, 0.125, -0.3125, 0.625, 0.0
975, 1.684981684981685, -0.6703296703296703, -1.3833943833943834, 0.125, -0.03125, 0.46875, 0.0
976, 1.8424908424908424, -0.5653235653235653, -0.9096459096459096, 0.125, 0.15625, 0.34375, 0.0
977, 2.4126984126984126, -0.6227106227106227, -0.7252747252747253, 0.125, 0.09375, 0.28125, 0.0
978, 1.9242979242979243, -0.46764346764346765, -1.0146520146520146, 0.09375, -0.09375, 0.09375, 0.0
979, 0.3321123321123321, -0.03418803418803419, -0.9242979242979243, 0.0, -0.125, 0.0, 0.0
980, -0.39316239316239315, 0.7313797313797313, -0.36752136752136755, -0.03125, 0.125, 0.0, 0.0
981, 0.3076923076923077, 0.6532356532356532, 0.040293040293040296, 0.0625, 0.28125, 0.0625, 0.0
982, 0.645909645909646, 0.1684981684981685, -0.03663003663003663, 0.125, 0.03125, 0.0, 0.0
983, 0.0927960927960928, 0.06105006105006105, -0.21855921855921856, 0.03125, -0.21875, -0.09375, 0.0
984, -0.7435897435897436, 0.25274725274725274, -0.3663003663003663, -0.03125, -0.21875, -0.15625, 0.0
985, -0.9474969474969475, 0.6410256410256411, -0.23931623931623933, -0.0625, -0.03125, -0.09375, 0.0
986, -0.8107448107448108, 0.7277167277167277, 0.03540903540903541, -0.03125, 0.0625, 0.0, 0.0
987, -0.4896214896214896, 0.7057387057387058, 0.19291819291819293, 0.0, -0.03125, 0.0, 0.0
988, -0.4358974358974359, 0.5531135531135531, 0.2087912087912088, 0.03125, -0.03125, 0.03125, 0.0
989, -0.23687423687423687, 0.23565323565323565, -0.11477411477411477, 0.0625, -0.03125, 0.03125, 0.0
990, 0.0989010989010989, 0.1343101343101343, -0.3431013431013431, 0.03125, -0.09375, 0.0625, 0.0
991, -0.05128205128205128, 0.03296703296703297, -0.5824175824175825, 0.0, -0.09375, 0.03125, 0.0
992, -0.0989010989010989, 0.14896214896214896, -0.29426129426129427, -0.03125, 0.0, 0.03125, 0.0
993, -0.015873015873015872, 0.029304029304029304, -0.06471306471306472, -0.03125, 0.0625, 0.03125, 0.0
994, 0.20024420024420025, -0.013431013431013432, 0.2661782661782662, 0.0, 0.0, 0.03125, 0.0
995, 0.2222222222222222, -0.16971916971916973, 0.27350427350427353, 0.0, -0.03125, 0.0, 0.0
996, 0.32844932844932845, -0.10866910866910867, 0.1746031746031746, 0.03125, -0.15625, -0.03125, 0.0
997, -0.017094017094017096, -0.10256410256410256, -0.20757020757020758, 0.0, -0.21875, -0.03125, 0.0
998, -0.33821733821733824, 0.31135531135531136, -0.12087912087912088, 0.0, -0.0625, 0.0, 0.0
999, -0.08058608058608059, 0.20512820512820512, -0.1221001221001221, 0.0, 0.0, 0.0625, 0.0
1000, -0.1111111111111111, 0.1221001221001221, -0.009768009768009768, 0.0, 0.0, 0.0625, 0.0
1001, 0.009768009768009768, 0.1330891330891331, 0.1684981684981685, 0.0625, 0.0, 0.0625, 0.0
1002, 0.23076923076923078, 0.06593406593406594, -0.031746031746031744, 0.0625, -0.09375, 0.09375, 0.0
1003, 0.35775335775335776, 0.05616605616605617, -0.006105006105006105, 0.125, -0.28125, 0.0625, 0.0
1004, 0.818070818070818, -0.12454212454212454, -0.03785103785103785, 0.0625, -0.59375, 0.15625, 1.0
1005, 1.0146520146520146, -0.21733821733821734, -0.6398046398046398, 0.09375, -0.90625, 0.125, 1.0
1006, 1.3894993894993894, -0.49572649572649574, -0.7655677655677655, 0.21875, -1.03125, 0.15625, 1.0
1007, 1.452991452991453, -1.4346764346764347, -1.7716727716727716, 0.21875, -0.8125, 0.09375, 1.0
1008, 2.161172161172161, -2.105006105006105, -2.3150183150183152, 0.09375, -0.34375, 0.0625, 1.0
1009, 3.131868131868132, -2.557997557997558, -1.9658119658119657, 0.1875, 0.34375, -0.03125, 1.0
1010, 4.062271062271062, -3.623931623931624, -1.623931623931624, 0.21875, 0.65625, -0.375, 1.0
1011, 3.6764346764346763, -4.078144078144078, -1.1868131868131868, 0.125, 0.90625, -0.84375, 1.0
1012, 2.984126984126984, -4.43956043956044, -0.6007326007326007, 0.03125, 0.875, -1.25, 1.0
1013, 2.1746031746031744, -4.726495726495727, -0.03907203907203907, -0.0625, 0.78125, -1.59375, 1.0
1014, 1.0671550671550671, -4.726495726495727, 0.43101343101343104, -0.125, 0.84375, -1.90625, 1.0
1015, -0.16605616605616605, -4.383394383394384, 1.1025641025641026, 0.0, 1.03125, -2.0, 1.0
1016, -0.3626373626373626, -4.512820512820513, 1.4945054945054945, 0.125, 1.21875, -2.25, 1.0
1017, -1.2356532356532357, -4.774114774114774, 1.2014652014652014, 0.15625, 1.21875, -2.46875, 1.0
1018, -2.288156288156288, -4.316239316239316, 1.1391941391941391, 0.1875, 1.09375, -2.625, 1.0
1019, -3.7594627594627594, -4.222222222222222, 1.0537240537240538, 0.21875, 1.21875, -2.65625, 1.0
1020, -4.299145299145299, -4.0195360195360195, 1.6166056166056166, 0.625, 1.65625, -2.59375, 1.0
1021, -3.0354090354090353, -3.7203907203907205, 2.2075702075702077, 1.0, 1.46875, -2.625, 1.0
1022, -2.727716727716728, -3.2466422466422467, 1.8608058608058609, 1.09375, 1.0625, -2.6875, 1.0
1023, -3.642246642246642, -3.1697191697191696, 0.967032967032967, 1.03125, 0.46875, -2.78125, 1.0
1024, -5.238095238095238, -2.442002442002442, 0.27228327228327226, 0.96875, 0.34375, -2.78125, 1.0
1025, -5.058608058608058, -0.6556776556776557, 0.2857142857142857, 1.15625, 0.6875, -2.59375, 1.0
1026, -4.205128205128205, -0.12087912087912088, 0.21978021978021978, 1.5, 0.78125, -2.4375, 1.0
1027, -3.6227106227106227, -0.3516483516483517, -0.4822954822954823, 1.65625, 0.4375, -2.1875, 1.0
1028, -4.006105006105006, -0.36996336996337, -1.2271062271062272, 1.625, 0.125, -2.0625, 1.0
1029, -3.7606837606837606, 0.36385836385836384, -1.8681318681318682, 1.625, 0.1875, -1.9375, 1.0
1030, -3.2625152625152625, 1.1416361416361416, -2.1416361416361416, 1.65625, 0.375, -1.8125, 1.0
1031, -2.2564102564102564, 1.540903540903541, -2.064713064713065, 1.53125, 0.40625, -1.6875, 1.0
1032, -2.1086691086691087, 1.8034188034188035, -2.2735042735042734, 1.4375, -0.03125, -1.5, 1.0
1033, -2.9731379731379732, 1.4664224664224663, -3.3516483516483517, 1.46875, 0.0625, -1.3125, 1.0
1034, -2.4346764346764345, 1.1611721611721613, -3.343101343101343, 1.34375, 0.3125, -1.28125, 1.0
1035, -2.0634920634920637, 1.3492063492063493, -2.6654456654456653, 1.15625, 0.40625, -1.25, 1.0
1036, -2.4835164835164836, 3.2161172161172162, -2.568986568986569, 1.125, 0.28125, -1.125, 1.0
1037, -3.5885225885225887, 3.888888888888889, -2.8864468864468864, 1.0, 0.3125, -0.9375, 1.0
1038, -3.1794871794871793, 4.312576312576312, -2.9108669108669107, 0.90625, 0.25, -0.71875, 1.0
1039, -2.9267399267399266, 4.048840048840049, -2.9206349206349205, 0.625, 0.0625, -0.53125, 1.0
1040, -2.7081807081807083, 3.8485958485958487, -2.9963369963369964, 0.4375, -0.0625, -0.375, 1.0
1041, -2.3028083028083026, 3.5775335775335777, -2.816849816849817, 0.375, -0.03125, -0.15625, 1.0
1042, -1.3015873015873016, 2.796092796092796, -2.695970695970696, 0.3125, 0.0, -0.03125, 1.0
1043, -0.32967032967032966, 1.7411477411477412, -2.3382173382173383, 0.15625, -0.03125, 0.0, 1.0
1044, -0.12332112332112333, 1.1904761904761905, -1.5299145299145298, 0.03125, -0.125, -0.03125, 1.0
1045, -0.07081807081807082, 1.0097680097680097, -1.0647130647130647, 0.03125, -0.03125, 0.0, 1.0
1046, 0.09401709401709402, 0.4139194139194139, -0.5921855921855922, 0.0, 0.0, 0.0, 1.0
1047, 0.7741147741147741, -0.3199023199023199, -0.12576312576312576, -0.03125, -0.03125, 0.0, 1.0
1048, 0.7936507936507936, -0.4896214896214896, 0.25274725274725274, -0.15625, -0.125, -0.03125, 1.0
1049, -0.05860805860805861, 0.10012210012210013, 0.2490842490842491, -0.125, -0.1875, -0.125, 1.0
1050, -0.4163614163614164, 0.27594627594627597, -0.009768009768009768, 0.03125, -0.03125, -0.09375, 1.0
1051, -0.12087912087912088, 0.050061050061050064, -0.16483516483516483, 0.15625, 0.0625, -0.0625, 1.0
1052, 0.20146520146520147, -0.21245421245421245, -0.3956043956043956, 0.09375, 0.0625, -0.0625, 1.0
1053, 0.07814407814407814, -0.18803418803418803, -0.7692307692307693, -0.03125, -0.09375, -0.0625, 1.0
1054, -0.09035409035409035, -0.1562881562881563, -0.7655677655677655, -0.125, -0.15625, -0.0625, 1.0
1055, -0.16727716727716727, -0.10256410256410256, -0.4188034188034188, -0.125, 0.0, 0.0, 1.0
1056, 0.008547008547008548, -0.07081807081807082, -0.07814407814407814, -0.03125, 0.0625, 0.0, 1.0
1057, 0.1562881562881563, -0.1562881562881563, 0.013431013431013432, 0.0, 0.0625, 0.0, 1.0
1058, 0.2454212454212454, -0.3504273504273504, 0.16727716727716727, -0.0625, -0.03125, -0.03125, 1.0
1059, 0.009768009768009768, -0.007326007326007326, 0.5274725274725275, 0.0, 0.0, -0.03125, 1.0
1060, 0.054945054945054944, -0.03785103785103785, 0.6105006105006106, 0.0, -0.03125, -0.03125, 1.0
1061, 0.009768009768009768, -0.015873015873015872, 0.4017094017094017, 0.03125, -0.0625, -0.03125, 1.0
1062, 0.07448107448107448, 0.0, 0.21123321123321123, 0.0625, -0.09375, -0.03125, 1.0
1063, 0.10134310134310134, -0.10012210012210013, -0.030525030525030524, 0.0625, -0.09375, -0.03125, 1.0
1064, 0.32234432234432236, -0.12942612942612944, -0.026862026862026864, 0.0625, -0.125, -0.0625, 1.0
1065, 0.045177045177045176, 0.008547008547008548, -0.13797313797313798, 0.09375, -0.0625, -0.09375, 1.0
1066, -0.11355311355311355, 0.17338217338217338, -0.2039072039072039, 0.15625, 0.0625, -0.09375, 1.0
1067, 0.11965811965811966, 0.11233211233211234, -0.15873015873015872, 0.1875, 0.03125, -0.125, 1.0
1068, -0.06715506715506715, 0.23076923076923078, -0.18437118437118438, 0.1875, 0.0, -0.15625, 1.0
1069, -0.2612942612942613, 0.5042735042735043, -0.2588522588522589, 0.1875, 0.0, -0.15625, 1.0
1070, -0.7680097680097681, 1.122100122100122, -0.7155067155067155, 0.1875, 0.09375, -0.15625, 1.0
1071, -1.2637362637362637, 1.6874236874236874, -1.4896214896214897, 0.15625, 0.25, -0.09375, 0.0
1072, -0.9072039072039072, 1.844932844932845, -2.156288156288156, 0.15625, 0.375, -0.15625, 0.0
1073, -1.7106227106227105, 2.716727716727717, -3.2527472527472527, 0.0, 0.28125, -0.21875, 0.0
1074, -2.4017094017094016, 3.7667887667887667, -4.471306471306471, -0.1875, 0.0, -0.1875, 0.0
1075, -3.2393162393162394, 4.73992673992674, -4.989010989010989, -0.53125, -0.3125, -0.125, 0.0
1076, -4.037851037851038, 5.691086691086691, -5.166056166056166, -0.9375, -0.5, 0.0, 0.0
1077, -4.777777777777778, 5.715506715506716, -5.068376068376068, -1.1875, -0.46875, 0.25, 0.0
1078, -4.803418803418803, 5.051282051282051, -4.6581196581196584, -1.25, -0.28125, 0.9375, 0.0
1079, -3.161172161172161, 2.833943833943834, -4.105006105006105, -1.53125, -0.25, 1.1875, 0.0
1080, -2.1294261294261294, 1.2307692307692308, -3.313797313797314, -2.0, -0.5, 1.1875, 0.0
1081, -2.305250305250305, 0.5201465201465202, -2.9633699633699635, -2.0625, -0.4375, 1.375, 0.0
1082, -2.070818070818071, -0.1623931623931624, -2.9194139194139193, -1.8125, -0.15625, 1.59375, 0.0
1083, -2.0525030525030523, -1.037851037851038, -2.9328449328449326, -1.5625, 0.03125, 1.8125, 0.0
1084, -1.192918192918193, -2.4786324786324787, -2.5128205128205128, -1.6875, 0.0, 1.90625, 0.0
1085, 0.029304029304029304, -3.4957264957264957, -1.7753357753357752, -2.1875, -0.65625, 1.71875, 0.0
1086, -0.3663003663003663, -4.153846153846154, -1.4432234432234432, -2.6875, -1.3125, 1.625, 0.0
1087, -0.978021978021978, -3.8547008547008548, -1.0024420024420024, -2.8125, -1.59375, 1.6875, 0.0
1088, -1.3223443223443223, -3.884004884004884, -0.7130647130647131, -2.625, -1.59375, 1.625, 0.0
1089, -1.811965811965812, -3.755799755799756, -0.7155067155067155, -2.21875, -1.46875, 1.78125, 0.0
1090, -1.9951159951159951, -3.6666666666666665, -0.42857142857142855, -1.3125, -0.9375, 2.0625, 0.0
1091, -1.5213675213675213, -4.761904761904762, -0.5299145299145299, -0.96875, -0.5625, 2.3125, 0.0
1092, -1.0036630036630036, -4.774114774114774, -0.07081807081807082, -0.8125, -0.375, 2.5, 0.0
1093, -0.6422466422466423, -4.930402930402931, 0.5347985347985348, -0.75, -0.25, 2.4375, 0.0
1094, 0.25518925518925517, -4.742368742368742, 1.1416361416361416, -0.65625, -0.28125, 2.375, 0.0
1095, 0.6678876678876678, -4.750915750915751, 1.5824175824175823, -0.46875, -0.5, 2.1875, 0.0
1096, 0.48717948717948717, -4.299145299145299, 1.7582417582417582, -0.1875, -0.78125, 2.03125, 0.0
1097, -0.3772893772893773, -4.1440781440781445, 1.7765567765567765, 0.03125, -0.90625, 2.0, 0.0
1098, 0.03907203907203907, -3.998778998778999, 1.794871794871795, 0.125, -0.78125, 2.125, 0.0
1099, 1.0793650793650793, -3.9816849816849818, 1.6446886446886446, 0.21875, -0.8125, 2.0625, 0.0
1100, 1.5934065934065933, -4.183150183150183, 1.3577533577533578, 0.34375, -1.03125, 1.84375, 0.0
1101, 1.4188034188034189, -3.8583638583638584, 0.8705738705738706, 0.28125, -1.125, 1.53125, 0.0
1102, 0.960927960927961, -3.075702075702076, 0.4822954822954823, 0.125, -0.875, 1.1875, 0.0
1103, 0.3321123321123321, -2.326007326007326, 0.2796092796092796, 0.0, -0.71875, 1.3125, 0.0
1104, 0.1514041514041514, -1.5396825396825398, 0.7167277167277167, 0.09375, -0.40625, 1.34375, 0.0
1105, 0.73992673992674, -1.3882783882783882, 1.1147741147741148, 0.21875, -0.3125, 1.3125, 0.0
1106, 1.5091575091575091, -1.199023199023199, 1.236874236874237, 0.34375, -0.40625, 1.21875, 0.0
1107, 1.8974358974358974, -1.2967032967032968, 0.5641025641025641, 0.375, -0.625, 1.03125, 0.0
1108, 1.7362637362637363, -1.1684981684981686, -0.13064713064713065, 0.28125, -0.8125, 0.90625, 0.0
1109, 1.6422466422466422, -1.1623931623931625, -0.7545787545787546, 0.15625, -0.71875, 0.78125, 0.0
1110, 2.043956043956044, -0.9108669108669109, -0.9975579975579976, 0.125, -0.5625, 0.59375, 0.0
1111, 1.9877899877899878, -0.336996336996337, -1.3406593406593406, 0.15625, -0.4375, 0.5, 0.0
1112, 1.021978021978022, 0.10256410256410256, -1.4322344322344323, 0.1875, -0.15625, 0.46875, 0.0
1113, 0.8974358974358975, 0.09157509157509157, -1.2967032967032968, 0.15625, 0.09375, 0.46875, 0.0
1114, 1.7655677655677655, -0.14285714285714285, -0.7716727716727717, 0.0625, 0.03125, 0.34375, 0.0
1115, 1.2417582417582418, 0.2576312576312576, -0.6984126984126984, 0.0, -0.0625, 0.21875, 0.0
1116, 0.894993894993895, 0.4078144078144078, -0.590964590964591, 0.0, -0.0625, 0.15625, 0.0
1117, 0.9267399267399268, 0.3089133089133089, -0.6239316239316239, 0.0625, -0.09375, 0.09375, 0.0
1118, 0.6166056166056166, 0.20634920634920634, -0.8241758241758241, 0.09375, -0.09375, 0.0, 0.0
1119, -0.2954822954822955, 0.5433455433455433, -0.873015873015873, 0.0, -0.0625, -0.03125, 0.0
1120, -0.8791208791208791, 0.7667887667887668, -0.4004884004884005, -0.09375, 0.09375, 0.03125, 0.0
1121, -0.07203907203907203, 0.7997557997557998, 0.231990231990232, -0.125, 0.15625, 0.09375, 0.0
1122, 0.4517704517704518, 0.4236874236874237, 0.3968253968253968, -0.03125, 0.0, 0.125, 0.0
1123, 0.42735042735042733, -0.028083028083028084, 0.1282051282051282, 0.0625, -0.15625, 0.0625, 0.0
1124, 0.22954822954822954, -0.221001221001221, -0.2148962148962149, 0.0625, -0.125, -0.03125, 0.0
1125, 0.1221001221001221, -0.08424908424908426, -0.3162393162393162, -0.0625, -0.03125, -0.125, 0.0
1126, -0.03296703296703297, 0.17216117216117216, -0.1343101343101343, -0.125, 0.0, -0.15625, 0.0
1127, -0.2454212454212454, 0.29181929181929184, 0.10012210012210013, -0.125, 0.0, -0.125, 0.0
1128, -0.11843711843711843, 0.38583638583638585, 0.3614163614163614, -0.03125, 0.0, -0.125, 0.0
1129, -0.26373626373626374, 0.3199023199023199, 0.42735042735042733, 0.0, -0.0625, -0.125, 0.0
1130, -0.4078144078144078, 0.37484737484737485, 0.2844932844932845, 0.0, -0.09375, -0.09375, 0.0
1131, -0.45665445665445664, 0.4603174603174603, 0.07692307692307693, 0.03125, -0.125, -0.0625, 0.0
1132, -0.6141636141636142, 0.4468864468864469, -0.23809523809523808, 0.03125, -0.0625, 0.0, 0.0
1133, -0.7350427350427351, 0.41514041514041516, -0.20512820512820512, 0.0, 0.03125, 0.0625, 0.0
1134, -0.5213675213675214, 0.29914529914529914, 0.03785103785103785, 0.03125, 0.15625, 0.125, 0.0
1135, -0.015873015873015872, -0.01098901098901099, 0.2625152625152625, 0.03125, 0.0625, 0.15625, 0.0
1136, 0.2026862026862027, -0.0989010989010989, 0.24175824175824176, 0.0625, -0.0625, 0.09375, 0.0
1137, -0.33821733821733824, 0.017094017094017096, -0.1282051282051282, 0.0, -0.125, 0.0625, 0.0
1138, -0.03296703296703297, 0.057387057387057384, -0.1452991452991453, -0.03125, -0.125, 0.09375, 0.0
1139, 0.0989010989010989, 0.0, -0.20634920634920634, 0.0, -0.15625, 0.0625, 0.0
1140, 0.08669108669108669, -0.06715506715506715, -0.21611721611721613, 0.0, -0.1875, 0.03125, 0.0
1141, 0.07814407814407814, 0.15995115995115994, -0.17216117216117216, 0.03125, -0.1875, 0.0, 0.0
1142, 0.2087912087912088, 0.16727716727716727, -0.15262515262515264, 0.15625, -0.15625, 0.0, 0.0
1143, 0.24664224664224665, 0.001221001221001221, -0.3235653235653236, 0.1875, -0.1875, 0.03125, 0.0
1144, 0.4456654456654457, -0.013431013431013432, -0.32722832722832723, 0.15625, -0.25, 0.0625, 0.0
1145, 0.557997557997558, -0.19413919413919414, -0.36874236874236876, 0.09375, -0.28125, 0.09375, 0.0
1146, 1.1391941391941391, -0.3028083028083028, -0.35775335775335776, 0.0625, -0.40625, 0.125, 1.0
1147, 1.4407814407814408, -0.3956043956043956, -0.1794871794871795, 0.1875, -0.65625, 0.09375, 1.0
1148, 0.9963369963369964, -0.9706959706959707, -0.6715506715506715, 0.21875, -0.5625, -0.0625, 1.0
1149, 0.9474969474969475, -1.5506715506715507, -1.5848595848595848, 0.0, -0.1875, -0.15625, 1.0
1150, 1.413919413919414, -1.673992673992674, -1.5934065934065933, -0.125, 0.09375, -0.1875, 1.0
1151, 2.0476190476190474, -2.1074481074481075, -1.277167277167277, -0.09375, 0.375, -0.3125, 1.0
1152, 2.4652014652014653, -2.6214896214896215, -1.2124542124542124, 0.0, 0.71875, -0.5625, 1.0
1153, 2.68009768009768, -3.3797313797313797, -0.7448107448107448, 0.125, 0.84375, -0.96875, 1.0
1154, 2.568986568986569, -4.2905982905982905, -0.8583638583638583, 0.0625, 0.84375, -1.375, 1.0
1155, 1.7301587301587302, -4.507936507936508, -0.8608058608058609, 0.0, 0.90625, -1.75, 1.0
1156, 0.8534798534798534, -4.898656898656899, -0.5457875457875457, -0.03125, 1.03125, -2.0, 1.0
1157, 0.3162393162393162, -5.388278388278389, 0.1794871794871795, -0.09375, 1.25, -2.28125, 1.0
1158, -0.3882783882783883, -5.554334554334554, 0.5347985347985348, -0.125, 1.4375, -2.5, 1.0
1159, -0.717948717948718, -5.2967032967032965, 1.4407814407814408, -0.0625, 1.46875, -2.75, 1.0
1160, -1.6202686202686203, -5.124542124542124, 1.547008547008547, 0.125, 1.28125, -3.03125, 1.0
1161, -3.1062271062271063, -4.7484737484737485, 0.7338217338217338, 0.125, 0.875, -3.25, 1.0
1162, -4.7936507936507935, -3.807081807081807, 0.2588522588522589, 0.03125, 0.78125, -3.25, 1.0
1163, -5.355311355311355, -2.5457875457875456, 0.557997557997558, 0.21875, 1.09375, -3.03125, 1.0
1164, -4.7032967032967035, -1.8510378510378511, 0.9755799755799756, 0.6875, 1.28125, -2.71875, 1.0
1165, -4.113553113553113, -0.9877899877899878, 1.3101343101343101, 1.15625, 1.3125, -2.53125, 1.0
1166, -3.7924297924297923, -0.9536019536019537, 0.9145299145299145, 1.46875, 1.125, -2.40625, 1.0
1167, -3.868131868131868, -1.1404151404151404, 0.031746031746031744, 1.46875, 0.75, -2.3125, 1.0
1168, -4.455433455433456, -0.8327228327228328, -0.2442002442002442, 1.3125, 0.53125, -2.28125, 1.0
1169, -4.474969474969475, 0.054945054945054944, 0.2905982905982906, 1.28125, 0.46875, -2.21875, 1.0
1170, -4.523809523809524, 1.4725274725274726, 0.16727716727716727, 1.4375, 0.46875, -2.0625, 1.0
1171, -4.202686202686203, 1.7863247863247864, -0.15995115995115994, 1.625, 0.46875, -1.5625, 1.0
1172, -3.492063492063492, 1.0244200244200243, -0.557997557997558, 1.65625, 0.25, -1.4375, 1.0
1173, -2.9694749694749696, 0.9096459096459096, -0.9645909645909646, 1.625, 0.15625, -1.4375, 1.0
1174, -3.2979242979242978, 1.0732600732600732, -1.7155067155067154, 1.625, 0.1875, -1.40625, 1.0
1175, -3.4395604395604398, 0.652014652014652, -2.3492063492063493, 1.5625, 0.34375, -1.34375, 1.0
1176, -3.3797313797313797, 1.5848595848595848, -2.31013431013431, 1.5625, 0.53125, -1.25, 1.0
1177, -3.1123321123321124, 2.032967032967033, -2.6312576312576312, 1.5, 0.34375, -1.125, 1.0
1178, -3.197802197802198, 2.304029304029304, -2.9572649572649574, 1.375, 0.1875, -1.0, 1.0
1179, -2.967032967032967, 2.7142857142857144, -2.896214896214896, 1.25, 0.28125, -0.84375, 1.0
1180, -2.5115995115995116, 2.5885225885225887, -2.7997557997557996, 1.09375, 0.1875, -0.6875, 1.0
1181, -2.5347985347985347, 2.8485958485958487, -3.028083028083028, 0.96875, 0.0625, -0.5, 1.0
1182, -2.242979242979243, 2.47008547008547, -3.304029304029304, 0.75, 0.0, -0.34375, 1.0
1183, -1.7777777777777777, 2.3211233211233213, -2.8534798534798536, 0.4375, 0.1875, -0.28125, 1.0
1184, -1.126984126984127, 2.3028083028083026, -2.0781440781440783, 0.375, 0.125, -0.21875, 1.0
1185, -0.6715506715506715, 1.8192918192918193, -2.0964590964590966, 0.25, 0.0, -0.09375, 1.0
1186, -0.5433455433455433, 1.1904761904761905, -2.062271062271062, 0.03125, -0.125, -0.0625, 1.0
1187, -0.5457875457875457, 1.0354090354090355, -1.673992673992674, -0.125, -0.125, -0.03125, 1.0
1188, -0.3711843711843712, 0.8412698412698413, -1.1306471306471306, -0.15625, -0.0625, -0.03125, 1.0
1189, -0.003663003663003663, 0.2796092796092796, -0.706959706959707, -0.09375, -0.03125, 0.0, 1.0
1190, 0.01098901098901099, -0.01098901098901099, -0.38217338217338215, -0.09375, -0.03125, 0.0, 1.0
1191, 0.12332112332112333, -0.2271062271062271, -0.05982905982905983, -0.09375, -0.03125, 0.0, 1.0
1192, 0.30036630036630035, -0.5238095238095238, 0.08547008547008547, -0.09375, -0.09375, 0.0, 1.0
1193, 0.28327228327228327, -0.5409035409035409, -0.06105006105006105, -0.09375, -0.15625, 0.0, 1.0
1194, -0.015873015873015872, -0.5347985347985348, -0.16971916971916973, -0.0625, -0.125, 0.0, 1.0
1195, 0.11477411477411477, -0.4358974358974359, 0.03296703296703297, -0.0625, 0.0, 0.0, 1.0
1196, 0.1855921855921856, -0.4481074481074481, 0.11843711843711843, -0.0625, 0.0, 0.0, 1.0
1197, 0.24175824175824176, -0.398046398046398, 0.18437118437118438, -0.0625, -0.0625, -0.03125, 1.0
1198, 0.12942612942612944, -0.2954822954822955, 0.29914529914529914, -0.03125, -0.0625, 0.0, 1.0
1199, 0.03907203907203907, -0.17826617826617827, 0.29426129426129427, 0.0, 0.0, -0.03125, 1.0
1200, 0.03540903540903541, -0.13675213675213677, 0.08302808302808302, 0.03125, 0.0, -0.03125, 1.0
1201, 0.06227106227106227, 0.11355311355311355, 0.18192918192918192, 0.09375, -0.03125, -0.03125, 1.0
1202, -0.06837606837606838, 0.06715506715506715, 0.17338217338217338, 0.15625, -0.03125, -0.03125, 1.0
1203, 0.05372405372405373, 0.001221001221001221, 0.24664224664224665, 0.125, -0.0625, -0.03125, 1.0
1204, -0.06349206349206349, 0.06349206349206349, 0.06349206349206349, 0.0625, -0.0625, -0.0625, 1.0
1205, -0.21001221001221002, 0.1391941391941392, -0.10012210012210013, 0.0625, -0.03125, -0.0625, 1.0
1206, 0.018315018315018316, 0.38705738705738707, 0.05860805860805861, 0.1875, -0.03125, -0.03125, 1.0
1207, -0.05372405372405373, 0.23809523809523808, -0.31135531135531136, 0.1875, 0.0, -0.03125, 1.0
1208, -0.08302808302808302, 0.13553113553113552, -0.5641025641025641, 0.15625, 0.0, -0.03125, 1.0
1209, 0.003663003663003663, 0.015873015873015872, -0.8461538461538461, 0.03125, 0.0, 0.0, 1.0
1210, -0.15384615384615385, 0.15995115995115994, -1.0964590964590966, -0.125, 0.125, -0.03125, 1.0
1211, -0.1514041514041514, 0.46886446886446886, -1.2893772893772895, -0.21875, 0.25, 0.0, 0.0
1212, -0.017094017094017096, 0.9584859584859585, -1.4835164835164836, -0.125, 0.25, -0.03125, 0.0
1213, -1.037851037851038, 2.2625152625152625, -2.0317460317460316, -0.03125, 0.09375, -0.09375, 0.0
1214, -0.9951159951159951, 2.8485958485958487, -3.1196581196581197, 0.15625, -0.03125, -0.15625, 0.0
1215, -1.1807081807081807, 3.0317460317460316, -4.373626373626373, 0.03125, -0.34375, -0.34375, 0.0
1216, -2.061050061050061, 3.5763125763125765, -5.228327228327228, -0.4375, -0.78125, -0.5, 0.0
1217, -3.67032967032967, 4.448107448107448, -5.380952380952381, -1.0, -1.125, -0.375, 0.0
1218, -4.973137973137973, 5.349206349206349, -5.136752136752137, -1.4375, -0.875, 0.25, 0.0
1219, -5.957264957264957, 5.214896214896215, -4.122100122100122, -1.3125, -0.21875, 0.75, 0.0
1220, -5.554334554334554, 4.094017094017094, -3.3785103785103785, -1.09375, 0.375, 1.15625, 0.0
1221, -3.89010989010989, 2.1123321123321124, -2.942612942612943, -1.0625, 0.46875, 1.53125, 0.0
1222, -1.7728937728937728, -0.5811965811965812, -2.769230769230769, -1.5, -0.0625, 1.75, 0.0
1223, -1.164835164835165, -1.684981684981685, -2.5811965811965814, -1.9375, -0.5625, 1.75, 0.0
1224, -1.0048840048840049, -2.6666666666666665, -2.340659340659341, -2.375, -0.875, 1.75, 0.0
1225, -0.7728937728937729, -3.5006105006105006, -1.873015873015873, -2.71875, -1.25, 1.65625, 0.0
1226, -0.8925518925518926, -3.236874236874237, -1.0952380952380953, -2.71875, -1.5, 1.65625, 0.0
1227, -1.5592185592185592, -3.0854700854700856, -0.7606837606837606, -2.375, -1.40625, 1.90625, 0.0
1228, -1.7667887667887667, -3.6324786324786325, -0.645909645909646, -2.0, -1.25, 2.15625, 0.0
1229, -1.9242979242979243, -4.125763125763126, -0.7496947496947497, -1.625, -1.09375, 2.46875, 0.0
1230, -1.5531135531135531, -4.7094017094017095, -0.1282051282051282, -0.90625, -0.625, 2.75, 0.0
1231, -0.8021978021978022, -4.9010989010989015, 0.27594627594627597, -0.53125, -0.40625, 2.8125, 0.0
1232, -0.6495726495726496, -5.2796092796092795, 0.4163614163614164, -0.25, -0.3125, 2.78125, 0.0
1233, -0.7472527472527473, -5.785103785103785, 0.5299145299145299, -0.25, -0.21875, 2.59375, 0.0
1234, -0.5982905982905983, -5.559218559218559, 0.8681318681318682, -0.40625, -0.03125, 2.4375, 0.0
1235, 0.11843711843711843, -4.852258852258852, 1.413919413919414, -0.4375, 0.0, 2.1875, 0.0
1236, 0.11965811965811966, -4.609279609279609, 1.735042735042735, -0.3125, -0.1875, 2.03125, 0.0
1237, 0.2258852258852259, -4.355311355311355, 1.8021978021978022, -0.09375, -0.4375, 2.0, 0.0
1238, 0.14285714285714285, -4.498168498168498, 1.5555555555555556, 0.0625, -0.625, 1.96875, 0.0
1239, 0.38095238095238093, -4.063492063492063, 1.3199023199023199, 0.09375, -0.6875, 1.875, 0.0
1240, 0.28815628815628813, -3.427350427350427, 1.1172161172161172, 0.09375, -0.6875, 1.625, 0.0
1241, -0.08547008547008547, -2.816849816849817, 1.0231990231990231, 0.125, -0.625, 1.5625, 0.0
1242, -0.15873015873015872, -2.4774114774114775, 0.9865689865689866, 0.15625, -0.46875, 1.5625, 0.0
1243, 0.8058608058608059, -2.083028083028083, 0.9267399267399268, 0.25, -0.5, 1.53125, 0.0
1244, 0.8522588522588522, -2.083028083028083, 0.6568986568986569, 0.34375, -0.5625, 1.4375, 0.0
1245, 0.9206349206349206, -2.346764346764347, 0.32112332112332115, 0.28125, -0.46875, 1.25, 0.0
