timestamp, accX, accY, accZ, gyroX, gyroY, gyroZ, button
876, -0.013431013431013432, 0.03296703296703297, 0.14407814407814407, 0.0, 0.03125, 0.03125, 0.0
877, 0.029304029304029304, 0.009768009768009768, 0.09768009768009768, 0.0, 0.03125, 0.03125, 0.0
878, 0.006105006105006105, -0.018315018315018316, 0.0, 0.03125, 0.0, 0.0, 0.0
1, -0.07814407814407814, 0.003663003663003663, -0.07692307692307693, 0.0, 0.0, 0.0, 0.0
2, -0.004884004884004884, 0.03540903540903541, -0.08791208791208792, 0.0, 0.0, 0.0, 0.0
3, 0.009768009768009768, 0.0231990231990232, -0.06349206349206349, 0.0, 0.03125, 0.0, 0.0
4, 0.01221001221001221, 0.007326007326007326, -0.06715506715506715, 0.0, 0.03125, 0.0, 0.0
5, -0.003663003663003663, 0.042735042735042736, -0.001221001221001221, 0.0, 0.0, -0.03125, 0.0
6, -0.03418803418803419, -0.020757020757020756, -0.17094017094017094, 0.0, 0.0, 0.0, 0.0
7, -0.042735042735042736, 0.020757020757020756, -0.13064713064713065, 0.0, 0.0, 0.0, 0.0
8, -0.013431013431013432, 0.0, -0.1807081807081807, 0.0, 0.03125, 0.0, 0.0
9, 0.057387057387057384, 0.08302808302808302, -0.03296703296703297, 0.0, 0.03125, 0.0, 0.0
10, 0.047619047619047616, 0.01098901098901099, -0.13675213675213677, 0.0, 0.0, 0.0, 0.0
11, 0.028083028083028084, -0.006105006105006105, -0.16117216117216118, 0.0, 0.03125, 0.0, 0.0
12, 0.031746031746031744, -0.07081807081807082, -0.27472527472527475, 0.0, 0.0, 0.0, 0.0
13, -0.01098901098901099, 0.06349206349206349, -0.07814407814407814, -0.03125, 0.0, 0.0, 0.0
14, -0.001221001221001221, 0.030525030525030524, -0.004884004884004884, 0.0, 0.03125, 0.0, 0.0
15, 0.07936507936507936, 0.007326007326007326, 0.018315018315018316, 0.03125, 0.03125, 0.03125, 0.0
16, 0.08913308913308914, -0.04884004884004884, -0.03540903540903541, 0.03125, 0.0, 0.0, 0.0
17, 0.052503052503052504, -0.029304029304029304, -0.1807081807081807, 0.0, -0.03125, 0.0, 0.0
18, 0.03296703296703297, -0.01221001221001221, -0.21245421245421245, 0.0, -0.03125, 0.0, 0.0
19, 0.020757020757020756, 0.006105006105006105, -0.17338217338217338, 0.0, -0.03125, 0.0, 0.0
20, 0.030525030525030524, 0.030525030525030524, -0.09768009768009768, 0.0, 0.0, 0.0, 0.0
21, -0.01221001221001221, 0.031746031746031744, -0.0695970695970696, 0.03125, 0.0, 0.0, 0.0
22, 0.03785103785103785, -0.008547008547008548, -0.14041514041514042, 0.03125, 0.0, 0.0, 0.0
23, 0.0927960927960928, -0.0463980463980464, -0.15506715506715507, 0.0, 0.0, 0.0, 0.0
24, 0.0463980463980464, -0.026862026862026864, -0.13675213675213677, -0.03125, -0.0625, 0.0, 0.0
25, -0.0757020757020757, 0.13553113553113552, -0.14896214896214896, -0.03125, -0.03125, 0.0, 0.0
26, 0.003663003663003663, 0.050061050061050064, -0.12942612942612944, 0.0, 0.0, 0.0, 0.0
27, 0.02197802197802198, 0.004884004884004884, -0.0695970695970696, 0.03125, 0.0, 0.0, 0.0
28, 0.06471306471306472, -0.03540903540903541, -0.10500610500610501, 0.0, 0.0, 0.0, 0.0
29, 0.019536019536019536, -0.07326007326007326, -0.12087912087912088, 0.0, -0.03125, 0.0, 0.0
30, -0.06715506715506715, 0.08913308913308914, -0.026862026862026864, -0.03125, 0.0, 0.0, 0.0
31, 0.015873015873015872, 0.13797313797313798, 0.115995115995116, 0.0, 0.0, 0.0, 0.0
32, 0.07936507936507936, 0.028083028083028084, -0.029304029304029304, 0.03125, -0.03125, 0.0, 0.0
33, 0.05372405372405373, -0.07448107448107448, -0.25274725274725274, 0.03125, -0.0625, 0.0, 0.0
34, 0.01221001221001221, -0.009768009768009768, -0.3199023199023199, 0.0, -0.03125, 0.0, 0.0
35, 0.028083028083028084, 0.0, -0.31135531135531136, 0.0, 0.0, 0.0, 0.0
36, -0.009768009768009768, 0.11843711843711843, -0.008547008547008548, 0.0625, 0.0, 0.0, 0.0
37, 0.004884004884004884, 0.03540903540903541, -0.009768009768009768, 0.09375, 0.0, -0.03125, 0.0
38, 0.007326007326007326, -0.001221001221001221, -0.06471306471306472, 0.09375, -0.03125, -0.03125, 0.0
39, -0.007326007326007326, 0.04395604395604396, -0.001221001221001221, 0.125, -0.03125, -0.0625, 0.0
40, 0.015873015873015872, 0.03540903540903541, 0.028083028083028084, 0.125, -0.03125, -0.03125, 0.0
41, 0.02564102564102564, -0.007326007326007326, -0.030525030525030524, 0.0625, -0.03125, 0.0, 0.0
42, -0.13186813186813187, 0.054945054945054944, -0.10744810744810745, 0.0, 0.0, 0.0625, 0.0
43, 0.0231990231990232, 0.06837606837606838, 0.017094017094017096, 0.03125, 0.09375, 0.0625, 0.0
44, 0.27106227106227104, -0.12454212454212454, 0.054945054945054944, 0.0625, 0.03125, 0.0625, 0.0
45, 0.05128205128205128, -0.02197802197802198, -0.03785103785103785, 0.0625, -0.03125, 0.0, 0.0
46, 0.02197802197802198, 0.006105006105006105, -0.018315018315018316, 0.03125, -0.03125, 0.0, 0.0
47, 0.031746031746031744, 0.045177045177045176, -0.08791208791208792, 0.0, 0.0, 0.0, 0.0
48, 0.020757020757020756, 0.050061050061050064, -0.07936507936507936, 0.0, 0.0, 0.0, 0.0
49, 0.020757020757020756, 0.015873015873015872, -0.07692307692307693, 0.03125, 0.0, 0.0, 0.0
50, -0.014652014652014652, 0.004884004884004884, -0.05372405372405373, 0.03125, 0.0, 0.0, 0.0
51, 0.10866910866910867, 0.12698412698412698, 0.11721611721611722, 0.09375, -0.03125, -0.03125, 0.0
52, 0.045177045177045176, 0.050061050061050064, -0.03540903540903541, 0.15625, -0.03125, 0.0, 0.0
53, 0.02564102564102564, -0.009768009768009768, -0.20024420024420025, 0.125, 0.0, 0.0, 0.0
54, 0.06227106227106227, -0.06837606837606838, -0.3333333333333333, 0.0625, 0.0, 0.0, 0.0
55, 0.06227106227106227, -0.03296703296703297, -0.3418803418803419, 0.03125, 0.0, 0.0, 0.0
56, 0.04884004884004884, 0.11477411477411477, -0.27472527472527475, 0.09375, 0.0, 0.0, 0.0
57, 0.014652014652014652, 0.020757020757020756, -0.20024420024420025, 0.0625, 0.0, 0.0, 0.0
58, 0.0695970695970696, -0.008547008547008548, -0.2087912087912088, 0.03125, 0.0, 0.0, 0.0
59, -0.057387057387057384, -0.001221001221001221, -0.199023199023199, 0.0, 0.0, 0.0, 0.0
60, -0.013431013431013432, 0.06471306471306472, -0.18681318681318682, 0.0, 0.0, 0.03125, 0.0
61, -0.001221001221001221, 0.013431013431013432, -0.14163614163614163, 0.0, 0.03125, 0.03125, 0.0
62, 0.06471306471306472, 0.05860805860805861, 0.07081807081807082, 0.0, 0.0, 0.0, 1.0
63, 0.015873015873015872, -0.02564102564102564, -0.12454212454212454, 0.0, 0.0, 0.0, 1.0
64, 0.04395604395604396, -0.01098901098901099, -0.15384615384615385, 0.0, 0.0, 0.0, 1.0
65, -0.003663003663003663, 0.09035409035409035, 0.013431013431013432, 0.0, 0.0, 0.0, 1.0
66, -0.03540903540903541, 0.057387057387057384, 0.08913308913308914, 0.03125, 0.0, 0.0, 1.0
67, -0.015873015873015872, 0.01098901098901099, 0.02564102564102564, 0.03125, 0.0, 0.0, 1.0
68, -0.004884004884004884, 0.05860805860805861, 0.03540903540903541, 0.0, 0.0, 0.0, 1.0
69, 0.015873015873015872, 0.02197802197802198, -0.006105006105006105, 0.0, 0.0, 0.0, 1.0
70, 0.045177045177045176, 0.0, -0.06105006105006105, 0.03125, 0.0, 0.0, 1.0
71, 0.013431013431013432, -0.026862026862026864, -0.1391941391941392, 0.0625, 0.0, 0.0, 1.0
72, 0.052503052503052504, -0.003663003663003663, -0.14163614163614163, 0.03125, 0.0, 0.0, 1.0
73, 0.03540903540903541, 0.002442002442002442, -0.13553113553113552, 0.0625, 0.0, 0.0, 1.0
74, 0.009768009768009768, -0.031746031746031744, -0.22954822954822954, 0.03125, 0.0, 0.0, 1.0
75, 0.017094017094017096, -0.008547008547008548, -0.19291819291819293, 0.0, 0.0, 0.0, 1.0
76, 0.08180708180708181, 0.026862026862026864, -0.07203907203907203, 0.0, 0.0, 0.0, 1.0
77, -0.030525030525030524, 0.13553113553113552, -0.008547008547008548, 0.03125, 0.0, 0.0, 1.0
78, -0.004884004884004884, 0.11355311355311355, 0.04151404151404151, 0.0625, -0.03125, 0.0, 1.0
79, -0.030525030525030524, 0.003663003663003663, 0.001221001221001221, 0.03125, -0.03125, 0.0, 1.0
80, -0.017094017094017096, -0.04151404151404151, -0.1282051282051282, 0.0, 0.0, 0.0, 1.0
81, 0.09401709401709402, -0.01098901098901099, -0.11843711843711843, 0.0, 0.0, 0.0, 1.0
82, 0.01221001221001221, -0.08424908424908426, -0.2979242979242979, 0.0, 0.0, 0.0, 1.0
83, 0.09035409035409035, 0.09523809523809523, -0.030525030525030524, 0.03125, 0.0, 0.0, 1.0
84, 0.030525030525030524, 0.01098901098901099, -0.047619047619047616, 0.0625, 0.0, 0.0, 1.0
85, 0.0231990231990232, 0.050061050061050064, 0.047619047619047616, 0.0625, 0.0, 0.0, 1.0
86, 0.03907203907203907, -0.018315018315018316, -0.21001221001221002, 0.0625, 0.03125, 0.0, 1.0
87, 0.12332112332112333, -0.10256410256410256, -0.33455433455433453, 0.0, 0.0, -0.03125, 1.0
88, -0.08180708180708181, 0.1514041514041514, -0.23809523809523808, 0.03125, 0.0, -0.03125, 1.0
89, -0.08791208791208792, 0.03663003663003663, -0.1562881562881563, 0.0, 0.0, -0.03125, 1.0
90, -0.013431013431013432, 0.15018315018315018, 0.06349206349206349, 0.0, 0.0, 0.0, 1.0
91, 0.028083028083028084, 0.09157509157509157, 0.09768009768009768, 0.0, -0.03125, 0.0, 1.0
92, -0.06105006105006105, 0.12576312576312576, 0.21001221001221002, 0.03125, -0.0625, 0.0, 1.0
93, 0.05372405372405373, 0.1575091575091575, 0.3492063492063492, 0.125, -0.0625, 0.0, 1.0
94, 0.8717948717948718, 0.13675213675213677, 0.5763125763125763, 0.15625, -0.03125, 0.0, 1.0
95, 1.7411477411477412, 0.3162393162393162, 0.6398046398046398, 0.21875, -0.1875, 0.0, 1.0
96, 3.21001221001221, 0.16971916971916973, 0.21978021978021978, 0.375, -0.3125, -0.0625, 1.0
97, 5.354090354090354, -0.11721611721611722, -0.5921855921855922, 0.4375, -0.4375, -0.21875, 1.0
98, 7.800976800976801, -0.8962148962148963, -2.021978021978022, 0.5, -0.59375, -0.46875, 1.0
99, 8.822954822954824, -1.684981684981685, -4.6129426129426125, 0.5625, -0.65625, -1.0, 1.0
100, 8.406593406593407, -2.3223443223443225, -8.118437118437118, 0.625, -0.34375, -1.75, 1.0
101, 7.84004884004884, -3.1074481074481075, -11.404151404151404, 0.53125, 0.15625, -2.15625, 1.0
102, 6.9352869352869355, -3.7838827838827838, -13.04029304029304, 0.34375, 1.0625, -2.71875, 1.0
103, 5.428571428571429, -4.753357753357753, -13.34920634920635, 0.0, 1.625, -3.25, 1.0
104, 3.5457875457875456, -5.700854700854701, -12.241758241758241, -0.8125, 1.46875, -3.75, 1.0
105, 0.8534798534798534, -5.736263736263736, -10.356532356532357, -1.625, 1.0, -4.09375, 1.0
106, -1.993894993894994, -6.257631257631258, -8.601953601953602, -2.40625, 0.5625, -4.25, 1.0
107, -5.147741147741148, -6.168498168498169, -6.308913308913309, -2.875, 0.625, -4.21875, 1.0
108, -7.47008547008547, -6.151404151404152, -4.061050061050061, -2.90625, 0.875, -3.90625, 1.0
109, -8.356532356532357, -6.87057387057387, -2.0952380952380953, -2.90625, 0.90625, -3.46875, 1.0
110, -8.744810744810744, -6.815628815628815, -0.12332112332112333, -2.9375, 0.75, -2.9375, 1.0
111, -8.738705738705738, -6.819291819291819, 1.3553113553113554, -2.90625, 0.53125, -2.125, 1.0
112, -8.421245421245422, -5.645909645909646, 3.1367521367521367, -2.8125, 0.3125, -1.59375, 1.0
113, -8.053724053724054, -5.377289377289378, 3.282051282051282, -2.59375, 0.0625, -1.09375, 1.0
114, -7.626373626373627, -5.174603174603175, 3.750915750915751, -2.5, -0.125, -0.5625, 1.0
115, -7.440781440781441, -4.758241758241758, 4.065934065934066, -2.40625, -0.25, -0.1875, 1.0
116, -7.312576312576312, -3.9645909645909647, 3.8693528693528694, -2.25, -0.34375, 0.15625, 1.0
117, -6.7826617826617825, -3.7032967032967035, 3.5347985347985347, -2.0625, -0.5625, 0.625, 1.0
118, -6.3638583638583635, -3.7606837606837606, 3.2527472527472527, -1.875, -0.75, 1.0625, 1.0
119, -5.61050061050061, -4.128205128205129, 2.851037851037851, -1.6875, -0.875, 1.4375, 1.0
120, -4.942612942612943, -4.609279609279609, 2.559218559218559, -1.625, -0.90625, 1.71875, 1.0
121, -4.068376068376068, -5.068376068376068, 2.713064713064713, -1.5625, -0.96875, 1.9375, 1.0
122, -3.4017094017094016, -5.041514041514041, 2.9792429792429793, -1.46875, -1.125, 2.125, 1.0
123, -2.9474969474969477, -4.752136752136752, 3.3797313797313797, -1.25, -1.4375, 2.34375, 1.0
124, -2.93040293040293, -4.52014652014652, 3.330891330891331, -1.0, -1.46875, 2.46875, 1.0
125, -2.468864468864469, -4.240537240537241, 3.242979242979243, -0.78125, -1.4375, 2.59375, 1.0
126, -1.7216117216117217, -4.643467643467644, 3.468864468864469, -0.65625, -1.53125, 2.65625, 1.0
127, -1.1660561660561661, -4.31013431013431, 3.8095238095238093, -0.5625, -1.75, 2.75, 1.0
128, -1.1355311355311355, -3.6605616605616604, 4.1001221001221, -0.25, -1.75, 2.84375, 1.0
129, -0.5873015873015873, -3.78021978021978, 4.001221001221001, 0.15625, -1.625, 2.90625, 1.0
130, 0.645909645909646, -4.1001221001221, 4.102564102564102, 0.4375, -1.5625, 2.875, 1.0
131, 1.993894993894994, -4.609279609279609, 4.0989010989010985, 0.59375, -1.71875, 2.75, 1.0
132, 2.385836385836386, -4.742368742368742, 4.051282051282051, 0.75, -1.90625, 2.59375, 1.0
133, 3.2576312576312576, -3.9694749694749696, 3.7374847374847375, 1.03125, -2.03125, 2.4375, 1.0
134, 3.092796092796093, -3.634920634920635, 2.942612942612943, 1.46875, -1.75, 2.28125, 1.0
135, 4.725274725274725, -5.6996336996337, 1.2234432234432235, 1.65625, -1.46875, 1.90625, 1.0
136, 4.738705738705739, -4.6471306471306475, 1.7252747252747254, 1.5625, -1.5, 1.59375, 1.0
137, 5.107448107448107, -3.021978021978022, 2.41025641025641, 1.8125, -1.34375, 1.25, 1.0
138, 4.846153846153846, -1.9157509157509158, 1.4835164835164836, 2.28125, -1.34375, 0.96875, 1.0
139, 4.437118437118437, -2.26007326007326, -0.6336996336996337, 2.53125, -1.28125, 0.78125, 1.0
140, 4.315018315018315, -2.923076923076923, -2.122100122100122, 2.34375, -1.21875, 0.59375, 1.0
141, 4.594627594627594, -2.4444444444444446, -2.277167277167277, 2.03125, -1.0625, 0.28125, 1.0
142, 4.7374847374847375, -0.9792429792429792, -2.266178266178266, 1.96875, -0.90625, 0.0, 1.0
143, 3.8095238095238093, -0.5018315018315018, -2.9694749694749696, 2.125, -0.78125, -0.21875, 1.0
144, 3.452991452991453, -0.6837606837606838, -3.578754578754579, 2.09375, -0.6875, -0.375, 1.0
145, 2.6935286935286937, -0.8266178266178266, -4.775335775335775, 1.875, -0.75, -0.53125, 1.0
146, 1.564102564102564, -0.5347985347985348, -5.263736263736264, 1.5, -0.375, -0.8125, 1.0
147, 1.1514041514041513, 0.14774114774114774, -4.406593406593407, 1.34375, -0.15625, -0.9375, 1.0
148, 0.8498168498168498, 0.2600732600732601, -3.4188034188034186, 1.21875, -0.125, -1.0625, 1.0
149, 0.12087912087912088, 0.4432234432234432, -3.0317460317460316, 1.15625, -0.125, -1.15625, 1.0
150, -1.1123321123321124, 0.8376068376068376, -4.305250305250305, 1.125, -0.25, -1.09375, 1.0
151, -2.0354090354090353, 0.7985347985347986, -5.454212454212454, 0.90625, -0.21875, -1.0, 1.0
152, -2.5225885225885225, 0.9023199023199023, -5.454212454212454, 0.625, 0.0, -0.9375, 1.0
153, -2.183150183150183, 0.8302808302808303, -4.603174603174603, 0.40625, 0.125, -0.8125, 1.0
154, -1.9206349206349207, 0.9743589743589743, -3.382173382173382, 0.3125, 0.0625, -0.78125, 1.0
155, -2.3382173382173383, 0.9682539682539683, -2.7484737484737485, 0.25, 0.125, -0.6875, 1.0
156, -1.9426129426129426, 0.7472527472527473, -2.0134310134310134, 0.15625, 0.125, -0.59375, 1.0
157, -1.8046398046398047, 0.5824175824175825, -1.623931623931624, 0.125, 0.0, -0.46875, 1.0
158, -1.5274725274725274, 0.4004884004884005, -1.2283272283272284, 0.0, 0.0, -0.40625, 1.0
159, -1.0341880341880343, 0.25274725274725274, -0.7130647130647131, -0.03125, -0.03125, -0.34375, 1.0
160, -0.612942612942613, 0.21733821733821734, -0.34676434676434675, -0.09375, -0.125, -0.3125, 1.0
161, -0.7362637362637363, 0.43101343101343104, -0.231990231990232, -0.09375, -0.28125, -0.28125, 1.0
162, -0.8376068376068376, 0.43345543345543347, -0.35653235653235654, -0.03125, -0.25, -0.21875, 1.0
163, -0.525030525030525, 0.18437118437118438, -0.3907203907203907, -0.03125, -0.125, -0.15625, 1.0
164, -0.08547008547008547, -0.006105006105006105, -0.2625152625152625, -0.03125, -0.09375, -0.125, 1.0
165, 0.09035409035409035, -0.09768009768009768, -0.23565323565323565, -0.0625, -0.09375, -0.09375, 1.0
166, 0.14285714285714285, -0.1452991452991453, -0.2087912087912088, -0.09375, -0.15625, -0.09375, 1.0
167, 0.06349206349206349, -0.015873015873015872, -0.09035409035409035, -0.09375, -0.15625, -0.0625, 1.0
168, -0.042735042735042736, -0.030525030525030524, -0.0695970695970696, -0.0625, -0.09375, -0.03125, 1.0
169, 0.32112332112332115, -0.12698412698412698, 0.11721611721611722, -0.03125, 0.0, 0.0, 1.0
170, 0.32722832722832723, -0.2564102564102564, 0.10012210012210013, -0.0625, 0.0, 0.03125, 1.0
171, 0.4249084249084249, -0.3614163614163614, 0.16727716727716727, -0.1875, 0.0, 0.03125, 0.0
172, 0.36874236874236876, -0.38705738705738707, 0.0463980463980464, -0.375, 0.0, 0.03125, 0.0
173, -0.32112332112332115, 0.1452991452991453, -0.03418803418803419, -0.40625, 0.03125, 0.03125, 0.0
174, 0.0, -0.06837606837606838, -0.013431013431013432, -0.46875, 0.03125, 0.0, 0.0
175, 0.41514041514041516, 0.08669108669108669, 0.3125763125763126, -0.28125, 0.0, -0.03125, 0.0
176, 0.1221001221001221, 0.32112332112332115, 0.4810744810744811, -0.09375, -0.09375, 0.0, 0.0
177, -0.19536019536019536, 0.26373626373626374, 0.23321123321123322, 0.03125, 0.0, 0.03125, 0.0
178, 0.01098901098901099, -0.08180708180708181, -0.0989010989010989, 0.03125, 0.0625, 0.0625, 0.0
179, 0.2039072039072039, -0.1916971916971917, -0.1684981684981685, -0.0625, 0.0625, 0.09375, 0.0
180, 0.15384615384615385, -0.019536019536019536, 0.001221001221001221, -0.0625, 0.0, 0.0625, 0.0
181, 0.03296703296703297, 0.03785103785103785, 0.017094017094017096, 0.0, -0.03125, 0.03125, 0.0
182, 0.002442002442002442, 0.08913308913308914, 0.007326007326007326, 0.0625, 0.0, 0.0625, 0.0
183, 0.08791208791208792, -0.07326007326007326, -0.14285714285714285, 0.03125, 0.0, 0.0625, 0.0
184, 0.10866910866910867, 0.0, -0.10012210012210013, 0.0, 0.0, 0.03125, 0.0
185, 0.002442002442002442, 0.05982905982905983, -0.02442002442002442, -0.03125, -0.03125, 0.03125, 0.0
186, 0.02442002442002442, 0.04395604395604396, -0.004884004884004884, -0.03125, -0.03125, 0.0, 0.0
187, 0.04884004884004884, 0.002442002442002442, -0.10989010989010989, 0.0, -0.03125, 0.0, 0.0
188, 0.07081807081807082, -0.01221001221001221, -0.199023199023199, -0.03125, -0.0625, 0.0, 0.0
189, 0.028083028083028084, 0.10256410256410256, -0.11965811965811966, -0.03125, -0.0625, 0.0, 0.0
190, -0.05372405372405373, 0.11477411477411477, -0.05860805860805861, 0.0, -0.09375, 0.0, 0.0
191, -0.08058608058608059, 0.09523809523809523, -0.06105006105006105, 0.0, -0.03125, 0.0, 0.0
192, 0.06105006105006105, 0.006105006105006105, -0.07814407814407814, 0.03125, 0.0, 0.0, 0.0
193, 0.17582417582417584, -0.026862026862026864, -0.04395604395604396, 0.0, -0.09375, 0.0, 0.0
194, 0.057387057387057384, 0.013431013431013432, -0.09768009768009768, 0.0, -0.125, 0.0, 0.0
195, -0.047619047619047616, 0.05616605616605617, -0.12942612942612944, 0.0, -0.0625, 0.0, 0.0
196, 0.03785103785103785, -0.007326007326007326, -0.1562881562881563, 0.0, -0.03125, 0.0, 0.0
197, 0.08058608058608059, 0.0, -0.12087912087912088, 0.0, -0.03125, 0.0, 0.0
198, 0.04151404151404151, 0.028083028083028084, -0.14041514041514042, 0.0, -0.03125, 0.0, 0.0
199, 0.047619047619047616, 0.020757020757020756, -0.07692307692307693, 0.0, -0.0625, 0.0, 0.0
200, 0.06227106227106227, -0.08180708180708181, -0.2686202686202686, 0.0, -0.09375, 0.0, 0.0
201, 0.045177045177045176, 0.05616605616605617, -0.1562881562881563, 0.0, -0.0625, 0.0, 0.0
202, 0.014652014652014652, -0.04884004884004884, -0.27106227106227104, 0.0, 0.0, 0.0, 0.0
203, 0.07692307692307693, -0.020757020757020756, -0.19658119658119658, 0.0, -0.03125, 0.0, 0.0
204, 0.017094017094017096, -0.002442002442002442, -0.19413919413919414, 0.0, -0.03125, 0.0, 0.0
205, 0.002442002442002442, 0.05616605616605617, -0.11477411477411477, -0.03125, -0.0625, 0.0, 0.0
206, -0.04884004884004884, 0.10500610500610501, -0.019536019536019536, 0.0, -0.03125, 0.0, 0.0
207, 0.050061050061050064, -0.007326007326007326, -0.020757020757020756, 0.03125, 0.0, 0.03125, 0.0
208, 0.15018315018315018, -0.08669108669108669, -0.09157509157509157, 0.0, 0.0, 0.0, 0.0
209, 0.004884004884004884, 0.0, -0.14774114774114774, 0.0, -0.03125, 0.03125, 0.0
210, 0.018315018315018316, -0.003663003663003663, -0.1684981684981685, 0.0, 0.0, 0.0, 0.0
211, 0.07203907203907203, -0.07081807081807082, -0.1807081807081807, 0.0, 0.0, 0.0, 0.0
212, 0.07448107448107448, 0.01221001221001221, -0.0927960927960928, 0.0, 0.0, 0.0, 0.0
213, -0.015873015873015872, 0.05982905982905983, -0.06349206349206349, -0.03125, -0.03125, 0.0, 0.0
214, -0.02564102564102564, 0.14407814407814407, 0.013431013431013432, 0.0, -0.0625, 0.0, 0.0
215, -0.10866910866910867, 0.10378510378510379, 0.001221001221001221, 0.0, -0.03125, 0.0, 0.0
216, 0.0231990231990232, -0.001221001221001221, -0.08791208791208792, 0.0, 0.0, 0.0, 0.0
217, 0.03785103785103785, -0.017094017094017096, -0.11721611721611722, 0.0, 0.0, 0.0, 0.0
218, 0.04395604395604396, -0.002442002442002442, -0.10134310134310134, -0.03125, -0.0625, 0.0, 0.0
219, -0.007326007326007326, 0.06227106227106227, -0.04395604395604396, -0.03125, -0.0625, 0.0, 0.0
220, 0.001221001221001221, 0.06227106227106227, -0.040293040293040296, 0.0, -0.03125, 0.0, 0.0
221, 0.05372405372405373, -0.02564102564102564, -0.08913308913308914, 0.03125, 0.0, 0.0, 0.0
222, 0.040293040293040296, -0.015873015873015872, -0.10500610500610501, 0.0, 0.0, 0.0, 0.0
223, 0.08180708180708181, -0.009768009768009768, -0.10622710622710622, 0.0, -0.03125, 0.0, 0.0
224, -0.002442002442002442, 0.12576312576312576, 0.0463980463980464, 0.0, -0.0625, 0.0, 0.0
225, 0.02442002442002442, 0.03296703296703297, -0.01098901098901099, 0.0, -0.0625, 0.0, 0.0
226, -0.017094017094017096, 0.026862026862026864, -0.029304029304029304, 0.0, -0.0625, 0.0, 0.0
227, 0.01098901098901099, 0.006105006105006105, -0.0927960927960928, 0.03125, -0.03125, 0.0, 0.0
228, 0.03540903540903541, 0.0, -0.0463980463980464, 0.0, 0.0, 0.0, 0.0
229, 0.018315018315018316, 0.030525030525030524, 0.0463980463980464, 0.0, -0.03125, 0.0, 0.0
230, 0.008547008547008548, 0.057387057387057384, 0.1575091575091575, 0.0, -0.0625, 0.0, 0.0
231, -0.13186813186813187, 0.09401709401709402, 0.10378510378510379, 0.03125, -0.09375, 0.0, 0.0
232, 0.013431013431013432, 0.05372405372405373, 0.10866910866910867, 0.0625, -0.0625, 0.03125, 0.0
233, -0.03785103785103785, 0.13553113553113552, 0.21001221001221002, 0.0625, -0.09375, 0.03125, 0.0
234, 0.02442002442002442, 0.14896214896214896, 0.36385836385836384, 0.125, -0.15625, 0.03125, 0.0
235, 0.057387057387057384, 0.19291819291819293, 0.575091575091575, 0.25, -0.25, 0.03125, 0.0
236, -0.17094017094017094, 0.1623931623931624, 0.5555555555555556, 0.28125, -0.3125, 0.0625, 1.0
237, 0.05982905982905983, -0.2967032967032967, 0.41514041514041516, 0.1875, -0.21875, 0.15625, 1.0
238, 0.3199023199023199, 0.47741147741147744, 1.26007326007326, 0.125, -0.0625, 0.125, 1.0
239, 1.1562881562881564, 1.1245421245421245, 2.352869352869353, 0.28125, -0.09375, 0.09375, 1.0
240, 2.318681318681319, 0.45665445665445664, 2.092796092796093, 0.59375, -0.59375, 0.0, 1.0
241, 2.8742368742368742, -0.6190476190476191, 0.358974358974359, 0.65625, -0.875, -0.125, 1.0
242, 3.844932844932845, -1.0341880341880343, -0.9572649572649573, 0.53125, -0.84375, -0.40625, 1.0
243, 4.73992673992674, -1.1660561660561661, -1.7557997557997558, 0.53125, -0.75, -0.75, 1.0
244, 4.625152625152626, -1.2905982905982907, -2.4652014652014653, 0.59375, -0.6875, -1.125, 1.0
245, 3.9267399267399266, -1.4114774114774116, -3.6605616605616604, 0.65625, -0.625, -1.40625, 1.0
246, 3.601953601953602, -1.0122100122100122, -5.167277167277168, 0.65625, -0.4375, -1.59375, 1.0
247, 3.4078144078144077, -1.3736263736263736, -7.042735042735043, 0.5625, -0.1875, -1.78125, 1.0
248, 3.547008547008547, -2.9645909645909647, -8.092796092796092, 0.125, -0.0625, -2.0625, 1.0
249, 2.4835164835164836, -3.47985347985348, -7.921855921855922, -0.4375, 0.03125, -2.375, 1.0
250, 0.42124542124542125, -1.9633699633699633, -7.1953601953601956, -0.65625, 0.3125, -2.53125, 1.0
251, -0.326007326007326, -1.0866910866910866, -7.085470085470085, -0.65625, 0.6875, -2.46875, 1.0
252, -0.9597069597069597, -2.7753357753357752, -7.6300366300366305, -1.03125, 0.625, -2.5, 1.0
253, -2.7216117216117217, -3.7142857142857144, -7.4945054945054945, -1.6875, 0.5, -2.5625, 1.0
254, -4.516483516483516, -3.700854700854701, -6.339438339438339, -2.21875, 0.53125, -2.5, 1.0
255, -5.614163614163614, -3.57997557997558, -5.001221001221001, -2.4375, 0.78125, -2.34375, 1.0
256, -6.650793650793651, -3.7252747252747254, -3.960927960927961, -2.5625, 1.0625, -2.09375, 1.0
257, -6.763125763125763, -4.383394383394384, -2.722832722832723, -2.78125, 1.15625, -1.78125, 1.0
258, -7.667887667887668, -4.653235653235654, -1.435897435897436, -3.0625, 1.125, -1.46875, 1.0
259, -8.139194139194139, -4.7655677655677655, 0.115995115995116, -3.15625, 1.21875, -1.0625, 1.0
260, -8.035409035409035, -4.714285714285714, 1.4981684981684982, -3.1875, 1.21875, -0.75, 1.0
261, -7.903540903540904, -4.802197802197802, 2.7020757020757022, -3.1875, 1.09375, -0.40625, 1.0
262, -7.760683760683761, -4.877899877899878, 3.5555555555555554, -3.125, 0.84375, -0.0625, 1.0
263, -7.450549450549451, -4.476190476190476, 4.212454212454213, -3.0, 0.40625, 0.4375, 1.0
264, -6.774114774114774, -4.141636141636142, 4.9462759462759465, -2.8125, 0.09375, 0.78125, 1.0
265, -6.564102564102564, -3.9963369963369964, 4.984126984126984, -2.5, -0.0625, 1.15625, 1.0
266, -5.833943833943834, -4.034188034188034, 5.266178266178266, -2.1875, -0.21875, 1.46875, 1.0
267, -4.815628815628815, -4.347985347985348, 5.77045177045177, -1.8125, -0.46875, 1.71875, 1.0
268, -3.6324786324786325, -4.540903540903541, 6.0537240537240535, -1.53125, -0.75, 1.90625, 1.0
269, -2.462759462759463, -4.814407814407814, 6.042735042735043, -1.3125, -1.0625, 2.03125, 1.0
270, -1.5714285714285714, -4.777777777777778, 6.255189255189255, -1.09375, -1.40625, 2.09375, 1.0
271, -1.1758241758241759, -4.42002442002442, 6.148962148962149, -0.71875, -1.625, 2.09375, 1.0
272, -0.9682539682539683, -3.9450549450549453, 6.164835164835165, -0.25, -1.65625, 2.0625, 1.0
273, -0.6898656898656899, -3.2844932844932844, 6.074481074481074, 0.28125, -1.65625, 2.0625, 1.0
274, 0.06227106227106227, -2.7472527472527473, 5.506715506715507, 0.8125, -1.9375, 2.09375, 1.0
275, -0.14652014652014653, -4.7936507936507935, 2.916971916971917, 0.75, -2.15625, 2.125, 1.0
276, 0.21367521367521367, -3.673992673992674, 2.938949938949939, 0.65625, -2.3125, 2.125, 1.0
277, 0.9645909645909646, -2.89010989010989, 2.686202686202686, 1.09375, -2.0625, 2.03125, 1.0
278, 2.3076923076923075, -3.862026862026862, 1.5433455433455434, 1.625, -1.78125, 1.90625, 1.0
279, 2.614163614163614, -4.814407814407814, 0.2857142857142857, 1.71875, -1.75, 1.71875, 1.0
280, 2.9474969474969477, -3.815628815628816, 0.1330891330891331, 1.53125, -1.65625, 1.53125, 1.0
281, 4.221001221001221, -2.716727716727717, 0.4175824175824176, 1.59375, -1.53125, 1.375, 1.0
282, 4.665445665445666, -2.131868131868132, -0.3125763125763126, 1.8125, -1.5625, 1.21875, 1.0
283, 5.431013431013431, -2.8913308913308913, -1.5543345543345544, 2.09375, -1.34375, 1.03125, 1.0
284, 5.698412698412699, -2.9963369963369964, -2.52991452991453, 2.03125, -1.0625, 0.625, 1.0
285, 5.6642246642246645, -1.9267399267399268, -2.5763125763125765, 1.84375, -0.875, 0.28125, 1.0
286, 5.244200244200244, -1.072039072039072, -2.3882783882783882, 1.6875, -0.75, -0.09375, 1.0
287, 3.948717948717949, -0.3052503052503053, -2.619047619047619, 1.65625, -0.625, -0.34375, 1.0
288, 2.9096459096459095, 0.11843711843711843, -3.2295482295482296, 1.65625, -0.5, -0.5, 1.0
289, 1.9951159951159951, 0.2625152625152625, -3.7765567765567765, 1.625, -0.21875, -0.59375, 1.0
290, 2.1477411477411477, -0.06593406593406594, -3.95970695970696, 1.4375, -0.0625, -0.78125, 1.0
291, 1.376068376068376, 0.31746031746031744, -4.242979242979243, 1.21875, -0.03125, -0.90625, 1.0
292, 0.3247863247863248, 0.757020757020757, -4.295482295482295, 1.0625, 0.03125, -1.0, 1.0
293, -0.8070818070818071, 1.221001221001221, -3.8998778998779, 0.96875, 0.21875, -1.0, 1.0
294, -1.413919413919414, 1.2136752136752136, -3.8522588522588523, 0.875, 0.1875, -0.9375, 1.0
295, -2.120879120879121, 0.8754578754578755, -4.170940170940171, 0.6875, 0.15625, -0.84375, 1.0
296, -2.4334554334554332, 0.304029304029304, -4.039072039072039, 0.375, 0.21875, -0.8125, 1.0
297, -2.2393162393162394, 0.28327228327228327, -2.956043956043956, 0.15625, 0.21875, -0.75, 1.0
298, -3.056166056166056, 1.0586080586080586, -1.6312576312576312, 0.1875, 0.0625, -0.625, 1.0
299, -3.0732600732600734, 0.7924297924297924, -1.6422466422466422, 0.1875, 0.03125, -0.46875, 1.0
300, -2.3724053724053724, 0.4810744810744811, -1.4151404151404152, 0.09375, 0.125, -0.34375, 1.0
301, -1.713064713064713, 0.4126984126984127, -1.0915750915750915, 0.0, 0.03125, -0.25, 1.0
302, -1.144078144078144, 0.15506715506715507, -0.9462759462759462, -0.0625, -0.125, -0.1875, 1.0
303, -1.065934065934066, 0.14407814407814407, -0.6568986568986569, -0.15625, -0.25, -0.15625, 1.0
304, -0.9035409035409036, 0.21611721611721613, -0.20146520146520147, -0.15625, -0.21875, -0.15625, 1.0
305, -0.6910866910866911, 0.09401709401709402, -0.001221001221001221, -0.0625, -0.125, -0.125, 1.0
306, -0.36507936507936506, -0.029304029304029304, 0.0989010989010989, 0.0, -0.0625, -0.125, 1.0
307, -0.11233211233211234, -0.11721611721611722, -0.009768009768009768, 0.0, -0.03125, -0.125, 1.0
308, 0.1343101343101343, -0.19047619047619047, -0.16727716727716727, -0.09375, -0.125, -0.09375, 1.0
309, 0.03540903540903541, -0.007326007326007326, -0.1343101343101343, -0.21875, -0.3125, -0.09375, 1.0
310, -0.15873015873015872, 0.3235653235653236, 0.03785103785103785, -0.0625, -0.21875, -0.0625, 1.0
311, -0.20634920634920634, 0.1746031746031746, -0.14407814407814407, 0.0625, 0.0, -0.0625, 1.0
312, 0.27472527472527475, -0.16971916971916973, -0.3137973137973138, 0.0625, 0.0625, -0.03125, 1.0
313, 0.3907203907203907, -0.304029304029304, -0.3614163614163614, 0.0, 0.03125, -0.03125, 1.0
314, 0.16483516483516483, -0.03418803418803419, -0.25396825396825395, 0.0, 0.0, -0.03125, 1.0
315, 0.11355311355311355, -0.07692307692307693, -0.16483516483516483, -0.03125, 0.03125, -0.03125, 1.0
316, 0.09523809523809523, 0.006105006105006105, -0.06837606837606838, 0.0, 0.0, -0.03125, 1.0
317, 0.07081807081807082, -0.06105006105006105, -0.05860805860805861, -0.03125, 0.03125, -0.03125, 1.0
318, 0.001221001221001221, 0.01221001221001221, -0.020757020757020756, -0.03125, 0.03125, -0.03125, 1.0
319, 0.18803418803418803, -0.16971916971916973, -0.047619047619047616, -0.0625, 0.0, -0.0625, 1.0
320, -0.05372405372405373, 0.03785103785103785, 0.04395604395604396, -0.0625, 0.0, -0.0625, 1.0
321, -0.13553113553113552, 0.11355311355311355, 0.054945054945054944, 0.0, 0.125, -0.03125, 1.0
322, 0.11965811965811966, -0.030525030525030524, 0.04884004884004884, 0.03125, 0.09375, -0.03125, 1.0
323, 0.006105006105006105, 0.0, -0.047619047619047616, 0.0, 0.03125, -0.03125, 1.0
324, -0.06227106227106227, 0.06105006105006105, -0.031746031746031744, 0.0, 0.0, -0.03125, 1.0
325, -0.05616605616605617, 0.015873015873015872, -0.15873015873015872, 0.0, 0.0, -0.03125, 1.0
326, -0.1282051282051282, -0.004884004884004884, -0.22832722832722832, 0.0, 0.03125, -0.03125, 1.0
327, 0.006105006105006105, 0.06349206349206349, 0.006105006105006105, 0.0, 0.09375, -0.03125, 1.0
328, 0.019536019536019536, 0.0927960927960928, 0.15384615384615385, 0.03125, 0.0625, -0.03125, 1.0
329, 0.03907203907203907, -0.02442002442002442, 0.08424908424908426, 0.03125, 0.0, -0.03125, 1.0
330, -0.05616605616605617, 0.04151404151404151, -0.03907203907203907, 0.0, -0.03125, -0.0625, 1.0
331, -0.08302808302808302, 0.05982905982905983, -0.08058608058608059, 0.0, -0.03125, -0.0625, 1.0
332, -0.05128205128205128, 0.03907203907203907, -0.09401709401709402, -0.03125, 0.0, -0.03125, 0.0
333, 0.003663003663003663, -0.08180708180708181, -0.20512820512820512, -0.15625, 0.0, 0.0, 0.0
334, 0.23443223443223443, 0.02564102564102564, -0.047619047619047616, -0.15625, -0.09375, 0.0, 0.0
335, 0.12576312576312576, 0.09157509157509157, -0.12576312576312576, -0.1875, -0.125, 0.0, 0.0
336, -0.003663003663003663, -0.015873015873015872, -0.1978021978021978, -0.09375, -0.03125, 0.0, 0.0
337, 0.020757020757020756, -0.03907203907203907, -0.3663003663003663, -0.03125, 0.0625, 0.03125, 0.0
338, 0.36752136752136755, -0.15018315018315018, -0.27594627594627597, 0.0, 0.03125, 0.0, 0.0
339, 0.1916971916971917, -0.03296703296703297, -0.19291819291819293, 0.0, 0.0, 0.0, 0.0
340, 0.06105006105006105, -0.03785103785103785, -0.22466422466422467, -0.03125, 0.0, 0.0, 0.0
341, 0.10866910866910867, -0.03663003663003663, -0.2454212454212454, -0.03125, 0.0, 0.0, 0.0
342, 0.0231990231990232, 0.03418803418803419, -0.12087912087912088, -0.03125, -0.03125, 0.0, 0.0
343, -0.09157509157509157, 0.040293040293040296, -0.16361416361416362, -0.03125, 0.0, 0.0, 0.0
344, -0.019536019536019536, 0.0, -0.10500610500610501, -0.03125, 0.03125, 0.0, 0.0
345, 0.0989010989010989, -0.08180708180708181, -0.08180708180708181, -0.0625, 0.0, 0.03125, 0.0
346, 0.12332112332112333, -0.0463980463980464, -0.03785103785103785, -0.09375, 0.0, 0.03125, 0.0
347, 0.018315018315018316, -0.003663003663003663, 0.0, -0.0625, -0.03125, 0.0, 0.0
348, 0.02442002442002442, 0.026862026862026864, 0.040293040293040296, -0.0625, -0.03125, 0.0, 0.0
349, -0.14407814407814407, 0.10622710622710622, 0.05860805860805861, -0.03125, -0.03125, 0.0, 0.0
350, 0.001221001221001221, -0.01098901098901099, -0.026862026862026864, 0.0, 0.03125, 0.0, 0.0
351, 0.10012210012210013, -0.018315018315018316, -0.006105006105006105, 0.0, 0.0, 0.0, 0.0
352, -0.050061050061050064, 0.0695970695970696, -0.028083028083028084, 0.0, -0.03125, 0.0, 0.0
353, 0.026862026862026864, 0.01221001221001221, -0.08547008547008547, 0.0, 0.0, 0.0, 0.0
354, 0.03540903540903541, 0.0, -0.12698412698412698, 0.0, 0.0, 0.0, 0.0
355, -0.02197802197802198, 0.07326007326007326, -0.06227106227106227, 0.0, 0.0, 0.0, 0.0
356, 0.06593406593406594, 0.07936507936507936, 0.004884004884004884, 0.0, 0.0, 0.0, 0.0
357, 0.06593406593406594, 0.0695970695970696, 0.05982905982905983, 0.03125, -0.03125, 0.0, 0.0
358, 0.028083028083028084, 0.050061050061050064, -0.01221001221001221, 0.03125, -0.0625, 0.0, 0.0
359, -0.001221001221001221, -0.06349206349206349, -0.18803418803418803, 0.0, -0.03125, 0.0, 0.0
360, 0.003663003663003663, 0.009768009768009768, -0.2258852258852259, 0.0, 0.0, 0.0, 0.0
361, 0.047619047619047616, -0.015873015873015872, -0.2271062271062271, 0.0, 0.0, 0.0, 0.0
362, 0.08302808302808302, 0.002442002442002442, -0.13064713064713065, 0.0, 0.0, 0.0, 0.0
363, 0.007326007326007326, 0.008547008547008548, -0.14163614163614163, 0.0, -0.03125, 0.0, 0.0
364, 0.047619047619047616, 0.03296703296703297, -0.05372405372405373, 0.0, -0.03125, 0.0, 0.0
365, 0.0, 0.002442002442002442, -0.09645909645909646, 0.0, 0.0, 0.0, 0.0
366, 0.015873015873015872, 0.015873015873015872, -0.018315018315018316, 0.0, 0.0, 0.0, 0.0
367, 0.01221001221001221, 0.05982905982905983, 0.1282051282051282, 0.03125, -0.0625, 0.0, 0.0
368, -0.017094017094017096, -0.045177045177045176, -0.14407814407814407, 0.03125, -0.0625, 0.0, 0.0
369, 0.028083028083028084, -0.029304029304029304, -0.22832722832722832, 0.0, 0.0, 0.0, 0.0
370, 0.1562881562881563, 0.05128205128205128, -0.047619047619047616, 0.0, 0.0, 0.0, 0.0
371, 0.09157509157509157, 0.030525030525030524, -0.014652014652014652, 0.0, -0.03125, 0.0, 0.0
372, 0.028083028083028084, 0.029304029304029304, 0.01098901098901099, 0.0, -0.0625, 0.0, 0.0
373, 0.054945054945054944, -0.01098901098901099, -0.15262515262515264, 0.03125, -0.09375, 0.0, 0.0
374, 0.042735042735042736, -0.08913308913308914, -0.3772893772893773, 0.03125, -0.09375, 0.0, 0.0
375, 0.042735042735042736, -0.06593406593406594, -0.3785103785103785, 0.0, -0.03125, 0.0, 0.0
376, 0.0989010989010989, 0.06105006105006105, -0.07936507936507936, -0.03125, -0.03125, 0.0, 0.0
377, 0.03663003663003663, 0.18315018315018314, 0.21367521367521367, 0.0, -0.0625, 0.0, 0.0
378, -0.01098901098901099, 0.0757020757020757, 0.15384615384615385, 0.0625, -0.09375, 0.0, 0.0
379, 0.0, -0.07326007326007326, -0.07326007326007326, 0.0, -0.125, 0.0, 0.0
380, -0.047619047619047616, -0.040293040293040296, -0.21001221001221002, 0.0, -0.0625, 0.0, 0.0
381, 0.017094017094017096, -0.004884004884004884, -0.12454212454212454, 0.0, 0.0, 0.03125, 0.0
382, 0.10622710622710622, 0.06227106227106227, 0.08424908424908426, 0.0, -0.03125, 0.03125, 0.0
383, 0.031746031746031744, 0.020757020757020756, 0.01098901098901099, 0.03125, -0.09375, 0.03125, 0.0
384, 0.031746031746031744, -0.008547008547008548, -0.05982905982905983, 0.0, -0.09375, 0.0625, 0.0
385, -0.07448107448107448, 0.06349206349206349, -0.08424908424908426, 0.0, -0.03125, 0.0625, 0.0
386, 0.09401709401709402, -0.002442002442002442, -0.06593406593406594, 0.0, -0.03125, 0.0625, 0.0
387, 0.07081807081807082, -0.02564102564102564, -0.1562881562881563, 0.0, -0.0625, 0.03125, 0.0
388, 0.045177045177045176, -0.026862026862026864, -0.17704517704517705, 0.0, -0.0625, 0.03125, 0.0
389, 0.06105006105006105, 0.029304029304029304, 0.0, -0.03125, -0.0625, 0.03125, 0.0
390, -0.04395604395604396, 0.12454212454212454, 0.19291819291819293, 0.0, -0.0625, 0.03125, 0.0
391, -0.050061050061050064, 0.1916971916971917, 0.3235653235653236, 0.0625, -0.09375, 0.09375, 0.0
392, 0.25396825396825395, -0.0695970695970696, 0.15873015873015872, 0.09375, -0.0625, 0.09375, 0.0
393, 0.18437118437118438, 0.0989010989010989, 0.3443223443223443, 0.125, -0.21875, 0.03125, 0.0
394, -0.03785103785103785, 0.30036630036630035, 0.5604395604395604, 0.28125, -0.28125, 0.03125, 1.0
395, 0.19413919413919414, -0.14407814407814407, 0.1807081807081807, 0.34375, -0.25, 0.09375, 1.0
396, 0.9255189255189256, -0.3711843711843712, -0.1452991452991453, 0.3125, -0.25, 0.125, 1.0
397, 1.1294261294261294, -0.06471306471306472, -0.3089133089133089, 0.375, -0.40625, 0.0625, 1.0
398, 1.221001221001221, -0.33455433455433453, -0.9633699633699634, 0.53125, -0.5, 0.0, 1.0
399, 1.6971916971916972, -1.0463980463980465, -1.8876678876678876, 0.5625, -0.46875, 0.0, 1.0
400, 2.6935286935286937, -0.9645909645909646, -2.2454212454212454, 0.34375, -0.3125, -0.0625, 1.0
401, 4.095238095238095, -1.4554334554334554, -2.9108669108669107, 0.28125, -0.34375, -0.3125, 1.0
402, 3.4603174603174605, -1.05006105006105, -3.6398046398046398, 0.21875, -0.3125, -0.8125, 1.0
403, 3.061050061050061, -0.7606837606837606, -3.885225885225885, 0.25, -0.09375, -1.15625, 1.0
404, 3.1477411477411477, -0.7472527472527473, -3.923076923076923, 0.15625, 0.0, -1.53125, 1.0
405, 2.7142857142857144, -0.3626373626373626, -3.8766788766788767, 0.0, 0.15625, -1.78125, 1.0
406, 2.2063492063492065, -0.020757020757020756, -3.9194139194139193, 0.125, 0.34375, -2.0, 1.0
407, 1.4175824175824177, -1.1416361416361416, -4.774114774114774, 0.0625, 0.34375, -2.25, 1.0
408, 1.0463980463980465, -1.8217338217338217, -5.553113553113553, -0.53125, 0.09375, -2.40625, 1.0
409, 0.0927960927960928, -0.6105006105006106, -5.95970695970696, -1.0, 0.0, -2.5, 1.0
410, -1.1111111111111112, -0.40293040293040294, -6.554334554334554, -1.1875, 0.1875, -2.40625, 1.0
411, -2.4871794871794872, -1.0634920634920635, -7.1953601953601956, -1.28125, 0.5625, -2.34375, 1.0
412, -2.7875457875457874, -2.0256410256410255, -7.1892551892551895, -1.53125, 0.78125, -2.21875, 1.0
413, -3.0134310134310134, -3.092796092796093, -6.869352869352869, -2.03125, 0.75, -2.09375, 1.0
414, -5.174603174603175, -3.496947496947497, -5.123321123321123, -2.9375, 0.78125, -1.78125, 1.0
415, -6.368742368742368, -3.913308913308913, -3.6678876678876677, -3.0625, 1.0625, -1.5625, 1.0
416, -7.239316239316239, -4.691086691086691, -2.6605616605616604, -3.0, 1.375, -1.3125, 1.0
417, -7.655677655677656, -5.018315018315018, -1.2673992673992673, -3.0625, 1.5625, -1.03125, 1.0
418, -8.347985347985349, -5.142857142857143, 0.08791208791208792, -3.25, 1.53125, -0.71875, 1.0
419, -8.656898656898656, -5.26007326007326, 1.2442002442002442, -3.40625, 1.34375, -0.34375, 1.0
420, -8.427350427350428, -5.125763125763126, 2.888888888888889, -3.625, 0.96875, 0.03125, 1.0
421, -8.097680097680097, -5.097680097680097, 4.457875457875458, -3.5625, 0.5, 0.4375, 1.0
422, -7.575091575091575, -5.034188034188034, 5.196581196581197, -3.3125, 0.125, 0.84375, 1.0
423, -6.733821733821734, -5.115995115995116, 5.5335775335775335, -2.96875, -0.15625, 1.1875, 1.0
424, -5.650793650793651, -5.239316239316239, 5.670329670329671, -2.59375, -0.4375, 1.46875, 1.0
425, -4.156288156288157, -5.443223443223443, 5.948717948717949, -2.25, -0.71875, 1.84375, 1.0
426, -3.236874236874237, -5.7032967032967035, 5.688644688644689, -1.65625, -1.25, 2.0, 1.0
427, -1.4346764346764347, -6.435897435897436, 5.416361416361417, -1.625, -1.78125, 2.03125, 1.0
428, -0.9841269841269841, -5.417582417582418, 5.448107448107448, -1.46875, -2.125, 1.9375, 1.0
429, -1.6422466422466422, -3.6166056166056166, 5.357753357753357, -0.625, -1.78125, 1.9375, 1.0
430, -0.8046398046398047, -3.553113553113553, 4.660561660561661, 0.25, -1.46875, 1.9375, 1.0
431, 0.5811965811965812, -4.6007326007326, 3.8693528693528694, 0.40625, -1.71875, 1.875, 1.0
432, 0.9462759462759462, -3.9316239316239314, 3.3663003663003663, 0.375, -1.96875, 1.78125, 1.0
433, 0.8058608058608059, -2.9865689865689866, 2.9816849816849818, 0.53125, -1.96875, 1.71875, 1.0
434, 1.0293040293040292, -2.755799755799756, 2.5396825396825395, 0.75, -1.90625, 1.65625, 1.0
435, 1.2612942612942613, -2.7313797313797314, 2.5286935286935286, 1.0, -1.84375, 1.59375, 1.0
436, 1.5677655677655677, -2.746031746031746, 2.437118437118437, 1.1875, -1.875, 1.5, 1.0
437, 1.0525030525030525, -2.796092796092796, 1.6654456654456655, 1.40625, -1.625, 1.3125, 1.0
438, 1.5225885225885225, -1.9316239316239316, 1.3601953601953602, 1.5625, -1.46875, 1.21875, 1.0
439, 1.7728937728937728, -1.8717948717948718, 0.557997557997558, 1.78125, -1.40625, 1.125, 1.0
440, 2.2747252747252746, -2.282051282051282, -0.6788766788766789, 1.90625, -1.28125, 1.03125, 1.0
441, 2.8058608058608057, -2.363858363858364, -1.36996336996337, 1.8125, -1.0625, 0.84375, 1.0
442, 3.3846153846153846, -1.8510378510378511, -1.4639804639804639, 1.71875, -0.90625, 0.625, 1.0
443, 3.4053724053724053, -1.1575091575091576, -1.3687423687423688, 1.625, -0.84375, 0.375, 1.0
444, 2.391941391941392, -0.3772893772893773, -1.916971916971917, 1.71875, -0.84375, 0.15625, 1.0
445, 1.6385836385836385, -0.17582417582417584, -2.9621489621489623, 1.75, -0.6875, 0.0625, 1.0
446, 1.8205128205128205, -0.28815628815628813, -3.341880341880342, 1.59375, -0.5, 0.0, 1.0
447, 2.2075702075702077, -0.18681318681318682, -2.8241758241758244, 1.40625, -0.3125, -0.125, 1.0
448, 1.9096459096459097, 0.4896214896214896, -2.6788766788766787, 1.3125, -0.25, -0.3125, 1.0
449, 1.054945054945055, 0.7350427350427351, -2.937728937728938, 1.40625, -0.09375, -0.46875, 1.0
450, 0.6825396825396826, 0.5286935286935287, -2.9694749694749696, 1.3125, 0.0, -0.59375, 1.0
451, 0.4542124542124542, 0.11843711843711843, -2.7948717948717947, 1.15625, 0.125, -0.6875, 1.0
452, 0.12698412698412698, 0.2454212454212454, -2.705738705738706, 1.0625, 0.0625, -0.78125, 1.0
453, -0.8412698412698413, 0.663003663003663, -2.5934065934065935, 1.0, 0.03125, -0.78125, 1.0
454, -0.8644688644688645, 0.536019536019536, -2.266178266178266, 0.9375, 0.03125, -0.78125, 1.0
455, -0.905982905982906, 0.25518925518925517, -1.7643467643467643, 0.875, 0.0625, -0.875, 1.0
456, -1.0402930402930404, 0.36507936507936506, -1.84981684981685, 0.78125, 0.0625, -0.90625, 1.0
457, -1.507936507936508, 0.5457875457875457, -2.191697191697192, 0.71875, 0.0, -0.875, 1.0
458, -2.017094017094017, 0.8070818070818071, -2.6373626373626373, 0.625, -0.03125, -0.8125, 1.0
459, -2.2637362637362637, 0.9340659340659341, -2.4664224664224665, 0.53125, 0.0, -0.78125, 1.0
460, -2.2173382173382175, 1.0598290598290598, -2.242979242979243, 0.34375, 0.0625, -0.65625, 1.0
461, -2.0549450549450547, 1.1452991452991452, -2.0634920634920637, 0.28125, -0.15625, -0.59375, 1.0
462, -2.2698412698412698, 1.0085470085470085, -2.1868131868131866, 0.21875, -0.15625, -0.5, 1.0
463, -2.0463980463980462, 0.9951159951159951, -1.9120879120879122, 0.09375, 0.0, -0.40625, 1.0
464, -1.8144078144078144, 0.8815628815628815, -1.5897435897435896, 0.0625, 0.03125, -0.28125, 1.0
465, -1.2857142857142858, 0.673992673992674, -1.120879120879121, 0.03125, 0.03125, -0.1875, 1.0
466, -0.9401709401709402, 0.42002442002442003, -0.7924297924297924, 0.0, -0.03125, -0.15625, 1.0
467, -0.7326007326007326, 0.23443223443223443, -0.5238095238095238, 0.0, -0.0625, -0.125, 1.0
468, -0.684981684981685, 0.21245421245421245, -0.37362637362637363, 0.0, -0.03125, -0.125, 1.0
469, -0.4139194139194139, -0.01098901098901099, -0.4053724053724054, 0.0, 0.0, -0.09375, 1.0
470, -0.3064713064713065, 0.004884004884004884, -0.32722832722832723, -0.03125, -0.03125, -0.0625, 1.0
471, -0.008547008547008548, 0.007326007326007326, -0.14407814407814407, -0.03125, -0.0625, -0.03125, 1.0
472, 0.04884004884004884, -0.031746031746031744, -0.1330891330891331, -0.03125, -0.09375, -0.03125, 1.0
473, 0.019536019536019536, 0.004884004884004884, -0.03907203907203907, 0.0, -0.0625, -0.03125, 1.0
474, 0.16483516483516483, -0.15262515262515264, -0.10500610500610501, 0.0, -0.03125, -0.03125, 1.0
475, 0.3492063492063492, -0.18681318681318682, 0.003663003663003663, 0.0, -0.03125, -0.0625, 1.0
476, 0.39316239316239315, -0.05616605616605617, 0.21245421245421245, 0.0, -0.0625, -0.0625, 1.0
477, 0.16483516483516483, 0.0, 0.1623931623931624, 0.03125, 0.0, -0.09375, 1.0
478, 0.22466422466422467, -0.08058608058608059, 0.13186813186813187, 0.03125, -0.03125, -0.09375, 0.0
479, 0.1343101343101343, -0.07692307692307693, -0.07936507936507936, -0.03125, -0.0625, -0.125, 0.0
480, 0.018315018315018316, -0.0463980463980464, -0.13186813186813187, -0.09375, -0.03125, -0.15625, 0.0
481, -0.09157509157509157, 0.10989010989010989, 0.09645909645909646, -0.15625, 0.0, -0.125, 0.0
482, -0.44078144078144077, 0.34798534798534797, -0.14896214896214896, -0.25, 0.03125, -0.0625, 0.0
483, -0.25274725274725274, 0.557997557997558, 0.02442002442002442, -0.09375, 0.0625, 0.0, 0.0
484, -0.05616605616605617, 0.09768009768009768, -0.08913308913308914, 0.0625, 0.0, 0.0, 0.0
485, 0.009768009768009768, -0.020757020757020756, -0.2686202686202686, 0.0, 0.0, 0.03125, 0.0
486, 0.03907203907203907, 0.06105006105006105, -0.20146520146520147, -0.03125, 0.0625, 0.03125, 0.0
487, 0.07326007326007326, 0.0, -0.2039072039072039, 0.0, 0.03125, 0.03125, 0.0
488, 0.02442002442002442, 0.004884004884004884, -0.15384615384615385, 0.0, 0.0625, 0.0, 0.0
489, 0.2503052503052503, -0.15018315018315018, -0.17826617826617827, 0.0, 0.0625, 0.0, 0.0
490, 0.047619047619047616, 0.001221001221001221, -0.12087912087912088, -0.03125, 0.03125, 0.0, 0.0
491, 0.1575091575091575, -0.02197802197802198, -0.15018315018315018, 0.0, 0.0, 0.0, 0.0
492, -0.08424908424908426, 0.05860805860805861, -0.17094017094017094, -0.03125, 0.0, 0.0, 0.0
493, 0.09523809523809523, -0.007326007326007326, -0.1330891330891331, -0.0625, -0.03125, -0.03125, 0.0
494, -0.1330891330891331, 0.1330891330891331, -0.07814407814407814, -0.09375, -0.09375, -0.03125, 0.0
495, -0.10134310134310134, 0.1684981684981685, -0.019536019536019536, 0.0, -0.03125, -0.03125, 0.0
496, -0.06837606837606838, -0.04395604395604396, -0.19658119658119658, 0.0, 0.0, -0.03125, 0.0
497, 0.045177045177045176, -0.007326007326007326, -0.1855921855921856, 0.0, 0.0, -0.03125, 0.0
498, 0.02442002442002442, 0.001221001221001221, -0.07814407814407814, -0.03125, -0.03125, -0.03125, 0.0
499, 0.03418803418803419, 0.03418803418803419, 0.003663003663003663, -0.03125, -0.0625, -0.03125, 0.0
500, -0.06471306471306472, 0.10012210012210013, 0.05982905982905983, 0.0, -0.0625, 0.0, 0.0
501, 0.04151404151404151, 0.002442002442002442, 0.009768009768009768, 0.0, -0.0625, 0.0, 0.0
502, 0.047619047619047616, 0.03418803418803419, -0.026862026862026864, 0.0, -0.0625, 0.0, 0.0
503, -0.006105006105006105, 0.028083028083028084, -0.08058608058608059, 0.0, -0.09375, 0.0, 0.0
504, -0.0695970695970696, 0.006105006105006105, -0.2148962148962149, 0.03125, -0.03125, 0.03125, 0.0
505, 0.17216117216117216, -0.18315018315018314, -0.221001221001221, 0.0, -0.03125, 0.03125, 0.0
506, 0.047619047619047616, 0.019536019536019536, -0.06837606837606838, 0.0, 0.0, 0.0, 0.0
507, 0.18803418803418803, -0.07326007326007326, -0.03785103785103785, 0.03125, -0.03125, 0.0, 0.0
508, 0.052503052503052504, -0.002442002442002442, -0.1111111111111111, 0.0, -0.09375, 0.0, 0.0
509, 0.01098901098901099, 0.09401709401709402, 0.0, 0.0, -0.0625, 0.0, 0.0
510, 0.0, 0.03785103785103785, 0.007326007326007326, 0.03125, -0.03125, 0.0, 0.0
511, 0.02564102564102564, 0.03418803418803419, 0.06227106227106227, 0.03125, 0.0, 0.03125, 0.0
512, 0.06837606837606838, 0.08058608058608059, 0.12576312576312576, 0.0, -0.0625, 0.03125, 0.0
513, -0.054945054945054944, 0.040293040293040296, 0.004884004884004884, 0.03125, -0.15625, 0.03125, 0.0
514, -0.007326007326007326, 0.08913308913308914, 0.0, 0.0625, -0.09375, 0.03125, 0.0
515, -0.014652014652014652, 0.050061050061050064, 0.009768009768009768, 0.09375, -0.09375, 0.03125, 0.0
516, 0.10622710622710622, -0.017094017094017096, 0.052503052503052504, 0.0625, -0.09375, 0.0625, 0.0
517, 0.05616605616605617, 0.009768009768009768, -0.057387057387057384, 0.0, -0.125, 0.0625, 0.0
518, 0.014652014652014652, 0.057387057387057384, 0.054945054945054944, 0.0, -0.15625, 0.0625, 1.0
519, -0.004884004884004884, 0.3308913308913309, 0.41025641025641024, 0.1875, -0.1875, 0.125, 1.0
520, 0.1575091575091575, -0.3247863247863248, 0.19658119658119658, 0.1875, -0.15625, 0.125, 1.0
521, 0.014652014652014652, -0.02197802197802198, 0.2783882783882784, 0.15625, -0.125, 0.15625, 1.0
522, 0.2222222222222222, 0.002442002442002442, 0.3418803418803419, 0.125, -0.21875, 0.09375, 1.0
523, -0.05128205128205128, 0.27350427350427353, 0.40415140415140416, 0.1875, -0.1875, 0.0625, 1.0
524, 0.10744810744810745, 0.38583638583638585, 0.684981684981685, 0.28125, -0.15625, 0.03125, 1.0
525, 0.43833943833943834, 0.2686202686202686, 0.7765567765567766, 0.3125, -0.21875, 0.03125, 1.0
526, 0.684981684981685, 0.12576312576312576, 0.7203907203907204, 0.3125, -0.28125, 0.03125, 1.0
527, 0.7643467643467643, -0.04395604395604396, 0.2503052503052503, 0.28125, -0.28125, -0.03125, 1.0
528, 1.0744810744810744, -0.003663003663003663, 0.33577533577533575, 0.28125, -0.375, -0.125, 1.0
529, 1.514041514041514, 0.21123321123321123, 0.4822954822954823, 0.34375, -0.53125, -0.21875, 1.0
530, 1.8913308913308913, -0.1221001221001221, -0.27594627594627597, 0.53125, -0.4375, -0.375, 1.0
531, 3.266178266178266, -0.9816849816849816, -1.691086691086691, 0.59375, -0.3125, -0.59375, 1.0
532, 4.168498168498169, -0.8058608058608059, -2.4383394383394386, 0.5625, -0.28125, -0.84375, 1.0
533, 4.897435897435898, -1.021978021978022, -3.687423687423687, 0.5, -0.40625, -1.125, 1.0
534, 3.8290598290598292, -1.5616605616605617, -5.769230769230769, 0.34375, -0.5625, -1.4375, 1.0
535, 2.6617826617826617, -1.7374847374847375, -7.228327228327228, 0.125, -0.28125, -1.75, 1.0
536, 2.177045177045177, -1.2148962148962148, -7.543345543345543, -0.03125, 0.15625, -2.0, 1.0
537, 1.63003663003663, -1.0451770451770452, -7.8998778998779, -0.0625, 0.5, -2.1875, 1.0
538, -0.0231990231990232, -1.3736263736263736, -8.622710622710622, -0.15625, 0.75, -2.34375, 1.0
539, -0.927960927960928, -1.586080586080586, -8.598290598290598, -0.59375, 0.96875, -2.46875, 1.0
540, -1.5274725274725274, -1.5006105006105006, -8.361416361416362, -1.15625, 0.875, -2.53125, 1.0
541, -2.989010989010989, -2.1575091575091574, -8.261294261294262, -1.59375, 0.8125, -2.5, 1.0
542, -4.125763125763126, -3.2014652014652016, -7.155067155067155, -2.28125, 0.875, -2.34375, 1.0
543, -5.655677655677656, -3.938949938949939, -5.452991452991453, -2.625, 0.9375, -2.125, 1.0
544, -6.107448107448107, -4.255189255189255, -3.5115995115995116, -2.90625, 0.96875, -1.875, 1.0
545, -6.506715506715507, -4.681318681318682, -2.070818070818071, -3.125, 0.90625, -1.53125, 1.0
546, -6.356532356532356, -4.763125763125763, -0.463980463980464, -3.28125, 0.84375, -1.1875, 1.0
547, -6.417582417582418, -5.0818070818070815, 1.0293040293040292, -3.25, 0.75, -0.8125, 1.0
548, -6.4322344322344325, -5.00976800976801, 2.1526251526251525, -3.125, 0.625, -0.5, 1.0
549, -6.583638583638583, -5.015873015873016, 2.757020757020757, -2.9375, 0.46875, -0.15625, 1.0
550, -6.516483516483516, -5.134310134310135, 2.913308913308913, -2.8125, 0.3125, 0.125, 1.0
551, -6.076923076923077, -4.953601953601954, 3.542124542124542, -2.6875, 0.125, 0.4375, 1.0
552, -5.876678876678877, -4.7313797313797314, 3.7924297924297923, -2.5, -0.09375, 0.75, 1.0
553, -5.112332112332112, -4.587301587301587, 4.212454212454213, -2.125, -0.34375, 1.15625, 1.0
554, -4.527472527472527, -3.6837606837606836, 4.576312576312576, -1.78125, -0.46875, 1.375, 1.0
555, -3.3394383394383396, -4.021978021978022, 4.824175824175824, -1.46875, -0.46875, 1.59375, 1.0
556, -2.3345543345543347, -4.125763125763126, 4.9633699633699635, -1.28125, -0.71875, 1.75, 1.0
557, -1.4224664224664225, -4.2686202686202686, 4.936507936507937, -1.15625, -1.125, 1.875, 1.0
558, -1.1233211233211233, -3.923076923076923, 4.8791208791208796, -1.0625, -1.59375, 1.9375, 1.0
559, -1.3199023199023199, -3.1452991452991452, 4.7313797313797314, -0.78125, -1.8125, 1.96875, 1.0
560, -1.304029304029304, -2.7594627594627594, 4.356532356532356, -0.34375, -1.78125, 2.0, 1.0
561, -0.7826617826617827, -2.8534798534798536, 4.086691086691086, 0.125, -1.65625, 2.03125, 1.0
562, 0.003663003663003663, -3.354090354090354, 3.456654456654457, 0.46875, -1.6875, 2.0625, 1.0
563, 1.332112332112332, -3.6275946275946276, 2.47008547008547, 0.5, -2.0, 2.0625, 1.0
564, 1.4774114774114775, -3.6776556776556775, 1.2857142857142858, 0.5625, -2.25, 1.96875, 1.0
565, 1.4065934065934067, -3.772893772893773, 0.6910866910866911, 0.71875, -2.0, 1.71875, 1.0
566, 1.5848595848595848, -3.4114774114774113, 1.1245421245421245, 1.03125, -1.5625, 1.5625, 1.0
567, 2.4188034188034186, -2.8119658119658117, 1.691086691086691, 1.40625, -1.3125, 1.40625, 1.0
568, 3.242979242979243, -2.6923076923076925, 1.5274725274725274, 1.53125, -1.40625, 1.21875, 1.0
569, 3.1514041514041513, -2.4652014652014653, 0.6593406593406593, 1.59375, -1.4375, 1.03125, 1.0
570, 2.735042735042735, -2.557997557997558, -0.32844932844932845, 1.59375, -1.25, 0.8125, 1.0
571, 2.6910866910866913, -2.4871794871794872, -0.6373626373626373, 1.5625, -1.0, 0.625, 1.0
572, 3.484737484737485, -1.4639804639804639, -0.2271062271062271, 1.59375, -0.90625, 0.40625, 1.0
573, 3.4444444444444446, -0.800976800976801, -0.6837606837606838, 1.71875, -0.9375, 0.21875, 1.0
574, 2.84981684981685, -0.5067155067155067, -1.6422466422466422, 1.71875, -0.8125, 0.0625, 1.0
575, 2.2063492063492065, -0.39194139194139194, -2.5763125763125765, 1.625, -0.59375, -0.0625, 1.0
576, 1.7411477411477412, -0.20757020757020758, -2.8998778998779, 1.5, -0.34375, -0.1875, 1.0
577, 1.26007326007326, 0.31868131868131866, -2.4346764346764345, 1.3125, -0.28125, -0.375, 1.0
578, 0.9304029304029304, 0.7411477411477412, -1.8937728937728937, 1.28125, -0.125, -0.4375, 1.0
579, 0.8083028083028083, 0.4139194139194139, -1.7362637362637363, 1.34375, -0.09375, -0.5, 1.0
580, 0.463980463980464, 0.009768009768009768, -2.3614163614163615, 1.3125, -0.09375, -0.59375, 1.0
581, 0.14041514041514042, 0.1807081807081807, -2.7045177045177047, 1.1875, 0.0, -0.6875, 1.0
582, 0.07692307692307693, 0.34676434676434675, -2.4932844932844933, 1.09375, 0.03125, -0.75, 1.0
583, -0.0231990231990232, 0.3492063492063492, -2.166056166056166, 0.96875, 0.0625, -0.78125, 1.0
584, -0.10378510378510379, 0.1514041514041514, -2.2515262515262515, 0.96875, 0.03125, -0.84375, 1.0
585, -0.8974358974358975, 0.28815628815628813, -2.873015873015873, 0.9375, 0.0, -0.875, 1.0
586, -1.4847374847374848, 0.4017094017094017, -3.0952380952380953, 0.78125, 0.0625, -0.875, 1.0
587, -1.540903540903541, 0.463980463980464, -2.8315018315018317, 0.625, 0.25, -0.84375, 1.0
588, -1.10989010989011, 0.47741147741147744, -2.126984126984127, 0.46875, 0.15625, -0.78125, 1.0
589, -1.8485958485958487, 1.0940170940170941, -1.9181929181929183, 0.4375, 0.0625, -0.6875, 1.0
590, -2.4114774114774113, 1.1416361416361416, -1.9401709401709402, 0.4375, 0.21875, -0.59375, 1.0
591, -1.9377289377289377, 0.5982905982905983, -1.7753357753357752, 0.3125, 0.25, -0.5, 1.0
592, -1.6422466422466422, 0.2844932844932845, -1.5238095238095237, 0.15625, 0.1875, -0.46875, 1.0
593, -1.6703296703296704, 0.3992673992673993, -1.236874236874237, 0.09375, 0.09375, -0.4375, 1.0
594, -1.7313797313797314, 0.40415140415140416, -1.0647130647130647, 0.0625, 0.0625, -0.34375, 1.0
595, -1.695970695970696, 0.3333333333333333, -0.8461538461538461, 0.03125, 0.09375, -0.28125, 1.0
596, -1.1257631257631258, 0.10012210012210013, -0.5164835164835165, 0.0, 0.03125, -0.25, 1.0
597, -0.927960927960928, -0.013431013431013432, -0.42002442002442003, 0.0, -0.03125, -0.21875, 1.0
598, -0.9145299145299145, 0.15506715506715507, -0.2967032967032967, 0.0625, 0.0, -0.1875, 1.0
599, -0.4884004884004884, 0.004884004884004884, -0.3785103785103785, 0.03125, -0.0625, -0.15625, 1.0
600, -0.18681318681318682, -0.007326007326007326, -0.23321123321123322, 0.0, -0.09375, -0.125, 1.0
601, -0.030525030525030524, -0.06471306471306472, -0.15506715506715507, 0.0, -0.125, -0.09375, 1.0
602, 0.06715506715506715, -0.04151404151404151, -0.019536019536019536, 0.0, -0.09375, -0.09375, 1.0
603, 0.17338217338217338, 0.028083028083028084, 0.09768009768009768, -0.03125, -0.0625, -0.0625, 1.0
604, 0.06227106227106227, 0.01221001221001221, 0.050061050061050064, -0.03125, -0.09375, -0.0625, 1.0
605, 0.06105006105006105, -0.002442002442002442, 0.03907203907203907, -0.03125, -0.09375, -0.03125, 1.0
606, 0.2271062271062271, 0.018315018315018316, 0.14407814407814407, 0.0, -0.09375, -0.03125, 1.0
607, 0.026862026862026864, -0.052503052503052504, 0.09523809523809523, 0.0625, -0.125, 0.0, 1.0
608, 0.10622710622710622, -0.05982905982905983, 0.045177045177045176, 0.03125, -0.03125, 0.0, 1.0
609, 0.08791208791208792, -0.007326007326007326, -0.031746031746031744, 0.0, 0.0, 0.0, 1.0
610, 0.03418803418803419, 0.02442002442002442, -0.06349206349206349, 0.0, 0.0, 0.0, 1.0
611, 0.045177045177045176, 0.001221001221001221, -0.14285714285714285, -0.03125, 0.0, 0.0, 1.0
612, -0.017094017094017096, -0.12576312576312576, -0.2661782661782662, -0.15625, 0.0625, 0.0, 1.0
613, 0.031746031746031744, -0.006105006105006105, -0.12332112332112333, -0.15625, 0.0625, -0.03125, 1.0
614, 0.4004884004884005, 0.47863247863247865, 0.5518925518925519, 0.03125, -0.125, 0.0, 0.0
615, -0.3443223443223443, 0.442002442002442, 0.10744810744810745, 0.15625, -0.0625, 0.0, 0.0
616, -0.16483516483516483, 0.17216117216117216, 0.009768009768009768, 0.21875, 0.0, 0.03125, 0.0
617, 0.15018315018315018, -0.2661782661782662, -0.06593406593406594, 0.1875, 0.0, 0.03125, 0.0
618, -0.13186813186813187, -0.17826617826617827, -0.4188034188034188, 0.03125, 0.0625, 0.0, 0.0
619, -0.004884004884004884, -0.06471306471306472, -0.3553113553113553, -0.125, 0.03125, 0.0, 0.0
620, -0.0463980463980464, 0.10378510378510379, -0.3540903540903541, -0.125, 0.03125, 0.0, 0.0
621, -0.07936507936507936, 0.3052503052503053, -0.199023199023199, -0.0625, 0.03125, 0.0, 0.0
622, -0.0463980463980464, 0.2954822954822955, -0.11477411477411477, 0.0, 0.0, 0.03125, 0.0
623, -0.14285714285714285, 0.19536019536019536, -0.1575091575091575, 0.0, 0.03125, 0.09375, 0.0
624, 0.14285714285714285, 0.002442002442002442, -0.16727716727716727, -0.03125, 0.0, 0.09375, 0.0
625, 0.11965811965811966, 0.008547008547008548, -0.12332112332112333, -0.0625, -0.03125, 0.09375, 0.0
626, 0.0757020757020757, -0.002442002442002442, -0.13797313797313798, -0.03125, -0.03125, 0.0625, 0.0
627, 0.052503052503052504, 0.006105006105006105, -0.115995115995116, -0.03125, -0.03125, 0.0625, 0.0
628, 0.23076923076923078, -0.13064713064713065, -0.18437118437118438, 0.0, 0.0, 0.0625, 0.0
629, 0.29181929181929184, -0.12332112332112333, -0.1221001221001221, 0.0, -0.03125, 0.03125, 0.0
630, 0.07081807081807082, 0.007326007326007326, -0.042735042735042736, -0.03125, -0.09375, 0.0, 0.0
631, 0.0, 0.08669108669108669, 0.0989010989010989, -0.03125, -0.0625, 0.0, 0.0
632, 0.07936507936507936, 0.014652014652014652, 0.0757020757020757, 0.0, -0.09375, 0.03125, 0.0
633, 0.0463980463980464, -0.08302808302808302, -0.1684981684981685, 0.0, -0.15625, 0.0, 0.0
634, 0.026862026862026864, -0.1221001221001221, -0.358974358974359, 0.0, -0.09375, 0.0, 0.0
635, 0.08424908424908426, -0.06837606837606838, -0.3601953601953602, -0.03125, -0.03125, 0.0, 0.0
636, 0.0927960927960928, 0.028083028083028084, -0.20634920634920634, -0.03125, -0.03125, 0.0, 0.0
637, -0.07081807081807082, 0.12332112332112333, -0.10012210012210013, 0.0, -0.03125, 0.0, 0.0
638, 0.03296703296703297, 0.0757020757020757, 0.02197802197802198, 0.0, -0.03125, 0.0, 0.0
639, 0.0231990231990232, 0.018315018315018316, -0.03785103785103785, 0.03125, -0.03125, 0.0, 0.0
640, 0.045177045177045176, 0.004884004884004884, -0.06105006105006105, 0.0, -0.03125, 0.0, 0.0
641, -0.001221001221001221, 0.01221001221001221, -0.08180708180708181, 0.03125, -0.03125, 0.0, 0.0
642, 0.018315018315018316, 0.03296703296703297, -0.07448107448107448, 0.03125, 0.0, 0.0, 0.0
643, -0.06593406593406594, 0.06349206349206349, -0.0927960927960928, 0.03125, 0.0, 0.0, 0.0
644, 0.047619047619047616, -0.008547008547008548, -0.12698412698412698, 0.0, 0.0, 0.03125, 0.0
645, 0.026862026862026864, 0.002442002442002442, -0.13064713064713065, 0.0, 0.0, 0.0, 0.0
646, -0.018315018315018316, 0.06715506715506715, -0.047619047619047616, 0.0, 0.0, 0.0, 0.0
647, -0.019536019536019536, 0.10744810744810745, 0.08913308913308914, 0.0, 0.0, 0.0, 0.0
648, 0.0927960927960928, -0.0231990231990232, 0.04884004884004884, 0.0625, 0.0, 0.0, 0.0
649, 0.03296703296703297, -0.015873015873015872, -0.06715506715506715, 0.0, -0.03125, 0.0, 0.0
650, 0.01098901098901099, 0.0463980463980464, -0.09157509157509157, 0.0, -0.0625, 0.0, 0.0
651, -0.009768009768009768, 0.042735042735042736, -0.18315018315018314, 0.0, -0.09375, 0.0, 0.0
652, 0.04151404151404151, 0.0, -0.18437118437118438, 0.03125, -0.0625, 0.0, 0.0
653, 0.07081807081807082, -0.052503052503052504, -0.1916971916971917, 0.0625, -0.03125, 0.0, 0.0
654, 0.13797313797313798, -0.01098901098901099, -0.13797313797313798, 0.0625, -0.03125, 0.0, 0.0
655, 0.054945054945054944, 0.02442002442002442, -0.05128205128205128, 0.0, -0.0625, 0.0, 0.0
656, 0.001221001221001221, 0.03907203907203907, -0.09523809523809523, 0.0, -0.0625, 0.0, 0.0
657, -0.004884004884004884, 0.10256410256410256, -0.050061050061050064, 0.0, -0.0625, 0.0, 0.0
658, 0.030525030525030524, 0.0231990231990232, -0.04884004884004884, 0.09375, -0.09375, 0.0, 0.0
659, 0.040293040293040296, 0.020757020757020756, -0.05616605616605617, 0.0625, -0.09375, 0.0, 0.0
660, 0.030525030525030524, 0.04884004884004884, 0.05128205128205128, 0.03125, -0.09375, 0.0, 0.0
661, 0.054945054945054944, 0.22344322344322345, 0.3785103785103785, 0.09375, -0.125, 0.03125, 1.0
662, -0.006105006105006105, 0.14774114774114774, 0.43345543345543347, 0.1875, -0.1875, 0.03125, 1.0
663, -0.05982905982905983, -0.28083028083028083, 0.052503052503052504, 0.125, -0.1875, 0.0, 1.0
664, 0.1684981684981685, -0.06227106227106227, 0.32234432234432236, 0.0625, -0.25, 0.0, 1.0
665, 0.002442002442002442, 0.41147741147741146, 0.8253968253968254, 0.09375, -0.25, 0.0, 1.0
666, 0.1807081807081807, 0.833943833943834, 1.291819291819292, 0.21875, -0.25, 0.0, 1.0
667, 0.7142857142857143, 1.0915750915750915, 1.7448107448107448, 0.4375, -0.34375, 0.03125, 1.0
668, 1.3492063492063493, 0.4261294261294261, 0.8131868131868132, 0.59375, -0.46875, 0.03125, 1.0
669, 2.0549450549450547, -0.6312576312576312, -0.63003663003663, 0.5, -0.46875, -0.09375, 1.0
670, 3.9194139194139193, -0.967032967032967, -2.115995115995116, 0.28125, -0.40625, -0.40625, 1.0
671, 4.087912087912088, -0.9120879120879121, -2.772893772893773, 0.25, -0.5, -0.6875, 1.0
672, 4.173382173382174, -0.7997557997557998, -3.578754578754579, 0.3125, -0.5, -0.96875, 1.0
673, 4.046398046398046, -0.9621489621489622, -5.156288156288157, 0.4375, -0.375, -1.25, 1.0
674, 3.3943833943833943, -1.5384615384615385, -6.903540903540904, 0.4375, -0.0625, -1.5, 1.0
675, 3.1965811965811968, -2.1404151404151404, -7.410256410256411, 0.40625, 0.28125, -1.8125, 1.0
676, 2.989010989010989, -2.2075702075702077, -7.126984126984127, 0.21875, 0.5, -2.09375, 1.0
677, 1.94993894993895, -2.0207570207570207, -7.267399267399267, 0.0, 0.46875, -2.375, 1.0
678, 0.2564102564102564, -2.2844932844932844, -7.634920634920635, -0.46875, 0.40625, -2.5625, 1.0
679, -1.6752136752136753, -2.413919413919414, -7.543345543345543, -1.03125, 0.25, -2.6875, 1.0
680, -3.192918192918193, -2.357753357753358, -6.819291819291819, -1.5, 0.15625, -2.6875, 1.0
681, -4.68986568986569, -3.115995115995116, -6.111111111111111, -2.1875, 0.21875, -2.5, 1.0
682, -6.239316239316239, -3.3223443223443225, -5.107448107448107, -2.65625, 0.375, -2.21875, 1.0
683, -6.549450549450549, -3.061050061050061, -3.6263736263736264, -2.9375, 0.40625, -1.8125, 1.0
684, -7.423687423687424, -3.1257631257631258, -2.4285714285714284, -3.0625, 0.5625, -1.34375, 1.0
685, -7.8107448107448105, -3.490842490842491, -1.1941391941391941, -3.09375, 0.78125, -0.875, 1.0
686, -7.534798534798535, -4.174603174603175, 0.23443223443223443, -3.09375, 0.875, -0.4375, 1.0
687, -7.095238095238095, -4.631257631257632, 1.4395604395604396, -3.0625, 0.78125, -0.09375, 1.0
688, -6.976800976800977, -4.831501831501831, 2.398046398046398, -3.0625, 0.59375, 0.21875, 1.0
689, -7.037851037851038, -4.87057387057387, 3.3028083028083026, -2.96875, 0.40625, 0.5625, 1.0
690, -6.8998778998779, -4.6129426129426125, 4.130647130647131, -2.71875, 0.28125, 0.90625, 1.0
691, -6.308913308913309, -4.702075702075702, 4.958485958485959, -2.40625, 0.0625, 1.21875, 1.0
692, -5.333333333333333, -4.717948717948718, 5.531135531135531, -2.09375, -0.21875, 1.5, 1.0
693, -4.271062271062271, -4.6581196581196584, 5.914529914529915, -1.71875, -0.40625, 1.78125, 1.0
694, -3.133089133089133, -4.615384615384615, 6.328449328449328, -1.4375, -0.5625, 1.9375, 1.0
695, -2.056166056166056, -4.388278388278389, 6.481074481074481, -1.125, -0.8125, 2.0625, 1.0
696, -1.6312576312576312, -4.152625152625153, 6.222222222222222, -0.78125, -1.125, 2.09375, 1.0
697, -1.2197802197802199, -4.095238095238095, 5.681318681318682, -0.46875, -1.3125, 2.125, 1.0
698, -0.5445665445665445, -4.233211233211233, 5.435897435897436, -0.28125, -1.46875, 2.09375, 1.0
699, -0.7594627594627594, -4.004884004884005, 5.0476190476190474, -0.125, -1.625, 2.0, 1.0
700, 0.10134310134310134, -3.5665445665445668, 4.882783882783883, 0.1875, -1.6875, 1.9375, 1.0
701, 0.4456654456654457, -3.404151404151404, 4.304029304029304, 0.53125, -1.90625, 1.90625, 1.0
702, 0.5775335775335775, -3.3028083028083026, 3.432234432234432, 0.84375, -1.96875, 1.84375, 1.0
703, 1.4945054945054945, -3.484737484737485, 2.5225885225885225, 1.09375, -1.84375, 1.75, 1.0
704, 3.1636141636141635, -3.4786324786324787, 1.8205128205128205, 1.3125, -1.8125, 1.625, 1.0
705, 3.6434676434676434, -4.058608058608058, 0.684981684981685, 1.65625, -1.875, 1.3125, 1.0
706, 3.6202686202686203, -3.7814407814407813, -0.24786324786324787, 1.6875, -1.59375, 1.03125, 1.0
707, 4.097680097680097, -1.9597069597069596, -0.4175824175824176, 1.84375, -1.3125, 0.84375, 1.0
708, 4.012210012210012, -1.1684981684981686, -1.0634920634920635, 1.9375, -1.0, 0.6875, 1.0
709, 4.8107448107448105, -1.089133089133089, -1.7692307692307692, 1.9375, -1.03125, 0.53125, 1.0
710, 4.407814407814408, -1.1978021978021978, -2.7997557997557996, 1.8125, -1.0, 0.375, 1.0
711, 4.0195360195360195, -1.061050061050061, -3.335775335775336, 1.6875, -0.59375, 0.125, 1.0
712, 4.339438339438339, -0.2564102564102564, -2.722832722832723, 1.625, -0.28125, -0.125, 1.0
713, 3.9206349206349205, 0.3431013431013431, -3.083028083028083, 1.625, -0.21875, -0.3125, 1.0
714, 3.115995115995116, 0.536019536019536, -3.3174603174603177, 1.53125, -0.125, -0.46875, 1.0
715, 2.5409035409035408, 0.052503052503052504, -4.285714285714286, 1.40625, -0.09375, -0.65625, 1.0
716, 1.5372405372405373, -0.0463980463980464, -4.829059829059829, 1.09375, 0.15625, -0.9375, 1.0
717, -0.4627594627594628, 1.474969474969475, -3.728937728937729, 1.0, 0.46875, -0.9375, 1.0
718, -0.7606837606837606, 1.4517704517704517, -2.8656898656898657, 0.96875, 0.5, -0.9375, 1.0
719, -1.0341880341880343, 1.105006105006105, -2.547008547008547, 0.84375, 0.46875, -0.90625, 1.0
720, -1.5787545787545787, 0.5445665445665445, -3.1819291819291817, 0.8125, 0.3125, -0.9375, 1.0
721, -2.340659340659341, 0.47374847374847373, -3.501831501831502, 0.5625, 0.21875, -0.90625, 1.0
722, -2.871794871794872, 0.8315018315018315, -2.934065934065934, 0.375, 0.25, -0.84375, 1.0
723, -2.7985347985347984, 0.7509157509157509, -2.2112332112332114, 0.28125, 0.3125, -0.78125, 1.0
724, -2.324786324786325, 0.43956043956043955, -1.4285714285714286, 0.28125, 0.3125, -0.71875, 1.0
725, -2.4078144078144077, 0.2893772893772894, -1.1416361416361416, 0.25, 0.1875, -0.65625, 1.0
726, -2.3333333333333335, 0.3516483516483517, -1.0525030525030525, 0.1875, 0.09375, -0.59375, 1.0
727, -2.456654456654457, 0.4603174603174603, -1.122100122100122, 0.125, 0.0, -0.53125, 1.0
728, -2.547008547008547, 0.5616605616605617, -1.1526251526251525, 0.0625, 0.03125, -0.375, 1.0
729, -2.2747252747252746, 0.5860805860805861, -0.8827838827838828, 0.03125, 0.0625, -0.28125, 1.0
730, -1.6727716727716728, 0.46642246642246643, -0.4725274725274725, 0.03125, 0.0, -0.1875, 1.0
731, -1.271062271062271, 0.38461538461538464, -0.304029304029304, 0.03125, -0.03125, -0.125, 1.0
732, -0.8559218559218559, 0.24786324786324787, -0.11355311355311355, 0.03125, -0.09375, -0.09375, 1.0
733, -0.5042735042735043, 0.007326007326007326, -0.2686202686202686, 0.0, -0.125, -0.09375, 1.0
734, -0.18315018315018314, -0.15018315018315018, -0.36874236874236876, -0.0625, -0.15625, -0.09375, 1.0
735, 0.047619047619047616, 0.01098901098901099, -0.14407814407814407, -0.03125, -0.1875, -0.09375, 1.0
736, 0.03907203907203907, 0.02442002442002442, -0.10012210012210013, 0.0, -0.125, -0.09375, 1.0
737, 0.31746031746031744, -0.05982905982905983, 0.014652014652014652, 0.0, -0.15625, -0.09375, 1.0
738, 0.2612942612942613, -0.23565323565323565, -0.2588522588522589, -0.03125, -0.15625, -0.125, 1.0
739, 0.11233211233211234, 0.020757020757020756, -0.21611721611721613, 0.0, -0.125, -0.125, 1.0
740, 0.17338217338217338, -0.1221001221001221, -0.2503052503052503, 0.0, -0.0625, -0.09375, 1.0
741, 0.06837606837606838, -0.05982905982905983, -0.2442002442002442, -0.03125, -0.0625, -0.125, 1.0
742, 0.04395604395604396, 0.019536019536019536, -0.12332112332112333, -0.0625, -0.0625, -0.09375, 1.0
743, -0.047619047619047616, 0.02442002442002442, -0.10622710622710622, -0.03125, -0.03125, -0.0625, 1.0
744, -0.06349206349206349, 0.015873015873015872, -0.017094017094017096, 0.0, 0.0, -0.03125, 1.0
745, 0.14285714285714285, -0.11355311355311355, 0.002442002442002442, 0.0, 0.0, 0.0, 1.0
746, 0.01098901098901099, -0.09157509157509157, -0.1855921855921856, -0.03125, 0.0, 0.0, 1.0
747, 0.0695970695970696, -0.03540903540903541, -0.06349206349206349, -0.0625, 0.0, 0.0, 1.0
748, -0.002442002442002442, 0.045177045177045176, 0.0927960927960928, -0.03125, 0.03125, 0.0, 1.0
749, -0.04151404151404151, 0.03663003663003663, 0.22954822954822954, 0.0, 0.03125, 0.0, 1.0
750, 0.17826617826617827, -0.045177045177045176, 0.18437118437118438, 0.0625, 0.0625, 0.0, 1.0
751, -0.007326007326007326, -0.002442002442002442, -0.004884004884004884, 0.0, 0.0, -0.03125, 1.0
752, -0.03907203907203907, 0.050061050061050064, -0.09035409035409035, 0.0, 0.03125, -0.03125, 1.0
753, -0.05982905982905983, 0.09157509157509157, -0.1343101343101343, -0.03125, 0.03125, -0.03125, 1.0
754, 0.029304029304029304, -0.008547008547008548, -0.17826617826617827, -0.0625, 0.0625, -0.03125, 0.0
755, 0.11477411477411477, -0.3528693528693529, -0.4822954822954823, -0.28125, 0.125, -0.03125, 0.0
756, 0.09401709401709402, -0.2148962148962149, -0.5518925518925519, -0.40625, 0.125, -0.0625, 0.0
757, 0.5494505494505495, -0.11965811965811966, -0.3528693528693529, -0.3125, 0.0, -0.09375, 0.0
758, -0.21245421245421245, 0.5653235653235653, 0.10866910866910867, -0.03125, -0.09375, -0.0625, 0.0
759, -0.3540903540903541, 0.6642246642246642, -0.002442002442002442, 0.09375, -0.03125, 0.0, 0.0
760, -0.11355311355311355, 0.08180708180708181, -0.16483516483516483, 0.0625, 0.0, 0.0, 0.0
761, 0.03418803418803419, -0.026862026862026864, -0.20757020757020758, -0.03125, 0.0, 0.0, 0.0
762, 0.0, 0.03785103785103785, -0.2026862026862027, -0.03125, 0.0, 0.0, 0.0
763, 0.0231990231990232, 0.09157509157509157, -0.008547008547008548, -0.03125, 0.0, 0.0, 0.0
764, 0.017094017094017096, 0.015873015873015872, -0.0695970695970696, 0.0, 0.0, 0.0, 0.0
765, 0.0989010989010989, -0.009768009768009768, -0.06349206349206349, 0.0, -0.03125, 0.0, 0.0
766, 0.07326007326007326, -0.020757020757020756, -0.18192918192918192, 0.0, -0.03125, 0.0, 0.0
767, 0.16117216117216118, -0.052503052503052504, -0.0989010989010989, -0.03125, -0.03125, 0.0, 0.0
768, 0.03907203907203907, 0.03296703296703297, -0.0231990231990232, -0.03125, -0.0625, 0.0, 0.0
769, -0.030525030525030524, 0.10012210012210013, 0.06837606837606838, 0.0, -0.03125, 0.0, 0.0
770, 0.08424908424908426, 0.002442002442002442, 0.08424908424908426, 0.0, -0.0625, 0.0, 0.0
771, 0.017094017094017096, 0.02197802197802198, 0.031746031746031744, 0.0, -0.09375, 0.0, 0.0
772, -0.0231990231990232, 0.040293040293040296, -0.020757020757020756, 0.0, -0.0625, 0.0, 0.0
773, 0.11721611721611722, 0.028083028083028084, 0.054945054945054944, 0.0, -0.0625, 0.0, 0.0
774, -0.07326007326007326, 0.09401709401709402, 0.04151404151404151, 0.03125, -0.09375, 0.03125, 0.0
775, 0.004884004884004884, 0.047619047619047616, 0.009768009768009768, 0.0625, -0.03125, 0.03125, 0.0
776, 0.0463980463980464, -0.006105006105006105, -0.07448107448107448, 0.0625, -0.0625, 0.03125, 0.0
777, 0.040293040293040296, 0.01098901098901099, -0.10500610500610501, 0.0, -0.09375, 0.03125, 0.0
778, -0.017094017094017096, 0.08424908424908426, -0.07936507936507936, 0.03125, -0.125, 0.03125, 0.0
779, -0.11233211233211234, 0.14896214896214896, 0.013431013431013432, 0.03125, -0.09375, 0.0625, 0.0
780, 0.04395604395604396, 0.03785103785103785, -0.06105006105006105, 0.0625, -0.09375, 0.0625, 0.0
781, 0.029304029304029304, 0.008547008547008548, -0.13553113553113552, 0.09375, -0.0625, 0.09375, 0.0
782, 0.12454212454212454, -0.14652014652014653, -0.2271062271062271, 0.0625, -0.0625, 0.09375, 0.0
783, 0.06349206349206349, -0.06105006105006105, -0.25274725274725274, 0.0, -0.0625, 0.09375, 0.0
784, 0.04395604395604396, 0.04395604395604396, -0.16483516483516483, 0.0, -0.0625, 0.09375, 0.0
785, 0.013431013431013432, 0.0695970695970696, -0.11355311355311355, 0.03125, -0.0625, 0.09375, 0.0
786, 0.006105006105006105, 0.042735042735042736, 0.04395604395604396, 0.0625, 0.0, 0.125, 0.0
787, 0.001221001221001221, 0.042735042735042736, 0.18192918192918192, 0.03125, -0.03125, 0.09375, 0.0
788, 0.08058608058608059, -0.014652014652014652, 0.18803418803418803, 0.0, -0.03125, 0.09375, 0.0
789, 0.23443223443223443, -0.003663003663003663, 0.1684981684981685, 0.0, -0.09375, 0.09375, 0.0
790, 0.12454212454212454, 0.16117216117216118, 0.17338217338217338, 0.03125, -0.21875, 0.09375, 0.0
791, 0.3052503052503053, -0.03540903540903541, 0.02197802197802198, 0.15625, -0.15625, 0.0625, 0.0
792, 0.3492063492063492, -0.11965811965811966, -0.08180708180708181, 0.15625, -0.15625, 0.03125, 0.0
793, 0.5238095238095238, -0.23565323565323565, -0.09768009768009768, 0.09375, -0.125, 0.0, 0.0
794, 0.4542124542124542, -0.04884004884004884, -0.1562881562881563, 0.03125, -0.1875, -0.0625, 0.0
795, 0.24664224664224665, 0.11843711843711843, -0.040293040293040296, 0.125, -0.28125, -0.0625, 0.0
796, 0.2503052503052503, 0.23809523809523808, 0.0927960927960928, 0.28125, -0.28125, -0.0625, 1.0
797, 0.1746031746031746, 0.05616605616605617, 0.002442002442002442, 0.46875, -0.25, -0.09375, 1.0
798, 0.1562881562881563, -0.3601953601953602, -0.5396825396825397, 0.375, -0.125, -0.0625, 1.0
799, 0.9951159951159951, -0.031746031746031744, -0.014652014652014652, 0.46875, -0.28125, -0.125, 1.0
800, 1.2466422466422467, 0.21978021978021978, -0.0231990231990232, 0.625, -0.5, -0.1875, 1.0
801, 1.393162393162393, -0.03540903540903541, -0.6251526251526252, 0.625, -0.5, -0.25, 1.0
802, 2.177045177045177, -0.5299145299145299, -1.3137973137973138, 0.5, -0.46875, -0.46875, 1.0
803, 2.9853479853479854, -0.4603174603174603, -2.225885225885226, 0.34375, -0.53125, -0.71875, 1.0
804, 3.724053724053724, -0.2148962148962149, -2.943833943833944, 0.25, -0.5625, -1.0, 1.0
805, 4.462759462759463, -0.47619047619047616, -4.278388278388278, 0.25, -0.65625, -1.3125, 1.0
806, 3.7472527472527473, -1.6996336996336996, -6.835164835164835, 0.1875, -0.46875, -1.625, 1.0
807, 2.6556776556776556, -2.347985347985348, -8.786324786324787, 0.0, 0.0, -2.03125, 1.0
808, 1.42002442002442, -2.1941391941391943, -9.113553113553113, -0.15625, 0.75, -2.3125, 1.0
809, 1.7582417582417582, -1.8376068376068375, -7.672771672771673, -0.71875, 0.75, -2.625, 1.0
810, -2.3028083028083026, -1.934065934065934, -7.274725274725275, -1.375, 0.34375, -2.6875, 1.0
811, -3.659340659340659, -1.435897435897436, -6.394383394383395, -1.90625, 0.5625, -2.59375, 1.0
812, -5.076923076923077, -1.7973137973137974, -5.667887667887668, -2.15625, 0.875, -2.46875, 1.0
813, -5.183150183150183, -2.93040293040293, -4.588522588522588, -2.3125, 0.9375, -2.21875, 1.0
814, -5.898656898656899, -3.526251526251526, -3.548229548229548, -2.6875, 0.75, -1.96875, 1.0
815, -6.989010989010989, -3.5115995115995116, -2.5115995115995116, -3.09375, 0.59375, -1.6875, 1.0
816, -7.956043956043956, -3.700854700854701, -1.7142857142857142, -3.25, 0.53125, -1.25, 1.0
817, -8.280830280830282, -4.2967032967032965, -0.6507936507936508, -3.1875, 0.6875, -0.8125, 1.0
818, -7.6923076923076925, -4.631257631257632, 0.7741147741147741, -3.0625, 0.875, -0.40625, 1.0
819, -7.493284493284493, -5.002442002442002, 1.9316239316239316, -2.9375, 0.875, -0.0625, 1.0
820, -6.982905982905983, -4.862026862026862, 3.2124542124542126, -2.875, 0.71875, 0.25, 1.0
821, -6.521367521367521, -4.876678876678877, 4.407814407814408, -2.6875, 0.21875, 0.75, 1.0
822, -6.213675213675214, -4.4493284493284495, 5.261294261294261, -2.4375, -0.09375, 1.125, 1.0
823, -5.769230769230769, -4.398046398046398, 5.394383394383395, -2.09375, -0.3125, 1.4375, 1.0
824, -5.488400488400488, -4.426129426129426, 5.367521367521367, -1.78125, -0.34375, 1.6875, 1.0
825, -4.791208791208791, -4.7655677655677655, 5.146520146520147, -1.4375, -0.34375, 1.9375, 1.0
826, -3.043956043956044, -5.336996336996337, 5.452991452991453, -1.1875, -0.625, 2.09375, 1.0
827, -1.9255189255189256, -5.157509157509158, 5.400488400488401, -0.875, -0.96875, 2.1875, 1.0
828, -1.098901098901099, -4.835164835164835, 5.247863247863248, -0.53125, -1.15625, 2.15625, 1.0
829, -1.0793650793650793, -4.566544566544566, 4.21001221001221, -0.375, -1.15625, 2.125, 1.0
830, -0.6666666666666666, -3.916971916971917, 4.128205128205129, -0.28125, -1.34375, 2.125, 1.0
831, -0.3553113553113553, -3.3882783882783882, 4.422466422466423, -0.15625, -1.59375, 2.15625, 1.0
832, -0.20757020757020758, -1.5555555555555556, 4.656898656898657, 0.3125, -1.59375, 2.1875, 1.0
833, 1.3162393162393162, -3.0488400488400487, 3.032967032967033, 0.90625, -1.34375, 2.1875, 1.0
834, 1.6996336996336996, -3.687423687423687, 2.4481074481074483, 0.78125, -1.5625, 2.03125, 1.0
835, 1.2759462759462759, -3.0134310134310134, 2.554334554334554, 0.75, -1.75, 1.84375, 1.0
836, 1.7142857142857142, -1.8998778998778998, 2.6654456654456653, 1.125, -1.6875, 1.6875, 1.0
837, 2.230769230769231, -1.5274725274725274, 1.6446886446886446, 1.5625, -1.5625, 1.5625, 1.0
838, 2.120879120879121, -2.3565323565323566, -0.22466422466422467, 1.71875, -1.53125, 1.4375, 1.0
839, 2.144078144078144, -2.5177045177045176, -1.1758241758241759, 1.53125, -1.34375, 1.28125, 1.0
840, 3.283272283272283, -2.056166056166056, -0.57997557997558, 1.34375, -1.09375, 1.0625, 1.0
841, 3.3833943833943834, -0.36385836385836384, 0.028083028083028084, 1.3125, -1.1875, 0.78125, 1.0
842, 2.2002442002442004, 0.7533577533577533, -0.9010989010989011, 1.59375, -1.21875, 0.6875, 1.0
843, 2.694749694749695, -0.06715506715506715, -2.1880341880341883, 1.71875, -0.96875, 0.625, 1.0
844, 3.3284493284493286, -0.9230769230769231, -3.0317460317460316, 1.40625, -0.75, 0.40625, 1.0
845, 3.3223443223443225, -0.8681318681318682, -2.744810744810745, 1.1875, -0.59375, 0.125, 1.0
846, 2.6923076923076925, 0.008547008547008548, -2.21001221001221, 1.1875, -0.46875, -0.0625, 1.0
847, 2.451770451770452, 0.46153846153846156, -1.8241758241758241, 1.3125, -0.34375, -0.21875, 1.0
848, 2.634920634920635, -0.43101343101343104, -2.0634920634920637, 1.28125, -0.375, -0.4375, 1.0
849, 1.8156288156288156, -0.42002442002442003, -2.547008547008547, 1.1875, -0.28125, -0.65625, 1.0
850, 0.8070818070818071, 0.06471306471306472, -2.568986568986569, 1.15625, -0.0625, -0.78125, 1.0
851, 0.47374847374847373, 0.29181929181929184, -1.9230769230769231, 1.15625, 0.03125, -0.875, 1.0
852, 0.6068376068376068, 0.042735042735042736, -1.5152625152625152, 1.21875, -0.03125, -1.0, 1.0
853, -0.3907203907203907, 0.014652014652014652, -2.5873015873015874, 1.125, -0.1875, -1.09375, 1.0
854, -1.547008547008547, 0.3772893772893773, -3.6971916971916974, 0.90625, -0.09375, -1.09375, 1.0
855, -2.1892551892551895, 0.851037851037851, -3.7643467643467643, 0.71875, 0.125, -1.0625, 1.0
856, -2.4932844932844933, 1.4224664224664225, -2.584859584859585, 0.5625, 0.1875, -0.96875, 1.0
857, -2.9816849816849818, 1.3394383394383393, -2.855921855921856, 0.46875, 0.0625, -0.84375, 1.0
858, -3.144078144078144, 1.0915750915750915, -2.907203907203907, 0.375, 0.03125, -0.6875, 1.0
859, -3.1086691086691087, 0.7631257631257631, -2.653235653235653, 0.25, 0.125, -0.5625, 1.0
860, -2.8119658119658117, 0.6202686202686203, -2.0671550671550674, 0.09375, 0.21875, -0.5, 1.0
861, -2.3235653235653237, 0.45665445665445664, -1.343101343101343, 0.0625, 0.25, -0.4375, 1.0
862, -1.9072039072039073, 0.12942612942612944, -0.9169719169719169, 0.0625, 0.0625, -0.375, 1.0
863, -2.065934065934066, 0.1575091575091575, -0.7875457875457875, 0.0, 0.0, -0.3125, 1.0
864, -1.691086691086691, 0.40293040293040294, -0.48717948717948717, 0.0, -0.03125, -0.25, 1.0
865, -1.5335775335775337, 0.3247863247863248, -0.4822954822954823, 0.0, -0.0625, -0.1875, 1.0
866, -1.0354090354090355, 0.326007326007326, -0.28327228327228327, 0.03125, -0.03125, -0.15625, 1.0
867, -0.8266178266178266, 0.04151404151404151, -0.3626373626373626, 0.09375, -0.09375, -0.125, 1.0
868, -0.5225885225885226, -0.07081807081807082, -0.3626373626373626, 0.0, -0.09375, -0.09375, 1.0
869, -0.3956043956043956, 0.054945054945054944, -0.2039072039072039, 0.0, -0.09375, -0.09375, 1.0
870, -0.22954822954822954, 0.1794871794871795, -0.015873015873015872, 0.03125, -0.09375, -0.09375, 1.0
871, 0.028083028083028084, 0.013431013431013432, -0.08302808302808302, 0.03125, -0.125, -0.0625, 1.0
872, 0.06837606837606838, -0.01098901098901099, -0.1978021978021978, 0.0, -0.125, -0.09375, 1.0
873, 0.08669108669108669, 0.12454212454212454, -0.0989010989010989, 0.03125, -0.09375, -0.0625, 1.0
874, 0.042735042735042736, 0.01098901098901099, -0.20757020757020758, 0.0625, -0.0625, -0.0625, 1.0
875, 0.11843711843711843, -0.001221001221001221, -0.13553113553113552, 0.03125, -0.03125, -0.0625, 1.0
876, 0.05616605616605617, -0.03296703296703297, -0.27472527472527475, 0.0, 0.0, -0.0625, 1.0
877, 0.19413919413919414, -0.03418803418803419, -0.14285714285714285, 0.0, -0.03125, -0.03125, 1.0
878, 0.05982905982905983, -0.026862026862026864, -0.17582417582417584, -0.03125, -0.0625, -0.03125, 1.0
879, -0.045177045177045176, 0.1575091575091575, 0.12087912087912088, 0.03125, 0.0, 0.0, 1.0
880, -0.018315018315018316, 0.029304029304029304, -0.08058608058608059, 0.09375, 0.0, 0.0, 1.0
881, 0.05982905982905983, -0.0463980463980464, -0.2087912087912088, 0.03125, 0.03125, 0.0, 1.0
882, 0.10500610500610501, -0.10866910866910867, -0.3052503052503053, 0.0, 0.0, 0.0, 1.0
883, 0.050061050061050064, -0.13675213675213677, -0.33455433455433453, -0.15625, 0.0, 0.0, 0.0
884, -0.10622710622710622, -0.18192918192918192, -0.37606837606837606, -0.3125, 0.03125, 0.0, 0.0
885, -0.08669108669108669, 0.24175824175824176, -0.15995115995115994, -0.4375, 0.09375, 0.0, 0.0
886, -0.10378510378510379, 0.3028083028083028, 0.040293040293040296, -0.375, 0.0625, 0.0, 0.0
887, -0.0757020757020757, 0.10256410256410256, 0.07326007326007326, -0.28125, 0.0, 0.0, 0.0
888, -0.029304029304029304, 0.13675213675213677, 0.1623931623931624, -0.21875, -0.03125, -0.03125, 0.0
889, -0.1575091575091575, 0.15384615384615385, 0.03663003663003663, -0.15625, -0.03125, 0.0, 0.0
890, -0.015873015873015872, 0.002442002442002442, 0.014652014652014652, -0.0625, 0.0, 0.0, 0.0
891, 0.007326007326007326, -0.002442002442002442, -0.047619047619047616, -0.03125, 0.0, 0.03125, 0.0
892, -0.014652014652014652, 0.07448107448107448, -0.10378510378510379, -0.03125, 0.0, 0.0625, 0.0
893, 0.07081807081807082, -0.0757020757020757, -0.20512820512820512, -0.03125, 0.0, 0.0625, 0.0
894, 0.1391941391941392, -0.05616605616605617, -0.2954822954822955, -0.0625, 0.0, 0.0625, 0.0
895, 0.3089133089133089, -0.13064713064713065, -0.21001221001221002, -0.09375, -0.0625, 0.03125, 0.0
896, 0.06715506715506715, -0.004884004884004884, -0.23809523809523808, -0.03125, -0.09375, 0.03125, 0.0
897, -0.01098901098901099, 0.04395604395604396, -0.24175824175824176, 0.0, -0.03125, 0.0625, 0.0
898, 0.03296703296703297, -0.03907203907203907, -0.2673992673992674, -0.03125, 0.0, 0.0625, 0.0
899, 0.21001221001221002, -0.13675213675213677, -0.18437118437118438, -0.125, 0.03125, 0.0625, 0.0
900, 0.231990231990232, -0.03907203907203907, 0.029304029304029304, -0.15625, 0.0, 0.03125, 0.0
901, 0.3504273504273504, 0.014652014652014652, 0.14774114774114774, -0.0625, -0.0625, 0.0625, 0.0
902, 0.047619047619047616, 0.008547008547008548, 0.013431013431013432, 0.0, -0.09375, 0.0625, 0.0
903, -0.019536019536019536, -0.07448107448107448, -0.10378510378510379, 0.0, 0.0, 0.03125, 0.0
904, 0.15262515262515264, -0.05128205128205128, -0.014652014652014652, -0.03125, 0.0625, 0.03125, 0.0
905, 0.052503052503052504, 0.050061050061050064, 0.0757020757020757, -0.03125, 0.0, 0.03125, 0.0
906, 0.03540903540903541, 0.030525030525030524, 0.047619047619047616, 0.0, -0.0625, 0.03125, 0.0
907, -0.12332112332112333, -0.009768009768009768, -0.1221001221001221, 0.0, -0.0625, 0.03125, 0.0
908, 0.013431013431013432, -0.05982905982905983, -0.23809523809523808, 0.0, 0.0, 0.03125, 0.0
909, 0.006105006105006105, -0.026862026862026864, -0.23809523809523808, -0.03125, 0.0, 0.03125, 0.0
910, 0.02442002442002442, 0.040293040293040296, -0.17582417582417584, -0.0625, 0.0, 0.03125, 0.0
911, -0.057387057387057384, 0.03418803418803419, -0.09157509157509157, -0.0625, -0.03125, 0.03125, 0.0
912, -0.0989010989010989, 0.1111111111111111, -0.07448107448107448, -0.03125, 0.0, 0.03125, 0.0
913, -0.11233211233211234, 0.11965811965811966, -0.050061050061050064, 0.0, 0.0, 0.09375, 0.0
914, -0.11355311355311355, -0.07814407814407814, -0.17216117216117216, -0.03125, 0.03125, 0.09375, 0.0
915, 0.020757020757020756, -0.031746031746031744, -0.03540903540903541, -0.09375, 0.03125, 0.09375, 0.0
916, 0.14774114774114774, 0.10989010989010989, 0.17704517704517705, -0.03125, -0.0625, 0.09375, 0.0
917, -0.017094017094017096, 0.16605616605616605, 0.32722832722832723, 0.0, -0.125, 0.125, 0.0
918, -0.026862026862026864, 0.0695970695970696, 0.3516483516483517, 0.03125, -0.09375, 0.125, 0.0
919, 0.1111111111111111, -0.12698412698412698, 0.31135531135531136, 0.0, -0.125, 0.09375, 0.0
920, 0.020757020757020756, -0.008547008547008548, 0.31135531135531136, 0.0625, -0.15625, 0.09375, 0.0
921, 0.09157509157509157, 0.1978021978021978, 0.6007326007326007, 0.21875, -0.21875, 0.09375, 0.0
922, 0.23443223443223443, 0.3907203907203907, 1.1037851037851039, 0.40625, -0.375, 0.0625, 1.0
923, 0.07936507936507936, -0.0463980463980464, 0.8412698412698413, 0.40625, -0.40625, 0.09375, 1.0
924, -0.4896214896214896, -0.11965811965811966, 0.09035409035409035, 0.15625, -0.09375, 0.0625, 1.0
925, 1.0073260073260073, -0.05982905982905983, 0.9987789987789988, 0.09375, -0.15625, 0.03125, 1.0
926, 1.7216117216117217, 0.07326007326007326, 1.225885225885226, 0.53125, -0.46875, 0.0, 1.0
927, 2.282051282051282, -0.6947496947496947, -0.06471306471306472, 0.78125, -0.625, -0.125, 1.0
928, 2.802197802197802, -0.9084249084249084, -1.0805860805860805, 0.71875, -0.6875, -0.3125, 1.0
929, 3.0805860805860807, -0.6373626373626373, -1.708180708180708, 0.53125, -0.5625, -0.59375, 1.0
930, 3.3724053724053724, -0.7435897435897436, -2.451770451770452, 0.5, -0.59375, -0.78125, 1.0
931, 3.0097680097680097, -0.27350427350427353, -3.2918192918192917, 0.5, -0.5625, -1.0, 1.0
932, 3.330891330891331, 0.031746031746031744, -3.664224664224664, 0.53125, -0.375, -1.125, 1.0
933, 3.3235653235653237, -0.05860805860805861, -4.5506715506715505, 0.5, -0.1875, -1.3125, 1.0
934, 3.057387057387057, -0.6495726495726496, -5.362637362637362, 0.4375, 0.0, -1.5625, 1.0
935, 3.2515262515262515, -1.3186813186813187, -5.996336996336996, 0.21875, 0.0625, -1.8125, 1.0
936, 2.923076923076923, -1.778998778998779, -6.557997557997558, -0.03125, 0.0, -2.125, 1.0
937, 1.4334554334554335, -1.9975579975579976, -6.5958485958485955, -0.5, 0.1875, -2.53125, 1.0
938, -0.6752136752136753, -1.0012210012210012, -6.225885225885226, -0.625, 0.46875, -2.65625, 1.0
939, -1.8241758241758241, -0.336996336996337, -6.123321123321123, -0.65625, 0.65625, -2.625, 1.0
940, -1.5836385836385836, -0.8363858363858364, -6.47985347985348, -0.96875, 0.46875, -2.53125, 1.0
941, -2.409035409035409, -2.227106227106227, -6.9523809523809526, -1.65625, 0.15625, -2.40625, 1.0
942, -4.323565323565323, -2.584859584859585, -6.394383394383395, -2.28125, 0.1875, -2.21875, 1.0
943, -5.295482295482295, -2.387057387057387, -5.070818070818071, -2.4375, 0.46875, -1.90625, 1.0
944, -6.125763125763126, -3.227106227106227, -3.8803418803418803, -2.4375, 0.8125, -1.59375, 1.0
945, -6.029304029304029, -4.365079365079365, -2.5885225885225887, -2.59375, 0.96875, -1.28125, 1.0
946, -6.605616605616605, -4.96947496947497, -1.5763125763125763, -2.84375, 0.90625, -1.0, 1.0
947, -7.368742368742368, -4.876678876678877, -0.4835164835164835, -3.0, 0.90625, -0.625, 1.0
948, -7.816849816849817, -4.982905982905983, 0.6996336996336996, -3.03125, 0.90625, -0.25, 1.0
949, -7.437118437118437, -4.588522588522588, 2.873015873015873, -2.96875, 0.625, 0.25, 1.0
950, -7.202686202686203, -4.715506715506716, 3.57997557997558, -2.9375, 0.46875, 0.5625, 1.0
951, -6.774114774114774, -4.3870573870573875, 4.255189255189255, -2.78125, 0.25, 0.90625, 1.0
952, -6.413919413919414, -4.091575091575091, 4.61050061050061, -2.5, 0.0625, 1.25, 1.0
953, -5.661782661782662, -4.239316239316239, 4.764346764346764, -2.1875, -0.125, 1.59375, 1.0
954, -4.880341880341881, -4.272283272283272, 5.042735042735043, -1.90625, -0.375, 1.84375, 1.0
955, -3.9865689865689866, -4.383394383394384, 5.222222222222222, -1.65625, -0.5625, 2.0625, 1.0
956, -2.5982905982905984, -4.390720390720391, 5.373626373626373, -1.46875, -0.8125, 2.21875, 1.0
957, -1.9816849816849818, -3.9682539682539684, 5.261294261294261, -1.28125, -1.15625, 2.34375, 1.0
958, -1.2783882783882783, -3.768009768009768, 5.190476190476191, -1.03125, -1.4375, 2.4375, 1.0
959, -1.1196581196581197, -3.7667887667887667, 5.278388278388278, -0.71875, -1.65625, 2.4375, 1.0
960, -0.6056166056166056, -3.313797313797314, 5.609279609279609, 0.0, -1.6875, 2.46875, 1.0
961, 0.20146520146520147, -3.056166056166056, 5.553113553113553, 0.5, -1.6875, 2.40625, 1.0
962, 0.9536019536019537, -3.247863247863248, 4.981684981684982, 0.875, -1.65625, 2.34375, 1.0
963, 1.8644688644688645, -3.7716727716727716, 4.089133089133089, 1.03125, -1.78125, 2.25, 1.0
964, 2.924297924297924, -4.7484737484737485, 2.9267399267399266, 0.96875, -2.09375, 2.0625, 1.0
965, 2.6654456654456653, -4.809523809523809, 2.2234432234432235, 0.90625, -2.15625, 1.78125, 1.0
966, 2.503052503052503, -3.2515262515262515, 2.402930402930403, 1.34375, -1.84375, 1.5625, 1.0
967, 2.7313797313797314, -2.6910866910866913, 2.3504273504273505, 1.90625, -1.4375, 1.375, 1.0
968, 3.894993894993895, -2.492063492063492, 1.42002442002442, 2.15625, -1.3125, 1.1875, 1.0
969, 4.078144078144078, -2.7606837606837606, 0.07692307692307693, 2.0, -1.3125, 1.0, 1.0
970, 4.474969474969475, -2.6678876678876677, -0.5518925518925519, 1.78125, -1.25, 0.71875, 1.0
971, 4.63980463980464, -1.9511599511599511, -0.6190476190476191, 1.75, -1.1875, 0.4375, 1.0
972, 4.174603174603175, -1.1452991452991452, -2.573870573870574, 1.96875, -0.84375, 0.09375, 1.0
973, 4.672771672771673, -1.531135531135531, -3.4017094017094016, 1.84375, -0.59375, -0.09375, 1.0
974, 4.798534798534798, -1.3577533577533578, -3.421245421245421, 1.53125, -0.5, -0.40625, 1.0
975, 3.039072039072039, -0.16117216117216118, -4.108669108669108, 1.40625, -0.46875, -0.6875, 1.0
976, 1.807081807081807, -0.1343101343101343, -4.390720390720391, 1.46875, -0.25, -0.8125, 1.0
977, 1.1941391941391941, -0.054945054945054944, -3.645909645909646, 1.34375, 0.03125, -0.9375, 1.0
978, 1.15995115995116, 0.19413919413919414, -2.485958485958486, 1.125, 0.21875, -1.0625, 1.0
979, 0.4188034188034188, 0.7753357753357754, -2.010989010989011, 0.96875, 0.15625, -1.21875, 1.0
980, -0.9536019536019537, 1.231990231990232, -2.6043956043956045, 1.0625, -0.0625, -1.28125, 1.0
981, -1.894993894993895, 0.8400488400488401, -3.681318681318681, 1.0625, -0.0625, -1.21875, 1.0
982, -2.1245421245421245, 0.35775335775335776, -4.329670329670329, 0.90625, 0.0, -1.1875, 1.0
983, -2.916971916971917, 0.778998778998779, -4.444444444444445, 0.625, 0.125, -1.15625, 1.0
984, -3.039072039072039, 1.1855921855921856, -3.879120879120879, 0.375, 0.25, -0.96875, 1.0
985, -3.2808302808302807, 1.3345543345543345, -3.2857142857142856, 0.28125, 0.1875, -0.8125, 1.0
986, -3.387057387057387, 1.3052503052503053, -2.8253968253968256, 0.21875, 0.125, -0.59375, 1.0
987, -3.0683760683760686, 0.9267399267399268, -2.399267399267399, 0.125, 0.09375, -0.46875, 1.0
988, -2.800976800976801, 0.5335775335775336, -2.057387057387057, 0.0, 0.09375, -0.34375, 1.0
989, -2.133089133089133, 0.39316239316239315, -1.3174603174603174, -0.0625, 0.0, -0.28125, 1.0
990, -1.7826617826617828, 0.20512820512820512, -0.9181929181929182, -0.125, -0.03125, -0.21875, 1.0
991, -1.199023199023199, 0.1111111111111111, -0.4175824175824176, -0.09375, -0.125, -0.21875, 1.0
992, -1.0463980463980465, 0.08791208791208792, -0.3028083028083028, -0.0625, -0.125, -0.1875, 1.0
993, -0.7997557997557998, 0.08424908424908426, -0.08547008547008547, 0.0, -0.09375, -0.1875, 1.0
994, -0.42002442002442003, 0.04884004884004884, -0.03540903540903541, 0.0, -0.125, -0.15625, 1.0
995, -0.2600732600732601, 0.0, -0.04395604395604396, 0.0, -0.15625, -0.125, 1.0
996, 0.06715506715506715, -0.015873015873015872, -0.19291819291819293, -0.03125, -0.21875, -0.09375, 1.0
997, 0.17338217338217338, 0.042735042735042736, -0.03663003663003663, -0.03125, -0.1875, -0.0625, 1.0
998, 0.13797313797313798, 0.03663003663003663, 0.06471306471306472, 0.0, -0.1875, -0.0625, 1.0
999, 0.12576312576312576, -0.03418803418803419, 0.009768009768009768, 0.03125, -0.09375, -0.03125, 1.0
1000, 0.34676434676434675, -0.17582417582417584, -0.0463980463980464, 0.0, -0.03125, -0.03125, 1.0
1001, 0.026862026862026864, 0.057387057387057384, 0.10378510378510379, 0.0, -0.03125, -0.03125, 1.0
1002, 0.38705738705738707, -0.2026862026862027, 0.06471306471306472, 0.03125, -0.03125, 0.0, 1.0
1003, 0.04151404151404151, -0.13064713064713065, -0.14652014652014653, 0.0, -0.0625, 0.0, 1.0
1004, 0.20512820512820512, -0.10378510378510379, -0.16605616605616605, -0.03125, 0.0, 0.0, 1.0
1005, 0.006105006105006105, -0.01098901098901099, -0.24053724053724054, -0.0625, 0.0, 0.0, 1.0
1006, 0.06593406593406594, -0.03907203907203907, -0.3052503052503053, -0.09375, 0.03125, 0.0, 1.0
1007, 0.057387057387057384, -0.047619047619047616, -0.3626373626373626, -0.21875, 0.125, 0.0, 0.0
1008, 0.02442002442002442, -0.042735042735042736, -0.20757020757020758, -0.25, 0.125, 0.0, 0.0
1009, 0.02197802197802198, -0.006105006105006105, 0.017094017094017096, -0.1875, 0.03125, -0.03125, 0.0
1010, 0.4053724053724054, -0.36507936507936506, 0.12087912087912088, -0.125, -0.03125, -0.03125, 0.0
1011, -0.23687423687423687, 0.1794871794871795, 0.10256410256410256, -0.0625, -0.03125, -0.03125, 0.0
1012, -0.2588522588522589, -0.14041514041514042, -0.115995115995116, -0.125, 0.0, -0.09375, 0.0
1013, -0.32112332112332115, 0.015873015873015872, -0.17338217338217338, -0.1875, 0.0, -0.09375, 0.0
1014, -0.18803418803418803, 0.41147741147741146, 0.18681318681318682, 0.0, -0.03125, -0.03125, 0.0
1015, -0.4981684981684982, 0.33821733821733824, -0.14163614163614163, 0.125, 0.0, 0.0, 0.0
1016, -0.2148962148962149, -0.05616605616605617, -0.3882783882783883, 0.0625, 0.0625, 0.0, 0.0
1017, 0.07326007326007326, -0.07936507936507936, -0.37606837606837606, -0.09375, 0.0, 0.03125, 0.0
1018, -0.06349206349206349, 0.08547008547008547, -0.23565323565323565, -0.15625, -0.09375, 0.03125, 0.0
1019, -0.1282051282051282, 0.18803418803418803, -0.031746031746031744, 0.0, -0.0625, 0.0625, 0.0
1020, 0.05372405372405373, -0.02442002442002442, -0.15018315018315018, 0.03125, 0.0, 0.0625, 0.0
1021, 0.06471306471306472, -0.06593406593406594, -0.1746031746031746, 0.0, 0.0, 0.0625, 0.0
1022, 0.2625152625152625, -0.18437118437118438, -0.1221001221001221, -0.03125, 0.0, 0.0625, 0.0
1023, 0.16361416361416362, -0.018315018315018316, 0.06227106227106227, -0.09375, -0.03125, 0.03125, 0.0
1024, -0.009768009768009768, 0.14774114774114774, 0.10866910866910867, -0.0625, -0.09375, 0.03125, 0.0
1025, 0.018315018315018316, 0.03540903540903541, 0.017094017094017096, 0.0, -0.03125, 0.03125, 0.0
1026, 0.09645909645909646, -0.01098901098901099, 0.05982905982905983, 0.0, -0.03125, 0.0625, 0.0
1027, 0.05860805860805861, -0.026862026862026864, 0.017094017094017096, 0.03125, -0.03125, 0.0625, 0.0
1028, 0.047619047619047616, 0.05860805860805861, 0.08669108669108669, 0.0, 0.0, 0.0625, 0.0
1029, 0.17826617826617827, -0.002442002442002442, 0.17704517704517705, 0.03125, 0.0, 0.0625, 0.0
1030, 0.057387057387057384, 0.019536019536019536, 0.0695970695970696, 0.0, -0.125, 0.03125, 0.0
1031, -0.14163614163614163, 0.2039072039072039, 0.1282051282051282, 0.0, -0.0625, 0.0625, 0.0
1032, -0.031746031746031744, 0.14896214896214896, 0.1855921855921856, 0.09375, -0.03125, 0.03125, 0.0
1033, 0.16727716727716727, -0.03785103785103785, 0.13797313797313798, 0.09375, -0.0625, 0.0, 0.0
1034, 0.05372405372405373, 0.007326007326007326, -0.06593406593406594, 0.09375, -0.09375, 0.03125, 0.0
1035, 0.11843711843711843, -0.08547008547008547, -0.3333333333333333, 0.03125, -0.09375, 0.0, 0.0
1036, 0.12698412698412698, -0.014652014652014652, -0.3431013431013431, 0.0, -0.09375, 0.0, 0.0
1037, -0.002442002442002442, 0.08424908424908426, -0.33455433455433453, 0.0, -0.0625, 0.0, 0.0
1038, 0.05372405372405373, 0.2844932844932845, -0.10866910866910867, 0.09375, -0.0625, 0.0, 0.0
1039, -0.10866910866910867, 0.14407814407814407, -0.38705738705738707, 0.09375, -0.03125, 0.0, 0.0
1040, 0.018315018315018316, -0.028083028083028084, -0.41514041514041516, 0.0, 0.0, 0.0, 0.0
1041, -0.001221001221001221, 0.08669108669108669, -0.23076923076923078, -0.03125, -0.03125, 0.0, 0.0
1042, -0.29304029304029305, 0.40293040293040294, 0.1794871794871795, 0.0, -0.09375, 0.0, 0.0
1043, -0.004884004884004884, 0.07326007326007326, 0.22832722832722832, 0.09375, -0.0625, 0.03125, 0.0
1044, -0.057387057387057384, 0.07081807081807082, 0.19291819291819293, 0.0625, -0.15625, 0.0625, 0.0
1045, 0.03907203907203907, 0.052503052503052504, 0.27350427350427353, 0.03125, -0.1875, 0.125, 0.0
1046, 0.29181929181929184, -0.018315018315018316, 0.27350427350427353, 0.0625, -0.21875, 0.09375, 0.0
1047, 0.6068376068376068, -0.05982905982905983, 0.5482295482295483, 0.15625, -0.3125, 0.0625, 0.0
1048, 0.7545787545787546, 0.13553113553113552, 0.7619047619047619, 0.28125, -0.34375, -0.03125, 1.0
1049, 0.9255189255189256, 0.1221001221001221, 0.6288156288156288, 0.40625, -0.375, -0.0625, 1.0
1050, 1.2503052503052503, -0.08180708180708181, 0.12576312576312576, 0.5, -0.3125, -0.15625, 1.0
1051, 2.057387057387057, -0.06227106227106227, -0.3076923076923077, 0.5625, -0.3125, -0.1875, 1.0
1052, 2.2954822954822953, -0.10378510378510379, -0.9804639804639804, 0.6875, -0.46875, -0.3125, 1.0
1053, 2.442002442002442, -0.47741147741147744, -2.086691086691087, 0.84375, -0.375, -0.5, 1.0
1054, 2.7374847374847375, -0.7619047619047619, -3.5567765567765566, 0.84375, 0.125, -0.8125, 1.0
1055, 3.3907203907203907, -0.9487179487179487, -4.677655677655678, 0.78125, 0.21875, -1.09375, 1.0
1056, 3.855921855921856, -1.6605616605616607, -5.681318681318682, 0.5, 0.0, -1.375, 1.0
1057, 3.31013431013431, -1.971916971916972, -6.367521367521367, 0.0625, -0.0625, -1.71875, 1.0
1058, 2.385836385836386, -1.0793650793650793, -6.175824175824176, 0.0, 0.1875, -1.96875, 1.0
1059, 0.8266178266178266, -0.7814407814407814, -6.656898656898657, 0.15625, 0.90625, -2.1875, 1.0
1060, 1.3333333333333333, -2.236874236874237, -6.757020757020757, -0.09375, 1.09375, -2.4375, 1.0
1061, 1.1123321123321124, -3.3956043956043955, -6.328449328449328, -0.96875, 0.4375, -2.6875, 1.0
1062, -1.7142857142857142, -2.1306471306471306, -5.2063492063492065, -1.59375, 0.15625, -2.71875, 1.0
1063, -3.987789987789988, -0.8315018315018315, -4.347985347985348, -1.5, 0.53125, -2.59375, 1.0
1064, -4.285714285714286, -1.3443223443223444, -3.9621489621489623, -1.3125, 0.75, -2.34375, 1.0
1065, -4.294261294261294, -2.5641025641025643, -3.5225885225885225, -1.875, 0.40625, -1.96875, 1.0
1066, -5.891330891330892, -3.282051282051282, -2.786324786324786, -2.375, 0.3125, -1.65625, 1.0
1067, -6.5958485958485955, -3.484737484737485, -1.695970695970696, -2.5625, 0.5, -1.3125, 1.0
1068, -6.763125763125763, -3.5982905982905984, -0.09768009768009768, -2.5625, 0.71875, -0.9375, 1.0
1069, -6.768009768009768, -3.8705738705738706, 1.308913308913309, -2.4375, 0.78125, -0.625, 1.0
1070, -6.818070818070818, -3.907203907203907, 2.286935286935287, -2.40625, 0.71875, -0.28125, 1.0
1071, -6.490842490842491, -3.948717948717949, 3.114774114774115, -2.4375, 0.46875, 0.0, 1.0
1072, -6.548229548229548, -3.6764346764346763, 3.7545787545787546, -2.40625, 0.21875, 0.28125, 1.0
1073, -6.227106227106227, -3.0976800976800978, 4.329670329670329, -2.25, 0.0625, 0.65625, 1.0
1074, -5.962148962148962, -2.9157509157509156, 4.677655677655678, -2.03125, -0.03125, 1.0, 1.0
1075, -5.13919413919414, -3.0671550671550674, 5.096459096459096, -1.71875, -0.125, 1.3125, 1.0
1076, -4.815628815628815, -2.67032967032967, 5.013431013431013, -1.34375, -0.25, 1.59375, 1.0
1077, -3.5763125763125765, -3.056166056166056, 4.836385836385836, -1.125, -0.34375, 1.875, 1.0
1078, -2.202686202686203, -3.0793650793650795, 4.892551892551893, -1.28125, -0.65625, 2.0625, 1.0
1079, -0.47741147741147744, -3.5811965811965814, 5.203907203907204, -1.625, -1.53125, 2.125, 1.0
1080, -1.315018315018315, -2.311355311355311, 5.354090354090354, -1.28125, -1.8125, 2.09375, 1.0
1081, -2.0268620268620268, -1.1233211233211233, 5.17948717948718, 0.0, -1.09375, 2.0625, 1.0
1082, -0.3956043956043956, -2.1855921855921854, 4.6068376068376065, 0.96875, -0.625, 2.0, 1.0
1083, 1.894993894993895, -4.164835164835165, 3.3382173382173383, 1.0, -0.90625, 1.90625, 1.0
1084, 3.0488400488400487, -4.982905982905983, 2.4957264957264957, 0.28125, -1.6875, 1.65625, 1.0
1085, 1.5543345543345544, -2.827838827838828, 2.4761904761904763, 0.28125, -1.71875, 1.53125, 1.0
1086, 1.3199023199023199, -1.5457875457875458, 2.9511599511599513, 0.90625, -1.4375, 1.4375, 1.0
1087, 1.612942612942613, -1.7448107448107448, 2.724053724053724, 1.375, -1.1875, 1.375, 1.0
1088, 2.382173382173382, -2.860805860805861, 1.6459096459096458, 1.25, -1.28125, 1.21875, 1.0
1089, 2.6483516483516483, -2.318681318681319, 1.0598290598290598, 1.21875, -1.375, 1.09375, 1.0
1090, 2.877899877899878, -1.6605616605616607, 0.8449328449328449, 1.46875, -1.1875, 0.9375, 1.0
1091, 2.5921855921855923, -1.5995115995115996, -0.48717948717948717, 1.75, -0.9375, 0.8125, 1.0
1092, 2.4224664224664223, -1.6385836385836385, -1.3443223443223444, 1.65625, -0.8125, 0.6875, 1.0
1093, 3.1697191697191696, -1.15995115995116, -1.1282051282051282, 1.4375, -0.59375, 0.5625, 1.0
1094, 4.054945054945055, -1.2722832722832722, -0.9768009768009768, 1.3125, -0.46875, 0.40625, 1.0
1095, 3.7655677655677655, -0.7228327228327228, -1.2832722832722834, 1.21875, -0.5625, 0.15625, 1.0
1096, 2.2905982905982905, 0.2661782661782662, -1.6263736263736264, 1.09375, -0.5625, 0.0, 1.0
1097, 1.8192918192918193, 0.21367521367521367, -1.884004884004884, 1.09375, -0.375, -0.0625, 1.0
1098, 2.330891330891331, -0.4590964590964591, -2.241758241758242, 1.15625, -0.09375, -0.15625, 1.0
1099, 2.614163614163614, -0.8717948717948718, -2.6166056166056166, 1.125, -0.0625, -0.375, 1.0
1100, 1.3785103785103785, -0.21978021978021978, -2.722832722832723, 0.875, -0.09375, -0.625, 1.0
1101, 0.5738705738705738, 0.23076923076923078, -2.503052503052503, 0.875, -0.03125, -0.71875, 1.0
1102, -0.1575091575091575, 0.5494505494505495, -2.815628815628816, 0.84375, -0.03125, -0.75, 1.0
1103, -0.7106227106227107, 0.6495726495726496, -3.3882783882783882, 0.71875, -0.0625, -0.75, 1.0
1104, -1.291819291819292, 0.8925518925518926, -3.4358974358974357, 0.625, 0.03125, -0.6875, 1.0
1105, -1.4627594627594627, 0.8156288156288156, -2.901098901098901, 0.5625, 0.1875, -0.6875, 1.0
1106, -1.2063492063492063, 0.34798534798534797, -2.6971916971916974, 0.46875, 0.1875, -0.6875, 1.0
1107, -1.811965811965812, 0.5921855921855922, -2.619047619047619, 0.40625, 0.1875, -0.65625, 1.0
1108, -1.8424908424908424, 0.4078144078144078, -2.705738705738706, 0.21875, 0.0625, -0.5625, 1.0
1109, -1.993894993894994, 0.4432234432234432, -2.313797313797314, 0.0625, 0.0, -0.53125, 1.0
1110, -2.2503052503052503, 0.5787545787545788, -1.8681318681318682, 0.0625, 0.09375, -0.46875, 1.0
1111, -1.9474969474969475, 0.3968253968253968, -1.326007326007326, 0.09375, 0.125, -0.375, 1.0
1112, -2.166056166056166, 0.4346764346764347, -1.3174603174603174, 0.15625, 0.125, -0.28125, 1.0
1113, -1.7777777777777777, 0.2039072039072039, -1.2002442002442002, 0.0625, 0.15625, -0.21875, 1.0
1114, -1.6043956043956045, 0.2673992673992674, -0.8388278388278388, -0.03125, 0.0625, -0.15625, 1.0
1115, -1.4334554334554335, 0.23565323565323565, -0.5531135531135531, -0.03125, 0.0, -0.09375, 1.0
1116, -1.3162393162393162, 0.28815628815628813, -0.23076923076923078, 0.0, 0.0, -0.0625, 1.0
1117, -0.884004884004884, 0.06349206349206349, -0.03907203907203907, 0.0, 0.0, 0.0, 1.0
1118, -0.5811965811965812, -0.026862026862026864, -0.02564102564102564, 0.0, 0.0, 0.0, 1.0
1119, -0.18192918192918192, -0.28083028083028083, -0.1562881562881563, -0.03125, -0.09375, 0.03125, 1.0
1120, 0.01221001221001221, -0.31868131868131866, -0.17582417582417584, -0.0625, -0.125, 0.03125, 1.0
1121, 0.07936507936507936, -0.10134310134310134, 0.031746031746031744, -0.0625, -0.1875, 0.0, 1.0
1122, 0.1221001221001221, -0.09523809523809523, 0.05616605616605617, 0.0, -0.125, 0.0, 1.0
1123, 0.34065934065934067, -0.10622710622710622, 0.14896214896214896, 0.0, -0.09375, -0.03125, 1.0
1124, 0.2783882783882784, -0.004884004884004884, 0.0, 0.0, -0.125, -0.03125, 1.0
1125, 0.39316239316239315, 0.06227106227106227, 0.014652014652014652, 0.0, -0.21875, 0.0, 1.0
1126, 0.05372405372405373, 0.06105006105006105, -0.12332112332112333, 0.0, -0.15625, 0.0, 1.0
1127, 0.3137973137973138, 0.004884004884004884, -0.047619047619047616, 0.0, -0.09375, 0.0, 1.0
1128, 0.2442002442002442, -0.07814407814407814, -0.15262515262515264, 0.0, -0.09375, 0.0, 1.0
1129, 0.20512820512820512, -0.047619047619047616, -0.23687423687423687, 0.0, -0.0625, 0.0, 1.0
1130, 0.047619047619047616, 0.020757020757020756, -0.11355311355311355, 0.0, -0.03125, 0.0, 1.0
1131, 0.03296703296703297, 0.006105006105006105, -0.12087912087912088, 0.0, 0.0, 0.0, 1.0
1132, 0.001221001221001221, 0.01221001221001221, -0.10500610500610501, 0.0, 0.0625, 0.0, 1.0
1133, 0.08058608058608059, -0.14774114774114774, -0.14285714285714285, -0.09375, 0.0625, 0.0, 0.0
1134, 0.13553113553113552, -0.3162393162393162, -0.33943833943833945, -0.28125, 0.0625, -0.03125, 0.0
1135, 0.02564102564102564, 0.057387057387057384, -0.12332112332112333, -0.34375, 0.0625, -0.03125, 0.0
1136, -0.11477411477411477, 0.34676434676434675, 0.23076923076923078, -0.21875, 0.03125, -0.0625, 0.0
1137, 0.019536019536019536, 0.2564102564102564, 0.29426129426129427, -0.03125, -0.125, -0.0625, 0.0
1138, -0.6312576312576312, 0.18315018315018314, 0.09645909645909646, 0.0, -0.25, -0.03125, 0.0
1139, -0.7777777777777778, 0.2698412698412698, -0.2564102564102564, 0.03125, -0.0625, 0.0, 0.0
1140, -0.2490842490842491, 0.05372405372405373, -0.398046398046398, 0.09375, 0.15625, 0.03125, 0.0
1141, 0.2515262515262515, -0.20757020757020758, -0.3492063492063492, 0.09375, 0.15625, 0.0625, 0.0
1142, 0.07814407814407814, -0.009768009768009768, -0.2673992673992674, -0.03125, 0.0, 0.03125, 0.0
1143, -0.10012210012210013, 0.031746031746031744, -0.3333333333333333, -0.0625, -0.09375, 0.0, 0.0
1144, -0.11477411477411477, 0.12698412698412698, -0.28327228327228327, -0.0625, -0.03125, 0.0, 0.0
1145, -0.16727716727716727, 0.18315018315018314, -0.23565323565323565, -0.0625, 0.0, 0.0, 0.0
1146, -0.09035409035409035, 0.17826617826617827, -0.06471306471306472, 0.0, 0.03125, 0.03125, 0.0
1147, -0.07448107448107448, 0.14285714285714285, -0.004884004884004884, 0.03125, 0.03125, 0.0625, 0.0
1148, 0.18925518925518925, -0.1855921855921856, -0.08913308913308914, 0.0, 0.0, 0.0625, 0.0
1149, 0.06349206349206349, -0.050061050061050064, -0.15384615384615385, -0.0625, -0.0625, 0.03125, 0.0
1150, 0.052503052503052504, -0.020757020757020756, -0.10866910866910867, -0.0625, -0.0625, 0.0625, 0.0
1151, 0.03418803418803419, -0.008547008547008548, -0.0695970695970696, -0.0625, -0.03125, 0.03125, 0.0
1152, 0.12698412698412698, 0.07814407814407814, 0.25518925518925517, -0.03125, -0.0625, 0.03125, 0.0
1153, -0.028083028083028084, 0.0757020757020757, 0.24786324786324787, 0.0, -0.09375, 0.0625, 0.0
1154, 0.017094017094017096, 0.040293040293040296, 0.21001221001221002, 0.0, -0.09375, 0.0625, 0.0
1155, -0.006105006105006105, 0.002442002442002442, -0.003663003663003663, 0.0, -0.09375, 0.0625, 0.0
1156, 0.15384615384615385, 0.015873015873015872, 0.047619047619047616, 0.0, -0.15625, 0.0625, 0.0
1157, 0.06105006105006105, 0.031746031746031744, 0.008547008547008548, 0.0, -0.15625, 0.0625, 0.0
1158, 0.10866910866910867, -0.030525030525030524, 0.0757020757020757, 0.0, -0.15625, 0.0625, 0.0
1159, -0.05372405372405373, 0.11965811965811966, -0.04395604395604396, 0.0, -0.0625, 0.0625, 0.0
1160, 0.08791208791208792, 0.007326007326007326, -0.054945054945054944, 0.0, -0.0625, 0.09375, 0.0
1161, 0.03785103785103785, 0.06471306471306472, 0.14285714285714285, 0.0, -0.15625, 0.0625, 0.0
1162, -0.014652014652014652, 0.1282051282051282, 0.1978021978021978, 0.0625, -0.1875, 0.0625, 0.0
1163, -0.009768009768009768, 0.1343101343101343, 0.22954822954822954, 0.125, -0.15625, 0.0625, 0.0
1164, 0.17094017094017094, 0.019536019536019536, 0.1562881562881563, 0.15625, -0.15625, 0.0625, 0.0
1165, 0.336996336996337, -0.12332112332112333, 0.31746031746031744, 0.15625, -0.1875, 0.0625, 0.0
1166, 0.4163614163614164, 0.057387057387057384, 0.8156288156288156, 0.15625, -0.28125, 0.0, 0.0
1167, 0.3833943833943834, 0.518925518925519, 1.3137973137973138, 0.3125, -0.4375, 0.0, 1.0
1168, 0.6019536019536019, 0.2698412698412698, 0.8485958485958486, 0.5, -0.5, 0.0625, 1.0
1169, 1.3015873015873016, -0.17338217338217338, 0.26373626373626374, 0.625, -0.375, 0.0, 1.0
1170, 2.838827838827839, -0.5299145299145299, -0.06837606837606838, 0.65625, -0.65625, -0.28125, 1.0
1171, 3.3553113553113554, 0.0, -0.8705738705738706, 0.75, -0.8125, -0.46875, 1.0
1172, 3.3321123321123323, -0.17216117216117216, -2.2063492063492065, 0.90625, -0.6875, -0.75, 1.0
1173, 2.884004884004884, -0.652014652014652, -3.7655677655677655, 0.9375, -0.1875, -1.03125, 1.0
1174, 2.989010989010989, -0.9304029304029304, -4.973137973137973, 0.96875, 0.28125, -1.34375, 1.0
1175, 3.484737484737485, -1.4578754578754578, -5.556776556776557, 0.875, 0.3125, -1.59375, 1.0
1176, 3.253968253968254, -2.3174603174603177, -6.08058608058608, 0.53125, 0.09375, -1.9375, 1.0
1177, 1.9877899877899878, -2.5006105006105006, -6.526251526251526, 0.0, -0.09375, -2.21875, 1.0
1178, 0.02442002442002442, -1.8192918192918193, -6.7765567765567765, -0.375, -0.0625, -2.3125, 1.0
1179, -1.21001221001221, -1.0744810744810744, -6.727716727716728, -0.65625, 0.125, -2.28125, 1.0
1180, -1.15018315018315, -1.4053724053724053, -6.518925518925519, -1.03125, 0.03125, -2.25, 1.0
1181, -2.617826617826618, -2.0415140415140414, -6.844932844932845, -1.75, 0.0, -2.0625, 1.0
1182, -5.345543345543345, -2.0683760683760686, -5.6642246642246645, -2.125, 0.34375, -1.8125, 1.0
1183, -6.294261294261294, -2.6275946275946276, -4.3699633699633695, -2.375, 0.65625, -1.46875, 1.0
1184, -6.283272283272283, -3.305250305250305, -2.6202686202686203, -2.5625, 1.03125, -1.09375, 1.0
1185, -6.451770451770452, -3.7643467643467643, -0.8852258852258852, -2.6875, 1.125, -0.78125, 1.0
1186, -7.014652014652015, -3.8351648351648353, 0.5079365079365079, -2.71875, 1.03125, -0.5, 1.0
1187, -7.31990231990232, -3.7887667887667886, 1.7533577533577533, -2.6875, 0.96875, -0.1875, 1.0
1188, -7.424908424908425, -3.744810744810745, 2.8913308913308913, -2.65625, 0.84375, 0.09375, 1.0
1189, -6.9743589743589745, -4.012210012210012, 3.5653235653235655, -2.59375, 0.5625, 0.375, 1.0
1190, -6.891330891330892, -3.688644688644689, 4.006105006105006, -2.59375, 0.1875, 0.65625, 1.0
1191, -6.308913308913309, -3.442002442002442, 4.628815628815629, -2.5, -0.0625, 0.96875, 1.0
1192, -6.045177045177045, -3.15995115995116, 4.892551892551893, -2.28125, -0.34375, 1.25, 1.0
1193, -5.656898656898657, -2.9365079365079363, 4.857142857142857, -1.6875, -0.40625, 1.625, 1.0
1194, -4.638583638583639, -2.9474969474969477, 4.96947496947497, -1.34375, -0.34375, 1.84375, 1.0
1195, -3.385836385836386, -3.183150183150183, 4.9181929181929185, -1.125, -0.46875, 2.0, 1.0
1196, -2.1709401709401708, -3.3785103785103785, 4.725274725274725, -1.125, -0.84375, 2.125, 1.0
1197, -1.3540903540903542, -3.0195360195360195, 4.688644688644689, -1.0625, -1.28125, 2.21875, 1.0
1198, -0.9474969474969475, -2.821733821733822, 4.553113553113553, -0.90625, -1.4375, 2.25, 1.0
1199, -0.5604395604395604, -2.6092796092796093, 4.621489621489621, -0.625, -1.40625, 2.21875, 1.0
1200, 0.5470085470085471, -2.432234432234432, 4.9181929181929185, -0.1875, -1.46875, 2.15625, 1.0
1201, 1.225885225885226, -2.452991452991453, 4.936507936507937, 0.3125, -1.53125, 2.0625, 1.0
1202, 2.4249084249084247, -3.2967032967032965, 4.0256410256410255, 0.59375, -1.71875, 1.90625, 1.0
1203, 3.4444444444444446, -3.78021978021978, 3.0366300366300365, 0.59375, -1.96875, 1.71875, 1.0
1204, 3.431013431013431, -3.380952380952381, 2.1355311355311355, 0.71875, -1.84375, 1.4375, 1.0
1205, 3.498168498168498, -3.156288156288156, 1.2283272283272284, 1.21875, -1.40625, 1.03125, 1.0
1206, 3.4884004884004884, -2.978021978021978, 1.181929181929182, 1.46875, -1.1875, 0.84375, 1.0
1207, 4.054945054945055, -1.7716727716727716, 1.098901098901099, 1.65625, -1.15625, 0.65625, 1.0
1208, 3.7313797313797314, -1.8192918192918193, -0.12454212454212454, 1.75, -1.09375, 0.46875, 1.0
1209, 3.7826617826617825, -1.8998778998778998, -1.10989010989011, 1.625, -0.9375, 0.25, 1.0
1210, 3.5714285714285716, -1.8742368742368742, -1.431013431013431, 1.5, -0.78125, 0.0625, 1.0
1211, 3.2295482295482296, -1.2503052503052503, -1.1452991452991452, 1.46875, -0.5625, -0.15625, 1.0
1212, 2.8290598290598292, -0.2869352869352869, -0.7814407814407814, 1.5625, -0.34375, -0.34375, 1.0
1213, 2.6788766788766787, 0.03296703296703297, -1.431013431013431, 1.625, -0.3125, -0.4375, 1.0
1214, 2.584859584859585, -0.7081807081807082, -2.686202686202686, 1.53125, -0.34375, -0.5625, 1.0
1215, 2.3174603174603177, -0.7973137973137974, -3.4676434676434678, 1.1875, -0.28125, -0.75, 1.0
1216, 1.089133089133089, 0.2612942612942613, -3.6556776556776556, 1.03125, -0.09375, -1.03125, 1.0
1217, -0.5201465201465202, 1.3601953601953602, -3.645909645909646, 1.09375, 0.25, -1.0, 1.0
1218, -0.3540903540903541, 1.358974358974359, -2.929181929181929, 1.125, 0.40625, -0.96875, 1.0
1219, -0.0927960927960928, 0.8253968253968254, -3.0671550671550674, 0.96875, 0.25, -1.0, 1.0
1220, -0.7777777777777778, 0.7277167277167277, -3.896214896214896, 0.6875, 0.09375, -0.9375, 1.0
1221, -1.5824175824175823, 0.8974358974358975, -4.2002442002442, 0.4375, 0.125, -0.90625, 1.0
1222, -1.8766788766788767, 1.2039072039072038, -3.5274725274725274, 0.40625, 0.28125, -0.875, 1.0
1223, -1.9206349206349207, 0.9084249084249084, -2.8485958485958487, 0.375, 0.375, -0.875, 1.0
1224, -2.3675213675213675, 0.7997557997557998, -2.8107448107448105, 0.25, 0.3125, -0.8125, 1.0
1225, -2.855921855921856, 0.8766788766788767, -2.733821733821734, 0.0625, 0.1875, -0.6875, 1.0
1226, -3.380952380952381, 1.0854700854700854, -2.3015873015873014, 0.0, 0.21875, -0.53125, 1.0
1227, -3.213675213675214, 0.9291819291819292, -1.6373626373626373, -0.03125, 0.3125, -0.4375, 1.0
1228, -2.41025641025641, 0.30036630036630035, -0.5518925518925519, 0.0, 0.25, -0.28125, 1.0
1229, -1.982905982905983, -0.03907203907203907, -0.35775335775335776, 0.0, 0.1875, -0.21875, 1.0
1230, -1.6825396825396826, -0.11965811965811966, -0.07936507936507936, -0.03125, 0.0625, -0.1875, 1.0
1231, -1.3137973137973138, -0.16361416361416362, 0.2087912087912088, -0.03125, 0.0, -0.15625, 1.0
1232, -0.9010989010989011, -0.12454212454212454, 0.4078144078144078, 0.0, -0.03125, -0.125, 1.0
1233, -0.7081807081807082, -0.07814407814407814, 0.3992673992673993, 0.0625, -0.0625, -0.125, 1.0
1234, -0.3785103785103785, -0.11843711843711843, 0.15995115995115994, 0.09375, -0.03125, -0.09375, 1.0
1235, -0.03540903540903541, -0.12332112332112333, 0.03907203907203907, 0.03125, -0.09375, -0.09375, 1.0
1236, -0.16361416361416362, 0.08791208791208792, -0.115995115995116, 0.0, -0.21875, -0.09375, 1.0
1237, -0.15018315018315018, 0.32234432234432236, -0.0757020757020757, 0.0, -0.21875, -0.0625, 1.0
1238, -0.34065934065934067, 0.37606837606837606, -0.18803418803418803, 0.09375, -0.125, 0.0, 1.0
1239, 0.017094017094017096, 0.1684981684981685, -0.19291819291819293, 0.125, 0.03125, 0.0, 1.0
1240, 0.31135531135531136, -0.03296703296703297, -0.25518925518925517, 0.0625, 0.0, 0.0, 1.0
1241, 0.3199023199023199, -0.11233211233211234, -0.2869352869352869, 0.0, -0.0625, 0.03125, 1.0
1242, 0.12454212454212454, -0.047619047619047616, -0.2893772893772894, 0.0, 0.0, 0.03125, 1.0
1243, 0.16727716727716727, -0.12454212454212454, -0.3431013431013431, 0.0, 0.0, 0.03125, 1.0
1244, 0.008547008547008548, -0.09523809523809523, -0.40293040293040294, -0.03125, 0.09375, 0.03125, 1.0
1245, 0.18192918192918192, -0.2271062271062271, -0.42857142857142855, -0.125, 0.125, 0.03125, 0.0
1246, 0.10012210012210013, -0.19413919413919414, -0.518925518925519, -0.28125, 0.15625, 0.03125, 0.0
1247, 0.10622710622710622, -0.2087912087912088, -0.442002442002442, -0.375, 0.1875, 0.0, 0.0
1248, 0.1330891330891331, 0.0463980463980464, 0.1391941391941392, -0.34375, 0.1875, 0.0, 0.0
1249, 0.09035409035409035, 0.22344322344322345, 0.115995115995116, -0.21875, 0.0625, -0.0625, 0.0
1250, -0.1221001221001221, 0.326007326007326, 0.336996336996337, -0.09375, -0.03125, 0.0, 0.0
1251, -0.442002442002442, 0.3125763125763126, 0.221001221001221, 0.0625, 0.09375, 0.0, 0.0
1252, -0.028083028083028084, -0.07692307692307693, -0.06593406593406594, 0.0, 0.03125, 0.0, 0.0
1253, -0.18681318681318682, 0.1575091575091575, -0.001221001221001221, -0.03125, 0.0, 0.03125, 0.0
