timestamp, accX, accY, accZ, gyroX, gyroY, gyroZ, button
8959, 0.08058608058608059, -0.040293040293040296, -0.05128205128205128, 0.0, 0.0, 0.0, 0.0
8960, 0.006105006105006105, -0.05982905982905983, -0.08302808302808302, 0.0, 0.0, 0.0, 0.0
8961, 0.030525030525030524, -0.01098901098901099, -0.0927960927960928, 0.0, 0.0, 0.0, 0.0
1, 0.020757020757020756, -0.017094017094017096, -0.0757020757020757, 0.0, 0.0, 0.0, 0.0
2, 0.02442002442002442, -0.05372405372405373, -0.08058608058608059, 0.0, 0.0, 0.0, 0.0
3, 0.04395604395604396, -0.040293040293040296, -0.054945054945054944, 0.0, 0.0, 0.0, 0.0
4, 0.0231990231990232, -0.0463980463980464, -0.06593406593406594, 0.0, 0.0, 0.0, 0.0
5, 0.01098901098901099, -0.07692307692307693, -0.03296703296703297, 0.0, 0.0, 0.0, 0.0
6, -0.003663003663003663, -0.018315018315018316, -0.11965811965811966, 0.0, 0.0, 0.0, 0.0
7, -0.009768009768009768, -0.045177045177045176, -0.09768009768009768, 0.0, 0.0, 0.0, 0.0
8, 0.04151404151404151, -0.057387057387057384, -0.18803418803418803, -0.03125, 0.0, 0.0, 0.0
9, 0.21245421245421245, -0.12698412698412698, -0.09157509157509157, -0.0625, -0.03125, 0.0, 0.0
10, -0.01221001221001221, -0.017094017094017096, -0.06227106227106227, -0.0625, -0.03125, 0.0, 0.0
11, 0.007326007326007326, -0.019536019536019536, -0.08547008547008547, -0.03125, 0.0, 0.0, 0.0
12, 0.031746031746031744, -0.03785103785103785, -0.045177045177045176, -0.0625, 0.0, 0.0, 0.0
13, 0.08669108669108669, -0.07814407814407814, -0.06593406593406594, -0.03125, 0.0, 0.0, 0.0
14, 0.03785103785103785, -0.03663003663003663, -0.08913308913308914, -0.0625, -0.0625, 0.0, 0.0
15, -0.0989010989010989, -0.12454212454212454, -0.27472527472527475, -0.0625, -0.0625, 0.0, 0.0
16, -0.17826617826617827, 0.08547008547008547, -0.12698412698412698, -0.03125, 0.0, 0.0, 0.0
17, 0.9914529914529915, -0.8461538461538461, -0.5079365079365079, -0.125, -0.09375, -0.0625, 0.0
18, -0.019536019536019536, 0.31013431013431014, 0.4993894993894994, -0.28125, -0.34375, -0.125, 0.0
19, 0.04395604395604396, 0.05982905982905983, 0.2442002442002442, -0.03125, -0.15625, -0.125, 0.0
20, -0.40293040293040294, 0.47863247863247865, -0.1452991452991453, 0.03125, -0.1875, -0.03125, 0.0
21, 0.4652014652014652, -0.7130647130647131, 0.199023199023199, 0.0625, -0.03125, 0.0, 0.0
22, 0.13797313797313798, -0.18925518925518925, -0.27350427350427353, 0.0, -0.25, 0.0, 0.0
23, 0.6923076923076923, -0.36996336996337, -0.48595848595848595, -0.0625, -0.28125, -0.09375, 0.0
24, 0.28327228327228327, -0.19413919413919414, -0.36996336996337, -0.15625, -0.25, -0.1875, 0.0
25, -0.017094017094017096, -0.008547008547008548, -0.4126984126984127, -0.1875, -0.125, -0.21875, 0.0
26, -0.0757020757020757, -0.3028083028083028, -0.6910866910866911, -0.28125, -0.0625, -0.21875, 0.0
27, 0.2600732600732601, -0.17216117216117216, -0.19536019536019536, -0.3125, -0.125, -0.25, 0.0
28, 0.1855921855921856, -0.09523809523809523, -0.221001221001221, -0.28125, -0.15625, -0.3125, 0.0
29, 0.6019536019536019, -0.13797313797313798, -0.5885225885225885, -0.46875, -0.15625, -0.4375, 0.0
30, 0.1855921855921856, -0.17094017094017094, -0.7130647130647131, -0.625, -0.09375, -0.625, 0.0
31, -0.5787545787545788, -0.21978021978021978, -1.1074481074481075, -0.5625, 0.125, -0.6875, 0.0
32, -1.2857142857142858, -0.15018315018315018, -1.6446886446886446, -0.53125, 0.5625, -0.6875, 0.0
33, -1.5665445665445665, -0.24786324786324787, -2.4786324786324787, -0.65625, 0.96875, -0.65625, 0.0
34, -0.42124542124542125, 0.5262515262515263, -2.5567765567765566, -0.8125, 1.1875, -0.3125, 0.0
35, 0.14041514041514042, -0.409035409035409, -0.9181929181929182, -0.75, 1.21875, 0.34375, 0.0
36, 0.8876678876678876, 0.10866910866910867, -2.1416361416361416, -0.03125, 1.59375, 0.9375, 0.0
37, 1.2796092796092795, -1.8046398046398047, -2.7753357753357752, 0.40625, 1.8125, 0.3125, 0.0
38, 1.7423687423687424, -1.4493284493284493, -2.3516483516483517, 0.40625, 2.03125, -0.09375, 0.0
39, 2.705738705738706, -2.103785103785104, -1.862026862026862, 0.25, 1.625, -0.28125, 0.0
40, 1.0317460317460319, -0.78998778998779, -0.9462759462759462, 0.09375, 1.03125, 0.0, 0.0
41, 0.7472527472527473, -0.03785103785103785, 0.2515262515262515, 0.46875, 0.96875, 0.09375, 0.0
42, -0.07203907203907203, 0.663003663003663, 2.1697191697191696, 1.125, 0.84375, 0.0, 0.0
43, -0.6776556776556777, -0.945054945054945, 2.4078144078144077, 1.875, 0.84375, -0.0625, 0.0
44, 0.4481074481074481, -0.3333333333333333, 1.7301587301587302, 1.84375, 0.5625, -0.09375, 0.0
45, -0.3882783882783883, 1.1184371184371185, 2.0463980463980462, 1.53125, -0.1875, 0.0, 0.0
46, -1.7387057387057387, 2.7362637362637363, 2.727716727716728, 1.90625, -0.4375, 0.0625, 0.0
47, -2.7326007326007327, 2.277167277167277, 2.8974358974358974, 2.1875, -0.03125, 0.21875, 0.0
48, -1.308913308913309, 1.4188034188034189, 1.8974358974358974, 2.0, 0.0, 0.40625, 0.0
49, -0.05372405372405373, 1.6703296703296704, 1.0146520146520146, 1.6875, -0.25, 0.40625, 0.0
50, 0.11233211233211234, 1.2039072039072038, -0.06715506715506715, 1.21875, -0.53125, 0.09375, 0.0
51, -0.652014652014652, 1.42002442002442, -0.5824175824175825, 0.78125, -0.375, -0.0625, 0.0
52, -1.3846153846153846, 1.164835164835165, -0.7435897435897436, 0.46875, 0.15625, -0.25, 0.0
53, -0.7423687423687424, 0.9206349206349206, -0.2271062271062271, 0.15625, 0.3125, -0.21875, 0.0
54, 0.23687423687423687, 0.8449328449328449, 0.10866910866910867, -0.09375, 0.03125, -0.15625, 0.0
55, -0.06471306471306472, 1.4554334554334554, 0.21978021978021978, -0.0625, -0.1875, -0.1875, 0.0
56, -0.5054945054945055, 1.7777777777777777, 0.4346764346764347, 0.1875, -0.28125, -0.15625, 0.0
57, -0.5262515262515263, 1.8363858363858363, 0.6324786324786325, 0.625, -0.375, 0.0, 0.0
58, -1.2698412698412698, -0.0989010989010989, -0.7863247863247863, 0.875, -0.125, 0.25, 0.0
59, -0.7496947496947497, -0.304029304029304, -0.9804639804639804, 0.65625, 0.125, 0.15625, 0.0
60, -0.33821733821733824, -0.08424908424908426, -0.8754578754578755, 0.4375, 0.1875, 0.09375, 0.0
61, -0.14163614163614163, 0.20146520146520147, -0.5555555555555556, 0.34375, 0.15625, 0.0, 0.0
62, -0.38095238095238093, 0.06349206349206349, -0.07448107448107448, 0.375, 0.03125, -0.03125, 0.0
63, -0.3724053724053724, -0.03663003663003663, 1.5604395604395604, -0.25, 0.5, 0.0, 0.0
64, 0.07448107448107448, -0.08791208791208792, 1.5714285714285714, -0.125, 0.375, 0.0, 0.0
65, 0.07448107448107448, 0.33577533577533575, 1.2405372405372406, 0.0, 0.1875, 0.0, 0.0
66, 0.12332112332112333, 0.2503052503052503, 0.7350427350427351, 0.1875, 0.25, 0.0, 0.0
67, 0.20512820512820512, 0.08302808302808302, 0.16117216117216118, 0.28125, 0.125, 0.0, 0.0
68, -0.10378510378510379, -0.1514041514041514, -0.21245421245421245, 0.28125, 0.0, -0.03125, 0.0
69, -0.28327228327228327, -0.22466422466422467, -0.5384615384615384, 0.15625, -0.09375, 0.0, 0.0
70, -0.052503052503052504, 0.19658119658119658, -0.5811965811965812, 0.0, -0.21875, -0.0625, 0.0
71, 0.1794871794871795, -0.002442002442002442, -0.7643467643467643, -0.09375, -0.5, -0.09375, 0.0
72, 0.10744810744810745, 0.12942612942612944, -1.5653235653235653, -0.21875, -1.03125, -0.1875, 0.0
73, -1.1233211233211233, -0.06471306471306472, -2.1953601953601956, -0.125, -1.1875, -0.09375, 0.0
74, -0.9169719169719169, -0.3199023199023199, -2.78021978021978, -0.3125, -1.15625, -0.09375, 0.0
75, -0.4908424908424908, -0.5921855921855922, -3.1953601953601956, -0.59375, -1.71875, -0.21875, 0.0
76, -0.5006105006105006, -0.5726495726495726, -3.2905982905982905, -0.9375, -2.625, -0.375, 0.0
77, 0.3064713064713065, -1.0757020757020757, -2.9816849816849818, -1.53125, -4.15625, -0.625, 0.0
78, -1.8632478632478633, -1.525030525030525, -2.293040293040293, -2.25, -5.59375, -0.6875, 0.0
79, -4.824175824175824, -1.442002442002442, -1.3357753357753357, -2.90625, -5.96875, -0.34375, 0.0
80, -6.742368742368742, -0.21733821733821734, -0.8669108669108669, -3.21875, -5.3125, 0.25, 0.0
81, -4.103785103785103, 0.6910866910866911, 0.02197802197802198, -3.3125, -5.25, 0.3125, 0.0
82, -0.26495726495726496, 1.8412698412698412, 1.5677655677655677, -3.46875, -6.875, -0.15625, 0.0
83, -1.6422466422466422, 3.061050061050061, 3.5702075702075704, -3.75, -8.5, -0.34375, 0.0
84, -4.941391941391942, 7.424908424908425, 4.684981684981685, -3.59375, -8.25, 0.0, 0.0
85, -5.294261294261294, 5.822954822954823, 3.5665445665445668, -2.5, -6.40625, 0.5, 0.0
86, -2.0305250305250304, 3.879120879120879, 1.8522588522588523, -1.75, -6.4375, 0.0, 0.0
87, -3.184371184371184, 1.7887667887667889, 0.9120879120879121, -1.0625, -6.3125, -0.34375, 0.0
88, -1.249084249084249, -0.336996336996337, -0.13553113553113552, -0.5625, -5.84375, 0.0, 0.0
89, 0.06837606837606838, -1.0231990231990231, -1.0769230769230769, -0.4375, -5.65625, 0.40625, 0.0
90, -0.1391941391941392, -0.31013431013431014, -1.1941391941391941, -0.53125, -5.5625, 0.40625, 0.0
91, 0.47374847374847373, -0.0927960927960928, -1.2588522588522588, -0.53125, -5.59375, -0.09375, 0.0
92, 2.1062271062271063, -0.8693528693528694, -1.2442002442002442, -0.65625, -6.25, -0.46875, 0.0
93, 1.768009768009768, -1.5787545787545787, -1.8278388278388278, -0.9375, -7.03125, -0.71875, 0.0
94, -0.15384615384615385, -0.10256410256410256, -2.311355311355311, -1.1875, -7.125, -1.25, 0.0
95, -2.5921855921855923, 1.818070818070818, -3.3211233211233213, -1.03125, -6.21875, -1.3125, 0.0
96, -3.3516483516483517, 3.021978021978022, -4.711843711843712, -0.3125, -4.46875, -0.53125, 0.0
97, -3.006105006105006, 2.7435897435897436, -5.492063492063492, 0.6875, -1.59375, 0.84375, 0.0
98, -1.3418803418803418, 1.8461538461538463, -5.332112332112332, 0.875, -0.4375, 1.46875, 0.0
99, 0.8131868131868132, 0.8315018315018315, -4.481074481074481, 0.59375, -0.09375, 1.6875, 0.0
100, 1.0525030525030525, 0.5934065934065934, -3.4896214896214897, 0.125, -0.0625, 1.6875, 0.0
101, 1.7484737484737485, 1.393162393162393, -2.8583638583638584, 0.0, -0.28125, 1.625, 0.0
102, 1.7374847374847375, 0.7802197802197802, -2.9047619047619047, -0.09375, -0.53125, 1.5, 0.0
103, 0.6959706959706959, 0.7863247863247863, -2.547008547008547, -0.15625, -0.15625, 1.5625, 0.0
104, 1.4896214896214897, -0.0695970695970696, -2.0244200244200243, -0.15625, 0.0625, 1.65625, 0.0
105, 1.9291819291819292, 0.32722832722832723, -1.4236874236874237, -0.25, 0.09375, 1.59375, 0.0
106, 2.1416361416361416, -0.0231990231990232, -0.7948717948717948, -0.21875, 0.03125, 1.40625, 0.0
107, 1.4114774114774116, 0.3540903540903541, -0.1391941391941392, -0.03125, 0.1875, 1.375, 0.0
108, 1.221001221001221, 0.10989010989010989, 0.40293040293040294, 0.21875, 0.46875, 1.1875, 0.0
109, 2.2344322344322345, -0.9926739926739927, 0.04395604395604396, 0.09375, 0.15625, 0.875, 0.0
110, 1.3028083028083028, -0.706959706959707, 0.16727716727716727, -0.0625, -0.0625, 0.6875, 0.0
111, 0.3772893772893773, -0.30158730158730157, 0.47863247863247865, -0.09375, -0.0625, 0.59375, 0.0
112, 1.0695970695970696, -0.3028083028083028, 0.34554334554334554, 0.0, -0.03125, 0.5625, 0.0
113, 1.0671550671550671, -0.757020757020757, -0.026862026862026864, -0.03125, -0.375, 0.375, 0.0
114, 0.33577533577533575, -0.4993894993894994, -0.03296703296703297, -0.09375, -0.59375, 0.21875, 0.0
115, -0.18803418803418803, -0.1111111111111111, 0.10012210012210013, -0.09375, -0.53125, 0.1875, 0.0
116, 0.12576312576312576, -0.2490842490842491, 0.06715506715506715, 0.03125, -0.28125, 0.25, 0.0
117, 0.5274725274725275, -0.3711843711843712, 0.1794871794871795, 0.15625, -0.21875, 0.09375, 0.0
118, 0.8437118437118437, -0.20757020757020758, 0.10622710622710622, 0.15625, -0.28125, 0.0, 0.0
119, 0.14652014652014653, -0.10744810744810745, -0.11355311355311355, 0.09375, -0.40625, 0.0, 0.0
120, -0.18803418803418803, -0.05860805860805861, -0.5274725274725275, 0.09375, -0.03125, 0.1875, 0.0
121, 0.3626373626373626, -0.2515262515262515, -0.514041514041514, 0.03125, 0.0, 0.1875, 0.0
122, 0.09401709401709402, 0.25518925518925517, -0.4126984126984127, 0.0625, 0.09375, 0.1875, 0.0
123, 0.3724053724053724, 0.009768009768009768, -0.34554334554334554, 0.03125, 0.0, 0.0625, 0.0
124, -0.23809523809523808, 0.2967032967032967, -0.36874236874236876, 0.0, 0.0, 0.0625, 0.0
125, -0.684981684981685, 0.6007326007326007, -0.3663003663003663, 0.09375, 0.15625, 0.15625, 0.0
126, -0.2503052503052503, 0.15873015873015872, -0.608058608058608, 0.0625, 0.21875, 0.15625, 0.0
127, -0.09523809523809523, 0.11477411477411477, -0.5934065934065934, -0.03125, 0.09375, 0.15625, 0.0
128, -0.4175824175824176, 0.41025641025641024, -0.518925518925519, -0.03125, 0.09375, 0.15625, 0.0
129, -0.7936507936507936, 0.4554334554334554, -0.34065934065934067, 0.03125, 0.3125, 0.1875, 0.0
130, -0.25518925518925517, 0.221001221001221, -0.12332112332112333, 0.0625, 0.34375, 0.15625, 0.0
131, 0.007326007326007326, -0.06349206349206349, -0.15873015873015872, 0.03125, 0.25, 0.09375, 0.0
132, 0.042735042735042736, -0.16361416361416362, 0.013431013431013432, -0.09375, -0.125, -0.09375, 0.0
133, -0.33821733821733824, 0.003663003663003663, 0.19536019536019536, -0.09375, -0.15625, -0.0625, 0.0
134, -0.10622710622710622, -0.13186813186813187, 0.21245421245421245, -0.03125, -0.03125, -0.03125, 0.0
135, 0.5482295482295483, -0.6056166056166056, 0.22832722832722832, -0.0625, -0.15625, -0.09375, 0.0
136, 0.10134310134310134, -0.23076923076923078, 0.36385836385836384, -0.15625, -0.40625, -0.21875, 0.0
137, -0.5567765567765568, 0.10134310134310134, 0.5335775335775336, -0.125, -0.4375, -0.15625, 0.0
138, -1.0256410256410255, 0.2686202686202686, 0.6605616605616605, 0.03125, -0.15625, 0.0, 0.0
139, -0.5421245421245421, 0.11233211233211234, 0.9902319902319903, 0.25, 0.1875, 0.1875, 0.0
140, -0.008547008547008548, -0.030525030525030524, 1.1355311355311355, 0.375, 0.34375, 0.3125, 0.0
141, 1.0354090354090355, -0.47741147741147744, 0.8302808302808303, 0.40625, 0.1875, 0.28125, 0.0
142, 1.1062271062271063, -0.4554334554334554, 0.24053724053724054, 0.3125, -0.15625, 0.09375, 0.0
143, 0.29181929181929184, -0.17582417582417584, -0.31746031746031744, 0.15625, -0.3125, -0.03125, 0.0
144, 0.001221001221001221, 0.04884004884004884, -0.7655677655677655, 0.15625, -0.03125, 0.0, 0.0
145, 0.5286935286935287, 0.0231990231990232, -0.8717948717948718, 0.03125, -0.125, 0.0, 0.0
146, 0.054945054945054944, 0.5115995115995116, -0.9926739926739927, 0.0625, -0.0625, -0.03125, 0.0
147, -0.5665445665445665, 0.7545787545787546, -1.1367521367521367, 0.15625, 0.1875, 0.0, 0.0
148, -0.29426129426129427, 0.31868131868131866, -1.4163614163614164, 0.09375, 0.28125, 0.0, 0.0
149, -0.01221001221001221, 0.32112332112332115, -1.358974358974359, -0.03125, 0.125, 0.0, 0.0
150, 0.2600732600732601, 0.17338217338217338, -1.2405372405372406, -0.25, -0.15625, -0.1875, 0.0
151, -0.47741147741147744, 0.5775335775335775, -0.9157509157509157, -0.34375, -0.25, -0.1875, 0.0
152, -1.065934065934066, 0.8351648351648352, -0.5848595848595849, -0.25, -0.03125, -0.0625, 0.0
153, -1.0048840048840049, 0.6825396825396826, -0.33577533577533575, -0.125, 0.15625, 0.09375, 0.0
154, -0.06227106227106227, -0.16117216117216118, -0.06227106227106227, -0.21875, 0.0, 0.125, 0.0
155, -0.5470085470085471, -0.9169719169719169, 1.5824175824175823, -0.5625, -0.625, -0.0625, 0.0
156, -1.291819291819292, 0.27472527472527475, 2.128205128205128, -0.28125, -0.5, 0.03125, 0.0
157, -0.9194139194139194, -0.13675213675213677, 2.3565323565323566, 0.1875, 0.0, 0.375, 0.0
158, -0.10989010989010989, -0.4908424908424908, 2.437118437118437, 0.6875, 0.46875, 0.71875, 0.0
159, 0.047619047619047616, 0.008547008547008548, 2.0671550671550674, 1.15625, 0.9375, 0.96875, 0.0
160, -0.7387057387057387, 0.5958485958485958, 1.4810744810744811, 1.875, 1.9375, 1.65625, 0.0
161, -0.326007326007326, 0.5445665445665445, 1.1916971916971917, 2.8125, 3.5625, 2.46875, 0.0
162, 2.236874236874237, -0.8522588522588522, 1.105006105006105, 3.8125, 5.25, 3.21875, 0.0
163, 3.547008547008547, -1.3846153846153846, 0.9096459096459096, 4.3125, 6.1875, 3.28125, 0.0
164, 2.9157509157509156, -0.5946275946275946, 0.8937728937728938, 4.8125, 7.125, 3.25, 0.0
165, 5.51037851037851, -3.0183150183150182, -0.0757020757020757, 5.3125, 8.03125, 3.28125, 0.0
166, 9.94993894993895, -5.0818070818070815, -0.5177045177045178, 4.59375, 7.5, 2.5, 0.0
167, 7.771672771672772, -2.705738705738706, -0.1746031746031746, 3.375, 5.6875, 1.15625, 0.0
168, 5.984126984126984, -0.7289377289377289, 0.6727716727716728, 3.875, 5.65625, 0.65625, 0.0
169, 4.777777777777778, -1.404151404151404, 0.4346764346764347, 4.5625, 6.125, 0.53125, 0.0
170, 4.15995115995116, -1.8327228327228327, 0.42735042735042733, 5.0, 6.4375, 0.65625, 0.0
171, 3.744810744810745, -2.288156288156288, 0.6263736263736264, 5.28125, 6.625, 0.78125, 0.0
172, 2.942612942612943, -2.590964590964591, 1.0915750915750915, 5.53125, 6.65625, 1.0, 0.0
173, 2.647130647130647, -3.4835164835164836, 1.380952380952381, 5.8125, 6.625, 1.15625, 0.0
174, 3.283272283272283, -4.3247863247863245, 1.5531135531135531, 5.90625, 6.03125, 1.09375, 0.0
175, 4.119658119658119, -4.814407814407814, 1.1318681318681318, 5.75, 4.84375, 0.90625, 0.0
176, 5.282051282051282, -5.910866910866911, 0.5628815628815629, 5.15625, 2.875, 0.40625, 0.0
177, 4.282051282051282, -6.827838827838828, -0.23565323565323565, 4.40625, 0.625, -0.375, 0.0
178, 1.3333333333333333, -5.915750915750916, -0.5506715506715507, 3.625, -0.96875, -1.0625, 0.0
179, -2.1709401709401708, -3.128205128205128, -1.879120879120879, 3.65625, -0.75, -1.0, 0.0
180, -1.5628815628815629, -3.1086691086691087, -2.7997557997557996, 3.6875, -0.375, -0.8125, 0.0
181, -1.4224664224664225, -3.8192918192918195, -3.8205128205128207, 3.40625, -0.15625, -0.6875, 0.0
182, -0.5628815628815629, -2.9365079365079363, -4.1953601953601956, 3.125, -0.25, -0.875, 0.0
183, -0.518925518925519, -1.778998778998779, -5.048840048840049, 3.0625, -0.75, -1.0, 0.0
184, -1.7606837606837606, -2.056166056166056, -6.665445665445666, 2.84375, -1.15625, -0.875, 0.0
185, -2.1526251526251525, -1.1245421245421245, -7.73992673992674, 2.53125, -1.125, -0.875, 0.0
186, -2.6605616605616604, -1.2063492063492063, -8.621489621489621, 2.125, -1.09375, -0.875, 0.0
187, -3.6153846153846154, -0.8388278388278388, -8.910866910866911, 1.5625, -0.875, -0.625, 0.0
188, -3.8363858363858365, -0.7228327228327228, -8.184371184371184, 0.84375, -0.46875, -0.3125, 0.0
189, -2.7887667887667886, -0.1391941391941392, -6.6007326007326, 0.21875, -0.15625, 0.0, 0.0
190, -1.6862026862026862, 0.12942612942612944, -4.859584859584859, -0.3125, -0.125, 0.21875, 0.0
191, -1.2722832722832722, 0.2661782661782662, -3.266178266178266, -0.375, -0.375, 0.1875, 0.0
192, -1.468864468864469, 0.6043956043956044, -2.05006105006105, -0.21875, -0.375, 0.15625, 0.0
193, -1.5897435897435896, 0.28327228327228327, -1.4847374847374848, -0.09375, -0.09375, 0.25, 0.0
194, -1.1184371184371185, -0.38461538461538464, -1.1294261294261294, -0.21875, 0.09375, 0.28125, 0.0
195, -0.3528693528693529, -0.4017094017094017, -0.6923076923076923, -0.4375, 0.0625, 0.15625, 0.0
196, -0.02442002442002442, 0.05372405372405373, 0.07203907203907203, -0.4375, 0.0, 0.0, 0.0
197, -0.115995115995116, -0.020757020757020756, 0.409035409035409, -0.375, 0.0625, 0.0, 1.0
198, 0.006105006105006105, 0.0, 0.231990231990232, -0.34375, 0.03125, -0.125, 1.0
199, 0.3199023199023199, 0.24786324786324787, 0.03296703296703297, -0.1875, -0.25, -0.34375, 1.0
200, -0.052503052503052504, 0.10866910866910867, -0.7887667887667887, -0.21875, -0.65625, -0.28125, 1.0
201, -2.142857142857143, 0.4700854700854701, -2.253968253968254, -0.34375, -0.5625, 0.0, 1.0
202, -1.017094017094017, -0.23809523809523808, -4.0537240537240535, -0.5, -0.46875, 0.1875, 1.0
203, 0.5677655677655677, -1.0793650793650793, -4.543345543345543, -0.96875, -1.75, 0.0, 1.0
204, 1.7875457875457876, -1.3553113553113554, -4.118437118437118, -1.71875, -4.0625, -0.6875, 1.0
205, -3.542124542124542, -0.031746031746031744, -2.3235653235653237, -2.28125, -6.625, -1.3125, 1.0
206, -7.653235653235654, 0.5543345543345544, -1.800976800976801, -2.28125, -7.375, -0.9375, 1.0
207, -5.750915750915751, 0.15018315018315018, -1.5323565323565325, -2.09375, -7.15625, 0.03125, 1.0
208, -2.0256410256410255, -0.31013431013431014, 0.13064713064713065, -2.28125, -7.90625, 0.46875, 1.0
209, 0.09401709401709402, 2.1294261294261294, 2.7887667887667886, -2.71875, -9.875, 0.15625, 1.0
210, -3.8376068376068377, 5.170940170940171, 3.663003663003663, -2.875, -11.1875, -0.125, 1.0
211, -4.236874236874237, 1.5213675213675213, 2.409035409035409, -2.28125, -10.0, -0.0625, 1.0
212, -3.1684981684981683, 0.833943833943834, 0.9291819291819292, -1.15625, -7.9375, 0.21875, 1.0
213, -0.08547008547008547, -0.18925518925518925, -0.09645909645909646, -0.21875, -6.46875, 0.65625, 1.0
214, 1.032967032967033, -1.0256410256410255, -0.398046398046398, -0.4375, -6.9375, 0.65625, 1.0
215, -0.24786324786324787, -0.5445665445665445, -0.24175824175824176, -0.5, -6.875, 0.375, 1.0
216, -0.8302808302808303, 0.3540903540903541, -1.0854700854700854, -0.15625, -6.21875, 0.25, 1.0
217, -1.1684981684981686, -0.029304029304029304, -2.5921855921855923, -0.0625, -5.59375, 0.28125, 1.0
218, -2.272283272283272, 0.2979242979242979, -2.623931623931624, -0.28125, -5.0625, 0.375, 1.0
219, -1.5677655677655677, 0.8705738705738706, -1.884004884004884, -0.21875, -4.84375, 0.6875, 1.0
220, -0.7716727716727717, 1.4676434676434675, -3.0415140415140414, 0.34375, -4.375, 0.875, 1.0
221, -0.2869352869352869, 0.800976800976801, -5.482295482295482, 0.75, -3.6875, 1.0625, 1.0
222, 0.518925518925519, -0.2857142857142857, -6.293040293040293, 0.5, -3.3125, 1.125, 1.0
223, -1.1037851037851039, 0.5347985347985348, -5.5506715506715505, 0.4375, -2.5, 1.21875, 1.0
224, -0.07936507936507936, 0.6691086691086691, -4.241758241758242, 0.4375, -2.09375, 1.5, 1.0
225, 0.5372405372405372, 0.9426129426129426, -1.6324786324786325, 0.625, -2.15625, 1.6875, 1.0
226, -0.7533577533577533, 0.3162393162393162, -2.105006105006105, 0.84375, -2.1875, 1.84375, 1.0
227, 0.45787545787545786, -0.8034188034188035, -3.3736263736263736, 0.875, -1.53125, 2.0625, 1.0
228, 2.6434676434676434, -1.343101343101343, -3.6971916971916974, 0.59375, -1.0625, 2.03125, 1.0
229, 3.2332112332112333, -1.0451770451770452, -3.822954822954823, 0.34375, -0.78125, 1.8125, 1.0
230, 4.970695970695971, -1.3052503052503053, -4.0366300366300365, 0.28125, -0.46875, 1.59375, 1.0
231, 5.94017094017094, -1.4090354090354091, -4.261294261294261, 0.0625, -0.46875, 1.1875, 1.0
232, 5.559218559218559, -1.1037851037851039, -4.083028083028083, -0.21875, -0.4375, 0.65625, 1.0
233, 4.551892551892552, -0.24175824175824176, -3.1086691086691087, -0.53125, -0.3125, 0.3125, 1.0
234, 3.68009768009768, 0.9658119658119658, -1.5836385836385836, -0.5, -0.09375, 0.125, 1.0
235, 2.5238095238095237, 0.8876678876678876, -0.796092796092796, -0.28125, 0.15625, 0.09375, 1.0
236, 1.6324786324786325, 0.7191697191697192, -0.1221001221001221, -0.15625, 0.3125, 0.1875, 1.0
237, 1.089133089133089, 0.07692307692307693, -0.057387057387057384, -0.28125, 0.5, 0.28125, 1.0
238, 0.6214896214896215, -0.14774114774114774, 0.15873015873015872, -0.46875, 0.46875, 0.34375, 0.0
239, -0.06105006105006105, 0.11233211233211234, 0.33821733821733824, -0.5, 0.4375, 0.4375, 0.0
240, -0.3162393162393162, -0.04884004884004884, 0.514041514041514, -0.40625, 0.4375, 0.65625, 0.0
241, -1.5384615384615385, 0.5323565323565324, 0.2796092796092796, -0.0625, 0.53125, 0.84375, 0.0
242, -0.3089133089133089, -0.15262515262515264, 0.2442002442002442, 0.15625, 0.5, 0.78125, 0.0
243, 0.4652014652014652, -1.0134310134310134, -0.23809523809523808, -0.03125, 0.21875, 0.625, 0.0
244, 0.231990231990232, -0.6605616605616605, -0.18315018315018314, -0.125, 0.21875, 0.46875, 0.0
245, 0.3052503052503053, -0.46886446886446886, -0.09645909645909646, -0.15625, 0.1875, 0.40625, 0.0
246, 0.20024420024420025, -0.2600732600732601, 0.03296703296703297, -0.125, 0.09375, 0.34375, 0.0
247, -0.008547008547008548, 0.04151404151404151, 0.020757020757020756, 0.0, 0.03125, 0.28125, 0.0
248, 0.409035409035409, -0.15995115995115994, 0.0, 0.0, -0.0625, 0.125, 0.0
249, 0.7728937728937729, -0.01221001221001221, 0.0, -0.09375, -0.1875, 0.0, 0.0
250, 0.3247863247863248, 0.03907203907203907, -0.04884004884004884, -0.09375, -0.15625, 0.03125, 0.0
251, 0.1391941391941392, 0.05128205128205128, 0.0989010989010989, -0.0625, -0.03125, 0.15625, 0.0
252, 0.23076923076923078, -0.045177045177045176, 0.2783882783882784, 0.0, 0.03125, 0.1875, 0.0
253, 0.46153846153846156, -0.1330891330891331, 0.4542124542124542, 0.0625, 0.0, 0.1875, 0.0
254, 0.18437118437118438, -0.16605616605616605, 0.24664224664224665, 0.0625, -0.0625, 0.125, 0.0
255, 0.09523809523809523, -0.38583638583638585, 0.2454212454212454, 0.0, -0.15625, 0.03125, 0.0
256, -0.4554334554334554, 0.11233211233211234, 0.6581196581196581, -0.03125, -0.1875, 0.0625, 0.0
257, -0.8241758241758241, 0.42246642246642246, 0.989010989010989, 0.09375, 0.0, 0.21875, 0.0
258, -0.38705738705738707, 0.47741147741147744, 0.8070818070818071, 0.4375, 0.28125, 0.4375, 0.0
259, -0.6507936507936508, 0.24053724053724054, 0.18192918192918192, 0.8125, 0.53125, 0.65625, 0.0
260, -1.8424908424908424, 0.6105006105006106, -0.13553113553113552, 1.375, 1.75, 1.4375, 0.0
261, -1.2454212454212454, 0.8400488400488401, 0.2454212454212454, 1.8125, 2.71875, 2.09375, 0.0
262, 0.6568986568986569, 0.11965811965811966, 0.21245421245421245, 2.125, 3.15625, 2.375, 0.0
263, 2.943833943833944, -1.0024420024420024, -0.22466422466422467, 2.09375, 2.9375, 2.125, 0.0
264, 3.971916971916972, -0.9206349206349206, -0.8144078144078144, 1.9375, 2.65625, 1.5625, 0.0
265, 3.913308913308913, -0.9768009768009768, -1.8021978021978022, 2.09375, 3.03125, 1.0, 0.0
266, 2.822954822954823, -0.33455433455433453, -2.404151404151404, 2.59375, 4.0625, 0.84375, 0.0
267, 2.700854700854701, -1.1953601953601953, -2.6715506715506714, 3.15625, 5.34375, 1.0625, 0.0
268, 2.166056166056166, -1.3772893772893773, -2.2503052503052503, 3.65625, 6.59375, 1.25, 0.0
269, 3.312576312576313, -1.4285714285714286, -1.5091575091575091, 3.90625, 7.21875, 1.03125, 0.0
270, 4.108669108669108, -0.4725274725274725, -1.0293040293040292, 4.125, 7.25, 0.84375, 0.0
271, 4.108669108669108, -0.5372405372405372, -0.9633699633699634, 4.4375, 7.1875, 0.40625, 0.0
272, 3.800976800976801, -0.9304029304029304, 1.2673992673992673, 4.59375, 7.125, 0.21875, 0.0
273, 3.681318681318681, -0.38217338217338215, 1.5506715506715507, 4.8125, 6.96875, 0.09375, 0.0
274, 3.0427350427350426, -0.6800976800976801, 1.2844932844932846, 5.0625, 6.53125, 0.03125, 0.0
275, 0.960927960927961, -0.6007326007326007, 0.9365079365079365, 5.375, 6.3125, 0.21875, 0.0
276, 1.5787545787545787, -1.7423687423687424, 0.7631257631257631, 5.84375, 6.375, 0.46875, 0.0
277, 1.673992673992674, -3.427350427350427, -0.050061050061050064, 5.96875, 5.96875, 0.65625, 0.0
278, 2.034188034188034, -4.214896214896215, -0.5848595848595849, 5.625, 5.46875, 0.9375, 0.0
279, 5.007326007326007, -4.485958485958486, -1.452991452991453, 5.03125, 4.375, 0.65625, 0.0
280, 4.302808302808303, -4.5958485958485955, -2.064713064713065, 4.28125, 2.25, 0.125, 0.0
281, 2.142857142857143, -4.225885225885226, -2.2161172161172162, 3.6875, 0.625, -0.375, 0.0
282, -0.04395604395604396, -4.261294261294261, -2.515262515262515, 3.4375, -0.1875, -0.75, 0.0
283, -0.945054945054945, -3.6507936507936507, -2.851037851037851, 3.25, -0.15625, -0.9375, 0.0
284, -0.2515262515262515, -2.6788766788766787, -3.481074481074481, 3.15625, -0.34375, -0.84375, 0.0
285, -1.0256410256410255, -2.21001221001221, -4.357753357753357, 3.0625, -0.53125, -0.65625, 0.0
286, -1.304029304029304, -2.525030525030525, -5.119658119658119, 2.78125, -0.53125, -0.65625, 0.0
287, -1.4676434676434675, -1.916971916971917, -5.5787545787545785, 2.375, -0.46875, -0.75, 0.0
288, -1.4053724053724053, -1.7155067155067154, -6.020757020757021, 1.875, -0.46875, -0.8125, 0.0
289, -2.0805860805860807, -0.8852258852258852, -6.04029304029304, 1.5, -0.40625, -0.75, 0.0
290, -2.393162393162393, -0.8498168498168498, -6.1001221001221, 1.15625, -0.40625, -0.5625, 0.0
291, -2.4004884004884004, -0.49572649572649574, -5.807081807081807, 0.71875, -0.40625, -0.4375, 0.0
292, -2.371184371184371, -0.39194139194139194, -5.365079365079365, 0.28125, -0.4375, -0.375, 0.0
293, -2.5750915750915753, -0.09157509157509157, -4.903540903540904, 0.0, -0.40625, -0.25, 0.0
294, -2.5384615384615383, -0.2564102564102564, -4.407814407814408, -0.1875, -0.3125, -0.21875, 0.0
295, -1.7643467643467643, 0.052503052503052504, -3.128205128205128, -0.53125, -0.1875, -0.15625, 0.0
296, -1.9816849816849818, 0.11233211233211234, -2.826617826617827, -0.65625, -0.25, -0.15625, 0.0
297, -2.6092796092796093, -0.24664224664224665, -2.6227106227106227, -0.6875, -0.125, -0.09375, 0.0
298, -2.492063492063492, -0.652014652014652, -2.241758241758242, -0.6875, 0.0, -0.09375, 0.0
299, -1.6178266178266179, -0.967032967032967, -1.778998778998779, -0.84375, -0.15625, -0.25, 0.0
300, -0.9487179487179487, -0.5531135531135531, -1.2307692307692308, -1.0625, -0.78125, -0.4375, 1.0
301, -1.3247863247863247, 0.6422466422466423, -0.36507936507936506, -1.125, -1.75, -0.46875, 1.0
302, -3.772893772893773, 0.9975579975579976, -1.8083028083028083, -0.8125, -2.125, 0.03125, 1.0
303, -2.427350427350427, -0.37484737484737485, -3.5616605616605614, -0.65625, -2.21875, 0.59375, 1.0
304, -0.43101343101343104, -1.2442002442002442, -3.695970695970696, -1.28125, -3.1875, 0.75, 1.0
305, -0.21855921855921856, -0.4725274725274725, -2.081807081807082, -2.25, -4.9375, 0.34375, 1.0
306, -1.0256410256410255, 0.8473748473748474, -0.013431013431013432, -2.96875, -7.34375, -0.15625, 1.0
307, -1.873015873015873, 2.507936507936508, 2.156288156288156, -2.90625, -8.65625, -0.1875, 1.0
308, -3.8180708180708183, 4.553113553113553, 2.5775335775335777, -2.53125, -8.8125, 0.125, 1.0
309, -3.446886446886447, 5.736263736263736, 1.5970695970695972, -2.59375, -8.71875, 0.65625, 1.0
310, -1.36996336996337, 4.95970695970696, 1.7301587301587302, -2.84375, -8.78125, 0.59375, 1.0
311, -1.188034188034188, 2.9584859584859586, 2.3382173382173383, -2.75, -8.5, 0.0, 1.0
312, -3.120879120879121, 2.785103785103785, 2.5445665445665444, -1.90625, -7.40625, 0.125, 1.0
313, -1.448107448107448, 2.2051282051282053, 0.811965811965812, -0.8125, -6.125, 1.03125, 1.0
314, 2.3015873015873014, 0.2783882783882784, -0.7655677655677655, -0.6875, -6.21875, 1.03125, 1.0
315, 2.2002442002442004, -1.032967032967033, -0.6471306471306472, -1.375, -7.0625, 0.0, 1.0
316, -1.612942612942613, 0.778998778998779, 0.15018315018315018, -1.3125, -6.53125, -0.09375, 1.0
317, -1.5873015873015872, 1.5873015873015872, -1.0683760683760684, -0.21875, -4.75, 0.71875, 1.0
318, 4.361416361416361, -0.34676434676434675, -2.735042735042735, 0.40625, -4.3125, 1.4375, 1.0
319, -0.18925518925518925, -0.3797313797313797, -3.5384615384615383, 0.09375, -4.53125, 0.625, 1.0
320, -3.015873015873016, 2.283272283272283, -3.045177045177045, -0.09375, -3.4375, 0.46875, 1.0
321, -0.36874236874236876, 2.238095238095238, -1.778998778998779, 0.125, -2.59375, 0.84375, 1.0
322, -1.0708180708180708, 2.4383394383394386, -1.0317460317460319, 0.28125, -2.71875, 0.8125, 1.0
323, -1.0769230769230769, 1.1611721611721613, -2.1135531135531136, 0.59375, -2.46875, 1.0, 1.0
324, -0.7472527472527473, -0.3626373626373626, -3.382173382173382, 0.53125, -2.03125, 1.0, 1.0
325, -0.518925518925519, 0.2564102564102564, -2.9474969474969477, 0.0, -1.90625, 0.875, 1.0
326, -1.5763125763125763, 1.2527472527472527, -2.283272283272283, 0.0, -1.78125, 0.90625, 1.0
327, -1.2283272283272284, 0.7106227106227107, -2.2808302808302807, 0.21875, -1.375, 1.1875, 1.0
328, -0.09157509157509157, -0.4432234432234432, -2.4383394383394386, 0.21875, -1.09375, 1.375, 1.0
329, 1.0708180708180708, -0.7777777777777778, -2.3601953601953602, 0.0, -1.1875, 1.21875, 1.0
330, 0.7362637362637363, -0.10012210012210013, -2.275946275946276, 0.125, -1.0, 1.25, 1.0
331, 0.5091575091575091, -0.28205128205128205, -2.3345543345543347, 0.5, -0.34375, 1.53125, 1.0
332, 1.3015873015873016, -0.8803418803418803, -2.6275946275946276, 0.6875, 0.28125, 1.75, 1.0
333, 4.5054945054945055, -2.0256410256410255, -2.427350427350427, 0.5, 0.25, 1.53125, 1.0
334, 5.643467643467644, -1.794871794871795, -1.9804639804639805, 0.25, -0.09375, 0.90625, 1.0
335, 4.637362637362638, -1.0732600732600732, -1.9963369963369964, 0.0625, -0.1875, 0.46875, 1.0
336, 3.2527472527472527, -0.3028083028083028, -1.8608058608058609, 0.0, 0.0, 0.3125, 1.0
337, 2.509157509157509, 0.221001221001221, -1.4957264957264957, 0.03125, 0.21875, 0.28125, 1.0
338, 2.8986568986568986, 0.11477411477411477, -1.0854700854700854, 0.0, 0.15625, 0.15625, 1.0
339, 2.3455433455433456, 0.21245421245421245, -0.7680097680097681, -0.09375, 0.0, 0.0, 1.0
340, 1.1916971916971917, 0.3785103785103785, -0.3064713064713065, -0.125, 0.03125, -0.03125, 1.0
341, 0.5567765567765568, 0.3431013431013431, -0.12942612942612944, -0.09375, 0.3125, 0.03125, 1.0
342, 0.13675213675213677, 0.09401709401709402, -0.19658119658119658, -0.125, 0.40625, 0.15625, 1.0
343, 0.08547008547008547, -0.16117216117216118, -0.14896214896214896, -0.28125, 0.3125, 0.15625, 1.0
344, -0.2857142857142857, -0.04151404151404151, 0.1623931623931624, -0.375, 0.21875, 0.125, 0.0
345, -0.6495726495726496, 0.1978021978021978, 0.21001221001221002, -0.4375, 0.28125, 0.21875, 0.0
346, -1.0036630036630036, 0.38705738705738707, 0.17216117216117216, -0.34375, 0.4375, 0.375, 0.0
347, -0.398046398046398, -0.18192918192918192, -0.27472527472527475, -0.34375, 0.46875, 0.5, 0.0
348, -0.15873015873015872, -0.26373626373626374, -0.27350427350427353, -0.34375, 0.40625, 0.46875, 0.0
349, 0.04395604395604396, -0.22832722832722832, -0.02197802197802198, -0.3125, 0.25, 0.3125, 0.0
350, -0.06837606837606838, -0.21001221001221002, 0.05616605616605617, -0.28125, 0.15625, 0.21875, 0.0
351, -0.0757020757020757, -0.02564102564102564, 0.19413919413919414, -0.25, 0.1875, 0.1875, 0.0
352, 0.09157509157509157, 0.1221001221001221, 0.18192918192918192, -0.125, 0.25, 0.15625, 0.0
353, 0.001221001221001221, 0.24297924297924298, 0.23687423687423687, -0.03125, 0.09375, 0.09375, 0.0
354, 0.031746031746031744, 0.047619047619047616, 0.24297924297924298, -0.03125, 0.03125, 0.03125, 0.0
355, -0.018315018315018316, 0.15506715506715507, 0.43223443223443225, 0.0, 0.03125, 0.0625, 0.0
356, 0.409035409035409, -0.002442002442002442, 0.4725274725274725, 0.0, 0.0, 0.09375, 0.0
357, 0.43223443223443225, -0.06349206349206349, 0.3711843711843712, -0.03125, -0.0625, 0.09375, 0.0
358, 0.1343101343101343, 0.09035409035409035, 0.4175824175824176, 0.0, -0.03125, 0.125, 0.0
359, 0.045177045177045176, 0.42857142857142855, 0.5641025641025641, 0.28125, 0.21875, 0.3125, 0.0
360, 0.4517704517704518, 0.15384615384615385, 0.3553113553113553, 0.5, 0.4375, 0.46875, 0.0
361, 0.34798534798534797, 0.30036630036630035, -0.19658119658119658, 0.75, 0.75, 0.59375, 0.0
362, -0.7350427350427351, 0.5665445665445665, -0.6214896214896215, 1.03125, 1.4375, 0.84375, 0.0
363, -1.6422466422466422, 1.5457875457875458, -0.7887667887667887, 1.59375, 2.53125, 1.4375, 0.0
364, -2.659340659340659, 2.5103785103785103, -0.7924297924297924, 3.21875, 5.15625, 2.59375, 0.0
365, 3.774114774114774, -2.0427350427350426, -0.7704517704517705, 3.875, 6.15625, 2.5, 0.0
366, 4.3638583638583635, -2.525030525030525, -0.7997557997557998, 3.875, 6.375, 2.03125, 0.0
367, 2.681318681318681, -1.9255189255189256, -0.4590964590964591, 3.9375, 6.78125, 1.75, 0.0
368, 2.5457875457875456, -1.9914529914529915, 0.4017094017094017, 4.25, 7.53125, 1.6875, 0.0
369, 3.2979242979242978, -2.7948717948717947, 1.5091575091575091, 4.5625, 8.21875, 1.78125, 0.0
370, 5.35042735042735, -2.5750915750915753, 2.255189255189255, 4.53125, 8.15625, 1.375, 0.0
371, 5.509157509157509, -1.36996336996337, 1.7301587301587302, 4.40625, 7.15625, 0.65625, 0.0
372, 3.808302808302808, -0.9352869352869353, 0.9572649572649573, 4.28125, 5.90625, 0.1875, 0.0
373, 2.3284493284493286, -0.9291819291819292, 0.5445665445665445, 4.3125, 5.1875, 0.0625, 0.0
374, 2.4822954822954824, -0.8888888888888888, 0.27106227106227104, 4.25, 4.5625, -0.125, 0.0
375, 1.393162393162393, -0.49572649572649574, -0.14652014652014653, 4.28125, 4.0, -0.15625, 0.0
376, 0.442002442002442, -0.7863247863247863, -0.33943833943833945, 4.5625, 3.90625, 0.0625, 0.0
377, 0.2222222222222222, -1.8632478632478633, -0.5995115995115995, 4.625, 3.9375, 0.3125, 0.0
378, 0.5787545787545788, -2.501831501831502, -0.47985347985347987, 4.5625, 3.8125, 0.59375, 0.0
379, 1.8547008547008548, -3.15995115995116, -0.3785103785103785, 4.46875, 3.28125, 0.46875, 0.0
380, 1.962148962148962, -3.1709401709401708, -0.5873015873015873, 4.3125, 2.53125, 0.1875, 0.0
381, 2.1477411477411477, -4.137973137973138, -1.181929181929182, 3.9375, 1.75, -0.09375, 0.0
382, 1.8815628815628815, -4.107448107448107, -1.6288156288156288, 3.4375, 0.9375, -0.40625, 0.0
383, 1.586080586080586, -2.8632478632478633, -1.9914529914529915, 3.21875, 0.3125, -0.59375, 0.0
384, 0.3956043956043956, -2.7655677655677655, -2.4957264957264957, 3.125, 0.0625, -0.6875, 0.0
385, -0.43223443223443225, -2.567765567765568, -3.2527472527472527, 2.9375, 0.0, -0.84375, 0.0
386, -0.9145299145299145, -2.9474969474969477, -3.5128205128205128, 2.46875, -0.03125, -0.875, 0.0
387, -0.7448107448107448, -2.457875457875458, -3.156288156288156, 2.0, -0.34375, -0.875, 0.0
388, -1.1916971916971917, -0.39194139194139194, -3.5921855921855923, 1.875, -0.9375, -0.84375, 0.0
389, -1.8852258852258852, -0.9621489621489622, -4.327228327228327, 1.875, -1.03125, -0.75, 0.0
390, -2.6727716727716726, -1.465201465201465, -4.676434676434677, 1.625, -0.90625, -0.59375, 0.0
391, -2.0463980463980462, -0.833943833943834, -4.162393162393163, 1.1875, -0.53125, -0.59375, 0.0
392, -1.5396825396825398, 0.09768009768009768, -3.695970695970696, 0.875, -0.53125, -0.625, 0.0
393, -1.6349206349206349, 0.5299145299145299, -3.7655677655677655, 0.84375, -0.8125, -0.5, 0.0
394, -2.515262515262515, 0.47985347985347987, -4.183150183150183, 0.90625, -0.875, -0.3125, 0.0
395, -2.4725274725274726, -0.6043956043956044, -4.571428571428571, 0.875, -0.65625, -0.125, 0.0
396, -2.431013431013431, -0.7643467643467643, -4.648351648351649, 0.46875, -0.4375, -0.15625, 0.0
397, -2.9474969474969477, -0.31868131868131866, -4.227106227106227, -0.0625, -0.34375, -0.21875, 0.0
398, -2.617826617826618, 0.22832722832722832, -3.432234432234432, -0.34375, -0.125, -0.09375, 0.0
399, -1.6434676434676434, 0.27228327228327226, -2.976800976800977, -0.5, -0.3125, -0.03125, 0.0
400, -2.0427350427350426, 0.19536019536019536, -2.901098901098901, -0.59375, -0.40625, -0.09375, 0.0
401, -2.4676434676434678, -0.3956043956043956, -2.7203907203907205, -0.75, -0.5, -0.21875, 0.0
402, -2.6837606837606836, -0.6349206349206349, -2.3724053724053724, -0.96875, -0.625, -0.1875, 0.0
403, -1.5677655677655677, -0.5653235653235653, -1.6263736263736264, -1.1875, -1.25, -0.40625, 0.0
404, -0.8608058608058609, -0.19658119658119658, -1.0915750915750915, -1.3125, -2.34375, -0.5625, 1.0
405, -1.321123321123321, 0.2039072039072039, -0.7887667887667887, -1.4375, -3.65625, -0.375, 1.0
406, -1.4700854700854702, -0.8669108669108669, -1.133089133089133, -2.3125, -5.3125, -0.125, 1.0
407, -3.2393162393162394, 0.19536019536019536, -0.2258852258852259, -3.0625, -6.40625, -0.3125, 1.0
408, -5.518925518925519, 2.283272283272283, 1.089133089133089, -3.125, -6.5, -0.125, 1.0
409, -5.015873015873016, 4.326007326007326, 1.4713064713064714, -2.5, -6.0, 0.15625, 1.0
410, -2.727716727716728, 5.131868131868132, 1.3162393162393162, -2.15625, -6.09375, 0.28125, 1.0
411, -1.6654456654456655, 6.738705738705739, 0.22832722832722832, -2.5, -7.0, 0.5, 1.0
412, -0.7667887667887668, 6.194139194139194, 0.8937728937728938, -2.6875, -7.21875, 0.625, 1.0
413, 0.08791208791208792, 3.8742368742368742, 1.6691086691086692, -2.65625, -7.59375, 0.09375, 1.0
414, -1.3028083028083028, 2.5323565323565322, 2.3235653235653237, -2.5625, -8.21875, -0.71875, 1.0
415, -3.796092796092796, 2.0964590964590966, 2.056166056166056, -2.0625, -8.3125, -0.5625, 1.0
416, -3.675213675213675, 1.750915750915751, 0.8229548229548229, -1.25, -7.375, 0.1875, 1.0
417, -0.37362637362637363, -0.46764346764346765, -0.5384615384615384, -0.59375, -6.3125, 0.4375, 1.0
418, 0.7948717948717948, -1.061050061050061, -0.8815628815628815, -0.8125, -6.28125, -0.1875, 1.0
419, -0.6398046398046398, 0.6715506715506715, -1.0805860805860805, -1.03125, -6.65625, -0.59375, 1.0
420, -2.1868131868131866, 1.0964590964590966, -2.3736263736263736, -0.46875, -6.03125, -0.46875, 1.0
421, -2.797313797313797, 1.2857142857142858, -3.3785103785103785, 0.125, -4.71875, 0.0, 1.0
422, -2.4542124542124544, 0.30036630036630035, -4.017094017094017, 0.59375, -3.0625, 0.8125, 1.0
423, 0.9841269841269841, 0.2490842490842491, -3.399267399267399, 0.59375, -2.34375, 0.875, 1.0
424, 1.4737484737484738, -0.057387057387057384, -3.3663003663003663, 0.5625, -2.53125, 0.71875, 1.0
425, 1.083028083028083, 0.3125763125763126, -3.562881562881563, 0.53125, -2.4375, 0.65625, 1.0
426, 0.2564102564102564, 0.5787545787545788, -3.656898656898657, 0.5625, -2.0, 0.71875, 1.0
427, 1.1587301587301588, 0.09645909645909646, -3.3943833943833943, 0.46875, -1.8125, 0.71875, 1.0
428, 1.1904761904761905, 0.9462759462759462, -3.2967032967032965, 0.53125, -1.78125, 0.75, 1.0
429, 1.4932844932844933, 0.37484737484737485, -4.067155067155067, 0.5, -1.625, 0.875, 1.0
430, 1.376068376068376, 0.7032967032967034, -4.511599511599512, 0.5, -1.1875, 1.0, 1.0
431, 1.7985347985347986, 0.9474969474969475, -4.474969474969475, 0.625, -0.5625, 1.15625, 1.0
432, 2.214896214896215, 0.6105006105006106, -4.396825396825397, 0.625, 0.0, 1.21875, 1.0
433, 2.929181929181929, 0.3528693528693529, -4.0195360195360195, 0.5, 0.25, 1.1875, 1.0
434, 4.625152625152626, -0.2844932844932845, -3.36996336996337, 0.0, -0.0625, 0.5625, 1.0
435, 2.4249084249084247, 0.568986568986569, -1.4188034188034189, -0.09375, -0.0625, 0.28125, 1.0
436, 1.216117216117216, 0.9792429792429792, -0.47863247863247865, -0.09375, 0.125, 0.25, 1.0
437, 0.48717948717948717, 0.6446886446886447, 0.24297924297924298, 0.0, 0.28125, 0.34375, 1.0
438, 1.1636141636141637, -0.17094017094017094, 0.702075702075702, 0.03125, 0.28125, 0.34375, 1.0
439, 0.6568986568986569, -0.11965811965811966, 1.1111111111111112, -0.03125, 0.0, 0.21875, 1.0
440, -0.12698412698412698, 0.06471306471306472, 1.0158730158730158, 0.03125, 0.0, 0.1875, 1.0
441, -0.568986568986569, 0.05982905982905983, 0.5616605616605617, 0.15625, 0.1875, 0.28125, 1.0
442, -0.013431013431013432, -0.29426129426129427, 0.2454212454212454, 0.28125, 0.25, 0.34375, 1.0
443, 0.37362637362637363, -0.5152625152625152, -0.0927960927960928, 0.1875, 0.125, 0.3125, 1.0
444, 0.3052503052503053, -0.39316239316239315, -0.29304029304029305, 0.0625, 0.0, 0.21875, 1.0
445, 0.18315018315018314, -0.16971916971916973, -0.4810744810744811, 0.0, 0.03125, 0.1875, 1.0
446, -0.12454212454212454, -0.13797313797313798, -0.6874236874236874, -0.09375, 0.3125, 0.3125, 0.0
447, 0.03785103785103785, -0.26373626373626374, -0.8131868131868132, -0.3125, 0.5, 0.5, 0.0
448, 0.5897435897435898, -0.1562881562881563, -0.8192918192918193, -0.4375, 0.375, 0.46875, 0.0
449, 0.5921855921855922, 0.07448107448107448, -0.5152625152625152, -0.5, 0.09375, 0.25, 0.0
450, -0.1855921855921856, 0.42857142857142855, 0.009768009768009768, -0.25, 0.03125, 0.03125, 0.0
451, -0.6752136752136753, 0.7985347985347986, 0.28083028083028083, 0.03125, 0.25, 0.03125, 0.0
452, -0.7106227106227107, 0.7094017094017094, 0.0695970695970696, 0.25, 0.4375, 0.1875, 0.0
453, -0.42857142857142855, 0.2039072039072039, -0.2503052503052503, 0.21875, 0.46875, 0.375, 0.0
454, 0.336996336996337, -0.07814407814407814, -0.2503052503052503, 0.0625, 0.34375, 0.28125, 0.0
455, 0.08424908424908426, 0.06837606837606838, -0.10012210012210013, 0.03125, 0.34375, 0.21875, 0.0
456, -0.21367521367521367, 0.5873015873015873, 0.35775335775335776, 0.3125, 0.625, 0.0625, 0.0
457, -0.27350427350427353, 0.6056166056166056, 0.7277167277167277, 0.8125, 1.0, 0.21875, 0.0
458, -0.4163614163614164, -0.14896214896214896, 0.029304029304029304, 0.9375, 1.375, 0.75, 0.0
459, -0.3724053724053724, 0.23931623931623933, 0.11843711843711843, 0.96875, 1.71875, 1.28125, 0.0
460, 0.007326007326007326, 0.5653235653235653, 0.48473748473748474, 1.28125, 2.375, 1.53125, 0.0
461, 1.6898656898656899, -0.07692307692307693, 0.5518925518925519, 1.6875, 2.84375, 1.75, 0.0
462, 2.3907203907203907, -0.47863247863247865, 0.04151404151404151, 1.9375, 3.03125, 1.65625, 0.0
463, 2.253968253968254, -0.652014652014652, -0.8754578754578755, 2.21875, 3.46875, 1.3125, 0.0
464, 0.6507936507936508, 0.12942612942612944, -1.652014652014652, 2.6875, 4.53125, 1.3125, 0.0
465, 0.46642246642246643, -0.673992673992674, -2.010989010989011, 3.4375, 6.0625, 1.65625, 0.0
466, 2.2185592185592187, -1.673992673992674, -1.5738705738705738, 3.9375, 7.46875, 1.9375, 0.0
467, 3.1684981684981683, -1.4493284493284493, -1.0488400488400489, 4.0625, 8.21875, 1.9375, 0.0
468, 4.452991452991453, -1.4542124542124542, -0.4188034188034188, 4.0, 8.3125, 1.65625, 0.0
469, 4.433455433455434, -0.9230769230769231, 0.1916971916971917, 3.96875, 7.78125, 1.09375, 0.0
470, 3.8534798534798536, -0.7118437118437119, 0.6239316239316239, 4.3125, 7.46875, 0.6875, 0.0
471, 4.609279609279609, -1.4627594627594627, 1.0146520146520146, 4.5, 6.84375, 0.21875, 0.0
472, 4.4041514041514045, -1.910866910866911, 0.5873015873015873, 4.5, 5.75, -0.03125, 0.0
473, 2.625152625152625, -1.5873015873015872, 0.028083028083028084, 4.5625, 5.0625, -0.15625, 0.0
474, 1.822954822954823, -1.9755799755799757, -0.28327228327228327, 4.5625, 4.5625, -0.03125, 0.0
475, 2.139194139194139, -2.47008547008547, -0.5152625152625152, 4.53125, 4.0, 0.0, 0.0
476, 3.0146520146520146, -2.6117216117216118, -0.5006105006105006, 4.40625, 3.15625, -0.09375, 0.0
477, 2.451770451770452, -2.713064713064713, -0.9304029304029304, 4.1875, 2.4375, -0.125, 0.0
478, 2.231990231990232, -3.5128205128205128, -1.1367521367521367, 3.84375, 1.90625, -0.375, 0.0
479, 2.4383394383394386, -3.4786324786324787, -1.376068376068376, 3.4375, 1.28125, -0.59375, 0.0
480, 2.081807081807082, -2.658119658119658, -1.3394383394383393, 3.28125, 0.5625, -0.90625, 0.0
481, -0.8632478632478633, -2.6849816849816848, -2.2979242979242978, 3.21875, 0.1875, -1.09375, 0.0
482, -1.332112332112332, -2.385836385836386, -2.628815628815629, 3.0625, 0.21875, -1.1875, 0.0
483, -1.3492063492063493, -1.89010989010989, -2.659340659340659, 2.84375, 0.0625, -1.15625, 0.0
484, -1.9084249084249085, -1.7167277167277166, -3.214896214896215, 2.6875, -0.21875, -0.96875, 0.0
485, -1.8754578754578755, -2.0134310134310134, -4.183150183150183, 2.65625, -0.5, -0.90625, 0.0
486, -2.131868131868132, -2.562881562881563, -5.2234432234432235, 2.34375, -0.8125, -1.0625, 0.0
487, -3.183150183150183, -2.1025641025641026, -5.603174603174603, 1.78125, -0.96875, -1.1875, 0.0
488, -3.8046398046398044, -1.5213675213675213, -5.511599511599512, 1.3125, -0.84375, -1.03125, 0.0
489, -3.440781440781441, -1.0158730158730158, -5.286935286935287, 1.03125, -0.6875, -0.71875, 0.0
490, -4.2234432234432235, -0.7655677655677655, -4.896214896214897, 0.90625, -0.46875, -0.40625, 0.0
491, -3.341880341880342, -0.7887667887667887, -4.418803418803419, 0.8125, -0.15625, -0.28125, 0.0
492, -2.4615384615384617, -0.5177045177045178, -3.965811965811966, 0.375, -0.28125, 0.0, 0.0
493, -2.1135531135531136, -0.45787545787545786, -3.7435897435897436, 0.15625, -0.53125, 0.09375, 0.0
494, -2.3553113553113554, -0.3321123321123321, -3.6373626373626373, 0.0625, -0.5, 0.09375, 0.0
495, -2.432234432234432, -0.1514041514041514, -3.628815628815629, 0.0625, -0.3125, 0.0625, 0.0
496, -2.2979242979242978, -0.5775335775335775, -3.724053724053724, -0.0625, -0.09375, 0.09375, 0.0
497, -1.8461538461538463, -0.7887667887667887, -3.4554334554334556, -0.34375, -0.21875, 0.0, 0.0
498, -1.7057387057387057, -0.38583638583638585, -2.8656898656898657, -0.375, -0.5625, -0.25, 0.0
499, -2.5921855921855923, -0.1514041514041514, -2.446886446886447, -0.375, -0.65625, -0.125, 1.0
500, -2.4053724053724053, -0.7753357753357754, -2.5641025641025643, -0.5625, -0.75, 0.1875, 1.0
501, -0.9755799755799756, -1.7252747252747254, -3.0537240537240535, -1.21875, -1.6875, 0.46875, 1.0
502, 1.0634920634920635, -1.7912087912087913, -1.6007326007326008, -2.0625, -3.8125, 0.46875, 1.0
503, 0.32722832722832723, -0.30158730158730157, 0.12576312576312576, -2.375, -5.9375, 0.0625, 1.0
504, -5.735042735042735, 0.11965811965811966, -0.6153846153846154, -2.03125, -6.46875, 0.1875, 1.0
505, -2.3003663003663, 0.3907203907203907, -0.37362637362637363, -1.84375, -6.125, 0.71875, 1.0
506, 1.4822954822954824, 0.9242979242979243, 0.4053724053724054, -1.875, -7.1875, 0.65625, 1.0
507, -0.5885225885225885, 3.0256410256410255, 2.0744810744810747, -2.34375, -9.46875, 0.3125, 1.0
508, -4.211233211233211, 5.727716727716728, 2.4249084249084247, -2.71875, -10.21875, 0.375, 1.0
509, -4.471306471306471, 2.5335775335775335, 1.0915750915750915, -2.46875, -8.75, 0.53125, 1.0
510, -1.3406593406593406, 1.7692307692307692, 0.326007326007326, -1.90625, -7.1875, 0.65625, 1.0
511, 0.2869352869352869, 0.9267399267399268, 0.48595848595848595, -1.5, -7.0625, 0.5, 1.0
512, -1.304029304029304, 0.25274725274725274, 0.39316239316239315, -1.375, -7.4375, 0.375, 1.0
513, -1.6703296703296704, -0.10989010989010989, -0.7374847374847375, -0.96875, -6.8125, 0.5625, 1.0
514, -1.2087912087912087, 0.019536019536019536, -1.8144078144078144, -0.3125, -5.375, 0.5, 1.0
515, -1.10989010989011, 0.08302808302808302, -2.5335775335775335, 0.125, -3.90625, 0.6875, 1.0
516, -0.199023199023199, -0.22954822954822954, -2.7887667887667886, 0.09375, -3.03125, 1.0, 1.0
517, 1.722832722832723, -0.22832722832722832, -2.318681318681319, -0.03125, -3.40625, 0.78125, 1.0
518, 0.945054945054945, 0.5409035409035409, -2.023199023199023, 0.0, -3.59375, 0.46875, 1.0
519, -0.8107448107448108, 0.8021978021978022, -2.2954822954822953, 0.1875, -3.125, 0.53125, 1.0
520, -0.851037851037851, 0.1221001221001221, -2.8058608058608057, 0.21875, -2.34375, 0.75, 1.0
521, 0.9938949938949939, -0.48595848595848595, -3.065934065934066, -0.0625, -2.25, 0.90625, 1.0
522, 3.021978021978022, -0.7411477411477412, -2.7814407814407813, -0.5, -2.75, 0.5625, 1.0
523, 0.8156288156288156, 1.1355311355311355, -2.6507936507936507, -0.375, -2.59375, 0.3125, 1.0
524, -1.1916971916971917, 1.822954822954823, -3.032967032967033, 0.0, -1.75, 0.65625, 1.0
525, -0.2222222222222222, 1.496947496947497, -2.8913308913308913, 0.125, -1.03125, 1.0, 1.0
526, 1.0976800976800978, 1.47985347985348, -2.8693528693528694, 0.25, -0.8125, 1.125, 1.0
527, 1.9194139194139195, 0.5677655677655677, -3.2576312576312576, 0.09375, -0.75, 1.03125, 1.0
528, 1.6507936507936507, 0.47863247863247865, -2.8937728937728937, 0.0, -0.46875, 1.0, 1.0
529, 2.404151404151404, 0.15873015873015872, -2.409035409035409, 0.0625, -0.125, 1.0625, 1.0
530, 3.0891330891330893, -0.17826617826617827, -2.0781440781440783, 0.09375, 0.09375, 1.0, 1.0
531, 3.5775335775335777, -0.5067155067155067, -1.7484737484737485, 0.09375, 0.1875, 0.8125, 1.0
532, 3.844932844932845, -0.702075702075702, -1.3601953601953602, 0.0, 0.09375, 0.46875, 1.0
533, 2.4664224664224665, -0.4188034188034188, -0.873015873015873, -0.125, -0.03125, 0.09375, 1.0
534, 1.5360195360195361, 0.1221001221001221, -0.36507936507936506, -0.125, 0.03125, 0.0, 1.0
535, 0.8131868131868132, 0.25274725274725274, 0.02442002442002442, -0.09375, 0.09375, 0.0, 1.0
536, 0.24664224664224665, 0.10012210012210013, 0.14896214896214896, -0.03125, 0.15625, 0.0, 1.0
537, 0.18925518925518925, 0.10134310134310134, 0.25274725274725274, -0.03125, 0.21875, 0.0, 1.0
538, 0.2026862026862027, -0.2026862026862027, 0.31868131868131866, 0.0, 0.125, -0.03125, 1.0
539, -0.17338217338217338, -0.07081807081807082, 0.3052503052503053, -0.03125, 0.03125, -0.0625, 1.0
540, -0.5494505494505495, 0.02197802197802198, 0.07081807081807082, -0.03125, 0.09375, 0.0, 1.0
541, -0.5115995115995116, -0.10622710622710622, -0.007326007326007326, -0.0625, 0.1875, 0.09375, 1.0
542, -0.4004884004884005, -0.11355311355311355, -0.03663003663003663, -0.15625, 0.21875, 0.15625, 1.0
543, -0.17216117216117216, -0.33455433455433453, -0.14285714285714285, -0.34375, 0.21875, 0.25, 0.0
544, -0.06227106227106227, -0.32967032967032966, -0.2576312576312576, -0.59375, 0.15625, 0.34375, 0.0
545, 0.013431013431013432, -0.015873015873015872, 0.0, -0.5625, 0.09375, 0.375, 0.0
546, -0.5641025641025641, 0.11355311355311355, -0.28815628815628813, -0.4375, 0.03125, 0.375, 0.0
547, -0.6776556776556777, 0.19413919413919414, -0.2271062271062271, -0.3125, 0.0, 0.34375, 0.0
548, -0.8986568986568987, 0.2148962148962149, -0.040293040293040296, -0.15625, 0.0625, 0.34375, 0.0
549, -0.7216117216117216, 0.21001221001221002, 0.231990231990232, -0.03125, 0.125, 0.40625, 0.0
550, -0.42246642246642246, 0.1746031746031746, 0.5238095238095238, 0.0625, 0.15625, 0.5625, 0.0
551, -0.40415140415140416, 0.04151404151404151, 0.894993894993895, 0.1875, 0.3125, 0.6875, 0.0
552, -0.5323565323565324, 0.44932844932844934, 1.043956043956044, 0.375, 0.625, 0.8125, 0.0
553, -0.7667887667887668, 1.0231990231990231, 1.1941391941391941, 0.875, 1.3125, 1.1875, 0.0
554, -0.15506715506715507, 0.8131868131868132, 1.358974358974359, 1.5625, 2.21875, 1.59375, 0.0
555, 1.5763125763125763, 0.2612942612942613, 0.8278388278388278, 2.25, 3.0625, 1.875, 0.0
556, 3.543345543345543, -1.05006105006105, -0.2087912087912088, 2.6875, 3.46875, 2.0, 0.0
557, 3.827838827838828, -1.7973137973137974, -1.3382173382173381, 2.875, 3.875, 1.84375, 0.0
558, 4.142857142857143, -2.075702075702076, -1.7643467643467643, 3.0, 4.625, 1.6875, 0.0
559, 4.495726495726496, -2.1697191697191696, -1.592185592185592, 3.1875, 5.5625, 1.625, 0.0
560, 4.003663003663004, -1.332112332112332, -0.818070818070818, 3.4375, 6.4375, 1.53125, 0.0
561, 4.715506715506716, -0.9413919413919414, -0.1575091575091575, 3.71875, 7.0625, 1.34375, 0.0
562, 4.929181929181929, -0.5970695970695971, 0.21001221001221002, 3.6875, 6.9375, 0.9375, 0.0
563, 4.294261294261294, -0.2026862026862027, 0.4908424908424908, 3.71875, 6.84375, 0.75, 0.0
564, 4.536019536019536, 0.2026862026862027, 1.098901098901099, 3.875, 6.71875, 0.46875, 0.0
565, 4.267399267399267, 0.4236874236874237, 1.0402930402930404, 4.1875, 6.46875, 0.28125, 0.0
566, 3.2673992673992673, 0.6788766788766789, 0.6190476190476191, 4.5, 6.1875, 0.125, 0.0
567, 2.617826617826618, -0.33821733821733824, 0.23565323565323565, 4.65625, 5.90625, -0.03125, 0.0
568, 2.2503052503052503, -0.7032967032967034, -0.2979242979242979, 4.625, 5.34375, -0.15625, 0.0
569, 1.6349206349206349, -1.4261294261294262, -0.47741147741147744, 4.5, 5.0, -0.15625, 0.0
570, 1.465201465201465, -1.4578754578754578, -0.8266178266178266, 4.40625, 4.6875, -0.09375, 0.0
571, 1.9072039072039073, -1.8644688644688645, -1.1184371184371185, 4.28125, 4.15625, 0.0, 0.0
572, 2.131868131868132, -2.623931623931624, -1.8034188034188035, 3.96875, 3.4375, -0.0625, 0.0
573, 1.7142857142857142, -3.5653235653235655, -2.3235653235653237, 3.375, 2.71875, -0.40625, 0.0
574, 1.065934065934066, -1.170940170940171, -1.5299145299145298, 2.875, 1.5, -0.90625, 0.0
575, -0.7289377289377289, -1.855921855921856, -1.9072039072039073, 2.875, 0.65625, -0.96875, 0.0
576, -1.7179487179487178, -2.2905982905982905, -2.509157509157509, 2.75, 0.34375, -0.90625, 0.0
577, -2.006105006105006, -2.36996336996337, -2.978021978021978, 2.375, 0.21875, -1.0, 0.0
578, -1.945054945054945, -1.1953601953601953, -3.142857142857143, 1.9375, 0.09375, -1.09375, 0.0
579, -1.7094017094017093, -0.10500610500610501, -3.3321123321123323, 1.8125, -0.09375, -1.09375, 0.0
580, -2.5274725274725274, -0.8388278388278388, -3.778998778998779, 1.8125, -0.34375, -0.78125, 0.0
581, -2.437118437118437, -1.0073260073260073, -4.034188034188034, 1.59375, -0.34375, -0.59375, 0.0
582, -2.304029304029304, -0.3504273504273504, -3.8461538461538463, 1.21875, -0.15625, -0.5625, 0.0
583, -1.7167277167277166, 0.5177045177045178, -3.6605616605616604, 1.15625, -0.09375, -0.53125, 0.0
584, -1.393162393162393, 0.11843711843711843, -4.085470085470085, 1.21875, -0.375, -0.40625, 0.0
585, -1.6398046398046398, -0.3614163614163614, -4.551892551892552, 0.71875, -0.71875, -0.34375, 0.0
586, -2.227106227106227, -0.2515262515262515, -4.343101343101343, 0.21875, -0.5625, -0.28125, 0.0
587, -2.374847374847375, 0.8144078144078144, -3.744810744810745, 0.09375, -0.21875, -0.03125, 0.0
588, -1.8681318681318682, 0.5604395604395604, -3.028083028083028, 0.09375, 0.09375, 0.09375, 0.0
589, -0.7557997557997558, 0.06593406593406594, -2.4493284493284495, 0.0, 0.0, 0.03125, 0.0
590, -0.590964590964591, 0.1221001221001221, -1.8766788766788767, -0.125, -0.1875, -0.09375, 0.0
591, -0.7777777777777778, -0.10622710622710622, -1.57997557997558, -0.3125, -0.25, -0.25, 0.0
592, -1.225885225885226, 0.21123321123321123, -1.2112332112332111, -0.34375, -0.21875, -0.25, 0.0
593, -1.2075702075702075, -0.03296703296703297, -1.1904761904761905, -0.25, -0.25, -0.1875, 0.0
594, -1.363858363858364, -0.326007326007326, -1.3504273504273505, -0.21875, -0.25, -0.1875, 0.0
595, -1.407814407814408, -0.6031746031746031, -1.5555555555555556, -0.4375, -0.34375, -0.3125, 0.0
596, -1.0024420024420024, -0.05982905982905983, -1.3797313797313797, -0.6875, -0.59375, -0.40625, 1.0
597, 0.052503052503052504, 0.6141636141636142, -1.6691086691086692, -0.71875, -1.375, -0.28125, 1.0
598, -1.8363858363858363, -0.028083028083028084, -2.8473748473748475, -0.75, -1.6875, 0.0, 1.0
599, -1.9365079365079365, -1.3455433455433456, -3.0720390720390722, -1.03125, -1.9375, 0.09375, 1.0
600, -1.514041514041514, -1.3223443223443223, -2.0903540903540905, -1.625, -2.375, 0.15625, 1.0
601, -0.8852258852258852, -0.38583638583638585, -0.9157509157509157, -2.0, -3.15625, 0.1875, 1.0
602, 1.5702075702075702, -0.6678876678876678, -0.4053724053724054, -2.0, -4.40625, -0.0625, 1.0
603, 1.3504273504273505, -0.05982905982905983, 0.31135531135531136, -2.15625, -6.46875, -0.5, 1.0
604, -3.31013431013431, 0.10134310134310134, 1.216117216117216, -2.28125, -8.34375, -0.96875, 1.0
605, -7.995115995115995, 1.2893772893772895, 1.2515262515262515, -2.40625, -8.25, -0.75, 1.0
606, -6.4945054945054945, 4.409035409035409, 1.2747252747252746, -2.21875, -6.84375, 0.25, 1.0
607, -1.0012210012210012, 7.852258852258852, 1.347985347985348, -1.90625, -6.0625, 0.9375, 1.0
608, 1.1697191697191698, 4.362637362637362, 2.2075702075702077, -1.96875, -6.71875, 0.8125, 1.0
609, 0.8608058608058609, 2.3272283272283274, 2.94993894993895, -1.875, -7.40625, 0.21875, 1.0
610, -0.026862026862026864, 1.708180708180708, 2.6837606837606836, -1.34375, -7.46875, -0.15625, 1.0
611, -1.1452991452991452, 1.4542124542124542, 2.4835164835164836, -0.8125, -7.4375, -0.15625, 1.0
612, -3.68986568986569, 0.6410256410256411, 0.2612942612942613, -0.125, -5.96875, 0.4375, 1.0
613, -2.42002442002442, -0.8021978021978022, -2.5067155067155067, 0.0, -4.03125, 0.9375, 1.0
614, 3.7936507936507935, -1.1623931623931625, -1.9023199023199022, -0.46875, -4.28125, 0.46875, 1.0
615, 5.266178266178266, -0.8803418803418803, 0.030525030525030524, -0.96875, -6.0, -0.71875, 1.0
616, -0.3235653235653236, 0.46886446886446886, 0.8766788766788767, -1.0625, -6.59375, -1.21875, 1.0
617, -5.213675213675214, 2.387057387057387, -0.6007326007326007, -0.25, -4.90625, -0.34375, 1.0
618, -4.805860805860806, 1.910866910866911, -2.415140415140415, 0.5625, -2.59375, 0.625, 1.0
619, 2.5384615384615383, -1.1758241758241759, -3.1184371184371185, 0.25, -2.625, 0.625, 1.0
620, 2.5409035409035408, -0.8083028083028083, -2.2625152625152625, -0.40625, -3.625, -0.28125, 1.0
621, -3.426129426129426, 2.3443223443223444, -2.473748473748474, 0.03125, -2.75, 0.15625, 1.0
622, -0.9633699633699634, 0.8962148962148963, -2.8205128205128207, 0.46875, -1.875, 0.71875, 1.0
623, 0.8302808302808303, -0.17216117216117216, -2.7887667887667886, 0.28125, -1.96875, 0.78125, 1.0
624, -0.34554334554334554, 0.24175824175824176, -2.474969474969475, 0.0, -2.15625, 0.4375, 1.0
625, -1.0183150183150182, 1.4017094017094016, -1.9230769230769231, 0.0, -1.65625, 0.53125, 1.0
626, 0.3626373626373626, 1.037851037851038, -1.879120879120879, 0.40625, -1.125, 0.8125, 1.0
627, 1.8583638583638584, 0.10378510378510379, -2.293040293040293, 0.53125, -1.09375, 0.8125, 1.0
628, 1.468864468864469, 0.358974358974359, -2.6398046398046398, 0.375, -1.25, 0.625, 1.0
629, 1.3907203907203907, 0.41147741147741146, -2.935286935286935, 0.3125, -1.09375, 0.53125, 1.0
630, 1.21001221001221, 0.5824175824175825, -2.8315018315018317, 0.3125, -0.75, 0.53125, 1.0
631, 1.1978021978021978, 0.6117216117216118, -2.440781440781441, 0.40625, -0.1875, 0.59375, 1.0
632, 2.028083028083028, 0.2673992673992674, -2.288156288156288, 0.4375, 0.1875, 0.625, 1.0
633, 2.6092796092796093, -0.18803418803418803, -2.1343101343101343, 0.25, 0.125, 0.40625, 1.0
634, 2.6056166056166057, -0.28083028083028083, -1.7545787545787546, 0.03125, 0.0, 0.125, 1.0
635, 2.043956043956044, 0.21978021978021978, -1.1672771672771673, -0.0625, -0.125, -0.03125, 1.0
636, 0.6043956043956044, 0.5641025641025641, -0.5946275946275946, 0.0, 0.0, -0.03125, 1.0
637, -0.20757020757020758, 0.6935286935286935, 0.14041514041514042, 0.09375, 0.28125, 0.0625, 1.0
638, -0.06471306471306472, 0.2588522588522589, 0.2588522588522589, 0.09375, 0.375, 0.1875, 1.0
639, 0.6703296703296703, -0.2039072039072039, 0.41147741147741146, -0.03125, 0.0625, 0.0625, 1.0
640, 0.0231990231990232, 0.09157509157509157, 0.3553113553113553, -0.0625, -0.15625, -0.03125, 1.0
641, -1.0818070818070817, 0.43223443223443225, 0.45787545787545786, 0.0625, 0.0, 0.0625, 1.0
642, -1.0671550671550671, 0.03540903540903541, 0.3431013431013431, 0.1875, 0.25, 0.25, 1.0
643, -0.10744810744810745, -0.33455433455433453, 0.2661782661782662, 0.15625, 0.28125, 0.25, 1.0
644, 0.115995115995116, -0.63003663003663, -0.336996336996337, -0.15625, -0.125, 0.125, 0.0
645, -0.7142857142857143, -0.2954822954822955, -0.4444444444444444, -0.5, -0.0625, 0.21875, 0.0
646, -1.028083028083028, 0.5641025641025641, 0.2148962148962149, -0.5625, 0.15625, 0.5, 0.0
647, -0.7692307692307693, 0.4627594627594628, -0.05616605616605617, -0.375, 0.34375, 0.6875, 0.0
648, -0.05128205128205128, 0.07326007326007326, -0.1391941391941392, -0.15625, 0.3125, 0.78125, 0.0
649, 0.46764346764346765, -0.6361416361416361, -0.46764346764346765, -0.15625, 0.0625, 0.59375, 0.0
650, -0.1330891330891331, -0.14163614163614163, -0.4358974358974359, -0.21875, -0.0625, 0.25, 0.0
651, -0.43833943833943834, 0.4126984126984127, -0.07203907203907203, -0.125, 0.03125, 0.1875, 0.0
652, -0.4896214896214896, 0.3626373626373626, 0.07448107448107448, 0.03125, 0.21875, 0.375, 0.0
653, -0.2698412698412698, 0.15873015873015872, 0.2612942612942613, 0.15625, 0.34375, 0.53125, 0.0
654, -0.26495726495726496, 0.1452991452991453, 0.304029304029304, 0.21875, 0.5, 0.59375, 0.0
655, -0.8571428571428571, 0.7545787545787546, 0.48473748473748474, 0.5625, 1.15625, 1.0, 0.0
656, -1.8327228327228327, 1.7802197802197801, 0.7826617826617827, 1.28125, 2.15625, 1.65625, 0.0
657, -2.728937728937729, 2.120879120879121, 0.778998778998779, 2.375, 3.84375, 2.46875, 0.0
658, 0.08913308913308914, 0.43101343101343104, 0.7680097680097681, 3.21875, 5.1875, 2.6875, 0.0
659, 2.728937728937729, -1.7716727716727716, 0.18437118437118438, 3.34375, 5.59375, 2.4375, 0.0
660, 3.242979242979243, -1.7814407814407816, -0.21611721611721613, 3.25, 5.78125, 2.21875, 0.0
661, 2.354090354090354, -0.9865689865689866, -0.32844932844932845, 3.5, 6.46875, 2.25, 0.0
662, 1.916971916971917, -1.4017094017094016, -0.46764346764346765, 3.84375, 7.375, 2.3125, 0.0
663, 2.122100122100122, -1.507936507936508, -0.05128205128205128, 3.96875, 8.1875, 2.3125, 0.0
664, 3.4761904761904763, -0.724053724053724, 0.7875457875457875, 3.90625, 8.21875, 2.0, 0.0
665, 4.246642246642247, -0.2503052503052503, 1.2197802197802199, 3.875, 7.8125, 1.53125, 0.0
666, 4.333333333333333, 0.15018315018315018, 1.1807081807081807, 3.90625, 7.15625, 1.15625, 0.0
667, 2.244200244200244, -0.30158730158730157, 2.0976800976800978, 4.0625, 6.59375, 0.90625, 0.0
668, 2.774114774114774, -1.3333333333333333, 1.6654456654456655, 4.125, 6.15625, 0.84375, 0.0
669, 2.735042735042735, -1.0366300366300367, 1.3308913308913308, 4.0625, 5.375, 0.59375, 0.0
670, 2.8864468864468864, -1.474969474969475, 0.7118437118437119, 4.0, 4.40625, 0.3125, 0.0
671, 1.5042735042735043, -1.42002442002442, 0.045177045177045176, 3.84375, 3.375, 0.21875, 0.0
672, 1.1807081807081807, -2.0073260073260073, -0.5042735042735043, 3.75, 2.8125, 0.21875, 0.0
673, 1.4322344322344323, -1.708180708180708, -0.9242979242979243, 3.65625, 2.375, 0.15625, 0.0
674, 0.8351648351648352, -2.993894993894994, -1.3626373626373627, 3.4375, 2.0625, 0.0625, 0.0
675, 0.9804639804639804, -2.9902319902319903, -1.1355311355311355, 3.1875, 1.8125, -0.1875, 0.0
676, 1.8461538461538463, -2.039072039072039, -0.9755799755799756, 2.9375, 1.40625, -0.46875, 0.0
677, 0.9633699633699634, -2.010989010989011, -1.122100122100122, 2.8125, 0.625, -0.71875, 0.0
678, -1.1147741147741148, -2.5934065934065935, -1.1526251526251525, 2.71875, 0.3125, -0.65625, 0.0
679, -0.7619047619047619, -2.4297924297924296, -1.120879120879121, 2.65625, 0.5, -0.59375, 0.0
680, -0.17704517704517705, -2.0427350427350426, -1.2515262515262515, 2.59375, 0.21875, -0.71875, 0.0
681, -0.3882783882783883, -1.7448107448107448, -1.5665445665445665, 2.5625, -0.15625, -0.8125, 0.0
682, -0.28815628815628813, -1.557997557997558, -2.3833943833943834, 2.40625, -0.5, -0.8125, 0.0
683, -1.2112332112332111, -1.4615384615384615, -3.012210012210012, 2.1875, -0.53125, -0.875, 0.0
684, -1.7106227106227105, -1.2625152625152625, -3.1941391941391943, 2.03125, -0.3125, -0.78125, 0.0
685, -1.2576312576312576, -0.5384615384615384, -3.31013431013431, 1.96875, -0.28125, -0.65625, 0.0
686, -1.2283272283272284, -0.39438339438339437, -3.440781440781441, 1.875, -0.40625, -0.625, 0.0
687, -1.7826617826617828, -0.63003663003663, -3.7326007326007327, 1.65625, -0.5, -0.625, 0.0
688, -1.7252747252747254, -0.5787545787545788, -3.9279609279609278, 1.3125, -0.5625, -0.59375, 0.0
689, -2.0415140415140414, -0.5702075702075702, -4.336996336996337, 0.90625, -0.59375, -0.59375, 0.0
690, -2.490842490842491, 0.16361416361416362, -4.498168498168498, 0.5625, -0.6875, -0.59375, 0.0
691, -2.5616605616605614, 1.0073260073260073, -4.559218559218559, 0.5, -0.59375, -0.46875, 0.0
692, -2.8131868131868134, 0.21245421245421245, -4.716727716727717, 0.3125, -0.5, -0.28125, 0.0
693, -3.166056166056166, -0.24175824175824176, -4.548229548229548, -0.125, -0.4375, -0.15625, 0.0
694, -3.993894993894994, 0.724053724053724, -3.4725274725274726, -0.46875, -0.1875, -0.03125, 0.0
695, -2.636141636141636, 0.9340659340659341, -2.426129426129426, -0.375, 0.0625, 0.0, 0.0
696, -1.459096459096459, -0.001221001221001221, -2.191697191697192, -0.28125, -0.15625, 0.03125, 0.0
697, -1.5506715506715507, -0.45665445665445664, -2.4126984126984126, -0.46875, -0.6875, 0.0, 1.0
698, -1.9682539682539681, 0.10989010989010989, -2.542124542124542, -0.78125, -1.3125, -0.15625, 1.0
699, -3.647130647130647, 0.7753357753357754, -3.272283272283272, -1.0625, -1.8125, 0.25, 1.0
700, -3.8815628815628815, 0.12332112332112333, -3.73992673992674, -1.125, -1.78125, 0.84375, 1.0
701, -2.52014652014652, -1.2515262515262515, -3.8693528693528694, -1.28125, -1.875, 0.96875, 1.0
702, -3.1367521367521367, -0.6239316239316239, -2.9926739926739927, -1.75, -2.71875, 0.6875, 1.0
703, -1.9645909645909645, -0.5018315018315018, -2.1452991452991452, -2.1875, -3.6875, 0.8125, 1.0
704, 0.8620268620268621, 0.2673992673992674, -1.0927960927960927, -2.78125, -5.6875, 0.8125, 1.0
705, -0.03907203907203907, 2.227106227106227, 1.3687423687423688, -3.125, -7.90625, 0.625, 1.0
706, -4.474969474969475, 4.842490842490842, 2.4554334554334556, -2.75, -8.125, 1.03125, 1.0
707, -2.3601953601953602, 5.041514041514041, 0.6691086691086691, -2.5625, -7.6875, 1.3125, 1.0
708, 2.7655677655677655, 2.8547008547008548, 0.32722832722832723, -3.71875, -8.53125, 0.71875, 1.0
709, 4.158730158730159, 1.8205128205128205, 3.5824175824175826, -4.53125, -9.96875, -0.25, 1.0
710, -0.800976800976801, 3.0891330891330893, 5.36019536019536, -3.65625, -9.46875, -0.28125, 1.0
711, -2.258852258852259, 2.531135531135531, 2.802197802197802, -2.15625, -7.5, 0.46875, 1.0
712, 1.6715506715506716, -0.12087912087912088, 0.6837606837606838, -1.53125, -6.5625, 0.78125, 1.0
713, 3.4126984126984126, -1.8522588522588523, 0.3833943833943834, -1.9375, -6.71875, -0.375, 1.0
714, -3.1746031746031744, 1.9865689865689866, -0.8852258852258852, -1.3125, -5.8125, -0.125, 1.0
715, 0.5934065934065934, -0.1623931623931624, -2.1746031746031744, -0.4375, -4.34375, 0.59375, 1.0
716, 1.6666666666666667, -0.3308913308913309, -2.0744810744810747, -0.15625, -3.9375, 0.625, 1.0
717, 1.0012210012210012, -1.4346764346764347, -2.4615384615384617, -0.28125, -3.90625, 0.03125, 1.0
718, -0.8131868131868132, 0.3443223443223443, -2.468864468864469, -0.625, -3.75, -0.03125, 1.0
719, -0.48717948717948717, 1.4517704517704517, -2.515262515262515, -0.3125, -2.96875, 0.21875, 1.0
720, 1.1843711843711844, 0.34798534798534797, -3.094017094017094, 0.125, -2.3125, 0.5, 1.0
721, 1.3894993894993894, -0.004884004884004884, -3.0842490842490844, 0.28125, -2.03125, 0.53125, 1.0
722, 1.5128205128205128, -0.5824175824175825, -3.294261294261294, 0.15625, -1.8125, 0.4375, 1.0
723, 0.5824175824175825, 0.2893772893772894, -2.288156288156288, -0.125, -1.75, 0.40625, 1.0
724, 1.3333333333333333, 0.4188034188034188, -1.231990231990232, -0.15625, -1.53125, 0.34375, 1.0
725, 1.47985347985348, 0.5213675213675214, -0.5897435897435898, -0.125, -1.75, 0.28125, 1.0
726, 0.42735042735042733, 0.9841269841269841, -0.7802197802197802, 0.125, -1.46875, 0.40625, 1.0
727, -0.006105006105006105, 0.8595848595848596, -1.5592185592185592, 0.375, -0.90625, 0.71875, 1.0
728, 0.6422466422466423, 0.6263736263736264, -2.178266178266178, 0.59375, -0.40625, 0.90625, 1.0
729, 1.9926739926739927, -0.30158730158730157, -2.554334554334554, 0.5, -0.125, 0.84375, 1.0
730, 3.5213675213675213, -0.6727716727716728, -2.3833943833943834, 0.25, -0.3125, 0.53125, 1.0
731, 2.199023199023199, 0.23809523809523808, -2.1684981684981683, 0.21875, -0.25, 0.3125, 1.0
732, 0.9829059829059829, 0.6715506715506715, -2.0586080586080584, 0.28125, 0.15625, 0.4375, 1.0
733, 0.8192918192918193, 0.8583638583638583, -1.4334554334554335, 0.375, 0.5, 0.5625, 1.0
734, 1.5445665445665446, 0.11843711843711843, -0.9120879120879121, 0.3125, 0.46875, 0.53125, 1.0
735, 2.1941391941391943, -0.5018315018315018, -0.5726495726495726, 0.03125, 0.0625, 0.25, 1.0
736, 0.702075702075702, 0.08547008547008547, -0.3553113553113553, -0.125, -0.0625, 0.15625, 1.0
737, -0.6727716727716728, 0.7350427350427351, 0.15018315018315018, 0.125, 0.40625, 0.34375, 1.0
738, 0.11843711843711843, -0.14407814407814407, 0.09768009768009768, 0.3125, 0.5, 0.46875, 1.0
739, 0.652014652014652, -0.6947496947496947, -0.21001221001221002, 0.1875, 0.28125, 0.375, 1.0
740, 0.34554334554334554, -0.6007326007326007, -0.29304029304029305, -0.0625, -0.03125, 0.125, 1.0
741, -0.5885225885225885, -0.026862026862026864, 0.0, -0.15625, -0.0625, 0.03125, 1.0
742, -0.7045177045177046, 0.2490842490842491, 0.030525030525030524, -0.03125, 0.1875, 0.1875, 1.0
743, -0.5531135531135531, -0.07692307692307693, -0.2857142857142857, 0.09375, 0.40625, 0.375, 1.0
744, 0.7228327228327228, -0.7448107448107448, -0.5873015873015873, 0.0, 0.4375, 0.53125, 0.0
745, 0.7081807081807082, -0.851037851037851, -0.6263736263736264, -0.46875, 0.0625, 0.40625, 0.0
746, 0.07814407814407814, -0.115995115995116, -0.32722832722832723, -0.625, -0.03125, 0.3125, 0.0
747, -0.518925518925519, 0.2625152625152625, 0.11721611721611722, -0.5, 0.0, 0.375, 0.0
748, -0.6544566544566545, 0.28083028083028083, 0.3052503052503053, -0.125, 0.0, 0.34375, 0.0
749, -0.47863247863247865, 0.21001221001221002, 0.29181929181929184, 0.03125, 0.0, 0.375, 0.0
750, -1.1172161172161172, -0.4261294261294261, -0.30158730158730157, 0.0, 0.15625, 0.375, 0.0
751, -0.8034188034188035, -0.3089133089133089, -0.27106227106227104, -0.1875, 0.3125, 0.46875, 0.0
752, -0.17826617826617827, 0.08058608058608059, 0.14652014652014653, -0.21875, 0.1875, 0.53125, 0.0
753, -0.44078144078144077, 0.2490842490842491, 0.33455433455433453, -0.09375, 0.125, 0.5625, 0.0
754, -0.8717948717948718, 0.35775335775335776, 0.11843711843711843, 0.15625, 0.375, 0.6875, 0.0
755, -0.6105006105006106, -0.007326007326007326, 0.115995115995116, 0.40625, 0.75, 0.78125, 0.0
756, 1.8876678876678876, -0.9951159951159951, 0.15873015873015872, 0.25, 0.4375, 0.5625, 0.0
757, 1.728937728937729, -0.9108669108669109, 0.1111111111111111, 0.0, 0.0625, 0.25, 0.0
758, 0.6202686202686203, 0.1794871794871795, -0.10744810744810745, 0.09375, 0.28125, 0.21875, 0.0
759, 0.14285714285714285, 1.4407814407814408, -0.7362637362637363, 0.8125, 1.1875, 0.40625, 0.0
760, 1.1587301587301588, 0.31746031746031744, -2.3015873015873014, 2.03125, 3.15625, 0.65625, 0.0
761, 2.5103785103785103, -0.8388278388278388, -2.4017094017094016, 2.3125, 4.15625, 0.9375, 0.0
762, 2.4297924297924296, -0.9682539682539683, -2.2454212454212454, 2.3125, 4.9375, 1.3125, 0.0
763, 2.600732600732601, -0.9010989010989011, -1.6898656898656899, 2.46875, 5.84375, 1.65625, 0.0
764, 2.2893772893772892, -0.3614163614163614, -0.43223443223443225, 2.71875, 6.6875, 1.84375, 0.0
765, 2.178266178266178, 0.27472527472527475, 0.5824175824175825, 3.15625, 7.4375, 2.0, 0.0
766, 2.1245421245421245, 0.5567765567765568, 1.271062271062271, 3.75, 8.09375, 2.25, 0.0
767, 4.3870573870573875, 0.13797313797313798, 1.6398046398046398, 4.21875, 8.46875, 2.15625, 0.0
768, 5.792429792429792, -0.11721611721611722, 1.2417582417582418, 4.1875, 7.78125, 1.65625, 0.0
769, 4.339438339438339, 0.3235653235653236, 1.0854700854700854, 4.03125, 6.8125, 1.0625, 0.0
770, 3.956043956043956, -0.015873015873015872, 1.083028083028083, 4.15625, 6.21875, 0.5625, 0.0
771, 1.7936507936507937, 0.7203907203907204, 0.5824175824175825, 4.5625, 5.6875, 0.25, 0.0
772, 2.4993894993894994, -0.6764346764346765, -0.17582417582417584, 4.59375, 4.84375, 0.21875, 0.0
773, 1.844932844932845, -0.9267399267399268, -0.5311355311355311, 4.4375, 4.09375, 0.125, 0.0
774, 1.0048840048840049, -1.8473748473748475, -1.0561660561660562, 4.25, 3.59375, 0.09375, 0.0
775, 1.4175824175824177, -1.5628815628815629, -1.2881562881562882, 4.09375, 3.09375, -0.09375, 0.0
776, 1.343101343101343, -1.8681318681318682, -1.5238095238095237, 4.0, 2.59375, -0.1875, 0.0
777, 1.1477411477411477, -2.4236874236874235, -1.9768009768009769, 3.75, 2.15625, -0.21875, 0.0
778, 0.9377289377289377, -2.5494505494505493, -2.3675213675213675, 3.4375, 1.75, -0.375, 0.0
779, 1.0903540903540903, -3.3333333333333335, -2.612942612942613, 3.0, 1.25, -0.65625, 0.0
780, 0.5567765567765568, -2.8547008547008548, -2.5885225885225887, 2.59375, 0.78125, -1.0625, 0.0
781, -0.15384615384615385, -1.8156288156288156, -2.4078144078144077, 2.40625, 0.46875, -1.15625, 0.0
782, -0.4945054945054945, -1.021978021978022, -2.7484737484737485, 2.5, 0.15625, -1.0625, 0.0
783, -1.4957264957264957, -1.2759462759462759, -4.141636141636142, 2.375, 0.0, -0.90625, 0.0
784, -1.8241758241758241, -1.072039072039072, -4.347985347985348, 2.0, -0.0625, -0.9375, 0.0
785, -1.8241758241758241, -0.525030525030525, -4.336996336996337, 1.5625, -0.09375, -1.0, 0.0
786, -2.735042735042735, 0.2442002442002442, -4.261294261294261, 1.28125, -0.21875, -0.875, 0.0
787, -2.473748473748474, 0.221001221001221, -4.378510378510379, 1.21875, -0.03125, -0.625, 0.0
788, -1.7106227106227105, -0.21001221001221002, -4.514041514041514, 1.0625, -0.09375, -0.5, 0.0
789, -1.8241758241758241, -0.5128205128205128, -4.65934065934066, 0.625, -0.375, -0.53125, 0.0
790, -2.68009768009768, -0.0695970695970696, -4.440781440781441, 0.15625, -0.5, -0.59375, 0.0
791, -3.1062271062271063, 0.5115995115995116, -4.105006105006105, -0.03125, -0.3125, -0.4375, 0.0
792, -2.7045177045177047, 0.5714285714285714, -3.7887667887667886, -0.0625, -0.0625, -0.1875, 0.0
793, -2.583638583638584, 0.14774114774114774, -3.673992673992674, -0.1875, 0.0, -0.03125, 0.0
794, -3.0024420024420024, -0.5860805860805861, -3.7545787545787546, -0.40625, 0.03125, 0.03125, 0.0
795, -2.231990231990232, -0.3528693528693529, -3.076923076923077, -0.6875, 0.21875, -0.21875, 0.0
796, -1.4505494505494505, 0.21123321123321123, -2.2393162393162394, -0.65625, 0.0, -0.34375, 1.0
797, -1.9792429792429793, 0.11355311355311355, -2.2002442002442004, -0.6875, -0.15625, -0.1875, 1.0
798, -3.1575091575091574, 0.39194139194139194, -2.451770451770452, -0.75, -0.0625, 0.125, 1.0
799, -2.225885225885226, 0.2588522588522589, -2.5396825396825395, -0.90625, -0.21875, 0.46875, 1.0
800, -1.0964590964590966, -0.11843711843711843, -2.6336996336996337, -1.3125, -0.8125, 0.6875, 1.0
801, -0.20512820512820512, 0.0463980463980464, -2.797313797313797, -1.625, -1.6875, 0.65625, 1.0
802, -0.5885225885225885, -0.16361416361416362, -2.896214896214896, -1.90625, -2.53125, 0.375, 1.0
803, 0.0231990231990232, -0.8229548229548229, -2.496947496947497, -2.40625, -3.65625, 0.3125, 1.0
804, 1.0207570207570207, 0.2771672771672772, -0.905982905982906, -2.8125, -5.21875, 0.15625, 1.0
805, 1.8034188034188035, 0.9853479853479854, 1.0476190476190477, -3.03125, -7.125, -0.21875, 1.0
806, 0.7155067155067155, 1.1355311355311355, 2.413919413919414, -3.5, -8.9375, -1.34375, 1.0
807, -4.4322344322344325, 5.048840048840049, 2.1587301587301586, -3.40625, -9.0, -1.40625, 1.0
808, -5.304029304029304, 8.091575091575091, 1.1514041514041513, -2.71875, -7.8125, -0.375, 1.0
809, -3.0085470085470085, 7.885225885225886, 0.9926739926739927, -1.9375, -6.5625, 0.75, 1.0
810, -0.8485958485958486, 5.146520146520147, -0.2271062271062271, -1.21875, -5.8125, 1.46875, 1.0
811, 1.4884004884004884, 2.462759462759463, -1.6556776556776556, -0.9375, -5.09375, 1.375, 1.0
812, 2.9316239316239314, 1.4383394383394383, -1.5213675213675213, -1.0625, -4.9375, 0.65625, 1.0
813, 2.2344322344322345, 1.5885225885225884, -0.39194139194139194, -1.40625, -5.6875, 0.0625, 1.0
814, -0.6275946275946276, 2.7142857142857144, 0.39316239316239315, -1.40625, -6.21875, -0.0625, 1.0
815, -2.68009768009768, 2.965811965811966, -0.5995115995115995, -0.75, -5.6875, 0.3125, 1.0
816, -1.5482295482295483, 0.9914529914529915, -2.647130647130647, 0.03125, -4.25, 1.15625, 1.0
817, 0.7802197802197802, -0.45054945054945056, -3.462759462759463, 0.03125, -3.125, 1.25, 1.0
818, 4.824175824175824, -1.9377289377289377, -2.7203907203907205, -1.03125, -4.09375, 0.40625, 1.0
819, 3.7826617826617825, -0.8888888888888888, -1.6666666666666667, -1.28125, -4.84375, -0.21875, 1.0
820, 1.36996336996337, -0.2454212454212454, -1.8437118437118436, -1.125, -4.5, -0.40625, 1.0
821, -0.2771672771672772, 0.7423687423687424, -2.128205128205128, -0.6875, -3.4375, -0.03125, 1.0
822, 0.4981684981684982, 0.28083028083028083, -2.2796092796092795, -0.4375, -2.75, 0.09375, 1.0
823, 1.967032967032967, -0.7496947496947497, -2.2161172161172162, -0.8125, -2.9375, 0.0, 1.0
824, 1.2014652014652014, 0.4065934065934066, -1.126984126984127, -1.0625, -3.125, -0.28125, 1.0
825, -0.24175824175824176, 1.8266178266178266, -1.1684981684981686, -0.5625, -2.5625, -0.0625, 1.0
826, 0.702075702075702, 0.717948717948718, -2.023199023199023, -0.3125, -2.03125, 0.15625, 1.0
827, 2.1367521367521367, -0.20024420024420025, -2.057387057387057, -0.46875, -2.0, 0.0, 1.0
828, 0.5421245421245421, 0.22344322344322345, -2.2283272283272284, -0.53125, -1.65625, 0.03125, 1.0
829, -0.1623931623931624, 1.2185592185592184, -2.142857142857143, -0.1875, -0.84375, 0.5625, 1.0
830, 1.7997557997557998, 0.06105006105006105, -2.0586080586080584, 0.21875, -0.0625, 0.65625, 1.0
831, 1.910866910866911, -0.20634920634920634, -2.0317460317460316, 0.15625, 0.0, 0.5625, 1.0
832, 1.4297924297924298, -0.04151404151404151, -1.7155067155067154, 0.0, 0.03125, 0.40625, 1.0
833, 0.884004884004884, 0.3614163614163614, -0.9035409035409036, -0.0625, 0.15625, 0.375, 1.0
834, 0.47619047619047616, 0.4249084249084249, -0.336996336996337, 0.09375, 0.34375, 0.375, 1.0
835, 0.6031746031746031, 0.06593406593406594, -0.41025641025641024, 0.21875, 0.53125, 0.46875, 1.0
836, 1.0293040293040292, -0.452991452991453, -0.5396825396825397, 0.1875, 0.46875, 0.375, 1.0
837, 0.2564102564102564, -0.3626373626373626, -0.4481074481074481, -0.03125, 0.3125, 0.21875, 1.0
838, 0.047619047619047616, -0.21978021978021978, -0.17826617826617827, -0.1875, 0.34375, 0.25, 1.0
839, -0.17582417582417584, -0.17094017094017094, 0.03785103785103785, -0.28125, 0.375, 0.3125, 0.0
840, -0.6422466422466423, -0.057387057387057384, 0.007326007326007326, -0.40625, 0.46875, 0.46875, 0.0
841, 0.015873015873015872, -0.09768009768009768, 0.27350427350427353, -0.34375, 0.53125, 0.65625, 0.0
842, 0.23443223443223443, -0.45665445665445664, 0.06105006105006105, -0.375, 0.21875, 0.46875, 0.0
843, -0.002442002442002442, -0.3028083028083028, 0.02197802197802198, -0.375, 0.03125, 0.25, 0.0
844, -0.78998778998779, 0.14896214896214896, -0.06105006105006105, -0.21875, 0.0625, 0.21875, 0.0
845, -1.1697191697191698, 0.4822954822954823, -0.029304029304029304, 0.0, 0.3125, 0.28125, 0.0
846, -0.6068376068376068, 0.08547008547008547, -0.13797313797313798, 0.03125, 0.375, 0.375, 0.0
847, 0.12454212454212454, -0.3833943833943834, 0.017094017094017096, -0.125, 0.15625, 0.25, 0.0
848, -0.17216117216117216, 0.026862026862026864, 0.2954822954822955, -0.21875, 0.0625, 0.21875, 0.0
849, -0.5384615384615384, 0.6251526251526252, 0.5836385836385837, -0.03125, 0.15625, 0.28125, 0.0
850, -0.7155067155067155, 0.6373626373626373, 0.48595848595848595, 0.1875, 0.3125, 0.4375, 0.0
851, -0.8229548229548229, 0.652014652014652, 0.5164835164835165, 0.375, 0.59375, 0.6875, 0.0
852, -1.1733821733821734, 0.6288156288156288, 0.22954822954822954, 0.5625, 1.0625, 1.03125, 0.0
853, -0.2625152625152625, 0.7289377289377289, 0.6764346764346765, 1.125, 2.03125, 1.6875, 0.0
854, 1.4676434676434675, -0.06349206349206349, 0.3882783882783883, 1.59375, 2.46875, 1.875, 0.0
855, 1.2808302808302807, -0.1221001221001221, -0.36385836385836384, 1.8125, 2.59375, 1.75, 0.0
856, 1.332112332112332, -0.21367521367521367, -1.006105006105006, 2.09375, 3.25, 1.53125, 0.0
857, 2.0024420024420024, -0.5763125763125763, -1.636141636141636, 2.5, 4.15625, 1.46875, 0.0
858, 2.0366300366300365, -1.0, -1.9914529914529915, 2.78125, 5.0, 1.59375, 0.0
859, 2.341880341880342, -0.9010989010989011, -1.8131868131868132, 3.0, 5.75, 1.625, 0.0
860, 2.4993894993894994, -0.5494505494505495, -1.4285714285714286, 3.15625, 6.3125, 1.625, 0.0
861, 2.8583638583638584, -0.08180708180708181, -0.8021978021978022, 3.21875, 6.71875, 1.53125, 0.0
862, 3.7753357753357752, 0.14407814407814407, -0.231990231990232, 3.25, 6.78125, 1.34375, 0.0
863, 3.547008547008547, 1.0854700854700854, 0.27106227106227104, 3.25, 6.59375, 1.0625, 0.0
864, 3.326007326007326, 1.3601953601953602, 0.2442002442002442, 3.46875, 6.34375, 0.71875, 0.0
865, 3.47008547008547, 1.0, 0.10744810744810745, 3.53125, 5.75, 0.40625, 0.0
866, 3.5921855921855923, 0.3724053724053724, 0.03663003663003663, 3.4375, 5.0625, 0.0625, 0.0
867, 2.989010989010989, 0.20634920634920634, -0.004884004884004884, 3.40625, 4.40625, -0.21875, 0.0
868, 1.7557997557997558, 0.47496947496947495, -0.23687423687423687, 3.5625, 4.0, -0.25, 0.0
869, 0.8974358974358975, 0.1221001221001221, -0.6910866910866911, 3.8125, 3.84375, -0.125, 0.0
870, 1.231990231990232, -0.8131868131868132, -1.1013431013431014, 3.96875, 3.75, -0.125, 0.0
871, 1.3064713064713065, -1.735042735042735, -1.4236874236874237, 3.78125, 3.46875, -0.0625, 0.0
872, 1.6288156288156288, -1.3553113553113554, -1.6605616605616607, 3.5625, 3.09375, -0.15625, 0.0
873, 0.57997557997558, -1.291819291819292, -2.001221001221001, 3.5, 2.90625, -0.09375, 0.0
874, 0.8376068376068376, -1.9194139194139195, -1.989010989010989, 3.46875, 2.75, -0.0625, 0.0
875, 1.6837606837606838, -1.9047619047619047, -2.0598290598290596, 3.5, 2.34375, -0.1875, 0.0
876, 1.667887667887668, -2.2393162393162394, -2.711843711843712, 3.28125, 1.28125, -0.625, 0.0
877, -0.16605616605616605, -2.330891330891331, -3.3150183150183152, 2.875, 0.625, -0.90625, 0.0
878, -1.1916971916971917, -1.8925518925518925, -3.451770451770452, 2.34375, 0.375, -1.03125, 0.0
879, -1.199023199023199, -1.2722832722832722, -3.3785103785103785, 1.90625, 0.25, -1.0, 0.0
880, -1.3772893772893773, -0.7350427350427351, -3.294261294261294, 1.71875, 0.1875, -0.9375, 0.0
881, -1.4175824175824177, -0.35653235653235654, -3.2954822954822953, 1.6875, 0.1875, -0.9375, 0.0
882, -1.5457875457875458, -0.8901098901098901, -3.4713064713064714, 1.5625, 0.125, -0.84375, 0.0
883, -1.5592185592185592, -0.47985347985347987, -3.4224664224664223, 1.3125, 0.0625, -0.8125, 0.0
884, -1.404151404151404, -0.1794871794871795, -3.573870573870574, 1.09375, -0.125, -0.78125, 0.0
885, -2.199023199023199, -0.009768009768009768, -3.8815628815628815, 0.9375, -0.34375, -0.75, 0.0
886, -2.1819291819291817, 0.08669108669108669, -4.012210012210012, 0.78125, -0.375, -0.625, 0.0
887, -2.3736263736263736, 0.04395604395604396, -4.031746031746032, 0.59375, -0.4375, -0.46875, 0.0
888, -2.6446886446886446, -0.0989010989010989, -4.197802197802198, 0.15625, -0.40625, -0.15625, 0.0
889, -2.5042735042735043, 0.05860805860805861, -3.938949938949939, -0.125, -0.40625, -0.0625, 0.0
890, -2.283272283272283, 0.3626373626373626, -3.601953601953602, -0.28125, -0.53125, 0.0, 0.0
891, -2.0415140415140414, 0.34798534798534797, -3.4188034188034186, -0.375, -0.75, 0.0, 0.0
892, -2.3614163614163615, 0.3162393162393162, -3.264957264957265, -0.4375, -0.96875, -0.125, 0.0
893, -2.3772893772893773, 0.17216117216117216, -2.9853479853479854, -0.65625, -1.21875, -0.0625, 1.0
894, -2.440781440781441, 0.08547008547008547, -2.694749694749695, -0.9375, -1.4375, 0.21875, 1.0
895, -1.5909645909645909, -0.05860805860805861, -2.4932844932844933, -1.125, -1.71875, 0.4375, 1.0
896, 0.29304029304029305, -0.7863247863247863, -1.8925518925518925, -1.4375, -2.6875, 0.3125, 1.0
897, -0.23565323565323565, -0.4517704517704518, -1.3663003663003663, -1.75, -3.8125, -0.03125, 1.0
898, -2.1746031746031744, 0.26495726495726496, -0.8620268620268621, -1.9375, -4.5, -0.03125, 1.0
899, -2.9267399267399266, 0.8571428571428571, -0.57997557997558, -2.0, -4.875, 0.5, 1.0
900, -0.5848595848595849, -0.20146520146520147, -0.46764346764346765, -2.1875, -5.5, 0.4375, 1.0
901, -2.3553113553113554, 1.0476190476190477, 0.3992673992673993, -2.375, -5.96875, 0.1875, 1.0
902, -2.8913308913308913, 2.978021978021978, 0.5482295482295483, -2.3125, -5.78125, 0.4375, 1.0
903, -1.5396825396825398, 5.202686202686203, 0.5518925518925519, -2.125, -5.15625, 0.625, 1.0
904, 1.3663003663003663, 6.400488400488401, 0.9694749694749695, -2.0, -5.1875, 0.40625, 1.0
905, 2.32967032967033, 5.754578754578755, 1.2612942612942613, -2.1875, -6.5, -0.03125, 1.0
906, -2.203907203907204, 4.450549450549451, 1.1575091575091576, -2.375, -7.5, -0.34375, 1.0
907, -3.3724053724053724, 2.9914529914529915, 0.01221001221001221, -1.90625, -6.375, -0.15625, 1.0
908, 0.2661782661782662, 1.5726495726495726, -0.25274725274725274, -1.5, -5.0, 0.25, 1.0
909, 2.4444444444444446, 1.3076923076923077, 0.3772893772893773, -1.46875, -5.28125, 0.03125, 1.0
910, -0.47741147741147744, 1.0012210012210012, 1.1587301587301588, -1.78125, -6.5625, -0.6875, 1.0
911, -4.374847374847374, 2.6507936507936507, -0.1575091575091575, -0.78125, -4.96875, 0.125, 1.0
912, -2.137973137973138, 1.3833943833943834, -2.0525030525030523, 0.0625, -3.1875, 0.75, 1.0
913, 4.315018315018315, -1.404151404151404, -2.5750915750915753, -0.34375, -3.71875, 0.3125, 1.0
914, 4.851037851037851, -1.9682539682539681, -1.5152625152625152, -1.21875, -5.21875, -0.75, 1.0
915, -2.1514041514041513, 1.2393162393162394, -0.29181929181929184, -1.28125, -4.9375, -0.8125, 1.0
916, -6.7484737484737485, 4.2905982905982905, -0.9560439560439561, 0.0, -2.40625, 0.46875, 1.0
917, -0.800976800976801, 1.7191697191697193, -2.3028083028083026, 0.75, -1.25, 1.375, 1.0
918, 5.644688644688645, -1.7301587301587302, -2.6336996336996337, 0.0625, -2.65625, 0.59375, 1.0
919, 1.2515262515262515, -0.5616605616605617, -2.4725274725274726, -0.53125, -3.09375, -0.15625, 1.0
920, -2.1855921855921854, 1.8131868131868132, -2.0024420024420024, -0.25, -2.03125, 0.21875, 1.0
921, -1.4432234432234432, 2.4932844932844933, -1.575091575091575, 0.375, -1.0625, 0.875, 1.0
922, 1.7484737484737485, 0.2442002442002442, -1.641025641025641, 0.375, -1.28125, 0.84375, 1.0
923, 0.6898656898656899, 0.36996336996337, -2.1855921855921854, 0.3125, -1.53125, 0.59375, 1.0
924, 0.6056166056166056, 0.43223443223443225, -2.4822954822954824, 0.4375, -1.0, 0.6875, 1.0
925, 1.2905982905982907, 0.2503052503052503, -2.139194139194139, 0.53125, -0.46875, 0.78125, 1.0
926, 1.5396825396825398, 0.27106227106227104, -1.9035409035409034, 0.53125, -0.34375, 0.71875, 1.0
927, 1.901098901098901, 0.12332112332112333, -2.2564102564102564, 0.40625, -0.4375, 0.625, 1.0
928, 1.492063492063492, 0.08180708180708181, -2.21978021978022, 0.1875, -0.53125, 0.375, 1.0
929, 1.1318681318681318, 0.5470085470085471, -1.8144078144078144, 0.09375, -0.3125, 0.25, 1.0
930, 0.6288156288156288, 0.5091575091575091, -1.4676434676434675, 0.125, -0.0625, 0.3125, 1.0
931, 0.9523809523809523, 0.2222222222222222, -1.0744810744810744, 0.15625, 0.15625, 0.34375, 1.0
932, 0.7484737484737485, 0.14774114774114774, -0.6788766788766789, 0.03125, 0.0625, 0.28125, 1.0
933, 0.6361416361416361, 0.07203907203907203, -0.6471306471306472, -0.03125, 0.0625, 0.21875, 1.0
934, 0.3504273504273504, 0.026862026862026864, -0.536019536019536, -0.0625, 0.125, 0.125, 1.0
935, -0.02442002442002442, -0.03418803418803419, -0.5103785103785103, -0.0625, 0.21875, 0.125, 1.0
936, 0.18437118437118438, -0.36752136752136755, -0.39438339438339437, -0.25, 0.0625, 0.125, 0.0
937, -0.2673992673992674, -0.25518925518925517, -0.0927960927960928, -0.4375, 0.0, 0.15625, 0.0
938, -1.1575091575091576, 0.38461538461538464, 0.3199023199023199, -0.4375, 0.125, 0.28125, 0.0
939, -1.0451770451770452, 0.13553113553113552, 0.15262515262515264, -0.375, 0.1875, 0.375, 0.0
940, -1.4151404151404152, 0.12087912087912088, 0.06837606837606838, -0.21875, 0.34375, 0.40625, 0.0
941, -1.3785103785103785, 0.17094017094017094, 0.23809523809523808, -0.125, 0.4375, 0.5, 0.0
942, -1.4126984126984128, 0.21611721611721613, 0.35653235653235654, 0.0, 0.5, 0.5625, 0.0
943, -1.9597069597069596, 0.33821733821733824, 0.37484737484737485, 0.09375, 0.78125, 0.6875, 0.0
944, -2.965811965811966, 1.2454212454212454, 0.6862026862026862, 0.46875, 1.46875, 1.125, 0.0
945, -2.934065934065934, 1.6996336996336996, 1.1245421245421245, 1.21875, 2.4375, 1.6875, 0.0
946, -0.18192918192918192, -0.38705738705738707, 0.9865689865689866, 2.25, 3.78125, 2.03125, 0.0
947, 0.2600732600732601, -0.6874236874236874, 0.5946275946275946, 2.40625, 4.09375, 2.0625, 0.0
948, 0.9633699633699634, -1.1147741147741148, 0.46642246642246643, 2.5, 4.4375, 2.28125, 0.0
949, 1.1465201465201464, -1.3101343101343101, 0.5079365079365079, 2.5625, 4.96875, 2.46875, 0.0
950, 2.7155067155067156, -1.5299145299145298, 0.9560439560439561, 2.59375, 5.34375, 2.46875, 0.0
951, 4.349206349206349, -1.6971916971916972, 0.811965811965812, 2.53125, 5.125, 2.21875, 0.0
952, 3.871794871794872, -0.9023199023199023, 0.7264957264957265, 2.34375, 4.53125, 1.71875, 0.0
953, 3.427350427350427, -0.37362637362637363, 0.7643467643467643, 2.4375, 4.4375, 1.34375, 0.0
954, 4.190476190476191, -0.34676434676434675, 0.5506715506715507, 2.625, 4.46875, 1.03125, 0.0
955, 4.691086691086691, -0.6178266178266179, 0.4126984126984127, 2.625, 4.21875, 0.6875, 0.0
956, 2.7374847374847375, 0.7606837606837606, 0.5372405372405372, 2.6875, 4.09375, 0.46875, 0.0
957, 2.89010989010989, 0.8363858363858364, 0.5836385836385837, 3.0625, 4.46875, 0.3125, 0.0
958, 3.1892551892551895, 1.1416361416361416, 0.5164835164835165, 3.4375, 4.34375, 0.21875, 0.0
959, 2.365079365079365, 0.6923076923076923, 0.4004884004884005, 3.71875, 4.4375, 0.3125, 0.0
960, 0.3626373626373626, 0.42002442002442003, 0.3601953601953602, 4.21875, 5.3125, 0.59375, 0.0
961, 1.1282051282051282, -0.45665445665445664, 0.6251526251526252, 4.625, 5.96875, 0.875, 0.0
962, 3.1086691086691087, -1.7606837606837606, 0.7301587301587301, 4.8125, 5.71875, 0.90625, 0.0
963, 3.5042735042735043, -2.3675213675213675, 0.4932844932844933, 4.75, 4.90625, 0.8125, 0.0
964, 3.3516483516483517, -3.137973137973138, -0.08058608058608059, 4.6875, 4.125, 0.65625, 0.0
965, 4.346764346764346, -3.8095238095238093, -0.7851037851037851, 4.34375, 3.0625, 0.21875, 0.0
966, 3.935286935286935, -4.5335775335775335, -1.459096459096459, 3.6875, 1.90625, -0.46875, 0.0
967, 2.8192918192918195, -4.08058608058608, -1.6227106227106227, 3.21875, 1.0, -1.0, 0.0
968, 1.4456654456654456, -2.8925518925518925, -1.956043956043956, 3.0625, 0.5625, -1.25, 0.0
969, 0.4346764346764347, -2.5347985347985347, -2.68009768009768, 2.96875, 0.5, -1.09375, 0.0
970, 0.16971916971916973, -2.0134310134310134, -2.8351648351648353, 2.71875, 0.5, -1.0625, 0.0
971, 0.5506715506715507, -1.78998778998779, -2.7106227106227108, 2.5, 0.375, -1.125, 0.0
972, 0.17094017094017094, -1.4346764346764347, -2.937728937728938, 2.34375, 0.0625, -1.1875, 0.0
973, -0.873015873015873, -1.36996336996337, -3.4761904761904763, 2.28125, -0.15625, -1.28125, 0.0
974, -1.3308913308913308, -1.800976800976801, -4.312576312576312, 2.09375, -0.25, -1.3125, 0.0
975, -2.6678876678876677, -1.0695970695970696, -4.474969474969475, 1.625, -0.25, -1.1875, 0.0
976, -2.3772893772893773, -0.4163614163614164, -4.428571428571429, 1.40625, -0.03125, -0.875, 0.0
977, -1.9694749694749696, -0.27228327228327226, -4.3638583638583635, 1.28125, -0.125, -0.5625, 0.0
978, -1.7435897435897436, -0.5873015873015873, -4.672771672771673, 1.15625, -0.34375, -0.46875, 0.0
979, -2.064713064713065, -1.15018315018315, -5.039072039072039, 0.78125, -0.625, -0.46875, 0.0
980, -2.5641025641025643, -0.7924297924297924, -4.903540903540904, 0.21875, -0.71875, -0.5625, 0.0
981, -2.7545787545787546, 0.40415140415140416, -4.343101343101343, -0.1875, -0.625, -0.28125, 0.0
982, -2.6923076923076925, 0.8363858363858364, -4.097680097680097, -0.21875, -0.5625, 0.0, 0.0
983, -2.1404151404151404, 0.6654456654456654, -4.020757020757021, -0.21875, -0.625, 0.0625, 0.0
984, -2.061050061050061, -0.11233211233211234, -4.201465201465202, -0.375, -0.6875, 0.0625, 0.0
985, -2.2735042735042734, -0.9304029304029304, -4.424908424908425, -0.75, -0.59375, -0.0625, 1.0
986, -1.9926739926739927, -0.3089133089133089, -3.5042735042735043, -1.0625, -0.65625, -0.15625, 1.0
987, -1.534798534798535, 0.10866910866910867, -2.340659340659341, -1.21875, -1.125, 0.03125, 1.0
988, 0.28083028083028083, -0.6031746031746031, -2.114774114774115, -1.625, -2.34375, 0.25, 1.0
989, 1.0793650793650793, -0.6642246642246642, -1.6056166056166057, -2.125, -4.0, 0.09375, 1.0
990, -2.758241758241758, 0.4981684981684982, -0.8571428571428571, -2.3125, -4.5625, 0.15625, 1.0
991, -4.504273504273504, 1.36996336996337, -0.6007326007326007, -2.0, -4.0625, 0.59375, 1.0
992, -2.086691086691087, 1.2625152625152625, -0.29304029304029305, -1.65625, -4.09375, 0.96875, 1.0
993, 0.25518925518925517, -0.40293040293040294, -0.8559218559218559, -2.0, -5.4375, 0.46875, 1.0
994, -1.2026862026862026, 1.5531135531135531, -0.5775335775335775, -2.46875, -5.96875, -0.125, 1.0
995, -2.128205128205128, 3.924297924297924, -0.25396825396825395, -2.71875, -5.96875, -0.0625, 1.0
996, -1.7435897435897436, 5.831501831501831, 0.2588522588522589, -2.65625, -5.5, 0.3125, 1.0
997, -0.19536019536019536, 6.7765567765567765, 0.960927960927961, -2.3125, -5.1875, 0.5, 1.0
998, 1.6007326007326008, 5.915750915750916, 1.1355311355311355, -1.96875, -5.5, 0.46875, 1.0
999, 0.2515262515262515, 4.366300366300366, 0.8547008547008547, -1.875, -6.09375, 0.375, 1.0
1000, -0.38583638583638585, 3.092796092796093, 0.5457875457875457, -1.9375, -6.15625, 0.0625, 1.0
1001, -1.236874236874237, 2.608058608058608, 0.9511599511599511, -1.9375, -6.125, -0.09375, 1.0
1002, -2.7362637362637363, 2.365079365079365, 0.7423687423687424, -1.46875, -5.65625, 0.21875, 1.0
1003, -1.7435897435897436, 1.4004884004884004, -0.5396825396825397, -0.65625, -4.28125, 0.90625, 1.0
1004, 2.3150183150183152, -0.884004884004884, -1.547008547008547, -0.46875, -3.4375, 1.03125, 1.0
1005, 5.354090354090354, -1.7863247863247864, -0.4261294261294261, -1.375, -5.0625, 0.0, 1.0
1006, 1.8083028083028083, 0.05372405372405373, 0.4139194139194139, -1.46875, -5.6875, -0.625, 1.0
1007, -1.7533577533577533, 1.5396825396825398, -0.5006105006105006, -0.75, -4.625, -0.125, 1.0
1008, -2.402930402930403, 2.139194139194139, -1.5018315018315018, 0.15625, -2.84375, 0.5625, 1.0
1009, 1.5189255189255189, -0.557997557997558, -2.3772893772893773, 0.15625, -2.28125, 0.8125, 1.0
1010, 3.4774114774114775, -0.8461538461538461, -2.0183150183150182, -0.46875, -3.09375, 0.25, 1.0
1011, 2.4297924297924296, -0.4126984126984127, -2.0073260073260073, -0.90625, -3.65625, -0.09375, 1.0
1012, -0.5811965811965812, 1.7973137973137974, -1.9133089133089134, -0.5625, -2.875, 0.03125, 1.0
1013, -1.4346764346764347, 2.177045177045177, -2.31013431013431, 0.0, -1.625, 0.5625, 1.0
1014, 1.7814407814407816, 0.49572649572649574, -1.9426129426129426, 0.03125, -1.46875, 0.65625, 1.0
1015, 1.6446886446886446, 0.07814407814407814, -1.6935286935286935, -0.125, -1.65625, 0.5, 1.0
1016, 0.36752136752136755, 1.1965811965811965, -1.1037851037851039, -0.28125, -1.6875, 0.3125, 1.0
1017, 0.2148962148962149, 1.1562881562881564, -1.4090354090354091, 0.09375, -1.125, 0.53125, 1.0
1018, 1.3284493284493284, 0.12942612942612944, -1.8083028083028083, 0.3125, -0.71875, 0.71875, 1.0
1019, 1.0402930402930404, 0.115995115995116, -2.166056166056166, 0.28125, -0.46875, 0.65625, 1.0
1020, 1.706959706959707, -0.14652014652014653, -2.4065934065934065, 0.21875, -0.03125, 0.6875, 1.0
1021, 2.3064713064713063, -0.04151404151404151, -2.0268620268620268, 0.15625, 0.0625, 0.59375, 1.0
1022, 2.0463980463980462, -0.1111111111111111, -1.822954822954823, 0.09375, 0.125, 0.4375, 1.0
1023, 2.0415140415140414, -0.29426129426129427, -1.5885225885225884, 0.0, 0.15625, 0.28125, 1.0
1024, 1.4346764346764347, -0.12942612942612944, -1.2893772893772895, -0.1875, 0.09375, 0.15625, 1.0
1025, 0.7973137973137974, 0.2515262515262515, -0.8376068376068376, -0.25, 0.15625, 0.125, 1.0
1026, 0.6105006105006106, 0.43956043956043955, -0.48595848595848595, -0.21875, 0.25, 0.09375, 1.0
1027, 0.5811965811965812, -0.040293040293040296, -0.23931623931623933, -0.21875, 0.09375, 0.0, 1.0
1028, -0.221001221001221, 0.042735042735042736, -0.002442002442002442, -0.25, 0.15625, 0.0, 1.0
1029, -0.4993894993894994, 0.031746031746031744, 0.17094017094017094, -0.25, 0.3125, 0.15625, 0.0
1030, 0.06349206349206349, -0.5665445665445665, 0.21001221001221002, -0.5, 0.21875, 0.3125, 0.0
1031, -0.873015873015873, 0.07814407814407814, 0.27350427350427353, -0.59375, 0.15625, 0.34375, 0.0
1032, -0.9694749694749695, 0.07448107448107448, 0.23687423687423687, -0.5625, 0.21875, 0.5, 0.0
1033, -1.2148962148962148, 0.17582417582417584, 0.36996336996337, -0.3125, 0.4375, 0.5625, 0.0
1034, -1.3626373626373627, 0.2503052503052503, 0.45787545787545786, -0.0625, 0.625, 0.65625, 0.0
1035, -0.905982905982906, 0.03540903540903541, 0.6202686202686203, 0.125, 0.65625, 0.71875, 0.0
1036, -0.8229548229548229, -0.18437118437118438, 0.6776556776556777, 0.28125, 0.71875, 0.625, 0.0
1037, -0.8766788766788767, 0.019536019536019536, 0.6251526251526252, 0.375, 0.8125, 0.6875, 0.0
1038, -1.0085470085470085, 0.2564102564102564, 0.5775335775335775, 0.46875, 1.0625, 0.90625, 0.0
1039, 0.49572649572649574, -0.1282051282051282, 0.503052503052503, 0.625, 1.1875, 1.09375, 0.0
1040, 1.2515262515262515, -0.5702075702075702, 0.27106227106227104, 0.65625, 1.09375, 0.9375, 0.0
1041, 1.8327228327228327, -0.5433455433455433, 0.1343101343101343, 0.59375, 0.96875, 0.8125, 0.0
1042, 1.1343101343101343, -0.08424908424908426, -0.4017094017094017, 0.71875, 1.09375, 0.65625, 0.0
1043, 0.08669108669108669, 0.7582417582417582, -0.9194139194139194, 1.09375, 1.875, 0.75, 0.0
1044, 1.199023199023199, 0.17704517704517705, -1.2002442002442002, 1.75, 3.0, 1.03125, 0.0
1045, 1.9291819291819292, -0.38217338217338215, -1.5702075702075702, 2.15625, 3.78125, 1.3125, 0.0
1046, 2.58974358974359, -0.7728937728937729, -1.7594627594627594, 2.375, 4.28125, 1.28125, 0.0
1047, 2.0146520146520146, -0.10500610500610501, -1.8766788766788767, 2.4375, 4.8125, 1.1875, 0.0
1048, 2.304029304029304, 0.3528693528693529, -1.3125763125763126, 2.65625, 5.5, 1.25, 0.0
1049, 2.416361416361416, 0.0757020757020757, -0.9462759462759462, 2.90625, 6.1875, 1.46875, 0.0
1050, 3.7387057387057387, -0.1514041514041514, -0.28327228327228327, 3.125, 6.84375, 1.46875, 0.0
1051, 4.87057387057387, 0.3162393162393162, 0.3492063492063492, 3.15625, 6.65625, 1.0, 0.0
1052, 4.761904761904762, 0.9719169719169719, 0.6532356532356532, 3.25, 6.09375, 0.46875, 0.0
1053, 3.242979242979243, 1.5128205128205128, 0.6813186813186813, 3.53125, 5.84375, 0.21875, 0.0
1054, 2.0463980463980462, 1.2332112332112333, 0.48473748473748474, 4.0, 6.0, 0.28125, 0.0
1055, 1.7863247863247864, 0.702075702075702, 0.21123321123321123, 4.375, 6.09375, 0.40625, 0.0
1056, 2.485958485958486, -0.06837606837606838, -0.30036630036630035, 4.65625, 5.9375, 0.40625, 0.0
1057, 1.9181929181929183, -0.9511599511599511, -0.7216117216117216, 4.65625, 5.6875, 0.46875, 0.0
1058, 1.1868131868131868, -1.5262515262515262, -0.9877899877899878, 4.625, 5.78125, 0.71875, 0.0
1059, 2.844932844932845, -1.8717948717948718, -0.8400488400488401, 4.625, 5.4375, 0.71875, 0.0
1060, 5.555555555555555, -3.5457875457875456, -1.1978021978021978, 4.21875, 4.0, 0.25, 0.0
1061, 5.478632478632479, -4.641025641025641, -1.4212454212454213, 3.4375, 2.1875, -0.625, 0.0
1062, 3.2246642246642248, -4.398046398046398, -1.4774114774114775, 2.75, 0.28125, -1.6875, 0.0
1063, -1.5494505494505495, -1.054945054945055, -2.7045177045177047, 2.875, 0.0, -1.59375, 0.0
1064, -2.1465201465201464, -2.2332112332112333, -3.675213675213675, 2.90625, 0.28125, -1.25, 0.0
1065, -1.2698412698412698, -2.641025641025641, -3.9853479853479854, 2.5, 0.5, -1.0625, 0.0
1066, -0.9963369963369964, -1.5982905982905984, -3.614163614163614, 1.875, 0.25, -1.09375, 0.0
1067, -1.7094017094017093, -0.34798534798534797, -3.4932844932844933, 1.65625, 0.0, -1.15625, 0.0
1068, -2.1538461538461537, -0.05616605616605617, -3.884004884004884, 1.78125, -0.09375, -0.96875, 0.0
1069, -2.178266178266178, -0.7521367521367521, -4.5506715506715505, 1.75, -0.1875, -0.6875, 0.0
1070, -2.1746031746031744, -0.894993894993895, -5.1098901098901095, 1.3125, -0.3125, -0.5625, 0.0
1071, -2.1868131868131866, -0.08180708180708181, -4.921855921855922, 0.8125, -0.40625, -0.625, 0.0
1072, -2.4175824175824174, 0.6544566544566545, -4.594627594627594, 0.53125, -0.46875, -0.4375, 0.0
1073, -2.341880341880342, 0.45665445665445664, -4.543345543345543, 0.5, -0.53125, -0.09375, 0.0
1074, -2.266178266178266, 0.08913308913308914, -4.593406593406593, 0.25, -0.5625, 0.21875, 0.0
1075, -2.2063492063492065, -0.3137973137973138, -4.693528693528694, 0.0, -0.65625, 0.125, 0.0
1076, -2.1880341880341883, -0.33455433455433453, -4.725274725274725, -0.25, -0.8125, 0.0, 0.0
1077, -2.3492063492063493, -0.27228327228327226, -4.68986568986569, -0.5, -0.9375, 0.0, 0.0
1078, -1.901098901098901, -0.01098901098901099, -4.493284493284493, -0.8125, -1.125, 0.09375, 1.0
1079, -1.612942612942613, 0.03663003663003663, -4.107448107448107, -1.28125, -1.46875, 0.21875, 1.0
1080, -0.9877899877899878, -0.17582417582417584, -3.9108669108669107, -1.78125, -1.96875, 0.5, 1.0
1081, -0.9719169719169719, 0.3785103785103785, -2.93040293040293, -2.0, -2.59375, 0.46875, 1.0
1082, -2.4285714285714284, 0.5323565323565324, -2.1343101343101343, -2.03125, -2.90625, 0.34375, 1.0
1083, -2.7753357753357752, -0.7094017094017094, -2.010989010989011, -2.25, -2.84375, 0.1875, 1.0
1084, -1.0085470085470085, -0.23809523809523808, -1.0744810744810744, -2.5625, -3.25, 0.28125, 1.0
1085, 0.02564102564102564, 0.36752136752136755, -0.16117216117216118, -2.90625, -4.21875, 0.1875, 1.0
1086, -0.7264957264957265, 2.421245421245421, 1.3614163614163615, -2.9375, -6.21875, -0.15625, 1.0
1087, -2.1758241758241756, 3.8290598290598292, 0.7802197802197802, -2.40625, -6.65625, -0.15625, 1.0
1088, -1.8925518925518925, 3.47008547008547, -0.5091575091575091, -2.21875, -6.625, -0.1875, 1.0
1089, 0.47619047619047616, 4.808302808302808, 0.18925518925518925, -2.78125, -6.96875, -0.6875, 1.0
1090, 2.0964590964590966, 3.6275946275946276, 2.8205128205128207, -3.53125, -8.59375, -1.125, 1.0
1091, -0.221001221001221, 1.1758241758241759, 4.837606837606837, -3.875, -10.0625, -1.71875, 1.0
1092, -3.021978021978022, 0.9474969474969475, 3.137973137973138, -3.0625, -9.3125, -2.0625, 1.0
1093, -2.796092796092796, 0.9304029304029304, 0.5445665445665445, -1.6875, -7.34375, -1.46875, 1.0
1094, -1.1416361416361416, 0.21855921855921856, -0.6568986568986569, -0.9375, -5.9375, -0.75, 1.0
1095, -0.2783882783882784, 0.07203907203907203, -0.5433455433455433, -0.75, -5.53125, -0.625, 1.0
1096, -0.10134310134310134, 0.5421245421245421, -0.29304029304029305, -0.6875, -5.8125, -0.90625, 1.0
1097, -2.717948717948718, 0.7484737484737485, -2.0549450549450547, 0.0625, -4.6875, -0.65625, 1.0
1098, -3.5604395604395602, 1.1001221001221002, -3.509157509157509, 0.46875, -2.90625, 0.1875, 1.0
1099, -0.4163614163614164, 0.9829059829059829, -3.1013431013431014, 0.5625, -2.21875, 0.59375, 1.0
1100, 0.7301587301587301, 0.16117216117216118, -2.744810744810745, 0.40625, -2.28125, 0.59375, 1.0
1101, 0.7496947496947497, 0.4945054945054945, -2.9194139194139193, 0.375, -2.3125, 0.5625, 1.0
1102, 0.7765567765567766, 0.4481074481074481, -2.9108669108669107, 0.375, -2.09375, 0.59375, 1.0
1103, 0.6752136752136753, 0.6263736263736264, -2.7252747252747254, 0.46875, -1.71875, 0.65625, 1.0
1104, 1.6105006105006106, 0.03785103785103785, -2.6275946275946276, 0.34375, -1.71875, 0.59375, 1.0
1105, 1.115995115995116, 0.34676434676434675, -2.0427350427350426, 0.21875, -1.875, 0.4375, 1.0
1106, 0.08180708180708181, 1.253968253968254, -1.7728937728937728, 0.4375, -1.59375, 0.625, 1.0
1107, 0.3064713064713065, 0.645909645909646, -2.2185592185592187, 0.6875, -1.03125, 0.84375, 1.0
1108, 1.3296703296703296, -0.2783882783882784, -2.5409035409035408, 0.53125, -0.6875, 0.84375, 1.0
1109, 1.9316239316239316, 0.03785103785103785, -2.6434676434676434, 0.34375, -0.5, 0.71875, 1.0
1110, 1.993894993894994, 0.14896214896214896, -2.4505494505494507, 0.3125, -0.34375, 0.6875, 1.0
1111, 2.1123321123321124, -0.19291819291819293, -2.111111111111111, 0.25, -0.1875, 0.5625, 1.0
1112, 2.4786324786324787, -0.3443223443223443, -1.641025641025641, 0.09375, -0.125, 0.34375, 1.0
1113, 1.684981684981685, 0.10866910866910867, -1.2063492063492063, -0.0625, -0.125, 0.09375, 1.0
1114, 1.0390720390720392, 0.23443223443223443, -0.8583638583638583, -0.0625, -0.125, 0.0625, 1.0
1115, 0.36385836385836384, 0.48473748473748474, -0.3528693528693529, -0.03125, 0.0, 0.09375, 1.0
1116, 0.22832722832722832, 0.17582417582417584, -0.1452991452991453, 0.0625, 0.21875, 0.21875, 1.0
1117, 0.9023199023199023, -0.6422466422466423, -0.12942612942612944, 0.03125, 0.21875, 0.1875, 1.0
1118, 0.5164835164835165, -0.514041514041514, 0.042735042735042736, -0.15625, 0.0625, 0.0, 1.0
1119, -0.1855921855921856, -0.10622710622710622, 0.2039072039072039, -0.3125, 0.03125, 0.0625, 0.0
1120, -0.4261294261294261, 0.1978021978021978, 0.1623931623931624, -0.34375, 0.3125, 0.40625, 0.0
1121, -1.315018315018315, 0.5653235653235653, -0.009768009768009768, -0.1875, 0.5, 0.625, 0.0
1122, -0.31746031746031744, 0.06349206349206349, -0.1746031746031746, -0.15625, 0.5625, 0.75, 0.0
1123, 1.120879120879121, -0.9438339438339438, -0.2258852258852259, -0.3125, 0.15625, 0.4375, 0.0
1124, 0.25518925518925517, -0.27594627594627597, 0.25274725274725274, -0.34375, 0.0, 0.21875, 0.0
1125, -0.1794871794871795, 0.21733821733821734, 0.4432234432234432, -0.0625, 0.03125, 0.21875, 0.0
1126, -0.3772893772893773, -0.11965811965811966, 0.10866910866910867, 0.0625, 0.125, 0.34375, 0.0
1127, -2.3162393162393164, 0.6361416361416361, -0.5128205128205128, 0.375, 0.9375, 0.71875, 0.0
1128, -2.8815628815628815, 1.1794871794871795, -0.851037851037851, 0.8125, 2.0, 1.375, 0.0
1129, -1.1611721611721613, 0.8046398046398047, -0.6251526251526252, 1.375, 2.71875, 1.6875, 0.0
1130, 0.01098901098901099, 0.3443223443223443, -0.5873015873015873, 1.65625, 3.15625, 1.65625, 0.0
1131, -0.21855921855921856, 0.978021978021978, -0.706959706959707, 2.21875, 4.0, 1.75, 0.0
1132, 0.6715506715506715, -1.0048840048840049, -0.5787545787545788, 3.34375, 6.1875, 2.5625, 0.0
1133, 1.7912087912087913, -1.945054945054945, 0.001221001221001221, 3.875, 7.59375, 3.0, 0.0
1134, 4.046398046398046, -2.716727716727717, 0.7557997557997558, 4.0, 8.34375, 3.0, 0.0
1135, 4.802197802197802, -1.6593406593406594, 1.6459096459096458, 3.84375, 8.21875, 2.5, 0.0
1136, 4.695970695970696, -0.575091575091575, 2.0256410256410255, 3.78125, 7.8125, 2.0, 0.0
1137, 4.48962148962149, -0.06837606837606838, 2.0842490842490844, 3.84375, 7.28125, 1.5, 0.0
1138, 4.185592185592186, 0.21367521367521367, 1.9413919413919414, 3.875, 6.71875, 1.15625, 0.0
1139, 3.4493284493284495, 0.7814407814407814, 1.4884004884004884, 3.96875, 6.03125, 0.75, 0.0
1140, 2.1013431013431014, 0.8669108669108669, 0.7643467643467643, 4.15625, 5.4375, 0.46875, 0.0
1141, 1.8876678876678876, -0.6471306471306472, 0.11477411477411477, 4.28125, 4.96875, 0.46875, 0.0
1142, 1.0195360195360195, -0.8058608058608059, -0.12698412698412698, 4.21875, 4.53125, 0.46875, 0.0
1143, 1.7216117216117217, -0.6544566544566545, -0.514041514041514, 4.3125, 4.25, 0.4375, 0.0
1144, 2.271062271062271, -1.910866910866911, -0.9133089133089133, 4.15625, 3.15625, 0.28125, 0.0
1145, 2.238095238095238, -3.2356532356532357, -1.2124542124542124, 3.65625, 2.25, -0.03125, 0.0
1146, 1.592185592185592, -3.1465201465201464, -1.315018315018315, 3.21875, 1.5625, -0.46875, 0.0
1147, 1.2014652014652014, -1.9987789987789988, -1.15995115995116, 3.21875, 1.21875, -0.84375, 0.0
1148, 0.442002442002442, -2.0207570207570207, -1.6813186813186813, 3.3125, 0.9375, -0.90625, 0.0
1149, -0.3443223443223443, -2.954822954822955, -2.695970695970696, 3.125, 0.875, -1.0, 0.0
1150, -0.32112332112332115, -2.4835164835164836, -2.995115995115995, 2.78125, 0.78125, -1.21875, 0.0
1151, -0.1111111111111111, -1.993894993894994, -3.1758241758241756, 2.40625, 0.3125, -1.25, 0.0
1152, -0.7619047619047619, -1.0256410256410255, -3.514041514041514, 2.125, -0.1875, -1.25, 0.0
1153, -2.167277167277167, -1.115995115995116, -4.174603174603175, 1.84375, -0.3125, -1.15625, 0.0
1154, -3.272283272283272, -0.8998778998778999, -4.315018315018315, 1.625, 0.0, -0.96875, 0.0
1155, -2.5238095238095237, -0.41147741147741146, -3.9536019536019538, 1.28125, 0.0, -0.71875, 0.0
1156, -2.398046398046398, 0.4078144078144078, -3.9572649572649574, 1.15625, -0.3125, -0.59375, 0.0
1157, -2.3846153846153846, 0.28083028083028083, -4.236874236874237, 1.0625, -0.4375, -0.46875, 0.0
1158, -2.5885225885225887, -0.19658119658119658, -4.644688644688645, 0.78125, -0.5625, -0.4375, 0.0
1159, -2.9645909645909647, 0.3516483516483517, -4.753357753357753, 0.375, -0.625, -0.4375, 0.0
1160, -3.393162393162393, 0.4932844932844933, -4.771672771672772, 0.125, -0.65625, -0.28125, 0.0
1161, -3.0842490842490844, 0.4188034188034188, -4.603174603174603, -0.0625, -0.65625, -0.0625, 0.0
1162, -2.9194139194139193, 0.2442002442002442, -4.478632478632479, -0.28125, -0.71875, 0.125, 0.0
1163, -2.6678876678876677, -0.6007326007326007, -4.57997557997558, -0.53125, -0.6875, 0.15625, 0.0
1164, -2.746031746031746, -0.5299145299145299, -4.115995115995116, -0.96875, -0.6875, 0.0, 1.0
1165, -2.4188034188034186, 0.27350427350427353, -3.103785103785104, -1.21875, -0.75, -0.15625, 1.0
1166, -1.7435897435897436, 0.199023199023199, -2.625152625152625, -1.375, -0.96875, 0.03125, 1.0
1167, -0.6825396825396826, -0.9072039072039072, -2.1233211233211233, -1.8125, -1.75, 0.25, 1.0
1168, -0.4468864468864469, -0.9023199023199023, -1.3821733821733821, -2.1875, -2.8125, 0.0, 1.0
1169, -1.9206349206349207, 0.28327228327228327, -0.57997557997558, -2.28125, -3.53125, -0.125, 1.0
1170, -1.9743589743589745, 1.0463980463980465, -0.5738705738705738, -2.28125, -3.90625, 0.0, 1.0
1171, -0.6117216117216118, 1.3357753357753357, -0.1807081807081807, -2.4375, -4.625, 0.0, 1.0
1172, 0.5531135531135531, 2.1233211233211233, 0.6068376068376068, -2.65625, -6.0, -0.15625, 1.0
1173, -3.272283272283272, 3.9194139194139193, 1.6581196581196582, -2.75, -6.625, -0.03125, 1.0
1174, -6.366300366300366, 6.252747252747253, 2.0463980463980462, -2.40625, -5.90625, 0.40625, 1.0
1175, -3.473748473748474, 6.738705738705739, 1.2551892551892552, -2.1875, -5.3125, 1.125, 1.0
1176, 1.8571428571428572, 4.968253968253968, 1.7264957264957266, -2.4375, -6.40625, 1.125, 1.0
1177, 0.7423687423687424, 3.4078144078144077, 2.68986568986569, -2.46875, -6.875, 0.40625, 1.0
1178, -0.7326007326007326, 2.669108669108669, 2.191697191697192, -1.71875, -6.3125, 0.28125, 1.0
1179, 1.0207570207570207, 2.034188034188034, 0.03540903540903541, -1.3125, -5.90625, 0.5625, 1.0
1180, 0.08302808302808302, 0.9365079365079365, -0.4713064713064713, -1.09375, -5.90625, 0.34375, 1.0
1181, -0.4444444444444444, 0.5921855921855922, -1.028083028083028, -1.0, -5.375, 0.40625, 1.0
1182, 1.387057387057387, -0.4163614163614164, -1.3919413919413919, -0.875, -4.65625, 0.53125, 1.0
1183, 3.507936507936508, -0.47863247863247865, -0.778998778998779, -1.03125, -4.75, 0.3125, 1.0
1184, 2.4945054945054945, 0.014652014652014652, -0.8290598290598291, -1.15625, -5.375, -0.375, 1.0
1185, 0.7081807081807082, -0.0757020757020757, -1.452991452991453, -1.1875, -5.59375, -0.65625, 1.0
1186, -0.02564102564102564, 0.2954822954822955, -1.768009768009768, -1.1875, -5.125, -0.71875, 1.0
1187, 0.45054945054945056, 0.29914529914529914, -1.6703296703296704, -1.09375, -4.53125, -0.59375, 1.0
1188, -0.48595848595848595, 1.216117216117216, -1.5909645909645909, -0.875, -4.03125, -0.46875, 1.0
1189, -1.271062271062271, 2.0976800976800978, -2.131868131868132, -0.375, -3.15625, -0.03125, 1.0
1190, -0.6764346764346765, 1.2612942612942613, -3.1953601953601956, 0.34375, -1.6875, 0.8125, 1.0
1191, 1.5042735042735043, -0.2258852258852259, -3.786324786324786, 0.25, -1.28125, 0.90625, 1.0
1192, 2.1684981684981683, -0.4932844932844933, -3.578754578754579, 0.0, -1.1875, 0.6875, 1.0
1193, 1.6605616605616607, 0.07936507936507936, -3.0036630036630036, -0.0625, -0.90625, 0.65625, 1.0
1194, 1.4761904761904763, 0.4822954822954823, -2.2393162393162394, 0.125, -0.46875, 0.71875, 1.0
1195, 2.336996336996337, -0.2271062271062271, -2.0854700854700856, 0.0625, -0.4375, 0.65625, 1.0
1196, 2.584859584859585, -0.42246642246642246, -1.7533577533577533, -0.125, -0.65625, 0.40625, 1.0
1197, 1.2185592185592184, 0.17094017094017094, -1.3272283272283272, -0.1875, -0.5, 0.375, 1.0
1198, 0.7374847374847375, 0.4542124542124542, -0.7191697191697192, -0.03125, -0.15625, 0.46875, 1.0
1199, 0.9804639804639804, 0.3882783882783883, -0.3308913308913309, 0.1875, 0.03125, 0.53125, 1.0
1200, 0.9365079365079365, -0.08302808302808302, -0.2905982905982906, 0.3125, 0.21875, 0.53125, 1.0
1201, 1.326007326007326, -0.4700854700854701, -0.49694749694749696, 0.28125, 0.28125, 0.46875, 1.0
1202, 1.3553113553113554, -0.7045177045177046, -0.7582417582417582, -0.125, -0.09375, 0.09375, 1.0
1203, 0.4468864468864469, 0.21855921855921856, -0.2576312576312576, -0.125, -0.09375, 0.0, 1.0
1204, 0.042735042735042736, 0.0989010989010989, -0.2490842490842491, 0.03125, 0.125, 0.125, 1.0
1205, -0.08791208791208792, -0.006105006105006105, -0.23321123321123322, 0.125, 0.34375, 0.25, 1.0
1206, 0.008547008547008548, -0.07326007326007326, -0.15873015873015872, 0.1875, 0.53125, 0.375, 1.0
1207, 0.7594627594627594, -0.5372405372405372, -0.42735042735042733, 0.09375, 0.5625, 0.46875, 0.0
1208, 0.5347985347985348, -0.47863247863247865, -0.5628815628815629, -0.21875, 0.40625, 0.46875, 0.0
1209, 0.17826617826617827, -0.1391941391941392, -0.5653235653235653, -0.34375, 0.375, 0.46875, 0.0
1210, -0.8388278388278388, 0.4908424908424908, -0.06105006105006105, -0.34375, 0.5, 0.59375, 0.0
1211, -0.6727716727716728, 0.6910866910866911, 0.08913308913308914, 0.0, 0.84375, 0.625, 0.0
1212, -0.44078144078144077, 0.07081807081807082, -0.3528693528693529, 0.28125, 1.125, 0.78125, 0.0
1213, 1.098901098901099, -0.5286935286935287, -0.6251526251526252, 0.28125, 1.09375, 0.5625, 0.0
1214, 1.3443223443223444, -0.4700854700854701, -0.5848595848595849, 0.15625, 0.9375, 0.125, 0.0
1215, 0.6959706959706959, 0.3663003663003663, -0.4542124542124542, 0.40625, 1.3125, -0.21875, 0.0
1216, 0.14896214896214896, 1.2942612942612943, -0.4725274725274725, 1.0625, 2.0625, -0.1875, 0.0
1217, -1.1953601953601953, 1.601953601953602, -1.363858363858364, 1.9375, 3.25, 0.3125, 0.0
1218, -0.4481074481074481, 0.21733821733821734, -2.5775335775335777, 2.40625, 4.375, 0.90625, 0.0
1219, 1.0793650793650793, -1.1343101343101343, -3.258852258852259, 2.34375, 5.09375, 1.1875, 0.0
1220, 2.039072039072039, -1.3882783882783882, -3.0964590964590966, 2.09375, 5.4375, 1.1875, 0.0
1221, 1.9816849816849818, -0.6068376068376068, -2.4603174603174605, 2.09375, 5.78125, 1.0625, 0.0
1222, 1.6813186813186813, 0.33455433455433453, -1.691086691086691, 2.375, 6.1875, 0.96875, 0.0
1223, 2.2954822954822953, 0.46642246642246643, -1.2026862026862026, 2.625, 6.40625, 0.875, 0.0
1224, 2.4285714285714284, 1.1196581196581197, -0.9853479853479854, 2.75, 6.34375, 0.5625, 0.0
1225, 2.6263736263736264, 1.4395604395604396, 0.19658119658119658, 2.71875, 5.53125, 0.0, 0.0
1226, 1.8131868131868132, 1.6935286935286935, 0.07081807081807082, 2.84375, 5.1875, -0.21875, 0.0
1227, 0.8717948717948718, 2.7753357753357752, -0.045177045177045176, 3.125, 5.15625, -0.21875, 0.0
1228, 1.5360195360195361, 2.4542124542124544, -0.6178266178266179, 3.625, 5.25, -0.21875, 0.0
1229, 0.7545787545787546, 1.1684981684981686, -1.3821733821733821, 3.90625, 5.21875, -0.25, 0.0
1230, 1.15995115995116, 0.009768009768009768, -2.1172161172161172, 3.78125, 5.09375, -0.25, 0.0
1231, 1.2002442002442002, -0.2698412698412698, -2.2332112332112333, 3.4375, 4.71875, -0.34375, 0.0
1232, 0.5763125763125763, 0.21855921855921856, -2.264957264957265, 3.375, 4.4375, -0.46875, 0.0
1233, 0.6605616605616605, -0.5860805860805861, -2.7423687423687424, 3.53125, 4.375, -0.40625, 0.0
1234, 0.007326007326007326, -1.347985347985348, -2.7533577533577533, 3.5, 4.40625, -0.28125, 0.0
1235, 0.2967032967032967, -2.034188034188034, -2.586080586080586, 3.34375, 4.5, -0.28125, 0.0
1236, 2.001221001221001, -1.8058608058608059, -2.0915750915750917, 3.09375, 4.15625, -0.40625, 0.0
1237, 2.1086691086691087, -2.873015873015873, -2.1709401709401708, 2.78125, 2.34375, -0.90625, 0.0
1238, 1.7619047619047619, -2.363858363858364, -2.877899877899878, 2.5625, 1.1875, -1.375, 0.0
1239, -0.3028083028083028, -1.794871794871795, -3.543345543345543, 2.34375, 0.53125, -1.65625, 0.0
1240, -2.098901098901099, -0.9267399267399268, -4.125763125763126, 2.15625, 0.34375, -1.4375, 0.0
1241, -2.42002442002442, -0.7912087912087912, -4.495726495726496, 1.8125, 0.25, -0.9375, 0.0
1242, -1.910866910866911, -0.5824175824175825, -4.512820512820513, 1.34375, 0.0, -0.71875, 0.0
1243, -1.6800976800976801, -0.1623931623931624, -4.041514041514041, 0.9375, -0.40625, -0.8125, 0.0
1244, -2.167277167277167, 0.612942612942613, -3.9902319902319903, 0.78125, -0.71875, -0.75, 0.0
1245, -2.844932844932845, 0.3711843711843712, -4.356532356532356, 0.65625, -0.71875, -0.5625, 0.0
1246, -3.2344322344322345, 0.684981684981685, -4.488400488400488, 0.53125, -0.5, -0.28125, 0.0
1247, -2.5763125763125765, 0.4725274725274725, -4.383394383394384, 0.28125, -0.40625, -0.03125, 0.0
1248, -1.9743589743589745, 0.09157509157509157, -4.196581196581197, -0.21875, -0.75, -0.03125, 0.0
