timestamp, accX, accY, accZ, gyroX, gyroY, gyroZ, button
11648, 0.001221001221001221, 0.05860805860805861, -0.1794871794871795, 0.0, -0.0625, 0.0625, 0.0
11649, 0.326007326007326, -0.2954822954822955, -0.2490842490842491, -0.15625, -0.15625, 0.0, 0.0
11650, -0.0695970695970696, 0.2612942612942613, 0.0695970695970696, -0.03125, 0.03125, 0.0, 0.0
1, -0.013431013431013432, 0.14163614163614163, 0.006105006105006105, -0.03125, 0.0, 0.0, 0.0
2, 0.028083028083028084, 0.047619047619047616, -0.018315018315018316, 0.0, 0.0, 0.0, 0.0
3, -0.06349206349206349, 0.17216117216117216, -0.3663003663003663, 0.03125, 0.15625, 0.03125, 0.0
4, 1.1855921855921856, -0.6007326007326007, 0.26495726495726496, -0.21875, 0.03125, -0.0625, 0.0
5, -0.6837606837606838, 0.2515262515262515, -0.442002442002442, -0.40625, -0.5, -0.03125, 0.0
6, -0.2503052503052503, 0.05372405372405373, -0.6019536019536019, -0.25, -0.03125, -0.03125, 0.0
7, 0.14774114774114774, -0.11233211233211234, -0.8608058608058609, -0.3125, 0.1875, -0.03125, 0.0
8, 0.23443223443223443, -0.33821733821733824, -0.9523809523809523, -0.46875, 0.25, -0.125, 0.0
9, 0.2844932844932845, -0.4297924297924298, -0.9365079365079365, -0.75, 0.25, -0.125, 0.0
10, -0.11843711843711843, -0.31135531135531136, -1.1037851037851039, -1.0625, 0.25, -0.1875, 0.0
11, -0.2600732600732601, 0.03907203907203907, -0.14896214896214896, -1.15625, 0.46875, -0.1875, 0.0
12, -0.27228327228327226, 0.18192918192918192, 0.6642246642246642, -0.9375, 0.53125, -0.15625, 0.0
13, 0.16483516483516483, -0.1978021978021978, 0.20757020757020758, -0.84375, 0.5, -0.1875, 0.0
14, -0.4713064713064713, -0.14896214896214896, -0.9023199023199023, -0.9375, 0.71875, -0.3125, 0.0
15, -0.2844932844932845, -0.326007326007326, -1.3357753357753357, -1.1875, 1.0625, -0.375, 0.0
16, -0.7350427350427351, -0.18925518925518925, -0.78998778998779, -1.28125, 1.53125, -0.4375, 0.0
17, -0.702075702075702, -0.14652014652014653, -0.7155067155067155, -1.1875, 1.90625, -0.4375, 0.0
18, -0.8742368742368742, 0.16361416361416362, -0.7423687423687424, -0.96875, 2.25, -0.25, 0.0
19, 0.4627594627594628, 1.0207570207570207, -0.48595848595848595, -0.6875, 2.0, 0.1875, 0.0
20, -0.2893772893772894, 1.6495726495726495, -0.18192918192918192, 0.1875, 2.28125, 1.40625, 0.0
21, 0.4713064713064713, 2.1892551892551895, -2.2185592185592187, 1.125, 3.1875, 2.78125, 0.0
22, 0.5958485958485958, -0.5543345543345544, -2.6105006105006106, 1.46875, 3.78125, 3.21875, 0.0
23, 0.7521367521367521, -0.5897435897435898, 0.16361416361416362, 1.59375, 4.34375, 3.34375, 0.0
24, -1.05006105006105, -0.2515262515262515, 2.1636141636141635, 2.125, 4.90625, 3.625, 0.0
25, -2.6971916971916974, -1.4700854700854702, 4.0818070818070815, 3.09375, 5.90625, 4.21875, 0.0
26, -2.6984126984126986, -2.8376068376068377, 5.438339438339439, 4.125, 6.9375, 4.65625, 0.0
27, -1.0915750915750915, -5.04029304029304, 4.813186813186813, 4.875, 7.4375, 4.65625, 0.0
28, -0.7362637362637363, -4.759462759462759, 3.4761904761904763, 4.875, 7.28125, 4.34375, 0.0
29, -0.38583638583638585, 0.014652014652014652, 3.15995115995116, 4.875, 7.15625, 3.6875, 0.0
30, 1.170940170940171, 3.744810744810745, 1.5164835164835164, 4.71875, 6.625, 2.875, 0.0
31, 2.4884004884004884, 1.5433455433455434, -0.3907203907203907, 4.0625, 5.3125, 2.21875, 0.0
32, 2.1465201465201464, 1.7106227106227105, -1.7167277167277166, 2.96875, 3.75, 1.625, 0.0
33, 1.0940170940170941, 2.051282051282051, -1.7240537240537241, 2.21875, 2.84375, 1.09375, 0.0
34, 0.746031746031746, 2.1233211233211233, -0.9072039072039072, 1.875, 2.40625, 0.21875, 0.0
35, 0.9548229548229549, 2.326007326007326, -0.48717948717948717, 1.71875, 1.40625, 0.03125, 0.0
36, 0.645909645909646, 1.7362637362637363, -0.326007326007326, 1.5625, 0.5, 0.0625, 0.0
37, -0.03540903540903541, 1.5177045177045176, -1.0122100122100122, 1.34375, 0.0625, 0.125, 0.0
38, -0.4432234432234432, 1.0903540903540903, -1.2503052503052503, 0.96875, -0.125, 0.09375, 0.0
39, -0.9194139194139194, 1.4383394383394383, -1.083028083028083, 0.71875, -0.1875, 0.21875, 0.0
40, -0.8632478632478633, 1.5995115995115996, -0.568986568986569, 0.71875, -0.0625, 0.1875, 0.0
41, -0.3553113553113553, 1.1147741147741148, -0.4603174603174603, 0.78125, -0.09375, 0.09375, 0.0
42, -0.04151404151404151, 1.0427350427350428, -0.5494505494505495, 0.65625, -0.375, 0.125, 0.0
43, -0.873015873015873, 1.0964590964590966, -0.9145299145299145, 0.6875, -0.28125, 0.25, 0.0
44, -1.3223443223443223, 0.6703296703296703, -0.7582417582417582, 0.78125, 0.125, 0.21875, 0.0
45, -1.0695970695970696, 0.05860805860805861, -0.5714285714285714, 0.65625, 0.28125, 0.25, 0.0
46, -0.6776556776556777, 0.24664224664224665, -0.23809523809523808, 0.46875, 0.125, 0.4375, 0.0
47, 0.2026862026862027, 0.12332112332112333, 0.21245421245421245, 0.4375, -0.15625, 0.375, 0.0
48, 0.15262515262515264, 0.09035409035409035, 0.28205128205128205, 0.34375, -0.34375, 0.3125, 0.0
49, 0.6275946275946276, 0.03785103785103785, 0.4590964590964591, 0.21875, -0.5625, 0.21875, 0.0
50, 0.8937728937728938, 0.35775335775335776, 0.6239316239316239, 0.03125, -1.0625, 0.0625, 0.0
51, 1.0952380952380953, 0.16117216117216118, 0.9621489621489622, -0.25, -1.78125, 0.0, 0.0
52, 1.0964590964590966, -0.014652014652014652, 1.380952380952381, -0.5625, -2.5625, -0.21875, 0.0
53, 0.8229548229548229, -0.008547008547008548, 2.023199023199023, -1.03125, -3.46875, -0.5, 0.0
54, -0.1794871794871795, 0.9242979242979243, 2.7533577533577533, -1.5625, -4.375, -0.71875, 0.0
55, -2.617826617826618, 4.146520146520147, 3.311355311355311, -1.84375, -4.5625, -0.84375, 0.0
56, -2.943833943833944, 4.598290598290598, 4.146520146520147, -1.6875, -3.8125, -1.25, 0.0
57, -3.382173382173382, -1.7619047619047619, 4.1098901098901095, -1.21875, -3.25, -1.46875, 0.0
58, -2.713064713064713, -1.3919413919413919, 3.9450549450549453, -0.03125, -3.0625, -1.0625, 0.0
59, -2.485958485958486, -1.551892551892552, 3.4676434676434678, 0.65625, -3.1875, -0.90625, 0.0
60, -2.9462759462759465, -2.5164835164835164, 2.391941391941392, 0.90625, -3.25, -0.96875, 0.0
61, -3.78021978021978, -2.2857142857142856, 1.8937728937728937, 0.9375, -3.0, -1.0625, 0.0
62, -0.06715506715506715, 0.1916971916971917, -0.4590964590964591, 0.03125, 0.0625, 0.03125, 0.0
63, -0.029304029304029304, 0.23565323565323565, -0.4261294261294261, 0.0625, 0.25, 0.09375, 0.0
64, -0.06349206349206349, 0.25518925518925517, -0.34554334554334554, 0.09375, 0.46875, 0.1875, 0.0
65, -0.026862026862026864, 0.34676434676434675, -0.22832722832722832, 0.1875, 0.6875, 0.28125, 0.0
66, 0.11721611721611722, 0.199023199023199, -0.22954822954822954, 0.21875, 0.8125, 0.3125, 0.0
67, -0.14285714285714285, 0.4297924297924298, -0.1623931623931624, 0.25, 0.90625, 0.34375, 0.0
68, -0.4554334554334554, 0.5409035409035409, -0.27350427350427353, 0.40625, 1.25, 0.40625, 0.0
69, 0.10500610500610501, 0.3724053724053724, -0.12454212454212454, 0.5625, 1.46875, 0.375, 0.0
70, 0.6202686202686203, 0.0757020757020757, -0.19413919413919414, 0.53125, 1.34375, 0.21875, 0.0
71, 1.0818070818070817, -0.054945054945054944, -0.15018315018315018, 0.4375, 0.96875, 0.0, 0.0
72, 0.8925518925518926, -0.057387057387057384, -0.16483516483516483, 0.3125, 0.5625, -0.34375, 0.0
73, 0.12087912087912088, 0.18803418803418803, 0.08302808302808302, 0.25, 0.21875, -0.46875, 0.0
74, -0.15384615384615385, 0.33821733821733824, 0.15506715506715507, 0.25, 0.125, -0.5, 0.0
75, -0.2967032967032967, 0.3137973137973138, 0.2026862026862027, 0.21875, 0.03125, -0.40625, 0.0
76, -0.6263736263736264, 0.4358974358974359, 0.08791208791208792, 0.1875, 0.03125, -0.3125, 0.0
77, -0.6227106227106227, 0.5164835164835165, 0.020757020757020756, 0.25, 0.3125, -0.1875, 0.0
78, -0.4713064713064713, 0.49694749694749696, -0.006105006105006105, 0.375, 0.6875, -0.0625, 0.0
79, 0.0231990231990232, 0.38583638583638585, -0.08547008547008547, 0.4375, 0.96875, 0.0, 0.0
80, 0.4371184371184371, 0.34065934065934067, -0.11721611721611722, 0.40625, 1.0, 0.0, 0.0
81, 0.46642246642246643, 0.4249084249084249, -0.09157509157509157, 0.3125, 0.75, -0.0625, 0.0
82, 0.33943833943833945, 0.5763125763125763, -0.1343101343101343, 0.21875, 0.4375, -0.125, 0.0
83, 0.06105006105006105, 0.6019536019536019, -0.1111111111111111, 0.15625, 0.15625, -0.25, 0.0
84, -0.32844932844932845, 0.7667887667887668, -0.003663003663003663, 0.15625, 0.03125, -0.3125, 0.0
85, -0.6532356532356532, 0.7411477411477412, 0.08180708180708181, 0.125, 0.03125, -0.25, 0.0
86, -0.6996336996336996, 0.7606837606837606, 0.23809523809523808, 0.09375, 0.03125, -0.1875, 0.0
87, -0.47496947496947495, 0.7203907203907204, 0.28815628815628813, 0.0625, -0.03125, -0.09375, 0.0
88, -0.7496947496947497, 0.7008547008547008, 0.19047619047619047, 0.0, -0.0625, -0.0625, 0.0
89, -1.0012210012210012, 0.818070818070818, 0.18437118437118438, 0.03125, 0.03125, 0.0, 0.0
90, -0.9743589743589743, 0.8315018315018315, 0.23931623931623933, 0.03125, 0.1875, 0.09375, 0.0
91, -0.5885225885225885, 0.7667887667887668, 0.35653235653235654, 0.0625, 0.1875, 0.1875, 0.0
92, -0.2612942612942613, 0.6935286935286935, 0.3504273504273504, 0.03125, 0.125, 0.21875, 0.0
93, -0.34798534798534797, 0.8290598290598291, 0.29304029304029305, 0.09375, 0.125, 0.28125, 0.0
94, -0.32234432234432236, 0.7863247863247863, 0.1684981684981685, 0.125, 0.28125, 0.375, 0.0
95, -0.15873015873015872, 0.706959706959707, 0.10256410256410256, 0.15625, 0.375, 0.40625, 0.0
96, 0.12698412698412698, 0.7301587301587301, 0.115995115995116, 0.09375, 0.34375, 0.4375, 0.0
97, 0.45054945054945056, 0.6166056166056166, -0.018315018315018316, 0.0625, 0.1875, 0.40625, 0.0
98, 0.6068376068376068, 0.568986568986569, -0.15506715506715507, 0.0, 0.0625, 0.375, 0.0
99, 0.6019536019536019, 0.6483516483516484, -0.17826617826617827, -0.03125, 0.0, 0.34375, 0.0
100, 0.5848595848595849, 0.8144078144078144, -0.16483516483516483, -0.0625, -0.09375, 0.25, 0.0
101, 0.2673992673992674, 0.8644688644688645, -0.1111111111111111, -0.0625, -0.25, 0.15625, 0.0
102, -0.06593406593406594, 0.905982905982906, 0.057387057387057384, -0.09375, -0.40625, 0.0625, 0.0
103, -0.38461538461538464, 0.9474969474969475, 0.2796092796092796, -0.125, -0.5625, 0.03125, 0.0
104, -0.6825396825396826, 1.006105006105006, 0.5506715506715507, -0.125, -0.65625, 0.09375, 0.0
105, -0.2673992673992674, 0.6898656898656899, 0.3247863247863248, -0.09375, -0.59375, 0.21875, 0.0
106, 0.09157509157509157, 0.5164835164835165, 0.10500610500610501, -0.0625, -0.4375, 0.28125, 0.0
107, 0.18192918192918192, 0.5018315018315018, 0.08669108669108669, -0.0625, -0.3125, 0.3125, 0.0
108, 0.18925518925518925, 0.6581196581196581, 0.16605616605616605, 0.0, -0.125, 0.3125, 0.0
109, 0.5164835164835165, 0.5763125763125763, 0.07081807081807082, 0.0625, -0.0625, 0.34375, 0.0
110, 0.5262515262515263, 0.38217338217338215, -0.16605616605616605, 0.15625, 0.0625, 0.28125, 0.0
111, 0.3247863247863248, 0.5091575091575091, -0.21733821733821734, 0.1875, 0.34375, 0.25, 0.0
112, -0.1807081807081807, 0.7997557997557998, -0.14285714285714285, 0.28125, 0.78125, 0.34375, 0.0
113, -0.0757020757020757, 0.9352869352869353, -0.10989010989010989, 0.375, 1.125, 0.4375, 0.0
114, 0.15506715506715507, 0.8778998778998779, -0.15873015873015872, 0.40625, 1.3125, 0.46875, 0.0
115, 0.5177045177045178, 1.0183150183150182, -0.20146520146520147, 0.40625, 1.40625, 0.46875, 0.0
116, 0.6214896214896215, 1.0976800976800978, -0.46764346764346765, 0.46875, 1.59375, 0.53125, 0.0
117, 1.1135531135531136, 1.3003663003663004, -0.6336996336996337, 0.6875, 2.0, 0.4375, 0.0
118, 1.7387057387057387, 1.336996336996337, -0.5970695970695971, 0.9375, 2.28125, 0.25, 0.0
119, 2.0256410256410255, 1.4871794871794872, -0.38461538461538464, 1.0625, 2.21875, -0.0625, 0.0
120, 2.554334554334554, 1.4554334554334554, -0.37484737484737485, 0.96875, 2.03125, -0.3125, 0.0
121, 3.9084249084249083, 1.7448107448107448, -0.31868131868131866, 0.9375, 1.71875, -0.46875, 0.0
122, 3.970695970695971, 1.6105006105006106, -0.29426129426129427, 1.25, 1.65625, -0.65625, 0.0
123, 3.536019536019536, 1.7008547008547008, -0.33577533577533575, 1.625, 1.9375, -1.15625, 0.0
124, 2.462759462759463, 2.105006105006105, -0.6178266178266179, 1.625, 1.8125, -1.59375, 0.0
125, 0.7814407814407814, 3.393162393162393, -0.7045177045177046, 1.28125, 1.25, -1.78125, 0.0
126, -0.7496947496947497, 4.373626373626373, -0.5763125763125763, 0.96875, 0.65625, -1.625, 0.0
127, 0.4163614163614164, 4.225885225885226, -0.14285714285714285, 1.0, 0.625, -1.28125, 0.0
128, 3.341880341880342, 3.5775335775335777, 0.231990231990232, 1.46875, 1.0, -1.125, 0.0
129, 3.9401709401709404, 2.8302808302808304, -0.2625152625152625, 2.03125, 1.5, -1.6875, 0.0
130, 3.0976800976800978, 3.907203907203907, -0.536019536019536, 2.15625, 2.1875, -2.25, 0.0
131, 4.048840048840049, 5.411477411477412, -0.1111111111111111, 2.15625, 2.34375, -2.25, 0.0
132, 3.6764346764346763, 6.244200244200244, -0.2612942612942613, 2.40625, 1.9375, -2.5625, 0.0
133, 1.6446886446886446, 6.256410256410256, -1.1123321123321124, 2.5, 1.625, -2.8125, 0.0
134, 1.1172161172161172, 3.9145299145299144, -1.6166056166056166, 2.40625, 1.34375, -2.875, 0.0
135, 0.5054945054945055, -0.6654456654456654, -1.7045177045177045, 2.1875, 0.71875, -2.78125, 0.0
136, -0.5201465201465202, -5.848595848595848, -1.3858363858363858, 1.9375, 0.0, -2.75, 0.0
137, -2.04029304029304, -8.77899877899878, -1.5909645909645909, 1.90625, 0.3125, -2.65625, 0.0
138, -1.5934065934065933, -9.42002442002442, -1.0244200244200243, 2.0625, 0.78125, -2.71875, 0.0
139, -2.1965811965811968, -9.105006105006105, -1.4505494505494505, 2.21875, 0.8125, -2.84375, 0.0
140, -3.7313797313797314, -8.821733821733822, -2.208791208791209, 2.1875, 0.4375, -2.6875, 0.0
141, -6.766788766788767, -8.223443223443223, -3.3015873015873014, 2.09375, 0.90625, -2.0625, 0.0
142, -5.345543345543345, -7.87057387057387, -2.7203907203907205, 1.9375, 1.375, -1.375, 0.0
143, 0.8107448107448108, -8.184371184371184, 0.575091575091575, 1.75, 0.71875, -1.40625, 0.0
144, -0.7509157509157509, -6.930402930402931, 0.18925518925518925, 1.75, 0.21875, -1.65625, 0.0
145, -2.021978021978022, -6.446886446886447, -0.38461538461538464, 1.75, 0.21875, -1.53125, 0.0
146, -3.241758241758242, -6.454212454212454, -0.894993894993895, 1.5625, 0.1875, -1.25, 0.0
147, -2.590964590964591, -6.271062271062271, -0.989010989010989, 1.28125, 0.46875, -1.0625, 0.0
148, -2.5238095238095237, -5.8388278388278385, -0.4297924297924298, 1.21875, 0.28125, -1.0, 0.0
149, -2.3394383394383396, -5.704517704517705, -0.3785103785103785, 1.25, -0.15625, -0.71875, 0.0
150, -2.652014652014652, -6.308913308913309, -1.5091575091575091, 1.0625, -0.8125, -0.375, 0.0
151, -2.6336996336996337, -6.528693528693529, -2.559218559218559, 0.4375, -1.3125, -0.03125, 0.0
152, -3.442002442002442, -5.920634920634921, -3.236874236874237, -0.03125, -1.1875, 0.15625, 0.0
153, -3.282051282051282, -5.888888888888889, -3.3968253968253967, -0.03125, -0.125, 0.15625, 0.0
154, -1.4615384615384615, -6.218559218559219, -2.357753357753358, -0.28125, 0.78125, 0.1875, 0.0
155, -0.3162393162393162, -6.308913308913309, -1.2222222222222223, -0.625, 0.53125, 0.25, 0.0
156, 0.03785103785103785, -5.930402930402931, -0.28083028083028083, -0.78125, -0.125, 0.4375, 0.0
157, -0.3882783882783883, -6.194139194139194, -0.5482295482295483, -0.9375, -0.6875, 0.59375, 0.0
158, -1.5592185592185592, -6.0818070818070815, -1.0512820512820513, -1.03125, -0.84375, 0.6875, 0.0
159, -2.8705738705738706, -6.457875457875458, -1.794871794871795, -1.15625, -0.75, 0.8125, 0.0
160, -3.7472527472527473, -6.896214896214897, -2.1904761904761907, -1.40625, -0.625, 1.03125, 0.0
161, -3.879120879120879, -7.4493284493284495, -2.0793650793650795, -1.78125, -0.5625, 1.28125, 0.0
162, -2.31013431013431, -7.948717948717949, -0.6092796092796092, -2.125, -0.75, 1.5625, 0.0
163, -1.089133089133089, -7.532356532356532, 0.8485958485958486, -2.125, -1.21875, 1.65625, 0.0
164, -2.5824175824175826, -7.462759462759463, 1.0122100122100122, -1.84375, -0.75, 1.6875, 0.0
165, -3.015873015873016, -7.768009768009768, 0.5103785103785103, -1.59375, -0.09375, 1.625, 0.0
166, -3.2564102564102564, -8.946275946275946, -0.26495726495726496, -2.03125, -0.125, 1.90625, 0.0
167, -2.4822954822954824, -9.242979242979242, 0.8412698412698413, -2.5, -0.65625, 2.375, 0.0
168, -2.0427350427350426, -8.93040293040293, 1.9975579975579976, -2.59375, -1.0625, 2.6875, 0.0
169, -0.8449328449328449, -7.515262515262515, 2.5811965811965814, -2.3125, -1.03125, 2.65625, 0.0
170, -0.2039072039072039, -4.155067155067155, 2.1306471306471306, -1.96875, -1.34375, 2.4375, 0.0
171, -1.221001221001221, -0.3504273504273504, 1.9755799755799757, -2.09375, -2.3125, 2.4375, 0.0
172, -1.5384615384615385, 0.8632478632478633, 1.5128205128205128, -2.4375, -2.40625, 3.09375, 0.0
173, -0.4713064713064713, 1.6507936507936507, 0.9719169719169719, -2.625, -1.4375, 3.5625, 0.0
174, 1.3345543345543345, 2.6446886446886446, 2.076923076923077, -2.53125, -0.59375, 3.5625, 0.0
175, 4.617826617826617, 3.4126984126984126, 2.7216117216117217, -1.875, -0.78125, 2.84375, 0.0
176, 2.642246642246642, 3.862026862026862, 2.9096459096459095, -1.15625, -2.46875, 1.84375, 0.0
177, -0.15995115995115994, 3.0903540903540905, 2.3443223443223444, -0.65625, -3.625, 2.0, 0.0
178, -0.8095238095238095, 2.5103785103785103, 1.137973137973138, -0.46875, -3.0625, 2.4375, 0.0
179, -0.894993894993895, 1.601953601953602, 0.13553113553113552, -0.3125, -2.1875, 2.28125, 0.0
180, -0.03296703296703297, 1.684981684981685, 0.12332112332112333, -0.25, -1.75, 1.8125, 0.0
181, 0.03785103785103785, 1.9597069597069596, 0.4517704517704518, -0.21875, -1.78125, 2.09375, 0.0
182, 0.8192918192918193, 1.4273504273504274, -0.6764346764346765, 0.0, -1.1875, 2.96875, 0.0
183, 1.9328449328449329, 0.11843711843711843, -1.4432234432234432, 0.15625, -0.375, 3.0625, 0.0
184, 3.653235653235653, -1.078144078144078, -1.3235653235653235, 0.03125, -0.15625, 2.5625, 0.0
185, 4.501831501831502, -1.308913308913309, -0.6642246642246642, -0.25, -0.71875, 1.6875, 0.0
186, 3.5982905982905984, 0.01098901098901099, -0.15995115995115994, -0.3125, -1.4375, 1.1875, 0.0
187, 2.5775335775335777, 0.5921855921855922, -0.18681318681318682, -0.125, -1.625, 1.34375, 0.0
188, 2.681318681318681, -0.21001221001221002, -0.7826617826617827, 0.0, -1.375, 1.4375, 0.0
189, 4.266178266178266, -1.8632478632478633, -1.5128205128205128, -0.25, -0.71875, 1.03125, 0.0
190, 3.855921855921856, -0.5323565323565324, -0.8351648351648352, -0.5, -0.875, 0.5625, 0.0
191, 2.5225885225885225, 0.6691086691086691, -0.2222222222222222, -0.4375, -1.03125, 0.1875, 0.0
192, 1.2820512820512822, 1.3687423687423688, 0.16361416361416362, -0.125, -1.03125, -0.0625, 0.0
193, 1.3406593406593406, 0.7741147741147741, -0.23443223443223443, 0.125, -1.0, -0.1875, 0.0
194, 0.9169719169719169, 0.5335775335775336, -0.4945054945054945, 0.125, -1.0625, -0.15625, 0.0
195, 1.9548229548229548, 0.33455433455433453, -0.5091575091575091, 0.0, -1.15625, -0.3125, 0.0
196, 1.0927960927960927, 0.8034188034188035, -0.6471306471306472, -0.125, -1.40625, -0.34375, 0.0
197, 0.503052503052503, 1.2307692307692308, -0.7875457875457875, -0.03125, -1.34375, -0.375, 0.0
198, 0.5726495726495726, 0.8998778998778999, -1.2527472527472527, 0.15625, -1.125, -0.3125, 0.0
199, 0.398046398046398, 0.5555555555555556, -1.5543345543345544, 0.1875, -0.90625, -0.15625, 0.0
200, 0.7350427350427351, 0.17216117216117216, -1.7521367521367521, 0.03125, -0.65625, 0.09375, 0.0
201, 0.44932844932844934, 0.2893772893772894, -1.6495726495726495, -0.34375, -0.25, 0.25, 0.0
202, 1.236874236874237, 0.14407814407814407, -1.089133089133089, -0.46875, -0.03125, 0.28125, 0.0
203, 1.1196581196581197, 0.5555555555555556, -0.3528693528693529, -0.46875, -0.0625, 0.21875, 0.0
204, 0.45787545787545786, 0.7374847374847375, 0.15995115995115994, -0.40625, 0.0, 0.21875, 0.0
205, -0.019536019536019536, 0.6678876678876678, 0.3601953601953602, -0.34375, 0.125, 0.3125, 0.0
206, -0.2271062271062271, 0.6190476190476191, 0.3907203907203907, -0.28125, 0.21875, 0.40625, 0.0
207, 0.19047619047619047, 0.9218559218559218, 0.5506715506715507, -0.125, 0.125, 0.46875, 0.0
208, -0.07203907203907203, 0.8998778998778999, 0.5335775335775336, 0.0, 0.15625, 0.5, 0.0
209, -0.5995115995115995, 0.5567765567765568, 0.33455433455433453, 0.03125, 0.34375, 0.53125, 0.0
210, -0.48473748473748474, -0.03418803418803419, 0.2600732600732601, 0.0, 0.46875, 0.65625, 0.0
211, 0.05982905982905983, -0.2490842490842491, 0.2600732600732601, -0.09375, 0.25, 0.71875, 0.0
212, 0.9438339438339438, -0.9169719169719169, 0.12087912087912088, -0.34375, -0.3125, 0.53125, 0.0
213, 0.8681318681318682, -0.7509157509157509, -0.47374847374847373, -0.40625, -0.5625, 0.34375, 0.0
214, 0.5604395604395604, -0.6373626373626373, -1.072039072039072, -0.40625, -0.4375, 0.1875, 0.0
215, 0.3601953601953602, -0.36874236874236876, -1.4981684981684982, -0.4375, 0.03125, 0.21875, 0.0
216, 0.40293040293040294, -0.27472527472527475, -1.5726495726495726, -0.3125, 0.75, 0.375, 0.0
217, 0.7142857142857143, -0.014652014652014652, -1.6166056166056166, -0.25, 1.46875, 0.46875, 0.0
218, 0.21611721611721613, 0.7203907203907204, -2.0476190476190474, -0.0625, 2.03125, 0.5625, 0.0
219, -1.1965811965811965, 0.8522588522588522, -3.156288156288156, 0.21875, 3.0625, 0.84375, 0.0
220, -1.072039072039072, -0.27106227106227104, -3.330891330891331, 0.625, 4.8125, 1.21875, 0.0
221, 0.6214896214896215, -0.6568986568986569, -2.547008547008547, 0.84375, 6.34375, 1.28125, 0.0
222, 1.7765567765567765, -0.6251526251526252, -1.459096459096459, 0.875, 7.125, 1.21875, 0.0
223, 3.0268620268620268, 0.040293040293040296, -0.115995115995116, 0.96875, 7.34375, 0.8125, 0.0
224, 3.081807081807082, 1.0158730158730158, 0.8962148962148963, 1.46875, 6.96875, -0.34375, 0.0
225, 0.2686202686202686, 2.9865689865689866, 1.1147741147741148, 2.21875, 7.21875, -0.96875, 0.0
226, -0.409035409035409, 3.6971916971916974, 0.8266178266178266, 3.03125, 7.53125, -1.34375, 0.0
227, 0.6178266178266179, 3.2356532356532357, -0.0231990231990232, 3.28125, 6.71875, -1.5, 0.0
228, -0.47741147741147744, 3.065934065934066, -1.6263736263736264, 3.25, 5.6875, -1.40625, 0.0
229, -1.3772893772893773, 2.343101343101343, -2.5555555555555554, 2.9375, 4.78125, -1.375, 0.0
230, -0.9108669108669109, 1.3125763125763126, -3.15018315018315, 2.4375, 3.8125, -1.28125, 0.0
231, -0.5616605616605617, 1.3382173382173381, -3.236874236874237, 1.875, 2.46875, -1.28125, 0.0
232, -0.9340659340659341, 1.6532356532356531, -3.385836385836386, 1.40625, 1.0625, -1.28125, 0.0
233, -2.503052503052503, 2.241758241758242, -3.4896214896214897, 1.15625, 0.1875, -1.15625, 0.0
234, -4.1098901098901095, 2.451770451770452, -3.7533577533577533, 0.96875, 0.0625, -0.78125, 0.0
235, -4.05006105006105, 2.1636141636141635, -3.4236874236874235, 0.59375, 0.15625, -0.3125, 0.0
236, -2.432234432234432, 1.982905982905983, -2.266178266178266, 0.4375, 0.375, -0.1875, 0.0
237, -1.2173382173382172, 2.0427350427350426, -1.8485958485958487, 0.25, 0.0625, -0.15625, 0.0
238, -0.8021978021978022, 2.004884004884005, -1.6764346764346765, 0.09375, -0.59375, -0.03125, 0.0
239, -0.945054945054945, 2.1013431013431014, -1.6056166056166057, -0.09375, -1.3125, 0.0625, 0.0
240, -1.5091575091575091, 2.463980463980464, -1.3516483516483517, -0.375, -1.8125, 0.15625, 0.0
241, -1.8046398046398047, 2.989010989010989, -0.9536019536019537, -0.5, -1.8125, 0.1875, 0.0
242, -1.2820512820512822, 3.47985347985348, -0.6336996336996337, -0.5, -1.53125, 0.1875, 0.0
243, -0.6764346764346765, 3.8034188034188032, -0.5592185592185592, -0.4375, -1.4375, 0.25, 0.0
244, -0.14896214896214896, 3.7264957264957266, -0.8974358974358975, -0.4375, -1.5625, 0.375, 0.0
245, 0.20146520146520147, 3.4786324786324787, -1.0317460317460319, -0.78125, -1.96875, 0.5, 0.0
246, 0.009768009768009768, 4.12942612942613, -0.5457875457875457, -1.40625, -2.71875, 0.625, 0.0
247, -0.22466422466422467, 4.543345543345543, 0.3540903540903541, -2.28125, -3.90625, 0.75, 0.0
248, 0.16605616605616605, 4.410256410256411, 1.3125763125763126, -2.65625, -4.5625, 0.59375, 0.0
249, -0.5555555555555556, 4.825396825396825, 1.7545787545787546, -2.6875, -4.6875, 0.4375, 0.0
250, -1.7924297924297925, 5.020757020757021, 1.7814407814407816, -2.375, -3.96875, 0.25, 0.0
251, -1.746031746031746, 5.380952380952381, 1.78998778998779, -1.75, -3.15625, 0.125, 0.0
252, -1.286935286935287, 5.4493284493284495, 1.9902319902319903, -1.125, -2.8125, 0.0, 0.0
253, -1.0, 4.8388278388278385, 2.0036630036630036, -0.6875, -3.0, -0.25, 0.0
254, -1.0256410256410255, 4.174603174603175, 2.1013431013431014, -0.4375, -3.53125, -0.59375, 0.0
255, -1.9291819291819292, 3.5555555555555554, 2.5921855921855923, -0.3125, -3.875, -0.53125, 0.0
256, -2.8131868131868134, 3.1965811965811968, 2.559218559218559, -0.09375, -3.78125, -0.15625, 0.0
257, -3.1013431013431014, 2.722832722832723, 2.227106227106227, 0.15625, -3.3125, 0.1875, 0.0
258, -2.371184371184371, 1.7936507936507937, 1.641025641025641, 0.40625, -2.6875, 0.6875, 0.0
259, 0.8754578754578755, -0.6202686202686203, -0.30158730158730157, 0.59375, -2.0625, 1.09375, 0.0
260, 1.9145299145299146, -0.6092796092796092, -0.4835164835164835, 0.5625, -1.90625, 0.9375, 0.0
261, 1.7936507936507937, -0.23321123321123322, -0.575091575091575, 0.53125, -2.0, 0.75, 0.0
262, 1.6825396825396826, 0.042735042735042736, -0.8217338217338217, 0.625, -2.0, 0.53125, 0.0
263, 4.05982905982906, -1.1843711843711844, -1.4236874236874237, 0.5625, -2.09375, 0.34375, 0.0
264, 3.7875457875457874, -0.6349206349206349, -0.9755799755799756, -0.03125, -3.15625, 0.1875, 0.0
265, 2.087912087912088, 0.20634920634920634, -1.2759462759462759, -0.5, -3.6875, -0.125, 0.0
266, 0.6031746031746031, 1.0708180708180708, -2.343101343101343, -0.53125, -3.25, -0.40625, 0.0
267, 0.2967032967032967, 1.170940170940171, -2.9731379731379732, -0.375, -2.40625, -0.21875, 0.0
268, 0.5421245421245421, 1.0805860805860805, -2.967032967032967, -0.34375, -1.5625, 0.03125, 0.0
269, 1.1025641025641026, 0.7081807081807082, -2.9413919413919416, -0.46875, -1.03125, 0.15625, 0.0
270, 1.424908424908425, 0.4004884004884005, -2.177045177045177, -0.96875, -0.96875, 0.28125, 0.0
271, 0.6996336996336996, 1.1037851037851039, -1.3687423687423688, -1.09375, -0.71875, 0.21875, 0.0
272, 0.34065934065934067, 1.42002442002442, -0.5897435897435898, -0.9375, -0.375, 0.3125, 0.0
273, 0.6214896214896215, 0.8815628815628815, 0.1623931623931624, -0.84375, -0.21875, 0.375, 0.0
274, 0.37484737484737485, 0.47741147741147744, 0.6971916971916972, -0.78125, -0.1875, 0.40625, 0.0
275, -0.05128205128205128, 0.37606837606837606, 0.9340659340659341, -0.59375, -0.125, 0.40625, 0.0
276, -0.10256410256410256, 0.47496947496947495, 0.8827838827838828, -0.1875, -0.125, 0.4375, 0.0
277, -0.13186813186813187, 0.5067155067155067, 0.47496947496947495, 0.15625, 0.0625, 0.5, 0.0
278, -0.07814407814407814, 0.26373626373626374, -0.33455433455433453, 0.4375, 0.53125, 0.59375, 0.0
279, 0.17338217338217338, 0.2222222222222222, -1.177045177045177, 0.59375, 1.09375, 0.71875, 0.0
280, 0.4175824175824176, 0.020757020757020756, -1.3125763125763126, 0.5, 1.59375, 0.78125, 0.0
281, 0.6275946275946276, 0.8913308913308914, -0.9572649572649573, 0.6875, 1.96875, 0.71875, 1.0
282, 0.2698412698412698, 0.6544566544566545, -1.0976800976800978, 1.125, 3.09375, 0.65625, 1.0
283, 2.525030525030525, -1.1489621489621489, -0.7741147741147741, 1.78125, 4.34375, 0.71875, 1.0
284, 5.741147741147741, -2.6483516483516483, -1.0708180708180708, 2.03125, 5.28125, 0.34375, 1.0
285, 7.227106227106227, -3.954822954822955, -0.8925518925518926, 1.625, 5.40625, -0.71875, 1.0
286, 7.344322344322344, -2.1306471306471306, -0.5946275946275946, 1.09375, 4.78125, -1.46875, 1.0
287, 6.177045177045177, -0.8595848595848596, -0.24786324786324787, 1.0, 4.1875, -1.71875, 1.0
288, 5.683760683760684, -0.3772893772893773, 0.8485958485958486, 1.6875, 4.15625, -2.25, 1.0
289, 5.415140415140415, 0.25274725274725274, 1.0854700854700854, 2.4375, 4.4375, -2.96875, 1.0
290, 4.3699633699633695, 0.4884004884004884, 1.3064713064713065, 3.3125, 4.71875, -3.375, 1.0
291, 5.427350427350428, -0.20634920634920634, 1.4212454212454213, 3.8125, 4.71875, -3.4375, 1.0
292, 6.531135531135531, -0.7094017094017094, 1.575091575091575, 4.21875, 4.09375, -3.71875, 1.0
293, 3.791208791208791, -2.415140415140415, 0.8229548229548229, 4.1875, 3.15625, -4.375, 1.0
294, 1.0940170940170941, -3.653235653235653, 0.5714285714285714, 4.21875, 3.09375, -4.09375, 1.0
295, 1.1782661782661783, -5.6471306471306475, 0.13675213675213677, 4.3125, 3.0625, -3.78125, 1.0
296, 1.612942612942613, -7.728937728937729, 0.0757020757020757, 4.4375, 2.5, -3.75, 1.0
297, 0.8608058608058609, -8.945054945054945, -0.27350427350427353, 4.46875, 1.84375, -3.6875, 1.0
298, 0.115995115995116, -9.411477411477412, -0.9572649572649573, 4.4375, 1.1875, -3.59375, 1.0
299, -2.1306471306471306, -9.572649572649572, -2.2637362637362637, 4.34375, 0.78125, -3.3125, 1.0
300, -3.547008547008547, -9.719169719169718, -3.227106227106227, 4.21875, 0.6875, -2.9375, 1.0
301, -3.1746031746031744, -9.874236874236875, -3.481074481074481, 3.8125, 0.4375, -2.6875, 1.0
302, -2.6849816849816848, -9.330891330891331, -2.659340659340659, 3.5, 0.15625, -2.5, 1.0
303, -3.5811965811965814, -8.846153846153847, -2.6336996336996337, 3.40625, -0.09375, -2.21875, 1.0
304, -4.957264957264957, -7.841269841269841, -2.9536019536019538, 3.25, 0.125, -1.90625, 1.0
305, -3.768009768009768, -7.459096459096459, -2.614163614163614, 2.8125, 0.0625, -1.5625, 1.0
306, -4.686202686202686, -6.686202686202686, -3.0085470085470085, 2.5625, -0.4375, -1.25, 1.0
307, -4.409035409035409, -5.982905982905983, -2.2295482295482296, 2.125, -0.78125, -0.75, 1.0
308, -4.1782661782661785, -5.769230769230769, -0.8290598290598291, 1.875, -1.03125, -0.4375, 1.0
309, -5.096459096459096, -5.136752136752137, -1.0952380952380953, 1.84375, -0.71875, -0.34375, 1.0
310, -4.343101343101343, -4.758241758241758, -1.5274725274725274, 1.65625, 0.03125, -0.125, 1.0
311, -1.5323565323565325, -4.054945054945055, -1.1318681318681318, 1.25, 0.21875, 0.125, 1.0
312, -0.3028083028083028, -3.89010989010989, -3.960927960927961, 1.21875, 0.03125, 0.28125, 1.0
313, 1.0805860805860805, -6.257631257631258, -7.851037851037851, 1.15625, 0.125, 0.21875, 1.0
314, 1.4957264957264957, -4.912087912087912, -2.885225885225885, 0.3125, 0.59375, 0.0, 1.0
315, 2.557997557997558, -2.857142857142857, 2.993894993894994, 0.0625, 0.53125, -0.125, 1.0
316, 1.2356532356532357, -1.6581196581196582, 4.15995115995116, 0.21875, -0.25, -0.0625, 1.0
317, 0.1111111111111111, -2.492063492063492, 0.5921855921855922, 0.5625, -0.3125, -0.03125, 1.0
318, 0.08791208791208792, -4.0366300366300365, -2.208791208791209, 0.25, -0.0625, -0.125, 1.0
319, 0.14652014652014653, -3.7203907203907205, -0.5934065934065934, 0.09375, -0.09375, -0.125, 1.0
320, -0.7338217338217338, -3.133089133089133, 0.5982905982905983, 0.09375, -0.21875, -0.03125, 1.0
321, -0.8070818070818071, -3.3089133089133087, 0.6214896214896215, 0.09375, -0.28125, 0.09375, 1.0
322, 0.006105006105006105, -3.7838827838827838, -0.47619047619047616, -0.03125, -0.28125, 0.125, 1.0
323, 0.05372405372405373, -4.101343101343101, -0.9694749694749695, -0.34375, -0.1875, 0.1875, 1.0
324, 0.1330891330891331, -3.4725274725274726, -0.23931623931623933, -0.375, -0.125, 0.1875, 1.0
325, 0.5225885225885226, -3.312576312576313, 0.3308913308913309, -0.375, -0.28125, 0.21875, 1.0
326, 0.3614163614163614, -3.758241758241758, 0.052503052503052504, -0.53125, -0.59375, 0.375, 1.0
327, -0.28083028083028083, -4.695970695970696, -0.9474969474969475, -1.0, -0.625, 0.5, 0.0
328, -1.293040293040293, -4.732600732600733, -2.1538461538461537, -1.5625, -0.34375, 0.5625, 0.0
329, -2.9279609279609278, -4.398046398046398, -2.619047619047619, -1.75, -0.03125, 0.65625, 0.0
330, -2.844932844932845, -5.0, -2.2673992673992673, -1.6875, -0.375, 0.875, 0.0
331, -3.324786324786325, -5.405372405372406, -1.7643467643467643, -1.75, -1.25, 1.09375, 0.0
332, -3.3174603174603177, -5.706959706959707, -1.1904761904761905, -1.96875, -2.125, 1.5625, 0.0
333, -3.866910866910867, -5.921855921855922, -0.4346764346764347, -2.4375, -2.9375, 2.15625, 0.0
334, -3.1172161172161172, -6.328449328449328, 0.49572649572649574, -2.78125, -3.34375, 2.53125, 0.0
335, -2.184371184371184, -6.2967032967032965, 1.7338217338217339, -2.875, -4.15625, 2.78125, 0.0
336, -2.543345543345543, -6.018315018315018, 2.58974358974359, -2.6875, -5.28125, 2.875, 0.0
337, -2.8253968253968256, -5.814407814407814, 2.7655677655677655, -2.59375, -5.75, 3.1875, 0.0
338, -2.9731379731379732, -5.400488400488401, 2.1709401709401708, -2.5, -5.40625, 3.4375, 0.0
339, -1.4615384615384615, -5.714285714285714, 1.2735042735042734, -2.5, -4.40625, 3.6875, 0.0
340, 1.1477411477411477, -4.886446886446887, 2.0463980463980462, -2.40625, -4.375, 3.21875, 0.0
341, 0.757020757020757, -3.4004884004884004, 2.8351648351648353, -1.9375, -4.78125, 2.71875, 0.0
342, 0.6385836385836385, -2.578754578754579, 2.7326007326007327, -1.34375, -4.75, 2.625, 0.0
343, 0.6581196581196581, -2.6764346764346763, 1.606837606837607, -0.84375, -4.40625, 2.28125, 0.0
344, 1.8144078144078144, -2.916971916971917, 1.7094017094017093, -0.59375, -4.40625, 1.6875, 0.0
345, 0.4078144078144078, -1.3333333333333333, 1.713064713064713, -0.03125, -4.0625, 1.40625, 0.0
346, -0.7680097680097681, -0.4725274725274725, 1.2136752136752136, 0.75, -3.3125, 1.5, 0.0
347, 2.3772893772893773, -2.083028083028083, -0.4236874236874237, 1.09375, -3.125, 1.875, 0.0
348, 3.78998778998779, -2.4786324786324787, -1.321123321123321, 0.84375, -3.34375, 1.625, 0.0
349, 2.862026862026862, -1.8827838827838828, -1.3821733821733821, 0.75, -3.1875, 1.0, 0.0
350, 0.3711843711843712, -0.4358974358974359, -0.6507936507936508, 0.8125, -2.84375, 0.75, 0.0
351, -0.2857142857142857, 0.78998778998779, -0.5018315018315018, 1.1875, -2.375, 1.1875, 0.0
352, 4.967032967032967, -2.826617826617827, -3.9536019536019538, 1.78125, -1.8125, 2.03125, 0.0
353, 4.741147741147741, -2.9743589743589745, -3.5616605616605614, 1.125, -2.5, 1.375, 0.0
354, 1.3199023199023199, -1.0097680097680097, -2.5518925518925517, 0.5, -2.71875, 0.5, 0.0
355, -1.2063492063492063, 0.7264957264957265, -1.7167277167277166, 0.5625, -2.21875, 0.28125, 0.0
356, -1.137973137973138, 0.1330891330891331, -1.192918192918193, 0.875, -1.78125, 0.65625, 0.0
357, -0.6752136752136753, -0.7411477411477412, -1.3247863247863247, 0.75, -1.75, 1.15625, 0.0
358, -0.42002442002442003, -0.6178266178266179, -1.4261294261294262, 0.46875, -1.71875, 1.34375, 0.0
359, -0.20146520146520147, -0.3333333333333333, -1.4285714285714286, 0.375, -1.4375, 1.40625, 0.0
360, 0.5262515262515263, 0.07326007326007326, -1.8608058608058609, 0.65625, -0.90625, 1.34375, 0.0
361, 2.2979242979242978, -0.9548229548229549, -2.7814407814407813, 1.0, -0.59375, 1.34375, 0.0
362, 2.982905982905983, -1.2551892551892552, -3.4065934065934065, 0.875, -0.75, 1.125, 0.0
363, 2.5921855921855923, -0.8229548229548229, -3.6605616605616604, 0.59375, -0.59375, 0.78125, 0.0
364, 2.387057387057387, -0.41514041514041516, -3.5555555555555554, 0.46875, -0.34375, 0.65625, 0.0
365, 2.2918192918192917, -0.33943833943833945, -3.028083028083028, 0.375, -0.1875, 0.5625, 0.0
366, 2.2002442002442004, -0.26373626373626374, -2.452991452991453, 0.21875, -0.09375, 0.40625, 0.0
367, 2.1965811965811968, 0.09523809523809523, -1.5982905982905984, 0.125, -0.1875, 0.21875, 0.0
368, 1.4786324786324787, 0.5628815628815629, -1.15018315018315, 0.125, -0.15625, 0.125, 0.0
369, 0.9706959706959707, 0.9133089133089133, -0.7557997557997558, 0.15625, -0.03125, 0.09375, 0.0
370, 0.6654456654456654, 0.8021978021978022, -0.6434676434676435, 0.125, 0.0, 0.125, 0.0
371, 0.3052503052503053, 1.1782661782661783, -0.7655677655677655, 0.1875, 0.1875, 0.1875, 0.0
372, -0.13064713064713065, 1.2820512820512822, -1.098901098901099, 0.40625, 0.5, 0.28125, 0.0
373, 0.028083028083028084, 1.1111111111111112, -1.5946275946275947, 0.59375, 0.9375, 0.34375, 0.0
374, -0.3956043956043956, 0.6837606837606838, -2.3345543345543347, 0.65625, 1.53125, 0.40625, 0.0
375, -0.8021978021978022, 0.2564102564102564, -3.695970695970696, 0.65625, 3.40625, 0.875, 1.0
376, 2.064713064713065, -0.2612942612942613, -3.4871794871794872, 0.875, 5.15625, 0.96875, 1.0
377, 3.8986568986568986, -1.2075702075702075, -1.783882783882784, 1.28125, 6.1875, 0.59375, 1.0
378, 5.551892551892552, -1.735042735042735, -0.8351648351648352, 1.75, 7.25, -0.40625, 1.0
379, 6.628815628815629, -1.8852258852258852, -0.6666666666666666, 2.25, 7.96875, -1.34375, 1.0
380, 9.652014652014651, -2.653235653235653, -0.34676434676434675, 2.6875, 8.28125, -2.15625, 1.0
381, 10.51037851037851, -3.78998778998779, 0.030525030525030524, 2.875, 7.46875, -3.0625, 1.0
382, 6.401709401709402, -2.636141636141636, -0.08791208791208792, 2.84375, 6.53125, -3.9375, 1.0
383, 3.3956043956043955, 0.1330891330891331, 0.2783882783882784, 2.84375, 6.53125, -4.25, 1.0
384, 3.924297924297924, 2.5213675213675213, 0.8168498168498168, 3.09375, 6.65625, -4.25, 1.0
385, 5.288156288156288, 3.2527472527472527, 0.7887667887667887, 3.21875, 5.6875, -4.21875, 1.0
386, 4.465201465201465, -0.9084249084249084, 0.1562881562881563, 3.1875, 4.03125, -4.21875, 1.0
387, 2.05006105006105, -5.540903540903541, 0.10989010989010989, 3.3125, 2.78125, -4.21875, 1.0
388, 0.13797313797313798, -7.645909645909646, -0.3968253968253968, 3.6875, 2.84375, -4.21875, 1.0
389, -0.3199023199023199, -9.55067155067155, -1.4566544566544566, 3.71875, 2.8125, -3.9375, 1.0
390, 0.09645909645909646, -9.871794871794872, -1.592185592185592, 3.40625, 2.125, -3.65625, 1.0
391, -0.452991452991453, -9.598290598290598, -1.4627594627594627, 3.25, 1.21875, -3.34375, 1.0
392, -2.1868131868131866, -9.443223443223443, -1.794871794871795, 3.34375, 0.90625, -3.09375, 1.0
393, -3.2564102564102564, -9.252747252747254, -2.67032967032967, 3.28125, 1.125, -2.9375, 1.0
394, -2.871794871794872, -9.129426129426129, -2.9914529914529915, 2.96875, 0.90625, -2.5625, 1.0
395, -3.177045177045177, -8.446886446886447, -3.299145299145299, 2.46875, 0.59375, -2.28125, 1.0
396, -3.3907203907203907, -7.4774114774114775, -2.393162393162393, 2.1875, 0.5, -1.96875, 1.0
397, -3.1623931623931623, -7.0537240537240535, -1.7851037851037852, 2.15625, 0.28125, -1.625, 1.0
398, -3.122100122100122, -7.188034188034188, -1.978021978021978, 1.78125, -0.03125, -1.1875, 1.0
399, -2.7313797313797314, -5.94017094017094, -1.0622710622710623, 1.625, -0.15625, -0.9375, 1.0
400, -3.21001221001221, -5.163614163614164, -0.5787545787545788, 1.59375, -0.53125, -0.6875, 1.0
401, -3.2295482295482296, -4.829059829059829, -0.4542124542124542, 1.53125, -0.53125, -0.40625, 1.0
402, -2.583638583638584, -4.893772893772894, -0.5824175824175825, 1.59375, -0.375, -0.25, 1.0
403, -2.923076923076923, -4.061050061050061, -0.9841269841269841, 1.4375, -0.09375, -0.15625, 1.0
404, -1.9755799755799757, -3.8547008547008548, -0.8021978021978022, 1.34375, 0.25, -0.125, 1.0
405, -0.6776556776556777, -3.192918192918193, 0.8559218559218559, 1.34375, 0.125, 0.0, 1.0
406, -1.5763125763125763, -3.446886446886447, 1.155067155067155, 1.34375, -0.21875, 0.125, 1.0
407, -1.0244200244200243, -5.267399267399267, -5.99023199023199, 0.96875, -0.15625, 0.0, 1.0
408, 3.3772893772893773, -5.410256410256411, -8.217338217338217, 0.21875, 1.0625, -0.09375, 1.0
409, 1.547008547008547, -3.518925518925519, -0.02442002442002442, 0.1875, 0.3125, -0.15625, 1.0
410, -1.557997557997558, -3.1807081807081805, 2.822954822954823, 0.28125, -0.34375, 0.0625, 1.0
411, -1.9511599511599511, -3.619047619047619, -0.047619047619047616, 0.1875, 0.15625, 0.09375, 1.0
412, -0.0757020757020757, -3.557997557997558, -1.2466422466422467, 0.09375, 0.375, 0.03125, 1.0
413, 0.7936507936507936, -3.1941391941391943, -0.2893772893772894, 0.03125, 0.15625, 0.03125, 1.0
414, 0.8351648351648352, -3.0378510378510377, 0.07081807081807082, 0.0, 0.0, 0.0, 1.0
415, 0.5409035409035409, -2.9047619047619047, 0.3125763125763126, 0.0, -0.0625, 0.0, 1.0
416, 0.17704517704517705, -2.614163614163614, 0.10989010989010989, 0.03125, -0.0625, 0.0, 1.0
417, 0.2905982905982906, -2.741147741147741, -0.23443223443223443, 0.03125, -0.1875, 0.0625, 1.0
418, 0.33577533577533575, -3.051282051282051, -0.25518925518925517, 0.0, -0.3125, 0.09375, 1.0
419, 0.30036630036630035, -3.313797313797314, -0.09035409035409035, -0.09375, -0.4375, 0.09375, 1.0
420, -0.12087912087912088, -3.711843711843712, -0.5311355311355311, -0.25, -0.375, 0.09375, 1.0
421, -0.32112332112332115, -4.045177045177045, -0.9926739926739927, -0.375, -0.3125, 0.09375, 1.0
422, -1.8766788766788767, -4.186813186813187, -1.9096459096459097, -0.75, -0.46875, 0.1875, 1.0
423, -2.8766788766788767, -5.218559218559219, -2.8144078144078146, -1.0, -0.75, 0.46875, 1.0
424, -3.7094017094017095, -5.970695970695971, -3.313797313797314, -1.625, -1.03125, 0.8125, 0.0
425, -4.78021978021978, -5.910866910866911, -2.542124542124542, -2.09375, -1.0, 1.28125, 0.0
426, -4.395604395604396, -5.385836385836386, -1.6544566544566544, -2.28125, -0.96875, 1.5625, 0.0
427, -2.706959706959707, -5.971916971916972, -0.7936507936507936, -2.15625, -1.21875, 1.75, 0.0
428, -1.304029304029304, -6.769230769230769, -0.09645909645909646, -2.1875, -2.375, 2.15625, 0.0
429, -2.0915750915750917, -7.1001221001221, 1.2454212454212454, -2.5625, -3.84375, 2.53125, 0.0
430, -3.6312576312576312, -5.583638583638583, 1.7973137973137974, -3.03125, -4.53125, 2.96875, 0.0
431, -2.3321123321123323, -5.750915750915751, 2.6105006105006106, -2.75, -4.03125, 3.09375, 0.0
432, -1.1623931623931625, -6.128205128205129, 2.6214896214896215, -2.3125, -3.84375, 3.09375, 0.0
433, -0.3614163614163614, -5.897435897435898, 2.7484737484737485, -1.90625, -4.375, 3.0, 0.0
434, -0.11721611721611722, -5.471306471306471, 2.236874236874237, -1.90625, -4.28125, 3.28125, 0.0
435, 1.3101343101343101, -5.09035409035409, 1.7423687423687424, -1.9375, -4.3125, 3.09375, 0.0
436, 2.0268620268620268, -3.9096459096459095, 2.122100122100122, -1.65625, -4.8125, 2.59375, 0.0
437, 1.3272283272283272, -2.5396825396825395, 3.083028083028083, -1.125, -5.65625, 2.03125, 0.0
438, -0.7203907203907204, -1.6446886446886446, 3.1648351648351647, -0.46875, -5.78125, 1.90625, 0.0
439, -1.57997557997558, -2.4432234432234434, 0.9169719169719169, 0.125, -4.53125, 1.96875, 0.0
440, 0.7106227106227107, -2.778998778998779, 0.24786324786324787, 0.5, -3.71875, 1.75, 0.0
441, 1.7179487179487178, -2.6385836385836385, 0.7228327228327228, 0.59375, -3.875, 1.46875, 0.0
442, 0.7667887667887668, -1.4505494505494505, 1.0683760683760684, 0.65625, -4.0, 1.5625, 0.0
443, -0.398046398046398, -1.586080586080586, -0.8290598290598291, 0.96875, -3.0, 1.78125, 0.0
444, 0.7057387057387058, -1.6031746031746033, -2.2796092796092795, 1.40625, -2.03125, 1.90625, 0.0
445, 2.034188034188034, -0.8888888888888888, -0.9047619047619048, 1.125, -2.6875, 1.59375, 0.0
446, 0.9474969474969475, -0.3907203907203907, -1.5286935286935286, 1.15625, -2.65625, 1.71875, 0.0
447, 1.3113553113553114, -1.249084249084249, -2.6263736263736264, 1.28125, -2.34375, 1.875, 0.0
448, 1.144078144078144, -1.7252747252747254, -3.253968253968254, 1.1875, -2.0625, 1.5, 0.0
449, 0.0231990231990232, -0.7863247863247863, -2.954822954822955, 0.9375, -1.875, 1.0625, 0.0
450, -0.47741147741147744, 0.42246642246642246, -2.722832722832723, 0.78125, -1.59375, 1.28125, 0.0
451, 0.6227106227106227, -0.5714285714285714, -2.9926739926739927, 0.8125, -1.1875, 1.65625, 0.0
452, 1.4017094017094016, -0.6532356532356532, -2.6398046398046398, 0.53125, -1.5, 1.875, 0.0
453, 0.5543345543345544, -0.24297924297924298, -2.3162393162393164, 0.40625, -1.65625, 1.75, 0.0
454, 0.07448107448107448, 0.1623931623931624, -1.993894993894994, 0.59375, -1.1875, 1.5, 0.0
455, 0.6507936507936508, 0.006105006105006105, -1.6166056166056166, 0.90625, -0.53125, 1.53125, 0.0
456, 2.0781440781440783, -0.45054945054945056, -1.4700854700854702, 1.09375, -0.34375, 1.59375, 0.0
457, 2.8803418803418803, -0.702075702075702, -1.934065934065934, 1.0, -0.6875, 1.375, 0.0
458, 2.277167277167277, -0.5604395604395604, -2.7387057387057387, 0.84375, -0.5625, 1.09375, 0.0
459, 2.2893772893772892, -0.06227106227106227, -3.114774114774115, 0.75, -0.21875, 0.90625, 0.0
460, 2.7326007326007327, 0.16727716727716727, -3.1184371184371185, 0.65625, -0.0625, 0.8125, 0.0
461, 3.231990231990232, 0.017094017094017096, -2.976800976800977, 0.5, -0.0625, 0.65625, 0.0
462, 3.266178266178266, 0.07203907203907203, -2.7252747252747254, 0.34375, -0.125, 0.46875, 0.0
463, 2.769230769230769, 0.13553113553113552, -2.6153846153846154, 0.1875, 0.0, 0.34375, 0.0
464, 2.26007326007326, 0.6800976800976801, -3.0305250305250304, 0.25, 0.375, 0.21875, 0.0
465, 1.7167277167277166, 0.6776556776556777, -3.1514041514041513, 0.46875, 1.03125, 0.125, 0.0
466, 0.9304029304029304, 1.098901098901099, -3.3015873015873014, 0.78125, 1.90625, 0.21875, 0.0
467, 1.2503052503052503, 0.6141636141636142, -3.382173382173382, 1.03125, 2.65625, 0.21875, 1.0
468, 1.3711843711843712, -0.6483516483516484, -3.0793650793650795, 0.625, 3.6875, 0.03125, 1.0
469, 2.9853479853479854, -1.57997557997558, -2.885225885225885, 0.40625, 4.59375, -0.125, 1.0
470, 3.8522588522588523, -1.9694749694749696, -2.10989010989011, 0.375, 5.5, -0.625, 1.0
471, 4.1098901098901095, -1.8131868131868132, -1.5067155067155067, 0.53125, 6.28125, -1.4375, 1.0
472, 4.451770451770452, -2.177045177045177, -1.8083028083028083, 0.90625, 6.9375, -2.15625, 1.0
473, 4.394383394383395, -1.894993894993895, -1.6251526251526252, 1.21875, 7.5625, -2.6875, 1.0
474, 6.119658119658119, -1.6825396825396826, -0.5604395604395604, 1.5625, 7.75, -3.21875, 1.0
475, 6.4041514041514045, -0.009768009768009768, 0.2600732600732601, 1.90625, 7.28125, -3.65625, 1.0
476, 5.362637362637362, 1.225885225885226, 0.26495726495726496, 2.4375, 6.8125, -4.0, 1.0
477, 5.888888888888889, 2.4786324786324787, 0.054945054945054944, 2.96875, 6.40625, -4.28125, 1.0
478, 4.687423687423688, 0.8485958485958486, -0.32112332112332115, 3.125, 5.5, -4.53125, 1.0
479, 2.3736263736263736, -4.869352869352869, -0.6288156288156288, 3.21875, 4.71875, -4.59375, 1.0
480, 0.4126984126984127, -7.05006105006105, -0.945054945054945, 3.6875, 4.28125, -4.21875, 1.0
481, 1.3626373626373627, -8.738705738705738, -0.9267399267399268, 3.90625, 3.65625, -3.96875, 1.0
482, 1.6862026862026862, -10.133089133089133, -1.3711843711843712, 3.8125, 2.3125, -3.71875, 1.0
483, -0.884004884004884, -9.94017094017094, -2.0207570207570207, 3.78125, 1.46875, -3.46875, 1.0
484, -2.4358974358974357, -9.804639804639805, -2.473748473748474, 3.78125, 1.25, -3.15625, 1.0
485, -2.5396825396825395, -9.649572649572649, -2.7387057387057387, 3.71875, 1.0, -2.90625, 1.0
486, -2.8644688644688645, -9.55067155067155, -2.727716727716728, 3.46875, 0.5, -2.59375, 1.0
487, -3.9536019536019538, -8.925518925518926, -3.1196581196581197, 3.21875, 0.15625, -2.3125, 1.0
488, -4.444444444444445, -8.366300366300367, -3.161172161172161, 2.90625, 0.0, -1.90625, 1.0
489, -4.684981684981685, -7.938949938949939, -3.034188034188034, 2.5625, 0.03125, -1.5625, 1.0
490, -3.8766788766788767, -7.450549450549451, -2.7753357753357752, 2.1875, -0.15625, -1.25, 1.0
491, -3.542124542124542, -6.755799755799756, -2.244200244200244, 1.8125, -0.65625, -0.84375, 1.0
492, -3.9035409035409034, -5.495726495726496, -2.2515262515262515, 1.6875, -0.40625, -0.5625, 1.0
493, -2.5995115995115996, -5.4774114774114775, -1.783882783882784, 1.5, -0.0625, -0.40625, 1.0
494, -1.188034188034188, -4.746031746031746, -1.4810744810744811, 1.21875, -0.0625, -0.28125, 1.0
495, -1.1868131868131868, -4.012210012210012, -1.1245421245421245, 1.09375, -0.21875, -0.1875, 1.0
496, -0.7924297924297924, -3.7094017094017095, -0.7277167277167277, 1.0, -0.1875, -0.09375, 1.0
497, -0.46153846153846156, -3.347985347985348, -0.37606837606837606, 0.96875, -0.1875, 0.0, 1.0
498, 0.7594627594627594, -3.608058608058608, -0.5018315018315018, 0.8125, -0.3125, 0.03125, 1.0
499, -0.015873015873015872, -3.507936507936508, -1.8131868131868132, 0.1875, -0.34375, -0.125, 1.0
500, 0.42002442002442003, -2.7387057387057387, -0.5347985347985348, 0.03125, 0.25, -0.3125, 1.0
501, -1.4713064713064714, -2.802197802197802, -0.8962148962148963, 0.1875, 0.25, -0.3125, 1.0
502, -2.462759462759463, -2.6385836385836385, 0.08058608058608059, 0.15625, 0.28125, -0.15625, 1.0
503, -1.9206349206349207, -2.6923076923076925, 1.089133089133089, 0.0625, 0.375, 0.09375, 1.0
504, -0.7838827838827839, -2.9914529914529915, -0.2686202686202686, 0.125, 0.75, 0.09375, 1.0
505, 1.551892551892552, -3.484737484737485, -0.9633699633699634, 0.09375, 0.5625, 0.0625, 1.0
506, 1.9804639804639805, -3.2002442002442004, -0.3504273504273504, 0.0625, 0.1875, 0.0625, 1.0
507, 1.678876678876679, -2.78998778998779, 0.4884004884004884, 0.03125, -0.0625, 0.03125, 1.0
508, 0.6410256410256411, -2.4505494505494507, 0.5860805860805861, 0.03125, -0.125, 0.0625, 1.0
509, 0.0463980463980464, -2.6507936507936507, 0.19658119658119658, 0.0, -0.125, 0.09375, 1.0
510, -0.16971916971916973, -2.9731379731379732, -0.2271062271062271, -0.03125, -0.15625, 0.125, 1.0
511, 0.28205128205128205, -3.277167277167277, -0.2454212454212454, -0.125, -0.34375, 0.1875, 1.0
512, -0.09157509157509157, -3.431013431013431, -0.13553113553113552, -0.25, -0.4375, 0.28125, 1.0
513, -0.43223443223443225, -3.6263736263736264, -0.4468864468864469, -0.5, -0.46875, 0.375, 1.0
514, -1.078144078144078, -3.943833943833944, -0.9743589743589743, -0.71875, -0.4375, 0.59375, 0.0
515, -3.21001221001221, -4.588522588522588, -2.0146520146520146, -0.96875, -0.5, 0.75, 0.0
516, -4.490842490842491, -4.888888888888889, -2.5506715506715505, -1.09375, -0.9375, 0.96875, 0.0
517, -4.366300366300366, -5.565323565323565, -2.6153846153846154, -1.34375, -1.1875, 1.25, 0.0
518, -4.6068376068376065, -5.921855921855922, -2.1172161172161172, -1.75, -1.6875, 1.75, 0.0
519, -4.960927960927961, -6.31013431013431, -2.2637362637362637, -2.15625, -1.84375, 2.21875, 0.0
520, -3.9462759462759465, -6.586080586080586, -0.9584859584859585, -2.46875, -1.78125, 2.53125, 0.0
521, -1.291819291819292, -6.594627594627594, 0.6507936507936508, -2.59375, -2.25, 2.78125, 0.0
522, -1.065934065934066, -6.644688644688645, 1.8485958485958487, -2.53125, -3.625, 3.03125, 0.0
523, -1.3028083028083028, -6.459096459096459, 2.716727716727717, -2.53125, -4.875, 3.28125, 0.0
524, -1.336996336996337, -6.1330891330891335, 2.398046398046398, -2.5, -5.15625, 3.65625, 0.0
525, 0.18437118437118438, -6.002442002442002, 2.336996336996337, -2.46875, -5.03125, 3.59375, 0.0
526, 1.8681318681318682, -4.786324786324786, 3.7716727716727716, -2.4375, -6.53125, 3.09375, 0.0
527, 0.5457875457875457, -2.612942612942613, 4.401709401709402, -1.65625, -7.21875, 2.875, 0.0
528, -1.164835164835165, -2.5128205128205128, 2.9096459096459095, -0.6875, -6.3125, 2.53125, 0.0
529, -0.12454212454212454, -3.0, 1.0341880341880343, 0.0, -4.6875, 2.34375, 0.0
530, 1.0757020757020757, -2.9084249084249083, 0.6617826617826618, 0.4375, -3.9375, 1.90625, 0.0
531, 3.2527472527472527, -3.1794871794871793, 1.2625152625152625, 0.34375, -4.40625, 1.59375, 0.0
532, 1.6825396825396826, -1.84004884004884, 0.3968253968253968, 0.65625, -4.21875, 1.71875, 0.0
533, 0.4236874236874237, -1.5445665445665446, -0.7655677655677655, 1.125, -3.0625, 1.625, 0.0
534, 0.884004884004884, -1.5665445665445665, -0.9340659340659341, 1.40625, -2.40625, 1.5, 0.0
535, 2.6056166056166057, -2.081807081807082, -0.7326007326007326, 1.34375, -2.71875, 1.1875, 0.0
536, 1.5091575091575091, -1.264957264957265, -1.4407814407814408, 1.28125, -2.8125, 1.1875, 0.0
537, 0.6202686202686203, -0.9169719169719169, -2.313797313797314, 1.28125, -2.375, 1.40625, 0.0
538, 1.3467643467643469, -1.3272283272283272, -2.1807081807081805, 1.28125, -1.53125, 1.59375, 0.0
539, 1.0305250305250304, -0.9768009768009768, -1.4322344322344323, 1.1875, -1.4375, 1.28125, 0.0
540, -0.054945054945054944, -0.28327228327228327, -1.10989010989011, 1.15625, -1.5, 1.0625, 0.0
541, -0.8449328449328449, -0.3833943833943834, -1.3785103785103785, 1.25, -1.46875, 1.15625, 0.0
542, -0.199023199023199, -0.7509157509157509, -1.9377289377289377, 1.15625, -1.40625, 1.375, 0.0
543, -0.15384615384615385, -0.7081807081807082, -2.1941391941391943, 0.90625, -1.40625, 1.59375, 0.0
544, 0.18925518925518925, -0.6996336996336996, -2.330891330891331, 0.75, -1.21875, 1.6875, 0.0
545, 0.2967032967032967, -0.6581196581196581, -2.2222222222222223, 0.71875, -1.03125, 1.71875, 0.0
546, 0.5335775335775336, -0.5201465201465202, -2.167277167277167, 0.75, -0.75, 1.71875, 0.0
547, 1.3296703296703296, -0.4725274725274725, -2.247863247863248, 0.8125, -0.59375, 1.6875, 0.0
548, 1.8705738705738706, -0.3724053724053724, -2.2576312576312576, 0.84375, -0.78125, 1.65625, 0.0
549, 2.029304029304029, -0.33577533577533575, -2.451770451770452, 0.875, -0.84375, 1.375, 0.0
550, 2.330891330891331, -0.326007326007326, -2.6923076923076925, 0.84375, -0.75, 1.1875, 0.0
551, 2.1794871794871793, -0.34554334554334554, -2.822954822954823, 0.75, -0.5625, 1.03125, 0.0
552, 2.166056166056166, 0.15018315018315018, -2.7936507936507935, 0.75, -0.34375, 0.875, 0.0
553, 2.5457875457875456, 0.23931623931623933, -2.8180708180708183, 0.6875, -0.25, 0.6875, 0.0
554, 2.7533577533577533, 0.07081807081807082, -2.634920634920635, 0.5, -0.3125, 0.53125, 0.0
555, 2.6507936507936507, 0.22954822954822954, -2.409035409035409, 0.34375, -0.34375, 0.40625, 0.0
556, 2.4175824175824174, 0.46642246642246643, -2.1526251526251525, 0.25, -0.28125, 0.3125, 0.0
557, 2.0525030525030523, 0.6495726495726496, -1.8766788766788767, 0.1875, -0.25, 0.28125, 0.0
558, 1.4383394383394383, 0.8412698412698413, -1.6349206349206349, 0.25, -0.03125, 0.21875, 0.0
559, 1.2942612942612943, 0.29914529914529914, -1.7557997557997558, 0.21875, 0.1875, 0.15625, 0.0
560, 1.1489621489621489, -0.08424908424908426, -1.7472527472527473, 0.09375, 0.40625, 0.0, 0.0
561, 1.763125763125763, -0.004884004884004884, -1.231990231990232, 0.125, 0.21875, -0.25, 0.0
562, 1.271062271062271, 0.811965811965812, -1.551892551892552, 0.625, 0.375, -0.34375, 1.0
563, -0.6190476190476191, 0.03296703296703297, -1.750915750915751, 1.0, 1.1875, -0.46875, 1.0
564, 0.16117216117216118, -0.9706959706959707, -2.785103785103785, 0.96875, 2.625, -0.46875, 1.0
565, 1.4273504273504274, -2.3516483516483517, -4.095238095238095, 0.5625, 3.40625, -0.25, 1.0
566, 1.8485958485958487, -2.8974358974358974, -4.74969474969475, 0.0, 3.65625, -0.28125, 1.0
567, 1.811965811965812, -2.6092796092796093, -4.771672771672772, -0.25, 4.09375, -0.625, 1.0
568, 1.1367521367521367, -2.757020757020757, -4.4603174603174605, -0.28125, 5.0625, -1.03125, 1.0
569, 1.2124542124542124, -1.9035409035409034, -2.7594627594627594, 0.09375, 6.59375, -1.71875, 1.0
570, 3.06959706959707, -1.7142857142857142, -1.42002442002442, 0.9375, 7.90625, -2.8125, 1.0
571, 4.74969474969475, -2.275946275946276, -1.6776556776556777, 1.46875, 8.125, -3.71875, 1.0
572, 4.3870573870573875, -1.468864468864469, -2.039072039072039, 1.5, 7.4375, -4.34375, 1.0
573, 2.6324786324786325, -0.24053724053724054, -1.884004884004884, 1.59375, 6.625, -4.625, 1.0
574, -0.0695970695970696, 2.4554334554334556, -1.641025641025641, 2.03125, 7.28125, -4.75, 1.0
575, 0.9206349206349206, 4.615384615384615, -1.4285714285714286, 2.375, 7.4375, -4.71875, 1.0
576, 2.7985347985347984, 0.590964590964591, -1.3382173382173381, 2.46875, 6.34375, -4.5, 1.0
577, 3.1404151404151404, -4.366300366300366, -1.2673992673992673, 2.5, 4.59375, -4.21875, 1.0
578, 1.347985347985348, -6.398046398046398, -1.181929181929182, 2.75, 3.40625, -4.0, 1.0
579, 0.5860805860805861, -8.056166056166056, -1.3724053724053724, 3.0, 3.0, -3.875, 1.0
580, -0.13064713064713065, -8.06959706959707, -1.4017094017094016, 3.21875, 2.65625, -3.75, 1.0
581, 0.1282051282051282, -8.770451770451771, -1.673992673992674, 3.1875, 1.9375, -3.46875, 1.0
582, -1.231990231990232, -8.313797313797314, -1.7423687423687424, 3.28125, 1.375, -3.1875, 1.0
583, -1.862026862026862, -8.608058608058608, -2.312576312576313, 3.21875, 0.875, -2.8125, 1.0
584, -2.595848595848596, -8.192918192918192, -2.354090354090354, 3.03125, 0.21875, -2.34375, 1.0
585, -3.7191697191697193, -7.413919413919414, -2.934065934065934, 2.8125, -0.15625, -1.9375, 1.0
586, -4.032967032967033, -6.626373626373627, -2.6788766788766787, 2.46875, -0.625, -1.59375, 1.0
587, -4.894993894993895, -6.615384615384615, -2.0586080586080584, 2.3125, -0.96875, -1.1875, 1.0
588, -5.012210012210012, -6.021978021978022, -2.3833943833943834, 2.28125, -0.5, -1.03125, 1.0
589, -3.879120879120879, -5.886446886446887, -2.93040293040293, 2.125, -0.0625, -0.8125, 1.0
590, -2.4871794871794872, -5.7484737484737485, -2.061050061050061, 1.6875, -0.1875, -0.5, 1.0
591, -2.5494505494505493, -5.020757020757021, -1.4224664224664225, 1.375, -0.65625, -0.3125, 1.0
592, -3.2014652014652016, -4.3931623931623935, -1.3772893772893773, 1.34375, -0.53125, -0.1875, 1.0
593, -1.9536019536019535, -4.571428571428571, -1.1807081807081807, 1.34375, -0.125, -0.03125, 1.0
594, -0.9096459096459096, -4.931623931623932, -2.548229548229548, 1.0, -0.28125, 0.0, 1.0
595, -1.3675213675213675, -5.031746031746032, -5.797313797313797, 0.1875, -0.0625, 0.0, 1.0
596, 1.043956043956044, -3.371184371184371, -2.076923076923077, 0.09375, 0.3125, -0.1875, 1.0
597, -0.13064713064713065, -2.5934065934065935, 0.08913308913308914, 0.4375, 0.0625, -0.09375, 1.0
598, 0.9816849816849816, -2.10989010989011, 1.8034188034188035, 0.46875, -0.0625, 0.0, 1.0
599, 0.9267399267399268, -2.26007326007326, 0.5811965811965812, 0.5, -0.21875, 0.0, 1.0
600, -0.811965811965812, -2.8205128205128207, -0.2612942612942613, 0.46875, 0.15625, -0.15625, 1.0
601, -0.6874236874236874, -3.6825396825396823, -0.9328449328449329, 0.40625, 0.3125, -0.09375, 1.0
602, 0.10989010989010989, -4.311355311355311, -1.1391941391941391, 0.21875, 0.15625, 0.0, 1.0
603, 0.14774114774114774, -4.42002442002442, -0.9181929181929182, 0.0625, 0.0625, 0.09375, 1.0
604, -0.24053724053724054, -4.328449328449328, -0.4249084249084249, -0.09375, 0.03125, 0.15625, 1.0
605, -0.4297924297924298, -4.456654456654457, -0.6263736263736264, -0.3125, 0.0625, 0.25, 1.0
606, 0.01221001221001221, -4.736263736263736, -1.1843711843711844, -0.625, 0.0, 0.40625, 1.0
607, -0.2503052503052503, -4.693528693528694, -1.7338217338217339, -0.96875, -0.1875, 0.59375, 1.0
608, -2.4297924297924296, -4.282051282051282, -1.6886446886446886, -1.1875, -1.0, 0.78125, 0.0
609, -4.157509157509158, -5.36019536019536, -2.462759462759463, -1.28125, -1.28125, 1.21875, 0.0
610, -4.528693528693529, -5.490842490842491, -3.0183150183150182, -1.75, -1.0625, 1.53125, 0.0
611, -3.8754578754578755, -6.007326007326007, -2.6434676434676434, -2.125, -1.125, 1.8125, 0.0
612, -2.7423687423687424, -5.923076923076923, -0.6923076923076923, -2.28125, -1.84375, 2.09375, 0.0
613, -2.6434676434676434, -5.742368742368742, 1.0024420024420024, -2.21875, -3.15625, 2.4375, 0.0
614, -3.3772893772893773, -5.7655677655677655, 2.0207570207570207, -2.0625, -4.125, 2.9375, 0.0
615, -2.7094017094017095, -6.024420024420024, 2.2698412698412698, -1.96875, -4.4375, 3.375, 0.0
616, -1.691086691086691, -6.146520146520147, 2.2356532356532357, -1.90625, -4.75, 3.5625, 0.0
617, -1.315018315018315, -5.244200244200244, 2.559218559218559, -2.0625, -4.875, 3.65625, 0.0
618, -0.6471306471306472, -3.7264957264957266, 2.832722832722833, -1.5625, -4.96875, 3.46875, 0.0
619, 0.4065934065934066, -3.9902319902319903, 2.706959706959707, -0.6875, -5.03125, 2.96875, 0.0
620, 0.18315018315018314, -3.32967032967033, 2.5164835164835164, -0.40625, -5.34375, 2.625, 0.0
621, -0.36507936507936506, -2.542124542124542, 1.8131868131868132, -0.09375, -5.28125, 2.625, 0.0
622, -0.48473748473748474, -2.1623931623931623, 0.5103785103785103, 0.09375, -4.46875, 2.71875, 0.0
623, 0.8852258852258852, -2.67032967032967, -0.358974358974359, 0.1875, -3.75, 2.5625, 0.0
624, 2.3284493284493286, -2.137973137973138, -0.017094017094017096, 0.28125, -3.875, 2.21875, 0.0
625, 0.652014652014652, -0.9035409035409036, 0.15995115995115994, 0.59375, -3.65625, 2.0, 0.0
626, 0.10256410256410256, -0.2564102564102564, -0.16361416361416362, 1.0, -3.0625, 2.125, 0.0
627, 0.18925518925518925, -0.6654456654456654, -0.5323565323565324, 1.21875, -2.40625, 2.3125, 0.0
628, 2.213675213675214, -2.21978021978022, -1.2466422466422467, 1.125, -2.25, 1.78125, 0.0
629, 2.1245421245421245, -1.8632478632478633, -1.1721611721611722, 0.875, -2.5, 1.125, 0.0
630, -0.1916971916971917, -0.4713064713064713, -0.9035409035409036, 0.96875, -2.5, 1.03125, 0.0
631, -2.3663003663003663, -1.2503052503052503, -1.5103785103785103, 1.03125, -1.65625, 1.71875, 0.0
632, -0.5653235653235653, -1.901098901098901, -1.8485958485958487, 0.65625, -1.09375, 2.09375, 0.0
633, 1.0525030525030525, -1.4395604395604396, -1.7863247863247864, 0.34375, -1.0625, 2.125, 0.0
634, 1.1794871794871795, -1.0586080586080586, -1.8632478632478633, 0.53125, -1.40625, 1.75, 0.0
635, -0.12942612942612944, -0.833943833943834, -1.8571428571428572, 0.75, -1.6875, 1.5, 0.0
636, 0.02564102564102564, -1.3919413919413919, -2.144078144078144, 0.90625, -1.4375, 1.46875, 0.0
637, 0.23076923076923078, -1.017094017094017, -2.3235653235653237, 0.90625, -1.15625, 1.5, 0.0
638, 0.5885225885225885, -0.9645909645909646, -2.501831501831502, 0.96875, -0.875, 1.5625, 0.0
639, 1.474969474969475, -0.7081807081807082, -2.706959706959707, 1.0625, -0.71875, 1.53125, 0.0
640, 1.7704517704517704, -0.8473748473748474, -3.039072039072039, 1.125, -0.71875, 1.46875, 0.0
641, 2.06959706959707, -0.9255189255189256, -3.4664224664224665, 1.0625, -0.6875, 1.375, 0.0
642, 2.1416361416361416, -1.0085470085470085, -3.647130647130647, 0.8125, -0.625, 1.15625, 0.0
643, 2.583638583638584, -0.5238095238095238, -3.3833943833943834, 0.5, -0.53125, 0.9375, 0.0
644, 2.5506715506715505, -0.2686202686202686, -2.901098901098901, 0.34375, -0.53125, 0.75, 0.0
645, 1.9120879120879122, 0.16361416361416362, -2.283272283272283, 0.21875, -0.4375, 0.59375, 0.0
646, 1.6715506715506716, 0.536019536019536, -1.595848595848596, 0.1875, -0.3125, 0.4375, 0.0
647, 1.47985347985348, 1.0305250305250304, -1.032967032967033, 0.1875, -0.28125, 0.375, 0.0
648, 1.2332112332112333, 1.3711843711843712, -0.8608058608058609, 0.3125, -0.28125, 0.34375, 0.0
649, 1.404151404151404, 1.0964590964590966, -1.2039072039072038, 0.28125, -0.4375, 0.375, 0.0
650, 0.9255189255189256, 1.0305250305250304, -1.459096459096459, 0.21875, -0.375, 0.375, 0.0
651, 0.9035409035409036, 0.49694749694749696, -2.0598290598290596, 0.125, -0.0625, 0.34375, 0.0
652, 1.0402930402930404, 0.48595848595848595, -2.086691086691087, 0.09375, 0.25, 0.3125, 0.0
653, 1.21001221001221, 0.6800976800976801, -1.94993894993895, 0.21875, 0.53125, 0.25, 0.0
654, 1.678876678876679, 0.9413919413919414, -1.9877899877899878, 0.625, 1.0, 0.0625, 0.0
655, -0.03907203907203907, -0.3894993894993895, -3.9743589743589745, 0.75, 1.875, 0.0625, 1.0
656, 0.12454212454212454, -0.833943833943834, -3.9194139194139193, 0.34375, 3.03125, 0.1875, 1.0
657, 1.894993894993895, -0.5775335775335775, -3.4615384615384617, 0.21875, 3.625, 0.125, 1.0
658, 2.0073260073260073, -1.7191697191697193, -3.675213675213675, 0.15625, 3.71875, -0.09375, 1.0
659, 0.833943833943834, -2.0085470085470085, -3.778998778998779, 0.0, 4.25, -0.375, 1.0
660, 0.34676434676434675, -1.4224664224664225, -3.578754578754579, 0.03125, 5.1875, -0.625, 1.0
661, 0.5702075702075702, -2.1184371184371185, -2.6825396825396823, 0.3125, 6.46875, -1.0, 1.0
662, 1.884004884004884, -1.474969474969475, -1.0647130647130647, 0.625, 7.5, -1.8125, 1.0
663, 1.5457875457875458, -0.5702075702075702, -0.31013431013431014, 1.21875, 7.9375, -2.8125, 1.0
664, 2.2344322344322345, -0.5592185592185592, -0.7606837606837606, 1.8125, 8.15625, -3.53125, 1.0
665, 3.4188034188034186, -0.08547008547008547, -0.9719169719169719, 2.0, 7.8125, -3.78125, 1.0
666, 3.3943833943833943, 1.9291819291819292, -0.6324786324786325, 2.125, 6.8125, -4.0625, 1.0
667, 3.4395604395604398, 4.125763125763126, 0.13553113553113552, 2.5625, 6.09375, -4.0625, 1.0
668, 3.203907203907204, 2.514041514041514, 0.017094017094017096, 3.0, 5.5625, -4.0625, 1.0
669, 3.8473748473748475, -1.7423687423687424, -0.0757020757020757, 3.21875, 4.5625, -4.09375, 1.0
670, 2.8058608058608057, -5.087912087912088, -0.6031746031746031, 3.3125, 3.4375, -3.9375, 1.0
671, 1.1013431013431014, -6.500610500610501, -1.0268620268620268, 3.3125, 3.0, -3.78125, 1.0
672, 1.2075702075702075, -7.586080586080586, -1.0525030525030525, 3.4375, 2.53125, -3.625, 1.0
673, 0.9401709401709402, -8.096459096459096, -1.1367521367521367, 3.625, 1.78125, -3.40625, 1.0
674, -0.5641025641025641, -8.642246642246642, -1.7277167277167278, 3.5625, 1.46875, -3.21875, 1.0
675, -0.21855921855921856, -8.854700854700855, -1.4578754578754578, 3.59375, 1.15625, -3.0625, 1.0
676, -0.7106227106227107, -8.876678876678877, -1.6935286935286935, 3.5, 0.71875, -2.875, 1.0
677, -1.376068376068376, -8.684981684981684, -2.1587301587301586, 3.25, 0.3125, -2.53125, 1.0
678, -3.1245421245421245, -7.781440781440781, -3.3089133089133087, 3.125, -0.53125, -2.1875, 1.0
679, -4.3870573870573875, -7.827838827838828, -3.617826617826618, 2.75, -1.03125, -1.75, 1.0
680, -5.020757020757021, -7.123321123321123, -3.8205128205128207, 2.375, -0.9375, -1.53125, 1.0
681, -4.791208791208791, -6.3638583638583635, -3.21978021978022, 2.09375, -0.65625, -1.21875, 1.0
682, -4.8498168498168495, -5.854700854700854, -3.1953601953601956, 2.0, -0.375, -1.0, 1.0
683, -3.5604395604395602, -5.881562881562882, -2.816849816849817, 1.875, -0.1875, -0.625, 1.0
684, -2.426129426129426, -5.2625152625152625, -1.6935286935286935, 1.53125, -0.46875, -0.40625, 1.0
685, -2.294261294261294, -4.747252747252747, -0.6862026862026862, 1.34375, -0.65625, -0.1875, 1.0
686, -2.4884004884004884, -4.302808302808303, -1.032967032967033, 1.3125, -0.3125, -0.15625, 1.0
687, -2.1587301587301586, -6.407814407814408, -6.6007326007326, 0.875, 0.25, -0.21875, 1.0
688, 0.8937728937728938, -4.2625152625152625, -2.8705738705738706, -0.09375, 0.46875, -0.1875, 1.0
689, -0.6239316239316239, -3.456654456654457, -1.277167277167277, 0.21875, -0.0625, 0.0, 1.0
690, -0.9023199023199023, -2.7326007326007327, 0.7826617826617827, 0.28125, 0.09375, 0.0625, 1.0
691, -0.2271062271062271, -2.5714285714285716, 1.291819291819292, 0.34375, 0.34375, 0.0625, 1.0
692, 0.6336996336996337, -3.1404151404151404, -0.27472527472527475, 0.1875, 0.4375, -0.03125, 1.0
693, 1.0561660561660562, -3.2637362637362637, -1.242979242979243, 0.09375, 0.15625, -0.03125, 1.0
694, 0.7435897435897436, -3.098901098901099, -0.8241758241758241, 0.09375, 0.0, 0.0, 1.0
695, 0.5274725274725275, -3.2002442002442004, -0.18681318681318682, 0.03125, -0.0625, 0.0625, 1.0
696, 0.25396825396825395, -3.3443223443223444, -0.09401709401709402, -0.09375, -0.09375, 0.09375, 1.0
697, 0.06471306471306472, -3.7045177045177047, -0.45054945054945056, -0.34375, -0.15625, 0.1875, 1.0
698, -0.28205128205128205, -4.007326007326007, -0.757020757020757, -0.59375, -0.21875, 0.3125, 1.0
699, -0.9377289377289377, -3.94993894993895, -1.1416361416361416, -0.75, -0.21875, 0.4375, 1.0
700, -1.5714285714285714, -4.297924297924298, -1.5848595848595848, -0.625, -0.375, 0.625, 1.0
701, -5.028083028083028, -5.3760683760683765, -3.2466422466422467, -1.03125, -1.21875, 1.15625, 0.0
702, -6.103785103785103, -5.6300366300366305, -4.108669108669108, -1.46875, -1.03125, 1.53125, 0.0
703, -4.471306471306471, -6.224664224664225, -3.330891330891331, -1.8125, -0.9375, 1.8125, 0.0
704, -3.9206349206349205, -7.052503052503052, -2.404151404151404, -2.0625, -1.5625, 2.1875, 0.0
705, -3.167277167277167, -6.9523809523809526, -0.9755799755799756, -2.375, -2.5625, 2.5625, 0.0
706, -2.954822954822955, -6.95970695970696, 0.5531135531135531, -2.625, -3.78125, 3.0, 0.0
707, -2.5763125763125765, -6.638583638583639, 1.9731379731379732, -2.84375, -4.90625, 3.46875, 0.0
708, -2.4395604395604398, -6.3638583638583635, 2.148962148962149, -2.90625, -5.34375, 3.875, 0.0
709, -0.7887667887667887, -6.017094017094017, 2.0317460317460316, -2.8125, -5.03125, 3.90625, 0.0
710, 1.0317460317460319, -5.172161172161172, 2.3882783882783882, -2.625, -4.875, 3.71875, 0.0
711, 0.9084249084249084, -4.175824175824176, 2.614163614163614, -2.28125, -5.3125, 3.25, 0.0
712, 0.6275946275946276, -3.065934065934066, 2.797313797313797, -1.53125, -6.0625, 2.5625, 0.0
713, 0.1916971916971917, -2.645909645909646, 2.371184371184371, -0.9375, -6.03125, 2.28125, 0.0
714, 0.6166056166056166, -2.2735042735042734, 1.7496947496947497, -0.3125, -5.6875, 2.1875, 0.0
715, -0.4700854700854701, -1.9902319902319903, 1.9401709401709402, 0.125, -5.34375, 1.8125, 0.0
716, -0.8534798534798534, -1.4981684981684982, 1.3687423687423688, 0.59375, -4.6875, 1.625, 0.0
717, -1.0512820512820513, -1.42002442002442, -0.21733821733821734, 1.3125, -3.5625, 1.84375, 0.0
718, -0.028083028083028084, -1.7496947496947497, -1.4542124542124542, 1.75, -2.65625, 2.0, 0.0
719, 1.575091575091575, -1.9694749694749696, -1.5384615384615385, 1.90625, -2.5, 2.03125, 0.0
720, 1.0317460317460319, -2.272283272283272, -0.9829059829059829, 1.71875, -2.75, 1.75, 0.0
721, -0.02564102564102564, -0.5433455433455433, -0.7521367521367521, 1.78125, -2.53125, 1.84375, 0.0
722, -0.39194139194139194, -1.435897435897436, -2.2844932844932844, 2.0625, -1.6875, 1.96875, 0.0
723, 1.9047619047619047, -1.993894993894994, -3.6385836385836385, 2.1875, -1.28125, 1.84375, 0.0
724, 2.2918192918192917, -2.277167277167277, -3.133089133089133, 1.34375, -2.1875, 1.3125, 0.0
725, -0.29914529914529914, -0.7252747252747253, -2.5286935286935286, 1.0, -2.3125, 1.15625, 0.0
726, -0.9072039072039072, -0.10256410256410256, -2.2185592185592187, 1.21875, -1.59375, 1.25, 0.0
727, 0.4981684981684982, -0.6349206349206349, -2.192918192918193, 1.5, -1.1875, 1.53125, 0.0
728, 1.2442002442002442, -1.0512820512820513, -2.5054945054945055, 1.4375, -1.3125, 1.5, 0.0
729, 1.0402930402930404, -0.6910866910866911, -2.978021978021978, 1.21875, -1.46875, 1.3125, 0.0
730, 0.42002442002442003, -0.23809523809523808, -3.3382173382173383, 1.0625, -1.40625, 1.40625, 0.0
731, 0.4456654456654457, 0.028083028083028084, -3.5323565323565322, 1.15625, -0.875, 1.46875, 0.0
732, 1.6556776556776556, -0.3626373626373626, -3.600732600732601, 1.34375, -0.28125, 1.46875, 0.0
733, 2.617826617826618, -0.9145299145299145, -3.94993894993895, 1.25, -0.09375, 1.375, 0.0
734, 3.221001221001221, -0.8742368742368742, -3.7777777777777777, 0.84375, -0.28125, 1.1875, 0.0
735, 2.498168498168498, -0.3308913308913309, -3.4224664224664223, 0.34375, -0.5625, 0.96875, 0.0
736, 1.7765567765567765, 0.336996336996337, -2.656898656898657, 0.0625, -0.40625, 0.8125, 0.0
737, 1.42002442002442, 0.7472527472527473, -1.7094017094017093, 0.09375, -0.21875, 0.59375, 0.0
738, 1.4053724053724053, 1.0268620268620268, -0.9365079365079365, 0.1875, -0.1875, 0.5, 0.0
739, 1.376068376068376, 1.2063492063492063, -0.5934065934065934, 0.28125, -0.375, 0.53125, 0.0
740, 1.0879120879120878, 1.4664224664224663, -0.3711843711843712, 0.5, -0.4375, 0.59375, 0.0
741, 1.0732600732600732, 1.249084249084249, -0.46153846153846156, 0.8125, -0.40625, 0.59375, 0.0
742, 1.5677655677655677, 0.5982905982905983, -0.5421245421245421, 0.96875, -0.40625, 0.53125, 0.0
743, 1.684981684981685, -0.6227106227106227, -1.448107448107448, 0.8125, -0.40625, 0.25, 0.0
744, 1.4346764346764347, -0.9706959706959707, -2.1709401709401708, 0.40625, -0.25, -0.0625, 0.0
745, 0.7057387057387058, -0.6141636141636142, -2.586080586080586, 0.125, 0.0, -0.21875, 0.0
746, 0.7936507936507936, -0.3956043956043956, -2.199023199023199, 0.03125, 0.15625, -0.28125, 0.0
747, 0.9401709401709402, -0.2783882783882784, -2.051282051282051, 0.34375, 0.40625, -0.59375, 0.0
748, 0.47863247863247865, -1.1355311355311355, -3.4761904761904763, 0.46875, 0.78125, -0.75, 1.0
749, -3.0097680097680097, -1.1343101343101343, -4.122100122100122, 0.28125, 2.1875, -0.96875, 1.0
750, -2.1465201465201464, -0.9120879120879121, -4.431013431013431, 0.09375, 4.3125, -0.96875, 1.0
751, -0.07814407814407814, -2.3028083028083026, -4.231990231990232, 0.0, 5.4375, -0.5, 1.0
752, 1.5018315018315018, -3.2405372405372406, -3.600732600732601, -0.125, 5.71875, -0.6875, 1.0
753, 1.1794871794871795, -3.3772893772893773, -3.3321123321123323, -0.3125, 5.875, -1.125, 1.0
754, -0.199023199023199, -2.2612942612942613, -2.445665445665446, -0.125, 6.8125, -1.65625, 1.0
755, 1.1416361416361416, -1.1196581196581197, -0.6361416361416361, 0.46875, 8.03125, -2.3125, 1.0
756, 3.214896214896215, -0.5115995115995116, 0.2954822954822955, 1.40625, 8.4375, -3.5625, 1.0
757, 3.673992673992674, -1.0818070818070817, -0.6776556776556777, 2.09375, 8.15625, -4.65625, 1.0
758, 2.695970695970696, -0.11355311355311355, -1.1428571428571428, 2.25, 7.6875, -5.0625, 1.0
759, 2.3272283272283274, 2.5885225885225887, -1.0586080586080586, 2.3125, 6.78125, -5.0625, 1.0
760, 2.557997557997558, 4.035409035409035, -0.8400488400488401, 2.5625, 5.75, -4.84375, 1.0
761, 2.4285714285714284, 1.0976800976800978, -1.0769230769230769, 2.75, 4.71875, -4.6875, 1.0
762, 2.462759462759463, -3.6837606837606836, -0.9865689865689866, 2.78125, 3.71875, -4.53125, 1.0
763, 1.757020757020757, -6.746031746031746, -0.9047619047619048, 2.9375, 2.90625, -4.34375, 1.0
764, 0.7032967032967034, -8.371184371184372, -0.9511599511599511, 3.0625, 2.375, -4.21875, 1.0
765, -0.6483516483516484, -8.663003663003662, -1.0354090354090355, 3.34375, 2.21875, -3.9375, 1.0
766, -0.38583638583638585, -8.855921855921856, -1.0134310134310134, 3.40625, 2.0, -3.625, 1.0
767, 0.1514041514041514, -9.018315018315018, -0.5531135531135531, 3.375, 1.34375, -3.375, 1.0
768, -1.1245421245421245, -8.904761904761905, -0.8229548229548229, 3.4375, 0.53125, -3.0625, 1.0
769, -3.451770451770452, -8.842490842490843, -1.702075702075702, 3.40625, 0.34375, -2.6875, 1.0
770, -3.9206349206349205, -8.343101343101344, -2.0354090354090353, 3.28125, 0.375, -2.15625, 1.0
771, -4.271062271062271, -7.886446886446887, -3.5775335775335777, 3.09375, 0.0625, -1.71875, 1.0
772, -4.717948717948718, -6.774114774114774, -3.9194139194139193, 2.65625, -0.09375, -1.5, 1.0
773, -5.031746031746032, -6.512820512820513, -4.354090354090354, 2.375, -0.28125, -1.09375, 1.0
774, -3.965811965811966, -6.351648351648351, -3.934065934065934, 1.9375, -0.21875, -0.75, 1.0
775, -2.807081807081807, -5.628815628815629, -3.4676434676434678, 1.625, -0.125, -0.59375, 1.0
776, -2.5714285714285716, -5.382173382173383, -3.0427350427350426, 1.4375, -0.15625, -0.375, 1.0
777, -1.531135531135531, -4.781440781440781, -1.619047619047619, 1.0625, -0.1875, -0.1875, 1.0
778, 0.05982905982905983, -4.218559218559219, -0.7313797313797313, 0.875, -0.34375, -0.125, 1.0
779, -0.19047619047619047, -3.6935286935286937, -0.47741147741147744, 0.75, -0.75, 0.0, 1.0
780, -1.8388278388278387, -3.763125763125763, -2.225885225885226, 0.625, -0.8125, 0.0, 1.0
781, -1.144078144078144, -4.21978021978022, -2.8644688644688645, 0.3125, -0.125, -0.03125, 1.0
782, -0.16361416361416362, -3.305250305250305, -0.7643467643467643, 0.21875, 0.0, 0.0, 1.0
783, -0.32844932844932845, -3.311355311355311, -0.25396825396825395, 0.15625, -0.0625, 0.125, 1.0
784, -0.33943833943833945, -2.9536019536019538, -0.07448107448107448, 0.25, -0.0625, 0.1875, 1.0
785, -0.673992673992674, -3.012210012210012, -0.15018315018315018, 0.375, 0.25, 0.125, 1.0
786, 0.35653235653235654, -3.6312576312576312, -0.6776556776556777, 0.28125, 0.3125, 0.0625, 1.0
787, 0.575091575091575, -3.3064713064713063, -0.4700854700854701, 0.09375, 0.09375, 0.09375, 1.0
788, 0.5970695970695971, -3.473748473748474, -0.4945054945054945, 0.0, 0.0, 0.125, 1.0
789, 0.002442002442002442, -3.468864468864469, -0.17582417582417584, -0.125, 0.0, 0.125, 1.0
790, -0.27594627594627597, -3.6117216117216118, -0.21367521367521367, -0.25, 0.0, 0.15625, 1.0
791, -0.15384615384615385, -4.04029304029304, -0.6691086691086691, -0.46875, -0.125, 0.25, 1.0
792, 0.06105006105006105, -4.358974358974359, -1.0256410256410255, -0.6875, -0.34375, 0.375, 1.0
793, -0.9792429792429792, -4.31990231990232, -1.5738705738705738, -0.84375, -0.28125, 0.4375, 0.0
794, -3.9633699633699635, -5.312576312576312, -2.912087912087912, -0.96875, -0.53125, 0.84375, 0.0
795, -5.52991452991453, -5.507936507936508, -3.4932844932844933, -1.25, -0.46875, 1.1875, 0.0
796, -5.31013431013431, -5.936507936507937, -3.398046398046398, -1.4375, -0.375, 1.375, 0.0
797, -4.8901098901098905, -7.180708180708181, -2.9694749694749696, -1.75, -0.6875, 1.6875, 0.0
798, -3.791208791208791, -7.571428571428571, -1.8815628815628815, -2.15625, -1.25, 2.15625, 0.0
799, -3.275946275946276, -7.667887667887668, -0.44932844932844934, -2.5, -2.125, 2.65625, 0.0
800, -2.727716727716728, -7.365079365079365, 1.3028083028083028, -2.75, -3.0625, 3.125, 0.0
801, -2.294261294261294, -6.90964590964591, 2.6312576312576312, -2.75, -4.03125, 3.53125, 0.0
802, -2.1001221001221, -6.478632478632479, 3.2918192918192917, -2.40625, -4.75, 3.65625, 0.0
803, -2.155067155067155, -5.797313797313797, 3.221001221001221, -2.0, -4.96875, 3.84375, 0.0
804, -1.894993894993895, -5.191697191697192, 2.7826617826617825, -1.78125, -4.65625, 4.03125, 0.0
805, 0.09645909645909646, -5.128205128205129, 2.2466422466422467, -1.875, -3.84375, 4.0625, 0.0
806, 1.2905982905982907, -4.067155067155067, 2.2185592185592187, -1.625, -3.8125, 3.59375, 0.0
807, 2.3076923076923075, -2.6715506715506714, 2.7826617826617825, -0.96875, -4.46875, 3.1875, 0.0
808, 0.45665445665445664, -2.0549450549450547, 2.0525030525030523, -0.25, -4.5, 2.84375, 0.0
809, 0.2796092796092796, -2.456654456654457, 0.8876678876678876, 0.09375, -3.84375, 2.8125, 0.0
810, 1.2905982905982907, -2.9035409035409034, -0.1343101343101343, 0.28125, -3.28125, 2.65625, 0.0
811, 1.6984126984126984, -2.6556776556776556, -0.3162393162393162, 0.375, -3.0, 2.28125, 0.0
812, 2.398046398046398, -2.404151404151404, -0.3894993894993895, 0.46875, -3.0625, 1.96875, 0.0
813, 2.5921855921855923, -1.962148962148962, -0.017094017094017096, 0.59375, -3.40625, 1.84375, 0.0
814, 2.086691086691087, -1.9474969474969475, -1.072039072039072, 0.71875, -3.1875, 1.96875, 0.0
815, 2.380952380952381, -1.8412698412698412, -2.976800976800977, 1.03125, -2.25, 2.0, 0.0
816, 5.336996336996337, -2.1477411477411477, -3.1868131868131866, 0.75, -2.4375, 1.84375, 0.0
817, 1.3882783882783882, -1.6605616605616607, -2.1367521367521367, 0.25, -3.78125, 1.25, 0.0
818, -1.3308913308913308, 0.7277167277167277, -1.9682539682539681, 0.3125, -3.34375, 1.15625, 0.0
819, -1.3052503052503053, 0.4078144078144078, -1.7252747252747254, 0.65625, -2.375, 1.40625, 0.0
820, -0.47741147741147744, 0.15995115995115994, -1.5433455433455434, 0.9375, -1.6875, 1.40625, 0.0
821, 0.7692307692307693, -0.44078144078144077, -1.6349206349206349, 1.03125, -1.53125, 1.3125, 0.0
822, 0.989010989010989, -0.5982905982905983, -1.6373626373626373, 0.84375, -1.90625, 1.3125, 0.0
823, -0.02197802197802198, -0.1343101343101343, -1.78998778998779, 0.71875, -1.96875, 1.375, 0.0
824, -0.12332112332112333, 0.13064713064713065, -1.8986568986568986, 0.96875, -1.28125, 1.375, 0.0
825, 0.7045177045177046, -0.24786324786324787, -2.045177045177045, 1.34375, -0.5, 1.4375, 0.0
826, 2.1404151404151404, -1.343101343101343, -2.416361416361416, 1.40625, -0.3125, 1.375, 0.0
827, 2.4481074481074483, -1.0793650793650793, -2.330891330891331, 1.03125, -0.75, 1.25, 0.0
828, 1.1452991452991452, -0.30036630036630035, -2.065934065934066, 0.78125, -0.90625, 1.09375, 0.0
829, 0.7130647130647131, 0.39438339438339437, -1.7875457875457876, 0.9375, -0.1875, 1.0625, 0.0
830, 1.6703296703296704, 0.10500610500610501, -1.7326007326007327, 1.0625, 0.03125, 1.03125, 0.0
831, 2.8363858363858365, -0.3308913308913309, -1.7667887667887667, 0.96875, -0.21875, 0.75, 0.0
832, 3.1807081807081805, -0.5372405372405372, -2.1538461538461537, 0.65625, -0.5625, 0.5, 0.0
833, 2.335775335775336, 0.03785103785103785, -2.3785103785103785, 0.4375, -0.5, 0.3125, 0.0
834, 1.728937728937729, -0.14652014652014653, -2.1245421245421245, 0.15625, -0.34375, 0.21875, 0.0
835, 0.7155067155067155, 0.27106227106227104, -1.1904761904761905, 0.0, -0.15625, 0.28125, 0.0
836, 0.463980463980464, 0.6410256410256411, -0.6410256410256411, 0.125, 0.125, 0.40625, 0.0
837, 1.1037851037851039, 0.4065934065934066, -0.702075702075702, 0.34375, 0.375, 0.40625, 0.0
838, 1.6947496947496947, -0.0695970695970696, -1.3333333333333333, 0.46875, 0.46875, 0.15625, 0.0
839, 1.6349206349206349, -0.6239316239316239, -2.2686202686202686, 0.46875, 0.8125, -0.25, 0.0
840, 0.2515262515262515, 0.27228327228327226, -3.230769230769231, 0.90625, 2.4375, -0.25, 1.0
841, -0.4908424908424908, -1.619047619047619, -4.853479853479853, 1.1875, 4.40625, 0.15625, 1.0
842, 3.0537240537240535, -3.9145299145299144, -5.65934065934066, 0.75, 5.8125, -0.25, 1.0
843, 3.95970695970696, -3.6776556776556775, -4.531135531135531, 0.09375, 6.1875, -0.96875, 1.0
844, 2.833943833943834, -1.8217338217338217, -2.8034188034188032, -0.0625, 6.5625, -1.8125, 1.0
845, 2.404151404151404, -1.993894993894994, -1.3101343101343101, 0.59375, 7.65625, -2.8125, 1.0
846, 3.5616605616605614, -2.63003663003663, -0.7496947496947497, 1.21875, 8.5625, -3.625, 1.0
847, 4.611721611721611, -1.8095238095238095, -0.9181929181929182, 1.375, 8.53125, -4.1875, 1.0
848, 4.7826617826617825, -0.03540903540903541, -0.8778998778998779, 1.375, 7.40625, -4.375, 1.0
849, 4.527472527472527, 1.2136752136752136, -0.6410256410256411, 1.53125, 6.125, -4.40625, 1.0
850, 3.0, 2.4896214896214897, -0.5262515262515263, 1.9375, 5.25, -4.5625, 1.0
851, 1.3064713064713065, 2.686202686202686, -1.0097680097680097, 2.375, 5.15625, -4.6875, 1.0
852, 2.144078144078144, -0.8717948717948718, -0.9926739926739927, 2.6875, 5.03125, -4.5, 1.0
853, 2.6373626373626373, -4.238095238095238, -0.39438339438339437, 2.90625, 3.96875, -4.28125, 1.0
854, 2.5555555555555554, -7.565323565323565, -0.03540903540903541, 3.125, 3.09375, -4.0625, 1.0
855, 0.6581196581196581, -8.262515262515263, -0.6202686202686203, 3.40625, 3.0625, -4.0625, 1.0
856, 0.7557997557997558, -8.65079365079365, -0.8376068376068376, 3.71875, 2.71875, -3.84375, 1.0
857, 0.9792429792429792, -9.715506715506715, -1.1147741147741148, 3.78125, 1.875, -3.53125, 1.0
858, -0.4456654456654457, -9.443223443223443, -0.9877899877899878, 3.78125, 1.46875, -3.3125, 1.0
859, -1.8608058608058609, -9.067155067155067, -1.6837606837606838, 4.0, 1.75, -3.15625, 1.0
860, -1.8681318681318682, -8.695970695970695, -2.8107448107448105, 3.9375, 1.46875, -2.78125, 1.0
861, -1.7887667887667889, -9.1001221001221, -3.3907203907203907, 3.34375, 0.71875, -2.3125, 1.0
862, -2.769230769230769, -8.013431013431013, -3.5775335775335777, 3.09375, 0.0625, -2.03125, 1.0
863, -3.9267399267399266, -7.667887667887668, -3.7032967032967035, 2.9375, 0.1875, -1.5625, 1.0
864, -3.2356532356532357, -6.962148962148962, -4.052503052503052, 2.4375, 0.21875, -1.21875, 1.0
865, -2.675213675213675, -6.1953601953601956, -3.178266178266178, 1.90625, -0.125, -0.90625, 1.0
866, -2.9267399267399266, -5.572649572649572, -2.2857142857142856, 1.625, -0.6875, -0.59375, 1.0
867, -3.6117216117216118, -5.478632478632479, -2.1758241758241756, 1.5625, -0.875, -0.3125, 1.0
868, -2.421245421245421, -4.9352869352869355, -1.910866910866911, 1.375, -0.59375, -0.0625, 1.0
869, -1.465201465201465, -4.621489621489621, -1.3003663003663004, 1.03125, -0.46875, 0.03125, 1.0
870, -1.1367521367521367, -3.938949938949939, -0.3321123321123321, 0.78125, -0.4375, 0.03125, 1.0
871, -0.43833943833943834, -3.5714285714285716, -0.1221001221001221, 0.8125, -0.4375, 0.0625, 1.0
872, -0.16483516483516483, -3.156288156288156, -0.6202686202686203, 0.75, -0.4375, 0.0, 1.0
873, -0.7692307692307693, -2.9584859584859586, -0.811965811965812, 0.59375, -0.40625, 0.0, 1.0
874, -0.6092796092796092, -3.282051282051282, -2.015873015873016, 0.3125, -0.1875, 0.0, 1.0
875, 0.4517704517704518, -2.816849816849817, -0.557997557997558, 0.15625, 0.28125, -0.0625, 1.0
876, 0.6361416361416361, -2.2576312576312576, 0.6556776556776557, 0.34375, 0.0, 0.0, 1.0
877, -0.06715506715506715, -2.894993894993895, -0.5604395604395604, 0.28125, 0.0, 0.03125, 1.0
878, 0.06837606837606838, -3.0805860805860807, -0.7667887667887668, 0.1875, 0.03125, 0.0625, 1.0
879, 0.14285714285714285, -2.923076923076923, -0.13064713064713065, 0.1875, -0.03125, 0.125, 1.0
880, 0.1514041514041514, -2.971916971916972, 0.009768009768009768, 0.1875, -0.09375, 0.15625, 1.0
881, 0.5848595848595849, -3.4713064713064714, -0.22832722832722832, 0.0, -0.21875, 0.1875, 1.0
882, 0.6813186813186813, -3.686202686202686, -0.5885225885225885, -0.21875, -0.34375, 0.21875, 1.0
883, 0.11965811965811966, -4.2686202686202686, -1.1916971916971917, -0.59375, -0.4375, 0.34375, 0.0
884, -1.3443223443223444, -4.402930402930403, -1.768009768009768, -1.0625, -0.3125, 0.46875, 0.0
885, -3.183150183150183, -4.437118437118437, -2.178266178266178, -1.28125, -0.21875, 0.65625, 0.0
886, -4.371184371184371, -4.163614163614164, -2.84004884004884, -1.3125, -0.34375, 0.90625, 0.0
887, -4.871794871794871, -6.201465201465202, -3.0793650793650795, -1.96875, -0.9375, 1.40625, 0.0
888, -4.843711843711843, -6.13919413919414, -1.4334554334554335, -2.34375, -1.25, 1.8125, 0.0
889, -4.037851037851038, -6.212454212454213, 0.6800976800976801, -2.28125, -1.78125, 2.15625, 0.0
890, -3.971916971916972, -6.575091575091575, 1.3785103785103785, -2.125, -2.4375, 2.5625, 0.0
891, -3.490842490842491, -6.9633699633699635, 1.9023199023199022, -1.96875, -3.03125, 2.96875, 0.0
892, -3.0964590964590966, -7.207570207570208, 2.2234432234432235, -2.0625, -3.375, 3.34375, 0.0
893, -1.4761904761904763, -7.672771672771673, 2.4713064713064714, -2.15625, -3.59375, 3.59375, 0.0
894, 0.22954822954822954, -7.384615384615385, 3.1257631257631258, -2.125, -4.3125, 3.71875, 0.0
895, 1.52014652014652, -6.140415140415141, 3.9743589743589745, -1.78125, -5.65625, 3.6875, 0.0
896, 0.4652014652014652, -4.261294261294261, 4.09035409035409, -1.1875, -7.0, 3.65625, 0.0
897, -0.3076923076923077, -3.1135531135531136, 2.6544566544566544, -0.59375, -7.09375, 3.625, 0.0
898, 0.8803418803418803, -3.087912087912088, 0.9340659340659341, 0.0625, -5.96875, 3.25, 0.0
899, 1.3882783882783882, -2.713064713064713, 0.41025641025641024, 0.375, -5.09375, 2.65625, 0.0
900, 0.8644688644688645, -2.2405372405372406, 0.3162393162393162, 0.5, -5.0, 2.25, 0.0
901, 0.9853479853479854, -1.9877899877899878, -0.0989010989010989, 0.6875, -4.875, 2.28125, 0.0
902, -0.8192918192918193, -1.9377289377289377, -0.6800976800976801, 0.875, -4.0625, 2.0, 0.0
903, -1.4468864468864469, -1.9536019536019535, -0.9218559218559218, 0.9375, -2.96875, 1.84375, 0.0
904, -1.4554334554334554, -1.7985347985347986, -0.5421245421245421, 0.90625, -2.0625, 1.90625, 0.0
905, 0.6019536019536019, -1.5616605616605617, -1.746031746031746, 1.15625, -1.28125, 2.21875, 0.0
906, 3.0, -1.8058608058608059, -2.8363858363858365, 1.4375, -1.09375, 2.40625, 0.0
907, 4.031746031746032, -1.938949938949939, -2.440781440781441, 1.25, -1.6875, 2.46875, 0.0
908, 3.1404151404151404, -1.4090354090354091, -1.4578754578754578, 1.0, -2.28125, 2.1875, 0.0
909, 1.0158730158730158, -1.0769230769230769, -0.9108669108669109, 0.90625, -2.3125, 1.75, 0.0
910, -0.5225885225885226, -0.5702075702075702, -0.7545787545787546, 1.03125, -1.90625, 1.8125, 0.0
911, -0.612942612942613, -0.9096459096459096, -0.9438339438339438, 1.0, -1.84375, 2.15625, 0.0
912, -0.02197802197802198, -0.6947496947496947, -1.2893772893772895, 1.09375, -1.375, 2.21875, 0.0
913, 0.8351648351648352, -1.3992673992673992, -1.945054945054945, 1.3125, -1.0, 2.125, 0.0
914, 1.1404151404151404, -2.0036630036630036, -2.8241758241758244, 1.21875, -1.0, 1.9375, 0.0
915, 0.9597069597069597, -1.6105006105006106, -3.0903540903540905, 1.03125, -1.125, 1.6875, 0.0
916, 0.8473748473748474, -0.8888888888888888, -3.0073260073260073, 0.84375, -1.21875, 1.65625, 0.0
917, 0.6715506715506715, -0.8192918192918193, -3.1587301587301586, 0.84375, -1.03125, 1.71875, 0.0
918, 0.8461538461538461, -0.5445665445665445, -3.0354090354090353, 0.90625, -0.6875, 1.78125, 0.0
919, 1.5970695970695972, -0.6715506715506715, -3.075702075702076, 1.03125, -0.21875, 1.71875, 0.0
920, 2.4835164835164836, -0.8644688644688645, -2.7094017094017095, 1.03125, -0.15625, 1.53125, 0.0
921, 2.52014652014652, -0.800976800976801, -2.4615384615384617, 0.75, -0.375, 1.3125, 0.0
922, 1.9084249084249085, -0.06471306471306472, -2.0207570207570207, 0.40625, -0.71875, 0.96875, 0.0
923, 0.5433455433455433, 0.3162393162393162, -1.4114774114774116, 0.375, -0.53125, 0.8125, 0.0
924, 0.4700854700854701, 0.7045177045177046, -0.8791208791208791, 0.4375, -0.375, 0.90625, 0.0
925, 0.960927960927961, 0.7777777777777778, -0.7289377289377289, 0.5, -0.53125, 1.125, 0.0
926, 1.2588522588522588, 0.6190476190476191, -0.8632478632478633, 0.53125, -0.75, 1.21875, 0.0
927, 1.3137973137973138, 0.36507936507936506, -1.3186813186813187, 0.65625, -0.625, 1.09375, 0.0
928, 1.5091575091575091, -0.6263736263736264, -2.183150183150183, 0.5625, -0.28125, 0.6875, 0.0
929, 2.0378510378510377, -0.3833943833943834, -2.413919413919414, 0.46875, -0.0625, 0.3125, 0.0
930, 1.8046398046398047, -0.5286935286935287, -2.7985347985347984, 0.40625, 0.15625, 0.0, 0.0
931, 1.4505494505494505, -0.10378510378510379, -3.0476190476190474, 0.46875, 0.46875, -0.0625, 0.0
932, 0.23076923076923078, 0.1855921855921856, -3.4444444444444446, 0.71875, 1.28125, -0.09375, 1.0
933, -1.6776556776556777, -0.21733821733821734, -3.515262515262515, 0.96875, 3.96875, -0.3125, 1.0
934, 2.0, -1.706959706959707, -3.242979242979243, 0.96875, 5.1875, -0.65625, 1.0
935, 2.554334554334554, -2.398046398046398, -3.6666666666666665, 0.90625, 5.71875, -1.1875, 1.0
936, 3.658119658119658, -2.653235653235653, -2.984126984126984, 0.71875, 6.1875, -2.0, 1.0
937, 3.5946275946275947, -2.808302808302808, -2.15018315018315, 0.78125, 6.34375, -2.8125, 1.0
938, 3.3235653235653237, -3.0781440781440783, -1.9914529914529915, 0.9375, 6.46875, -3.625, 1.0
939, 3.3504273504273505, -3.3736263736263736, -2.2979242979242978, 1.0625, 6.5625, -4.25, 1.0
940, 2.5653235653235655, -2.178266178266178, -1.7118437118437118, 1.125, 6.5, -4.75, 1.0
941, 2.6507936507936507, -1.2588522588522588, -1.4505494505494505, 1.375, 6.25, -4.96875, 1.0
942, 2.166056166056166, -0.5628815628815629, -1.2747252747252746, 1.65625, 5.90625, -4.84375, 1.0
943, 2.0354090354090353, 0.608058608058608, -1.1343101343101343, 1.84375, 6.0625, -4.875, 1.0
944, 2.415140415140415, 2.636141636141636, -0.4822954822954823, 2.0625, 6.03125, -5.09375, 1.0
945, 2.3833943833943834, 1.9328449328449329, -0.5653235653235653, 2.5625, 4.75, -4.9375, 1.0
946, 1.894993894993895, -2.905982905982906, -0.7374847374847375, 2.65625, 3.5625, -4.625, 1.0
947, -0.07448107448107448, -6.589743589743589, -1.2002442002442002, 2.8125, 3.125, -4.4375, 1.0
948, -0.27594627594627597, -7.6068376068376065, -1.0134310134310134, 3.03125, 2.90625, -4.21875, 1.0
949, -0.5702075702075702, -8.361416361416362, -0.873015873015873, 3.25, 2.53125, -3.9375, 1.0
950, -0.3614163614163614, -9.18070818070818, -1.1245421245421245, 3.3125, 2.15625, -3.65625, 1.0
951, -0.8485958485958486, -9.26862026862027, -1.5982905982905984, 3.21875, 1.71875, -3.40625, 1.0
952, -1.6886446886446886, -8.72039072039072, -1.708180708180708, 3.15625, 1.5, -3.03125, 1.0
953, -2.1172161172161172, -7.831501831501831, -2.087912087912088, 3.28125, 1.09375, -2.71875, 1.0
954, -2.5702075702075704, -8.586080586080586, -2.663003663003663, 3.0625, 0.59375, -2.28125, 1.0
955, -2.913308913308913, -8.250305250305251, -2.6544566544566544, 2.59375, 0.28125, -2.03125, 1.0
956, -3.923076923076923, -7.224664224664225, -2.68986568986569, 2.46875, 0.1875, -1.5625, 1.0
957, -4.293040293040293, -6.716727716727717, -3.6202686202686203, 2.375, 0.5625, -1.28125, 1.0
958, -2.1135531135531136, -6.4603174603174605, -3.5042735042735043, 1.90625, 0.65625, -1.03125, 1.0
959, -2.012210012210012, -5.377289377289378, -2.5665445665445668, 1.46875, 0.25, -0.84375, 1.0
960, -1.9084249084249085, -4.903540903540904, -2.111111111111111, 1.34375, 0.0, -0.59375, 1.0
961, -1.5946275946275947, -4.7374847374847375, -1.652014652014652, 1.3125, -0.125, -0.375, 1.0
962, -1.6495726495726495, -4.650793650793651, -1.606837606837607, 1.25, -0.09375, -0.21875, 1.0
963, -0.5616605616605617, -4.5054945054945055, -1.4029304029304028, 1.0, -0.09375, -0.1875, 1.0
964, -0.7423687423687424, -3.9194139194139193, -0.7142857142857143, 0.71875, -0.34375, -0.125, 1.0
965, -1.2307692307692308, -3.105006105006105, 0.2771672771672772, 0.71875, -0.625, 0.03125, 1.0
966, -1.8107448107448108, -3.929181929181929, -1.485958485958486, 0.84375, -0.75, 0.21875, 1.0
967, -0.608058608058608, -4.532356532356532, -2.2893772893772892, 0.40625, -0.46875, 0.3125, 1.0
968, -0.5787545787545788, -4.17948717948718, -1.6935286935286935, 0.1875, 0.21875, 0.03125, 1.0
969, -0.6214896214896215, -3.4236874236874235, -0.38705738705738707, 0.15625, 0.40625, 0.03125, 1.0
970, 0.8742368742368742, -3.1404151404151404, 0.7887667887667887, 0.15625, 0.1875, 0.125, 1.0
971, 1.3504273504273505, -3.3846153846153846, -0.1916971916971917, 0.03125, 0.03125, 0.09375, 1.0
972, 1.0537240537240538, -3.3455433455433456, -0.6678876678876678, -0.09375, 0.0625, 0.0625, 1.0
973, 0.5787545787545788, -3.688644688644689, -1.0195360195360195, -0.28125, -0.09375, 0.15625, 1.0
974, -0.10622710622710622, -4.7484737484737485, -2.0537240537240535, -0.8125, -0.3125, 0.375, 0.0
975, -1.1575091575091576, -4.473748473748474, -2.507936507936508, -1.125, -0.75, 0.625, 0.0
976, -3.437118437118437, -4.924297924297925, -2.755799755799756, -1.25, -1.09375, 0.96875, 0.0
977, -5.102564102564102, -5.669108669108669, -3.6984126984126986, -1.375, -1.03125, 1.34375, 0.0
978, -5.012210012210012, -6.267399267399267, -3.9853479853479854, -1.90625, -1.03125, 1.65625, 0.0
979, -4.247863247863248, -6.931623931623932, -3.004884004884005, -2.34375, -1.75, 2.03125, 0.0
980, -2.998778998778999, -6.744810744810745, 1.1294261294261294, -2.65625, -4.15625, 3.0, 0.0
981, -3.242979242979243, -6.792429792429792, 2.105006105006105, -2.59375, -5.15625, 3.625, 0.0
982, -2.735042735042735, -7.1208791208791204, 2.1465201465201464, -2.53125, -5.25, 3.96875, 0.0
983, -1.5299145299145298, -7.211233211233211, 1.8754578754578755, -2.53125, -5.09375, 4.03125, 0.0
984, -1.0122100122100122, -6.034188034188034, 2.4334554334554332, -2.5625, -5.15625, 3.96875, 0.0
985, -0.5396825396825397, -4.166056166056166, 3.0537240537240535, -2.1875, -5.34375, 3.75, 0.0
986, -0.6385836385836385, -2.9474969474969477, 2.735042735042735, -1.28125, -5.34375, 3.5625, 0.0
987, -0.5641025641025641, -2.8290598290598292, 1.8388278388278387, -0.46875, -4.90625, 3.1875, 0.0
988, -0.24297924297924298, -2.452991452991453, 0.8681318681318682, 0.0, -4.09375, 2.71875, 0.0
989, 0.7924297924297924, -2.4493284493284495, -0.17094017094017094, 0.09375, -3.1875, 2.71875, 0.0
990, 2.866910866910867, -2.358974358974359, 0.2087912087912088, 0.0, -3.03125, 2.625, 0.0
991, 2.948717948717949, -1.684981684981685, 0.6373626373626373, -0.03125, -3.90625, 2.15625, 0.0
992, 1.4517704517704517, -1.2197802197802199, 0.09645909645909646, 0.3125, -4.78125, 1.59375, 0.0
993, -0.833943833943834, -0.4945054945054945, -1.2515262515262515, 0.84375, -3.8125, 1.5625, 0.0
994, 0.008547008547008548, -0.7350427350427351, -1.8278388278388278, 1.0625, -2.84375, 1.875, 0.0
995, 0.6971916971916972, -1.5824175824175823, -1.507936507936508, 0.71875, -2.53125, 1.875, 0.0
996, 0.6727716727716728, -1.170940170940171, -0.800976800976801, 0.46875, -2.59375, 1.59375, 0.0
997, -0.5848595848595849, -0.1916971916971917, -0.9096459096459096, 0.78125, -2.21875, 1.46875, 0.0
998, 0.026862026862026864, 0.04395604395604396, -1.7875457875457876, 1.375, -1.59375, 1.59375, 0.0
999, 1.3186813186813187, -0.8681318681318682, -2.473748473748474, 1.46875, -1.375, 1.8125, 0.0
1000, 2.935286935286935, -2.2283272283272284, -2.47985347985348, 1.0, -1.65625, 1.625, 0.0
1001, 2.440781440781441, -2.1941391941391943, -2.663003663003663, 0.46875, -1.90625, 1.3125, 0.0
1002, 0.6581196581196581, -0.9694749694749695, -2.5616605616605614, 0.25, -1.71875, 1.25, 0.0
1003, -0.2967032967032967, 0.25274725274725274, -1.8962148962148961, 0.78125, -0.78125, 1.40625, 0.0
1004, 2.1452991452991452, -0.7716727716727717, -1.7924297924297925, 0.875, -0.78125, 1.5, 0.0
1005, 2.2454212454212454, -0.8473748473748474, -1.800976800976801, 0.71875, -1.28125, 1.375, 0.0
1006, 1.3418803418803418, -0.6105006105006106, -2.0366300366300365, 0.625, -1.5, 1.15625, 0.0
1007, 0.6544566544566545, -0.4481074481074481, -2.1575091575091574, 0.65625, -1.28125, 1.03125, 0.0
1008, 0.525030525030525, -0.5946275946275946, -2.177045177045177, 0.71875, -0.84375, 1.0, 0.0
1009, 1.0757020757020757, -0.5006105006105006, -2.1807081807081805, 0.65625, -0.4375, 1.03125, 0.0
1010, 1.0744810744810744, -0.42124542124542125, -2.0976800976800978, 0.5, -0.40625, 0.9375, 0.0
1011, 0.34798534798534797, -0.34065934065934067, -1.5653235653235653, 0.21875, -0.46875, 0.71875, 0.0
1012, 0.4456654456654457, 0.115995115995116, -0.652014652014652, -0.03125, -0.4375, 0.71875, 0.0
1013, 0.7216117216117216, 0.6825396825396826, -0.20146520146520147, -0.03125, -0.53125, 0.78125, 0.0
1014, 1.0024420024420024, 0.8070818070818071, -0.20146520146520147, 0.21875, -0.59375, 0.6875, 0.0
1015, 0.6385836385836385, 0.46153846153846156, -0.568986568986569, 0.5, -0.53125, 0.59375, 0.0
1016, 0.1807081807081807, -0.1916971916971917, -1.5665445665445665, 0.46875, -0.0625, 0.4375, 0.0
1017, 0.03540903540903541, 0.6202686202686203, -1.956043956043956, 0.65625, 0.53125, 0.40625, 0.0
1018, -0.8901098901098901, 1.7887667887667889, -2.3882783882783882, 1.40625, 1.4375, 0.5, 0.0
1019, -1.0952380952380953, 0.4590964590964591, -3.1807081807081805, 1.8125, 2.84375, 0.5, 0.0
1020, 0.37362637362637363, -1.2808302808302807, -4.334554334554334, 1.5, 3.9375, 0.46875, 1.0
1021, 1.0231990231990231, -1.242979242979243, -3.822954822954823, 1.03125, 4.53125, 0.40625, 1.0
1022, 2.1355311355311355, -0.746031746031746, -2.9279609279609278, 0.96875, 5.15625, 0.125, 1.0
1023, 2.5177045177045176, -1.1660561660561661, -2.0781440781440783, 1.03125, 5.9375, -0.375, 1.0
1024, 3.236874236874237, -0.503052503052503, -0.7203907203907204, 1.5, 7.0625, -1.65625, 1.0
1025, 4.2002442002442, -0.6678876678876678, -0.7875457875457875, 2.125, 7.875, -2.90625, 1.0
1026, 5.998778998778999, -2.139194139194139, -1.6898656898656899, 2.03125, 7.71875, -3.96875, 1.0
1027, 5.844932844932845, -1.4847374847374848, 0.38705738705738707, 1.78125, 6.46875, -4.25, 1.0
1028, 5.056166056166056, 0.21611721611721613, 1.575091575091575, 2.03125, 5.9375, -4.375, 1.0
1029, 5.761904761904762, 1.4126984126984128, 2.1965811965811968, 2.59375, 5.34375, -4.46875, 1.0
1030, 6.205128205128205, 1.4163614163614164, 1.855921855921856, 3.0625, 4.375, -4.59375, 1.0
1031, 4.743589743589744, 1.0366300366300367, 1.398046398046398, 3.125, 3.46875, -4.71875, 1.0
1032, 2.391941391941392, -0.040293040293040296, 0.9548229548229549, 3.09375, 3.1875, -4.875, 1.0
1033, 1.4236874236874237, -4.261294261294261, 0.4468864468864469, 3.375, 3.03125, -4.6875, 1.0
1034, 1.5238095238095237, -8.63980463980464, -0.08669108669108669, 3.53125, 2.65625, -4.28125, 1.0
1035, 1.971916971916972, -9.763125763125764, 0.14041514041514042, 3.375, 2.375, -4.09375, 1.0
1036, 1.5506715506715507, -9.225885225885225, 0.2905982905982906, 3.3125, 2.0, -3.9375, 1.0
1037, -0.5836385836385837, -9.825396825396826, -1.485958485958486, 3.84375, 1.65625, -3.9375, 1.0
1038, -1.606837606837607, -10.781440781440782, -3.231990231990232, 3.625, 1.21875, -3.34375, 1.0
1039, -1.722832722832723, -10.51037851037851, -3.686202686202686, 3.1875, 1.0625, -3.1875, 1.0
1040, -2.133089133089133, -9.59096459096459, -3.7264957264957266, 2.875, 0.875, -2.9375, 1.0
1041, -2.056166056166056, -8.626373626373626, -3.286935286935287, 2.6875, 0.75, -2.625, 1.0
1042, -2.2332112332112333, -7.638583638583639, -3.1355311355311355, 2.75, 0.4375, -2.34375, 1.0
1043, -2.227106227106227, -8.440781440781441, -3.807081807081807, 2.40625, -0.09375, -1.96875, 1.0
1044, -2.9474969474969477, -7.652014652014652, -2.9633699633699635, 1.84375, -0.46875, -1.59375, 1.0
1045, -3.0805860805860807, -6.800976800976801, -1.7960927960927962, 1.75, -0.5625, -1.3125, 1.0
1046, -2.970695970695971, -6.4664224664224665, -0.757020757020757, 1.78125, -0.65625, -1.0, 1.0
1047, -2.6788766788766787, -6.097680097680097, -0.2673992673992674, 1.6875, -0.90625, -0.75, 1.0
1048, -3.238095238095238, -5.7484737484737485, 0.10012210012210013, 1.375, -0.75, -0.625, 1.0
1049, -3.663003663003663, -4.874236874236874, 0.05982905982905983, 1.34375, -0.3125, -0.46875, 1.0
1050, -1.6666666666666667, -4.9072039072039075, -1.2661782661782661, 1.34375, -0.1875, -0.1875, 1.0
1051, -1.592185592185592, -5.391941391941392, -2.9755799755799757, 0.875, -0.875, 0.0, 1.0
1052, -2.8376068376068377, -4.203907203907204, -2.8180708180708183, 0.15625, -1.0, 0.1875, 1.0
1053, -1.4432234432234432, -3.5714285714285716, -1.9523809523809523, 0.0625, -0.28125, 0.15625, 1.0
1054, -0.5567765567765568, -2.173382173382173, -0.1978021978021978, 0.09375, 0.15625, 0.09375, 1.0
1055, 1.0476190476190477, -1.8913308913308913, 1.8046398046398047, 0.1875, -0.03125, 0.21875, 1.0
1056, 0.7374847374847375, -2.1636141636141635, 0.15384615384615385, 0.21875, -0.46875, 0.25, 1.0
1057, 0.8852258852258852, -2.258852258852259, -0.11843711843711843, 0.15625, -0.03125, 0.0625, 1.0
1058, 0.6385836385836385, -2.352869352869353, -0.5628815628815629, 0.3125, 0.09375, -0.09375, 1.0
1059, -0.29914529914529914, -2.431013431013431, -0.463980463980464, 0.34375, 0.0, -0.0625, 1.0
1060, -0.7326007326007326, -2.9096459096459095, -0.6178266178266179, 0.375, 0.0, 0.0, 1.0
1061, -1.1477411477411477, -3.238095238095238, -0.5042735042735043, 0.09375, 0.15625, 0.03125, 1.0
1062, -0.8192918192918193, -3.8119658119658117, -0.575091575091575, -0.21875, 0.3125, 0.125, 1.0
1063, -0.7826617826617827, -4.396825396825397, -0.9242979242979243, -0.625, 0.40625, 0.1875, 1.0
1064, -1.072039072039072, -4.468864468864469, -1.9487179487179487, -0.9375, 0.3125, 0.25, 0.0
1065, -1.8034188034188035, -4.754578754578755, -2.562881562881563, -1.1875, 0.09375, 0.5, 0.0
1066, -2.728937728937729, -5.280830280830281, -2.9279609279609278, -1.4375, -0.15625, 0.9375, 0.0
1067, -4.147741147741148, -4.995115995115995, -2.757020757020757, -1.5625, -0.46875, 1.21875, 0.0
1068, -5.00976800976801, -6.155067155067155, -1.884004884004884, -1.78125, -1.0, 1.625, 0.0
1069, -4.743589743589744, -6.394383394383395, -1.297924297924298, -2.0, -1.5, 2.03125, 0.0
1070, -3.982905982905983, -6.7313797313797314, -0.07448107448107448, -2.1875, -2.09375, 2.53125, 0.0
1071, -3.1709401709401708, -6.881562881562882, 1.1062271062271063, -2.3125, -2.8125, 2.96875, 0.0
1072, -2.9536019536019538, -6.825396825396825, 1.927960927960928, -2.28125, -3.28125, 3.375, 0.0
1073, -1.2332112332112333, -7.166056166056166, 2.797313797313797, -2.15625, -4.03125, 3.8125, 0.0
1074, 0.3247863247863248, -7.168498168498169, 2.9743589743589745, -2.125, -4.625, 4.09375, 0.0
1075, 0.8547008547008547, -6.00976800976801, 3.1623931623931623, -1.96875, -5.34375, 4.25, 0.0
1076, 0.047619047619047616, -4.666666666666667, 2.3724053724053724, -1.5625, -5.40625, 4.28125, 0.0
1077, -0.04395604395604396, -3.9682539682539684, 1.4603174603174602, -1.0, -4.875, 4.0, 0.0
1078, 0.6263736263736264, -3.7374847374847375, 1.5177045177045176, -0.625, -4.78125, 3.28125, 0.0
1079, 1.2625152625152625, -3.032967032967033, 1.3894993894993894, -0.4375, -5.375, 2.90625, 0.0
1080, 0.35653235653235654, -2.3150183150183152, 0.4456654456654457, -0.09375, -5.4375, 2.875, 0.0
1081, 0.5531135531135531, -2.3028083028083026, -0.9218559218559218, 0.46875, -4.1875, 3.09375, 0.0
1082, 2.3736263736263736, -2.695970695970696, -0.41147741147741146, 0.75, -3.28125, 2.84375, 0.0
1083, 2.4835164835164836, -2.687423687423687, -0.29304029304029305, 0.5625, -3.34375, 2.25, 0.0
1084, 1.2039072039072038, -1.9035409035409034, -0.9377289377289377, 0.59375, -3.53125, 1.84375, 0.0
1085, 0.2442002442002442, -1.2661782661782661, -2.1794871794871793, 0.84375, -2.8125, 2.125, 0.0
1086, 1.36996336996337, -0.9304029304029304, -2.6495726495726495, 1.0625, -1.96875, 2.28125, 0.0
1087, 1.9865689865689866, -1.4627594627594627, -2.9023199023199022, 1.15625, -1.4375, 1.96875, 0.0
1088, 2.755799755799756, -2.3333333333333335, -2.7484737484737485, 0.75, -1.65625, 1.59375, 0.0
1089, 1.435897435897436, -1.242979242979243, -1.9645909645909645, 0.1875, -2.03125, 1.4375, 0.0
1090, -0.23565323565323565, 0.15262515262515264, -1.4273504273504274, 0.125, -1.9375, 1.84375, 0.0
1091, -0.11355311355311355, 0.3064713064713065, -1.1306471306471306, 0.375, -1.53125, 2.125, 0.0
1092, 0.5604395604395604, 0.11233211233211234, -0.6642246642246642, 0.84375, -1.1875, 2.09375, 0.0
1093, 1.4554334554334554, -0.38583638583638585, -0.9120879120879121, 1.1875, -1.25, 1.84375, 0.0
1094, 1.1025641025641026, -1.0476190476190477, -1.387057387057387, 1.15625, -1.4375, 1.78125, 0.0
1095, 0.7802197802197802, -0.9218559218559218, -1.3956043956043955, 0.96875, -1.46875, 1.78125, 0.0
1096, 0.4627594627594628, -0.6153846153846154, -1.2722832722832722, 1.15625, -0.96875, 1.71875, 0.0
1097, 1.783882783882784, -1.2075702075702075, -1.2246642246642248, 1.40625, -0.71875, 1.625, 0.0
1098, 2.757020757020757, -1.8021978021978022, -1.7875457875457876, 1.46875, -0.84375, 1.40625, 0.0
1099, 2.659340659340659, -1.8058608058608059, -2.554334554334554, 1.25, -1.03125, 1.125, 0.0
1100, 2.023199023199023, -1.2173382173382172, -2.989010989010989, 0.9375, -1.03125, 0.875, 0.0
1101, 1.3443223443223444, -0.8400488400488401, -3.1123321123321124, 0.75, -0.6875, 0.71875, 0.0
1102, 1.2857142857142858, -0.45665445665445664, -2.905982905982906, 0.6875, -0.1875, 0.625, 0.0
1103, 1.8693528693528694, -0.5164835164835165, -2.572649572649573, 0.625, 0.09375, 0.59375, 0.0
1104, 1.9230769230769231, -0.1807081807081807, -2.288156288156288, 0.4375, 0.03125, 0.65625, 0.0
1105, 1.442002442002442, -0.6007326007326007, -2.5885225885225887, 0.28125, 0.0, 0.53125, 0.0
1106, 0.5860805860805861, 0.013431013431013432, -2.761904761904762, 0.09375, 0.21875, 0.21875, 0.0
1107, -0.590964590964591, 0.7545787545787546, -3.1648351648351647, 0.125, 0.8125, 0.1875, 0.0
1108, -1.3516483516483517, 1.1477411477411477, -2.9804639804639805, 0.6875, 2.625, 0.3125, 0.0
1109, -0.14896214896214896, 0.33455433455433453, -3.653235653235653, 1.0, 3.59375, 0.4375, 1.0
1110, 2.0683760683760686, -1.7155067155067154, -4.445665445665446, 0.71875, 3.875, 0.0625, 1.0
1111, 2.619047619047619, -1.0402930402930404, -4.065934065934066, 0.09375, 3.65625, -0.59375, 1.0
1112, 3.6678876678876677, -3.010989010989011, -3.7313797313797314, -0.28125, 3.28125, -1.0625, 1.0
1113, 2.5177045177045176, -2.5286935286935286, -3.191697191697192, -0.46875, 3.4375, -1.5, 1.0
1114, 1.5946275946275947, -2.4774114774114775, -3.275946275946276, -0.40625, 4.0, -1.78125, 1.0
1115, 0.43223443223443225, -2.122100122100122, -3.3382173382173383, -0.0625, 5.25, -2.4375, 1.0
1116, 0.7643467643467643, -1.5677655677655677, -2.6666666666666665, 0.625, 6.5625, -3.3125, 1.0
1117, 1.7594627594627594, -0.9731379731379731, -1.7557997557997558, 1.46875, 7.3125, -3.96875, 1.0
1118, 2.1709401709401708, -0.2783882783882784, -1.0476190476190477, 2.03125, 7.34375, -4.53125, 1.0
1119, 3.2857142857142856, 0.020757020757020756, -1.1672771672771673, 2.1875, 6.5625, -4.9375, 1.0
1120, 3.32967032967033, 1.0, -0.3247863247863248, 2.0625, 5.03125, -5.0, 1.0
1121, 1.7716727716727716, 3.6483516483516483, 0.5543345543345544, 2.125, 4.1875, -5.0, 1.0
1122, 0.4432234432234432, 4.7765567765567765, 0.2222222222222222, 2.5, 3.78125, -4.875, 1.0
1123, 0.5103785103785103, -4.684981684981685, -0.1794871794871795, 2.625, 3.59375, -4.5625, 1.0
1124, 0.42002442002442003, -8.531135531135531, 0.2515262515262515, 2.71875, 3.375, -4.34375, 1.0
1125, 0.5738705738705738, -9.402930402930403, 0.5433455433455433, 2.875, 3.34375, -4.21875, 1.0
1126, 0.46642246642246643, -8.932844932844933, 0.409035409035409, 3.125, 3.0625, -4.03125, 1.0
1127, -0.09035409035409035, -9.11965811965812, -0.07203907203907203, 3.40625, 2.46875, -3.78125, 1.0
1128, -0.36752136752136755, -9.433455433455434, -0.9682539682539683, 3.53125, 1.71875, -3.4375, 1.0
1129, -1.8717948717948718, -9.12087912087912, -1.9865689865689866, 3.34375, 1.0, -3.125, 1.0
1130, -4.0537240537240535, -8.601953601953602, -3.0415140415140414, 3.15625, 0.71875, -2.8125, 1.0
1131, -3.6043956043956045, -8.290598290598291, -3.4957264957264957, 2.71875, 1.21875, -2.40625, 1.0
1132, -2.2234432234432235, -7.402930402930403, -3.086691086691087, 2.59375, 0.8125, -2.09375, 1.0
1133, -2.114774114774115, -7.446886446886447, -3.5982905982905984, 2.3125, -0.0625, -1.71875, 1.0
1134, -3.716727716727717, -6.811965811965812, -3.5506715506715505, 1.90625, -0.5625, -1.34375, 1.0
1135, -4.010989010989011, -6.2063492063492065, -3.087912087912088, 1.6875, -0.75, -1.0, 1.0
1136, -3.2893772893772892, -6.001221001221001, -2.0854700854700856, 1.5, -0.78125, -0.8125, 1.0
1137, -3.9462759462759465, -5.192918192918193, -1.9755799755799757, 1.46875, -0.21875, -0.71875, 1.0
1138, -3.083028083028083, -4.6996336996337, -1.540903540903541, 1.25, 0.15625, -0.5625, 1.0
1139, -1.9511599511599511, -4.461538461538462, -0.9340659340659341, 1.0, -0.125, -0.34375, 1.0
1140, -0.8791208791208791, -4.388278388278389, -0.6886446886446886, 0.8125, -0.75, -0.0625, 1.0
1141, -1.4456654456654456, -4.162393162393163, -1.4212454212454213, 0.625, -0.9375, 0.0625, 1.0
1142, -2.456654456654457, -4.384615384615385, -3.4786324786324787, 0.34375, 0.125, -0.0625, 1.0
1143, -0.12087912087912088, -3.1416361416361416, 0.3907203907203907, 0.3125, 0.1875, 0.03125, 1.0
1144, 0.9853479853479854, -3.0842490842490844, -0.05860805860805861, 0.21875, -0.0625, 0.21875, 1.0
1145, 0.9242979242979243, -2.6971916971916974, -0.5299145299145299, 0.09375, -0.15625, 0.15625, 1.0
1146, 0.6336996336996337, -2.7313797313797314, -0.5201465201465202, 0.1875, 0.0, 0.03125, 1.0
1147, -0.030525030525030524, -2.728937728937729, -0.4542124542124542, 0.21875, -0.125, 0.0625, 1.0
1148, -0.20757020757020758, -2.9694749694749696, -0.23076923076923078, 0.15625, -0.1875, 0.125, 1.0
1149, -0.6654456654456654, -3.391941391941392, -0.33821733821733824, 0.0, -0.15625, 0.15625, 1.0
1150, -0.6446886446886447, -4.031746031746032, -0.5054945054945055, -0.28125, -0.0625, 0.1875, 1.0
1151, -0.8217338217338217, -4.068376068376068, -0.7985347985347986, -0.6875, -0.03125, 0.28125, 0.0
1152, -1.5702075702075702, -3.5115995115995116, -1.1025641025641026, -0.8125, -0.0625, 0.34375, 0.0
1153, -1.5128205128205128, -4.747252747252747, -1.713064713064713, -0.53125, 0.0, 0.40625, 0.0
1154, -3.352869352869353, -4.854700854700854, -2.197802197802198, -0.84375, -0.28125, 0.8125, 0.0
1155, -4.691086691086691, -5.451770451770452, -3.0586080586080584, -1.21875, -0.3125, 1.1875, 0.0
1156, -4.582417582417582, -6.13919413919414, -2.6910866910866913, -1.78125, -0.625, 1.65625, 0.0
1157, -3.5225885225885225, -6.465201465201465, -1.5702075702075702, -2.21875, -1.59375, 2.125, 0.0
1158, -2.970695970695971, -6.194139194139194, 0.1855921855921856, -2.375, -2.78125, 2.65625, 0.0
1159, -2.9523809523809526, -5.843711843711843, 1.575091575091575, -2.3125, -3.71875, 3.09375, 0.0
1160, -3.3272283272283274, -5.7032967032967035, 2.203907203907204, -2.09375, -4.1875, 3.46875, 0.0
1161, -3.236874236874237, -5.885225885225886, 2.5702075702075704, -1.96875, -4.4375, 3.6875, 0.0
1162, -1.873015873015873, -5.941391941391942, 3.15995115995116, -1.9375, -4.5, 3.9375, 0.0
1163, -0.5738705738705738, -4.6361416361416365, 3.2796092796092795, -1.5, -4.25, 3.90625, 0.0
1164, 0.32722832722832723, -3.608058608058608, 2.943833943833944, -0.8125, -4.03125, 3.65625, 0.0
1165, -0.514041514041514, -2.6935286935286937, 2.6275946275946276, -0.34375, -4.0, 3.375, 0.0
1166, 1.9926739926739927, -4.111111111111111, -0.31135531135531136, -0.34375, -3.625, 3.53125, 0.0
1167, 3.4297924297924296, -3.3772893772893773, -0.612942612942613, -0.5, -3.78125, 3.3125, 0.0
1168, 1.7594627594627594, -1.6483516483516483, 0.7875457875457875, -0.71875, -4.875, 2.9375, 0.0
1169, -1.3492063492063493, -0.9413919413919414, 1.2576312576312576, -0.59375, -5.5625, 2.40625, 0.0
1170, -2.5396825396825395, -1.1672771672771673, 0.07326007326007326, -0.125, -4.78125, 2.375, 0.0
1171, -0.938949938949939, -1.8583638583638584, -1.315018315018315, 0.46875, -3.21875, 2.46875, 0.0
1172, 1.170940170940171, -2.255189255189255, -1.1636141636141637, 0.65625, -2.53125, 2.3125, 0.0
1173, 0.6556776556776557, -1.778998778998779, -0.7472527472527473, 0.40625, -2.59375, 2.03125, 0.0
1174, -0.10134310134310134, -1.0488400488400489, -0.9511599511599511, 0.40625, -2.375, 1.90625, 0.0
1175, 1.0708180708180708, -1.3516483516483517, -1.9572649572649572, 0.9375, -1.4375, 2.0625, 0.0
1176, 2.7838827838827838, -1.9816849816849818, -1.7936507936507937, 1.40625, -0.96875, 1.9375, 0.0
1177, 3.039072039072039, -2.092796092796093, -1.586080586080586, 1.25, -1.40625, 1.40625, 0.0
1178, 1.474969474969475, -2.1355311355311355, -1.3516483516483517, 0.5, -2.03125, 1.03125, 0.0
1179, 0.05128205128205128, -1.2185592185592184, -1.0818070818070817, 0.1875, -1.84375, 0.96875, 0.0
1180, -0.029304029304029304, -0.3772893772893773, -1.0525030525030525, 0.40625, -1.53125, 1.21875, 0.0
1181, 0.36996336996337, -0.13675213675213677, -1.1623931623931625, 0.875, -1.15625, 1.40625, 0.0
1182, 1.442002442002442, -0.4126984126984127, -1.0793650793650793, 1.1875, -0.90625, 1.46875, 0.0
1183, 2.7484737484737485, -0.724053724053724, -1.072039072039072, 1.3125, -1.125, 1.4375, 0.0
1184, 2.5067155067155067, -0.9511599511599511, -1.1306471306471306, 1.34375, -1.4375, 1.34375, 0.0
1185, 1.3858363858363858, -0.6483516483516484, -1.6043956043956045, 1.5, -1.3125, 1.1875, 0.0
1186, 0.7374847374847375, -0.5018315018315018, -1.916971916971917, 1.59375, -0.96875, 1.15625, 0.0
1187, 0.6593406593406593, -0.6068376068376068, -2.357753357753358, 1.53125, -0.59375, 1.1875, 0.0
1188, 1.2857142857142858, -0.960927960927961, -2.6971916971916974, 1.28125, -0.4375, 1.21875, 0.0
1189, 1.9914529914529915, -0.967032967032967, -2.7496947496947497, 0.75, -0.59375, 1.15625, 0.0
1190, 1.6947496947496947, -0.19291819291819293, -2.2393162393162394, 0.6875, -0.40625, 0.9375, 0.0
1191, 1.6324786324786325, -0.442002442002442, -2.473748473748474, 0.71875, -0.125, 0.78125, 0.0
1192, 2.1697191697191696, -0.7643467643467643, -2.7423687423687424, 0.59375, 0.15625, 0.53125, 0.0
1193, 2.1086691086691087, -0.46764346764346765, -2.7374847374847375, 0.25, 0.0625, 0.375, 0.0
1194, 1.1452991452991452, 0.06471306471306472, -2.6715506715506714, 0.0625, 0.03125, 0.21875, 0.0
1195, 0.7411477411477412, 0.6434676434676435, -2.409035409035409, 0.21875, 0.3125, 0.0625, 0.0
1196, 0.5946275946275946, 0.4481074481074481, -2.1074481074481075, 0.4375, 0.84375, 0.0, 1.0
1197, 0.9413919413919414, 0.0463980463980464, -2.515262515262515, 0.53125, 1.5625, -0.0625, 1.0
1198, 0.31868131868131866, -0.3492063492063492, -3.122100122100122, 0.40625, 2.25, -0.09375, 1.0
1199, 0.5934065934065934, -0.7106227106227107, -3.3675213675213675, 0.21875, 3.03125, -0.09375, 1.0
1200, 1.6752136752136753, -1.2808302808302807, -3.7423687423687424, 0.0, 3.90625, -0.1875, 1.0
1201, 2.5384615384615383, -2.034188034188034, -3.9474969474969477, -0.28125, 4.84375, -0.65625, 1.0
1202, 3.4652014652014653, -2.0891330891330893, -3.1794871794871793, -0.125, 5.59375, -1.46875, 1.0
1203, 3.623931623931624, -1.7118437118437118, -2.225885225885226, 0.375, 6.40625, -2.53125, 1.0
1204, 4.694749694749695, -2.313797313797314, -1.6764346764346765, 0.8125, 6.625, -3.4375, 1.0
1205, 5.113553113553113, -2.8754578754578755, -1.8205128205128205, 0.84375, 6.0, -4.03125, 1.0
1206, 3.3284493284493286, -1.7667887667887667, -1.7313797313797314, 0.84375, 5.34375, -4.28125, 1.0
1207, 1.8681318681318682, -0.4981684981684982, -1.4285714285714286, 0.96875, 5.1875, -4.21875, 1.0
1208, 1.9926739926739927, 0.9365079365079365, -0.9108669108669109, 1.25, 5.09375, -4.34375, 1.0
1209, 2.9365079365079363, 1.6874236874236874, -0.6947496947496947, 1.59375, 4.625, -4.5, 1.0
1210, 2.3687423687423688, 2.8302808302808304, -0.8998778998778999, 1.71875, 4.34375, -4.65625, 1.0
1211, 1.5775335775335775, 1.2173382173382172, -1.236874236874237, 1.875, 4.09375, -4.5, 1.0
1212, 1.188034188034188, -7.864468864468864, -1.0402930402930404, 2.3125, 3.84375, -4.375, 1.0
1213, 0.5006105006105006, -9.181929181929181, -0.5775335775335775, 2.53125, 3.125, -4.25, 1.0
1214, 0.06837606837606838, -9.528693528693529, -0.6105006105006106, 2.71875, 2.84375, -4.0625, 1.0
1215, -0.11355311355311355, -9.291819291819293, -0.8742368742368742, 2.90625, 2.6875, -3.875, 1.0
1216, -0.7851037851037851, -8.963369963369964, -1.3455433455433456, 3.09375, 2.15625, -3.625, 1.0
1217, -1.3968253968253967, -9.272283272283273, -1.5067155067155067, 3.15625, 1.59375, -3.25, 1.0
1218, -2.1941391941391943, -8.926739926739927, -1.9987789987789988, 3.125, 1.1875, -3.03125, 1.0
1219, -3.2332112332112333, -8.34920634920635, -2.481074481074481, 2.96875, 0.78125, -2.6875, 1.0
1220, -3.6446886446886446, -7.976800976800977, -2.5006105006105006, 2.6875, 0.4375, -2.3125, 1.0
1221, -3.879120879120879, -7.448107448107448, -2.601953601953602, 2.53125, 0.3125, -2.03125, 1.0
1222, -4.018315018315018, -7.0537240537240535, -3.1709401709401708, 2.34375, 0.125, -1.6875, 1.0
1223, -3.877899877899878, -6.725274725274725, -2.8119658119658117, 1.96875, -0.28125, -1.28125, 1.0
1224, -3.9145299145299144, -5.927960927960928, -2.2979242979242978, 1.6875, -0.5625, -0.78125, 1.0
1225, -3.808302808302808, -5.682539682539683, -1.9474969474969475, 1.53125, -0.375, -0.53125, 1.0
1226, -3.272283272283272, -5.246642246642247, -1.8363858363858363, 1.28125, -0.25, -0.34375, 1.0
1227, -2.8522588522588523, -4.738705738705739, -1.2747252747252746, 1.0625, -0.1875, -0.1875, 1.0
1228, -1.4224664224664225, -4.454212454212454, -1.1184371184371185, 0.90625, -0.375, -0.0625, 1.0
1229, -0.6019536019536019, -4.216117216117216, -1.5543345543345544, 0.65625, -0.6875, 0.03125, 1.0
1230, -1.291819291819292, -3.8119658119658117, -2.0671550671550674, 0.4375, -0.34375, 0.0625, 1.0
1231, -0.3418803418803419, -3.7106227106227108, -1.9047619047619047, 0.28125, 0.125, 0.0, 1.0
1232, 0.23321123321123322, -2.851037851037851, -0.14774114774114774, 0.375, 0.03125, 0.0, 1.0
1233, -0.14407814407814407, -2.7936507936507935, 0.10134310134310134, 0.4375, 0.0625, 0.03125, 1.0
1234, 0.3162393162393162, -2.7484737484737485, 0.2148962148962149, 0.4375, 0.0, 0.09375, 1.0
1235, 0.020757020757020756, -3.10989010989011, -0.5824175824175825, 0.375, 0.0, 0.09375, 1.0
1236, -0.06471306471306472, -3.4175824175824174, -0.9218559218559218, 0.375, 0.0, 0.09375, 1.0
1237, -0.7948717948717948, -3.346764346764347, -0.43101343101343104, 0.15625, -0.0625, 0.125, 1.0
1238, -0.7411477411477412, -3.4346764346764345, 0.0, -0.03125, 0.03125, 0.21875, 1.0
1239, -0.48595848595848595, -3.885225885225885, -0.2844932844932845, -0.25, 0.125, 0.25, 1.0
1240, -0.05982905982905983, -3.8925518925518925, -0.5531135531135531, -0.4375, 0.15625, 0.25, 1.0
1241, -0.09035409035409035, -4.344322344322344, -1.216117216117216, -0.46875, 0.0, 0.34375, 0.0
1242, -1.3650793650793651, -4.7655677655677655, -2.311355311355311, -0.6875, -0.15625, 0.4375, 0.0
1243, -2.496947496947497, -4.995115995115995, -2.8290598290598292, -1.15625, -0.40625, 0.53125, 0.0
1244, -4.816849816849817, -5.423687423687424, -3.1123321123321124, -1.5625, -0.4375, 0.96875, 0.0
1245, -4.473748473748474, -5.998778998778999, -2.645909645909646, -1.9375, -0.375, 1.25, 0.0
1246, -3.6935286935286937, -6.275946275946276, -1.9951159951159951, -2.1875, -0.84375, 1.53125, 0.0
1247, -2.8986568986568986, -6.4212454212454215, -1.0122100122100122, -2.34375, -1.71875, 2.3125, 0.0
1248, -2.474969474969475, -6.771672771672772, 0.32967032967032966, -2.625, -3.625, 2.875, 0.0
1249, -3.012210012210012, -6.256410256410256, 1.424908424908425, -2.75, -4.5625, 3.34375, 0.0
1250, -3.105006105006105, -5.7655677655677655, 2.2783882783882783, -2.625, -5.34375, 3.8125, 0.0
