timestamp, accX, accY, accZ, gyroX, gyroY, gyroZ, button
1, -0.20146520146520147, 0.5787545787545788, 0.16361416361416362, 0.0, 0.0625, -0.40625, 0.0
2, 0.04884004884004884, 0.4603174603174603, 0.2490842490842491, 0.125, 0.0, -0.4375, 0.0
3, -0.2087912087912088, -0.12942612942612944, -0.14163614163614163, 0.0625, -0.125, -0.40625, 0.0
4, -0.6263736263736264, 0.02197802197802198, -0.48717948717948717, 0.0, -0.09375, -0.28125, 0.0
5, -0.8827838827838828, 0.4358974358974359, -0.18192918192918192, 0.03125, 0.15625, -0.125, 0.0
6, -0.4297924297924298, 0.23321123321123322, 0.031746031746031744, 0.09375, 0.375, -0.03125, 0.0
7, 0.3199023199023199, -0.019536019536019536, 0.09157509157509157, 0.09375, 0.28125, -0.03125, 0.0
8, 0.4126984126984127, -0.2588522588522589, 0.08669108669108669, 0.03125, 0.0625, -0.125, 0.0
9, 0.2844932844932845, -0.17582417582417584, 0.02442002442002442, 0.0, -0.0625, -0.21875, 0.0
10, 0.06593406593406594, -0.2967032967032967, -0.27350427350427353, -0.125, -0.15625, -0.25, 0.0
11, -0.0695970695970696, 0.07326007326007326, -0.3162393162393162, -0.125, -0.1875, -0.25, 0.0
12, -0.32967032967032966, 0.2564102564102564, -0.22344322344322345, -0.0625, -0.125, -0.25, 0.0
13, -0.27472527472527475, 0.231990231990232, -0.1514041514041514, 0.0, -0.03125, -0.125, 0.0
14, -0.015873015873015872, 0.013431013431013432, -0.16727716727716727, 0.0625, 0.0, -0.0625, 0.0
15, 0.18925518925518925, -0.0989010989010989, -0.23565323565323565, 0.03125, -0.03125, -0.0625, 0.0
16, 0.0927960927960928, -0.06105006105006105, -0.0989010989010989, 0.0, -0.0625, -0.09375, 0.0
17, 0.03418803418803419, 0.003663003663003663, -0.01098901098901099, 0.0, -0.0625, -0.09375, 0.0
18, 0.01098901098901099, 0.031746031746031744, 0.018315018315018316, 0.0625, -0.0625, -0.03125, 0.0
19, 0.0757020757020757, -0.13064713064713065, 0.01098901098901099, 0.09375, -0.03125, -0.03125, 0.0
20, 0.18315018315018314, -0.013431013431013432, 0.06715506715506715, 0.0625, -0.09375, -0.03125, 0.0
21, 0.11355311355311355, 0.05128205128205128, 0.09523809523809523, 0.0625, -0.1875, -0.03125, 0.0
22, 0.08424908424908426, 0.042735042735042736, 0.0757020757020757, 0.125, -0.25, -0.03125, 0.0
23, 0.07448107448107448, 0.040293040293040296, 0.05982905982905983, 0.15625, -0.3125, 0.0, 0.0
24, 0.01221001221001221, -0.004884004884004884, -0.15506715506715507, 0.25, -0.34375, 0.0, 0.0
25, -0.32722832722832723, -0.18192918192918192, -0.4810744810744811, 0.1875, -0.15625, 0.0, 0.0
26, -0.06593406593406594, -0.1684981684981685, -0.5567765567765568, 0.0625, -0.03125, 0.03125, 0.0
27, 0.23809523809523808, -0.09157509157509157, -0.42124542124542125, 0.0, -0.03125, 0.03125, 0.0
28, 0.5079365079365079, -0.020757020757020756, -0.2857142857142857, 0.0, -0.15625, 0.0, 0.0
29, 0.2515262515262515, 0.03785103785103785, -0.199023199023199, 0.0, -0.25, -0.03125, 0.0
30, -0.19413919413919414, 0.1514041514041514, -0.22344322344322345, 0.0, -0.1875, 0.0, 0.0
31, -0.2698412698412698, 0.10134310134310134, -0.1330891330891331, 0.03125, -0.03125, 0.03125, 0.0
32, 0.10744810744810745, 0.009768009768009768, -0.23321123321123322, 0.03125, 0.0, 0.03125, 0.0
33, 0.27228327228327226, -0.052503052503052504, -0.14774114774114774, 0.0, -0.0625, 0.0, 0.0
34, 0.44078144078144077, -0.13186813186813187, -0.17826617826617827, -0.09375, -0.1875, -0.03125, 0.0
35, 0.22832722832722832, -0.026862026862026864, -0.052503052503052504, -0.09375, -0.1875, -0.0625, 0.0
36, -0.10012210012210013, 0.16361416361416362, -0.12942612942612944, 0.0, -0.0625, -0.03125, 0.0
37, -0.06227106227106227, -0.04884004884004884, -0.10622710622710622, 0.03125, 0.0, 0.0, 0.0
38, 0.29914529914529914, 0.18925518925518925, -0.050061050061050064, 0.0625, -0.0625, 0.03125, 0.0
39, 0.1855921855921856, 0.13675213675213677, 0.05616605616605617, 0.15625, -0.21875, 0.0, 0.0
40, -0.029304029304029304, 0.14285714285714285, 0.18803418803418803, 0.21875, -0.34375, -0.03125, 0.0
41, -0.2686202686202686, 0.20634920634920634, 0.19413919413919414, 0.34375, -0.40625, 0.0, 0.0
42, -0.42124542124542125, 0.17704517704517705, 0.0989010989010989, 0.5, -0.375, 0.09375, 0.0
43, -0.2039072039072039, -0.3956043956043956, -0.29304029304029305, 0.5625, -0.3125, 0.125, 0.0
44, -0.2967032967032967, -0.724053724053724, -0.7387057387057387, 0.34375, -0.21875, 0.0, 0.0
45, -0.23565323565323565, -0.4993894993894994, -0.7118437118437119, 0.03125, -0.0625, -0.15625, 0.0
46, -0.3504273504273504, -0.06471306471306472, -0.5164835164835165, -0.125, 0.0, -0.1875, 0.0
47, -0.231990231990232, 0.1282051282051282, -0.31013431013431014, -0.125, 0.03125, -0.09375, 0.0
48, -0.07448107448107448, -0.018315018315018316, -0.32112332112332115, -0.09375, 0.0, -0.09375, 0.0
49, -0.514041514041514, -0.19413919413919414, -0.2258852258852259, -0.15625, -0.03125, -0.03125, 0.0
50, 1.393162393162393, 1.1782661782661783, -0.2612942612942613, -0.125, 0.0, 0.0, 0.0
51, -0.5726495726495726, -0.5946275946275946, -0.3528693528693529, -0.09375, -0.125, -0.0625, 0.0
52, 0.3516483516483517, 1.2722832722832722, 0.3907203907203907, -0.03125, -0.28125, 0.0625, 0.0
53, -1.393162393162393, -0.029304029304029304, -0.16117216117216118, 0.09375, 0.03125, 0.15625, 0.0
54, -0.3028083028083028, 0.07936507936507936, 0.03785103785103785, 0.0625, 0.0, 0.1875, 0.0
55, -0.03907203907203907, -0.9560439560439561, -0.2967032967032967, -0.3125, -0.15625, 0.125, 0.0
56, 0.5958485958485958, -0.6031746031746031, -0.6007326007326007, -0.625, -0.34375, 0.03125, 0.0
57, 0.2686202686202686, 0.10744810744810745, -0.47496947496947495, -0.65625, -0.28125, 0.0, 0.0
58, 0.19047619047619047, 0.7509157509157509, 0.1282051282051282, -0.3125, -0.15625, 0.0625, 0.0
59, -0.047619047619047616, 0.008547008547008548, 0.11843711843711843, 0.0, -0.21875, 0.0, 0.0
60, 0.26373626373626374, 0.003663003663003663, 0.32722832722832723, 0.1875, -0.28125, -0.09375, 0.0
61, -0.09645909645909646, -0.23931623931623933, 0.0757020757020757, 0.09375, -0.25, 0.0, 0.0
62, -0.3516483516483517, -0.4652014652014652, -0.46764346764346765, 0.0, -0.0625, 0.125, 0.0
63, 0.10012210012210013, 0.24786324786324787, -0.4432234432234432, -0.15625, 0.125, 0.15625, 0.0
64, 0.452991452991453, 0.36385836385836384, 0.026862026862026864, 0.0, 0.3125, -0.09375, 0.0
65, 0.02564102564102564, -0.34676434676434675, 0.008547008547008548, 0.21875, 0.5, -0.125, 0.0
66, 0.057387057387057384, -0.09035409035409035, -0.06837606837606838, 0.25, 0.53125, 0.09375, 0.0
67, -0.08180708180708181, 0.026862026862026864, -0.10256410256410256, 0.125, 0.4375, 0.21875, 0.0
68, -0.04884004884004884, -0.04395604395604396, -0.14896214896214896, -0.03125, 0.34375, 0.1875, 0.0
69, 0.18315018315018314, -0.2869352869352869, -0.27350427350427353, -0.25, 0.21875, 0.1875, 0.0
70, -0.08547008547008547, -0.014652014652014652, 0.018315018315018316, -0.5625, 0.15625, 0.28125, 0.0
71, 0.5714285714285714, 0.38705738705738707, 0.2905982905982906, -0.53125, 0.21875, 0.1875, 0.0
72, 0.3956043956043956, 0.7973137973137974, 0.4444444444444444, -0.1875, 0.1875, 0.125, 0.0
73, 0.11843711843711843, 0.32112332112332115, 0.1452991452991453, -0.0625, 0.15625, 0.1875, 0.0
74, 0.1746031746031746, 0.19536019536019536, -0.2087912087912088, 0.03125, 0.0, 0.25, 0.0
75, -0.003663003663003663, 0.07692307692307693, -0.21978021978021978, 0.03125, -0.1875, 0.21875, 0.0
76, 0.2905982905982906, 0.06349206349206349, -0.14041514041514042, 0.125, -0.46875, 0.125, 0.0
77, 0.009768009768009768, -0.3968253968253968, 0.03907203907203907, 0.0625, -0.6875, 0.0, 0.0
78, -0.13797313797313798, -0.2686202686202686, -0.1978021978021978, -0.09375, -0.625, -0.1875, 0.0
79, 0.045177045177045176, -0.10622710622710622, 0.002442002442002442, -0.15625, -0.53125, -0.34375, 0.0
80, 0.014652014652014652, 0.09401709401709402, -0.2612942612942613, -0.15625, -0.40625, -0.3125, 0.0
81, -0.2600732600732601, -0.007326007326007326, -0.4652014652014652, -0.09375, -0.1875, -0.21875, 0.0
82, 0.019536019536019536, 0.031746031746031744, -0.10744810744810745, -0.1875, -0.03125, -0.09375, 0.0
83, 0.12332112332112333, 0.052503052503052504, 0.007326007326007326, -0.0625, -0.09375, -0.09375, 0.0
84, -0.11721611721611722, -0.0695970695970696, -0.07326007326007326, 0.0, -0.125, -0.09375, 0.0
85, -0.4249084249084249, -0.3833943833943834, -0.17094017094017094, 0.0, 0.0, -0.0625, 0.0
86, -0.04395604395604396, -0.02564102564102564, -0.09645909645909646, -0.15625, 0.0625, 0.0625, 0.0
87, 0.10134310134310134, 0.1684981684981685, 0.221001221001221, -0.28125, 0.0625, 0.09375, 0.0
88, 0.47496947496947495, 0.6068376068376068, 0.2686202686202686, -0.0625, 0.125, 0.0625, 0.0
89, 0.33455433455433453, 0.6800976800976801, 0.16483516483516483, 0.3125, 0.1875, 0.0, 0.0
90, 0.2796092796092796, 0.5042735042735043, 0.20146520146520147, 0.5625, 0.03125, 0.0, 0.0
91, 0.017094017094017096, 0.21001221001221002, 0.047619047619047616, 0.6875, -0.125, 0.0, 0.0
92, -0.2148962148962149, -0.01098901098901099, -0.15262515262515264, 0.59375, -0.1875, -0.25, 0.0
93, -0.020757020757020756, 0.10256410256410256, -0.6434676434676435, 0.25, -0.09375, -0.59375, 0.0
94, 0.34065934065934067, 0.2222222222222222, -1.0317460317460319, 0.1875, -0.1875, -0.46875, 0.0
95, -0.054945054945054944, 0.17826617826617827, -0.6935286935286935, 0.21875, -0.15625, -0.3125, 0.0
96, -0.09035409035409035, -0.054945054945054944, -0.32112332112332115, 0.15625, -0.0625, -0.28125, 0.0
97, -0.017094017094017096, 0.08791208791208792, -0.3235653235653236, 0.15625, -0.03125, -0.1875, 0.0
98, -0.2454212454212454, 0.031746031746031744, -0.2893772893772894, 0.125, 0.0, -0.1875, 0.0
99, -0.21733821733821734, -0.40293040293040294, -0.22832722832722832, 0.03125, 0.09375, -0.15625, 0.0
100, -0.1391941391941392, -0.6971916971916972, -0.27350427350427353, -0.03125, 0.1875, 0.0, 0.0
101, -0.14774114774114774, -0.43956043956043955, -0.452991452991453, -0.03125, 0.34375, 0.0, 0.0
102, -0.21855921855921856, 0.07203907203907203, -0.8485958485958486, 0.09375, 0.59375, 0.0, 0.0
103, -1.8742368742368742, -0.3797313797313797, -0.4652014652014652, 0.21875, 1.0625, 0.03125, 0.0
104, -0.2686202686202686, -0.29181929181929184, 0.1623931623931624, 0.34375, 1.21875, 0.3125, 0.0
105, 0.0757020757020757, -0.4542124542124542, 0.32234432234432236, 0.0, 0.71875, 0.46875, 0.0
106, -0.1746031746031746, -0.006105006105006105, 0.557997557997558, 0.0, 0.40625, 0.34375, 0.0
107, -0.4908424908424908, -0.02197802197802198, 0.4700854700854701, 0.0625, 0.4375, 0.1875, 0.0
108, -0.684981684981685, 0.02197802197802198, -0.019536019536019536, 0.1875, 0.625, 0.0625, 0.0
109, -0.46764346764346765, 0.23687423687423687, 0.26373626373626374, 0.3125, 0.71875, 0.5, 0.0
110, 0.724053724053724, -0.5225885225885226, 0.0231990231990232, 0.3125, 0.78125, 0.53125, 0.0
111, 0.8400488400488401, -0.6727716727716728, 0.02442002442002442, 0.21875, 0.5, 0.375, 0.0
112, 0.702075702075702, -0.001221001221001221, 0.18437118437118438, 0.0, 0.25, 0.21875, 0.0
113, 0.525030525030525, -0.0695970695970696, 0.04884004884004884, 0.125, 0.15625, -0.0625, 0.0
114, 0.24664224664224665, -0.24786324786324787, -0.32722832722832723, -0.03125, -0.03125, 0.0, 0.0
115, -0.21367521367521367, 1.1062271062271063, -0.1343101343101343, 0.0, -0.09375, 0.28125, 0.0
116, 0.06227106227106227, 0.2087912087912088, -0.06349206349206349, 0.28125, 0.3125, 0.34375, 0.0
117, 0.6141636141636142, 0.042735042735042736, -0.1684981684981685, 0.375, 0.34375, 0.3125, 0.0
118, 0.8388278388278388, -0.4065934065934066, -0.23076923076923078, 0.21875, 0.15625, 0.15625, 0.0
119, 0.9719169719169719, -0.6886446886446886, -0.38461538461538464, 0.0, -0.125, 0.0, 0.0
120, 0.6544566544566545, -0.28205128205128205, -0.38583638583638585, -0.15625, -0.28125, -0.03125, 0.0
121, -0.20757020757020758, 0.09401709401709402, -0.3247863247863248, -0.09375, -0.0625, 0.03125, 0.0
122, -0.001221001221001221, 0.013431013431013432, -0.2454212454212454, -0.03125, 0.09375, 0.09375, 0.0
123, 0.3064713064713065, -0.07814407814407814, -0.16605616605616605, 0.0, 0.03125, 0.09375, 0.0
124, 0.35775335775335776, -0.026862026862026864, -0.026862026862026864, 0.0, -0.03125, 0.0625, 0.0
125, 0.10378510378510379, -0.07448107448107448, -0.19047619047619047, 0.0, -0.0625, 0.03125, 0.0
126, -0.030525030525030524, -0.03418803418803419, -0.3504273504273504, -0.03125, 0.0, 0.0, 0.0
127, 0.017094017094017096, -0.08547008547008547, -0.5067155067155067, -0.0625, 0.0625, 0.03125, 0.0
128, 0.040293040293040296, -0.029304029304029304, -0.3882783882783883, -0.1875, 0.09375, 0.03125, 0.0
129, -0.009768009768009768, 0.0757020757020757, 0.017094017094017096, -0.1875, 0.0625, 0.0, 0.0
130, 0.013431013431013432, -0.05860805860805861, -0.03540903540903541, -0.0625, 0.03125, -0.0625, 0.0
131, -0.18925518925518925, 0.002442002442002442, 0.1855921855921856, -0.03125, 0.0625, 0.0, 0.0
132, -0.06471306471306472, -0.01221001221001221, 0.23809523809523808, -0.03125, 0.1875, 0.03125, 0.0
133, -0.008547008547008548, -0.10378510378510379, 0.16605616605616605, 0.0, 0.25, 0.09375, 0.0
134, 0.3333333333333333, -0.16361416361416362, 0.23931623931623933, -0.03125, 0.1875, 0.0625, 0.0
135, 0.14163614163614163, -0.10866910866910867, 0.2490842490842491, -0.0625, 0.0, 0.0, 0.0
136, -0.10500610500610501, 0.10744810744810745, 0.3882783882783883, -0.0625, -0.0625, 0.0, 0.0
137, -0.07326007326007326, 0.1623931623931624, 0.4053724053724054, 0.0, -0.03125, 0.03125, 0.0
138, 0.06715506715506715, 0.09157509157509157, 0.2905982905982906, 0.125, -0.03125, 0.0625, 0.0
139, 0.13553113553113552, 0.031746031746031744, -0.01221001221001221, 0.21875, -0.09375, 0.03125, 0.0
140, -0.08547008547008547, 0.001221001221001221, -0.3553113553113553, 0.21875, -0.15625, 0.03125, 0.0
141, -0.3601953601953602, 0.07448107448107448, -0.5433455433455433, 0.15625, 0.0, 0.03125, 0.0
142, -0.24053724053724054, 0.0989010989010989, -0.45054945054945056, 0.125, 0.125, 0.0625, 0.0
143, 0.09645909645909646, 0.06471306471306472, -0.16605616605616605, 0.0625, 0.15625, 0.03125, 0.0
144, 0.21611721611721613, 0.03663003663003663, -0.05128205128205128, 0.03125, 0.09375, -0.03125, 0.0
145, 0.11843711843711843, -0.01098901098901099, -0.07326007326007326, 0.0, 0.0, -0.09375, 0.0
146, 0.13675213675213677, 0.07081807081807082, -0.1746031746031746, 0.0, -0.03125, -0.09375, 0.0
147, 0.047619047619047616, 0.0, -0.1807081807081807, 0.0, -0.03125, -0.125, 0.0
148, 0.020757020757020756, -0.03540903540903541, -0.2796092796092796, -0.03125, -0.0625, -0.15625, 0.0
149, 0.0927960927960928, -0.11965811965811966, -0.32967032967032966, -0.125, -0.09375, -0.15625, 0.0
150, 0.05616605616605617, -0.12454212454212454, -0.27350427350427353, -0.21875, -0.15625, -0.1875, 0.0
151, 0.06837606837606838, 0.02197802197802198, -0.14774114774114774, -0.1875, -0.15625, -0.21875, 0.0
152, -0.10622710622710622, -0.10500610500610501, -0.05982905982905983, -0.125, -0.03125, -0.21875, 0.0
153, -0.28815628815628813, 0.013431013431013432, 0.18192918192918192, -0.0625, 0.0625, -0.15625, 0.0
154, 0.06593406593406594, -0.026862026862026864, 0.15995115995115994, 0.0, 0.125, -0.125, 0.0
155, -0.030525030525030524, -0.07936507936507936, 0.14163614163614163, 0.0625, 0.125, -0.15625, 0.0
156, -0.040293040293040296, -0.10256410256410256, 0.05372405372405373, 0.15625, 0.125, -0.1875, 0.0
157, -0.1562881562881563, -0.22954822954822954, -0.16727716727716727, 0.1875, 0.15625, -0.25, 0.0
158, -0.15384615384615385, -0.09768009768009768, -0.1978021978021978, 0.09375, 0.15625, -0.28125, 0.0
159, -0.12087912087912088, 0.03907203907203907, -0.1330891330891331, 0.03125, 0.09375, -0.25, 0.0
160, -0.16117216117216118, 0.12698412698412698, -0.0757020757020757, 0.03125, 0.0625, -0.25, 0.0
161, -0.3724053724053724, 0.14041514041514042, -0.08791208791208792, 0.0625, 0.0625, -0.21875, 0.0
162, -0.2564102564102564, 0.10866910866910867, -0.052503052503052504, 0.03125, 0.125, -0.1875, 0.0
163, -0.09645909645909646, 0.2039072039072039, 0.020757020757020756, 0.03125, 0.0625, -0.21875, 0.0
164, -0.11843711843711843, 0.2857142857142857, -0.019536019536019536, 0.0625, -0.03125, -0.1875, 0.0
165, -0.4065934065934066, 0.37606837606837606, -0.08913308913308914, 0.125, -0.03125, -0.125, 0.0
166, -0.33455433455433453, 0.4236874236874237, -0.11233211233211234, 0.1875, 0.0, -0.0625, 0.0
167, -0.2844932844932845, 0.27228327228327226, -0.22466422466422467, 0.1875, 0.03125, 0.0, 0.0
168, -0.09157509157509157, 0.17338217338217338, -0.31868131868131866, 0.15625, 0.03125, 0.03125, 0.0
169, 0.12454212454212454, 0.057387057387057384, -0.44932844932844934, 0.09375, 0.0, 0.03125, 0.0
170, 0.028083028083028084, 0.1746031746031746, -0.35653235653235654, 0.09375, -0.03125, 0.03125, 0.0
171, 0.06349206349206349, 0.13186813186813187, -0.37362637362637363, 0.125, -0.03125, 0.0625, 0.0
172, 0.019536019536019536, 0.08547008547008547, -0.4884004884004884, 0.125, 0.0, 0.0625, 0.0
173, 0.11843711843711843, -0.0231990231990232, -0.46642246642246643, 0.09375, 0.0, 0.0625, 0.0
174, 0.2039072039072039, -0.07203907203907203, -0.3882783882783883, 0.03125, 0.0, 0.03125, 0.0
175, 0.2503052503052503, 0.047619047619047616, -0.2576312576312576, 0.0, 0.0, 0.03125, 0.0
176, 0.17094017094017094, -0.04395604395604396, -0.3443223443223443, 0.0, -0.03125, 0.03125, 0.0
177, 0.10744810744810745, 0.009768009768009768, -0.34798534798534797, 0.0, -0.03125, 0.0, 0.0
178, 0.08424908424908426, 0.014652014652014652, -0.29304029304029305, 0.0, 0.0, 0.0, 0.0
179, 0.09401709401709402, -0.03663003663003663, -0.3308913308913309, 0.0, 0.0, 0.0, 0.0
180, 0.12332112332112333, -0.10134310134310134, -0.34798534798534797, -0.03125, 0.0, 0.0, 0.0
181, 0.08424908424908426, -0.03663003663003663, -0.33455433455433453, -0.0625, -0.03125, 0.0, 0.0
182, 0.001221001221001221, -0.008547008547008548, -0.23687423687423687, -0.0625, 0.0, 0.0, 0.0
183, 0.02197802197802198, -0.03296703296703297, -0.18803418803418803, -0.03125, 0.0, 0.0, 0.0
184, 0.09035409035409035, -0.12698412698412698, -0.25518925518925517, 0.0, 0.03125, 0.0, 0.0
185, 0.06593406593406594, -0.11843711843711843, -0.27228327228327226, -0.03125, 0.03125, 0.0, 0.0
186, 0.0463980463980464, -0.08669108669108669, -0.2087912087912088, -0.09375, 0.0, 0.0, 0.0
187, -0.029304029304029304, -0.004884004884004884, -0.10256410256410256, -0.09375, 0.03125, 0.0, 0.0
188, -0.026862026862026864, 0.002442002442002442, -0.057387057387057384, -0.0625, 0.0625, 0.0, 0.0
189, 0.0, -0.047619047619047616, -0.08058608058608059, -0.03125, 0.0625, 0.0, 0.0
190, -0.0463980463980464, -0.03540903540903541, -0.16361416361416362, -0.0625, 0.0625, 0.0, 0.0
191, 0.014652014652014652, -0.05128205128205128, -0.10866910866910867, -0.09375, 0.03125, 0.0, 0.0
192, -0.06593406593406594, 0.002442002442002442, -0.1391941391941392, -0.09375, 0.03125, 0.0, 0.0
193, -0.006105006105006105, 0.013431013431013432, 0.009768009768009768, -0.0625, 0.0625, 0.03125, 0.0
194, 0.0, -0.02197802197802198, -0.06715506715506715, -0.03125, 0.03125, 0.03125, 0.0
195, 0.01221001221001221, -0.008547008547008548, 0.02442002442002442, -0.03125, 0.0, 0.03125, 0.0
196, -0.02197802197802198, -0.008547008547008548, -0.047619047619047616, -0.03125, 0.0, 0.03125, 0.0
197, 0.02442002442002442, -0.05616605616605617, -0.08302808302808302, -0.03125, 0.03125, 0.0, 0.0
198, 0.03296703296703297, -0.008547008547008548, -0.057387057387057384, -0.0625, 0.0, 0.0, 0.0
199, -0.019536019536019536, 0.054945054945054944, -0.05860805860805861, -0.03125, 0.0, 0.0, 0.0
200, 0.013431013431013432, 0.020757020757020756, -0.06471306471306472, 0.0, 0.0, 0.0, 0.0
201, 0.002442002442002442, 0.0, -0.05860805860805861, 0.0, 0.0, 0.0, 0.0
202, 0.06593406593406594, -0.018315018315018316, -0.07692307692307693, 0.0, 0.0, 0.03125, 0.0
203, 0.04151404151404151, 0.04884004884004884, -0.03540903540903541, 0.0, -0.0625, 0.03125, 0.0
204, 0.013431013431013432, 0.001221001221001221, -0.12698412698412698, 0.0, -0.03125, 0.0, 0.0
205, -0.026862026862026864, 0.05982905982905983, -0.08913308913308914, 0.0, -0.03125, 0.03125, 0.0
206, 0.06105006105006105, 0.01098901098901099, -0.13553113553113552, 0.0, 0.0, 0.0625, 0.0
207, 0.09523809523809523, -0.040293040293040296, -0.17338217338217338, 0.0, 0.0, 0.0625, 0.0
208, 0.052503052503052504, 0.004884004884004884, -0.16361416361416362, -0.03125, -0.03125, 0.0625, 0.0
209, 0.001221001221001221, 0.014652014652014652, -0.1562881562881563, 0.0, 0.0, 0.0625, 0.0
210, 0.08424908424908426, -0.07692307692307693, -0.19291819291819293, 0.0, 0.0, 0.0625, 0.0
211, 0.08424908424908426, -0.03540903540903541, -0.14407814407814407, -0.03125, 0.0, 0.03125, 0.0
212, 0.05372405372405373, 0.001221001221001221, -0.1855921855921856, 0.0, 0.0, 0.03125, 0.0
213, 0.020757020757020756, -0.019536019536019536, -0.1916971916971917, 0.0, 0.0, 0.03125, 0.0
214, 0.028083028083028084, -0.014652014652014652, -0.23687423687423687, -0.03125, 0.0, 0.03125, 0.0
215, 0.014652014652014652, -0.003663003663003663, -0.16483516483516483, -0.03125, 0.03125, 0.03125, 0.0
216, 0.06349206349206349, 0.009768009768009768, -0.07448107448107448, -0.03125, 0.03125, 0.03125, 0.0
217, 0.06227106227106227, -0.040293040293040296, -0.1111111111111111, -0.03125, 0.0, 0.0, 0.0
218, 0.01098901098901099, -0.001221001221001221, -0.06593406593406594, -0.03125, -0.03125, 0.0, 0.0
219, -0.06471306471306472, 0.02442002442002442, -0.09523809523809523, -0.03125, 0.0, 0.0, 0.0
220, 0.001221001221001221, -0.006105006105006105, -0.09157509157509157, 0.0, 0.0, 0.0, 0.0
221, 0.10012210012210013, -0.06593406593406594, -0.10989010989010989, -0.03125, 0.0, 0.0, 0.0
222, 0.015873015873015872, -0.004884004884004884, -0.09401709401709402, -0.03125, -0.03125, 0.0, 0.0
223, 0.01098901098901099, -0.014652014652014652, -0.10989010989010989, -0.03125, 0.0, 0.0, 0.0
224, 0.04151404151404151, 0.007326007326007326, -0.018315018315018316, -0.03125, 0.0, 0.0, 0.0
225, 0.029304029304029304, 0.006105006105006105, -0.013431013431013432, 0.0, 0.0, 0.0, 0.0
226, 0.015873015873015872, -0.002442002442002442, -0.05128205128205128, 0.0, 0.0, 0.0, 0.0
227, 0.0231990231990232, -0.007326007326007326, -0.09035409035409035, 0.0, 0.0, 0.0, 0.0
228, 0.029304029304029304, -0.017094017094017096, -0.14041514041514042, 0.0, 0.0, 0.0, 0.0
229, 0.018315018315018316, 0.006105006105006105, -0.08913308913308914, 0.0, 0.0, 0.0, 0.0
230, 0.01221001221001221, 0.013431013431013432, -0.0757020757020757, 0.0, 0.0, 0.0, 0.0
231, 0.017094017094017096, 0.001221001221001221, -0.07448107448107448, 0.0, 0.0, 0.0, 0.0
232, 0.014652014652014652, 0.009768009768009768, -0.09035409035409035, 0.0, 0.0, 0.0, 0.0
233, 0.026862026862026864, -0.008547008547008548, -0.14041514041514042, 0.0, 0.0, -0.03125, 0.0
234, 0.02564102564102564, -0.017094017094017096, -0.14041514041514042, 0.0, 0.0, -0.03125, 0.0
235, 0.009768009768009768, 0.0231990231990232, -0.15506715506715507, 0.0, 0.0, -0.03125, 0.0
236, 0.03296703296703297, -0.007326007326007326, -0.1282051282051282, 0.0, 0.0, 0.0, 0.0
237, 0.007326007326007326, 0.04395604395604396, -0.0463980463980464, 0.0, 0.0, 0.0, 0.0
238, 0.014652014652014652, -0.013431013431013432, -0.09401709401709402, 0.0, 0.0, 0.0, 0.0
239, 0.018315018315018316, 0.01098901098901099, -0.1111111111111111, 0.0, 0.0, 0.0, 0.0
240, 0.050061050061050064, -0.040293040293040296, -0.15506715506715507, 0.0, 0.0, 0.0, 0.0
241, 0.030525030525030524, 0.0, -0.1330891330891331, 0.0, -0.03125, -0.03125, 0.0
242, -0.013431013431013432, 0.001221001221001221, -0.13553113553113552, 0.0, 0.0, -0.03125, 0.0
243, 0.029304029304029304, 0.008547008547008548, -0.12698412698412698, 0.0, 0.0, 0.0, 0.0
244, 0.026862026862026864, -0.006105006105006105, -0.12698412698412698, 0.0, 0.0, 0.0, 0.0
245, 0.001221001221001221, -0.01221001221001221, -0.1221001221001221, 0.0, -0.03125, 0.0, 0.0
246, 0.007326007326007326, 0.006105006105006105, -0.05860805860805861, 0.0, 0.0, 0.0, 0.0
247, 0.0927960927960928, 0.030525030525030524, -0.015873015873015872, 0.0, 0.0, 0.0, 0.0
248, 0.05128205128205128, -0.026862026862026864, -0.11843711843711843, 0.0, -0.03125, 0.0, 0.0
249, 0.045177045177045176, 0.0, -0.21733821733821734, 0.0, -0.03125, 0.0, 0.0
250, 0.0463980463980464, -0.01221001221001221, -0.2771672771672772, 0.0, 0.0, 0.0, 0.0
251, 0.0231990231990232, 0.03540903540903541, -0.18437118437118438, 0.0, 0.0, 0.0, 0.0
252, 0.004884004884004884, 0.02564102564102564, -0.09157509157509157, 0.0, 0.0, 0.0, 0.0
253, 0.003663003663003663, 0.007326007326007326, -0.06715506715506715, 0.0, 0.0, 0.0, 0.0
254, 0.020757020757020756, -0.001221001221001221, -0.029304029304029304, 0.0, 0.0, 0.0, 0.0
255, 0.0927960927960928, -0.05860805860805861, -0.1343101343101343, 0.0, 0.0, 0.0, 0.0
256, 0.06349206349206349, -0.04884004884004884, -0.18803418803418803, 0.0, -0.03125, 0.0, 0.0
257, 0.04151404151404151, -0.029304029304029304, -0.2454212454212454, -0.03125, -0.03125, 0.0, 0.0
258, 0.01221001221001221, -0.007326007326007326, -0.17094017094017094, -0.03125, 0.0, 0.0, 0.0
259, 0.020757020757020756, -0.004884004884004884, -0.12087912087912088, -0.03125, 0.0, 0.0, 0.0
260, 0.0463980463980464, 0.003663003663003663, -0.028083028083028084, 0.0, 0.0, 0.0, 0.0
261, 0.030525030525030524, -0.028083028083028084, -0.04151404151404151, 0.0, 0.0, 0.0, 0.0
262, 0.020757020757020756, -0.001221001221001221, -0.042735042735042736, 0.0, 0.0, 0.0, 0.0
263, 0.001221001221001221, -0.01098901098901099, -0.115995115995116, 0.0, 0.0, 0.0, 0.0
264, 0.018315018315018316, 0.02197802197802198, -0.009768009768009768, 0.0, 0.0, 0.0, 0.0
265, 0.028083028083028084, -0.029304029304029304, -0.10012210012210013, 0.0, 0.0, 0.0, 0.0
266, 0.028083028083028084, 0.06105006105006105, -0.02197802197802198, 0.0, 0.0, -0.03125, 0.0
267, 0.006105006105006105, 0.0, -0.11477411477411477, 0.0, 0.0, -0.03125, 0.0
268, 0.004884004884004884, -0.013431013431013432, -0.21733821733821734, 0.0, 0.0, -0.03125, 0.0
269, 0.020757020757020756, 0.0, -0.19413919413919414, -0.03125, 0.0, -0.03125, 0.0
270, -0.014652014652014652, 0.020757020757020756, -0.17704517704517705, -0.03125, 0.0, -0.03125, 0.0
271, 0.015873015873015872, 0.0, -0.09768009768009768, -0.03125, 0.0, 0.0, 0.0
272, 0.02197802197802198, -0.01221001221001221, -0.07203907203907203, 0.0, 0.0, 0.0, 0.0
273, 0.018315018315018316, -0.026862026862026864, -0.06471306471306472, 0.0, 0.0, 0.0, 0.0
274, 0.02442002442002442, -0.009768009768009768, -0.09768009768009768, 0.0, 0.0, 0.0, 0.0
275, 0.018315018315018316, -0.006105006105006105, -0.09768009768009768, 0.0, 0.0, 0.0, 0.0
276, 0.0231990231990232, -0.008547008547008548, -0.10866910866910867, 0.0, 0.0, 0.0, 0.0
277, 0.018315018315018316, 0.009768009768009768, -0.08791208791208792, -0.03125, 0.0, 0.0, 0.0
278, 0.02564102564102564, -0.002442002442002442, -0.0989010989010989, 0.0, 0.0, 0.0, 0.0
279, 0.014652014652014652, -0.018315018315018316, -0.15506715506715507, 0.0, 0.0, 0.0, 0.0
280, 0.009768009768009768, -0.003663003663003663, -0.11233211233211234, 0.0, 0.0, 0.0, 0.0
281, 0.007326007326007326, 0.002442002442002442, -0.05982905982905983, 0.0, 0.0, 0.0, 0.0
282, 0.06349206349206349, 0.018315018315018316, -0.054945054945054944, 0.0, 0.0, 0.0, 0.0
283, 0.05982905982905983, -0.03785103785103785, -0.1575091575091575, 0.0, -0.03125, 0.0, 0.0
284, 0.017094017094017096, 0.0, -0.23931623931623933, 0.0, 0.0, 0.0, 0.0
285, 0.001221001221001221, 0.0, -0.16605616605616605, 0.0, 0.0, 0.0, 0.0
286, 0.019536019536019536, 0.026862026862026864, -0.1343101343101343, 0.0, 0.0, 0.0, 0.0
287, 0.019536019536019536, 0.008547008547008548, -0.007326007326007326, 0.0, -0.03125, 0.0, 0.0
288, 0.015873015873015872, -0.004884004884004884, -0.03540903540903541, 0.0, -0.03125, 0.0, 0.0
289, 0.017094017094017096, 0.020757020757020756, 0.01221001221001221, 0.0, -0.03125, 0.0, 0.0
290, 0.04884004884004884, -0.020757020757020756, -0.10744810744810745, 0.0, -0.03125, 0.0, 0.0
291, 0.04151404151404151, -0.009768009768009768, -0.18803418803418803, 0.0, 0.0, 0.0, 0.0
292, 0.045177045177045176, -0.019536019536019536, -0.23076923076923078, 0.0, 0.0, 0.0, 0.0
293, 0.042735042735042736, 0.004884004884004884, -0.16605616605616605, 0.0, 0.0, 0.03125, 0.0
294, 0.06105006105006105, -0.006105006105006105, -0.11477411477411477, 0.0, 0.0, 0.0, 0.0
295, 0.02442002442002442, -0.006105006105006105, -0.10500610500610501, 0.0, 0.0, 0.0, 0.0
296, 0.02197802197802198, 0.002442002442002442, -0.06593406593406594, 0.0, 0.0, 0.0, 0.0
297, 0.01221001221001221, -0.001221001221001221, -0.06471306471306472, 0.0, 0.0, 0.0, 0.0
298, 0.028083028083028084, 0.001221001221001221, -0.08913308913308914, 0.0, 0.0, 0.0, 0.0
299, 0.001221001221001221, 0.007326007326007326, -0.11233211233211234, 0.0, 0.0, 0.0, 0.0
300, 0.01098901098901099, -0.013431013431013432, -0.15873015873015872, 0.0, 0.0, 0.0, 0.0
301, 0.015873015873015872, 0.019536019536019536, -0.1562881562881563, 0.0, 0.0, 0.0, 0.0
302, 0.015873015873015872, -0.009768009768009768, -0.16361416361416362, 0.0, 0.0, 0.0, 0.0
303, 0.014652014652014652, 0.003663003663003663, -0.1514041514041514, 0.0, 0.0, 0.0, 0.0
304, 0.002442002442002442, -0.018315018315018316, -0.16727716727716727, 0.0, 0.0, 0.0, 0.0
305, -0.013431013431013432, 0.020757020757020756, -0.09523809523809523, 0.0, 0.0, 0.0, 0.0
306, 0.013431013431013432, -0.01098901098901099, -0.12454212454212454, 0.0, 0.0, 0.0, 0.0
307, 0.015873015873015872, -0.006105006105006105, -0.09768009768009768, 0.0, 0.0, 0.0, 0.0
308, 0.01098901098901099, -0.013431013431013432, -0.10744810744810745, 0.0, 0.0, 0.0, 0.0
309, -0.019536019536019536, 0.008547008547008548, -0.04395604395604396, 0.0, 0.0, 0.0, 0.0
310, 0.054945054945054944, -0.054945054945054944, -0.07936507936507936, 0.0, 0.0, 0.03125, 0.0
311, 0.03907203907203907, -0.031746031746031744, -0.08302808302808302, 0.0, 0.0, 0.0, 0.0
312, 0.028083028083028084, -0.002442002442002442, -0.15018315018315018, 0.0, 0.0, 0.0, 0.0
313, 0.017094017094017096, -0.003663003663003663, -0.17704517704517705, 0.0, 0.0, 0.0, 0.0
314, 0.013431013431013432, 0.007326007326007326, -0.07936507936507936, 0.0, 0.0, 0.0, 0.0
315, 0.02442002442002442, 0.047619047619047616, -0.05128205128205128, 0.03125, 0.0, 0.0, 0.0
316, 0.006105006105006105, 0.02564102564102564, -0.12698412698412698, 0.0, 0.0, 0.0, 0.0
317, 0.013431013431013432, 0.03540903540903541, -0.10622710622710622, 0.0, 0.0, 0.0, 0.0
318, 0.0231990231990232, 0.02564102564102564, -0.09645909645909646, 0.0, 0.0, 0.0, 0.0
319, 0.017094017094017096, 0.031746031746031744, -0.10378510378510379, 0.0, 0.0, 0.0, 0.0
320, 0.020757020757020756, -0.001221001221001221, -0.13186813186813187, 0.0, 0.0, 0.03125, 0.0
321, 0.04884004884004884, 0.001221001221001221, -0.20512820512820512, 0.0, 0.0, 0.03125, 0.0
322, 0.0695970695970696, -0.04884004884004884, -0.2869352869352869, 0.0, 0.0, 0.03125, 0.0
323, 0.06349206349206349, -0.026862026862026864, -0.31135531135531136, 0.0, 0.0, 0.03125, 0.0
324, 0.05372405372405373, -0.05128205128205128, -0.2576312576312576, 0.0, 0.0, 0.03125, 0.0
325, 0.06105006105006105, -0.047619047619047616, -0.1562881562881563, 0.0, 0.03125, 0.03125, 0.0
326, 0.1855921855921856, -0.052503052503052504, -0.09768009768009768, -0.03125, 0.0, 0.0, 0.0
327, 0.12576312576312576, -0.03907203907203907, -0.08669108669108669, -0.03125, -0.03125, 0.0, 0.0
328, 0.009768009768009768, 0.014652014652014652, -0.08180708180708181, 0.0, 0.0, 0.0, 0.0
329, -0.020757020757020756, 0.03540903540903541, -0.03785103785103785, 0.0, 0.0, 0.0, 0.0
330, 0.009768009768009768, -0.001221001221001221, -0.057387057387057384, 0.0, 0.0, -0.03125, 0.0
331, 0.014652014652014652, 0.004884004884004884, -0.06471306471306472, 0.0, 0.0, -0.03125, 0.0
332, -0.03907203907203907, 0.009768009768009768, -0.15506715506715507, -0.03125, 0.0, -0.0625, 0.0
333, -0.045177045177045176, 0.04151404151404151, -0.0989010989010989, -0.03125, 0.0, -0.03125, 0.0
334, -0.1221001221001221, 0.02197802197802198, -0.14041514041514042, 0.0, 0.0, 0.0, 0.0
335, -0.020757020757020756, 0.009768009768009768, -0.0695970695970696, 0.0, 0.0625, 0.0, 0.0
336, 0.030525030525030524, -0.06227106227106227, -0.10256410256410256, 0.0, 0.0625, 0.0, 0.0
337, 0.05616605616605617, 0.0, -0.07081807081807082, 0.0, 0.0, 0.0, 0.0
338, -0.018315018315018316, -0.015873015873015872, -0.15506715506715507, 0.0, 0.03125, 0.0, 0.0
339, 0.029304029304029304, -0.031746031746031744, -0.1330891330891331, 0.0, 0.0625, 0.0, 0.0
340, 0.01098901098901099, -0.004884004884004884, -0.08913308913308914, 0.0, 0.0625, 0.0, 0.0
341, 0.006105006105006105, -0.01221001221001221, -0.10012210012210013, 0.0, 0.03125, 0.0, 0.0
342, 0.001221001221001221, 0.01221001221001221, -0.06715506715506715, 0.0, 0.0, -0.03125, 0.0
343, -0.07814407814407814, 0.052503052503052504, -0.09035409035409035, 0.0, 0.0, -0.03125, 0.0
344, -0.08302808302808302, 0.014652014652014652, -0.07326007326007326, 0.0, 0.03125, 0.0, 0.0
345, 0.0, 0.003663003663003663, -0.015873015873015872, 0.0, 0.03125, 0.0, 0.0
346, 0.04151404151404151, -0.028083028083028084, -0.03296703296703297, 0.0, 0.03125, 0.0, 0.0
347, 0.052503052503052504, 0.002442002442002442, -0.07936507936507936, 0.03125, 0.0, 0.0, 0.0
348, 0.002442002442002442, -0.03418803418803419, -0.13675213675213677, 0.03125, 0.0, 0.0, 0.0
349, 0.01221001221001221, 0.003663003663003663, -0.16483516483516483, 0.03125, 0.03125, 0.0, 0.0
350, 0.057387057387057384, -0.013431013431013432, -0.18315018315018314, 0.0, 0.03125, 0.0, 0.0
351, -0.004884004884004884, 0.02197802197802198, -0.14896214896214896, 0.0, 0.0, 0.0, 0.0
352, -0.030525030525030524, 0.042735042735042736, -0.07448107448107448, 0.0, 0.0, 0.0, 0.0
353, -0.015873015873015872, 0.06227106227106227, 0.007326007326007326, 0.0, 0.0, 0.0, 0.0
354, -0.004884004884004884, 0.008547008547008548, -0.054945054945054944, 0.03125, 0.0, 0.0, 0.0
355, 0.015873015873015872, 0.018315018315018316, -0.047619047619047616, 0.03125, 0.0, 0.0, 0.0
356, 0.040293040293040296, -0.02197802197802198, -0.13064713064713065, 0.03125, 0.0, 0.03125, 0.0
357, 0.0757020757020757, 0.007326007326007326, -0.10012210012210013, 0.0, 0.0, 0.03125, 0.0
358, 0.03418803418803419, 0.013431013431013432, -0.10378510378510379, 0.03125, 0.0, 0.0, 0.0
359, 0.03907203907203907, 0.08547008547008547, -0.057387057387057384, 0.0625, 0.0, 0.0, 0.0
360, 0.13064713064713065, -0.02197802197802198, -0.1746031746031746, 0.09375, 0.0, 0.0, 0.0
361, 0.09768009768009768, -0.018315018315018316, -0.37606837606837606, 0.03125, -0.03125, -0.03125, 0.0
362, 0.06105006105006105, -0.02564102564102564, -0.42124542124542125, 0.0, 0.0, -0.03125, 0.0
363, 0.02442002442002442, 0.1391941391941392, -0.28083028083028083, -0.03125, 0.0, -0.03125, 0.0
364, 0.0231990231990232, 0.045177045177045176, -0.1807081807081807, 0.0, 0.0, -0.03125, 0.0
365, -0.014652014652014652, 0.04151404151404151, -0.13553113553113552, 0.03125, 0.0, -0.03125, 0.0
366, 0.018315018315018316, -0.030525030525030524, -0.15506715506715507, 0.03125, 0.0, -0.03125, 0.0
367, -0.02564102564102564, -0.04151404151404151, -0.18925518925518925, 0.0, 0.0, 0.0, 0.0
368, -0.001221001221001221, 0.003663003663003663, -0.08791208791208792, -0.03125, 0.0, 0.0, 0.0
369, -0.001221001221001221, -0.018315018315018316, -0.026862026862026864, -0.03125, 0.0, 0.0, 0.0
370, 0.0, -0.001221001221001221, 0.03296703296703297, -0.03125, 0.0, 0.0, 0.0
371, 0.018315018315018316, -0.019536019536019536, -0.0463980463980464, 0.0, 0.0, 0.0, 0.0
372, 0.03540903540903541, -0.07936507936507936, -0.11843711843711843, 0.0, 0.0, 0.0, 0.0
373, 0.04151404151404151, -0.02442002442002442, -0.1330891330891331, 0.0, 0.0, 0.0, 0.0
374, 0.04395604395604396, -0.017094017094017096, -0.14896214896214896, 0.0, 0.0, 0.0, 0.0
375, 0.05372405372405373, -0.031746031746031744, -0.221001221001221, -0.03125, 0.0, 0.0, 0.0
376, -0.04395604395604396, 0.02197802197802198, -0.12454212454212454, -0.03125, 0.0, 0.0, 0.0
377, -0.045177045177045176, 0.052503052503052504, -0.05860805860805861, 0.0, 0.0, 0.0, 0.0
378, 0.042735042735042736, 0.017094017094017096, -0.03540903540903541, 0.0, 0.0, 0.0, 0.0
379, 0.045177045177045176, -0.03785103785103785, -0.115995115995116, 0.0, -0.03125, 0.0, 0.0
380, -0.12087912087912088, 0.04395604395604396, -0.17582417582417584, 0.0, 0.0, 0.0, 0.0
381, -0.10866910866910867, 0.04884004884004884, -0.15873015873015872, 0.0, 0.03125, 0.0, 0.0
382, 0.05128205128205128, 0.019536019536019536, -0.08669108669108669, 0.0, 0.0, 0.0, 0.0
383, 0.050061050061050064, -0.02564102564102564, -0.06105006105006105, 0.0, -0.03125, 0.0, 0.0
384, -0.09035409035409035, 0.07448107448107448, -0.10134310134310134, 0.0, -0.03125, 0.0, 0.0
385, 0.0, 0.004884004884004884, -0.07692307692307693, 0.0, 0.0, 0.03125, 0.0
386, 0.0231990231990232, 0.0, -0.04151404151404151, 0.0, 0.0, 0.03125, 0.0
387, 0.05616605616605617, 0.026862026862026864, 0.040293040293040296, 0.0, 0.0, 0.03125, 0.0
388, 0.06471306471306472, 0.0, 0.013431013431013432, 0.0, -0.03125, 0.0, 0.0
389, 0.05128205128205128, -0.004884004884004884, -0.09523809523809523, 0.0, -0.0625, 0.0, 0.0
390, 0.047619047619047616, 0.0, -0.19047619047619047, 0.0, -0.0625, 0.0, 0.0
391, 0.05860805860805861, 0.004884004884004884, -0.2503052503052503, 0.0, -0.0625, 0.0, 0.0
392, 0.07814407814407814, 0.02564102564102564, -0.2454212454212454, 0.03125, -0.03125, 0.0, 0.0
393, 0.07936507936507936, -0.029304029304029304, -0.2515262515262515, 0.03125, 0.0, 0.0, 0.0
394, 0.03418803418803419, 0.015873015873015872, -0.06715506715506715, 0.0, 0.0, 0.0, 0.0
395, 0.03296703296703297, 0.018315018315018316, -0.050061050061050064, 0.0, 0.0, 0.0, 0.0
396, 0.028083028083028084, 0.004884004884004884, -0.0695970695970696, 0.0, -0.03125, 0.0, 0.0
397, 0.006105006105006105, 0.01221001221001221, -0.13064713064713065, 0.03125, 0.0, 0.0, 0.0
398, 0.02564102564102564, -0.004884004884004884, -0.1514041514041514, 0.03125, 0.0, 0.0, 0.0
399, 0.0695970695970696, -0.007326007326007326, -0.13064713064713065, 0.0, 0.0, 0.0, 0.0
400, 0.020757020757020756, -0.004884004884004884, -0.10378510378510379, 0.0, -0.0625, -0.03125, 0.0
401, -0.13797313797313798, 0.14652014652014653, -0.004884004884004884, 0.0, -0.0625, -0.03125, 0.0
402, -0.23687423687423687, 0.1807081807081807, 0.06105006105006105, 0.03125, -0.03125, 0.0, 0.0
403, -0.12087912087912088, 0.06471306471306472, 0.1391941391941392, 0.03125, -0.0625, 0.0, 0.0
404, -0.040293040293040296, 0.06105006105006105, 0.3418803418803419, 0.0, -0.09375, 0.0, 0.0
405, 0.12087912087912088, 0.14774114774114774, 0.6056166056166056, 0.0, -0.1875, 0.0, 0.0
406, -0.003663003663003663, 0.22344322344322345, 1.2844932844932846, 0.03125, -0.25, -0.03125, 0.0
407, 0.08547008547008547, 0.5006105006105006, 1.9658119658119657, 0.28125, -0.375, -0.09375, 0.0
408, -0.4835164835164835, 0.030525030525030524, 2.347985347985348, 0.28125, -0.59375, -0.1875, 0.0
409, -0.3199023199023199, 0.503052503052503, 2.89010989010989, 0.1875, -0.59375, -0.1875, 0.0
410, 0.9536019536019537, 1.1965811965811965, 2.601953601953602, 0.4375, -0.6875, -0.21875, 1.0
411, 1.6080586080586081, 0.5177045177045178, -0.20757020757020758, 0.84375, -0.96875, -0.1875, 1.0
412, 3.371184371184371, -0.10256410256410256, -3.3284493284493286, 1.21875, -0.96875, -0.25, 1.0
413, 5.2234432234432235, 0.10012210012210013, -5.181929181929182, 1.09375, -0.6875, -0.4375, 1.0
414, 7.347985347985348, 0.6105006105006106, -6.291819291819292, 0.84375, -0.4375, -0.84375, 1.0
415, 8.533577533577533, 0.45054945054945056, -8.313797313797314, 0.75, -0.5625, -1.28125, 1.0
416, 8.709401709401709, -0.6092796092796092, -10.95970695970696, 0.5, -0.625, -1.71875, 1.0
417, 8.17094017094017, -0.5115995115995116, -12.73137973137973, -0.1875, -0.4375, -2.125, 1.0
418, 5.345543345543345, -1.485958485958486, -14.30891330891331, -0.84375, 0.0, -2.53125, 1.0
419, 1.8107448107448108, -0.8852258852258852, -13.772893772893774, -1.9375, 1.03125, -2.71875, 1.0
420, 0.5555555555555556, -0.37362637362637363, -11.36019536019536, -2.40625, 1.1875, -2.6875, 1.0
421, -0.9462759462759462, -1.4297924297924298, -10.31990231990232, -2.78125, 0.75, -2.6875, 1.0
422, -4.653235653235654, -2.202686202686203, -9.2991452991453, -3.15625, 0.65625, -2.53125, 1.0
423, -7.492063492063492, -2.231990231990232, -7.495726495726496, -3.25, 1.0, -2.03125, 1.0
424, -7.517704517704518, -2.4395604395604398, -5.096459096459096, -3.1875, 1.15625, -1.53125, 1.0
425, -7.26007326007326, -3.3943833943833943, -3.8974358974358974, -3.125, 1.125, -1.125, 1.0
426, -6.818070818070818, -4.609279609279609, -3.31990231990232, -2.96875, 0.84375, -0.8125, 1.0
427, -6.998778998778999, -6.068376068376068, -3.075702075702076, -2.875, 0.53125, -0.5, 1.0
428, -7.173382173382174, -7.514041514041514, -2.7326007326007327, -2.84375, 0.40625, -0.28125, 1.0
429, -6.771672771672772, -8.517704517704518, -2.1794871794871793, -2.90625, 0.1875, -0.09375, 1.0
430, -7.004884004884005, -8.763125763125764, -1.4737484737484738, -2.96875, -0.0625, 0.125, 1.0
431, -6.713064713064713, -8.106227106227106, 0.6874236874236874, -3.03125, -0.59375, 0.46875, 1.0
432, -6.931623931623932, -7.794871794871795, 1.2832722832722834, -3.0625, -0.84375, 0.71875, 1.0
433, -6.995115995115995, -7.56043956043956, 1.7777777777777777, -2.96875, -1.0, 1.0, 1.0
434, -7.002442002442002, -7.004884004884005, 2.1196581196581197, -2.84375, -1.21875, 1.3125, 1.0
435, -7.003663003663004, -7.175824175824176, 2.0952380952380953, -2.625, -1.4375, 1.6875, 1.0
436, -6.632478632478633, -7.515262515262515, 2.2246642246642248, -2.34375, -1.53125, 2.09375, 1.0
437, -5.515262515262515, -8.423687423687424, 2.572649572649573, -2.0, -1.375, 2.4375, 1.0
438, -3.5885225885225887, -9.553113553113553, 2.9755799755799757, -1.71875, -1.375, 2.625, 1.0
439, -1.8339438339438339, -10.178266178266178, 3.427350427350427, -1.71875, -1.90625, 2.59375, 1.0
440, -2.0952380952380953, -9.43956043956044, 4.321123321123321, -1.625, -2.5625, 2.5, 1.0
441, -2.183150183150183, -8.953601953601954, 4.383394383394384, -1.09375, -2.59375, 2.5, 1.0
442, -1.133089133089133, -9.517704517704518, 4.052503052503052, -0.34375, -2.5625, 2.5, 1.0
443, 0.15384615384615385, -9.843711843711844, 4.1440781440781445, -0.09375, -2.90625, 2.40625, 1.0
444, 0.5958485958485958, -9.803418803418804, 4.4041514041514045, 0.15625, -3.21875, 2.3125, 1.0
445, 0.9230769230769231, -9.010989010989011, 4.650793650793651, 0.78125, -3.25, 2.21875, 1.0
446, 2.242979242979243, -9.072039072039072, 4.306471306471306, 1.40625, -3.15625, 2.15625, 1.0
447, 3.5763125763125765, -10.048840048840049, 3.0781440781440783, 1.8125, -3.1875, 1.90625, 1.0
448, 4.130647130647131, -10.882783882783883, 1.63003663003663, 1.90625, -3.15625, 1.53125, 1.0
449, 5.614163614163614, -8.932844932844933, 1.4053724053724053, 2.0625, -3.09375, 1.3125, 1.0
450, 6.896214896214897, -8.04029304029304, 0.6862026862026862, 2.46875, -2.90625, 1.15625, 1.0
451, 7.722832722832723, -7.351648351648351, -0.9145299145299145, 2.9375, -2.46875, 1.0, 1.0
452, 8.263736263736265, -7.5958485958485955, -3.1794871794871793, 3.03125, -1.90625, 0.65625, 1.0
453, 9.282051282051283, -6.778998778998779, -4.249084249084249, 2.75, -1.5, 0.25, 1.0
454, 9.456654456654457, -3.3736263736263736, -4.015873015873016, 2.6875, -1.21875, -0.28125, 1.0
455, 8.708180708180707, -3.0256410256410255, -5.291819291819292, 2.875, -0.8125, -0.5, 1.0
456, 8.488400488400488, -3.2051282051282053, -6.078144078144078, 2.9375, -0.21875, -0.6875, 1.0
457, 9.01953601953602, -2.6117216117216118, -6.380952380952381, 2.875, 0.1875, -0.96875, 1.0
458, 8.2991452991453, -1.84004884004884, -6.853479853479853, 2.78125, 0.375, -1.40625, 1.0
459, 7.172161172161172, -1.2588522588522588, -6.884004884004884, 2.625, 0.4375, -1.78125, 1.0
460, 6.465201465201465, -1.706959706959707, -7.134310134310135, 2.5625, 0.5625, -2.15625, 1.0
461, 3.998778998778999, -1.4737484737484738, -8.33943833943834, 2.46875, 0.71875, -2.59375, 1.0
462, 2.387057387057387, -0.9694749694749695, -8.435897435897436, 2.15625, 0.78125, -2.90625, 1.0
463, 1.0879120879120878, -1.6385836385836385, -7.998778998778999, 1.8125, 0.65625, -3.34375, 1.0
464, -3.9108669108669107, -0.10012210012210013, -8.821733821733822, 1.40625, 0.4375, -3.78125, 1.0
465, -8.015873015873016, 1.5982905982905984, -8.663003663003662, 1.03125, 0.5625, -3.375, 1.0
466, -8.711843711843711, 2.230769230769231, -7.273504273504273, 0.6875, 0.875, -2.9375, 1.0
467, -9.487179487179487, 2.4078144078144077, -6.289377289377289, 0.40625, 0.8125, -2.5625, 1.0
468, -10.041514041514041, 2.6043956043956045, -4.9181929181929185, 0.21875, 0.78125, -2.15625, 1.0
469, -10.157509157509157, 2.272283272283272, -3.5995115995115996, 0.0625, 0.65625, -1.6875, 1.0
470, -9.642246642246642, 1.7887667887667889, -2.155067155067155, 0.0, 0.46875, -1.34375, 1.0
471, -8.673992673992673, 1.2991452991452992, -0.8693528693528694, 0.0, 0.15625, -1.125, 1.0
472, -7.09035409035409, 0.8168498168498168, 0.4456654456654457, -0.03125, -0.28125, -0.90625, 1.0
473, -5.244200244200244, 0.46764346764346765, 1.2588522588522588, -0.03125, -0.6875, -0.8125, 1.0
474, -4.205128205128205, 0.34798534798534797, 1.4761904761904763, 0.0, -0.875, -0.6875, 1.0
475, -3.437118437118437, 0.38583638583638585, 1.0561660561660562, -0.0625, -0.75, -0.46875, 1.0
476, -3.1086691086691087, 0.3772893772893773, -0.20634920634920634, -0.34375, -0.46875, -0.09375, 1.0
477, -1.5506715506715507, 0.2564102564102564, -0.9755799755799756, -0.71875, -0.625, 0.21875, 0.0
478, -0.09645909645909646, 1.021978021978022, -1.0097680097680097, -0.53125, -0.71875, 0.3125, 0.0
479, 0.05128205128205128, 0.4700854700854701, -1.170940170940171, -0.25, -0.5, 0.4375, 0.0
480, 0.9682539682539683, -0.10378510378510379, -1.2405372405372406, -0.15625, -0.34375, 0.46875, 0.0
481, 1.061050061050061, -0.33821733821733824, -1.1037851037851039, -0.09375, -0.28125, 0.40625, 0.0
482, 1.2136752136752136, -0.5653235653235653, -0.6874236874236874, -0.09375, -0.125, 0.25, 0.0
483, 1.1843711843711844, -0.6422466422466423, -0.3308913308913309, -0.15625, -0.03125, 0.25, 0.0
484, 1.0207570207570207, -0.5225885225885226, -0.07326007326007326, -0.1875, 0.0, 0.1875, 0.0
485, 0.4481074481074481, -0.4017094017094017, 0.08791208791208792, -0.1875, -0.0625, 0.15625, 0.0
486, 0.115995115995116, -0.14896214896214896, 0.34798534798534797, -0.125, -0.0625, 0.15625, 0.0
487, -0.07326007326007326, -0.2698412698412698, 0.4468864468864469, -0.0625, -0.03125, 0.1875, 0.0
488, -0.05128205128205128, -0.22344322344322345, 0.4249084249084249, -0.0625, 0.0, 0.15625, 0.0
489, -0.1391941391941392, -0.03296703296703297, 0.5702075702075702, -0.0625, -0.0625, 0.15625, 0.0
490, -0.36874236874236876, 0.2600732600732601, 0.7765567765567766, 0.0, -0.0625, 0.15625, 0.0
491, -0.23565323565323565, 0.17826617826617827, 0.8925518925518926, 0.0625, -0.0625, 0.21875, 0.0
492, 0.014652014652014652, 0.115995115995116, 0.8717948717948718, 0.15625, -0.15625, 0.1875, 0.0
493, 0.008547008547008548, 0.06349206349206349, 0.7411477411477412, 0.21875, -0.1875, 0.15625, 0.0
494, 0.014652014652014652, 0.052503052503052504, 0.4945054945054945, 0.28125, -0.1875, 0.15625, 0.0
495, 0.3076923076923077, 0.17094017094017094, 0.4896214896214896, 0.3125, -0.21875, 0.125, 0.0
496, 0.503052503052503, 0.05372405372405373, 0.2869352869352869, 0.34375, -0.21875, 0.09375, 0.0
497, 0.7667887667887668, -0.013431013431013432, 0.2026862026862027, 0.3125, -0.3125, 0.0, 0.0
498, 0.5421245421245421, 0.1623931623931624, 0.18925518925518925, 0.34375, -0.34375, -0.03125, 0.0
499, 0.652014652014652, 0.231990231990232, 0.36996336996337, 0.375, -0.34375, -0.0625, 0.0
500, 0.7313797313797313, 0.5555555555555556, 0.5421245421245421, 0.5625, -0.34375, -0.1875, 0.0
501, 1.2002442002442002, 0.315018315018315, -0.004884004884004884, 0.59375, -0.40625, -0.25, 0.0
502, 1.376068376068376, 0.3199023199023199, -0.19047619047619047, 0.625, -0.46875, -0.34375, 0.0
503, 1.728937728937729, 0.5299145299145299, -0.2771672771672772, 0.65625, -0.53125, -0.5, 0.0
504, 1.9059829059829059, 0.7228327228327228, -0.63003663003663, 0.78125, -0.59375, -0.6875, 0.0
505, 2.2783882783882783, 0.6568986568986569, -1.15995115995116, 1.0625, -0.59375, -0.9375, 1.0
506, 2.5042735042735043, -0.009768009768009768, -1.7716727716727716, 1.25, -0.59375, -1.125, 1.0
507, 4.046398046398046, -0.5482295482295483, -2.572649572649573, 1.1875, -0.6875, -1.1875, 1.0
508, 4.975579975579976, -1.0757020757020757, -4.08058608058608, 0.9375, -0.9375, -1.375, 1.0
509, 5.130647130647131, -2.271062271062271, -6.589743589743589, 0.8125, -1.03125, -1.6875, 1.0
510, 4.428571428571429, -3.255189255189255, -9.68986568986569, 0.6875, -0.6875, -2.0625, 1.0
511, 3.2185592185592187, -3.595848595848596, -11.659340659340659, 0.5, 0.0, -2.46875, 1.0
512, 1.7216117216117217, -3.225885225885226, -11.910866910866911, -0.3125, 0.625, -3.1875, 1.0
513, -0.8473748473748474, -2.0036630036630036, -11.205128205128204, -1.09375, 0.4375, -3.34375, 1.0
514, -3.2014652014652016, -0.5970695970695971, -10.592185592185592, -1.71875, 0.28125, -3.21875, 1.0
515, -5.205128205128205, -0.884004884004884, -10.877899877899878, -2.28125, 0.21875, -2.9375, 1.0
516, -7.761904761904762, -1.5335775335775337, -10.862026862026863, -2.78125, 0.46875, -2.5625, 1.0
517, -8.57020757020757, -2.7667887667887667, -9.172161172161172, -3.21875, 0.875, -2.15625, 1.0
518, -8.411477411477412, -4.525030525030525, -6.95970695970696, -3.5625, 0.96875, -1.71875, 1.0
519, -8.604395604395604, -6.702075702075702, -5.1208791208791204, -3.875, 0.90625, -1.3125, 1.0
520, -9.048840048840049, -8.205128205128204, -3.5445665445665444, -4.0625, 0.875, -0.90625, 1.0
521, -9.332112332112333, -9.264957264957266, -1.6398046398046398, -4.21875, 0.9375, -0.5, 1.0
522, -9.388278388278389, -9.716727716727716, 0.21123321123321123, -4.1875, 1.0, -0.125, 1.0
523, -8.935286935286936, -9.455433455433456, 1.468864468864469, -4.03125, 0.8125, 0.1875, 1.0
524, -7.836385836385836, -8.816849816849818, 3.3211233211233213, -3.84375, 0.15625, 0.625, 1.0
525, -7.603174603174603, -8.504273504273504, 3.7667887667887667, -3.6875, -0.21875, 0.90625, 1.0
526, -7.617826617826617, -8.095238095238095, 4.0085470085470085, -3.4375, -0.5625, 1.1875, 1.0
527, -7.632478632478633, -7.555555555555555, 4.391941391941392, -3.125, -0.625, 1.5, 1.0
528, -6.496947496947497, -7.35042735042735, 4.945054945054945, -2.6875, -0.65625, 1.8125, 1.0
529, -5.266178266178266, -7.832722832722832, 4.957264957264957, -2.25, -0.875, 2.09375, 1.0
530, -4.516483516483516, -7.717948717948718, 4.996336996336996, -2.09375, -1.25, 2.21875, 1.0
531, -3.808302808302808, -7.371184371184371, 5.455433455433456, -1.9375, -1.625, 2.3125, 1.0
532, -3.2283272283272284, -6.893772893772894, 5.708180708180708, -1.5625, -1.875, 2.375, 1.0
533, -2.93040293040293, -6.721611721611722, 5.380952380952381, -1.09375, -2.03125, 2.46875, 1.0
534, -2.017094017094017, -6.724053724053724, 5.244200244200244, -0.625, -2.21875, 2.59375, 1.0
535, -1.1391941391941391, -6.752136752136752, 4.953601953601954, -0.21875, -2.84375, 2.625, 1.0
536, -1.2905982905982907, -6.368742368742368, 4.517704517704518, 0.0625, -3.09375, 2.53125, 1.0
537, -1.474969474969475, -5.6923076923076925, 3.888888888888889, 0.5625, -3.0, 2.53125, 1.0
538, -0.36385836385836384, -6.2967032967032965, 2.970695970695971, 0.9375, -3.0, 2.5625, 1.0
539, 1.5372405372405373, -6.230769230769231, 2.293040293040293, 1.15625, -3.21875, 2.5625, 1.0
540, 1.6666666666666667, -6.735042735042735, 1.1428571428571428, 1.28125, -3.1875, 2.375, 1.0
541, 2.114774114774115, -7.526251526251526, 0.5128205128205128, 1.21875, -3.03125, 2.125, 1.0
542, 2.606837606837607, -6.061050061050061, 0.9511599511599511, 1.59375, -2.75, 1.90625, 1.0
543, 3.7094017094017095, -4.521367521367521, 1.0463980463980465, 2.125, -2.3125, 1.8125, 1.0
544, 5.6996336996337, -4.124542124542124, 0.33821733821733824, 2.40625, -2.0625, 1.625, 1.0
545, 7.3992673992674, -4.501831501831502, -0.9487179487179487, 2.4375, -1.96875, 1.1875, 1.0
546, 7.482295482295482, -4.557997557997558, -2.4774114774114775, 2.34375, -1.65625, 0.625, 1.0
547, 7.148962148962149, -4.003663003663004, -3.617826617826618, 2.3125, -1.1875, -0.09375, 1.0
548, 6.417582417582418, -1.702075702075702, -4.355311355311355, 2.5, -0.875, -0.375, 1.0
549, 6.048840048840049, -1.4090354090354091, -5.38949938949939, 2.59375, -0.46875, -0.625, 1.0
550, 6.103785103785103, -1.783882783882784, -6.462759462759463, 2.5625, -0.15625, -0.875, 1.0
551, 5.015873015873016, -1.4713064713064714, -6.754578754578755, 2.25, -0.03125, -1.1875, 1.0
552, 4.31990231990232, -0.22466422466422467, -5.957264957264957, 1.90625, 0.15625, -1.5, 1.0
553, 3.4236874236874235, 0.34554334554334554, -5.128205128205129, 1.75, 0.3125, -1.75, 1.0
554, 2.2075702075702077, 0.5885225885225885, -4.47985347985348, 1.6875, 0.46875, -1.96875, 1.0
555, 1.656898656898657, -0.029304029304029304, -4.442002442002442, 1.65625, 0.625, -2.1875, 1.0
556, 0.28815628815628813, -0.3894993894993895, -5.153846153846154, 1.5, 0.59375, -2.40625, 1.0
557, -1.0634920634920635, 0.003663003663003663, -4.968253968253968, 1.15625, 0.46875, -2.5625, 1.0
558, -2.896214896214896, 0.7985347985347986, -4.545787545787546, 0.875, 0.375, -2.6875, 1.0
559, -3.9096459096459095, 0.8791208791208791, -3.791208791208791, 0.625, 0.3125, -2.625, 1.0
560, -5.993894993894994, 1.663003663003663, -3.857142857142857, 0.59375, 0.3125, -2.4375, 1.0
561, -7.076923076923077, 1.7557997557997558, -4.185592185592186, 0.46875, 0.28125, -2.125, 1.0
562, -7.788766788766789, 1.652014652014652, -4.037851037851038, 0.25, 0.28125, -1.75, 1.0
563, -8.264957264957266, 1.6776556776556777, -3.6605616605616604, 0.0, 0.28125, -1.4375, 1.0
564, -8.831501831501832, 1.811965811965812, -2.8742368742368742, 0.0, 0.34375, -1.03125, 1.0
565, -8.424908424908425, 1.3956043956043955, -2.2112332112332114, 0.0, 0.25, -0.75, 1.0
566, -7.704517704517705, 0.9914529914529915, -1.5946275946275947, -0.125, -0.03125, -0.5, 1.0
567, -7.045177045177045, 0.9511599511599511, -0.9841269841269841, -0.25, -0.25, -0.28125, 1.0
568, -5.842490842490842, 0.7521367521367521, -0.5262515262515263, -0.3125, -0.375, -0.0625, 1.0
569, -4.385836385836386, 0.6483516483516484, 0.028083028083028084, -0.3125, -0.375, 0.09375, 1.0
570, -2.9963369963369964, 0.4249084249084249, 0.24175824175824176, -0.46875, -0.28125, 0.40625, 1.0
571, -0.36874236874236876, -0.7118437118437119, -0.34676434676434675, -0.75, -0.25, 0.5, 1.0
572, -0.003663003663003663, -0.3418803418803419, -0.23321123321123322, -0.875, -0.46875, 0.4375, 0.0
573, -0.05128205128205128, 0.002442002442002442, -0.22466422466422467, -0.71875, -0.53125, 0.375, 0.0
574, -0.3418803418803419, 0.08424908424908426, -0.12454212454212454, -0.46875, -0.46875, 0.375, 0.0
575, 0.09035409035409035, 0.03296703296703297, 0.013431013431013432, -0.1875, -0.375, 0.40625, 0.0
576, 0.2673992673992674, -0.11355311355311355, 0.115995115995116, 0.0, -0.4375, 0.40625, 0.0
577, 0.24297924297924298, -0.21123321123321123, 0.10256410256410256, 0.09375, -0.375, 0.34375, 0.0
578, 0.06471306471306472, -0.1978021978021978, 0.03296703296703297, 0.15625, -0.28125, 0.34375, 0.0
579, 0.2148962148962149, -0.20146520146520147, 0.14774114774114774, 0.125, -0.1875, 0.375, 0.0
580, 0.4249084249084249, -0.11721611721611722, 0.38461538461538464, 0.09375, -0.15625, 0.34375, 0.0
581, 0.6166056166056166, -0.11721611721611722, 0.4078144078144078, 0.125, -0.21875, 0.3125, 0.0
582, 0.4896214896214896, 0.01221001221001221, 0.452991452991453, 0.15625, -0.3125, 0.1875, 0.0
583, 0.4993894993894994, 0.14652014652014653, 0.5763125763125763, 0.28125, -0.3125, 0.125, 0.0
584, 0.5702075702075702, -0.028083028083028084, 0.315018315018315, 0.375, -0.3125, 0.0625, 0.0
585, 0.452991452991453, -0.23443223443223443, -0.08302808302808302, 0.3125, -0.28125, -0.03125, 0.0
586, 0.5970695970695971, 0.21978021978021978, 0.03540903540903541, 0.375, -0.25, -0.125, 0.0
587, 0.6642246642246642, 0.2954822954822955, 0.15506715506715507, 0.46875, -0.34375, -0.21875, 0.0
588, 0.6410256410256411, 0.5103785103785103, 0.3882783882783883, 0.59375, -0.4375, -0.28125, 0.0
589, 0.38095238095238093, 0.6141636141636142, 0.28083028083028083, 0.75, -0.5, -0.3125, 0.0
590, 0.945054945054945, 0.8998778998778999, 0.38217338217338215, 0.9375, -0.53125, -0.375, 0.0
591, 1.4212454212454213, 0.009768009768009768, -0.4652014652014652, 0.9375, -0.625, -0.53125, 0.0
592, 2.0598290598290596, -0.28205128205128205, -1.0097680097680097, 0.96875, -0.78125, -0.84375, 0.0
593, 1.9462759462759462, -0.7228327228327228, -1.7582417582417582, 0.96875, -0.75, -1.40625, 1.0
594, 3.065934065934066, -1.5628815628815629, -3.1062271062271063, 0.75, -0.5625, -1.59375, 1.0
595, 3.5225885225885225, -2.0146520146520146, -4.915750915750916, 0.53125, -0.65625, -1.90625, 1.0
596, 3.06959706959707, -3.202686202686203, -8.114774114774114, 0.40625, -0.78125, -2.25, 1.0
597, 1.967032967032967, -3.272283272283272, -11.134310134310134, 0.28125, -0.34375, -2.5625, 1.0
598, 2.166056166056166, -2.8253968253968256, -12.267399267399268, 0.09375, 0.59375, -2.90625, 1.0
599, 0.873015873015873, -2.7655677655677655, -12.785103785103786, -0.34375, 1.125, -3.3125, 1.0
600, -2.1892551892551895, -2.4676434676434678, -12.991452991452991, -1.09375, 1.15625, -3.5, 1.0
601, -4.472527472527473, -1.7179487179487178, -11.592185592185592, -2.125, 0.96875, -3.4375, 1.0
602, -6.029304029304029, -1.656898656898657, -9.377289377289378, -2.84375, 0.84375, -3.375, 1.0
603, -8.291819291819293, -1.6385836385836385, -7.398046398046398, -3.125, 1.09375, -3.15625, 1.0
604, -8.96947496947497, -2.586080586080586, -5.559218559218559, -3.0, 1.5625, -2.78125, 1.0
605, -8.573870573870574, -3.9792429792429793, -4.051282051282051, -3.09375, 1.53125, -2.125, 1.0
606, -7.6361416361416365, -5.190476190476191, -2.600732600732601, -3.46875, 0.96875, -1.71875, 1.0
607, -7.63980463980464, -5.768009768009768, -1.2405372405372406, -3.71875, 0.46875, -1.34375, 1.0
608, -8.233211233211232, -5.824175824175824, -0.17338217338217338, -3.625, 0.375, -0.9375, 1.0
609, -8.245421245421245, -5.953601953601954, 0.6898656898656899, -3.375, 0.3125, -0.5, 1.0
610, -8.568986568986569, -6.006105006105006, 1.4383394383394383, -3.0625, 0.3125, -0.0625, 1.0
611, -8.37973137973138, -5.985347985347985, 2.004884004884005, -2.78125, 0.15625, 0.3125, 1.0
612, -7.6239316239316235, -6.282051282051282, 2.3956043956043955, -2.59375, -0.28125, 0.71875, 1.0
613, -7.002442002442002, -6.593406593406593, 2.8583638583638584, -2.4375, -0.78125, 1.0625, 1.0
614, -7.069597069597069, -6.965811965811966, 2.6666666666666665, -2.28125, -1.03125, 1.375, 1.0
615, -6.492063492063492, -7.162393162393163, 2.58974358974359, -2.15625, -1.09375, 1.625, 1.0
616, -5.428571428571429, -7.073260073260073, 2.716727716727717, -1.96875, -1.28125, 1.78125, 1.0
617, -4.455433455433456, -6.987789987789988, 2.786324786324786, -1.65625, -1.5, 1.96875, 1.0
618, -4.384615384615385, -6.96947496947497, 2.833943833943834, -1.46875, -1.53125, 2.0625, 1.0
619, -3.2612942612942613, -6.5506715506715505, 3.1404151404151404, -1.375, -1.59375, 2.1875, 1.0
620, -2.490842490842491, -6.556776556776557, 3.2735042735042734, -1.21875, -1.78125, 2.28125, 1.0
621, -1.8998778998778998, -6.650793650793651, 3.4896214896214897, -1.21875, -2.1875, 2.375, 1.0
622, -2.1257631257631258, -6.188034188034188, 4.015873015873016, -1.125, -2.5, 2.375, 1.0
623, -2.2332112332112333, -5.843711843711843, 4.168498168498169, -0.75, -2.40625, 2.40625, 1.0
624, -2.128205128205128, -5.62026862026862, 4.028083028083028, -0.25, -2.25, 2.5, 1.0
625, -0.818070818070818, -5.832722832722832, 4.051282051282051, 0.09375, -2.28125, 2.65625, 1.0
626, 0.5396825396825397, -6.554334554334554, 4.067155067155067, 0.1875, -2.6875, 2.6875, 1.0
627, 0.724053724053724, -5.865689865689865, 4.291819291819292, 0.21875, -2.96875, 2.53125, 1.0
628, 0.9242979242979243, -4.814407814407814, 4.073260073260073, 1.1875, -2.65625, 2.375, 1.0
629, 2.294261294261294, -5.572649572649572, 3.462759462759463, 1.71875, -2.09375, 2.34375, 1.0
630, 4.413919413919414, -5.921855921855922, 2.5555555555555554, 1.875, -2.3125, 2.125, 1.0
631, 4.35042735042735, -6.294261294261294, 0.960927960927961, 1.875, -2.5, 1.875, 1.0
632, 3.851037851037851, -5.73992673992674, 0.030525030525030524, 1.875, -2.25, 1.5625, 1.0
633, 4.450549450549451, -3.5665445665445668, -0.001221001221001221, 2.09375, -1.8125, 1.34375, 1.0
634, 5.929181929181929, -3.0976800976800978, -0.5531135531135531, 2.28125, -1.71875, 1.125, 1.0
635, 5.892551892551893, -2.3601953601953602, -1.3492063492063493, 2.4375, -1.71875, 0.8125, 1.0
636, 5.82051282051282, -2.0976800976800978, -2.1062271062271063, 2.59375, -1.46875, 0.5625, 1.0
637, 6.5396825396825395, -1.9365079365079365, -3.045177045177045, 2.625, -1.21875, 0.1875, 1.0
638, 6.965811965811966, -0.9304029304029304, -3.9645909645909647, 2.59375, -1.0625, -0.125, 1.0
639, 6.04029304029304, -0.11721611721611722, -5.412698412698413, 2.5625, -0.78125, -0.4375, 1.0
640, 4.584859584859585, 0.652014652014652, -6.648351648351649, 2.46875, -0.125, -0.75, 1.0
641, 4.417582417582418, 0.07081807081807082, -7.253968253968254, 2.3125, 0.125, -0.9375, 1.0
642, 4.3528693528693525, 0.7289377289377289, -6.865689865689865, 1.875, 0.1875, -1.25, 1.0
643, 3.354090354090354, 1.4102564102564104, -6.12942612942613, 1.53125, 0.21875, -1.59375, 1.0
644, 1.6617826617826619, 1.9694749694749696, -5.702075702075702, 1.4375, 0.34375, -1.84375, 1.0
645, 0.8595848595848596, 1.4981684981684982, -5.111111111111111, 1.34375, 0.53125, -1.96875, 1.0
646, -0.9035409035409036, 2.0586080586080584, -4.816849816849817, 1.15625, 0.59375, -2.15625, 1.0
647, -2.8534798534798536, 2.4285714285714284, -4.498168498168498, 0.96875, 0.625, -2.09375, 1.0
648, -3.4676434676434678, 2.6398046398046398, -3.4713064713064714, 0.78125, 0.71875, -1.90625, 1.0
649, -3.5702075702075704, 2.4590964590964592, -2.67032967032967, 0.6875, 0.78125, -1.71875, 1.0
650, -3.4285714285714284, 1.993894993894994, -3.1001221001221, 0.71875, 0.625, -1.59375, 1.0
651, -4.091575091575091, 1.0744810744810744, -4.0195360195360195, 0.625, 0.3125, -1.375, 1.0
652, -4.673992673992674, 0.5372405372405372, -4.225885225885226, 0.1875, 0.46875, -1.21875, 1.0
653, -4.566544566544566, 0.5934065934065934, -3.5409035409035408, 0.03125, 0.59375, -1.125, 1.0
654, -4.186813186813187, 0.46642246642246643, -2.432234432234432, -0.03125, 0.46875, -1.03125, 1.0
655, -3.967032967032967, 0.4065934065934066, -1.1733821733821734, 0.0, 0.34375, -0.96875, 1.0
656, -3.4884004884004884, -0.004884004884004884, -0.525030525030525, 0.0625, 0.1875, -1.0, 1.0
657, -3.354090354090354, -0.11233211233211234, -0.19413919413919414, 0.0625, 0.0625, -1.0, 1.0
658, -4.418803418803419, 0.7374847374847375, -0.796092796092796, 0.0, 0.0, -0.875, 1.0
659, -4.478632478632479, 1.5091575091575091, -0.7912087912087912, -0.0625, -0.0625, -0.5625, 1.0
660, -3.8742368742368742, 1.6043956043956045, -0.5958485958485958, -0.0625, -0.15625, -0.21875, 1.0
661, -3.1172161172161172, 1.3675213675213675, -0.3772893772893773, -0.03125, -0.09375, 0.0, 1.0
662, -1.9768009768009769, 0.503052503052503, -0.38095238095238093, -0.03125, 0.0, 0.125, 1.0
663, -1.1355311355311355, 0.05128205128205128, -0.304029304029304, -0.1875, 0.0, 0.21875, 1.0
664, -0.2796092796092796, -0.5775335775335775, -0.5054945054945055, -0.40625, -0.09375, 0.21875, 1.0
665, -0.2490842490842491, -0.31746031746031744, -0.3028083028083028, -0.65625, -0.125, 0.25, 1.0
666, -0.08913308913308914, -0.07203907203907203, 0.006105006105006105, -0.71875, 0.0, 0.3125, 1.0
667, 0.0, -0.019536019536019536, 0.16483516483516483, -0.6875, 0.09375, 0.40625, 0.0
668, 1.0305250305250304, -0.6764346764346765, 0.32234432234432236, -0.5, 0.15625, 0.40625, 0.0
669, 0.47741147741147744, -0.16727716727716727, 0.5274725274725275, -0.5, 0.0, 0.34375, 0.0
670, 0.14896214896214896, 0.05860805860805861, 0.5860805860805861, -0.40625, -0.21875, 0.28125, 0.0
671, -0.24297924297924298, 0.3199023199023199, 0.7203907203907204, -0.28125, -0.375, 0.28125, 0.0
672, -0.21611721611721613, 0.44078144078144077, 0.9560439560439561, -0.0625, -0.40625, 0.3125, 0.0
673, -0.009768009768009768, 0.3992673992673993, 1.0476190476190477, 0.25, -0.4375, 0.34375, 0.0
674, 0.358974358974359, 0.28083028083028083, 1.0207570207570207, 0.46875, -0.53125, 0.40625, 0.0
675, 0.6446886446886447, -0.08913308913308914, 0.8290598290598291, 0.5, -0.875, 0.34375, 0.0
676, -0.019536019536019536, -0.7142857142857143, -0.06837606837606838, 0.25, -0.6875, 0.0625, 0.0
677, 0.18681318681318682, -0.10989010989010989, -0.20024420024420025, 0.09375, -0.4375, 0.03125, 0.0
678, 0.7313797313797313, 0.4004884004884005, -0.004884004884004884, 0.25, -0.375, 0.0, 0.0
679, 1.188034188034188, 0.2148962148962149, 0.1514041514041514, 0.3125, -0.5, -0.03125, 0.0
680, 1.164835164835165, 0.33455433455433453, 0.04884004884004884, 0.375, -0.6875, -0.125, 0.0
681, 1.0573870573870574, 0.73992673992674, -0.015873015873015872, 0.65625, -0.65625, -0.3125, 0.0
682, 0.7887667887667887, 0.8327228327228328, -0.3308913308913309, 0.9375, -0.4375, -0.40625, 0.0
683, 1.398046398046398, 1.177045177045177, -0.47741147741147744, 1.25, -0.3125, -0.34375, 1.0
684, 2.2161172161172162, 0.6544566544566545, -1.0634920634920635, 1.5625, -0.15625, -0.53125, 1.0
685, 3.5873015873015874, 0.29181929181929184, -1.6324786324786325, 1.75, -0.0625, -0.875, 1.0
686, 5.819291819291819, 0.1330891330891331, -2.393162393162393, 1.6875, -0.09375, -1.21875, 1.0
687, 7.368742368742368, -2.722832722832723, -4.921855921855922, 1.46875, -0.15625, -1.71875, 1.0
688, 5.321123321123321, -2.68009768009768, -8.216117216117215, 1.21875, -0.15625, -2.21875, 1.0
689, 4.398046398046398, -3.225885225885226, -11.862026862026863, 1.15625, 0.40625, -2.40625, 1.0
690, 4.400488400488401, -4.824175824175824, -14.024420024420024, 0.8125, 1.125, -2.78125, 1.0
691, 4.8791208791208796, -5.884004884004884, -13.145299145299145, -0.15625, 1.28125, -3.28125, 1.0
692, 2.9145299145299144, -5.676434676434677, -11.30891330891331, -1.375, 0.625, -3.71875, 1.0
693, -0.5445665445665445, -4.590964590964591, -9.858363858363859, -2.1875, 0.0, -3.9375, 1.0
694, -4.750915750915751, -4.492063492063492, -9.27838827838828, -2.6875, 0.0, -3.84375, 1.0
695, -6.815628815628815, -4.836385836385836, -7.509157509157509, -3.0625, 0.4375, -3.53125, 1.0
696, -7.496947496947497, -5.8388278388278385, -5.101343101343101, -3.375, 0.75, -3.15625, 1.0
697, -7.95970695970696, -6.581196581196581, -3.0366300366300365, -3.59375, 0.84375, -2.75, 1.0
698, -8.644688644688644, -6.755799755799756, -1.2625152625152625, -3.625, 0.8125, -2.09375, 1.0
699, -9.406593406593407, -6.2905982905982905, 0.09157509157509157, -3.4375, 0.96875, -1.625, 1.0
700, -8.981684981684982, -6.589743589743589, 1.0354090354090355, -3.3125, 0.875, -1.21875, 1.0
701, -8.013431013431013, -6.548229548229548, 1.595848595848596, -3.1875, 0.4375, -0.84375, 1.0
702, -7.676434676434677, -6.280830280830281, 1.879120879120879, -3.09375, -0.15625, -0.46875, 1.0
703, -7.775335775335775, -6.126984126984127, 1.8852258852258852, -3.0, -0.6875, -0.0625, 1.0
704, -7.462759462759463, -5.8498168498168495, 2.0427350427350426, -2.96875, -1.09375, 0.28125, 1.0
705, -7.424908424908425, -5.902319902319903, 2.0354090354090353, -2.9375, -1.3125, 0.65625, 1.0
706, -7.085470085470085, -5.874236874236874, 2.346764346764347, -2.84375, -1.4375, 1.0625, 1.0
707, -6.181929181929182, -6.185592185592186, 2.5763125763125765, -2.65625, -1.59375, 1.40625, 1.0
708, -5.504273504273504, -6.442002442002442, 2.7264957264957266, -2.5, -1.75, 1.6875, 1.0
709, -4.887667887667888, -6.6361416361416365, 2.8693528693528694, -2.28125, -1.6875, 1.875, 1.0
710, -2.706959706959707, -7.05006105006105, 3.352869352869353, -1.875, -1.65625, 2.125, 1.0
711, -1.061050061050061, -8.043956043956044, 3.525030525030525, -1.9375, -2.0, 2.125, 1.0
712, -1.0097680097680097, -7.08058608058608, 4.456654456654457, -2.1875, -2.75, 2.03125, 1.0
713, -1.9365079365079365, -5.694749694749695, 5.115995115995116, -1.78125, -3.03125, 2.0, 1.0
714, -2.15018315018315, -5.4322344322344325, 4.774114774114774, -0.90625, -2.65625, 2.15625, 1.0
715, -0.4822954822954823, -6.531135531135531, 4.211233211233211, -0.3125, -2.40625, 2.25, 1.0
716, 0.5152625152625152, -7.105006105006105, 4.328449328449328, -0.3125, -2.90625, 2.1875, 1.0
717, -0.8241758241758241, -6.301587301587301, 4.227106227106227, -0.1875, -3.34375, 2.0625, 1.0
718, -1.4896214896214897, -5.5225885225885225, 4.164835164835165, 0.4375, -3.03125, 2.125, 1.0
719, 0.5384615384615384, -5.507936507936508, 3.498168498168498, 1.15625, -2.53125, 2.1875, 1.0
720, 3.029304029304029, -6.96947496947497, 2.064713064713065, 1.46875, -2.625, 2.09375, 1.0
721, 2.7985347985347984, -7.390720390720391, 0.7631257631257631, 1.21875, -3.15625, 1.59375, 1.0
722, 2.1343101343101343, -4.792429792429792, 0.38583638583638585, 1.5625, -2.84375, 1.4375, 1.0
723, 3.304029304029304, -3.47985347985348, 0.10866910866910867, 2.125, -2.28125, 1.4375, 1.0
724, 5.437118437118437, -2.7655677655677655, -0.645909645909646, 2.59375, -1.9375, 1.4375, 1.0
725, 7.846153846153846, -3.724053724053724, -2.4761904761904763, 2.59375, -1.78125, 1.125, 1.0
726, 8.614163614163614, -4.456654456654457, -4.102564102564102, 2.25, -1.65625, 0.625, 1.0
727, 8.351648351648352, -3.653235653235653, -3.7362637362637363, 1.96875, -1.4375, 0.03125, 1.0
728, 6.666666666666667, -1.9096459096459097, -2.6385836385836385, 2.03125, -1.0625, -0.34375, 1.0
729, 5.086691086691086, 0.02197802197802198, -2.0549450549450547, 2.34375, -0.75, -0.46875, 1.0
730, 4.108669108669108, 0.23687423687423687, -2.6923076923076925, 2.625, -0.4375, -0.5, 1.0
731, 3.656898656898657, 0.06471306471306472, -3.9853479853479854, 2.625, -0.125, -0.625, 1.0
732, 4.029304029304029, 0.12698412698412698, -5.0476190476190474, 2.375, 0.0, -0.8125, 1.0
733, 3.1758241758241756, 0.9914529914529915, -4.953601953601954, 2.125, 0.21875, -1.0625, 1.0
734, 3.0842490842490844, 0.536019536019536, -4.891330891330892, 2.0625, 0.34375, -1.21875, 1.0
735, 2.2625152625152625, 0.5702075702075702, -5.4041514041514045, 1.90625, 0.4375, -1.46875, 1.0
736, 1.2442002442002442, 0.8205128205128205, -5.78021978021978, 1.8125, 0.625, -1.65625, 1.0
737, 0.6923076923076923, 0.7606837606837606, -5.888888888888889, 1.5625, 0.75, -1.8125, 1.0
738, -0.6776556776556777, 0.8559218559218559, -5.84004884004884, 1.28125, 0.65625, -1.96875, 1.0
739, -2.2637362637362637, 1.2637362637362637, -5.645909645909646, 0.96875, 0.59375, -2.03125, 1.0
740, -3.004884004884005, 1.236874236874237, -4.951159951159951, 0.78125, 0.65625, -1.9375, 1.0
741, -2.7924297924297923, 0.7606837606837606, -3.970695970695971, 0.59375, 0.71875, -1.875, 1.0
742, -3.5238095238095237, 0.9413919413919414, -3.2014652014652016, 0.53125, 0.625, -1.875, 1.0
743, -4.957264957264957, 1.0366300366300367, -3.21001221001221, 0.5, 0.53125, -1.8125, 1.0
744, -5.813186813186813, 1.115995115995116, -3.0256410256410255, 0.375, 0.46875, -1.625, 1.0
745, -6.656898656898657, 1.3028083028083028, -2.84004884004884, 0.0625, 0.375, -1.25, 1.0
746, -6.863247863247863, 1.4664224664224663, -2.004884004884005, 0.03125, 0.34375, -0.96875, 1.0
747, -6.525030525030525, 1.1916971916971917, -1.4700854700854702, 0.0, 0.15625, -0.75, 1.0
748, -5.7936507936507935, 0.9377289377289377, -0.9169719169719169, -0.125, -0.09375, -0.5625, 1.0
749, -4.693528693528694, 0.5152625152625152, -0.6947496947496947, -0.28125, -0.3125, -0.40625, 1.0
750, -3.752136752136752, 0.5042735042735043, -0.4004884004884005, -0.34375, -0.375, -0.25, 1.0
751, -3.391941391941392, 0.9682539682539683, -0.4371184371184371, -0.21875, -0.3125, -0.03125, 1.0
752, -2.515262515262515, 0.7216117216117216, -0.3504273504273504, -0.125, -0.125, 0.15625, 1.0
753, -1.0818070818070817, -0.19291819291819293, -0.47496947496947495, -0.1875, -0.03125, 0.3125, 1.0
754, -0.14041514041514042, -0.9304029304029304, -0.38705738705738707, -0.4375, -0.0625, 0.34375, 1.0
755, -0.07326007326007326, -1.1062271062271063, -0.3711843711843712, -0.71875, 0.0, 0.40625, 0.0
756, -0.1855921855921856, -0.5873015873015873, -0.07814407814407814, -0.71875, 0.03125, 0.46875, 0.0
757, -0.1916971916971917, 0.020757020757020756, 0.9169719169719169, -0.59375, -0.09375, 0.46875, 0.0
758, -0.16361416361416362, 0.1575091575091575, 1.1831501831501832, -0.375, -0.25, 0.4375, 0.0
759, -0.2515262515262515, 0.1514041514041514, 1.3821733821733821, -0.09375, -0.40625, 0.5, 0.0
760, 0.06471306471306472, -0.15262515262515264, 1.3247863247863247, 0.1875, -0.5625, 0.46875, 0.0
761, -0.3894993894993895, -0.4993894993894994, 0.9804639804639804, 0.3125, -0.625, 0.25, 0.0
762, -0.008547008547008548, -0.23931623931623933, 0.8937728937728938, 0.25, -0.5, 0.25, 0.0
763, 0.5958485958485958, -0.2271062271062271, 0.8437118437118437, 0.3125, -0.46875, 0.21875, 0.0
764, 1.1953601953601953, -0.23076923076923078, 0.8058608058608059, 0.375, -0.59375, 0.125, 0.0
765, 1.3565323565323566, 0.3614163614163614, 0.6752136752136753, 0.53125, -0.8125, 0.0, 0.0
766, 1.0818070818070817, 0.17094017094017094, 0.2796092796092796, 0.75, -0.75, -0.03125, 0.0
767, 1.663003663003663, 0.2625152625152625, -0.019536019536019536, 0.96875, -0.5, -0.21875, 0.0
768, 2.5934065934065935, 0.03418803418803419, -0.4932844932844933, 1.03125, -0.46875, -0.4375, 0.0
769, 3.062271062271062, -0.08913308913308914, -1.0525030525030525, 0.84375, -0.5625, -0.625, 0.0
770, 2.871794871794872, 0.23687423687423687, -1.2014652014652014, 0.875, -0.53125, -0.78125, 1.0
771, 3.371184371184371, 0.7948717948717948, -1.424908424908425, 1.0, -0.4375, -1.0, 1.0
772, 3.191697191697192, 0.8778998778998779, -1.5360195360195361, 1.09375, -0.1875, -1.0625, 1.0
773, 3.4224664224664223, 0.8437118437118437, -2.1233211233211233, 1.3125, 0.21875, -1.125, 1.0
774, 4.499389499389499, -0.4017094017094017, -3.623931623931624, 1.40625, 0.5625, -1.4375, 1.0
775, 6.164835164835165, -2.6996336996337, -6.186813186813187, 0.90625, 0.40625, -1.9375, 1.0
776, 6.380952380952381, -4.255189255189255, -8.695970695970695, 0.0, -0.0625, -2.5, 1.0
777, 3.9914529914529915, -3.525030525030525, -9.62026862026862, -0.8125, -0.28125, -3.0, 1.0
778, 0.4017094017094017, -1.7704517704517704, -9.098901098901099, -0.875, 0.28125, -3.21875, 1.0
779, -1.3394383394383393, -0.24175824175824176, -8.428571428571429, -0.34375, 1.3125, -3.1875, 1.0
780, -0.23931623931623933, -2.8034188034188032, -9.75946275946276, -0.90625, 1.125, -3.15625, 1.0
781, -3.1965811965811968, -2.0952380952380953, -8.521367521367521, -1.9375, 0.53125, -3.1875, 1.0
782, -4.975579975579976, -1.9523809523809523, -6.715506715506716, -2.34375, 0.53125, -3.03125, 1.0
783, -5.029304029304029, -2.3663003663003663, -5.305250305250305, -2.5, 0.71875, -2.78125, 1.0
784, -5.024420024420024, -3.2124542124542126, -4.2002442002442, -2.71875, 0.65625, -2.4375, 1.0
785, -5.827838827838828, -4.321123321123321, -3.6166056166056166, -3.0, 0.4375, -2.09375, 1.0
786, -6.965811965811966, -4.960927960927961, -3.1868131868131866, -3.21875, 0.375, -1.75, 1.0
787, -7.531135531135531, -5.459096459096459, -2.371184371184371, -3.25, 0.4375, -1.3125, 1.0
788, -7.632478632478633, -6.167277167277168, -1.4908424908424909, -3.25, 0.53125, -0.90625, 1.0
789, -8.274725274725276, -6.597069597069597, -0.57997557997558, -3.28125, 0.53125, -0.5, 1.0
790, -7.979242979242979, -6.791208791208791, 0.5115995115995116, -3.28125, 0.53125, -0.09375, 1.0
791, -7.2967032967032965, -6.77045177045177, 1.332112332112332, -3.03125, 0.125, 0.375, 1.0
792, -7.190476190476191, -6.7997557997558, 1.4371184371184371, -2.90625, -0.1875, 0.75, 1.0
793, -6.859584859584859, -6.836385836385836, 1.393162393162393, -2.875, -0.53125, 1.03125, 1.0
794, -6.797313797313797, -6.833943833943834, 1.343101343101343, -2.90625, -0.75, 1.34375, 1.0
795, -6.105006105006105, -6.886446886446887, 1.7191697191697193, -2.875, -0.9375, 1.5625, 1.0
796, -5.426129426129426, -6.985347985347985, 2.1807081807081805, -2.71875, -1.1875, 1.8125, 1.0
797, -4.769230769230769, -6.852258852258852, 2.802197802197802, -2.46875, -1.40625, 2.0, 1.0
798, -4.487179487179487, -6.825396825396825, 3.1135531135531136, -2.125, -1.5625, 2.21875, 1.0
799, -3.656898656898657, -7.05006105006105, 3.68009768009768, -1.875, -1.625, 2.34375, 1.0
800, -2.2185592185592187, -7.783882783882784, 4.031746031746032, -1.875, -1.9375, 2.375, 1.0
801, -0.6398046398046398, -7.747252747252747, 4.572649572649572, -1.9375, -2.75, 2.3125, 1.0
802, -0.7643467643467643, -6.954822954822955, 5.125763125763126, -1.65625, -3.28125, 2.28125, 1.0
803, -0.9853479853479854, -6.112332112332112, 4.9072039072039075, -0.65625, -3.125, 2.375, 1.0
804, 0.41147741147741146, -7.130647130647131, 4.3003663003663, -0.03125, -2.9375, 2.40625, 1.0
805, 1.3882783882783882, -7.797313797313797, 3.52991452991453, 0.15625, -3.25, 2.34375, 1.0
806, 1.6703296703296704, -7.473748473748474, 3.5982905982905984, 0.21875, -3.59375, 2.1875, 1.0
807, 1.746031746031746, -6.488400488400488, 3.8595848595848596, 0.625, -3.5625, 2.09375, 1.0
808, 3.1965811965811968, -6.763125763125763, 3.5665445665445668, 1.375, -2.96875, 2.0625, 1.0
809, 5.653235653235654, -8.68131868131868, 2.6056166056166057, 2.0, -2.59375, 1.9375, 1.0
810, 6.886446886446887, -8.852258852258853, 2.214896214896215, 2.15625, -2.65625, 1.53125, 1.0
811, 7.205128205128205, -7.045177045177045, 2.3015873015873014, 2.3125, -2.5625, 1.0, 1.0
812, 7.540903540903541, -4.82051282051282, 1.7777777777777777, 2.6875, -2.34375, 0.59375, 1.0
813, 7.462759462759463, -3.791208791208791, -0.3553113553113553, 3.15625, -2.15625, 0.375, 1.0
814, 7.905982905982906, -4.5506715506715505, -3.1587301587301586, 3.34375, -1.84375, 0.0, 1.0
815, 8.275946275946277, -3.995115995115995, -4.805860805860806, 3.0625, -1.1875, -0.46875, 1.0
816, 7.6996336996337, -1.877899877899878, -6.012210012210012, 2.90625, -0.90625, -0.8125, 1.0
817, 6.102564102564102, -0.6288156288156288, -6.728937728937729, 2.625, -0.6875, -1.03125, 1.0
818, 4.984126984126984, 0.35775335775335776, -6.258852258852259, 2.5625, -0.28125, -1.1875, 1.0
819, 3.954822954822955, 0.4945054945054945, -6.317460317460317, 2.59375, 0.125, -1.28125, 1.0
820, 2.807081807081807, 0.9511599511599511, -7.076923076923077, 2.53125, 0.46875, -1.4375, 1.0
821, 2.706959706959707, 0.7057387057387058, -7.026862026862027, 2.15625, 0.46875, -1.625, 1.0
822, 1.757020757020757, 0.8070818070818071, -6.455433455433456, 1.78125, 0.25, -1.8125, 1.0
823, 0.5335775335775336, 1.1733821733821734, -5.851037851037851, 1.5625, 0.1875, -1.96875, 1.0
824, -1.4639804639804639, 1.4908424908424909, -6.162393162393163, 1.5, 0.375, -1.90625, 1.0
825, -2.21978021978022, 1.3675213675213675, -6.054945054945055, 1.34375, 0.65625, -1.84375, 1.0
826, -2.10989010989011, 0.8473748473748474, -5.687423687423688, 0.90625, 0.59375, -1.8125, 1.0
827, -4.446886446886447, 1.6349206349206349, -4.837606837606837, 0.65625, 0.46875, -1.71875, 1.0
828, -4.947496947496948, 1.5897435897435896, -4.188034188034188, 0.46875, 0.5, -1.5, 1.0
829, -5.199023199023199, 1.3907203907203907, -3.8144078144078146, 0.25, 0.4375, -1.28125, 1.0
830, -5.507936507936508, 1.286935286935287, -3.288156288156288, 0.0, 0.3125, -1.03125, 1.0
831, -5.2063492063492065, 1.1123321123321124, -2.58974358974359, -0.15625, 0.3125, -0.8125, 1.0
832, -4.953601953601954, 0.9133089133089133, -1.5848595848595848, -0.25, 0.28125, -0.59375, 1.0
833, -4.6300366300366305, 0.8046398046398047, -0.6398046398046398, -0.21875, 0.25, -0.4375, 1.0
834, -3.965811965811966, 0.5409035409035409, 0.040293040293040296, -0.15625, 0.1875, -0.28125, 1.0
835, -2.9682539682539684, 0.47741147741147744, 0.5323565323565324, -0.15625, 0.0625, -0.15625, 1.0
836, -2.3333333333333335, 0.28205128205128205, 0.6007326007326007, -0.15625, -0.09375, -0.0625, 1.0
837, -1.6898656898656899, -0.047619047619047616, 0.5653235653235653, -0.21875, -0.21875, 0.03125, 1.0
838, -1.0695970695970696, -0.7326007326007326, 0.3992673992673993, -0.46875, -0.25, 0.3125, 1.0
839, -0.4932844932844933, -0.9523809523809523, 0.23565323565323565, -0.75, -0.125, 0.4375, 0.0
840, 0.17216117216117216, -0.4236874236874237, 0.27228327228327226, -0.65625, -0.1875, 0.46875, 0.0
841, 0.7765567765567766, -0.525030525030525, 0.23321123321123322, -0.53125, -0.375, 0.5, 0.0
842, 0.4725274725274725, -0.1794871794871795, 0.42857142857142855, -0.3125, -0.5, 0.4375, 0.0
843, 0.57997557997558, 0.18192918192918192, 0.7643467643467643, -0.0625, -0.625, 0.5, 0.0
844, 0.8266178266178266, 0.09035409035409035, 0.9499389499389499, 0.21875, -0.75, 0.46875, 0.0
845, 0.9108669108669109, -0.6349206349206349, 0.7545787545787546, 0.25, -0.625, 0.21875, 0.0
846, 1.1196581196581197, -0.7997557997557998, 0.3772893772893773, 0.125, -0.40625, 0.03125, 0.0
847, 1.9902319902319903, -0.5628815628815629, 0.5042735042735043, 0.09375, -0.5, -0.0625, 0.0
848, 2.427350427350427, -0.5470085470085471, 0.5445665445665445, 0.03125, -0.8125, -0.28125, 0.0
849, 2.2051282051282053, 0.27350427350427353, 0.7435897435897436, 0.34375, -1.0625, -0.4375, 0.0
850, 1.4151404151404152, 0.5677655677655677, -0.1343101343101343, 0.8125, -0.8125, -0.59375, 0.0
851, 2.363858363858364, 0.398046398046398, -0.5054945054945055, 1.125, -0.53125, -0.71875, 0.0
852, 3.064713064713065, 0.015873015873015872, -1.10989010989011, 1.09375, -0.46875, -0.71875, 0.0
853, 4.167277167277168, -0.34554334554334554, -2.1135531135531136, 1.0625, -0.28125, -0.84375, 0.0
854, 5.174603174603175, -1.1843711843711844, -2.728937728937729, 1.1875, 0.09375, -1.1875, 1.0
855, 5.135531135531136, -1.15018315018315, -2.832722832722833, 1.21875, 0.40625, -1.65625, 1.0
856, 4.827838827838828, -0.5714285714285714, -3.199023199023199, 1.34375, 0.78125, -1.96875, 1.0
857, 4.884004884004884, -0.6813186813186813, -4.869352869352869, 1.46875, 1.03125, -2.1875, 1.0
858, 5.48962148962149, -2.687423687423687, -7.2063492063492065, 1.28125, 0.65625, -2.4375, 1.0
859, 3.826617826617827, -3.2564102564102564, -8.884004884004884, 0.3125, -0.125, -2.875, 1.0
860, 0.45787545787545786, -1.8461538461538463, -8.556776556776557, -0.5625, -0.34375, -3.21875, 1.0
861, -0.4126984126984127, -1.043956043956044, -8.072039072039072, -0.1875, 1.0, -3.1875, 1.0
862, -0.050061050061050064, -2.7985347985347984, -8.523809523809524, -0.34375, 1.25, -3.21875, 1.0
863, 0.41025641025641024, -4.001221001221001, -8.371184371184372, -1.28125, 0.4375, -3.375, 1.0
864, -1.9755799755799757, -3.3223443223443225, -7.424908424908425, -2.15625, 0.03125, -3.3125, 1.0
865, -4.934065934065934, -2.416361416361416, -6.468864468864469, -2.25, 0.625, -3.0625, 1.0
866, -5.275946275946276, -3.2393162393162394, -5.57020757020757, -2.15625, 1.125, -2.75, 1.0
867, -4.445665445665446, -4.347985347985348, -4.400488400488401, -2.375, 0.90625, -2.5, 1.0
868, -5.00976800976801, -5.661782661782662, -3.6105006105006106, -2.84375, 0.59375, -2.3125, 1.0
869, -5.778998778998779, -6.156288156288157, -2.4932844932844933, -3.28125, 0.5, -2.125, 1.0
870, -6.710622710622711, -5.843711843711843, -1.231990231990232, -3.3125, 0.46875, -1.84375, 1.0
871, -7.15995115995116, -5.929181929181929, -0.3443223443223443, -3.09375, 0.375, -1.40625, 1.0
872, -7.2625152625152625, -6.2625152625152625, -0.03907203907203907, -3.0, 0.21875, -1.0, 1.0
873, -7.57020757020757, -5.995115995115995, 0.42735042735042733, -3.0625, -0.09375, -0.5, 1.0
874, -7.368742368742368, -5.438339438339439, 1.1843711843711844, -3.09375, -0.21875, -0.1875, 1.0
875, -7.597069597069597, -5.173382173382174, 1.647130647130647, -2.96875, -0.5, 0.1875, 1.0
876, -6.993894993894994, -5.043956043956044, 1.866910866910867, -2.8125, -0.78125, 0.625, 1.0
877, -6.844932844932845, -5.323565323565323, 1.822954822954823, -2.65625, -1.09375, 1.03125, 1.0
878, -6.417582417582418, -5.717948717948718, 1.735042735042735, -2.625, -1.15625, 1.375, 1.0
879, -5.454212454212454, -5.5787545787545785, 2.3321123321123323, -2.5625, -1.03125, 1.625, 1.0
880, -4.4664224664224665, -5.7765567765567765, 2.6117216117216118, -2.25, -1.125, 1.90625, 1.0
881, -3.929181929181929, -6.17948717948718, 2.617826617826618, -2.0625, -1.375, 2.125, 1.0
882, -3.371184371184371, -6.418803418803419, 2.9584859584859586, -1.96875, -1.625, 2.3125, 1.0
883, -3.0244200244200243, -5.920634920634921, 3.202686202686203, -1.8125, -1.8125, 2.46875, 1.0
884, -1.9682539682539681, -6.832722832722832, 3.051282051282051, -1.6875, -2.1875, 2.65625, 1.0
885, -1.2393162393162394, -7.180708180708181, 3.4126984126984126, -1.71875, -2.59375, 2.625, 1.0
886, -1.2380952380952381, -7.396825396825397, 4.493284493284493, -1.53125, -2.84375, 2.59375, 1.0
887, -1.0195360195360195, -6.391941391941392, 5.94017094017094, -0.8125, -2.8125, 2.53125, 1.0
888, -0.42735042735042733, -5.511599511599512, 5.581196581196581, 0.0, -2.875, 2.65625, 1.0
889, 0.6361416361416361, -6.166056166056166, 4.4493284493284495, 0.28125, -3.125, 2.59375, 1.0
890, 1.783882783882784, -7.020757020757021, 3.727716727716728, 0.28125, -3.53125, 2.34375, 1.0
891, 1.5946275946275947, -7.344322344322344, 3.4932844932844933, 0.53125, -3.625, 2.0625, 1.0
892, 1.3357753357753357, -5.544566544566544, 3.5213675213675213, 1.34375, -3.21875, 2.0625, 1.0
893, 3.7252747252747254, -4.467643467643468, 3.0598290598290596, 2.0, -2.90625, 2.125, 1.0
894, 6.417582417582418, -4.844932844932845, 2.2625152625152625, 2.21875, -2.90625, 2.03125, 1.0
895, 7.47008547008547, -5.978021978021978, 0.5982905982905983, 2.03125, -2.84375, 1.5625, 1.0
896, 7.694749694749695, -5.831501831501831, -1.442002442002442, 2.15625, -2.53125, 0.90625, 1.0
897, 7.568986568986569, -4.137973137973138, -2.1233211233211233, 2.375, -2.1875, 0.46875, 1.0
898, 7.031746031746032, -2.9572649572649574, -2.866910866910867, 2.5625, -1.8125, 0.28125, 1.0
899, 8.021978021978022, -2.9755799755799757, -3.583638583638584, 2.59375, -1.375, 0.0, 1.0
900, 7.435897435897436, -1.6117216117216118, -5.043956043956044, 2.40625, -1.1875, -0.34375, 1.0
901, 5.581196581196581, -0.41514041514041516, -6.345543345543345, 2.28125, -0.9375, -0.5625, 1.0
902, 5.04029304029304, 0.06227106227106227, -6.224664224664225, 2.15625, -0.40625, -0.6875, 1.0
903, 5.485958485958486, 0.18315018315018314, -5.199023199023199, 2.0, -0.0625, -0.84375, 1.0
904, 4.495726495726496, 0.6947496947496947, -5.054945054945055, 1.90625, 0.0, -1.09375, 1.0
905, 2.89010989010989, 0.7643467643467643, -5.396825396825397, 1.8125, 0.15625, -1.25, 1.0
906, 1.9975579975579976, 0.6996336996336996, -5.347985347985348, 1.5625, 0.34375, -1.4375, 1.0
907, 1.763125763125763, 0.9829059829059829, -4.654456654456655, 1.3125, 0.46875, -1.71875, 1.0
908, 0.6422466422466423, 1.3394383394383393, -4.559218559218559, 1.15625, 0.5, -1.84375, 1.0
909, -0.33577533577533575, 1.5836385836385836, -4.697191697191697, 1.09375, 0.53125, -1.875, 1.0
910, -1.0488400488400489, 1.36996336996337, -4.908424908424909, 0.96875, 0.5, -1.875, 1.0
911, -2.456654456654457, 1.4615384615384615, -5.076923076923077, 0.6875, 0.5625, -1.8125, 1.0
912, -2.970695970695971, 1.7387057387057387, -4.506715506715507, 0.5, 0.625, -1.71875, 1.0
913, -3.5115995115995116, 1.6385836385836385, -3.7924297924297923, 0.3125, 0.53125, -1.5625, 1.0
914, -3.905982905982906, 1.5934065934065933, -2.8913308913308913, 0.25, 0.53125, -1.375, 1.0
915, -4.454212454212454, 1.4004884004884004, -2.4188034188034186, 0.21875, 0.5, -1.15625, 1.0
916, -4.456654456654457, 0.5042735042735043, -1.9609279609279608, 0.03125, 0.4375, -0.96875, 1.0
917, -4.373626373626373, 0.3626373626373626, -1.2808302808302807, -0.09375, 0.375, -0.8125, 1.0
918, -4.119658119658119, 0.36507936507936506, -0.4517704517704518, -0.0625, 0.3125, -0.625, 1.0
919, -3.755799755799756, 0.39438339438339437, 0.013431013431013432, 0.09375, 0.25, -0.40625, 1.0
920, -3.2393162393162394, -0.3247863247863248, -0.17826617826617827, 0.09375, 0.0625, -0.3125, 1.0
921, -3.275946275946276, -0.21245421245421245, -0.27350427350427353, 0.0, 0.09375, -0.21875, 1.0
922, -2.324786324786325, 0.06227106227106227, 0.18803418803418803, -0.0625, 0.15625, -0.09375, 1.0
923, -1.5335775335775337, -0.38217338217338215, 0.23931623931623933, -0.15625, 0.125, 0.0, 1.0
924, -1.0, -0.3968253968253968, 0.326007326007326, -0.46875, 0.09375, 0.09375, 1.0
925, -0.9352869352869353, 0.5885225885225885, 0.5091575091575091, -0.59375, -0.0625, 0.1875, 0.0
926, -1.7240537240537241, 1.2576312576312576, 0.45054945054945056, -0.4375, -0.1875, 0.28125, 0.0
927, -0.9755799755799756, 0.7350427350427351, 0.12698412698412698, -0.375, -0.28125, 0.40625, 0.0
928, -0.002442002442002442, 0.4346764346764347, 0.27350427350427353, -0.28125, -0.375, 0.40625, 0.0
929, 0.525030525030525, 0.19413919413919414, 0.4725274725274725, -0.25, -0.625, 0.4375, 0.0
930, 0.5543345543345544, 0.47863247863247865, 0.8485958485958486, -0.125, -0.9375, 0.4375, 0.0
931, 0.9633699633699634, 0.8266178266178266, 1.297924297924298, 0.46875, -1.1875, 0.53125, 0.0
932, 1.2026862026862026, 0.45665445665445664, 1.1904761904761905, 0.78125, -1.1875, 0.625, 0.0
933, 2.2979242979242978, -0.5470085470085471, 0.6874236874236874, 0.8125, -1.34375, 0.53125, 0.0
934, 2.1355311355311355, -2.1452991452991452, -0.5763125763125763, 0.375, -1.09375, 0.03125, 0.0
935, 2.253968253968254, -1.0805860805860805, -0.9096459096459096, 0.15625, -0.5625, -0.3125, 0.0
936, 3.978021978021978, 0.9316239316239316, 0.10989010989010989, 0.875, -0.53125, -0.53125, 0.0
937, 4.96947496947497, 0.031746031746031744, -0.13553113553113552, 1.40625, -0.84375, -0.46875, 0.0
938, 5.538461538461538, -1.4664224664224663, -1.4395604395604396, 1.4375, -1.0, -0.53125, 0.0
939, 5.3357753357753355, -2.1086691086691087, -3.4346764346764345, 1.0625, -0.65625, -0.96875, 0.0
940, 6.757020757020757, -2.1233211233211233, -4.424908424908425, 0.8125, -0.5, -1.1875, 1.0
941, 7.258852258852259, -2.8205128205128207, -5.518925518925519, 0.84375, -0.53125, -1.4375, 1.0
942, 5.920634920634921, -3.78021978021978, -6.437118437118437, 0.625, -0.125, -1.875, 1.0
943, 4.354090354090354, -3.4993894993894994, -6.665445665445666, 0.25, 0.90625, -2.25, 1.0
944, 4.490842490842491, -3.3455433455433456, -6.007326007326007, -0.03125, 1.25, -2.6875, 1.0
945, 2.978021978021978, -3.4383394383394386, -5.99023199023199, -0.34375, 1.0625, -3.1875, 1.0
946, -0.15018315018315018, -2.935286935286935, -6.101343101343101, -0.71875, 0.6875, -3.59375, 1.0
947, -1.9133089133089134, -1.691086691086691, -6.315018315018315, -1.15625, 0.65625, -3.6875, 1.0
948, -2.3785103785103785, -0.7252747252747253, -6.26007326007326, -1.40625, 0.75, -3.625, 1.0
949, -3.6727716727716726, -1.474969474969475, -6.813186813186813, -1.59375, 0.65625, -3.53125, 1.0
950, -5.242979242979243, -2.4676434676434678, -6.549450549450549, -2.0, 0.6875, -3.375, 1.0
951, -5.362637362637362, -2.3601953601953602, -5.04029304029304, -2.46875, 0.71875, -3.125, 1.0
952, -5.814407814407814, -2.7191697191697193, -3.4505494505494507, -2.71875, 0.71875, -2.75, 1.0
953, -5.726495726495727, -3.3968253968253967, -2.0805860805860807, -2.875, 0.84375, -2.375, 1.0
954, -5.506715506715507, -4.207570207570208, -0.8864468864468864, -3.0, 0.625, -1.875, 1.0
955, -6.095238095238095, -4.592185592185592, -0.2796092796092796, -3.0, 0.5, -1.53125, 1.0
956, -6.621489621489621, -4.609279609279609, 0.27594627594627597, -2.90625, 0.5625, -1.15625, 1.0
957, -6.162393162393163, -4.8901098901098905, 0.7997557997557998, -2.84375, 0.375, -0.8125, 1.0
958, -5.727716727716728, -4.984126984126984, 1.098901098901099, -2.9375, 0.0625, -0.46875, 1.0
959, -5.682539682539683, -4.791208791208791, 1.1916971916971917, -2.9375, -0.3125, -0.125, 1.0
960, -5.915750915750916, -4.4322344322344325, 1.5067155067155067, -2.84375, -0.6875, 0.21875, 1.0
961, -6.398046398046398, -4.4041514041514045, 1.9462759462759462, -2.59375, -0.875, 0.71875, 1.0
962, -6.334554334554334, -4.614163614163614, 2.3492063492063493, -2.375, -0.9375, 1.125, 1.0
963, -5.652014652014652, -5.111111111111111, 2.4346764346764345, -2.21875, -1.0625, 1.5, 1.0
964, -4.923076923076923, -5.7765567765567765, 2.0952380952380953, -2.1875, -1.28125, 1.75, 1.0
965, -4.185592185592186, -6.042735042735043, 2.0305250305250304, -2.21875, -1.40625, 1.9375, 1.0
966, -2.826617826617827, -5.547008547008547, 2.7875457875457874, -1.9375, -1.65625, 2.1875, 1.0
967, -2.6031746031746033, -5.8901098901098905, 2.601953601953602, -1.59375, -1.75, 2.375, 1.0
968, -2.1697191697191696, -6.295482295482295, 2.5750915750915753, -1.3125, -1.65625, 2.46875, 1.0
969, -1.1575091575091576, -6.128205128205129, 2.816849816849817, -1.1875, -1.5, 2.59375, 1.0
970, 0.5567765567765568, -6.557997557997558, 2.750915750915751, -1.03125, -1.65625, 2.625, 1.0
971, 1.5506715506715507, -7.509157509157509, 2.6031746031746033, -1.28125, -2.5, 2.5, 1.0
972, -0.2661782661782662, -6.6642246642246645, 3.5457875457875456, -1.53125, -3.21875, 2.34375, 1.0
973, -1.612942612942613, -5.735042735042735, 4.518925518925519, -1.0625, -2.96875, 2.34375, 1.0
974, -0.8998778998778999, -6.490842490842491, 4.396825396825397, -0.125, -2.3125, 2.53125, 1.0
975, 2.2051282051282053, -8.07081807081807, 3.9621489621489623, 0.21875, -2.53125, 2.65625, 1.0
976, 3.1953601953601956, -8.333333333333334, 3.6105006105006106, 0.0, -3.46875, 2.46875, 1.0
977, 2.548229548229548, -8.073260073260073, 2.7081807081807083, 0.03125, -4.03125, 2.0, 1.0
978, 2.57997557997558, -7.584859584859585, 2.797313797313797, 0.5, -3.65625, 1.78125, 1.0
979, 3.6263736263736264, -5.274725274725275, 3.2564102564102564, 1.21875, -3.3125, 1.71875, 1.0
980, 4.351648351648351, -3.8315018315018317, 2.7655677655677655, 2.125, -2.875, 1.8125, 1.0
981, 7.498168498168498, -4.997557997557998, 0.6727716727716728, 2.78125, -2.78125, 1.65625, 1.0
982, 8.28937728937729, -6.641025641025641, -2.6153846153846154, 2.78125, -2.4375, 1.09375, 1.0
983, 8.231990231990231, -6.003663003663004, -3.7838827838827838, 2.75, -1.71875, 0.59375, 1.0
984, 8.554334554334554, -3.2515262515262515, -3.8485958485958487, 2.96875, -1.1875, 0.25, 1.0
985, 8.2991452991453, -2.0366300366300365, -4.3247863247863245, 3.125, -0.90625, 0.0625, 1.0
986, 7.924297924297925, -1.271062271062271, -5.1953601953601956, 3.1875, -0.5625, -0.09375, 1.0
987, 7.727716727716728, -1.3137973137973138, -6.738705738705739, 3.0, -0.21875, -0.375, 1.0
988, 6.832722832722832, -0.7704517704517705, -7.540903540903541, 2.625, 0.125, -0.65625, 1.0
989, 5.311355311355311, 0.6544566544566545, -6.402930402930403, 2.28125, 0.4375, -1.0, 1.0
990, 4.568986568986569, 0.945054945054945, -5.534798534798535, 2.0, 0.46875, -1.1875, 1.0
991, 3.960927960927961, 0.757020757020757, -4.547008547008547, 1.8125, 0.5625, -1.375, 1.0
992, 3.463980463980464, 0.27472527472527475, -4.0256410256410255, 1.75, 0.5625, -1.59375, 1.0
993, 1.7252747252747254, 0.31746031746031744, -4.207570207570208, 1.625, 0.5, -1.875, 1.0
994, 0.9706959706959707, 0.2222222222222222, -3.8058608058608057, 1.40625, 0.46875, -2.0, 1.0
995, 0.4517704517704518, -0.31013431013431014, -3.572649572649573, 1.21875, 0.375, -2.21875, 1.0
996, -0.6703296703296703, 0.03663003663003663, -3.984126984126984, 1.0625, 0.3125, -2.40625, 1.0
997, -2.4285714285714284, 0.3968253968253968, -4.361416361416361, 0.9375, 0.25, -2.40625, 1.0
998, -3.221001221001221, 0.5396825396825397, -4.108669108669108, 0.75, 0.28125, -2.28125, 1.0
999, -4.196581196581197, 0.9633699633699634, -3.8119658119658117, 0.5625, 0.28125, -2.09375, 1.0
1000, -5.434676434676435, 1.5384615384615385, -3.5213675213675213, 0.375, 0.28125, -1.84375, 1.0
1001, -5.7374847374847375, 1.5274725274725274, -2.7472527472527473, 0.125, 0.34375, -1.3125, 1.0
1002, -5.566544566544566, 1.474969474969475, -1.8742368742368742, 0.09375, 0.375, -1.09375, 1.0
1003, -5.061050061050061, 1.078144078144078, -1.26007326007326, 0.09375, 0.25, -0.90625, 1.0
1004, -4.051282051282051, 0.4346764346764347, -0.6971916971916972, 0.0, -0.03125, -0.8125, 1.0
1005, -3.9755799755799757, 0.5018315018315018, -0.6361416361416361, -0.21875, -0.375, -0.65625, 1.0
1006, -4.188034188034188, 1.1562881562881564, -0.26495726495726496, -0.25, -0.3125, -0.375, 1.0
1007, -3.354090354090354, 1.2026862026862026, 0.02564102564102564, -0.1875, -0.125, -0.03125, 1.0
1008, -1.8913308913308913, 0.23931623931623933, -0.01098901098901099, -0.375, 0.0, 0.25, 1.0
1009, -0.5714285714285714, -0.38461538461538464, 0.13553113553113552, -0.65625, 0.0, 0.46875, 0.0
1010, 0.1452991452991453, -0.23687423687423687, 0.40293040293040294, -0.65625, -0.1875, 0.5, 0.0
1011, 0.33455433455433453, -0.2454212454212454, 0.34065934065934067, -0.53125, -0.40625, 0.53125, 0.0
1012, -0.5079365079365079, 0.43956043956043955, 0.45054945054945056, -0.21875, -0.46875, 0.65625, 0.0
1013, -0.004884004884004884, 0.3968253968253968, 0.8754578754578755, 0.0, -0.59375, 0.75, 0.0
1014, 0.43833943833943834, -0.07081807081807082, 0.8229548229548229, 0.0625, -0.59375, 0.71875, 0.0
1015, 1.10989010989011, -0.10256410256410256, 1.1733821733821734, 0.0625, -0.65625, 0.59375, 0.0
1016, 1.5115995115995116, -0.009768009768009768, 1.73992673992674, 0.09375, -0.6875, 0.5625, 0.0
1017, 2.173382173382173, 0.03663003663003663, 2.1587301587301586, 0.1875, -0.6875, 0.53125, 0.0
1018, 2.8424908424908426, -0.6007326007326007, 2.001221001221001, 0.3125, -0.90625, 0.40625, 0.0
1019, 2.929181929181929, -0.6788766788766789, 1.3247863247863247, 0.3125, -1.0625, 0.09375, 0.0
1020, 3.32967032967033, -0.30036630036630035, 0.7826617826617827, 0.4375, -1.09375, -0.0625, 0.0
1021, 3.9474969474969477, 0.018315018315018316, 0.4542124542124542, 0.875, -1.09375, -0.3125, 0.0
1022, 4.056166056166056, -0.8693528693528694, -0.6947496947496947, 1.25, -1.09375, -0.40625, 0.0
1023, 4.255189255189255, -1.7387057387057387, -2.440781440781441, 1.15625, -0.9375, -0.6875, 0.0
1024, 5.261294261294261, -1.6617826617826619, -3.7716727716727716, 0.71875, -0.46875, -1.15625, 1.0
1025, 6.78998778998779, -1.2551892551892552, -4.168498168498169, 1.0, -0.6875, -1.25, 1.0
1026, 6.9072039072039075, -2.431013431013431, -6.013431013431013, 1.21875, -0.53125, -1.40625, 1.0
1027, 5.978021978021978, -4.516483516483516, -8.333333333333334, 0.84375, 0.3125, -1.9375, 1.0
1028, 6.395604395604396, -4.682539682539683, -8.521367521367521, 0.15625, 1.03125, -2.375, 1.0
1029, 7.83028083028083, -4.056166056166056, -7.045177045177045, -0.4375, 0.5, -2.90625, 1.0
1030, 3.9865689865689866, -3.311355311355311, -6.936507936507937, -0.9375, 0.03125, -3.375, 1.0
1031, -0.21611721611721613, -2.299145299145299, -7.191697191697192, -1.15625, 0.53125, -3.625, 1.0
1032, -1.7216117216117217, -1.2881562881562882, -7.023199023199023, -1.28125, 1.0625, -3.71875, 1.0
1033, -1.774114774114774, -1.1636141636141637, -6.8669108669108665, -1.53125, 0.875, -3.65625, 1.0
1034, -3.9023199023199022, -1.3064713064713065, -7.433455433455434, -1.8125, 0.71875, -3.59375, 1.0
1035, -6.77045177045177, -1.2197802197802199, -7.244200244200244, -2.0625, 1.09375, -3.09375, 1.0
1036, -6.815628815628815, -1.1489621489621489, -5.224664224664225, -2.03125, 1.65625, -2.71875, 1.0
1037, -6.284493284493284, -2.5653235653235655, -3.934065934065934, -2.40625, 1.625, -2.3125, 1.0
1038, -6.700854700854701, -2.9633699633699635, -2.3516483516483517, -2.6875, 1.28125, -2.03125, 1.0
1039, -6.868131868131868, -3.7301587301587302, -1.3235653235653235, -2.625, 1.25, -1.65625, 1.0
1040, -6.702075702075702, -4.474969474969475, -0.6141636141636142, -2.625, 1.1875, -1.3125, 1.0
1041, -7.117216117216117, -4.6300366300366305, 0.07081807081807082, -2.71875, 0.84375, -0.96875, 1.0
1042, -7.6300366300366305, -4.326007326007326, 0.7472527472527473, -2.8125, 0.59375, -0.59375, 1.0
1043, -7.498168498168498, -4.6239316239316235, 1.15018315018315, -2.78125, 0.3125, -0.21875, 1.0
1044, -6.927960927960928, -4.91941391941392, 1.5653235653235653, -2.75, 0.0, 0.1875, 1.0
1045, -6.47985347985348, -5.153846153846154, 1.9536019536019535, -2.75, -0.40625, 0.53125, 1.0
1046, -6.299145299145299, -5.4212454212454215, 1.9438339438339438, -2.78125, -0.84375, 0.875, 1.0
1047, -6.343101343101343, -5.589743589743589, 1.8827838827838828, -2.6875, -1.125, 1.375, 1.0
1048, -5.686202686202686, -5.888888888888889, 1.8766788766788767, -2.5, -1.15625, 1.6875, 1.0
1049, -4.915750915750916, -6.1098901098901095, 1.8034188034188035, -2.34375, -1.15625, 1.875, 1.0
1050, -4.236874236874237, -6.09035409035409, 1.8608058608058609, -2.15625, -1.125, 2.09375, 1.0
1051, -3.5775335775335777, -6.158730158730159, 1.9536019536019535, -2.0, -1.21875, 2.25, 1.0
1052, -2.9816849816849818, -6.152625152625153, 2.1514041514041513, -1.9375, -1.4375, 2.40625, 1.0
1053, -2.518925518925519, -6.183150183150183, 2.52014652014652, -1.75, -1.5625, 2.5625, 1.0
1054, -1.702075702075702, -6.681318681318682, 2.590964590964591, -1.625, -1.6875, 2.65625, 1.0
1055, -0.5726495726495726, -7.2796092796092795, 2.724053724053724, -1.59375, -2.15625, 2.625, 1.0
1056, 0.07326007326007326, -7.3247863247863245, 2.987789987789988, -1.6875, -2.65625, 2.5625, 1.0
1057, -0.01098901098901099, -6.566544566544566, 3.473748473748474, -1.5, -2.9375, 2.53125, 1.0
1058, -0.3125763125763126, -5.333333333333333, 3.774114774114774, -0.875, -2.71875, 2.625, 1.0
1059, 2.52014652014652, -8.157509157509157, 3.63003663003663, -0.09375, -2.5, 2.65625, 1.0
1060, 3.7667887667887667, -8.377289377289378, 4.048840048840049, -0.03125, -2.84375, 2.34375, 1.0
1061, 3.614163614163614, -6.283272283272283, 4.31990231990232, 0.15625, -3.15625, 2.09375, 1.0
1062, 3.982905982905983, -5.295482295482295, 3.9963369963369964, 0.84375, -2.96875, 2.0625, 1.0
1063, 5.888888888888889, -6.273504273504273, 2.490842490842491, 1.5625, -2.5, 2.0, 1.0
1064, 7.498168498168498, -7.504273504273504, 0.684981684981685, 1.75, -2.40625, 1.65625, 1.0
1065, 6.958485958485959, -6.411477411477412, 0.2258852258852259, 1.46875, -2.46875, 1.0625, 1.0
1066, 6.174603174603175, -3.2893772893772892, 0.4908424908424908, 1.4375, -2.34375, 0.71875, 1.0
1067, 6.4774114774114775, -1.6862026862026862, 0.47985347985347987, 1.8125, -2.09375, 0.59375, 1.0
1068, 7.295482295482295, -1.6544566544566544, -0.6495726495726496, 2.15625, -1.84375, 0.53125, 1.0
1069, 7.118437118437118, -2.3492063492063493, -2.336996336996337, 2.28125, -1.84375, 0.34375, 1.0
1070, 6.402930402930403, -2.358974358974359, -3.2063492063492065, 2.0, -1.46875, -0.15625, 1.0
1071, 7.057387057387057, -1.2380952380952381, -2.717948717948718, 2.0, -0.9375, -0.4375, 1.0
1072, 6.848595848595848, -0.9487179487179487, -2.7704517704517704, 2.0625, -0.84375, -0.71875, 1.0
1073, 5.516483516483516, -0.029304029304029304, -3.4053724053724053, 2.125, -0.625, -0.9375, 1.0
1074, 5.21978021978022, -0.28205128205128205, -3.6324786324786325, 2.125, -0.375, -1.125, 1.0
1075, 4.423687423687424, -0.31135531135531136, -4.716727716727717, 2.0, -0.25, -1.40625, 1.0
1076, 2.7936507936507935, 0.47496947496947495, -5.371184371184371, 1.78125, -0.0625, -1.53125, 1.0
1077, 2.41025641025641, 0.8595848595848596, -5.061050061050061, 1.625, 0.0625, -1.625, 1.0
1078, 2.404151404151404, 0.5702075702075702, -4.455433455433456, 1.53125, 0.125, -1.8125, 1.0
1079, 1.0268620268620268, 0.5873015873015873, -4.645909645909646, 1.4375, 0.21875, -1.9375, 1.0
1080, -0.8241758241758241, 1.291819291819292, -4.766788766788767, 1.3125, 0.3125, -1.875, 1.0
1081, -1.413919413919414, 1.0769230769230769, -4.3357753357753355, 1.15625, 0.5, -1.78125, 1.0
1082, -1.061050061050061, 0.884004884004884, -3.912087912087912, 0.84375, 0.53125, -1.8125, 1.0
1083, -3.868131868131868, 2.0134310134310134, -3.970695970695971, 0.59375, 0.40625, -1.65625, 1.0
1084, -4.26984126984127, 2.266178266178266, -3.1074481074481075, 0.3125, 0.5, -1.375, 1.0
1085, -3.4822954822954824, 1.7753357753357752, -2.1953601953601956, 0.1875, 0.59375, -1.15625, 1.0
1086, -3.2246642246642248, 1.321123321123321, -1.5836385836385836, 0.125, 0.53125, -1.0, 1.0
1087, -3.258852258852259, 1.0036630036630036, -1.407814407814408, 0.125, 0.375, -0.875, 1.0
1088, -3.286935286935287, 0.5982905982905983, -1.2722832722832722, 0.0, 0.21875, -0.75, 1.0
1089, -3.081807081807082, 0.4358974358974359, -0.8388278388278388, -0.0625, 0.15625, -0.59375, 1.0
1090, -2.7264957264957266, 0.31746031746031744, -0.33943833943833945, -0.09375, 0.1875, -0.46875, 1.0
1091, -2.2002442002442004, 0.02197802197802198, 0.09768009768009768, -0.0625, 0.25, -0.3125, 1.0
1092, -1.746031746031746, -0.3235653235653236, 0.21978021978021978, -0.1875, 0.3125, -0.15625, 1.0
1093, -1.1941391941391941, -0.27350427350427353, 0.5006105006105006, -0.40625, 0.3125, -0.03125, 1.0
1094, -1.0293040293040292, 0.18437118437118438, 0.6862026862026862, -0.40625, 0.0, 0.03125, 0.0
1095, -0.6642246642246642, 0.05616605616605617, 0.8363858363858364, -0.3125, -0.15625, 0.21875, 0.0
1096, -0.8412698412698413, 0.41025641025641024, 0.7203907203907204, -0.1875, -0.21875, 0.34375, 0.0
1097, -0.0695970695970696, 0.28815628815628813, 0.8034188034188035, -0.03125, -0.375, 0.40625, 0.0
1098, 0.31746031746031744, 0.20512820512820512, 0.9365079365079365, 0.15625, -0.53125, 0.46875, 0.0
1099, 0.46886446886446886, 0.17216117216117216, 1.0622710622710623, 0.34375, -0.6875, 0.53125, 0.0
1100, 0.7167277167277167, -0.22954822954822954, 0.7484737484737485, 0.28125, -0.78125, 0.375, 0.0
1101, 1.3101343101343101, -0.2258852258852259, 0.8388278388278388, 0.15625, -0.9375, 0.3125, 0.0
1102, 1.6043956043956045, -0.05372405372405373, 0.9304029304029304, 0.15625, -1.0, 0.25, 0.0
1103, 2.094017094017094, 0.14407814407814407, 0.9804639804639804, 0.40625, -1.125, 0.0625, 0.0
1104, 2.4590964590964592, 0.35775335775335776, 0.8192918192918193, 0.6875, -1.125, 0.0, 0.0
1105, 2.590964590964591, -0.3443223443223443, 0.1391941391941392, 0.6875, -0.90625, -0.25, 0.0
1106, 3.399267399267399, -0.2271062271062271, -1.0085470085470085, 0.84375, -0.71875, -0.5, 0.0
1107, 3.8253968253968256, -0.5775335775335775, -1.7936507936507937, 0.90625, -0.5, -0.53125, 0.0
1108, 4.6752136752136755, -0.18681318681318682, -1.9023199023199022, 0.8125, -0.375, -0.625, 0.0
1109, 6.225885225885226, -1.0231990231990231, -2.161172161172161, 0.875, -0.625, -0.75, 1.0
1110, 6.402930402930403, -1.9072039072039073, -3.7924297924297923, 0.8125, -0.90625, -0.96875, 1.0
1111, 5.564102564102564, -2.4175824175824174, -5.372405372405372, 0.5625, -0.59375, -1.28125, 1.0
1112, 5.5335775335775335, -3.374847374847375, -6.527472527472527, 0.25, -0.125, -1.6875, 1.0
1113, 4.726495726495727, -2.984126984126984, -6.665445665445666, -0.28125, 0.0625, -2.15625, 1.0
1114, 2.7606837606837606, -1.52014652014652, -6.029304029304029, -0.84375, 0.1875, -2.53125, 1.0
1115, 0.336996336996337, -0.3772893772893773, -5.7374847374847375, -0.9375, 0.53125, -2.8125, 1.0
1116, -0.5958485958485958, -0.1452991452991453, -5.528693528693529, -0.84375, 0.78125, -2.84375, 1.0
1117, -1.9023199023199022, 0.4810744810744811, -6.264957264957265, -0.9375, 1.03125, -2.8125, 1.0
1118, -2.9536019536019538, 0.3089133089133089, -7.34065934065934, -1.1875, 1.3125, -2.6875, 1.0
1119, -3.1697191697191696, -0.042735042735042736, -7.411477411477412, -1.4375, 1.625, -2.5625, 1.0
1120, -3.070818070818071, -1.0231990231990231, -6.942612942612943, -1.75, 1.625, -2.40625, 1.0
1121, -3.006105006105006, -1.6434676434676434, -6.401709401709402, -2.15625, 1.375, -2.25, 1.0
1122, -4.156288156288157, -1.636141636141636, -5.634920634920635, -2.40625, 1.375, -2.0625, 1.0
1123, -4.593406593406593, -2.456654456654457, -4.484737484737485, -2.5625, 1.46875, -1.78125, 1.0
1124, -5.042735042735043, -3.7264957264957266, -3.2686202686202686, -2.71875, 1.5625, -1.53125, 1.0
1125, -5.146520146520147, -4.483516483516484, -2.253968253968254, -2.875, 1.46875, -1.28125, 1.0
1126, -5.598290598290598, -4.8107448107448105, -1.181929181929182, -2.96875, 1.125, -0.96875, 1.0
1127, -6.461538461538462, -4.693528693528694, -0.2844932844932845, -2.9375, 0.9375, -0.625, 1.0
1128, -6.808302808302808, -4.667887667887668, 0.6214896214896215, -2.875, 0.71875, -0.3125, 1.0
1129, -6.694749694749695, -4.786324786324786, 1.7094017094017093, -2.8125, 0.125, 0.1875, 1.0
1130, -6.396825396825397, -4.993894993894994, 2.1257631257631258, -2.84375, -0.3125, 0.53125, 1.0
1131, -6.4212454212454215, -5.306471306471306, 2.065934065934066, -2.8125, -0.75, 0.875, 1.0
1132, -5.5225885225885225, -5.4945054945054945, 2.347985347985348, -2.78125, -0.9375, 1.1875, 1.0
1133, -4.877899877899878, -5.7826617826617825, 2.446886446886447, -2.65625, -1.09375, 1.40625, 1.0
1134, -4.31990231990232, -5.73992673992674, 2.7594627594627594, -2.40625, -1.1875, 1.6875, 1.0
1135, -3.681318681318681, -6.024420024420024, 2.73992673992674, -2.03125, -1.15625, 1.9375, 1.0
1136, -2.7203907203907205, -6.168498168498169, 2.9621489621489623, -1.71875, -1.125, 2.125, 1.0
1137, -2.0964590964590966, -6.518925518925519, 2.9694749694749696, -1.46875, -1.25, 2.25, 1.0
1138, -1.47985347985348, -6.582417582417582, 2.9926739926739927, -1.40625, -1.40625, 2.3125, 1.0
1139, -0.31868131868131866, -6.654456654456655, 3.4053724053724053, -1.375, -1.75, 2.25, 1.0
1140, 0.49572649572649574, -6.236874236874237, 4.031746031746032, -1.34375, -2.625, 2.15625, 1.0
1141, 0.25274725274725274, -6.03052503052503, 3.9865689865689866, -1.15625, -2.875, 2.09375, 1.0
1142, 0.2673992673992674, -5.501831501831502, 3.815628815628816, -0.78125, -2.90625, 2.0625, 1.0
1143, 0.05982905982905983, -5.328449328449328, 3.786324786324786, -0.15625, -2.6875, 2.15625, 1.0
1144, 1.5299145299145298, -5.51037851037851, 3.8034188034188032, 0.34375, -2.5, 2.21875, 1.0
1145, 2.89010989010989, -5.743589743589744, 3.4590964590964592, 0.6875, -2.5, 2.125, 1.0
1146, 4.034188034188034, -6.2796092796092795, 2.94993894993895, 0.84375, -2.5625, 1.96875, 1.0
1147, 5.343101343101343, -6.225885225885226, 2.772893772893773, 0.96875, -2.75, 1.65625, 1.0
1148, 5.1782661782661785, -5.887667887667888, 2.4297924297924296, 1.125, -2.71875, 1.3125, 1.0
1149, 4.783882783882784, -4.473748473748474, 2.1355311355311355, 1.4375, -2.40625, 1.09375, 1.0
1150, 4.891330891330892, -3.6727716727716726, 1.4236874236874237, 1.71875, -2.15625, 1.03125, 1.0
1151, 5.543345543345543, -2.744810744810745, 0.3711843711843712, 1.9375, -1.9375, 0.96875, 1.0
1152, 6.616605616605616, -3.645909645909646, -1.5274725274725274, 2.125, -1.375, 0.71875, 1.0
1153, 7.832722832722832, -3.5811965811965814, -1.4004884004884004, 2.03125, -1.09375, 0.375, 1.0
1154, 7.633699633699634, -2.664224664224664, -1.6532356532356531, 1.96875, -1.09375, 0.0, 1.0
1155, 6.345543345543345, -2.023199023199023, -2.437118437118437, 2.0, -1.03125, -0.34375, 1.0
1156, 5.155067155067155, -1.126984126984127, -2.838827838827839, 1.96875, -0.75, -0.59375, 1.0
1157, 4.877899877899878, -0.6617826617826618, -2.929181929181929, 2.0, -0.40625, -0.71875, 1.0
1158, 4.8046398046398044, -0.47985347985347987, -3.2185592185592187, 1.9375, -0.25, -0.90625, 1.0
1159, 4.054945054945055, -0.10744810744810745, -3.705738705738706, 1.8125, -0.1875, -1.09375, 1.0
1160, 3.4493284493284495, 0.27594627594627597, -3.8424908424908426, 1.6875, 0.0, -1.25, 1.0
1161, 2.9328449328449326, 0.1221001221001221, -3.6727716727716726, 1.625, 0.1875, -1.40625, 1.0
1162, 1.6056166056166057, 0.796092796092796, -3.786324786324786, 1.59375, 0.375, -1.53125, 1.0
1163, 0.6312576312576312, 1.0366300366300367, -3.619047619047619, 1.53125, 0.46875, -1.5, 1.0
1164, 0.45054945054945056, 1.1135531135531136, -3.568986568986569, 1.34375, 0.40625, -1.5625, 1.0
1165, 0.14896214896214896, 0.7936507936507936, -3.568986568986569, 1.21875, 0.3125, -1.65625, 1.0
1166, -1.6776556776556777, 1.2661782661782661, -4.390720390720391, 1.09375, 0.34375, -1.625, 1.0
1167, -2.855921855921856, 1.4493284493284493, -4.501831501831502, 0.90625, 0.5, -1.46875, 1.0
1168, -2.9584859584859586, 1.3711843711843712, -3.978021978021978, 0.75, 0.5625, -1.34375, 1.0
1169, -3.015873015873016, 1.1807081807081807, -3.6971916971916974, 0.5, 0.3125, -1.25, 1.0
1170, -3.877899877899878, 1.2637362637362637, -3.5213675213675213, 0.1875, 0.125, -1.09375, 1.0
1171, -4.3357753357753355, 1.3443223443223444, -2.686202686202686, 0.03125, 0.125, -0.875, 1.0
1172, -3.8925518925518925, 1.1367521367521367, -1.862026862026862, 0.0, 0.15625, -0.6875, 1.0
1173, -3.3736263736263736, 0.7216117216117216, -1.115995115995116, 0.03125, 0.15625, -0.5, 1.0
1174, -2.542124542124542, 0.16483516483516483, -0.5323565323565324, 0.0625, 0.0, -0.40625, 1.0
1175, -2.0097680097680097, -0.28083028083028083, -0.09645909645909646, 0.0, -0.1875, -0.3125, 1.0
1176, -1.9365079365079365, -0.06471306471306472, 0.21245421245421245, -0.0625, -0.28125, -0.1875, 1.0
1177, -1.4297924297924298, -0.09645909645909646, 0.5225885225885226, -0.125, -0.28125, 0.0, 1.0
1178, -0.8095238095238095, -0.4456654456654457, 0.49572649572649574, -0.28125, -0.3125, 0.1875, 1.0
1179, -0.315018315018315, -0.35653235653235654, 0.5873015873015873, -0.5, -0.40625, 0.34375, 0.0
1180, 0.6837606837606838, -0.5982905982905983, 1.0598290598290598, -0.46875, -0.625, 0.4375, 0.0
1181, 0.11233211233211234, 0.1978021978021978, 1.2014652014652014, -0.40625, -0.90625, 0.40625, 0.0
1182, 0.07814407814407814, 0.6617826617826618, 1.442002442002442, -0.0625, -1.0625, 0.46875, 0.0
1183, 0.33577533577533575, -0.014652014652014652, 0.818070818070818, 0.3125, -1.1875, 0.53125, 0.0
1184, 0.44932844932844934, -0.5445665445665445, 0.38461538461538464, 0.28125, -0.90625, 0.3125, 0.0
1185, 1.3284493284493284, -0.5006105006105006, 0.10989010989010989, 0.1875, -0.625, 0.25, 0.0
1186, 2.3772893772893773, -0.45054945054945056, 0.36507936507936506, 0.15625, -0.5, 0.15625, 0.0
1187, 3.1013431013431014, -0.5347985347985348, 0.48595848595848595, 0.1875, -0.90625, 0.0625, 0.0
1188, 2.821733821733822, -0.07203907203907203, 0.3492063492063492, 0.3125, -0.84375, -0.0625, 0.0
1189, 2.542124542124542, 0.47863247863247865, 0.09523809523809523, 0.75, -0.5, -0.15625, 0.0
1190, 3.374847374847375, 0.31746031746031744, -0.38461538461538464, 1.125, -0.28125, -0.21875, 0.0
1191, 5.115995115995116, -0.7362637362637363, -1.3125763125763126, 1.09375, -0.25, -0.34375, 0.0
1192, 5.819291819291819, -0.746031746031746, -2.032967032967033, 0.90625, -0.40625, -0.625, 0.0
1193, 5.581196581196581, -1.1086691086691087, -3.075702075702076, 0.71875, -0.40625, -0.84375, 0.0
1194, 5.2515262515262515, -1.5128205128205128, -4.146520146520147, 0.5625, -0.1875, -1.0, 1.0
1195, 5.490842490842491, -0.9829059829059829, -4.261294261294261, 0.53125, 0.1875, -1.25, 1.0
1196, 6.362637362637362, -1.612942612942613, -4.868131868131868, 0.65625, 0.5, -1.5625, 1.0
1197, 6.91941391941392, -3.4761904761904763, -6.184371184371185, 0.21875, 0.5625, -2.125, 1.0
1198, 5.786324786324786, -3.9108669108669107, -6.8046398046398044, -0.78125, 0.3125, -2.96875, 1.0
1199, -0.23321123321123322, -1.065934065934066, -6.168498168498169, -1.03125, 0.25, -3.21875, 1.0
1200, -2.31013431013431, -0.7948717948717948, -6.115995115995116, -0.96875, 0.71875, -3.25, 1.0
1201, -3.8315018315018317, -0.6507936507936508, -6.844932844932845, -0.90625, 1.28125, -3.0625, 1.0
1202, -4.482295482295482, -1.3064713064713065, -7.5506715506715505, -1.125, 1.5, -2.90625, 1.0
1203, -4.960927960927961, -1.15995115995116, -6.8217338217338215, -1.6875, 1.375, -2.71875, 1.0
1204, -5.865689865689865, -0.7985347985347986, -5.383394383394384, -2.0625, 1.46875, -2.46875, 1.0
1205, -5.73992673992674, -1.921855921855922, -4.488400488400488, -2.09375, 1.625, -2.09375, 1.0
1206, -5.897435897435898, -3.2783882783882783, -4.263736263736264, -2.21875, 1.53125, -1.78125, 1.0
1207, -6.593406593406593, -3.2503052503052503, -3.3943833943833943, -2.625, 1.5625, -1.53125, 1.0
1208, -6.481074481074481, -3.2905982905982905, -1.8388278388278387, -2.78125, 1.5625, -1.21875, 1.0
1209, -6.4603174603174605, -3.547008547008547, -0.6373626373626373, -2.71875, 1.40625, -0.90625, 1.0
1210, -6.230769230769231, -4.014652014652015, -0.0231990231990232, -2.71875, 0.84375, -0.46875, 1.0
1211, -6.517704517704518, -4.238095238095238, 0.29304029304029305, -2.8125, 0.40625, -0.1875, 1.0
1212, -6.77045177045177, -4.4664224664224665, 0.5763125763125763, -2.9375, 0.21875, 0.125, 1.0
1213, -6.024420024420024, -4.390720390720391, 1.2356532356532357, -2.9375, 0.0, 0.4375, 1.0
1214, -5.697191697191697, -4.416361416361417, 1.746031746031746, -2.8125, -0.3125, 0.78125, 1.0
1215, -5.592185592185592, -4.6007326007326, 2.335775335775336, -2.65625, -0.5, 1.125, 1.0
1216, -5.311355311355311, -5.073260073260073, 2.645909645909646, -2.5, -0.625, 1.375, 1.0
1217, -5.043956043956044, -5.264957264957265, 2.6910866910866913, -2.40625, -0.75, 1.625, 1.0
1218, -4.643467643467644, -5.313797313797314, 2.7875457875457874, -2.28125, -0.90625, 1.84375, 1.0
1219, -4.065934065934066, -5.583638583638583, 2.929181929181929, -2.1875, -1.15625, 2.125, 1.0
1220, -3.3907203907203907, -5.6361416361416365, 3.413919413919414, -2.0, -1.3125, 2.3125, 1.0
1221, -2.8376068376068377, -5.984126984126984, 3.623931623931624, -1.75, -1.40625, 2.46875, 1.0
1222, -0.26495726495726496, -6.650793650793651, 4.113553113553113, -1.46875, -1.84375, 2.5, 1.0
1223, 0.463980463980464, -6.52014652014652, 4.388278388278389, -1.34375, -2.3125, 2.4375, 1.0
1224, 0.6288156288156288, -6.35042735042735, 4.272283272283272, -1.125, -2.59375, 2.34375, 1.0
1225, 1.2442002442002442, -6.644688644688645, 4.1782661782661785, -0.71875, -2.625, 2.3125, 1.0
1226, 2.3736263736263736, -7.051282051282051, 4.183150183150183, -0.25, -2.625, 2.28125, 1.0
1227, 2.967032967032967, -5.99023199023199, 3.89010989010989, 0.0, -2.84375, 2.09375, 1.0
1228, 2.7423687423687424, -5.2905982905982905, 3.161172161172161, 0.375, -2.90625, 2.0625, 1.0
1229, 3.816849816849817, -5.17948717948718, 2.526251526251526, 0.71875, -2.84375, 2.0, 1.0
1230, 4.211233211233211, -5.622710622710622, 1.9804639804639805, 0.90625, -2.6875, 1.875, 1.0
1231, 4.487179487179487, -5.8998778998779, 1.6263736263736264, 1.09375, -2.4375, 1.625, 1.0
1232, 4.868131868131868, -4.493284493284493, 1.5054945054945055, 1.3125, -2.25, 1.4375, 1.0
1233, 5.317460317460317, -3.8595848595848596, 1.5995115995115996, 1.625, -1.9375, 1.21875, 1.0
1234, 6.374847374847374, -3.474969474969475, 1.4151404151404152, 1.875, -1.8125, 0.96875, 1.0
1235, 7.076923076923077, -3.907203907203907, 0.33455433455433453, 2.0625, -1.6875, 0.65625, 1.0
1236, 7.1330891330891335, -3.9963369963369964, -0.7838827838827839, 2.09375, -1.53125, 0.3125, 1.0
1237, 7.194139194139194, -2.590964590964591, -1.1172161172161172, 2.125, -1.3125, -0.03125, 1.0
1238, 7.368742368742368, -2.2796092796092795, -2.0952380952380953, 2.0625, -1.3125, -0.34375, 1.0
1239, 5.863247863247863, -1.3833943833943834, -3.0354090354090353, 2.03125, -1.125, -0.5625, 1.0
1240, 4.791208791208791, -0.978021978021978, -3.608058608058608, 2.09375, -0.5625, -0.71875, 1.0
1241, 5.288156288156288, -1.3199023199023199, -3.3504273504273505, 2.03125, -0.1875, -0.9375, 1.0
1242, 5.512820512820513, -0.989010989010989, -3.161172161172161, 1.9375, -0.125, -1.21875, 1.0
1243, 4.297924297924298, -0.5079365079365079, -3.3443223443223444, 1.90625, -0.03125, -1.4375, 1.0
1244, 3.094017094017094, -0.1514041514041514, -3.6324786324786325, 1.84375, 0.0, -1.59375, 1.0
1245, 1.1733821733821734, 0.09157509157509157, -4.010989010989011, 1.5625, 0.15625, -1.8125, 1.0
1246, -0.4835164835164835, 1.2197802197802199, -4.6471306471306475, 1.4375, 0.28125, -1.84375, 1.0
1247, -0.5409035409035409, 1.192918192918193, -4.482295482295482, 1.28125, 0.40625, -1.75, 1.0
1248, -0.3540903540903541, 0.7936507936507936, -3.855921855921856, 1.0625, 0.40625, -1.6875, 1.0
1249, -1.2136752136752136, 0.8852258852258852, -4.001221001221001, 0.9375, 0.375, -1.71875, 1.0
1250, -2.31013431013431, 0.8803418803418803, -4.2625152625152625, 0.75, 0.40625, -1.65625, 1.0
1251, -2.4664224664224665, 0.9035409035409036, -3.553113553113553, 0.4375, 0.375, -1.53125, 1.0
1252, -2.484737484737485, 1.0561660561660562, -2.750915750915751, 0.25, 0.34375, -1.40625, 1.0
1253, -3.3882783882783882, 1.0695970695970696, -2.634920634920635, 0.28125, 0.3125, -1.28125, 1.0
1254, -3.6275946275946276, 0.9462759462759462, -2.166056166056166, 0.21875, 0.375, -1.09375, 1.0
1255, -3.5506715506715505, 0.7142857142857143, -1.5396825396825398, 0.09375, 0.375, -0.90625, 1.0
1256, -3.2283272283272284, 0.57997557997558, -1.0354090354090355, 0.0, 0.3125, -0.71875, 1.0
1257, -3.0976800976800978, 0.2576312576312576, -0.6398046398046398, -0.15625, -0.03125, -0.5625, 1.0
1258, -2.905982905982906, 0.08547008547008547, -0.18925518925518925, -0.34375, -0.09375, -0.40625, 1.0
1259, -2.843711843711844, -0.11477411477411477, -0.23076923076923078, -0.625, -0.03125, -0.15625, 1.0
1260, -2.283272283272283, -0.0231990231990232, -0.029304029304029304, -0.84375, 0.0, 0.0625, 0.0
1261, -1.6324786324786325, 0.24053724053724054, 0.36752136752136755, -0.84375, -0.0625, 0.34375, 0.0
