timestamp, accX, accY, accZ, gyroX, gyroY, gyroZ, button
1, 0.9267399267399268, -0.9658119658119658, 0.8449328449328449, -0.21875, 0.5625, -0.25, 0.0
2, 0.4554334554334554, -0.4590964590964591, 0.884004884004884, -0.03125, 0.59375, -0.28125, 0.0
3, -0.08547008547008547, -0.9926739926739927, 0.796092796092796, 0.15625, 0.78125, -0.28125, 0.0
4, -0.6068376068376068, -0.9926739926739927, 1.1318681318681318, 0.125, 1.0, -0.25, 0.0
5, -0.014652014652014652, -0.9035409035409036, 1.9194139194139195, 0.21875, 1.09375, -0.34375, 0.0
6, -1.061050061050061, -0.27350427350427353, 2.2405372405372406, 0.375, 0.625, -0.625, 0.0
7, -3.1184371184371185, 0.7008547008547008, 2.415140415140415, 0.40625, 0.3125, -0.59375, 1.0
8, -4.985347985347985, 1.9792429792429793, 2.7081807081807083, 0.4375, 0.34375, -0.40625, 1.0
9, -5.3931623931623935, 2.4236874236874235, 3.3565323565323566, 1.0625, 0.34375, -0.28125, 1.0
10, -7.344322344322344, 2.225885225885226, 1.1831501831501832, 1.40625, 0.28125, 0.25, 1.0
11, -8.164835164835164, 1.4432234432234432, -1.774114774114774, 1.125, 0.1875, 0.65625, 1.0
12, -7.592185592185592, 2.247863247863248, -2.2967032967032965, 0.5625, -0.40625, 0.84375, 1.0
13, -8.853479853479854, 3.4774114774114775, -3.021978021978022, 0.40625, -1.25, 1.21875, 1.0
14, -9.49084249084249, 3.6996336996337, -5.2515262515262515, 0.96875, -1.3125, 2.125, 1.0
15, -8.488400488400488, 2.583638583638584, -7.724053724053724, 1.21875, -1.0625, 2.5625, 1.0
16, -6.813186813186813, 1.2844932844932846, -9.968253968253968, 0.78125, -0.90625, 2.84375, 1.0
17, -4.528693528693529, 0.7509157509157509, -10.936507936507937, 0.0625, -1.09375, 3.0, 1.0
18, -2.976800976800977, 1.0427350427350428, -11.598290598290598, -0.28125, -1.40625, 3.1875, 1.0
19, -2.0146520146520146, -0.27594627594627597, -12.93894993894994, -0.5625, -1.1875, 3.34375, 1.0
20, -0.315018315018315, -1.9304029304029304, -13.941391941391942, -0.9375, -0.625, 3.4375, 1.0
21, 3.4249084249084247, -4.384615384615385, -14.332112332112333, -1.59375, -0.53125, 3.3125, 1.0
22, 6.345543345543345, -6.188034188034188, -14.19047619047619, -2.34375, -0.96875, 3.0, 1.0
23, 6.283272283272283, -7.15995115995116, -14.062271062271062, -2.6875, -0.96875, 2.71875, 1.0
24, 5.673992673992674, -8.156288156288156, -13.388278388278389, -2.78125, -0.25, 2.53125, 1.0
25, 6.77045177045177, -10.133089133089133, -11.597069597069597, -2.90625, 0.5, 2.34375, 1.0
26, 9.733821733821733, -13.946275946275946, -7.255189255189255, -3.5625, 1.34375, 1.625, 1.0
27, 9.336996336996338, -14.378510378510379, -4.214896214896215, -3.75, 1.6875, 1.03125, 1.0
28, 8.238095238095237, -14.135531135531135, -1.5006105006105006, -3.8125, 2.03125, 0.46875, 1.0
29, 6.566544566544566, -13.442002442002442, 0.8070818070818071, -3.71875, 2.25, 0.0, 1.0
30, 5.122100122100122, -13.484737484737485, 2.6227106227106227, -3.5, 2.375, -0.4375, 1.0
31, 3.6507936507936507, -13.516483516483516, 4.266178266178266, -3.375, 2.625, -0.90625, 1.0
32, 2.716727716727717, -13.021978021978022, 6.203907203907204, -3.125, 2.75, -1.34375, 1.0
33, 1.8547008547008548, -12.141636141636141, 7.687423687423688, -2.8125, 2.75, -1.78125, 1.0
34, 0.8473748473748474, -11.333333333333334, 8.846153846153847, -2.34375, 2.6875, -2.15625, 1.0
35, 0.009768009768009768, -10.463980463980464, 9.557997557997558, -1.75, 2.53125, -2.46875, 1.0
36, -0.7545787545787546, -10.156288156288156, 9.306471306471307, -1.15625, 2.34375, -2.71875, 1.0
37, -1.800976800976801, -9.787545787545788, 8.927960927960928, -0.59375, 1.6875, -2.90625, 1.0
38, -3.283272283272283, -8.749694749694749, 7.995115995115995, -0.25, 1.5625, -3.0, 1.0
39, -4.893772893772894, -7.902319902319903, 7.076923076923077, -0.03125, 1.90625, -3.03125, 1.0
40, -5.115995115995116, -6.633699633699634, 7.08058608058608, 0.34375, 2.09375, -2.90625, 1.0
41, -4.715506715506716, -5.948717948717949, 7.385836385836386, 0.75, 2.03125, -2.75, 1.0
42, -4.6471306471306475, -5.227106227106227, 7.285714285714286, 1.1875, 1.8125, -2.625, 1.0
43, -4.318681318681318, -4.932844932844933, 6.86080586080586, 1.53125, 1.65625, -2.5625, 1.0
44, -5.416361416361417, -3.4774114774114775, 5.975579975579976, 1.84375, 1.78125, -2.4375, 1.0
45, -5.361416361416361, -2.669108669108669, 5.431013431013431, 2.125, 1.71875, -2.125, 1.0
46, -4.997557997557998, -2.0476190476190474, 5.721611721611722, 2.40625, 1.4375, -1.8125, 1.0
47, -5.660561660561661, -1.9963369963369964, 5.221001221001221, 2.84375, 1.09375, -1.4375, 1.0
48, -6.695970695970696, -1.4407814407814408, 3.5702075702075704, 3.15625, 0.78125, -1.09375, 1.0
49, -6.554334554334554, -1.3455433455433456, 1.6373626373626373, 3.3125, 0.46875, -0.6875, 1.0
50, -8.036630036630036, -0.7167277167277167, -1.0085470085470085, 3.625, 0.15625, -0.3125, 1.0
51, -8.089133089133089, -1.7155067155067154, -3.5225885225885225, 3.90625, -0.125, 0.34375, 1.0
52, -7.004884004884005, -3.105006105006105, -6.0256410256410255, 3.6875, -0.375, 0.78125, 1.0
53, -6.173382173382174, -2.6483516483516483, -7.16971916971917, 3.125, -0.28125, 0.9375, 1.0
54, -6.123321123321123, -0.5201465201465202, -7.457875457875458, 2.78125, 0.0, 1.09375, 1.0
55, -4.371184371184371, -1.0573870573870574, -8.212454212454212, 2.71875, 0.0, 1.53125, 1.0
56, -3.3797313797313797, -1.5506715506715507, -8.562881562881563, 2.25, -0.34375, 1.8125, 1.0
57, -2.5115995115995116, -1.5238095238095237, -8.36996336996337, 1.875, -0.15625, 1.96875, 1.0
58, -0.1330891330891331, -1.641025641025641, -7.227106227106227, 1.65625, 0.21875, 2.0625, 1.0
59, 1.8192918192918193, -1.3736263736263736, -5.551892551892552, 1.4375, 0.125, 2.09375, 1.0
60, 4.9072039072039075, 0.0757020757020757, -4.203907203907204, 1.25, -0.03125, 1.96875, 1.0
61, 6.893772893772894, 0.42002442002442003, -5.354090354090354, 1.03125, -0.25, 1.75, 1.0
62, 7.842490842490842, 0.009768009768009768, -7.041514041514041, 0.71875, -0.21875, 1.4375, 1.0
63, 7.897435897435898, -0.1916971916971917, -7.514041514041514, 0.3125, -0.15625, 1.125, 1.0
64, 6.844932844932845, -0.06837606837606838, -6.531135531135531, -0.09375, 0.03125, 0.84375, 1.0
65, 5.863247863247863, -0.12454212454212454, -4.263736263736264, -0.5, 0.28125, 0.6875, 1.0
66, 5.380952380952381, -0.8424908424908425, -2.3956043956043955, -0.90625, 0.625, 0.65625, 1.0
67, 4.802197802197802, -0.9731379731379731, -1.0256410256410255, -1.1875, 0.84375, 0.53125, 0.0
68, 4.398046398046398, -0.4126984126984127, 0.8656898656898657, -0.96875, 0.75, 0.3125, 0.0
69, 2.9975579975579976, -0.2625152625152625, 1.293040293040293, -0.78125, 0.625, 0.15625, 0.0
70, 2.2393162393162394, -0.4456654456654457, 1.5433455433455434, -0.625, 0.53125, 0.03125, 0.0
71, 1.691086691086691, -0.49572649572649574, 1.8302808302808302, -0.375, 0.5, -0.09375, 0.0
72, 1.4432234432234432, -0.8363858363858364, 2.051282051282051, -0.1875, 0.4375, -0.25, 0.0
73, 0.35775335775335776, -0.9499389499389499, 1.652014652014652, -0.1875, 0.40625, -0.28125, 0.0
74, -0.4993894993894994, -0.8461538461538461, 1.1538461538461537, -0.125, 0.5, -0.25, 0.0
75, -0.8766788766788767, -0.5543345543345544, 1.2661782661782661, -0.125, 0.6875, -0.28125, 0.0
76, -0.7203907203907204, -0.5775335775335775, 1.4945054945054945, 0.0, 0.71875, -0.40625, 0.0
77, -1.3003663003663004, -0.22344322344322345, 1.9914529914529915, 0.21875, 0.59375, -0.53125, 0.0
78, -2.4004884004884004, -0.030525030525030524, 1.7496947496947497, 0.53125, 0.5, -0.46875, 0.0
79, -3.144078144078144, 0.8095238095238095, 1.595848595848596, 0.71875, 0.46875, -0.5625, 0.0
80, -4.374847374847374, 1.3956043956043955, 1.3357753357753357, 0.78125, 0.28125, -0.53125, 0.0
81, -4.989010989010989, 1.8534798534798536, 1.4542124542124542, 1.0, 0.09375, -0.34375, 0.0
82, -7.183150183150183, 2.700854700854701, 0.7094017094017094, 1.09375, -0.125, -0.03125, 1.0
83, -8.473748473748474, 2.855921855921856, -0.1343101343101343, 1.28125, -0.28125, 0.46875, 1.0
84, -8.726495726495726, 3.114774114774115, -1.6776556776556777, 1.25, -0.46875, 1.3125, 1.0
85, -8.608058608058608, 3.1184371184371185, -3.2356532356532357, 1.125, -0.84375, 1.71875, 1.0
86, -9.16971916971917, 3.1245421245421245, -5.192918192918193, 0.9375, -0.96875, 2.09375, 1.0
87, -8.5995115995116, 2.7985347985347984, -6.656898656898657, 0.71875, -0.90625, 2.53125, 1.0
88, -7.155067155067155, 1.6764346764346765, -8.4993894993895, 0.375, -0.84375, 2.875, 1.0
89, -4.766788766788767, 0.5653235653235653, -10.128205128205128, 0.03125, -0.875, 3.1875, 1.0
90, -1.877899877899878, -1.225885225885226, -12.421245421245422, -0.1875, -0.9375, 3.40625, 1.0
91, 0.6910866910866911, -3.4493284493284495, -14.937728937728938, -0.71875, -0.75, 3.375, 1.0
92, 2.9108669108669107, -4.875457875457876, -15.735042735042734, -1.4375, -0.40625, 3.25, 1.0
93, 4.4212454212454215, -5.665445665445666, -15.051282051282051, -2.03125, -0.125, 3.125, 1.0
94, 5.423687423687424, -6.483516483516484, -13.921855921855922, -2.34375, 0.3125, 2.96875, 1.0
95, 7.183150183150183, -7.517704517704518, -11.991452991452991, -2.78125, 0.78125, 2.4375, 1.0
96, 9.168498168498168, -9.846153846153847, -8.08058608058608, -3.21875, 0.96875, 2.0, 1.0
97, 8.452991452991453, -10.424908424908425, -5.744810744810745, -3.5625, 1.0625, 1.59375, 1.0
98, 7.8559218559218555, -11.114774114774114, -2.733821733821734, -3.625, 1.46875, 1.21875, 1.0
99, 7.581196581196581, -12.089133089133089, -0.2087912087912088, -3.34375, 1.84375, 0.84375, 1.0
100, 7.15995115995116, -12.752136752136753, 1.9377289377289377, -3.0625, 1.875, 0.40625, 1.0
101, 6.063492063492063, -12.506715506715507, 3.619047619047619, -2.84375, 1.84375, 0.0, 1.0
102, 4.90964590964591, -12.366300366300367, 4.672771672771673, -2.5, 2.0, -0.4375, 1.0
103, 4.253968253968254, -11.73015873015873, 5.627594627594628, -2.3125, 2.21875, -1.0, 1.0
104, 3.8656898656898657, -11.231990231990231, 6.456654456654457, -2.21875, 2.25, -1.5, 1.0
105, 2.271062271062271, -10.427350427350428, 7.028083028083028, -2.09375, 2.09375, -1.875, 1.0
106, 0.9487179487179487, -9.43956043956044, 7.172161172161172, -1.71875, 2.0625, -2.1875, 1.0
107, -0.050061050061050064, -9.275946275946277, 6.788766788766789, -1.15625, 2.125, -2.53125, 1.0
108, -0.6715506715506715, -8.72039072039072, 6.601953601953602, -0.90625, 2.15625, -2.6875, 1.0
109, -1.2637362637362637, -8.217338217338217, 6.594627594627594, -0.625, 1.96875, -2.84375, 1.0
110, -2.103785103785104, -7.915750915750916, 6.474969474969475, -0.375, 1.8125, -2.96875, 1.0
111, -3.1355311355311355, -7.365079365079365, 6.207570207570208, -0.125, 1.6875, -3.03125, 1.0
112, -4.377289377289378, -5.521367521367521, 6.141636141636142, 0.34375, 1.65625, -3.0, 1.0
113, -5.542124542124542, -4.7936507936507935, 5.719169719169719, 0.75, 1.8125, -2.875, 1.0
114, -5.648351648351649, -4.409035409035409, 5.711843711843712, 1.0625, 1.90625, -2.78125, 1.0
115, -4.827838827838828, -4.317460317460317, 6.007326007326007, 1.25, 1.65625, -2.625, 1.0
116, -4.501831501831502, -3.860805860805861, 6.039072039072039, 1.46875, 1.09375, -2.5, 1.0
117, -5.551892551892552, -2.2246642246642248, 5.625152625152626, 1.875, 0.875, -2.34375, 1.0
118, -6.642246642246643, -1.5274725274725274, 5.010989010989011, 2.34375, 1.03125, -2.09375, 1.0
119, -6.288156288156288, -1.6092796092796093, 4.577533577533577, 2.78125, 0.8125, -1.59375, 1.0
120, -6.746031746031746, -0.7631257631257631, 3.559218559218559, 3.09375, 0.25, -1.25, 1.0
121, -9.031746031746032, 0.2258852258852259, 0.8559218559218559, 3.40625, 0.03125, -0.8125, 1.0
122, -8.197802197802197, 0.2869352869352869, -0.5836385836385837, 3.4375, 0.15625, -0.34375, 1.0
123, -6.865689865689865, -0.5396825396825397, -1.4175824175824177, 3.25, 0.125, 0.0625, 1.0
124, -7.118437118437118, -1.6947496947496947, -3.606837606837607, 3.125, -0.1875, 0.46875, 1.0
125, -5.83028083028083, -1.0195360195360195, -4.252747252747253, 3.0, -0.4375, 0.84375, 1.0
126, -6.481074481074481, -0.5018315018315018, -5.7826617826617825, 2.96875, -0.5625, 1.1875, 1.0
127, -5.86080586080586, -1.4566544566544566, -7.726495726495727, 2.8125, -0.21875, 1.53125, 1.0
128, -3.0415140415140414, -1.4713064713064714, -8.197802197802197, 2.28125, -0.03125, 1.8125, 1.0
129, -0.9267399267399268, -0.9902319902319903, -8.056166056166056, 1.84375, -0.3125, 1.96875, 1.0
130, 0.46764346764346765, 0.1282051282051282, -8.102564102564102, 1.65625, -0.0625, 2.09375, 1.0
131, 2.584859584859585, -0.5921855921855922, -8.084249084249084, 1.59375, 0.15625, 2.03125, 1.0
132, 4.117216117216117, -1.691086691086691, -7.910866910866911, 1.0625, 0.21875, 1.875, 1.0
133, 6.130647130647131, -1.0476190476190477, -6.145299145299146, 0.46875, 0.28125, 1.625, 1.0
134, 7.78998778998779, -0.2857142857142857, -4.556776556776557, 0.25, 0.3125, 1.375, 1.0
135, 8.461538461538462, -1.3907203907203907, -4.395604395604396, -0.15625, 0.375, 1.1875, 1.0
136, 8.250305250305251, -2.2051282051282053, -4.521367521367521, -0.875, 0.5, 0.90625, 0.0
137, 6.953601953601954, -0.8888888888888888, -3.294261294261294, -0.96875, 0.53125, 0.5625, 0.0
138, 6.368742368742368, -0.9291819291819292, -1.667887667887668, -1.09375, 0.46875, 0.25, 0.0
139, 4.997557997557998, -0.5115995115995116, -0.14163614163614163, -0.9375, 0.5, -0.09375, 0.0
140, 4.031746031746032, -0.29304029304029305, 1.0561660561660562, -0.5625, 0.4375, -0.4375, 0.0
141, 3.172161172161172, -0.4017094017094017, 1.5873015873015872, -0.34375, 0.375, -0.59375, 0.0
142, 1.7448107448107448, -0.3199023199023199, 1.2747252747252746, -0.21875, 0.5, -0.65625, 0.0
143, 1.0244200244200243, -0.2905982905982906, 1.2466422466422467, -0.125, 0.625, -0.625, 0.0
144, 0.26495726495726496, -0.5091575091575091, 1.1672771672771673, 0.03125, 0.71875, -0.78125, 0.0
145, -0.6019536019536019, -0.5201465201465202, 1.424908424908425, 0.15625, 0.96875, -0.78125, 0.0
146, -0.7936507936507936, -0.14041514041514042, 2.1538461538461537, 0.40625, 1.1875, -0.78125, 0.0
147, -1.5115995115995116, -0.0463980463980464, 2.387057387057387, 0.875, 1.125, -0.84375, 0.0
148, -2.061050061050061, -0.24297924297924298, 2.427350427350427, 1.15625, 0.71875, -0.90625, 0.0
149, -4.726495726495727, 0.07448107448107448, 2.4334554334554332, 0.90625, 0.28125, -0.6875, 0.0
150, -6.029304029304029, 1.1636141636141637, 2.568986568986569, 0.84375, 0.09375, -0.4375, 0.0
151, -7.032967032967033, 2.343101343101343, 2.6617826617826617, 0.96875, 0.0, -0.15625, 1.0
152, -8.722832722832722, 3.3223443223443225, 1.746031746031746, 1.1875, -0.125, 0.25, 1.0
153, -9.354090354090355, 3.5616605616605614, 0.3907203907203907, 1.28125, -0.4375, 1.09375, 1.0
154, -10.611721611721611, 4.495726495726496, -1.5726495726495726, 1.15625, -0.96875, 1.71875, 1.0
155, -10.485958485958486, 4.095238095238095, -4.185592185592186, 1.09375, -0.9375, 2.375, 1.0
156, -7.986568986568987, 2.3345543345543347, -6.9181929181929185, 0.90625, -0.875, 2.8125, 1.0
157, -4.6239316239316235, 0.36752136752136755, -9.55067155067155, 0.625, -0.90625, 3.03125, 1.0
158, -2.0256410256410255, -1.3199023199023199, -12.094017094017094, 0.09375, -0.8125, 3.03125, 1.0
159, -0.09035409035409035, -1.3882783882783882, -13.114774114774114, -0.3125, -0.46875, 3.0625, 1.0
160, 2.5982905982905984, -2.1648351648351647, -13.57997557997558, -0.65625, -0.25, 3.0625, 1.0
161, 4.6752136752136755, -3.1123321123321124, -13.716727716727716, -1.0625, -0.09375, 3.0, 1.0
162, 6.6996336996337, -4.967032967032967, -13.512820512820513, -1.78125, -0.09375, 2.65625, 1.0
163, 7.598290598290598, -6.571428571428571, -12.188034188034187, -2.625, 0.21875, 2.1875, 1.0
164, 8.257631257631258, -7.096459096459096, -9.71062271062271, -2.90625, 0.59375, 1.8125, 1.0
165, 8.382173382173383, -8.04029304029304, -7.622710622710622, -3.15625, 1.03125, 1.21875, 1.0
166, 8.548229548229548, -8.727716727716727, -3.485958485958486, -3.3125, 1.03125, 0.78125, 1.0
167, 7.083028083028083, -8.645909645909645, -2.0036630036630036, -3.15625, 1.1875, 0.375, 1.0
168, 5.527472527472527, -9.063492063492063, -0.8693528693528694, -3.15625, 1.375, 0.0, 1.0
169, 4.601953601953602, -9.191697191697191, 0.8534798534798534, -3.1875, 1.71875, -0.4375, 1.0
170, 4.476190476190476, -9.586080586080586, 2.4993894993894994, -3.03125, 1.9375, -0.75, 1.0
171, 4.383394383394384, -9.25885225885226, 4.26007326007326, -2.6875, 1.96875, -1.09375, 1.0
172, 3.9108669108669107, -9.108669108669108, 5.175824175824176, -2.34375, 2.0, -1.46875, 1.0
173, 3.0537240537240535, -9.012210012210012, 5.8998778998779, -2.125, 1.90625, -1.90625, 1.0
174, 1.8815628815628815, -8.012210012210012, 7.075702075702075, -2.03125, 1.625, -2.21875, 1.0
175, 0.7631257631257631, -6.64957264957265, 8.152625152625152, -1.84375, 1.4375, -2.46875, 1.0
176, -0.030525030525030524, -6.518925518925519, 8.603174603174603, -1.375, 1.3125, -2.5625, 1.0
177, -1.1587301587301588, -6.345543345543345, 8.378510378510379, -0.53125, 1.21875, -2.78125, 1.0
178, -2.365079365079365, -6.334554334554334, 7.688644688644689, -0.125, 1.25, -2.875, 1.0
179, -3.0268620268620268, -5.921855921855922, 7.184371184371185, 0.125, 1.21875, -2.96875, 1.0
180, -4.017094017094017, -5.321123321123321, 6.791208791208791, 0.34375, 1.03125, -2.90625, 1.0
181, -4.710622710622711, -4.750915750915751, 6.634920634920635, 0.5625, 0.8125, -2.71875, 1.0
182, -5.257631257631258, -4.141636141636142, 6.526251526251526, 0.75, 0.78125, -2.5625, 1.0
183, -4.727716727716728, -3.463980463980464, 6.6068376068376065, 1.0, 0.71875, -2.34375, 1.0
184, -4.394383394383395, -2.711843711843712, 6.721611721611722, 1.34375, 0.5625, -2.1875, 1.0
185, -5.827838827838828, -2.542124542124542, 5.571428571428571, 1.625, 0.5625, -2.03125, 1.0
186, -6.329670329670329, -1.7032967032967032, 5.190476190476191, 2.03125, 0.6875, -1.71875, 1.0
187, -5.540903540903541, -1.8485958485958487, 5.115995115995116, 2.3125, 0.59375, -1.46875, 1.0
188, -4.451770451770452, -1.8302808302808302, 5.308913308913309, 2.65625, 0.375, -1.15625, 1.0
189, -5.897435897435898, -1.2820512820512822, 2.490842490842491, 2.90625, 0.0625, -0.8125, 1.0
190, -5.672771672771673, -1.2527472527472527, 1.4713064713064714, 3.0, -0.09375, -0.53125, 1.0
191, -6.242979242979243, -1.6251526251526252, -0.7277167277167277, 3.0625, -0.21875, -0.25, 1.0
192, -6.245421245421245, -1.3992673992673992, -2.634920634920635, 3.03125, -0.34375, 0.09375, 1.0
193, -5.8046398046398044, -1.1575091575091576, -3.9865689865689866, 2.9375, -0.375, 0.46875, 1.0
194, -4.378510378510379, -0.9914529914529915, -4.9462759462759465, 2.75, -0.25, 0.78125, 1.0
195, -3.6214896214896215, -0.06227106227106227, -5.937728937728938, 2.5625, -0.15625, 1.03125, 1.0
196, -3.4297924297924296, 0.020757020757020756, -6.672771672771673, 2.59375, -0.09375, 1.3125, 1.0
197, -1.894993894993895, -0.38583638583638585, -6.979242979242979, 2.40625, 0.0, 1.53125, 1.0
198, -0.4346764346764347, -1.0268620268620268, -6.388278388278389, 1.96875, 0.0, 1.625, 1.0
199, 0.3528693528693529, -0.7948717948717948, -4.921855921855922, 1.4375, -0.09375, 1.6875, 1.0
200, 2.537240537240537, 1.2503052503052503, -3.84981684981685, 1.375, -0.21875, 1.71875, 1.0
201, 4.028083028083028, 0.6691086691086691, -5.075702075702075, 1.40625, -0.1875, 1.6875, 1.0
202, 4.8388278388278385, -0.4346764346764347, -7.147741147741148, 1.0, -0.09375, 1.53125, 1.0
203, 5.2002442002442, -1.3443223443223444, -8.333333333333334, 0.09375, -0.03125, 1.4375, 1.0
204, 4.398046398046398, -0.8766788766788767, -7.74969474969475, -0.6875, 0.1875, 1.3125, 0.0
205, 4.289377289377289, -0.6202686202686203, -5.51037851037851, -0.90625, 0.53125, 1.15625, 0.0
206, 4.284493284493284, 0.7228327228327228, -3.3235653235653237, -0.6875, 0.84375, 0.875, 0.0
207, 4.656898656898657, 0.17094017094017094, -2.1587301587301586, -0.5, 0.9375, 0.625, 0.0
208, 4.956043956043956, -0.8620268620268621, -1.6556776556776556, -0.59375, 0.75, 0.21875, 0.0
209, 3.9621489621489623, -0.8778998778998779, -1.2307692307692308, -0.75, 0.6875, -0.0625, 0.0
210, 2.7875457875457874, -0.612942612942613, -0.4908424908424908, -0.78125, 0.78125, -0.15625, 0.0
211, 1.3833943833943834, -0.5164835164835165, 0.38705738705738707, -0.71875, 1.09375, -0.1875, 0.0
212, 1.122100122100122, 0.11477411477411477, 3.293040293040293, -0.34375, 1.46875, -0.3125, 0.0
213, 0.78998778998779, -0.11233211233211234, 3.7362637362637363, 0.15625, 1.40625, -0.5, 0.0
214, 0.967032967032967, -0.8583638583638583, 3.5763125763125765, 0.5, 1.125, -0.65625, 0.0
215, 0.2857142857142857, -1.3943833943833943, 3.253968253968254, 0.4375, 0.6875, -0.75, 0.0
216, -0.5128205128205128, -0.7411477411477412, 3.727716727716728, 0.46875, 0.15625, -0.875, 0.0
217, -2.722832722832723, -0.1575091575091575, 3.437118437118437, 0.625, -0.0625, -0.78125, 0.0
218, -4.131868131868132, 0.6691086691086691, 3.536019536019536, 1.0, 0.09375, -0.625, 0.0
219, -5.94017094017094, 1.492063492063492, 2.3223443223443225, 1.28125, 0.15625, -0.375, 1.0
220, -7.311355311355311, 1.9841269841269842, 1.1514041514041513, 1.1875, -0.125, 0.0, 1.0
221, -9.615384615384615, 3.5982905982905984, -0.14041514041514042, 1.0, -0.53125, 0.46875, 1.0
222, -10.833943833943835, 4.4322344322344325, -1.4713064713064714, 1.09375, -0.65625, 1.125, 1.0
223, -10.463980463980464, 3.6617826617826617, -3.3321123321123323, 1.3125, -0.5625, 2.09375, 1.0
224, -8.380952380952381, 2.1538461538461537, -5.21001221001221, 1.1875, -0.71875, 2.625, 1.0
225, -7.329670329670329, 0.6251526251526252, -7.481074481074481, 0.75, -0.5, 2.8125, 1.0
226, -4.468864468864469, -0.5702075702075702, -8.424908424908425, 0.15625, -0.46875, 2.9375, 1.0
227, -2.816849816849817, -0.746031746031746, -9.355311355311356, -0.09375, -0.59375, 3.125, 1.0
228, -1.673992673992674, -1.2735042735042734, -10.293040293040294, -0.25, -0.34375, 3.25, 1.0
229, 1.308913308913309, -2.7777777777777777, -11.018315018315018, -0.59375, -0.0625, 3.125, 1.0
230, 3.177045177045177, -3.567765567765568, -11.63003663003663, -1.3125, -0.0625, 2.9375, 1.0
231, 4.365079365079365, -4.023199023199023, -11.183150183150182, -1.875, -0.15625, 2.8125, 1.0
232, 4.358974358974359, -4.374847374847374, -10.54945054945055, -1.96875, 0.09375, 2.65625, 1.0
233, 5.142857142857143, -5.523809523809524, -9.709401709401709, -2.0, 0.5625, 2.5, 1.0
234, 6.054945054945055, -6.886446886446887, -8.387057387057387, -2.28125, 0.71875, 2.28125, 1.0
235, 7.042735042735043, -9.323565323565324, -5.3076923076923075, -3.0, 0.65625, 1.6875, 1.0
236, 7.280830280830281, -9.836385836385837, -3.3846153846153846, -3.21875, 0.90625, 1.21875, 1.0
237, 6.597069597069597, -10.012210012210012, -2.347985347985348, -3.21875, 1.0, 0.84375, 1.0
238, 5.598290598290598, -9.886446886446887, -1.0195360195360195, -3.3125, 0.96875, 0.5625, 1.0
239, 5.028083028083028, -9.219780219780219, 1.0036630036630036, -3.5625, 0.9375, 0.375, 1.0
240, 4.288156288156288, -8.2991452991453, 3.023199023199023, -3.40625, 1.15625, 0.0625, 1.0
241, 3.9804639804639805, -8.365079365079366, 4.054945054945055, -2.90625, 1.5, -0.3125, 1.0
242, 3.8241758241758244, -8.873015873015873, 4.903540903540904, -2.59375, 1.84375, -0.84375, 1.0
243, 3.514041514041514, -8.88034188034188, 5.960927960927961, -2.5625, 2.25, -1.46875, 1.0
244, 3.0976800976800978, -8.352869352869353, 6.758241758241758, -2.34375, 2.3125, -2.0, 1.0
245, 2.0976800976800978, -7.938949938949939, 6.753357753357753, -1.90625, 2.0625, -2.375, 1.0
246, 0.884004884004884, -7.245421245421245, 6.617826617826617, -1.46875, 1.71875, -2.75, 1.0
247, -0.7094017094017094, -6.852258852258852, 6.313797313797314, -0.875, 1.5625, -2.9375, 1.0
248, -2.431013431013431, -6.197802197802198, 5.621489621489621, -0.59375, 1.78125, -3.09375, 1.0
249, -3.3833943833943834, -5.423687423687424, 5.6068376068376065, -0.3125, 1.8125, -3.03125, 1.0
250, -2.231990231990232, -5.688644688644689, 6.0085470085470085, -0.3125, 1.25, -2.90625, 1.0
251, -3.357753357753358, -4.611721611721611, 6.549450549450549, -0.0625, 0.875, -2.875, 1.0
252, -5.960927960927961, -2.687423687423687, 6.167277167277168, 0.65625, 1.15625, -2.71875, 1.0
253, -5.936507936507937, -2.664224664224664, 5.7936507936507935, 1.34375, 1.53125, -2.53125, 1.0
254, -5.525030525030525, -2.807081807081807, 5.915750915750916, 1.8125, 1.84375, -2.4375, 1.0
255, -4.724053724053724, -3.253968253968254, 5.2344322344322345, 1.9375, 1.5625, -2.21875, 1.0
256, -4.225885225885226, -3.492063492063492, 4.82051282051282, 1.75, 1.0, -2.0, 1.0
257, -4.354090354090354, -2.998778998778999, 5.048840048840049, 1.71875, 0.59375, -1.8125, 1.0
258, -5.9633699633699635, -1.343101343101343, 4.761904761904762, 2.4375, 0.5625, -1.46875, 1.0
259, -5.339438339438339, -1.332112332112332, 2.797313797313797, 2.78125, 0.4375, -1.25, 1.0
260, -5.122100122100122, -1.120879120879121, 1.0366300366300367, 2.9375, 0.09375, -0.96875, 1.0
261, -5.488400488400488, -1.0903540903540903, -0.9462759462759462, 2.875, -0.34375, -0.65625, 1.0
262, -6.004884004884005, -1.2332112332112333, -1.9877899877899878, 2.8125, -0.53125, -0.3125, 1.0
263, -6.385836385836386, -1.3137973137973138, -2.468864468864469, 2.8125, -0.375, -0.09375, 1.0
264, -5.759462759462759, -0.4139194139194139, -2.938949938949939, 2.75, -0.125, 0.21875, 1.0
265, -4.495726495726496, 1.6263736263736264, -4.010989010989011, 2.71875, -0.15625, 0.65625, 1.0
266, -3.8058608058608057, 1.3919413919413919, -5.4945054945054945, 2.65625, -0.34375, 1.15625, 1.0
267, -3.305250305250305, 0.4163614163614164, -6.815628815628815, 2.34375, -0.21875, 1.5, 1.0
268, -2.5238095238095237, -0.9645909645909646, -7.102564102564102, 2.03125, 0.09375, 1.6875, 1.0
269, -0.796092796092796, -1.0561660561660562, -5.875457875457876, 1.59375, 0.40625, 1.78125, 1.0
270, 1.1294261294261294, -0.09768009768009768, -4.434676434676435, 1.3125, 0.4375, 1.8125, 1.0
271, 2.5653235653235655, 0.1807081807081807, -3.8534798534798536, 1.25, 0.34375, 1.75, 1.0
272, 3.340659340659341, -0.6678876678876678, -4.61050061050061, 1.15625, 0.34375, 1.53125, 1.0
273, 3.6117216117216118, -1.4615384615384615, -5.573870573870574, 0.78125, 0.46875, 1.34375, 1.0
274, 4.631257631257632, -0.9499389499389499, -5.272283272283272, 0.21875, 0.53125, 1.15625, 1.0
275, 5.253968253968254, -0.42124542124542125, -4.42979242979243, -0.375, 0.53125, 1.03125, 0.0
276, 5.317460317460317, 0.019536019536019536, -3.796092796092796, -0.75, 0.46875, 0.875, 0.0
277, 5.768009768009768, 0.028083028083028084, -3.028083028083028, -0.78125, 0.34375, 0.65625, 0.0
278, 4.474969474969475, 0.4603174603174603, -2.426129426129426, -0.625, 0.34375, 0.34375, 0.0
279, 3.658119658119658, 0.11965811965811966, -1.8156288156288156, -0.53125, 0.4375, 0.03125, 0.0
280, 2.606837606837607, -0.3052503052503053, -1.2735042735042734, -0.46875, 0.53125, -0.40625, 0.0
281, 1.352869352869353, 0.07692307692307693, -0.2612942612942613, -0.375, 0.65625, -0.46875, 0.0
282, 0.4822954822954823, 0.5653235653235653, 1.5445665445665446, -0.21875, 0.71875, -0.4375, 0.0
283, 0.15384615384615385, 0.0, 1.8437118437118436, 0.0, 0.8125, -0.375, 0.0
284, -0.42124542124542125, -0.4603174603174603, 1.9328449328449329, 0.28125, 0.90625, -0.5625, 0.0
285, -0.6727716727716728, -0.7606837606837606, 2.184371184371184, 0.625, 0.84375, -0.6875, 0.0
286, -1.6984126984126984, -1.1855921855921856, 2.4285714285714284, 0.875, 0.625, -0.71875, 0.0
287, -2.446886446886447, -0.7704517704517705, 2.437118437118437, 0.9375, 0.59375, -0.6875, 0.0
288, -3.695970695970696, -0.31868131868131866, 2.5409035409035408, 0.84375, 0.1875, -0.65625, 0.0
289, -5.417582417582418, 0.5323565323565324, 2.7716727716727716, 0.8125, -0.34375, -0.375, 0.0
290, -7.288156288156288, 1.9645909645909645, 2.595848595848596, 0.96875, -0.5, 0.0625, 1.0
291, -8.051282051282051, 2.768009768009768, 1.9523809523809523, 1.28125, -0.40625, 0.5, 1.0
292, -8.814407814407815, 3.6654456654456653, 0.6764346764346765, 1.53125, -0.4375, 0.96875, 1.0
293, -8.914529914529915, 3.507936507936508, -1.8632478632478633, 1.53125, -0.84375, 1.875, 1.0
294, -7.934065934065934, 1.9401709401709402, -4.920634920634921, 1.03125, -1.25, 2.28125, 1.0
295, -7.9010989010989015, 1.6556776556776556, -7.2234432234432235, 0.5625, -1.15625, 2.59375, 1.0
296, -6.2002442002442, 1.4932844932844933, -8.350427350427351, 0.46875, -0.78125, 2.9375, 1.0
297, -4.683760683760684, 0.9194139194139194, -9.962148962148962, 0.46875, -0.40625, 3.21875, 1.0
298, -2.673992673992674, -1.4884004884004884, -12.225885225885225, 0.125, -0.21875, 3.3125, 1.0
299, -0.23321123321123322, -3.6263736263736264, -13.322344322344323, -0.6875, -0.15625, 3.3125, 1.0
300, 1.9413919413919414, -4.201465201465202, -12.943833943833944, -1.5625, -0.40625, 3.28125, 1.0
301, 3.1343101343101343, -3.8803418803418803, -11.301587301587302, -1.96875, -0.28125, 3.21875, 1.0
302, 4.280830280830281, -5.058608058608058, -10.483516483516484, -1.90625, 0.28125, 2.96875, 1.0
303, 5.962148962148962, -7.275946275946276, -10.494505494505495, -2.125, 0.875, 2.625, 1.0
304, 7.634920634920635, -9.272283272283273, -9.857142857142858, -2.6875, 1.09375, 2.1875, 1.0
305, 8.290598290598291, -9.345543345543346, -5.026862026862027, -3.40625, 1.375, 1.46875, 1.0
306, 8.782661782661783, -9.88888888888889, -2.404151404151404, -3.40625, 1.59375, 1.0, 1.0
307, 8.391941391941392, -10.2002442002442, -0.5103785103785103, -3.28125, 1.71875, 0.46875, 1.0
308, 7.001221001221001, -9.634920634920634, 0.7045177045177046, -3.09375, 1.78125, -0.0625, 1.0
309, 5.4774114774114775, -9.107448107448107, 1.6385836385836385, -3.0, 1.90625, -0.46875, 1.0
310, 4.775335775335775, -9.021978021978022, 2.960927960927961, -2.96875, 1.84375, -0.78125, 1.0
311, 3.687423687423687, -8.636141636141636, 4.318681318681318, -2.84375, 1.6875, -1.0625, 1.0
312, 2.8925518925518925, -8.601953601953602, 5.528693528693529, -2.5, 1.71875, -1.34375, 1.0
313, 2.173382173382173, -8.772893772893774, 6.338217338217338, -2.09375, 1.875, -1.6875, 1.0
314, 1.3296703296703296, -8.632478632478632, 6.8498168498168495, -1.78125, 1.90625, -2.09375, 1.0
315, 0.32234432234432236, -7.726495726495727, 7.452991452991453, -1.53125, 1.8125, -2.375, 1.0
316, -0.9328449328449329, -7.007326007326007, 7.835164835164835, -1.09375, 1.46875, -2.5625, 1.0
317, -2.31990231990232, -6.577533577533577, 7.716727716727717, -0.71875, 1.375, -2.59375, 1.0
318, -3.184371184371184, -5.938949938949939, 7.65934065934066, -0.28125, 1.4375, -2.625, 1.0
319, -2.716727716727717, -5.925518925518926, 7.744810744810745, 0.0, 1.375, -2.75, 1.0
320, -3.7313797313797314, -5.117216117216117, 7.366300366300366, 0.375, 1.4375, -2.8125, 1.0
321, -4.390720390720391, -4.671550671550672, 6.746031746031746, 0.71875, 1.53125, -2.84375, 1.0
322, -4.772893772893773, -3.9401709401709404, 6.2002442002442, 1.03125, 1.40625, -2.71875, 1.0
323, -4.655677655677656, -4.2625152625152625, 5.717948717948718, 1.1875, 1.0625, -2.59375, 1.0
324, -4.998778998778999, -3.36996336996337, 5.604395604395604, 1.40625, 0.96875, -2.46875, 1.0
325, -5.4774114774114775, -2.4017094017094016, 5.186813186813187, 1.75, 1.0625, -2.21875, 1.0
326, -4.021978021978022, -2.2075702075702077, 5.22954822954823, 2.0, 0.9375, -2.03125, 1.0
327, -4.147741147741148, -2.0305250305250304, 4.4212454212454215, 2.15625, 0.625, -1.90625, 1.0
328, -4.299145299145299, -1.866910866910867, 2.5115995115995116, 2.90625, 0.34375, -1.5625, 1.0
329, -4.747252747252747, -2.2967032967032965, -0.10012210012210013, 3.0625, 0.1875, -1.4375, 1.0
330, -5.931623931623932, -1.3284493284493284, -2.6043956043956045, 2.71875, -0.125, -1.125, 1.0
331, -7.566544566544566, 0.4590964590964591, -3.343101343101343, 2.4375, -0.46875, -0.71875, 1.0
332, -7.291819291819292, 1.3162393162393162, -2.8351648351648353, 2.59375, -0.1875, -0.28125, 1.0
333, -6.921855921855922, 1.8205128205128205, -2.935286935286935, 2.875, 0.25, 0.09375, 1.0
334, -5.196581196581197, 0.463980463980464, -3.600732600732601, 3.0625, 0.5, 0.5625, 1.0
335, -3.357753357753358, -0.7557997557997558, -5.15995115995116, 2.65625, 0.1875, 0.875, 1.0
336, -3.2234432234432235, -0.14285714285714285, -5.9181929181929185, 2.15625, -0.1875, 1.09375, 1.0
337, -3.0598290598290596, 0.11965811965811966, -6.6642246642246645, 2.03125, -0.0625, 1.25, 1.0
338, -2.21001221001221, -0.4163614163614164, -6.713064713064713, 1.8125, 0.09375, 1.40625, 1.0
339, -0.800976800976801, -0.26373626373626374, -5.355311355311355, 1.3125, 0.09375, 1.65625, 1.0
340, 0.16605616605616605, 0.7655677655677655, -3.8095238095238093, 0.90625, 0.0625, 1.75, 1.0
341, 1.6935286935286935, 0.47741147741147744, -3.797313797313797, 1.0, 0.25, 1.78125, 1.0
342, 3.8205128205128207, -0.8229548229548229, -4.377289377289378, 0.625, 0.0625, 1.71875, 1.0
343, 4.073260073260073, -1.0317460317460319, -4.604395604395604, 0.03125, -0.15625, 1.625, 1.0
344, 3.675213675213675, 0.019536019536019536, -3.7753357753357752, 0.0, -0.1875, 1.40625, 1.0
345, 4.271062271062271, 0.22954822954822954, -3.1025641025641026, 0.125, 0.0, 1.3125, 1.0
346, 5.240537240537241, -0.652014652014652, -3.4224664224664223, 0.09375, 0.28125, 1.15625, 0.0
347, 6.241758241758242, -1.6459096459096458, -3.537240537240537, -0.3125, 0.34375, 1.0, 0.0
348, 6.947496947496948, -1.9462759462759462, -3.2673992673992673, -0.8125, 0.09375, 0.8125, 0.0
349, 5.0366300366300365, -0.9548229548229549, -2.6849816849816848, -0.8125, 0.1875, 0.375, 0.0
350, 3.653235653235653, -0.442002442002442, -1.9365079365079365, -0.71875, 0.625, 0.03125, 0.0
351, 3.619047619047619, -0.5323565323565324, -0.7423687423687424, -0.5625, 0.65625, -0.34375, 0.0
352, 2.032967032967033, -0.5970695970695971, 1.0476190476190477, -0.5, 0.71875, -0.53125, 0.0
353, 1.0402930402930404, -0.4456654456654457, 1.794871794871795, -0.46875, 0.90625, -0.5625, 0.0
354, 0.2576312576312576, -0.2686202686202686, 2.628815628815629, -0.3125, 1.1875, -0.625, 0.0
355, -0.43345543345543347, 0.17704517704517705, 3.313797313797314, 0.0625, 1.375, -0.71875, 0.0
356, -0.9536019536019537, -0.4603174603174603, 3.304029304029304, 0.5625, 1.3125, -0.71875, 0.0
357, -1.9768009768009769, -0.884004884004884, 3.032967032967033, 0.75, 1.09375, -0.84375, 0.0
358, -2.5824175824175826, -0.5201465201465202, 3.0854700854700856, 0.65625, 0.84375, -0.75, 0.0
359, -4.308913308913309, 0.503052503052503, 3.253968253968254, 0.59375, 0.5, -0.625, 0.0
360, -5.710622710622711, 1.1758241758241759, 2.724053724053724, 1.0, 0.1875, -0.375, 0.0
361, -6.904761904761905, 1.4822954822954824, 1.8608058608058609, 1.28125, 0.1875, 0.0, 1.0
362, -7.046398046398046, 0.8449328449328449, 0.8901098901098901, 1.4375, 0.21875, 0.28125, 1.0
363, -7.26984126984127, 1.170940170940171, -0.5079365079365079, 1.09375, -0.28125, 0.90625, 1.0
364, -8.107448107448107, 1.9645909645909645, -2.653235653235653, 0.90625, -0.78125, 1.34375, 1.0
365, -8.898656898656899, 2.67032967032967, -4.7765567765567765, 0.8125, -0.9375, 1.8125, 1.0
366, -9.072039072039072, 2.68986568986569, -6.777777777777778, 0.65625, -0.65625, 2.28125, 1.0
367, -7.345543345543345, 1.5494505494505495, -8.032967032967033, 0.28125, -0.46875, 2.65625, 1.0
368, -4.650793650793651, 0.702075702075702, -8.628815628815628, -0.125, -0.625, 2.96875, 1.0
369, -2.3504273504273505, -0.08424908424908426, -9.06105006105006, -0.375, -0.84375, 3.15625, 1.0
370, -0.5848595848595849, -1.1489621489621489, -9.713064713064712, -0.53125, -0.84375, 3.25, 1.0
371, 0.8046398046398047, -2.409035409035409, -10.625152625152625, -0.84375, -0.5625, 3.125, 1.0
372, 2.8034188034188032, -3.595848595848596, -10.992673992673993, -1.21875, -0.40625, 3.0625, 1.0
373, 4.333333333333333, -4.887667887667888, -11.902319902319903, -1.8125, -0.5, 2.96875, 1.0
374, 4.368742368742368, -5.2625152625152625, -11.884004884004884, -2.5, -0.34375, 2.75, 1.0
375, 6.7826617826617825, -6.766788766788767, -9.22100122100122, -2.5, 0.75, 2.53125, 1.0
376, 9.168498168498168, -8.695970695970695, -7.312576312576312, -2.625, 1.15625, 2.15625, 1.0
377, 10.125763125763125, -9.886446886446887, -4.891330891330892, -3.0, 1.25, 1.625, 1.0
378, 10.072039072039072, -10.317460317460318, -2.3455433455433456, -3.25, 1.34375, 1.0, 1.0
379, 9.083028083028083, -10.83028083028083, -0.7802197802197802, -3.3125, 1.5625, 0.34375, 1.0
380, 8.046398046398046, -10.897435897435898, 0.663003663003663, -3.3125, 1.71875, -0.15625, 1.0
381, 6.77045177045177, -10.583638583638583, 2.184371184371184, -3.25, 1.8125, -0.625, 1.0
382, 5.743589743589744, -10.238095238095237, 3.8131868131868134, -2.96875, 1.90625, -1.0625, 1.0
383, 4.03052503052503, -9.382173382173383, 4.766788766788767, -2.625, 2.03125, -1.5, 1.0
384, 2.8485958485958487, -8.611721611721611, 5.951159951159951, -2.25, 2.09375, -1.84375, 1.0
385, 1.5189255189255189, -7.981684981684982, 6.842490842490842, -1.84375, 2.03125, -2.125, 1.0
386, 0.2588522588522589, -7.877899877899878, 7.0537240537240535, -1.3125, 2.0, -2.4375, 1.0
387, -0.5372405372405372, -7.843711843711843, 7.22954822954823, -1.03125, 1.9375, -2.65625, 1.0
388, -0.8717948717948718, -7.615384615384615, 7.5335775335775335, -0.84375, 1.65625, -2.8125, 1.0
389, -2.148962148962149, -6.365079365079365, 7.653235653235654, -0.46875, 1.5625, -2.84375, 1.0
390, -2.744810744810745, -5.501831501831502, 7.786324786324786, 0.0, 1.59375, -2.875, 1.0
391, -3.457875457875458, -5.31990231990232, 7.3076923076923075, 0.375, 1.6875, -2.9375, 1.0
392, -3.8547008547008548, -5.16971916971917, 6.815628815628815, 0.75, 1.75, -2.9375, 1.0
393, -4.241758241758242, -4.710622710622711, 5.965811965811966, 0.96875, 1.5, -2.84375, 1.0
394, -4.859584859584859, -3.456654456654457, 5.626373626373627, 1.125, 1.21875, -2.625, 1.0
395, -5.084249084249084, -2.967032967032967, 5.3870573870573875, 1.34375, 1.15625, -2.40625, 1.0
396, -5.280830280830281, -2.446886446886447, 5.327228327228327, 1.6875, 1.0625, -2.25, 1.0
397, -5.34065934065934, -2.597069597069597, 4.741147741147741, 2.03125, 0.90625, -2.0625, 1.0
398, -5.026862026862027, -1.877899877899878, 3.4932844932844933, 2.59375, 0.65625, -1.6875, 1.0
399, -5.5335775335775335, -1.431013431013431, 2.1343101343101343, 2.71875, 0.375, -1.40625, 1.0
400, -6.91941391941392, -0.14285714285714285, 0.6568986568986569, 2.8125, 0.0625, -1.09375, 1.0
401, -7.172161172161172, 0.38705738705738707, -0.5262515262515263, 2.9375, -0.03125, -0.625, 1.0
402, -5.887667887667888, -0.73992673992674, -1.564102564102564, 3.0, 0.0, -0.1875, 1.0
403, -5.4212454212454215, -0.9242979242979243, -3.227106227106227, 2.75, -0.21875, 0.0625, 1.0
404, -5.722832722832723, -0.2844932844932845, -4.00976800976801, 2.5, -0.5, 0.40625, 1.0
405, -5.6642246642246645, 0.41025641025641024, -4.355311355311355, 2.46875, -0.34375, 0.6875, 1.0
406, -4.528693528693529, -0.10622710622710622, -4.568986568986569, 2.5625, 0.0, 1.0, 1.0
407, -2.2735042735042734, -1.8522588522588523, -5.313797313797314, 2.5, 0.0, 1.3125, 1.0
408, -1.1831501831501832, -2.311355311355311, -5.6068376068376065, 2.03125, -0.28125, 1.46875, 1.0
409, -0.7753357753357754, -1.492063492063492, -5.101343101343101, 1.375, -0.5, 1.4375, 1.0
410, -0.18803418803418803, 0.03785103785103785, -4.90964590964591, 1.3125, -0.28125, 1.4375, 1.0
411, 0.5091575091575091, 0.6947496947496947, -5.188034188034188, 1.1875, -0.15625, 1.5, 1.0
412, 1.5653235653235653, 0.4371184371184371, -5.451770451770452, 0.90625, -0.1875, 1.59375, 1.0
413, 2.277167277167277, -0.3199023199023199, -5.500610500610501, 0.375, -0.21875, 1.625, 1.0
414, 2.9816849816849818, -0.32112332112332115, -4.760683760683761, -0.1875, 0.0, 1.625, 1.0
415, 4.119658119658119, 0.8742368742368742, -3.686202686202686, -0.1875, 0.15625, 1.5, 0.0
416, 5.3247863247863245, 0.7301587301587301, -3.1941391941391943, 0.03125, 0.1875, 1.375, 0.0
417, 6.245421245421245, -0.6837606837606838, -3.484737484737485, -0.125, 0.0625, 1.15625, 0.0
418, 6.070818070818071, -1.4737484737484738, -3.1953601953601956, -0.4375, 0.03125, 0.84375, 0.0
419, 5.247863247863248, -1.2344322344322345, -2.3894993894993894, -0.625, 0.125, 0.59375, 0.0
420, 4.311355311355311, -0.905982905982906, -1.4896214896214897, -0.625, 0.40625, 0.3125, 0.0
421, 3.4542124542124544, -0.5079365079365079, 0.6764346764346765, -0.375, 0.71875, -0.15625, 0.0
422, 3.241758241758242, -0.8168498168498168, 1.4896214896214897, -0.25, 0.75, -0.21875, 0.0
423, 2.5396825396825395, -1.21001221001221, 1.7313797313797314, -0.3125, 0.625, -0.34375, 0.0
424, 1.7448107448107448, -1.1941391941391941, 2.05006105006105, -0.46875, 0.65625, -0.46875, 0.0
425, 0.938949938949939, -0.8937728937728938, 2.6214896214896215, -0.3125, 0.75, -0.75, 0.0
426, 0.1111111111111111, -0.6813186813186813, 3.076923076923077, 0.0, 0.875, -0.875, 0.0
427, -0.14407814407814407, -0.3418803418803419, 3.536019536019536, 0.5, 0.90625, -0.9375, 0.0
428, -1.3296703296703296, -0.6837606837606838, 3.0976800976800978, 0.90625, 0.8125, -0.9375, 0.0
429, -2.1367521367521367, -0.442002442002442, 2.6678876678876677, 0.875, 0.75, -0.84375, 0.0
430, -3.537240537240537, 0.39316239316239315, 2.8827838827838828, 0.9375, 0.46875, -0.75, 1.0
431, -5.663003663003663, 1.205128205128205, 2.5811965811965814, 1.09375, 0.25, -0.375, 1.0
432, -6.985347985347985, 1.9487179487179487, 1.7057387057387057, 1.25, 0.28125, 0.1875, 1.0
433, -8.250305250305251, 2.9755799755799757, 0.23321123321123322, 1.5, 0.0625, 0.6875, 1.0
434, -8.367521367521368, 2.3028083028083026, -1.8473748473748475, 1.28125, -0.46875, 1.25, 1.0
435, -9.091575091575091, 2.2918192918192917, -3.347985347985348, 0.9375, -0.71875, 1.71875, 1.0
436, -8.868131868131869, 2.3601953601953602, -4.583638583638583, 0.90625, -0.53125, 2.125, 1.0
437, -8.266178266178267, 1.7521367521367521, -5.752136752136752, 0.71875, -0.25, 2.5, 1.0
438, -5.858363858363858, 1.028083028083028, -6.3760683760683765, 0.40625, -0.4375, 2.84375, 1.0
439, -4.426129426129426, 1.021978021978022, -7.534798534798535, 0.125, -0.875, 3.125, 1.0
440, -3.9963369963369964, 0.4603174603174603, -9.233211233211232, -0.09375, -0.90625, 3.375, 1.0
441, -2.6617826617826617, -0.7057387057387058, -10.442002442002442, -0.375, -0.53125, 3.5, 1.0
442, -0.3028083028083028, -2.1355311355311355, -11.345543345543346, -0.5625, -0.0625, 3.5, 1.0
443, 2.7484737484737485, -4.744810744810745, -12.456654456654457, -0.9375, 0.03125, 3.375, 1.0
444, 4.9914529914529915, -6.698412698412699, -12.616605616605616, -1.90625, 0.25, 2.875, 1.0
445, 8.02075702075702, -8.280830280830282, -10.777777777777779, -2.46875, 0.5, 2.46875, 1.0
446, 8.622710622710622, -8.50915750915751, -8.622710622710622, -2.84375, 0.75, 2.0, 1.0
447, 8.985347985347985, -9.103785103785103, -6.285714285714286, -3.0625, 1.03125, 1.5625, 1.0
448, 9.252747252747254, -10.014652014652015, -4.091575091575091, -3.21875, 1.25, 1.125, 1.0
449, 9.282051282051283, -10.597069597069597, -1.9816849816849818, -3.34375, 1.34375, 0.59375, 1.0
450, 8.31013431013431, -10.451770451770452, -0.1391941391941392, -3.40625, 1.375, 0.0625, 1.0
451, 7.101343101343101, -9.926739926739927, 1.7301587301587302, -3.375, 1.46875, -0.375, 1.0
452, 5.772893772893773, -9.688644688644688, 2.772893772893773, -3.1875, 1.53125, -0.75, 1.0
453, 5.152625152625153, -9.697191697191696, 3.741147741147741, -2.96875, 1.5, -1.03125, 1.0
454, 3.807081807081807, -9.882783882783883, 4.192918192918193, -2.78125, 1.5, -1.40625, 1.0
455, 2.6105006105006106, -8.719169719169718, 4.9010989010989015, -2.59375, 1.75, -1.8125, 1.0
456, 1.945054945054945, -7.74969474969475, 5.61050061050061, -2.1875, 1.65625, -2.125, 1.0
457, 1.7435897435897436, -7.528693528693529, 6.032967032967033, -1.9375, 1.375, -2.25, 1.0
458, 0.7277167277167277, -7.4603174603174605, 6.1440781440781445, -1.71875, 1.28125, -2.4375, 1.0
459, -0.16727716727716727, -6.807081807081807, 5.978021978021978, -1.34375, 1.375, -2.625, 1.0
460, -1.2686202686202686, -5.844932844932845, 5.805860805860806, -0.9375, 1.5625, -2.75, 1.0
461, -2.1452991452991452, -5.35042735042735, 5.672771672771673, -0.53125, 1.6875, -2.78125, 1.0
462, -2.572649572649573, -5.304029304029304, 5.710622710622711, -0.1875, 1.65625, -2.75, 1.0
463, -3.0586080586080584, -5.228327228327228, 5.413919413919414, 0.03125, 1.4375, -2.71875, 1.0
464, -3.017094017094017, -5.0647130647130645, 5.670329670329671, 0.1875, 1.21875, -2.6875, 1.0
465, -3.1013431013431014, -4.545787545787546, 5.7032967032967035, 0.375, 1.0, -2.6875, 1.0
466, -4.547008547008547, -3.4945054945054945, 5.224664224664225, 0.59375, 0.875, -2.59375, 1.0
467, -4.960927960927961, -3.0525030525030523, 4.973137973137973, 0.875, 0.84375, -2.3125, 1.0
468, -5.194139194139194, -2.0195360195360195, 5.327228327228327, 1.15625, 0.59375, -2.15625, 1.0
469, -6.965811965811966, -0.3492063492063492, 4.199023199023199, 1.6875, 0.625, -1.9375, 1.0
470, -6.549450549450549, -0.4175824175824176, 3.47985347985348, 2.125, 0.6875, -1.53125, 1.0
471, -5.065934065934066, -0.5262515262515263, 3.797313797313797, 2.28125, 0.59375, -1.21875, 1.0
472, -5.311355311355311, -0.15262515262515264, 2.9206349206349205, 2.375, 0.46875, -1.03125, 1.0
473, -4.481074481074481, -0.3894993894993895, 2.2222222222222223, 2.53125, 0.375, -0.6875, 1.0
474, -4.853479853479853, -0.5274725274725275, 1.4224664224664225, 2.65625, 0.0, -0.4375, 1.0
475, -4.7203907203907205, -0.9072039072039072, 0.73992673992674, 2.8125, -0.125, -0.125, 1.0
476, -4.057387057387057, -0.15018315018315018, 0.26495726495726496, 3.0, 0.0625, 0.0, 1.0
477, -3.3687423687423688, -0.3418803418803419, -1.4102564102564104, 3.15625, 0.21875, 0.21875, 1.0
478, -3.2503052503052503, -0.8803418803418803, -3.062271062271062, 2.9375, -0.0625, 0.5625, 1.0
479, -2.967032967032967, -1.0122100122100122, -4.428571428571429, 2.46875, -0.375, 0.90625, 1.0
480, -2.2612942612942613, -0.1562881562881563, -4.956043956043956, 2.21875, -0.1875, 1.0, 1.0
481, -2.1623931623931623, 0.4810744810744811, -5.014652014652015, 2.03125, -0.03125, 1.1875, 1.0
482, -0.2039072039072039, 1.017094017094017, -4.824175824175824, 1.78125, -0.09375, 1.34375, 1.0
483, 0.8266178266178266, 0.724053724053724, -5.440781440781441, 1.59375, -0.15625, 1.4375, 1.0
484, 1.663003663003663, -0.23321123321123322, -6.892551892551893, 1.25, -0.28125, 1.4375, 1.0
485, 1.3052503052503053, -0.3907203907203907, -7.012210012210012, 0.78125, -0.15625, 1.40625, 1.0
486, 2.271062271062271, 0.41147741147741146, -6.271062271062271, 0.40625, 0.0625, 1.40625, 1.0
487, 3.161172161172161, 0.029304029304029304, -5.913308913308914, -0.0625, 0.15625, 1.4375, 0.0
488, 3.7533577533577533, -0.3724053724053724, -5.3357753357753355, -0.53125, 0.03125, 1.4375, 0.0
489, 3.568986568986569, -0.6507936507936508, -4.681318681318682, -0.625, 0.0625, 1.3125, 0.0
490, 2.5335775335775335, -0.3162393162393162, -3.619047619047619, -0.53125, 0.21875, 1.1875, 0.0
491, 3.5103785103785103, 0.07936507936507936, -0.9010989010989011, -0.15625, 0.46875, 0.9375, 0.0
492, 3.601953601953602, -0.7313797313797313, -0.8827838827838828, 0.03125, 0.625, 0.65625, 0.0
493, 4.417582417582418, -1.708180708180708, -0.8778998778998779, 0.0, 0.75, 0.34375, 0.0
494, 3.9108669108669107, -1.5848595848595848, -0.2588522588522589, -0.28125, 0.5, 0.09375, 0.0
495, 2.884004884004884, -0.9084249084249084, 0.6752136752136753, -0.4375, 0.34375, -0.03125, 0.0
496, 2.0488400488400487, -0.5042735042735043, 1.5054945054945055, -0.3125, 0.4375, -0.1875, 0.0
497, 1.4945054945054945, -0.673992673992674, 2.056166056166056, 0.0, 0.5625, -0.46875, 0.0
498, 0.36507936507936506, -0.38461538461538464, 2.3504273504273505, 0.375, 0.71875, -0.78125, 0.0
499, -0.3492063492063492, -0.41147741147741146, 2.503052503052503, 0.78125, 1.0, -0.875, 0.0
500, -0.47619047619047616, -0.4700854700854701, 2.7887667887667886, 1.0, 1.21875, -0.84375, 0.0
501, -0.24175824175824176, -1.0622710622710623, 2.462759462759463, 1.0625, 1.09375, -0.78125, 0.0
502, -1.6764346764346765, -0.47374847374847373, 2.1135531135531136, 0.6875, 0.3125, -0.625, 1.0
503, -3.772893772893773, 0.6349206349206349, 2.515262515262515, 0.59375, 0.0625, -0.375, 1.0
504, -5.0818070818070815, 1.877899877899878, 2.8412698412698414, 0.90625, 0.15625, -0.09375, 1.0
505, -6.573870573870574, 2.8595848595848596, 2.399267399267399, 1.375, 0.25, 0.25, 1.0
506, -7.417582417582418, 3.032967032967033, 1.4542124542124542, 1.625, 0.21875, 0.75, 1.0
507, -7.3870573870573875, 1.9035409035409034, -0.7448107448107448, 1.25, -0.1875, 1.21875, 1.0
508, -7.415140415140415, 1.873015873015873, -2.148962148962149, 0.75, -0.65625, 1.59375, 1.0
509, -7.931623931623932, 2.5409035409035408, -3.5384615384615383, 0.75, -0.71875, 2.0, 1.0
510, -7.713064713064713, 2.5164835164835164, -5.247863247863248, 0.96875, -0.5, 2.40625, 1.0
511, -7.0, 1.5531135531135531, -7.6471306471306475, 0.78125, -0.25, 2.78125, 1.0
512, -5.203907203907204, 0.39316239316239315, -9.504273504273504, 0.28125, -0.15625, 3.0625, 1.0
513, -2.503052503052503, -0.6788766788766789, -10.587301587301587, -0.28125, -0.4375, 3.25, 1.0
514, -0.24053724053724054, -1.1782661782661783, -11.406593406593407, -0.78125, -0.53125, 3.375, 1.0
515, 2.0537240537240535, -3.4297924297924296, -12.355311355311356, -0.875, -0.125, 3.34375, 1.0
516, 4.186813186813187, -5.417582417582418, -12.96947496947497, -1.5, 0.1875, 3.15625, 1.0
517, 5.107448107448107, -6.180708180708181, -12.300366300366301, -2.3125, 0.03125, 3.0, 1.0
518, 5.190476190476191, -6.302808302808303, -10.584859584859585, -2.78125, 0.1875, 2.875, 1.0
519, 5.78021978021978, -7.003663003663004, -8.496947496947497, -2.71875, 0.8125, 2.65625, 1.0
520, 6.617826617826617, -9.294261294261295, -7.1782661782661785, -2.71875, 1.3125, 2.21875, 1.0
521, 7.490842490842491, -10.47985347985348, -5.190476190476191, -3.1875, 1.625, 1.65625, 1.0
522, 7.4774114774114775, -10.438339438339439, -2.9206349206349205, -3.5625, 1.6875, 1.15625, 1.0
523, 6.7374847374847375, -10.250305250305251, -0.9072039072039072, -3.53125, 1.8125, 0.625, 1.0
524, 6.2002442002442, -10.356532356532357, 0.6886446886446886, -3.28125, 2.0, 0.125, 1.0
525, 5.785103785103785, -10.582417582417582, 2.1135531135531136, -3.0625, 2.03125, -0.5, 1.0
526, 5.067155067155067, -10.538461538461538, 3.3272283272283274, -2.78125, 2.34375, -1.03125, 1.0
527, 4.43956043956044, -10.54090354090354, 4.660561660561661, -2.53125, 2.5, -1.53125, 1.0
528, 4.0647130647130645, -10.034188034188034, 6.031746031746032, -2.1875, 2.28125, -2.0, 1.0
529, 2.656898656898657, -9.504273504273504, 6.943833943833944, -1.96875, 1.90625, -2.40625, 1.0
530, 0.6776556776556777, -8.274725274725276, 7.6129426129426125, -1.65625, 1.8125, -2.625, 1.0
531, -0.18925518925518925, -7.396825396825397, 8.197802197802197, -1.125, 1.75, -2.8125, 1.0
532, -1.1575091575091576, -6.9010989010989015, 8.272283272283273, -0.59375, 1.6875, -2.9375, 1.0
533, -2.1807081807081805, -6.766788766788767, 7.588522588522588, -0.15625, 1.625, -3.0, 1.0
534, -2.645909645909646, -6.228327228327228, 6.813186813186813, 0.03125, 1.4375, -2.96875, 1.0
535, -3.2063492063492065, -5.722832722832723, 6.4493284493284495, 0.15625, 1.15625, -2.84375, 1.0
536, -3.6837606837606836, -5.061050061050061, 6.656898656898657, 0.375, 1.09375, -2.78125, 1.0
537, -4.4041514041514045, -4.788766788766789, 6.468864468864469, 0.90625, 1.34375, -2.6875, 1.0
538, -3.93040293040293, -3.774114774114774, 5.716727716727717, 1.34375, 1.375, -2.5625, 1.0
539, -4.487179487179487, -2.8412698412698414, 5.0085470085470085, 1.59375, 1.09375, -2.40625, 1.0
540, -5.075702075702075, -2.5604395604395602, 4.416361416361417, 1.84375, 0.90625, -2.21875, 1.0
541, -4.644688644688645, -2.7496947496947497, 4.417582417582418, 2.0, 0.78125, -2.0, 1.0
542, -5.401709401709402, -1.4236874236874237, 3.7643467643467643, 2.15625, 0.625, -1.84375, 1.0
543, -5.576312576312576, -0.5555555555555556, 2.9853479853479854, 2.5625, 0.375, -1.53125, 1.0
544, -6.105006105006105, 0.1282051282051282, 1.6117216117216118, 2.84375, 0.125, -1.1875, 1.0
545, -5.968253968253968, -0.4481074481074481, 0.568986568986569, 2.90625, 0.09375, -0.90625, 1.0
546, -6.084249084249084, -0.8107448107448108, -0.46764346764346765, 2.8125, 0.15625, -0.59375, 1.0
547, -6.146520146520147, -0.21733821733821734, -1.3968253968253967, 2.84375, -0.0625, -0.25, 1.0
548, -6.264957264957265, -0.23076923076923078, -2.503052503052503, 2.875, -0.28125, 0.15625, 1.0
549, -4.683760683760684, -0.5653235653235653, -3.2844932844932844, 2.75, -0.21875, 0.59375, 1.0
550, -3.6385836385836385, -1.1514041514041513, -4.472527472527473, 2.5, -0.21875, 0.75, 1.0
551, -3.647130647130647, -1.0390720390720392, -5.416361416361417, 2.34375, -0.125, 0.875, 1.0
552, -2.7155067155067156, -0.9902319902319903, -5.682539682539683, 2.0625, -0.125, 1.0625, 1.0
553, -2.6227106227106227, -0.5592185592185592, -5.304029304029304, 1.8125, -0.125, 1.21875, 1.0
554, -1.6459096459096458, 0.38095238095238093, -4.633699633699634, 1.6875, -0.03125, 1.40625, 1.0
555, -0.4700854700854701, -0.17582417582417584, -4.6239316239316235, 1.5, 0.0625, 1.53125, 1.0
556, 1.1794871794871795, -0.7997557997557998, -4.831501831501831, 1.21875, -0.03125, 1.5, 1.0
557, 2.045177045177045, -0.5433455433455433, -4.7655677655677655, 1.0, -0.0625, 1.46875, 1.0
558, 2.5921855921855923, 0.32967032967032966, -4.9010989010989015, 0.9375, 0.125, 1.40625, 1.0
559, 3.6715506715506714, 0.018315018315018316, -5.105006105006105, 0.84375, 0.25, 1.34375, 1.0
560, 4.772893772893773, -0.4517704517704518, -4.84004884004884, 0.40625, 0.15625, 1.125, 1.0
561, 4.383394383394384, -0.39316239316239315, -2.843711843711844, 0.125, 0.25, 0.9375, 1.0
562, 4.538461538461538, 0.07448107448107448, -1.534798534798535, -0.0625, 0.40625, 0.8125, 1.0
563, 4.634920634920635, -0.11965811965811966, -0.8681318681318682, -0.25, 0.5, 0.75, 1.0
564, 4.971916971916972, -0.2661782661782662, -0.8644688644688645, -0.5625, 0.625, 0.71875, 0.0
565, 5.301587301587301, -0.8815628815628815, -0.717948717948718, -0.59375, 0.5625, 0.59375, 0.0
566, 3.4957264957264957, -0.2905982905982906, -0.43956043956043955, -0.6875, 0.3125, 0.40625, 0.0
567, 2.2124542124542126, -0.4139194139194139, -0.2625152625152625, -0.53125, 0.40625, 0.15625, 0.0
568, 1.3992673992673992, -0.409035409035409, 0.29914529914529914, -0.40625, 0.625, -0.1875, 0.0
569, 0.8681318681318682, -0.3968253968253968, 1.1953601953601953, -0.1875, 0.75, -0.40625, 0.0
570, 0.12698412698412698, -0.2771672771672772, 1.8681318681318682, 0.09375, 0.65625, -0.5, 0.0
571, -0.6642246642246642, -0.3052503052503053, 2.2234432234432235, 0.28125, 0.5625, -0.53125, 0.0
572, -1.6617826617826619, -0.5213675213675214, 2.15018315018315, 0.34375, 0.6875, -0.5625, 0.0
573, -2.5604395604395602, 0.2039072039072039, 2.3956043956043955, 0.5, 0.84375, -0.53125, 0.0
574, -2.6336996336996337, 1.1807081807081807, 2.9963369963369964, 1.0625, 0.65625, -0.4375, 0.0
575, -4.181929181929182, 1.708180708180708, 2.5946275946275947, 1.4375, 0.5625, -0.1875, 0.0
576, -4.877899877899878, 1.4774114774114775, 1.452991452991453, 1.46875, 0.6875, 0.09375, 0.0
577, -5.769230769230769, 2.1001221001221, 0.4945054945054945, 1.3125, 0.65625, 0.375, 0.0
578, -5.965811965811966, 2.7264957264957266, 0.26373626373626374, 1.0625, 0.21875, 0.71875, 0.0
579, -6.603174603174603, 3.3785103785103785, -0.8424908424908425, 0.875, -0.34375, 1.125, 1.0
580, -7.371184371184371, 3.4774114774114775, -2.6336996336996337, 0.65625, -0.75, 1.625, 1.0
581, -7.572649572649572, 2.6202686202686203, -5.588522588522588, 0.5625, -0.84375, 2.0625, 1.0
582, -6.813186813186813, 1.8217338217338217, -7.531135531135531, 0.375, -0.625, 2.375, 1.0
583, -4.979242979242979, 0.3711843711843712, -8.708180708180707, 0.0625, -0.46875, 2.625, 1.0
584, -1.0317460317460319, -2.010989010989011, -10.105006105006105, -0.65625, -0.8125, 2.90625, 1.0
585, -0.9511599511599511, -1.3601953601953602, -10.257631257631258, -1.1875, -1.15625, 3.0, 1.0
586, -0.15995115995115994, -1.894993894993895, -10.693528693528693, -1.28125, -0.90625, 3.1875, 1.0
587, 2.4615384615384617, -3.807081807081807, -10.818070818070819, -1.59375, -0.59375, 3.1875, 1.0
588, 3.816849816849817, -4.334554334554334, -10.485958485958486, -2.0625, -0.53125, 3.125, 1.0
589, 4.83028083028083, -5.468864468864469, -10.487179487179487, -2.25, -0.375, 3.0, 1.0
590, 5.908424908424909, -6.7936507936507935, -9.768009768009769, -2.4375, 0.0, 2.8125, 1.0
591, 7.2234432234432235, -8.217338217338217, -8.582417582417582, -2.59375, 0.59375, 2.40625, 1.0
592, 7.702075702075702, -9.478632478632479, -7.2063492063492065, -2.90625, 1.03125, 1.90625, 1.0
593, 7.954822954822955, -9.995115995115995, -5.224664224664225, -3.21875, 1.375, 1.375, 1.0
594, 8.083028083028083, -10.304029304029305, -3.004884004884005, -3.3125, 1.625, 0.875, 1.0
595, 7.446886446886447, -10.863247863247864, -1.1172161172161172, -3.21875, 1.9375, 0.15625, 1.0
596, 6.7936507936507935, -11.286935286935288, 0.7936507936507936, -2.9375, 2.28125, -0.375, 1.0
597, 6.656898656898657, -11.52991452991453, 2.536019536019536, -2.6875, 2.5, -0.9375, 1.0
598, 6.94993894993895, -11.544566544566544, 4.545787545787546, -2.5625, 2.25, -1.46875, 1.0
599, 5.605616605616605, -11.078144078144078, 5.7655677655677655, -2.34375, 1.84375, -1.96875, 1.0
600, 3.4444444444444446, -10.376068376068377, 6.593406593406593, -2.03125, 1.6875, -2.375, 1.0
601, 1.7643467643467643, -9.704517704517704, 7.288156288156288, -1.65625, 1.625, -2.65625, 1.0
602, -0.21123321123321123, -8.321123321123322, 7.56043956043956, -1.25, 1.5, -2.84375, 1.0
603, -1.4053724053724053, -7.329670329670329, 7.2344322344322345, -0.875, 1.34375, -2.84375, 1.0
604, -2.537240537240537, -6.487179487179487, 6.9010989010989015, -0.625, 1.34375, -2.84375, 1.0
605, -3.0073260073260073, -6.1001221001221, 6.3992673992674, -0.40625, 1.5, -2.875, 1.0
606, -3.2918192918192917, -5.283272283272283, 6.299145299145299, -0.15625, 1.5625, -2.84375, 1.0
607, -3.3211233211233213, -4.686202686202686, 5.930402930402931, 0.25, 1.5625, -2.75, 1.0
608, -4.213675213675214, -3.547008547008547, 5.56043956043956, 0.53125, 1.5625, -2.71875, 1.0
609, -3.871794871794872, -3.3223443223443225, 5.201465201465202, 0.9375, 1.59375, -2.5625, 1.0
610, -2.6043956043956045, -3.647130647130647, 5.394383394383395, 1.09375, 1.3125, -2.46875, 1.0
611, -3.687423687423687, -2.938949938949939, 5.084249084249084, 1.15625, 0.875, -2.5, 1.0
612, -5.454212454212454, -1.595848595848596, 4.001221001221001, 1.59375, 0.90625, -2.40625, 1.0
613, -5.247863247863248, -1.592185592185592, 3.572649572649573, 2.0625, 0.96875, -2.125, 1.0
614, -4.846153846153846, -1.3235653235653235, 3.1416361416361416, 2.3125, 0.78125, -1.90625, 1.0
615, -5.280830280830281, -1.0231990231990231, 2.225885225885226, 2.4375, 0.4375, -1.65625, 1.0
616, -6.306471306471306, -0.3235653235653236, 1.1452991452991452, 2.4375, 0.15625, -1.34375, 1.0
617, -6.885225885225886, 0.46886446886446886, 0.42124542124542125, 2.59375, 0.0625, -1.0, 1.0
618, -6.2967032967032965, 0.03540903540903541, -0.13186813186813187, 2.78125, 0.03125, -0.5625, 1.0
619, -5.760683760683761, -0.09035409035409035, -1.1428571428571428, 2.6875, -0.15625, -0.03125, 1.0
620, -5.824175824175824, -0.14652014652014653, -2.1477411477411477, 2.46875, -0.21875, 0.3125, 1.0
621, -4.6239316239316235, 0.5103785103785103, -1.7985347985347986, 2.3125, -0.25, 0.59375, 1.0
622, -3.984126984126984, 0.47374847374847373, -1.5897435897435896, 2.40625, -0.15625, 0.90625, 1.0
623, -3.568986568986569, 0.4481074481074481, -2.800976800976801, 2.65625, 0.0, 1.1875, 1.0
624, -2.0244200244200243, -1.021978021978022, -4.377289377289378, 2.5625, -0.03125, 1.4375, 1.0
625, -1.1941391941391941, -1.7753357753357752, -5.4212454212454215, 2.03125, -0.15625, 1.5, 1.0
626, -0.13797313797313798, -0.8253968253968254, -4.993894993894994, 1.5625, -0.09375, 1.5625, 1.0
627, 1.5091575091575091, 0.8388278388278388, -4.067155067155067, 1.53125, -0.125, 1.625, 1.0
628, 2.142857142857143, 0.409035409035409, -4.611721611721611, 1.53125, -0.0625, 1.625, 1.0
629, 2.8705738705738706, -0.5445665445665445, -5.308913308913309, 1.25, 0.0, 1.5625, 1.0
630, 3.05006105006105, -1.0622710622710623, -5.575091575091575, 0.6875, 0.15625, 1.375, 1.0
631, 5.965811965811966, -1.1794871794871795, -5.471306471306471, 0.25, 0.4375, 1.25, 1.0
632, 6.239316239316239, -0.8278388278388278, -5.063492063492063, -0.40625, 0.625, 1.15625, 0.0
633, 6.336996336996337, -0.7814407814407814, -4.102564102564102, -0.5625, 0.625, 0.90625, 0.0
634, 4.896214896214897, -0.46764346764346765, -3.148962148962149, -0.6875, 0.5625, 0.6875, 0.0
635, 3.7423687423687424, -0.5677655677655677, -2.061050061050061, -0.75, 0.59375, 0.40625, 0.0
636, 3.225885225885226, -0.3247863247863248, -0.6398046398046398, -0.71875, 0.71875, 0.03125, 0.0
637, 2.7496947496947497, 0.23809523809523808, 0.4822954822954823, -0.53125, 0.8125, -0.125, 0.0
638, 2.385836385836386, -0.07936507936507936, 0.9096459096459096, -0.34375, 0.9375, -0.21875, 0.0
639, 1.9572649572649572, -0.568986568986569, 1.0036630036630036, -0.34375, 0.875, -0.28125, 0.0
640, 1.0695970695970696, -0.5702075702075702, 1.1538461538461537, -0.4375, 0.78125, -0.5, 0.0
641, 0.27106227106227104, -0.29304029304029305, 1.4774114774114775, -0.3125, 0.8125, -0.5625, 0.0
642, -0.5494505494505495, -0.05860805860805861, 2.001221001221001, 0.1875, 0.96875, -0.75, 0.0
643, -0.9963369963369964, 0.7216117216117216, 3.057387057387057, 0.875, 1.03125, -0.6875, 0.0
644, -1.225885225885226, -0.040293040293040296, 2.84981684981685, 1.125, 0.90625, -0.4375, 0.0
645, -1.336996336996337, -0.6691086691086691, 2.2783882783882783, 0.84375, 0.1875, -0.40625, 0.0
646, -3.722832722832723, 0.6471306471306472, 2.6507936507936507, 0.75, -0.1875, -0.25, 0.0
647, -5.485958485958486, 1.7643467643467643, 2.567765567765568, 0.96875, -0.15625, 0.0, 1.0
648, -6.967032967032967, 2.73992673992674, 1.989010989010989, 1.28125, -0.09375, 0.34375, 1.0
649, -8.087912087912088, 2.978021978021978, 0.26495726495726496, 1.375, -0.25, 0.875, 1.0
650, -8.786324786324787, 2.791208791208791, -1.7203907203907205, 1.03125, -0.46875, 1.375, 1.0
651, -8.256410256410257, 2.645909645909646, -3.1343101343101343, 0.75, -0.78125, 1.875, 1.0
652, -7.626373626373627, 2.2857142857142856, -4.041514041514041, 0.6875, -0.90625, 2.28125, 1.0
653, -6.763125763125763, 1.7936507936507937, -5.401709401709402, 0.9375, -0.625, 2.78125, 1.0
654, -2.391941391941392, -1.1746031746031746, -9.239316239316238, 0.65625, -0.34375, 2.96875, 1.0
655, -0.7277167277167277, -1.8913308913308913, -10.197802197802197, 0.0, -0.71875, 3.0625, 1.0
656, -0.08302808302808302, -2.312576312576313, -10.782661782661783, -0.375, -0.75, 3.09375, 1.0
657, 1.695970695970696, -3.9206349206349205, -11.113553113553113, -0.40625, 0.0, 3.0625, 1.0
658, 4.671550671550672, -5.1501831501831505, -10.605616605616605, -0.40625, 0.9375, 2.875, 1.0
659, 8.717948717948717, -7.506715506715507, -10.311355311355312, -0.71875, 1.3125, 2.5, 1.0
660, 9.316239316239317, -7.329670329670329, -9.554334554334554, -1.71875, 0.71875, 2.0, 1.0
661, 7.413919413919414, -5.694749694749695, -7.8791208791208796, -2.4375, 0.5625, 1.5625, 1.0
662, 7.1098901098901095, -5.277167277167277, -5.619047619047619, -2.625, 1.0, 1.25, 1.0
663, 7.665445665445666, -5.882783882783883, -3.177045177045177, -2.8125, 1.125, 0.96875, 1.0
664, 7.455433455433456, -6.409035409035409, -1.5543345543345544, -2.9375, 1.09375, 0.71875, 1.0
665, 7.355311355311355, -7.481074481074481, -0.4554334554334554, -3.1875, 1.09375, 0.21875, 1.0
666, 6.551892551892552, -7.374847374847374, 0.8351648351648352, -3.125, 1.09375, -0.125, 1.0
667, 5.5054945054945055, -6.947496947496948, 1.6263736263736264, -2.875, 1.21875, -0.375, 1.0
668, 4.84004884004884, -7.349206349206349, 2.294261294261294, -2.6875, 1.34375, -0.625, 1.0
669, 4.196581196581197, -8.045177045177045, 3.0268620268620268, -2.59375, 1.53125, -0.90625, 1.0
670, 4.542124542124542, -8.796092796092797, 3.9206349206349205, -2.625, 1.46875, -1.21875, 1.0
671, 3.9035409035409034, -8.543345543345543, 5.3418803418803416, -2.5625, 1.25, -1.53125, 1.0
672, 2.31013431013431, -7.400488400488401, 6.666666666666667, -2.15625, 1.28125, -1.84375, 1.0
673, 1.6776556776556777, -6.905982905982906, 7.365079365079365, -1.625, 1.375, -2.0625, 1.0
674, 1.277167277167277, -7.196581196581197, 7.885225885225886, -1.28125, 1.375, -2.3125, 1.0
675, 0.557997557997558, -7.267399267399267, 7.650793650793651, -0.9375, 1.34375, -2.59375, 1.0
676, -0.8632478632478633, -6.678876678876679, 6.956043956043956, -0.53125, 1.25, -2.75, 1.0
677, -3.2796092796092795, -5.225885225885226, 5.77045177045177, -0.15625, 1.21875, -2.78125, 1.0
678, -4.164835164835165, -4.766788766788767, 5.31990231990232, 0.125, 1.375, -2.6875, 1.0
679, -4.345543345543345, -4.271062271062271, 5.2686202686202686, 0.375, 1.625, -2.625, 1.0
680, -2.989010989010989, -3.993894993894994, 5.750915750915751, 0.5625, 1.59375, -2.5, 1.0
681, -3.357753357753358, -3.3211233211233213, 5.383394383394384, 0.75, 1.25, -2.5, 1.0
682, -4.47985347985348, -2.5213675213675213, 4.380952380952381, 0.96875, 1.0, -2.375, 1.0
683, -5.199023199023199, -1.6105006105006106, 4.083028083028083, 1.25, 1.03125, -2.1875, 1.0
684, -4.583638583638583, -1.4847374847374848, 4.305250305250305, 1.59375, 1.09375, -1.96875, 1.0
685, -4.791208791208791, -1.1855921855921856, 3.4481074481074483, 1.9375, 1.09375, -1.8125, 1.0
686, -4.48962148962149, -0.9633699633699634, 2.341880341880342, 2.21875, 0.71875, -1.59375, 1.0
687, -5.085470085470085, -0.8547008547008547, 1.2991452991452992, 2.21875, 0.21875, -1.3125, 1.0
688, -5.517704517704518, -0.32112332112332115, 0.9108669108669109, 2.3125, -0.15625, -1.03125, 1.0
689, -7.504273504273504, 0.36996336996337, -0.873015873015873, 2.46875, -0.15625, -0.625, 1.0
690, -7.329670329670329, 0.18437118437118438, -2.0134310134310134, 2.375, -0.34375, -0.1875, 1.0
691, -6.51037851037851, 0.6019536019536019, -1.9511599511599511, 2.3125, -0.46875, 0.15625, 1.0
692, -5.468864468864469, 0.5506715506715507, -2.0525030525030523, 2.28125, -0.34375, 0.4375, 1.0
693, -5.367521367521367, 0.7851037851037851, -3.3064713064713063, 2.28125, -0.40625, 0.78125, 1.0
694, -4.744810744810745, 0.08669108669108669, -4.102564102564102, 2.1875, -0.40625, 1.09375, 1.0
695, -3.956043956043956, -0.78998778998779, -4.096459096459096, 2.0625, -0.34375, 1.3125, 1.0
696, -2.600732600732601, -0.9816849816849816, -3.7704517704517704, 1.9375, -0.0625, 1.4375, 1.0
697, -0.10989010989010989, -1.4004884004884004, -3.4957264957264957, 1.6875, -0.0625, 1.53125, 1.0
698, 2.10989010989011, -1.0366300366300367, -3.3943833943833943, 1.40625, -0.4375, 1.5, 1.0
699, 1.811965811965812, -0.1916971916971917, -3.7191697191697193, 1.28125, -0.46875, 1.4375, 1.0
700, 3.2161172161172162, -0.01221001221001221, -5.152625152625153, 1.15625, 0.0, 1.4375, 1.0
701, 4.766788766788767, 0.047619047619047616, -5.483516483516484, 0.78125, 0.15625, 1.40625, 1.0
702, 6.031746031746032, -0.1978021978021978, -5.929181929181929, 0.0625, 0.28125, 1.375, 1.0
703, 5.688644688644689, 0.5775335775335775, -5.3003663003663, -0.5625, 0.25, 1.25, 0.0
704, 5.537240537240537, 0.6923076923076923, -4.461538461538462, -0.71875, 0.375, 0.9375, 0.0
705, 5.750915750915751, 0.47863247863247865, -3.457875457875458, -0.71875, 0.8125, 0.46875, 0.0
706, 5.997557997557998, 0.4371184371184371, -2.2905982905982905, -0.625, 1.3125, 0.0, 0.0
707, 5.956043956043956, -0.9694749694749695, -1.811965811965812, -0.625, 1.5, -0.46875, 0.0
708, 5.130647130647131, -0.6178266178266179, -0.3797313797313797, -0.96875, 1.03125, -0.6875, 0.0
709, 3.227106227106227, 0.07936507936507936, 1.1623931623931625, -0.90625, 0.59375, -0.96875, 0.0
710, 1.0293040293040292, 0.5506715506715507, 2.0317460317460316, -0.40625, 0.5625, -0.9375, 0.0
711, -0.6568986568986569, 0.3247863247863248, 2.625152625152625, 0.125, 0.875, -0.90625, 0.0
712, -0.6398046398046398, -0.018315018315018316, 3.1794871794871793, 0.71875, 1.0625, -0.65625, 0.0
713, -0.33821733821733824, -1.1147741147741148, 3.634920634920635, 0.59375, 0.0, -0.6875, 0.0
714, -3.735042735042735, -0.004884004884004884, 3.868131868131868, 0.875, -0.40625, -0.46875, 0.0
715, -6.450549450549451, 0.0, 3.272283272283272, 1.125, 0.0, -0.1875, 0.0
716, -7.186813186813187, 0.33455433455433453, 3.415140415140415, 1.28125, 0.40625, 0.21875, 0.0
717, -7.775335775335775, 1.1233211233211233, 3.3772893772893773, 1.59375, 0.46875, 0.625, 0.0
718, -6.9181929181929185, 0.21978021978021978, 1.7277167277167278, 1.40625, -0.28125, 1.03125, 1.0
719, -8.868131868131869, 1.065934065934066, -0.2600732600732601, 1.125, -0.8125, 1.4375, 1.0
720, -10.156288156288156, 1.8278388278388278, -2.1416361416361416, 1.09375, -0.53125, 1.90625, 1.0
721, -9.057387057387057, 1.8241758241758241, -3.7423687423687424, 1.25, -0.125, 2.34375, 1.0
722, -6.5225885225885225, 0.3418803418803419, -5.48962148962149, 1.15625, -0.15625, 2.75, 1.0
723, -4.12942612942613, -0.9084249084249084, -7.564102564102564, 0.40625, -0.625, 3.03125, 1.0
724, -2.7484737484737485, 0.15506715506715507, -9.907203907203908, 0.0, -0.59375, 3.15625, 1.0
725, -0.6996336996336996, -0.47374847374847373, -10.910866910866911, 0.03125, -0.3125, 3.28125, 1.0
726, 1.485958485958486, -2.173382173382173, -12.141636141636141, -0.1875, -0.09375, 3.3125, 1.0
727, 4.148962148962149, -3.5396825396825395, -12.42002442002442, -0.90625, 0.0, 3.15625, 1.0
728, 5.356532356532356, -4.214896214896215, -12.317460317460318, -1.71875, 0.0, 2.875, 1.0
729, 6.046398046398046, -4.221001221001221, -10.866910866910867, -2.375, 0.0, 2.625, 1.0
730, 6.5506715506715505, -4.787545787545787, -9.428571428571429, -2.625, 0.25, 2.46875, 1.0
731, 7.476190476190476, -6.554334554334554, -8.493284493284493, -2.71875, 0.6875, 2.25, 1.0
732, 8.203907203907203, -8.156288156288156, -6.698412698412699, -3.0, 0.84375, 1.9375, 1.0
733, 7.604395604395604, -8.963369963369964, -4.482295482295482, -3.4375, 0.9375, 1.4375, 1.0
734, 6.967032967032967, -8.960927960927961, -2.225885225885226, -3.6875, 1.28125, 1.0, 1.0
735, 6.910866910866911, -9.506715506715507, -0.2600732600732601, -3.53125, 1.5, 0.4375, 1.0
736, 6.57997557997558, -9.818070818070819, 1.3894993894993894, -3.3125, 1.5, 0.0, 1.0
737, 5.485958485958486, -9.388278388278389, 2.156288156288156, -3.0, 1.65625, -0.53125, 1.0
738, 3.93040293040293, -8.573870573870574, 2.641025641025641, -2.625, 1.8125, -0.75, 1.0
739, 3.8998778998779, -8.953601953601954, 3.3797313797313797, -2.375, 1.71875, -0.96875, 1.0
740, 3.8986568986568986, -9.123321123321123, 4.4212454212454215, -2.15625, 1.59375, -1.34375, 1.0
741, 3.41025641025641, -9.122100122100122, 5.264957264957265, -1.90625, 1.6875, -1.78125, 1.0
742, 2.3797313797313797, -8.514041514041514, 6.130647130647131, -1.53125, 1.96875, -2.15625, 1.0
743, 1.94993894993895, -8.054945054945055, 6.847374847374847, -1.09375, 1.9375, -2.46875, 1.0
744, 1.242979242979243, -7.768009768009768, 7.039072039072039, -0.75, 1.6875, -2.65625, 1.0
745, 0.11965811965811966, -7.192918192918193, 6.796092796092796, -0.53125, 1.5625, -2.8125, 1.0
746, -1.1233211233211233, -6.882783882783883, 6.245421245421245, -0.125, 1.5625, -3.0, 1.0
747, -3.070818070818071, -5.96947496947497, 5.402930402930403, 0.03125, 1.59375, -3.125, 1.0
748, -3.568986568986569, -5.174603174603175, 5.378510378510379, 0.21875, 1.625, -3.09375, 1.0
749, -3.8815628815628815, -4.5677655677655675, 5.805860805860806, 0.46875, 1.5625, -3.03125, 1.0
750, -5.308913308913309, -3.2564102564102564, 5.482295482295482, 0.8125, 1.5625, -2.9375, 1.0
751, -4.64957264957265, -3.2014652014652016, 5.372405372405372, 1.28125, 1.46875, -2.71875, 1.0
752, -4.583638583638583, -3.214896214896215, 5.001221001221001, 1.53125, 1.1875, -2.5625, 1.0
753, -5.686202686202686, -2.015873015873016, 4.05006105006105, 1.75, 1.09375, -2.4375, 1.0
754, -5.913308913308914, -1.1025641025641026, 3.52014652014652, 2.0625, 1.03125, -2.0625, 1.0
755, -5.627594627594628, -1.032967032967033, 3.595848595848596, 2.375, 0.8125, -1.71875, 1.0
756, -5.987789987789988, -1.3064713064713065, 2.884004884004884, 2.59375, 0.46875, -1.40625, 1.0
757, -6.847374847374847, -1.0866910866910866, 1.413919413919414, 2.75, 0.21875, -1.125, 1.0
758, -6.355311355311355, -0.5274725274725275, 0.557997557997558, 2.9375, 0.125, -0.53125, 1.0
759, -5.462759462759463, -0.706959706959707, -0.42857142857142855, 3.03125, 0.03125, -0.21875, 1.0
760, -5.354090354090354, -1.0818070818070817, -2.2857142857142856, 2.9375, -0.09375, 0.09375, 1.0
761, -5.2173382173382175, -1.503052503052503, -3.4285714285714284, 2.65625, -0.21875, 0.34375, 1.0
762, -5.4322344322344325, -1.5238095238095237, -3.2356532356532357, 2.5, -0.03125, 0.59375, 1.0
763, -3.943833943833944, -1.181929181929182, -2.3382173382173383, 2.34375, 0.0, 0.8125, 1.0
764, -3.10989010989011, 0.09035409035409035, -2.5982905982905984, 2.3125, -0.21875, 1.03125, 1.0
765, -3.0463980463980462, 0.3492063492063492, -4.122100122100122, 2.25, -0.40625, 1.25, 1.0
766, -2.9328449328449326, -0.5213675213675214, -5.818070818070818, 1.96875, -0.5625, 1.5, 1.0
767, -3.1123321123321124, -0.8131868131868132, -6.034188034188034, 1.46875, -0.53125, 1.65625, 1.0
768, -2.3015873015873014, -0.02197802197802198, -4.656898656898657, 1.3125, -0.21875, 1.875, 1.0
769, 0.6214896214896215, 0.009768009768009768, -3.9523809523809526, 1.4375, 0.0, 1.90625, 1.0
770, 5.8046398046398044, -2.485958485958486, -4.914529914529915, 0.90625, -0.09375, 1.75, 1.0
771, 5.333333333333333, -1.8705738705738706, -5.034188034188034, 0.1875, -0.40625, 1.625, 1.0
772, 4.967032967032967, -1.089133089133089, -4.803418803418803, -0.09375, -0.15625, 1.40625, 0.0
773, 5.588522588522588, -0.5152625152625152, -3.757020757020757, -0.0625, 0.1875, 1.15625, 0.0
774, 5.892551892551893, -0.7521367521367521, -3.402930402930403, -0.1875, 0.25, 0.96875, 0.0
775, 5.686202686202686, -0.28815628815628813, -2.3846153846153846, -0.375, 0.25, 0.6875, 0.0
776, 5.079365079365079, -0.03785103785103785, -1.4884004884004884, -0.34375, 0.40625, 0.40625, 0.0
777, 4.951159951159951, -0.536019536019536, -0.8351648351648352, -0.3125, 0.59375, 0.0625, 0.0
778, 4.736263736263736, -0.27472527472527475, 0.020757020757020756, -0.375, 0.59375, -0.3125, 0.0
779, 3.6935286935286937, -0.14407814407814407, 0.4884004884004884, -0.25, 0.53125, -0.4375, 0.0
780, 2.5824175824175826, -0.43345543345543347, 0.7191697191697192, 0.0, 0.71875, -0.4375, 0.0
781, 1.4468864468864469, -1.363858363858364, 0.8192918192918193, 0.0, 1.0625, -0.75, 0.0
782, 0.4603174603174603, -1.164835164835165, 1.551892551892552, 0.1875, 1.0625, -0.96875, 0.0
783, -0.4603174603174603, -0.2869352869352869, 2.9047619047619047, 0.59375, 0.59375, -1.0625, 0.0
784, -2.492063492063492, 0.3064713064713065, 3.568986568986569, 0.84375, 0.375, -0.75, 0.0
785, -4.7997557997558, 0.6654456654456654, 2.871794871794872, 1.15625, 0.46875, -0.4375, 0.0
786, -6.0818070818070815, 0.5873015873015873, 2.0964590964590966, 1.15625, 0.34375, -0.15625, 0.0
787, -7.294261294261294, 0.8559218559218559, 1.4603174603174602, 1.0, 0.15625, 0.15625, 1.0
788, -7.750915750915751, 1.6043956043956045, 1.1782661782661783, 0.90625, -0.1875, 0.5625, 1.0
789, -9.13064713064713, 2.562881562881563, 0.16117216117216118, 0.84375, -0.5, 1.0625, 1.0
790, -10.371184371184372, 3.6117216117216118, -1.4822954822954824, 1.0, -0.46875, 1.6875, 1.0
791, -9.851037851037852, 3.1526251526251525, -2.8705738705738706, 1.125, -0.3125, 2.21875, 1.0
792, -8.234432234432234, 1.7606837606837606, -4.417582417582418, 0.78125, -0.28125, 2.59375, 1.0
793, -5.663003663003663, 0.5982905982905983, -7.87057387057387, -0.125, -0.9375, 3.09375, 1.0
794, -4.975579975579976, -0.2844932844932845, -8.699633699633699, -0.46875, -1.0625, 3.46875, 1.0
795, -2.907203907203907, -2.3907203907203907, -10.025641025641026, -0.375, -0.5, 3.71875, 1.0
796, 1.15018315018315, -4.190476190476191, -10.782661782661783, -0.375, 0.15625, 3.75, 1.0
797, 4.915750915750916, -5.726495726495727, -11.435897435897436, -0.75, 0.15625, 3.59375, 1.0
798, 5.993894993894994, -6.454212454212454, -12.271062271062272, -1.46875, -0.1875, 3.375, 1.0
799, 5.9462759462759465, -6.142857142857143, -11.931623931623932, -2.0625, -0.09375, 3.0, 1.0
800, 6.155067155067155, -6.345543345543345, -10.62026862026862, -2.3125, 0.5625, 2.59375, 1.0
801, 7.192918192918193, -7.08058608058608, -8.51037851037851, -2.4375, 1.25, 2.25, 1.0
802, 8.079365079365079, -8.27960927960928, -6.557997557997558, -2.71875, 1.46875, 1.875, 1.0
803, 7.626373626373627, -8.715506715506715, -5.131868131868132, -3.03125, 1.40625, 1.4375, 1.0
804, 6.547008547008547, -8.553113553113553, -3.4249084249084247, -3.21875, 1.375, 1.03125, 1.0
805, 5.194139194139194, -8.637362637362637, -1.6275946275946276, -3.15625, 1.90625, 0.46875, 1.0
806, 4.559218559218559, -8.875457875457876, 0.0989010989010989, -2.9375, 2.25, 0.125, 1.0
807, 4.573870573870574, -9.533577533577533, 1.5995115995115996, -2.875, 2.3125, -0.21875, 1.0
808, 4.34065934065934, -9.601953601953602, 3.0476190476190474, -2.75, 2.1875, -0.59375, 1.0
809, 3.8485958485958487, -9.229548229548229, 4.78021978021978, -2.46875, 2.125, -0.96875, 1.0
810, 3.47008547008547, -8.810744810744811, 6.5396825396825395, -2.09375, 2.03125, -1.3125, 1.0
811, 3.0097680097680097, -8.67032967032967, 7.492063492063492, -1.59375, 1.9375, -1.6875, 1.0
812, 2.5286935286935286, -8.953601953601954, 8.134310134310134, -1.21875, 1.96875, -2.125, 1.0
813, 1.9511599511599511, -8.881562881562882, 8.575091575091575, -0.84375, 1.9375, -2.59375, 1.0
814, 1.1892551892551892, -8.17094017094017, 8.577533577533577, -0.46875, 1.71875, -2.90625, 1.0
815, 0.0927960927960928, -7.896214896214897, 8.12087912087912, -0.15625, 1.46875, -3.09375, 1.0
816, -1.028083028083028, -7.772893772893773, 7.26984126984127, 0.25, 1.34375, -3.375, 1.0
817, -4.1001221001221, -6.428571428571429, 4.9010989010989015, 0.625, 1.5, -3.4375, 1.0
818, -4.619047619047619, -5.6581196581196584, 4.851037851037851, 0.75, 1.5625, -3.375, 1.0
819, -4.0818070818070815, -5.280830280830281, 5.451770451770452, 0.84375, 1.53125, -3.28125, 1.0
820, -4.130647130647131, -4.283272283272283, 5.769230769230769, 1.09375, 1.25, -3.125, 1.0
821, -6.7203907203907205, -2.9096459096459095, 3.937728937728938, 1.625, 0.90625, -3.0, 1.0
822, -7.523809523809524, -2.42002442002442, 2.808302808302808, 2.125, 1.0, -2.65625, 1.0
823, -6.538461538461538, -1.8864468864468864, 3.3553113553113554, 2.25, 1.4375, -2.34375, 1.0
824, -4.713064713064713, -1.3675213675213675, 3.473748473748474, 2.34375, 1.25, -2.03125, 1.0
825, -5.576312576312576, -0.6544566544566545, 1.9865689865689866, 2.40625, 0.46875, -1.65625, 1.0
826, -7.131868131868132, 0.14407814407814407, 0.652014652014652, 2.5, 0.0, -1.21875, 1.0
827, -7.589743589743589, 0.35653235653235654, 0.3418803418803419, 2.625, 0.21875, -0.875, 1.0
828, -5.7032967032967035, 0.5054945054945055, 0.442002442002442, 2.96875, 0.46875, -0.34375, 1.0
829, -3.485958485958486, -0.7924297924297924, -0.8046398046398047, 2.90625, -0.1875, 0.03125, 1.0
830, -3.06959706959707, -1.2148962148962148, -2.249084249084249, 2.5625, -0.90625, 0.21875, 1.0
831, -4.57997557997558, -0.6166056166056166, -3.2893772893772892, 2.40625, -0.875, 0.3125, 1.0
832, -6.422466422466423, 0.31746031746031744, -4.512820512820513, 2.5625, -0.3125, 0.59375, 1.0
833, -4.995115995115995, 0.04395604395604396, -5.183150183150183, 2.59375, 0.0, 0.9375, 1.0
834, -2.2625152625152625, -0.9035409035409036, -5.893772893772894, 2.125, -0.40625, 1.21875, 1.0
835, -1.1062271062271063, -1.0305250305250304, -6.070818070818071, 1.5, -0.84375, 1.3125, 1.0
836, -1.6764346764346765, -0.28327228327228327, -5.365079365079365, 1.1875, -0.84375, 1.40625, 1.0
837, -1.9194139194139195, -0.358974358974359, -4.525030525030525, 1.1875, -0.4375, 1.5, 1.0
838, -0.23565323565323565, -0.5201465201465202, -3.7032967032967035, 1.1875, -0.0625, 1.59375, 1.0
839, 1.8681318681318682, -0.23443223443223443, -3.0073260073260073, 1.21875, 0.0, 1.5, 1.0
840, 3.142857142857143, -0.8315018315018315, -3.7826617826617825, 0.71875, -0.40625, 1.375, 1.0
841, 2.5506715506715505, -0.5982905982905983, -4.042735042735043, 0.5, -0.65625, 1.3125, 1.0
842, 2.4896214896214897, -0.2698412698412698, -3.8815628815628815, 0.375, -0.3125, 1.1875, 1.0
843, 3.989010989010989, -0.31868131868131866, -3.2954822954822953, 0.3125, 0.34375, 1.0625, 1.0
844, 5.711843711843712, -0.945054945054945, -3.2747252747252746, 0.0, 0.75, 0.96875, 0.0
845, 6.131868131868132, -0.8461538461538461, -2.9413919413919416, -0.5, 0.5625, 0.75, 0.0
846, 5.056166056166056, -0.16483516483516483, -2.4664224664224665, -0.75, 0.25, 0.46875, 0.0
847, 4.0537240537240535, 0.18192918192918192, -1.7826617826617828, -0.65625, 0.3125, 0.28125, 0.0
848, 3.542124542124542, 0.13064713064713065, -1.0634920634920635, -0.5625, 0.59375, 0.0625, 0.0
849, 3.1868131868131866, -0.18681318681318682, -0.12454212454212454, -0.4375, 0.8125, -0.0625, 0.0
850, 2.4236874236874235, -0.2612942612942613, 0.7851037851037851, -0.3125, 1.0, -0.34375, 0.0
851, 1.6459096459096458, -0.38095238095238093, 1.3199023199023199, -0.15625, 1.1875, -0.40625, 0.0
852, 1.0036630036630036, -0.612942612942613, 1.993894993894994, -0.0625, 1.21875, -0.5, 0.0
853, 0.2625152625152625, -0.5323565323565324, 2.404151404151404, 0.0625, 1.25, -0.59375, 0.0
854, -0.1794871794871795, -0.7032967032967034, 2.7155067155067156, 0.28125, 1.09375, -0.71875, 0.0
855, -1.2454212454212454, -0.25396825396825395, 2.9218559218559217, 0.59375, 0.75, -0.90625, 0.0
856, -2.258852258852259, 0.1391941391941392, 3.3968253968253967, 0.84375, 0.40625, -0.625, 0.0
857, -4.247863247863248, 0.6959706959706959, 3.032967032967033, 1.09375, 0.25, -0.375, 0.0
858, -5.31990231990232, 0.6654456654456654, 2.2515262515262515, 1.125, 0.21875, -0.03125, 0.0
859, -6.523809523809524, 1.2612942612942613, 1.7032967032967032, 1.3125, 0.125, 0.28125, 1.0
860, -6.915750915750916, 1.2967032967032968, 0.9242979242979243, 1.40625, -0.1875, 0.6875, 1.0
861, -7.846153846153846, 1.5909645909645909, -0.6617826617826618, 1.28125, -0.5625, 1.09375, 1.0
862, -8.943833943833944, 2.3846153846153846, -2.5873015873015874, 1.09375, -0.8125, 1.53125, 1.0
863, -9.25885225885226, 2.398046398046398, -5.330891330891331, 0.5625, -0.75, 2.21875, 1.0
864, -7.468864468864469, 1.7887667887667889, -6.390720390720391, 0.375, -0.625, 2.6875, 1.0
865, -4.207570207570208, -0.08424908424908426, -8.264957264957266, 0.34375, -0.8125, 3.09375, 1.0
866, -2.421245421245421, -1.531135531135531, -10.63980463980464, 0.0, -1.125, 3.25, 1.0
867, -1.3943833943833943, -2.4297924297924296, -12.23076923076923, -0.53125, -1.0, 3.3125, 1.0
868, 1.3418803418803418, -3.4481074481074483, -12.592185592185592, -1.0, -0.625, 3.34375, 1.0
869, 3.2576312576312576, -4.7484737484737485, -12.374847374847375, -1.4375, -0.625, 3.34375, 1.0
870, 3.131868131868132, -4.2063492063492065, -11.18070818070818, -1.84375, -0.53125, 3.25, 1.0
871, 3.943833943833944, -5.1001221001221, -10.434676434676435, -1.875, 0.0, 3.1875, 1.0
872, 4.7313797313797314, -6.424908424908425, -9.387057387057387, -1.9375, 0.4375, 3.09375, 1.0
873, 6.554334554334554, -7.747252747252747, -7.213675213675214, -2.1875, 0.65625, 2.84375, 1.0
874, 6.52014652014652, -8.844932844932845, -5.676434676434677, -2.78125, 0.9375, 2.1875, 1.0
875, 5.501831501831502, -8.860805860805861, -4.0927960927960925, -2.90625, 1.8125, 1.625, 1.0
876, 6.426129426129426, -9.505494505494505, -2.1074481074481075, -2.96875, 2.25, 1.0625, 1.0
877, 6.56043956043956, -9.758241758241759, -0.41514041514041516, -3.15625, 2.09375, 0.65625, 1.0
878, 6.416361416361417, -9.10989010989011, 1.459096459096459, -3.09375, 1.75, 0.25, 1.0
879, 5.058608058608058, -8.598290598290598, 2.358974358974359, -2.6875, 1.75, -0.09375, 1.0
880, 4.438339438339439, -8.876678876678877, 2.6312576312576312, -2.375, 1.90625, -0.5, 1.0
881, 3.8913308913308913, -9.49084249084249, 2.647130647130647, -2.5, 2.0, -0.9375, 1.0
882, 3.6105006105006106, -9.385836385836386, 3.4444444444444446, -2.625, 1.90625, -1.28125, 1.0
883, 2.617826617826618, -9.010989010989011, 4.286935286935287, -2.5625, 1.9375, -1.65625, 1.0
884, 2.3907203907203907, -8.802197802197803, 5.362637362637362, -2.09375, 1.8125, -2.0, 1.0
885, 1.4456654456654456, -8.782661782661783, 5.929181929181929, -1.59375, 1.78125, -2.375, 1.0
886, -0.7362637362637363, -8.448107448107448, 6.490842490842491, -0.90625, 2.09375, -2.84375, 1.0
887, -1.5091575091575091, -6.9804639804639805, 6.702075702075702, -0.5, 2.25, -3.0625, 1.0
888, -2.2014652014652016, -6.308913308913309, 6.500610500610501, -0.25, 2.09375, -3.15625, 1.0
889, -2.8864468864468864, -5.57020757020757, 6.5787545787545785, 0.0, 1.78125, -3.125, 1.0
890, -2.9023199023199022, -5.424908424908425, 6.562881562881563, 0.375, 1.5, -3.125, 1.0
891, -4.673992673992674, -4.628815628815629, 5.385836385836386, 0.78125, 1.34375, -3.15625, 1.0
892, -5.941391941391942, -3.7020757020757022, 4.106227106227106, 1.15625, 1.5625, -3.09375, 1.0
893, -5.054945054945055, -3.1062271062271063, 4.1501831501831505, 1.40625, 1.6875, -2.84375, 1.0
894, -4.041514041514041, -3.1807081807081805, 4.884004884004884, 1.46875, 1.46875, -2.625, 1.0
895, -3.612942612942613, -2.8705738705738706, 5.302808302808303, 1.65625, 1.0, -2.59375, 1.0
896, -5.626373626373627, -1.8571428571428572, 4.16971916971917, 2.09375, 0.59375, -2.46875, 1.0
897, -6.162393162393163, -2.1855921855921854, 3.42002442002442, 2.5625, 0.625, -2.125, 1.0
898, -5.069597069597069, -2.1062271062271063, 3.2075702075702077, 2.75, 0.5, -1.78125, 1.0
899, -5.356532356532356, -1.0525030525030525, 2.166056166056166, 2.9375, 0.09375, -1.46875, 1.0
900, -6.655677655677656, -0.10012210012210013, 0.08058608058608059, 3.15625, -0.28125, -1.09375, 1.0
901, -7.00976800976801, -0.39316239316239315, -1.7557997557997558, 3.125, -0.40625, -0.625, 1.0
902, -6.233211233211233, -1.336996336996337, -2.4078144078144077, 2.78125, -0.25, -0.34375, 1.0
903, -5.644688644688645, -1.1355311355311355, -2.695970695970696, 2.5625, -0.1875, -0.0625, 1.0
904, -4.932844932844933, -0.7863247863247863, -3.131868131868132, 2.5, -0.1875, 0.25, 1.0
905, -4.065934065934066, -0.5079365079365079, -3.311355311355311, 2.46875, -0.21875, 0.5, 1.0
906, -3.786324786324786, -0.23809523809523808, -4.107448107448107, 2.4375, -0.125, 0.6875, 1.0
907, -4.1501831501831505, -0.2039072039072039, -5.677655677655678, 2.1875, -0.03125, 0.9375, 1.0
908, -3.437118437118437, -0.4249084249084249, -6.582417582417582, 1.6875, -0.03125, 1.1875, 1.0
909, -2.744810744810745, 0.34065934065934067, -5.757020757020757, 1.1875, 0.0, 1.5, 1.0
910, -0.15873015873015872, 0.7252747252747253, -4.070818070818071, 1.125, 0.0, 1.65625, 1.0
911, 0.7863247863247863, 0.2442002442002442, -5.0366300366300365, 1.09375, -0.21875, 1.78125, 1.0
912, 1.4297924297924298, -0.2576312576312576, -5.8998778998779, 0.84375, -0.375, 1.84375, 1.0
913, 2.4725274725274726, -0.5726495726495726, -5.951159951159951, 0.40625, -0.15625, 1.8125, 1.0
914, 3.586080586080586, -1.006105006105006, -5.4603174603174605, -0.125, 0.0625, 1.78125, 1.0
915, 4.760683760683761, -0.7680097680097681, -4.2796092796092795, -0.625, 0.125, 1.71875, 0.0
916, 6.180708180708181, -0.5470085470085471, -3.2002442002442004, -0.625, 0.125, 1.53125, 0.0
917, 6.323565323565323, -0.7350427350427351, -2.687423687423687, -0.46875, 0.125, 1.1875, 0.0
918, 6.211233211233211, -0.9365079365079365, -2.271062271062271, -0.34375, 0.28125, 0.84375, 0.0
919, 5.803418803418803, -1.2844932844932846, -1.84981684981685, -0.3125, 0.40625, 0.4375, 0.0
920, 5.043956043956044, -1.36996336996337, -0.9755799755799756, -0.46875, 0.5625, 0.03125, 0.0
921, 4.286935286935287, -0.8522588522588522, 0.2271062271062271, -0.5625, 0.90625, -0.28125, 0.0
922, 3.5665445665445668, -0.6642246642246642, 1.3577533577533578, -0.375, 0.9375, -0.4375, 0.0
923, 2.5702075702075704, -0.7777777777777778, 2.0317460317460316, -0.1875, 1.0, -0.5625, 0.0
924, 1.1037851037851039, -0.9206349206349206, 2.1941391941391943, -0.0625, 1.21875, -0.71875, 0.0
925, 0.315018315018315, -0.6263736263736264, 2.5177045177045176, 0.21875, 1.375, -0.96875, 0.0
926, -0.796092796092796, -0.3235653235653236, 3.012210012210012, 0.65625, 1.1875, -1.125, 0.0
927, -2.277167277167277, 0.2673992673992674, 4.002442002442002, 0.9375, 0.90625, -0.71875, 0.0
928, -4.057387057387057, 0.47985347985347987, 3.8119658119658117, 1.21875, 0.90625, -0.3125, 0.0
929, -5.078144078144078, -0.34676434676434675, 3.264957264957265, 1.15625, 0.8125, -0.1875, 0.0
930, -6.001221001221001, 0.31013431013431014, 2.457875457875458, 1.15625, 0.25, 0.03125, 1.0
931, -8.103785103785103, 1.4932844932844933, 1.5836385836385836, 1.1875, -0.25, 0.5, 1.0
932, -10.326007326007327, 2.3028083028083026, -0.16117216117216118, 1.25, -0.53125, 1.375, 1.0
933, -11.604395604395604, 2.4676434676434678, -3.9755799755799757, 1.0625, -0.5, 2.0, 1.0
934, -10.233211233211232, 2.0744810744810747, -5.571428571428571, 0.90625, -0.5, 2.59375, 1.0
935, -8.433455433455434, 0.1623931623931624, -7.697191697191697, 0.71875, -0.5625, 3.09375, 1.0
936, -4.3699633699633695, -1.557997557997558, -9.266178266178267, 0.28125, -0.59375, 3.40625, 1.0
937, -1.9584859584859584, -1.8998778998778998, -10.283272283272284, -0.3125, -1.0, 3.46875, 1.0
938, -1.5238095238095237, -1.7387057387057387, -10.992673992673993, -0.625, -1.125, 3.5625, 1.0
939, -0.22466422466422467, -3.056166056166056, -12.06959706959707, -0.5625, -0.5, 3.71875, 1.0
940, 3.2185592185592187, -5.344322344322344, -12.271062271062272, -0.75, 0.3125, 3.65625, 1.0
941, 7.029304029304029, -6.615384615384615, -11.768009768009769, -1.5625, 0.40625, 3.3125, 1.0
942, 7.411477411477412, -6.236874236874237, -10.934065934065934, -2.5625, -0.21875, 2.90625, 1.0
943, 5.384615384615385, -5.333333333333333, -9.547008547008547, -2.90625, -0.25, 2.65625, 1.0
944, 5.905982905982906, -6.140415140415141, -7.445665445665446, -2.53125, 0.71875, 2.4375, 1.0
945, 7.5335775335775335, -9.197802197802197, -6.431013431013431, -2.84375, 1.03125, 1.96875, 1.0
946, 8.31868131868132, -11.072039072039072, -4.819291819291819, -3.46875, 1.34375, 1.4375, 1.0
947, 8.218559218559218, -11.294261294261295, -2.63003663003663, -3.5625, 1.625, 0.875, 1.0
948, 7.766788766788767, -11.177045177045176, 0.03418803418803419, -3.34375, 1.9375, 0.28125, 1.0
949, 6.924297924297925, -10.937728937728938, 2.3162393162393164, -3.0625, 2.15625, -0.1875, 1.0
950, 6.495726495726496, -10.73137973137973, 3.976800976800977, -2.8125, 2.1875, -0.65625, 1.0
951, 5.274725274725275, -10.443223443223443, 4.556776556776557, -2.65625, 2.28125, -1.09375, 1.0
952, 4.434676434676435, -10.260073260073261, 5.31013431013431, -2.4375, 2.375, -1.5, 1.0
953, 3.802197802197802, -9.783882783882785, 6.422466422466423, -2.0625, 2.34375, -1.96875, 1.0
954, 3.2905982905982905, -9.63003663003663, 7.239316239316239, -1.6875, 2.15625, -2.46875, 1.0
955, 1.5653235653235653, -9.383394383394384, 7.255189255189255, -1.4375, 1.9375, -2.84375, 1.0
956, -1.4322344322344323, -7.435897435897436, 7.026862026862027, -0.84375, 1.59375, -3.15625, 1.0
957, -2.78998778998779, -6.597069597069597, 6.177045177045177, -0.4375, 1.53125, -3.28125, 1.0
958, -4.190476190476191, -5.583638583638583, 5.086691086691086, -0.0625, 1.59375, -3.25, 1.0
959, -4.457875457875458, -4.854700854700854, 4.334554334554334, 0.15625, 1.6875, -3.09375, 1.0
960, -4.506715506715507, -4.4041514041514045, 3.7020757020757022, 0.25, 1.6875, -2.9375, 1.0
961, -4.372405372405372, -3.628815628815629, 3.5824175824175826, 0.40625, 1.5, -2.8125, 1.0
962, -4.91941391941392, -3.0488400488400487, 3.3675213675213675, 0.6875, 1.3125, -2.65625, 1.0
963, -5.272283272283272, -3.122100122100122, 3.1465201465201464, 0.96875, 1.3125, -2.53125, 1.0
964, -5.645909645909646, -2.52014652014652, 3.2002442002442004, 1.25, 1.40625, -2.375, 1.0
965, -5.660561660561661, -1.713064713064713, 3.2893772893772892, 1.5625, 1.40625, -2.09375, 1.0
966, -5.487179487179487, -1.1807081807081807, 3.051282051282051, 1.8125, 1.09375, -1.8125, 1.0
967, -5.572649572649572, -0.9035409035409036, 2.896214896214896, 2.09375, 0.71875, -1.375, 1.0
968, -5.788766788766789, -0.46764346764346765, 2.7765567765567765, 2.28125, 0.59375, -1.09375, 1.0
969, -5.544566544566544, -0.46153846153846156, 2.557997557997558, 2.53125, 0.59375, -0.84375, 1.0
970, -5.284493284493284, -0.23931623931623933, 1.7179487179487178, 2.71875, 0.4375, -0.53125, 1.0
971, -4.42002442002442, -0.8376068376068376, 0.5836385836385837, 2.71875, -0.03125, -0.15625, 1.0
972, -3.8192918192918195, -1.0341880341880343, -0.5433455433455433, 2.625, -0.4375, 0.0, 1.0
973, -4.42002442002442, -0.34676434676434675, -1.6275946275946276, 2.625, -0.375, 0.125, 1.0
974, -5.0085470085470085, -0.045177045177045176, -3.070818070818071, 2.6875, -0.09375, 0.46875, 1.0
975, -4.253968253968254, -0.7594627594627594, -3.7838827838827838, 2.53125, 0.0, 0.8125, 1.0
976, -2.2246642246642248, -1.0964590964590966, -3.943833943833944, 2.1875, -0.25, 0.96875, 1.0
977, -1.8327228327228327, -0.3968253968253968, -4.297924297924298, 1.90625, -0.34375, 1.09375, 1.0
978, -0.851037851037851, 0.45787545787545786, -4.7997557997558, 1.8125, -0.34375, 1.1875, 1.0
979, -0.2258852258852259, 0.3992673992673993, -4.916971916971917, 1.59375, -0.15625, 1.375, 1.0
980, 0.27106227106227104, -0.5042735042735043, -4.423687423687424, 1.25, -0.125, 1.4375, 1.0
981, 1.2783882783882783, 0.2893772893772894, -3.3272283272283274, 0.8125, -0.1875, 1.53125, 1.0
982, 2.421245421245421, 0.7924297924297924, -2.802197802197802, 0.5625, -0.21875, 1.625, 1.0
983, 3.7020757020757022, 0.21733821733821734, -3.051282051282051, 0.40625, -0.0625, 1.71875, 1.0
984, 5.213675213675214, -0.35775335775335776, -2.9731379731379732, 0.21875, -0.03125, 1.625, 0.0
985, 6.0537240537240535, -0.7692307692307693, -3.2014652014652016, 0.0, -0.09375, 1.28125, 0.0
986, 6.1782661782661785, -0.8778998778998779, -3.184371184371184, -0.21875, -0.03125, 0.96875, 0.0
987, 5.771672771672772, -0.5201465201465202, -2.653235653235653, -0.3125, 0.125, 0.65625, 0.0
988, 5.238095238095238, -0.09157509157509157, -1.7960927960927962, -0.1875, 0.375, 0.375, 0.0
989, 4.3870573870573875, 0.13186813186813187, -1.017094017094017, -0.03125, 0.46875, 0.0625, 0.0
990, 2.741147741147741, 0.14285714285714285, -0.4932844932844933, 0.0625, 0.5625, -0.125, 0.0
991, 1.6080586080586081, 0.01221001221001221, 0.0989010989010989, 0.03125, 0.90625, -0.15625, 0.0
992, 0.5470085470085471, 0.10866910866910867, 1.0256410256410255, 0.0, 1.03125, -0.15625, 0.0
993, -0.7106227106227107, 0.5714285714285714, 1.8376068376068375, 0.34375, 1.1875, -0.28125, 0.0
994, -2.5714285714285716, 0.9010989010989011, 2.340659340659341, 1.03125, 1.21875, -0.375, 0.0
995, -2.982905982905983, 0.9316239316239316, 2.3015873015873014, 1.46875, 1.09375, -0.125, 0.0
996, -5.390720390720391, 0.5067155067155067, 0.9621489621489622, 1.34375, 1.03125, 0.21875, 0.0
997, -5.183150183150183, 0.23443223443223443, 0.10134310134310134, 1.15625, 0.6875, 0.5, 0.0
998, -5.7997557997558, 0.6007326007326007, -0.5372405372405372, 1.0, 0.15625, 0.8125, 0.0
999, -6.803418803418803, 0.9951159951159951, -1.619047619047619, 0.875, -0.1875, 1.15625, 1.0
1000, -7.794871794871795, 1.6007326007326008, -3.032967032967033, 0.6875, -0.3125, 1.5625, 1.0
1001, -7.418803418803419, 2.8754578754578755, -3.822954822954823, 0.5, -0.375, 2.03125, 1.0
1002, -6.017094017094017, 3.2002442002442004, -4.741147741147741, 0.3125, -0.875, 2.625, 1.0
1003, -3.318681318681319, 0.8547008547008547, -8.042735042735043, 0.125, -1.09375, 2.875, 1.0
1004, -1.4151404151404152, -0.42246642246642246, -9.885225885225886, -0.21875, -0.90625, 3.0625, 1.0
1005, 1.0940170940170941, -2.0036630036630036, -10.973137973137973, -0.5625, -0.6875, 3.125, 1.0
1006, 2.374847374847375, -3.231990231990232, -11.946275946275946, -1.03125, -0.5, 3.09375, 1.0
1007, 3.948717948717949, -4.527472527472527, -11.694749694749694, -1.28125, -0.3125, 3.0625, 1.0
1008, 4.910866910866911, -6.273504273504273, -11.338217338217339, -1.625, -0.125, 2.9375, 1.0
1009, 5.517704517704518, -8.164835164835164, -10.663003663003662, -2.25, 0.5625, 2.4375, 1.0
1010, 6.371184371184371, -8.528693528693529, -8.046398046398046, -2.84375, 1.1875, 2.0625, 1.0
1011, 6.6996336996337, -8.665445665445665, -5.3003663003663, -3.1875, 1.375, 1.71875, 1.0
1012, 6.809523809523809, -9.052503052503052, -3.0415140415140414, -3.3125, 1.46875, 1.34375, 1.0
1013, 7.086691086691086, -9.363858363858364, -1.7643467643467643, -3.21875, 1.5, 0.90625, 1.0
1014, 6.2515262515262515, -10.656898656898656, -1.2893772893772895, -3.25, 1.5625, 0.25, 1.0
1015, 5.583638583638583, -10.98046398046398, -0.01098901098901099, -3.5, 1.71875, -0.1875, 1.0
1016, 4.968253968253968, -10.837606837606838, 1.5506715506715507, -3.4375, 1.9375, -0.625, 1.0
1017, 4.34065934065934, -10.365079365079366, 3.032967032967033, -3.09375, 2.09375, -1.03125, 1.0
1018, 4.2905982905982905, -10.340659340659341, 4.318681318681318, -2.6875, 1.96875, -1.4375, 1.0
1019, 3.0317460317460316, -9.755799755799757, 5.16971916971917, -2.375, 1.96875, -1.84375, 1.0
1020, 2.1294261294261294, -9.355311355311356, 5.897435897435898, -2.0, 2.0625, -2.28125, 1.0
1021, 0.9560439560439561, -8.792429792429793, 6.621489621489621, -1.59375, 2.1875, -2.59375, 1.0
1022, 0.6117216117216118, -8.395604395604396, 7.222222222222222, -1.09375, 2.0625, -2.84375, 1.0
1023, -0.3894993894993895, -8.094017094017094, 7.175824175824176, -0.71875, 1.75, -2.96875, 1.0
1024, -1.5775335775335775, -7.311355311355311, 7.017094017094017, -0.34375, 1.53125, -3.0, 1.0
1025, -2.515262515262515, -6.333333333333333, 6.914529914529915, -0.03125, 1.40625, -2.96875, 1.0
1026, -3.73992673992674, -5.490842490842491, 6.422466422466423, 0.53125, 1.3125, -2.96875, 1.0
1027, -4.216117216117216, -5.018315018315018, 5.802197802197802, 0.84375, 1.25, -2.875, 1.0
1028, -3.9902319902319903, -4.82051282051282, 5.611721611721611, 1.09375, 1.1875, -2.75, 1.0
1029, -3.965811965811966, -4.073260073260073, 5.811965811965812, 1.25, 0.96875, -2.59375, 1.0
1030, -4.409035409035409, -3.402930402930403, 5.559218559218559, 1.59375, 0.8125, -2.40625, 1.0
1031, -5.498168498168498, -2.3565323565323566, 4.474969474969475, 2.03125, 0.78125, -2.21875, 1.0
1032, -5.246642246642247, -2.3162393162393164, 3.6971916971916974, 2.40625, 0.71875, -1.90625, 1.0
1033, -5.2234432234432235, -1.9413919413919414, 3.197802197802198, 2.5, 0.625, -1.625, 1.0
1034, -6.26984126984127, -1.0122100122100122, 2.2954822954822953, 2.625, 0.5, -1.34375, 1.0
1035, -5.976800976800977, -0.5555555555555556, 1.4835164835164836, 2.8125, 0.34375, -0.90625, 1.0
1036, -5.343101343101343, -1.1367521367521367, 0.9340659340659341, 2.875, 0.0, -0.46875, 1.0
1037, -5.47008547008547, -0.9499389499389499, -0.1623931623931624, 2.90625, -0.3125, -0.125, 1.0
1038, -5.932844932844933, -0.9584859584859585, -2.1892551892551895, 2.90625, -0.25, 0.25, 1.0
1039, -4.759462759462759, -1.2332112332112333, -3.1257631257631258, 2.8125, -0.34375, 0.5, 1.0
1040, -4.157509157509158, -1.492063492063492, -3.6214896214896215, 2.71875, -0.21875, 0.71875, 1.0
1041, -3.199023199023199, -1.465201465201465, -4.26984126984127, 2.59375, -0.25, 0.875, 1.0
1042, -2.901098901098901, -1.7960927960927962, -5.004884004884005, 2.25, -0.375, 1.0625, 1.0
1043, -1.4444444444444444, -0.7582417582417582, -4.865689865689865, 2.0, -0.375, 1.15625, 1.0
1044, -0.8693528693528694, -0.4175824175824176, -5.361416361416361, 1.90625, -0.3125, 1.25, 1.0
1045, -0.2686202686202686, -0.9096459096459096, -5.947496947496948, 1.625, -0.34375, 1.3125, 1.0
1046, -0.4249084249084249, -0.6019536019536019, -5.652014652014652, 1.25, -0.4375, 1.40625, 1.0
1047, -0.525030525030525, 0.031746031746031744, -4.548229548229548, 1.0, -0.3125, 1.5, 1.0
1048, 1.0366300366300367, 1.120879120879121, -3.518925518925519, 0.96875, -0.125, 1.6875, 1.0
1049, 4.970695970695971, -1.2039072039072038, -5.51037851037851, 0.6875, 0.0, 1.71875, 1.0
1050, 5.6239316239316235, -1.0085470085470085, -5.687423687423688, 0.0625, -0.1875, 1.65625, 0.0
1051, 4.688644688644689, -0.1343101343101343, -4.885225885225886, -0.1875, -0.1875, 1.4375, 0.0
1052, 5.800976800976801, -0.06837606837606838, -3.7142857142857144, -0.3125, 0.03125, 1.28125, 0.0
1053, 6.4493284493284495, -0.21978021978021978, -2.6910866910866913, -0.25, 0.3125, 1.0625, 0.0
1054, 6.450549450549451, -0.7094017094017094, -2.120879120879121, -0.25, 0.46875, 0.71875, 0.0
1055, 5.4664224664224665, -0.8559218559218559, -1.6764346764346765, -0.34375, 0.6875, 0.25, 0.0
1056, 4.742368742368742, -0.7203907203907204, -0.6691086691086691, -0.34375, 1.0, -0.0625, 0.0
1057, 3.481074481074481, -0.6923076923076923, 0.08058608058608059, -0.3125, 1.1875, -0.25, 0.0
1058, 2.426129426129426, -0.4884004884004884, 0.9426129426129426, -0.21875, 1.4375, -0.3125, 0.0
1059, 1.7264957264957266, -0.463980463980464, 1.5787545787545787, -0.03125, 1.6875, -0.375, 0.0
1060, 0.9474969474969475, -0.8571428571428571, 1.8644688644688645, 0.40625, 1.65625, -0.78125, 0.0
1061, -0.32722832722832723, -0.608058608058608, 2.526251526251526, 0.78125, 1.21875, -0.84375, 0.0
1062, -2.0964590964590966, -0.47985347985347987, 2.873015873015873, 0.875, 1.03125, -0.5, 0.0
1063, -4.216117216117216, 0.5531135531135531, 3.2857142857142856, 1.21875, 1.09375, -0.25, 0.0
1064, -5.299145299145299, 0.8717948717948718, 3.8485958485958487, 1.40625, 0.8125, 0.03125, 0.0
1065, -6.16971916971917, 1.2063492063492063, 3.3089133089133087, 1.40625, 0.09375, 0.40625, 1.0
1066, -7.472527472527473, 1.695970695970696, 1.7716727716727716, 1.21875, -0.59375, 0.75, 1.0
1067, -9.411477411477412, 2.1758241758241756, -0.3333333333333333, 0.96875, -0.78125, 1.25, 1.0
1068, -9.822954822954824, 2.514041514041514, -2.2967032967032965, 0.71875, -0.65625, 1.71875, 1.0
1069, -8.93894993894994, 1.9987789987789988, -4.188034188034188, 0.5625, -0.59375, 2.25, 1.0
1070, -6.462759462759463, 0.5445665445665445, -6.112332112332112, 0.34375, -0.75, 2.65625, 1.0
1071, -4.2625152625152625, -0.6764346764346765, -8.095238095238095, 0.03125, -1.15625, 2.9375, 1.0
1072, -2.2466422466422467, -1.376068376068376, -10.884004884004884, -0.53125, -0.71875, 3.21875, 1.0
1073, 0.9462759462759462, -3.2783882783882783, -10.98046398046398, -0.75, -0.21875, 3.3125, 1.0
1074, 3.8046398046398044, -4.534798534798535, -11.153846153846153, -1.0625, -0.125, 3.28125, 1.0
1075, 5.289377289377289, -5.496947496947497, -11.148962148962148, -1.65625, -0.40625, 3.15625, 1.0
1076, 4.951159951159951, -5.717948717948718, -10.739926739926739, -2.21875, -0.25, 2.78125, 1.0
1077, 5.553113553113553, -6.1953601953601956, -9.903540903540904, -2.34375, 0.625, 2.46875, 1.0
1078, 7.51037851037851, -8.312576312576313, -8.567765567765568, -2.46875, 1.25, 2.15625, 1.0
1079, 8.88034188034188, -9.754578754578755, -6.230769230769231, -2.84375, 1.5, 1.6875, 1.0
1080, 9.702075702075701, -10.709401709401709, -3.8705738705738706, -3.0625, 1.75, 1.125, 1.0
1081, 9.280830280830282, -10.398046398046398, -1.5897435897435896, -3.21875, 2.0625, 0.4375, 1.0
1082, 9.025641025641026, -10.505494505494505, 0.4175824175824176, -3.125, 2.15625, -0.15625, 1.0
1083, 7.47008547008547, -9.655677655677655, 2.1477411477411477, -3.15625, 1.96875, -0.71875, 1.0
1084, 5.8901098901098905, -9.112332112332112, 3.645909645909646, -2.96875, 1.9375, -1.28125, 1.0
1085, 4.7765567765567765, -8.954822954822955, 4.598290598290598, -2.625, 2.0625, -1.625, 1.0
1086, 4.214896214896215, -9.42002442002442, 5.277167277167277, -2.25, 2.03125, -1.96875, 1.0
1087, 3.1868131868131866, -10.008547008547009, 5.52014652014652, -2.03125, 2.0, -2.28125, 1.0
1088, 2.0683760683760686, -9.37973137973138, 6.137973137973138, -1.875, 1.84375, -2.59375, 1.0
1089, 0.938949938949939, -8.283272283272284, 7.003663003663004, -1.5625, 1.65625, -2.78125, 1.0
1090, -0.336996336996337, -7.37973137973138, 7.377289377289378, -1.15625, 1.53125, -2.90625, 1.0
1091, -1.2722832722832722, -7.351648351648351, 7.196581196581197, -0.71875, 1.4375, -3.0, 1.0
1092, -2.6971916971916974, -6.7313797313797314, 6.6361416361416365, -0.28125, 1.5, -3.0625, 1.0
1093, -3.365079365079365, -6.202686202686203, 6.037851037851038, 0.03125, 1.5, -3.03125, 1.0
1094, -3.7533577533577533, -5.172161172161172, 5.688644688644689, 0.28125, 1.34375, -2.96875, 1.0
1095, -4.431013431013431, -4.669108669108669, 5.4041514041514045, 0.59375, 1.1875, -2.71875, 1.0
1096, -4.84004884004884, -3.9511599511599513, 5.661782661782662, 0.96875, 1.15625, -2.625, 1.0
1097, -5.354090354090354, -3.4481074481074483, 5.299145299145299, 1.4375, 1.125, -2.46875, 1.0
1098, -5.175824175824176, -3.148962148962149, 4.77045177045177, 1.84375, 1.09375, -2.25, 1.0
1099, -5.31990231990232, -2.5555555555555554, 4.311355311355311, 1.96875, 0.90625, -2.03125, 1.0
1100, -6.0085470085470085, -1.4664224664224663, 3.687423687423687, 2.125, 0.53125, -1.75, 1.0
1101, -6.4493284493284495, -1.1013431013431014, 3.1477411477411477, 2.3125, 0.15625, -1.34375, 1.0
1102, -6.534798534798535, -0.5946275946275946, 2.868131868131868, 2.59375, 0.0, -1.0, 1.0
1103, -7.506715506715507, -0.2271062271062271, 1.336996336996337, 2.9375, 0.0, -0.625, 1.0
1104, -6.427350427350428, -0.4188034188034188, 0.4835164835164835, 3.0, 0.0, -0.15625, 1.0
1105, -5.0085470085470085, -0.8437118437118437, 0.2625152625152625, 2.8125, -0.25, 0.15625, 1.0
1106, -5.03052503052503, -0.7997557997557998, -0.7106227106227107, 2.84375, -0.5625, 0.4375, 1.0
1107, -4.874236874236874, -1.3504273504273505, -2.6849816849816848, 3.15625, -0.5, 0.875, 1.0
1108, -3.31990231990232, -2.2075702075702077, -4.266178266178266, 3.0, -0.34375, 1.03125, 1.0
1109, -1.404151404151404, -2.437118437118437, -5.174603174603175, 2.34375, -0.5625, 1.09375, 1.0
1110, -1.4871794871794872, -1.2393162393162394, -6.0, 1.9375, -0.75, 1.25, 1.0
1111, -2.10989010989011, -0.3553113553113553, -6.4945054945054945, 1.84375, -0.65625, 1.46875, 1.0
1112, -1.3821733821733821, -0.7448107448107448, -6.366300366300366, 1.75, -0.375, 1.625, 1.0
1113, 0.14041514041514042, -0.5702075702075702, -5.3992673992674, 1.5, -0.03125, 1.6875, 1.0
1114, 2.543345543345543, -0.8717948717948718, -4.852258852258852, 1.3125, 0.1875, 1.65625, 1.0
1115, 4.482295482295482, -1.358974358974359, -5.26007326007326, 0.84375, -0.0625, 1.5, 1.0
1116, 4.321123321123321, -1.0793650793650793, -5.597069597069597, 0.28125, -0.25, 1.3125, 1.0
1117, 3.58974358974359, -0.46642246642246643, -5.302808302808303, -0.03125, -0.0625, 1.1875, 1.0
1118, 3.7704517704517704, -0.43345543345543347, -4.641025641025641, -0.3125, 0.09375, 1.0, 1.0
1119, 4.814407814407814, 0.2490842490842491, -1.722832722832723, -0.53125, 0.1875, 0.90625, 0.0
1120, 4.487179487179487, 0.6605616605616605, -0.8742368742368742, -0.34375, 0.375, 0.78125, 0.0
1121, 4.698412698412699, 0.001221001221001221, -1.2503052503052503, -0.3125, 0.5, 0.65625, 0.0
1122, 3.7326007326007327, -0.3089133089133089, -1.3199023199023199, -0.21875, 0.65625, 0.4375, 0.0
1123, 2.57997557997558, -0.10134310134310134, -1.0573870573870574, -0.15625, 1.0625, 0.09375, 0.0
1124, 2.197802197802198, -0.1562881562881563, -0.3431013431013431, 0.0, 1.59375, -0.34375, 0.0
1125, 1.5238095238095237, -0.09523809523809523, 0.5567765567765568, 0.25, 1.59375, -0.4375, 0.0
1126, 1.5531135531135531, -1.442002442002442, 0.8351648351648352, 0.40625, 1.15625, -0.4375, 0.0
1127, -0.5787545787545788, -0.7606837606837606, 1.4102564102564104, -0.03125, 0.5625, -0.53125, 0.0
1128, -2.2735042735042734, 0.894993894993895, 2.572649572649573, 0.09375, 0.375, -0.59375, 0.0
1129, -4.418803418803419, 0.518925518925519, 2.457875457875458, 0.625, 0.4375, -0.5, 0.0
1130, -5.697191697191697, 1.3724053724053724, 1.8424908424908424, 1.1875, 0.6875, 0.09375, 0.0
1131, -5.711843711843712, 1.0097680097680097, 0.9963369963369964, 1.25, 0.0, 0.59375, 0.0
1132, -6.992673992673993, 1.4407814407814408, -0.38095238095238093, 0.9375, -0.65625, 1.0625, 0.0
1133, -8.857142857142858, 2.012210012210012, -2.536019536019536, 0.59375, -0.71875, 1.53125, 0.0
1134, -8.493284493284493, 2.3015873015873014, -4.424908424908425, 0.5, -0.59375, 2.09375, 1.0
1135, -7.788766788766789, 2.0207570207570207, -6.146520146520147, 0.375, -0.375, 2.6875, 1.0
1136, -5.293040293040293, 0.7863247863247863, -7.759462759462759, 0.03125, -0.25, 3.0625, 1.0
1137, -2.5286935286935286, -1.1538461538461537, -9.112332112332112, -0.4375, -0.34375, 3.125, 1.0
1138, 0.2039072039072039, -1.8192918192918193, -9.726495726495726, -0.875, -0.46875, 3.1875, 1.0
1139, 1.8327228327228327, -2.06959706959707, -9.577533577533577, -1.09375, -0.46875, 3.21875, 1.0
1140, 3.3455433455433456, -2.57997557997558, -9.11965811965812, -1.09375, -0.375, 3.25, 1.0
1141, 4.293040293040293, -4.631257631257632, -10.073260073260073, -1.5625, -0.1875, 2.96875, 1.0
1142, 6.744810744810745, -5.702075702075702, -8.00976800976801, -2.90625, 0.0, 2.46875, 1.0
1143, 5.841269841269841, -5.597069597069597, -6.473748473748474, -3.0, 0.25, 2.25, 1.0
1144, 6.562881562881563, -7.468864468864469, -5.205128205128205, -2.8125, 0.78125, 2.0625, 1.0
1145, 7.728937728937729, -9.44932844932845, -3.7887667887667886, -2.90625, 1.03125, 1.75, 1.0
1146, 7.769230769230769, -10.434676434676435, -2.617826617826618, -3.375, 1.375, 1.125, 1.0
1147, 7.827838827838828, -10.231990231990231, -0.5982905982905983, -3.4375, 1.75, 0.46875, 1.0
1148, 6.871794871794871, -10.247863247863247, 0.568986568986569, -3.1875, 1.90625, -0.0625, 1.0
1149, 5.9010989010989015, -9.884004884004884, 1.9755799755799757, -2.9375, 2.125, -0.5625, 1.0
1150, 4.858363858363858, -9.208791208791208, 3.340659340659341, -2.65625, 2.4375, -1.03125, 1.0
1151, 4.455433455433456, -9.395604395604396, 4.351648351648351, -2.28125, 2.65625, -1.46875, 1.0
1152, 4.035409035409035, -9.74114774114774, 5.465201465201465, -2.09375, 2.34375, -1.90625, 1.0
1153, 2.5921855921855923, -9.213675213675213, 6.4212454212454215, -1.75, 1.90625, -2.5, 1.0
1154, 0.8021978021978022, -8.103785103785103, 7.13919413919414, -1.34375, 1.71875, -2.8125, 1.0
1155, -0.5555555555555556, -7.3870573870573875, 7.163614163614164, -0.90625, 1.78125, -2.96875, 1.0
1156, -1.3028083028083028, -7.172161172161172, 6.83028083028083, -0.5, 1.65625, -3.0625, 1.0
1157, -2.183150183150183, -6.948717948717949, 6.05982905982906, -0.1875, 1.5, -3.09375, 1.0
1158, -2.608058608058608, -6.774114774114774, 5.622710622710622, 0.0, 1.3125, -3.0625, 1.0
1159, -3.47008547008547, -5.891330891330892, 5.521367521367521, 0.25, 1.3125, -3.0625, 1.0
1160, -4.315018315018315, -4.632478632478633, 5.396825396825397, 0.65625, 1.40625, -2.90625, 1.0
1161, -4.500610500610501, -4.062271062271062, 5.318681318681318, 1.03125, 1.4375, -2.71875, 1.0
1162, -4.083028083028083, -4.409035409035409, 5.020757020757021, 1.25, 1.3125, -2.53125, 1.0
1163, -3.8766788766788767, -4.0927960927960925, 4.9804639804639805, 1.4375, 1.15625, -2.40625, 1.0
1164, -4.380952380952381, -2.8058608058608057, 4.656898656898657, 1.75, 0.96875, -2.25, 1.0
1165, -5.134310134310135, -2.115995115995116, 3.5335775335775335, 2.25, 0.71875, -1.875, 1.0
1166, -5.964590964590965, -1.0854700854700854, 2.376068376068376, 2.46875, 0.59375, -1.625, 1.0
1167, -6.648351648351649, -0.4554334554334554, 1.0231990231990231, 2.71875, 0.5, -1.1875, 1.0
1168, -5.648351648351649, -0.21001221001221002, 0.6385836385836385, 2.75, 0.4375, -0.78125, 1.0
1169, -4.22954822954823, -0.525030525030525, 1.0805860805860805, 2.65625, 0.375, -0.46875, 1.0
1170, -3.9267399267399266, -0.6959706959706959, -0.21123321123321123, 2.71875, 0.0625, -0.1875, 1.0
1171, -4.941391941391942, -0.8778998778998779, -2.1196581196581197, 2.8125, -0.3125, 0.125, 1.0
1172, -4.968253968253968, -0.7521367521367521, -3.1452991452991452, 2.75, -0.28125, 0.375, 1.0
1173, -3.6275946275946276, 0.3064713064713065, -2.711843711843712, 2.65625, 0.0, 0.59375, 1.0
1174, -2.426129426129426, 0.536019536019536, -3.0732600732600734, 2.59375, 0.125, 0.8125, 1.0
1175, -1.8327228327228327, -0.13675213675213677, -4.427350427350428, 2.375, -0.1875, 1.09375, 1.0
1176, -1.623931623931624, -0.4188034188034188, -5.3247863247863245, 2.03125, -0.40625, 1.25, 1.0
1177, -1.586080586080586, -0.8595848595848596, -5.261294261294261, 1.625, -0.28125, 1.40625, 1.0
1178, -0.8986568986568987, -0.4261294261294261, -4.238095238095238, 1.34375, -0.125, 1.53125, 1.0
1179, 0.44078144078144077, -0.20757020757020758, -4.018315018315018, 1.15625, -0.15625, 1.6875, 1.0
1180, 3.1074481074481075, -1.0146520146520146, -4.6581196581196584, 0.6875, -0.34375, 1.71875, 1.0
1181, 3.7362637362637363, -0.5103785103785103, -5.448107448107448, 0.1875, -0.40625, 1.59375, 1.0
1182, 3.9621489621489623, 0.4700854700854701, -5.021978021978022, 0.03125, -0.375, 1.46875, 1.0
1183, 3.9023199023199022, 0.7496947496947497, -4.484737484737485, 0.0, -0.28125, 1.40625, 0.0
1184, 4.028083028083028, 0.03785103785103785, -4.122100122100122, -0.09375, -0.1875, 1.25, 0.0
1185, 5.023199023199023, -0.6153846153846154, -3.4774114774114775, -0.34375, -0.15625, 1.125, 0.0
1186, 3.9816849816849818, -0.6703296703296703, -3.092796092796093, -0.5, 0.09375, 0.84375, 0.0
1187, 3.3284493284493286, -0.37362637362637363, -2.336996336996337, -0.46875, 0.5, 0.65625, 0.0
1188, 2.716727716727717, -0.22344322344322345, -1.5433455433455434, -0.125, 0.9375, 0.3125, 0.0
1189, 1.5006105006105006, -0.17216117216117216, 0.28815628815628813, 0.125, 1.09375, 0.21875, 0.0
1190, 0.5201465201465202, -0.2442002442002442, 1.1794871794871795, 0.40625, 1.3125, 0.15625, 0.0
1191, 0.2869352869352869, -0.7619047619047619, 1.8241758241758241, 0.6875, 1.5, 0.125, 0.0
1192, -0.41514041514041516, -0.5714285714285714, 2.4432234432234434, 0.75, 1.53125, 0.03125, 0.0
1193, -0.8559218559218559, -0.08302808302808302, 3.445665445665446, 1.0625, 1.21875, -0.15625, 0.0
1194, -1.862026862026862, 0.13675213675213677, 3.437118437118437, 1.3125, 0.625, -0.09375, 0.0
1195, -3.772893772893773, 0.7118437118437119, 2.658119658119658, 1.5, 0.15625, 0.09375, 0.0
1196, -6.599511599511599, 1.7594627594627594, 0.9010989010989011, 1.34375, -0.21875, 0.5, 0.0
1197, -7.857142857142857, 2.5177045177045176, -0.7008547008547008, 1.09375, -0.34375, 0.96875, 0.0
1198, -7.771672771672772, 3.231990231990232, -1.7045177045177045, 0.8125, -0.53125, 1.4375, 1.0
1199, -7.311355311355311, 2.5946275946275947, -3.8595848595848596, 0.65625, -0.9375, 1.90625, 1.0
1200, -7.516483516483516, 2.034188034188034, -6.378510378510379, 0.21875, -1.03125, 2.65625, 1.0
1201, -6.168498168498169, 1.0317460317460319, -8.468864468864469, 0.0, -0.59375, 3.03125, 1.0
1202, -3.7326007326007327, -0.2905982905982906, -9.205128205128204, -0.21875, -0.125, 3.21875, 1.0
1203, 0.3956043956043956, -2.5518925518925517, -9.63125763125763, -0.625, -0.28125, 3.3125, 1.0
1204, 2.3455433455433456, -3.562881562881563, -10.431013431013431, -1.25, -0.84375, 3.28125, 1.0
1205, 2.137973137973138, -3.177045177045177, -10.482295482295482, -1.625, -0.78125, 3.21875, 1.0
1206, 2.862026862026862, -3.8046398046398044, -10.683760683760683, -1.78125, -0.0625, 3.0, 1.0
1207, 4.677655677655678, -5.5225885225885225, -10.448107448107448, -2.1875, 0.59375, 2.75, 1.0
1208, 6.9743589743589745, -7.271062271062271, -9.266178266178267, -2.6875, 0.6875, 2.40625, 1.0
1209, 7.05982905982906, -8.347985347985349, -7.710622710622711, -3.03125, 0.9375, 2.03125, 1.0
1210, 7.317460317460317, -8.847374847374848, -5.3528693528693525, -3.0625, 1.5, 1.5625, 1.0
1211, 7.684981684981685, -9.234432234432234, -3.3321123321123323, -3.15625, 1.84375, 0.84375, 1.0
1212, 9.131868131868131, -9.003663003663004, 0.46642246642246643, -3.40625, 1.6875, 0.25, 1.0
1213, 7.2515262515262515, -8.317460317460318, 1.36996336996337, -3.25, 1.4375, -0.34375, 1.0
1214, 4.816849816849817, -7.936507936507937, 1.253968253968254, -2.90625, 1.4375, -0.8125, 1.0
1215, 3.653235653235653, -8.128205128205128, 1.3333333333333333, -2.65625, 1.71875, -1.0625, 1.0
1216, 3.5995115995115996, -8.421245421245422, 2.1807081807081805, -2.5625, 1.96875, -1.28125, 1.0
1217, 3.371184371184371, -8.711843711843711, 3.266178266178266, -2.40625, 2.0, -1.5625, 1.0
1218, 2.5567765567765566, -8.5006105006105, 4.540903540903541, -2.0625, 1.96875, -1.90625, 1.0
1219, 1.3724053724053724, -8.236874236874236, 5.380952380952381, -1.65625, 2.09375, -2.21875, 1.0
1220, 0.4188034188034188, -7.8498168498168495, 6.0537240537240535, -1.21875, 2.25, -2.46875, 1.0
1221, 0.029304029304029304, -7.645909645909646, 6.216117216117216, -0.8125, 2.28125, -2.6875, 1.0
1222, -1.1855921855921856, -7.313797313797314, 6.054945054945055, -0.46875, 2.125, -2.84375, 1.0
1223, -2.114774114774115, -6.764346764346764, 5.916971916971917, 0.03125, 2.03125, -2.90625, 1.0
1224, -2.4236874236874235, -6.493284493284493, 6.255189255189255, 0.375, 2.0, -2.90625, 1.0
1225, -3.0305250305250304, -6.6300366300366305, 5.832722832722832, 0.59375, 1.96875, -2.9375, 1.0
1226, -3.6825396825396823, -6.372405372405372, 5.062271062271062, 0.78125, 1.875, -2.875, 1.0
1227, -4.239316239316239, -5.894993894993895, 4.669108669108669, 0.8125, 1.875, -2.8125, 1.0
1228, -4.759462759462759, -4.7313797313797314, 4.754578754578755, 1.0625, 1.84375, -2.71875, 1.0
1229, -5.727716727716728, -3.065934065934066, 4.555555555555555, 1.65625, 1.53125, -2.46875, 1.0
1230, -6.645909645909646, -2.8998778998779, 3.617826617826618, 2.0, 1.21875, -2.1875, 1.0
1231, -6.851037851037851, -2.6544566544566544, 3.341880341880342, 2.125, 1.15625, -1.9375, 1.0
1232, -6.744810744810745, -1.4871794871794872, 3.409035409035409, 2.375, 0.84375, -1.65625, 1.0
1233, -7.492063492063492, -0.30036630036630035, 2.675213675213675, 2.6875, 0.4375, -1.15625, 1.0
1234, -7.184371184371185, 0.20634920634920634, 1.9401709401709402, 2.8125, 0.15625, -0.78125, 1.0
1235, -7.534798534798535, 0.19047619047619047, -0.29914529914529914, 3.0625, 0.03125, -0.1875, 1.0
1236, -5.798534798534798, -0.9536019536019537, -1.0879120879120878, 3.15625, -0.1875, 0.25, 1.0
1237, -5.031746031746032, -1.4822954822954824, -2.2503052503052503, 3.0625, -0.53125, 0.5, 1.0
1238, -4.095238095238095, -1.1172161172161172, -3.78021978021978, 2.875, -0.625, 0.6875, 1.0
1239, -3.9279609279609278, -0.5091575091575091, -5.057387057387057, 2.625, -0.59375, 0.9375, 1.0
1240, -3.5653235653235655, -0.6581196581196581, -5.3870573870573875, 2.375, -0.53125, 1.15625, 1.0
1241, -3.0732600732600734, -1.0647130647130647, -5.557997557997558, 2.09375, -0.40625, 1.3125, 1.0
1242, -1.376068376068376, -1.5238095238095237, -5.615384615384615, 1.84375, -0.3125, 1.53125, 1.0
1243, 0.28083028083028083, -1.2039072039072038, -5.2625152625152625, 1.46875, -0.34375, 1.6875, 1.0
1244, 2.144078144078144, 0.07814407814407814, -4.396825396825397, 1.21875, -0.21875, 1.6875, 1.0
1245, 2.884004884004884, 0.028083028083028084, -4.945054945054945, 1.21875, 0.03125, 1.6875, 1.0
1246, 3.365079365079365, -0.3601953601953602, -6.002442002442002, 0.6875, 0.15625, 1.59375, 1.0
1247, 3.347985347985348, 0.030525030525030524, -5.7826617826617825, 0.3125, -0.375, 1.46875, 1.0
1248, 2.1025641025641026, 0.7557997557997558, -5.024420024420024, 0.03125, -0.21875, 1.40625, 1.0
1249, 2.673992673992674, 1.5811965811965811, -3.214896214896215, 0.0, 0.25, 1.40625, 0.0
1250, 3.9194139194139193, 1.5775335775335775, -1.8034188034188035, 0.0625, 0.5625, 1.3125, 0.0
1251, 5.336996336996337, 0.40415140415140416, -2.1477411477411477, 0.0, 0.46875, 1.03125, 0.0
1252, 5.443223443223443, -0.231990231990232, -2.36996336996337, -0.1875, 0.40625, 0.6875, 0.0
1253, 4.330891330891331, -0.2026862026862027, -2.045177045177045, -0.28125, 0.65625, 0.40625, 0.0
1254, 3.9645909645909647, -0.4481074481074481, -1.078144078144078, -0.25, 0.84375, 0.09375, 0.0
1255, 3.9694749694749696, -1.0158730158730158, 0.5946275946275946, -0.15625, 0.78125, -0.25, 0.0
1256, 2.456654456654457, -1.1074481074481075, 1.978021978021978, 0.125, 0.84375, -0.59375, 0.0
1257, 0.42246642246642246, -1.1416361416361416, 2.901098901098901, 0.59375, 1.0, -0.875, 0.0
1258, -2.8315018315018317, -0.06227106227106227, 3.0586080586080584, 1.53125, 0.59375, -0.84375, 0.0
1259, -5.406593406593407, 0.778998778998779, 1.78998778998779, 1.6875, -0.03125, -0.46875, 0.0
1260, -6.564102564102564, 0.5702075702075702, 0.39438339438339437, 1.5, -0.40625, 0.0, 0.0
1261, -8.328449328449329, 1.557997557997558, -1.2112332112332111, 0.875, -0.59375, 0.3125, 0.0
1262, -9.141636141636141, 3.128205128205128, -1.6031746031746033, 0.5, -0.6875, 0.78125, 0.0
1263, -9.478632478632479, 3.6788766788766787, -2.6825396825396823, 0.65625, -0.59375, 1.40625, 0.0
1264, -9.018315018315018, 2.5885225885225887, -4.315018315018315, 0.78125, -0.34375, 2.125, 1.0
1265, -7.106227106227106, 1.3199023199023199, -6.186813186813187, 0.5625, -0.03125, 2.6875, 1.0
1266, -3.8974358974358974, 0.17582417582417584, -6.875457875457876, 0.0, -0.28125, 3.1875, 1.0
1267, -2.282051282051282, 0.14163614163614163, -6.989010989010989, -0.28125, -0.75, 3.4375, 1.0
1268, -1.746031746031746, -0.5885225885225885, -7.598290598290598, -0.1875, -0.5625, 3.5625, 1.0
