timestamp, accX, accY, accZ, gyroX, gyroY, gyroZ, button
7433, 0.019536019536019536, 0.019536019536019536, -0.10012210012210013, 0.0, 0.0, 0.0, 0.0
7434, 0.009768009768009768, 0.006105006105006105, -0.0989010989010989, 0.0, 0.0, 0.0, 0.0
7435, 0.020757020757020756, 0.013431013431013432, -0.08547008547008547, 0.0, 0.0, 0.0, 0.0
1, 0.014652014652014652, 0.006105006105006105, -0.08913308913308914, 0.0, 0.0, 0.0, 0.0
2, 0.020757020757020756, 0.015873015873015872, -0.10500610500610501, 0.0, 0.0, 0.0, 0.0
3, 0.01221001221001221, 0.017094017094017096, -0.09401709401709402, 0.0, 0.0, 0.0, 0.0
4, 0.02197802197802198, 0.017094017094017096, -0.09035409035409035, 0.0, 0.0, 0.0, 0.0
5, 0.02564102564102564, -0.013431013431013432, -0.08058608058608059, 0.0, 0.0, 0.0, 0.0
6, 0.015873015873015872, 0.0231990231990232, -0.08302808302808302, 0.0, 0.0, 0.0, 0.0
7, 0.01221001221001221, 0.017094017094017096, -0.10500610500610501, 0.0, 0.0, 0.0, 0.0
8, 0.05982905982905983, -0.013431013431013432, -0.06593406593406594, 0.0, 0.0, 0.0, 0.0
9, 0.0231990231990232, 0.002442002442002442, -0.11477411477411477, 0.0, 0.0, 0.0, 0.0
10, 0.006105006105006105, 0.03663003663003663, -0.04884004884004884, 0.0, 0.0, 0.0, 0.0
11, 0.004884004884004884, 0.001221001221001221, -0.1514041514041514, 0.0, 0.0, 0.0, 0.0
12, 0.09645909645909646, 0.01221001221001221, -0.040293040293040296, 0.0, -0.03125, 0.0, 0.0
13, -0.01098901098901099, -0.02442002442002442, -0.16117216117216118, -0.03125, -0.0625, 0.0, 0.0
14, 0.017094017094017096, 0.002442002442002442, -0.06227106227106227, 0.0, -0.03125, -0.03125, 0.0
15, 0.2661782661782662, -0.045177045177045176, -0.11843711843711843, -0.03125, -0.09375, -0.0625, 0.0
16, -0.09523809523809523, 0.04395604395604396, -0.06471306471306472, 0.0, 0.0, -0.03125, 0.0
17, 0.03785103785103785, 0.03418803418803419, -0.09768009768009768, 0.0, 0.03125, -0.03125, 0.0
18, 0.052503052503052504, -0.054945054945054944, -0.10256410256410256, 0.0, 0.0, 0.0, 0.0
19, 0.008547008547008548, -0.36752136752136755, 0.0695970695970696, 0.0, -0.03125, -0.03125, 0.0
20, 0.06471306471306472, 0.3443223443223443, -0.4078144078144078, -0.03125, -0.03125, -0.0625, 0.0
21, -0.07203907203907203, -0.013431013431013432, -0.001221001221001221, -0.125, -0.0625, -0.03125, 0.0
22, -0.14652014652014653, 0.003663003663003663, -0.1916971916971917, -0.09375, -0.03125, 0.0, 0.0
23, 0.23565323565323565, 0.026862026862026864, -0.6092796092796092, -0.125, 0.03125, 0.0, 0.0
24, 0.03418803418803419, -0.02197802197802198, -0.18681318681318682, -0.375, -0.09375, -0.0625, 0.0
25, -0.16483516483516483, 0.21367521367521367, -0.21123321123321123, -0.34375, 0.0, -0.03125, 0.0
26, 0.09523809523809523, 0.02442002442002442, -0.13186813186813187, -0.34375, 0.09375, 0.0, 0.0
27, 0.09035409035409035, -0.002442002442002442, -0.18681318681318682, -0.3125, 0.09375, -0.0625, 0.0
28, 0.26495726495726496, -0.21978021978021978, -0.5628815628815629, -0.34375, 0.15625, -0.0625, 0.0
29, 0.18803418803418803, -0.6947496947496947, -1.321123321123321, -0.625, 0.28125, -0.28125, 0.0
30, -0.14041514041514042, -0.221001221001221, -1.15018315018315, -0.9375, 0.40625, -0.3125, 0.0
31, -0.2612942612942613, -0.21367521367521367, -0.5763125763125763, -1.0625, 0.53125, -0.3125, 0.0
32, -0.833943833943834, -0.21855921855921856, -0.8595848595848596, -1.1875, 0.8125, -0.4375, 0.0
33, -1.4090354090354091, 0.20024420024420025, -1.2148962148962148, -1.40625, 1.21875, -0.4375, 0.0
34, -1.667887667887668, 0.326007326007326, -0.9316239316239316, -1.5625, 1.5625, -0.15625, 0.0
35, -1.8644688644688645, 0.13186813186813187, -1.1013431013431014, -1.53125, 1.96875, 0.0625, 0.0
36, -0.16971916971916973, 0.09401709401709402, -1.2442002442002442, -1.53125, 1.90625, 0.125, 0.0
37, 0.5286935286935287, -0.3724053724053724, -0.7106227106227107, -1.375, 1.375, 0.125, 0.0
38, 1.3492063492063493, -1.0818070818070817, -0.7557997557997558, -0.90625, 1.0625, 0.59375, 0.0
39, 2.241758241758242, -0.27594627594627597, -2.9523809523809526, -0.53125, 1.03125, 0.03125, 0.0
40, 2.1184371184371185, -0.8998778998778999, -1.4163614163614164, -0.625, 1.09375, -0.1875, 0.0
41, 2.5006105006105006, -0.4358974358974359, -0.8595848595848596, -0.4375, 1.09375, -0.03125, 0.0
42, 2.492063492063492, -0.45054945054945056, -0.15506715506715507, -0.09375, 1.0, -0.0625, 0.0
43, 1.916971916971917, -0.873015873015873, 0.39438339438339437, 0.375, 0.9375, -0.15625, 0.0
44, 1.2747252747252746, -1.7692307692307692, 0.9572649572649573, 0.84375, 1.21875, -0.25, 0.0
45, 2.3565323565323566, -2.6666666666666665, 1.667887667887668, 1.34375, 1.5625, -0.5, 0.0
46, 3.1233211233211233, -3.5885225885225887, 2.227106227106227, 1.625, 1.3125, -0.90625, 0.0
47, 2.625152625152625, -2.694749694749695, 1.5213675213675213, 1.4375, 1.0, -1.53125, 0.0
48, 1.0732600732600732, -0.2857142857142857, 0.7387057387057387, 1.4375, 0.75, -2.125, 0.0
49, -1.0183150183150182, 0.8156288156288156, 0.9230769230769231, 1.65625, 0.625, -2.21875, 0.0
50, -1.7985347985347986, 0.5677655677655677, 1.873015873015873, 2.09375, 0.84375, -1.8125, 0.0
51, -1.3968253968253967, -1.3174603174603174, 1.8815628815628815, 2.34375, 1.28125, -1.15625, 0.0
52, 0.04151404151404151, -1.7728937728937728, 2.0891330891330893, 2.1875, 1.28125, -1.21875, 0.0
53, 0.6410256410256411, -1.774114774114774, 1.7594627594627594, 2.0625, 1.0, -1.75, 0.0
54, 0.4590964590964591, -1.1794871794871795, 1.2454212454212454, 1.875, 0.5, -2.09375, 0.0
55, -1.0927960927960927, -0.6141636141636142, 1.5115995115995116, 1.875, 0.40625, -1.875, 0.0
56, -1.492063492063492, -0.9768009768009768, 1.4224664224664225, 2.125, 0.8125, -1.4375, 0.0
57, -0.5213675213675214, -0.8547008547008547, 1.5555555555555556, 2.34375, 1.0, -1.5, 0.0
58, -0.07692307692307693, -0.8559218559218559, 1.1391941391941391, 2.4375, 0.6875, -1.9375, 0.0
59, -0.19047619047619047, -0.8717948717948718, 1.0158730158730158, 2.34375, 0.1875, -2.125, 0.0
60, -1.1575091575091576, -1.0341880341880343, 0.1684981684981685, 2.1875, 0.125, -2.03125, 0.0
61, -1.879120879120879, -0.7374847374847375, -1.0073260073260073, 2.0625, 0.5625, -2.3125, 0.0
62, -1.4017094017094016, -0.7912087912087912, -1.1025641025641026, 1.71875, 0.53125, -2.40625, 0.0
63, -6.024420024420024, -6.854700854700854, -2.492063492063492, -1.5625, -1.5625, 3.84375, 1.0
64, -5.5958485958485955, -6.8046398046398044, -1.8327228327228327, -1.53125, -1.65625, 3.96875, 1.0
65, -4.954822954822955, -6.814407814407814, -0.8937728937728938, -1.1875, -1.6875, 4.09375, 1.0
66, -4.876678876678877, -6.868131868131868, -0.6007326007326007, -0.625, -1.6875, 4.34375, 1.0
67, -4.536019536019536, -8.286935286935288, -2.347985347985348, -0.375, -1.3125, 4.5625, 1.0
68, -3.6105006105006106, -9.147741147741147, -2.1452991452991452, -0.6875, -1.03125, 4.59375, 1.0
69, -3.0976800976800978, -8.307692307692308, -1.678876678876679, -0.75, -1.1875, 4.53125, 1.0
70, -3.5384615384615383, -7.84004884004884, -1.8876678876678876, -0.5625, -1.4375, 4.46875, 1.0
71, -3.744810744810745, -8.054945054945055, -1.873015873015873, -0.4375, -1.53125, 4.625, 1.0
72, -3.5335775335775335, -9.628815628815628, -1.5164835164835164, -0.3125, -1.15625, 4.875, 1.0
73, -1.0390720390720392, -9.924297924297925, -0.38217338217338215, -0.28125, -0.1875, 4.9375, 1.0
74, 2.4346764346764345, -9.711843711843711, 0.7619047619047619, -0.125, 0.1875, 4.8125, 1.0
75, 4.814407814407814, -9.476190476190476, 1.5604395604395604, -0.03125, -0.25, 4.25, 1.0
76, 4.459096459096459, -7.442002442002442, 1.6043956043956045, -0.0625, -1.03125, 3.40625, 1.0
77, 2.6275946275946276, -6.361416361416361, 0.8327228327228328, 0.03125, -1.40625, 2.8125, 1.0
78, 3.191697191697192, -5.5396825396825395, 0.44932844932844934, 0.09375, -1.125, 2.5625, 1.0
79, 4.355311355311355, -4.355311355311355, 0.047619047619047616, 0.3125, -0.78125, 2.34375, 1.0
80, 5.411477411477412, -4.5054945054945055, -0.14285714285714285, 0.34375, -0.71875, 2.125, 1.0
81, 7.25030525030525, -4.417582417582418, -0.3333333333333333, 0.28125, -0.59375, 1.6875, 1.0
82, 8.078144078144078, -4.0647130647130645, -0.8449328449328449, 0.1875, -0.5, 1.21875, 1.0
83, 7.912087912087912, -3.2124542124542126, -0.9829059829059829, 0.15625, -0.3125, 0.71875, 1.0
84, 7.454212454212454, -2.3626373626373627, -1.4004884004884004, 0.15625, -0.15625, 0.375, 1.0
85, 6.9072039072039075, -1.9047619047619047, -1.4456654456654456, 0.03125, -0.03125, 0.03125, 1.0
86, 5.7313797313797314, -1.3113553113553114, -1.4737484737484738, -0.03125, 0.09375, -0.28125, 1.0
87, 4.205128205128205, -0.9169719169719169, -1.4151404151404152, -0.1875, 0.09375, -0.53125, 1.0
88, 2.645909645909646, -0.5299145299145299, -0.8351648351648352, -0.34375, 0.125, -0.65625, 1.0
89, 1.043956043956044, -0.19413919413919414, -0.4432234432234432, -0.4375, 0.15625, -0.65625, 1.0
90, -0.48595848595848595, 0.028083028083028084, -0.199023199023199, -0.5625, 0.3125, -0.4375, 0.0
91, 0.08791208791208792, 0.2796092796092796, 0.778998778998779, -0.25, 0.28125, -0.4375, 0.0
92, 0.21733821733821734, -0.21978021978021978, 0.9084249084249084, 0.0625, 0.03125, -0.5, 0.0
93, 0.050061050061050064, -1.3076923076923077, -0.27472527472527475, 0.21875, -0.21875, -0.5625, 0.0
94, -0.4163614163614164, -2.7081807081807083, -1.0463980463980465, 0.0625, -0.1875, -0.65625, 0.0
95, 0.9145299145299145, -3.3211233211233213, -0.09768009768009768, -0.25, 0.28125, -0.90625, 0.0
96, 3.431013431013431, -3.283272283272283, 1.1257631257631258, -0.28125, 0.5, -1.21875, 0.0
97, 3.9462759462759465, -3.9145299145299144, 1.1843711843711844, -0.03125, 0.25, -1.84375, 0.0
98, 2.47985347985348, -3.901098901098901, 0.5885225885225885, 0.125, -0.125, -2.40625, 0.0
99, 0.884004884004884, -4.238095238095238, 0.10500610500610501, 0.0625, -0.3125, -2.65625, 0.0
100, 0.38583638583638585, -3.746031746031746, 0.07692307692307693, -0.03125, -0.03125, -2.8125, 0.0
101, 0.8278388278388278, -3.57997557997558, 0.27472527472527475, -0.03125, 0.21875, -2.96875, 0.0
102, 0.9133089133089133, -3.4725274725274726, 0.16605616605616605, 0.21875, 0.40625, -3.5, 0.0
103, -0.2222222222222222, -3.924297924297924, -0.5042735042735043, 0.1875, 0.34375, -3.53125, 0.0
104, -1.3504273504273505, -4.355311355311355, -0.23443223443223443, -0.03125, 0.53125, -3.375, 0.0
105, -1.4334554334554335, -3.2246642246642248, 0.16971916971916973, 0.0, 0.84375, -3.5625, 0.0
106, -1.7191697191697193, -2.5409035409035408, 0.21367521367521367, 0.3125, 0.84375, -3.71875, 0.0
107, -2.05006105006105, -2.9523809523809526, 0.5384615384615384, 0.4375, 0.9375, -3.71875, 0.0
108, -1.877899877899878, -3.293040293040293, 0.09523809523809523, 0.4375, 0.8125, -3.65625, 0.0
109, -2.3675213675213675, -2.8754578754578755, -0.3504273504273504, 0.25, 0.40625, -3.65625, 0.0
110, -3.266178266178266, -2.934065934065934, -0.514041514041514, 0.0625, 0.40625, -3.5625, 0.0
111, -3.4358974358974357, -3.103785103785104, 0.12576312576312576, 0.09375, 0.96875, -3.375, 0.0
112, -2.208791208791209, -2.9084249084249083, 0.7472527472527473, 0.5, 1.53125, -3.4375, 0.0
113, -1.2612942612942613, -2.7826617826617825, -0.22344322344322345, 0.78125, 1.1875, -3.78125, 0.0
114, -3.9584859584859586, -3.873015873015873, -1.3308913308913308, 0.21875, 0.5, -3.625, 0.0
115, -3.437118437118437, -2.343101343101343, -1.4774114774114775, 0.03125, 1.03125, -3.5625, 0.0
116, -3.272283272283272, -1.8253968253968254, -1.6349206349206349, 0.40625, 1.3125, -3.875, 0.0
117, -4.21978021978022, -1.525030525030525, -2.156288156288156, 0.625, 1.125, -4.21875, 0.0
118, -5.371184371184371, -2.178266178266178, -2.578754578754579, 0.28125, 0.625, -3.90625, 0.0
119, -6.775335775335775, -0.503052503052503, -1.9914529914529915, -0.28125, 0.75, -3.15625, 0.0
120, -5.7997557997558, 0.7631257631257631, -1.6507936507936507, -0.125, 1.40625, -2.65625, 0.0
121, -5.003663003663004, 1.3003663003663004, -2.065934065934066, 0.34375, 1.59375, -2.53125, 0.0
122, -4.993894993894994, 0.746031746031746, -2.6105006105006106, 0.4375, 1.28125, -2.59375, 0.0
123, -5.306471306471306, 0.3992673992673993, -3.032967032967033, 0.09375, 0.875, -2.40625, 0.0
124, -6.283272283272283, 1.2197802197802199, -2.2735042735042734, -0.4375, 0.6875, -1.8125, 0.0
125, -5.106227106227106, 1.9084249084249085, -1.293040293040293, -0.40625, 1.03125, -1.0625, 0.0
126, -3.537240537240537, 1.8083028083028083, -0.5299145299145299, -0.1875, 0.90625, -0.90625, 0.0
127, -2.78021978021978, 1.514041514041514, -1.006105006105006, -0.0625, 0.59375, -0.90625, 0.0
128, -2.8974358974358974, 0.7631257631257631, -1.3223443223443223, -0.34375, 0.15625, -0.59375, 0.0
129, -4.141636141636142, 1.7008547008547008, -0.9658119658119658, -0.375, 0.28125, -0.3125, 0.0
130, -3.398046398046398, 2.0256410256410255, -0.2783882783882784, -0.15625, 0.375, -0.0625, 0.0
131, -2.8534798534798536, 2.0671550671550674, 0.09401709401709402, 0.09375, 0.15625, 0.0625, 0.0
132, -2.916971916971917, 1.6605616605616607, 0.1684981684981685, 0.34375, -0.125, 0.15625, 0.0
133, -3.7826617826617825, 1.225885225885226, -0.7557997557997558, 0.375, -0.3125, 0.15625, 1.0
134, -5.141636141636142, 0.9548229548229549, -1.7533577533577533, 0.1875, -0.40625, 0.40625, 1.0
135, -6.564102564102564, 2.2014652014652016, -1.9206349206349207, 0.21875, -0.40625, 0.875, 1.0
136, -7.671550671550672, 2.7716727716727716, -1.5885225885225884, 0.53125, -0.4375, 1.6875, 1.0
137, -8.437118437118437, 0.3540903540903541, -3.0024420024420024, 1.0625, -0.90625, 3.1875, 1.0
138, -8.476190476190476, -2.2698412698412698, -4.417582417582418, 0.65625, -0.5625, 3.40625, 1.0
139, -6.581196581196581, -2.6605616605616604, -3.4835164835164836, -0.09375, 0.0, 3.46875, 1.0
140, -4.987789987789988, -2.2454212454212454, -2.942612942612943, -0.65625, -0.09375, 3.75, 1.0
141, -4.294261294261294, -2.330891330891331, -2.1684981684981683, -0.84375, -0.625, 4.0, 1.0
142, -3.358974358974359, -3.0891330891330893, -1.5152625152625152, -0.59375, -1.1875, 4.1875, 1.0
143, -4.101343101343101, -6.655677655677656, -2.960927960927961, -0.59375, -1.34375, 4.0, 1.0
144, -3.5274725274725274, -6.504273504273504, -2.457875457875458, -1.375, -0.9375, 3.8125, 1.0
145, -2.934065934065934, -5.507936507936508, -1.3943833943833943, -1.6875, -0.78125, 4.09375, 1.0
146, -2.1196581196581197, -5.8388278388278385, -0.7326007326007326, -1.40625, -0.71875, 4.1875, 1.0
147, -1.3614163614163615, -6.818070818070818, -0.8070818070818071, -1.03125, -0.78125, 4.15625, 1.0
148, -0.673992673992674, -7.146520146520147, -0.7496947496947497, -0.71875, -1.34375, 3.9375, 1.0
149, -1.78998778998779, -7.7997557997558, -1.8632478632478633, -0.84375, -1.28125, 3.65625, 1.0
150, -2.5457875457875456, -6.96947496947497, -1.5665445665445665, -0.90625, -0.78125, 3.71875, 1.0
151, -1.5934065934065933, -6.64957264957265, -0.5372405372405372, -0.75, -0.5625, 3.78125, 1.0
152, -0.9035409035409036, -6.682539682539683, -0.14407814407814407, -0.625, -0.8125, 3.65625, 1.0
153, -0.8803418803418803, -6.747252747252747, 0.2869352869352869, -0.59375, -1.0625, 3.65625, 1.0
154, -1.7887667887667889, -6.321123321123321, 0.8315018315018315, -0.4375, -0.5625, 3.78125, 1.0
155, -1.0158730158730158, -6.551892551892552, 0.8827838827838828, -0.15625, 0.1875, 4.0625, 1.0
156, 2.203907203907204, -6.744810744810745, 1.225885225885226, 0.0, 0.25, 3.84375, 1.0
157, 4.573870573870574, -6.744810744810745, 1.7826617826617828, 0.0, -0.3125, 3.21875, 1.0
158, 4.549450549450549, -5.877899877899878, 2.3626373626373627, 0.0625, -0.65625, 2.8125, 1.0
159, 4.68009768009768, -5.43956043956044, 2.1306471306471306, 0.1875, -0.46875, 2.40625, 1.0
160, 6.271062271062271, -4.48962148962149, 0.9975579975579976, 0.34375, -0.53125, 1.78125, 1.0
161, 5.413919413919414, -2.978021978021978, 0.1794871794871795, 0.375, -0.5625, 1.375, 1.0
162, 4.968253968253968, -1.927960927960928, -0.4810744810744811, 0.3125, -0.34375, 1.1875, 1.0
163, 5.076923076923077, -1.5372405372405373, -1.0256410256410255, 0.3125, -0.0625, 1.0625, 1.0
164, 5.555555555555555, -1.1428571428571428, -1.0866910866910866, 0.25, 0.125, 0.8125, 1.0
165, 5.482295482295482, -1.0048840048840049, -1.0525030525030525, 0.125, 0.15625, 0.46875, 1.0
166, 4.380952380952381, -0.63003663003663, -1.2295482295482296, 0.03125, 0.0625, 0.1875, 1.0
167, 3.382173382173382, -0.1452991452991453, -1.1721611721611722, -0.09375, 0.0, -0.03125, 1.0
168, 2.402930402930403, 0.07448107448107448, -0.8998778998778999, -0.0625, 0.0, -0.21875, 1.0
169, 1.5836385836385836, -0.31013431013431014, -0.673992673992674, -0.0625, 0.03125, -0.3125, 1.0
170, 1.4664224664224663, -0.38705738705738707, -0.2905982905982906, -0.09375, 0.0625, -0.3125, 1.0
171, 1.4297924297924298, -0.4297924297924298, -0.32844932844932845, -0.09375, -0.03125, -0.3125, 0.0
172, 0.6471306471306472, -0.7118437118437119, -0.4346764346764347, -0.3125, -0.25, -0.1875, 0.0
173, 0.16117216117216118, -0.6691086691086691, -0.304029304029304, -0.40625, -0.09375, -0.03125, 0.0
174, 1.0586080586080586, -1.1746031746031746, -0.07448107448107448, -0.1875, -0.03125, -0.1875, 0.0
175, 1.2783882783882783, -2.5653235653235655, -0.19291819291819293, -0.21875, 0.03125, -0.53125, 0.0
176, 1.9658119658119657, -3.2014652014652016, -0.10378510378510379, -0.3125, 0.125, -1.0, 0.0
177, 2.404151404151404, -2.9792429792429793, 0.3321123321123321, -0.21875, 0.03125, -1.46875, 0.0
178, 2.4004884004884004, -3.2967032967032965, 0.4896214896214896, -0.09375, -0.09375, -1.875, 0.0
179, 1.4676434676434675, -2.791208791208791, 0.10866910866910867, 0.0, -0.09375, -2.1875, 0.0
180, 0.16605616605616605, -2.5054945054945055, -0.3137973137973138, 0.0, 0.0625, -2.34375, 0.0
181, -0.03907203907203907, -2.970695970695971, 0.03540903540903541, -0.125, 0.46875, -2.59375, 0.0
182, 0.8449328449328449, -3.612942612942613, 0.8400488400488401, -0.25, 0.71875, -2.84375, 0.0
183, 1.5726495726495726, -2.877899877899878, 1.277167277167277, 0.15625, 0.25, -3.34375, 0.0
184, -1.2197802197802199, -2.584859584859585, -0.1978021978021978, 0.46875, 0.0625, -3.71875, 0.0
185, -2.1746031746031744, -3.6324786324786325, -0.11965811965811966, 0.15625, 0.15625, -3.46875, 0.0
186, -1.656898656898657, -2.1855921855921854, 0.019536019536019536, -0.21875, 0.46875, -3.125, 0.0
187, -1.1660561660561661, -1.89010989010989, 0.36874236874236876, -0.0625, 0.5625, -3.40625, 0.0
188, -1.5299145299145298, -2.255189255189255, 0.8400488400488401, 0.09375, 0.5, -3.53125, 0.0
189, -1.7313797313797314, -3.0256410256410255, 1.021978021978022, 0.25, 0.78125, -3.65625, 0.0
190, -0.8974358974358975, -3.275946275946276, 0.7826617826617827, 0.34375, 1.1875, -3.625, 0.0
191, -0.7997557997557998, -2.5982905982905984, -0.04884004884004884, 0.53125, 0.875, -3.78125, 0.0
192, -1.8241758241758241, -3.509157509157509, -0.5164835164835165, 0.375, 0.0625, -4.125, 0.0
193, -3.3797313797313797, -3.2075702075702077, -0.20757020757020758, -0.15625, -0.1875, -4.28125, 0.0
194, -3.3394383394383396, -2.5604395604395602, 0.17826617826617827, -0.34375, 0.3125, -4.03125, 0.0
195, -3.061050061050061, -1.277167277167277, -0.05372405372405373, 0.3125, 1.125, -3.90625, 0.0
196, -2.860805860805861, -1.9267399267399268, -0.6568986568986569, 0.46875, 0.9375, -3.71875, 0.0
197, -4.003663003663004, -1.8107448107448108, -1.2588522588522588, 0.1875, 0.71875, -3.09375, 0.0
198, -4.832722832722832, -1.708180708180708, -1.032967032967033, 0.0, 1.1875, -2.53125, 0.0
199, -3.8656898656898657, -1.1489621489621489, -0.03663003663003663, 0.1875, 1.84375, -2.21875, 0.0
200, -2.039072039072039, -1.0647130647130647, 0.09157509157509157, 0.6875, 1.96875, -2.25, 0.0
201, -1.7411477411477412, -0.9035409035409036, -0.5836385836385837, 0.96875, 1.53125, -2.75, 0.0
202, -2.004884004884005, -1.6715506715506716, -1.9316239316239316, 0.75, 0.90625, -2.96875, 0.0
203, -3.628815628815629, -1.7557997557997558, -2.515262515262515, 0.125, 0.625, -2.6875, 0.0
204, -4.576312576312576, -0.18925518925518925, -1.9731379731379732, 0.0, 0.875, -2.21875, 0.0
205, -4.807081807081807, 1.205128205128205, -1.606837606837607, 0.3125, 1.1875, -2.0, 0.0
206, -4.301587301587301, 0.8217338217338217, -1.6532356532356531, 0.34375, 1.0625, -1.875, 0.0
207, -4.275946275946276, 1.1233211233211233, -1.6080586080586081, 0.21875, 0.8125, -1.875, 0.0
208, -3.913308913308913, 1.3125763125763126, -1.5164835164835164, 0.125, 0.65625, -1.59375, 0.0
209, -3.2564102564102564, 1.2905982905982907, -1.3565323565323566, 0.0, 0.5625, -1.28125, 0.0
210, -2.6605616605616604, 1.0488400488400489, -1.0036630036630036, 0.0, 0.5, -1.03125, 0.0
211, -1.706959706959707, 0.8888888888888888, -1.1623931623931625, 0.0, 0.5, -0.875, 0.0
212, -1.321123321123321, 0.6446886446886447, -1.0073260073260073, -0.03125, 0.53125, -0.84375, 0.0
213, -0.8473748473748474, 1.1746031746031746, -0.3064713064713065, -0.03125, 0.625, -0.875, 0.0
214, -1.21001221001221, 1.4334554334554335, -0.013431013431013432, 0.15625, 0.625, -0.90625, 0.0
215, -2.2075702075702077, 1.8644688644688645, 0.10989010989010989, 0.53125, 0.53125, -1.0, 1.0
216, -3.826617826617827, 1.5714285714285714, -0.008547008547008548, 1.0, 0.40625, -0.9375, 1.0
217, -4.576312576312576, 1.8693528693528694, -0.7081807081807082, 1.15625, 0.28125, -0.59375, 1.0
218, -6.2625152625152625, 1.192918192918193, -1.47985347985348, 0.90625, -0.3125, 0.5, 1.0
219, -8.05982905982906, 0.33821733821733824, -2.6373626373626373, 0.53125, -0.1875, 1.03125, 1.0
220, -8.556776556776557, -0.1452991452991453, -3.2576312576312576, 0.0, -0.03125, 1.625, 1.0
221, -8.294261294261295, -0.442002442002442, -3.2063492063492065, -0.4375, -0.1875, 2.375, 1.0
222, -8.335775335775336, -0.42857142857142855, -2.9914529914529915, -0.625, -0.53125, 3.0, 1.0
223, -8.58974358974359, -0.4700854700854701, -2.3736263736263736, -0.46875, -0.875, 3.53125, 1.0
224, -8.874236874236875, -2.3736263736263736, -2.965811965811966, -0.5, -0.96875, 4.21875, 1.0
225, -8.290598290598291, -5.212454212454213, -4.1098901098901095, -1.09375, -0.78125, 4.65625, 1.0
226, -6.3870573870573875, -5.361416361416361, -3.431013431013431, -1.5, -0.8125, 4.65625, 1.0
227, -4.63980463980464, -5.64957264957265, -2.4175824175824174, -1.71875, -1.34375, 4.65625, 1.0
228, -4.378510378510379, -5.411477411477412, -2.0537240537240535, -1.59375, -1.9375, 4.625, 1.0
229, -4.755799755799756, -5.632478632478633, -1.4261294261294262, -1.28125, -2.375, 5.0625, 1.0
230, -4.4041514041514045, -8.280830280830282, -0.6251526251526252, -0.5625, -1.75, 5.5, 1.0
231, -1.9768009768009769, -9.328449328449329, -0.4126984126984127, -0.65625, -0.96875, 5.125, 1.0
232, 0.0989010989010989, -9.202686202686202, -0.24664224664224665, -0.78125, -1.0625, 4.90625, 1.0
233, 0.01098901098901099, -8.163614163614163, -0.15384615384615385, -0.84375, -2.0, 4.71875, 1.0
234, -2.3321123321123323, -7.163614163614164, 0.11355311355311355, -0.5, -2.375, 4.46875, 1.0
235, -3.0732600732600734, -7.9181929181929185, -0.22832722832722832, 0.09375, -1.6875, 4.625, 1.0
236, -0.927960927960928, -9.297924297924299, -0.9401709401709402, 0.59375, -0.78125, 5.03125, 1.0
237, 1.5482295482295483, -9.72161172161172, -1.6153846153846154, 0.65625, -0.4375, 5.0, 1.0
238, 2.537240537240537, -8.672771672771672, -1.9328449328449329, 0.40625, -0.4375, 4.5, 1.0
239, 2.47008547008547, -7.299145299145299, -1.763125763125763, 0.1875, -0.5, 3.96875, 1.0
240, 3.0085470085470085, -6.418803418803419, -0.9792429792429792, 0.09375, -0.3125, 3.53125, 1.0
241, 4.015873015873016, -5.648351648351649, -0.34554334554334554, 0.03125, -0.3125, 2.71875, 1.0
242, 4.126984126984127, -4.831501831501831, 0.6471306471306472, -0.125, -0.59375, 2.21875, 1.0
243, 3.717948717948718, -3.4285714285714284, 0.778998778998779, 0.0, -0.625, 1.90625, 1.0
244, 3.1196581196581197, -2.6227106227106227, 0.13186813186813187, 0.15625, -0.4375, 1.8125, 1.0
245, 3.808302808302808, -2.543345543345543, 0.17216117216117216, 0.1875, -0.25, 1.6875, 1.0
246, 4.695970695970696, -2.5885225885225887, 0.2783882783882784, 0.21875, -0.1875, 1.375, 1.0
247, 5.728937728937729, -2.4590964590964592, 0.2661782661782662, 0.1875, -0.3125, 1.03125, 1.0
248, 5.886446886446887, -1.94993894993895, -0.12454212454212454, 0.21875, -0.40625, 0.625, 1.0
249, 5.532356532356532, -1.8547008547008548, -0.4945054945054945, 0.1875, -0.28125, 0.28125, 1.0
250, 5.230769230769231, -1.3858363858363858, -0.5091575091575091, 0.15625, -0.21875, 0.03125, 1.0
251, 3.934065934065934, -0.9010989010989011, -1.0305250305250304, 0.125, -0.125, -0.125, 1.0
252, 2.8754578754578755, -0.536019536019536, -1.3247863247863247, 0.03125, 0.0625, -0.1875, 1.0
253, 2.5274725274725274, -0.4713064713064713, -1.1660561660561661, -0.03125, 0.40625, -0.3125, 1.0
254, 2.0476190476190474, -0.9975579975579976, -1.164835164835165, -0.3125, 0.375, -0.46875, 1.0
255, 1.155067155067155, -0.28083028083028083, -0.9120879120879121, -0.625, 0.25, -0.53125, 0.0
256, 0.7741147741147741, -0.09645909645909646, -0.7252747252747253, -0.5625, 0.25, -0.625, 0.0
257, 1.4517704517704517, -0.7350427350427351, -0.6910866910866911, -0.4375, 0.21875, -0.65625, 0.0
258, 1.2661782661782661, -1.3455433455433456, -0.5128205128205128, -0.3125, 0.15625, -0.78125, 0.0
259, 1.5482295482295483, -2.0256410256410255, -0.4126984126984127, -0.125, 0.25, -1.0625, 0.0
260, 1.5934065934065933, -1.8766788766788767, -0.7948717948717948, -0.09375, 0.3125, -1.4375, 0.0
261, 0.6214896214896215, -1.6837606837606838, -1.3064713064713065, -0.03125, 0.25, -1.8125, 0.0
262, -0.3089133089133089, -2.0793650793650795, -1.2393162393162394, -0.1875, 0.34375, -1.90625, 0.0
263, 0.3418803418803419, -2.9755799755799757, -0.2686202686202686, -0.28125, 0.75, -2.0625, 0.0
264, 1.7728937728937728, -2.9572649572649574, 1.0097680097680097, -0.3125, 0.875, -2.34375, 0.0
265, 1.636141636141636, -2.1074481074481075, 0.7435897435897436, 0.15625, 0.3125, -2.84375, 0.0
266, -0.2564102564102564, -2.681318681318681, -0.38095238095238093, 0.1875, 0.0625, -2.9375, 0.0
267, -1.695970695970696, -3.6092796092796093, -0.8266178266178266, -0.0625, 0.53125, -2.875, 0.0
268, -0.9768009768009768, -3.757020757020757, 0.16483516483516483, -0.15625, 1.09375, -2.875, 0.0
269, 1.0793650793650793, -3.5921855921855923, 1.4212454212454213, 0.0625, 1.0625, -3.125, 0.0
270, 0.5824175824175825, -2.421245421245421, 0.5628815628815629, 0.5625, 0.46875, -3.8125, 0.0
271, -1.507936507936508, -3.976800976800977, -0.7081807081807082, 0.3125, -0.03125, -3.6875, 0.0
272, -3.6788766788766787, -4.4774114774114775, -0.8766788766788767, -0.21875, 0.46875, -3.28125, 0.0
273, -3.1074481074481075, -3.877899877899878, 0.5738705738705738, -0.1875, 1.375, -3.125, 0.0
274, -1.3748473748473748, -2.9023199023199022, 1.3028083028083028, 0.4375, 1.65625, -3.34375, 0.0
275, -0.717948717948718, -1.9096459096459097, 1.006105006105006, 1.1875, 1.0625, -3.9375, 0.0
276, -2.496947496947497, -3.808302808302808, -0.7326007326007326, 0.34375, 0.03125, -3.65625, 0.0
277, -4.936507936507937, -1.5995115995115996, -0.6153846153846154, -0.21875, 0.4375, -3.25, 0.0
278, -3.496947496947497, -0.8461538461538461, -0.12454212454212454, 0.125, 0.9375, -3.25, 0.0
279, -4.222222222222222, -0.7045177045177046, -0.7997557997557998, 0.65625, 0.9375, -3.25, 0.0
280, -4.941391941391942, -1.78998778998779, -1.7045177045177045, 0.65625, 0.84375, -3.21875, 0.0
281, -5.493284493284493, -1.7496947496947497, -1.6581196581196582, 0.09375, 0.875, -2.65625, 0.0
282, -4.472527472527473, -0.46153846153846156, -0.7509157509157509, -0.125, 1.34375, -2.1875, 0.0
283, -2.6727716727716726, 0.002442002442002442, -0.6373626373626373, 0.3125, 1.6875, -2.0, 0.0
284, -2.6117216117216118, -0.4603174603174603, -1.7936507936507937, 0.78125, 1.40625, -2.28125, 0.0
285, -3.948717948717949, -1.2295482295482296, -2.9804639804639805, 0.53125, 0.65625, -2.5625, 0.0
286, -5.732600732600733, -0.017094017094017096, -2.8534798534798536, -0.1875, 0.25, -2.25, 0.0
287, -6.097680097680097, 1.3797313797313797, -2.1294261294261294, -0.34375, 0.75, -1.6875, 0.0
288, -4.492063492063492, 1.0256410256410255, -1.750915750915751, 0.09375, 1.46875, -0.875, 0.0
289, -2.293040293040293, -0.3308913308913309, -1.6324786324786325, 0.03125, 1.40625, -0.875, 0.0
290, -1.0671550671550671, -0.73992673992674, -1.133089133089133, -0.15625, 1.03125, -1.125, 0.0
291, -1.1452991452991452, -0.3089133089133089, -0.3992673992673993, -0.21875, 0.6875, -1.3125, 0.0
292, -1.8363858363858363, 0.30036630036630035, 0.07936507936507936, -0.09375, 0.53125, -1.21875, 0.0
293, -2.208791208791209, 0.5714285714285714, 0.2698412698412698, 0.09375, 0.5625, -1.0, 0.0
294, -2.695970695970696, 0.8913308913308914, 0.12332112332112333, 0.3125, 0.65625, -0.90625, 0.0
295, -2.2393162393162394, 1.0, 0.06471306471306472, 0.375, 0.5, -0.84375, 0.0
296, -2.4725274725274726, 0.6776556776556777, -0.1855921855921856, 0.25, 0.375, -0.84375, 0.0
297, -2.4481074481074483, 1.2393162393162394, -0.08424908424908426, 0.4375, 0.375, -0.875, 0.0
298, -2.5115995115995116, 1.7435897435897436, -0.22466422466422467, 0.96875, 0.5, -1.0625, 1.0
299, -1.380952380952381, 0.8290598290598291, -0.398046398046398, 1.09375, 0.40625, -0.9375, 1.0
300, -3.2808302808302807, 1.4407814407814408, -2.075702075702076, 1.0, 0.0, -0.84375, 1.0
301, -3.843711843711844, 1.3894993894993894, -1.3724053724053724, 1.09375, -0.03125, -0.625, 1.0
302, -4.809523809523809, 2.2295482295482296, -1.3308913308913308, 1.125, -0.03125, -0.1875, 1.0
303, -6.158730158730159, 1.4285714285714286, -2.5714285714285716, 1.3125, -0.125, 0.28125, 1.0
304, -7.970695970695971, 0.8925518925518926, -3.2454212454212454, 1.1875, -0.21875, 0.78125, 1.0
305, -9.443223443223443, -0.06227106227106227, -4.183150183150183, 0.8125, -0.21875, 1.5, 1.0
306, -9.101343101343101, -0.7582417582417582, -4.517704517704518, 0.09375, 0.03125, 1.90625, 1.0
307, -8.074481074481074, -0.6153846153846154, -4.140415140415141, -0.78125, 0.125, 2.25, 1.0
308, -7.164835164835165, -0.6105006105006106, -3.628815628815629, -1.375, -0.28125, 2.75, 1.0
309, -7.180708180708181, -1.4456654456654456, -3.937728937728938, -1.71875, -1.0, 3.3125, 1.0
310, -7.512820512820513, -2.5006105006105006, -4.264957264957265, -1.8125, -1.5625, 3.875, 1.0
311, -6.957264957264957, -4.772893772893773, -4.858363858363858, -1.96875, -1.34375, 4.375, 1.0
312, -5.683760683760684, -5.913308913308914, -4.367521367521367, -2.25, -1.0625, 4.75, 1.0
313, -4.0195360195360195, -6.344322344322344, -3.4603174603174605, -2.21875, -1.03125, 4.84375, 1.0
314, -2.7142857142857144, -6.826617826617826, -2.4444444444444446, -1.84375, -1.3125, 4.71875, 1.0
315, -2.518925518925519, -8.34920634920635, -1.7960927960927962, -1.6875, -1.625, 4.71875, 1.0
316, -2.879120879120879, -8.732600732600732, -1.3772893772893773, -1.53125, -1.6875, 4.71875, 1.0
317, -3.8693528693528694, -9.744810744810744, -1.7716727716727716, -1.375, -1.46875, 4.875, 1.0
318, -4.028083028083028, -9.98046398046398, -1.2393162393162394, -1.21875, -1.03125, 5.09375, 1.0
319, -3.755799755799756, -9.498168498168498, -1.0073260073260073, -0.78125, -0.625, 5.3125, 1.0
320, -2.9401709401709404, -10.402930402930403, -0.6227106227106227, -0.5, -0.25, 5.5625, 1.0
321, -1.8156288156288156, -10.93894993894994, -0.42124542124542125, -0.375, 0.03125, 5.5, 1.0
322, -1.1526251526251525, -10.427350427350428, -0.06349206349206349, -0.28125, 0.3125, 5.21875, 1.0
323, 0.8327228327228328, -9.328449328449329, 2.0720390720390722, -0.25, 0.40625, 4.78125, 1.0
324, 3.326007326007326, -9.056166056166056, 3.5824175824175826, -0.09375, 0.25, 4.53125, 1.0
325, 5.822954822954823, -9.905982905982906, 3.5042735042735043, 0.09375, -0.0625, 3.90625, 1.0
326, 6.719169719169719, -8.627594627594627, 2.2637362637362637, 0.125, -0.59375, 3.0625, 1.0
327, 7.722832722832723, -8.334554334554335, 1.1855921855921856, 0.21875, -0.78125, 2.34375, 1.0
328, 9.559218559218559, -6.844932844932845, 0.4078144078144078, 0.125, -0.78125, 1.625, 1.0
329, 9.537240537240537, -5.339438339438339, -0.4627594627594628, 0.125, -1.0, 0.875, 1.0
330, 8.042735042735043, -3.7716727716727716, -1.4932844932844933, 0.09375, -1.03125, 0.3125, 1.0
331, 6.117216117216117, -2.901098901098901, -2.391941391941392, 0.03125, -0.75, -0.03125, 1.0
332, 4.858363858363858, -1.8547008547008548, -2.503052503052503, -0.09375, -0.375, -0.125, 1.0
333, 4.31013431013431, -1.0818070818070817, -1.5238095238095237, -0.3125, -0.09375, -0.1875, 1.0
334, 3.4249084249084247, -0.7228327228327228, -0.3626373626373626, -0.46875, -0.03125, -0.40625, 1.0
335, 2.6764346764346763, -0.3247863247863248, 0.5262515262515263, -0.375, -0.09375, -0.53125, 1.0
336, 1.8522588522588523, -0.7045177045177046, 0.8827838827838828, -0.3125, -0.09375, -0.5625, 1.0
337, 1.7106227106227105, -1.0488400488400489, 1.0708180708180708, -0.3125, -0.15625, -0.5, 0.0
338, 1.6178266178266179, -1.474969474969475, 1.0537240537240538, -0.28125, -0.21875, -0.40625, 0.0
339, 2.0732600732600734, -2.081807081807082, 0.7704517704517705, -0.21875, -0.375, -0.40625, 0.0
340, 2.735042735042735, -3.3687423687423688, 0.518925518925519, -0.125, -0.4375, -0.75, 0.0
341, 1.8046398046398047, -4.509157509157509, -0.2576312576312576, -0.28125, -0.28125, -1.28125, 0.0
342, 1.8522588522588523, -3.5213675213675213, -0.21733821733821734, -0.34375, -0.21875, -1.65625, 0.0
343, 1.3858363858363858, -2.78998778998779, -0.12942612942612944, -0.1875, -0.15625, -1.8125, 0.0
344, 1.3137973137973138, -2.9365079365079363, 0.2783882783882784, -0.09375, 0.0625, -1.9375, 0.0
345, 1.8583638583638584, -3.4224664224664223, 0.4481074481074481, -0.03125, 0.21875, -2.1875, 0.0
346, 1.746031746031746, -3.5067155067155067, 0.23565323565323565, 0.0, 0.15625, -2.5, 0.0
347, 0.6068376068376068, -3.9413919413919416, -0.002442002442002442, 0.0, 0.1875, -2.8125, 0.0
348, -0.1807081807081807, -4.0195360195360195, -0.3125763125763126, 0.0, 0.21875, -3.09375, 0.0
349, -0.8266178266178266, -4.09035409035409, -0.28083028083028083, 0.0, 0.34375, -3.25, 0.0
350, -0.9413919413919414, -4.233211233211233, 0.2087912087912088, 0.0, 0.65625, -3.25, 0.0
351, -0.2698412698412698, -3.93040293040293, 0.3052503052503053, 0.125, 0.875, -3.34375, 0.0
352, -0.4713064713064713, -3.7191697191697193, -0.09401709401709402, 0.375, 0.8125, -3.625, 0.0
353, -1.6874236874236874, -4.175824175824176, -0.5787545787545788, 0.46875, 0.5625, -3.8125, 0.0
354, -2.6996336996337, -3.948717948717949, -0.4188034188034188, 0.25, 0.53125, -3.78125, 0.0
355, -2.299145299145299, -2.4786324786324787, -0.2979242979242979, 0.125, 0.65625, -3.78125, 0.0
356, -2.432234432234432, -1.8815628815628815, -1.0122100122100122, 0.34375, 0.4375, -4.03125, 0.0
357, -4.0, -2.6336996336996337, -1.5555555555555556, 0.28125, 0.03125, -4.0625, 0.0
358, -5.301587301587301, -2.554334554334554, -1.347985347985348, -0.0625, 0.71875, -3.5, 0.0
359, -4.844932844932845, -2.144078144078144, 0.25274725274725274, 0.0, 1.4375, -2.78125, 0.0
360, -3.2063492063492065, -1.5995115995115996, 1.1684981684981686, 0.71875, 2.15625, -2.5625, 0.0
361, -1.2942612942612943, -1.8302808302808302, 0.5555555555555556, 1.34375, 1.96875, -2.8125, 0.0
362, -1.3724053724053724, -3.230769230769231, -0.7216117216117216, 1.21875, 1.53125, -3.25, 0.0
363, -1.9365079365079365, -3.3785103785103785, -1.277167277167277, 0.75, 1.1875, -3.46875, 0.0
364, -2.5177045177045176, -2.393162393162393, -1.3785103785103785, 0.3125, 0.8125, -3.21875, 0.0
365, -3.0097680097680097, -0.6642246642246642, -1.3418803418803418, 0.46875, 0.8125, -3.1875, 0.0
366, -3.5042735042735043, -0.4884004884004884, -1.862026862026862, 0.625, 0.96875, -3.125, 0.0
367, -4.031746031746032, -0.040293040293040296, -2.2735042735042734, 0.65625, 1.15625, -3.0625, 0.0
368, -4.346764346764346, -0.30158730158730157, -2.8144078144078146, 0.34375, 1.09375, -2.625, 0.0
369, -4.142857142857143, 0.7643467643467643, -2.2222222222222223, 0.125, 1.0, -2.1875, 0.0
370, -3.7191697191697193, 1.5848595848595848, -1.4297924297924298, 0.3125, 0.875, -2.09375, 0.0
371, -3.681318681318681, 1.2686202686202686, -1.7374847374847375, 0.34375, 0.6875, -1.9375, 0.0
372, -3.5934065934065935, 1.3235653235653235, -1.8315018315018314, 0.21875, 0.5, -1.6875, 0.0
373, -3.4761904761904763, 1.6593406593406594, -1.6092796092796093, 0.125, 0.5625, -1.53125, 0.0
374, -2.6556776556776556, 1.829059829059829, -1.6349206349206349, 0.09375, 0.59375, -1.28125, 0.0
375, -2.343101343101343, 1.7875457875457876, -1.277167277167277, 0.09375, 0.625, -1.25, 0.0
376, -1.9951159951159951, 1.5616605616605617, -1.291819291819292, 0.15625, 0.53125, -1.28125, 0.0
377, -3.021978021978022, 1.8705738705738706, -1.2002442002442002, 0.125, 0.15625, -1.15625, 0.0
378, -4.816849816849817, 1.8168498168498168, -0.5970695970695971, 0.15625, 0.0, -1.0625, 1.0
379, -4.827838827838828, 2.7887667887667886, -0.18315018315018314, 0.40625, -0.0625, -0.9375, 1.0
380, -4.958485958485959, 1.8656898656898657, -0.9963369963369964, 0.65625, -0.125, -0.28125, 1.0
381, -6.733821733821734, 1.8241758241758241, -2.028083028083028, 0.375, -0.125, 0.46875, 1.0
382, -6.9804639804639805, 2.2527472527472527, -2.2625152625152625, 0.15625, 0.0, 1.0625, 1.0
383, -7.3247863247863245, 2.634920634920635, -2.3174603174603177, 0.09375, -0.125, 1.65625, 1.0
384, -7.313797313797314, 1.5665445665445665, -2.722832722832723, -0.0625, -0.34375, 2.125, 1.0
385, -7.536019536019536, 0.905982905982906, -2.6715506715506714, -0.28125, -0.6875, 2.6875, 1.0
386, -7.728937728937729, -0.5262515262515263, -3.1575091575091574, -0.5625, -0.78125, 3.125, 1.0
387, -6.68986568986569, -1.2991452991452992, -2.8583638583638584, -0.75, -0.9375, 3.46875, 1.0
388, -5.371184371184371, -1.8131868131868132, -2.2344322344322345, -0.75, -1.375, 3.75, 1.0
389, -4.3076923076923075, -2.503052503052503, -1.7973137973137974, -0.625, -1.96875, 3.96875, 1.0
390, -5.26984126984127, -5.17948717948718, -3.3382173382173383, -0.75, -1.96875, 3.96875, 1.0
391, -5.302808302808303, -6.695970695970696, -4.074481074481074, -1.375, -1.3125, 4.125, 1.0
392, -3.7838827838827838, -5.583638583638583, -2.8986568986568986, -1.4375, -1.125, 4.5, 1.0
393, -1.5360195360195361, -7.744810744810745, -2.6031746031746033, -1.28125, -1.125, 4.53125, 1.0
394, -0.38461538461538464, -8.306471306471307, -2.559218559218559, -1.375, -1.03125, 4.28125, 1.0
395, 0.2698412698412698, -7.993894993894994, -2.385836385836386, -1.4375, -1.125, 4.0, 1.0
396, 0.33455433455433453, -7.56043956043956, -2.0268620268620268, -1.40625, -1.34375, 3.71875, 1.0
397, -0.3089133089133089, -6.947496947496948, -1.3076923076923077, -1.25, -1.40625, 3.65625, 1.0
398, -0.3797313797313797, -6.99023199023199, -0.6691086691086691, -0.84375, -1.125, 3.75, 1.0
399, 0.27472527472527475, -6.996336996336996, -0.35775335775335776, -0.5, -0.78125, 3.84375, 1.0
400, 0.3308913308913309, -6.930402930402931, -0.6019536019536019, -0.34375, -0.6875, 3.75, 1.0
401, -0.02197802197802198, -5.954822954822955, -0.09401709401709402, -0.34375, -0.71875, 3.5625, 1.0
402, -0.336996336996337, -5.648351648351649, 0.23565323565323565, -0.21875, -0.625, 3.4375, 1.0
403, 0.009768009768009768, -5.1208791208791204, 0.818070818070818, -0.09375, -0.46875, 3.4375, 1.0
404, 0.4065934065934066, -4.8498168498168495, 1.6153846153846154, 0.09375, -0.625, 3.25, 1.0
405, 0.25518925518925517, -4.507936507936508, 1.989010989010989, 0.25, -0.90625, 3.0625, 1.0
406, 0.37362637362637363, -3.67032967032967, 2.173382173382173, 0.4375, -1.15625, 2.96875, 1.0
407, 0.3968253968253968, -4.083028083028083, 1.5506715506715507, 0.59375, -1.0625, 2.96875, 1.0
408, 1.7802197802197801, -3.826617826617827, 0.3724053724053724, 0.71875, -0.8125, 2.84375, 1.0
409, 3.4481074481074483, -3.4126984126984126, -0.6153846153846154, 0.8125, -0.78125, 2.59375, 1.0
410, 5.061050061050061, -3.2612942612942613, -1.4407814407814408, 0.75, -0.8125, 2.1875, 1.0
411, 5.915750915750916, -3.1758241758241756, -1.8485958485958487, 0.59375, -0.71875, 1.71875, 1.0
412, 6.224664224664225, -3.3382173382173383, -1.8315018315018314, 0.3125, -0.5, 1.1875, 1.0
413, 6.476190476190476, -2.4652014652014653, -1.818070818070818, 0.15625, -0.40625, 0.8125, 1.0
414, 6.277167277167277, -1.7692307692307692, -1.7313797313797314, 0.125, -0.25, 0.4375, 1.0
415, 4.953601953601954, -1.2735042735042734, -1.8974358974358974, 0.0625, 0.0, 0.1875, 1.0
416, 3.484737484737485, -0.7875457875457875, -0.5177045177045178, -0.0625, 0.25, 0.0, 1.0
417, 3.2405372405372406, -0.73992673992674, -0.1452991452991453, -0.125, 0.21875, -0.15625, 1.0
418, 2.346764346764347, -0.6239316239316239, -0.6092796092796092, -0.25, 0.125, -0.3125, 0.0
419, 1.2588522588522588, -0.5848595848595849, -0.8901098901098901, -0.4375, 0.125, -0.40625, 0.0
420, 0.3601953601953602, -0.36874236874236876, -0.5128205128205128, -0.625, 0.28125, -0.375, 0.0
421, 0.6312576312576312, -0.5128205128205128, -0.08547008547008547, -0.59375, 0.4375, -0.34375, 0.0
422, 1.2661782661782661, -0.9536019536019537, -0.10744810744810745, -0.375, 0.46875, -0.4375, 0.0
423, 1.3406593406593406, -1.6263736263736264, -0.11477411477411477, -0.1875, 0.3125, -0.59375, 0.0
424, 1.1428571428571428, -2.7216117216117217, -0.3235653235653236, -0.125, 0.375, -0.875, 0.0
425, 1.684981684981685, -2.8522588522588523, 0.008547008547008548, -0.1875, 0.5625, -1.21875, 0.0
426, 1.8876678876678876, -3.172161172161172, 0.48595848595848595, -0.15625, 0.59375, -1.53125, 0.0
427, 2.0671550671550674, -3.336996336996337, 0.5128205128205128, -0.125, 0.46875, -2.03125, 0.0
428, 1.7094017094017093, -3.9682539682539684, 0.24053724053724054, -0.15625, 0.375, -2.375, 0.0
429, 1.164835164835165, -4.214896214896215, 0.4468864468864469, -0.1875, 0.46875, -2.75, 0.0
430, 1.1636141636141637, -3.656898656898657, 0.2222222222222222, -0.125, 0.40625, -3.0, 0.0
431, 0.1575091575091575, -3.614163614163614, -0.2087912087912088, -0.15625, 0.34375, -3.09375, 0.0
432, -0.38461538461538464, -3.5457875457875456, -0.052503052503052504, -0.25, 0.40625, -3.09375, 0.0
433, -0.5641025641025641, -3.2051282051282053, 0.38583638583638585, -0.25, 0.53125, -3.15625, 0.0
434, -0.5494505494505495, -3.156288156288156, 0.26373626373626374, -0.03125, 0.625, -3.3125, 0.0
435, -0.8168498168498168, -3.2173382173382175, -0.10012210012210013, 0.09375, 0.625, -3.34375, 0.0
436, -1.5714285714285714, -3.36996336996337, -0.29426129426129427, 0.15625, 0.78125, -3.4375, 0.0
437, -2.0, -3.0525030525030523, 0.06593406593406594, 0.1875, 1.0625, -3.46875, 0.0
438, -1.4175824175824177, -2.2222222222222223, 0.27594627594627597, 0.34375, 0.96875, -3.625, 0.0
439, -1.921855921855922, -2.318681318681319, -0.02442002442002442, 0.5, 0.96875, -4.0, 0.0
440, -2.4224664224664223, -2.2405372405372406, -1.028083028083028, 0.625, 1.125, -4.21875, 0.0
441, -3.0720390720390722, -3.0427350427350426, -1.8742368742368742, 0.4375, 0.625, -4.25, 0.0
442, -5.185592185592186, -1.9401709401709402, -1.5335775335775337, -0.15625, 0.34375, -4.09375, 0.0
443, -5.459096459096459, -0.9719169719169719, -0.557997557997558, -0.28125, 0.9375, -3.9375, 0.0
444, -4.905982905982906, -0.4932844932844933, 0.7484737484737485, 0.15625, 1.78125, -3.6875, 0.0
445, -2.7655677655677655, -2.173382173382173, -0.18803418803418803, 0.90625, 2.40625, -3.375, 0.0
446, -3.0781440781440783, -2.4481074481074483, -0.8168498168498168, 0.65625, 1.375, -2.5625, 0.0
447, -4.272283272283272, -1.6691086691086692, -1.4957264957264957, 0.34375, 1.3125, -2.625, 0.0
448, -3.6715506715506714, -0.978021978021978, -1.3113553113553114, 0.25, 1.25, -2.75, 0.0
449, -4.1208791208791204, -0.43345543345543347, -1.3785103785103785, 0.28125, 1.15625, -2.53125, 0.0
450, -3.877899877899878, -0.6507936507936508, -1.5616605616605617, 0.34375, 1.25, -2.34375, 0.0
451, -3.47985347985348, -0.5518925518925519, -1.485958485958486, 0.28125, 1.28125, -2.09375, 0.0
452, -3.4493284493284495, -0.08791208791208792, -1.1074481074481075, 0.25, 1.1875, -2.0, 0.0
453, -3.376068376068376, 1.1123321123321124, -1.0598290598290598, 0.4375, 1.03125, -1.9375, 0.0
454, -4.015873015873016, 1.205128205128205, -1.5433455433455434, 0.5, 0.8125, -1.75, 0.0
455, -4.724053724053724, 1.4297924297924298, -1.746031746031746, 0.34375, 0.78125, -1.5, 0.0
456, -4.611721611721611, 1.4114774114774116, -1.8681318681318682, 0.21875, 0.8125, -1.28125, 0.0
457, -4.236874236874237, 2.1880341880341883, -1.231990231990232, 0.21875, 0.71875, -1.125, 0.0
458, -3.8986568986568986, 3.2686202686202686, -0.778998778998779, 0.5625, 0.46875, -0.96875, 0.0
459, -3.8376068376068377, 3.5714285714285716, -0.6019536019536019, 1.03125, 0.125, -0.71875, 1.0
460, -4.687423687423688, 2.0525030525030523, -1.4908424908424909, 0.96875, 0.0, -0.40625, 1.0
461, -4.847374847374847, 1.6178266178266179, -1.9816849816849818, 0.6875, 0.09375, -0.125, 1.0
462, -4.588522588522588, 2.8424908424908426, -1.122100122100122, 0.75, -0.25, 0.28125, 1.0
463, -6.910866910866911, 2.924297924297924, -1.2698412698412698, 0.78125, -0.78125, 0.78125, 1.0
464, -8.145299145299145, 2.4505494505494507, -1.47985347985348, 0.9375, -0.9375, 1.4375, 1.0
465, -9.825396825396826, 0.2454212454212454, -2.8705738705738706, 0.8125, -0.59375, 1.96875, 1.0
466, -9.085470085470085, 0.01221001221001221, -2.717948717948718, 0.1875, -0.0625, 2.5625, 1.0
467, -7.214896214896215, 0.19658119658119658, -2.166056166056166, -0.375, -0.09375, 3.03125, 1.0
468, -6.61050061050061, 0.6105006105006106, -1.8339438339438339, -0.65625, -0.71875, 3.34375, 1.0
469, -6.349206349206349, -0.3711843711843712, -2.1697191697191696, -0.46875, -1.28125, 3.5, 1.0
470, -6.36019536019536, -3.004884004884005, -3.659340659340659, -0.65625, -1.5, 3.65625, 1.0
471, -5.233211233211233, -3.796092796092796, -3.4065934065934065, -1.21875, -1.375, 3.6875, 1.0
472, -4.374847374847374, -3.437118437118437, -2.6935286935286937, -1.53125, -1.34375, 3.90625, 1.0
473, -3.905982905982906, -4.227106227106227, -2.547008547008547, -1.375, -1.28125, 4.21875, 1.0
474, -2.706959706959707, -5.627594627594628, -2.1965811965811968, -0.90625, -1.125, 4.53125, 1.0
475, -1.6495726495726495, -7.136752136752137, -2.3003663003663, -0.78125, -1.125, 4.4375, 1.0
476, -1.293040293040293, -8.357753357753358, -2.393162393162393, -0.90625, -1.09375, 4.21875, 1.0
477, -0.9951159951159951, -7.83028083028083, -1.8632478632478633, -0.9375, -1.03125, 4.09375, 1.0
478, -0.7594627594627594, -7.8901098901098905, -1.120879120879121, -0.8125, -0.9375, 4.03125, 1.0
479, -0.0231990231990232, -7.619047619047619, -0.7948717948717948, -0.5625, -1.0, 3.84375, 1.0
480, 0.052503052503052504, -7.603174603174603, -0.6581196581196581, -0.34375, -1.0625, 3.59375, 1.0
481, -0.1623931623931624, -7.354090354090354, -0.3418803418803419, -0.28125, -0.875, 3.40625, 1.0
482, -0.6654456654456654, -6.721611721611722, 0.34676434676434675, -0.25, -0.5625, 3.34375, 1.0
483, -0.38461538461538464, -5.965811965811966, 1.0341880341880343, -0.125, -0.28125, 3.28125, 1.0
484, 0.2515262515262515, -5.051282051282051, 1.7264957264957266, 0.0625, -0.3125, 3.125, 1.0
485, -0.031746031746031744, -4.599511599511599, 1.7997557997557998, 0.21875, -0.5, 2.9375, 1.0
486, 0.19291819291819293, -3.724053724053724, 1.7313797313797314, 0.28125, -0.46875, 2.8125, 1.0
487, -0.525030525030525, -3.583638583638584, 1.6275946275946276, 0.375, -0.53125, 2.78125, 1.0
488, -0.2869352869352869, -3.191697191697192, 1.9352869352869353, 0.46875, -0.3125, 2.875, 1.0
489, 0.7130647130647131, -2.9853479853479854, 2.1587301587301586, 0.59375, -0.25, 2.96875, 1.0
490, 1.3943833943833943, -3.271062271062271, 1.6336996336996337, 0.78125, -0.40625, 2.84375, 1.0
491, 1.8485958485958487, -2.960927960927961, 1.170940170940171, 0.875, -0.53125, 2.75, 1.0
492, 3.028083028083028, -2.9035409035409034, 0.25274725274725274, 1.0, -0.4375, 2.65625, 1.0
493, 4.5677655677655675, -3.2295482295482296, -1.7142857142857142, 1.125, -0.25, 2.5, 1.0
494, 6.1611721611721615, -3.0085470085470085, -2.9255189255189253, 1.0, 0.0625, 2.15625, 1.0
495, 6.925518925518926, -3.083028083028083, -2.913308913308913, 0.78125, 0.375, 1.6875, 1.0
496, 7.747252747252747, -2.8144078144078146, -2.0195360195360195, 0.5, 0.6875, 1.15625, 1.0
497, 7.8669108669108665, -2.282051282051282, -1.6105006105006106, 0.15625, 0.375, 0.15625, 1.0
498, 6.063492063492063, -1.7032967032967032, -1.641025641025641, -0.0625, 0.0, -0.34375, 1.0
499, 3.590964590964591, -0.8876678876678876, -1.3199023199023199, -0.28125, 0.0, -0.5625, 1.0
500, 2.2014652014652016, -0.12332112332112333, -0.6117216117216118, -0.375, 0.0625, -0.59375, 1.0
501, 1.2478632478632479, 0.10989010989010989, -0.17216117216117216, -0.40625, 0.125, -0.59375, 0.0
502, 0.29304029304029305, -0.29304029304029305, -0.029304029304029304, -0.59375, 0.28125, -0.4375, 0.0
503, -0.042735042735042736, -0.15506715506715507, -0.03907203907203907, -0.5625, 0.46875, -0.28125, 0.0
504, 0.5677655677655677, -0.42002442002442003, 0.2844932844932845, -0.40625, 0.5625, -0.25, 0.0
505, 0.8766788766788767, -0.9340659340659341, 0.10500610500610501, -0.125, 0.625, -0.34375, 0.0
506, 1.181929181929182, -1.706959706959707, -0.1978021978021978, 0.0, 0.78125, -0.65625, 0.0
507, 1.540903540903541, -2.312576312576313, -0.4603174603174603, 0.03125, 0.84375, -0.90625, 0.0
508, 1.4884004884004884, -2.8754578754578755, 0.007326007326007326, 0.03125, 0.9375, -1.1875, 0.0
509, 2.3553113553113554, -3.4444444444444446, 0.7875457875457875, 0.0625, 0.78125, -1.75, 0.0
510, 1.3846153846153846, -4.032967032967033, 0.46764346764346765, 0.03125, 0.59375, -2.15625, 0.0
511, 0.5372405372405372, -4.344322344322344, 0.6434676434676435, 0.0, 0.71875, -2.625, 0.0
512, 0.35775335775335776, -4.846153846153846, 0.7374847374847375, 0.03125, 0.90625, -2.90625, 0.0
513, 0.8083028083028083, -4.123321123321123, 1.1135531135531136, -0.03125, 0.78125, -3.125, 0.0
514, 0.7631257631257631, -4.252747252747253, 0.873015873015873, 0.0, 0.4375, -3.625, 0.0
515, -0.4261294261294261, -5.124542124542124, 0.38461538461538464, 0.0, 0.09375, -4.1875, 0.0
516, -1.1025641025641026, -4.854700854700854, 0.2454212454212454, -0.09375, 0.15625, -4.6875, 0.0
517, -0.8778998778998779, -4.842490842490842, -0.06105006105006105, -0.21875, -0.09375, -4.625, 0.0
518, -2.0537240537240535, -3.4590964590964592, 0.06471306471306472, -0.5, -0.5, -4.46875, 0.0
519, -2.6495726495726495, -2.838827838827839, 0.608058608058608, -0.46875, -0.25, -4.59375, 0.0
520, -2.7435897435897436, -1.6971916971916972, 0.833943833943834, 0.125, 0.25, -4.625, 0.0
521, -2.432234432234432, -1.6947496947496947, -0.1343101343101343, 0.6875, 1.03125, -4.71875, 0.0
522, -2.045177045177045, -3.567765567765568, -1.343101343101343, 0.21875, 0.4375, -3.96875, 0.0
523, -4.615384615384615, -2.8424908424908426, -1.8302808302808302, -0.3125, 0.84375, -3.53125, 0.0
524, -4.347985347985348, -0.7887667887667887, -0.6947496947496947, -0.0625, 1.5625, -3.375, 0.0
525, -3.6031746031746033, -0.32722832722832723, 0.518925518925519, 0.5, 1.96875, -3.125, 0.0
526, -2.5885225885225887, -0.8241758241758241, 0.3076923076923077, 1.09375, 2.15625, -3.3125, 0.0
527, -1.4957264957264957, -2.103785103785104, -1.0354090354090355, 1.15625, 1.75, -3.59375, 0.0
528, -2.288156288156288, -3.105006105006105, -1.6886446886446886, 0.5625, 0.96875, -3.46875, 0.0
529, -3.8095238095238093, -2.081807081807082, -1.3736263736263736, 0.125, 0.90625, -3.125, 0.0
530, -4.544566544566544, -0.8083028083028083, -0.9218559218559218, 0.375, 1.375, -2.75, 0.0
531, -3.5518925518925517, -0.38583638583638585, -0.8485958485958486, 0.9375, 1.6875, -2.59375, 0.0
532, -2.9816849816849818, -1.0402930402930404, -2.21001221001221, 0.78125, 1.1875, -2.78125, 0.0
533, -4.673992673992674, -0.14285714285714285, -2.1001221001221, 0.21875, 0.65625, -2.625, 0.0
534, -5.208791208791209, 1.3455433455433456, -1.7655677655677655, 0.15625, 0.8125, -2.25, 0.0
535, -5.428571428571429, 1.3003663003663004, -1.8962148962148961, 0.40625, 1.125, -1.8125, 0.0
536, -4.87057387057387, 0.9084249084249084, -1.9047619047619047, 0.4375, 1.21875, -1.53125, 0.0
537, -4.181929181929182, 0.9572649572649573, -1.6898656898656899, 0.21875, 0.96875, -1.25, 0.0
538, -4.103785103785103, 0.6654456654456654, -1.5531135531135531, 0.03125, 0.65625, -1.09375, 0.0
539, -3.586080586080586, 1.0671550671550671, -1.1660561660561661, -0.0625, 0.5, -1.09375, 0.0
540, -3.3675213675213675, 1.3296703296703296, -0.8217338217338217, -0.03125, 0.375, -1.03125, 0.0
541, -2.95970695970696, 1.1001221001221002, -0.6727716727716728, 0.0, 0.3125, -0.78125, 0.0
542, -2.2283272283272284, 0.38217338217338215, -0.7704517704517705, 0.0, 0.34375, -0.625, 0.0
543, -1.5115995115995116, 0.7338217338217338, -0.29426129426129427, 0.0, 0.46875, -0.75, 0.0
544, -0.7912087912087912, 1.181929181929182, -0.25274725274725274, 0.5625, 0.28125, -0.90625, 0.0
545, -0.5274725274725275, 1.1941391941391941, -0.06227106227106227, 0.8125, -0.125, -0.8125, 1.0
546, -0.9768009768009768, 0.2026862026862027, -1.0757020757020757, 0.71875, -0.25, -0.96875, 1.0
547, -1.901098901098901, 0.7777777777777778, -2.051282051282051, 0.5, -0.34375, -1.03125, 1.0
548, -3.0671550671550674, 2.1355311355311355, -2.3223443223443225, 0.40625, -0.46875, -0.75, 1.0
549, -4.598290598290598, 2.2112332112332114, -2.358974358974359, 0.34375, -0.625, -0.25, 1.0
550, -5.892551892551893, 2.2246642246642248, -2.686202686202686, 0.21875, -0.75, 0.25, 1.0
551, -7.644688644688645, 1.8681318681318682, -3.242979242979243, 0.0, -0.71875, 0.84375, 1.0
552, -8.401709401709402, 1.6459096459096458, -4.224664224664225, -0.4375, -0.625, 1.4375, 1.0
553, -8.11965811965812, 1.807081807081807, -3.647130647130647, -0.71875, -0.75, 2.09375, 1.0
554, -7.653235653235654, 1.4932844932844933, -3.507936507936508, -0.75, -0.9375, 2.71875, 1.0
555, -7.126984126984127, 0.6666666666666666, -3.043956043956044, -0.5, -1.21875, 3.78125, 1.0
556, -6.08058608058608, -3.173382173382173, -3.9194139194139193, -0.53125, -1.25, 4.3125, 1.0
557, -4.345543345543345, -4.670329670329671, -3.4993894993894994, -1.09375, -1.125, 4.46875, 1.0
558, -2.427350427350427, -4.5396825396825395, -1.6727716727716728, -1.40625, -1.4375, 4.375, 1.0
559, -1.424908424908425, -4.4322344322344325, -0.10256410256410256, -1.28125, -2.09375, 4.125, 1.0
560, -2.034188034188034, -5.167277167277168, 0.13553113553113552, -0.875, -2.875, 4.1875, 1.0
561, -3.984126984126984, -8.948717948717949, -2.3223443223443225, -0.875, -2.6875, 4.125, 1.0
562, -2.1452991452991452, -8.267399267399268, -1.7484737484737485, -1.375, -1.78125, 4.09375, 1.0
563, -0.5836385836385837, -7.084249084249084, -0.7533577533577533, -1.1875, -1.59375, 4.21875, 1.0
564, -0.07326007326007326, -7.378510378510379, -1.0695970695970696, -0.65625, -1.71875, 4.21875, 1.0
565, -0.5470085470085471, -7.523809523809524, -0.9536019536019537, -0.3125, -1.9375, 4.1875, 1.0
566, -1.115995115995116, -8.19047619047619, -1.5054945054945055, 0.03125, -1.9375, 4.15625, 1.0
567, -1.7655677655677655, -8.897435897435898, -2.431013431013431, -0.15625, -1.0625, 4.0, 1.0
568, -0.6532356532356532, -7.103785103785103, -1.4163614163614164, -0.15625, -0.84375, 3.96875, 1.0
569, -0.33943833943833945, -6.483516483516484, -0.6483516483516484, 0.0625, -0.90625, 3.84375, 1.0
570, -0.29914529914529914, -6.619047619047619, -0.22954822954822954, 0.1875, -0.96875, 3.75, 1.0
571, -0.5543345543345544, -6.456654456654457, 0.6495726495726496, 0.28125, -0.875, 3.65625, 1.0
572, -0.5763125763125763, -6.542124542124542, 1.0366300366300367, 0.34375, -0.6875, 3.53125, 1.0
573, 0.009768009768009768, -5.63980463980464, 1.678876678876679, 0.46875, -0.53125, 3.40625, 1.0
574, 1.3357753357753357, -5.003663003663004, 2.0964590964590966, 0.71875, -0.6875, 3.28125, 1.0
575, 3.3894993894993894, -5.205128205128205, 0.9230769230769231, 0.8125, -1.125, 2.84375, 1.0
576, 5.208791208791209, -5.070818070818071, -0.5079365079365079, 0.65625, -1.59375, 2.09375, 1.0
577, 4.984126984126984, -3.9084249084249083, -1.9536019536019535, 0.46875, -1.5625, 1.5, 1.0
578, 5.015873015873016, -2.6312576312576312, -2.6092796092796093, 0.4375, -1.1875, 1.25, 1.0
579, 5.684981684981685, -1.7692307692307692, -2.192918192918193, 0.40625, -0.65625, 1.03125, 1.0
580, 5.17948717948718, -1.4615384615384615, -2.3321123321123323, 0.3125, -0.5, 0.75, 1.0
581, 4.671550671550672, -0.7753357753357754, -2.41025641025641, 0.15625, -0.25, 0.46875, 1.0
582, 3.9584859584859586, -0.29181929181929184, -2.192918192918193, 0.0625, -0.09375, 0.28125, 1.0
583, 3.0842490842490844, 0.009768009768009768, -2.006105006105006, 0.03125, 0.0, 0.1875, 1.0
584, 2.7032967032967035, 0.10744810744810745, -1.5909645909645909, 0.0, 0.15625, 0.15625, 1.0
585, 2.559218559218559, -0.16605616605616605, -1.3406593406593406, -0.03125, 0.28125, 0.03125, 1.0
586, 2.1855921855921854, -0.8278388278388278, -1.2612942612942613, -0.09375, 0.375, -0.03125, 0.0
587, 2.010989010989011, -1.2039072039072038, -1.0757020757020757, -0.34375, 0.53125, -0.09375, 0.0
588, 2.0036630036630036, -1.3394383394383393, -0.9316239316239316, -0.625, 0.65625, -0.15625, 0.0
589, 2.548229548229548, -1.6764346764346765, -0.7765567765567766, -0.65625, 0.59375, -0.4375, 0.0
590, 2.526251526251526, -2.3064713064713063, -0.6703296703296703, -0.625, 0.40625, -1.0, 0.0
591, 1.9267399267399268, -2.3492063492063493, -0.960927960927961, -0.5625, 0.40625, -1.3125, 0.0
592, 1.0879120879120878, -2.9145299145299144, -0.8925518925518926, -0.53125, 0.65625, -1.53125, 0.0
593, 0.8400488400488401, -2.967032967032967, -0.37362637362637363, -0.40625, 1.0, -1.71875, 0.0
594, 1.3406593406593406, -3.456654456654457, 0.0, -0.21875, 1.3125, -1.96875, 0.0
595, 1.8205128205128205, -4.141636141636142, 0.08669108669108669, -0.09375, 1.375, -2.3125, 0.0
596, 1.6214896214896215, -4.7765567765567765, -0.10256410256410256, -0.09375, 1.21875, -2.71875, 0.0
597, 0.6239316239316239, -5.343101343101343, -0.21855921855921856, -0.15625, 1.15625, -3.03125, 0.0
598, -0.031746031746031744, -4.989010989010989, 0.2515262515262515, -0.1875, 1.28125, -3.25, 0.0
599, -0.23321123321123322, -4.396825396825397, 0.6312576312576312, 0.03125, 1.40625, -3.59375, 0.0
600, -0.0757020757020757, -3.741147741147741, 0.5543345543345544, 0.40625, 1.34375, -3.90625, 0.0
601, -0.19047619047619047, -5.299145299145299, -0.7350427350427351, 0.1875, 0.625, -3.75, 0.0
602, -3.3455433455433456, -4.134310134310135, -0.4884004884004884, -0.25, 0.78125, -3.90625, 0.0
603, -3.0732600732600734, -2.5103785103785103, 0.398046398046398, -0.03125, 1.21875, -3.9375, 0.0
604, -2.601953601953602, -1.9462759462759462, 0.17216117216117216, 0.53125, 1.625, -4.09375, 0.0
605, -2.172161172161172, -3.9474969474969477, -0.6703296703296703, 0.75, 1.21875, -4.03125, 0.0
606, -4.583638583638583, -3.3076923076923075, -0.4981684981684982, 0.0, 0.59375, -3.5625, 0.0
607, -4.1098901098901095, -1.1062271062271063, 0.452991452991453, -0.15625, 1.21875, -3.3125, 0.0
608, -3.062271062271062, 0.1452991452991453, 0.25274725274725274, 0.5, 1.5, -3.34375, 0.0
609, -2.978021978021978, -1.231990231990232, -1.05006105006105, 1.0, 1.40625, -3.6875, 0.0
610, -3.496947496947497, -2.8937728937728937, -2.2686202686202686, 0.71875, 1.1875, -3.78125, 0.0
611, -5.112332112332112, -1.9975579975579976, -1.684981684981685, -0.15625, 0.96875, -3.0, 0.0
612, -4.518925518925519, 0.08302808302808302, -0.6813186813186813, -0.28125, 1.75, -2.34375, 0.0
613, -2.4505494505494507, 0.358974358974359, -0.5201465201465202, 0.75, 2.0625, -2.375, 0.0
614, -2.463980463980464, -0.7728937728937729, -1.5848595848595848, 0.8125, 1.40625, -2.53125, 0.0
615, -3.214896214896215, -1.6495726495726495, -2.663003663003663, 0.34375, 1.125, -2.46875, 0.0
616, -4.327228327228327, -0.5982905982905983, -2.1868131868131866, 0.0, 1.21875, -1.9375, 0.0
617, -3.761904761904762, 0.3504273504273504, -1.5873015873015872, 0.25, 1.5625, -1.65625, 0.0
618, -2.9035409035409034, 0.4065934065934066, -1.3663003663003663, 0.5625, 1.53125, -1.59375, 0.0
619, -2.562881562881563, -0.36752136752136755, -1.7753357753357752, 0.5, 1.28125, -1.59375, 0.0
620, -2.8290598290598292, -0.10622710622710622, -1.8266178266178266, 0.3125, 1.15625, -1.59375, 0.0
621, -3.1892551892551895, 0.47863247863247865, -1.78998778998779, 0.25, 1.03125, -1.53125, 0.0
622, -3.6092796092796093, 0.6935286935286935, -1.3772893772893773, 0.15625, 0.8125, -1.375, 0.0
623, -3.5494505494505493, 0.8864468864468864, -0.9181929181929182, 0.125, 0.6875, -1.25, 0.0
624, -3.5665445665445668, 0.9682539682539683, -0.503052503052503, 0.09375, 0.5625, -1.0625, 0.0
625, -3.4053724053724053, 1.4981684981684982, -0.06593406593406594, 0.3125, 0.5625, -0.53125, 0.0
626, -2.213675213675214, 1.2344322344322345, -0.7081807081807082, 0.59375, 0.59375, -0.34375, 0.0
627, -1.9902319902319903, 0.7924297924297924, -0.8437118437118437, 0.46875, 0.59375, -0.46875, 0.0
628, -1.855921855921856, 1.6092796092796093, -0.8192918192918193, 0.375, 0.28125, -0.5625, 0.0
629, -2.0354090354090353, 2.94993894993895, -0.6361416361416361, 0.625, -0.09375, -0.5625, 1.0
630, -1.6862026862026862, 2.1953601953601956, -0.48717948717948717, 1.15625, -0.4375, -0.46875, 1.0
631, -2.9865689865689866, 1.1086691086691087, -1.7301587301587302, 1.25, -0.65625, -0.375, 1.0
632, -4.089133089133089, 1.514041514041514, -2.5604395604395602, 0.8125, -0.65625, -0.125, 1.0
633, -5.732600732600733, 2.8290598290598292, -2.6935286935286937, 0.46875, -0.6875, 0.46875, 1.0
634, -6.9010989010989015, 3.7655677655677655, -2.330891330891331, 0.53125, -0.5625, 1.25, 1.0
635, -6.937728937728938, 2.0427350427350426, -3.004884004884005, 0.84375, -0.53125, 2.03125, 1.0
636, -6.885225885225886, -0.9731379731379731, -5.184371184371185, 0.53125, -0.46875, 2.28125, 1.0
637, -6.394383394383395, -0.4432234432234432, -4.827838827838828, -0.78125, -0.46875, 2.59375, 1.0
638, -5.559218559218559, -0.25396825396825395, -4.076923076923077, -1.125, -0.8125, 2.96875, 1.0
639, -4.733821733821734, -0.3333333333333333, -3.42002442002442, -1.0, -1.1875, 3.25, 1.0
640, -3.768009768009768, -0.1562881562881563, -2.4603174603174605, -0.59375, -1.65625, 3.75, 1.0
641, -3.802197802197802, -2.5653235653235655, -2.971916971916972, -0.40625, -1.875, 4.03125, 1.0
642, -4.0476190476190474, -6.68986568986569, -5.124542124542124, -1.28125, -1.25, 3.78125, 1.0
643, -2.305250305250305, -6.233211233211233, -4.0818070818070815, -2.03125, -1.03125, 3.78125, 1.0
644, -0.8229548229548229, -5.235653235653236, -2.346764346764347, -2.0, -1.25, 3.65625, 1.0
645, -0.4261294261294261, -5.824175824175824, -1.595848595848596, -1.75, -1.75, 3.625, 1.0
646, -1.120879120879121, -6.125763125763126, -0.7521367521367521, -1.5, -1.96875, 3.8125, 1.0
647, -1.2759462759462759, -6.137973137973138, -0.31868131868131866, -1.03125, -1.96875, 4.0625, 1.0
648, -1.9658119658119657, -8.048840048840049, -1.1953601953601953, -0.84375, -1.25, 4.03125, 1.0
649, 0.14896214896214896, -7.792429792429792, -0.6605616605616605, -0.8125, -0.875, 3.84375, 1.0
650, 0.17094017094017094, -7.291819291819292, -0.25396825396825395, -0.71875, -1.03125, 3.71875, 1.0
651, -0.4945054945054945, -6.676434676434677, 0.12698412698412698, -0.5, -1.125, 3.5625, 1.0
652, -0.6190476190476191, -6.288156288156288, 1.2857142857142858, -0.1875, -1.125, 3.59375, 1.0
653, -0.3968253968253968, -6.3638583638583635, 1.982905982905983, 0.1875, -1.0, 3.65625, 1.0
654, -0.07081807081807082, -6.6581196581196584, 2.1013431013431014, 0.53125, -0.875, 3.53125, 1.0
655, 0.26495726495726496, -6.213675213675214, 2.3601953601953602, 0.6875, -0.9375, 3.40625, 1.0
656, 0.6275946275946276, -5.83028083028083, 2.8302808302808304, 0.90625, -1.125, 3.21875, 1.0
657, 1.0231990231990231, -5.57020757020757, 2.590964590964591, 1.0, -1.34375, 2.90625, 1.0
658, 0.9206349206349206, -4.678876678876679, 2.133089133089133, 1.03125, -1.5625, 2.71875, 1.0
659, 1.2576312576312576, -4.349206349206349, 0.9365079365079365, 1.25, -1.5, 2.5625, 1.0
660, 2.385836385836386, -4.142857142857143, -0.5018315018315018, 1.34375, -1.40625, 2.125, 1.0
661, 3.6837606837606836, -3.568986568986569, -1.7252747252747254, 1.21875, -1.6875, 1.8125, 1.0
662, 3.5457875457875456, -3.3345543345543347, -2.688644688644689, 0.96875, -1.59375, 1.625, 1.0
663, 4.407814407814408, -2.8803418803418803, -3.225885225885226, 0.75, -1.1875, 1.40625, 1.0
664, 5.7484737484737485, -2.3833943833943834, -4.062271062271062, 0.59375, -0.78125, 1.0625, 1.0
665, 5.8669108669108665, -2.0354090354090353, -4.819291819291819, 0.4375, -0.375, 0.71875, 1.0
666, 5.6752136752136755, -1.7387057387057387, -4.941391941391942, 0.21875, 0.03125, 0.46875, 1.0
667, 5.722832722832723, -1.448107448107448, -3.938949938949939, 0.0, 0.28125, 0.125, 1.0
668, 5.065934065934066, -1.1172161172161172, -3.0952380952380953, -0.21875, 0.34375, -0.15625, 1.0
669, 4.0085470085470085, -0.9010989010989011, -2.437118437118437, -0.46875, 0.25, -0.4375, 1.0
670, 2.526251526251526, -0.9487179487179487, -1.978021978021978, -0.8125, 0.25, -0.5, 0.0
671, 0.978021978021978, -0.5763125763125763, -1.5091575091575091, -1.1875, 0.40625, -0.375, 0.0
672, 0.2844932844932845, 0.3333333333333333, -0.028083028083028084, -1.0625, 0.71875, -0.28125, 0.0
673, 0.6214896214896215, -0.25518925518925517, 0.5152625152625152, -0.625, 0.78125, -0.34375, 0.0
674, 0.6593406593406593, -1.2417582417582418, 0.2905982905982906, -0.28125, 0.78125, -0.5, 0.0
675, 0.7081807081807082, -1.7655677655677655, 0.199023199023199, -0.15625, 0.78125, -0.6875, 0.0
676, 0.8461538461538461, -2.3333333333333335, 0.09768009768009768, -0.15625, 0.84375, -0.84375, 0.0
677, 1.3711843711843712, -2.484737484737485, 0.41147741147741146, -0.15625, 0.90625, -1.0625, 0.0
678, 1.7533577533577533, -2.916971916971917, 0.32967032967032966, -0.09375, 0.84375, -1.28125, 0.0
679, 1.7533577533577533, -3.3064713064713063, 0.28083028083028083, -0.15625, 0.75, -1.59375, 0.0
680, 1.1147741147741148, -3.5714285714285716, 0.2844932844932845, -0.21875, 0.6875, -1.96875, 0.0
681, 0.9914529914529915, -3.4725274725274726, 0.315018315018315, -0.28125, 0.6875, -2.25, 0.0
682, 0.7851037851037851, -3.5665445665445668, 0.2503052503052503, -0.3125, 0.65625, -2.4375, 0.0
683, 0.7863247863247863, -3.7875457875457874, 0.05860805860805861, -0.34375, 0.5, -2.84375, 0.0
684, -0.06227106227106227, -3.982905982905983, 0.10134310134310134, -0.40625, 0.5625, -3.09375, 0.0
685, -0.4554334554334554, -3.8742368742368742, 0.3028083028083028, -0.34375, 0.78125, -3.375, 0.0
686, -0.568986568986569, -3.5555555555555554, 0.5433455433455433, -0.15625, 0.84375, -3.625, 0.0
687, 0.008547008547008548, -3.242979242979243, 0.5042735042735043, -0.0625, 0.375, -3.75, 0.0
688, -1.061050061050061, -3.4945054945054945, 0.017094017094017096, -0.15625, 0.03125, -3.9375, 0.0
689, -2.634920634920635, -3.5946275946275947, -0.13675213675213677, -0.3125, 0.28125, -3.96875, 0.0
690, -3.1184371184371185, -2.374847374847375, 0.48595848595848595, -0.0625, 0.8125, -3.96875, 0.0
691, -2.675213675213675, -2.0586080586080584, 0.8754578754578755, 0.34375, 1.09375, -3.6875, 0.0
692, -2.5177045177045176, -2.312576312576313, 0.5714285714285714, 0.53125, 1.09375, -3.375, 0.0
693, -2.41025641025641, -2.0671550671550674, -0.1330891330891331, 0.5, 0.8125, -3.375, 0.0
694, -2.6385836385836385, -2.1257631257631258, -0.6544566544566545, 0.375, 0.625, -3.4375, 0.0
695, -4.235653235653236, -1.2527472527472527, -0.20024420024420025, 0.40625, 1.0625, -3.28125, 0.0
696, -3.3003663003663, -1.2515262515262515, -0.18192918192918192, 0.71875, 1.40625, -2.9375, 0.0
697, -3.15995115995116, -1.347985347985348, -0.4896214896214896, 0.90625, 1.3125, -2.5625, 0.0
698, -3.15995115995116, -1.7851037851037852, -0.9304029304029304, 0.875, 1.1875, -2.5625, 0.0
699, -3.029304029304029, -1.5445665445665446, -0.8290598290598291, 0.71875, 1.21875, -2.625, 0.0
700, -2.213675213675214, -0.8376068376068376, -1.1733821733821734, 0.78125, 1.28125, -2.6875, 0.0
701, -1.9951159951159951, -1.2332112332112333, -2.437118437118437, 1.03125, 1.03125, -3.03125, 0.0
702, -3.3284493284493286, -1.7472527472527473, -3.214896214896215, 0.5625, 0.1875, -3.15625, 0.0
703, -5.634920634920635, 0.11843711843711843, -2.5409035409035408, -0.15625, -0.0625, -3.0, 0.0
704, -6.3870573870573875, 1.3956043956043955, -1.667887667887668, -0.15625, 0.40625, -2.5625, 0.0
705, -5.903540903540904, 1.3992673992673992, -0.9035409035409036, 0.125, 1.0, -1.9375, 0.0
706, -4.443223443223443, 1.089133089133089, -0.5421245421245421, 0.375, 1.375, -1.1875, 0.0
707, -3.2112332112332114, 0.6166056166056166, -0.514041514041514, 0.28125, 0.875, -0.875, 0.0
708, -2.8485958485958487, 0.7814407814407814, -0.46642246642246643, 0.25, 0.53125, -0.90625, 0.0
709, -2.4065934065934065, 0.8437118437118437, -0.31746031746031744, 0.21875, 0.21875, -1.0, 0.0
710, -2.354090354090354, 0.7912087912087912, -0.2686202686202686, 0.1875, 0.0, -1.0, 0.0
711, -3.0195360195360195, 0.8034188034188035, -0.29914529914529914, 0.15625, 0.0, -0.9375, 0.0
712, -2.8205128205128207, 1.568986568986569, 0.14285714285714285, 0.25, 0.03125, -0.625, 0.0
713, -2.5213675213675213, 1.7667887667887667, -0.03785103785103785, 0.40625, 0.125, -0.34375, 0.0
714, -1.656898656898657, 1.5323565323565325, -0.16727716727716727, 0.53125, 0.15625, -0.25, 0.0
715, -1.1611721611721613, 1.4713064713064714, -0.7374847374847375, 0.59375, 0.09375, -0.34375, 0.0
716, -1.0683760683760684, 2.0915750915750917, -0.8901098901098901, 0.75, 0.03125, -0.4375, 1.0
717, -1.1086691086691087, 2.844932844932845, -0.9157509157509157, 1.09375, 0.0, -0.375, 1.0
718, -2.208791208791209, 2.8986568986568986, -1.623931623931624, 1.4375, 0.09375, -0.3125, 1.0
719, -4.213675213675214, 3.004884004884005, -2.437118437118437, 1.1875, 0.21875, 0.15625, 1.0
720, -5.108669108669108, 3.0207570207570207, -3.202686202686203, 0.9375, 0.375, 0.71875, 1.0
721, -6.496947496947497, 2.5213675213675213, -3.9694749694749696, 0.71875, 0.3125, 1.125, 1.0
722, -8.84981684981685, 0.32234432234432236, -5.08058608058608, 0.25, 0.15625, 1.53125, 1.0
723, -10.057387057387057, -0.017094017094017096, -4.349206349206349, -0.78125, 0.3125, 2.03125, 1.0
724, -9.02930402930403, 0.6202686202686203, -2.935286935286935, -1.46875, 0.3125, 2.6875, 1.0
725, -7.4774114774114775, -0.8888888888888888, -2.445665445665446, -1.5, -0.0625, 3.15625, 1.0
726, -6.660561660561661, -2.0073260073260073, -2.7765567765567765, -1.5625, -0.5625, 3.5625, 1.0
727, -5.547008547008547, -3.5409035409035408, -3.2625152625152625, -1.59375, -0.875, 3.90625, 1.0
728, -4.437118437118437, -4.87057387057387, -3.404151404151404, -1.84375, -1.15625, 4.0, 1.0
729, -3.7142857142857144, -5.034188034188034, -2.9023199023199022, -2.21875, -1.375, 3.96875, 1.0
730, -3.6275946275946276, -5.615384615384615, -2.1025641025641026, -2.03125, -1.53125, 4.15625, 1.0
731, -2.894993894993895, -6.205128205128205, -1.7167277167277166, -1.5625, -1.5625, 4.40625, 1.0
732, -2.5518925518925517, -6.7094017094017095, -1.0244200244200243, -1.09375, -1.5625, 4.75, 1.0
733, -2.3003663003663, -8.476190476190476, -0.8241758241758241, -0.71875, -1.3125, 4.875, 1.0
734, -1.5067155067155067, -10.584859584859585, -1.1452991452991452, -0.875, -0.78125, 4.625, 1.0
735, -0.3235653235653236, -10.091575091575091, -0.6862026862026862, -0.96875, -0.59375, 4.25, 1.0
736, 0.2661782661782662, -8.703296703296703, 0.3516483516483517, -0.78125, -0.71875, 3.9375, 1.0
737, 0.03296703296703297, -7.892551892551893, 0.7704517704517705, -0.53125, -0.90625, 3.75, 1.0
738, -0.7350427350427351, -7.336996336996337, 1.4065934065934067, -0.25, -0.875, 3.65625, 1.0
739, -0.6703296703296703, -7.2344322344322345, 1.4346764346764347, -0.03125, -0.5625, 3.4375, 1.0
740, -0.6642246642246642, -7.117216117216117, 1.0244200244200243, -0.09375, -0.34375, 3.28125, 1.0
741, -0.702075702075702, -6.076923076923077, 2.3663003663003663, 0.03125, -0.125, 3.125, 1.0
742, 2.6678876678876677, -4.979242979242979, 4.305250305250305, 0.53125, -0.4375, 2.78125, 1.0
743, 2.5128205128205128, -5.134310134310135, 2.283272283272283, 0.6875, -1.28125, 2.1875, 1.0
744, 0.6813186813186813, -3.8803418803418803, 0.22344322344322345, 0.4375, -1.75, 1.65625, 1.0
745, -0.31013431013431014, -2.0366300366300365, -0.49206349206349204, 0.34375, -1.71875, 1.53125, 1.0
746, -0.24053724053724054, -1.3516483516483517, -0.6568986568986569, 0.5625, -1.4375, 1.625, 1.0
747, 0.8205128205128205, -1.1391941391941391, -0.5323565323565324, 0.75, -1.09375, 1.75, 1.0
748, 1.7008547008547008, -1.387057387057387, -0.4236874236874237, 0.78125, -0.84375, 1.8125, 1.0
749, 2.8705738705738706, -1.293040293040293, -1.0586080586080586, 0.8125, -0.625, 1.875, 1.0
750, 4.394383394383395, -1.2283272283272284, -2.3162393162393164, 0.84375, -0.5, 1.8125, 1.0
751, 5.3760683760683765, -1.3992673992673992, -3.3614163614163615, 0.84375, -0.34375, 1.625, 1.0
752, 6.096459096459096, -1.783882783882784, -3.695970695970696, 0.65625, 0.0625, 1.28125, 1.0
753, 7.146520146520147, -1.691086691086691, -3.32967032967033, 0.15625, 0.34375, 0.5625, 1.0
754, 7.202686202686203, -1.586080586080586, -2.8253968253968256, -0.21875, 0.03125, 0.0, 1.0
755, 5.7936507936507935, -1.137973137973138, -2.490842490842491, -0.625, -0.0625, -0.375, 1.0
756, 3.8205128205128207, -0.8608058608058609, -2.336996336996337, -1.0, 0.0625, -0.53125, 0.0
757, 2.3553113553113554, -0.07936507936507936, -1.844932844932845, -1.15625, 0.28125, -0.5625, 0.0
758, 1.083028083028083, 0.6214896214896215, -1.2942612942612943, -0.96875, 0.46875, -0.59375, 0.0
759, 1.2380952380952381, 0.409035409035409, -0.41025641025641024, -0.78125, 0.53125, -0.625, 0.0
760, 1.0085470085470085, -0.2600732600732601, -0.3333333333333333, -0.4375, 0.59375, -0.71875, 0.0
761, 0.9340659340659341, -1.144078144078144, -0.16727716727716727, -0.1875, 0.6875, -0.875, 0.0
762, 1.065934065934066, -1.9181929181929183, -0.2490842490842491, -0.1875, 0.71875, -1.125, 0.0
763, 1.2881562881562882, -2.3943833943833943, -0.030525030525030524, -0.3125, 0.6875, -1.34375, 0.0
764, 1.678876678876679, -2.606837606837607, 0.1514041514041514, -0.375, 0.625, -1.6875, 0.0
765, 1.0854700854700854, -3.5335775335775335, 0.4444444444444444, -0.4375, 0.46875, -2.21875, 0.0
766, 0.7887667887667887, -3.815628815628816, 0.6007326007326007, -0.46875, 0.53125, -2.59375, 0.0
767, 0.5934065934065934, -3.724053724053724, 0.5982905982905983, -0.53125, 0.46875, -2.8125, 0.0
768, 0.25274725274725274, -3.7020757020757022, 0.33577533577533575, -0.5625, 0.28125, -3.09375, 0.0
769, -0.6398046398046398, -3.772893772893773, 0.28205128205128205, -0.65625, 0.09375, -3.375, 0.0
770, -1.4493284493284493, -3.501831501831502, 0.6068376068376068, -0.71875, 0.1875, -3.46875, 0.0
771, -1.5934065934065933, -3.0805860805860807, 0.8253968253968254, -0.59375, 0.53125, -3.40625, 0.0
772, -1.0818070818070817, -2.6996336996337, 0.9511599511599511, -0.28125, 0.78125, -3.34375, 0.0
773, -1.9133089133089134, -2.6202686202686203, 0.6654456654456654, 0.0, 0.84375, -3.25, 0.0
774, -2.387057387057387, -2.7142857142857144, 0.47985347985347987, 0.21875, 1.15625, -3.0625, 0.0
775, -2.791208791208791, -2.778998778998779, 0.4700854700854701, 0.46875, 1.625, -2.8125, 0.0
776, -1.7887667887667889, -2.114774114774115, 0.48717948717948717, 1.03125, 2.21875, -2.625, 0.0
777, -1.1074481074481075, -2.2954822954822953, 0.27228327228327226, 1.25, 1.9375, -2.75, 0.0
778, -0.7423687423687424, -3.1636141636141635, -0.2869352869352869, 1.03125, 1.46875, -2.84375, 0.0
779, -1.7496947496947497, -2.5396825396825395, -0.2796092796092796, 0.8125, 1.15625, -3.0, 0.0
780, -2.0, -1.750915750915751, -0.10012210012210013, 0.9375, 1.0625, -3.15625, 0.0
781, -2.9316239316239314, -1.7545787545787546, -0.23687423687423687, 1.09375, 1.125, -3.25, 0.0
782, -3.1196581196581197, -1.84004884004884, -0.4456654456654457, 1.09375, 1.15625, -3.21875, 0.0
783, -3.2332112332112333, -1.6178266178266179, -0.31868131868131866, 0.875, 0.84375, -3.0, 0.0
784, -3.3150183150183152, -1.3797313797313797, -0.04884004884004884, 0.8125, 0.71875, -3.09375, 0.0
785, -2.7936507936507935, -0.5873015873015873, 0.14041514041514042, 1.0, 0.46875, -3.1875, 0.0
786, -4.089133089133089, 0.12698412698412698, -0.7423687423687424, 1.21875, 0.375, -3.21875, 0.0
787, -5.035409035409035, 0.41514041514041516, -1.9511599511599511, 1.15625, 0.4375, -2.90625, 0.0
788, -4.853479853479853, 0.48595848595848595, -2.4896214896214897, 0.65625, 0.75, -2.0625, 0.0
789, -2.3797313797313797, 0.7142857142857143, -1.7496947496947497, 0.46875, 0.625, -2.09375, 0.0
790, -2.617826617826618, 1.0146520146520146, -1.6312576312576312, 0.25, 0.03125, -2.28125, 0.0
791, -3.5995115995115996, 2.017094017094017, -1.8302808302808302, 0.15625, -0.0625, -2.34375, 0.0
792, -4.212454212454213, 1.673992673992674, -2.244200244200244, 0.1875, 0.15625, -1.9375, 0.0
793, -4.173382173382174, 2.1746031746031744, -2.0891330891330893, 0.0, 0.40625, -1.3125, 0.0
794, -3.326007326007326, 2.0085470085470085, -1.452991452991453, 0.0, 0.6875, -1.03125, 0.0
795, -2.7252747252747254, 2.197802197802198, -0.851037851037851, 0.0, 0.5625, -0.9375, 0.0
796, -3.1306471306471306, 2.244200244200244, -0.5982905982905983, 0.03125, 0.375, -0.84375, 0.0
797, -3.7094017094017095, 2.402930402930403, -0.7387057387057387, 0.15625, 0.1875, -0.71875, 0.0
798, -4.8107448107448105, 2.6275946275946276, -0.7264957264957265, 0.40625, 0.0625, -0.59375, 1.0
799, -5.377289377289378, 3.647130647130647, -0.33455433455433453, 0.875, 0.0625, -0.15625, 1.0
800, -5.588522588522588, 3.3443223443223444, -0.5567765567765568, 1.5, 0.1875, 0.34375, 1.0
801, -5.112332112332112, 4.101343101343101, 0.1575091575091575, 1.96875, -0.0625, 0.9375, 1.0
802, -5.920634920634921, 4.506715506715507, 0.6654456654456654, 2.46875, -0.5, 1.75, 1.0
803, -7.814407814407814, 1.7374847374847375, -2.266178266178266, 2.625, -0.46875, 2.375, 1.0
804, -9.952380952380953, -3.161172161172161, -6.158730158730159, 1.0625, 0.875, 2.375, 1.0
805, -7.484737484737485, -2.857142857142857, -5.108669108669108, -0.78125, 1.59375, 2.625, 1.0
806, -4.527472527472527, 0.4371184371184371, -2.8534798534798536, -1.28125, 0.9375, 2.8125, 1.0
807, -3.7716727716727716, 0.5372405372405372, -2.376068376068376, -1.25, -0.09375, 2.78125, 1.0
808, -4.660561660561661, -0.7142857142857143, -3.462759462759463, -1.4375, -0.65625, 2.90625, 1.0
809, -5.4041514041514045, -2.5335775335775335, -4.8498168498168495, -1.96875, -0.625, 3.15625, 1.0
810, -5.485958485958486, -2.960927960927961, -4.6361416361416365, -2.34375, -0.40625, 3.53125, 1.0
811, -4.931623931623932, -3.473748473748474, -3.7387057387057387, -2.34375, -0.25, 4.0, 1.0
812, -2.3772893772893773, -5.564102564102564, -2.3797313797313797, -2.28125, -0.40625, 4.125, 1.0
813, -2.103785103785104, -6.371184371184371, -1.6495726495726495, -2.25, -0.625, 4.1875, 1.0
814, -2.299145299145299, -6.566544566544566, -0.5970695970695971, -2.0, -0.6875, 4.25, 1.0
815, -2.1855921855921854, -6.568986568986569, 0.5921855921855922, -1.40625, -0.65625, 4.34375, 1.0
816, -1.800976800976801, -8.142857142857142, 0.7765567765567766, -0.71875, -0.6875, 4.4375, 1.0
817, -1.3443223443223444, -9.164835164835164, 0.6862026862026862, -0.6875, -0.46875, 4.15625, 1.0
818, -0.5262515262515263, -8.26862026862027, 1.2954822954822955, -0.96875, -0.40625, 3.8125, 1.0
819, -0.10989010989010989, -7.263736263736264, 2.139194139194139, -1.09375, -0.59375, 3.46875, 1.0
820, -0.07448107448107448, -6.2234432234432235, 2.948717948717949, -0.9375, -0.84375, 3.21875, 1.0
821, -0.3247863247863248, -5.656898656898657, 3.6556776556776556, -0.59375, -1.0625, 3.0625, 1.0
822, -0.32112332112332115, -5.633699633699634, 4.0, -0.25, -1.09375, 3.03125, 1.0
823, 0.18925518925518925, -6.045177045177045, 3.7216117216117217, 0.03125, -1.03125, 2.9375, 1.0
824, 0.7521367521367521, -5.736263736263736, 3.557997557997558, 0.09375, -1.0625, 2.71875, 1.0
825, 1.2625152625152625, -5.003663003663004, 3.4358974358974357, 0.25, -1.28125, 2.5, 1.0
826, 1.722832722832723, -4.440781440781441, 3.2454212454212454, 0.40625, -1.5625, 2.25, 1.0
827, 2.3846153846153846, -4.065934065934066, 2.873015873015873, 0.65625, -1.84375, 2.03125, 1.0
828, 3.1538461538461537, -3.912087912087912, 1.1343101343101343, 0.8125, -1.84375, 1.8125, 1.0
829, 4.282051282051282, -3.4358974358974357, -1.4407814407814408, 0.75, -1.78125, 1.4375, 1.0
830, 4.481074481074481, -2.2527472527472527, -3.6214896214896215, 0.59375, -1.65625, 1.125, 1.0
831, 4.065934065934066, -1.0341880341880343, -4.413919413919414, 0.4375, -1.1875, 1.03125, 1.0
832, 4.069597069597069, -0.23809523809523808, -4.266178266178266, 0.40625, -0.4375, 1.03125, 1.0
833, 4.677655677655678, -0.1978021978021978, -3.821733821733822, 0.34375, 0.0, 0.96875, 1.0
834, 5.31013431013431, -0.015873015873015872, -3.547008547008547, 0.1875, 0.15625, 0.65625, 1.0
835, 5.0647130647130645, -0.007326007326007326, -3.249084249084249, 0.0, 0.28125, 0.4375, 1.0
836, 4.660561660561661, 0.009768009768009768, -2.4664224664224665, -0.0625, 0.4375, 0.15625, 1.0
837, 4.024420024420024, -0.25396825396825395, -1.684981684981685, -0.1875, 0.5, -0.09375, 1.0
838, 3.4065934065934065, -0.37484737484737485, -1.0708180708180708, -0.3125, 0.4375, -0.34375, 1.0
839, 2.5518925518925517, -0.6349206349206349, -0.757020757020757, -0.4375, 0.3125, -0.53125, 1.0
840, 1.6532356532356531, -0.9926739926739927, -0.32112332112332115, -0.6875, 0.3125, -0.59375, 0.0
841, 1.037851037851038, -0.8547008547008547, 0.006105006105006105, -0.90625, 0.53125, -0.5625, 0.0
842, 1.5457875457875458, -1.3443223443223444, 0.3321123321123321, -0.75, 0.8125, -0.65625, 0.0
843, 1.1636141636141637, -1.2173382173382172, 0.38095238095238093, -0.5625, 0.875, -0.8125, 0.0
844, 1.1684981684981686, -1.728937728937729, 0.2954822954822955, -0.3125, 0.78125, -1.0625, 0.0
845, 1.0488400488400489, -2.1135531135531136, 0.13186813186813187, -0.21875, 0.6875, -1.375, 0.0
846, 0.8302808302808303, -2.7301587301587302, 0.22832722832722832, -0.28125, 0.71875, -1.75, 0.0
847, 1.089133089133089, -2.6483516483516483, 0.5531135531135531, -0.28125, 0.78125, -2.0, 0.0
848, 1.078144078144078, -2.9401709401709404, 0.6275946275946276, -0.25, 0.8125, -2.34375, 0.0
849, 0.8876678876678876, -3.5457875457875456, 0.6398046398046398, -0.25, 0.78125, -2.78125, 0.0
850, 0.49694749694749696, -3.7887667887667886, 0.8302808302808303, -0.28125, 0.8125, -3.25, 0.0
851, 0.4590964590964591, -3.562881562881563, 1.0146520146520146, -0.28125, 0.5625, -3.40625, 0.0
852, 0.4468864468864469, -3.4017094017094016, 0.7643467643467643, -0.3125, 0.1875, -3.5625, 0.0
853, 0.020757020757020756, -3.844932844932845, 0.5018315018315018, -0.46875, -0.03125, -3.84375, 0.0
854, -1.0927960927960927, -3.9914529914529915, 0.47619047619047616, -0.59375, 0.125, -4.15625, 0.0
855, -2.103785103785104, -3.8315018315018317, 0.6385836385836385, -0.53125, 0.8125, -4.40625, 0.0
856, -1.3882783882783882, -2.916971916971917, 0.2442002442002442, -0.28125, 0.9375, -4.34375, 0.0
857, -2.0036630036630036, -2.987789987789988, 0.199023199023199, -0.40625, 0.5625, -3.875, 0.0
858, -3.4664224664224665, -2.2344322344322345, 0.5628815628815629, -0.28125, 1.25, -3.59375, 0.0
859, -2.647130647130647, -1.1794871794871795, 0.44932844932844934, 0.21875, 1.71875, -3.5625, 0.0
860, -2.0720390720390722, -2.064713064713065, -0.5982905982905983, 0.71875, 1.5625, -3.625, 0.0
861, -3.4554334554334556, -2.496947496947497, -0.7557997557997558, 0.40625, 0.875, -3.3125, 0.0
862, -4.836385836385836, -1.3626373626373627, -0.2600732600732601, 0.0625, 1.03125, -2.96875, 0.0
863, -3.9621489621489623, -0.5775335775335775, 0.6349206349206349, 0.34375, 1.65625, -2.59375, 0.0
864, -3.0549450549450547, -1.1172161172161172, 0.7423687423687424, 0.90625, 2.0625, -2.3125, 0.0
865, -1.8705738705738706, -1.8021978021978022, 0.031746031746031744, 1.21875, 2.03125, -2.375, 0.0
866, -2.1953601953601956, -2.1343101343101343, -0.6105006105006106, 1.125, 1.34375, -2.5625, 0.0
867, -3.3626373626373627, -1.8107448107448108, -0.8693528693528694, 0.84375, 0.875, -2.8125, 0.0
868, -3.9682539682539684, -1.0805860805860805, -0.9438339438339438, 0.71875, 0.78125, -2.90625, 0.0
869, -4.31990231990232, -1.0769230769230769, -1.017094017094017, 0.875, 0.9375, -2.6875, 0.0
870, -4.174603174603175, -0.6886446886446886, -1.0732600732600732, 0.96875, 0.96875, -2.46875, 0.0
871, -4.026862026862027, -0.2686202686202686, -1.6202686202686203, 0.96875, 0.875, -2.25, 0.0
872, -3.9450549450549453, 0.001221001221001221, -2.2954822954822953, 0.8125, 0.5625, -2.15625, 0.0
873, -4.503052503052503, 0.6984126984126984, -2.6324786324786325, 0.625, 0.28125, -2.0, 0.0
874, -5.426129426129426, 1.4505494505494505, -2.52014652014652, 0.46875, 0.25, -1.71875, 0.0
875, -6.17948717948718, 1.9206349206349207, -2.5054945054945055, 0.375, 0.40625, -1.21875, 0.0
876, -5.945054945054945, 2.573870573870574, -2.0488400488400487, 0.3125, 0.53125, -0.625, 0.0
877, -5.263736263736264, 2.664224664224664, -2.15018315018315, 0.3125, 0.625, -0.15625, 0.0
878, -4.054945054945055, 2.7435897435897436, -1.7643467643467643, 0.34375, 0.53125, 0.03125, 0.0
879, -3.3272283272283274, 2.600732600732601, -1.6862026862026862, 0.40625, 0.34375, 0.125, 1.0
880, -2.7765567765567765, 2.6312576312576312, -1.485958485958486, 0.5, 0.125, 0.125, 1.0
881, -2.526251526251526, 2.012210012210012, -1.6214896214896215, 0.40625, -0.125, 0.0625, 1.0
882, -3.1074481074481075, 1.5726495726495726, -1.982905982905983, 0.25, -0.28125, 0.1875, 1.0
883, -3.705738705738706, 1.9267399267399268, -2.236874236874237, -0.0625, -0.1875, 0.4375, 1.0
884, -4.15995115995116, 2.061050061050061, -2.6666666666666665, -0.25, -0.03125, 0.71875, 1.0
885, -5.31013431013431, 1.3516483516483517, -2.9755799755799757, -0.46875, -0.03125, 1.03125, 1.0
886, -6.362637362637362, 1.6153846153846154, -2.6715506715506714, -0.75, -0.03125, 1.5, 1.0
887, -6.266178266178266, 1.465201465201465, -2.340659340659341, -0.9375, -0.0625, 2.03125, 1.0
888, -5.814407814407814, 0.6446886446886447, -2.0586080586080584, -1.0, -0.375, 2.375, 1.0
889, -6.3076923076923075, 0.06593406593406594, -1.8888888888888888, -1.09375, -0.9375, 2.65625, 1.0
890, -7.929181929181929, -2.31013431013431, -3.2686202686202686, -1.21875, -1.1875, 3.125, 1.0
891, -6.527472527472527, -2.993894993894994, -2.8937728937728937, -1.6875, -0.8125, 3.4375, 1.0
892, -4.82051282051282, -2.8913308913308913, -1.7521367521367521, -1.9375, -0.96875, 3.625, 1.0
893, -4.247863247863248, -3.3394383394383396, -1.5506715506715507, -1.65625, -1.6875, 3.78125, 1.0
894, -4.045177045177045, -3.860805860805861, -1.5372405372405373, -1.3125, -1.875, 4.0625, 1.0
895, -4.433455433455434, -6.875457875457876, -3.0354090354090353, -1.4375, -1.4375, 4.15625, 1.0
896, -2.5750915750915753, -6.905982905982906, -2.6996336996337, -1.625, -1.125, 4.15625, 1.0
897, -0.9584859584859585, -6.374847374847374, -1.5482295482295483, -1.40625, -1.25, 4.09375, 1.0
898, -0.5299145299145299, -6.285714285714286, -1.1428571428571428, -1.0625, -1.46875, 3.96875, 1.0
899, -0.6581196581196581, -6.275946275946276, -0.8229548229548229, -0.71875, -1.59375, 4.0, 1.0
900, -1.1355311355311355, -5.788766788766789, -0.0463980463980464, -0.25, -1.65625, 4.09375, 1.0
901, -1.4639804639804639, -6.925518925518926, -0.05372405372405373, 0.0, -1.28125, 4.03125, 1.0
902, -0.39194139194139194, -7.476190476190476, -0.35775335775335776, -0.03125, -0.96875, 3.6875, 1.0
903, 0.5152625152625152, -6.802197802197802, 0.11965811965811966, -0.0625, -1.0, 3.375, 1.0
904, 0.49694749694749696, -5.958485958485959, 0.9206349206349206, 0.15625, -1.15625, 3.0625, 1.0
905, -0.3601953601953602, -4.802197802197802, 2.5335775335775335, 0.5, -1.125, 3.0625, 1.0
906, -0.6239316239316239, -6.031746031746032, 1.5824175824175823, 0.71875, -1.03125, 2.9375, 1.0
907, 0.7252747252747253, -5.230769230769231, 1.534798534798535, 0.46875, -0.8125, 2.625, 1.0
908, 1.6605616605616607, -4.230769230769231, 1.5445665445665446, 0.4375, -0.9375, 2.34375, 1.0
909, 1.8571428571428572, -3.7643467643467643, 1.398046398046398, 0.5, -1.1875, 2.125, 1.0
910, 2.0732600732600734, -2.744810744810745, 1.4505494505494505, 0.5625, -1.46875, 1.90625, 1.0
911, 2.092796092796093, -2.4444444444444446, 0.9157509157509157, 0.75, -1.625, 1.75, 1.0
912, 2.2161172161172162, -2.05006105006105, -0.3028083028083028, 0.84375, -1.5, 1.53125, 1.0
913, 2.432234432234432, -1.3772893772893773, -1.192918192918193, 0.84375, -1.25, 1.46875, 1.0
914, 3.0598290598290596, -1.2148962148962148, -1.7277167277167278, 0.8125, -1.0, 1.46875, 1.0
915, 4.244200244200244, -0.9120879120879121, -2.06959706959707, 0.6875, -0.75, 1.34375, 1.0
916, 5.634920634920635, -0.41514041514041516, -2.5115995115995116, 0.6875, -0.53125, 1.0625, 1.0
917, 5.970695970695971, -0.8803418803418803, -3.1452991452991452, 0.53125, -0.375, 0.65625, 1.0
918, 5.531135531135531, -0.7619047619047619, -3.5604395604395602, 0.28125, -0.125, 0.3125, 1.0
919, 4.417582417582418, -0.20146520146520147, -3.128205128205128, 0.09375, 0.21875, 0.09375, 1.0
920, 4.083028083028083, 0.03296703296703297, -2.2808302808302807, 0.0, 0.4375, -0.0625, 1.0
921, 3.659340659340659, -0.12942612942612944, -1.5763125763125763, -0.125, 0.5, -0.25, 1.0
922, 3.1697191697191696, -0.3137973137973138, -1.098901098901099, -0.28125, 0.4375, -0.40625, 1.0
923, 2.3968253968253967, -0.757020757020757, -0.6398046398046398, -0.53125, 0.5, -0.53125, 0.0
924, 1.5738705738705738, -0.8412698412698413, -0.43956043956043955, -0.78125, 0.625, -0.5, 0.0
925, 1.1245421245421245, -0.4126984126984127, -0.22954822954822954, -0.65625, 0.78125, -0.5625, 0.0
926, 1.641025641025641, -0.9853479853479854, 0.10989010989010989, -0.4375, 0.875, -0.6875, 0.0
927, 1.4700854700854702, -1.15995115995116, 0.14774114774114774, -0.09375, 0.84375, -1.0625, 0.0
928, 1.2222222222222223, -2.3553113553113554, -0.3064713064713065, -0.09375, 0.78125, -1.375, 0.0
929, 0.9938949938949939, -2.536019536019536, -0.0757020757020757, -0.25, 0.78125, -1.65625, 0.0
930, 0.7118437118437119, -3.15018315018315, 0.1623931623931624, -0.34375, 0.75, -1.875, 0.0
931, 0.7838827838827839, -3.2246642246642248, 0.673992673992674, -0.40625, 0.84375, -2.1875, 0.0
932, 0.5470085470085471, -3.1233211233211233, 0.811965811965812, -0.3125, 0.8125, -2.625, 0.0
933, 0.18925518925518925, -3.431013431013431, 0.6495726495726496, -0.25, 0.65625, -3.03125, 0.0
934, -0.9218559218559218, -3.9755799755799757, 0.39316239316239315, -0.40625, 0.46875, -3.25, 0.0
935, -1.078144078144078, -3.5335775335775335, 0.7533577533577533, -0.5625, 0.625, -3.46875, 0.0
936, -1.15995115995116, -3.184371184371184, 0.9926739926739927, -0.46875, 0.6875, -3.53125, 0.0
937, -1.0952380952380953, -2.8119658119658117, 0.9438339438339438, -0.21875, 0.75, -3.6875, 0.0
938, -1.098901098901099, -3.286935286935287, 0.4358974358974359, -0.0625, 0.46875, -3.75, 0.0
939, -2.087912087912088, -3.1855921855921854, 0.21245421245421245, -0.375, -0.0625, -3.8125, 0.0
940, -2.984126984126984, -2.675213675213675, 0.49206349206349204, -0.40625, 0.125, -3.84375, 0.0
941, -3.3907203907203907, -1.9474969474969475, 0.6068376068376068, -0.0625, 0.5625, -3.65625, 0.0
942, -3.4346764346764345, -1.6422466422466422, 0.5787545787545788, 0.375, 1.03125, -3.53125, 0.0
943, -3.299145299145299, -2.772893772893773, 0.3724053724053724, 0.4375, 1.09375, -3.0625, 0.0
944, -3.26007326007326, -2.0744810744810747, 0.48473748473748474, 0.5, 1.25, -2.875, 0.0
945, -2.4126984126984126, -1.6715506715506716, 0.36507936507936506, 0.75, 1.15625, -3.09375, 0.0
946, -2.183150183150183, -2.1074481074481075, 0.0, 0.8125, 0.90625, -3.3125, 0.0
947, -3.1343101343101343, -1.9804639804639805, 0.21611721611721613, 0.9375, 1.125, -3.65625, 0.0
948, -2.673992673992674, -1.6666666666666667, 0.41025641025641024, 1.25, 1.3125, -3.71875, 0.0
949, -2.4053724053724053, -1.8681318681318682, -0.5152625152625152, 1.3125, 0.84375, -3.59375, 0.0
950, -2.9108669108669107, -2.8632478632478633, -1.557997557997558, 0.78125, 0.09375, -3.40625, 0.0
951, -5.554334554334554, -0.7045177045177046, -0.9145299145299145, 0.34375, 0.34375, -3.3125, 0.0
952, -5.450549450549451, 0.06227106227106227, -0.3772893772893773, 0.625, 0.78125, -3.03125, 0.0
953, -4.6129426129426125, -0.3137973137973138, -0.8656898656898657, 1.0625, 1.1875, -2.78125, 0.0
954, -4.511599511599512, -0.9462759462759462, -1.3516483516483517, 0.84375, 0.625, -2.125, 0.0
955, -5.805860805860806, 0.21611721611721613, -1.945054945054945, 0.40625, 0.3125, -1.75, 0.0
956, -5.732600732600733, 1.2686202686202686, -1.6495726495726495, 0.21875, 0.40625, -1.53125, 0.0
957, -5.543345543345543, 1.8156288156288156, -1.47985347985348, 0.25, 0.5, -1.15625, 0.0
958, -4.956043956043956, 2.0354090354090353, -1.2002442002442002, 0.25, 0.53125, -0.75, 0.0
959, -4.6007326007326, 1.8852258852258852, -1.236874236874237, 0.25, 0.5, -0.34375, 0.0
960, -4.0818070818070815, 1.7032967032967032, -1.3199023199023199, 0.1875, 0.59375, -0.125, 0.0
961, -3.064713064713065, 2.0488400488400487, -1.2173382173382172, 0.15625, 0.65625, 0.0, 0.0
962, -2.2051282051282053, 1.8803418803418803, -1.2148962148962148, 0.09375, 0.40625, 0.09375, 0.0
963, -1.9304029304029304, 1.746031746031746, -1.2356532356532357, 0.0625, 0.09375, 0.0, 0.0
964, -2.73992673992674, 1.8144078144078144, -1.6654456654456655, 0.09375, -0.03125, -0.15625, 0.0
965, -3.537240537240537, 2.1013431013431014, -1.7301587301587302, 0.125, 0.0, -0.0625, 0.0
966, -3.9157509157509156, 2.3601953601953602, -1.5067155067155067, 0.15625, 0.03125, 0.21875, 1.0
967, -4.235653235653236, 2.7301587301587302, -1.5946275946275947, 0.1875, 0.0625, 0.53125, 1.0
968, -5.653235653235654, 2.404151404151404, -2.341880341880342, 0.21875, 0.0, 0.8125, 1.0
969, -6.117216117216117, 1.6092796092796093, -2.687423687423687, -0.03125, -0.03125, 1.125, 1.0
970, -7.454212454212454, 2.5641025641025643, -2.514041514041514, -0.15625, 0.03125, 1.59375, 1.0
971, -7.8669108669108665, 1.6703296703296704, -2.6507936507936507, -0.40625, -0.09375, 2.0625, 1.0
972, -8.247863247863247, 0.6910866910866911, -2.8107448107448105, -0.875, -0.34375, 2.59375, 1.0
973, -8.192918192918192, -0.040293040293040296, -3.1257631257631258, -1.15625, -0.375, 3.09375, 1.0
974, -6.932844932844933, -0.6715506715506715, -2.6373626373626373, -1.3125, -0.65625, 3.59375, 1.0
975, -4.655677655677656, -2.7887667887667886, -2.995115995115995, -1.3125, -1.03125, 3.71875, 1.0
976, -4.555555555555555, -3.9462759462759465, -3.363858363858364, -1.4375, -1.40625, 3.78125, 1.0
977, -5.4664224664224665, -5.433455433455434, -3.7472527472527473, -1.65625, -1.375, 3.96875, 1.0
978, -4.641025641025641, -5.826617826617826, -2.8351648351648353, -1.78125, -0.9375, 4.25, 1.0
979, -3.131868131868132, -6.965811965811966, -1.7728937728937728, -1.65625, -0.6875, 4.53125, 1.0
980, -1.7960927960927962, -7.527472527472527, -0.4932844932844933, -1.34375, -0.6875, 4.65625, 1.0
981, -1.0256410256410255, -7.7936507936507935, 0.590964590964591, -0.875, -0.78125, 4.625, 1.0
982, -0.8901098901098901, -8.296703296703297, 1.006105006105006, -0.40625, -0.90625, 4.59375, 1.0
983, -0.9792429792429792, -9.31013431013431, 0.42857142857142855, -0.125, -0.8125, 4.375, 1.0
984, -0.34554334554334554, -9.177045177045176, 0.2844932844932845, -0.375, -0.5, 3.90625, 1.0
985, 0.9255189255189256, -7.496947496947497, 1.4212454212454213, -0.71875, -0.4375, 3.3125, 1.0
986, 0.9755799755799756, -6.024420024420024, 2.4822954822954824, -0.5625, -1.0625, 2.78125, 1.0
987, 0.23931623931623933, -5.26007326007326, 3.0073260073260073, -0.25, -1.1875, 2.5625, 1.0
988, 0.1916971916971917, -4.888888888888889, 3.0903540903540905, 0.0625, -1.25, 2.46875, 1.0
989, 0.22832722832722832, -5.183150183150183, 2.451770451770452, 0.15625, -1.125, 2.3125, 1.0
990, 1.0854700854700854, -4.456654456654457, 2.382173382173382, 0.125, -1.125, 2.125, 1.0
991, 1.8363858363858363, -3.583638583638584, 2.5604395604395602, 0.3125, -1.40625, 1.90625, 1.0
992, 2.043956043956044, -3.1245421245421245, 2.2075702075702077, 0.5, -1.625, 1.6875, 1.0
993, 1.8107448107448108, -2.496947496947497, 1.6153846153846154, 0.6875, -1.65625, 1.5625, 1.0
994, 1.7338217338217339, -1.8437118437118436, 0.7338217338217338, 0.78125, -1.5, 1.40625, 1.0
995, 1.6605616605616607, -1.5433455433455434, -0.13064713064713065, 0.8125, -1.375, 1.375, 1.0
996, 1.4432234432234432, -0.47619047619047616, -1.3247863247863247, 0.8125, -1.1875, 1.40625, 1.0
997, 1.0769230769230769, -0.31746031746031744, -1.6483516483516483, 0.8125, -0.5625, 1.5625, 1.0
998, 3.4505494505494507, -0.5995115995115995, -1.5811965811965811, 0.78125, -0.34375, 1.5, 1.0
999, 4.556776556776557, -0.6605616605616605, -2.0854700854700856, 0.71875, -0.28125, 1.21875, 1.0
1000, 4.547008547008547, -0.4065934065934066, -2.9157509157509156, 0.5625, -0.3125, 0.875, 1.0
1001, 3.9755799755799757, -0.43956043956043955, -3.0854700854700856, 0.375, -0.15625, 0.5625, 1.0
1002, 3.547008547008547, 0.01221001221001221, -2.700854700854701, 0.15625, 0.0, 0.34375, 1.0
1003, 2.9755799755799757, 0.3626373626373626, -1.9731379731379732, 0.03125, 0.21875, 0.15625, 1.0
1004, 2.4444444444444446, 0.45787545787545786, -1.3492063492063493, -0.03125, 0.375, 0.0, 1.0
1005, 1.9548229548229548, 0.23809523809523808, -0.7350427350427351, -0.125, 0.40625, -0.09375, 1.0
1006, 1.5018315018315018, 0.030525030525030524, -0.4932844932844933, -0.25, 0.375, -0.21875, 1.0
1007, 1.0085470085470085, -0.03785103785103785, -0.5323565323565324, -0.46875, 0.34375, -0.28125, 0.0
1008, 0.7045177045177046, 0.050061050061050064, -0.48473748473748474, -0.65625, 0.40625, -0.3125, 0.0
1009, 1.1794871794871795, -0.5384615384615384, -0.27106227106227104, -0.59375, 0.5, -0.375, 0.0
1010, 0.645909645909646, -0.37484737484737485, -0.22954822954822954, -0.375, 0.53125, -0.5, 0.0
1011, 0.7619047619047619, -0.6471306471306472, -0.031746031746031744, -0.125, 0.59375, -0.71875, 0.0
1012, 0.978021978021978, -1.0622710622710623, 0.2148962148962149, 0.0, 0.59375, -0.9375, 0.0
1013, 1.105006105006105, -1.783882783882784, 0.07692307692307693, -0.03125, 0.59375, -1.21875, 0.0
1014, 0.9352869352869353, -2.1636141636141635, 0.1562881562881563, -0.15625, 0.625, -1.53125, 0.0
1015, 0.7167277167277167, -2.515262515262515, 0.38095238095238093, -0.21875, 0.625, -1.8125, 0.0
1016, 0.7619047619047619, -2.52991452991453, 0.684981684981685, -0.1875, 0.625, -2.0625, 0.0
1017, 0.4371184371184371, -3.115995115995116, 0.5946275946275946, -0.1875, 0.625, -2.34375, 0.0
1018, 0.2515262515262515, -3.202686202686203, 1.0231990231990231, -0.1875, 0.6875, -2.6875, 0.0
1019, 0.11721611721611722, -2.976800976800977, 1.2442002442002442, -0.03125, 0.8125, -3.0, 0.0
1020, 0.2905982905982906, -2.907203907203907, 0.9963369963369964, 0.21875, 0.75, -3.1875, 0.0
1021, -1.1013431013431014, -4.140415140415141, 0.304029304029304, -0.09375, 0.0625, -3.15625, 0.0
1022, -1.442002442002442, -3.3516483516483517, 0.8705738705738706, -0.375, 0.125, -3.5, 0.0
1023, -0.8852258852258852, -2.446886446886447, 1.0537240537240538, -0.21875, 0.21875, -3.84375, 0.0
1024, -1.564102564102564, -2.6971916971916974, 1.0231990231990231, 0.09375, 0.15625, -4.15625, 0.0
1025, -2.8253968253968256, -3.0915750915750917, 0.5482295482295483, 0.3125, 0.28125, -4.125, 0.0
1026, -3.5213675213675213, -2.525030525030525, 0.5457875457875457, 0.3125, 0.375, -3.4375, 0.0
1027, -3.548229548229548, -2.6446886446886446, 0.1916971916971917, 0.53125, 0.8125, -3.25, 0.0
1028, -2.7435897435897436, -2.8046398046398044, 0.4835164835164835, 0.6875, 1.125, -3.375, 0.0
1029, -2.115995115995116, -2.595848595848596, 0.6898656898656899, 0.8125, 1.09375, -3.53125, 0.0
1030, -2.416361416361416, -2.5006105006105006, 0.10500610500610501, 1.03125, 0.96875, -3.8125, 0.0
1031, -3.2515262515262515, -2.866910866910867, -0.3663003663003663, 1.25, 0.78125, -4.03125, 0.0
1032, -4.462759462759463, -3.641025641025641, -0.833943833943834, 0.9375, 0.4375, -3.40625, 0.0
1033, -5.848595848595848, -3.41025641025641, -1.4981684981684982, 0.59375, 0.875, -3.15625, 0.0
1034, -5.283272283272283, -2.1953601953601956, -0.2967032967032967, 0.96875, 1.25, -3.21875, 0.0
1035, -4.1501831501831505, -2.1074481074481075, -0.5262515262515263, 1.21875, 1.03125, -3.125, 0.0
1036, -4.221001221001221, -2.562881562881563, -0.9853479853479854, 1.25, 0.75, -3.5, 0.0
1037, -4.863247863247863, -2.324786324786325, -1.4407814407814408, 1.21875, 0.53125, -3.96875, 0.0
1038, -4.887667887667888, -1.9731379731379732, -1.4566544566544566, 1.03125, 0.0, -3.875, 0.0
1039, -5.301587301587301, -1.7851037851037852, -1.4932844932844933, 0.5625, -0.71875, -3.4375, 0.0
1040, -6.47008547008547, -0.8485958485958486, -1.4884004884004884, 0.28125, -1.0, -3.09375, 0.0
1041, -7.809523809523809, -0.14285714285714285, -1.4395604395604396, 0.15625, -0.6875, -2.75, 0.0
1042, -8.438339438339439, 0.7032967032967034, -1.271062271062271, 0.25, 0.0625, -2.34375, 0.0
1043, -8.158730158730158, 1.2820512820512822, -1.271062271062271, 0.46875, 0.6875, -1.6875, 0.0
1044, -5.454212454212454, 0.7777777777777778, -1.3626373626373627, 0.0625, 0.03125, 0.0, 0.0
1045, -4.641025641025641, 0.4835164835164835, -1.4822954822954824, 0.0, 0.09375, 0.125, 0.0
1046, -3.385836385836386, 0.702075702075702, -1.2735042735042734, 0.0, 0.1875, 0.125, 0.0
1047, -2.3968253968253967, 0.8644688644688645, -1.2893772893772895, 0.0, 0.03125, 0.15625, 0.0
1048, -2.416361416361416, 0.7155067155067155, -1.7240537240537241, 0.0625, -0.09375, 0.15625, 0.0
1049, -1.8131868131868132, 0.11843711843711843, -1.956043956043956, 0.25, 0.03125, 0.0, 0.0
1050, -1.4737484737484738, -0.13797313797313798, -1.8815628815628815, 0.0625, 0.09375, -0.0625, 0.0
1051, -1.5421245421245422, 0.6373626373626373, -1.4871794871794872, -0.0625, 0.0, 0.0, 0.0
1052, -1.8656898656898657, 0.7142857142857143, -1.0903540903540903, 0.03125, 0.0625, 0.0625, 0.0
1053, -2.2063492063492065, -0.042735042735042736, -1.5909645909645909, 0.28125, 0.125, 0.15625, 1.0
1054, -3.456654456654457, -0.21978021978021978, -2.244200244200244, 0.15625, 0.0625, 0.34375, 1.0
1055, -5.1330891330891335, 0.4346764346764347, -2.3382173382173383, -0.28125, 0.09375, 1.21875, 1.0
1056, -7.085470085470085, 1.0879120879120878, -1.7545787545787546, -0.125, 0.4375, 1.6875, 1.0
1057, -7.158730158730159, 0.2844932844932845, -1.3186813186813187, -0.09375, 0.40625, 2.09375, 1.0
1058, -6.978021978021978, -1.3162393162393162, -1.8388278388278387, -0.46875, -0.25, 2.40625, 1.0
1059, -8.047619047619047, -1.691086691086691, -1.7423687423687424, -1.125, -0.65625, 2.75, 1.0
1060, -8.097680097680097, -1.2612942612942613, -1.8913308913308913, -1.4375, -0.8125, 3.28125, 1.0
1061, -7.549450549450549, -1.551892551892552, -2.1648351648351647, -1.40625, -0.8125, 3.78125, 1.0
1062, -6.162393162393163, -2.8119658119658117, -2.6105006105006106, -1.375, -0.9375, 4.125, 1.0
1063, -5.08058608058608, -4.374847374847374, -3.221001221001221, -1.5625, -1.1875, 4.4375, 1.0
1064, -5.412698412698413, -5.4664224664224665, -3.896214896214896, -1.75, -1.0625, 4.75, 1.0
1065, -4.633699633699634, -5.958485958485959, -3.293040293040293, -1.71875, -0.75, 5.0625, 1.0
1066, -3.4126984126984126, -6.818070818070818, -2.6617826617826617, -1.46875, -0.625, 5.1875, 1.0
1067, -2.3846153846153846, -7.858363858363858, -1.0903540903540903, -1.09375, -0.53125, 5.21875, 1.0
1068, -1.2332112332112333, -9.107448107448107, -0.34676434676434675, -0.90625, -0.46875, 5.25, 1.0
1069, -0.5299145299145299, -9.412698412698413, 0.13186813186813187, -0.75, -0.125, 5.03125, 1.0
1070, 0.2454212454212454, -8.866910866910867, 1.0183150183150182, -0.5625, 0.0, 4.6875, 1.0
1071, 0.6446886446886447, -7.956043956043956, 1.5421245421245422, -0.40625, -0.1875, 4.3125, 1.0
1072, 0.4053724053724054, -7.625152625152626, 2.1587301587301586, -0.21875, -0.5, 3.9375, 1.0
1073, 0.41025641025641024, -7.05982905982906, 2.1184371184371185, -0.15625, -0.59375, 3.46875, 1.0
1074, 0.8717948717948718, -6.174603174603175, 2.5225885225885225, -0.0625, -0.65625, 3.0625, 1.0
1075, 1.3357753357753357, -5.22954822954823, 2.6324786324786325, 0.09375, -0.8125, 2.65625, 1.0
1076, 1.3406593406593406, -5.03052503052503, 2.2796092796092795, 0.28125, -1.09375, 2.28125, 1.0
1077, 0.8620268620268621, -4.374847374847374, 1.4725274725274726, 0.28125, -1.34375, 1.9375, 1.0
1078, 0.7130647130647131, -3.3663003663003663, 1.1672771672771673, 0.28125, -1.46875, 1.8125, 1.0
1079, 0.6556776556776557, -2.9902319902319903, 0.8522588522588522, 0.4375, -1.28125, 1.53125, 1.0
1080, 0.6947496947496947, -2.4676434676434678, 0.6031746031746031, 0.53125, -1.0625, 1.5, 1.0
1081, 0.9474969474969475, -1.9609279609279608, 0.35775335775335776, 0.5625, -0.90625, 1.5625, 1.0
1082, 0.9230769230769231, -1.8766788766788767, -0.24175824175824176, 0.46875, -0.75, 1.53125, 1.0
1083, 1.0463980463980465, -1.188034188034188, -0.5665445665445665, 0.375, -0.5625, 1.40625, 1.0
1084, 1.2295482295482296, -0.4932844932844933, -0.052503052503052504, 0.4375, -0.40625, 1.40625, 1.0
1085, 1.9242979242979243, -0.18681318681318682, -0.057387057387057384, 0.65625, -0.25, 1.4375, 1.0
1086, 2.8351648351648353, -0.43345543345543347, -1.0293040293040292, 0.71875, -0.09375, 1.3125, 1.0
1087, 3.371184371184371, -0.31868131868131866, -1.9242979242979243, 0.625, 0.15625, 1.09375, 1.0
1088, 3.6910866910866913, -0.21245421245421245, -2.6166056166056166, 0.5, 0.40625, 0.96875, 1.0
1089, 4.273504273504273, -0.15506715506715507, -2.8925518925518925, 0.28125, 0.5625, 0.71875, 1.0
1090, 4.691086691086691, -0.2612942612942613, -2.402930402930403, 0.0, 0.625, 0.1875, 1.0
1091, 4.091575091575091, -0.358974358974359, -1.5970695970695972, -0.21875, 0.59375, -0.15625, 1.0
1092, 2.6910866910866913, -0.2905982905982906, -1.4065934065934067, -0.4375, 0.4375, -0.40625, 0.0
1093, 1.4236874236874237, -0.11843711843711843, -0.9621489621489622, -0.65625, 0.4375, -0.53125, 0.0
1094, 0.7264957264957265, 0.21611721611721613, -0.44078144078144077, -0.75, 0.5625, -0.59375, 0.0
1095, 0.7167277167277167, -0.050061050061050064, -0.16483516483516483, -0.65625, 0.625, -0.6875, 0.0
1096, 0.39194139194139194, -0.47374847374847373, -0.10744810744810745, -0.5, 0.625, -0.84375, 0.0
1097, 0.018315018315018316, -1.037851037851038, 0.05860805860805861, -0.21875, 0.65625, -1.0625, 0.0
1098, 0.03418803418803419, -1.5360195360195361, 0.2686202686202686, 0.0, 0.71875, -1.3125, 0.0
1099, -0.3064713064713065, -2.202686202686203, 0.27228327228327226, 0.09375, 0.6875, -1.5, 0.0
1100, -0.2869352869352869, -2.821733821733822, 0.6654456654456654, 0.09375, 0.84375, -1.625, 0.0
1101, 0.03663003663003663, -2.7374847374847375, 1.4346764346764347, 0.0625, 0.90625, -1.9375, 0.0
1102, 0.38095238095238093, -2.4945054945054945, 2.0463980463980462, 0.34375, 0.71875, -2.5, 0.0
1103, 0.5787545787545788, -2.5775335775335777, 1.873015873015873, 0.59375, 0.46875, -3.0625, 0.0
1104, 1.0183150183150182, -3.0488400488400487, 1.5396825396825398, 0.6875, 0.0, -3.71875, 0.0
1105, 0.4835164835164835, -3.3003663003663, 1.3247863247863247, 0.65625, -0.5, -4.28125, 0.0
1106, -0.04151404151404151, -4.0537240537240535, 0.7655677655677655, 0.4375, -0.8125, -4.6875, 0.0
1107, -0.7448107448107448, -3.896214896214896, 0.9291819291819292, 0.1875, -0.9375, -5.0, 0.0
1108, -0.9951159951159951, -2.7533577533577533, 1.3943833943833943, 0.21875, -1.0, -5.0625, 0.0
1109, -1.326007326007326, -2.8876678876678876, 0.905982905982906, 0.40625, -0.96875, -5.09375, 0.0
1110, -1.8547008547008548, -3.659340659340659, 0.35775335775335776, 0.34375, -0.78125, -5.125, 0.0
1111, -2.485958485958486, -3.8986568986568986, -0.06349206349206349, 0.21875, -0.53125, -5.0625, 0.0
1112, -3.0683760683760686, -3.5616605616605614, -0.35775335775335776, 0.15625, -0.25, -4.78125, 0.0
1113, -3.4761904761904763, -3.288156288156288, -0.8363858363858364, 0.0, 0.0, -4.0, 0.0
1114, -4.311355311355311, -2.6764346764346763, -0.4468864468864469, -0.28125, 0.375, -3.4375, 0.0
1115, -4.347985347985348, -2.3162393162393164, -0.040293040293040296, -0.3125, 0.84375, -3.0625, 0.0
1116, -3.584859584859585, -2.26007326007326, 0.2222222222222222, -0.0625, 1.1875, -2.96875, 0.0
1117, -3.3565323565323566, -1.9682539682539681, 0.3321123321123321, 0.09375, 1.25, -2.875, 0.0
1118, -3.2503052503052503, -2.3626373626373627, 0.03418803418803419, 0.125, 1.0625, -2.59375, 0.0
1119, -3.4383394383394386, -1.9291819291819292, -0.409035409035409, 0.0, 0.875, -2.28125, 0.0
1120, -3.960927960927961, -1.6227106227106227, -0.7203907203907204, 0.0, 0.78125, -2.28125, 0.0
1121, -4.22954822954823, -1.6092796092796093, -0.6923076923076923, 0.09375, 0.84375, -2.25, 0.0
1122, -4.032967032967033, -1.6117216117216118, -0.684981684981685, 0.03125, 0.90625, -2.125, 0.0
1123, -3.5714285714285716, -0.9792429792429792, -0.409035409035409, -0.03125, 0.9375, -2.0, 0.0
1124, -3.087912087912088, -0.9267399267399268, -0.4700854700854701, 0.0, 0.8125, -1.84375, 0.0
1125, -3.336996336996337, -0.6935286935286935, -0.9426129426129426, 0.125, 0.53125, -1.96875, 0.0
1126, -3.755799755799756, -0.8962148962148963, -1.332112332112332, 0.0, 0.46875, -2.0625, 0.0
1127, -3.9096459096459095, -0.23443223443223443, -1.028083028083028, 0.03125, 0.46875, -1.90625, 0.0
1128, -4.062271062271062, 0.03418803418803419, -0.5848595848595849, 0.0625, 0.5, -1.625, 0.0
1129, -3.542124542124542, 0.44078144078144077, -0.22954822954822954, 0.1875, 0.46875, -1.34375, 0.0
1130, -3.3614163614163615, 0.07326007326007326, -0.4065934065934066, 0.25, 0.40625, -1.15625, 0.0
1131, -2.855921855921856, -0.47619047619047616, -0.5286935286935287, 0.15625, 0.3125, -1.28125, 0.0
1132, -2.901098901098901, 0.5738705738705738, -0.16727716727716727, 0.3125, 0.1875, -1.3125, 0.0
1133, -3.010989010989011, 0.706959706959707, -0.43223443223443225, 0.5, 0.0, -1.25, 1.0
1134, -3.2112332112332114, 1.3626373626373627, -0.49694749694749696, 0.625, -0.28125, -1.15625, 1.0
1135, -3.7435897435897436, 1.4884004884004884, -0.5873015873015873, 0.78125, -0.375, -0.875, 1.0
1136, -4.47985347985348, 1.188034188034188, -1.4188034188034189, 0.9375, -0.03125, -0.59375, 1.0
1137, -4.968253968253968, 0.16361416361416362, -3.10989010989011, 0.5, -0.21875, 0.28125, 1.0
1138, -7.498168498168498, 0.5396825396825397, -2.583638583638584, 0.15625, -0.53125, 0.8125, 1.0
1139, -9.557997557997558, 1.4542124542124542, -1.750915750915751, 0.0, -0.125, 1.4375, 1.0
1140, -10.622710622710622, 1.1111111111111112, -0.967032967032967, 0.0625, 0.25, 2.375, 1.0
1141, -9.816849816849818, 0.4932844932844933, -0.5897435897435898, 0.3125, 0.3125, 3.4375, 1.0
1142, -8.57997557997558, -3.5946275946275947, -3.086691086691087, 0.40625, -0.03125, 4.09375, 1.0
1143, -8.263736263736265, -5.126984126984127, -3.9413919413919416, -0.46875, 0.0, 4.0, 1.0
1144, -6.884004884004884, -3.8205128205128207, -2.785103785103785, -1.34375, 0.125, 4.25, 1.0
1145, -5.565323565323565, -4.832722832722832, -2.1074481074481075, -1.59375, -0.1875, 4.65625, 1.0
1146, -4.5787545787545785, -5.643467643467644, -1.6324786324786325, -1.6875, -0.6875, 4.875, 1.0
1147, -3.937728937728938, -6.650793650793651, -1.3333333333333333, -1.65625, -1.03125, 4.96875, 1.0
1148, -3.4224664224664223, -7.47985347985348, -1.0573870573870574, -1.375, -1.21875, 5.15625, 1.0
1149, -2.681318681318681, -8.617826617826617, -1.496947496947497, -1.25, -1.03125, 5.15625, 1.0
1150, -1.9865689865689866, -9.636141636141636, -2.0036630036630036, -1.28125, -0.75, 5.0625, 1.0
1151, -1.4383394383394383, -9.776556776556777, -1.6251526251526252, -1.375, -0.46875, 5.0, 1.0
1152, -0.6544566544566545, -8.987789987789988, -0.6239316239316239, -1.1875, -0.34375, 4.78125, 1.0
1153, 0.21123321123321123, -8.257631257631258, 0.4822954822954823, -0.90625, -0.375, 4.46875, 1.0
1154, 1.054945054945055, -7.559218559218559, 1.0818070818070817, -0.53125, -0.625, 4.09375, 1.0
1155, 0.5091575091575091, -7.048840048840049, 1.0573870573870574, -0.3125, -0.90625, 3.84375, 1.0
1156, -0.6324786324786325, -7.103785103785103, 0.33943833943833945, -0.34375, -0.625, 3.59375, 1.0
1157, -0.27106227106227104, -6.16971916971917, 0.9108669108669109, -0.34375, -0.28125, 3.46875, 1.0
1158, 0.7680097680097681, -5.106227106227106, 1.9804639804639805, -0.125, -0.34375, 3.21875, 1.0
1159, 1.3357753357753357, -4.835164835164835, 2.324786324786325, 0.0625, -0.65625, 2.84375, 1.0
1160, 1.404151404151404, -4.627594627594628, 2.0256410256410255, 0.21875, -0.90625, 2.40625, 1.0
1161, 1.855921855921856, -3.2857142857142856, 1.547008547008547, 0.34375, -0.90625, 2.25, 1.0
1162, 2.0476190476190474, -2.8803418803418803, 0.9218559218559218, 0.53125, -1.0625, 1.96875, 1.0
1163, 2.0378510378510377, -2.0683760683760686, 0.8778998778998779, 0.59375, -1.25, 1.65625, 1.0
1164, 1.6080586080586081, -1.2576312576312576, 0.63003663003663, 0.6875, -1.28125, 1.4375, 1.0
1165, 2.0024420024420024, -1.253968253968254, -0.3516483516483517, 0.875, -1.03125, 1.3125, 1.0
1166, 3.3162393162393164, -1.2222222222222223, -1.387057387057387, 0.84375, -0.84375, 1.25, 1.0
1167, 4.163614163614164, -0.796092796092796, -2.15018315018315, 0.6875, -0.8125, 1.03125, 1.0
1168, 4.214896214896215, -0.3431013431013431, -3.021978021978022, 0.5, -0.71875, 0.75, 1.0
1169, 3.916971916971917, 0.08791208791208792, -2.885225885225885, 0.3125, -0.53125, 0.53125, 1.0
1170, 3.6056166056166057, 0.31013431013431014, -2.26007326007326, 0.15625, -0.21875, 0.3125, 1.0
1171, 3.5054945054945055, 0.5213675213675214, -1.4004884004884004, 0.0625, 0.0, 0.15625, 1.0
1172, 3.2637362637362637, 0.5714285714285714, -1.126984126984127, 0.0, -0.03125, 0.0, 1.0
1173, 2.462759462759463, 0.5702075702075702, -0.9731379731379731, -0.15625, -0.09375, -0.09375, 0.0
1174, 1.2344322344322345, 0.5934065934065934, -0.6971916971916972, -0.25, -0.03125, -0.03125, 0.0
1175, 0.608058608058608, 0.5177045177045178, -0.15384615384615385, -0.1875, 0.125, -0.03125, 0.0
1176, 0.7472527472527473, -0.5042735042735043, -0.36507936507936506, -0.1875, 0.28125, -0.25, 0.0
1177, 0.2564102564102564, -0.1221001221001221, -0.4004884004884005, -0.09375, 0.25, -0.5, 0.0
1178, 0.19536019536019536, -0.052503052503052504, -0.398046398046398, -0.03125, 0.21875, -0.625, 0.0
1179, -0.5934065934065934, -0.536019536019536, -0.4810744810744811, -0.03125, 0.625, -0.625, 0.0
1180, -0.8827838827838828, -0.5506715506715507, -0.6813186813186813, 0.0625, 1.375, -0.65625, 0.0
1181, -1.7765567765567765, -0.08913308913308914, -0.6886446886446886, 0.40625, 2.5, -0.75, 0.0
1182, -3.202686202686203, 1.3028083028083028, -0.05616605616605617, 1.21875, 4.03125, -0.65625, 0.0
1183, -4.244200244200244, 1.4053724053724053, 0.4725274725274725, 2.78125, 6.46875, -0.15625, 0.0
1184, -4.6752136752136755, 0.652014652014652, 3.087912087912088, 3.90625, 8.40625, 0.25, 0.0
1185, -4.3418803418803416, -0.21245421245421245, 3.954822954822955, 4.90625, 10.25, 0.84375, 0.0
1186, -0.978021978021978, -1.3296703296703296, 4.225885225885226, 5.46875, 11.25, 1.21875, 0.0
1187, 0.4652014652014652, -0.9963369963369964, 2.905982905982906, 5.5, 10.90625, 1.25, 0.0
1188, 3.247863247863248, 0.6190476190476191, 1.678876678876679, 5.4375, 10.0, 0.90625, 0.0
1189, 4.131868131868132, 7.660561660561661, -0.42246642246642246, 5.0, 8.0625, 0.5625, 0.0
1190, 3.937728937728938, 2.6666666666666665, -1.6886446886446886, 4.25, 5.875, 0.28125, 0.0
1191, 2.3894993894993894, 1.398046398046398, -2.313797313797314, 3.53125, 3.96875, 0.1875, 0.0
1192, 1.078144078144078, 0.8583638583638583, -2.440781440781441, 3.03125, 2.84375, 0.03125, 0.0
1193, 0.6166056166056166, 0.3882783882783883, -2.4395604395604398, 2.6875, 2.0625, -0.0625, 0.0
1194, -0.21367521367521367, 0.2271062271062271, -2.6117216117216118, 2.3125, 1.4375, 0.03125, 0.0
1195, 0.07448107448107448, -0.24786324786324787, -2.3223443223443225, 1.625, 0.5, 0.1875, 0.0
1196, -0.06837606837606838, -0.6239316239316239, -1.9145299145299146, 1.15625, -0.125, 0.1875, 0.0
1197, -0.4993894993894994, -0.5726495726495726, -1.1794871794871795, 0.75, -0.71875, 0.1875, 0.0
1198, -1.1074481074481075, 0.06349206349206349, -0.07448107448107448, 0.5, -1.28125, 0.25, 0.0
1199, -1.6715506715506716, 0.5470085470085471, 0.894993894993895, 0.34375, -1.90625, 0.375, 0.0
1200, -1.800976800976801, 1.0976800976800978, 1.6654456654456655, 0.0, -2.90625, 0.5625, 0.0
1201, -0.7667887667887668, 2.6275946275946276, 2.336996336996337, -0.53125, -4.25, 0.5625, 0.0
1202, 0.9804639804639804, 6.936507936507937, 3.4432234432234434, -1.0625, -5.9375, 0.125, 0.0
1203, 2.1514041514041513, 0.10622710622710622, 4.9010989010989015, -1.15625, -7.5, -0.84375, 0.0
1204, 1.2954822954822955, -2.554334554334554, 6.026862026862027, -0.875, -8.59375, -1.875, 0.0
1205, 0.8400488400488401, -2.659340659340659, 6.355311355311355, -0.125, -9.1875, -2.53125, 0.0
1206, 1.3015873015873016, -3.772893772893773, 6.317460317460317, 0.53125, -9.75, -3.71875, 0.0
1207, -2.5763125763125765, -5.862026862026862, 4.175824175824176, 0.40625, -9.96875, -4.375, 0.0
1208, -3.8583638583638584, -5.241758241758242, 3.4652014652014653, -0.03125, -9.375, -4.875, 0.0
1209, -4.965811965811966, -4.151404151404152, 2.658119658119658, -0.15625, -8.34375, -5.25, 0.0
1210, -7.313797313797314, -2.2673992673992673, 0.8571428571428571, 0.0, -6.625, -5.125, 0.0
1211, -7.280830280830281, -1.5811965811965811, -0.8131868131868132, 0.53125, -4.0625, -4.59375, 0.0
1212, -5.942612942612943, -1.8510378510378511, -1.1025641025641026, 0.90625, -1.6875, -3.75, 0.0
1213, -3.3797313797313797, -1.9706959706959708, -0.5860805860805861, 0.96875, -0.3125, -3.0625, 0.0
1214, -0.8925518925518926, -2.0207570207570207, -0.7704517704517705, 1.0625, -0.03125, -2.875, 0.0
1215, -1.2588522588522588, -1.9523809523809523, -1.3333333333333333, 1.125, -0.75, -3.125, 0.0
1216, -2.7606837606837606, -2.393162393162393, -2.028083028083028, 0.9375, -1.46875, -3.375, 0.0
1217, -5.6642246642246645, -1.7912087912087913, -2.445665445665446, 0.5, -1.4375, -3.4375, 0.0
1218, -6.874236874236874, -0.7264957264957265, -2.5335775335775335, 0.0, -0.125, -2.78125, 0.0
1219, -7.103785103785103, 0.14041514041514042, -2.034188034188034, -0.0625, 0.5625, -2.0625, 0.0
1220, -6.183150183150183, 0.37484737484737485, -1.4126984126984128, 0.0, 0.65625, -1.625, 0.0
1221, -5.31013431013431, 0.5409035409035409, -1.0305250305250304, 0.0, 0.3125, -1.375, 0.0
1222, -5.634920634920635, 0.8571428571428571, -0.8205128205128205, 0.0, -0.03125, -1.125, 0.0
1223, -6.686202686202686, 0.3418803418803419, -1.6495726495726495, 0.03125, 0.0, -0.90625, 0.0
1224, -7.684981684981685, 0.3089133089133089, -1.9145299145299146, 0.0, 0.3125, -0.6875, 0.0
1225, -7.275946275946276, 1.1733821733821734, -1.6617826617826619, 0.0, 0.5, -0.1875, 0.0
1226, -6.365079365079365, 1.0305250305250304, -1.5811965811965811, 0.0, 0.375, 0.1875, 0.0
1227, -5.881562881562882, 0.8449328449328449, -1.5982905982905984, 0.125, -0.0625, 0.34375, 1.0
1228, -7.372405372405372, 0.5885225885225885, -2.244200244200244, 0.125, -0.28125, 0.8125, 1.0
1229, -10.411477411477412, 0.14285714285714285, -2.4884004884004884, 0.0, 0.3125, 1.8125, 1.0
1230, -8.638583638583638, -1.0561660561660562, -1.072039072039072, 0.0625, 1.28125, 3.15625, 1.0
1231, -6.555555555555555, -2.2014652014652016, -1.2075702075702075, -0.03125, 0.84375, 3.5625, 1.0
1232, -6.2173382173382175, -3.0964590964590966, -2.0732600732600734, -0.4375, 0.09375, 3.78125, 1.0
1233, -6.338217338217338, -2.9511599511599513, -2.4761904761904763, -0.9375, -0.375, 4.125, 1.0
1234, -5.632478632478633, -3.043956043956044, -2.2905982905982905, -1.125, -0.625, 4.40625, 1.0
1235, -4.929181929181929, -4.500610500610501, -2.492063492063492, -1.09375, -0.84375, 4.4375, 1.0
1236, -4.484737484737485, -4.921855921855922, -2.4713064713064714, -1.40625, -1.0, 4.5, 1.0
1237, -3.7997557997557996, -5.611721611721611, -2.173382173382173, -1.59375, -1.0, 4.625, 1.0
1238, -2.982905982905983, -5.960927960927961, -1.9633699633699633, -1.78125, -0.8125, 4.75, 1.0
1239, -1.6617826617826619, -6.218559218559219, -1.1941391941391941, -1.5625, -0.71875, 4.8125, 1.0
1240, -0.8888888888888888, -6.771672771672772, -0.2893772893772894, -1.25, -0.75, 4.71875, 1.0
1241, -0.6092796092796092, -7.7765567765567765, 0.18315018315018314, -0.875, -0.6875, 4.5, 1.0
1242, 0.315018315018315, -7.824175824175824, 0.43101343101343104, -0.84375, -0.4375, 4.3125, 1.0
1243, 1.083028083028083, -7.446886446886447, 0.5347985347985348, -0.8125, -0.59375, 4.09375, 1.0
1244, 1.431013431013431, -6.726495726495727, 0.9706959706959707, -0.5625, -0.8125, 3.6875, 1.0
1245, 0.9120879120879121, -5.981684981684982, 1.3846153846153846, -0.28125, -0.9375, 3.4375, 1.0
1246, -0.03296703296703297, -5.424908424908425, 1.9438339438339438, -0.0625, -0.78125, 3.4375, 1.0
1247, 0.22832722832722832, -5.2967032967032965, 2.2283272283272284, 0.09375, -0.53125, 3.40625, 1.0
1248, 1.3553113553113554, -5.63980463980464, 1.7887667887667889, 0.09375, -0.5, 3.1875, 1.0
1249, 2.126984126984127, -5.135531135531136, 1.6056166056166057, 0.125, -0.625, 2.84375, 1.0
